"rt","key_press","trial_type","trial_index","time_elapsed","internal_node_id","view_history","responses","Id","Rt","ResKeyCode","ResCorr","TrialType2","Image","Label","Location","CorrectResponse","Block","BlockTrial","Condition","LabelType","Subcondition","trialNum"
"50964","32","text","0","50982","0.0-0.0-0.0","","","","","","","","","","","","","","","","",""
"109960","","instructions","1","160953","0.0-1.0","[{""page_index"":0,""viewing_time"":109954}]","","","","","","","","","","","","","","","",""
"44797","","survey-multi-choice","2","205844","0.0-2.0","","{""Q0"":""Da"",""Q1"":""Ne"",""Q2"":""Ne"",""Q3"":""Ne"",""Q4"":""Da"",""Q5"":""Da""}","","","","","","","","","","","","","","",""
"","","bio","3","217054","0.0-3.0","","{""age"":""19"",""gender"":""f"",""specify"":""""}","","","","","","","","","","","","","","",""
"","","approach-retreat","4","226718","0.0-4.0","","","2-4","8138","40","0","Training","Stims/Figures/57-C-30-1.bmp","za:saza","Down","38","1","1","6A","C2","C","1"
"","","approach-retreat","5","233424","0.0-5.0","","","2-4","5181","39","1","Training","Stims/Figures/44-J-10-3.bmp","vasha:va","Right","39","1","2","6A","C1","C","2"
"","","approach-retreat","6","240705","0.0-6.0","","","2-4","5761","39","0","Training","Stims/Figures/87-J-10-4.bmp","va:sha:va","Left","37","1","3","6A","C1","C","3"
"","","approach-retreat","7","248419","0.0-7.0","","","2-4","6191","40","1","Training","Stims/Figures/7-C-20-4.bmp","saha:ha","Up","40","1","4","6A","C2","C","4"
"","","approach-retreat","8","255548","0.0-8.0","","","2-4","5602","38","1","Training","Stims/Figures/111-C-30-3.bmp","sa:saha","Down","38","1","5","6A","C2","C","5"
"","","approach-retreat","9","261895","0.0-9.0","","","2-4","4824","38","0","Training","Stims/Figures/87-C-20-4.bmp","saha:za","Up","40","1","6","6A","C2","C","6"
"","","approach-retreat","10","267884","0.0-10.0","","","2-4","4466","39","1","Training","Stims/Figures/44-C-30-3.bmp","za:ha:za","Left","39","1","7","6A","C2","C","7"
"","","approach-retreat","11","274289","0.0-11.0","","","2-4","4881","38","1","Training","Stims/Figures/71-J-0-1.bmp","fafa:sha","Up","38","1","8","6A","C1","C","8"
"","","approach-retreat","12","280464","0.0-12.0","","","2-4","4658","37","1","Training","Stims/Figures/139-C-20-2.bmp","zasaha","Right","37","1","9","6A","C2","C","9"
"","","approach-retreat","13","286411","0.0-13.0","","","2-4","4423","38","1","Training","Stims/Figures/118-C-20-2.bmp","za:haha","Down","38","1","10","6A","C2","C","10"
"","","approach-retreat","14","292733","0.0-14.0","","","2-4","4778","38","1","Training","Stims/Figures/7-J-10-4.bmp","va:fa:sha","Up","38","1","11","6A","C1","C","11"
"","","approach-retreat","15","299058","0.0-15.0","","","2-4","4787","40","0","Training","Stims/Figures/71-C-30-1.bmp","sa:saza","Down","38","1","12","6A","C2","C","12"
"","","approach-retreat","16","305619","0.0-16.0","","","2-4","5041","37","1","Training","Stims/Figures/118-J-0-2.bmp","fafava","Left","37","1","13","6A","C1","C","13"
"","","approach-retreat","17","312683","0.0-17.0","","","2-4","5534","37","1","Training","Stims/Figures/57-J-0-1.bmp","fa:shasha","Left","37","1","14","6A","C1","C","14"
"","","approach-retreat","18","319454","0.0-18.0","","","2-4","5254","37","0","Training","Stims/Figures/139-J-0-2.bmp","fasha:sha","Right","39","1","15","6A","C1","C","15"
"","","approach-retreat","19","326005","0.0-19.0","","","2-4","5034","37","0","Training","Stims/Figures/111-J-10-3.bmp","vafava","Right","39","1","16","6A","C1","C","16"
"","","approach-retreat","20","332512","0.0-20.0","","","2-4","4992","38","1","Training","Stims/Figures/57-C-30-1.bmp","za:saza","Down","38","2","1","6A","C2","C","17"
"","","approach-retreat","21","341256","0.0-21.0","","","2-4","7228","40","0","Training","Stims/Figures/71-C-30-1.bmp","sa:saza","Down","38","2","2","6A","C2","C","18"
"","","approach-retreat","22","347786","0.0-22.0","","","2-4","5013","37","0","Training","Stims/Figures/57-J-0-1.bmp","fa:shasha","Right","39","2","3","6A","C1","C","19"
"","","approach-retreat","23","355422","0.0-23.0","","","2-4","6123","40","0","Training","Stims/Figures/111-J-10-3.bmp","vafava","Up","38","2","4","6A","C1","C","20"
"","","approach-retreat","24","365737","0.0-24.0","","","2-4","8799","40","0","Training","Stims/Figures/87-J-10-4.bmp","va:sha:va","Up","38","2","5","6A","C1","C","21"
"","","approach-retreat","25","376148","0.0-25.0","","","2-4","8893","40","0","Training","Stims/Figures/118-J-0-2.bmp","fafava","Up","38","2","6","6A","C1","C","22"
"","","approach-retreat","26","382507","0.0-26.0","","","2-4","4851","37","0","Training","Stims/Figures/7-J-10-4.bmp","va:fa:sha","Right","39","2","7","6A","C1","C","23"
"","","approach-retreat","27","388562","0.0-27.0","","","2-4","4535","39","1","Training","Stims/Figures/44-C-30-3.bmp","za:ha:za","Left","39","2","8","6A","C2","C","24"
"","","approach-retreat","28","394276","0.0-28.0","","","2-4","4206","37","1","Training","Stims/Figures/87-C-20-4.bmp","saha:za","Right","37","2","9","6A","C2","C","25"
"","","approach-retreat","29","400116","0.0-29.0","","","2-4","4330","39","0","Training","Stims/Figures/139-C-20-2.bmp","zasaha","Right","37","2","10","6A","C2","C","26"
"","","approach-retreat","30","406071","0.0-30.0","","","2-4","4436","39","1","Training","Stims/Figures/118-C-20-2.bmp","za:haha","Left","39","2","11","6A","C2","C","27"
"","","approach-retreat","31","412097","0.0-31.0","","","2-4","4506","39","1","Training","Stims/Figures/111-C-30-3.bmp","sa:saha","Left","39","2","12","6A","C2","C","28"
"","","approach-retreat","32","417860","0.0-32.0","","","2-4","4241","38","0","Training","Stims/Figures/71-J-0-1.bmp","fafa:sha","Down","40","2","13","6A","C1","C","29"
"","","approach-retreat","33","423646","0.0-33.0","","","2-4","4267","39","1","Training","Stims/Figures/7-C-20-4.bmp","saha:ha","Left","39","2","14","6A","C2","C","30"
"","","approach-retreat","34","429703","0.0-34.0","","","2-4","4542","40","0","Training","Stims/Figures/44-J-10-3.bmp","vasha:va","Up","38","2","15","6A","C1","C","31"
"","","approach-retreat","35","436901","0.0-35.0","","","2-4","5682","38","0","Training","Stims/Figures/139-J-0-2.bmp","fasha:sha","Down","40","2","16","6A","C1","C","32"
"","","approach-retreat","36","442794","0.0-36.0","","","2-4","4376","37","0","Training","Stims/Figures/7-J-10-4.bmp","va:fa:sha","Right","39","3","1","6A","C1","C","33"
"","","approach-retreat","37","448878","0.0-37.0","","","2-4","4552","38","1","Training","Stims/Figures/57-J-0-1.bmp","fa:shasha","Up","38","3","2","6A","C1","C","34"
"","","approach-retreat","38","454822","0.0-38.0","","","2-4","4427","39","1","Training","Stims/Figures/111-C-30-3.bmp","sa:saha","Left","39","3","3","6A","C2","C","35"
"","","approach-retreat","39","460879","0.0-39.0","","","2-4","4538","37","1","Training","Stims/Figures/111-J-10-3.bmp","vafava","Left","37","3","4","6A","C1","C","36"
"","","approach-retreat","40","467513","0.0-40.0","","","2-4","5115","39","1","Training","Stims/Figures/44-J-10-3.bmp","vasha:va","Right","39","3","5","6A","C1","C","37"
"","","approach-retreat","41","473239","0.0-41.0","","","2-4","4209","39","1","Training","Stims/Figures/87-C-20-4.bmp","saha:za","Left","39","3","6","6A","C2","C","38"
"","","approach-retreat","42","479384","0.0-42.0","","","2-4","4627","38","1","Training","Stims/Figures/7-C-20-4.bmp","saha:ha","Down","38","3","7","6A","C2","C","39"
"","","approach-retreat","43","485630","0.0-43.0","","","2-4","4731","39","0","Training","Stims/Figures/57-C-30-1.bmp","za:saza","Right","37","3","8","6A","C2","C","40"
"","","approach-retreat","44","492466","0.0-44.0","","","2-4","5322","40","1","Training","Stims/Figures/118-C-20-2.bmp","za:haha","Up","40","3","9","6A","C2","C","41"
"","","approach-retreat","45","498842","0.0-45.0","","","2-4","4862","38","1","Training","Stims/Figures/71-C-30-1.bmp","sa:saza","Down","38","3","10","6A","C2","C","42"
"","","approach-retreat","46","507199","0.0-46.0","","","2-4","6840","38","1","Training","Stims/Figures/71-J-0-1.bmp","fafa:sha","Up","38","3","11","6A","C1","C","43"
"","","approach-retreat","47","513714","0.0-47.0","","","2-4","5003","39","1","Training","Stims/Figures/87-J-10-4.bmp","va:sha:va","Right","39","3","12","6A","C1","C","44"
"","","approach-retreat","48","519860","0.0-48.0","","","2-4","4626","40","0","Training","Stims/Figures/44-C-30-3.bmp","za:ha:za","Down","38","3","13","6A","C2","C","45"
"","","approach-retreat","49","525745","0.0-49.0","","","2-4","4370","38","0","Training","Stims/Figures/139-J-0-2.bmp","fasha:sha","Down","40","3","14","6A","C1","C","46"
"","","approach-retreat","50","532081","0.0-50.0","","","2-4","4818","40","1","Training","Stims/Figures/139-C-20-2.bmp","zasaha","Up","40","3","15","6A","C2","C","47"
"","","approach-retreat","51","547355","0.0-51.0","","","2-4","13754","37","1","Training","Stims/Figures/118-J-0-2.bmp","fafava","Left","37","3","16","6A","C1","C","48"
"","","approach-retreat","52","556827","0.0-52.0","","","2-4","7960","39","1","Training","Stims/Figures/7-C-20-4.bmp","saha:ha","Left","39","4","1","6A","C2","C","49"
"","","approach-retreat","53","565168","0.0-53.0","","","2-4","6827","40","0","Training","Stims/Figures/111-C-30-3.bmp","sa:saha","Down","38","4","2","6A","C2","C","50"
"","","approach-retreat","54","577638","0.0-54.0","","","2-4","10953","38","0","Training","Stims/Figures/118-C-20-2.bmp","za:haha","Up","40","4","3","6A","C2","C","51"
"","","approach-retreat","55","589935","0.0-55.0","","","2-4","10777","37","1","Training","Stims/Figures/57-C-30-1.bmp","za:saza","Right","37","4","4","6A","C2","C","52"
"","","approach-retreat","56","604037","0.0-56.0","","","2-4","12589","37","0","Training","Stims/Figures/57-J-0-1.bmp","fa:shasha","Right","39","4","5","6A","C1","C","53"
"","","approach-retreat","57","611492","0.0-57.0","","","2-4","5936","40","1","Training","Stims/Figures/118-J-0-2.bmp","fafava","Down","40","4","6","6A","C1","C","54"
"","","approach-retreat","58","618036","0.0-58.0","","","2-4","5031","38","1","Training","Stims/Figures/44-J-10-3.bmp","vasha:va","Up","38","4","7","6A","C1","C","55"
"","","approach-retreat","59","629741","0.0-59.0","","","2-4","10184","39","0","Training","Stims/Figures/7-J-10-4.bmp","va:fa:sha","Left","37","4","8","6A","C1","C","56"
"","","approach-retreat","60","645760","0.0-60.0","","","2-4","14506","37","0","Training","Stims/Figures/111-J-10-3.bmp","vafava","Right","39","4","9","6A","C1","C","57"
"","","approach-retreat","61","652637","0.0-61.0","","","2-4","5363","38","1","Training","Stims/Figures/139-C-20-2.bmp","zasaha","Down","38","4","10","6A","C2","C","58"
"","","approach-retreat","62","664753","0.0-62.0","","","2-4","10602","38","0","Training","Stims/Figures/71-C-30-1.bmp","sa:saza","Up","40","4","11","6A","C2","C","59"
"","","approach-retreat","63","677883","0.0-63.0","","","2-4","11617","37","0","Training","Stims/Figures/44-C-30-3.bmp","za:ha:za","Left","39","4","12","6A","C2","C","60"
"","","approach-retreat","64","696683","0.0-64.0","","","2-4","17285","40","1","Training","Stims/Figures/87-J-10-4.bmp","va:sha:va","Down","40","4","13","6A","C1","C","61"
"","","approach-retreat","65","703901","0.0-65.0","","","2-4","5695","38","1","Training","Stims/Figures/139-J-0-2.bmp","fasha:sha","Up","38","4","14","6A","C1","C","62"
"","","approach-retreat","66","717479","0.0-66.0","","","2-4","12062","39","1","Training","Stims/Figures/71-J-0-1.bmp","fafa:sha","Right","39","4","15","6A","C1","C","63"
"","","approach-retreat","67","732081","0.0-67.0","","","2-4","13094","37","0","Training","Stims/Figures/87-C-20-4.bmp","saha:za","Left","39","4","16","6A","C2","C","64"
"","","approach-retreat","68","738054","0.0-68.0","","","2-4","4456","38","1","Training","Stims/Figures/139-C-20-2.bmp","zasaha","Down","38","5","1","6A","C2","C","65"
"","","approach-retreat","69","744330","0.0-69.0","","","2-4","4766","39","1","Training","Stims/Figures/7-C-20-4.bmp","saha:ha","Left","39","5","2","6A","C2","C","66"
"","","approach-retreat","70","755134","0.0-70.0","","","2-4","9295","40","1","Training","Stims/Figures/87-C-20-4.bmp","saha:za","Up","40","5","3","6A","C2","C","67"
"","","approach-retreat","71","762675","0.0-71.0","","","2-4","6027","38","1","Training","Stims/Figures/139-J-0-2.bmp","fasha:sha","Up","38","5","4","6A","C1","C","68"
"","","approach-retreat","72","774388","0.0-72.0","","","2-4","10204","40","1","Training","Stims/Figures/7-J-10-4.bmp","va:fa:sha","Down","40","5","5","6A","C1","C","69"
"","","approach-retreat","73","785284","0.0-73.0","","","2-4","9377","39","1","Training","Stims/Figures/44-C-30-3.bmp","za:ha:za","Left","39","5","6","6A","C2","C","70"
"","","approach-retreat","74","799266","0.0-74.0","","","2-4","12474","38","0","Training","Stims/Figures/71-C-30-1.bmp","sa:saza","Up","40","5","7","6A","C2","C","71"
"","","approach-retreat","75","806402","0.0-75.0","","","2-4","5621","39","1","Training","Stims/Figures/57-C-30-1.bmp","za:saza","Left","39","5","8","6A","C2","C","72"
"","","approach-retreat","76","819307","0.0-76.0","","","2-4","11389","37","0","Training","Stims/Figures/71-J-0-1.bmp","fafa:sha","Right","39","5","9","6A","C1","C","73"
"","","approach-retreat","77","827141","0.0-77.0","","","2-4","6323","38","1","Training","Stims/Figures/44-J-10-3.bmp","vasha:va","Up","38","5","10","6A","C1","C","74"
"","","approach-retreat","78","836880","0.0-78.0","","","2-4","8231","39","1","Training","Stims/Figures/87-J-10-4.bmp","va:sha:va","Right","39","5","11","6A","C1","C","75"
"","","approach-retreat","79","852482","0.0-79.0","","","2-4","14091","37","1","Training","Stims/Figures/118-C-20-2.bmp","za:haha","Right","37","5","12","6A","C2","C","76"
"","","approach-retreat","80","861747","0.0-80.0","","","2-4","7757","39","1","Training","Stims/Figures/118-J-0-2.bmp","fafava","Right","39","5","13","6A","C1","C","77"
"","","approach-retreat","81","868679","0.0-81.0","","","2-4","5418","37","1","Training","Stims/Figures/111-J-10-3.bmp","vafava","Left","37","5","14","6A","C1","C","78"
"","","approach-retreat","82","876700","0.0-82.0","","","2-4","6504","38","1","Training","Stims/Figures/111-C-30-3.bmp","sa:saha","Down","38","5","15","6A","C2","C","79"
"","","approach-retreat","83","883537","0.0-83.0","","","2-4","5328","40","1","Training","Stims/Figures/57-J-0-1.bmp","fa:shasha","Down","40","5","16","6A","C1","C","80"
"","","approach-retreat","84","892246","0.0-84.0","","","2-4","7195","37","1","Training","Stims/Figures/111-J-10-3.bmp","vafava","Left","37","6","1","6A","C1","C","81"
"","","approach-retreat","85","900442","0.0-85.0","","","2-4","6684","40","1","Training","Stims/Figures/111-C-30-3.bmp","sa:saha","Up","40","6","2","6A","C2","C","82"
"","","approach-retreat","86","918844","0.0-86.0","","","2-4","16895","38","1","Training","Stims/Figures/87-C-20-4.bmp","saha:za","Down","38","6","3","6A","C2","C","83"
"","","approach-retreat","87","928912","0.0-87.0","","","2-4","8552","37","1","Training","Stims/Figures/118-C-20-2.bmp","za:haha","Right","37","6","4","6A","C2","C","84"
"","","approach-retreat","88","936020","0.0-88.0","","","2-4","5591","38","1","Training","Stims/Figures/7-J-10-4.bmp","va:fa:sha","Up","38","6","5","6A","C1","C","85"
"","","approach-retreat","89","953742","0.0-89.0","","","2-4","16196","37","0","Training","Stims/Figures/44-C-30-3.bmp","za:ha:za","Left","39","6","6","6A","C2","C","86"
"","","approach-retreat","90","961967","0.0-90.0","","","2-4","6716","37","1","Training","Stims/Figures/139-J-0-2.bmp","fasha:sha","Left","37","6","7","6A","C1","C","87"
"","","approach-retreat","91","970982","0.0-91.0","","","2-4","7498","38","1","Training","Stims/Figures/44-J-10-3.bmp","vasha:va","Up","38","6","8","6A","C1","C","88"
"","","approach-retreat","92","980896","0.0-92.0","","","2-4","8400","39","1","Training","Stims/Figures/71-J-0-1.bmp","fafa:sha","Right","39","6","9","6A","C1","C","89"
"","","approach-retreat","93","986720","0.0-93.0","","","2-4","4308","39","1","Training","Stims/Figures/139-C-20-2.bmp","zasaha","Left","39","6","10","6A","C2","C","90"
"","","approach-retreat","94","994639","0.0-94.0","","","2-4","6399","39","1","Training","Stims/Figures/57-J-0-1.bmp","fa:shasha","Right","39","6","11","6A","C1","C","91"
"","","approach-retreat","95","1002414","0.0-95.0","","","2-4","6262","40","1","Training","Stims/Figures/7-C-20-4.bmp","saha:ha","Up","40","6","12","6A","C2","C","92"
"","","approach-retreat","96","1010294","0.0-96.0","","","2-4","6368","40","0","Training","Stims/Figures/57-C-30-1.bmp","za:saza","Down","38","6","13","6A","C2","C","93"
"","","approach-retreat","97","1019795","0.0-97.0","","","2-4","7982","39","1","Training","Stims/Figures/118-J-0-2.bmp","fafava","Right","39","6","14","6A","C1","C","94"
"","","approach-retreat","98","1031456","0.0-98.0","","","2-4","10141","38","1","Training","Stims/Figures/71-C-30-1.bmp","sa:saza","Down","38","6","15","6A","C2","C","95"
"","","approach-retreat","99","1049356","0.0-99.0","","","2-4","16385","40","1","Training","Stims/Figures/87-J-10-4.bmp","va:sha:va","Down","40","6","16","6A","C1","C","96"
"","","approach-retreat","100","1057057","0.0-100.0","","","2-4","6190","37","1","Training","Stims/Figures/87-J-10-4.bmp","va:sha:va","Left","37","7","1","6A","C1","C","97"
"","","approach-retreat","101","1067231","0.0-101.0","","","2-4","8656","40","1","Training","Stims/Figures/87-C-20-4.bmp","saha:za","Up","40","7","2","6A","C2","C","98"
"","","approach-retreat","102","1079825","0.0-102.0","","","2-4","11079","38","1","Training","Stims/Figures/111-J-10-3.bmp","vafava","Up","38","7","3","6A","C1","C","99"
"","","approach-retreat","103","1087956","0.0-103.0","","","2-4","6620","38","0","Training","Stims/Figures/139-J-0-2.bmp","fasha:sha","Down","40","7","4","6A","C1","C","100"
"","","approach-retreat","104","1096055","0.0-104.0","","","2-4","6584","39","1","Training","Stims/Figures/57-C-30-1.bmp","za:saza","Left","39","7","5","6A","C2","C","101"
"","","approach-retreat","105","1108109","0.0-105.0","","","2-4","10538","38","1","Training","Stims/Figures/44-J-10-3.bmp","vasha:va","Up","38","7","6","6A","C1","C","102"
"","","approach-retreat","106","1117706","0.0-106.0","","","2-4","8083","40","1","Training","Stims/Figures/118-C-20-2.bmp","za:haha","Up","40","7","7","6A","C2","C","103"
"","","approach-retreat","107","1125898","0.0-107.0","","","2-4","6681","39","1","Training","Stims/Figures/71-J-0-1.bmp","fafa:sha","Right","39","7","8","6A","C1","C","104"
"","","approach-retreat","108","1133808","0.0-108.0","","","2-4","6399","37","1","Training","Stims/Figures/7-C-20-4.bmp","saha:ha","Right","37","7","9","6A","C2","C","105"
"","","approach-retreat","109","1144073","0.0-109.0","","","2-4","8751","37","1","Training","Stims/Figures/118-J-0-2.bmp","fafava","Left","37","7","10","6A","C1","C","106"
"","","approach-retreat","110","1150711","0.0-110.0","","","2-4","5129","38","1","Training","Stims/Figures/111-C-30-3.bmp","sa:saha","Down","38","7","11","6A","C2","C","107"
"","","approach-retreat","111","1159464","0.0-111.0","","","2-4","7240","38","1","Training","Stims/Figures/44-C-30-3.bmp","za:ha:za","Down","38","7","12","6A","C2","C","108"
"","","approach-retreat","112","1172991","0.0-112.0","","","2-4","12012","38","1","Training","Stims/Figures/139-C-20-2.bmp","zasaha","Down","38","7","13","6A","C2","C","109"
"","","approach-retreat","113","1180181","0.0-113.0","","","2-4","5673","39","1","Training","Stims/Figures/7-J-10-4.bmp","va:fa:sha","Right","39","7","14","6A","C1","C","110"
"","","approach-retreat","114","1194805","0.0-114.0","","","2-4","13118","37","1","Training","Stims/Figures/71-C-30-1.bmp","sa:saza","Right","37","7","15","6A","C2","C","111"
"","","approach-retreat","115","1202911","0.0-115.0","","","2-4","6580","37","1","Training","Stims/Figures/57-J-0-1.bmp","fa:shasha","Left","37","7","16","6A","C1","C","112"
"","","approach-retreat","116","1210253","0.0-116.0","","","2-4","5828","38","0","Training","Stims/Figures/71-J-0-1.bmp","fafa:sha","Down","40","8","1","6A","C1","C","113"
"","","approach-retreat","117","1220315","0.0-117.0","","","2-4","8549","40","1","Training","Stims/Figures/118-J-0-2.bmp","fafava","Down","40","8","2","6A","C1","C","114"
"","","approach-retreat","118","1229823","0.0-118.0","","","2-4","7994","39","1","Training","Stims/Figures/111-C-30-3.bmp","sa:saha","Left","39","8","3","6A","C2","C","115"
"","","approach-retreat","119","1246231","0.0-119.0","","","2-4","14894","40","0","Training","Stims/Figures/111-J-10-3.bmp","vafava","Up","38","8","4","6A","C1","C","116"
"","","approach-retreat","120","1259468","0.0-120.0","","","2-4","11726","38","1","Training","Stims/Figures/57-C-30-1.bmp","za:saza","Down","38","8","5","6A","C2","C","117"
"","","approach-retreat","121","1267646","0.0-121.0","","","2-4","6662","37","1","Training","Stims/Figures/71-C-30-1.bmp","sa:saza","Right","37","8","6","6A","C2","C","118"
"","","approach-retreat","122","1279446","0.0-122.0","","","2-4","10279","39","1","Training","Stims/Figures/118-C-20-2.bmp","za:haha","Left","39","8","7","6A","C2","C","119"
"","","approach-retreat","123","1292037","0.0-123.0","","","2-4","11078","40","0","Training","Stims/Figures/44-J-10-3.bmp","vasha:va","Up","38","8","8","6A","C1","C","120"
"","","approach-retreat","124","1298955","0.0-124.0","","","2-4","5412","37","1","Training","Stims/Figures/57-J-0-1.bmp","fa:shasha","Left","37","8","9","6A","C1","C","121"
"","","approach-retreat","125","1310097","0.0-125.0","","","2-4","9629","37","1","Training","Stims/Figures/44-C-30-3.bmp","za:ha:za","Right","37","8","10","6A","C2","C","122"
"","","approach-retreat","126","1320164","0.0-126.0","","","2-4","8548","38","1","Training","Stims/Figures/139-C-20-2.bmp","zasaha","Down","38","8","11","6A","C2","C","123"
"","","approach-retreat","127","1329144","0.0-127.0","","","2-4","7466","38","1","Training","Stims/Figures/7-J-10-4.bmp","va:fa:sha","Up","38","8","12","6A","C1","C","124"
"","","approach-retreat","128","1335710","0.0-128.0","","","2-4","5051","39","1","Training","Stims/Figures/139-J-0-2.bmp","fasha:sha","Right","39","8","13","6A","C1","C","125"
"","","approach-retreat","129","1348076","0.0-129.0","","","2-4","10848","38","1","Training","Stims/Figures/87-J-10-4.bmp","va:sha:va","Up","38","8","14","6A","C1","C","126"
"","","approach-retreat","130","1355090","0.0-130.0","","","2-4","5498","39","0","Training","Stims/Figures/87-C-20-4.bmp","saha:za","Right","37","8","15","6A","C2","C","127"
"","","approach-retreat","131","1361179","0.0-131.0","","","2-4","4578","39","1","Training","Stims/Figures/7-C-20-4.bmp","saha:ha","Left","39","8","16","6A","C2","C","128"
"","","approach-retreat","132","1371926","0.0-132.0","","","2-4","9231","38","1","Training","Stims/Figures/57-C-30-1.bmp","za:saza","Down","38","9","1","6A","C2","C","129"
"","","approach-retreat","133","1377809","0.0-133.0","","","2-4","4366","40","1","Training","Stims/Figures/111-J-10-3.bmp","vafava","Down","40","9","2","6A","C1","C","130"
"","","approach-retreat","134","1384325","0.0-134.0","","","2-4","4995","40","1","Training","Stims/Figures/7-C-20-4.bmp","saha:ha","Up","40","9","3","6A","C2","C","131"
"","","approach-retreat","135","1390400","0.0-135.0","","","2-4","4562","38","1","Training","Stims/Figures/118-C-20-2.bmp","za:haha","Down","38","9","4","6A","C2","C","132"
"","","approach-retreat","136","1396383","0.0-136.0","","","2-4","4463","39","0","Training","Stims/Figures/139-C-20-2.bmp","zasaha","Right","37","9","5","6A","C2","C","133"
"","","approach-retreat","137","1407587","0.0-137.0","","","2-4","9689","37","0","Training","Stims/Figures/44-J-10-3.bmp","vasha:va","Right","39","9","6","6A","C1","C","134"
"","","approach-retreat","138","1415929","0.0-138.0","","","2-4","6829","37","1","Training","Stims/Figures/57-J-0-1.bmp","fa:shasha","Left","37","9","7","6A","C1","C","135"
"","","approach-retreat","139","1424459","0.0-139.0","","","2-4","7007","37","1","Training","Stims/Figures/118-J-0-2.bmp","fafava","Left","37","9","8","6A","C1","C","136"
"","","approach-retreat","140","1433881","0.0-140.0","","","2-4","7896","40","1","Training","Stims/Figures/44-C-30-3.bmp","za:ha:za","Up","40","9","9","6A","C2","C","137"
"","","approach-retreat","141","1442181","0.0-141.0","","","2-4","6791","37","1","Training","Stims/Figures/139-J-0-2.bmp","fasha:sha","Left","37","9","10","6A","C1","C","138"
"","","approach-retreat","142","1454626","0.0-142.0","","","2-4","10935","40","0","Training","Stims/Figures/71-C-30-1.bmp","sa:saza","Down","38","9","11","6A","C2","C","139"
"","","approach-retreat","143","1462174","0.0-143.0","","","2-4","6038","40","1","Training","Stims/Figures/87-C-20-4.bmp","saha:za","Up","40","9","12","6A","C2","C","140"
"","","approach-retreat","144","1470443","0.0-144.0","","","2-4","6749","39","1","Training","Stims/Figures/87-J-10-4.bmp","va:sha:va","Right","39","9","13","6A","C1","C","141"
"","","approach-retreat","145","1477249","0.0-145.0","","","2-4","5291","37","1","Training","Stims/Figures/111-C-30-3.bmp","sa:saha","Right","37","9","14","6A","C2","C","142"
"","","approach-retreat","146","1486103","0.0-146.0","","","2-4","7337","38","1","Training","Stims/Figures/71-J-0-1.bmp","fafa:sha","Up","38","9","15","6A","C1","C","143"
"","","approach-retreat","147","1493511","0.0-147.0","","","2-4","5896","37","1","Training","Stims/Figures/7-J-10-4.bmp","va:fa:sha","Left","37","9","16","6A","C1","C","144"
"18598","","instructions","148","1512110","0.0-148.0","[{""page_index"":0,""viewing_time"":18596}]","","","","","","","","","","","","","","","",""
"","","approach-retreat","149","1524185","0.0-149.0","","","2-4","10551","37","0","Testing","Stims/Figures/7-J-10-4.bmp","va:fa:sha","Right","39","1","1","6A","C1","C","1"
"","","approach-retreat","150","1531877","0.0-150.0","","","2-4","6170","38","1","Testing","Stims/Figures/86-J-0-1.bmp","vafa:va","Up","38","1","2","6A","C1","C","2"
"","","approach-retreat","151","1537964","0.0-151.0","","","2-4","4570","40","0","Testing","Stims/Figures/102-J-10-4.bmp","va:fasha","Up","38","1","3","6A","C1","C","3"
"","","approach-retreat","152","1543931","0.0-152.0","","","2-4","4449","40","0","Testing","Stims/Figures/44-C-30-3.bmp","za:ha:za","Down","38","1","4","6A","C2","C","4"
"","","approach-retreat","153","1550107","0.0-153.0","","","2-4","4663","37","1","Testing","Stims/Figures/102-C-20-4.bmp","za:ha:ha","Right","37","1","5","6A","C2","C","5"
"","","approach-retreat","154","1555892","0.0-154.0","","","2-4","4264","38","1","Testing","Stims/Figures/100-J-10-3.bmp","va:shasha","Up","38","1","6","6A","C1","C","6"
"","","approach-retreat","155","1561819","0.0-155.0","","","2-4","4408","37","1","Testing","Stims/Figures/87-J-10-4.bmp","va:sha:va","Left","37","1","7","6A","C1","C","7"
"","","approach-retreat","156","1567545","0.0-156.0","","","2-4","4208","38","1","Testing","Stims/Figures/139-C-20-2.bmp","zasaha","Down","38","1","8","6A","C2","C","8"
"","","approach-retreat","157","1573459","0.0-157.0","","","2-4","4401","37","0","Testing","Stims/Figures/44-J-10-3.bmp","vasha:va","Right","39","1","9","6A","C1","C","9"
"","","approach-retreat","158","1580745","0.0-158.0","","","2-4","5772","40","1","Testing","Stims/Figures/84-J-0-2.bmp","fashasha","Down","40","1","10","6A","C1","C","10"
"","","approach-retreat","159","1586970","0.0-159.0","","","2-4","4712","37","1","Testing","Stims/Figures/71-C-30-1.bmp","sa:saza","Right","37","1","11","6A","C2","C","11"
"","","approach-retreat","160","1593017","0.0-160.0","","","2-4","4530","37","1","Testing","Stims/Figures/111-J-10-3.bmp","vafava","Left","37","1","12","6A","C1","C","12"
"","","approach-retreat","161","1600019","0.0-161.0","","","2-4","5485","38","1","Testing","Stims/Figures/57-C-30-1.bmp","za:saza","Down","38","1","13","6A","C2","C","13"
"","","approach-retreat","162","1605894","0.0-162.0","","","2-4","4352","37","0","Testing","Stims/Figures/86-C-30-1.bmp","za:sa:ha","Left","39","1","14","6A","C2","C","14"
"","","approach-retreat","163","1611567","0.0-163.0","","","2-4","4160","40","0","Testing","Stims/Figures/84-C-20-2.bmp","sa:sa:ha","Down","38","1","15","6A","C2","C","15"
"","","approach-retreat","164","1618003","0.0-164.0","","","2-4","4917","39","0","Testing","Stims/Figures/71-J-0-1.bmp","fafa:sha","Left","37","1","16","6A","C1","C","16"
"","","approach-retreat","165","1624409","0.0-165.0","","","2-4","4895","38","0","Testing","Stims/Figures/118-C-20-2.bmp","za:haha","Up","40","1","17","6A","C2","C","17"
"","","approach-retreat","166","1631547","0.0-166.0","","","2-4","5623","40","1","Testing","Stims/Figures/100-C-30-3.bmp","zasa:ha","Up","40","1","18","6A","C2","C","18"
"","","approach-retreat","167","1637680","0.0-167.0","","","2-4","4618","38","0","Testing","Stims/Figures/139-J-0-2.bmp","fasha:sha","Down","40","1","19","6A","C1","C","19"
"","","approach-retreat","168","1644778","0.0-168.0","","","2-4","5582","39","0","Testing","Stims/Figures/7-C-20-4.bmp","saha:ha","Right","37","1","20","6A","C2","C","20"
"","","approach-retreat","169","1652305","0.0-169.0","","","2-4","6014","40","1","Testing","Stims/Figures/87-C-20-4.bmp","saha:za","Up","40","1","21","6A","C2","C","21"
"","","approach-retreat","170","1659612","0.0-170.0","","","2-4","5789","37","1","Testing","Stims/Figures/118-J-0-2.bmp","fafava","Left","37","1","22","6A","C1","C","22"
"","","approach-retreat","171","1665647","0.0-171.0","","","2-4","4517","39","0","Testing","Stims/Figures/111-C-30-3.bmp","sa:saha","Right","37","1","23","6A","C2","C","23"
"","","approach-retreat","172","1672334","0.0-172.0","","","2-4","5177","37","1","Testing","Stims/Figures/57-J-0-1.bmp","fa:shasha","Left","37","1","24","6A","C1","C","24"
"","","approach-retreat","173","1679381","0.0-173.0","","","2-4","5538","40","1","Testing","Stims/Figures/86-C-30-1.bmp","za:sa:ha","Up","40","2","1","6A","C2","C","25"
"","","approach-retreat","174","1685214","0.0-174.0","","","2-4","4319","40","1","Testing","Stims/Figures/118-C-20-2.bmp","za:haha","Up","40","2","2","6A","C2","C","26"
"","","approach-retreat","175","1691196","0.0-175.0","","","2-4","4465","37","0","Testing","Stims/Figures/71-J-0-1.bmp","fafa:sha","Right","39","2","3","6A","C1","C","27"
"","","approach-retreat","176","1697481","0.0-176.0","","","2-4","4768","37","1","Testing","Stims/Figures/57-J-0-1.bmp","fa:shasha","Left","37","2","4","6A","C1","C","28"
"","","approach-retreat","177","1703725","0.0-177.0","","","2-4","4731","38","0","Testing","Stims/Figures/118-J-0-2.bmp","fafava","Down","40","2","5","6A","C1","C","29"
"","","approach-retreat","178","1709621","0.0-178.0","","","2-4","4382","38","1","Testing","Stims/Figures/86-J-0-1.bmp","vafa:va","Up","38","2","6","6A","C1","C","30"
"","","approach-retreat","179","1715856","0.0-179.0","","","2-4","4719","37","1","Testing","Stims/Figures/102-J-10-4.bmp","va:fasha","Left","37","2","7","6A","C1","C","31"
"","","approach-retreat","180","1721601","0.0-180.0","","","2-4","4231","40","0","Testing","Stims/Figures/44-C-30-3.bmp","za:ha:za","Down","38","2","8","6A","C2","C","32"
"","","approach-retreat","181","1727297","0.0-181.0","","","2-4","4178","39","0","Testing","Stims/Figures/139-J-0-2.bmp","fasha:sha","Left","37","2","9","6A","C1","C","33"
"","","approach-retreat","182","1732971","0.0-182.0","","","2-4","4164","39","0","Testing","Stims/Figures/84-J-0-2.bmp","fashasha","Left","37","2","10","6A","C1","C","34"
"","","approach-retreat","183","1738615","0.0-183.0","","","2-4","4135","40","1","Testing","Stims/Figures/111-J-10-3.bmp","vafava","Down","40","2","11","6A","C1","C","35"
"","","approach-retreat","184","1744490","0.0-184.0","","","2-4","4364","38","1","Testing","Stims/Figures/102-C-20-4.bmp","za:ha:ha","Down","38","2","12","6A","C2","C","36"
"","","approach-retreat","185","1750534","0.0-185.0","","","2-4","4527","37","1","Testing","Stims/Figures/84-C-20-2.bmp","sa:sa:ha","Right","37","2","13","6A","C2","C","37"
"","","approach-retreat","186","1756549","0.0-186.0","","","2-4","4502","38","0","Testing","Stims/Figures/100-J-10-3.bmp","va:shasha","Down","40","2","14","6A","C1","C","38"
"","","approach-retreat","187","1762782","0.0-187.0","","","2-4","4722","40","0","Testing","Stims/Figures/87-C-20-4.bmp","saha:za","Down","38","2","15","6A","C2","C","39"
"","","approach-retreat","188","1768679","0.0-188.0","","","2-4","4381","40","1","Testing","Stims/Figures/7-C-20-4.bmp","saha:ha","Up","40","2","16","6A","C2","C","40"
"","","approach-retreat","189","1774642","0.0-189.0","","","2-4","4445","37","1","Testing","Stims/Figures/111-C-30-3.bmp","sa:saha","Right","37","2","17","6A","C2","C","41"
"","","approach-retreat","190","1780715","0.0-190.0","","","2-4","4558","40","0","Testing","Stims/Figures/44-J-10-3.bmp","vasha:va","Up","38","2","18","6A","C1","C","42"
"","","approach-retreat","191","1787271","0.0-191.0","","","2-4","5038","37","1","Testing","Stims/Figures/57-C-30-1.bmp","za:saza","Right","37","2","19","6A","C2","C","43"
"","","approach-retreat","192","1793187","0.0-192.0","","","2-4","4399","39","0","Testing","Stims/Figures/7-J-10-4.bmp","va:fa:sha","Left","37","2","20","6A","C1","C","44"
"","","approach-retreat","193","1799031","0.0-193.0","","","2-4","4333","39","0","Testing","Stims/Figures/71-C-30-1.bmp","sa:saza","Right","37","2","21","6A","C2","C","45"
"","","approach-retreat","194","1804875","0.0-194.0","","","2-4","4334","37","0","Testing","Stims/Figures/100-C-30-3.bmp","zasa:ha","Left","39","2","22","6A","C2","C","46"
"","","approach-retreat","195","1810760","0.0-195.0","","","2-4","4368","39","1","Testing","Stims/Figures/87-J-10-4.bmp","va:sha:va","Right","39","2","23","6A","C1","C","47"
"","","approach-retreat","196","1816682","0.0-196.0","","","2-4","4409","38","0","Testing","Stims/Figures/139-C-20-2.bmp","zasaha","Up","40","2","24","6A","C2","C","48"
"","","approach-retreat","197","1822695","0.0-197.0","","","2-4","4495","37","1","Testing","Stims/Figures/100-C-30-3.bmp","zasa:ha","Right","37","3","1","6A","C2","C","49"
"","","approach-retreat","198","1828452","0.0-198.0","","","2-4","4245","39","1","Testing","Stims/Figures/86-J-0-1.bmp","vafa:va","Right","39","3","2","6A","C1","C","50"
"","","approach-retreat","199","1834285","0.0-199.0","","","2-4","4321","37","1","Testing","Stims/Figures/87-C-20-4.bmp","saha:za","Right","37","3","3","6A","C2","C","51"
"","","approach-retreat","200","1841382","0.0-200.0","","","2-4","5586","40","1","Testing","Stims/Figures/57-C-30-1.bmp","za:saza","Up","40","3","4","6A","C2","C","52"
"","","approach-retreat","201","1849742","0.0-201.0","","","2-4","6843","38","0","Testing","Stims/Figures/118-J-0-2.bmp","fafava","Down","40","3","5","6A","C1","C","53"
"","","approach-retreat","202","1855587","0.0-202.0","","","2-4","4327","39","0","Testing","Stims/Figures/102-J-10-4.bmp","va:fasha","Left","37","3","6","6A","C1","C","54"
"","","approach-retreat","203","1863546","0.0-203.0","","","2-4","6444","40","1","Testing","Stims/Figures/102-C-20-4.bmp","za:ha:ha","Up","40","3","7","6A","C2","C","55"
"","","approach-retreat","204","1869662","0.0-204.0","","","2-4","4603","37","1","Testing","Stims/Figures/71-J-0-1.bmp","fafa:sha","Left","37","3","8","6A","C1","C","56"
"","","approach-retreat","205","1875937","0.0-205.0","","","2-4","4760","37","0","Testing","Stims/Figures/57-J-0-1.bmp","fa:shasha","Right","39","3","9","6A","C1","C","57"
"","","approach-retreat","206","1882240","0.0-206.0","","","2-4","4788","38","1","Testing","Stims/Figures/139-C-20-2.bmp","zasaha","Down","38","3","10","6A","C2","C","58"
"","","approach-retreat","207","1888346","0.0-207.0","","","2-4","4594","38","0","Testing","Stims/Figures/139-J-0-2.bmp","fasha:sha","Down","40","3","11","6A","C1","C","59"
"","","approach-retreat","208","1894301","0.0-208.0","","","2-4","4447","37","0","Testing","Stims/Figures/111-C-30-3.bmp","sa:saha","Left","39","3","12","6A","C2","C","60"
"","","approach-retreat","209","1901438","0.0-209.0","","","2-4","5632","37","1","Testing","Stims/Figures/71-C-30-1.bmp","sa:saza","Right","37","3","13","6A","C2","C","61"
"","","approach-retreat","210","1907409","0.0-210.0","","","2-4","4456","37","0","Testing","Stims/Figures/7-C-20-4.bmp","saha:ha","Left","39","3","14","6A","C2","C","62"
"","","approach-retreat","211","1913283","0.0-211.0","","","2-4","4357","39","0","Testing","Stims/Figures/7-J-10-4.bmp","va:fa:sha","Left","37","3","15","6A","C1","C","63"
"","","approach-retreat","212","1918836","0.0-212.0","","","2-4","4043","38","0","Testing","Stims/Figures/84-J-0-2.bmp","fashasha","Down","40","3","16","6A","C1","C","64"
"","","approach-retreat","213","1925763","0.0-213.0","","","2-4","5416","40","0","Testing","Stims/Figures/87-J-10-4.bmp","va:sha:va","Up","38","3","17","6A","C1","C","65"
"","","approach-retreat","214","1931450","0.0-214.0","","","2-4","4173","38","0","Testing","Stims/Figures/100-J-10-3.bmp","va:shasha","Down","40","3","18","6A","C1","C","66"
"","","approach-retreat","215","1936955","0.0-215.0","","","2-4","3995","39","1","Testing","Stims/Figures/44-C-30-3.bmp","za:ha:za","Left","39","3","19","6A","C2","C","67"
"","","approach-retreat","216","1942709","0.0-216.0","","","2-4","4245","38","0","Testing","Stims/Figures/111-J-10-3.bmp","vafava","Down","40","3","20","6A","C1","C","68"
"","","approach-retreat","217","1948734","0.0-217.0","","","2-4","4510","38","0","Testing","Stims/Figures/118-C-20-2.bmp","za:haha","Up","40","3","21","6A","C2","C","69"
"","","approach-retreat","218","1956064","0.0-218.0","","","2-4","5810","38","0","Testing","Stims/Figures/84-C-20-2.bmp","sa:sa:ha","Up","40","3","22","6A","C2","C","70"
"","","approach-retreat","219","1961830","0.0-219.0","","","2-4","4255","40","1","Testing","Stims/Figures/86-C-30-1.bmp","za:sa:ha","Up","40","3","23","6A","C2","C","71"
"","","approach-retreat","220","1967613","0.0-220.0","","","2-4","4269","37","0","Testing","Stims/Figures/44-J-10-3.bmp","vasha:va","Right","39","3","24","6A","C1","C","72"
"","","approach-retreat","221","1973526","0.0-221.0","","","2-4","4398","38","1","Testing","Stims/Figures/44-J-10-3.bmp","vasha:va","Up","38","4","1","6A","C1","C","73"
"","","approach-retreat","222","1979370","0.0-222.0","","","2-4","4330","39","1","Testing","Stims/Figures/84-J-0-2.bmp","fashasha","Right","39","4","2","6A","C1","C","74"
"","","approach-retreat","223","1985199","0.0-223.0","","","2-4","4313","37","0","Testing","Stims/Figures/71-J-0-1.bmp","fafa:sha","Right","39","4","3","6A","C1","C","75"
"","","approach-retreat","224","1992945","0.0-224.0","","","2-4","6234","40","1","Testing","Stims/Figures/44-C-30-3.bmp","za:ha:za","Up","40","4","4","6A","C2","C","76"
"","","approach-retreat","225","1998801","0.0-225.0","","","2-4","4343","38","0","Testing","Stims/Figures/57-J-0-1.bmp","fa:shasha","Down","40","4","5","6A","C1","C","77"
"","","approach-retreat","226","2004996","0.0-226.0","","","2-4","4678","40","1","Testing","Stims/Figures/139-C-20-2.bmp","zasaha","Up","40","4","6","6A","C2","C","78"
"","","approach-retreat","227","2010572","0.0-227.0","","","2-4","4056","39","1","Testing","Stims/Figures/102-C-20-4.bmp","za:ha:ha","Left","39","4","7","6A","C2","C","79"
"","","approach-retreat","228","2016657","0.0-228.0","","","2-4","4567","39","0","Testing","Stims/Figures/111-J-10-3.bmp","vafava","Left","37","4","8","6A","C1","C","80"
"","","approach-retreat","229","2022652","0.0-229.0","","","2-4","4483","40","1","Testing","Stims/Figures/118-C-20-2.bmp","za:haha","Up","40","4","9","6A","C2","C","81"
"","","approach-retreat","230","2028628","0.0-230.0","","","2-4","4463","40","1","Testing","Stims/Figures/100-C-30-3.bmp","zasa:ha","Up","40","4","10","6A","C2","C","82"
"","","approach-retreat","231","2034453","0.0-231.0","","","2-4","4308","39","1","Testing","Stims/Figures/57-C-30-1.bmp","za:saza","Left","39","4","11","6A","C2","C","83"
"","","approach-retreat","232","2040417","0.0-232.0","","","2-4","4444","39","0","Testing","Stims/Figures/118-J-0-2.bmp","fafava","Left","37","4","12","6A","C1","C","84"
"","","approach-retreat","233","2046523","0.0-233.0","","","2-4","4595","37","0","Testing","Stims/Figures/7-J-10-4.bmp","va:fa:sha","Right","39","4","13","6A","C1","C","85"
"","","approach-retreat","234","2052349","0.0-234.0","","","2-4","4313","38","0","Testing","Stims/Figures/139-J-0-2.bmp","fasha:sha","Down","40","4","14","6A","C1","C","86"
"","","approach-retreat","235","2058226","0.0-235.0","","","2-4","4365","37","0","Testing","Stims/Figures/71-C-30-1.bmp","sa:saza","Left","39","4","15","6A","C2","C","87"
"","","approach-retreat","236","2063848","0.0-236.0","","","2-4","4114","38","1","Testing","Stims/Figures/86-C-30-1.bmp","za:sa:ha","Down","38","4","16","6A","C2","C","88"
"","","approach-retreat","237","2070002","0.0-237.0","","","2-4","4645","39","1","Testing","Stims/Figures/84-C-20-2.bmp","sa:sa:ha","Left","39","4","17","6A","C2","C","89"
"","","approach-retreat","238","2075998","0.0-238.0","","","2-4","4478","38","1","Testing","Stims/Figures/102-J-10-4.bmp","va:fasha","Up","38","4","18","6A","C1","C","90"
"","","approach-retreat","239","2082660","0.0-239.0","","","2-4","5147","37","1","Testing","Stims/Figures/7-C-20-4.bmp","saha:ha","Right","37","4","19","6A","C2","C","91"
"","","approach-retreat","240","2089205","0.0-240.0","","","2-4","5028","37","0","Testing","Stims/Figures/100-J-10-3.bmp","va:shasha","Right","39","4","20","6A","C1","C","92"
"","","approach-retreat","241","2094938","0.0-241.0","","","2-4","4216","38","1","Testing","Stims/Figures/111-C-30-3.bmp","sa:saha","Down","38","4","21","6A","C2","C","93"
"","","approach-retreat","242","2100683","0.0-242.0","","","2-4","4228","38","0","Testing","Stims/Figures/86-J-0-1.bmp","vafa:va","Down","40","4","22","6A","C1","C","94"
"","","approach-retreat","243","2106626","0.0-243.0","","","2-4","4424","37","0","Testing","Stims/Figures/87-J-10-4.bmp","va:sha:va","Right","39","4","23","6A","C1","C","95"
"","","approach-retreat","244","2112231","0.0-244.0","","","2-4","4089","38","1","Testing","Stims/Figures/87-C-20-4.bmp","saha:za","Down","38","4","24","6A","C2","C","96"
"61692","","survey-text","245","2173943","0.0-245.0","","{""Q0"":""1046/2018""}","","","","","","","","","","","","","","",""
