"rt","key_press","trial_type","trial_index","time_elapsed","internal_node_id","view_history","responses","Id","Rt","ResKeyCode","ResCorr","TrialType2","Image","Label","Location","CorrectResponse","Block","BlockTrial","Condition","LabelType","Subcondition","trialNum"
"40815","32","text","0","40825","0.0-0.0-0.0","","","","","","","","","","","","","","","","",""
"169063","","instructions","1","209896","0.0-1.0","[{""page_index"":0,""viewing_time"":169056}]","","","","","","","","","","","","","","","",""
"36891","","survey-multi-choice","2","246880","0.0-2.0","","{""Q0"":""Da"",""Q1"":""Da"",""Q2"":""Da"",""Q3"":""Da"",""Q4"":""Da"",""Q5"":""Da""}","","","","","","","","","","","","","","",""
"","","bio","3","260579","0.0-3.0","","{""age"":""19"",""gender"":""f"",""specify"":""""}","","","","","","","","","","","","","","",""
"","","approach-retreat","4","270324","0.0-4.0","","","1-1","8221","38","1","Training","Stims/Figures/128-C-30-3.bmp","za:sa:za","Down","38","1","1","3A","C2","C","1"
"","","approach-retreat","5","276606","0.0-5.0","","","1-1","4758","40","1","Training","Stims/Figures/7-C-20-4.bmp","za:sa:za","Up","40","1","2","3A","C2","C","2"
"","","approach-retreat","6","283783","0.0-6.0","","","1-1","5645","40","0","Training","Stims/Figures/27-J-0-1.bmp","fafa:va","Up","38","1","3","3A","C1","C","3"
"","","approach-retreat","7","289904","0.0-7.0","","","1-1","4601","37","1","Training","Stims/Figures/7-J-10-4.bmp","fafa:va","Left","37","1","4","3A","C1","C","4"
"","","approach-retreat","8","295814","0.0-8.0","","","1-1","4380","39","1","Training","Stims/Figures/19-C-20-4.bmp","za:sa:za","Left","39","1","5","3A","C2","C","5"
"","","approach-retreat","9","301363","0.0-9.0","","","1-1","4015","37","1","Training","Stims/Figures/44-C-30-3.bmp","za:sa:za","Right","37","1","6","3A","C2","C","6"
"","","approach-retreat","10","307024","0.0-10.0","","","1-1","4144","39","1","Training","Stims/Figures/118-J-0-2.bmp","fafa:va","Right","39","1","7","3A","C1","C","7"
"","","approach-retreat","11","313304","0.0-11.0","","","1-1","4754","38","1","Training","Stims/Figures/84-C-20-2.bmp","za:sa:za","Down","38","1","8","3A","C2","C","8"
"","","approach-retreat","12","319193","0.0-12.0","","","1-1","4365","39","1","Training","Stims/Figures/84-J-0-2.bmp","fafa:va","Right","39","1","9","3A","C1","C","9"
"","","approach-retreat","13","325683","0.0-13.0","","","1-1","4980","39","1","Training","Stims/Figures/27-C-30-1.bmp","za:sa:za","Left","39","1","10","3A","C2","C","10"
"","","approach-retreat","14","331564","0.0-14.0","","","1-1","4356","38","1","Training","Stims/Figures/128-J-10-3.bmp","fafa:va","Up","38","1","11","3A","C1","C","11"
"","","approach-retreat","15","337173","0.0-15.0","","","1-1","4082","37","1","Training","Stims/Figures/118-C-20-2.bmp","za:sa:za","Right","37","1","12","3A","C2","C","12"
"","","approach-retreat","16","343744","0.0-16.0","","","1-1","5047","37","1","Training","Stims/Figures/19-J-10-4.bmp","fafa:va","Left","37","1","13","3A","C1","C","13"
"","","approach-retreat","17","349823","0.0-17.0","","","1-1","4553","40","1","Training","Stims/Figures/93-J-0-1.bmp","fafa:va","Down","40","1","14","3A","C1","C","14"
"","","approach-retreat","18","355803","0.0-18.0","","","1-1","4461","38","1","Training","Stims/Figures/93-C-30-1.bmp","za:sa:za","Down","38","1","15","3A","C2","C","15"
"","","approach-retreat","19","361674","0.0-19.0","","","1-1","4347","38","1","Training","Stims/Figures/44-J-10-3.bmp","fafa:va","Up","38","1","16","3A","C1","C","16"
"","","approach-retreat","20","367653","0.0-20.0","","","1-1","4463","39","1","Training","Stims/Figures/19-C-20-4.bmp","za:sa:za","Left","39","2","1","3A","C2","C","17"
"","","approach-retreat","21","373184","0.0-21.0","","","1-1","4020","39","1","Training","Stims/Figures/27-J-0-1.bmp","fafa:va","Right","39","2","2","3A","C1","C","18"
"","","approach-retreat","22","378823","0.0-22.0","","","1-1","4119","39","1","Training","Stims/Figures/7-J-10-4.bmp","fafa:va","Right","39","2","3","3A","C1","C","19"
"","","approach-retreat","23","384414","0.0-23.0","","","1-1","4083","37","1","Training","Stims/Figures/44-J-10-3.bmp","fafa:va","Left","37","2","4","3A","C1","C","20"
"","","approach-retreat","24","390063","0.0-24.0","","","1-1","4134","37","1","Training","Stims/Figures/19-J-10-4.bmp","fafa:va","Left","37","2","5","3A","C1","C","21"
"","","approach-retreat","25","395764","0.0-25.0","","","1-1","4177","40","1","Training","Stims/Figures/7-C-20-4.bmp","za:sa:za","Up","40","2","6","3A","C2","C","22"
"","","approach-retreat","26","401483","0.0-26.0","","","1-1","4200","38","1","Training","Stims/Figures/118-C-20-2.bmp","za:sa:za","Down","38","2","7","3A","C2","C","23"
"","","approach-retreat","27","407231","0.0-27.0","","","1-1","4233","38","1","Training","Stims/Figures/44-C-30-3.bmp","za:sa:za","Down","38","2","8","3A","C2","C","24"
"","","approach-retreat","28","413094","0.0-28.0","","","1-1","4349","40","1","Training","Stims/Figures/118-J-0-2.bmp","fafa:va","Down","40","2","9","3A","C1","C","25"
"","","approach-retreat","29","419103","0.0-29.0","","","1-1","4478","38","1","Training","Stims/Figures/27-C-30-1.bmp","za:sa:za","Down","38","2","10","3A","C2","C","26"
"","","approach-retreat","30","426154","0.0-30.0","","","1-1","5529","38","1","Training","Stims/Figures/84-J-0-2.bmp","fafa:va","Up","38","2","11","3A","C1","C","27"
"","","approach-retreat","31","431763","0.0-31.0","","","1-1","4088","38","1","Training","Stims/Figures/93-J-0-1.bmp","fafa:va","Up","38","2","12","3A","C1","C","28"
"","","approach-retreat","32","437393","0.0-32.0","","","1-1","4115","38","1","Training","Stims/Figures/128-J-10-3.bmp","fafa:va","Up","38","2","13","3A","C1","C","29"
"","","approach-retreat","33","443573","0.0-33.0","","","1-1","4653","37","1","Training","Stims/Figures/93-C-30-1.bmp","za:sa:za","Right","37","2","14","3A","C2","C","30"
"","","approach-retreat","34","449503","0.0-34.0","","","1-1","4402","37","1","Training","Stims/Figures/128-C-30-3.bmp","za:sa:za","Right","37","2","15","3A","C2","C","31"
"","","approach-retreat","35","455704","0.0-35.0","","","1-1","4678","39","1","Training","Stims/Figures/84-C-20-2.bmp","za:sa:za","Left","39","2","16","3A","C2","C","32"
"","","approach-retreat","36","461304","0.0-36.0","","","1-1","4076","39","1","Training","Stims/Figures/19-C-20-4.bmp","za:sa:za","Left","39","3","1","3A","C2","C","33"
"","","approach-retreat","37","467053","0.0-37.0","","","1-1","4230","39","1","Training","Stims/Figures/118-J-0-2.bmp","fafa:va","Right","39","3","2","3A","C1","C","34"
"","","approach-retreat","38","473113","0.0-38.0","","","1-1","4547","40","1","Training","Stims/Figures/7-C-20-4.bmp","za:sa:za","Up","40","3","3","3A","C2","C","35"
"","","approach-retreat","39","479174","0.0-39.0","","","1-1","4548","40","1","Training","Stims/Figures/128-J-10-3.bmp","fafa:va","Down","40","3","4","3A","C1","C","36"
"","","approach-retreat","40","485783","0.0-40.0","","","1-1","5097","37","1","Training","Stims/Figures/19-J-10-4.bmp","fafa:va","Left","37","3","5","3A","C1","C","37"
"","","approach-retreat","41","491373","0.0-41.0","","","1-1","4070","37","1","Training","Stims/Figures/93-J-0-1.bmp","fafa:va","Left","37","3","6","3A","C1","C","38"
"","","approach-retreat","42","497014","0.0-42.0","","","1-1","4117","40","1","Training","Stims/Figures/128-C-30-3.bmp","za:sa:za","Up","40","3","7","3A","C2","C","39"
"","","approach-retreat","43","503394","0.0-43.0","","","1-1","4870","38","1","Training","Stims/Figures/27-J-0-1.bmp","fafa:va","Up","38","3","8","3A","C1","C","40"
"","","approach-retreat","44","509343","0.0-44.0","","","1-1","4430","39","1","Training","Stims/Figures/7-J-10-4.bmp","fafa:va","Right","39","3","9","3A","C1","C","41"
"","","approach-retreat","45","515353","0.0-45.0","","","1-1","4490","37","1","Training","Stims/Figures/84-C-20-2.bmp","za:sa:za","Right","37","3","10","3A","C2","C","42"
"","","approach-retreat","46","521013","0.0-46.0","","","1-1","4144","39","1","Training","Stims/Figures/27-C-30-1.bmp","za:sa:za","Left","39","3","11","3A","C2","C","43"
"","","approach-retreat","47","526894","0.0-47.0","","","1-1","4359","40","1","Training","Stims/Figures/84-J-0-2.bmp","fafa:va","Down","40","3","12","3A","C1","C","44"
"","","approach-retreat","48","533352","0.0-48.0","","","1-1","4929","38","1","Training","Stims/Figures/44-C-30-3.bmp","za:sa:za","Down","38","3","13","3A","C2","C","45"
"","","approach-retreat","49","539704","0.0-49.0","","","1-1","4825","37","1","Training","Stims/Figures/93-C-30-1.bmp","za:sa:za","Right","37","3","14","3A","C2","C","46"
"","","approach-retreat","50","545523","0.0-50.0","","","1-1","4307","40","1","Training","Stims/Figures/118-C-20-2.bmp","za:sa:za","Up","40","3","15","3A","C2","C","47"
"","","approach-retreat","51","551553","0.0-51.0","","","1-1","4510","40","1","Training","Stims/Figures/44-J-10-3.bmp","fafa:va","Down","40","3","16","3A","C1","C","48"
"","","approach-retreat","52","557843","0.0-52.0","","","1-1","4770","39","1","Training","Stims/Figures/44-C-30-3.bmp","za:sa:za","Left","39","4","1","3A","C2","C","49"
"","","approach-retreat","53","563623","0.0-53.0","","","1-1","4251","39","1","Training","Stims/Figures/93-J-0-1.bmp","fafa:va","Right","39","4","2","3A","C1","C","50"
"","","approach-retreat","54","569244","0.0-54.0","","","1-1","4097","40","1","Training","Stims/Figures/84-C-20-2.bmp","za:sa:za","Up","40","4","3","3A","C2","C","51"
"","","approach-retreat","55","575013","0.0-55.0","","","1-1","4252","38","1","Training","Stims/Figures/7-J-10-4.bmp","fafa:va","Up","38","4","4","3A","C1","C","52"
"","","approach-retreat","56","580684","0.0-56.0","","","1-1","4151","38","1","Training","Stims/Figures/27-J-0-1.bmp","fafa:va","Up","38","4","5","3A","C1","C","53"
"","","approach-retreat","57","586714","0.0-57.0","","","1-1","4520","40","1","Training","Stims/Figures/118-C-20-2.bmp","za:sa:za","Up","40","4","6","3A","C2","C","54"
"","","approach-retreat","58","592424","0.0-58.0","","","1-1","4193","39","1","Training","Stims/Figures/19-C-20-4.bmp","za:sa:za","Left","39","4","7","3A","C2","C","55"
"","","approach-retreat","59","599544","0.0-59.0","","","1-1","5599","39","1","Training","Stims/Figures/84-J-0-2.bmp","fafa:va","Right","39","4","8","3A","C1","C","56"
"","","approach-retreat","60","605083","0.0-60.0","","","1-1","4022","40","1","Training","Stims/Figures/128-J-10-3.bmp","fafa:va","Down","40","4","9","3A","C1","C","57"
"","","approach-retreat","61","610693","0.0-61.0","","","1-1","4088","38","1","Training","Stims/Figures/27-C-30-1.bmp","za:sa:za","Down","38","4","10","3A","C2","C","58"
"","","approach-retreat","62","616464","0.0-62.0","","","1-1","4253","39","1","Training","Stims/Figures/93-C-30-1.bmp","za:sa:za","Left","39","4","11","3A","C2","C","59"
"","","approach-retreat","63","622093","0.0-63.0","","","1-1","4099","38","1","Training","Stims/Figures/7-C-20-4.bmp","za:sa:za","Down","38","4","12","3A","C2","C","60"
"","","approach-retreat","64","627653","0.0-64.0","","","1-1","4045","39","1","Training","Stims/Figures/118-J-0-2.bmp","fafa:va","Right","39","4","13","3A","C1","C","61"
"","","approach-retreat","65","633303","0.0-65.0","","","1-1","4126","40","1","Training","Stims/Figures/44-J-10-3.bmp","fafa:va","Down","40","4","14","3A","C1","C","62"
"","","approach-retreat","66","638854","0.0-66.0","","","1-1","4036","39","1","Training","Stims/Figures/19-J-10-4.bmp","fafa:va","Right","39","4","15","3A","C1","C","63"
"","","approach-retreat","67","644504","0.0-67.0","","","1-1","4123","39","1","Training","Stims/Figures/128-C-30-3.bmp","za:sa:za","Left","39","4","16","3A","C2","C","64"
"","","approach-retreat","68","650344","0.0-68.0","","","1-1","4324","37","1","Training","Stims/Figures/44-J-10-3.bmp","fafa:va","Left","37","5","1","3A","C1","C","65"
"","","approach-retreat","69","656743","0.0-69.0","","","1-1","4888","40","1","Training","Stims/Figures/7-C-20-4.bmp","za:sa:za","Up","40","5","2","3A","C2","C","66"
"","","approach-retreat","70","662313","0.0-70.0","","","1-1","4061","38","1","Training","Stims/Figures/93-C-30-1.bmp","za:sa:za","Down","38","5","3","3A","C2","C","67"
"","","approach-retreat","71","667923","0.0-71.0","","","1-1","4082","40","1","Training","Stims/Figures/128-C-30-3.bmp","za:sa:za","Up","40","5","4","3A","C2","C","68"
"","","approach-retreat","72","673783","0.0-72.0","","","1-1","4337","37","1","Training","Stims/Figures/84-J-0-2.bmp","fafa:va","Left","37","5","5","3A","C1","C","69"
"","","approach-retreat","73","679444","0.0-73.0","","","1-1","4150","38","1","Training","Stims/Figures/27-J-0-1.bmp","fafa:va","Up","38","5","6","3A","C1","C","70"
"","","approach-retreat","74","685162","0.0-74.0","","","1-1","4198","38","1","Training","Stims/Figures/19-C-20-4.bmp","za:sa:za","Down","38","5","7","3A","C2","C","71"
"","","approach-retreat","75","691244","0.0-75.0","","","1-1","4553","39","1","Training","Stims/Figures/7-J-10-4.bmp","fafa:va","Right","39","5","8","3A","C1","C","72"
"","","approach-retreat","76","697144","0.0-76.0","","","1-1","4375","38","1","Training","Stims/Figures/128-J-10-3.bmp","fafa:va","Up","38","5","9","3A","C1","C","73"
"","","approach-retreat","77","702843","0.0-77.0","","","1-1","4179","39","1","Training","Stims/Figures/27-C-30-1.bmp","za:sa:za","Left","39","5","10","3A","C2","C","74"
"","","approach-retreat","78","708494","0.0-78.0","","","1-1","4134","39","1","Training","Stims/Figures/118-J-0-2.bmp","fafa:va","Right","39","5","11","3A","C1","C","75"
"","","approach-retreat","79","714424","0.0-79.0","","","1-1","4403","38","1","Training","Stims/Figures/44-C-30-3.bmp","za:sa:za","Down","38","5","12","3A","C2","C","76"
"","","approach-retreat","80","720074","0.0-80.0","","","1-1","4137","38","1","Training","Stims/Figures/118-C-20-2.bmp","za:sa:za","Down","38","5","13","3A","C2","C","77"
"","","approach-retreat","81","725623","0.0-81.0","","","1-1","4035","39","1","Training","Stims/Figures/19-J-10-4.bmp","fafa:va","Right","39","5","14","3A","C1","C","78"
"","","approach-retreat","82","731423","0.0-82.0","","","1-1","4276","39","1","Training","Stims/Figures/93-J-0-1.bmp","fafa:va","Right","39","5","15","3A","C1","C","79"
"","","approach-retreat","83","737123","0.0-83.0","","","1-1","4186","39","1","Training","Stims/Figures/84-C-20-2.bmp","za:sa:za","Left","39","5","16","3A","C2","C","80"
"","","approach-retreat","84","742704","0.0-84.0","","","1-1","4069","39","1","Training","Stims/Figures/93-C-30-1.bmp","za:sa:za","Left","39","6","1","3A","C2","C","81"
"","","approach-retreat","85","748314","0.0-85.0","","","1-1","4098","40","1","Training","Stims/Figures/118-C-20-2.bmp","za:sa:za","Up","40","6","2","3A","C2","C","82"
"","","approach-retreat","86","754024","0.0-86.0","","","1-1","4201","38","1","Training","Stims/Figures/128-J-10-3.bmp","fafa:va","Up","38","6","3","3A","C1","C","83"
"","","approach-retreat","87","759924","0.0-87.0","","","1-1","4370","40","1","Training","Stims/Figures/84-J-0-2.bmp","fafa:va","Down","40","6","4","3A","C1","C","84"
"","","approach-retreat","88","765833","0.0-88.0","","","1-1","4375","39","1","Training","Stims/Figures/93-J-0-1.bmp","fafa:va","Right","39","6","5","3A","C1","C","85"
"","","approach-retreat","89","771564","0.0-89.0","","","1-1","4218","39","1","Training","Stims/Figures/118-J-0-2.bmp","fafa:va","Right","39","6","6","3A","C1","C","86"
"","","approach-retreat","90","777134","0.0-90.0","","","1-1","4050","37","1","Training","Stims/Figures/44-C-30-3.bmp","za:sa:za","Right","37","6","7","3A","C2","C","87"
"","","approach-retreat","91","782854","0.0-91.0","","","1-1","4201","38","1","Training","Stims/Figures/128-C-30-3.bmp","za:sa:za","Down","38","6","8","3A","C2","C","88"
"","","approach-retreat","92","788663","0.0-92.0","","","1-1","4282","40","1","Training","Stims/Figures/7-J-10-4.bmp","fafa:va","Down","40","6","9","3A","C1","C","89"
"","","approach-retreat","93","794493","0.0-93.0","","","1-1","4304","39","1","Training","Stims/Figures/19-C-20-4.bmp","za:sa:za","Left","39","6","10","3A","C2","C","90"
"","","approach-retreat","94","800073","0.0-94.0","","","1-1","4066","37","1","Training","Stims/Figures/27-J-0-1.bmp","fafa:va","Left","37","6","11","3A","C1","C","91"
"","","approach-retreat","95","805873","0.0-95.0","","","1-1","4277","37","1","Training","Stims/Figures/27-C-30-1.bmp","za:sa:za","Right","37","6","12","3A","C2","C","92"
"","","approach-retreat","96","812293","0.0-96.0","","","1-1","4902","38","1","Training","Stims/Figures/44-J-10-3.bmp","fafa:va","Up","38","6","13","3A","C1","C","93"
"","","approach-retreat","97","817973","0.0-97.0","","","1-1","4155","40","1","Training","Stims/Figures/84-C-20-2.bmp","za:sa:za","Up","40","6","14","3A","C2","C","94"
"","","approach-retreat","98","823794","0.0-98.0","","","1-1","4303","38","0","Training","Stims/Figures/19-J-10-4.bmp","fafa:va","Down","40","6","15","3A","C1","C","95"
"","","approach-retreat","99","829714","0.0-99.0","","","1-1","4390","39","1","Training","Stims/Figures/7-C-20-4.bmp","za:sa:za","Left","39","6","16","3A","C2","C","96"
"","","approach-retreat","100","835404","0.0-100.0","","","1-1","4167","37","1","Training","Stims/Figures/44-J-10-3.bmp","fafa:va","Left","37","7","1","3A","C1","C","97"
"","","approach-retreat","101","841293","0.0-101.0","","","1-1","4373","37","1","Training","Stims/Figures/7-J-10-4.bmp","fafa:va","Left","37","7","2","3A","C1","C","98"
"","","approach-retreat","102","846973","0.0-102.0","","","1-1","4160","37","1","Training","Stims/Figures/93-J-0-1.bmp","fafa:va","Left","37","7","3","3A","C1","C","99"
"","","approach-retreat","103","853324","0.0-103.0","","","1-1","4835","37","1","Training","Stims/Figures/84-J-0-2.bmp","fafa:va","Left","37","7","4","3A","C1","C","100"
"","","approach-retreat","104","859143","0.0-104.0","","","1-1","4293","37","1","Training","Stims/Figures/19-C-20-4.bmp","za:sa:za","Right","37","7","5","3A","C2","C","101"
"","","approach-retreat","105","864954","0.0-105.0","","","1-1","4284","40","1","Training","Stims/Figures/27-C-30-1.bmp","za:sa:za","Up","40","7","6","3A","C2","C","102"
"","","approach-retreat","106","870643","0.0-106.0","","","1-1","4180","38","1","Training","Stims/Figures/19-J-10-4.bmp","fafa:va","Up","38","7","7","3A","C1","C","103"
"","","approach-retreat","107","876794","0.0-107.0","","","1-1","4632","38","1","Training","Stims/Figures/128-C-30-3.bmp","za:sa:za","Down","38","7","8","3A","C2","C","104"
"","","approach-retreat","108","882343","0.0-108.0","","","1-1","4029","38","0","Training","Stims/Figures/27-J-0-1.bmp","fafa:va","Down","40","7","9","3A","C1","C","105"
"","","approach-retreat","109","888104","0.0-109.0","","","1-1","4242","39","1","Training","Stims/Figures/118-J-0-2.bmp","fafa:va","Right","39","7","10","3A","C1","C","106"
"","","approach-retreat","110","893654","0.0-110.0","","","1-1","4034","37","1","Training","Stims/Figures/118-C-20-2.bmp","za:sa:za","Right","37","7","11","3A","C2","C","107"
"","","approach-retreat","111","899683","0.0-111.0","","","1-1","4515","40","1","Training","Stims/Figures/44-C-30-3.bmp","za:sa:za","Up","40","7","12","3A","C2","C","108"
"","","approach-retreat","112","905584","0.0-112.0","","","1-1","4377","40","1","Training","Stims/Figures/128-J-10-3.bmp","fafa:va","Down","40","7","13","3A","C1","C","109"
"","","approach-retreat","113","911403","0.0-113.0","","","1-1","4296","40","1","Training","Stims/Figures/84-C-20-2.bmp","za:sa:za","Up","40","7","14","3A","C2","C","110"
"","","approach-retreat","114","917323","0.0-114.0","","","1-1","4398","37","1","Training","Stims/Figures/7-C-20-4.bmp","za:sa:za","Right","37","7","15","3A","C2","C","111"
"","","approach-retreat","115","923234","0.0-115.0","","","1-1","4390","38","1","Training","Stims/Figures/93-C-30-1.bmp","za:sa:za","Down","38","7","16","3A","C2","C","112"
"","","approach-retreat","116","928954","0.0-116.0","","","1-1","4211","37","1","Training","Stims/Figures/128-C-30-3.bmp","za:sa:za","Right","37","8","1","3A","C2","C","113"
"","","approach-retreat","117","934834","0.0-117.0","","","1-1","4364","40","1","Training","Stims/Figures/44-J-10-3.bmp","fafa:va","Down","40","8","2","3A","C1","C","114"
"","","approach-retreat","118","940984","0.0-118.0","","","1-1","4630","37","1","Training","Stims/Figures/7-J-10-4.bmp","fafa:va","Left","37","8","3","3A","C1","C","115"
"","","approach-retreat","119","947144","0.0-119.0","","","1-1","4648","38","1","Training","Stims/Figures/118-J-0-2.bmp","fafa:va","Up","38","8","4","3A","C1","C","116"
"","","approach-retreat","120","952744","0.0-120.0","","","1-1","4085","40","1","Training","Stims/Figures/7-C-20-4.bmp","za:sa:za","Up","40","8","5","3A","C2","C","117"
"","","approach-retreat","121","958284","0.0-121.0","","","1-1","4012","39","1","Training","Stims/Figures/128-J-10-3.bmp","fafa:va","Right","39","8","6","3A","C1","C","118"
"","","approach-retreat","122","963994","0.0-122.0","","","1-1","4173","40","1","Training","Stims/Figures/19-J-10-4.bmp","fafa:va","Down","40","8","7","3A","C1","C","119"
"","","approach-retreat","123","969624","0.0-123.0","","","1-1","4105","40","1","Training","Stims/Figures/93-C-30-1.bmp","za:sa:za","Up","40","8","8","3A","C2","C","120"
"","","approach-retreat","124","975594","0.0-124.0","","","1-1","4456","37","1","Training","Stims/Figures/118-C-20-2.bmp","za:sa:za","Right","37","8","9","3A","C2","C","121"
"","","approach-retreat","125","981274","0.0-125.0","","","1-1","4159","38","1","Training","Stims/Figures/84-C-20-2.bmp","za:sa:za","Down","38","8","10","3A","C2","C","122"
"","","approach-retreat","126","987113","0.0-126.0","","","1-1","4324","37","1","Training","Stims/Figures/93-J-0-1.bmp","fafa:va","Left","37","8","11","3A","C1","C","123"
"","","approach-retreat","127","992683","0.0-127.0","","","1-1","4060","37","1","Training","Stims/Figures/27-J-0-1.bmp","fafa:va","Left","37","8","12","3A","C1","C","124"
"","","approach-retreat","128","998794","0.0-128.0","","","1-1","4585","40","1","Training","Stims/Figures/84-J-0-2.bmp","fafa:va","Down","40","8","13","3A","C1","C","125"
"","","approach-retreat","129","1004853","0.0-129.0","","","1-1","4545","40","1","Training","Stims/Figures/44-C-30-3.bmp","za:sa:za","Up","40","8","14","3A","C2","C","126"
"","","approach-retreat","130","1010634","0.0-130.0","","","1-1","4255","37","1","Training","Stims/Figures/19-C-20-4.bmp","za:sa:za","Right","37","8","15","3A","C2","C","127"
"","","approach-retreat","131","1016494","0.0-131.0","","","1-1","4332","39","1","Training","Stims/Figures/27-C-30-1.bmp","za:sa:za","Left","39","8","16","3A","C2","C","128"
"","","approach-retreat","132","1022333","0.0-132.0","","","1-1","4317","38","1","Training","Stims/Figures/93-C-30-1.bmp","za:sa:za","Down","38","9","1","3A","C2","C","129"
"","","approach-retreat","133","1028264","0.0-133.0","","","1-1","4405","37","1","Training","Stims/Figures/128-J-10-3.bmp","fafa:va","Left","37","9","2","3A","C1","C","130"
"","","approach-retreat","134","1034273","0.0-134.0","","","1-1","4484","38","1","Training","Stims/Figures/27-J-0-1.bmp","fafa:va","Up","38","9","3","3A","C1","C","131"
"","","approach-retreat","135","1040554","0.0-135.0","","","1-1","4764","37","1","Training","Stims/Figures/44-C-30-3.bmp","za:sa:za","Right","37","9","4","3A","C2","C","132"
"","","approach-retreat","136","1046884","0.0-136.0","","","1-1","4820","37","1","Training","Stims/Figures/44-J-10-3.bmp","fafa:va","Left","37","9","5","3A","C1","C","133"
"","","approach-retreat","137","1053024","0.0-137.0","","","1-1","4616","38","1","Training","Stims/Figures/128-C-30-3.bmp","za:sa:za","Down","38","9","6","3A","C2","C","134"
"","","approach-retreat","138","1058803","0.0-138.0","","","1-1","4257","40","1","Training","Stims/Figures/93-J-0-1.bmp","fafa:va","Down","40","9","7","3A","C1","C","135"
"","","approach-retreat","139","1064573","0.0-139.0","","","1-1","4246","38","1","Training","Stims/Figures/118-J-0-2.bmp","fafa:va","Up","38","9","8","3A","C1","C","136"
"","","approach-retreat","140","1070353","0.0-140.0","","","1-1","4259","38","1","Training","Stims/Figures/7-C-20-4.bmp","za:sa:za","Down","38","9","9","3A","C2","C","137"
"","","approach-retreat","141","1076193","0.0-141.0","","","1-1","4329","39","1","Training","Stims/Figures/19-J-10-4.bmp","fafa:va","Right","39","9","10","3A","C1","C","138"
"","","approach-retreat","142","1082003","0.0-142.0","","","1-1","4292","37","1","Training","Stims/Figures/7-J-10-4.bmp","fafa:va","Left","37","9","11","3A","C1","C","139"
"","","approach-retreat","143","1088193","0.0-143.0","","","1-1","4678","37","1","Training","Stims/Figures/84-J-0-2.bmp","fafa:va","Left","37","9","12","3A","C1","C","140"
"","","approach-retreat","144","1093973","0.0-144.0","","","1-1","4266","37","1","Training","Stims/Figures/27-C-30-1.bmp","za:sa:za","Right","37","9","13","3A","C2","C","141"
"","","approach-retreat","145","1099614","0.0-145.0","","","1-1","4112","37","1","Training","Stims/Figures/84-C-20-2.bmp","za:sa:za","Right","37","9","14","3A","C2","C","142"
"","","approach-retreat","146","1105254","0.0-146.0","","","1-1","4119","40","1","Training","Stims/Figures/19-C-20-4.bmp","za:sa:za","Up","40","9","15","3A","C2","C","143"
"","","approach-retreat","147","1110824","0.0-147.0","","","1-1","4052","40","1","Training","Stims/Figures/118-C-20-2.bmp","za:sa:za","Up","40","9","16","3A","C2","C","144"
"84523","","instructions","148","1195347","0.0-148.0","[{""page_index"":0,""viewing_time"":84522}]","","","","","","","","","","","","","","","",""
"","","approach-retreat","149","1201964","0.0-149.0","","","1-1","5092","39","0","Testing","Stims/Figures/7-J-10-4.bmp","fafa:va","Left","37","1","1","3A","C1","C","1"
"","","approach-retreat","150","1208243","0.0-150.0","","","1-1","4755","39","1","Testing","Stims/Figures/44-J-10-3.bmp","fafa:va","Right","39","1","2","3A","C1","C","2"
"","","approach-retreat","151","1213863","0.0-151.0","","","1-1","4092","38","0","Testing","Stims/Figures/84-J-0-2.bmp","fafa:va","Down","40","1","3","3A","C1","C","3"
"","","approach-retreat","152","1219844","0.0-152.0","","","1-1","4452","39","1","Testing","Stims/Figures/74-J-10-4.bmp","fafa:va","Right","39","1","4","3A","C1","C","4"
"","","approach-retreat","153","1225653","0.0-153.0","","","1-1","4301","37","0","Testing","Stims/Figures/27-J-0-1.bmp","fafa:va","Right","39","1","5","3A","C1","C","5"
"","","approach-retreat","154","1231273","0.0-154.0","","","1-1","4101","37","1","Testing","Stims/Figures/111-C-30-3.bmp","za:sa:za","Right","37","1","6","3A","C2","C","6"
"","","approach-retreat","155","1236974","0.0-155.0","","","1-1","4181","38","1","Testing","Stims/Figures/57-J-0-1.bmp","fafa:va","Up","38","1","7","3A","C1","C","7"
"","","approach-retreat","156","1242703","0.0-156.0","","","1-1","4219","40","0","Testing","Stims/Figures/27-C-30-1.bmp","za:sa:za","Down","38","1","8","3A","C2","C","8"
"","","approach-retreat","157","1248383","0.0-157.0","","","1-1","4163","40","0","Testing","Stims/Figures/19-J-10-4.bmp","fafa:va","Up","38","1","9","3A","C1","C","9"
"","","approach-retreat","158","1254043","0.0-158.0","","","1-1","4143","38","1","Testing","Stims/Figures/93-C-30-1.bmp","za:sa:za","Down","38","1","10","3A","C2","C","10"
"","","approach-retreat","159","1259723","0.0-159.0","","","1-1","4150","37","0","Testing","Stims/Figures/74-C-20-4.bmp","za:sa:za","Left","39","1","11","3A","C2","C","11"
"","","approach-retreat","160","1265714","0.0-160.0","","","1-1","4457","39","0","Testing","Stims/Figures/139-C-20-2.bmp","za:sa:za","Right","37","1","12","3A","C2","C","12"
"","","approach-retreat","161","1271373","0.0-161.0","","","1-1","4141","38","0","Testing","Stims/Figures/128-C-30-3.bmp","za:sa:za","Up","40","1","13","3A","C2","C","13"
"","","approach-retreat","162","1277013","0.0-162.0","","","1-1","4131","39","0","Testing","Stims/Figures/118-J-0-2.bmp","fafa:va","Left","37","1","14","3A","C1","C","14"
"","","approach-retreat","163","1282604","0.0-163.0","","","1-1","4075","40","0","Testing","Stims/Figures/128-J-10-3.bmp","fafa:va","Up","38","1","15","3A","C1","C","15"
"","","approach-retreat","164","1288513","0.0-164.0","","","1-1","4399","38","1","Testing","Stims/Figures/19-C-20-4.bmp","za:sa:za","Down","38","1","16","3A","C2","C","16"
"","","approach-retreat","165","1294534","0.0-165.0","","","1-1","4494","37","0","Testing","Stims/Figures/84-C-20-2.bmp","za:sa:za","Left","39","1","17","3A","C2","C","17"
"","","approach-retreat","166","1300163","0.0-166.0","","","1-1","4111","38","0","Testing","Stims/Figures/7-C-20-4.bmp","za:sa:za","Up","40","1","18","3A","C2","C","18"
"","","approach-retreat","167","1306003","0.0-167.0","","","1-1","4325","40","1","Testing","Stims/Figures/44-C-30-3.bmp","za:sa:za","Up","40","1","19","3A","C2","C","19"
"","","approach-retreat","168","1311773","0.0-168.0","","","1-1","4239","38","1","Testing","Stims/Figures/118-C-20-2.bmp","za:sa:za","Down","38","1","20","3A","C2","C","20"
"","","approach-retreat","169","1317394","0.0-169.0","","","1-1","4106","39","0","Testing","Stims/Figures/57-C-30-1.bmp","za:sa:za","Right","37","1","21","3A","C2","C","21"
"","","approach-retreat","170","1323433","0.0-170.0","","","1-1","4516","39","0","Testing","Stims/Figures/93-J-0-1.bmp","fafa:va","Left","37","1","22","3A","C1","C","22"
"","","approach-retreat","171","1329313","0.0-171.0","","","1-1","4358","37","1","Testing","Stims/Figures/111-J-10-3.bmp","fafa:va","Left","37","1","23","3A","C1","C","23"
"","","approach-retreat","172","1335413","0.0-172.0","","","1-1","4583","40","1","Testing","Stims/Figures/139-J-0-2.bmp","fafa:va","Down","40","1","24","3A","C1","C","24"
"","","approach-retreat","173","1341624","0.0-173.0","","","1-1","4697","39","0","Testing","Stims/Figures/7-C-20-4.bmp","za:sa:za","Right","37","2","1","3A","C2","C","25"
"","","approach-retreat","174","1347594","0.0-174.0","","","1-1","4446","39","0","Testing","Stims/Figures/111-J-10-3.bmp","fafa:va","Left","37","2","2","3A","C1","C","26"
"","","approach-retreat","175","1353333","0.0-175.0","","","1-1","4220","39","0","Testing","Stims/Figures/139-C-20-2.bmp","za:sa:za","Right","37","2","3","3A","C2","C","27"
"","","approach-retreat","176","1359043","0.0-176.0","","","1-1","4190","40","1","Testing","Stims/Figures/139-J-0-2.bmp","fafa:va","Down","40","2","4","3A","C1","C","28"
"","","approach-retreat","177","1365003","0.0-177.0","","","1-1","4444","39","0","Testing","Stims/Figures/44-J-10-3.bmp","fafa:va","Left","37","2","5","3A","C1","C","29"
"","","approach-retreat","178","1371123","0.0-178.0","","","1-1","4608","37","1","Testing","Stims/Figures/118-C-20-2.bmp","za:sa:za","Right","37","2","6","3A","C2","C","30"
"","","approach-retreat","179","1377303","0.0-179.0","","","1-1","4671","38","1","Testing","Stims/Figures/74-C-20-4.bmp","za:sa:za","Down","38","2","7","3A","C2","C","31"
"","","approach-retreat","180","1383343","0.0-180.0","","","1-1","4516","40","0","Testing","Stims/Figures/93-J-0-1.bmp","fafa:va","Up","38","2","8","3A","C1","C","32"
"","","approach-retreat","181","1392196","0.0-181.0","","","1-1","7337","39","0","Testing","Stims/Figures/27-J-0-1.bmp","fafa:va","Left","37","2","9","3A","C1","C","33"
"","","approach-retreat","182","1397893","0.0-182.0","","","1-1","4181","37","1","Testing","Stims/Figures/57-C-30-1.bmp","za:sa:za","Right","37","2","10","3A","C2","C","34"
"","","approach-retreat","183","1403853","0.0-183.0","","","1-1","4446","40","1","Testing","Stims/Figures/57-J-0-1.bmp","fafa:va","Down","40","2","11","3A","C1","C","35"
"","","approach-retreat","184","1410353","0.0-184.0","","","1-1","4986","37","0","Testing","Stims/Figures/118-J-0-2.bmp","fafa:va","Right","39","2","12","3A","C1","C","36"
"","","approach-retreat","185","1416473","0.0-185.0","","","1-1","4590","37","0","Testing","Stims/Figures/19-C-20-4.bmp","za:sa:za","Left","39","2","13","3A","C2","C","37"
"","","approach-retreat","186","1422613","0.0-186.0","","","1-1","4622","37","1","Testing","Stims/Figures/74-J-10-4.bmp","fafa:va","Left","37","2","14","3A","C1","C","38"
"","","approach-retreat","187","1428634","0.0-187.0","","","1-1","4507","38","0","Testing","Stims/Figures/111-C-30-3.bmp","za:sa:za","Up","40","2","15","3A","C2","C","39"
"","","approach-retreat","188","1434403","0.0-188.0","","","1-1","4250","40","0","Testing","Stims/Figures/84-J-0-2.bmp","fafa:va","Up","38","2","16","3A","C1","C","40"
"","","approach-retreat","189","1440124","0.0-189.0","","","1-1","4206","37","0","Testing","Stims/Figures/128-C-30-3.bmp","za:sa:za","Left","39","2","17","3A","C2","C","41"
"","","approach-retreat","190","1445984","0.0-190.0","","","1-1","4339","38","1","Testing","Stims/Figures/93-C-30-1.bmp","za:sa:za","Down","38","2","18","3A","C2","C","42"
"","","approach-retreat","191","1451693","0.0-191.0","","","1-1","4192","38","0","Testing","Stims/Figures/19-J-10-4.bmp","fafa:va","Down","40","2","19","3A","C1","C","43"
"","","approach-retreat","192","1457603","0.0-192.0","","","1-1","4393","40","0","Testing","Stims/Figures/84-C-20-2.bmp","za:sa:za","Down","38","2","20","3A","C2","C","44"
"","","approach-retreat","193","1463873","0.0-193.0","","","1-1","4755","38","1","Testing","Stims/Figures/128-J-10-3.bmp","fafa:va","Up","38","2","21","3A","C1","C","45"
"","","approach-retreat","194","1469443","0.0-194.0","","","1-1","4052","40","1","Testing","Stims/Figures/27-C-30-1.bmp","za:sa:za","Up","40","2","22","3A","C2","C","46"
"","","approach-retreat","195","1475333","0.0-195.0","","","1-1","4361","37","0","Testing","Stims/Figures/7-J-10-4.bmp","fafa:va","Right","39","2","23","3A","C1","C","47"
"","","approach-retreat","196","1480993","0.0-196.0","","","1-1","4146","38","0","Testing","Stims/Figures/44-C-30-3.bmp","za:sa:za","Up","40","2","24","3A","C2","C","48"
"","","approach-retreat","197","1486563","0.0-197.0","","","1-1","4060","40","0","Testing","Stims/Figures/128-J-10-3.bmp","fafa:va","Up","38","3","1","3A","C1","C","49"
"","","approach-retreat","198","1493044","0.0-198.0","","","1-1","4963","40","0","Testing","Stims/Figures/139-J-0-2.bmp","fafa:va","Up","38","3","2","3A","C1","C","50"
"","","approach-retreat","199","1499094","0.0-199.0","","","1-1","4529","38","0","Testing","Stims/Figures/19-J-10-4.bmp","fafa:va","Down","40","3","3","3A","C1","C","51"
"","","approach-retreat","200","1504873","0.0-200.0","","","1-1","4267","40","0","Testing","Stims/Figures/7-J-10-4.bmp","fafa:va","Up","38","3","4","3A","C1","C","52"
"","","approach-retreat","201","1511353","0.0-201.0","","","1-1","4966","37","1","Testing","Stims/Figures/44-J-10-3.bmp","fafa:va","Left","37","3","5","3A","C1","C","53"
"","","approach-retreat","202","1517543","0.0-202.0","","","1-1","4667","40","0","Testing","Stims/Figures/57-C-30-1.bmp","za:sa:za","Down","38","3","6","3A","C2","C","54"
"","","approach-retreat","203","1524213","0.0-203.0","","","1-1","5156","39","1","Testing","Stims/Figures/84-J-0-2.bmp","fafa:va","Right","39","3","7","3A","C1","C","55"
"","","approach-retreat","204","1530904","0.0-204.0","","","1-1","5172","39","0","Testing","Stims/Figures/44-C-30-3.bmp","za:sa:za","Right","37","3","8","3A","C2","C","56"
"","","approach-retreat","205","1537053","0.0-205.0","","","1-1","4628","37","1","Testing","Stims/Figures/118-J-0-2.bmp","fafa:va","Left","37","3","9","3A","C1","C","57"
"","","approach-retreat","206","1543043","0.0-206.0","","","1-1","4464","37","1","Testing","Stims/Figures/139-C-20-2.bmp","za:sa:za","Right","37","3","10","3A","C2","C","58"
"","","approach-retreat","207","1548633","0.0-207.0","","","1-1","4074","39","0","Testing","Stims/Figures/111-J-10-3.bmp","fafa:va","Left","37","3","11","3A","C1","C","59"
"","","approach-retreat","208","1555184","0.0-208.0","","","1-1","5026","40","1","Testing","Stims/Figures/74-C-20-4.bmp","za:sa:za","Up","40","3","12","3A","C2","C","60"
"","","approach-retreat","209","1560773","0.0-209.0","","","1-1","4070","37","1","Testing","Stims/Figures/27-C-30-1.bmp","za:sa:za","Right","37","3","13","3A","C2","C","61"
"","","approach-retreat","210","1567474","0.0-210.0","","","1-1","5189","37","0","Testing","Stims/Figures/7-C-20-4.bmp","za:sa:za","Left","39","3","14","3A","C2","C","62"
"","","approach-retreat","211","1573714","0.0-211.0","","","1-1","4722","40","0","Testing","Stims/Figures/93-C-30-1.bmp","za:sa:za","Down","38","3","15","3A","C2","C","63"
"","","approach-retreat","212","1579483","0.0-212.0","","","1-1","4248","38","1","Testing","Stims/Figures/118-C-20-2.bmp","za:sa:za","Down","38","3","16","3A","C2","C","64"
"","","approach-retreat","213","1585093","0.0-213.0","","","1-1","4094","37","1","Testing","Stims/Figures/57-J-0-1.bmp","fafa:va","Left","37","3","17","3A","C1","C","65"
"","","approach-retreat","214","1591363","0.0-214.0","","","1-1","4748","40","0","Testing","Stims/Figures/84-C-20-2.bmp","za:sa:za","Down","38","3","18","3A","C2","C","66"
"","","approach-retreat","215","1596974","0.0-215.0","","","1-1","4094","39","1","Testing","Stims/Figures/111-C-30-3.bmp","za:sa:za","Left","39","3","19","3A","C2","C","67"
"","","approach-retreat","216","1602723","0.0-216.0","","","1-1","4229","39","0","Testing","Stims/Figures/128-C-30-3.bmp","za:sa:za","Right","37","3","20","3A","C2","C","68"
"","","approach-retreat","217","1608393","0.0-217.0","","","1-1","4147","40","1","Testing","Stims/Figures/74-J-10-4.bmp","fafa:va","Down","40","3","21","3A","C1","C","69"
"","","approach-retreat","218","1614453","0.0-218.0","","","1-1","4537","40","0","Testing","Stims/Figures/27-J-0-1.bmp","fafa:va","Up","38","3","22","3A","C1","C","70"
"","","approach-retreat","219","1620083","0.0-219.0","","","1-1","4118","40","1","Testing","Stims/Figures/19-C-20-4.bmp","za:sa:za","Up","40","3","23","3A","C2","C","71"
"","","approach-retreat","220","1625653","0.0-220.0","","","1-1","4045","39","1","Testing","Stims/Figures/93-J-0-1.bmp","fafa:va","Right","39","3","24","3A","C1","C","72"
"","","approach-retreat","221","1633774","0.0-221.0","","","1-1","6606","38","1","Testing","Stims/Figures/93-C-30-1.bmp","za:sa:za","Down","38","4","1","3A","C2","C","73"
"","","approach-retreat","222","1639654","0.0-222.0","","","1-1","4368","39","1","Testing","Stims/Figures/57-J-0-1.bmp","fafa:va","Right","39","4","2","3A","C1","C","74"
"","","approach-retreat","223","1645344","0.0-223.0","","","1-1","4170","37","1","Testing","Stims/Figures/27-J-0-1.bmp","fafa:va","Left","37","4","3","3A","C1","C","75"
"","","approach-retreat","224","1650873","0.0-224.0","","","1-1","4010","39","1","Testing","Stims/Figures/19-J-10-4.bmp","fafa:va","Right","39","4","4","3A","C1","C","76"
"","","approach-retreat","225","1658363","0.0-225.0","","","1-1","5969","38","1","Testing","Stims/Figures/128-J-10-3.bmp","fafa:va","Up","38","4","5","3A","C1","C","77"
"","","approach-retreat","226","1663963","0.0-226.0","","","1-1","4084","38","1","Testing","Stims/Figures/84-C-20-2.bmp","za:sa:za","Down","38","4","6","3A","C2","C","78"
"","","approach-retreat","227","1671444","0.0-227.0","","","1-1","5958","39","0","Testing","Stims/Figures/111-C-30-3.bmp","za:sa:za","Right","37","4","7","3A","C2","C","79"
"","","approach-retreat","228","1677952","0.0-228.0","","","1-1","4995","40","0","Testing","Stims/Figures/118-J-0-2.bmp","fafa:va","Up","38","4","8","3A","C1","C","80"
"","","approach-retreat","229","1683903","0.0-229.0","","","1-1","4434","40","0","Testing","Stims/Figures/57-C-30-1.bmp","za:sa:za","Down","38","4","9","3A","C2","C","81"
"","","approach-retreat","230","1689753","0.0-230.0","","","1-1","4340","39","1","Testing","Stims/Figures/93-J-0-1.bmp","fafa:va","Right","39","4","10","3A","C1","C","82"
"","","approach-retreat","231","1695354","0.0-231.0","","","1-1","4091","40","0","Testing","Stims/Figures/44-J-10-3.bmp","fafa:va","Up","38","4","11","3A","C1","C","83"
"","","approach-retreat","232","1703223","0.0-232.0","","","1-1","6356","39","1","Testing","Stims/Figures/19-C-20-4.bmp","za:sa:za","Left","39","4","12","3A","C2","C","84"
"","","approach-retreat","233","1709873","0.0-233.0","","","1-1","5127","40","0","Testing","Stims/Figures/128-C-30-3.bmp","za:sa:za","Down","38","4","13","3A","C2","C","85"
"","","approach-retreat","234","1717003","0.0-234.0","","","1-1","5605","39","0","Testing","Stims/Figures/74-J-10-4.bmp","fafa:va","Left","37","4","14","3A","C1","C","86"
"","","approach-retreat","235","1723344","0.0-235.0","","","1-1","4817","39","1","Testing","Stims/Figures/27-C-30-1.bmp","za:sa:za","Left","39","4","15","3A","C2","C","87"
"","","approach-retreat","236","1729863","0.0-236.0","","","1-1","4991","40","0","Testing","Stims/Figures/7-C-20-4.bmp","za:sa:za","Down","38","4","16","3A","C2","C","88"
"","","approach-retreat","237","1736822","0.0-237.0","","","1-1","5439","40","0","Testing","Stims/Figures/111-J-10-3.bmp","fafa:va","Up","38","4","17","3A","C1","C","89"
"","","approach-retreat","238","1743184","0.0-238.0","","","1-1","4843","39","0","Testing","Stims/Figures/84-J-0-2.bmp","fafa:va","Left","37","4","18","3A","C1","C","90"
"","","approach-retreat","239","1750644","0.0-239.0","","","1-1","5941","40","1","Testing","Stims/Figures/7-J-10-4.bmp","fafa:va","Down","40","4","19","3A","C1","C","91"
"","","approach-retreat","240","1757914","0.0-240.0","","","1-1","5759","37","1","Testing","Stims/Figures/118-C-20-2.bmp","za:sa:za","Right","37","4","20","3A","C2","C","92"
"","","approach-retreat","241","1764003","0.0-241.0","","","1-1","4573","38","1","Testing","Stims/Figures/139-J-0-2.bmp","fafa:va","Up","38","4","21","3A","C1","C","93"
"","","approach-retreat","242","1770384","0.0-242.0","","","1-1","4851","39","0","Testing","Stims/Figures/74-C-20-4.bmp","za:sa:za","Right","37","4","22","3A","C2","C","94"
"","","approach-retreat","243","1777144","0.0-243.0","","","1-1","5250","39","1","Testing","Stims/Figures/139-C-20-2.bmp","za:sa:za","Left","39","4","23","3A","C2","C","95"
"","","approach-retreat","244","1785864","0.0-244.0","","","1-1","7194","40","1","Testing","Stims/Figures/44-C-30-3.bmp","za:sa:za","Up","40","4","24","3A","C2","C","96"
"71173","","survey-text","245","1857100","0.0-245.0","","{""Q0"":""PS180072""}","","","","","","","","","","","","","","",""
