"rt","key_press","trial_type","trial_index","time_elapsed","internal_node_id","view_history","responses","Id","Rt","ResKeyCode","ResCorr","TrialType2","Image","Label","Location","CorrectResponse","Block","BlockTrial","Condition","LabelType","Subcondition","trialNum"
"33984","32","text","0","33996","0.0-0.0-0.0","","","","","","","","","","","","","","","","",""
"219270","","instructions","1","253275","0.0-1.0","[{""page_index"":0,""viewing_time"":219267}]","","","","","","","","","","","","","","","",""
"60337","","survey-multi-choice","2","313748","0.0-2.0","","{""Q0"":""Da"",""Q1"":""Da"",""Q2"":""Da"",""Q3"":""Da"",""Q4"":""Da"",""Q5"":""Da""}","","","","","","","","","","","","","","",""
"","","bio","3","327161","0.0-3.0","","{""age"":""19"",""gender"":""f"",""specify"":""""}","","","","","","","","","","","","","","",""
"","","approach-retreat","4","339392","0.0-4.0","","","1-5","10704","37","1","Training","Stims/Figures/27-C-30-1.bmp","pakata","Left","37","1","1","7","P","J","1"
"","","approach-retreat","5","349716","0.0-5.0","","","1-5","8795","39","0","Training","Stims/Figures/100-J-10-3.bmp","mamala","Right","37","1","2","7","S","J","2"
"","","approach-retreat","6","356815","0.0-6.0","","","1-5","5559","37","0","Training","Stims/Figures/7-J-10-4.bmp","ma:lala","Left","39","1","3","7","S","J","3"
"","","approach-retreat","7","362405","0.0-7.0","","","1-5","4065","37","0","Training","Stims/Figures/94-J-0-2.bmp","tapa:ta","Left","39","1","4","7","P","J","4"
"","","approach-retreat","8","371067","0.0-8.0","","","1-5","7121","40","0","Training","Stims/Figures/94-C-20-2.bmp","paka:ka","Up","38","1","5","7","P","J","5"
"","","approach-retreat","9","378729","0.0-9.0","","","1-5","6124","38","1","Training","Stims/Figures/7-C-20-4.bmp","na:ma:na","Up","38","1","6","7","S","J","6"
"","","approach-retreat","10","386717","0.0-10.0","","","1-5","6444","38","0","Training","Stims/Figures/111-J-10-3.bmp","ma:la:na","Up","40","1","7","7","S","J","7"
"","","approach-retreat","11","395204","0.0-11.0","","","1-5","6947","40","0","Training","Stims/Figures/87-J-10-4.bmp","nama:na","Down","38","1","8","7","S","J","8"
"","","approach-retreat","12","400972","0.0-12.0","","","1-5","4235","38","1","Training","Stims/Figures/118-J-0-2.bmp","tapata","Down","38","1","9","7","P","J","9"
"","","approach-retreat","13","409621","0.0-13.0","","","1-5","7116","39","0","Training","Stims/Figures/118-C-20-2.bmp","ta:pa:ta","Left","37","1","10","7","P","J","10"
"","","approach-retreat","14","419772","0.0-14.0","","","1-5","8617","37","0","Training","Stims/Figures/111-C-30-3.bmp","na:mana","Right","39","1","11","7","S","J","11"
"","","approach-retreat","15","426712","0.0-15.0","","","1-5","5400","38","1","Training","Stims/Figures/100-C-30-3.bmp","mama:la","Up","38","1","12","7","S","J","12"
"","","approach-retreat","16","433091","0.0-16.0","","","1-5","4840","39","1","Training","Stims/Figures/86-C-30-1.bmp","ta:paka","Right","39","1","13","7","P","J","13"
"","","approach-retreat","17","440715","0.0-17.0","","","1-5","6082","40","1","Training","Stims/Figures/87-C-20-4.bmp","malana","Down","40","1","14","7","S","J","14"
"","","approach-retreat","18","448468","0.0-18.0","","","1-5","6214","39","0","Training","Stims/Figures/27-J-0-1.bmp","pa:ka:ka","Right","37","1","15","7","P","J","15"
"","","approach-retreat","19","455475","0.0-19.0","","","1-5","5466","38","1","Training","Stims/Figures/86-J-0-1.bmp","papata","Down","38","1","16","7","P","J","16"
"","","approach-retreat","20","462513","0.0-20.0","","","1-5","5495","39","0","Training","Stims/Figures/94-C-20-2.bmp","paka:ka","Left","37","2","1","7","P","J","17"
"","","approach-retreat","21","469992","0.0-21.0","","","1-5","5938","38","1","Training","Stims/Figures/86-J-0-1.bmp","papata","Down","38","2","2","7","P","J","18"
"","","approach-retreat","22","476964","0.0-22.0","","","1-5","5429","38","0","Training","Stims/Figures/7-C-20-4.bmp","na:ma:na","Down","40","2","3","7","S","J","19"
"","","approach-retreat","23","482962","0.0-23.0","","","1-5","4465","39","1","Training","Stims/Figures/7-J-10-4.bmp","ma:lala","Left","39","2","4","7","S","J","20"
"","","approach-retreat","24","488630","0.0-24.0","","","1-5","4128","39","0","Training","Stims/Figures/27-J-0-1.bmp","pa:ka:ka","Right","37","2","5","7","P","J","21"
"","","approach-retreat","25","494872","0.0-25.0","","","1-5","4704","37","0","Training","Stims/Figures/100-C-30-3.bmp","mama:la","Right","39","2","6","7","S","J","22"
"","","approach-retreat","26","500982","0.0-26.0","","","1-5","4566","39","0","Training","Stims/Figures/118-J-0-2.bmp","tapata","Right","37","2","7","7","P","J","23"
"","","approach-retreat","27","508387","0.0-27.0","","","1-5","5883","38","0","Training","Stims/Figures/86-C-30-1.bmp","ta:paka","Down","40","2","8","7","P","J","24"
"","","approach-retreat","28","516135","0.0-28.0","","","1-5","6209","38","1","Training","Stims/Figures/87-C-20-4.bmp","malana","Up","38","2","9","7","S","J","25"
"","","approach-retreat","29","522367","0.0-29.0","","","1-5","4694","38","1","Training","Stims/Figures/111-C-30-3.bmp","na:mana","Up","38","2","10","7","S","J","26"
"","","approach-retreat","30","528368","0.0-30.0","","","1-5","4460","38","0","Training","Stims/Figures/87-J-10-4.bmp","nama:na","Up","40","2","11","7","S","J","27"
"","","approach-retreat","31","535328","0.0-31.0","","","1-5","5418","37","0","Training","Stims/Figures/94-J-0-2.bmp","tapa:ta","Left","39","2","12","7","P","J","28"
"","","approach-retreat","32","544346","0.0-32.0","","","1-5","7475","40","0","Training","Stims/Figures/111-J-10-3.bmp","ma:la:na","Down","38","2","13","7","S","J","29"
"","","approach-retreat","33","552171","0.0-33.0","","","1-5","6282","37","0","Training","Stims/Figures/118-C-20-2.bmp","ta:pa:ta","Right","39","2","14","7","P","J","30"
"","","approach-retreat","34","558788","0.0-34.0","","","1-5","5078","38","0","Training","Stims/Figures/100-J-10-3.bmp","mamala","Up","40","2","15","7","S","J","31"
"","","approach-retreat","35","565617","0.0-35.0","","","1-5","5288","37","1","Training","Stims/Figures/27-C-30-1.bmp","pakata","Left","37","2","16","7","P","J","32"
"","","approach-retreat","36","572391","0.0-36.0","","","1-5","5232","38","0","Training","Stims/Figures/94-J-0-2.bmp","tapa:ta","Up","40","3","1","7","P","J","33"
"","","approach-retreat","37","580826","0.0-37.0","","","1-5","6899","40","1","Training","Stims/Figures/111-C-30-3.bmp","na:mana","Down","40","3","2","7","S","J","34"
"","","approach-retreat","38","588646","0.0-38.0","","","1-5","6278","39","0","Training","Stims/Figures/86-C-30-1.bmp","ta:paka","Left","37","3","3","7","P","J","35"
"","","approach-retreat","39","597701","0.0-39.0","","","1-5","7519","39","0","Training","Stims/Figures/27-J-0-1.bmp","pa:ka:ka","Right","37","3","4","7","P","J","36"
"","","approach-retreat","40","606126","0.0-40.0","","","1-5","6885","40","0","Training","Stims/Figures/7-J-10-4.bmp","ma:lala","Down","38","3","5","7","S","J","37"
"","","approach-retreat","41","613577","0.0-41.0","","","1-5","5936","38","1","Training","Stims/Figures/100-C-30-3.bmp","mama:la","Up","38","3","6","7","S","J","38"
"","","approach-retreat","42","623807","0.0-42.0","","","1-5","8717","37","0","Training","Stims/Figures/94-C-20-2.bmp","paka:ka","Right","39","3","7","7","P","J","39"
"","","approach-retreat","43","630811","0.0-43.0","","","1-5","5465","40","0","Training","Stims/Figures/118-J-0-2.bmp","tapata","Down","38","3","8","7","P","J","40"
"","","approach-retreat","44","640571","0.0-44.0","","","1-5","8221","37","0","Training","Stims/Figures/111-J-10-3.bmp","ma:la:na","Left","39","3","9","7","S","J","41"
"","","approach-retreat","45","649800","0.0-45.0","","","1-5","7716","39","1","Training","Stims/Figures/87-J-10-4.bmp","nama:na","Left","39","3","10","7","S","J","42"
"","","approach-retreat","46","658208","0.0-46.0","","","1-5","6868","39","0","Training","Stims/Figures/87-C-20-4.bmp","malana","Left","37","3","11","7","S","J","43"
"","","approach-retreat","47","665053","0.0-47.0","","","1-5","5307","40","0","Training","Stims/Figures/86-J-0-1.bmp","papata","Down","38","3","12","7","P","J","44"
"","","approach-retreat","48","672366","0.0-48.0","","","1-5","5773","37","0","Training","Stims/Figures/27-C-30-1.bmp","pakata","Right","39","3","13","7","P","J","45"
"","","approach-retreat","49","678332","0.0-49.0","","","1-5","4428","39","0","Training","Stims/Figures/100-J-10-3.bmp","mamala","Right","37","3","14","7","S","J","46"
"","","approach-retreat","50","686372","0.0-50.0","","","1-5","6508","38","1","Training","Stims/Figures/118-C-20-2.bmp","ta:pa:ta","Up","38","3","15","7","P","J","47"
"","","approach-retreat","51","694698","0.0-51.0","","","1-5","6788","38","1","Training","Stims/Figures/7-C-20-4.bmp","na:ma:na","Up","38","3","16","7","S","J","48"
"","","approach-retreat","52","703117","0.0-52.0","","","1-5","6878","40","0","Training","Stims/Figures/86-J-0-1.bmp","papata","Down","38","4","1","7","P","J","49"
"","","approach-retreat","53","712942","0.0-53.0","","","1-5","8286","37","0","Training","Stims/Figures/100-J-10-3.bmp","mamala","Left","39","4","2","7","S","J","50"
"","","approach-retreat","54","722748","0.0-54.0","","","1-5","8272","37","1","Training","Stims/Figures/118-C-20-2.bmp","ta:pa:ta","Left","37","4","3","7","P","J","51"
"","","approach-retreat","55","731503","0.0-55.0","","","1-5","7217","39","1","Training","Stims/Figures/87-C-20-4.bmp","malana","Right","39","4","4","7","S","J","52"
"","","approach-retreat","56","738728","0.0-56.0","","","1-5","5688","40","0","Training","Stims/Figures/87-J-10-4.bmp","nama:na","Down","38","4","5","7","S","J","53"
"","","approach-retreat","57","749629","0.0-57.0","","","1-5","9361","37","0","Training","Stims/Figures/111-C-30-3.bmp","na:mana","Right","39","4","6","7","S","J","54"
"","","approach-retreat","58","757072","0.0-58.0","","","1-5","5903","37","0","Training","Stims/Figures/94-J-0-2.bmp","tapa:ta","Left","39","4","7","7","P","J","55"
"","","approach-retreat","59","765752","0.0-59.0","","","1-5","7129","40","0","Training","Stims/Figures/94-C-20-2.bmp","paka:ka","Up","38","4","8","7","P","J","56"
"","","approach-retreat","60","778547","0.0-60.0","","","1-5","11255","38","0","Training","Stims/Figures/118-J-0-2.bmp","tapata","Up","40","4","9","7","P","J","57"
"","","approach-retreat","61","786837","0.0-61.0","","","1-5","6748","40","0","Training","Stims/Figures/7-C-20-4.bmp","na:ma:na","Up","38","4","10","7","S","J","58"
"","","approach-retreat","62","797015","0.0-62.0","","","1-5","8640","37","1","Training","Stims/Figures/100-C-30-3.bmp","mama:la","Left","37","4","11","7","S","J","59"
"","","approach-retreat","63","805095","0.0-63.0","","","1-5","6563","39","0","Training","Stims/Figures/27-J-0-1.bmp","pa:ka:ka","Right","37","4","12","7","P","J","60"
"","","approach-retreat","64","813483","0.0-64.0","","","1-5","6871","40","0","Training","Stims/Figures/7-J-10-4.bmp","ma:lala","Down","38","4","13","7","S","J","61"
"","","approach-retreat","65","822510","0.0-65.0","","","1-5","7490","38","1","Training","Stims/Figures/111-J-10-3.bmp","ma:la:na","Down","38","4","14","7","S","J","62"
"","","approach-retreat","66","831847","0.0-66.0","","","1-5","7804","39","1","Training","Stims/Figures/86-C-30-1.bmp","ta:paka","Right","39","4","15","7","P","J","63"
"","","approach-retreat","67","838970","0.0-67.0","","","1-5","5609","40","0","Training","Stims/Figures/27-C-30-1.bmp","pakata","Up","38","4","16","7","P","J","64"
"","","approach-retreat","68","845433","0.0-68.0","","","1-5","4929","37","1","Training","Stims/Figures/86-C-30-1.bmp","ta:paka","Left","37","5","1","7","P","J","65"
"","","approach-retreat","69","851549","0.0-69.0","","","1-5","4576","38","1","Training","Stims/Figures/27-C-30-1.bmp","pakata","Up","38","5","2","7","P","J","66"
"","","approach-retreat","70","857573","0.0-70.0","","","1-5","4485","38","0","Training","Stims/Figures/94-J-0-2.bmp","tapa:ta","Up","40","5","3","7","P","J","67"
"","","approach-retreat","71","868764","0.0-71.0","","","1-5","9661","40","1","Training","Stims/Figures/87-C-20-4.bmp","malana","Down","40","5","4","7","S","J","68"
"","","approach-retreat","72","876427","0.0-72.0","","","1-5","6127","40","1","Training","Stims/Figures/7-C-20-4.bmp","na:ma:na","Down","40","5","5","7","S","J","69"
"","","approach-retreat","73","884222","0.0-73.0","","","1-5","6255","38","1","Training","Stims/Figures/111-C-30-3.bmp","na:mana","Up","38","5","6","7","S","J","70"
"","","approach-retreat","74","892548","0.0-74.0","","","1-5","6785","39","0","Training","Stims/Figures/27-J-0-1.bmp","pa:ka:ka","Right","37","5","7","7","P","J","71"
"","","approach-retreat","75","898646","0.0-75.0","","","1-5","4559","39","0","Training","Stims/Figures/87-J-10-4.bmp","nama:na","Right","37","5","8","7","S","J","72"
"","","approach-retreat","76","905859","0.0-76.0","","","1-5","5674","37","1","Training","Stims/Figures/118-C-20-2.bmp","ta:pa:ta","Left","37","5","9","7","P","J","73"
"","","approach-retreat","77","913570","0.0-77.0","","","1-5","6169","39","0","Training","Stims/Figures/118-J-0-2.bmp","tapata","Right","37","5","10","7","P","J","74"
"","","approach-retreat","78","919425","0.0-78.0","","","1-5","4319","39","0","Training","Stims/Figures/7-J-10-4.bmp","ma:lala","Right","37","5","11","7","S","J","75"
"","","approach-retreat","79","927012","0.0-79.0","","","1-5","6051","37","0","Training","Stims/Figures/111-J-10-3.bmp","ma:la:na","Left","39","5","12","7","S","J","76"
"","","approach-retreat","80","935160","0.0-80.0","","","1-5","6602","38","0","Training","Stims/Figures/100-C-30-3.bmp","mama:la","Down","40","5","13","7","S","J","77"
"","","approach-retreat","81","944460","0.0-81.0","","","1-5","7760","38","0","Training","Stims/Figures/100-J-10-3.bmp","mamala","Up","40","5","14","7","S","J","78"
"","","approach-retreat","82","951591","0.0-82.0","","","1-5","5593","37","1","Training","Stims/Figures/94-C-20-2.bmp","paka:ka","Left","37","5","15","7","P","J","79"
"","","approach-retreat","83","957906","0.0-83.0","","","1-5","4781","40","0","Training","Stims/Figures/86-J-0-1.bmp","papata","Down","38","5","16","7","P","J","80"
"","","approach-retreat","84","967100","0.0-84.0","","","1-5","7650","39","0","Training","Stims/Figures/118-C-20-2.bmp","ta:pa:ta","Left","37","6","1","7","P","J","81"
"","","approach-retreat","85","976001","0.0-85.0","","","1-5","7363","38","1","Training","Stims/Figures/86-C-30-1.bmp","ta:paka","Up","38","6","2","7","P","J","82"
"","","approach-retreat","86","982571","0.0-86.0","","","1-5","5034","38","0","Training","Stims/Figures/87-J-10-4.bmp","nama:na","Up","40","6","3","7","S","J","83"
"","","approach-retreat","87","994469","0.0-87.0","","","1-5","10366","39","1","Training","Stims/Figures/27-C-30-1.bmp","pakata","Right","39","6","4","7","P","J","84"
"","","approach-retreat","88","1001961","0.0-88.0","","","1-5","5953","39","1","Training","Stims/Figures/7-J-10-4.bmp","ma:lala","Left","39","6","5","7","S","J","85"
"","","approach-retreat","89","1011780","0.0-89.0","","","1-5","8280","40","1","Training","Stims/Figures/7-C-20-4.bmp","na:ma:na","Down","40","6","6","7","S","J","86"
"","","approach-retreat","90","1023725","0.0-90.0","","","1-5","10426","39","0","Training","Stims/Figures/86-J-0-1.bmp","papata","Right","37","6","7","7","P","J","87"
"","","approach-retreat","91","1030339","0.0-91.0","","","1-5","5076","37","0","Training","Stims/Figures/111-J-10-3.bmp","ma:la:na","Left","39","6","8","7","S","J","88"
"","","approach-retreat","92","1037422","0.0-92.0","","","1-5","5559","37","1","Training","Stims/Figures/94-C-20-2.bmp","paka:ka","Left","37","6","9","7","P","J","89"
"","","approach-retreat","93","1046999","0.0-93.0","","","1-5","8041","40","1","Training","Stims/Figures/118-J-0-2.bmp","tapata","Up","40","6","10","7","P","J","90"
"","","approach-retreat","94","1054341","0.0-94.0","","","1-5","5803","39","0","Training","Stims/Figures/100-J-10-3.bmp","mamala","Right","37","6","11","7","S","J","91"
"","","approach-retreat","95","1061890","0.0-95.0","","","1-5","6015","38","0","Training","Stims/Figures/94-J-0-2.bmp","tapa:ta","Up","40","6","12","7","P","J","92"
"","","approach-retreat","96","1068110","0.0-96.0","","","1-5","4683","40","1","Training","Stims/Figures/100-C-30-3.bmp","mama:la","Down","40","6","13","7","S","J","93"
"","","approach-retreat","97","1081558","0.0-97.0","","","1-5","11914","39","1","Training","Stims/Figures/111-C-30-3.bmp","na:mana","Right","39","6","14","7","S","J","94"
"","","approach-retreat","98","1089685","0.0-98.0","","","1-5","6590","40","1","Training","Stims/Figures/87-C-20-4.bmp","malana","Down","40","6","15","7","S","J","95"
"","","approach-retreat","99","1098531","0.0-99.0","","","1-5","7317","40","0","Training","Stims/Figures/27-J-0-1.bmp","pa:ka:ka","Down","38","6","16","7","P","J","96"
"","","approach-retreat","100","1105332","0.0-100.0","","","1-5","5266","37","0","Training","Stims/Figures/27-C-30-1.bmp","pakata","Right","39","7","1","7","P","J","97"
"","","approach-retreat","101","1111239","0.0-101.0","","","1-5","4369","37","0","Training","Stims/Figures/7-C-20-4.bmp","na:ma:na","Right","39","7","2","7","S","J","98"
"","","approach-retreat","102","1117252","0.0-102.0","","","1-5","4474","37","1","Training","Stims/Figures/86-C-30-1.bmp","ta:paka","Left","37","7","3","7","P","J","99"
"","","approach-retreat","103","1131073","0.0-103.0","","","1-5","12286","38","1","Training","Stims/Figures/87-C-20-4.bmp","malana","Up","38","7","4","7","S","J","100"
"","","approach-retreat","104","1140550","0.0-104.0","","","1-5","7947","40","0","Training","Stims/Figures/27-J-0-1.bmp","pa:ka:ka","Down","38","7","5","7","P","J","101"
"","","approach-retreat","105","1147087","0.0-105.0","","","1-5","5000","38","0","Training","Stims/Figures/87-J-10-4.bmp","nama:na","Up","40","7","6","7","S","J","102"
"","","approach-retreat","106","1155031","0.0-106.0","","","1-5","6404","39","0","Training","Stims/Figures/100-C-30-3.bmp","mama:la","Left","37","7","7","7","S","J","103"
"","","approach-retreat","107","1161302","0.0-107.0","","","1-5","4732","39","1","Training","Stims/Figures/111-C-30-3.bmp","na:mana","Right","39","7","8","7","S","J","104"
"","","approach-retreat","108","1170144","0.0-108.0","","","1-5","7326","38","0","Training","Stims/Figures/111-J-10-3.bmp","ma:la:na","Up","40","7","9","7","S","J","105"
"","","approach-retreat","109","1176275","0.0-109.0","","","1-5","4590","39","0","Training","Stims/Figures/86-J-0-1.bmp","papata","Right","37","7","10","7","P","J","106"
"","","approach-retreat","110","1183348","0.0-110.0","","","1-5","5531","40","0","Training","Stims/Figures/7-J-10-4.bmp","ma:lala","Down","38","7","11","7","S","J","107"
"","","approach-retreat","111","1191148","0.0-111.0","","","1-5","6259","37","0","Training","Stims/Figures/100-J-10-3.bmp","mamala","Left","39","7","12","7","S","J","108"
"","","approach-retreat","112","1198050","0.0-112.0","","","1-5","5365","40","1","Training","Stims/Figures/94-C-20-2.bmp","paka:ka","Down","40","7","13","7","P","J","109"
"","","approach-retreat","113","1205656","0.0-113.0","","","1-5","6068","40","1","Training","Stims/Figures/118-C-20-2.bmp","ta:pa:ta","Down","40","7","14","7","P","J","110"
"","","approach-retreat","114","1212611","0.0-114.0","","","1-5","5413","38","0","Training","Stims/Figures/118-J-0-2.bmp","tapata","Up","40","7","15","7","P","J","111"
"","","approach-retreat","115","1219878","0.0-115.0","","","1-5","5725","37","0","Training","Stims/Figures/94-J-0-2.bmp","tapa:ta","Left","39","7","16","7","P","J","112"
"","","approach-retreat","116","1229247","0.0-116.0","","","1-5","7830","40","1","Training","Stims/Figures/111-C-30-3.bmp","na:mana","Down","40","8","1","7","S","J","113"
"","","approach-retreat","117","1235471","0.0-117.0","","","1-5","4687","38","0","Training","Stims/Figures/86-J-0-1.bmp","papata","Up","40","8","2","7","P","J","114"
"","","approach-retreat","118","1244396","0.0-118.0","","","1-5","7395","37","0","Training","Stims/Figures/118-J-0-2.bmp","tapata","Left","39","8","3","7","P","J","115"
"","","approach-retreat","119","1252171","0.0-119.0","","","1-5","6243","39","1","Training","Stims/Figures/87-C-20-4.bmp","malana","Right","39","8","4","7","S","J","116"
"","","approach-retreat","120","1260617","0.0-120.0","","","1-5","6917","40","1","Training","Stims/Figures/27-C-30-1.bmp","pakata","Down","40","8","5","7","P","J","117"
"","","approach-retreat","121","1270025","0.0-121.0","","","1-5","7874","38","1","Training","Stims/Figures/87-J-10-4.bmp","nama:na","Down","38","8","6","7","S","J","118"
"","","approach-retreat","122","1276929","0.0-122.0","","","1-5","5364","39","0","Training","Stims/Figures/118-C-20-2.bmp","ta:pa:ta","Left","37","8","7","7","P","J","119"
"","","approach-retreat","123","1283470","0.0-123.0","","","1-5","4999","39","0","Training","Stims/Figures/100-J-10-3.bmp","mamala","Right","37","8","8","7","S","J","120"
"","","approach-retreat","124","1289702","0.0-124.0","","","1-5","4695","39","1","Training","Stims/Figures/27-J-0-1.bmp","pa:ka:ka","Left","39","8","9","7","P","J","121"
"","","approach-retreat","125","1296616","0.0-125.0","","","1-5","5396","38","0","Training","Stims/Figures/7-J-10-4.bmp","ma:lala","Up","40","8","10","7","S","J","122"
"","","approach-retreat","126","1304831","0.0-126.0","","","1-5","6682","38","0","Training","Stims/Figures/100-C-30-3.bmp","mama:la","Down","40","8","11","7","S","J","123"
"","","approach-retreat","127","1312461","0.0-127.0","","","1-5","6091","38","0","Training","Stims/Figures/94-J-0-2.bmp","tapa:ta","Up","40","8","12","7","P","J","124"
"","","approach-retreat","128","1318409","0.0-128.0","","","1-5","4410","39","1","Training","Stims/Figures/94-C-20-2.bmp","paka:ka","Right","39","8","13","7","P","J","125"
"","","approach-retreat","129","1324369","0.0-129.0","","","1-5","4421","39","1","Training","Stims/Figures/86-C-30-1.bmp","ta:paka","Right","39","8","14","7","P","J","126"
"","","approach-retreat","130","1330766","0.0-130.0","","","1-5","4860","40","1","Training","Stims/Figures/111-J-10-3.bmp","ma:la:na","Up","40","8","15","7","S","J","127"
"","","approach-retreat","131","1337609","0.0-131.0","","","1-5","5329","39","0","Training","Stims/Figures/7-C-20-4.bmp","na:ma:na","Left","37","8","16","7","S","J","128"
"","","approach-retreat","132","1344832","0.0-132.0","","","1-5","5710","38","0","Training","Stims/Figures/7-C-20-4.bmp","na:ma:na","Down","40","9","1","7","S","J","129"
"","","approach-retreat","133","1351154","0.0-133.0","","","1-5","4787","37","0","Training","Stims/Figures/87-J-10-4.bmp","nama:na","Left","39","9","2","7","S","J","130"
"","","approach-retreat","134","1357788","0.0-134.0","","","1-5","5112","38","0","Training","Stims/Figures/94-J-0-2.bmp","tapa:ta","Up","40","9","3","7","P","J","131"
"","","approach-retreat","135","1364201","0.0-135.0","","","1-5","4873","40","1","Training","Stims/Figures/94-C-20-2.bmp","paka:ka","Down","40","9","4","7","P","J","132"
"","","approach-retreat","136","1370045","0.0-136.0","","","1-5","4306","40","1","Training","Stims/Figures/27-C-30-1.bmp","pakata","Down","40","9","5","7","P","J","133"
"","","approach-retreat","137","1376854","0.0-137.0","","","1-5","5270","37","0","Training","Stims/Figures/118-C-20-2.bmp","ta:pa:ta","Right","39","9","6","7","P","J","134"
"","","approach-retreat","138","1383188","0.0-138.0","","","1-5","4809","39","1","Training","Stims/Figures/7-J-10-4.bmp","ma:lala","Left","39","9","7","7","S","J","135"
"","","approach-retreat","139","1390316","0.0-139.0","","","1-5","5589","39","0","Training","Stims/Figures/87-C-20-4.bmp","malana","Left","37","9","8","7","S","J","136"
"","","approach-retreat","140","1395968","0.0-140.0","","","1-5","4117","37","0","Training","Stims/Figures/111-J-10-3.bmp","ma:la:na","Left","39","9","9","7","S","J","137"
"","","approach-retreat","141","1401673","0.0-141.0","","","1-5","4163","39","0","Training","Stims/Figures/118-J-0-2.bmp","tapata","Right","37","9","10","7","P","J","138"
"","","approach-retreat","142","1407839","0.0-142.0","","","1-5","4628","39","1","Training","Stims/Figures/111-C-30-3.bmp","na:mana","Right","39","9","11","7","S","J","139"
"","","approach-retreat","143","1416980","0.0-143.0","","","1-5","7602","37","1","Training","Stims/Figures/86-J-0-1.bmp","papata","Right","37","9","12","7","P","J","140"
"","","approach-retreat","144","1423044","0.0-144.0","","","1-5","4523","38","0","Training","Stims/Figures/100-J-10-3.bmp","mamala","Up","40","9","13","7","S","J","141"
"","","approach-retreat","145","1429781","0.0-145.0","","","1-5","5198","40","0","Training","Stims/Figures/86-C-30-1.bmp","ta:paka","Up","38","9","14","7","P","J","142"
"","","approach-retreat","146","1436559","0.0-146.0","","","1-5","5251","40","1","Training","Stims/Figures/27-J-0-1.bmp","pa:ka:ka","Up","40","9","15","7","P","J","143"
"","","approach-retreat","147","1442178","0.0-147.0","","","1-5","4080","38","0","Training","Stims/Figures/100-C-30-3.bmp","mama:la","Down","40","9","16","7","S","J","144"
"16394","","instructions","148","1458575","0.0-148.0","[{""page_index"":0,""viewing_time"":16392}]","","","","","","","","","","","","","","","",""
"","","approach-retreat","149","1488157","0.0-149.0","","","1-5","28053","38","1","Testing","Stims/Figures/111-C-30-3.bmp","na:mana","Up","38","1","1","7","S","J","1"
"","","approach-retreat","150","1500004","0.0-150.0","","","1-5","10314","39","1","Testing","Stims/Figures/111-J-10-3.bmp","ma:la:na","Left","39","1","2","7","S","J","2"
"","","approach-retreat","151","1506309","0.0-151.0","","","1-5","4775","37","1","Testing","Stims/Figures/94-C-20-2.bmp","paka:ka","Left","37","1","3","7","P","J","3"
"","","approach-retreat","152","1513522","0.0-152.0","","","1-5","5682","37","1","Testing","Stims/Figures/100-J-10-3.bmp","mamala","Right","37","1","4","7","S","J","4"
"","","approach-retreat","153","1528441","0.0-153.0","","","1-5","13389","40","1","Testing","Stims/Figures/86-J-0-1.bmp","papata","Up","40","1","5","7","P","J","5"
"","","approach-retreat","154","1535333","0.0-154.0","","","1-5","5362","37","1","Testing","Stims/Figures/100-C-30-3.bmp","mama:la","Left","37","1","6","7","S","J","6"
"","","approach-retreat","155","1545750","0.0-155.0","","","1-5","8884","39","1","Testing","Stims/Figures/118-C-20-2.bmp","ta:pa:ta","Right","39","1","7","7","P","J","7"
"","","approach-retreat","156","1552984","0.0-156.0","","","1-5","5725","39","0","Testing","Stims/Figures/94-J-0-2.bmp","tapa:ta","Right","37","1","8","7","P","J","8"
"","","approach-retreat","157","1562998","0.0-157.0","","","1-5","8494","40","1","Testing","Stims/Figures/139-C-20-2.bmp","ta:pa:ka","Down","40","1","9","7","P","J","9"
"","","approach-retreat","158","1573654","0.0-158.0","","","1-5","9143","38","1","Testing","Stims/Figures/128-C-30-3.bmp","na:lala","Up","38","1","10","7","S","J","10"
"","","approach-retreat","159","1582249","0.0-159.0","","","1-5","7063","38","1","Testing","Stims/Figures/19-J-10-4.bmp","na:mala","Down","38","1","11","7","S","J","11"
"","","approach-retreat","160","1596178","0.0-160.0","","","1-5","12401","40","0","Testing","Stims/Figures/87-C-20-4.bmp","malana","Up","38","1","12","7","S","J","12"
"","","approach-retreat","161","1620222","0.0-161.0","","","1-5","22514","39","1","Testing","Stims/Figures/139-J-0-2.bmp","pa:pa:ka","Left","39","1","13","7","P","J","13"
"","","approach-retreat","162","1630374","0.0-162.0","","","1-5","8619","40","0","Testing","Stims/Figures/87-J-10-4.bmp","nama:na","Down","38","1","14","7","S","J","14"
"","","approach-retreat","163","1642332","0.0-163.0","","","1-5","10426","39","1","Testing","Stims/Figures/118-J-0-2.bmp","tapata","Left","39","1","15","7","P","J","15"
"","","approach-retreat","164","1653013","0.0-164.0","","","1-5","9140","37","1","Testing","Stims/Figures/27-C-30-1.bmp","pakata","Left","37","1","16","7","P","J","16"
"","","approach-retreat","165","1660342","0.0-165.0","","","1-5","5793","37","1","Testing","Stims/Figures/7-J-10-4.bmp","ma:lala","Right","37","1","17","7","S","J","17"
"","","approach-retreat","166","1670183","0.0-166.0","","","1-5","8309","40","1","Testing","Stims/Figures/71-J-0-1.bmp","ta:kaka","Up","40","1","18","7","P","J","18"
"","","approach-retreat","167","1676221","0.0-167.0","","","1-5","4484","37","0","Testing","Stims/Figures/7-C-20-4.bmp","na:ma:na","Right","39","1","19","7","S","J","19"
"","","approach-retreat","168","1685409","0.0-168.0","","","1-5","7656","40","1","Testing","Stims/Figures/19-C-20-4.bmp","nalala","Down","40","1","20","7","S","J","20"
"","","approach-retreat","169","1692005","0.0-169.0","","","1-5","5065","38","0","Testing","Stims/Figures/71-C-30-1.bmp","pa:kata","Down","40","1","21","7","P","J","21"
"","","approach-retreat","170","1701834","0.0-170.0","","","1-5","8299","38","1","Testing","Stims/Figures/86-C-30-1.bmp","ta:paka","Up","38","1","22","7","P","J","22"
"","","approach-retreat","171","1708118","0.0-171.0","","","1-5","4754","40","0","Testing","Stims/Figures/128-J-10-3.bmp","mala:na","Down","38","1","23","7","S","J","23"
"","","approach-retreat","172","1715579","0.0-172.0","","","1-5","5930","39","0","Testing","Stims/Figures/27-J-0-1.bmp","pa:ka:ka","Right","37","1","24","7","P","J","24"
"","","approach-retreat","173","1724502","0.0-173.0","","","1-5","7390","38","1","Testing","Stims/Figures/86-J-0-1.bmp","papata","Down","38","2","1","7","P","J","25"
"","","approach-retreat","174","1731556","0.0-174.0","","","1-5","5524","38","0","Testing","Stims/Figures/94-J-0-2.bmp","tapa:ta","Up","40","2","2","7","P","J","26"
"","","approach-retreat","175","1738264","0.0-175.0","","","1-5","5179","38","0","Testing","Stims/Figures/139-J-0-2.bmp","pa:pa:ka","Up","40","2","3","7","P","J","27"
"","","approach-retreat","176","1744569","0.0-176.0","","","1-5","4772","37","1","Testing","Stims/Figures/128-J-10-3.bmp","mala:na","Right","37","2","4","7","S","J","28"
"","","approach-retreat","177","1750654","0.0-177.0","","","1-5","4555","37","0","Testing","Stims/Figures/7-C-20-4.bmp","na:ma:na","Right","39","2","5","7","S","J","29"
"","","approach-retreat","178","1759876","0.0-178.0","","","1-5","7688","38","1","Testing","Stims/Figures/100-J-10-3.bmp","mamala","Down","38","2","6","7","S","J","30"
"","","approach-retreat","179","1770734","0.0-179.0","","","1-5","9328","39","0","Testing","Stims/Figures/19-C-20-4.bmp","nalala","Left","37","2","7","7","S","J","31"
"","","approach-retreat","180","1784019","0.0-180.0","","","1-5","11756","37","1","Testing","Stims/Figures/111-J-10-3.bmp","ma:la:na","Right","37","2","8","7","S","J","32"
"","","approach-retreat","181","1791080","0.0-181.0","","","1-5","5532","38","1","Testing","Stims/Figures/111-C-30-3.bmp","na:mana","Up","38","2","9","7","S","J","33"
"","","approach-retreat","182","1800994","0.0-182.0","","","1-5","8385","37","1","Testing","Stims/Figures/139-C-20-2.bmp","ta:pa:ka","Left","37","2","10","7","P","J","34"
"","","approach-retreat","183","1807399","0.0-183.0","","","1-5","4876","37","0","Testing","Stims/Figures/7-J-10-4.bmp","ma:lala","Left","39","2","11","7","S","J","35"
"","","approach-retreat","184","1814447","0.0-184.0","","","1-5","5522","37","0","Testing","Stims/Figures/27-J-0-1.bmp","pa:ka:ka","Left","39","2","12","7","P","J","36"
"","","approach-retreat","185","1820754","0.0-185.0","","","1-5","4772","39","0","Testing","Stims/Figures/87-J-10-4.bmp","nama:na","Right","37","2","13","7","S","J","37"
"","","approach-retreat","186","1827146","0.0-186.0","","","1-5","4862","38","1","Testing","Stims/Figures/19-J-10-4.bmp","na:mala","Down","38","2","14","7","S","J","38"
"","","approach-retreat","187","1833675","0.0-187.0","","","1-5","4996","39","1","Testing","Stims/Figures/94-C-20-2.bmp","paka:ka","Right","39","2","15","7","P","J","39"
"","","approach-retreat","188","1840464","0.0-188.0","","","1-5","5261","40","0","Testing","Stims/Figures/118-C-20-2.bmp","ta:pa:ta","Up","38","2","16","7","P","J","40"
"","","approach-retreat","189","1847402","0.0-189.0","","","1-5","5419","38","0","Testing","Stims/Figures/86-C-30-1.bmp","ta:paka","Down","40","2","17","7","P","J","41"
"","","approach-retreat","190","1853933","0.0-190.0","","","1-5","5002","38","1","Testing","Stims/Figures/27-C-30-1.bmp","pakata","Up","38","2","18","7","P","J","42"
"","","approach-retreat","191","1861634","0.0-191.0","","","1-5","6168","38","0","Testing","Stims/Figures/128-C-30-3.bmp","na:lala","Down","40","2","19","7","S","J","43"
"","","approach-retreat","192","1867581","0.0-192.0","","","1-5","4417","39","0","Testing","Stims/Figures/118-J-0-2.bmp","tapata","Right","37","2","20","7","P","J","44"
"","","approach-retreat","193","1877490","0.0-193.0","","","1-5","8380","38","0","Testing","Stims/Figures/71-C-30-1.bmp","pa:kata","Down","40","2","21","7","P","J","45"
"","","approach-retreat","194","1887215","0.0-194.0","","","1-5","8214","38","0","Testing","Stims/Figures/71-J-0-1.bmp","ta:kaka","Up","40","2","22","7","P","J","46"
"","","approach-retreat","195","1895294","0.0-195.0","","","1-5","6549","39","0","Testing","Stims/Figures/87-C-20-4.bmp","malana","Left","37","2","23","7","S","J","47"
"","","approach-retreat","196","1905178","0.0-196.0","","","1-5","8352","37","1","Testing","Stims/Figures/100-C-30-3.bmp","mama:la","Left","37","2","24","7","S","J","48"
"","","approach-retreat","197","1911130","0.0-197.0","","","1-5","4421","39","0","Testing","Stims/Figures/128-C-30-3.bmp","na:lala","Left","37","3","1","7","S","J","49"
"","","approach-retreat","198","1916774","0.0-198.0","","","1-5","4113","37","0","Testing","Stims/Figures/27-J-0-1.bmp","pa:ka:ka","Left","39","3","2","7","P","J","50"
"","","approach-retreat","199","1928596","0.0-199.0","","","1-5","10290","40","0","Testing","Stims/Figures/19-C-20-4.bmp","nalala","Up","38","3","3","7","S","J","51"
"","","approach-retreat","200","1934743","0.0-200.0","","","1-5","4616","37","1","Testing","Stims/Figures/128-J-10-3.bmp","mala:na","Right","37","3","4","7","S","J","52"
"","","approach-retreat","201","1941587","0.0-201.0","","","1-5","5314","40","1","Testing","Stims/Figures/27-C-30-1.bmp","pakata","Down","40","3","5","7","P","J","53"
"","","approach-retreat","202","1947599","0.0-202.0","","","1-5","4482","37","1","Testing","Stims/Figures/71-C-30-1.bmp","pa:kata","Left","37","3","6","7","P","J","54"
"","","approach-retreat","203","1954159","0.0-203.0","","","1-5","5027","39","0","Testing","Stims/Figures/87-J-10-4.bmp","nama:na","Right","37","3","7","7","S","J","55"
"","","approach-retreat","204","1960617","0.0-204.0","","","1-5","4929","39","0","Testing","Stims/Figures/139-C-20-2.bmp","ta:pa:ka","Left","37","3","8","7","P","J","56"
"","","approach-retreat","205","1966759","0.0-205.0","","","1-5","4608","40","1","Testing","Stims/Figures/100-C-30-3.bmp","mama:la","Down","40","3","9","7","S","J","57"
"","","approach-retreat","206","1972903","0.0-206.0","","","1-5","4613","40","1","Testing","Stims/Figures/111-C-30-3.bmp","na:mana","Down","40","3","10","7","S","J","58"
"","","approach-retreat","207","1979571","0.0-207.0","","","1-5","5136","38","1","Testing","Stims/Figures/118-C-20-2.bmp","ta:pa:ta","Up","38","3","11","7","P","J","59"
"","","approach-retreat","208","1985678","0.0-208.0","","","1-5","4573","40","0","Testing","Stims/Figures/71-J-0-1.bmp","ta:kaka","Down","38","3","12","7","P","J","60"
"","","approach-retreat","209","1999151","0.0-209.0","","","1-5","11943","40","0","Testing","Stims/Figures/86-C-30-1.bmp","ta:paka","Up","38","3","13","7","P","J","61"
"","","approach-retreat","210","2006270","0.0-210.0","","","1-5","5610","37","1","Testing","Stims/Figures/7-J-10-4.bmp","ma:lala","Right","37","3","14","7","S","J","62"
"","","approach-retreat","211","2017980","0.0-211.0","","","1-5","10181","39","1","Testing","Stims/Figures/100-J-10-3.bmp","mamala","Left","39","3","15","7","S","J","63"
"","","approach-retreat","212","2024499","0.0-212.0","","","1-5","4988","40","1","Testing","Stims/Figures/139-J-0-2.bmp","pa:pa:ka","Up","40","3","16","7","P","J","64"
"","","approach-retreat","213","2030943","0.0-213.0","","","1-5","4915","40","1","Testing","Stims/Figures/94-C-20-2.bmp","paka:ka","Down","40","3","17","7","P","J","65"
"","","approach-retreat","214","2040904","0.0-214.0","","","1-5","8425","40","1","Testing","Stims/Figures/111-J-10-3.bmp","ma:la:na","Up","40","3","18","7","S","J","66"
"","","approach-retreat","215","2046608","0.0-215.0","","","1-5","4175","39","0","Testing","Stims/Figures/118-J-0-2.bmp","tapata","Right","37","3","19","7","P","J","67"
"","","approach-retreat","216","2054233","0.0-216.0","","","1-5","6095","39","0","Testing","Stims/Figures/19-J-10-4.bmp","na:mala","Right","37","3","20","7","S","J","68"
"","","approach-retreat","217","2060606","0.0-217.0","","","1-5","4843","37","1","Testing","Stims/Figures/87-C-20-4.bmp","malana","Left","37","3","21","7","S","J","69"
"","","approach-retreat","218","2067038","0.0-218.0","","","1-5","4900","37","1","Testing","Stims/Figures/86-J-0-1.bmp","papata","Right","37","3","22","7","P","J","70"
"","","approach-retreat","219","2076046","0.0-219.0","","","1-5","7479","40","0","Testing","Stims/Figures/94-J-0-2.bmp","tapa:ta","Down","38","3","23","7","P","J","71"
"","","approach-retreat","220","2084165","0.0-220.0","","","1-5","6588","40","0","Testing","Stims/Figures/7-C-20-4.bmp","na:ma:na","Up","38","3","24","7","S","J","72"
"","","approach-retreat","221","2092452","0.0-221.0","","","1-5","6755","38","1","Testing","Stims/Figures/111-J-10-3.bmp","ma:la:na","Down","38","4","1","7","S","J","73"
"","","approach-retreat","222","2100320","0.0-222.0","","","1-5","6336","39","1","Testing","Stims/Figures/71-J-0-1.bmp","ta:kaka","Left","39","4","2","7","P","J","74"
"","","approach-retreat","223","2106038","0.0-223.0","","","1-5","4187","37","1","Testing","Stims/Figures/100-C-30-3.bmp","mama:la","Left","37","4","3","7","S","J","75"
"","","approach-retreat","224","2112027","0.0-224.0","","","1-5","4461","38","1","Testing","Stims/Figures/87-C-20-4.bmp","malana","Up","38","4","4","7","S","J","76"
"","","approach-retreat","225","2120171","0.0-225.0","","","1-5","6608","37","0","Testing","Stims/Figures/19-C-20-4.bmp","nalala","Right","39","4","5","7","S","J","77"
"","","approach-retreat","226","2126840","0.0-226.0","","","1-5","5156","40","1","Testing","Stims/Figures/86-C-30-1.bmp","ta:paka","Down","40","4","6","7","P","J","78"
"","","approach-retreat","227","2133071","0.0-227.0","","","1-5","4701","40","1","Testing","Stims/Figures/27-J-0-1.bmp","pa:ka:ka","Up","40","4","7","7","P","J","79"
"","","approach-retreat","228","2139618","0.0-228.0","","","1-5","5016","40","1","Testing","Stims/Figures/94-C-20-2.bmp","paka:ka","Down","40","4","8","7","P","J","80"
"","","approach-retreat","229","2147521","0.0-229.0","","","1-5","6372","37","1","Testing","Stims/Figures/86-J-0-1.bmp","papata","Right","37","4","9","7","P","J","81"
"","","approach-retreat","230","2154011","0.0-230.0","","","1-5","4961","37","0","Testing","Stims/Figures/139-C-20-2.bmp","ta:pa:ka","Right","39","4","10","7","P","J","82"
"","","approach-retreat","231","2160231","0.0-231.0","","","1-5","4691","40","1","Testing","Stims/Figures/118-C-20-2.bmp","ta:pa:ta","Down","40","4","11","7","P","J","83"
"","","approach-retreat","232","2167448","0.0-232.0","","","1-5","5684","38","1","Testing","Stims/Figures/118-J-0-2.bmp","tapata","Down","38","4","12","7","P","J","84"
"","","approach-retreat","233","2176354","0.0-233.0","","","1-5","7375","37","0","Testing","Stims/Figures/128-J-10-3.bmp","mala:na","Left","39","4","13","7","S","J","85"
"","","approach-retreat","234","2182815","0.0-234.0","","","1-5","4939","37","0","Testing","Stims/Figures/100-J-10-3.bmp","mamala","Left","39","4","14","7","S","J","86"
"","","approach-retreat","235","2189094","0.0-235.0","","","1-5","4748","40","1","Testing","Stims/Figures/7-J-10-4.bmp","ma:lala","Up","40","4","15","7","S","J","87"
"","","approach-retreat","236","2195229","0.0-236.0","","","1-5","4604","39","1","Testing","Stims/Figures/71-C-30-1.bmp","pa:kata","Right","39","4","16","7","P","J","88"
"","","approach-retreat","237","2201971","0.0-237.0","","","1-5","5215","40","0","Testing","Stims/Figures/27-C-30-1.bmp","pakata","Up","38","4","17","7","P","J","89"
"","","approach-retreat","238","2209242","0.0-238.0","","","1-5","5741","37","0","Testing","Stims/Figures/128-C-30-3.bmp","na:lala","Right","39","4","18","7","S","J","90"
"","","approach-retreat","239","2220742","0.0-239.0","","","1-5","9969","40","0","Testing","Stims/Figures/94-J-0-2.bmp","tapa:ta","Down","38","4","19","7","P","J","91"
"","","approach-retreat","240","2226827","0.0-240.0","","","1-5","4554","39","0","Testing","Stims/Figures/111-C-30-3.bmp","na:mana","Left","37","4","20","7","S","J","92"
"","","approach-retreat","241","2234145","0.0-241.0","","","1-5","5785","40","0","Testing","Stims/Figures/7-C-20-4.bmp","na:ma:na","Up","38","4","21","7","S","J","93"
"","","approach-retreat","242","2241437","0.0-242.0","","","1-5","5750","39","1","Testing","Stims/Figures/87-J-10-4.bmp","nama:na","Left","39","4","22","7","S","J","94"
"","","approach-retreat","243","2247864","0.0-243.0","","","1-5","4898","40","1","Testing","Stims/Figures/19-J-10-4.bmp","na:mala","Up","40","4","23","7","S","J","95"
"","","approach-retreat","244","2255608","0.0-244.0","","","1-5","6212","37","1","Testing","Stims/Figures/139-J-0-2.bmp","pa:pa:ka","Right","37","4","24","7","P","J","96"
"36115","","survey-text","245","2291742","0.0-245.0","","{""Q0"":""1060/2018""}","","","","","","","","","","","","","","",""
