"rt","key_press","trial_type","trial_index","time_elapsed","internal_node_id","view_history","responses","Id","Rt","ResKeyCode","ResCorr","TrialType2","Image","Label","Location","CorrectResponse","Block","BlockTrial","Condition","LabelType","Subcondition","trialNum"
"111652","32","text","0","111661","0.0-0.0-0.0","","","","","","","","","","","","","","","","",""
"106259","","instructions","1","217927","0.0-1.0","[{""page_index"":0,""viewing_time"":106255}]","","","","","","","","","","","","","","","",""
"62953","","survey-multi-choice","2","280929","0.0-2.0","","{""Q0"":""Da"",""Q1"":""Da"",""Q2"":""Da"",""Q3"":""Da"",""Q4"":""Da"",""Q5"":""Da""}","","","","","","","","","","","","","","",""
"","","bio","3","292549","0.0-3.0","","{""age"":""19"",""gender"":""f"",""specify"":""""}","","","","","","","","","","","","","","",""
"","","approach-retreat","4","309804","0.0-4.0","","","2-1","15736","40","1","Training","Stims/Figures/87-J-10-4.bmp","takaka","Up","40","1","1","4","P","J","1"
"","","approach-retreat","5","321679","0.0-5.0","","","2-1","10358","38","1","Training","Stims/Figures/71-C-30-1.bmp","nala:la","Up","38","1","2","4","S","J","2"
"","","approach-retreat","6","329003","0.0-6.0","","","2-1","5809","37","0","Training","Stims/Figures/139-J-0-2.bmp","ta:pa:ka","Left","39","1","3","4","P","J","3"
"","","approach-retreat","7","335891","0.0-7.0","","","2-1","5372","40","0","Training","Stims/Figures/7-J-10-4.bmp","pa:pa:ta","Down","38","1","4","4","P","J","4"
"","","approach-retreat","8","342484","0.0-8.0","","","2-1","5065","37","0","Training","Stims/Figures/128-C-30-3.bmp","ma:la:na","Right","39","1","5","4","S","J","5"
"","","approach-retreat","9","349391","0.0-9.0","","","2-1","5385","38","0","Training","Stims/Figures/27-C-30-1.bmp","na:ma:na","Down","40","1","6","4","S","J","6"
"","","approach-retreat","10","355254","0.0-10.0","","","2-1","4349","37","1","Training","Stims/Figures/128-J-10-3.bmp","pa:ka:ka","Right","37","1","7","4","P","J","7"
"","","approach-retreat","11","361239","0.0-11.0","","","2-1","4476","37","0","Training","Stims/Figures/84-J-0-2.bmp","taka:ka","Left","39","1","8","4","P","J","8"
"","","approach-retreat","12","367179","0.0-12.0","","","2-1","4422","38","0","Training","Stims/Figures/111-C-30-3.bmp","ma:ma:na","Down","40","1","9","4","S","J","9"
"","","approach-retreat","13","373153","0.0-13.0","","","2-1","4453","40","0","Training","Stims/Figures/7-C-20-4.bmp","ma:ma:la","Up","38","1","10","4","S","J","10"
"","","approach-retreat","14","379593","0.0-14.0","","","2-1","4914","37","1","Training","Stims/Figures/139-C-20-2.bmp","namana","Left","37","1","11","4","S","J","11"
"","","approach-retreat","15","385252","0.0-15.0","","","2-1","4144","40","1","Training","Stims/Figures/27-J-0-1.bmp","tapata","Up","40","1","12","4","P","J","12"
"","","approach-retreat","16","391245","0.0-16.0","","","2-1","4473","39","1","Training","Stims/Figures/84-C-20-2.bmp","na:lala","Right","39","1","13","4","S","J","13"
"","","approach-retreat","17","398418","0.0-17.0","","","2-1","5653","40","0","Training","Stims/Figures/71-J-0-1.bmp","ta:kata","Down","38","1","14","4","P","J","14"
"","","approach-retreat","18","404330","0.0-18.0","","","2-1","4395","39","1","Training","Stims/Figures/111-J-10-3.bmp","paka:ta","Left","39","1","15","4","P","J","15"
"","","approach-retreat","19","410355","0.0-19.0","","","2-1","4516","39","1","Training","Stims/Figures/87-C-20-4.bmp","nama:na","Right","39","1","16","4","S","J","16"
"","","approach-retreat","20","416186","0.0-20.0","","","2-1","4318","40","1","Training","Stims/Figures/128-J-10-3.bmp","pa:ka:ka","Up","40","2","1","4","P","J","17"
"","","approach-retreat","21","421884","0.0-21.0","","","2-1","4188","37","1","Training","Stims/Figures/111-J-10-3.bmp","paka:ta","Right","37","2","2","4","P","J","18"
"","","approach-retreat","22","427718","0.0-22.0","","","2-1","4328","40","1","Training","Stims/Figures/139-C-20-2.bmp","namana","Down","40","2","3","4","S","J","19"
"","","approach-retreat","23","434207","0.0-23.0","","","2-1","4979","38","1","Training","Stims/Figures/139-J-0-2.bmp","ta:pa:ka","Down","38","2","4","4","P","J","20"
"","","approach-retreat","24","440740","0.0-24.0","","","2-1","5006","38","1","Training","Stims/Figures/27-C-30-1.bmp","na:ma:na","Up","38","2","5","4","S","J","21"
"","","approach-retreat","25","446502","0.0-25.0","","","2-1","4256","39","1","Training","Stims/Figures/7-C-20-4.bmp","ma:ma:la","Right","39","2","6","4","S","J","22"
"","","approach-retreat","26","452238","0.0-26.0","","","2-1","4219","37","1","Training","Stims/Figures/111-C-30-3.bmp","ma:ma:na","Left","37","2","7","4","S","J","23"
"","","approach-retreat","27","458303","0.0-27.0","","","2-1","4558","40","1","Training","Stims/Figures/84-C-20-2.bmp","na:lala","Down","40","2","8","4","S","J","24"
"","","approach-retreat","28","464469","0.0-28.0","","","2-1","4650","39","1","Training","Stims/Figures/87-J-10-4.bmp","takaka","Left","39","2","9","4","P","J","25"
"","","approach-retreat","29","470585","0.0-29.0","","","2-1","4604","38","1","Training","Stims/Figures/71-J-0-1.bmp","ta:kata","Down","38","2","10","4","P","J","26"
"","","approach-retreat","30","476294","0.0-30.0","","","2-1","4202","40","1","Training","Stims/Figures/84-J-0-2.bmp","taka:ka","Up","40","2","11","4","P","J","27"
"","","approach-retreat","31","481964","0.0-31.0","","","2-1","4148","39","1","Training","Stims/Figures/87-C-20-4.bmp","nama:na","Right","39","2","12","4","S","J","28"
"","","approach-retreat","32","488067","0.0-32.0","","","2-1","4597","37","1","Training","Stims/Figures/71-C-30-1.bmp","nala:la","Left","37","2","13","4","S","J","29"
"","","approach-retreat","33","493747","0.0-33.0","","","2-1","4158","37","1","Training","Stims/Figures/128-C-30-3.bmp","ma:la:na","Left","37","2","14","4","S","J","30"
"","","approach-retreat","34","499623","0.0-34.0","","","2-1","4370","37","1","Training","Stims/Figures/7-J-10-4.bmp","pa:pa:ta","Right","37","2","15","4","P","J","31"
"","","approach-retreat","35","505439","0.0-35.0","","","2-1","4305","40","1","Training","Stims/Figures/27-J-0-1.bmp","tapata","Up","40","2","16","4","P","J","32"
"","","approach-retreat","36","511901","0.0-36.0","","","2-1","4946","39","1","Training","Stims/Figures/128-J-10-3.bmp","pa:ka:ka","Left","39","3","1","4","P","J","33"
"","","approach-retreat","37","517640","0.0-37.0","","","2-1","4214","38","1","Training","Stims/Figures/87-C-20-4.bmp","nama:na","Up","38","3","2","4","S","J","34"
"","","approach-retreat","38","523501","0.0-38.0","","","2-1","4351","39","1","Training","Stims/Figures/71-C-30-1.bmp","nala:la","Right","39","3","3","4","S","J","35"
"","","approach-retreat","39","529253","0.0-39.0","","","2-1","4241","38","1","Training","Stims/Figures/139-J-0-2.bmp","ta:pa:ka","Down","38","3","4","4","P","J","36"
"","","approach-retreat","40","534870","0.0-40.0","","","2-1","4107","37","1","Training","Stims/Figures/111-J-10-3.bmp","paka:ta","Right","37","3","5","4","P","J","37"
"","","approach-retreat","41","540508","0.0-41.0","","","2-1","4131","38","1","Training","Stims/Figures/84-J-0-2.bmp","taka:ka","Down","38","3","6","4","P","J","38"
"","","approach-retreat","42","546211","0.0-42.0","","","2-1","4198","38","1","Training","Stims/Figures/27-C-30-1.bmp","na:ma:na","Up","38","3","7","4","S","J","39"
"","","approach-retreat","43","551865","0.0-43.0","","","2-1","4136","40","1","Training","Stims/Figures/87-J-10-4.bmp","takaka","Up","40","3","8","4","P","J","40"
"","","approach-retreat","44","557666","0.0-44.0","","","2-1","4293","37","1","Training","Stims/Figures/139-C-20-2.bmp","namana","Left","37","3","9","4","S","J","41"
"","","approach-retreat","45","563233","0.0-45.0","","","2-1","4056","39","1","Training","Stims/Figures/7-J-10-4.bmp","pa:pa:ta","Left","39","3","10","4","P","J","42"
"","","approach-retreat","46","569861","0.0-46.0","","","2-1","5122","38","1","Training","Stims/Figures/7-C-20-4.bmp","ma:ma:la","Up","38","3","11","4","S","J","43"
"","","approach-retreat","47","575366","0.0-47.0","","","2-1","3999","37","1","Training","Stims/Figures/27-J-0-1.bmp","tapata","Right","37","3","12","4","P","J","44"
"","","approach-retreat","48","580991","0.0-48.0","","","2-1","4103","39","1","Training","Stims/Figures/71-J-0-1.bmp","ta:kata","Left","39","3","13","4","P","J","45"
"","","approach-retreat","49","586733","0.0-49.0","","","2-1","4238","40","1","Training","Stims/Figures/84-C-20-2.bmp","na:lala","Down","40","3","14","4","S","J","46"
"","","approach-retreat","50","592511","0.0-50.0","","","2-1","4271","39","1","Training","Stims/Figures/111-C-30-3.bmp","ma:ma:na","Right","39","3","15","4","S","J","47"
"","","approach-retreat","51","598241","0.0-51.0","","","2-1","4213","40","1","Training","Stims/Figures/128-C-30-3.bmp","ma:la:na","Down","40","3","16","4","S","J","48"
"","","approach-retreat","52","603807","0.0-52.0","","","2-1","4049","37","1","Training","Stims/Figures/87-C-20-4.bmp","nama:na","Left","37","4","1","4","S","J","49"
"","","approach-retreat","53","609388","0.0-53.0","","","2-1","4076","37","1","Training","Stims/Figures/128-J-10-3.bmp","pa:ka:ka","Right","37","4","2","4","P","J","50"
"","","approach-retreat","54","614951","0.0-54.0","","","2-1","4055","39","1","Training","Stims/Figures/87-J-10-4.bmp","takaka","Left","39","4","3","4","P","J","51"
"","","approach-retreat","55","620812","0.0-55.0","","","2-1","4349","39","1","Training","Stims/Figures/111-C-30-3.bmp","ma:ma:na","Right","39","4","4","4","S","J","52"
"","","approach-retreat","56","626522","0.0-56.0","","","2-1","4192","38","1","Training","Stims/Figures/7-J-10-4.bmp","pa:pa:ta","Down","38","4","5","4","P","J","53"
"","","approach-retreat","57","632231","0.0-57.0","","","2-1","4202","37","0","Training","Stims/Figures/27-C-30-1.bmp","na:ma:na","Right","39","4","6","4","S","J","54"
"","","approach-retreat","58","638966","0.0-58.0","","","2-1","5214","38","1","Training","Stims/Figures/71-C-30-1.bmp","nala:la","Up","38","4","7","4","S","J","55"
"","","approach-retreat","59","644565","0.0-59.0","","","2-1","4091","39","1","Training","Stims/Figures/128-C-30-3.bmp","ma:la:na","Right","39","4","8","4","S","J","56"
"","","approach-retreat","60","650405","0.0-60.0","","","2-1","4325","38","1","Training","Stims/Figures/111-J-10-3.bmp","paka:ta","Down","38","4","9","4","P","J","57"
"","","approach-retreat","61","656017","0.0-61.0","","","2-1","4107","39","1","Training","Stims/Figures/71-J-0-1.bmp","ta:kata","Left","39","4","10","4","P","J","58"
"","","approach-retreat","62","661680","0.0-62.0","","","2-1","4154","38","1","Training","Stims/Figures/7-C-20-4.bmp","ma:ma:la","Up","38","4","11","4","S","J","59"
"","","approach-retreat","63","667440","0.0-63.0","","","2-1","4249","40","1","Training","Stims/Figures/84-C-20-2.bmp","na:lala","Down","40","4","12","4","S","J","60"
"","","approach-retreat","64","673160","0.0-64.0","","","2-1","4205","40","1","Training","Stims/Figures/139-J-0-2.bmp","ta:pa:ka","Up","40","4","13","4","P","J","61"
"","","approach-retreat","65","679286","0.0-65.0","","","2-1","4612","40","1","Training","Stims/Figures/139-C-20-2.bmp","namana","Down","40","4","14","4","S","J","62"
"","","approach-retreat","66","685092","0.0-66.0","","","2-1","4301","39","1","Training","Stims/Figures/84-J-0-2.bmp","taka:ka","Left","39","4","15","4","P","J","63"
"","","approach-retreat","67","690907","0.0-67.0","","","2-1","4310","40","1","Training","Stims/Figures/27-J-0-1.bmp","tapata","Up","40","4","16","4","P","J","64"
"","","approach-retreat","68","696529","0.0-68.0","","","2-1","4117","38","1","Training","Stims/Figures/84-J-0-2.bmp","taka:ka","Down","38","5","1","4","P","J","65"
"","","approach-retreat","69","702193","0.0-69.0","","","2-1","4155","39","1","Training","Stims/Figures/87-C-20-4.bmp","nama:na","Right","39","5","2","4","S","J","66"
"","","approach-retreat","70","708186","0.0-70.0","","","2-1","4486","40","1","Training","Stims/Figures/7-J-10-4.bmp","pa:pa:ta","Up","40","5","3","4","P","J","67"
"","","approach-retreat","71","713826","0.0-71.0","","","2-1","4123","39","1","Training","Stims/Figures/27-C-30-1.bmp","na:ma:na","Right","39","5","4","4","S","J","68"
"","","approach-retreat","72","719494","0.0-72.0","","","2-1","4159","38","1","Training","Stims/Figures/27-J-0-1.bmp","tapata","Down","38","5","5","4","P","J","69"
"","","approach-retreat","73","725133","0.0-73.0","","","2-1","4126","39","1","Training","Stims/Figures/128-J-10-3.bmp","pa:ka:ka","Left","39","5","6","4","P","J","70"
"","","approach-retreat","74","730780","0.0-74.0","","","2-1","4143","40","1","Training","Stims/Figures/139-C-20-2.bmp","namana","Down","40","5","7","4","S","J","71"
"","","approach-retreat","75","736347","0.0-75.0","","","2-1","4062","37","1","Training","Stims/Figures/139-J-0-2.bmp","ta:pa:ka","Right","37","5","8","4","P","J","72"
"","","approach-retreat","76","741924","0.0-76.0","","","2-1","4070","39","1","Training","Stims/Figures/111-J-10-3.bmp","paka:ta","Left","39","5","9","4","P","J","73"
"","","approach-retreat","77","747813","0.0-77.0","","","2-1","4381","38","1","Training","Stims/Figures/7-C-20-4.bmp","ma:ma:la","Up","38","5","10","4","S","J","74"
"","","approach-retreat","78","753404","0.0-78.0","","","2-1","4083","38","1","Training","Stims/Figures/71-J-0-1.bmp","ta:kata","Down","38","5","11","4","P","J","75"
"","","approach-retreat","79","758939","0.0-79.0","","","2-1","4030","37","1","Training","Stims/Figures/84-C-20-2.bmp","na:lala","Left","37","5","12","4","S","J","76"
"","","approach-retreat","80","764731","0.0-80.0","","","2-1","4279","38","1","Training","Stims/Figures/111-C-30-3.bmp","ma:ma:na","Up","38","5","13","4","S","J","77"
"","","approach-retreat","81","770491","0.0-81.0","","","2-1","4250","37","1","Training","Stims/Figures/128-C-30-3.bmp","ma:la:na","Left","37","5","14","4","S","J","78"
"","","approach-retreat","82","776140","0.0-82.0","","","2-1","4146","39","0","Training","Stims/Figures/87-J-10-4.bmp","takaka","Right","37","5","15","4","P","J","79"
"","","approach-retreat","83","781758","0.0-83.0","","","2-1","4112","38","1","Training","Stims/Figures/71-C-30-1.bmp","nala:la","Up","38","5","16","4","S","J","80"
"","","approach-retreat","84","787303","0.0-84.0","","","2-1","4034","38","1","Training","Stims/Figures/139-C-20-2.bmp","namana","Up","38","6","1","4","S","J","81"
"","","approach-retreat","85","792872","0.0-85.0","","","2-1","4062","39","1","Training","Stims/Figures/84-C-20-2.bmp","na:lala","Right","39","6","2","4","S","J","82"
"","","approach-retreat","86","798513","0.0-86.0","","","2-1","4136","40","1","Training","Stims/Figures/27-J-0-1.bmp","tapata","Up","40","6","3","4","P","J","83"
"","","approach-retreat","87","804516","0.0-87.0","","","2-1","4497","39","1","Training","Stims/Figures/111-C-30-3.bmp","ma:ma:na","Right","39","6","4","4","S","J","84"
"","","approach-retreat","88","810054","0.0-88.0","","","2-1","4024","40","1","Training","Stims/Figures/128-J-10-3.bmp","pa:ka:ka","Up","40","6","5","4","P","J","85"
"","","approach-retreat","89","815706","0.0-89.0","","","2-1","4144","38","1","Training","Stims/Figures/87-J-10-4.bmp","takaka","Down","38","6","6","4","P","J","86"
"","","approach-retreat","90","821430","0.0-90.0","","","2-1","4221","37","1","Training","Stims/Figures/128-C-30-3.bmp","ma:la:na","Left","37","6","7","4","S","J","87"
"","","approach-retreat","91","826896","0.0-91.0","","","2-1","3960","37","1","Training","Stims/Figures/71-C-30-1.bmp","nala:la","Left","37","6","8","4","S","J","88"
"","","approach-retreat","92","832431","0.0-92.0","","","2-1","4030","39","1","Training","Stims/Figures/87-C-20-4.bmp","nama:na","Right","39","6","9","4","S","J","89"
"","","approach-retreat","93","837959","0.0-93.0","","","2-1","4021","37","1","Training","Stims/Figures/111-J-10-3.bmp","paka:ta","Right","37","6","10","4","P","J","90"
"","","approach-retreat","94","843547","0.0-94.0","","","2-1","4084","40","1","Training","Stims/Figures/139-J-0-2.bmp","ta:pa:ka","Up","40","6","11","4","P","J","91"
"","","approach-retreat","95","849268","0.0-95.0","","","2-1","4216","38","1","Training","Stims/Figures/71-J-0-1.bmp","ta:kata","Down","38","6","12","4","P","J","92"
"","","approach-retreat","96","854849","0.0-96.0","","","2-1","4074","39","1","Training","Stims/Figures/7-J-10-4.bmp","pa:pa:ta","Left","39","6","13","4","P","J","93"
"","","approach-retreat","97","860406","0.0-97.0","","","2-1","4037","39","1","Training","Stims/Figures/84-J-0-2.bmp","taka:ka","Left","39","6","14","4","P","J","94"
"","","approach-retreat","98","866612","0.0-98.0","","","2-1","4688","40","1","Training","Stims/Figures/27-C-30-1.bmp","na:ma:na","Down","40","6","15","4","S","J","95"
"","","approach-retreat","99","872200","0.0-99.0","","","2-1","4080","40","1","Training","Stims/Figures/7-C-20-4.bmp","ma:ma:la","Down","40","6","16","4","S","J","96"
"","","approach-retreat","100","877746","0.0-100.0","","","2-1","4038","40","1","Training","Stims/Figures/87-C-20-4.bmp","nama:na","Down","40","7","1","4","S","J","97"
"","","approach-retreat","101","883576","0.0-101.0","","","2-1","4324","38","1","Training","Stims/Figures/128-C-30-3.bmp","ma:la:na","Up","38","7","2","4","S","J","98"
"","","approach-retreat","102","889125","0.0-102.0","","","2-1","4040","37","1","Training","Stims/Figures/139-C-20-2.bmp","namana","Left","37","7","3","4","S","J","99"
"","","approach-retreat","103","894786","0.0-103.0","","","2-1","4155","40","1","Training","Stims/Figures/27-C-30-1.bmp","na:ma:na","Down","40","7","4","4","S","J","100"
"","","approach-retreat","104","900263","0.0-104.0","","","2-1","3971","39","1","Training","Stims/Figures/84-J-0-2.bmp","taka:ka","Left","39","7","5","4","P","J","101"
"","","approach-retreat","105","905927","0.0-105.0","","","2-1","4160","38","1","Training","Stims/Figures/111-J-10-3.bmp","paka:ta","Down","38","7","6","4","P","J","102"
"","","approach-retreat","106","911557","0.0-106.0","","","2-1","4124","39","1","Training","Stims/Figures/7-C-20-4.bmp","ma:ma:la","Right","39","7","7","4","S","J","103"
"","","approach-retreat","107","917224","0.0-107.0","","","2-1","4153","38","1","Training","Stims/Figures/111-C-30-3.bmp","ma:ma:na","Up","38","7","8","4","S","J","104"
"","","approach-retreat","108","922763","0.0-108.0","","","2-1","4034","40","1","Training","Stims/Figures/27-J-0-1.bmp","tapata","Up","40","7","9","4","P","J","105"
"","","approach-retreat","109","928238","0.0-109.0","","","2-1","3969","39","1","Training","Stims/Figures/128-J-10-3.bmp","pa:ka:ka","Left","39","7","10","4","P","J","106"
"","","approach-retreat","110","933787","0.0-110.0","","","2-1","4042","37","1","Training","Stims/Figures/71-J-0-1.bmp","ta:kata","Right","37","7","11","4","P","J","107"
"","","approach-retreat","111","939294","0.0-111.0","","","2-1","4002","37","1","Training","Stims/Figures/139-J-0-2.bmp","ta:pa:ka","Right","37","7","12","4","P","J","108"
"","","approach-retreat","112","944812","0.0-112.0","","","2-1","4013","39","1","Training","Stims/Figures/7-J-10-4.bmp","pa:pa:ta","Left","39","7","13","4","P","J","109"
"","","approach-retreat","113","950398","0.0-113.0","","","2-1","4081","38","1","Training","Stims/Figures/71-C-30-1.bmp","nala:la","Up","38","7","14","4","S","J","110"
"","","approach-retreat","114","955973","0.0-114.0","","","2-1","4070","40","1","Training","Stims/Figures/84-C-20-2.bmp","na:lala","Down","40","7","15","4","S","J","111"
"","","approach-retreat","115","961462","0.0-115.0","","","2-1","3983","39","0","Training","Stims/Figures/87-J-10-4.bmp","takaka","Right","37","7","16","4","P","J","112"
"","","approach-retreat","116","966976","0.0-116.0","","","2-1","4007","37","1","Training","Stims/Figures/27-C-30-1.bmp","na:ma:na","Left","37","8","1","4","S","J","113"
"","","approach-retreat","117","972477","0.0-117.0","","","2-1","3996","38","1","Training","Stims/Figures/128-C-30-3.bmp","ma:la:na","Up","38","8","2","4","S","J","114"
"","","approach-retreat","118","977983","0.0-118.0","","","2-1","3992","37","1","Training","Stims/Figures/7-J-10-4.bmp","pa:pa:ta","Right","37","8","3","4","P","J","115"
"","","approach-retreat","119","983471","0.0-119.0","","","2-1","3982","37","1","Training","Stims/Figures/111-J-10-3.bmp","paka:ta","Right","37","8","4","4","P","J","116"
"","","approach-retreat","120","989017","0.0-120.0","","","2-1","4040","38","1","Training","Stims/Figures/27-J-0-1.bmp","tapata","Down","38","8","5","4","P","J","117"
"","","approach-retreat","121","994613","0.0-121.0","","","2-1","4079","40","1","Training","Stims/Figures/87-C-20-4.bmp","nama:na","Down","40","8","6","4","S","J","118"
"","","approach-retreat","122","1000164","0.0-122.0","","","2-1","4043","40","1","Training","Stims/Figures/87-J-10-4.bmp","takaka","Up","40","8","7","4","P","J","119"
"","","approach-retreat","123","1005678","0.0-123.0","","","2-1","4009","40","1","Training","Stims/Figures/71-J-0-1.bmp","ta:kata","Up","40","8","8","4","P","J","120"
"","","approach-retreat","124","1011755","0.0-124.0","","","2-1","4572","39","1","Training","Stims/Figures/139-C-20-2.bmp","namana","Right","39","8","9","4","S","J","121"
"","","approach-retreat","125","1017645","0.0-125.0","","","2-1","4384","37","1","Training","Stims/Figures/71-C-30-1.bmp","nala:la","Left","37","8","10","4","S","J","122"
"","","approach-retreat","126","1023206","0.0-126.0","","","2-1","4058","39","1","Training","Stims/Figures/84-J-0-2.bmp","taka:ka","Left","39","8","11","4","P","J","123"
"","","approach-retreat","127","1028902","0.0-127.0","","","2-1","4190","40","1","Training","Stims/Figures/111-C-30-3.bmp","ma:ma:na","Down","40","8","12","4","S","J","124"
"","","approach-retreat","128","1034619","0.0-128.0","","","2-1","4211","39","1","Training","Stims/Figures/139-J-0-2.bmp","ta:pa:ka","Left","39","8","13","4","P","J","125"
"","","approach-retreat","129","1040200","0.0-129.0","","","2-1","4077","38","1","Training","Stims/Figures/7-C-20-4.bmp","ma:ma:la","Up","38","8","14","4","S","J","126"
"","","approach-retreat","130","1046125","0.0-130.0","","","2-1","4420","39","1","Training","Stims/Figures/84-C-20-2.bmp","na:lala","Right","39","8","15","4","S","J","127"
"","","approach-retreat","131","1051745","0.0-131.0","","","2-1","4113","38","1","Training","Stims/Figures/128-J-10-3.bmp","pa:ka:ka","Down","38","8","16","4","P","J","128"
"","","approach-retreat","132","1057495","0.0-132.0","","","2-1","4243","38","1","Training","Stims/Figures/27-C-30-1.bmp","na:ma:na","Up","38","9","1","4","S","J","129"
"","","approach-retreat","133","1063037","0.0-133.0","","","2-1","4035","39","1","Training","Stims/Figures/7-C-20-4.bmp","ma:ma:la","Right","39","9","2","4","S","J","130"
"","","approach-retreat","134","1069377","0.0-134.0","","","2-1","4836","38","1","Training","Stims/Figures/128-J-10-3.bmp","pa:ka:ka","Down","38","9","3","4","P","J","131"
"","","approach-retreat","135","1075012","0.0-135.0","","","2-1","4127","40","1","Training","Stims/Figures/139-C-20-2.bmp","namana","Down","40","9","4","4","S","J","132"
"","","approach-retreat","136","1080555","0.0-136.0","","","2-1","4038","40","1","Training","Stims/Figures/84-J-0-2.bmp","taka:ka","Up","40","9","5","4","P","J","133"
"","","approach-retreat","137","1086139","0.0-137.0","","","2-1","4079","38","1","Training","Stims/Figures/7-J-10-4.bmp","pa:pa:ta","Down","38","9","6","4","P","J","134"
"","","approach-retreat","138","1091956","0.0-138.0","","","2-1","4312","38","1","Training","Stims/Figures/128-C-30-3.bmp","ma:la:na","Up","38","9","7","4","S","J","135"
"","","approach-retreat","139","1097446","0.0-139.0","","","2-1","3978","40","1","Training","Stims/Figures/87-J-10-4.bmp","takaka","Up","40","9","8","4","P","J","136"
"","","approach-retreat","140","1103190","0.0-140.0","","","2-1","4238","37","1","Training","Stims/Figures/71-C-30-1.bmp","nala:la","Left","37","9","9","4","S","J","137"
"","","approach-retreat","141","1109247","0.0-141.0","","","2-1","4552","40","1","Training","Stims/Figures/111-C-30-3.bmp","ma:ma:na","Down","40","9","10","4","S","J","138"
"","","approach-retreat","142","1115045","0.0-142.0","","","2-1","4292","39","1","Training","Stims/Figures/87-C-20-4.bmp","nama:na","Right","39","9","11","4","S","J","139"
"","","approach-retreat","143","1120733","0.0-143.0","","","2-1","4182","39","1","Training","Stims/Figures/139-J-0-2.bmp","ta:pa:ka","Left","39","9","12","4","P","J","140"
"","","approach-retreat","144","1126784","0.0-144.0","","","2-1","4543","39","1","Training","Stims/Figures/84-C-20-2.bmp","na:lala","Right","39","9","13","4","S","J","141"
"","","approach-retreat","145","1132280","0.0-145.0","","","2-1","3989","39","1","Training","Stims/Figures/27-J-0-1.bmp","tapata","Left","39","9","14","4","P","J","142"
"","","approach-retreat","146","1137784","0.0-146.0","","","2-1","3999","39","1","Training","Stims/Figures/111-J-10-3.bmp","paka:ta","Left","39","9","15","4","P","J","143"
"","","approach-retreat","147","1143286","0.0-147.0","","","2-1","3995","37","1","Training","Stims/Figures/71-J-0-1.bmp","ta:kata","Right","37","9","16","4","P","J","144"
"11189","","instructions","148","1154475","0.0-148.0","[{""page_index"":0,""viewing_time"":11189}]","","","","","","","","","","","","","","","",""
"","","approach-retreat","149","1160557","0.0-149.0","","","2-1","4573","39","1","Testing","Stims/Figures/7-J-10-4.bmp","pa:pa:ta","Left","39","1","1","4","P","J","1"
"","","approach-retreat","150","1166405","0.0-150.0","","","2-1","4341","37","1","Testing","Stims/Figures/94-C-20-2.bmp","ma:lala","Left","37","1","2","4","S","J","2"
"","","approach-retreat","151","1172225","0.0-151.0","","","2-1","4312","40","1","Testing","Stims/Figures/144-J-10-3.bmp","pa:pata","Up","40","1","3","4","P","J","3"
"","","approach-retreat","152","1177942","0.0-152.0","","","2-1","4211","40","1","Testing","Stims/Figures/94-J-0-2.bmp","takata","Up","40","1","4","4","P","J","4"
"","","approach-retreat","153","1183811","0.0-153.0","","","2-1","4364","38","1","Testing","Stims/Figures/111-J-10-3.bmp","paka:ta","Down","38","1","5","4","P","J","5"
"","","approach-retreat","154","1189459","0.0-154.0","","","2-1","4144","37","1","Testing","Stims/Figures/128-C-30-3.bmp","ma:la:na","Left","37","1","6","4","S","J","6"
"","","approach-retreat","155","1195172","0.0-155.0","","","2-1","4209","37","1","Testing","Stims/Figures/128-J-10-3.bmp","pa:ka:ka","Right","37","1","7","4","P","J","7"
"","","approach-retreat","156","1200847","0.0-156.0","","","2-1","4171","40","1","Testing","Stims/Figures/87-C-20-4.bmp","nama:na","Down","40","1","8","4","S","J","8"
"","","approach-retreat","157","1206742","0.0-157.0","","","2-1","4390","39","0","Testing","Stims/Figures/84-C-20-2.bmp","na:lala","Left","37","1","9","4","S","J","9"
"","","approach-retreat","158","1212812","0.0-158.0","","","2-1","4566","39","1","Testing","Stims/Figures/139-C-20-2.bmp","namana","Right","39","1","10","4","S","J","10"
"","","approach-retreat","159","1218539","0.0-159.0","","","2-1","4217","37","1","Testing","Stims/Figures/74-J-10-4.bmp","tapa:ta","Right","37","1","11","4","P","J","11"
"","","approach-retreat","160","1233080","0.0-160.0","","","2-1","13034","38","0","Testing","Stims/Figures/7-C-20-4.bmp","ma:ma:la","Down","40","1","12","4","S","J","12"
"","","approach-retreat","161","1238747","0.0-161.0","","","2-1","4147","40","1","Testing","Stims/Figures/93-J-0-1.bmp","ta:paka","Up","40","1","13","4","P","J","13"
"","","approach-retreat","162","1244443","0.0-162.0","","","2-1","4192","38","1","Testing","Stims/Figures/87-J-10-4.bmp","takaka","Down","38","1","14","4","P","J","14"
"","","approach-retreat","163","1253881","0.0-163.0","","","2-1","7931","39","0","Testing","Stims/Figures/74-C-20-4.bmp","mamala","Left","37","1","15","4","S","J","15"
"","","approach-retreat","164","1261165","0.0-164.0","","","2-1","5778","39","0","Testing","Stims/Figures/27-C-30-1.bmp","na:ma:na","Left","37","1","16","4","S","J","16"
"","","approach-retreat","165","1266823","0.0-165.0","","","2-1","4153","38","1","Testing","Stims/Figures/27-J-0-1.bmp","tapata","Down","38","1","17","4","P","J","17"
"","","approach-retreat","166","1272693","0.0-166.0","","","2-1","4365","38","1","Testing","Stims/Figures/139-J-0-2.bmp","ta:pa:ka","Down","38","1","18","4","P","J","18"
"","","approach-retreat","167","1279215","0.0-167.0","","","2-1","5016","39","1","Testing","Stims/Figures/144-C-30-3.bmp","nalala","Right","39","1","19","4","S","J","19"
"","","approach-retreat","168","1285810","0.0-168.0","","","2-1","5090","40","0","Testing","Stims/Figures/111-C-30-3.bmp","ma:ma:na","Up","38","1","20","4","S","J","20"
"","","approach-retreat","169","1291485","0.0-169.0","","","2-1","4169","37","1","Testing","Stims/Figures/84-J-0-2.bmp","taka:ka","Right","37","1","21","4","P","J","21"
"","","approach-retreat","170","1301403","0.0-170.0","","","2-1","8410","39","1","Testing","Stims/Figures/93-C-30-1.bmp","ma:lana","Right","39","1","22","4","S","J","22"
"","","approach-retreat","171","1307083","0.0-171.0","","","2-1","4175","40","1","Testing","Stims/Figures/71-J-0-1.bmp","ta:kata","Up","40","1","23","4","P","J","23"
"","","approach-retreat","172","1312715","0.0-172.0","","","2-1","4128","40","0","Testing","Stims/Figures/71-C-30-1.bmp","nala:la","Up","38","1","24","4","S","J","24"
"","","approach-retreat","173","1319998","0.0-173.0","","","2-1","5779","37","1","Testing","Stims/Figures/94-C-20-2.bmp","ma:lala","Left","37","2","1","4","S","J","25"
"","","approach-retreat","174","1325952","0.0-174.0","","","2-1","4448","37","1","Testing","Stims/Figures/71-J-0-1.bmp","ta:kata","Right","37","2","2","4","P","J","26"
"","","approach-retreat","175","1331608","0.0-175.0","","","2-1","4151","40","1","Testing","Stims/Figures/94-J-0-2.bmp","takata","Up","40","2","3","4","P","J","27"
"","","approach-retreat","176","1345797","0.0-176.0","","","2-1","12684","40","1","Testing","Stims/Figures/111-C-30-3.bmp","ma:ma:na","Down","40","2","4","4","S","J","28"
"","","approach-retreat","177","1351551","0.0-177.0","","","2-1","4249","37","1","Testing","Stims/Figures/139-C-20-2.bmp","namana","Left","37","2","5","4","S","J","29"
"","","approach-retreat","178","1361196","0.0-178.0","","","2-1","8141","38","1","Testing","Stims/Figures/71-C-30-1.bmp","nala:la","Up","38","2","6","4","S","J","30"
"","","approach-retreat","179","1366893","0.0-179.0","","","2-1","4191","38","1","Testing","Stims/Figures/87-C-20-4.bmp","nama:na","Up","38","2","7","4","S","J","31"
"","","approach-retreat","180","1372476","0.0-180.0","","","2-1","4071","40","1","Testing","Stims/Figures/87-J-10-4.bmp","takaka","Up","40","2","8","4","P","J","32"
"","","approach-retreat","181","1378095","0.0-181.0","","","2-1","4116","37","1","Testing","Stims/Figures/144-C-30-3.bmp","nalala","Left","37","2","9","4","S","J","33"
"","","approach-retreat","182","1383701","0.0-182.0","","","2-1","4103","37","1","Testing","Stims/Figures/27-J-0-1.bmp","tapata","Right","37","2","10","4","P","J","34"
"","","approach-retreat","183","1390925","0.0-183.0","","","2-1","5718","39","1","Testing","Stims/Figures/93-C-30-1.bmp","ma:lana","Right","39","2","11","4","S","J","35"
"","","approach-retreat","184","1396505","0.0-184.0","","","2-1","4076","39","1","Testing","Stims/Figures/74-J-10-4.bmp","tapa:ta","Left","39","2","12","4","P","J","36"
"","","approach-retreat","185","1409535","0.0-185.0","","","2-1","11522","39","1","Testing","Stims/Figures/7-C-20-4.bmp","ma:ma:la","Right","39","2","13","4","S","J","37"
"","","approach-retreat","186","1415232","0.0-186.0","","","2-1","4191","38","1","Testing","Stims/Figures/93-J-0-1.bmp","ta:paka","Down","38","2","14","4","P","J","38"
"","","approach-retreat","187","1420845","0.0-187.0","","","2-1","4108","40","1","Testing","Stims/Figures/144-J-10-3.bmp","pa:pata","Up","40","2","15","4","P","J","39"
"","","approach-retreat","188","1426389","0.0-188.0","","","2-1","4036","37","0","Testing","Stims/Figures/84-C-20-2.bmp","na:lala","Right","39","2","16","4","S","J","40"
"","","approach-retreat","189","1431974","0.0-189.0","","","2-1","4081","38","1","Testing","Stims/Figures/128-J-10-3.bmp","pa:ka:ka","Down","38","2","17","4","P","J","41"
"","","approach-retreat","190","1437559","0.0-190.0","","","2-1","4080","37","1","Testing","Stims/Figures/7-J-10-4.bmp","pa:pa:ta","Right","37","2","18","4","P","J","42"
"","","approach-retreat","191","1445578","0.0-191.0","","","2-1","6514","40","1","Testing","Stims/Figures/74-C-20-4.bmp","mamala","Down","40","2","19","4","S","J","43"
"","","approach-retreat","192","1451164","0.0-192.0","","","2-1","4081","38","1","Testing","Stims/Figures/139-J-0-2.bmp","ta:pa:ka","Down","38","2","20","4","P","J","44"
"","","approach-retreat","193","1456875","0.0-193.0","","","2-1","4205","40","1","Testing","Stims/Figures/111-J-10-3.bmp","paka:ta","Up","40","2","21","4","P","J","45"
"","","approach-retreat","194","1462429","0.0-194.0","","","2-1","4049","39","1","Testing","Stims/Figures/84-J-0-2.bmp","taka:ka","Left","39","2","22","4","P","J","46"
"","","approach-retreat","195","1467987","0.0-195.0","","","2-1","4053","37","1","Testing","Stims/Figures/27-C-30-1.bmp","na:ma:na","Left","37","2","23","4","S","J","47"
"","","approach-retreat","196","1473655","0.0-196.0","","","2-1","4163","40","1","Testing","Stims/Figures/128-C-30-3.bmp","ma:la:na","Down","40","2","24","4","S","J","48"
"","","approach-retreat","197","1479193","0.0-197.0","","","2-1","4032","38","1","Testing","Stims/Figures/87-J-10-4.bmp","takaka","Down","38","3","1","4","P","J","49"
"","","approach-retreat","198","1485740","0.0-198.0","","","2-1","5043","37","1","Testing","Stims/Figures/74-C-20-4.bmp","mamala","Left","37","3","2","4","S","J","50"
"","","approach-retreat","199","1491392","0.0-199.0","","","2-1","4147","38","1","Testing","Stims/Figures/93-C-30-1.bmp","ma:lana","Up","38","3","3","4","S","J","51"
"","","approach-retreat","200","1496966","0.0-200.0","","","2-1","4069","39","1","Testing","Stims/Figures/7-J-10-4.bmp","pa:pa:ta","Left","39","3","4","4","P","J","52"
"","","approach-retreat","201","1502464","0.0-201.0","","","2-1","3995","37","1","Testing","Stims/Figures/74-J-10-4.bmp","tapa:ta","Right","37","3","5","4","P","J","53"
"","","approach-retreat","202","1508049","0.0-202.0","","","2-1","4080","37","1","Testing","Stims/Figures/144-J-10-3.bmp","pa:pata","Right","37","3","6","4","P","J","54"
"","","approach-retreat","203","1514564","0.0-203.0","","","2-1","5010","40","1","Testing","Stims/Figures/111-C-30-3.bmp","ma:ma:na","Down","40","3","7","4","S","J","55"
"","","approach-retreat","204","1520316","0.0-204.0","","","2-1","4248","37","1","Testing","Stims/Figures/71-C-30-1.bmp","nala:la","Left","37","3","8","4","S","J","56"
"","","approach-retreat","205","1525949","0.0-205.0","","","2-1","4126","40","1","Testing","Stims/Figures/139-J-0-2.bmp","ta:pa:ka","Up","40","3","9","4","P","J","57"
"","","approach-retreat","206","1531558","0.0-206.0","","","2-1","4107","39","1","Testing","Stims/Figures/27-C-30-1.bmp","na:ma:na","Right","39","3","10","4","S","J","58"
"","","approach-retreat","207","1537220","0.0-207.0","","","2-1","4156","38","1","Testing","Stims/Figures/111-J-10-3.bmp","paka:ta","Down","38","3","11","4","P","J","59"
"","","approach-retreat","208","1542954","0.0-208.0","","","2-1","4231","37","1","Testing","Stims/Figures/144-C-30-3.bmp","nalala","Left","37","3","12","4","S","J","60"
"","","approach-retreat","209","1548794","0.0-209.0","","","2-1","4335","40","1","Testing","Stims/Figures/128-C-30-3.bmp","ma:la:na","Down","40","3","13","4","S","J","61"
"","","approach-retreat","210","1554379","0.0-210.0","","","2-1","4076","39","1","Testing","Stims/Figures/27-J-0-1.bmp","tapata","Left","39","3","14","4","P","J","62"
"","","approach-retreat","211","1560001","0.0-211.0","","","2-1","4116","38","1","Testing","Stims/Figures/128-J-10-3.bmp","pa:ka:ka","Down","38","3","15","4","P","J","63"
"","","approach-retreat","212","1565849","0.0-212.0","","","2-1","4345","39","1","Testing","Stims/Figures/94-C-20-2.bmp","ma:lala","Right","39","3","16","4","S","J","64"
"","","approach-retreat","213","1571381","0.0-213.0","","","2-1","4026","37","1","Testing","Stims/Figures/94-J-0-2.bmp","takata","Right","37","3","17","4","P","J","65"
"","","approach-retreat","214","1576994","0.0-214.0","","","2-1","4108","39","1","Testing","Stims/Figures/93-J-0-1.bmp","ta:paka","Left","39","3","18","4","P","J","66"
"","","approach-retreat","215","1582644","0.0-215.0","","","2-1","4145","40","1","Testing","Stims/Figures/84-J-0-2.bmp","taka:ka","Up","40","3","19","4","P","J","67"
"","","approach-retreat","216","1588320","0.0-216.0","","","2-1","4172","38","1","Testing","Stims/Figures/87-C-20-4.bmp","nama:na","Up","38","3","20","4","S","J","68"
"","","approach-retreat","217","1593841","0.0-217.0","","","2-1","4016","37","1","Testing","Stims/Figures/71-J-0-1.bmp","ta:kata","Right","37","3","21","4","P","J","69"
"","","approach-retreat","218","1599807","0.0-218.0","","","2-1","4461","38","1","Testing","Stims/Figures/7-C-20-4.bmp","ma:ma:la","Up","38","3","22","4","S","J","70"
"","","approach-retreat","219","1605402","0.0-219.0","","","2-1","4091","40","1","Testing","Stims/Figures/139-C-20-2.bmp","namana","Down","40","3","23","4","S","J","71"
"","","approach-retreat","220","1617261","0.0-220.0","","","2-1","10354","40","0","Testing","Stims/Figures/84-C-20-2.bmp","na:lala","Up","38","3","24","4","S","J","72"
"","","approach-retreat","221","1623188","0.0-221.0","","","2-1","4423","38","1","Testing","Stims/Figures/94-C-20-2.bmp","ma:lala","Up","38","4","1","4","S","J","73"
"","","approach-retreat","222","1628803","0.0-222.0","","","2-1","4111","39","1","Testing","Stims/Figures/144-C-30-3.bmp","nalala","Right","39","4","2","4","S","J","74"
"","","approach-retreat","223","1646845","0.0-223.0","","","2-1","16537","40","0","Testing","Stims/Figures/74-C-20-4.bmp","mamala","Up","38","4","3","4","S","J","75"
"","","approach-retreat","224","1658091","0.0-224.0","","","2-1","9740","40","1","Testing","Stims/Figures/139-J-0-2.bmp","ta:pa:ka","Up","40","4","4","4","P","J","76"
"","","approach-retreat","225","1663616","0.0-225.0","","","2-1","4019","39","1","Testing","Stims/Figures/139-C-20-2.bmp","namana","Right","39","4","5","4","S","J","77"
"","","approach-retreat","226","1669192","0.0-226.0","","","2-1","4073","39","1","Testing","Stims/Figures/74-J-10-4.bmp","tapa:ta","Left","39","4","6","4","P","J","78"
"","","approach-retreat","227","1674684","0.0-227.0","","","2-1","3986","37","1","Testing","Stims/Figures/87-J-10-4.bmp","takaka","Right","37","4","7","4","P","J","79"
"","","approach-retreat","228","1680174","0.0-228.0","","","2-1","3976","39","1","Testing","Stims/Figures/7-J-10-4.bmp","pa:pa:ta","Left","39","4","8","4","P","J","80"
"","","approach-retreat","229","1685673","0.0-229.0","","","2-1","3997","38","1","Testing","Stims/Figures/128-C-30-3.bmp","ma:la:na","Up","38","4","9","4","S","J","81"
"","","approach-retreat","230","1691236","0.0-230.0","","","2-1","4057","39","1","Testing","Stims/Figures/71-J-0-1.bmp","ta:kata","Left","39","4","10","4","P","J","82"
"","","approach-retreat","231","1696896","0.0-231.0","","","2-1","4145","39","1","Testing","Stims/Figures/27-C-30-1.bmp","na:ma:na","Right","39","4","11","4","S","J","83"
"","","approach-retreat","232","1702427","0.0-232.0","","","2-1","4025","37","1","Testing","Stims/Figures/93-C-30-1.bmp","ma:lana","Left","37","4","12","4","S","J","84"
"","","approach-retreat","233","1708519","0.0-233.0","","","2-1","4587","38","1","Testing","Stims/Figures/94-J-0-2.bmp","takata","Down","38","4","13","4","P","J","85"
"","","approach-retreat","234","1714441","0.0-234.0","","","2-1","4419","38","1","Testing","Stims/Figures/87-C-20-4.bmp","nama:na","Up","38","4","14","4","S","J","86"
"","","approach-retreat","235","1720313","0.0-235.0","","","2-1","4369","40","1","Testing","Stims/Figures/27-J-0-1.bmp","tapata","Up","40","4","15","4","P","J","87"
"","","approach-retreat","236","1725935","0.0-236.0","","","2-1","4117","39","1","Testing","Stims/Figures/144-J-10-3.bmp","pa:pata","Left","39","4","16","4","P","J","88"
"","","approach-retreat","237","1732081","0.0-237.0","","","2-1","4641","38","1","Testing","Stims/Figures/128-J-10-3.bmp","pa:ka:ka","Down","38","4","17","4","P","J","89"
"","","approach-retreat","238","1738210","0.0-238.0","","","2-1","4624","38","1","Testing","Stims/Figures/84-J-0-2.bmp","taka:ka","Down","38","4","18","4","P","J","90"
"","","approach-retreat","239","1743770","0.0-239.0","","","2-1","4056","37","1","Testing","Stims/Figures/7-C-20-4.bmp","ma:ma:la","Left","37","4","19","4","S","J","91"
"","","approach-retreat","240","1749390","0.0-240.0","","","2-1","4115","38","1","Testing","Stims/Figures/93-J-0-1.bmp","ta:paka","Down","38","4","20","4","P","J","92"
"","","approach-retreat","241","1754930","0.0-241.0","","","2-1","4035","38","1","Testing","Stims/Figures/111-J-10-3.bmp","paka:ta","Down","38","4","21","4","P","J","93"
"","","approach-retreat","242","1760564","0.0-242.0","","","2-1","4130","40","1","Testing","Stims/Figures/111-C-30-3.bmp","ma:ma:na","Down","40","4","22","4","S","J","94"
"","","approach-retreat","243","1766116","0.0-243.0","","","2-1","4047","39","1","Testing","Stims/Figures/71-C-30-1.bmp","nala:la","Right","39","4","23","4","S","J","95"
"","","approach-retreat","244","1771861","0.0-244.0","","","2-1","4241","39","1","Testing","Stims/Figures/84-C-20-2.bmp","na:lala","Right","39","4","24","4","S","J","96"
"141352","","survey-text","245","1913222","0.0-245.0","","{""Q0"":""""}","","","","","","","","","","","","","","",""
