"rt","key_press","trial_type","trial_index","time_elapsed","internal_node_id","view_history","responses","Id","Rt","ResKeyCode","ResCorr","TrialType2","Image","Label","Location","CorrectResponse","Block","BlockTrial","Condition","LabelType","Subcondition","trialNum"
"103151","32","text","0","103223","0.0-0.0-0.0","","","","","","","","","","","","","","","","",""
"102411","","instructions","1","205768","0.0-1.0","[{""page_index"":0,""viewing_time"":102409}]","","","","","","","","","","","","","","","",""
"41278","","survey-multi-choice","2","249964","0.0-2.0","","{""Q0"":""Da"",""Q1"":""Da"",""Q2"":""Da"",""Q3"":""Da"",""Q4"":""Da"",""Q5"":""Da""}","","","","","","","","","","","","","","",""
"","","bio","3","264576","0.0-3.0","","{""age"":""18"",""gender"":""f"",""specify"":""""}","","","","","","","","","","","","","","",""
"","","approach-retreat","4","285918","0.0-4.0","","","2-3","17433","40","0","Training","Stims/Figures/111-C-30-3.bmp","tapaka","Down","38","1","1","2","P","C","1"
"","","approach-retreat","5","293481","0.0-5.0","","","2-3","6032","39","1","Training","Stims/Figures/144-J-10-3.bmp","mala:la","Right","39","1","2","2","S","C","2"
"","","approach-retreat","6","299512","0.0-6.0","","","2-3","4525","39","1","Training","Stims/Figures/85-J-0-2.bmp","mala:la","Right","39","1","3","2","S","C","3"
"","","approach-retreat","7","307150","0.0-7.0","","","2-3","6128","39","1","Training","Stims/Figures/19-C-20-4.bmp","tapaka","Left","39","1","4","2","P","C","4"
"","","approach-retreat","8","314114","0.0-8.0","","","2-3","5452","40","0","Training","Stims/Figures/85-C-20-2.bmp","tapaka","Down","38","1","5","2","P","C","5"
"","","approach-retreat","9","320344","0.0-9.0","","","2-3","4722","38","1","Training","Stims/Figures/27-C-30-1.bmp","tapaka","Down","38","1","6","2","P","C","6"
"","","approach-retreat","10","326196","0.0-10.0","","","2-3","4344","39","1","Training","Stims/Figures/19-J-10-4.bmp","mala:la","Right","39","1","7","2","S","C","7"
"","","approach-retreat","11","333337","0.0-11.0","","","2-3","5544","37","0","Training","Stims/Figures/144-C-30-3.bmp","tapaka","Left","39","1","8","2","P","C","8"
"","","approach-retreat","12","339764","0.0-12.0","","","2-3","4921","39","1","Training","Stims/Figures/102-C-20-4.bmp","tapaka","Left","39","1","9","2","P","C","9"
"","","approach-retreat","13","350330","0.0-13.0","","","2-3","9059","38","0","Training","Stims/Figures/111-J-10-3.bmp","mala:la","Down","40","1","10","2","S","C","10"
"","","approach-retreat","14","357018","0.0-14.0","","","2-3","5183","39","0","Training","Stims/Figures/102-J-10-4.bmp","mala:la","Left","37","1","11","2","S","C","11"
"","","approach-retreat","15","365159","0.0-15.0","","","2-3","6633","38","1","Training","Stims/Figures/139-J-0-2.bmp","mala:la","Up","38","1","12","2","S","C","12"
"","","approach-retreat","16","372914","0.0-16.0","","","2-3","6248","39","1","Training","Stims/Figures/71-J-0-1.bmp","mala:la","Right","39","1","13","2","S","C","13"
"","","approach-retreat","17","379508","0.0-17.0","","","2-3","5087","38","0","Training","Stims/Figures/139-C-20-2.bmp","tapaka","Up","40","1","14","2","P","C","14"
"","","approach-retreat","18","386433","0.0-18.0","","","2-3","5420","40","1","Training","Stims/Figures/71-C-30-1.bmp","tapaka","Up","40","1","15","2","P","C","15"
"","","approach-retreat","19","393387","0.0-19.0","","","2-3","5447","38","1","Training","Stims/Figures/27-J-0-1.bmp","mala:la","Up","38","1","16","2","S","C","16"
"","","approach-retreat","20","403809","0.0-20.0","","","2-3","8912","40","0","Training","Stims/Figures/102-J-10-4.bmp","mala:la","Up","38","2","1","2","S","C","17"
"","","approach-retreat","21","409709","0.0-21.0","","","2-3","4394","37","0","Training","Stims/Figures/111-J-10-3.bmp","mala:la","Right","39","2","2","2","S","C","18"
"","","approach-retreat","22","417540","0.0-22.0","","","2-3","6323","40","1","Training","Stims/Figures/144-C-30-3.bmp","tapaka","Up","40","2","3","2","P","C","19"
"","","approach-retreat","23","424246","0.0-23.0","","","2-3","5200","39","0","Training","Stims/Figures/19-J-10-4.bmp","mala:la","Left","37","2","4","2","S","C","20"
"","","approach-retreat","24","430428","0.0-24.0","","","2-3","4676","38","1","Training","Stims/Figures/85-C-20-2.bmp","tapaka","Down","38","2","5","2","P","C","21"
"","","approach-retreat","25","438987","0.0-25.0","","","2-3","7053","37","1","Training","Stims/Figures/27-C-30-1.bmp","tapaka","Right","37","2","6","2","P","C","22"
"","","approach-retreat","26","445851","0.0-26.0","","","2-3","5357","38","0","Training","Stims/Figures/71-J-0-1.bmp","mala:la","Down","40","2","7","2","S","C","23"
"","","approach-retreat","27","454374","0.0-27.0","","","2-3","7015","37","1","Training","Stims/Figures/111-C-30-3.bmp","tapaka","Right","37","2","8","2","P","C","24"
"","","approach-retreat","28","460611","0.0-28.0","","","2-3","4718","37","1","Training","Stims/Figures/85-J-0-2.bmp","mala:la","Left","37","2","9","2","S","C","25"
"","","approach-retreat","29","468856","0.0-29.0","","","2-3","6740","39","1","Training","Stims/Figures/102-C-20-4.bmp","tapaka","Left","39","2","10","2","P","C","26"
"","","approach-retreat","30","480162","0.0-30.0","","","2-3","9799","39","1","Training","Stims/Figures/139-C-20-2.bmp","tapaka","Left","39","2","11","2","P","C","27"
"","","approach-retreat","31","486199","0.0-31.0","","","2-3","4530","38","1","Training","Stims/Figures/71-C-30-1.bmp","tapaka","Down","38","2","12","2","P","C","28"
"","","approach-retreat","32","492321","0.0-32.0","","","2-3","4613","38","0","Training","Stims/Figures/27-J-0-1.bmp","mala:la","Down","40","2","13","2","S","C","29"
"","","approach-retreat","33","498599","0.0-33.0","","","2-3","4770","40","1","Training","Stims/Figures/19-C-20-4.bmp","tapaka","Up","40","2","14","2","P","C","30"
"","","approach-retreat","34","505890","0.0-34.0","","","2-3","5786","37","0","Training","Stims/Figures/144-J-10-3.bmp","mala:la","Right","39","2","15","2","S","C","31"
"","","approach-retreat","35","512121","0.0-35.0","","","2-3","4726","38","1","Training","Stims/Figures/139-J-0-2.bmp","mala:la","Up","38","2","16","2","S","C","32"
"","","approach-retreat","36","519552","0.0-36.0","","","2-3","5924","39","1","Training","Stims/Figures/27-C-30-1.bmp","tapaka","Left","39","3","1","2","P","C","33"
"","","approach-retreat","37","526584","0.0-37.0","","","2-3","5523","40","0","Training","Stims/Figures/144-J-10-3.bmp","mala:la","Up","38","3","2","2","S","C","34"
"","","approach-retreat","38","535350","0.0-38.0","","","2-3","7222","40","1","Training","Stims/Figures/85-C-20-2.bmp","tapaka","Up","40","3","3","2","P","C","35"
"","","approach-retreat","39","542173","0.0-39.0","","","2-3","5316","39","1","Training","Stims/Figures/71-C-30-1.bmp","tapaka","Left","39","3","4","2","P","C","36"
"","","approach-retreat","40","548195","0.0-40.0","","","2-3","4514","37","1","Training","Stims/Figures/71-J-0-1.bmp","mala:la","Left","37","3","5","2","S","C","37"
"","","approach-retreat","41","554415","0.0-41.0","","","2-3","4715","40","1","Training","Stims/Figures/139-J-0-2.bmp","mala:la","Down","40","3","6","2","S","C","38"
"","","approach-retreat","42","560792","0.0-42.0","","","2-3","4868","38","0","Training","Stims/Figures/85-J-0-2.bmp","mala:la","Down","40","3","7","2","S","C","39"
"","","approach-retreat","43","566717","0.0-43.0","","","2-3","4414","40","1","Training","Stims/Figures/144-C-30-3.bmp","tapaka","Up","40","3","8","2","P","C","40"
"","","approach-retreat","44","573083","0.0-44.0","","","2-3","4857","38","1","Training","Stims/Figures/27-J-0-1.bmp","mala:la","Up","38","3","9","2","S","C","41"
"","","approach-retreat","45","579147","0.0-45.0","","","2-3","4545","37","0","Training","Stims/Figures/102-J-10-4.bmp","mala:la","Right","39","3","10","2","S","C","42"
"","","approach-retreat","46","584962","0.0-46.0","","","2-3","4302","37","1","Training","Stims/Figures/139-C-20-2.bmp","tapaka","Right","37","3","11","2","P","C","43"
"","","approach-retreat","47","591101","0.0-47.0","","","2-3","4615","38","0","Training","Stims/Figures/19-J-10-4.bmp","mala:la","Down","40","3","12","2","S","C","44"
"","","approach-retreat","48","597509","0.0-48.0","","","2-3","4891","38","1","Training","Stims/Figures/19-C-20-4.bmp","tapaka","Down","38","3","13","2","P","C","45"
"","","approach-retreat","49","603659","0.0-49.0","","","2-3","4637","39","1","Training","Stims/Figures/102-C-20-4.bmp","tapaka","Left","39","3","14","2","P","C","46"
"","","approach-retreat","50","609990","0.0-50.0","","","2-3","4820","37","0","Training","Stims/Figures/111-J-10-3.bmp","mala:la","Right","39","3","15","2","S","C","47"
"","","approach-retreat","51","616010","0.0-51.0","","","2-3","4514","39","0","Training","Stims/Figures/111-C-30-3.bmp","tapaka","Right","37","3","16","2","P","C","48"
"","","approach-retreat","52","622352","0.0-52.0","","","2-3","4836","39","1","Training","Stims/Figures/139-J-0-2.bmp","mala:la","Right","39","4","1","2","S","C","49"
"","","approach-retreat","53","629014","0.0-53.0","","","2-3","5152","40","0","Training","Stims/Figures/139-C-20-2.bmp","tapaka","Down","38","4","2","2","P","C","50"
"","","approach-retreat","54","635312","0.0-54.0","","","2-3","4781","39","1","Training","Stims/Figures/27-C-30-1.bmp","tapaka","Left","39","4","3","2","P","C","51"
"","","approach-retreat","55","641080","0.0-55.0","","","2-3","4257","38","1","Training","Stims/Figures/71-C-30-1.bmp","tapaka","Down","38","4","4","2","P","C","52"
"","","approach-retreat","56","647592","0.0-56.0","","","2-3","5006","40","1","Training","Stims/Figures/144-C-30-3.bmp","tapaka","Up","40","4","5","2","P","C","53"
"","","approach-retreat","57","654175","0.0-57.0","","","2-3","5068","38","0","Training","Stims/Figures/19-J-10-4.bmp","mala:la","Down","40","4","6","2","S","C","54"
"","","approach-retreat","58","660561","0.0-58.0","","","2-3","4881","38","1","Training","Stims/Figures/27-J-0-1.bmp","mala:la","Up","38","4","7","2","S","C","55"
"","","approach-retreat","59","667344","0.0-59.0","","","2-3","5266","40","1","Training","Stims/Figures/85-C-20-2.bmp","tapaka","Up","40","4","8","2","P","C","56"
"","","approach-retreat","60","673633","0.0-60.0","","","2-3","4772","39","1","Training","Stims/Figures/111-C-30-3.bmp","tapaka","Left","39","4","9","2","P","C","57"
"","","approach-retreat","61","679842","0.0-61.0","","","2-3","4702","37","1","Training","Stims/Figures/144-J-10-3.bmp","mala:la","Left","37","4","10","2","S","C","58"
"","","approach-retreat","62","686008","0.0-62.0","","","2-3","4660","39","0","Training","Stims/Figures/85-J-0-2.bmp","mala:la","Left","37","4","11","2","S","C","59"
"","","approach-retreat","63","692113","0.0-63.0","","","2-3","4594","38","0","Training","Stims/Figures/111-J-10-3.bmp","mala:la","Down","40","4","12","2","S","C","60"
"","","approach-retreat","64","698820","0.0-64.0","","","2-3","5175","37","1","Training","Stims/Figures/19-C-20-4.bmp","tapaka","Right","37","4","13","2","P","C","61"
"","","approach-retreat","65","705081","0.0-65.0","","","2-3","4754","37","0","Training","Stims/Figures/71-J-0-1.bmp","mala:la","Right","39","4","14","2","S","C","62"
"","","approach-retreat","66","713823","0.0-66.0","","","2-3","7234","40","1","Training","Stims/Figures/102-C-20-4.bmp","tapaka","Up","40","4","15","2","P","C","63"
"","","approach-retreat","67","720266","0.0-67.0","","","2-3","4936","37","0","Training","Stims/Figures/102-J-10-4.bmp","mala:la","Right","39","4","16","2","S","C","64"
"","","approach-retreat","68","726280","0.0-68.0","","","2-3","4504","37","0","Training","Stims/Figures/19-J-10-4.bmp","mala:la","Right","39","5","1","2","S","C","65"
"","","approach-retreat","69","732122","0.0-69.0","","","2-3","4327","40","0","Training","Stims/Figures/111-J-10-3.bmp","mala:la","Up","38","5","2","2","S","C","66"
"","","approach-retreat","70","739081","0.0-70.0","","","2-3","5453","37","0","Training","Stims/Figures/144-C-30-3.bmp","tapaka","Left","39","5","3","2","P","C","67"
"","","approach-retreat","71","745201","0.0-71.0","","","2-3","4613","37","1","Training","Stims/Figures/27-J-0-1.bmp","mala:la","Left","37","5","4","2","S","C","68"
"","","approach-retreat","72","754889","0.0-72.0","","","2-3","8181","38","0","Training","Stims/Figures/139-C-20-2.bmp","tapaka","Up","40","5","5","2","P","C","69"
"","","approach-retreat","73","761083","0.0-73.0","","","2-3","4683","37","0","Training","Stims/Figures/71-C-30-1.bmp","tapaka","Left","39","5","6","2","P","C","70"
"","","approach-retreat","74","766807","0.0-74.0","","","2-3","4219","37","0","Training","Stims/Figures/102-J-10-4.bmp","mala:la","Right","39","5","7","2","S","C","71"
"","","approach-retreat","75","774730","0.0-75.0","","","2-3","6418","39","0","Training","Stims/Figures/111-C-30-3.bmp","tapaka","Right","37","5","8","2","P","C","72"
"","","approach-retreat","76","780681","0.0-76.0","","","2-3","4444","40","0","Training","Stims/Figures/85-C-20-2.bmp","tapaka","Down","38","5","9","2","P","C","73"
"","","approach-retreat","77","786725","0.0-77.0","","","2-3","4539","40","1","Training","Stims/Figures/144-J-10-3.bmp","mala:la","Down","40","5","10","2","S","C","74"
"","","approach-retreat","78","792718","0.0-78.0","","","2-3","4484","40","1","Training","Stims/Figures/102-C-20-4.bmp","tapaka","Up","40","5","11","2","P","C","75"
"","","approach-retreat","79","800292","0.0-79.0","","","2-3","6068","40","1","Training","Stims/Figures/85-J-0-2.bmp","mala:la","Down","40","5","12","2","S","C","76"
"","","approach-retreat","80","806300","0.0-80.0","","","2-3","4500","37","1","Training","Stims/Figures/71-J-0-1.bmp","mala:la","Left","37","5","13","2","S","C","77"
"","","approach-retreat","81","813696","0.0-81.0","","","2-3","5886","37","1","Training","Stims/Figures/19-C-20-4.bmp","tapaka","Right","37","5","14","2","P","C","78"
"","","approach-retreat","82","820007","0.0-82.0","","","2-3","4803","38","1","Training","Stims/Figures/139-J-0-2.bmp","mala:la","Up","38","5","15","2","S","C","79"
"","","approach-retreat","83","828602","0.0-83.0","","","2-3","7088","38","1","Training","Stims/Figures/27-C-30-1.bmp","tapaka","Down","38","5","16","2","P","C","80"
"","","approach-retreat","84","835876","0.0-84.0","","","2-3","5761","38","1","Training","Stims/Figures/102-J-10-4.bmp","mala:la","Up","38","6","1","2","S","C","81"
"","","approach-retreat","85","843031","0.0-85.0","","","2-3","5643","37","1","Training","Stims/Figures/139-J-0-2.bmp","mala:la","Left","37","6","2","2","S","C","82"
"","","approach-retreat","86","848979","0.0-86.0","","","2-3","4439","39","1","Training","Stims/Figures/85-C-20-2.bmp","tapaka","Left","39","6","3","2","P","C","83"
"","","approach-retreat","87","855061","0.0-87.0","","","2-3","4574","37","1","Training","Stims/Figures/139-C-20-2.bmp","tapaka","Right","37","6","4","2","P","C","84"
"","","approach-retreat","88","861150","0.0-88.0","","","2-3","4583","39","1","Training","Stims/Figures/71-J-0-1.bmp","mala:la","Right","39","6","5","2","S","C","85"
"","","approach-retreat","89","867478","0.0-89.0","","","2-3","4822","40","1","Training","Stims/Figures/71-C-30-1.bmp","tapaka","Up","40","6","6","2","P","C","86"
"","","approach-retreat","90","874576","0.0-90.0","","","2-3","5591","40","1","Training","Stims/Figures/27-J-0-1.bmp","mala:la","Down","40","6","7","2","S","C","87"
"","","approach-retreat","91","881377","0.0-91.0","","","2-3","5286","40","1","Training","Stims/Figures/27-C-30-1.bmp","tapaka","Up","40","6","8","2","P","C","88"
"","","approach-retreat","92","888176","0.0-92.0","","","2-3","5288","39","0","Training","Stims/Figures/111-J-10-3.bmp","mala:la","Left","37","6","9","2","S","C","89"
"","","approach-retreat","93","894390","0.0-93.0","","","2-3","4707","40","0","Training","Stims/Figures/19-C-20-4.bmp","tapaka","Down","38","6","10","2","P","C","90"
"","","approach-retreat","94","901695","0.0-94.0","","","2-3","5796","39","0","Training","Stims/Figures/144-C-30-3.bmp","tapaka","Right","37","6","11","2","P","C","91"
"","","approach-retreat","95","907693","0.0-95.0","","","2-3","4492","40","1","Training","Stims/Figures/19-J-10-4.bmp","mala:la","Down","40","6","12","2","S","C","92"
"","","approach-retreat","96","913919","0.0-96.0","","","2-3","4694","39","1","Training","Stims/Figures/144-J-10-3.bmp","mala:la","Right","39","6","13","2","S","C","93"
"","","approach-retreat","97","920401","0.0-97.0","","","2-3","4976","38","0","Training","Stims/Figures/85-J-0-2.bmp","mala:la","Down","40","6","14","2","S","C","94"
"","","approach-retreat","98","928865","0.0-98.0","","","2-3","6957","40","1","Training","Stims/Figures/111-C-30-3.bmp","tapaka","Up","40","6","15","2","P","C","95"
"","","approach-retreat","99","935195","0.0-99.0","","","2-3","4826","39","1","Training","Stims/Figures/102-C-20-4.bmp","tapaka","Left","39","6","16","2","P","C","96"
"","","approach-retreat","100","941388","0.0-100.0","","","2-3","4682","38","1","Training","Stims/Figures/139-J-0-2.bmp","mala:la","Up","38","7","1","2","S","C","97"
"","","approach-retreat","101","947386","0.0-101.0","","","2-3","4489","40","1","Training","Stims/Figures/144-J-10-3.bmp","mala:la","Down","40","7","2","2","S","C","98"
"","","approach-retreat","102","954692","0.0-102.0","","","2-3","5796","40","1","Training","Stims/Figures/111-J-10-3.bmp","mala:la","Down","40","7","3","2","S","C","99"
"","","approach-retreat","103","960783","0.0-103.0","","","2-3","4580","37","1","Training","Stims/Figures/19-J-10-4.bmp","mala:la","Left","37","7","4","2","S","C","100"
"","","approach-retreat","104","967857","0.0-104.0","","","2-3","5566","40","1","Training","Stims/Figures/111-C-30-3.bmp","tapaka","Up","40","7","5","2","P","C","101"
"","","approach-retreat","105","973699","0.0-105.0","","","2-3","4336","39","1","Training","Stims/Figures/71-C-30-1.bmp","tapaka","Left","39","7","6","2","P","C","102"
"","","approach-retreat","106","980704","0.0-106.0","","","2-3","5498","39","1","Training","Stims/Figures/27-J-0-1.bmp","mala:la","Right","39","7","7","2","S","C","103"
"","","approach-retreat","107","986531","0.0-107.0","","","2-3","4318","40","1","Training","Stims/Figures/144-C-30-3.bmp","tapaka","Up","40","7","8","2","P","C","104"
"","","approach-retreat","108","992579","0.0-108.0","","","2-3","4539","37","0","Training","Stims/Figures/139-C-20-2.bmp","tapaka","Left","39","7","9","2","P","C","105"
"","","approach-retreat","109","998962","0.0-109.0","","","2-3","4874","40","1","Training","Stims/Figures/27-C-30-1.bmp","tapaka","Up","40","7","10","2","P","C","106"
"","","approach-retreat","110","1005729","0.0-110.0","","","2-3","5256","40","1","Training","Stims/Figures/71-J-0-1.bmp","mala:la","Down","40","7","11","2","S","C","107"
"","","approach-retreat","111","1011792","0.0-111.0","","","2-3","4550","39","1","Training","Stims/Figures/102-C-20-4.bmp","tapaka","Left","39","7","12","2","P","C","108"
"","","approach-retreat","112","1018847","0.0-112.0","","","2-3","5545","37","0","Training","Stims/Figures/85-J-0-2.bmp","mala:la","Right","39","7","13","2","S","C","109"
"","","approach-retreat","113","1024741","0.0-113.0","","","2-3","4381","39","0","Training","Stims/Figures/19-C-20-4.bmp","tapaka","Right","37","7","14","2","P","C","110"
"","","approach-retreat","114","1031168","0.0-114.0","","","2-3","4920","38","0","Training","Stims/Figures/102-J-10-4.bmp","mala:la","Down","40","7","15","2","S","C","111"
"","","approach-retreat","115","1037173","0.0-115.0","","","2-3","4498","37","1","Training","Stims/Figures/85-C-20-2.bmp","tapaka","Right","37","7","16","2","P","C","112"
"","","approach-retreat","116","1045096","0.0-116.0","","","2-3","6415","38","1","Training","Stims/Figures/144-J-10-3.bmp","mala:la","Up","38","8","1","2","S","C","113"
"","","approach-retreat","117","1054734","0.0-117.0","","","2-3","8122","39","0","Training","Stims/Figures/111-C-30-3.bmp","tapaka","Right","37","8","2","2","P","C","114"
"","","approach-retreat","118","1060838","0.0-118.0","","","2-3","4595","39","1","Training","Stims/Figures/71-J-0-1.bmp","mala:la","Right","39","8","3","2","S","C","115"
"","","approach-retreat","119","1068408","0.0-119.0","","","2-3","6059","37","1","Training","Stims/Figures/85-J-0-2.bmp","mala:la","Left","37","8","4","2","S","C","116"
"","","approach-retreat","120","1074954","0.0-120.0","","","2-3","5038","40","1","Training","Stims/Figures/19-J-10-4.bmp","mala:la","Down","40","8","5","2","S","C","117"
"","","approach-retreat","121","1080775","0.0-121.0","","","2-3","4316","37","1","Training","Stims/Figures/85-C-20-2.bmp","tapaka","Right","37","8","6","2","P","C","118"
"","","approach-retreat","122","1086559","0.0-122.0","","","2-3","4266","39","1","Training","Stims/Figures/102-C-20-4.bmp","tapaka","Left","39","8","7","2","P","C","119"
"","","approach-retreat","123","1092481","0.0-123.0","","","2-3","4414","40","0","Training","Stims/Figures/139-C-20-2.bmp","tapaka","Down","38","8","8","2","P","C","120"
"","","approach-retreat","124","1099935","0.0-124.0","","","2-3","5937","40","1","Training","Stims/Figures/144-C-30-3.bmp","tapaka","Up","40","8","9","2","P","C","121"
"","","approach-retreat","125","1106523","0.0-125.0","","","2-3","5055","39","0","Training","Stims/Figures/111-J-10-3.bmp","mala:la","Left","37","8","10","2","S","C","122"
"","","approach-retreat","126","1112575","0.0-126.0","","","2-3","4531","38","1","Training","Stims/Figures/19-C-20-4.bmp","tapaka","Down","38","8","11","2","P","C","123"
"","","approach-retreat","127","1118602","0.0-127.0","","","2-3","4515","37","1","Training","Stims/Figures/27-J-0-1.bmp","mala:la","Left","37","8","12","2","S","C","124"
"","","approach-retreat","128","1125967","0.0-128.0","","","2-3","5857","38","1","Training","Stims/Figures/139-J-0-2.bmp","mala:la","Up","38","8","13","2","S","C","125"
"","","approach-retreat","129","1133357","0.0-129.0","","","2-3","5848","37","1","Training","Stims/Figures/71-C-30-1.bmp","tapaka","Right","37","8","14","2","P","C","126"
"","","approach-retreat","130","1139951","0.0-130.0","","","2-3","5085","40","0","Training","Stims/Figures/102-J-10-4.bmp","mala:la","Up","38","8","15","2","S","C","127"
"","","approach-retreat","131","1147021","0.0-131.0","","","2-3","5565","38","1","Training","Stims/Figures/27-C-30-1.bmp","tapaka","Down","38","8","16","2","P","C","128"
"","","approach-retreat","132","1154904","0.0-132.0","","","2-3","6359","37","0","Training","Stims/Figures/144-J-10-3.bmp","mala:la","Right","39","9","1","2","S","C","129"
"","","approach-retreat","133","1163882","0.0-133.0","","","2-3","7467","38","1","Training","Stims/Figures/144-C-30-3.bmp","tapaka","Down","38","9","2","2","P","C","130"
"","","approach-retreat","134","1169925","0.0-134.0","","","2-3","4531","37","1","Training","Stims/Figures/102-C-20-4.bmp","tapaka","Right","37","9","3","2","P","C","131"
"","","approach-retreat","135","1181804","0.0-135.0","","","2-3","10366","37","0","Training","Stims/Figures/19-C-20-4.bmp","tapaka","Left","39","9","4","2","P","C","132"
"","","approach-retreat","136","1187952","0.0-136.0","","","2-3","4607","38","1","Training","Stims/Figures/111-C-30-3.bmp","tapaka","Down","38","9","5","2","P","C","133"
"","","approach-retreat","137","1194061","0.0-137.0","","","2-3","4599","37","1","Training","Stims/Figures/139-J-0-2.bmp","mala:la","Left","37","9","6","2","S","C","134"
"","","approach-retreat","138","1200007","0.0-138.0","","","2-3","4440","37","1","Training","Stims/Figures/71-J-0-1.bmp","mala:la","Left","37","9","7","2","S","C","135"
"","","approach-retreat","139","1205878","0.0-139.0","","","2-3","4353","37","1","Training","Stims/Figures/111-J-10-3.bmp","mala:la","Left","37","9","8","2","S","C","136"
"","","approach-retreat","140","1211990","0.0-140.0","","","2-3","4601","38","1","Training","Stims/Figures/85-J-0-2.bmp","mala:la","Up","38","9","9","2","S","C","137"
"","","approach-retreat","141","1218574","0.0-141.0","","","2-3","5072","38","1","Training","Stims/Figures/27-J-0-1.bmp","mala:la","Up","38","9","10","2","S","C","138"
"","","approach-retreat","142","1225052","0.0-142.0","","","2-3","4969","39","1","Training","Stims/Figures/102-J-10-4.bmp","mala:la","Right","39","9","11","2","S","C","139"
"","","approach-retreat","143","1231265","0.0-143.0","","","2-3","4702","40","1","Training","Stims/Figures/19-J-10-4.bmp","mala:la","Down","40","9","12","2","S","C","140"
"","","approach-retreat","144","1239347","0.0-144.0","","","2-3","6575","38","0","Training","Stims/Figures/139-C-20-2.bmp","tapaka","Up","40","9","13","2","P","C","141"
"","","approach-retreat","145","1245326","0.0-145.0","","","2-3","4472","40","1","Training","Stims/Figures/71-C-30-1.bmp","tapaka","Up","40","9","14","2","P","C","142"
"","","approach-retreat","146","1250927","0.0-146.0","","","2-3","4096","37","1","Training","Stims/Figures/27-C-30-1.bmp","tapaka","Right","37","9","15","2","P","C","143"
"","","approach-retreat","147","1257107","0.0-147.0","","","2-3","4665","38","1","Training","Stims/Figures/85-C-20-2.bmp","tapaka","Down","38","9","16","2","P","C","144"
"25123","","instructions","148","1282230","0.0-148.0","[{""page_index"":0,""viewing_time"":25122}]","","","","","","","","","","","","","","","",""
"","","approach-retreat","149","1288641","0.0-149.0","","","2-3","4906","40","0","Testing","Stims/Figures/44-J-10-3.bmp","mala:la","Up","38","1","1","2","S","C","1"
"","","approach-retreat","150","1294654","0.0-150.0","","","2-3","4474","37","1","Testing","Stims/Figures/102-C-20-4.bmp","tapaka","Right","37","1","2","2","P","C","2"
"","","approach-retreat","151","1301381","0.0-151.0","","","2-3","5218","39","0","Testing","Stims/Figures/19-J-10-4.bmp","mala:la","Left","37","1","3","2","S","C","3"
"","","approach-retreat","152","1307700","0.0-152.0","","","2-3","4812","39","1","Testing","Stims/Figures/139-J-0-2.bmp","mala:la","Right","39","1","4","2","S","C","4"
"","","approach-retreat","153","1313862","0.0-153.0","","","2-3","4655","40","1","Testing","Stims/Figures/94-C-20-2.bmp","tapaka","Up","40","1","5","2","P","C","5"
"","","approach-retreat","154","1322221","0.0-154.0","","","2-3","6854","38","0","Testing","Stims/Figures/139-C-20-2.bmp","tapaka","Up","40","1","6","2","P","C","6"
"","","approach-retreat","155","1332218","0.0-155.0","","","2-3","8488","38","1","Testing","Stims/Figures/27-C-30-1.bmp","tapaka","Down","38","1","7","2","P","C","7"
"","","approach-retreat","156","1338965","0.0-156.0","","","2-3","5236","38","1","Testing","Stims/Figures/44-C-30-3.bmp","tapaka","Down","38","1","8","2","P","C","8"
"","","approach-retreat","157","1345349","0.0-157.0","","","2-3","4875","39","1","Testing","Stims/Figures/94-J-0-2.bmp","mala:la","Right","39","1","9","2","S","C","9"
"","","approach-retreat","158","1353195","0.0-158.0","","","2-3","6340","38","0","Testing","Stims/Figures/7-C-20-4.bmp","tapaka","Up","40","1","10","2","P","C","10"
"","","approach-retreat","159","1359611","0.0-159.0","","","2-3","4899","39","1","Testing","Stims/Figures/144-J-10-3.bmp","mala:la","Right","39","1","11","2","S","C","11"
"","","approach-retreat","160","1367812","0.0-160.0","","","2-3","6686","40","1","Testing","Stims/Figures/85-J-0-2.bmp","mala:la","Down","40","1","12","2","S","C","12"
"","","approach-retreat","161","1373794","0.0-161.0","","","2-3","4474","39","1","Testing","Stims/Figures/144-C-30-3.bmp","tapaka","Left","39","1","13","2","P","C","13"
"","","approach-retreat","162","1381791","0.0-162.0","","","2-3","6483","37","1","Testing","Stims/Figures/27-J-0-1.bmp","mala:la","Left","37","1","14","2","S","C","14"
"","","approach-retreat","163","1388647","0.0-163.0","","","2-3","5337","39","1","Testing","Stims/Figures/57-C-30-1.bmp","tapaka","Left","39","1","15","2","P","C","15"
"","","approach-retreat","164","1394435","0.0-164.0","","","2-3","4280","40","1","Testing","Stims/Figures/71-C-30-1.bmp","tapaka","Up","40","1","16","2","P","C","16"
"","","approach-retreat","165","1400310","0.0-165.0","","","2-3","4347","37","0","Testing","Stims/Figures/102-J-10-4.bmp","mala:la","Right","39","1","17","2","S","C","17"
"","","approach-retreat","166","1407605","0.0-166.0","","","2-3","5786","38","0","Testing","Stims/Figures/111-J-10-3.bmp","mala:la","Down","40","1","18","2","S","C","18"
"","","approach-retreat","167","1414076","0.0-167.0","","","2-3","4957","39","1","Testing","Stims/Figures/19-C-20-4.bmp","tapaka","Left","39","1","19","2","P","C","19"
"","","approach-retreat","168","1424768","0.0-168.0","","","2-3","9185","40","1","Testing","Stims/Figures/7-J-10-4.bmp","mala:la","Down","40","1","20","2","S","C","20"
"","","approach-retreat","169","1431382","0.0-169.0","","","2-3","5107","40","1","Testing","Stims/Figures/57-J-0-1.bmp","mala:la","Down","40","1","21","2","S","C","21"
"","","approach-retreat","170","1437372","0.0-170.0","","","2-3","4485","37","1","Testing","Stims/Figures/111-C-30-3.bmp","tapaka","Right","37","1","22","2","P","C","22"
"","","approach-retreat","171","1443592","0.0-171.0","","","2-3","4714","40","1","Testing","Stims/Figures/85-C-20-2.bmp","tapaka","Up","40","1","23","2","P","C","23"
"","","approach-retreat","172","1450050","0.0-172.0","","","2-3","4951","37","1","Testing","Stims/Figures/71-J-0-1.bmp","mala:la","Left","37","1","24","2","S","C","24"
"","","approach-retreat","173","1456879","0.0-173.0","","","2-3","5319","38","1","Testing","Stims/Figures/71-J-0-1.bmp","mala:la","Up","38","2","1","2","S","C","25"
"","","approach-retreat","174","1464407","0.0-174.0","","","2-3","6024","39","1","Testing","Stims/Figures/7-C-20-4.bmp","tapaka","Left","39","2","2","2","P","C","26"
"","","approach-retreat","175","1472849","0.0-175.0","","","2-3","6931","38","1","Testing","Stims/Figures/27-C-30-1.bmp","tapaka","Down","38","2","3","2","P","C","27"
"","","approach-retreat","176","1481077","0.0-176.0","","","2-3","6703","39","1","Testing","Stims/Figures/44-J-10-3.bmp","mala:la","Right","39","2","4","2","S","C","28"
"","","approach-retreat","177","1487515","0.0-177.0","","","2-3","4933","38","1","Testing","Stims/Figures/85-J-0-2.bmp","mala:la","Up","38","2","5","2","S","C","29"
"","","approach-retreat","178","1493861","0.0-178.0","","","2-3","4837","40","1","Testing","Stims/Figures/44-C-30-3.bmp","tapaka","Up","40","2","6","2","P","C","30"
"","","approach-retreat","179","1500080","0.0-179.0","","","2-3","4712","37","1","Testing","Stims/Figures/57-C-30-1.bmp","tapaka","Right","37","2","7","2","P","C","31"
"","","approach-retreat","180","1522580","0.0-180.0","","","2-3","20987","37","1","Testing","Stims/Figures/19-C-20-4.bmp","tapaka","Right","37","2","8","2","P","C","32"
"","","approach-retreat","181","1533778","0.0-181.0","","","2-3","9685","38","1","Testing","Stims/Figures/94-C-20-2.bmp","tapaka","Down","38","2","9","2","P","C","33"
"","","approach-retreat","182","1543998","0.0-182.0","","","2-3","8708","39","1","Testing","Stims/Figures/102-C-20-4.bmp","tapaka","Left","39","2","10","2","P","C","34"
"","","approach-retreat","183","1552423","0.0-183.0","","","2-3","6922","39","0","Testing","Stims/Figures/139-C-20-2.bmp","tapaka","Right","37","2","11","2","P","C","35"
"","","approach-retreat","184","1561722","0.0-184.0","","","2-3","7787","39","0","Testing","Stims/Figures/19-J-10-4.bmp","mala:la","Left","37","2","12","2","S","C","36"
"","","approach-retreat","185","1567960","0.0-185.0","","","2-3","4730","40","0","Testing","Stims/Figures/102-J-10-4.bmp","mala:la","Up","38","2","13","2","S","C","37"
"","","approach-retreat","186","1575530","0.0-186.0","","","2-3","6062","39","1","Testing","Stims/Figures/27-J-0-1.bmp","mala:la","Right","39","2","14","2","S","C","38"
"","","approach-retreat","187","1582049","0.0-187.0","","","2-3","5011","38","1","Testing","Stims/Figures/94-J-0-2.bmp","mala:la","Up","38","2","15","2","S","C","39"
"","","approach-retreat","188","1592295","0.0-188.0","","","2-3","8740","37","1","Testing","Stims/Figures/111-J-10-3.bmp","mala:la","Left","37","2","16","2","S","C","40"
"","","approach-retreat","189","1599274","0.0-189.0","","","2-3","5474","38","1","Testing","Stims/Figures/111-C-30-3.bmp","tapaka","Down","38","2","17","2","P","C","41"
"","","approach-retreat","190","1608072","0.0-190.0","","","2-3","7290","38","1","Testing","Stims/Figures/71-C-30-1.bmp","tapaka","Down","38","2","18","2","P","C","42"
"","","approach-retreat","191","1614052","0.0-191.0","","","2-3","4472","40","0","Testing","Stims/Figures/144-J-10-3.bmp","mala:la","Up","38","2","19","2","S","C","43"
"","","approach-retreat","192","1620935","0.0-192.0","","","2-3","5372","39","1","Testing","Stims/Figures/144-C-30-3.bmp","tapaka","Left","39","2","20","2","P","C","44"
"","","approach-retreat","193","1630619","0.0-193.0","","","2-3","8177","38","1","Testing","Stims/Figures/85-C-20-2.bmp","tapaka","Down","38","2","21","2","P","C","45"
"","","approach-retreat","194","1637324","0.0-194.0","","","2-3","5193","37","1","Testing","Stims/Figures/7-J-10-4.bmp","mala:la","Left","37","2","22","2","S","C","46"
"","","approach-retreat","195","1643785","0.0-195.0","","","2-3","4955","40","1","Testing","Stims/Figures/139-J-0-2.bmp","mala:la","Down","40","2","23","2","S","C","47"
"","","approach-retreat","196","1650342","0.0-196.0","","","2-3","5052","39","1","Testing","Stims/Figures/57-J-0-1.bmp","mala:la","Right","39","2","24","2","S","C","48"
"","","approach-retreat","197","1657309","0.0-197.0","","","2-3","5451","37","1","Testing","Stims/Figures/139-C-20-2.bmp","tapaka","Right","37","3","1","2","P","C","49"
"","","approach-retreat","198","1664188","0.0-198.0","","","2-3","5337","38","1","Testing","Stims/Figures/57-J-0-1.bmp","mala:la","Up","38","3","2","2","S","C","50"
"","","approach-retreat","199","1671305","0.0-199.0","","","2-3","5581","37","1","Testing","Stims/Figures/57-C-30-1.bmp","tapaka","Right","37","3","3","2","P","C","51"
"","","approach-retreat","200","1679649","0.0-200.0","","","2-3","6837","37","0","Testing","Stims/Figures/44-J-10-3.bmp","mala:la","Right","39","3","4","2","S","C","52"
"","","approach-retreat","201","1686219","0.0-201.0","","","2-3","5065","39","0","Testing","Stims/Figures/7-C-20-4.bmp","tapaka","Right","37","3","5","2","P","C","53"
"","","approach-retreat","202","1695583","0.0-202.0","","","2-3","7814","39","1","Testing","Stims/Figures/85-C-20-2.bmp","tapaka","Left","39","3","6","2","P","C","54"
"","","approach-retreat","203","1701764","0.0-203.0","","","2-3","4672","37","0","Testing","Stims/Figures/19-J-10-4.bmp","mala:la","Right","39","3","7","2","S","C","55"
"","","approach-retreat","204","1708113","0.0-204.0","","","2-3","4838","40","1","Testing","Stims/Figures/85-J-0-2.bmp","mala:la","Down","40","3","8","2","S","C","56"
"","","approach-retreat","205","1714577","0.0-205.0","","","2-3","4959","40","1","Testing","Stims/Figures/111-J-10-3.bmp","mala:la","Down","40","3","9","2","S","C","57"
"","","approach-retreat","206","1720873","0.0-206.0","","","2-3","4788","40","1","Testing","Stims/Figures/71-C-30-1.bmp","tapaka","Up","40","3","10","2","P","C","58"
"","","approach-retreat","207","1730013","0.0-207.0","","","2-3","7631","39","1","Testing","Stims/Figures/44-C-30-3.bmp","tapaka","Left","39","3","11","2","P","C","59"
"","","approach-retreat","208","1737965","0.0-208.0","","","2-3","6445","40","1","Testing","Stims/Figures/19-C-20-4.bmp","tapaka","Up","40","3","12","2","P","C","60"
"","","approach-retreat","209","1745929","0.0-209.0","","","2-3","6457","37","1","Testing","Stims/Figures/7-J-10-4.bmp","mala:la","Left","37","3","13","2","S","C","61"
"","","approach-retreat","210","1754686","0.0-210.0","","","2-3","7252","38","1","Testing","Stims/Figures/27-C-30-1.bmp","tapaka","Down","38","3","14","2","P","C","62"
"","","approach-retreat","211","1762137","0.0-211.0","","","2-3","5945","40","0","Testing","Stims/Figures/102-J-10-4.bmp","mala:la","Up","38","3","15","2","S","C","63"
"","","approach-retreat","212","1768320","0.0-212.0","","","2-3","4675","39","1","Testing","Stims/Figures/94-J-0-2.bmp","mala:la","Right","39","3","16","2","S","C","64"
"","","approach-retreat","213","1776385","0.0-213.0","","","2-3","6520","39","1","Testing","Stims/Figures/94-C-20-2.bmp","tapaka","Left","39","3","17","2","P","C","65"
"","","approach-retreat","214","1782606","0.0-214.0","","","2-3","4712","40","1","Testing","Stims/Figures/139-J-0-2.bmp","mala:la","Down","40","3","18","2","S","C","66"
"","","approach-retreat","215","1790098","0.0-215.0","","","2-3","5986","37","1","Testing","Stims/Figures/27-J-0-1.bmp","mala:la","Left","37","3","19","2","S","C","67"
"","","approach-retreat","216","1807611","0.0-216.0","","","2-3","16005","38","0","Testing","Stims/Figures/144-J-10-3.bmp","mala:la","Down","40","3","20","2","S","C","68"
"","","approach-retreat","217","1819904","0.0-217.0","","","2-3","10789","38","1","Testing","Stims/Figures/111-C-30-3.bmp","tapaka","Down","38","3","21","2","P","C","69"
"","","approach-retreat","218","1826605","0.0-218.0","","","2-3","5192","40","1","Testing","Stims/Figures/144-C-30-3.bmp","tapaka","Up","40","3","22","2","P","C","70"
"","","approach-retreat","219","1833235","0.0-219.0","","","2-3","5117","37","1","Testing","Stims/Figures/71-J-0-1.bmp","mala:la","Left","37","3","23","2","S","C","71"
"","","approach-retreat","220","1839481","0.0-220.0","","","2-3","4736","40","1","Testing","Stims/Figures/102-C-20-4.bmp","tapaka","Up","40","3","24","2","P","C","72"
"","","approach-retreat","221","1845958","0.0-221.0","","","2-3","4970","38","1","Testing","Stims/Figures/111-C-30-3.bmp","tapaka","Down","38","4","1","2","P","C","73"
"","","approach-retreat","222","1854774","0.0-222.0","","","2-3","7308","37","0","Testing","Stims/Figures/19-J-10-4.bmp","mala:la","Right","39","4","2","2","S","C","74"
"","","approach-retreat","223","1861179","0.0-223.0","","","2-3","4900","37","1","Testing","Stims/Figures/71-J-0-1.bmp","mala:la","Left","37","4","3","2","S","C","75"
"","","approach-retreat","224","1867608","0.0-224.0","","","2-3","4917","38","1","Testing","Stims/Figures/57-J-0-1.bmp","mala:la","Up","38","4","4","2","S","C","76"
"","","approach-retreat","225","1874462","0.0-225.0","","","2-3","5345","38","1","Testing","Stims/Figures/94-J-0-2.bmp","mala:la","Up","38","4","5","2","S","C","77"
"","","approach-retreat","226","1881332","0.0-226.0","","","2-3","5347","38","1","Testing","Stims/Figures/27-C-30-1.bmp","tapaka","Down","38","4","6","2","P","C","78"
"","","approach-retreat","227","1891685","0.0-227.0","","","2-3","8846","40","1","Testing","Stims/Figures/57-C-30-1.bmp","tapaka","Up","40","4","7","2","P","C","79"
"","","approach-retreat","228","1900797","0.0-228.0","","","2-3","7605","38","1","Testing","Stims/Figures/102-C-20-4.bmp","tapaka","Down","38","4","8","2","P","C","80"
"","","approach-retreat","229","1907718","0.0-229.0","","","2-3","5408","39","1","Testing","Stims/Figures/44-J-10-3.bmp","mala:la","Right","39","4","9","2","S","C","81"
"","","approach-retreat","230","1913473","0.0-230.0","","","2-3","4251","39","1","Testing","Stims/Figures/144-C-30-3.bmp","tapaka","Left","39","4","10","2","P","C","82"
"","","approach-retreat","231","1919788","0.0-231.0","","","2-3","4810","39","1","Testing","Stims/Figures/44-C-30-3.bmp","tapaka","Left","39","4","11","2","P","C","83"
"","","approach-retreat","232","1925899","0.0-232.0","","","2-3","4604","37","0","Testing","Stims/Figures/7-C-20-4.bmp","tapaka","Left","39","4","12","2","P","C","84"
"","","approach-retreat","233","1933724","0.0-233.0","","","2-3","6309","40","1","Testing","Stims/Figures/27-J-0-1.bmp","mala:la","Down","40","4","13","2","S","C","85"
"","","approach-retreat","234","1940330","0.0-234.0","","","2-3","5094","37","1","Testing","Stims/Figures/139-C-20-2.bmp","tapaka","Right","37","4","14","2","P","C","86"
"","","approach-retreat","235","1946868","0.0-235.0","","","2-3","5030","40","1","Testing","Stims/Figures/7-J-10-4.bmp","mala:la","Down","40","4","15","2","S","C","87"
"","","approach-retreat","236","1952868","0.0-236.0","","","2-3","4489","37","1","Testing","Stims/Figures/85-C-20-2.bmp","tapaka","Right","37","4","16","2","P","C","88"
"","","approach-retreat","237","1958976","0.0-237.0","","","2-3","4600","39","1","Testing","Stims/Figures/19-C-20-4.bmp","tapaka","Left","39","4","17","2","P","C","89"
"","","approach-retreat","238","1965637","0.0-238.0","","","2-3","5154","38","1","Testing","Stims/Figures/139-J-0-2.bmp","mala:la","Up","38","4","18","2","S","C","90"
"","","approach-retreat","239","1972315","0.0-239.0","","","2-3","5162","38","1","Testing","Stims/Figures/111-J-10-3.bmp","mala:la","Up","38","4","19","2","S","C","91"
"","","approach-retreat","240","1978772","0.0-240.0","","","2-3","4952","38","1","Testing","Stims/Figures/94-C-20-2.bmp","tapaka","Down","38","4","20","2","P","C","92"
"","","approach-retreat","241","1986340","0.0-241.0","","","2-3","6061","37","1","Testing","Stims/Figures/71-C-30-1.bmp","tapaka","Right","37","4","21","2","P","C","93"
"","","approach-retreat","242","1992661","0.0-242.0","","","2-3","4813","37","1","Testing","Stims/Figures/85-J-0-2.bmp","mala:la","Left","37","4","22","2","S","C","94"
"","","approach-retreat","243","1999549","0.0-243.0","","","2-3","5379","40","0","Testing","Stims/Figures/144-J-10-3.bmp","mala:la","Up","38","4","23","2","S","C","95"
"","","approach-retreat","244","2007194","0.0-244.0","","","2-3","6140","37","0","Testing","Stims/Figures/102-J-10-4.bmp","mala:la","Right","39","4","24","2","S","C","96"
"51632","","survey-text","245","2059006","0.0-245.0","","{""Q0"":""1111""}","","","","","","","","","","","","","","",""
