"rt","key_press","trial_type","trial_index","time_elapsed","internal_node_id","view_history","responses","Id","Rt","ResKeyCode","ResCorr","TrialType2","Image","Label","Location","CorrectResponse","Block","BlockTrial","Condition","LabelType","Subcondition","trialNum"
"27206","32","text","0","27207","0.0-0.0-0.0","","","","","","","","","","","","","","","","",""
"68214","","instructions","1","95424","0.0-1.0","[{""page_index"":0,""viewing_time"":68213}]","","","","","","","","","","","","","","","",""
"22024","","survey-multi-choice","2","117485","0.0-2.0","","{""Q0"":""Da"",""Q1"":""Da"",""Q2"":""Da"",""Q3"":""Da"",""Q4"":""Da"",""Q5"":""Da""}","","","","","","","","","","","","","","",""
"","","bio","3","126528","0.0-3.0","","{""age"":""19"",""gender"":""f"",""specify"":""""}","","","","","","","","","","","","","","",""
"","","approach-retreat","4","135633","0.0-4.0","","","3-4","7435","39","0","Training","Stims/Figures/7-J-10-4.bmp","paka:ka","Left","37","1","1","4","P","C","1"
"","","approach-retreat","5","144163","0.0-5.0","","","3-4","7016","38","1","Training","Stims/Figures/85-J-0-2.bmp","takaka","Up","38","1","2","4","P","C","2"
"","","approach-retreat","6","152368","0.0-6.0","","","3-4","6696","37","1","Training","Stims/Figures/74-J-10-4.bmp","papa:ta","Left","37","1","3","4","P","C","3"
"","","approach-retreat","7","160811","0.0-7.0","","","3-4","6938","40","1","Training","Stims/Figures/7-C-20-4.bmp","nala:la","Up","40","1","4","4","S","C","4"
"","","approach-retreat","8","170563","0.0-8.0","","","3-4","8244","40","1","Training","Stims/Figures/86-J-0-1.bmp","ta:ka:ka","Down","40","1","5","4","P","C","5"
"","","approach-retreat","9","178188","0.0-9.0","","","3-4","6119","37","0","Training","Stims/Figures/100-C-30-3.bmp","na:mana","Left","39","1","6","4","S","C","6"
"","","approach-retreat","10","184092","0.0-10.0","","","3-4","4382","38","1","Training","Stims/Figures/86-C-30-1.bmp","ma:ma:la","Down","38","1","7","4","S","C","7"
"","","approach-retreat","11","190008","0.0-11.0","","","3-4","4382","37","0","Training","Stims/Figures/57-J-0-1.bmp","tapa:ta","Right","39","1","8","4","P","C","8"
"","","approach-retreat","12","196152","0.0-12.0","","","3-4","4613","39","1","Training","Stims/Figures/144-J-10-3.bmp","papa:ka","Right","39","1","9","4","P","C","9"
"","","approach-retreat","13","203041","0.0-13.0","","","3-4","5381","40","1","Training","Stims/Figures/139-C-20-2.bmp","mama:na","Up","40","1","10","4","S","C","10"
"","","approach-retreat","14","210103","0.0-14.0","","","3-4","5555","38","0","Training","Stims/Figures/144-C-30-3.bmp","malana","Up","40","1","11","4","S","C","11"
"","","approach-retreat","15","216863","0.0-15.0","","","3-4","5253","37","0","Training","Stims/Figures/100-J-10-3.bmp","pa:ka:ka","Right","39","1","12","4","P","C","12"
"","","approach-retreat","16","222744","0.0-16.0","","","3-4","4375","40","1","Training","Stims/Figures/139-J-0-2.bmp","ta:paka","Down","40","1","13","4","P","C","13"
"","","approach-retreat","17","229074","0.0-17.0","","","3-4","4821","39","1","Training","Stims/Figures/57-C-30-1.bmp","ma:mala","Left","39","1","14","4","S","C","14"
"","","approach-retreat","18","235009","0.0-18.0","","","3-4","4431","39","0","Training","Stims/Figures/74-C-20-4.bmp","na:lana","Right","37","1","15","4","S","C","15"
"","","approach-retreat","19","241378","0.0-19.0","","","3-4","4865","40","0","Training","Stims/Figures/85-C-20-2.bmp","ma:lala","Down","38","1","16","4","S","C","16"
"","","approach-retreat","20","247519","0.0-20.0","","","3-4","4636","40","1","Training","Stims/Figures/85-C-20-2.bmp","ma:lala","Up","40","2","1","4","S","C","17"
"","","approach-retreat","21","253319","0.0-21.0","","","3-4","4293","40","1","Training","Stims/Figures/57-J-0-1.bmp","tapa:ta","Down","40","2","2","4","P","C","18"
"","","approach-retreat","22","259106","0.0-22.0","","","3-4","4266","38","1","Training","Stims/Figures/74-J-10-4.bmp","papa:ta","Up","38","2","3","4","P","C","19"
"","","approach-retreat","23","265277","0.0-23.0","","","3-4","4665","39","1","Training","Stims/Figures/139-J-0-2.bmp","ta:paka","Right","39","2","4","4","P","C","20"
"","","approach-retreat","24","272489","0.0-24.0","","","3-4","5708","38","1","Training","Stims/Figures/7-C-20-4.bmp","nala:la","Down","38","2","5","4","S","C","21"
"","","approach-retreat","25","278619","0.0-25.0","","","3-4","4619","40","1","Training","Stims/Figures/86-J-0-1.bmp","ta:ka:ka","Down","40","2","6","4","P","C","22"
"","","approach-retreat","26","284781","0.0-26.0","","","3-4","4640","38","1","Training","Stims/Figures/100-J-10-3.bmp","pa:ka:ka","Up","38","2","7","4","P","C","23"
"","","approach-retreat","27","290545","0.0-27.0","","","3-4","4258","40","1","Training","Stims/Figures/7-J-10-4.bmp","paka:ka","Down","40","2","8","4","P","C","24"
"","","approach-retreat","28","296380","0.0-28.0","","","3-4","4329","39","1","Training","Stims/Figures/57-C-30-1.bmp","ma:mala","Left","39","2","9","4","S","C","25"
"","","approach-retreat","29","302464","0.0-29.0","","","3-4","4565","37","1","Training","Stims/Figures/85-J-0-2.bmp","takaka","Left","37","2","10","4","P","C","26"
"","","approach-retreat","30","308923","0.0-30.0","","","3-4","4952","37","1","Training","Stims/Figures/139-C-20-2.bmp","mama:na","Right","37","2","11","4","S","C","27"
"","","approach-retreat","31","314684","0.0-31.0","","","3-4","4255","39","1","Training","Stims/Figures/74-C-20-4.bmp","na:lana","Left","39","2","12","4","S","C","28"
"","","approach-retreat","32","320379","0.0-32.0","","","3-4","4188","40","1","Training","Stims/Figures/86-C-30-1.bmp","ma:ma:la","Up","40","2","13","4","S","C","29"
"","","approach-retreat","33","326059","0.0-33.0","","","3-4","4170","39","1","Training","Stims/Figures/144-C-30-3.bmp","malana","Left","39","2","14","4","S","C","30"
"","","approach-retreat","34","331948","0.0-34.0","","","3-4","4383","37","1","Training","Stims/Figures/100-C-30-3.bmp","na:mana","Right","37","2","15","4","S","C","31"
"","","approach-retreat","35","337697","0.0-35.0","","","3-4","4239","39","1","Training","Stims/Figures/144-J-10-3.bmp","papa:ka","Right","39","2","16","4","P","C","32"
"","","approach-retreat","36","343455","0.0-36.0","","","3-4","4244","37","1","Training","Stims/Figures/85-J-0-2.bmp","takaka","Left","37","3","1","4","P","C","33"
"","","approach-retreat","37","349634","0.0-37.0","","","3-4","4670","38","1","Training","Stims/Figures/57-C-30-1.bmp","ma:mala","Down","38","3","2","4","S","C","34"
"","","approach-retreat","38","355191","0.0-38.0","","","3-4","4043","39","1","Training","Stims/Figures/139-J-0-2.bmp","ta:paka","Right","39","3","3","4","P","C","35"
"","","approach-retreat","39","361461","0.0-39.0","","","3-4","4760","38","1","Training","Stims/Figures/86-J-0-1.bmp","ta:ka:ka","Up","38","3","4","4","P","C","36"
"","","approach-retreat","40","367375","0.0-40.0","","","3-4","4407","38","1","Training","Stims/Figures/139-C-20-2.bmp","mama:na","Down","38","3","5","4","S","C","37"
"","","approach-retreat","41","373384","0.0-41.0","","","3-4","4498","37","1","Training","Stims/Figures/57-J-0-1.bmp","tapa:ta","Left","37","3","6","4","P","C","38"
"","","approach-retreat","42","380019","0.0-42.0","","","3-4","5128","37","1","Training","Stims/Figures/74-C-20-4.bmp","na:lana","Right","37","3","7","4","S","C","39"
"","","approach-retreat","43","386105","0.0-43.0","","","3-4","4580","39","1","Training","Stims/Figures/7-J-10-4.bmp","paka:ka","Right","39","3","8","4","P","C","40"
"","","approach-retreat","44","391776","0.0-44.0","","","3-4","4166","38","1","Training","Stims/Figures/74-J-10-4.bmp","papa:ta","Up","38","3","9","4","P","C","41"
"","","approach-retreat","45","397689","0.0-45.0","","","3-4","4401","38","1","Training","Stims/Figures/144-J-10-3.bmp","papa:ka","Up","38","3","10","4","P","C","42"
"","","approach-retreat","46","403527","0.0-46.0","","","3-4","4332","40","1","Training","Stims/Figures/144-C-30-3.bmp","malana","Up","40","3","11","4","S","C","43"
"","","approach-retreat","47","409268","0.0-47.0","","","3-4","4235","38","1","Training","Stims/Figures/86-C-30-1.bmp","ma:ma:la","Down","38","3","12","4","S","C","44"
"","","approach-retreat","48","415224","0.0-48.0","","","3-4","4452","40","1","Training","Stims/Figures/100-J-10-3.bmp","pa:ka:ka","Down","40","3","13","4","P","C","45"
"","","approach-retreat","49","421554","0.0-49.0","","","3-4","4826","39","1","Training","Stims/Figures/100-C-30-3.bmp","na:mana","Left","39","3","14","4","S","C","46"
"","","approach-retreat","50","428155","0.0-50.0","","","3-4","5088","39","1","Training","Stims/Figures/7-C-20-4.bmp","nala:la","Left","39","3","15","4","S","C","47"
"","","approach-retreat","51","434176","0.0-51.0","","","3-4","4511","37","1","Training","Stims/Figures/85-C-20-2.bmp","ma:lala","Right","37","3","16","4","S","C","48"
"","","approach-retreat","52","440264","0.0-52.0","","","3-4","4581","39","1","Training","Stims/Figures/139-C-20-2.bmp","mama:na","Left","39","4","1","4","S","C","49"
"","","approach-retreat","53","446614","0.0-53.0","","","3-4","4843","39","1","Training","Stims/Figures/144-C-30-3.bmp","malana","Left","39","4","2","4","S","C","50"
"","","approach-retreat","54","452699","0.0-54.0","","","3-4","4575","39","1","Training","Stims/Figures/57-C-30-1.bmp","ma:mala","Left","39","4","3","4","S","C","51"
"","","approach-retreat","55","458693","0.0-55.0","","","3-4","4481","37","1","Training","Stims/Figures/86-J-0-1.bmp","ta:ka:ka","Left","37","4","4","4","P","C","52"
"","","approach-retreat","56","465536","0.0-56.0","","","3-4","5312","40","1","Training","Stims/Figures/74-J-10-4.bmp","papa:ta","Down","40","4","5","4","P","C","53"
"","","approach-retreat","57","471431","0.0-57.0","","","3-4","4388","40","1","Training","Stims/Figures/100-C-30-3.bmp","na:mana","Up","40","4","6","4","S","C","54"
"","","approach-retreat","58","477853","0.0-58.0","","","3-4","4910","38","1","Training","Stims/Figures/100-J-10-3.bmp","pa:ka:ka","Up","38","4","7","4","P","C","55"
"","","approach-retreat","59","485211","0.0-59.0","","","3-4","5840","38","1","Training","Stims/Figures/7-J-10-4.bmp","paka:ka","Up","38","4","8","4","P","C","56"
"","","approach-retreat","60","491694","0.0-60.0","","","3-4","4978","38","1","Training","Stims/Figures/7-C-20-4.bmp","nala:la","Down","38","4","9","4","S","C","57"
"","","approach-retreat","61","497648","0.0-61.0","","","3-4","4448","37","1","Training","Stims/Figures/85-C-20-2.bmp","ma:lala","Right","37","4","10","4","S","C","58"
"","","approach-retreat","62","503682","0.0-62.0","","","3-4","4523","39","1","Training","Stims/Figures/85-J-0-2.bmp","takaka","Right","39","4","11","4","P","C","59"
"","","approach-retreat","63","510292","0.0-63.0","","","3-4","5099","40","1","Training","Stims/Figures/86-C-30-1.bmp","ma:ma:la","Up","40","4","12","4","S","C","60"
"","","approach-retreat","64","516719","0.0-64.0","","","3-4","4910","39","1","Training","Stims/Figures/144-J-10-3.bmp","papa:ka","Right","39","4","13","4","P","C","61"
"","","approach-retreat","65","522655","0.0-65.0","","","3-4","4420","40","1","Training","Stims/Figures/139-J-0-2.bmp","ta:paka","Down","40","4","14","4","P","C","62"
"","","approach-retreat","66","528847","0.0-66.0","","","3-4","4684","37","1","Training","Stims/Figures/74-C-20-4.bmp","na:lana","Right","37","4","15","4","S","C","63"
"","","approach-retreat","67","534775","0.0-67.0","","","3-4","4420","40","1","Training","Stims/Figures/57-J-0-1.bmp","tapa:ta","Down","40","4","16","4","P","C","64"
"","","approach-retreat","68","540652","0.0-68.0","","","3-4","4359","40","1","Training","Stims/Figures/74-J-10-4.bmp","papa:ta","Down","40","5","1","4","P","C","65"
"","","approach-retreat","69","546827","0.0-69.0","","","3-4","4664","38","1","Training","Stims/Figures/85-C-20-2.bmp","ma:lala","Down","38","5","2","4","S","C","66"
"","","approach-retreat","70","552707","0.0-70.0","","","3-4","4374","37","1","Training","Stims/Figures/100-J-10-3.bmp","pa:ka:ka","Left","37","5","3","4","P","C","67"
"","","approach-retreat","71","558410","0.0-71.0","","","3-4","4191","39","1","Training","Stims/Figures/7-J-10-4.bmp","paka:ka","Right","39","5","4","4","P","C","68"
"","","approach-retreat","72","564317","0.0-72.0","","","3-4","4387","38","1","Training","Stims/Figures/86-J-0-1.bmp","ta:ka:ka","Up","38","5","5","4","P","C","69"
"","","approach-retreat","73","570031","0.0-73.0","","","3-4","4185","38","1","Training","Stims/Figures/57-J-0-1.bmp","tapa:ta","Up","38","5","6","4","P","C","70"
"","","approach-retreat","74","575873","0.0-74.0","","","3-4","4332","40","1","Training","Stims/Figures/74-C-20-4.bmp","na:lana","Up","40","5","7","4","S","C","71"
"","","approach-retreat","75","581868","0.0-75.0","","","3-4","4484","37","1","Training","Stims/Figures/85-J-0-2.bmp","takaka","Left","37","5","8","4","P","C","72"
"","","approach-retreat","76","588033","0.0-76.0","","","3-4","4645","37","1","Training","Stims/Figures/139-C-20-2.bmp","mama:na","Right","37","5","9","4","S","C","73"
"","","approach-retreat","77","594607","0.0-77.0","","","3-4","5068","39","1","Training","Stims/Figures/100-C-30-3.bmp","na:mana","Left","39","5","10","4","S","C","74"
"","","approach-retreat","78","600623","0.0-78.0","","","3-4","4511","40","1","Training","Stims/Figures/139-J-0-2.bmp","ta:paka","Down","40","5","11","4","P","C","75"
"","","approach-retreat","79","606425","0.0-79.0","","","3-4","4296","37","1","Training","Stims/Figures/7-C-20-4.bmp","nala:la","Right","37","5","12","4","S","C","76"
"","","approach-retreat","80","612349","0.0-80.0","","","3-4","4417","39","1","Training","Stims/Figures/86-C-30-1.bmp","ma:ma:la","Left","39","5","13","4","S","C","77"
"","","approach-retreat","81","618211","0.0-81.0","","","3-4","4355","40","1","Training","Stims/Figures/144-J-10-3.bmp","papa:ka","Down","40","5","14","4","P","C","78"
"","","approach-retreat","82","624264","0.0-82.0","","","3-4","4544","37","1","Training","Stims/Figures/57-C-30-1.bmp","ma:mala","Right","37","5","15","4","S","C","79"
"","","approach-retreat","83","630149","0.0-83.0","","","3-4","4377","40","1","Training","Stims/Figures/144-C-30-3.bmp","malana","Up","40","5","16","4","S","C","80"
"","","approach-retreat","84","635988","0.0-84.0","","","3-4","4329","39","1","Training","Stims/Figures/144-J-10-3.bmp","papa:ka","Right","39","6","1","4","P","C","81"
"","","approach-retreat","85","643629","0.0-85.0","","","3-4","6129","39","1","Training","Stims/Figures/74-J-10-4.bmp","papa:ta","Right","39","6","2","4","P","C","82"
"","","approach-retreat","86","649281","0.0-86.0","","","3-4","4149","37","1","Training","Stims/Figures/57-J-0-1.bmp","tapa:ta","Left","37","6","3","4","P","C","83"
"","","approach-retreat","87","655109","0.0-87.0","","","3-4","4322","40","1","Training","Stims/Figures/144-C-30-3.bmp","malana","Up","40","6","4","4","S","C","84"
"","","approach-retreat","88","661254","0.0-88.0","","","3-4","4641","38","1","Training","Stims/Figures/7-J-10-4.bmp","paka:ka","Up","38","6","5","4","P","C","85"
"","","approach-retreat","89","667316","0.0-89.0","","","3-4","4557","38","1","Training","Stims/Figures/139-C-20-2.bmp","mama:na","Down","38","6","6","4","S","C","86"
"","","approach-retreat","90","673441","0.0-90.0","","","3-4","4620","38","1","Training","Stims/Figures/57-C-30-1.bmp","ma:mala","Down","38","6","7","4","S","C","87"
"","","approach-retreat","91","679245","0.0-91.0","","","3-4","4300","39","1","Training","Stims/Figures/85-J-0-2.bmp","takaka","Right","39","6","8","4","P","C","88"
"","","approach-retreat","92","684996","0.0-92.0","","","3-4","4245","40","1","Training","Stims/Figures/74-C-20-4.bmp","na:lana","Up","40","6","9","4","S","C","89"
"","","approach-retreat","93","690847","0.0-93.0","","","3-4","4346","39","1","Training","Stims/Figures/86-C-30-1.bmp","ma:ma:la","Left","39","6","10","4","S","C","90"
"","","approach-retreat","94","696682","0.0-94.0","","","3-4","4330","40","1","Training","Stims/Figures/86-J-0-1.bmp","ta:ka:ka","Down","40","6","11","4","P","C","91"
"","","approach-retreat","95","702491","0.0-95.0","","","3-4","4304","37","1","Training","Stims/Figures/100-C-30-3.bmp","na:mana","Right","37","6","12","4","S","C","92"
"","","approach-retreat","96","708448","0.0-96.0","","","3-4","4449","37","1","Training","Stims/Figures/139-J-0-2.bmp","ta:paka","Left","37","6","13","4","P","C","93"
"","","approach-retreat","97","714800","0.0-97.0","","","3-4","4844","38","1","Training","Stims/Figures/100-J-10-3.bmp","pa:ka:ka","Up","38","6","14","4","P","C","94"
"","","approach-retreat","98","721146","0.0-98.0","","","3-4","4838","38","1","Training","Stims/Figures/7-C-20-4.bmp","nala:la","Down","38","6","15","4","S","C","95"
"","","approach-retreat","99","726805","0.0-99.0","","","3-4","4150","39","1","Training","Stims/Figures/85-C-20-2.bmp","ma:lala","Left","39","6","16","4","S","C","96"
"","","approach-retreat","100","732833","0.0-100.0","","","3-4","4520","38","1","Training","Stims/Figures/7-C-20-4.bmp","nala:la","Down","38","7","1","4","S","C","97"
"","","approach-retreat","101","738620","0.0-101.0","","","3-4","4283","39","1","Training","Stims/Figures/7-J-10-4.bmp","paka:ka","Right","39","7","2","4","P","C","98"
"","","approach-retreat","102","744521","0.0-102.0","","","3-4","4388","39","1","Training","Stims/Figures/86-J-0-1.bmp","ta:ka:ka","Right","39","7","3","4","P","C","99"
"","","approach-retreat","103","750348","0.0-103.0","","","3-4","4321","40","1","Training","Stims/Figures/74-J-10-4.bmp","papa:ta","Down","40","7","4","4","P","C","100"
"","","approach-retreat","104","756254","0.0-104.0","","","3-4","4397","40","1","Training","Stims/Figures/57-C-30-1.bmp","ma:mala","Up","40","7","5","4","S","C","101"
"","","approach-retreat","105","761862","0.0-105.0","","","3-4","4102","39","1","Training","Stims/Figures/85-C-20-2.bmp","ma:lala","Left","39","7","6","4","S","C","102"
"","","approach-retreat","106","768216","0.0-106.0","","","3-4","4842","39","1","Training","Stims/Figures/57-J-0-1.bmp","tapa:ta","Right","39","7","7","4","P","C","103"
"","","approach-retreat","107","773984","0.0-107.0","","","3-4","4263","37","1","Training","Stims/Figures/144-C-30-3.bmp","malana","Right","37","7","8","4","S","C","104"
"","","approach-retreat","108","780407","0.0-108.0","","","3-4","4915","38","1","Training","Stims/Figures/139-C-20-2.bmp","mama:na","Down","38","7","9","4","S","C","105"
"","","approach-retreat","109","786223","0.0-109.0","","","3-4","4310","38","1","Training","Stims/Figures/85-J-0-2.bmp","takaka","Up","38","7","10","4","P","C","106"
"","","approach-retreat","110","791987","0.0-110.0","","","3-4","4257","37","1","Training","Stims/Figures/139-J-0-2.bmp","ta:paka","Left","37","7","11","4","P","C","107"
"","","approach-retreat","111","797827","0.0-111.0","","","3-4","4329","38","1","Training","Stims/Figures/100-J-10-3.bmp","pa:ka:ka","Up","38","7","12","4","P","C","108"
"","","approach-retreat","112","803620","0.0-112.0","","","3-4","4288","38","1","Training","Stims/Figures/86-C-30-1.bmp","ma:ma:la","Down","38","7","13","4","S","C","109"
"","","approach-retreat","113","809172","0.0-113.0","","","3-4","4042","39","1","Training","Stims/Figures/74-C-20-4.bmp","na:lana","Left","39","7","14","4","S","C","110"
"","","approach-retreat","114","814743","0.0-114.0","","","3-4","4060","39","1","Training","Stims/Figures/100-C-30-3.bmp","na:mana","Left","39","7","15","4","S","C","111"
"","","approach-retreat","115","820439","0.0-115.0","","","3-4","4185","38","1","Training","Stims/Figures/144-J-10-3.bmp","papa:ka","Up","38","7","16","4","P","C","112"
"","","approach-retreat","116","826005","0.0-116.0","","","3-4","4057","39","1","Training","Stims/Figures/57-C-30-1.bmp","ma:mala","Left","39","8","1","4","S","C","113"
"","","approach-retreat","117","831531","0.0-117.0","","","3-4","4023","38","1","Training","Stims/Figures/74-J-10-4.bmp","papa:ta","Up","38","8","2","4","P","C","114"
"","","approach-retreat","118","837995","0.0-118.0","","","3-4","4959","40","1","Training","Stims/Figures/144-C-30-3.bmp","malana","Up","40","8","3","4","S","C","115"
"","","approach-retreat","119","843600","0.0-119.0","","","3-4","4097","39","1","Training","Stims/Figures/85-C-20-2.bmp","ma:lala","Left","39","8","4","4","S","C","116"
"","","approach-retreat","120","849343","0.0-120.0","","","3-4","4232","39","1","Training","Stims/Figures/7-J-10-4.bmp","paka:ka","Right","39","8","5","4","P","C","117"
"","","approach-retreat","121","855479","0.0-121.0","","","3-4","4626","40","1","Training","Stims/Figures/139-J-0-2.bmp","ta:paka","Down","40","8","6","4","P","C","118"
"","","approach-retreat","122","861229","0.0-122.0","","","3-4","4243","40","1","Training","Stims/Figures/57-J-0-1.bmp","tapa:ta","Down","40","8","7","4","P","C","119"
"","","approach-retreat","123","867419","0.0-123.0","","","3-4","4679","38","1","Training","Stims/Figures/74-C-20-4.bmp","na:lana","Down","38","8","8","4","S","C","120"
"","","approach-retreat","124","873257","0.0-124.0","","","3-4","4331","40","1","Training","Stims/Figures/139-C-20-2.bmp","mama:na","Up","40","8","9","4","S","C","121"
"","","approach-retreat","125","879001","0.0-125.0","","","3-4","4232","37","1","Training","Stims/Figures/100-C-30-3.bmp","na:mana","Right","37","8","10","4","S","C","122"
"","","approach-retreat","126","884732","0.0-126.0","","","3-4","4225","39","1","Training","Stims/Figures/85-J-0-2.bmp","takaka","Right","39","8","11","4","P","C","123"
"","","approach-retreat","127","890398","0.0-127.0","","","3-4","4154","37","1","Training","Stims/Figures/144-J-10-3.bmp","papa:ka","Left","37","8","12","4","P","C","124"
"","","approach-retreat","128","896385","0.0-128.0","","","3-4","4479","37","1","Training","Stims/Figures/86-J-0-1.bmp","ta:ka:ka","Left","37","8","13","4","P","C","125"
"","","approach-retreat","129","902072","0.0-129.0","","","3-4","4176","38","1","Training","Stims/Figures/86-C-30-1.bmp","ma:ma:la","Down","38","8","14","4","S","C","126"
"","","approach-retreat","130","908087","0.0-130.0","","","3-4","4508","40","1","Training","Stims/Figures/7-C-20-4.bmp","nala:la","Up","40","8","15","4","S","C","127"
"","","approach-retreat","131","913664","0.0-131.0","","","3-4","4069","39","1","Training","Stims/Figures/100-J-10-3.bmp","pa:ka:ka","Right","39","8","16","4","P","C","128"
"","","approach-retreat","132","919376","0.0-132.0","","","3-4","4205","38","1","Training","Stims/Figures/144-J-10-3.bmp","papa:ka","Up","38","9","1","4","P","C","129"
"","","approach-retreat","133","925330","0.0-133.0","","","3-4","4443","38","1","Training","Stims/Figures/85-C-20-2.bmp","ma:lala","Down","38","9","2","4","S","C","130"
"","","approach-retreat","134","931888","0.0-134.0","","","3-4","5052","40","1","Training","Stims/Figures/74-J-10-4.bmp","papa:ta","Down","40","9","3","4","P","C","131"
"","","approach-retreat","135","937998","0.0-135.0","","","3-4","4602","39","1","Training","Stims/Figures/7-J-10-4.bmp","paka:ka","Right","39","9","4","4","P","C","132"
"","","approach-retreat","136","943545","0.0-136.0","","","3-4","4040","39","1","Training","Stims/Figures/57-C-30-1.bmp","ma:mala","Left","39","9","5","4","S","C","133"
"","","approach-retreat","137","949418","0.0-137.0","","","3-4","4367","38","1","Training","Stims/Figures/86-J-0-1.bmp","ta:ka:ka","Up","38","9","6","4","P","C","134"
"","","approach-retreat","138","955216","0.0-138.0","","","3-4","4290","38","1","Training","Stims/Figures/7-C-20-4.bmp","nala:la","Down","38","9","7","4","S","C","135"
"","","approach-retreat","139","962449","0.0-139.0","","","3-4","5721","39","1","Training","Stims/Figures/100-J-10-3.bmp","pa:ka:ka","Right","39","9","8","4","P","C","136"
"","","approach-retreat","140","968349","0.0-140.0","","","3-4","4392","38","1","Training","Stims/Figures/139-J-0-2.bmp","ta:paka","Up","38","9","9","4","P","C","137"
"","","approach-retreat","141","974106","0.0-141.0","","","3-4","4248","37","1","Training","Stims/Figures/86-C-30-1.bmp","ma:ma:la","Right","37","9","10","4","S","C","138"
"","","approach-retreat","142","980292","0.0-142.0","","","3-4","4674","39","1","Training","Stims/Figures/74-C-20-4.bmp","na:lana","Left","39","9","11","4","S","C","139"
"","","approach-retreat","143","986189","0.0-143.0","","","3-4","4386","37","1","Training","Stims/Figures/139-C-20-2.bmp","mama:na","Right","37","9","12","4","S","C","140"
"","","approach-retreat","144","991928","0.0-144.0","","","3-4","4236","40","1","Training","Stims/Figures/100-C-30-3.bmp","na:mana","Up","40","9","13","4","S","C","141"
"","","approach-retreat","145","998064","0.0-145.0","","","3-4","4630","37","1","Training","Stims/Figures/85-J-0-2.bmp","takaka","Left","37","9","14","4","P","C","142"
"","","approach-retreat","146","1003691","0.0-146.0","","","3-4","4120","38","1","Training","Stims/Figures/144-C-30-3.bmp","malana","Down","38","9","15","4","S","C","143"
"","","approach-retreat","147","1010250","0.0-147.0","","","3-4","5049","37","1","Training","Stims/Figures/57-J-0-1.bmp","tapa:ta","Left","37","9","16","4","P","C","144"
"16581","","instructions","148","1026831","0.0-148.0","[{""page_index"":0,""viewing_time"":16579}]","","","","","","","","","","","","","","","",""
"","","approach-retreat","149","1033685","0.0-149.0","","","3-4","5349","39","0","Testing","Stims/Figures/144-C-30-3.bmp","malana","Right","37","1","1","4","S","C","1"
"","","approach-retreat","150","1039962","0.0-150.0","","","3-4","4769","38","0","Testing","Stims/Figures/84-J-0-2.bmp","pa:pata","Down","40","1","2","4","P","C","2"
"","","approach-retreat","151","1045745","0.0-151.0","","","3-4","4276","38","1","Testing","Stims/Figures/74-J-10-4.bmp","papa:ta","Up","38","1","3","4","P","C","3"
"","","approach-retreat","152","1052477","0.0-152.0","","","3-4","5225","38","0","Testing","Stims/Figures/86-J-0-1.bmp","ta:ka:ka","Down","40","1","4","4","P","C","4"
"","","approach-retreat","153","1058028","0.0-153.0","","","3-4","4045","37","0","Testing","Stims/Figures/139-C-20-2.bmp","mama:na","Left","39","1","5","4","S","C","5"
"","","approach-retreat","154","1063586","0.0-154.0","","","3-4","4051","39","0","Testing","Stims/Figures/144-J-10-3.bmp","papa:ka","Left","37","1","6","4","P","C","6"
"","","approach-retreat","155","1069022","0.0-155.0","","","3-4","3929","39","1","Testing","Stims/Figures/111-C-30-3.bmp","nalala","Left","39","1","7","4","S","C","7"
"","","approach-retreat","156","1075123","0.0-156.0","","","3-4","4595","38","1","Testing","Stims/Figures/57-J-0-1.bmp","tapa:ta","Up","38","1","8","4","P","C","8"
"","","approach-retreat","157","1080794","0.0-157.0","","","3-4","4164","38","1","Testing","Stims/Figures/85-J-0-2.bmp","takaka","Up","38","1","9","4","P","C","9"
"","","approach-retreat","158","1086319","0.0-158.0","","","3-4","4017","38","1","Testing","Stims/Figures/139-J-0-2.bmp","ta:paka","Up","38","1","10","4","P","C","10"
"","","approach-retreat","159","1091958","0.0-159.0","","","3-4","4132","37","1","Testing","Stims/Figures/84-C-20-2.bmp","nama:na","Right","37","1","11","4","S","C","11"
"","","approach-retreat","160","1097491","0.0-160.0","","","3-4","4025","39","1","Testing","Stims/Figures/86-C-30-1.bmp","ma:ma:la","Left","39","1","12","4","S","C","12"
"","","approach-retreat","161","1103114","0.0-161.0","","","3-4","4116","38","1","Testing","Stims/Figures/102-C-20-4.bmp","mala:na","Down","38","1","13","4","S","C","13"
"","","approach-retreat","162","1108785","0.0-162.0","","","3-4","4166","37","1","Testing","Stims/Figures/71-C-30-1.bmp","namana","Right","37","1","14","4","S","C","14"
"","","approach-retreat","163","1115412","0.0-163.0","","","3-4","5119","40","0","Testing","Stims/Figures/57-C-30-1.bmp","ma:mala","Down","38","1","15","4","S","C","15"
"","","approach-retreat","164","1121261","0.0-164.0","","","3-4","4340","37","0","Testing","Stims/Figures/102-J-10-4.bmp","ta:kaka","Right","39","1","16","4","P","C","16"
"","","approach-retreat","165","1127026","0.0-165.0","","","3-4","4257","38","1","Testing","Stims/Figures/100-C-30-3.bmp","na:mana","Down","38","1","17","4","S","C","17"
"","","approach-retreat","166","1132826","0.0-166.0","","","3-4","4292","39","0","Testing","Stims/Figures/74-C-20-4.bmp","na:lana","Right","37","1","18","4","S","C","18"
"","","approach-retreat","167","1139123","0.0-167.0","","","3-4","4787","37","0","Testing","Stims/Figures/85-C-20-2.bmp","ma:lala","Left","39","1","19","4","S","C","19"
"","","approach-retreat","168","1145477","0.0-168.0","","","3-4","4847","38","1","Testing","Stims/Figures/7-J-10-4.bmp","paka:ka","Up","38","1","20","4","P","C","20"
"","","approach-retreat","169","1151135","0.0-169.0","","","3-4","4151","37","0","Testing","Stims/Figures/111-J-10-3.bmp","papata","Right","39","1","21","4","P","C","21"
"","","approach-retreat","170","1156606","0.0-170.0","","","3-4","3963","39","0","Testing","Stims/Figures/100-J-10-3.bmp","pa:ka:ka","Left","37","1","22","4","P","C","22"
"","","approach-retreat","171","1162329","0.0-171.0","","","3-4","4214","40","0","Testing","Stims/Figures/71-J-0-1.bmp","pakata","Up","38","1","23","4","P","C","23"
"","","approach-retreat","172","1168281","0.0-172.0","","","3-4","4446","40","0","Testing","Stims/Figures/7-C-20-4.bmp","nala:la","Down","38","1","24","4","S","C","24"
"","","approach-retreat","173","1173974","0.0-173.0","","","3-4","4185","40","1","Testing","Stims/Figures/86-J-0-1.bmp","ta:ka:ka","Down","40","2","1","4","P","C","25"
"","","approach-retreat","174","1179498","0.0-174.0","","","3-4","4018","38","1","Testing","Stims/Figures/100-C-30-3.bmp","na:mana","Down","38","2","2","4","S","C","26"
"","","approach-retreat","175","1185982","0.0-175.0","","","3-4","4976","39","0","Testing","Stims/Figures/57-C-30-1.bmp","ma:mala","Right","37","2","3","4","S","C","27"
"","","approach-retreat","176","1191589","0.0-176.0","","","3-4","4099","40","1","Testing","Stims/Figures/111-C-30-3.bmp","nalala","Up","40","2","4","4","S","C","28"
"","","approach-retreat","177","1199531","0.0-177.0","","","3-4","6436","37","0","Testing","Stims/Figures/86-C-30-1.bmp","ma:ma:la","Left","39","2","5","4","S","C","29"
"","","approach-retreat","178","1206210","0.0-178.0","","","3-4","5171","38","1","Testing","Stims/Figures/144-J-10-3.bmp","papa:ka","Up","38","2","6","4","P","C","30"
"","","approach-retreat","179","1211833","0.0-179.0","","","3-4","4118","38","0","Testing","Stims/Figures/7-C-20-4.bmp","nala:la","Up","40","2","7","4","S","C","31"
"","","approach-retreat","180","1217795","0.0-180.0","","","3-4","4454","40","1","Testing","Stims/Figures/57-J-0-1.bmp","tapa:ta","Down","40","2","8","4","P","C","32"
"","","approach-retreat","181","1224393","0.0-181.0","","","3-4","5093","38","1","Testing","Stims/Figures/139-J-0-2.bmp","ta:paka","Up","38","2","9","4","P","C","33"
"","","approach-retreat","182","1261998","0.0-182.0","","","3-4","36097","39","0","Testing","Stims/Figures/85-C-20-2.bmp","ma:lala","Right","37","2","10","4","S","C","34"
"","","approach-retreat","183","1269106","0.0-183.0","","","3-4","5600","37","1","Testing","Stims/Figures/74-J-10-4.bmp","papa:ta","Left","37","2","11","4","P","C","35"
"","","approach-retreat","184","1274687","0.0-184.0","","","3-4","4073","38","1","Testing","Stims/Figures/102-C-20-4.bmp","mala:na","Down","38","2","12","4","S","C","36"
"","","approach-retreat","185","1283452","0.0-185.0","","","3-4","7259","39","1","Testing","Stims/Figures/71-C-30-1.bmp","namana","Left","39","2","13","4","S","C","37"
"","","approach-retreat","186","1290432","0.0-186.0","","","3-4","5474","40","0","Testing","Stims/Figures/111-J-10-3.bmp","papata","Up","38","2","14","4","P","C","38"
"","","approach-retreat","187","1297059","0.0-187.0","","","3-4","5120","39","0","Testing","Stims/Figures/71-J-0-1.bmp","pakata","Left","37","2","15","4","P","C","39"
"","","approach-retreat","188","1302724","0.0-188.0","","","3-4","4158","37","1","Testing","Stims/Figures/84-J-0-2.bmp","pa:pata","Left","37","2","16","4","P","C","40"
"","","approach-retreat","189","1311374","0.0-189.0","","","3-4","7142","37","0","Testing","Stims/Figures/144-C-30-3.bmp","malana","Left","39","2","17","4","S","C","41"
"","","approach-retreat","190","1318393","0.0-190.0","","","3-4","5511","39","0","Testing","Stims/Figures/74-C-20-4.bmp","na:lana","Right","37","2","18","4","S","C","42"
"","","approach-retreat","191","1324350","0.0-191.0","","","3-4","4449","39","1","Testing","Stims/Figures/85-J-0-2.bmp","takaka","Right","39","2","19","4","P","C","43"
"","","approach-retreat","192","1329980","0.0-192.0","","","3-4","4123","37","0","Testing","Stims/Figures/100-J-10-3.bmp","pa:ka:ka","Right","39","2","20","4","P","C","44"
"","","approach-retreat","193","1336205","0.0-193.0","","","3-4","4719","38","0","Testing","Stims/Figures/102-J-10-4.bmp","ta:kaka","Down","40","2","21","4","P","C","45"
"","","approach-retreat","194","1342008","0.0-194.0","","","3-4","4293","40","0","Testing","Stims/Figures/84-C-20-2.bmp","nama:na","Down","38","2","22","4","S","C","46"
"","","approach-retreat","195","1347989","0.0-195.0","","","3-4","4474","38","0","Testing","Stims/Figures/139-C-20-2.bmp","mama:na","Up","40","2","23","4","S","C","47"
"","","approach-retreat","196","1354657","0.0-196.0","","","3-4","5162","39","1","Testing","Stims/Figures/7-J-10-4.bmp","paka:ka","Right","39","2","24","4","P","C","48"
"","","approach-retreat","197","1360865","0.0-197.0","","","3-4","4703","39","0","Testing","Stims/Figures/71-J-0-1.bmp","pakata","Left","37","3","1","4","P","C","49"
"","","approach-retreat","198","1369652","0.0-198.0","","","3-4","7282","39","1","Testing","Stims/Figures/139-J-0-2.bmp","ta:paka","Right","39","3","2","4","P","C","50"
"","","approach-retreat","199","1376258","0.0-199.0","","","3-4","5098","38","1","Testing","Stims/Figures/74-J-10-4.bmp","papa:ta","Up","38","3","3","4","P","C","51"
"","","approach-retreat","200","1382373","0.0-200.0","","","3-4","4609","38","0","Testing","Stims/Figures/111-J-10-3.bmp","papata","Down","40","3","4","4","P","C","52"
"","","approach-retreat","201","1388758","0.0-201.0","","","3-4","4877","37","1","Testing","Stims/Figures/85-J-0-2.bmp","takaka","Left","37","3","5","4","P","C","53"
"","","approach-retreat","202","1395331","0.0-202.0","","","3-4","5067","39","0","Testing","Stims/Figures/74-C-20-4.bmp","na:lana","Right","37","3","6","4","S","C","54"
"","","approach-retreat","203","1401230","0.0-203.0","","","3-4","4391","38","1","Testing","Stims/Figures/71-C-30-1.bmp","namana","Down","38","3","7","4","S","C","55"
"","","approach-retreat","204","1409204","0.0-204.0","","","3-4","6466","38","0","Testing","Stims/Figures/100-J-10-3.bmp","pa:ka:ka","Down","40","3","8","4","P","C","56"
"","","approach-retreat","205","1416075","0.0-205.0","","","3-4","5363","38","0","Testing","Stims/Figures/144-C-30-3.bmp","malana","Up","40","3","9","4","S","C","57"
"","","approach-retreat","206","1423590","0.0-206.0","","","3-4","6008","39","0","Testing","Stims/Figures/85-C-20-2.bmp","ma:lala","Right","37","3","10","4","S","C","58"
"","","approach-retreat","207","1430201","0.0-207.0","","","3-4","5104","40","0","Testing","Stims/Figures/84-C-20-2.bmp","nama:na","Down","38","3","11","4","S","C","59"
"","","approach-retreat","208","1437025","0.0-208.0","","","3-4","5314","38","0","Testing","Stims/Figures/86-C-30-1.bmp","ma:ma:la","Up","40","3","12","4","S","C","60"
"","","approach-retreat","209","1442805","0.0-209.0","","","3-4","4273","39","1","Testing","Stims/Figures/86-J-0-1.bmp","ta:ka:ka","Right","39","3","13","4","P","C","61"
"","","approach-retreat","210","1449072","0.0-210.0","","","3-4","4759","38","1","Testing","Stims/Figures/84-J-0-2.bmp","pa:pata","Up","38","3","14","4","P","C","62"
"","","approach-retreat","211","1455265","0.0-211.0","","","3-4","4685","39","0","Testing","Stims/Figures/7-C-20-4.bmp","nala:la","Right","37","3","15","4","S","C","63"
"","","approach-retreat","212","1461008","0.0-212.0","","","3-4","4235","40","1","Testing","Stims/Figures/100-C-30-3.bmp","na:mana","Up","40","3","16","4","S","C","64"
"","","approach-retreat","213","1467527","0.0-213.0","","","3-4","5014","40","1","Testing","Stims/Figures/7-J-10-4.bmp","paka:ka","Down","40","3","17","4","P","C","65"
"","","approach-retreat","214","1474442","0.0-214.0","","","3-4","5407","37","0","Testing","Stims/Figures/57-C-30-1.bmp","ma:mala","Left","39","3","18","4","S","C","66"
"","","approach-retreat","215","1481653","0.0-215.0","","","3-4","5704","38","0","Testing","Stims/Figures/139-C-20-2.bmp","mama:na","Up","40","3","19","4","S","C","67"
"","","approach-retreat","216","1487673","0.0-216.0","","","3-4","4516","37","1","Testing","Stims/Figures/144-J-10-3.bmp","papa:ka","Left","37","3","20","4","P","C","68"
"","","approach-retreat","217","1494238","0.0-217.0","","","3-4","5056","38","1","Testing","Stims/Figures/111-C-30-3.bmp","nalala","Down","38","3","21","4","S","C","69"
"","","approach-retreat","218","1500671","0.0-218.0","","","3-4","4926","39","0","Testing","Stims/Figures/102-J-10-4.bmp","ta:kaka","Left","37","3","22","4","P","C","70"
"","","approach-retreat","219","1507545","0.0-219.0","","","3-4","5367","37","1","Testing","Stims/Figures/57-J-0-1.bmp","tapa:ta","Left","37","3","23","4","P","C","71"
"","","approach-retreat","220","1515177","0.0-220.0","","","3-4","6125","37","1","Testing","Stims/Figures/102-C-20-4.bmp","mala:na","Right","37","3","24","4","S","C","72"
"","","approach-retreat","221","1522384","0.0-221.0","","","3-4","5700","39","1","Testing","Stims/Figures/86-J-0-1.bmp","ta:ka:ka","Right","39","4","1","4","P","C","73"
"","","approach-retreat","222","1531723","0.0-222.0","","","3-4","7830","38","1","Testing","Stims/Figures/102-C-20-4.bmp","mala:na","Down","38","4","2","4","S","C","74"
"","","approach-retreat","223","1537415","0.0-223.0","","","3-4","4185","39","1","Testing","Stims/Figures/84-J-0-2.bmp","pa:pata","Right","39","4","3","4","P","C","75"
"","","approach-retreat","224","1543903","0.0-224.0","","","3-4","4981","37","0","Testing","Stims/Figures/85-C-20-2.bmp","ma:lala","Left","39","4","4","4","S","C","76"
"","","approach-retreat","225","1551143","0.0-225.0","","","3-4","5737","40","1","Testing","Stims/Figures/74-J-10-4.bmp","papa:ta","Down","40","4","5","4","P","C","77"
"","","approach-retreat","226","1558541","0.0-226.0","","","3-4","5891","38","1","Testing","Stims/Figures/111-C-30-3.bmp","nalala","Down","38","4","6","4","S","C","78"
"","","approach-retreat","227","1564772","0.0-227.0","","","3-4","4724","40","0","Testing","Stims/Figures/71-J-0-1.bmp","pakata","Up","38","4","7","4","P","C","79"
"","","approach-retreat","228","1570690","0.0-228.0","","","3-4","4411","37","1","Testing","Stims/Figures/71-C-30-1.bmp","namana","Right","37","4","8","4","S","C","80"
"","","approach-retreat","229","1577533","0.0-229.0","","","3-4","5336","38","0","Testing","Stims/Figures/7-C-20-4.bmp","nala:la","Up","40","4","9","4","S","C","81"
"","","approach-retreat","230","1583607","0.0-230.0","","","3-4","4567","39","0","Testing","Stims/Figures/144-C-30-3.bmp","malana","Right","37","4","10","4","S","C","82"
"","","approach-retreat","231","1590006","0.0-231.0","","","3-4","4890","38","0","Testing","Stims/Figures/84-C-20-2.bmp","nama:na","Up","40","4","11","4","S","C","83"
"","","approach-retreat","232","1596207","0.0-232.0","","","3-4","4693","40","0","Testing","Stims/Figures/86-C-30-1.bmp","ma:ma:la","Down","38","4","12","4","S","C","84"
"","","approach-retreat","233","1602609","0.0-233.0","","","3-4","4894","40","1","Testing","Stims/Figures/144-J-10-3.bmp","papa:ka","Down","40","4","13","4","P","C","85"
"","","approach-retreat","234","1609085","0.0-234.0","","","3-4","4968","38","0","Testing","Stims/Figures/57-C-30-1.bmp","ma:mala","Up","40","4","14","4","S","C","86"
"","","approach-retreat","235","1617072","0.0-235.0","","","3-4","6480","40","1","Testing","Stims/Figures/85-J-0-2.bmp","takaka","Down","40","4","15","4","P","C","87"
"","","approach-retreat","236","1623461","0.0-236.0","","","3-4","4881","39","1","Testing","Stims/Figures/7-J-10-4.bmp","paka:ka","Right","39","4","16","4","P","C","88"
"","","approach-retreat","237","1630226","0.0-237.0","","","3-4","5259","38","0","Testing","Stims/Figures/139-C-20-2.bmp","mama:na","Up","40","4","17","4","S","C","89"
"","","approach-retreat","238","1636303","0.0-238.0","","","3-4","4570","37","0","Testing","Stims/Figures/111-J-10-3.bmp","papata","Right","39","4","18","4","P","C","90"
"","","approach-retreat","239","1643588","0.0-239.0","","","3-4","5777","40","0","Testing","Stims/Figures/100-J-10-3.bmp","pa:ka:ka","Up","38","4","19","4","P","C","91"
"","","approach-retreat","240","1650454","0.0-240.0","","","3-4","5357","37","0","Testing","Stims/Figures/74-C-20-4.bmp","na:lana","Left","39","4","20","4","S","C","92"
"","","approach-retreat","241","1656176","0.0-241.0","","","3-4","4216","39","0","Testing","Stims/Figures/102-J-10-4.bmp","ta:kaka","Left","37","4","21","4","P","C","93"
"","","approach-retreat","242","1668300","0.0-242.0","","","3-4","10617","37","1","Testing","Stims/Figures/139-J-0-2.bmp","ta:paka","Left","37","4","22","4","P","C","94"
"","","approach-retreat","243","1674549","0.0-243.0","","","3-4","4740","39","1","Testing","Stims/Figures/100-C-30-3.bmp","na:mana","Left","39","4","23","4","S","C","95"
"","","approach-retreat","244","1681321","0.0-244.0","","","3-4","5265","37","1","Testing","Stims/Figures/57-J-0-1.bmp","tapa:ta","Left","37","4","24","4","P","C","96"
"21686","","survey-text","245","1703012","0.0-245.0","","{""Q0"":""20181062""}","","","","","","","","","","","","","","",""
