"rt","key_press","trial_type","trial_index","time_elapsed","internal_node_id","view_history","responses","Id","Rt","ResKeyCode","ResCorr","TrialType2","Image","Label","Location","CorrectResponse","Block","BlockTrial","Condition","LabelType","Subcondition","trialNum"
"26204","32","text","0","26206","0.0-0.0-0.0","","","","","","","","","","","","","","","","",""
"74382","","instructions","1","100590","0.0-1.0","[{""page_index"":0,""viewing_time"":74381}]","","","","","","","","","","","","","","","",""
"124492","","survey-multi-choice","2","225121","0.0-2.0","","{""Q0"":""Da"",""Q1"":""Da"",""Q2"":""Da"",""Q3"":""Da"",""Q4"":""Da"",""Q5"":""Da""}","","","","","","","","","","","","","","",""
"","","bio","3","234320","0.0-3.0","","{""age"":""19"",""gender"":""f"",""specify"":""""}","","","","","","","","","","","","","","",""
"","","approach-retreat","4","252050","0.0-4.0","","","2-5","16202","37","1","Training","Stims/Figures/144-C-30-3.bmp","mama:la","Right","37","1","1","7","S","C","1"
"","","approach-retreat","5","260838","0.0-5.0","","","2-5","7281","38","0","Training","Stims/Figures/118-J-0-2.bmp","tapata","Down","40","1","2","7","P","C","2"
"","","approach-retreat","6","270750","0.0-6.0","","","2-5","8401","37","1","Training","Stims/Figures/128-C-30-3.bmp","ma:la:la","Right","37","1","3","7","S","C","3"
"","","approach-retreat","7","277320","0.0-7.0","","","2-5","5056","39","0","Training","Stims/Figures/102-J-10-4.bmp","na:la:la","Left","37","1","4","7","S","C","4"
"","","approach-retreat","8","284478","0.0-8.0","","","2-5","5631","40","1","Training","Stims/Figures/7-C-20-4.bmp","nama:na","Up","40","1","5","7","S","C","5"
"","","approach-retreat","9","291125","0.0-9.0","","","2-5","5137","37","1","Training","Stims/Figures/128-J-10-3.bmp","mama:na","Left","37","1","6","7","S","C","6"
"","","approach-retreat","10","300212","0.0-10.0","","","2-5","7579","40","0","Training","Stims/Figures/102-C-20-4.bmp","malana","Down","38","1","7","7","S","C","7"
"","","approach-retreat","11","308422","0.0-11.0","","","2-5","6702","38","0","Training","Stims/Figures/86-C-30-1.bmp","pa:ka:ta","Up","40","1","8","7","P","C","8"
"","","approach-retreat","12","314833","0.0-12.0","","","2-5","4902","37","1","Training","Stims/Figures/144-J-10-3.bmp","ma:la:na","Left","37","1","9","7","S","C","9"
"","","approach-retreat","13","320986","0.0-13.0","","","2-5","4635","39","1","Training","Stims/Figures/7-J-10-4.bmp","na:mana","Right","39","1","10","7","S","C","10"
"","","approach-retreat","14","326963","0.0-14.0","","","2-5","4461","38","0","Training","Stims/Figures/139-C-20-2.bmp","pa:pa:ka","Up","40","1","11","7","P","C","11"
"","","approach-retreat","15","332924","0.0-15.0","","","2-5","4455","37","0","Training","Stims/Figures/27-C-30-1.bmp","ta:pa:ka","Left","39","1","12","7","P","C","12"
"","","approach-retreat","16","340938","0.0-16.0","","","2-5","6456","38","1","Training","Stims/Figures/86-J-0-1.bmp","ta:paka","Up","38","1","13","7","P","C","13"
"","","approach-retreat","17","347226","0.0-17.0","","","2-5","4769","37","0","Training","Stims/Figures/27-J-0-1.bmp","tapaka","Right","39","1","14","7","P","C","14"
"","","approach-retreat","18","353546","0.0-18.0","","","2-5","4787","40","1","Training","Stims/Figures/139-J-0-2.bmp","ta:pa:ta","Down","40","1","15","7","P","C","15"
"","","approach-retreat","19","360938","0.0-19.0","","","2-5","5883","40","0","Training","Stims/Figures/118-C-20-2.bmp","taka:ta","Down","38","1","16","7","P","C","16"
"","","approach-retreat","20","366923","0.0-20.0","","","2-5","4476","37","0","Training","Stims/Figures/128-C-30-3.bmp","ma:la:la","Left","39","2","1","7","S","C","17"
"","","approach-retreat","21","373091","0.0-21.0","","","2-5","4662","39","1","Training","Stims/Figures/144-C-30-3.bmp","mama:la","Left","39","2","2","7","S","C","18"
"","","approach-retreat","22","379065","0.0-22.0","","","2-5","4465","37","1","Training","Stims/Figures/86-J-0-1.bmp","ta:paka","Left","37","2","3","7","P","C","19"
"","","approach-retreat","23","386150","0.0-23.0","","","2-5","5570","37","0","Training","Stims/Figures/7-J-10-4.bmp","na:mana","Right","39","2","4","7","S","C","20"
"","","approach-retreat","24","394465","0.0-24.0","","","2-5","6807","38","0","Training","Stims/Figures/102-J-10-4.bmp","na:la:la","Down","40","2","5","7","S","C","21"
"","","approach-retreat","25","401732","0.0-25.0","","","2-5","5737","40","0","Training","Stims/Figures/102-C-20-4.bmp","malana","Down","38","2","6","7","S","C","22"
"","","approach-retreat","26","412442","0.0-26.0","","","2-5","9188","37","1","Training","Stims/Figures/86-C-30-1.bmp","pa:ka:ta","Right","37","2","7","7","P","C","23"
"","","approach-retreat","27","418158","0.0-27.0","","","2-5","4198","39","1","Training","Stims/Figures/27-J-0-1.bmp","tapaka","Right","39","2","8","7","P","C","24"
"","","approach-retreat","28","424417","0.0-28.0","","","2-5","4738","40","1","Training","Stims/Figures/7-C-20-4.bmp","nama:na","Up","40","2","9","7","S","C","25"
"","","approach-retreat","29","430555","0.0-29.0","","","2-5","4618","40","0","Training","Stims/Figures/27-C-30-1.bmp","ta:pa:ka","Down","38","2","10","7","P","C","26"
"","","approach-retreat","30","437925","0.0-30.0","","","2-5","5862","39","1","Training","Stims/Figures/144-J-10-3.bmp","ma:la:na","Right","39","2","11","7","S","C","27"
"","","approach-retreat","31","447528","0.0-31.0","","","2-5","8088","38","0","Training","Stims/Figures/118-C-20-2.bmp","taka:ta","Up","40","2","12","7","P","C","28"
"","","approach-retreat","32","455919","0.0-32.0","","","2-5","6877","40","0","Training","Stims/Figures/139-J-0-2.bmp","ta:pa:ta","Up","38","2","13","7","P","C","29"
"","","approach-retreat","33","466394","0.0-33.0","","","2-5","8951","38","0","Training","Stims/Figures/128-J-10-3.bmp","mama:na","Down","40","2","14","7","S","C","30"
"","","approach-retreat","34","504462","0.0-34.0","","","2-5","36562","40","0","Training","Stims/Figures/118-J-0-2.bmp","tapata","Up","38","2","15","7","P","C","31"
"","","approach-retreat","35","510403","0.0-35.0","","","2-5","4435","39","1","Training","Stims/Figures/139-C-20-2.bmp","pa:pa:ka","Left","39","2","16","7","P","C","32"
"","","approach-retreat","36","518671","0.0-36.0","","","2-5","6760","40","0","Training","Stims/Figures/144-C-30-3.bmp","mama:la","Down","38","3","1","7","S","C","33"
"","","approach-retreat","37","524103","0.0-37.0","","","2-5","3919","40","1","Training","Stims/Figures/86-J-0-1.bmp","ta:paka","Down","40","3","2","7","P","C","34"
"","","approach-retreat","38","529992","0.0-38.0","","","2-5","4374","39","0","Training","Stims/Figures/118-C-20-2.bmp","taka:ta","Right","37","3","3","7","P","C","35"
"","","approach-retreat","39","536260","0.0-39.0","","","2-5","4762","38","0","Training","Stims/Figures/7-C-20-4.bmp","nama:na","Up","40","3","4","7","S","C","36"
"","","approach-retreat","40","542220","0.0-40.0","","","2-5","4450","40","0","Training","Stims/Figures/102-J-10-4.bmp","na:la:la","Up","38","3","5","7","S","C","37"
"","","approach-retreat","41","548049","0.0-41.0","","","2-5","4320","40","0","Training","Stims/Figures/139-J-0-2.bmp","ta:pa:ta","Up","38","3","6","7","P","C","38"
"","","approach-retreat","42","554647","0.0-42.0","","","2-5","5091","39","0","Training","Stims/Figures/128-J-10-3.bmp","mama:na","Left","37","3","7","7","S","C","39"
"","","approach-retreat","43","561679","0.0-43.0","","","2-5","5511","39","1","Training","Stims/Figures/144-J-10-3.bmp","ma:la:na","Right","39","3","8","7","S","C","40"
"","","approach-retreat","44","567753","0.0-44.0","","","2-5","4524","40","1","Training","Stims/Figures/7-J-10-4.bmp","na:mana","Down","40","3","9","7","S","C","41"
"","","approach-retreat","45","573493","0.0-45.0","","","2-5","4234","39","0","Training","Stims/Figures/102-C-20-4.bmp","malana","Right","37","3","10","7","S","C","42"
"","","approach-retreat","46","579567","0.0-46.0","","","2-5","4566","37","1","Training","Stims/Figures/118-J-0-2.bmp","tapata","Left","37","3","11","7","P","C","43"
"","","approach-retreat","47","585393","0.0-47.0","","","2-5","4297","39","0","Training","Stims/Figures/139-C-20-2.bmp","pa:pa:ka","Right","37","3","12","7","P","C","44"
"","","approach-retreat","48","591647","0.0-48.0","","","2-5","4746","38","0","Training","Stims/Figures/128-C-30-3.bmp","ma:la:la","Up","40","3","13","7","S","C","45"
"","","approach-retreat","49","597303","0.0-49.0","","","2-5","4115","37","1","Training","Stims/Figures/27-J-0-1.bmp","tapaka","Left","37","3","14","7","P","C","46"
"","","approach-retreat","50","603183","0.0-50.0","","","2-5","4323","40","0","Training","Stims/Figures/27-C-30-1.bmp","ta:pa:ka","Down","38","3","15","7","P","C","47"
"","","approach-retreat","51","609548","0.0-51.0","","","2-5","4858","37","0","Training","Stims/Figures/86-C-30-1.bmp","pa:ka:ta","Left","39","3","16","7","P","C","48"
"","","approach-retreat","52","615932","0.0-52.0","","","2-5","4837","37","0","Training","Stims/Figures/102-J-10-4.bmp","na:la:la","Right","39","4","1","7","S","C","49"
"","","approach-retreat","53","621868","0.0-53.0","","","2-5","4415","38","1","Training","Stims/Figures/139-J-0-2.bmp","ta:pa:ta","Up","38","4","2","7","P","C","50"
"","","approach-retreat","54","627679","0.0-54.0","","","2-5","4296","39","0","Training","Stims/Figures/27-C-30-1.bmp","ta:pa:ka","Right","37","4","3","7","P","C","51"
"","","approach-retreat","55","649137","0.0-55.0","","","2-5","19948","39","1","Training","Stims/Figures/86-C-30-1.bmp","pa:ka:ta","Left","39","4","4","7","P","C","52"
"","","approach-retreat","56","655394","0.0-56.0","","","2-5","4751","39","0","Training","Stims/Figures/118-J-0-2.bmp","tapata","Left","37","4","5","7","P","C","53"
"","","approach-retreat","57","661152","0.0-57.0","","","2-5","4236","38","1","Training","Stims/Figures/144-C-30-3.bmp","mama:la","Down","38","4","6","7","S","C","54"
"","","approach-retreat","58","669697","0.0-58.0","","","2-5","7030","39","1","Training","Stims/Figures/7-C-20-4.bmp","nama:na","Left","39","4","7","7","S","C","55"
"","","approach-retreat","59","678002","0.0-59.0","","","2-5","6776","40","0","Training","Stims/Figures/128-J-10-3.bmp","mama:na","Up","38","4","8","7","S","C","56"
"","","approach-retreat","60","683989","0.0-60.0","","","2-5","4480","39","0","Training","Stims/Figures/128-C-30-3.bmp","ma:la:la","Right","37","4","9","7","S","C","57"
"","","approach-retreat","61","690244","0.0-61.0","","","2-5","4738","40","0","Training","Stims/Figures/144-J-10-3.bmp","ma:la:na","Up","38","4","10","7","S","C","58"
"","","approach-retreat","62","696036","0.0-62.0","","","2-5","4285","39","1","Training","Stims/Figures/86-J-0-1.bmp","ta:paka","Right","39","4","11","7","P","C","59"
"","","approach-retreat","63","701679","0.0-63.0","","","2-5","4121","38","0","Training","Stims/Figures/139-C-20-2.bmp","pa:pa:ka","Up","40","4","12","7","P","C","60"
"","","approach-retreat","64","707546","0.0-64.0","","","2-5","4355","40","0","Training","Stims/Figures/102-C-20-4.bmp","malana","Down","38","4","13","7","S","C","61"
"","","approach-retreat","65","713342","0.0-65.0","","","2-5","4280","37","1","Training","Stims/Figures/7-J-10-4.bmp","na:mana","Left","37","4","14","7","S","C","62"
"","","approach-retreat","66","719687","0.0-66.0","","","2-5","4834","38","0","Training","Stims/Figures/27-J-0-1.bmp","tapaka","Down","40","4","15","7","P","C","63"
"","","approach-retreat","67","725660","0.0-67.0","","","2-5","4462","40","0","Training","Stims/Figures/118-C-20-2.bmp","taka:ta","Down","38","4","16","7","P","C","64"
"","","approach-retreat","68","732540","0.0-68.0","","","2-5","5333","37","1","Training","Stims/Figures/86-C-30-1.bmp","pa:ka:ta","Right","37","5","1","7","P","C","65"
"","","approach-retreat","69","766226","0.0-69.0","","","2-5","32179","38","0","Training","Stims/Figures/7-J-10-4.bmp","na:mana","Down","40","5","2","7","S","C","66"
"","","approach-retreat","70","772179","0.0-70.0","","","2-5","4405","37","1","Training","Stims/Figures/139-J-0-2.bmp","ta:pa:ta","Left","37","5","3","7","P","C","67"
"","","approach-retreat","71","778255","0.0-71.0","","","2-5","4539","40","1","Training","Stims/Figures/144-C-30-3.bmp","mama:la","Up","40","5","4","7","S","C","68"
"","","approach-retreat","72","784137","0.0-72.0","","","2-5","4354","39","1","Training","Stims/Figures/86-J-0-1.bmp","ta:paka","Right","39","5","5","7","P","C","69"
"","","approach-retreat","73","790140","0.0-73.0","","","2-5","4495","38","1","Training","Stims/Figures/102-C-20-4.bmp","malana","Down","38","5","6","7","S","C","70"
"","","approach-retreat","74","795961","0.0-74.0","","","2-5","4306","37","1","Training","Stims/Figures/128-J-10-3.bmp","mama:na","Left","37","5","7","7","S","C","71"
"","","approach-retreat","75","801725","0.0-75.0","","","2-5","4255","39","0","Training","Stims/Figures/102-J-10-4.bmp","na:la:la","Left","37","5","8","7","S","C","72"
"","","approach-retreat","76","807527","0.0-76.0","","","2-5","4287","37","1","Training","Stims/Figures/144-J-10-3.bmp","ma:la:na","Left","37","5","9","7","S","C","73"
"","","approach-retreat","77","813569","0.0-77.0","","","2-5","4532","40","1","Training","Stims/Figures/139-C-20-2.bmp","pa:pa:ka","Up","40","5","10","7","P","C","74"
"","","approach-retreat","78","819290","0.0-78.0","","","2-5","4213","38","0","Training","Stims/Figures/118-C-20-2.bmp","taka:ta","Up","40","5","11","7","P","C","75"
"","","approach-retreat","79","825574","0.0-79.0","","","2-5","4773","38","1","Training","Stims/Figures/7-C-20-4.bmp","nama:na","Down","38","5","12","7","S","C","76"
"","","approach-retreat","80","831504","0.0-80.0","","","2-5","4409","39","0","Training","Stims/Figures/27-C-30-1.bmp","ta:pa:ka","Right","37","5","13","7","P","C","77"
"","","approach-retreat","81","935365","0.0-81.0","","","2-5","102351","38","0","Training","Stims/Figures/27-J-0-1.bmp","tapaka","Down","40","5","14","7","P","C","78"
"","","approach-retreat","82","941174","0.0-82.0","","","2-5","4298","40","0","Training","Stims/Figures/118-J-0-2.bmp","tapata","Up","38","5","15","7","P","C","79"
"","","approach-retreat","83","946990","0.0-83.0","","","2-5","4311","37","1","Training","Stims/Figures/128-C-30-3.bmp","ma:la:la","Right","37","5","16","7","S","C","80"
"","","approach-retreat","84","1091362","0.0-84.0","","","2-5","142853","39","0","Training","Stims/Figures/144-J-10-3.bmp","ma:la:na","Left","37","6","1","7","S","C","81"
"","","approach-retreat","85","1099035","0.0-85.0","","","2-5","6155","39","1","Training","Stims/Figures/118-C-20-2.bmp","taka:ta","Left","39","6","2","7","P","C","82"
"","","approach-retreat","86","1104857","0.0-86.0","","","2-5","4296","40","0","Training","Stims/Figures/7-J-10-4.bmp","na:mana","Up","38","6","3","7","S","C","83"
"","","approach-retreat","87","1110583","0.0-87.0","","","2-5","4187","40","0","Training","Stims/Figures/102-J-10-4.bmp","na:la:la","Up","38","6","4","7","S","C","84"
"","","approach-retreat","88","1116418","0.0-88.0","","","2-5","4329","37","0","Training","Stims/Figures/118-J-0-2.bmp","tapata","Right","39","6","5","7","P","C","85"
"","","approach-retreat","89","1122188","0.0-89.0","","","2-5","4238","39","0","Training","Stims/Figures/139-C-20-2.bmp","pa:pa:ka","Right","37","6","6","7","P","C","86"
"","","approach-retreat","90","1127880","0.0-90.0","","","2-5","4179","40","1","Training","Stims/Figures/102-C-20-4.bmp","malana","Up","40","6","7","7","S","C","87"
"","","approach-retreat","91","1133664","0.0-91.0","","","2-5","4273","38","1","Training","Stims/Figures/27-C-30-1.bmp","ta:pa:ka","Down","38","6","8","7","P","C","88"
"","","approach-retreat","92","1139260","0.0-92.0","","","2-5","4086","40","1","Training","Stims/Figures/86-J-0-1.bmp","ta:paka","Down","40","6","9","7","P","C","89"
"","","approach-retreat","93","1145352","0.0-93.0","","","2-5","4585","39","0","Training","Stims/Figures/128-J-10-3.bmp","mama:na","Left","37","6","10","7","S","C","90"
"","","approach-retreat","94","1151324","0.0-94.0","","","2-5","4411","40","1","Training","Stims/Figures/139-J-0-2.bmp","ta:pa:ta","Down","40","6","11","7","P","C","91"
"","","approach-retreat","95","1162029","0.0-95.0","","","2-5","9141","38","1","Training","Stims/Figures/128-C-30-3.bmp","ma:la:la","Down","38","6","12","7","S","C","92"
"","","approach-retreat","96","1168629","0.0-96.0","","","2-5","5090","39","0","Training","Stims/Figures/144-C-30-3.bmp","mama:la","Right","37","6","13","7","S","C","93"
"","","approach-retreat","97","1174685","0.0-97.0","","","2-5","4546","39","1","Training","Stims/Figures/7-C-20-4.bmp","nama:na","Left","39","6","14","7","S","C","94"
"","","approach-retreat","98","1180784","0.0-98.0","","","2-5","4592","39","1","Training","Stims/Figures/27-J-0-1.bmp","tapaka","Right","39","6","15","7","P","C","95"
"","","approach-retreat","99","1190090","0.0-99.0","","","2-5","7793","40","1","Training","Stims/Figures/86-C-30-1.bmp","pa:ka:ta","Up","40","6","16","7","P","C","96"
"","","approach-retreat","100","1195943","0.0-100.0","","","2-5","4342","38","0","Training","Stims/Figures/7-C-20-4.bmp","nama:na","Up","40","7","1","7","S","C","97"
"","","approach-retreat","101","1201865","0.0-101.0","","","2-5","4403","39","1","Training","Stims/Figures/118-C-20-2.bmp","taka:ta","Left","39","7","2","7","P","C","98"
"","","approach-retreat","102","1207787","0.0-102.0","","","2-5","4414","40","1","Training","Stims/Figures/139-J-0-2.bmp","ta:pa:ta","Down","40","7","3","7","P","C","99"
"","","approach-retreat","103","1214386","0.0-103.0","","","2-5","5091","37","0","Training","Stims/Figures/86-J-0-1.bmp","ta:paka","Right","39","7","4","7","P","C","100"
"","","approach-retreat","104","1221010","0.0-104.0","","","2-5","5103","40","0","Training","Stims/Figures/139-C-20-2.bmp","pa:pa:ka","Down","38","7","5","7","P","C","101"
"","","approach-retreat","105","1227272","0.0-105.0","","","2-5","4742","39","1","Training","Stims/Figures/86-C-30-1.bmp","pa:ka:ta","Left","39","7","6","7","P","C","102"
"","","approach-retreat","106","1357578","0.0-106.0","","","2-5","128774","39","0","Training","Stims/Figures/27-C-30-1.bmp","ta:pa:ka","Right","37","7","7","7","P","C","103"
"","","approach-retreat","107","1363359","0.0-107.0","","","2-5","4273","38","0","Training","Stims/Figures/102-J-10-4.bmp","na:la:la","Down","40","7","8","7","S","C","104"
"","","approach-retreat","108","1369135","0.0-108.0","","","2-5","4270","40","1","Training","Stims/Figures/102-C-20-4.bmp","malana","Up","40","7","9","7","S","C","105"
"","","approach-retreat","109","1374965","0.0-109.0","","","2-5","4317","37","1","Training","Stims/Figures/27-J-0-1.bmp","tapaka","Left","37","7","10","7","P","C","106"
"","","approach-retreat","110","1381559","0.0-110.0","","","2-5","5081","40","0","Training","Stims/Figures/118-J-0-2.bmp","tapata","Up","38","7","11","7","P","C","107"
"","","approach-retreat","111","1394773","0.0-111.0","","","2-5","11705","39","0","Training","Stims/Figures/128-J-10-3.bmp","mama:na","Left","37","7","12","7","S","C","108"
"","","approach-retreat","112","1404441","0.0-112.0","","","2-5","8132","37","0","Training","Stims/Figures/7-J-10-4.bmp","na:mana","Right","39","7","13","7","S","C","109"
"","","approach-retreat","113","1412726","0.0-113.0","","","2-5","6771","38","0","Training","Stims/Figures/144-J-10-3.bmp","ma:la:na","Down","40","7","14","7","S","C","110"
"","","approach-retreat","114","1421004","0.0-114.0","","","2-5","6771","37","1","Training","Stims/Figures/128-C-30-3.bmp","ma:la:la","Right","37","7","15","7","S","C","111"
"","","approach-retreat","115","1433458","0.0-115.0","","","2-5","10935","40","1","Training","Stims/Figures/144-C-30-3.bmp","mama:la","Up","40","7","16","7","S","C","112"
"","","approach-retreat","116","1443380","0.0-116.0","","","2-5","8411","39","1","Training","Stims/Figures/128-J-10-3.bmp","mama:na","Right","39","8","1","7","S","C","113"
"","","approach-retreat","117","1451106","0.0-117.0","","","2-5","6219","37","1","Training","Stims/Figures/7-J-10-4.bmp","na:mana","Left","37","8","2","7","S","C","114"
"","","approach-retreat","118","1460719","0.0-118.0","","","2-5","8094","40","0","Training","Stims/Figures/7-C-20-4.bmp","nama:na","Down","38","8","3","7","S","C","115"
"","","approach-retreat","119","1470257","0.0-119.0","","","2-5","8027","40","0","Training","Stims/Figures/86-C-30-1.bmp","pa:ka:ta","Down","38","8","4","7","P","C","116"
"","","approach-retreat","120","1477497","0.0-120.0","","","2-5","5718","40","1","Training","Stims/Figures/128-C-30-3.bmp","ma:la:la","Up","40","8","5","7","S","C","117"
"","","approach-retreat","121","1484802","0.0-121.0","","","2-5","5798","40","0","Training","Stims/Figures/102-C-20-4.bmp","malana","Down","38","8","6","7","S","C","118"
"","","approach-retreat","122","1492946","0.0-122.0","","","2-5","6633","40","1","Training","Stims/Figures/118-J-0-2.bmp","tapata","Down","40","8","7","7","P","C","119"
"","","approach-retreat","123","1501213","0.0-123.0","","","2-5","6761","38","1","Training","Stims/Figures/86-J-0-1.bmp","ta:paka","Up","38","8","8","7","P","C","120"
"","","approach-retreat","124","1512338","0.0-124.0","","","2-5","9603","39","1","Training","Stims/Figures/118-C-20-2.bmp","taka:ta","Left","39","8","9","7","P","C","121"
"","","approach-retreat","125","1520005","0.0-125.0","","","2-5","6160","38","0","Training","Stims/Figures/27-C-30-1.bmp","ta:pa:ka","Up","40","8","10","7","P","C","122"
"","","approach-retreat","126","1528122","0.0-126.0","","","2-5","6603","37","1","Training","Stims/Figures/144-C-30-3.bmp","mama:la","Right","37","8","11","7","S","C","123"
"","","approach-retreat","127","1538434","0.0-127.0","","","2-5","8803","38","0","Training","Stims/Figures/139-C-20-2.bmp","pa:pa:ka","Up","40","8","12","7","P","C","124"
"","","approach-retreat","128","1545920","0.0-128.0","","","2-5","5976","37","1","Training","Stims/Figures/139-J-0-2.bmp","ta:pa:ta","Left","37","8","13","7","P","C","125"
"","","approach-retreat","129","1552613","0.0-129.0","","","2-5","5186","39","1","Training","Stims/Figures/144-J-10-3.bmp","ma:la:na","Right","39","8","14","7","S","C","126"
"","","approach-retreat","130","1559340","0.0-130.0","","","2-5","5219","37","1","Training","Stims/Figures/27-J-0-1.bmp","tapaka","Left","37","8","15","7","P","C","127"
"","","approach-retreat","131","1569506","0.0-131.0","","","2-5","8639","37","0","Training","Stims/Figures/102-J-10-4.bmp","na:la:la","Right","39","8","16","7","S","C","128"
"","","approach-retreat","132","1580977","0.0-132.0","","","2-5","9960","39","0","Training","Stims/Figures/27-C-30-1.bmp","ta:pa:ka","Right","37","9","1","7","P","C","129"
"","","approach-retreat","133","1599624","0.0-133.0","","","2-5","17139","37","0","Training","Stims/Figures/144-C-30-3.bmp","mama:la","Left","39","9","2","7","S","C","130"
"","","approach-retreat","134","1609160","0.0-134.0","","","2-5","8016","39","1","Training","Stims/Figures/128-J-10-3.bmp","mama:na","Right","39","9","3","7","S","C","131"
"","","approach-retreat","135","1617718","0.0-135.0","","","2-5","7048","40","0","Training","Stims/Figures/7-C-20-4.bmp","nama:na","Down","38","9","4","7","S","C","132"
"","","approach-retreat","136","1625321","0.0-136.0","","","2-5","6096","40","0","Training","Stims/Figures/118-C-20-2.bmp","taka:ta","Down","38","9","5","7","P","C","133"
"","","approach-retreat","137","1648465","0.0-137.0","","","2-5","21634","37","1","Training","Stims/Figures/27-J-0-1.bmp","tapaka","Left","37","9","6","7","P","C","134"
"","","approach-retreat","138","1655998","0.0-138.0","","","2-5","6026","38","1","Training","Stims/Figures/86-C-30-1.bmp","pa:ka:ta","Down","38","9","7","7","P","C","135"
"","","approach-retreat","139","1664139","0.0-139.0","","","2-5","6619","39","0","Training","Stims/Figures/102-C-20-4.bmp","malana","Right","37","9","8","7","S","C","136"
"","","approach-retreat","140","1672997","0.0-140.0","","","2-5","7350","37","0","Training","Stims/Figures/86-J-0-1.bmp","ta:paka","Right","39","9","9","7","P","C","137"
"","","approach-retreat","141","1682121","0.0-141.0","","","2-5","7608","38","1","Training","Stims/Figures/102-J-10-4.bmp","na:la:la","Up","38","9","10","7","S","C","138"
"","","approach-retreat","142","1689541","0.0-142.0","","","2-5","5907","39","1","Training","Stims/Figures/139-C-20-2.bmp","pa:pa:ka","Left","39","9","11","7","P","C","139"
"","","approach-retreat","143","1697950","0.0-143.0","","","2-5","6904","38","1","Training","Stims/Figures/144-J-10-3.bmp","ma:la:na","Up","38","9","12","7","S","C","140"
"","","approach-retreat","144","1705706","0.0-144.0","","","2-5","6238","38","1","Training","Stims/Figures/128-C-30-3.bmp","ma:la:la","Down","38","9","13","7","S","C","141"
"","","approach-retreat","145","1712095","0.0-145.0","","","2-5","4882","37","1","Training","Stims/Figures/118-J-0-2.bmp","tapata","Left","37","9","14","7","P","C","142"
"","","approach-retreat","146","1721840","0.0-146.0","","","2-5","8236","38","1","Training","Stims/Figures/7-J-10-4.bmp","na:mana","Up","38","9","15","7","S","C","143"
"","","approach-retreat","147","1736735","0.0-147.0","","","2-5","13382","40","0","Training","Stims/Figures/139-J-0-2.bmp","ta:pa:ta","Up","38","9","16","7","P","C","144"
"15468","","instructions","148","1752203","0.0-148.0","[{""page_index"":0,""viewing_time"":15467}]","","","","","","","","","","","","","","","",""
"","","approach-retreat","149","1762039","0.0-149.0","","","2-5","8302","39","1","Testing","Stims/Figures/57-J-0-1.bmp","papata","Right","39","1","1","7","P","C","1"
"","","approach-retreat","150","1768157","0.0-150.0","","","2-5","4603","40","1","Testing","Stims/Figures/102-C-20-4.bmp","malana","Up","40","1","2","7","S","C","2"
"","","approach-retreat","151","1774685","0.0-151.0","","","2-5","5023","37","1","Testing","Stims/Figures/94-J-0-2.bmp","takaka","Left","37","1","3","7","P","C","3"
"","","approach-retreat","152","1781015","0.0-152.0","","","2-5","4800","38","0","Testing","Stims/Figures/86-J-0-1.bmp","ta:paka","Down","40","1","4","7","P","C","4"
"","","approach-retreat","153","1786823","0.0-153.0","","","2-5","4290","39","1","Testing","Stims/Figures/74-J-10-4.bmp","na:lala","Right","39","1","5","7","S","C","5"
"","","approach-retreat","154","1792761","0.0-154.0","","","2-5","4433","40","1","Testing","Stims/Figures/86-C-30-1.bmp","pa:ka:ta","Up","40","1","6","7","P","C","6"
"","","approach-retreat","155","1799217","0.0-155.0","","","2-5","4948","40","0","Testing","Stims/Figures/144-C-30-3.bmp","mama:la","Down","38","1","7","7","S","C","7"
"","","approach-retreat","156","1806883","0.0-156.0","","","2-5","6117","38","1","Testing","Stims/Figures/118-C-20-2.bmp","taka:ta","Down","38","1","8","7","P","C","8"
"","","approach-retreat","157","1812878","0.0-157.0","","","2-5","4489","37","0","Testing","Stims/Figures/102-J-10-4.bmp","na:la:la","Right","39","1","9","7","S","C","9"
"","","approach-retreat","158","1820679","0.0-158.0","","","2-5","6289","37","0","Testing","Stims/Figures/57-C-30-1.bmp","papa:ka","Left","39","1","10","7","P","C","10"
"","","approach-retreat","159","1826565","0.0-159.0","","","2-5","4381","39","1","Testing","Stims/Figures/100-C-30-3.bmp","ma:mana","Left","39","1","11","7","S","C","11"
"","","approach-retreat","160","1833013","0.0-160.0","","","2-5","4938","39","0","Testing","Stims/Figures/74-C-20-4.bmp","mamana","Right","37","1","12","7","S","C","12"
"","","approach-retreat","161","1838951","0.0-161.0","","","2-5","4431","37","1","Testing","Stims/Figures/139-J-0-2.bmp","ta:pa:ta","Left","37","1","13","7","P","C","13"
"","","approach-retreat","162","1846263","0.0-162.0","","","2-5","5807","40","0","Testing","Stims/Figures/7-C-20-4.bmp","nama:na","Down","38","1","14","7","S","C","14"
"","","approach-retreat","163","1853361","0.0-163.0","","","2-5","5584","37","1","Testing","Stims/Figures/128-C-30-3.bmp","ma:la:la","Right","37","1","15","7","S","C","15"
"","","approach-retreat","164","1862075","0.0-164.0","","","2-5","7207","38","1","Testing","Stims/Figures/27-C-30-1.bmp","ta:pa:ka","Down","38","1","16","7","P","C","16"
"","","approach-retreat","165","1869162","0.0-165.0","","","2-5","5577","39","0","Testing","Stims/Figures/94-C-20-2.bmp","pa:kaka","Right","37","1","17","7","P","C","17"
"","","approach-retreat","166","1875817","0.0-166.0","","","2-5","5125","40","1","Testing","Stims/Figures/27-J-0-1.bmp","tapaka","Down","40","1","18","7","P","C","18"
"","","approach-retreat","167","1881298","0.0-167.0","","","2-5","3967","38","1","Testing","Stims/Figures/118-J-0-2.bmp","tapata","Up","38","1","19","7","P","C","19"
"","","approach-retreat","168","1887213","0.0-168.0","","","2-5","4410","40","0","Testing","Stims/Figures/100-J-10-3.bmp","ma:lana","Up","38","1","20","7","S","C","20"
"","","approach-retreat","169","1893811","0.0-169.0","","","2-5","5090","37","0","Testing","Stims/Figures/139-C-20-2.bmp","pa:pa:ka","Left","39","1","21","7","P","C","21"
"","","approach-retreat","170","1899967","0.0-170.0","","","2-5","4642","40","0","Testing","Stims/Figures/7-J-10-4.bmp","na:mana","Up","38","1","22","7","S","C","22"
"","","approach-retreat","171","1906691","0.0-171.0","","","2-5","5196","38","1","Testing","Stims/Figures/144-J-10-3.bmp","ma:la:na","Up","38","1","23","7","S","C","23"
"","","approach-retreat","172","1912774","0.0-172.0","","","2-5","4575","39","0","Testing","Stims/Figures/128-J-10-3.bmp","mama:na","Left","37","1","24","7","S","C","24"
"","","approach-retreat","173","1919529","0.0-173.0","","","2-5","5242","37","1","Testing","Stims/Figures/118-J-0-2.bmp","tapata","Left","37","2","1","7","P","C","25"
"","","approach-retreat","174","1925978","0.0-174.0","","","2-5","4930","39","0","Testing","Stims/Figures/94-J-0-2.bmp","takaka","Left","37","2","2","7","P","C","26"
"","","approach-retreat","175","1931871","0.0-175.0","","","2-5","4378","40","0","Testing","Stims/Figures/94-C-20-2.bmp","pa:kaka","Down","38","2","3","7","P","C","27"
"","","approach-retreat","176","1937875","0.0-176.0","","","2-5","4500","39","1","Testing","Stims/Figures/27-C-30-1.bmp","ta:pa:ka","Left","39","2","4","7","P","C","28"
"","","approach-retreat","177","1944352","0.0-177.0","","","2-5","4961","38","1","Testing","Stims/Figures/7-J-10-4.bmp","na:mana","Up","38","2","5","7","S","C","29"
"","","approach-retreat","178","1953444","0.0-178.0","","","2-5","7537","37","0","Testing","Stims/Figures/102-C-20-4.bmp","malana","Left","39","2","6","7","S","C","30"
"","","approach-retreat","179","1975062","0.0-179.0","","","2-5","20109","39","1","Testing","Stims/Figures/139-C-20-2.bmp","pa:pa:ka","Left","39","2","7","7","P","C","31"
"","","approach-retreat","180","1994495","0.0-180.0","","","2-5","17924","40","1","Testing","Stims/Figures/74-C-20-4.bmp","mamana","Up","40","2","8","7","S","C","32"
"","","approach-retreat","181","2002762","0.0-181.0","","","2-5","6729","39","1","Testing","Stims/Figures/7-C-20-4.bmp","nama:na","Left","39","2","9","7","S","C","33"
"","","approach-retreat","182","2049588","0.0-182.0","","","2-5","45312","38","0","Testing","Stims/Figures/144-J-10-3.bmp","ma:la:na","Down","40","2","10","7","S","C","34"
"","","approach-retreat","183","2057380","0.0-183.0","","","2-5","6273","39","0","Testing","Stims/Figures/128-C-30-3.bmp","ma:la:la","Right","37","2","11","7","S","C","35"
"","","approach-retreat","184","2063678","0.0-184.0","","","2-5","4785","40","1","Testing","Stims/Figures/100-C-30-3.bmp","ma:mana","Up","40","2","12","7","S","C","36"
"","","approach-retreat","185","2070608","0.0-185.0","","","2-5","5418","40","0","Testing","Stims/Figures/27-J-0-1.bmp","tapaka","Up","38","2","13","7","P","C","37"
"","","approach-retreat","186","2076671","0.0-186.0","","","2-5","4527","39","1","Testing","Stims/Figures/100-J-10-3.bmp","ma:lana","Right","39","2","14","7","S","C","38"
"","","approach-retreat","187","2082643","0.0-187.0","","","2-5","4426","37","0","Testing","Stims/Figures/57-J-0-1.bmp","papata","Right","39","2","15","7","P","C","39"
"","","approach-retreat","188","2088861","0.0-188.0","","","2-5","4711","40","0","Testing","Stims/Figures/57-C-30-1.bmp","papa:ka","Down","38","2","16","7","P","C","40"
"","","approach-retreat","189","2094522","0.0-189.0","","","2-5","4155","40","1","Testing","Stims/Figures/118-C-20-2.bmp","taka:ta","Up","40","2","17","7","P","C","41"
"","","approach-retreat","190","2100540","0.0-190.0","","","2-5","4508","39","1","Testing","Stims/Figures/74-J-10-4.bmp","na:lala","Right","39","2","18","7","S","C","42"
"","","approach-retreat","191","2107135","0.0-191.0","","","2-5","5086","38","1","Testing","Stims/Figures/128-J-10-3.bmp","mama:na","Up","38","2","19","7","S","C","43"
"","","approach-retreat","192","2114498","0.0-192.0","","","2-5","5847","40","0","Testing","Stims/Figures/86-C-30-1.bmp","pa:ka:ta","Down","38","2","20","7","P","C","44"
"","","approach-retreat","193","2123338","0.0-193.0","","","2-5","7330","38","0","Testing","Stims/Figures/86-J-0-1.bmp","ta:paka","Down","40","2","21","7","P","C","45"
"","","approach-retreat","194","2130364","0.0-194.0","","","2-5","5515","39","1","Testing","Stims/Figures/102-J-10-4.bmp","na:la:la","Right","39","2","22","7","S","C","46"
"","","approach-retreat","195","2137951","0.0-195.0","","","2-5","6072","38","0","Testing","Stims/Figures/139-J-0-2.bmp","ta:pa:ta","Down","40","2","23","7","P","C","47"
"","","approach-retreat","196","2144168","0.0-196.0","","","2-5","4696","39","0","Testing","Stims/Figures/144-C-30-3.bmp","mama:la","Right","37","2","24","7","S","C","48"
"","","approach-retreat","197","2150588","0.0-197.0","","","2-5","4839","37","0","Testing","Stims/Figures/27-J-0-1.bmp","tapaka","Right","39","3","1","7","P","C","49"
"","","approach-retreat","198","2156256","0.0-198.0","","","2-5","4159","38","0","Testing","Stims/Figures/118-C-20-2.bmp","taka:ta","Up","40","3","2","7","P","C","50"
"","","approach-retreat","199","2162146","0.0-199.0","","","2-5","4349","40","1","Testing","Stims/Figures/102-C-20-4.bmp","malana","Up","40","3","3","7","S","C","51"
"","","approach-retreat","200","2168643","0.0-200.0","","","2-5","4991","38","0","Testing","Stims/Figures/74-J-10-4.bmp","na:lala","Down","40","3","4","7","S","C","52"
"","","approach-retreat","201","2174327","0.0-201.0","","","2-5","4179","39","1","Testing","Stims/Figures/86-J-0-1.bmp","ta:paka","Right","39","3","5","7","P","C","53"
"","","approach-retreat","202","2180114","0.0-202.0","","","2-5","4267","39","1","Testing","Stims/Figures/100-C-30-3.bmp","ma:mana","Left","39","3","6","7","S","C","54"
"","","approach-retreat","203","2187483","0.0-203.0","","","2-5","5843","38","1","Testing","Stims/Figures/7-J-10-4.bmp","na:mana","Up","38","3","7","7","S","C","55"
"","","approach-retreat","204","2193600","0.0-204.0","","","2-5","4608","37","0","Testing","Stims/Figures/57-J-0-1.bmp","papata","Right","39","3","8","7","P","C","56"
"","","approach-retreat","205","2199598","0.0-205.0","","","2-5","4489","40","1","Testing","Stims/Figures/118-J-0-2.bmp","tapata","Down","40","3","9","7","P","C","57"
"","","approach-retreat","206","2210183","0.0-206.0","","","2-5","9062","37","0","Testing","Stims/Figures/128-C-30-3.bmp","ma:la:la","Left","39","3","10","7","S","C","58"
"","","approach-retreat","207","2220814","0.0-207.0","","","2-5","9124","39","0","Testing","Stims/Figures/144-J-10-3.bmp","ma:la:na","Left","37","3","11","7","S","C","59"
"","","approach-retreat","208","2227239","0.0-208.0","","","2-5","4920","37","0","Testing","Stims/Figures/139-C-20-2.bmp","pa:pa:ka","Left","39","3","12","7","P","C","60"
"","","approach-retreat","209","2235901","0.0-209.0","","","2-5","7141","37","1","Testing","Stims/Figures/128-J-10-3.bmp","mama:na","Left","37","3","13","7","S","C","61"
"","","approach-retreat","210","2241514","0.0-210.0","","","2-5","4106","40","1","Testing","Stims/Figures/86-C-30-1.bmp","pa:ka:ta","Up","40","3","14","7","P","C","62"
"","","approach-retreat","211","2247297","0.0-211.0","","","2-5","4276","40","0","Testing","Stims/Figures/57-C-30-1.bmp","papa:ka","Down","38","3","15","7","P","C","63"
"","","approach-retreat","212","2253891","0.0-212.0","","","2-5","5063","37","1","Testing","Stims/Figures/94-C-20-2.bmp","pa:kaka","Right","37","3","16","7","P","C","64"
"","","approach-retreat","213","2259901","0.0-213.0","","","2-5","4501","39","1","Testing","Stims/Figures/100-J-10-3.bmp","ma:lana","Right","39","3","17","7","S","C","65"
"","","approach-retreat","214","2267488","0.0-214.0","","","2-5","6069","38","1","Testing","Stims/Figures/74-C-20-4.bmp","mamana","Down","38","3","18","7","S","C","66"
"","","approach-retreat","215","2276834","0.0-215.0","","","2-5","7841","39","0","Testing","Stims/Figures/27-C-30-1.bmp","ta:pa:ka","Right","37","3","19","7","P","C","67"
"","","approach-retreat","216","2282897","0.0-216.0","","","2-5","4558","39","1","Testing","Stims/Figures/7-C-20-4.bmp","nama:na","Left","39","3","20","7","S","C","68"
"","","approach-retreat","217","2332825","0.0-217.0","","","2-5","48421","40","0","Testing","Stims/Figures/94-J-0-2.bmp","takaka","Up","38","3","21","7","P","C","69"
"","","approach-retreat","218","2339784","0.0-218.0","","","2-5","5452","40","1","Testing","Stims/Figures/102-J-10-4.bmp","na:la:la","Down","40","3","22","7","S","C","70"
"","","approach-retreat","219","2346360","0.0-219.0","","","2-5","5072","40","1","Testing","Stims/Figures/144-C-30-3.bmp","mama:la","Up","40","3","23","7","S","C","71"
"","","approach-retreat","220","2352897","0.0-220.0","","","2-5","5032","40","1","Testing","Stims/Figures/139-J-0-2.bmp","ta:pa:ta","Down","40","3","24","7","P","C","72"
"","","approach-retreat","221","2359027","0.0-221.0","","","2-5","4625","37","1","Testing","Stims/Figures/7-C-20-4.bmp","nama:na","Right","37","4","1","7","S","C","73"
"","","approach-retreat","222","2365624","0.0-222.0","","","2-5","5070","38","0","Testing","Stims/Figures/94-C-20-2.bmp","pa:kaka","Up","40","4","2","7","P","C","74"
"","","approach-retreat","223","2373880","0.0-223.0","","","2-5","6716","39","1","Testing","Stims/Figures/128-C-30-3.bmp","ma:la:la","Left","39","4","3","7","S","C","75"
"","","approach-retreat","224","2379963","0.0-224.0","","","2-5","4567","38","0","Testing","Stims/Figures/118-C-20-2.bmp","taka:ta","Up","40","4","4","7","P","C","76"
"","","approach-retreat","225","2386153","0.0-225.0","","","2-5","4681","38","0","Testing","Stims/Figures/86-J-0-1.bmp","ta:paka","Down","40","4","5","7","P","C","77"
"","","approach-retreat","226","2404287","0.0-226.0","","","2-5","16603","40","1","Testing","Stims/Figures/118-J-0-2.bmp","tapata","Down","40","4","6","7","P","C","78"
"","","approach-retreat","227","2411756","0.0-227.0","","","2-5","5964","37","1","Testing","Stims/Figures/139-C-20-2.bmp","pa:pa:ka","Right","37","4","7","7","P","C","79"
"","","approach-retreat","228","2418668","0.0-228.0","","","2-5","5391","39","0","Testing","Stims/Figures/27-C-30-1.bmp","ta:pa:ka","Right","37","4","8","7","P","C","80"
"","","approach-retreat","229","2424588","0.0-229.0","","","2-5","4410","38","0","Testing","Stims/Figures/128-J-10-3.bmp","mama:na","Down","40","4","9","7","S","C","81"
"","","approach-retreat","230","2430357","0.0-230.0","","","2-5","4264","39","0","Testing","Stims/Figures/57-C-30-1.bmp","papa:ka","Right","37","4","10","7","P","C","82"
"","","approach-retreat","231","2437752","0.0-231.0","","","2-5","5886","37","0","Testing","Stims/Figures/57-J-0-1.bmp","papata","Right","39","4","11","7","P","C","83"
"","","approach-retreat","232","2459514","0.0-232.0","","","2-5","20257","38","1","Testing","Stims/Figures/7-J-10-4.bmp","na:mana","Up","38","4","12","7","S","C","84"
"","","approach-retreat","233","2518514","0.0-233.0","","","2-5","57496","40","1","Testing","Stims/Figures/102-C-20-4.bmp","malana","Up","40","4","13","7","S","C","85"
"","","approach-retreat","234","2524693","0.0-234.0","","","2-5","4648","37","1","Testing","Stims/Figures/144-J-10-3.bmp","ma:la:na","Left","37","4","14","7","S","C","86"
"","","approach-retreat","235","2530699","0.0-235.0","","","2-5","4494","38","0","Testing","Stims/Figures/100-J-10-3.bmp","ma:lana","Down","40","4","15","7","S","C","87"
"","","approach-retreat","236","2537159","0.0-236.0","","","2-5","4952","37","1","Testing","Stims/Figures/144-C-30-3.bmp","mama:la","Right","37","4","16","7","S","C","88"
"","","approach-retreat","237","2549870","0.0-237.0","","","2-5","11190","39","0","Testing","Stims/Figures/139-J-0-2.bmp","ta:pa:ta","Left","37","4","17","7","P","C","89"
"","","approach-retreat","238","2557502","0.0-238.0","","","2-5","6127","37","1","Testing","Stims/Figures/74-J-10-4.bmp","na:lala","Left","37","4","18","7","S","C","90"
"","","approach-retreat","239","2563540","0.0-239.0","","","2-5","4528","39","0","Testing","Stims/Figures/94-J-0-2.bmp","takaka","Left","37","4","19","7","P","C","91"
"","","approach-retreat","240","2569360","0.0-240.0","","","2-5","4314","40","1","Testing","Stims/Figures/27-J-0-1.bmp","tapaka","Down","40","4","20","7","P","C","92"
"","","approach-retreat","241","2575271","0.0-241.0","","","2-5","4403","39","0","Testing","Stims/Figures/102-J-10-4.bmp","na:la:la","Left","37","4","21","7","S","C","93"
"","","approach-retreat","242","2581229","0.0-242.0","","","2-5","4452","40","0","Testing","Stims/Figures/100-C-30-3.bmp","ma:mana","Down","38","4","22","7","S","C","94"
"","","approach-retreat","243","2588230","0.0-243.0","","","2-5","5477","40","1","Testing","Stims/Figures/86-C-30-1.bmp","pa:ka:ta","Up","40","4","23","7","P","C","95"
"","","approach-retreat","244","2594566","0.0-244.0","","","2-5","4829","38","0","Testing","Stims/Figures/74-C-20-4.bmp","mamana","Up","40","4","24","7","S","C","96"
"16079","","survey-text","245","2610651","0.0-245.0","","{""Q0"":""1105""}","","","","","","","","","","","","","","",""
