"rt","key_press","trial_type","trial_index","time_elapsed","internal_node_id","view_history","responses","Id","Rt","ResKeyCode","ResCorr","TrialType2","Image","Label","Location","CorrectResponse","Block","BlockTrial","Condition","LabelType","Subcondition","trialNum"
"30728","32","text","0","30737","0.0-0.0-0.0","","","","","","","","","","","","","","","","",""
"50399","","instructions","1","81139","0.0-1.0","[{""page_index"":0,""viewing_time"":50398}]","","","","","","","","","","","","","","","",""
"24872","","survey-multi-choice","2","106094","0.0-2.0","","{""Q0"":""Da"",""Q1"":""Da"",""Q2"":""Da"",""Q3"":""Da"",""Q4"":""Da"",""Q5"":""Da""}","","","","","","","","","","","","","","",""
"","","bio","3","113902","0.0-3.0","","{""age"":""18"",""gender"":""f"",""specify"":""""}","","","","","","","","","","","","","","",""
"","","approach-retreat","4","122454","0.0-4.0","","","1-4","7035","37","1","Training","Stims/Figures/144-J-10-3.bmp","tapa:ka","Right","37","1","1","4","P","J","1"
"","","approach-retreat","5","128683","0.0-5.0","","","1-4","4716","38","1","Training","Stims/Figures/139-J-0-2.bmp","paka:ta","Down","38","1","2","4","P","J","2"
"","","approach-retreat","6","134657","0.0-6.0","","","1-4","4461","37","0","Training","Stims/Figures/144-C-30-3.bmp","mamala","Right","39","1","3","4","S","J","3"
"","","approach-retreat","7","141151","0.0-7.0","","","1-4","4982","40","0","Training","Stims/Figures/128-C-30-3.bmp","na:lana","Up","38","1","4","4","S","J","4"
"","","approach-retreat","8","147011","0.0-8.0","","","1-4","4350","37","1","Training","Stims/Figures/128-J-10-3.bmp","pa:pa:ta","Right","37","1","5","4","P","J","5"
"","","approach-retreat","9","156359","0.0-9.0","","","1-4","7836","38","0","Training","Stims/Figures/57-C-30-1.bmp","ma:ma:na","Down","40","1","6","4","S","J","6"
"","","approach-retreat","10","168905","0.0-10.0","","","1-4","11034","40","0","Training","Stims/Figures/7-J-10-4.bmp","pa:pata","Down","38","1","7","4","P","J","7"
"","","approach-retreat","11","174108","0.0-11.0","","","1-4","3690","38","0","Training","Stims/Figures/57-J-0-1.bmp","pa:ka:ka","Up","40","1","8","4","P","J","8"
"","","approach-retreat","12","181174","0.0-12.0","","","1-4","5556","39","0","Training","Stims/Figures/7-C-20-4.bmp","na:lala","Left","37","1","9","4","S","J","9"
"","","approach-retreat","13","190496","0.0-13.0","","","1-4","7807","40","0","Training","Stims/Figures/118-C-20-2.bmp","nala:na","Up","38","1","10","4","S","J","10"
"","","approach-retreat","14","199399","0.0-14.0","","","1-4","7387","37","1","Training","Stims/Figures/19-C-20-4.bmp","na:ma:na","Left","37","1","11","4","S","J","11"
"","","approach-retreat","15","206724","0.0-15.0","","","1-4","5813","40","1","Training","Stims/Figures/118-J-0-2.bmp","papa:ta","Up","40","1","12","4","P","J","12"
"","","approach-retreat","16","214453","0.0-16.0","","","1-4","6215","39","1","Training","Stims/Figures/86-J-0-1.bmp","ta:ka:ta","Left","39","1","13","4","P","J","13"
"","","approach-retreat","17","226924","0.0-17.0","","","1-4","10961","40","1","Training","Stims/Figures/139-C-20-2.bmp","malana","Down","40","1","14","4","S","J","14"
"","","approach-retreat","18","234756","0.0-18.0","","","1-4","6317","39","1","Training","Stims/Figures/86-C-30-1.bmp","na:ma:la","Right","39","1","15","4","S","J","15"
"","","approach-retreat","19","243923","0.0-19.0","","","1-4","7654","39","1","Training","Stims/Figures/19-J-10-4.bmp","ta:kaka","Left","39","1","16","4","P","J","16"
"","","approach-retreat","20","249720","0.0-20.0","","","1-4","4289","39","1","Training","Stims/Figures/57-J-0-1.bmp","pa:ka:ka","Left","39","2","1","4","P","J","17"
"","","approach-retreat","21","256362","0.0-21.0","","","1-4","5129","38","0","Training","Stims/Figures/128-C-30-3.bmp","na:lana","Down","40","2","2","4","S","J","18"
"","","approach-retreat","22","262520","0.0-22.0","","","1-4","4647","40","1","Training","Stims/Figures/139-C-20-2.bmp","malana","Down","40","2","3","4","S","J","19"
"","","approach-retreat","23","271082","0.0-23.0","","","1-4","7051","38","1","Training","Stims/Figures/144-C-30-3.bmp","mamala","Up","38","2","4","4","S","J","20"
"","","approach-retreat","24","278147","0.0-24.0","","","1-4","5553","37","0","Training","Stims/Figures/19-C-20-4.bmp","na:ma:na","Right","39","2","5","4","S","J","21"
"","","approach-retreat","25","284119","0.0-25.0","","","1-4","4456","37","1","Training","Stims/Figures/118-J-0-2.bmp","papa:ta","Right","37","2","6","4","P","J","22"
"","","approach-retreat","26","289266","0.0-26.0","","","1-4","3633","37","0","Training","Stims/Figures/128-J-10-3.bmp","pa:pa:ta","Left","39","2","7","4","P","J","23"
"","","approach-retreat","27","296253","0.0-27.0","","","1-4","5470","38","1","Training","Stims/Figures/86-J-0-1.bmp","ta:ka:ta","Down","38","2","8","4","P","J","24"
"","","approach-retreat","28","302568","0.0-28.0","","","1-4","4800","39","1","Training","Stims/Figures/57-C-30-1.bmp","ma:ma:na","Right","39","2","9","4","S","J","25"
"","","approach-retreat","29","309431","0.0-29.0","","","1-4","5350","37","1","Training","Stims/Figures/86-C-30-1.bmp","na:ma:la","Left","37","2","10","4","S","J","26"
"","","approach-retreat","30","316487","0.0-30.0","","","1-4","5545","39","1","Training","Stims/Figures/118-C-20-2.bmp","nala:na","Right","39","2","11","4","S","J","27"
"","","approach-retreat","31","324707","0.0-31.0","","","1-4","6705","37","0","Training","Stims/Figures/144-J-10-3.bmp","tapa:ka","Left","39","2","12","4","P","J","28"
"","","approach-retreat","32","331572","0.0-32.0","","","1-4","5351","40","1","Training","Stims/Figures/7-C-20-4.bmp","na:lala","Down","40","2","13","4","S","J","29"
"","","approach-retreat","33","337902","0.0-33.0","","","1-4","4818","40","1","Training","Stims/Figures/139-J-0-2.bmp","paka:ta","Up","40","2","14","4","P","J","30"
"","","approach-retreat","34","344311","0.0-34.0","","","1-4","4895","40","1","Training","Stims/Figures/19-J-10-4.bmp","ta:kaka","Up","40","2","15","4","P","J","31"
"","","approach-retreat","35","349984","0.0-35.0","","","1-4","4162","40","1","Training","Stims/Figures/7-J-10-4.bmp","pa:pata","Up","40","2","16","4","P","J","32"
"","","approach-retreat","36","355565","0.0-36.0","","","1-4","4070","40","1","Training","Stims/Figures/118-J-0-2.bmp","papa:ta","Up","40","3","1","4","P","J","33"
"","","approach-retreat","37","361901","0.0-37.0","","","1-4","4822","37","0","Training","Stims/Figures/7-C-20-4.bmp","na:lala","Right","39","3","2","4","S","J","34"
"","","approach-retreat","38","369591","0.0-38.0","","","1-4","6179","39","1","Training","Stims/Figures/19-C-20-4.bmp","na:ma:na","Right","39","3","3","4","S","J","35"
"","","approach-retreat","39","376932","0.0-39.0","","","1-4","5827","38","1","Training","Stims/Figures/118-C-20-2.bmp","nala:na","Up","38","3","4","4","S","J","36"
"","","approach-retreat","40","383904","0.0-40.0","","","1-4","5460","40","0","Training","Stims/Figures/139-J-0-2.bmp","paka:ta","Down","38","3","5","4","P","J","37"
"","","approach-retreat","41","390164","0.0-41.0","","","1-4","4750","39","1","Training","Stims/Figures/19-J-10-4.bmp","ta:kaka","Left","39","3","6","4","P","J","38"
"","","approach-retreat","42","396242","0.0-42.0","","","1-4","4565","37","1","Training","Stims/Figures/144-C-30-3.bmp","mamala","Left","37","3","7","4","S","J","39"
"","","approach-retreat","43","402521","0.0-43.0","","","1-4","4765","40","0","Training","Stims/Figures/144-J-10-3.bmp","tapa:ka","Down","38","3","8","4","P","J","40"
"","","approach-retreat","44","409136","0.0-44.0","","","1-4","5103","37","1","Training","Stims/Figures/7-J-10-4.bmp","pa:pata","Right","37","3","9","4","P","J","41"
"","","approach-retreat","45","415543","0.0-45.0","","","1-4","4895","37","1","Training","Stims/Figures/86-C-30-1.bmp","na:ma:la","Left","37","3","10","4","S","J","42"
"","","approach-retreat","46","422119","0.0-46.0","","","1-4","5063","38","1","Training","Stims/Figures/139-C-20-2.bmp","malana","Up","38","3","11","4","S","J","43"
"","","approach-retreat","47","428749","0.0-47.0","","","1-4","5117","39","1","Training","Stims/Figures/57-C-30-1.bmp","ma:ma:na","Right","39","3","12","4","S","J","44"
"","","approach-retreat","48","434614","0.0-48.0","","","1-4","4352","39","1","Training","Stims/Figures/57-J-0-1.bmp","pa:ka:ka","Left","39","3","13","4","P","J","45"
"","","approach-retreat","49","441183","0.0-49.0","","","1-4","5056","38","1","Training","Stims/Figures/86-J-0-1.bmp","ta:ka:ta","Down","38","3","14","4","P","J","46"
"","","approach-retreat","50","447063","0.0-50.0","","","1-4","4370","40","1","Training","Stims/Figures/128-J-10-3.bmp","pa:pa:ta","Up","40","3","15","4","P","J","47"
"","","approach-retreat","51","453131","0.0-51.0","","","1-4","4555","40","1","Training","Stims/Figures/128-C-30-3.bmp","na:lana","Down","40","3","16","4","S","J","48"
"","","approach-retreat","52","459127","0.0-52.0","","","1-4","4484","39","1","Training","Stims/Figures/7-J-10-4.bmp","pa:pata","Left","39","4","1","4","P","J","49"
"","","approach-retreat","53","465145","0.0-53.0","","","1-4","4505","37","1","Training","Stims/Figures/57-J-0-1.bmp","pa:ka:ka","Right","37","4","2","4","P","J","50"
"","","approach-retreat","54","472160","0.0-54.0","","","1-4","5505","39","0","Training","Stims/Figures/128-J-10-3.bmp","pa:pa:ta","Right","37","4","3","4","P","J","51"
"","","approach-retreat","55","477940","0.0-55.0","","","1-4","4270","40","1","Training","Stims/Figures/86-J-0-1.bmp","ta:ka:ta","Up","40","4","4","4","P","J","52"
"","","approach-retreat","56","485842","0.0-56.0","","","1-4","6388","40","1","Training","Stims/Figures/7-C-20-4.bmp","na:lala","Down","40","4","5","4","S","J","53"
"","","approach-retreat","57","491837","0.0-57.0","","","1-4","4483","38","0","Training","Stims/Figures/144-J-10-3.bmp","tapa:ka","Up","40","4","6","4","P","J","54"
"","","approach-retreat","58","499282","0.0-58.0","","","1-4","5932","40","1","Training","Stims/Figures/139-C-20-2.bmp","malana","Down","40","4","7","4","S","J","55"
"","","approach-retreat","59","506468","0.0-59.0","","","1-4","5669","39","1","Training","Stims/Figures/139-J-0-2.bmp","paka:ta","Left","39","4","8","4","P","J","56"
"","","approach-retreat","60","513553","0.0-60.0","","","1-4","5570","38","0","Training","Stims/Figures/144-C-30-3.bmp","mamala","Down","40","4","9","4","S","J","57"
"","","approach-retreat","61","519440","0.0-61.0","","","1-4","4371","37","1","Training","Stims/Figures/19-J-10-4.bmp","ta:kaka","Right","37","4","10","4","P","J","58"
"","","approach-retreat","62","527982","0.0-62.0","","","1-4","7031","37","1","Training","Stims/Figures/57-C-30-1.bmp","ma:ma:na","Left","37","4","11","4","S","J","59"
"","","approach-retreat","63","534131","0.0-63.0","","","1-4","4636","38","1","Training","Stims/Figures/19-C-20-4.bmp","na:ma:na","Up","38","4","12","4","S","J","60"
"","","approach-retreat","64","540094","0.0-64.0","","","1-4","4453","39","1","Training","Stims/Figures/128-C-30-3.bmp","na:lana","Right","39","4","13","4","S","J","61"
"","","approach-retreat","65","545959","0.0-65.0","","","1-4","4355","38","1","Training","Stims/Figures/118-J-0-2.bmp","papa:ta","Down","38","4","14","4","P","J","62"
"","","approach-retreat","66","551739","0.0-66.0","","","1-4","4269","37","1","Training","Stims/Figures/118-C-20-2.bmp","nala:na","Left","37","4","15","4","S","J","63"
"","","approach-retreat","67","557539","0.0-67.0","","","1-4","4289","38","1","Training","Stims/Figures/86-C-30-1.bmp","na:ma:la","Up","38","4","16","4","S","J","64"
"","","approach-retreat","68","563512","0.0-68.0","","","1-4","4454","37","1","Training","Stims/Figures/144-C-30-3.bmp","mamala","Left","37","5","1","4","S","J","65"
"","","approach-retreat","69","569541","0.0-69.0","","","1-4","4515","40","1","Training","Stims/Figures/19-J-10-4.bmp","ta:kaka","Up","40","5","2","4","P","J","66"
"","","approach-retreat","70","575348","0.0-70.0","","","1-4","4294","37","1","Training","Stims/Figures/7-C-20-4.bmp","na:lala","Left","37","5","3","4","S","J","67"
"","","approach-retreat","71","581028","0.0-71.0","","","1-4","4171","39","1","Training","Stims/Figures/139-J-0-2.bmp","paka:ta","Left","39","5","4","4","P","J","68"
"","","approach-retreat","72","586563","0.0-72.0","","","1-4","4021","37","1","Training","Stims/Figures/86-C-30-1.bmp","na:ma:la","Left","37","5","5","4","S","J","69"
"","","approach-retreat","73","592248","0.0-73.0","","","1-4","4152","38","1","Training","Stims/Figures/128-C-30-3.bmp","na:lana","Up","38","5","6","4","S","J","70"
"","","approach-retreat","74","598420","0.0-74.0","","","1-4","4658","39","1","Training","Stims/Figures/118-C-20-2.bmp","nala:na","Right","39","5","7","4","S","J","71"
"","","approach-retreat","75","604236","0.0-75.0","","","1-4","4304","38","1","Training","Stims/Figures/7-J-10-4.bmp","pa:pata","Down","38","5","8","4","P","J","72"
"","","approach-retreat","76","609864","0.0-76.0","","","1-4","4117","39","1","Training","Stims/Figures/57-C-30-1.bmp","ma:ma:na","Right","39","5","9","4","S","J","73"
"","","approach-retreat","77","615617","0.0-77.0","","","1-4","4239","38","1","Training","Stims/Figures/86-J-0-1.bmp","ta:ka:ta","Down","38","5","10","4","P","J","74"
"","","approach-retreat","78","621354","0.0-78.0","","","1-4","4222","37","1","Training","Stims/Figures/118-J-0-2.bmp","papa:ta","Right","37","5","11","4","P","J","75"
"","","approach-retreat","79","627004","0.0-79.0","","","1-4","4138","38","1","Training","Stims/Figures/57-J-0-1.bmp","pa:ka:ka","Down","38","5","12","4","P","J","76"
"","","approach-retreat","80","633145","0.0-80.0","","","1-4","4627","40","1","Training","Stims/Figures/19-C-20-4.bmp","na:ma:na","Down","40","5","13","4","S","J","77"
"","","approach-retreat","81","639796","0.0-81.0","","","1-4","5136","40","1","Training","Stims/Figures/128-J-10-3.bmp","pa:pa:ta","Up","40","5","14","4","P","J","78"
"","","approach-retreat","82","646342","0.0-82.0","","","1-4","5035","38","1","Training","Stims/Figures/139-C-20-2.bmp","malana","Up","38","5","15","4","S","J","79"
"","","approach-retreat","83","652112","0.0-83.0","","","1-4","4256","37","1","Training","Stims/Figures/144-J-10-3.bmp","tapa:ka","Right","37","5","16","4","P","J","80"
"","","approach-retreat","84","658017","0.0-84.0","","","1-4","4394","37","1","Training","Stims/Figures/128-C-30-3.bmp","na:lana","Left","37","6","1","4","S","J","81"
"","","approach-retreat","85","663854","0.0-85.0","","","1-4","4325","37","1","Training","Stims/Figures/86-C-30-1.bmp","na:ma:la","Left","37","6","2","4","S","J","82"
"","","approach-retreat","86","669639","0.0-86.0","","","1-4","4273","38","1","Training","Stims/Figures/19-J-10-4.bmp","ta:kaka","Down","38","6","3","4","P","J","83"
"","","approach-retreat","87","676557","0.0-87.0","","","1-4","5408","38","1","Training","Stims/Figures/139-J-0-2.bmp","paka:ta","Down","38","6","4","4","P","J","84"
"","","approach-retreat","88","682514","0.0-88.0","","","1-4","4444","39","1","Training","Stims/Figures/7-J-10-4.bmp","pa:pata","Left","39","6","5","4","P","J","85"
"","","approach-retreat","89","688474","0.0-89.0","","","1-4","4448","38","1","Training","Stims/Figures/139-C-20-2.bmp","malana","Up","38","6","6","4","S","J","86"
"","","approach-retreat","90","694189","0.0-90.0","","","1-4","4201","39","1","Training","Stims/Figures/57-J-0-1.bmp","pa:ka:ka","Left","39","6","7","4","P","J","87"
"","","approach-retreat","91","699875","0.0-91.0","","","1-4","4174","37","1","Training","Stims/Figures/86-J-0-1.bmp","ta:ka:ta","Right","37","6","8","4","P","J","88"
"","","approach-retreat","92","705626","0.0-92.0","","","1-4","4242","39","1","Training","Stims/Figures/144-C-30-3.bmp","mamala","Right","39","6","9","4","S","J","89"
"","","approach-retreat","93","712188","0.0-93.0","","","1-4","5050","38","1","Training","Stims/Figures/118-C-20-2.bmp","nala:na","Up","38","6","10","4","S","J","90"
"","","approach-retreat","94","718189","0.0-94.0","","","1-4","4492","40","1","Training","Stims/Figures/144-J-10-3.bmp","tapa:ka","Up","40","6","11","4","P","J","91"
"","","approach-retreat","95","724148","0.0-95.0","","","1-4","4449","40","1","Training","Stims/Figures/57-C-30-1.bmp","ma:ma:na","Down","40","6","12","4","S","J","92"
"","","approach-retreat","96","729932","0.0-96.0","","","1-4","4273","39","1","Training","Stims/Figures/7-C-20-4.bmp","na:lala","Right","39","6","13","4","S","J","93"
"","","approach-retreat","97","735781","0.0-97.0","","","1-4","4335","37","1","Training","Stims/Figures/118-J-0-2.bmp","papa:ta","Right","37","6","14","4","P","J","94"
"","","approach-retreat","98","741649","0.0-98.0","","","1-4","4355","38","1","Training","Stims/Figures/19-C-20-4.bmp","na:ma:na","Up","38","6","15","4","S","J","95"
"","","approach-retreat","99","747910","0.0-99.0","","","1-4","4746","38","1","Training","Stims/Figures/128-J-10-3.bmp","pa:pa:ta","Down","38","6","16","4","P","J","96"
"","","approach-retreat","100","754138","0.0-100.0","","","1-4","4717","39","1","Training","Stims/Figures/7-C-20-4.bmp","na:lala","Right","39","7","1","4","S","J","97"
"","","approach-retreat","101","759976","0.0-101.0","","","1-4","4323","39","1","Training","Stims/Figures/86-C-30-1.bmp","na:ma:la","Right","39","7","2","4","S","J","98"
"","","approach-retreat","102","768541","0.0-102.0","","","1-4","7051","37","1","Training","Stims/Figures/57-J-0-1.bmp","pa:ka:ka","Right","37","7","3","4","P","J","99"
"","","approach-retreat","103","775667","0.0-103.0","","","1-4","5614","37","1","Training","Stims/Figures/139-C-20-2.bmp","malana","Left","37","7","4","4","S","J","100"
"","","approach-retreat","104","782888","0.0-104.0","","","1-4","5708","39","1","Training","Stims/Figures/19-C-20-4.bmp","na:ma:na","Right","39","7","5","4","S","J","101"
"","","approach-retreat","105","789223","0.0-105.0","","","1-4","4819","39","1","Training","Stims/Figures/128-J-10-3.bmp","pa:pa:ta","Left","39","7","6","4","P","J","102"
"","","approach-retreat","106","795189","0.0-106.0","","","1-4","4451","40","1","Training","Stims/Figures/118-C-20-2.bmp","nala:na","Down","40","7","7","4","S","J","103"
"","","approach-retreat","107","800896","0.0-107.0","","","1-4","4191","40","1","Training","Stims/Figures/19-J-10-4.bmp","ta:kaka","Up","40","7","8","4","P","J","104"
"","","approach-retreat","108","806515","0.0-108.0","","","1-4","4107","40","1","Training","Stims/Figures/86-J-0-1.bmp","ta:ka:ta","Up","40","7","9","4","P","J","105"
"","","approach-retreat","109","812130","0.0-109.0","","","1-4","4100","40","1","Training","Stims/Figures/144-J-10-3.bmp","tapa:ka","Up","40","7","10","4","P","J","106"
"","","approach-retreat","110","818262","0.0-110.0","","","1-4","4619","40","1","Training","Stims/Figures/139-J-0-2.bmp","paka:ta","Up","40","7","11","4","P","J","107"
"","","approach-retreat","111","824379","0.0-111.0","","","1-4","4605","39","1","Training","Stims/Figures/7-J-10-4.bmp","pa:pata","Left","39","7","12","4","P","J","108"
"","","approach-retreat","112","830127","0.0-112.0","","","1-4","4232","38","1","Training","Stims/Figures/118-J-0-2.bmp","papa:ta","Down","38","7","13","4","P","J","109"
"","","approach-retreat","113","835832","0.0-113.0","","","1-4","4192","40","1","Training","Stims/Figures/128-C-30-3.bmp","na:lana","Down","40","7","14","4","S","J","110"
"","","approach-retreat","114","844197","0.0-114.0","","","1-4","6850","40","1","Training","Stims/Figures/57-C-30-1.bmp","ma:ma:na","Down","40","7","15","4","S","J","111"
"","","approach-retreat","115","850973","0.0-115.0","","","1-4","5263","37","1","Training","Stims/Figures/144-C-30-3.bmp","mamala","Left","37","7","16","4","S","J","112"
"","","approach-retreat","116","856934","0.0-116.0","","","1-4","4443","38","1","Training","Stims/Figures/86-C-30-1.bmp","na:ma:la","Up","38","8","1","4","S","J","113"
"","","approach-retreat","117","863756","0.0-117.0","","","1-4","5311","40","1","Training","Stims/Figures/86-J-0-1.bmp","ta:ka:ta","Up","40","8","2","4","P","J","114"
"","","approach-retreat","118","869588","0.0-118.0","","","1-4","4318","40","1","Training","Stims/Figures/144-C-30-3.bmp","mamala","Down","40","8","3","4","S","J","115"
"","","approach-retreat","119","875215","0.0-119.0","","","1-4","4110","40","1","Training","Stims/Figures/7-C-20-4.bmp","na:lala","Down","40","8","4","4","S","J","116"
"","","approach-retreat","120","880923","0.0-120.0","","","1-4","4193","37","1","Training","Stims/Figures/7-J-10-4.bmp","pa:pata","Right","37","8","5","4","P","J","117"
"","","approach-retreat","121","886659","0.0-121.0","","","1-4","4223","37","1","Training","Stims/Figures/19-J-10-4.bmp","ta:kaka","Right","37","8","6","4","P","J","118"
"","","approach-retreat","122","892719","0.0-122.0","","","1-4","4550","37","1","Training","Stims/Figures/118-C-20-2.bmp","nala:na","Left","37","8","7","4","S","J","119"
"","","approach-retreat","123","898493","0.0-123.0","","","1-4","4263","37","1","Training","Stims/Figures/139-C-20-2.bmp","malana","Left","37","8","8","4","S","J","120"
"","","approach-retreat","124","904148","0.0-124.0","","","1-4","4143","38","1","Training","Stims/Figures/139-J-0-2.bmp","paka:ta","Down","38","8","9","4","P","J","121"
"","","approach-retreat","125","910134","0.0-125.0","","","1-4","4474","40","1","Training","Stims/Figures/128-J-10-3.bmp","pa:pa:ta","Up","40","8","10","4","P","J","122"
"","","approach-retreat","126","915968","0.0-126.0","","","1-4","4323","39","1","Training","Stims/Figures/57-C-30-1.bmp","ma:ma:na","Right","39","8","11","4","S","J","123"
"","","approach-retreat","127","923301","0.0-127.0","","","1-4","5823","37","1","Training","Stims/Figures/57-J-0-1.bmp","pa:ka:ka","Right","37","8","12","4","P","J","124"
"","","approach-retreat","128","930622","0.0-128.0","","","1-4","5808","39","1","Training","Stims/Figures/118-J-0-2.bmp","papa:ta","Left","39","8","13","4","P","J","125"
"","","approach-retreat","129","936610","0.0-129.0","","","1-4","4474","40","1","Training","Stims/Figures/144-J-10-3.bmp","tapa:ka","Up","40","8","14","4","P","J","126"
"","","approach-retreat","130","942602","0.0-130.0","","","1-4","4481","37","1","Training","Stims/Figures/128-C-30-3.bmp","na:lana","Left","37","8","15","4","S","J","127"
"","","approach-retreat","131","948998","0.0-131.0","","","1-4","4883","40","1","Training","Stims/Figures/19-C-20-4.bmp","na:ma:na","Down","40","8","16","4","S","J","128"
"","","approach-retreat","132","954782","0.0-132.0","","","1-4","4272","39","1","Training","Stims/Figures/128-C-30-3.bmp","na:lana","Right","39","9","1","4","S","J","129"
"","","approach-retreat","133","960782","0.0-133.0","","","1-4","4490","37","1","Training","Stims/Figures/128-J-10-3.bmp","pa:pa:ta","Right","37","9","2","4","P","J","130"
"","","approach-retreat","134","966454","0.0-134.0","","","1-4","4162","39","1","Training","Stims/Figures/19-C-20-4.bmp","na:ma:na","Right","39","9","3","4","S","J","131"
"","","approach-retreat","135","972283","0.0-135.0","","","1-4","4315","40","1","Training","Stims/Figures/57-C-30-1.bmp","ma:ma:na","Down","40","9","4","4","S","J","132"
"","","approach-retreat","136","978208","0.0-136.0","","","1-4","4412","38","1","Training","Stims/Figures/7-C-20-4.bmp","na:lala","Up","38","9","5","4","S","J","133"
"","","approach-retreat","137","984647","0.0-137.0","","","1-4","4925","37","1","Training","Stims/Figures/144-C-30-3.bmp","mamala","Left","37","9","6","4","S","J","134"
"","","approach-retreat","138","990601","0.0-138.0","","","1-4","4442","40","1","Training","Stims/Figures/118-C-20-2.bmp","nala:na","Down","40","9","7","4","S","J","135"
"","","approach-retreat","139","997569","0.0-139.0","","","1-4","5457","40","1","Training","Stims/Figures/139-C-20-2.bmp","malana","Down","40","9","8","4","S","J","136"
"","","approach-retreat","140","1003392","0.0-140.0","","","1-4","4311","39","1","Training","Stims/Figures/7-J-10-4.bmp","pa:pata","Left","39","9","9","4","P","J","137"
"","","approach-retreat","141","1009613","0.0-141.0","","","1-4","4709","40","1","Training","Stims/Figures/144-J-10-3.bmp","tapa:ka","Up","40","9","10","4","P","J","138"
"","","approach-retreat","142","1018097","0.0-142.0","","","1-4","6970","40","1","Training","Stims/Figures/57-J-0-1.bmp","pa:ka:ka","Up","40","9","11","4","P","J","139"
"","","approach-retreat","143","1023681","0.0-143.0","","","1-4","4072","37","1","Training","Stims/Figures/139-J-0-2.bmp","paka:ta","Right","37","9","12","4","P","J","140"
"","","approach-retreat","144","1029555","0.0-144.0","","","1-4","4361","39","1","Training","Stims/Figures/19-J-10-4.bmp","ta:kaka","Left","39","9","13","4","P","J","141"
"","","approach-retreat","145","1036025","0.0-145.0","","","1-4","4956","40","1","Training","Stims/Figures/86-C-30-1.bmp","na:ma:la","Down","40","9","14","4","S","J","142"
"","","approach-retreat","146","1041606","0.0-146.0","","","1-4","4067","39","1","Training","Stims/Figures/86-J-0-1.bmp","ta:ka:ta","Left","39","9","15","4","P","J","143"
"","","approach-retreat","147","1047321","0.0-147.0","","","1-4","4200","38","0","Training","Stims/Figures/118-J-0-2.bmp","papa:ta","Up","40","9","16","4","P","J","144"
"11240","","instructions","148","1058562","0.0-148.0","[{""page_index"":0,""viewing_time"":11239}]","","","","","","","","","","","","","","","",""
"","","approach-retreat","149","1066542","0.0-149.0","","","1-4","6469","39","0","Testing","Stims/Figures/139-J-0-2.bmp","paka:ta","Right","37","1","1","4","P","J","1"
"","","approach-retreat","150","1074950","0.0-150.0","","","1-4","6894","37","0","Testing","Stims/Figures/118-C-20-2.bmp","nala:na","Right","39","1","2","4","S","J","2"
"","","approach-retreat","151","1080864","0.0-151.0","","","1-4","4403","38","0","Testing","Stims/Figures/118-J-0-2.bmp","papa:ta","Up","40","1","3","4","P","J","3"
"","","approach-retreat","152","1090146","0.0-152.0","","","1-4","7774","37","0","Testing","Stims/Figures/85-J-0-2.bmp","tapata","Left","39","1","4","4","P","J","4"
"","","approach-retreat","153","1096280","0.0-153.0","","","1-4","4625","40","1","Testing","Stims/Figures/86-C-30-1.bmp","na:ma:la","Down","40","1","5","4","S","J","5"
"","","approach-retreat","154","1102946","0.0-154.0","","","1-4","5156","40","1","Testing","Stims/Figures/87-C-20-4.bmp","mama:la","Down","40","1","6","4","S","J","6"
"","","approach-retreat","155","1108966","0.0-155.0","","","1-4","4509","39","1","Testing","Stims/Figures/139-C-20-2.bmp","malana","Right","39","1","7","4","S","J","7"
"","","approach-retreat","156","1114787","0.0-156.0","","","1-4","4311","39","0","Testing","Stims/Figures/87-J-10-4.bmp","pakaka","Right","37","1","8","4","P","J","8"
"","","approach-retreat","157","1120475","0.0-157.0","","","1-4","4180","40","0","Testing","Stims/Figures/100-J-10-3.bmp","takata","Down","38","1","9","4","P","J","9"
"","","approach-retreat","158","1127050","0.0-158.0","","","1-4","5066","38","1","Testing","Stims/Figures/100-C-30-3.bmp","na:la:la","Up","38","1","10","4","S","J","10"
"","","approach-retreat","159","1135788","0.0-159.0","","","1-4","7229","38","1","Testing","Stims/Figures/19-J-10-4.bmp","ta:kaka","Down","38","1","11","4","P","J","11"
"","","approach-retreat","160","1142052","0.0-160.0","","","1-4","4750","38","0","Testing","Stims/Figures/144-J-10-3.bmp","tapa:ka","Up","40","1","12","4","P","J","12"
"","","approach-retreat","161","1148141","0.0-161.0","","","1-4","4581","37","0","Testing","Stims/Figures/128-J-10-3.bmp","pa:pa:ta","Left","39","1","13","4","P","J","13"
"","","approach-retreat","162","1153799","0.0-162.0","","","1-4","4143","40","1","Testing","Stims/Figures/71-J-0-1.bmp","tapa:ta","Up","40","1","14","4","P","J","14"
"","","approach-retreat","163","1161504","0.0-163.0","","","1-4","6192","37","1","Testing","Stims/Figures/85-C-20-2.bmp","ma:mala","Left","37","1","15","4","S","J","15"
"","","approach-retreat","164","1167264","0.0-164.0","","","1-4","4249","38","0","Testing","Stims/Figures/86-J-0-1.bmp","ta:ka:ta","Up","40","1","16","4","P","J","16"
"","","approach-retreat","165","1172925","0.0-165.0","","","1-4","4148","37","1","Testing","Stims/Figures/71-C-30-1.bmp","mala:la","Left","37","1","17","4","S","J","17"
"","","approach-retreat","166","1178669","0.0-166.0","","","1-4","4236","40","1","Testing","Stims/Figures/57-C-30-1.bmp","ma:ma:na","Down","40","1","18","4","S","J","18"
"","","approach-retreat","167","1185038","0.0-167.0","","","1-4","4854","37","1","Testing","Stims/Figures/144-C-30-3.bmp","mamala","Left","37","1","19","4","S","J","19"
"","","approach-retreat","168","1207444","0.0-168.0","","","1-4","20891","39","0","Testing","Stims/Figures/57-J-0-1.bmp","pa:ka:ka","Right","37","1","20","4","P","J","20"
"","","approach-retreat","169","1213797","0.0-169.0","","","1-4","4843","40","1","Testing","Stims/Figures/7-J-10-4.bmp","pa:pata","Up","40","1","21","4","P","J","21"
"","","approach-retreat","170","1221154","0.0-170.0","","","1-4","5844","38","0","Testing","Stims/Figures/7-C-20-4.bmp","na:lala","Down","40","1","22","4","S","J","22"
"","","approach-retreat","171","1226933","0.0-171.0","","","1-4","4266","39","0","Testing","Stims/Figures/19-C-20-4.bmp","na:ma:na","Left","37","1","23","4","S","J","23"
"","","approach-retreat","172","1233474","0.0-172.0","","","1-4","5030","39","1","Testing","Stims/Figures/128-C-30-3.bmp","na:lana","Right","39","1","24","4","S","J","24"
"","","approach-retreat","173","1239276","0.0-173.0","","","1-4","4292","37","1","Testing","Stims/Figures/85-C-20-2.bmp","ma:mala","Left","37","2","1","4","S","J","25"
"","","approach-retreat","174","1245098","0.0-174.0","","","1-4","4309","39","0","Testing","Stims/Figures/118-J-0-2.bmp","papa:ta","Right","37","2","2","4","P","J","26"
"","","approach-retreat","175","1250891","0.0-175.0","","","1-4","4283","40","1","Testing","Stims/Figures/100-C-30-3.bmp","na:la:la","Down","40","2","3","4","S","J","27"
"","","approach-retreat","176","1256604","0.0-176.0","","","1-4","4201","37","1","Testing","Stims/Figures/19-J-10-4.bmp","ta:kaka","Right","37","2","4","4","P","J","28"
"","","approach-retreat","177","1263533","0.0-177.0","","","1-4","5421","39","1","Testing","Stims/Figures/71-C-30-1.bmp","mala:la","Right","39","2","5","4","S","J","29"
"","","approach-retreat","178","1269262","0.0-178.0","","","1-4","4218","40","0","Testing","Stims/Figures/57-J-0-1.bmp","pa:ka:ka","Down","38","2","6","4","P","J","30"
"","","approach-retreat","179","1276370","0.0-179.0","","","1-4","5597","37","0","Testing","Stims/Figures/71-J-0-1.bmp","tapa:ta","Left","39","2","7","4","P","J","31"
"","","approach-retreat","180","1282220","0.0-180.0","","","1-4","4339","40","1","Testing","Stims/Figures/144-C-30-3.bmp","mamala","Down","40","2","8","4","S","J","32"
"","","approach-retreat","181","1288351","0.0-181.0","","","1-4","4621","38","1","Testing","Stims/Figures/57-C-30-1.bmp","ma:ma:na","Up","38","2","9","4","S","J","33"
"","","approach-retreat","182","1294049","0.0-182.0","","","1-4","4190","40","1","Testing","Stims/Figures/7-C-20-4.bmp","na:lala","Down","40","2","10","4","S","J","34"
"","","approach-retreat","183","1300179","0.0-183.0","","","1-4","4620","38","0","Testing","Stims/Figures/85-J-0-2.bmp","tapata","Up","40","2","11","4","P","J","35"
"","","approach-retreat","184","1307765","0.0-184.0","","","1-4","6080","38","1","Testing","Stims/Figures/19-C-20-4.bmp","na:ma:na","Up","38","2","12","4","S","J","36"
"","","approach-retreat","185","1315239","0.0-185.0","","","1-4","5965","37","1","Testing","Stims/Figures/118-C-20-2.bmp","nala:na","Left","37","2","13","4","S","J","37"
"","","approach-retreat","186","1323598","0.0-186.0","","","1-4","6849","40","1","Testing","Stims/Figures/139-C-20-2.bmp","malana","Down","40","2","14","4","S","J","38"
"","","approach-retreat","187","1334992","0.0-187.0","","","1-4","9886","39","0","Testing","Stims/Figures/100-J-10-3.bmp","takata","Right","37","2","15","4","P","J","39"
"","","approach-retreat","188","1343861","0.0-188.0","","","1-4","7356","38","1","Testing","Stims/Figures/87-C-20-4.bmp","mama:la","Up","38","2","16","4","S","J","40"
"","","approach-retreat","189","1349686","0.0-189.0","","","1-4","4317","37","0","Testing","Stims/Figures/87-J-10-4.bmp","pakaka","Left","39","2","17","4","P","J","41"
"","","approach-retreat","190","1355517","0.0-190.0","","","1-4","4322","39","1","Testing","Stims/Figures/139-J-0-2.bmp","paka:ta","Left","39","2","18","4","P","J","42"
"","","approach-retreat","191","1361149","0.0-191.0","","","1-4","4121","38","1","Testing","Stims/Figures/86-C-30-1.bmp","na:ma:la","Up","38","2","19","4","S","J","43"
"","","approach-retreat","192","1366718","0.0-192.0","","","1-4","4056","38","0","Testing","Stims/Figures/7-J-10-4.bmp","pa:pata","Up","40","2","20","4","P","J","44"
"","","approach-retreat","193","1372407","0.0-193.0","","","1-4","4178","40","0","Testing","Stims/Figures/128-J-10-3.bmp","pa:pa:ta","Down","38","2","21","4","P","J","45"
"","","approach-retreat","194","1379021","0.0-194.0","","","1-4","5101","37","0","Testing","Stims/Figures/86-J-0-1.bmp","ta:ka:ta","Left","39","2","22","4","P","J","46"
"","","approach-retreat","195","1386549","0.0-195.0","","","1-4","6017","39","0","Testing","Stims/Figures/144-J-10-3.bmp","tapa:ka","Right","37","2","23","4","P","J","47"
"","","approach-retreat","196","1393073","0.0-196.0","","","1-4","5011","39","1","Testing","Stims/Figures/128-C-30-3.bmp","na:lana","Right","39","2","24","4","S","J","48"
"","","approach-retreat","197","1398799","0.0-197.0","","","1-4","4212","38","0","Testing","Stims/Figures/139-J-0-2.bmp","paka:ta","Up","40","3","1","4","P","J","49"
"","","approach-retreat","198","1405559","0.0-198.0","","","1-4","5250","39","0","Testing","Stims/Figures/144-J-10-3.bmp","tapa:ka","Right","37","3","2","4","P","J","50"
"","","approach-retreat","199","1414074","0.0-199.0","","","1-4","7003","39","1","Testing","Stims/Figures/19-J-10-4.bmp","ta:kaka","Left","39","3","3","4","P","J","51"
"","","approach-retreat","200","1423596","0.0-200.0","","","1-4","8010","37","0","Testing","Stims/Figures/71-J-0-1.bmp","tapa:ta","Left","39","3","4","4","P","J","52"
"","","approach-retreat","201","1432990","0.0-201.0","","","1-4","7884","38","1","Testing","Stims/Figures/100-C-30-3.bmp","na:la:la","Up","38","3","5","4","S","J","53"
"","","approach-retreat","202","1440908","0.0-202.0","","","1-4","6407","39","1","Testing","Stims/Figures/144-C-30-3.bmp","mamala","Right","39","3","6","4","S","J","54"
"","","approach-retreat","203","1449229","0.0-203.0","","","1-4","6810","40","1","Testing","Stims/Figures/139-C-20-2.bmp","malana","Down","40","3","7","4","S","J","55"
"","","approach-retreat","204","1455986","0.0-204.0","","","1-4","5244","37","1","Testing","Stims/Figures/57-C-30-1.bmp","ma:ma:na","Left","37","3","8","4","S","J","56"
"","","approach-retreat","205","1464585","0.0-205.0","","","1-4","7087","37","0","Testing","Stims/Figures/7-J-10-4.bmp","pa:pata","Left","39","3","9","4","P","J","57"
"","","approach-retreat","206","1470592","0.0-206.0","","","1-4","4496","39","1","Testing","Stims/Figures/19-C-20-4.bmp","na:ma:na","Right","39","3","10","4","S","J","58"
"","","approach-retreat","207","1477847","0.0-207.0","","","1-4","5743","40","1","Testing","Stims/Figures/86-C-30-1.bmp","na:ma:la","Down","40","3","11","4","S","J","59"
"","","approach-retreat","208","1483375","0.0-208.0","","","1-4","4018","37","0","Testing","Stims/Figures/128-C-30-3.bmp","na:lana","Right","39","3","12","4","S","J","60"
"","","approach-retreat","209","1488988","0.0-209.0","","","1-4","4104","37","1","Testing","Stims/Figures/7-C-20-4.bmp","na:lala","Left","37","3","13","4","S","J","61"
"","","approach-retreat","210","1494808","0.0-210.0","","","1-4","4306","40","0","Testing","Stims/Figures/85-J-0-2.bmp","tapata","Down","38","3","14","4","P","J","62"
"","","approach-retreat","211","1500482","0.0-211.0","","","1-4","4163","40","1","Testing","Stims/Figures/86-J-0-1.bmp","ta:ka:ta","Up","40","3","15","4","P","J","63"
"","","approach-retreat","212","1506529","0.0-212.0","","","1-4","4538","39","0","Testing","Stims/Figures/100-J-10-3.bmp","takata","Right","37","3","16","4","P","J","64"
"","","approach-retreat","213","1512237","0.0-213.0","","","1-4","4200","40","0","Testing","Stims/Figures/57-J-0-1.bmp","pa:ka:ka","Down","38","3","17","4","P","J","65"
"","","approach-retreat","214","1518929","0.0-214.0","","","1-4","5180","39","1","Testing","Stims/Figures/71-C-30-1.bmp","mala:la","Right","39","3","18","4","S","J","66"
"","","approach-retreat","215","1524879","0.0-215.0","","","1-4","4439","40","0","Testing","Stims/Figures/118-J-0-2.bmp","papa:ta","Down","38","3","19","4","P","J","67"
"","","approach-retreat","216","1530401","0.0-216.0","","","1-4","4014","38","0","Testing","Stims/Figures/87-J-10-4.bmp","pakaka","Up","40","3","20","4","P","J","68"
"","","approach-retreat","217","1536036","0.0-217.0","","","1-4","4127","40","1","Testing","Stims/Figures/85-C-20-2.bmp","ma:mala","Down","40","3","21","4","S","J","69"
"","","approach-retreat","218","1541895","0.0-218.0","","","1-4","4352","38","0","Testing","Stims/Figures/128-J-10-3.bmp","pa:pa:ta","Up","40","3","22","4","P","J","70"
"","","approach-retreat","219","1548363","0.0-219.0","","","1-4","4958","37","1","Testing","Stims/Figures/87-C-20-4.bmp","mama:la","Left","37","3","23","4","S","J","71"
"","","approach-retreat","220","1554983","0.0-220.0","","","1-4","5109","38","1","Testing","Stims/Figures/118-C-20-2.bmp","nala:na","Up","38","3","24","4","S","J","72"
"","","approach-retreat","221","1578313","0.0-221.0","","","1-4","21822","37","1","Testing","Stims/Figures/128-C-30-3.bmp","na:lana","Left","37","4","1","4","S","J","73"
"","","approach-retreat","222","1584092","0.0-222.0","","","1-4","4271","40","1","Testing","Stims/Figures/7-C-20-4.bmp","na:lala","Down","40","4","2","4","S","J","74"
"","","approach-retreat","223","1589916","0.0-223.0","","","1-4","4314","37","1","Testing","Stims/Figures/19-J-10-4.bmp","ta:kaka","Right","37","4","3","4","P","J","75"
"","","approach-retreat","224","1595766","0.0-224.0","","","1-4","4340","39","1","Testing","Stims/Figures/139-C-20-2.bmp","malana","Right","39","4","4","4","S","J","76"
"","","approach-retreat","225","1601615","0.0-225.0","","","1-4","4338","40","1","Testing","Stims/Figures/85-C-20-2.bmp","ma:mala","Down","40","4","5","4","S","J","77"
"","","approach-retreat","226","1607741","0.0-226.0","","","1-4","4619","40","0","Testing","Stims/Figures/100-C-30-3.bmp","na:la:la","Up","38","4","6","4","S","J","78"
"","","approach-retreat","227","1613488","0.0-227.0","","","1-4","4237","37","0","Testing","Stims/Figures/118-C-20-2.bmp","nala:na","Right","39","4","7","4","S","J","79"
"","","approach-retreat","228","1619168","0.0-228.0","","","1-4","4169","37","0","Testing","Stims/Figures/7-J-10-4.bmp","pa:pata","Left","39","4","8","4","P","J","80"
"","","approach-retreat","229","1625317","0.0-229.0","","","1-4","4637","38","0","Testing","Stims/Figures/118-J-0-2.bmp","papa:ta","Up","40","4","9","4","P","J","81"
"","","approach-retreat","230","1631272","0.0-230.0","","","1-4","4447","37","1","Testing","Stims/Figures/71-C-30-1.bmp","mala:la","Left","37","4","10","4","S","J","82"
"","","approach-retreat","231","1637174","0.0-231.0","","","1-4","4390","38","0","Testing","Stims/Figures/100-J-10-3.bmp","takata","Up","40","4","11","4","P","J","83"
"","","approach-retreat","232","1643277","0.0-232.0","","","1-4","4591","40","1","Testing","Stims/Figures/144-C-30-3.bmp","mamala","Down","40","4","12","4","S","J","84"
"","","approach-retreat","233","1649220","0.0-233.0","","","1-4","4432","37","0","Testing","Stims/Figures/71-J-0-1.bmp","tapa:ta","Left","39","4","13","4","P","J","85"
"","","approach-retreat","234","1656178","0.0-234.0","","","1-4","5447","39","0","Testing","Stims/Figures/86-J-0-1.bmp","ta:ka:ta","Right","37","4","14","4","P","J","86"
"","","approach-retreat","235","1662644","0.0-235.0","","","1-4","4954","37","1","Testing","Stims/Figures/87-C-20-4.bmp","mama:la","Left","37","4","15","4","S","J","87"
"","","approach-retreat","236","1668509","0.0-236.0","","","1-4","4356","37","0","Testing","Stims/Figures/57-C-30-1.bmp","ma:ma:na","Right","39","4","16","4","S","J","88"
"","","approach-retreat","237","1674057","0.0-237.0","","","1-4","4038","38","0","Testing","Stims/Figures/144-J-10-3.bmp","tapa:ka","Up","40","4","17","4","P","J","89"
"","","approach-retreat","238","1679727","0.0-238.0","","","1-4","4161","40","0","Testing","Stims/Figures/128-J-10-3.bmp","pa:pa:ta","Down","38","4","18","4","P","J","90"
"","","approach-retreat","239","1686273","0.0-239.0","","","1-4","5038","38","1","Testing","Stims/Figures/86-C-30-1.bmp","na:ma:la","Up","38","4","19","4","S","J","91"
"","","approach-retreat","240","1692671","0.0-240.0","","","1-4","4889","40","0","Testing","Stims/Figures/85-J-0-2.bmp","tapata","Down","38","4","20","4","P","J","92"
"","","approach-retreat","241","1699042","0.0-241.0","","","1-4","4857","38","0","Testing","Stims/Figures/139-J-0-2.bmp","paka:ta","Up","40","4","21","4","P","J","93"
"","","approach-retreat","242","1705157","0.0-242.0","","","1-4","4604","40","1","Testing","Stims/Figures/19-C-20-4.bmp","na:ma:na","Down","40","4","22","4","S","J","94"
"","","approach-retreat","243","1710846","0.0-243.0","","","1-4","4178","37","0","Testing","Stims/Figures/87-J-10-4.bmp","pakaka","Left","39","4","23","4","P","J","95"
"","","approach-retreat","244","1718081","0.0-244.0","","","1-4","5723","37","1","Testing","Stims/Figures/57-J-0-1.bmp","pa:ka:ka","Right","37","4","24","4","P","J","96"
"43802","","survey-text","245","1761892","0.0-245.0","","{""Q0"":""0029/2018""}","","","","","","","","","","","","","","",""
