"rt","key_press","trial_type","trial_index","time_elapsed","internal_node_id","view_history","responses","Id","Rt","ResKeyCode","ResCorr","TrialType2","Image","Label","Location","CorrectResponse","Block","BlockTrial","Condition","LabelType","Subcondition","trialNum"
"5612","32","text","0","5614","0.0-0.0-0.0","","","","","","","","","","","","","","","","",""
"30926","","instructions","1","36542","0.0-1.0","[{""page_index"":0,""viewing_time"":30924}]","","","","","","","","","","","","","","","",""
"9952","","survey-multi-choice","2","46533","0.0-2.0","","{""Q0"":""Da"",""Q1"":""Da"",""Q2"":""Da"",""Q3"":""Da"",""Q4"":""Da"",""Q5"":""Da""}","","","","","","","","","","","","","","",""
"","","bio","3","53431","0.0-3.0","","{""age"":""19"",""gender"":""f"",""specify"":""""}","","","","","","","","","","","","","","",""
"","","approach-retreat","4","60945","0.0-4.0","","","1-5","6003","38","1","Training","Stims/Figures/128-J-10-3.bmp","vafava","Down","38","1","1","6A","C1","J","1"
"","","approach-retreat","5","70090","0.0-5.0","","","1-5","7633","37","0","Training","Stims/Figures/44-C-30-3.bmp","za:ha:za","Right","39","1","2","6A","C2","J","2"
"","","approach-retreat","6","78265","0.0-6.0","","","1-5","6666","40","0","Training","Stims/Figures/44-J-10-3.bmp","fa:fasha","Down","38","1","3","6A","C1","J","3"
"","","approach-retreat","7","84936","0.0-7.0","","","1-5","5162","38","0","Training","Stims/Figures/57-C-30-1.bmp","sasa:ha","Down","40","1","4","6A","C2","J","4"
"","","approach-retreat","8","94840","0.0-8.0","","","1-5","8395","40","1","Training","Stims/Figures/7-J-10-4.bmp","fa:shasha","Up","40","1","5","6A","C1","J","5"
"","","approach-retreat","9","104498","0.0-9.0","","","1-5","8150","39","0","Training","Stims/Figures/94-J-0-2.bmp","vasha:va","Right","37","1","6","6A","C1","J","6"
"","","approach-retreat","10","111393","0.0-10.0","","","1-5","5387","39","1","Training","Stims/Figures/57-J-0-1.bmp","fa:fava","Left","39","1","7","6A","C1","J","7"
"","","approach-retreat","11","118298","0.0-11.0","","","1-5","5396","40","0","Training","Stims/Figures/19-C-20-4.bmp","za:sa:za","Up","38","1","8","6A","C2","J","8"
"","","approach-retreat","12","124593","0.0-12.0","","","1-5","4784","37","0","Training","Stims/Figures/128-C-30-3.bmp","sasaza","Right","39","1","9","6A","C2","J","9"
"","","approach-retreat","13","131161","0.0-13.0","","","1-5","5060","37","1","Training","Stims/Figures/86-J-0-1.bmp","vashava","Right","37","1","10","6A","C1","J","10"
"","","approach-retreat","14","137544","0.0-14.0","","","1-5","4875","37","1","Training","Stims/Figures/94-C-20-2.bmp","zaha:za","Left","37","1","11","6A","C2","J","11"
"","","approach-retreat","15","143921","0.0-15.0","","","1-5","4869","38","0","Training","Stims/Figures/86-C-30-1.bmp","zasaha","Down","40","1","12","6A","C2","J","12"
"","","approach-retreat","16","149832","0.0-16.0","","","1-5","4402","39","0","Training","Stims/Figures/85-C-20-2.bmp","za:ha:ha","Left","37","1","13","6A","C2","J","13"
"","","approach-retreat","17","155585","0.0-17.0","","","1-5","4245","39","1","Training","Stims/Figures/85-J-0-2.bmp","fafava","Left","39","1","14","6A","C1","J","14"
"","","approach-retreat","18","162849","0.0-18.0","","","1-5","5756","38","0","Training","Stims/Figures/19-J-10-4.bmp","fafa:va","Up","40","1","15","6A","C1","J","15"
"","","approach-retreat","19","172152","0.0-19.0","","","1-5","7795","38","1","Training","Stims/Figures/7-C-20-4.bmp","saha:ha","Up","38","1","16","6A","C2","J","16"
"","","approach-retreat","20","178417","0.0-20.0","","","1-5","4756","38","1","Training","Stims/Figures/44-J-10-3.bmp","fa:fasha","Down","38","2","1","6A","C1","J","17"
"","","approach-retreat","21","185241","0.0-21.0","","","1-5","5316","38","0","Training","Stims/Figures/19-J-10-4.bmp","fafa:va","Up","40","2","2","6A","C1","J","18"
"","","approach-retreat","22","191776","0.0-22.0","","","1-5","5027","38","1","Training","Stims/Figures/7-J-10-4.bmp","fa:shasha","Down","38","2","3","6A","C1","J","19"
"","","approach-retreat","23","199161","0.0-23.0","","","1-5","5875","37","0","Training","Stims/Figures/86-J-0-1.bmp","vashava","Left","39","2","4","6A","C1","J","20"
"","","approach-retreat","24","205856","0.0-24.0","","","1-5","5187","38","1","Training","Stims/Figures/19-C-20-4.bmp","za:sa:za","Up","38","2","5","6A","C2","J","21"
"","","approach-retreat","25","213184","0.0-25.0","","","1-5","5821","39","1","Training","Stims/Figures/7-C-20-4.bmp","saha:ha","Right","39","2","6","6A","C2","J","22"
"","","approach-retreat","26","219345","0.0-26.0","","","1-5","4652","38","1","Training","Stims/Figures/57-J-0-1.bmp","fa:fava","Down","38","2","7","6A","C1","J","23"
"","","approach-retreat","27","225528","0.0-27.0","","","1-5","4675","37","1","Training","Stims/Figures/57-C-30-1.bmp","sasa:ha","Left","37","2","8","6A","C2","J","24"
"","","approach-retreat","28","231376","0.0-28.0","","","1-5","4341","39","0","Training","Stims/Figures/128-J-10-3.bmp","vafava","Right","37","2","9","6A","C1","J","25"
"","","approach-retreat","29","237801","0.0-29.0","","","1-5","4915","39","1","Training","Stims/Figures/85-C-20-2.bmp","za:ha:ha","Right","39","2","10","6A","C2","J","26"
"","","approach-retreat","30","244064","0.0-30.0","","","1-5","4755","39","1","Training","Stims/Figures/86-C-30-1.bmp","zasaha","Right","39","2","11","6A","C2","J","27"
"","","approach-retreat","31","252464","0.0-31.0","","","1-5","6891","37","1","Training","Stims/Figures/94-C-20-2.bmp","zaha:za","Left","37","2","12","6A","C2","J","28"
"","","approach-retreat","32","258880","0.0-32.0","","","1-5","4906","38","0","Training","Stims/Figures/44-C-30-3.bmp","za:ha:za","Down","40","2","13","6A","C2","J","29"
"","","approach-retreat","33","266064","0.0-33.0","","","1-5","5675","40","1","Training","Stims/Figures/94-J-0-2.bmp","vasha:va","Up","40","2","14","6A","C1","J","30"
"","","approach-retreat","34","272102","0.0-34.0","","","1-5","4531","40","1","Training","Stims/Figures/85-J-0-2.bmp","fafava","Up","40","2","15","6A","C1","J","31"
"","","approach-retreat","35","278314","0.0-35.0","","","1-5","4703","39","0","Training","Stims/Figures/128-C-30-3.bmp","sasaza","Left","37","2","16","6A","C2","J","32"
"","","approach-retreat","36","284393","0.0-36.0","","","1-5","4571","39","0","Training","Stims/Figures/44-C-30-3.bmp","za:ha:za","Left","37","3","1","6A","C2","J","33"
"","","approach-retreat","37","290745","0.0-37.0","","","1-5","4845","39","1","Training","Stims/Figures/94-C-20-2.bmp","zaha:za","Right","39","3","2","6A","C2","J","34"
"","","approach-retreat","38","297594","0.0-38.0","","","1-5","5339","39","1","Training","Stims/Figures/19-J-10-4.bmp","fafa:va","Left","39","3","3","6A","C1","J","35"
"","","approach-retreat","39","307360","0.0-39.0","","","1-5","8259","38","0","Training","Stims/Figures/85-C-20-2.bmp","za:ha:ha","Down","40","3","4","6A","C2","J","36"
"","","approach-retreat","40","315264","0.0-40.0","","","1-5","6395","38","0","Training","Stims/Figures/86-J-0-1.bmp","vashava","Up","40","3","5","6A","C1","J","37"
"","","approach-retreat","41","322761","0.0-41.0","","","1-5","5988","40","0","Training","Stims/Figures/44-J-10-3.bmp","fa:fasha","Down","38","3","6","6A","C1","J","38"
"","","approach-retreat","42","329176","0.0-42.0","","","1-5","4907","38","0","Training","Stims/Figures/19-C-20-4.bmp","za:sa:za","Down","40","3","7","6A","C2","J","39"
"","","approach-retreat","43","337010","0.0-43.0","","","1-5","6323","38","0","Training","Stims/Figures/94-J-0-2.bmp","vasha:va","Up","40","3","8","6A","C1","J","40"
"","","approach-retreat","44","344673","0.0-44.0","","","1-5","6155","37","0","Training","Stims/Figures/7-C-20-4.bmp","saha:ha","Right","39","3","9","6A","C2","J","41"
"","","approach-retreat","45","351105","0.0-45.0","","","1-5","4923","39","0","Training","Stims/Figures/85-J-0-2.bmp","fafava","Right","37","3","10","6A","C1","J","42"
"","","approach-retreat","46","357681","0.0-46.0","","","1-5","5067","39","0","Training","Stims/Figures/128-C-30-3.bmp","sasaza","Left","37","3","11","6A","C2","J","43"
"","","approach-retreat","47","366361","0.0-47.0","","","1-5","7172","38","1","Training","Stims/Figures/57-C-30-1.bmp","sasa:ha","Up","38","3","12","6A","C2","J","44"
"","","approach-retreat","48","373776","0.0-48.0","","","1-5","5906","39","0","Training","Stims/Figures/7-J-10-4.bmp","fa:shasha","Right","37","3","13","6A","C1","J","45"
"","","approach-retreat","49","382152","0.0-49.0","","","1-5","6869","40","0","Training","Stims/Figures/57-J-0-1.bmp","fa:fava","Down","38","3","14","6A","C1","J","46"
"","","approach-retreat","50","391584","0.0-50.0","","","1-5","7923","37","1","Training","Stims/Figures/86-C-30-1.bmp","zasaha","Left","37","3","15","6A","C2","J","47"
"","","approach-retreat","51","397920","0.0-51.0","","","1-5","4827","40","1","Training","Stims/Figures/128-J-10-3.bmp","vafava","Up","40","3","16","6A","C1","J","48"
"","","approach-retreat","52","404456","0.0-52.0","","","1-5","5028","37","0","Training","Stims/Figures/19-C-20-4.bmp","za:sa:za","Right","39","4","1","6A","C2","J","49"
"","","approach-retreat","53","410057","0.0-53.0","","","1-5","4092","38","1","Training","Stims/Figures/94-C-20-2.bmp","zaha:za","Up","38","4","2","6A","C2","J","50"
"","","approach-retreat","54","415681","0.0-54.0","","","1-5","4115","40","0","Training","Stims/Figures/85-C-20-2.bmp","za:ha:ha","Up","38","4","3","6A","C2","J","51"
"","","approach-retreat","55","421736","0.0-55.0","","","1-5","4547","40","0","Training","Stims/Figures/44-C-30-3.bmp","za:ha:za","Up","38","4","4","6A","C2","J","52"
"","","approach-retreat","56","429328","0.0-56.0","","","1-5","6083","40","0","Training","Stims/Figures/57-J-0-1.bmp","fa:fava","Down","38","4","5","6A","C1","J","53"
"","","approach-retreat","57","435328","0.0-57.0","","","1-5","4492","37","1","Training","Stims/Figures/7-J-10-4.bmp","fa:shasha","Right","37","4","6","6A","C1","J","54"
"","","approach-retreat","58","441559","0.0-58.0","","","1-5","4722","37","1","Training","Stims/Figures/44-J-10-3.bmp","fa:fasha","Right","37","4","7","6A","C1","J","55"
"","","approach-retreat","59","448032","0.0-59.0","","","1-5","4963","37","0","Training","Stims/Figures/128-J-10-3.bmp","vafava","Left","39","4","8","6A","C1","J","56"
"","","approach-retreat","60","453895","0.0-60.0","","","1-5","4355","38","1","Training","Stims/Figures/86-J-0-1.bmp","vashava","Down","38","4","9","6A","C1","J","57"
"","","approach-retreat","61","460825","0.0-61.0","","","1-5","5421","40","0","Training","Stims/Figures/19-J-10-4.bmp","fafa:va","Down","38","4","10","6A","C1","J","58"
"","","approach-retreat","62","467673","0.0-62.0","","","1-5","5339","39","0","Training","Stims/Figures/57-C-30-1.bmp","sasa:ha","Left","37","4","11","6A","C2","J","59"
"","","approach-retreat","63","474368","0.0-63.0","","","1-5","5188","37","1","Training","Stims/Figures/85-J-0-2.bmp","fafava","Right","37","4","12","6A","C1","J","60"
"","","approach-retreat","64","483001","0.0-64.0","","","1-5","7123","39","1","Training","Stims/Figures/94-J-0-2.bmp","vasha:va","Left","39","4","13","6A","C1","J","61"
"","","approach-retreat","65","489753","0.0-65.0","","","1-5","5244","38","0","Training","Stims/Figures/7-C-20-4.bmp","saha:ha","Down","40","4","14","6A","C2","J","62"
"","","approach-retreat","66","495552","0.0-66.0","","","1-5","4291","37","1","Training","Stims/Figures/86-C-30-1.bmp","zasaha","Left","37","4","15","6A","C2","J","63"
"","","approach-retreat","67","503128","0.0-67.0","","","1-5","6068","38","1","Training","Stims/Figures/128-C-30-3.bmp","sasaza","Up","38","4","16","6A","C2","J","64"
"","","approach-retreat","68","510743","0.0-68.0","","","1-5","6107","40","1","Training","Stims/Figures/19-J-10-4.bmp","fafa:va","Up","40","5","1","6A","C1","J","65"
"","","approach-retreat","69","516456","0.0-69.0","","","1-5","4204","37","0","Training","Stims/Figures/86-J-0-1.bmp","vashava","Left","39","5","2","6A","C1","J","66"
"","","approach-retreat","70","523232","0.0-70.0","","","1-5","5270","38","1","Training","Stims/Figures/44-C-30-3.bmp","za:ha:za","Up","38","5","3","6A","C2","J","67"
"","","approach-retreat","71","538425","0.0-71.0","","","1-5","13685","39","0","Training","Stims/Figures/57-J-0-1.bmp","fa:fava","Right","37","5","4","6A","C1","J","68"
"","","approach-retreat","72","544616","0.0-72.0","","","1-5","4684","38","1","Training","Stims/Figures/7-C-20-4.bmp","saha:ha","Up","38","5","5","6A","C2","J","69"
"","","approach-retreat","73","551248","0.0-73.0","","","1-5","5124","37","1","Training","Stims/Figures/94-C-20-2.bmp","zaha:za","Left","37","5","6","6A","C2","J","70"
"","","approach-retreat","74","557040","0.0-74.0","","","1-5","4282","40","1","Training","Stims/Figures/57-C-30-1.bmp","sasa:ha","Down","40","5","7","6A","C2","J","71"
"","","approach-retreat","75","562759","0.0-75.0","","","1-5","4211","37","1","Training","Stims/Figures/86-C-30-1.bmp","zasaha","Left","37","5","8","6A","C2","J","72"
"","","approach-retreat","76","569568","0.0-76.0","","","1-5","5299","39","0","Training","Stims/Figures/7-J-10-4.bmp","fa:shasha","Right","37","5","9","6A","C1","J","73"
"","","approach-retreat","77","576352","0.0-77.0","","","1-5","5275","40","0","Training","Stims/Figures/128-J-10-3.bmp","vafava","Down","38","5","10","6A","C1","J","74"
"","","approach-retreat","78","582353","0.0-78.0","","","1-5","4492","38","1","Training","Stims/Figures/85-J-0-2.bmp","fafava","Down","38","5","11","6A","C1","J","75"
"","","approach-retreat","79","588513","0.0-79.0","","","1-5","4651","40","0","Training","Stims/Figures/44-J-10-3.bmp","fa:fasha","Down","38","5","12","6A","C1","J","76"
"","","approach-retreat","80","595392","0.0-80.0","","","1-5","5369","37","0","Training","Stims/Figures/85-C-20-2.bmp","za:ha:ha","Right","39","5","13","6A","C2","J","77"
"","","approach-retreat","81","603617","0.0-81.0","","","1-5","6716","38","0","Training","Stims/Figures/94-J-0-2.bmp","vasha:va","Up","40","5","14","6A","C1","J","78"
"","","approach-retreat","82","610088","0.0-82.0","","","1-5","4963","39","1","Training","Stims/Figures/128-C-30-3.bmp","sasaza","Right","39","5","15","6A","C2","J","79"
"","","approach-retreat","83","616977","0.0-83.0","","","1-5","5377","39","0","Training","Stims/Figures/19-C-20-4.bmp","za:sa:za","Left","37","5","16","6A","C2","J","80"
"","","approach-retreat","84","624791","0.0-84.0","","","1-5","6306","38","1","Training","Stims/Figures/57-J-0-1.bmp","fa:fava","Down","38","6","1","6A","C1","J","81"
"","","approach-retreat","85","632082","0.0-85.0","","","1-5","5783","37","0","Training","Stims/Figures/44-C-30-3.bmp","za:ha:za","Right","39","6","2","6A","C2","J","82"
"","","approach-retreat","86","638671","0.0-86.0","","","1-5","5080","39","1","Training","Stims/Figures/128-C-30-3.bmp","sasaza","Right","39","6","3","6A","C2","J","83"
"","","approach-retreat","87","644873","0.0-87.0","","","1-5","4694","39","1","Training","Stims/Figures/86-C-30-1.bmp","zasaha","Right","39","6","4","6A","C2","J","84"
"","","approach-retreat","88","652417","0.0-88.0","","","1-5","6035","37","1","Training","Stims/Figures/85-C-20-2.bmp","za:ha:ha","Left","37","6","5","6A","C2","J","85"
"","","approach-retreat","89","659441","0.0-89.0","","","1-5","5516","40","0","Training","Stims/Figures/7-J-10-4.bmp","fa:shasha","Down","38","6","6","6A","C1","J","86"
"","","approach-retreat","90","665792","0.0-90.0","","","1-5","4844","38","0","Training","Stims/Figures/85-J-0-2.bmp","fafava","Up","40","6","7","6A","C1","J","87"
"","","approach-retreat","91","672465","0.0-91.0","","","1-5","5165","39","0","Training","Stims/Figures/7-C-20-4.bmp","saha:ha","Left","37","6","8","6A","C2","J","88"
"","","approach-retreat","92","678671","0.0-92.0","","","1-5","4701","39","1","Training","Stims/Figures/86-J-0-1.bmp","vashava","Left","39","6","9","6A","C1","J","89"
"","","approach-retreat","93","684984","0.0-93.0","","","1-5","4804","39","0","Training","Stims/Figures/57-C-30-1.bmp","sasa:ha","Left","37","6","10","6A","C2","J","90"
"","","approach-retreat","94","691360","0.0-94.0","","","1-5","4867","40","0","Training","Stims/Figures/19-C-20-4.bmp","za:sa:za","Up","38","6","11","6A","C2","J","91"
"","","approach-retreat","95","699208","0.0-95.0","","","1-5","6340","37","0","Training","Stims/Figures/94-C-20-2.bmp","zaha:za","Right","39","6","12","6A","C2","J","92"
"","","approach-retreat","96","706241","0.0-96.0","","","1-5","5524","40","0","Training","Stims/Figures/19-J-10-4.bmp","fafa:va","Down","38","6","13","6A","C1","J","93"
"","","approach-retreat","97","713529","0.0-97.0","","","1-5","5780","38","0","Training","Stims/Figures/44-J-10-3.bmp","fa:fasha","Up","40","6","14","6A","C1","J","94"
"","","approach-retreat","98","723672","0.0-98.0","","","1-5","8635","40","1","Training","Stims/Figures/94-J-0-2.bmp","vasha:va","Up","40","6","15","6A","C1","J","95"
"","","approach-retreat","99","730160","0.0-99.0","","","1-5","4978","38","1","Training","Stims/Figures/128-J-10-3.bmp","vafava","Down","38","6","16","6A","C1","J","96"
"","","approach-retreat","100","736585","0.0-100.0","","","1-5","4916","39","0","Training","Stims/Figures/19-J-10-4.bmp","fafa:va","Right","37","7","1","6A","C1","J","97"
"","","approach-retreat","101","742791","0.0-101.0","","","1-5","4699","38","1","Training","Stims/Figures/86-J-0-1.bmp","vashava","Down","38","7","2","6A","C1","J","98"
"","","approach-retreat","102","749519","0.0-102.0","","","1-5","5220","39","1","Training","Stims/Figures/128-C-30-3.bmp","sasaza","Right","39","7","3","6A","C2","J","99"
"","","approach-retreat","103","755407","0.0-103.0","","","1-5","4380","37","0","Training","Stims/Figures/19-C-20-4.bmp","za:sa:za","Right","39","7","4","6A","C2","J","100"
"","","approach-retreat","104","761560","0.0-104.0","","","1-5","4644","38","1","Training","Stims/Figures/94-J-0-2.bmp","vasha:va","Down","38","7","5","6A","C1","J","101"
"","","approach-retreat","105","769424","0.0-105.0","","","1-5","6356","40","1","Training","Stims/Figures/44-C-30-3.bmp","za:ha:za","Down","40","7","6","6A","C2","J","102"
"","","approach-retreat","106","776969","0.0-106.0","","","1-5","6036","37","1","Training","Stims/Figures/7-C-20-4.bmp","saha:ha","Left","37","7","7","6A","C2","J","103"
"","","approach-retreat","107","786920","0.0-107.0","","","1-5","8444","40","0","Training","Stims/Figures/86-C-30-1.bmp","zasaha","Up","38","7","8","6A","C2","J","104"
"","","approach-retreat","108","793313","0.0-108.0","","","1-5","4885","37","0","Training","Stims/Figures/57-J-0-1.bmp","fa:fava","Left","39","7","9","6A","C1","J","105"
"","","approach-retreat","109","799992","0.0-109.0","","","1-5","5171","38","1","Training","Stims/Figures/85-C-20-2.bmp","za:ha:ha","Up","38","7","10","6A","C2","J","106"
"","","approach-retreat","110","806000","0.0-110.0","","","1-5","4501","40","1","Training","Stims/Figures/7-J-10-4.bmp","fa:shasha","Up","40","7","11","6A","C1","J","107"
"","","approach-retreat","111","815359","0.0-111.0","","","1-5","7851","37","1","Training","Stims/Figures/94-C-20-2.bmp","zaha:za","Left","37","7","12","6A","C2","J","108"
"","","approach-retreat","112","821784","0.0-112.0","","","1-5","4916","37","0","Training","Stims/Figures/128-J-10-3.bmp","vafava","Left","39","7","13","6A","C1","J","109"
"","","approach-retreat","113","828568","0.0-113.0","","","1-5","5276","40","0","Training","Stims/Figures/44-J-10-3.bmp","fa:fasha","Down","38","7","14","6A","C1","J","110"
"","","approach-retreat","114","834425","0.0-114.0","","","1-5","4348","37","1","Training","Stims/Figures/85-J-0-2.bmp","fafava","Right","37","7","15","6A","C1","J","111"
"","","approach-retreat","115","841657","0.0-115.0","","","1-5","5723","40","0","Training","Stims/Figures/57-C-30-1.bmp","sasa:ha","Up","38","7","16","6A","C2","J","112"
"","","approach-retreat","116","849792","0.0-116.0","","","1-5","6628","37","0","Training","Stims/Figures/19-J-10-4.bmp","fafa:va","Left","39","8","1","6A","C1","J","113"
"","","approach-retreat","117","856607","0.0-117.0","","","1-5","5309","38","0","Training","Stims/Figures/86-C-30-1.bmp","zasaha","Down","40","8","2","6A","C2","J","114"
"","","approach-retreat","118","862569","0.0-118.0","","","1-5","4453","39","1","Training","Stims/Figures/85-J-0-2.bmp","fafava","Left","39","8","3","6A","C1","J","115"
"","","approach-retreat","119","869176","0.0-119.0","","","1-5","5100","40","0","Training","Stims/Figures/128-C-30-3.bmp","sasaza","Up","38","8","4","6A","C2","J","116"
"","","approach-retreat","120","877887","0.0-120.0","","","1-5","7203","39","1","Training","Stims/Figures/7-C-20-4.bmp","saha:ha","Right","39","8","5","6A","C2","J","117"
"","","approach-retreat","121","884786","0.0-121.0","","","1-5","5390","40","0","Training","Stims/Figures/85-C-20-2.bmp","za:ha:ha","Up","38","8","6","6A","C2","J","118"
"","","approach-retreat","122","891050","0.0-122.0","","","1-5","4755","40","1","Training","Stims/Figures/19-C-20-4.bmp","za:sa:za","Down","40","8","7","6A","C2","J","119"
"","","approach-retreat","123","899000","0.0-123.0","","","1-5","6443","37","0","Training","Stims/Figures/94-J-0-2.bmp","vasha:va","Left","39","8","8","6A","C1","J","120"
"","","approach-retreat","124","905473","0.0-124.0","","","1-5","4965","38","1","Training","Stims/Figures/7-J-10-4.bmp","fa:shasha","Down","38","8","9","6A","C1","J","121"
"","","approach-retreat","125","911729","0.0-125.0","","","1-5","4747","40","0","Training","Stims/Figures/57-C-30-1.bmp","sasa:ha","Up","38","8","10","6A","C2","J","122"
"","","approach-retreat","126","918712","0.0-126.0","","","1-5","5477","37","1","Training","Stims/Figures/57-J-0-1.bmp","fa:fava","Right","37","8","11","6A","C1","J","123"
"","","approach-retreat","127","926455","0.0-127.0","","","1-5","6235","38","1","Training","Stims/Figures/44-C-30-3.bmp","za:ha:za","Up","38","8","12","6A","C2","J","124"
"","","approach-retreat","128","933624","0.0-128.0","","","1-5","5661","40","0","Training","Stims/Figures/44-J-10-3.bmp","fa:fasha","Down","38","8","13","6A","C1","J","125"
"","","approach-retreat","129","939831","0.0-129.0","","","1-5","4699","39","1","Training","Stims/Figures/86-J-0-1.bmp","vashava","Left","39","8","14","6A","C1","J","126"
"","","approach-retreat","130","945770","0.0-130.0","","","1-5","4431","37","0","Training","Stims/Figures/94-C-20-2.bmp","zaha:za","Right","39","8","15","6A","C2","J","127"
"","","approach-retreat","131","951617","0.0-131.0","","","1-5","4338","37","1","Training","Stims/Figures/128-J-10-3.bmp","vafava","Right","37","8","16","6A","C1","J","128"
"","","approach-retreat","132","961090","0.0-132.0","","","1-5","7963","40","0","Training","Stims/Figures/94-J-0-2.bmp","vasha:va","Down","38","9","1","6A","C1","J","129"
"","","approach-retreat","133","967489","0.0-133.0","","","1-5","4892","37","1","Training","Stims/Figures/86-C-30-1.bmp","zasaha","Left","37","9","2","6A","C2","J","130"
"","","approach-retreat","134","974136","0.0-134.0","","","1-5","5140","40","0","Training","Stims/Figures/128-J-10-3.bmp","vafava","Down","38","9","3","6A","C1","J","131"
"","","approach-retreat","135","979848","0.0-135.0","","","1-5","4203","39","1","Training","Stims/Figures/86-J-0-1.bmp","vashava","Left","39","9","4","6A","C1","J","132"
"","","approach-retreat","136","986976","0.0-136.0","","","1-5","5620","37","0","Training","Stims/Figures/19-J-10-4.bmp","fafa:va","Left","39","9","5","6A","C1","J","133"
"","","approach-retreat","137","993673","0.0-137.0","","","1-5","5188","40","0","Training","Stims/Figures/57-C-30-1.bmp","sasa:ha","Up","38","9","6","6A","C2","J","134"
"","","approach-retreat","138","999736","0.0-138.0","","","1-5","4555","40","1","Training","Stims/Figures/44-J-10-3.bmp","fa:fasha","Up","40","9","7","6A","C1","J","135"
"","","approach-retreat","139","1006297","0.0-139.0","","","1-5","5049","37","1","Training","Stims/Figures/128-C-30-3.bmp","sasaza","Left","37","9","8","6A","C2","J","136"
"","","approach-retreat","140","1013202","0.0-140.0","","","1-5","5395","40","1","Training","Stims/Figures/7-C-20-4.bmp","saha:ha","Down","40","9","9","6A","C2","J","137"
"","","approach-retreat","141","1019129","0.0-141.0","","","1-5","4419","40","0","Training","Stims/Figures/94-C-20-2.bmp","zaha:za","Up","38","9","10","6A","C2","J","138"
"","","approach-retreat","142","1025211","0.0-142.0","","","1-5","4574","37","1","Training","Stims/Figures/57-J-0-1.bmp","fa:fava","Right","37","9","11","6A","C1","J","139"
"","","approach-retreat","143","1032071","0.0-143.0","","","1-5","5353","40","1","Training","Stims/Figures/44-C-30-3.bmp","za:ha:za","Down","40","9","12","6A","C2","J","140"
"","","approach-retreat","144","1038089","0.0-144.0","","","1-5","4510","37","1","Training","Stims/Figures/85-J-0-2.bmp","fafava","Right","37","9","13","6A","C1","J","141"
"","","approach-retreat","145","1043969","0.0-145.0","","","1-5","4372","37","0","Training","Stims/Figures/19-C-20-4.bmp","za:sa:za","Right","39","9","14","6A","C2","J","142"
"","","approach-retreat","146","1052257","0.0-146.0","","","1-5","6780","38","1","Training","Stims/Figures/85-C-20-2.bmp","za:ha:ha","Up","38","9","15","6A","C2","J","143"
"","","approach-retreat","147","1058176","0.0-147.0","","","1-5","4411","37","1","Training","Stims/Figures/7-J-10-4.bmp","fa:shasha","Right","37","9","16","6A","C1","J","144"
"15573","","instructions","148","1073750","0.0-148.0","[{""page_index"":0,""viewing_time"":15573}]","","","","","","","","","","","","","","","",""
"","","approach-retreat","149","1087697","0.0-149.0","","","1-5","12442","39","0","Testing","Stims/Figures/144-J-10-3.bmp","va:fa:sha","Right","37","1","1","6A","C1","J","1"
"","","approach-retreat","150","1098065","0.0-150.0","","","1-5","8861","39","0","Testing","Stims/Figures/74-C-20-4.bmp","sa:saza","Left","37","1","2","6A","C2","J","2"
"","","approach-retreat","151","1105961","0.0-151.0","","","1-5","6388","38","1","Testing","Stims/Figures/44-C-30-3.bmp","za:ha:za","Up","38","1","3","6A","C2","J","3"
"","","approach-retreat","152","1113369","0.0-152.0","","","1-5","5900","40","1","Testing","Stims/Figures/71-C-30-1.bmp","sa:saha","Down","40","1","4","6A","C2","J","4"
"","","approach-retreat","153","1120928","0.0-153.0","","","1-5","6051","38","1","Testing","Stims/Figures/71-J-0-1.bmp","va:fasha","Down","38","1","5","6A","C1","J","5"
"","","approach-retreat","154","1127400","0.0-154.0","","","1-5","4965","37","1","Testing","Stims/Figures/74-J-10-4.bmp","vafa:sha","Right","37","1","6","6A","C1","J","6"
"","","approach-retreat","155","1140921","0.0-155.0","","","1-5","12014","38","1","Testing","Stims/Figures/86-C-30-1.bmp","zasaha","Up","38","1","7","6A","C2","J","7"
"","","approach-retreat","156","1151178","0.0-156.0","","","1-5","8747","40","1","Testing","Stims/Figures/128-J-10-3.bmp","vafava","Up","40","1","8","6A","C1","J","8"
"","","approach-retreat","157","1159048","0.0-157.0","","","1-5","6363","39","0","Testing","Stims/Figures/19-J-10-4.bmp","fafa:va","Right","37","1","9","6A","C1","J","9"
"","","approach-retreat","158","1165465","0.0-158.0","","","1-5","4910","40","1","Testing","Stims/Figures/94-J-0-2.bmp","vasha:va","Up","40","1","10","6A","C1","J","10"
"","","approach-retreat","159","1170824","0.0-159.0","","","1-5","3852","37","0","Testing","Stims/Figures/7-J-10-4.bmp","fa:shasha","Left","39","1","11","6A","C1","J","11"
"","","approach-retreat","160","1177312","0.0-160.0","","","1-5","4982","40","1","Testing","Stims/Figures/57-C-30-1.bmp","sasa:ha","Down","40","1","12","6A","C2","J","12"
"","","approach-retreat","161","1183608","0.0-161.0","","","1-5","4789","38","0","Testing","Stims/Figures/19-C-20-4.bmp","za:sa:za","Down","40","1","13","6A","C2","J","13"
"","","approach-retreat","162","1198432","0.0-162.0","","","1-5","13318","37","0","Testing","Stims/Figures/44-J-10-3.bmp","fa:fasha","Left","39","1","14","6A","C1","J","14"
"","","approach-retreat","163","1206232","0.0-163.0","","","1-5","6293","40","1","Testing","Stims/Figures/85-J-0-2.bmp","fafava","Up","40","1","15","6A","C1","J","15"
"","","approach-retreat","164","1223568","0.0-164.0","","","1-5","15828","37","0","Testing","Stims/Figures/57-J-0-1.bmp","fa:fava","Left","39","1","16","6A","C1","J","16"
"","","approach-retreat","165","1245808","0.0-165.0","","","1-5","20732","39","0","Testing","Stims/Figures/7-C-20-4.bmp","saha:ha","Left","37","1","17","6A","C2","J","17"
"","","approach-retreat","166","1253519","0.0-166.0","","","1-5","6205","40","0","Testing","Stims/Figures/139-J-0-2.bmp","va:shava","Down","38","1","18","6A","C1","J","18"
"","","approach-retreat","167","1259473","0.0-167.0","","","1-5","4440","37","0","Testing","Stims/Figures/85-C-20-2.bmp","za:ha:ha","Right","39","1","19","6A","C2","J","19"
"","","approach-retreat","168","1266704","0.0-168.0","","","1-5","5725","38","1","Testing","Stims/Figures/139-C-20-2.bmp","sahaha","Up","38","1","20","6A","C2","J","20"
"","","approach-retreat","169","1273256","0.0-169.0","","","1-5","5046","40","0","Testing","Stims/Figures/86-J-0-1.bmp","vashava","Down","38","1","21","6A","C1","J","21"
"","","approach-retreat","170","1278992","0.0-170.0","","","1-5","4229","37","0","Testing","Stims/Figures/94-C-20-2.bmp","zaha:za","Right","39","1","22","6A","C2","J","22"
"","","approach-retreat","171","1286457","0.0-171.0","","","1-5","5956","37","1","Testing","Stims/Figures/128-C-30-3.bmp","sasaza","Left","37","1","23","6A","C2","J","23"
"","","approach-retreat","172","1292424","0.0-172.0","","","1-5","4461","39","1","Testing","Stims/Figures/144-C-30-3.bmp","sasa:za","Right","39","1","24","6A","C2","J","24"
"","","approach-retreat","173","1299112","0.0-173.0","","","1-5","5182","39","1","Testing","Stims/Figures/7-J-10-4.bmp","fa:shasha","Left","39","2","1","6A","C1","J","25"
"","","approach-retreat","174","1306039","0.0-174.0","","","1-5","5421","40","1","Testing","Stims/Figures/85-J-0-2.bmp","fafava","Up","40","2","2","6A","C1","J","26"
"","","approach-retreat","175","1313463","0.0-175.0","","","1-5","5917","38","1","Testing","Stims/Figures/71-C-30-1.bmp","sa:saha","Up","38","2","3","6A","C2","J","27"
"","","approach-retreat","176","1328649","0.0-176.0","","","1-5","13679","40","0","Testing","Stims/Figures/144-J-10-3.bmp","va:fa:sha","Down","38","2","4","6A","C1","J","28"
"","","approach-retreat","177","1335936","0.0-177.0","","","1-5","5780","40","0","Testing","Stims/Figures/74-J-10-4.bmp","vafa:sha","Down","38","2","5","6A","C1","J","29"
"","","approach-retreat","178","1342217","0.0-178.0","","","1-5","4775","39","1","Testing","Stims/Figures/86-C-30-1.bmp","zasaha","Right","39","2","6","6A","C2","J","30"
"","","approach-retreat","179","1348192","0.0-179.0","","","1-5","4468","40","0","Testing","Stims/Figures/44-J-10-3.bmp","fa:fasha","Down","38","2","7","6A","C1","J","31"
"","","approach-retreat","180","1354856","0.0-180.0","","","1-5","5156","39","1","Testing","Stims/Figures/19-J-10-4.bmp","fafa:va","Left","39","2","8","6A","C1","J","32"
"","","approach-retreat","181","1360456","0.0-181.0","","","1-5","4093","37","1","Testing","Stims/Figures/86-J-0-1.bmp","vashava","Right","37","2","9","6A","C1","J","33"
"","","approach-retreat","182","1367512","0.0-182.0","","","1-5","5550","40","0","Testing","Stims/Figures/57-C-30-1.bmp","sasa:ha","Up","38","2","10","6A","C2","J","34"
"","","approach-retreat","183","1375575","0.0-183.0","","","1-5","6557","39","1","Testing","Stims/Figures/74-C-20-4.bmp","sa:saza","Right","39","2","11","6A","C2","J","35"
"","","approach-retreat","184","1385823","0.0-184.0","","","1-5","8742","38","0","Testing","Stims/Figures/57-J-0-1.bmp","fa:fava","Up","40","2","12","6A","C1","J","36"
"","","approach-retreat","185","1391504","0.0-185.0","","","1-5","4175","37","1","Testing","Stims/Figures/94-J-0-2.bmp","vasha:va","Right","37","2","13","6A","C1","J","37"
"","","approach-retreat","186","1398441","0.0-186.0","","","1-5","5429","40","0","Testing","Stims/Figures/71-J-0-1.bmp","va:fasha","Down","38","2","14","6A","C1","J","38"
"","","approach-retreat","187","1405129","0.0-187.0","","","1-5","5181","37","1","Testing","Stims/Figures/94-C-20-2.bmp","zaha:za","Left","37","2","15","6A","C2","J","39"
"","","approach-retreat","188","1410961","0.0-188.0","","","1-5","4326","39","0","Testing","Stims/Figures/44-C-30-3.bmp","za:ha:za","Left","37","2","16","6A","C2","J","40"
"","","approach-retreat","189","1417184","0.0-189.0","","","1-5","4716","37","1","Testing","Stims/Figures/139-C-20-2.bmp","sahaha","Left","37","2","17","6A","C2","J","41"
"","","approach-retreat","190","1424640","0.0-190.0","","","1-5","5949","38","0","Testing","Stims/Figures/19-C-20-4.bmp","za:sa:za","Down","40","2","18","6A","C2","J","42"
"","","approach-retreat","191","1430832","0.0-191.0","","","1-5","4685","39","0","Testing","Stims/Figures/128-J-10-3.bmp","vafava","Right","37","2","19","6A","C1","J","43"
"","","approach-retreat","192","1436752","0.0-192.0","","","1-5","4413","40","1","Testing","Stims/Figures/144-C-30-3.bmp","sasa:za","Down","40","2","20","6A","C2","J","44"
"","","approach-retreat","193","1442599","0.0-193.0","","","1-5","4341","39","0","Testing","Stims/Figures/7-C-20-4.bmp","saha:ha","Left","37","2","21","6A","C2","J","45"
"","","approach-retreat","194","1448967","0.0-194.0","","","1-5","4862","40","1","Testing","Stims/Figures/139-J-0-2.bmp","va:shava","Up","40","2","22","6A","C1","J","46"
"","","approach-retreat","195","1456137","0.0-195.0","","","1-5","5662","38","1","Testing","Stims/Figures/128-C-30-3.bmp","sasaza","Up","38","2","23","6A","C2","J","47"
"","","approach-retreat","196","1462129","0.0-196.0","","","1-5","4485","37","0","Testing","Stims/Figures/85-C-20-2.bmp","za:ha:ha","Right","39","2","24","6A","C2","J","48"
"","","approach-retreat","197","1468248","0.0-197.0","","","1-5","4612","38","0","Testing","Stims/Figures/144-C-30-3.bmp","sasa:za","Down","40","3","1","6A","C2","J","49"
"","","approach-retreat","198","1474088","0.0-198.0","","","1-5","4334","40","1","Testing","Stims/Figures/44-C-30-3.bmp","za:ha:za","Down","40","3","2","6A","C2","J","50"
"","","approach-retreat","199","1480536","0.0-199.0","","","1-5","4937","39","1","Testing","Stims/Figures/85-J-0-2.bmp","fafava","Left","39","3","3","6A","C1","J","51"
"","","approach-retreat","200","1487536","0.0-200.0","","","1-5","5494","37","0","Testing","Stims/Figures/7-C-20-4.bmp","saha:ha","Right","39","3","4","6A","C2","J","52"
"","","approach-retreat","201","1493408","0.0-201.0","","","1-5","4365","37","0","Testing","Stims/Figures/85-C-20-2.bmp","za:ha:ha","Right","39","3","5","6A","C2","J","53"
"","","approach-retreat","202","1499936","0.0-202.0","","","1-5","5021","39","1","Testing","Stims/Figures/128-C-30-3.bmp","sasaza","Right","39","3","6","6A","C2","J","54"
"","","approach-retreat","203","1508135","0.0-203.0","","","1-5","6694","37","1","Testing","Stims/Figures/139-J-0-2.bmp","va:shava","Right","37","3","7","6A","C1","J","55"
"","","approach-retreat","204","1514649","0.0-204.0","","","1-5","5006","40","1","Testing","Stims/Figures/74-C-20-4.bmp","sa:saza","Down","40","3","8","6A","C2","J","56"
"","","approach-retreat","205","1521648","0.0-205.0","","","1-5","5493","40","0","Testing","Stims/Figures/94-J-0-2.bmp","vasha:va","Down","38","3","9","6A","C1","J","57"
"","","approach-retreat","206","1527337","0.0-206.0","","","1-5","4182","39","1","Testing","Stims/Figures/71-J-0-1.bmp","va:fasha","Left","39","3","10","6A","C1","J","58"
"","","approach-retreat","207","1532808","0.0-207.0","","","1-5","3965","37","1","Testing","Stims/Figures/86-J-0-1.bmp","vashava","Right","37","3","11","6A","C1","J","59"
"","","approach-retreat","208","1538545","0.0-208.0","","","1-5","4230","39","1","Testing","Stims/Figures/71-C-30-1.bmp","sa:saha","Right","39","3","12","6A","C2","J","60"
"","","approach-retreat","209","1544937","0.0-209.0","","","1-5","4885","37","1","Testing","Stims/Figures/94-C-20-2.bmp","zaha:za","Left","37","3","13","6A","C2","J","61"
"","","approach-retreat","210","1550960","0.0-210.0","","","1-5","4517","38","0","Testing","Stims/Figures/19-C-20-4.bmp","za:sa:za","Down","40","3","14","6A","C2","J","62"
"","","approach-retreat","211","1557600","0.0-211.0","","","1-5","5132","38","0","Testing","Stims/Figures/128-J-10-3.bmp","vafava","Up","40","3","15","6A","C1","J","63"
"","","approach-retreat","212","1564856","0.0-212.0","","","1-5","5749","40","1","Testing","Stims/Figures/86-C-30-1.bmp","zasaha","Down","40","3","16","6A","C2","J","64"
"","","approach-retreat","213","1571400","0.0-213.0","","","1-5","5037","40","1","Testing","Stims/Figures/7-J-10-4.bmp","fa:shasha","Up","40","3","17","6A","C1","J","65"
"","","approach-retreat","214","1577712","0.0-214.0","","","1-5","4807","40","1","Testing","Stims/Figures/19-J-10-4.bmp","fafa:va","Up","40","3","18","6A","C1","J","66"
"","","approach-retreat","215","1583377","0.0-215.0","","","1-5","4157","38","0","Testing","Stims/Figures/144-J-10-3.bmp","va:fa:sha","Up","40","3","19","6A","C1","J","67"
"","","approach-retreat","216","1589537","0.0-216.0","","","1-5","4653","39","1","Testing","Stims/Figures/74-J-10-4.bmp","vafa:sha","Left","39","3","20","6A","C1","J","68"
"","","approach-retreat","217","1595560","0.0-217.0","","","1-5","4516","39","1","Testing","Stims/Figures/44-J-10-3.bmp","fa:fasha","Left","39","3","21","6A","C1","J","69"
"","","approach-retreat","218","1602081","0.0-218.0","","","1-5","5013","38","1","Testing","Stims/Figures/57-C-30-1.bmp","sasa:ha","Up","38","3","22","6A","C2","J","70"
"","","approach-retreat","219","1608103","0.0-219.0","","","1-5","4516","37","1","Testing","Stims/Figures/139-C-20-2.bmp","sahaha","Left","37","3","23","6A","C2","J","71"
"","","approach-retreat","220","1619016","0.0-220.0","","","1-5","9406","38","0","Testing","Stims/Figures/57-J-0-1.bmp","fa:fava","Up","40","3","24","6A","C1","J","72"
"","","approach-retreat","221","1625879","0.0-221.0","","","1-5","5356","40","0","Testing","Stims/Figures/139-C-20-2.bmp","sahaha","Up","38","4","1","6A","C2","J","73"
"","","approach-retreat","222","1632087","0.0-222.0","","","1-5","4701","38","0","Testing","Stims/Figures/128-J-10-3.bmp","vafava","Up","40","4","2","6A","C1","J","74"
"","","approach-retreat","223","1638632","0.0-223.0","","","1-5","5038","39","1","Testing","Stims/Figures/128-C-30-3.bmp","sasaza","Right","39","4","3","6A","C2","J","75"
"","","approach-retreat","224","1644536","0.0-224.0","","","1-5","4398","38","1","Testing","Stims/Figures/7-J-10-4.bmp","fa:shasha","Down","38","4","4","6A","C1","J","76"
"","","approach-retreat","225","1650520","0.0-225.0","","","1-5","4477","37","1","Testing","Stims/Figures/44-C-30-3.bmp","za:ha:za","Left","37","4","5","6A","C2","J","77"
"","","approach-retreat","226","1656513","0.0-226.0","","","1-5","4486","39","0","Testing","Stims/Figures/94-C-20-2.bmp","zaha:za","Left","37","4","6","6A","C2","J","78"
"","","approach-retreat","227","1662656","0.0-227.0","","","1-5","4636","38","0","Testing","Stims/Figures/7-C-20-4.bmp","saha:ha","Down","40","4","7","6A","C2","J","79"
"","","approach-retreat","228","1668929","0.0-228.0","","","1-5","4766","38","0","Testing","Stims/Figures/144-J-10-3.bmp","va:fa:sha","Up","40","4","8","6A","C1","J","80"
"","","approach-retreat","229","1674815","0.0-229.0","","","1-5","4380","40","1","Testing","Stims/Figures/44-J-10-3.bmp","fa:fasha","Up","40","4","9","6A","C1","J","81"
"","","approach-retreat","230","1681000","0.0-230.0","","","1-5","4677","40","0","Testing","Stims/Figures/86-J-0-1.bmp","vashava","Down","38","4","10","6A","C1","J","82"
"","","approach-retreat","231","1687375","0.0-231.0","","","1-5","4869","39","1","Testing","Stims/Figures/74-C-20-4.bmp","sa:saza","Right","39","4","11","6A","C2","J","83"
"","","approach-retreat","232","1694138","0.0-232.0","","","1-5","5255","40","0","Testing","Stims/Figures/19-C-20-4.bmp","za:sa:za","Up","38","4","12","6A","C2","J","84"
"","","approach-retreat","233","1699937","0.0-233.0","","","1-5","4291","37","0","Testing","Stims/Figures/86-C-30-1.bmp","zasaha","Right","39","4","13","6A","C2","J","85"
"","","approach-retreat","234","1706378","0.0-234.0","","","1-5","4934","40","0","Testing","Stims/Figures/74-J-10-4.bmp","vafa:sha","Down","38","4","14","6A","C1","J","86"
"","","approach-retreat","235","1712376","0.0-235.0","","","1-5","4492","38","1","Testing","Stims/Figures/19-J-10-4.bmp","fafa:va","Down","38","4","15","6A","C1","J","87"
"","","approach-retreat","236","1718489","0.0-236.0","","","1-5","4606","37","1","Testing","Stims/Figures/144-C-30-3.bmp","sasa:za","Left","37","4","16","6A","C2","J","88"
"","","approach-retreat","237","1724880","0.0-237.0","","","1-5","4884","40","0","Testing","Stims/Figures/71-J-0-1.bmp","va:fasha","Down","38","4","17","6A","C1","J","89"
"","","approach-retreat","238","1733200","0.0-238.0","","","1-5","6814","37","1","Testing","Stims/Figures/71-C-30-1.bmp","sa:saha","Left","37","4","18","6A","C2","J","90"
"","","approach-retreat","239","1738951","0.0-239.0","","","1-5","4246","39","1","Testing","Stims/Figures/85-C-20-2.bmp","za:ha:ha","Right","39","4","19","6A","C2","J","91"
"","","approach-retreat","240","1745553","0.0-240.0","","","1-5","5094","37","1","Testing","Stims/Figures/57-J-0-1.bmp","fa:fava","Right","37","4","20","6A","C1","J","92"
"","","approach-retreat","241","1752503","0.0-241.0","","","1-5","5443","39","0","Testing","Stims/Figures/57-C-30-1.bmp","sasa:ha","Left","37","4","21","6A","C2","J","93"
"","","approach-retreat","242","1759337","0.0-242.0","","","1-5","5327","37","0","Testing","Stims/Figures/139-J-0-2.bmp","va:shava","Left","39","4","22","6A","C1","J","94"
"","","approach-retreat","243","1766265","0.0-243.0","","","1-5","5421","37","1","Testing","Stims/Figures/94-J-0-2.bmp","vasha:va","Right","37","4","23","6A","C1","J","95"
"","","approach-retreat","244","1772697","0.0-244.0","","","1-5","4925","40","1","Testing","Stims/Figures/85-J-0-2.bmp","fafava","Up","40","4","24","6A","C1","J","96"
"24337","","survey-text","245","1797040","0.0-245.0","","{""Q0"":""1053/2018""}","","","","","","","","","","","","","","",""
