"rt","key_press","trial_type","trial_index","time_elapsed","internal_node_id","view_history","responses","Id","Rt","ResKeyCode","ResCorr","TrialType2","Image","Label","Location","CorrectResponse","Block","BlockTrial","Condition","LabelType","Subcondition","trialNum"
"1929","32","text","0","1934","0.0-0.0-0.0","","","","","","","","","","","","","","","","",""
"4717","","instructions","1","6656","0.0-1.0","[{""page_index"":0,""viewing_time"":4716}]","","","","","","","","","","","","","","","",""
"15431","","survey-multi-choice","2","22143","0.0-2.0","","{""Q0"":""Da"",""Q1"":""Da"",""Q2"":""Da"",""Q3"":""Da"",""Q4"":""Da"",""Q5"":""Da""}","","","","","","","","","","","","","","",""
"","","bio","3","31450","0.0-3.0","","{""age"":""19"",""gender"":""f"",""specify"":""""}","","","","","","","","","","","","","","",""
"","","approach-retreat","4","46988","0.0-4.0","","","1-2","14021","37","0","Training","Stims/Figures/86-J-0-1.bmp","vashava","Left","39","1","1","6A","C1","J","1"
"","","approach-retreat","5","54923","0.0-5.0","","","1-2","6426","37","1","Training","Stims/Figures/128-J-10-3.bmp","vafava","Right","37","1","2","6A","C1","J","2"
"","","approach-retreat","6","62437","0.0-6.0","","","1-2","6004","40","0","Training","Stims/Figures/86-C-30-1.bmp","zasaha","Up","38","1","3","6A","C2","J","3"
"","","approach-retreat","7","69810","0.0-7.0","","","1-2","5863","40","0","Training","Stims/Figures/19-C-20-4.bmp","za:sa:za","Up","38","1","4","6A","C2","J","4"
"","","approach-retreat","8","76751","0.0-8.0","","","1-2","5432","40","0","Training","Stims/Figures/94-J-0-2.bmp","vasha:va","Down","38","1","5","6A","C1","J","5"
"","","approach-retreat","9","85820","0.0-9.0","","","1-2","7560","40","1","Training","Stims/Figures/19-J-10-4.bmp","fafa:va","Up","40","1","6","6A","C1","J","6"
"","","approach-retreat","10","92836","0.0-10.0","","","1-2","5505","39","0","Training","Stims/Figures/128-C-30-3.bmp","sasaza","Left","37","1","7","6A","C2","J","7"
"","","approach-retreat","11","100770","0.0-11.0","","","1-2","6420","37","1","Training","Stims/Figures/44-J-10-3.bmp","fa:fasha","Right","37","1","8","6A","C1","J","8"
"","","approach-retreat","12","110615","0.0-12.0","","","1-2","8332","40","0","Training","Stims/Figures/57-J-0-1.bmp","fa:fava","Down","38","1","9","6A","C1","J","9"
"","","approach-retreat","13","116777","0.0-13.0","","","1-2","4653","38","0","Training","Stims/Figures/57-C-30-1.bmp","sasa:ha","Down","40","1","10","6A","C2","J","10"
"","","approach-retreat","14","123192","0.0-14.0","","","1-2","4905","40","0","Training","Stims/Figures/7-J-10-4.bmp","fa:shasha","Down","38","1","11","6A","C1","J","11"
"","","approach-retreat","15","129246","0.0-15.0","","","1-2","4546","37","0","Training","Stims/Figures/85-C-20-2.bmp","za:ha:ha","Right","39","1","12","6A","C2","J","12"
"","","approach-retreat","16","135942","0.0-16.0","","","1-2","5186","40","1","Training","Stims/Figures/85-J-0-2.bmp","fafava","Up","40","1","13","6A","C1","J","13"
"","","approach-retreat","17","142098","0.0-17.0","","","1-2","4644","37","0","Training","Stims/Figures/94-C-20-2.bmp","zaha:za","Right","39","1","14","6A","C2","J","14"
"","","approach-retreat","18","148843","0.0-18.0","","","1-2","5236","39","0","Training","Stims/Figures/7-C-20-4.bmp","saha:ha","Left","37","1","15","6A","C2","J","15"
"","","approach-retreat","19","155320","0.0-19.0","","","1-2","4964","39","0","Training","Stims/Figures/44-C-30-3.bmp","za:ha:za","Left","37","1","16","6A","C2","J","16"
"","","approach-retreat","20","161422","0.0-20.0","","","1-2","4564","37","0","Training","Stims/Figures/128-C-30-3.bmp","sasaza","Right","39","2","1","6A","C2","J","17"
"","","approach-retreat","21","168255","0.0-21.0","","","1-2","5302","38","0","Training","Stims/Figures/7-C-20-4.bmp","saha:ha","Down","40","2","2","6A","C2","J","18"
"","","approach-retreat","22","174348","0.0-22.0","","","1-2","4585","37","0","Training","Stims/Figures/86-C-30-1.bmp","zasaha","Right","39","2","3","6A","C2","J","19"
"","","approach-retreat","23","180286","0.0-23.0","","","1-2","4427","40","1","Training","Stims/Figures/94-J-0-2.bmp","vasha:va","Up","40","2","4","6A","C1","J","20"
"","","approach-retreat","24","189237","0.0-24.0","","","1-2","7441","40","1","Training","Stims/Figures/7-J-10-4.bmp","fa:shasha","Up","40","2","5","6A","C1","J","21"
"","","approach-retreat","25","195176","0.0-25.0","","","1-2","4430","37","1","Training","Stims/Figures/128-J-10-3.bmp","vafava","Right","37","2","6","6A","C1","J","22"
"","","approach-retreat","26","202009","0.0-26.0","","","1-2","5322","40","0","Training","Stims/Figures/44-J-10-3.bmp","fa:fasha","Down","38","2","7","6A","C1","J","23"
"","","approach-retreat","27","208434","0.0-27.0","","","1-2","4916","39","1","Training","Stims/Figures/86-J-0-1.bmp","vashava","Left","39","2","8","6A","C1","J","24"
"","","approach-retreat","28","214614","0.0-28.0","","","1-2","4670","40","1","Training","Stims/Figures/94-C-20-2.bmp","zaha:za","Down","40","2","9","6A","C2","J","25"
"","","approach-retreat","29","220690","0.0-29.0","","","1-2","4566","40","1","Training","Stims/Figures/57-J-0-1.bmp","fa:fava","Up","40","2","10","6A","C1","J","26"
"","","approach-retreat","30","226701","0.0-30.0","","","1-2","4497","39","0","Training","Stims/Figures/19-C-20-4.bmp","za:sa:za","Left","37","2","11","6A","C2","J","27"
"","","approach-retreat","31","232551","0.0-31.0","","","1-2","4341","37","1","Training","Stims/Figures/19-J-10-4.bmp","fafa:va","Right","37","2","12","6A","C1","J","28"
"","","approach-retreat","32","241826","0.0-32.0","","","1-2","7763","38","0","Training","Stims/Figures/44-C-30-3.bmp","za:ha:za","Down","40","2","13","6A","C2","J","29"
"","","approach-retreat","33","247416","0.0-33.0","","","1-2","4081","39","0","Training","Stims/Figures/85-C-20-2.bmp","za:ha:ha","Left","37","2","14","6A","C2","J","30"
"","","approach-retreat","34","253153","0.0-34.0","","","1-2","4227","40","1","Training","Stims/Figures/85-J-0-2.bmp","fafava","Up","40","2","15","6A","C1","J","31"
"","","approach-retreat","35","259572","0.0-35.0","","","1-2","4907","39","0","Training","Stims/Figures/57-C-30-1.bmp","sasa:ha","Left","37","2","16","6A","C2","J","32"
"","","approach-retreat","36","265140","0.0-36.0","","","1-2","4056","39","0","Training","Stims/Figures/86-C-30-1.bmp","zasaha","Left","37","3","1","6A","C2","J","33"
"","","approach-retreat","37","270810","0.0-37.0","","","1-2","4160","40","0","Training","Stims/Figures/7-C-20-4.bmp","saha:ha","Up","38","3","2","6A","C2","J","34"
"","","approach-retreat","38","276746","0.0-38.0","","","1-2","4426","39","0","Training","Stims/Figures/85-J-0-2.bmp","fafava","Right","37","3","3","6A","C1","J","35"
"","","approach-retreat","39","282714","0.0-39.0","","","1-2","4457","40","1","Training","Stims/Figures/94-J-0-2.bmp","vasha:va","Up","40","3","4","6A","C1","J","36"
"","","approach-retreat","40","288325","0.0-40.0","","","1-2","4102","39","0","Training","Stims/Figures/128-J-10-3.bmp","vafava","Right","37","3","5","6A","C1","J","37"
"","","approach-retreat","41","294217","0.0-41.0","","","1-2","4379","39","1","Training","Stims/Figures/86-J-0-1.bmp","vashava","Left","39","3","6","6A","C1","J","38"
"","","approach-retreat","42","300203","0.0-42.0","","","1-2","4478","40","1","Training","Stims/Figures/44-J-10-3.bmp","fa:fasha","Up","40","3","7","6A","C1","J","39"
"","","approach-retreat","43","306399","0.0-43.0","","","1-2","4687","38","0","Training","Stims/Figures/44-C-30-3.bmp","za:ha:za","Down","40","3","8","6A","C2","J","40"
"","","approach-retreat","44","312055","0.0-44.0","","","1-2","4146","39","0","Training","Stims/Figures/128-C-30-3.bmp","sasaza","Left","37","3","9","6A","C2","J","41"
"","","approach-retreat","45","318416","0.0-45.0","","","1-2","4851","37","0","Training","Stims/Figures/19-C-20-4.bmp","za:sa:za","Right","39","3","10","6A","C2","J","42"
"","","approach-retreat","46","328793","0.0-46.0","","","1-2","8867","40","0","Training","Stims/Figures/57-C-30-1.bmp","sasa:ha","Up","38","3","11","6A","C2","J","43"
"","","approach-retreat","47","341884","0.0-47.0","","","1-2","11583","38","1","Training","Stims/Figures/57-J-0-1.bmp","fa:fava","Down","38","3","12","6A","C1","J","44"
"","","approach-retreat","48","348193","0.0-48.0","","","1-2","4799","38","0","Training","Stims/Figures/94-C-20-2.bmp","zaha:za","Down","40","3","13","6A","C2","J","45"
"","","approach-retreat","49","355005","0.0-49.0","","","1-2","5302","37","1","Training","Stims/Figures/19-J-10-4.bmp","fafa:va","Right","37","3","14","6A","C1","J","46"
"","","approach-retreat","50","360717","0.0-50.0","","","1-2","4199","39","0","Training","Stims/Figures/85-C-20-2.bmp","za:ha:ha","Left","37","3","15","6A","C2","J","47"
"","","approach-retreat","51","366784","0.0-51.0","","","1-2","4557","38","1","Training","Stims/Figures/7-J-10-4.bmp","fa:shasha","Down","38","3","16","6A","C1","J","48"
"","","approach-retreat","52","372704","0.0-52.0","","","1-2","4410","38","1","Training","Stims/Figures/7-J-10-4.bmp","fa:shasha","Down","38","4","1","6A","C1","J","49"
"","","approach-retreat","53","378334","0.0-53.0","","","1-2","4120","38","0","Training","Stims/Figures/19-C-20-4.bmp","za:sa:za","Down","40","4","2","6A","C2","J","50"
"","","approach-retreat","54","383990","0.0-54.0","","","1-2","4147","39","1","Training","Stims/Figures/85-J-0-2.bmp","fafava","Left","39","4","3","6A","C1","J","51"
"","","approach-retreat","55","389523","0.0-55.0","","","1-2","4024","38","0","Training","Stims/Figures/128-C-30-3.bmp","sasaza","Down","40","4","4","6A","C2","J","52"
"","","approach-retreat","56","395589","0.0-56.0","","","1-2","4557","40","0","Training","Stims/Figures/57-C-30-1.bmp","sasa:ha","Up","38","4","5","6A","C2","J","53"
"","","approach-retreat","57","402151","0.0-57.0","","","1-2","5051","39","1","Training","Stims/Figures/94-J-0-2.bmp","vasha:va","Left","39","4","6","6A","C1","J","54"
"","","approach-retreat","58","407932","0.0-58.0","","","1-2","4272","40","1","Training","Stims/Figures/86-J-0-1.bmp","vashava","Up","40","4","7","6A","C1","J","55"
"","","approach-retreat","59","414233","0.0-59.0","","","1-2","4789","37","0","Training","Stims/Figures/94-C-20-2.bmp","zaha:za","Right","39","4","8","6A","C2","J","56"
"","","approach-retreat","60","420912","0.0-60.0","","","1-2","5170","37","0","Training","Stims/Figures/86-C-30-1.bmp","zasaha","Right","39","4","9","6A","C2","J","57"
"","","approach-retreat","61","426401","0.0-61.0","","","1-2","3977","39","0","Training","Stims/Figures/85-C-20-2.bmp","za:ha:ha","Left","37","4","10","6A","C2","J","58"
"","","approach-retreat","62","432184","0.0-62.0","","","1-2","4273","37","0","Training","Stims/Figures/7-C-20-4.bmp","saha:ha","Right","39","4","11","6A","C2","J","59"
"","","approach-retreat","63","437983","0.0-63.0","","","1-2","4291","37","1","Training","Stims/Figures/57-J-0-1.bmp","fa:fava","Right","37","4","12","6A","C1","J","60"
"","","approach-retreat","64","443810","0.0-64.0","","","1-2","4318","40","1","Training","Stims/Figures/128-J-10-3.bmp","vafava","Up","40","4","13","6A","C1","J","61"
"","","approach-retreat","65","449698","0.0-65.0","","","1-2","4378","38","1","Training","Stims/Figures/19-J-10-4.bmp","fafa:va","Down","38","4","14","6A","C1","J","62"
"","","approach-retreat","66","456136","0.0-66.0","","","1-2","4928","38","1","Training","Stims/Figures/44-C-30-3.bmp","za:ha:za","Up","38","4","15","6A","C2","J","63"
"","","approach-retreat","67","462597","0.0-67.0","","","1-2","4950","39","1","Training","Stims/Figures/44-J-10-3.bmp","fa:fasha","Left","39","4","16","6A","C1","J","64"
"","","approach-retreat","68","468163","0.0-68.0","","","1-2","4058","40","1","Training","Stims/Figures/19-J-10-4.bmp","fafa:va","Up","40","5","1","6A","C1","J","65"
"","","approach-retreat","69","473977","0.0-69.0","","","1-2","4306","40","0","Training","Stims/Figures/7-C-20-4.bmp","saha:ha","Up","38","5","2","6A","C2","J","66"
"","","approach-retreat","70","479710","0.0-70.0","","","1-2","4225","40","0","Training","Stims/Figures/86-C-30-1.bmp","zasaha","Up","38","5","3","6A","C2","J","67"
"","","approach-retreat","71","485221","0.0-71.0","","","1-2","4003","40","0","Training","Stims/Figures/128-C-30-3.bmp","sasaza","Up","38","5","4","6A","C2","J","68"
"","","approach-retreat","72","491224","0.0-72.0","","","1-2","4489","37","0","Training","Stims/Figures/19-C-20-4.bmp","za:sa:za","Right","39","5","5","6A","C2","J","69"
"","","approach-retreat","73","496792","0.0-73.0","","","1-2","4060","37","1","Training","Stims/Figures/85-C-20-2.bmp","za:ha:ha","Left","37","5","6","6A","C2","J","70"
"","","approach-retreat","74","503244","0.0-74.0","","","1-2","4942","39","0","Training","Stims/Figures/85-J-0-2.bmp","fafava","Right","37","5","7","6A","C1","J","71"
"","","approach-retreat","75","510254","0.0-75.0","","","1-2","5500","37","1","Training","Stims/Figures/94-J-0-2.bmp","vasha:va","Right","37","5","8","6A","C1","J","72"
"","","approach-retreat","76","516938","0.0-76.0","","","1-2","5176","39","1","Training","Stims/Figures/7-J-10-4.bmp","fa:shasha","Left","39","5","9","6A","C1","J","73"
"","","approach-retreat","77","523664","0.0-77.0","","","1-2","5215","39","0","Training","Stims/Figures/57-C-30-1.bmp","sasa:ha","Left","37","5","10","6A","C2","J","74"
"","","approach-retreat","78","530063","0.0-78.0","","","1-2","4891","38","1","Training","Stims/Figures/57-J-0-1.bmp","fa:fava","Down","38","5","11","6A","C1","J","75"
"","","approach-retreat","79","536372","0.0-79.0","","","1-2","4800","38","1","Training","Stims/Figures/86-J-0-1.bmp","vashava","Down","38","5","12","6A","C1","J","76"
"","","approach-retreat","80","542643","0.0-80.0","","","1-2","4758","39","0","Training","Stims/Figures/94-C-20-2.bmp","zaha:za","Left","37","5","13","6A","C2","J","77"
"","","approach-retreat","81","548651","0.0-81.0","","","1-2","4496","38","1","Training","Stims/Figures/128-J-10-3.bmp","vafava","Down","38","5","14","6A","C1","J","78"
"","","approach-retreat","82","554426","0.0-82.0","","","1-2","4263","40","1","Training","Stims/Figures/44-C-30-3.bmp","za:ha:za","Down","40","5","15","6A","C2","J","79"
"","","approach-retreat","83","560904","0.0-83.0","","","1-2","4968","37","1","Training","Stims/Figures/44-J-10-3.bmp","fa:fasha","Right","37","5","16","6A","C1","J","80"
"","","approach-retreat","84","566867","0.0-84.0","","","1-2","4455","40","1","Training","Stims/Figures/44-C-30-3.bmp","za:ha:za","Down","40","6","1","6A","C2","J","81"
"","","approach-retreat","85","572555","0.0-85.0","","","1-2","4177","40","1","Training","Stims/Figures/86-J-0-1.bmp","vashava","Up","40","6","2","6A","C1","J","82"
"","","approach-retreat","86","579129","0.0-86.0","","","1-2","5064","40","0","Training","Stims/Figures/94-C-20-2.bmp","zaha:za","Up","38","6","3","6A","C2","J","83"
"","","approach-retreat","87","585489","0.0-87.0","","","1-2","4851","39","0","Training","Stims/Figures/57-C-30-1.bmp","sasa:ha","Left","37","6","4","6A","C2","J","84"
"","","approach-retreat","88","591385","0.0-88.0","","","1-2","4387","37","0","Training","Stims/Figures/19-C-20-4.bmp","za:sa:za","Right","39","6","5","6A","C2","J","85"
"","","approach-retreat","89","597580","0.0-89.0","","","1-2","4686","37","1","Training","Stims/Figures/128-J-10-3.bmp","vafava","Right","37","6","6","6A","C1","J","86"
"","","approach-retreat","90","603313","0.0-90.0","","","1-2","4223","40","0","Training","Stims/Figures/86-C-30-1.bmp","zasaha","Up","38","6","7","6A","C2","J","87"
"","","approach-retreat","91","609071","0.0-91.0","","","1-2","4249","37","0","Training","Stims/Figures/94-J-0-2.bmp","vasha:va","Left","39","6","8","6A","C1","J","88"
"","","approach-retreat","92","615379","0.0-92.0","","","1-2","4795","38","1","Training","Stims/Figures/7-J-10-4.bmp","fa:shasha","Down","38","6","9","6A","C1","J","89"
"","","approach-retreat","93","621408","0.0-93.0","","","1-2","4513","40","0","Training","Stims/Figures/85-C-20-2.bmp","za:ha:ha","Up","38","6","10","6A","C2","J","90"
"","","approach-retreat","94","630296","0.0-94.0","","","1-2","7380","38","1","Training","Stims/Figures/57-J-0-1.bmp","fa:fava","Down","38","6","11","6A","C1","J","91"
"","","approach-retreat","95","636420","0.0-95.0","","","1-2","4614","39","1","Training","Stims/Figures/85-J-0-2.bmp","fafava","Left","39","6","12","6A","C1","J","92"
"","","approach-retreat","96","642061","0.0-96.0","","","1-2","4132","38","1","Training","Stims/Figures/44-J-10-3.bmp","fa:fasha","Down","38","6","13","6A","C1","J","93"
"","","approach-retreat","97","648109","0.0-97.0","","","1-2","4538","39","1","Training","Stims/Figures/7-C-20-4.bmp","saha:ha","Right","39","6","14","6A","C2","J","94"
"","","approach-retreat","98","654704","0.0-98.0","","","1-2","5086","39","1","Training","Stims/Figures/19-J-10-4.bmp","fafa:va","Left","39","6","15","6A","C1","J","95"
"","","approach-retreat","99","660599","0.0-99.0","","","1-2","4386","37","0","Training","Stims/Figures/128-C-30-3.bmp","sasaza","Right","39","6","16","6A","C2","J","96"
"","","approach-retreat","100","666268","0.0-100.0","","","1-2","4158","39","1","Training","Stims/Figures/86-J-0-1.bmp","vashava","Left","39","7","1","6A","C1","J","97"
"","","approach-retreat","101","672155","0.0-101.0","","","1-2","4378","38","0","Training","Stims/Figures/7-J-10-4.bmp","fa:shasha","Up","40","7","2","6A","C1","J","98"
"","","approach-retreat","102","678911","0.0-102.0","","","1-2","5246","38","0","Training","Stims/Figures/7-C-20-4.bmp","saha:ha","Down","40","7","3","6A","C2","J","99"
"","","approach-retreat","103","684532","0.0-103.0","","","1-2","4112","39","0","Training","Stims/Figures/128-C-30-3.bmp","sasaza","Left","37","7","4","6A","C2","J","100"
"","","approach-retreat","104","693033","0.0-104.0","","","1-2","6990","38","1","Training","Stims/Figures/85-J-0-2.bmp","fafava","Down","38","7","5","6A","C1","J","101"
"","","approach-retreat","105","698977","0.0-105.0","","","1-2","4436","37","0","Training","Stims/Figures/86-C-30-1.bmp","zasaha","Right","39","7","6","6A","C2","J","102"
"","","approach-retreat","106","706066","0.0-106.0","","","1-2","5580","37","1","Training","Stims/Figures/19-J-10-4.bmp","fafa:va","Right","37","7","7","6A","C1","J","103"
"","","approach-retreat","107","712168","0.0-107.0","","","1-2","4591","37","1","Training","Stims/Figures/94-J-0-2.bmp","vasha:va","Right","37","7","8","6A","C1","J","104"
"","","approach-retreat","108","719828","0.0-108.0","","","1-2","6151","38","1","Training","Stims/Figures/19-C-20-4.bmp","za:sa:za","Up","38","7","9","6A","C2","J","105"
"","","approach-retreat","109","727075","0.0-109.0","","","1-2","5737","40","1","Training","Stims/Figures/44-J-10-3.bmp","fa:fasha","Up","40","7","10","6A","C1","J","106"
"","","approach-retreat","110","735596","0.0-110.0","","","1-2","7013","38","0","Training","Stims/Figures/85-C-20-2.bmp","za:ha:ha","Down","40","7","11","6A","C2","J","107"
"","","approach-retreat","111","741129","0.0-111.0","","","1-2","4023","37","1","Training","Stims/Figures/57-J-0-1.bmp","fa:fava","Right","37","7","12","6A","C1","J","108"
"","","approach-retreat","112","747348","0.0-112.0","","","1-2","4710","40","1","Training","Stims/Figures/128-J-10-3.bmp","vafava","Up","40","7","13","6A","C1","J","109"
"","","approach-retreat","113","753323","0.0-113.0","","","1-2","4464","39","0","Training","Stims/Figures/94-C-20-2.bmp","zaha:za","Left","37","7","14","6A","C2","J","110"
"","","approach-retreat","114","759820","0.0-114.0","","","1-2","4987","39","0","Training","Stims/Figures/57-C-30-1.bmp","sasa:ha","Left","37","7","15","6A","C2","J","111"
"","","approach-retreat","115","765702","0.0-115.0","","","1-2","4373","40","1","Training","Stims/Figures/44-C-30-3.bmp","za:ha:za","Down","40","7","16","6A","C2","J","112"
"","","approach-retreat","116","778656","0.0-116.0","","","1-2","11443","39","1","Training","Stims/Figures/7-J-10-4.bmp","fa:shasha","Left","39","8","1","6A","C1","J","113"
"","","approach-retreat","117","785832","0.0-117.0","","","1-2","5668","40","1","Training","Stims/Figures/85-J-0-2.bmp","fafava","Up","40","8","2","6A","C1","J","114"
"","","approach-retreat","118","791539","0.0-118.0","","","1-2","4198","40","0","Training","Stims/Figures/57-C-30-1.bmp","sasa:ha","Up","38","8","3","6A","C2","J","115"
"","","approach-retreat","119","807689","0.0-119.0","","","1-2","14639","38","0","Training","Stims/Figures/7-C-20-4.bmp","saha:ha","Down","40","8","4","6A","C2","J","116"
"","","approach-retreat","120","814218","0.0-120.0","","","1-2","5020","40","1","Training","Stims/Figures/128-J-10-3.bmp","vafava","Up","40","8","5","6A","C1","J","117"
"","","approach-retreat","121","821811","0.0-121.0","","","1-2","6084","39","1","Training","Stims/Figures/86-J-0-1.bmp","vashava","Left","39","8","6","6A","C1","J","118"
"","","approach-retreat","122","827854","0.0-122.0","","","1-2","4533","40","1","Training","Stims/Figures/85-C-20-2.bmp","za:ha:ha","Down","40","8","7","6A","C2","J","119"
"","","approach-retreat","123","834954","0.0-123.0","","","1-2","5589","39","0","Training","Stims/Figures/19-J-10-4.bmp","fafa:va","Right","37","8","8","6A","C1","J","120"
"","","approach-retreat","124","842256","0.0-124.0","","","1-2","5793","38","1","Training","Stims/Figures/94-J-0-2.bmp","vasha:va","Down","38","8","9","6A","C1","J","121"
"","","approach-retreat","125","850222","0.0-125.0","","","1-2","6455","39","0","Training","Stims/Figures/19-C-20-4.bmp","za:sa:za","Left","37","8","10","6A","C2","J","122"
"","","approach-retreat","126","864468","0.0-126.0","","","1-2","12737","37","1","Training","Stims/Figures/57-J-0-1.bmp","fa:fava","Right","37","8","11","6A","C1","J","123"
"","","approach-retreat","127","870438","0.0-127.0","","","1-2","4460","37","1","Training","Stims/Figures/44-C-30-3.bmp","za:ha:za","Left","37","8","12","6A","C2","J","124"
"","","approach-retreat","128","876123","0.0-128.0","","","1-2","4175","40","1","Training","Stims/Figures/94-C-20-2.bmp","zaha:za","Down","40","8","13","6A","C2","J","125"
"","","approach-retreat","129","882001","0.0-129.0","","","1-2","4364","39","1","Training","Stims/Figures/86-C-30-1.bmp","zasaha","Right","39","8","14","6A","C2","J","126"
"","","approach-retreat","130","887643","0.0-130.0","","","1-2","4131","40","1","Training","Stims/Figures/44-J-10-3.bmp","fa:fasha","Up","40","8","15","6A","C1","J","127"
"","","approach-retreat","131","896004","0.0-131.0","","","1-2","6845","39","1","Training","Stims/Figures/128-C-30-3.bmp","sasaza","Right","39","8","16","6A","C2","J","128"
"","","approach-retreat","132","903176","0.0-132.0","","","1-2","5659","40","0","Training","Stims/Figures/86-C-30-1.bmp","zasaha","Up","38","9","1","6A","C2","J","129"
"","","approach-retreat","133","909067","0.0-133.0","","","1-2","4379","40","0","Training","Stims/Figures/7-J-10-4.bmp","fa:shasha","Down","38","9","2","6A","C1","J","130"
"","","approach-retreat","134","914677","0.0-134.0","","","1-2","4101","38","1","Training","Stims/Figures/128-J-10-3.bmp","vafava","Down","38","9","3","6A","C1","J","131"
"","","approach-retreat","135","920174","0.0-135.0","","","1-2","3986","39","1","Training","Stims/Figures/57-J-0-1.bmp","fa:fava","Left","39","9","4","6A","C1","J","132"
"","","approach-retreat","136","925782","0.0-136.0","","","1-2","4097","40","0","Training","Stims/Figures/57-C-30-1.bmp","sasa:ha","Up","38","9","5","6A","C2","J","133"
"","","approach-retreat","137","931416","0.0-137.0","","","1-2","4120","38","1","Training","Stims/Figures/44-J-10-3.bmp","fa:fasha","Down","38","9","6","6A","C1","J","134"
"","","approach-retreat","138","938297","0.0-138.0","","","1-2","5372","37","1","Training","Stims/Figures/44-C-30-3.bmp","za:ha:za","Left","37","9","7","6A","C2","J","135"
"","","approach-retreat","139","945294","0.0-139.0","","","1-2","5487","37","0","Training","Stims/Figures/19-C-20-4.bmp","za:sa:za","Right","39","9","8","6A","C2","J","136"
"","","approach-retreat","140","952038","0.0-140.0","","","1-2","5230","38","0","Training","Stims/Figures/85-C-20-2.bmp","za:ha:ha","Down","40","9","9","6A","C2","J","137"
"","","approach-retreat","141","958336","0.0-141.0","","","1-2","4789","39","0","Training","Stims/Figures/94-C-20-2.bmp","zaha:za","Left","37","9","10","6A","C2","J","138"
"","","approach-retreat","142","964451","0.0-142.0","","","1-2","4606","37","1","Training","Stims/Figures/94-J-0-2.bmp","vasha:va","Right","37","9","11","6A","C1","J","139"
"","","approach-retreat","143","971914","0.0-143.0","","","1-2","5954","37","1","Training","Stims/Figures/19-J-10-4.bmp","fafa:va","Right","37","9","12","6A","C1","J","140"
"","","approach-retreat","144","977853","0.0-144.0","","","1-2","4430","38","0","Training","Stims/Figures/85-J-0-2.bmp","fafava","Up","40","9","13","6A","C1","J","141"
"","","approach-retreat","145","984081","0.0-145.0","","","1-2","4715","37","1","Training","Stims/Figures/86-J-0-1.bmp","vashava","Right","37","9","14","6A","C1","J","142"
"","","approach-retreat","146","989589","0.0-146.0","","","1-2","4000","39","0","Training","Stims/Figures/7-C-20-4.bmp","saha:ha","Left","37","9","15","6A","C2","J","143"
"","","approach-retreat","147","995175","0.0-147.0","","","1-2","4076","40","0","Training","Stims/Figures/128-C-30-3.bmp","sasaza","Up","38","9","16","6A","C2","J","144"
"12343","","instructions","148","1007519","0.0-148.0","[{""page_index"":0,""viewing_time"":12342}]","","","","","","","","","","","","","","","",""
"","","approach-retreat","149","1015565","0.0-149.0","","","1-2","6538","40","1","Testing","Stims/Figures/19-J-10-4.bmp","fafa:va","Up","40","1","1","6A","C1","J","1"
"","","approach-retreat","150","1021639","0.0-150.0","","","1-2","4564","38","1","Testing","Stims/Figures/128-J-10-3.bmp","vafava","Down","38","1","2","6A","C1","J","2"
"","","approach-retreat","151","1033203","0.0-151.0","","","1-2","10057","39","1","Testing","Stims/Figures/144-J-10-3.bmp","va:fa:sha","Left","39","1","3","6A","C1","J","3"
"","","approach-retreat","152","1039837","0.0-152.0","","","1-2","5126","39","0","Testing","Stims/Figures/94-J-0-2.bmp","vasha:va","Right","37","1","4","6A","C1","J","4"
"","","approach-retreat","153","1048019","0.0-153.0","","","1-2","6673","37","1","Testing","Stims/Figures/57-J-0-1.bmp","fa:fava","Right","37","1","5","6A","C1","J","5"
"","","approach-retreat","154","1055149","0.0-154.0","","","1-2","5623","38","1","Testing","Stims/Figures/44-C-30-3.bmp","za:ha:za","Up","38","1","6","6A","C2","J","6"
"","","approach-retreat","155","1061095","0.0-155.0","","","1-2","4436","39","0","Testing","Stims/Figures/144-C-30-3.bmp","sasa:za","Left","37","1","7","6A","C2","J","7"
"","","approach-retreat","156","1067363","0.0-156.0","","","1-2","4759","40","1","Testing","Stims/Figures/44-J-10-3.bmp","fa:fasha","Up","40","1","8","6A","C1","J","8"
"","","approach-retreat","157","1078147","0.0-157.0","","","1-2","9276","38","0","Testing","Stims/Figures/57-C-30-1.bmp","sasa:ha","Down","40","1","9","6A","C2","J","9"
"","","approach-retreat","158","1085453","0.0-158.0","","","1-2","5798","40","1","Testing","Stims/Figures/85-C-20-2.bmp","za:ha:ha","Down","40","1","10","6A","C2","J","10"
"","","approach-retreat","159","1092021","0.0-159.0","","","1-2","5059","39","0","Testing","Stims/Figures/139-J-0-2.bmp","va:shava","Right","37","1","11","6A","C1","J","11"
"","","approach-retreat","160","1098652","0.0-160.0","","","1-2","5122","37","0","Testing","Stims/Figures/85-J-0-2.bmp","fafava","Left","39","1","12","6A","C1","J","12"
"","","approach-retreat","161","1110070","0.0-161.0","","","1-2","9910","40","1","Testing","Stims/Figures/74-J-10-4.bmp","vafa:sha","Up","40","1","13","6A","C1","J","13"
"","","approach-retreat","162","1115881","0.0-162.0","","","1-2","4303","40","0","Testing","Stims/Figures/71-C-30-1.bmp","sa:saha","Up","38","1","14","6A","C2","J","14"
"","","approach-retreat","163","1121620","0.0-163.0","","","1-2","4231","39","0","Testing","Stims/Figures/19-C-20-4.bmp","za:sa:za","Left","37","1","15","6A","C2","J","15"
"","","approach-retreat","164","1127568","0.0-164.0","","","1-2","4440","37","0","Testing","Stims/Figures/7-C-20-4.bmp","saha:ha","Right","39","1","16","6A","C2","J","16"
"","","approach-retreat","165","1133662","0.0-165.0","","","1-2","4581","39","0","Testing","Stims/Figures/128-C-30-3.bmp","sasaza","Left","37","1","17","6A","C2","J","17"
"","","approach-retreat","166","1139660","0.0-166.0","","","1-2","4488","37","1","Testing","Stims/Figures/7-J-10-4.bmp","fa:shasha","Right","37","1","18","6A","C1","J","18"
"","","approach-retreat","167","1146299","0.0-167.0","","","1-2","5121","39","0","Testing","Stims/Figures/86-C-30-1.bmp","zasaha","Left","37","1","19","6A","C2","J","19"
"","","approach-retreat","168","1154485","0.0-168.0","","","1-2","6675","40","1","Testing","Stims/Figures/94-C-20-2.bmp","zaha:za","Down","40","1","20","6A","C2","J","20"
"","","approach-retreat","169","1160619","0.0-169.0","","","1-2","4628","40","0","Testing","Stims/Figures/71-J-0-1.bmp","va:fasha","Down","38","1","21","6A","C1","J","21"
"","","approach-retreat","170","1166322","0.0-170.0","","","1-2","4195","40","0","Testing","Stims/Figures/139-C-20-2.bmp","sahaha","Up","38","1","22","6A","C2","J","22"
"","","approach-retreat","171","1172167","0.0-171.0","","","1-2","4337","38","1","Testing","Stims/Figures/86-J-0-1.bmp","vashava","Down","38","1","23","6A","C1","J","23"
"","","approach-retreat","172","1177889","0.0-172.0","","","1-2","4216","37","0","Testing","Stims/Figures/74-C-20-4.bmp","sa:saza","Right","39","1","24","6A","C2","J","24"
"","","approach-retreat","173","1183924","0.0-173.0","","","1-2","4525","38","0","Testing","Stims/Figures/71-J-0-1.bmp","va:fasha","Up","40","2","1","6A","C1","J","25"
"","","approach-retreat","174","1189750","0.0-174.0","","","1-2","4319","37","0","Testing","Stims/Figures/71-C-30-1.bmp","sa:saha","Right","39","2","2","6A","C2","J","26"
"","","approach-retreat","175","1195531","0.0-175.0","","","1-2","4273","37","1","Testing","Stims/Figures/57-J-0-1.bmp","fa:fava","Right","37","2","3","6A","C1","J","27"
"","","approach-retreat","176","1203246","0.0-176.0","","","1-2","6207","37","1","Testing","Stims/Figures/44-J-10-3.bmp","fa:fasha","Right","37","2","4","6A","C1","J","28"
"","","approach-retreat","177","1209516","0.0-177.0","","","1-2","4760","37","0","Testing","Stims/Figures/94-J-0-2.bmp","vasha:va","Left","39","2","5","6A","C1","J","29"
"","","approach-retreat","178","1215261","0.0-178.0","","","1-2","4238","40","0","Testing","Stims/Figures/19-C-20-4.bmp","za:sa:za","Up","38","2","6","6A","C2","J","30"
"","","approach-retreat","179","1221551","0.0-179.0","","","1-2","4781","38","1","Testing","Stims/Figures/86-J-0-1.bmp","vashava","Down","38","2","7","6A","C1","J","31"
"","","approach-retreat","180","1227598","0.0-180.0","","","1-2","4540","37","0","Testing","Stims/Figures/144-C-30-3.bmp","sasa:za","Right","39","2","8","6A","C2","J","32"
"","","approach-retreat","181","1233611","0.0-181.0","","","1-2","4505","40","1","Testing","Stims/Figures/94-C-20-2.bmp","zaha:za","Down","40","2","9","6A","C2","J","33"
"","","approach-retreat","182","1239305","0.0-182.0","","","1-2","4185","39","0","Testing","Stims/Figures/139-C-20-2.bmp","sahaha","Left","37","2","10","6A","C2","J","34"
"","","approach-retreat","183","1248526","0.0-183.0","","","1-2","7716","39","1","Testing","Stims/Figures/74-J-10-4.bmp","vafa:sha","Left","39","2","11","6A","C1","J","35"
"","","approach-retreat","184","1254226","0.0-184.0","","","1-2","4192","38","0","Testing","Stims/Figures/139-J-0-2.bmp","va:shava","Up","40","2","12","6A","C1","J","36"
"","","approach-retreat","185","1261220","0.0-185.0","","","1-2","5487","39","0","Testing","Stims/Figures/144-J-10-3.bmp","va:fa:sha","Right","37","2","13","6A","C1","J","37"
"","","approach-retreat","186","1268576","0.0-186.0","","","1-2","5847","39","1","Testing","Stims/Figures/19-J-10-4.bmp","fafa:va","Left","39","2","14","6A","C1","J","38"
"","","approach-retreat","187","1274749","0.0-187.0","","","1-2","4665","38","1","Testing","Stims/Figures/44-C-30-3.bmp","za:ha:za","Up","38","2","15","6A","C2","J","39"
"","","approach-retreat","188","1280584","0.0-188.0","","","1-2","4325","40","0","Testing","Stims/Figures/7-C-20-4.bmp","saha:ha","Up","38","2","16","6A","C2","J","40"
"","","approach-retreat","189","1287458","0.0-189.0","","","1-2","5366","37","0","Testing","Stims/Figures/85-J-0-2.bmp","fafava","Left","39","2","17","6A","C1","J","41"
"","","approach-retreat","190","1293283","0.0-190.0","","","1-2","4318","37","1","Testing","Stims/Figures/128-J-10-3.bmp","vafava","Right","37","2","18","6A","C1","J","42"
"","","approach-retreat","191","1299430","0.0-191.0","","","1-2","4639","38","1","Testing","Stims/Figures/7-J-10-4.bmp","fa:shasha","Down","38","2","19","6A","C1","J","43"
"","","approach-retreat","192","1305559","0.0-192.0","","","1-2","4623","40","0","Testing","Stims/Figures/128-C-30-3.bmp","sasaza","Up","38","2","20","6A","C2","J","44"
"","","approach-retreat","193","1315650","0.0-193.0","","","1-2","8583","38","0","Testing","Stims/Figures/57-C-30-1.bmp","sasa:ha","Down","40","2","21","6A","C2","J","45"
"","","approach-retreat","194","1321775","0.0-194.0","","","1-2","4616","40","1","Testing","Stims/Figures/86-C-30-1.bmp","zasaha","Down","40","2","22","6A","C2","J","46"
"","","approach-retreat","195","1327916","0.0-195.0","","","1-2","4634","39","0","Testing","Stims/Figures/74-C-20-4.bmp","sa:saza","Left","37","2","23","6A","C2","J","47"
"","","approach-retreat","196","1333929","0.0-196.0","","","1-2","4506","40","1","Testing","Stims/Figures/85-C-20-2.bmp","za:ha:ha","Down","40","2","24","6A","C2","J","48"
"","","approach-retreat","197","1340013","0.0-197.0","","","1-2","4577","37","0","Testing","Stims/Figures/74-J-10-4.bmp","vafa:sha","Left","39","3","1","6A","C1","J","49"
"","","approach-retreat","198","1348686","0.0-198.0","","","1-2","7164","40","0","Testing","Stims/Figures/139-J-0-2.bmp","va:shava","Down","38","3","2","6A","C1","J","50"
"","","approach-retreat","199","1354719","0.0-199.0","","","1-2","4527","37","1","Testing","Stims/Figures/19-J-10-4.bmp","fafa:va","Right","37","3","3","6A","C1","J","51"
"","","approach-retreat","200","1360302","0.0-200.0","","","1-2","4074","40","0","Testing","Stims/Figures/71-C-30-1.bmp","sa:saha","Up","38","3","4","6A","C2","J","52"
"","","approach-retreat","201","1365997","0.0-201.0","","","1-2","4181","38","0","Testing","Stims/Figures/86-J-0-1.bmp","vashava","Up","40","3","5","6A","C1","J","53"
"","","approach-retreat","202","1371976","0.0-202.0","","","1-2","4471","39","1","Testing","Stims/Figures/139-C-20-2.bmp","sahaha","Right","39","3","6","6A","C2","J","54"
"","","approach-retreat","203","1377711","0.0-203.0","","","1-2","4228","38","1","Testing","Stims/Figures/44-C-30-3.bmp","za:ha:za","Up","38","3","7","6A","C2","J","55"
"","","approach-retreat","204","1383885","0.0-204.0","","","1-2","4666","38","0","Testing","Stims/Figures/144-C-30-3.bmp","sasa:za","Down","40","3","8","6A","C2","J","56"
"","","approach-retreat","205","1389474","0.0-205.0","","","1-2","4084","40","0","Testing","Stims/Figures/19-C-20-4.bmp","za:sa:za","Up","38","3","9","6A","C2","J","57"
"","","approach-retreat","206","1395289","0.0-206.0","","","1-2","4307","38","0","Testing","Stims/Figures/128-C-30-3.bmp","sasaza","Down","40","3","10","6A","C2","J","58"
"","","approach-retreat","207","1401008","0.0-207.0","","","1-2","4210","39","1","Testing","Stims/Figures/144-J-10-3.bmp","va:fa:sha","Left","39","3","11","6A","C1","J","59"
"","","approach-retreat","208","1409098","0.0-208.0","","","1-2","6582","37","0","Testing","Stims/Figures/74-C-20-4.bmp","sa:saza","Right","39","3","12","6A","C2","J","60"
"","","approach-retreat","209","1421444","0.0-209.0","","","1-2","10837","37","1","Testing","Stims/Figures/7-J-10-4.bmp","fa:shasha","Right","37","3","13","6A","C1","J","61"
"","","approach-retreat","210","1427419","0.0-210.0","","","1-2","4466","37","1","Testing","Stims/Figures/128-J-10-3.bmp","vafava","Right","37","3","14","6A","C1","J","62"
"","","approach-retreat","211","1433717","0.0-211.0","","","1-2","4790","39","0","Testing","Stims/Figures/57-C-30-1.bmp","sasa:ha","Left","37","3","15","6A","C2","J","63"
"","","approach-retreat","212","1439777","0.0-212.0","","","1-2","4553","39","0","Testing","Stims/Figures/94-C-20-2.bmp","zaha:za","Left","37","3","16","6A","C2","J","64"
"","","approach-retreat","213","1447227","0.0-213.0","","","1-2","5941","40","1","Testing","Stims/Figures/57-J-0-1.bmp","fa:fava","Up","40","3","17","6A","C1","J","65"
"","","approach-retreat","214","1453229","0.0-214.0","","","1-2","4492","39","0","Testing","Stims/Figures/94-J-0-2.bmp","vasha:va","Right","37","3","18","6A","C1","J","66"
"","","approach-retreat","215","1459340","0.0-215.0","","","1-2","4605","40","0","Testing","Stims/Figures/71-J-0-1.bmp","va:fasha","Down","38","3","19","6A","C1","J","67"
"","","approach-retreat","216","1465065","0.0-216.0","","","1-2","4215","39","0","Testing","Stims/Figures/7-C-20-4.bmp","saha:ha","Left","37","3","20","6A","C2","J","68"
"","","approach-retreat","217","1471877","0.0-217.0","","","1-2","5303","40","0","Testing","Stims/Figures/86-C-30-1.bmp","zasaha","Up","38","3","21","6A","C2","J","69"
"","","approach-retreat","218","1477618","0.0-218.0","","","1-2","4234","38","1","Testing","Stims/Figures/44-J-10-3.bmp","fa:fasha","Down","38","3","22","6A","C1","J","70"
"","","approach-retreat","219","1483406","0.0-219.0","","","1-2","4280","40","0","Testing","Stims/Figures/85-J-0-2.bmp","fafava","Down","38","3","23","6A","C1","J","71"
"","","approach-retreat","220","1489325","0.0-220.0","","","1-2","4411","37","1","Testing","Stims/Figures/85-C-20-2.bmp","za:ha:ha","Left","37","3","24","6A","C2","J","72"
"","","approach-retreat","221","1496023","0.0-221.0","","","1-2","5191","40","0","Testing","Stims/Figures/19-C-20-4.bmp","za:sa:za","Up","38","4","1","6A","C2","J","73"
"","","approach-retreat","222","1502037","0.0-222.0","","","1-2","4508","38","1","Testing","Stims/Figures/19-J-10-4.bmp","fafa:va","Down","38","4","2","6A","C1","J","74"
"","","approach-retreat","223","1507902","0.0-223.0","","","1-2","4357","40","1","Testing","Stims/Figures/128-J-10-3.bmp","vafava","Up","40","4","3","6A","C1","J","75"
"","","approach-retreat","224","1514419","0.0-224.0","","","1-2","5011","38","0","Testing","Stims/Figures/74-C-20-4.bmp","sa:saza","Down","40","4","4","6A","C2","J","76"
"","","approach-retreat","225","1520529","0.0-225.0","","","1-2","4603","39","0","Testing","Stims/Figures/57-C-30-1.bmp","sasa:ha","Left","37","4","5","6A","C2","J","77"
"","","approach-retreat","226","1526126","0.0-226.0","","","1-2","4088","39","0","Testing","Stims/Figures/139-J-0-2.bmp","va:shava","Right","37","4","6","6A","C1","J","78"
"","","approach-retreat","227","1532538","0.0-227.0","","","1-2","4904","37","1","Testing","Stims/Figures/44-C-30-3.bmp","za:ha:za","Left","37","4","7","6A","C2","J","79"
"","","approach-retreat","228","1538428","0.0-228.0","","","1-2","4382","40","1","Testing","Stims/Figures/86-J-0-1.bmp","vashava","Up","40","4","8","6A","C1","J","80"
"","","approach-retreat","229","1544227","0.0-229.0","","","1-2","4290","40","1","Testing","Stims/Figures/85-C-20-2.bmp","za:ha:ha","Down","40","4","9","6A","C2","J","81"
"","","approach-retreat","230","1550025","0.0-230.0","","","1-2","4289","39","1","Testing","Stims/Figures/7-J-10-4.bmp","fa:shasha","Left","39","4","10","6A","C1","J","82"
"","","approach-retreat","231","1555980","0.0-231.0","","","1-2","4448","37","1","Testing","Stims/Figures/74-J-10-4.bmp","vafa:sha","Right","37","4","11","6A","C1","J","83"
"","","approach-retreat","232","1561815","0.0-232.0","","","1-2","4328","37","0","Testing","Stims/Figures/85-J-0-2.bmp","fafava","Left","39","4","12","6A","C1","J","84"
"","","approach-retreat","233","1567601","0.0-233.0","","","1-2","4275","40","1","Testing","Stims/Figures/71-J-0-1.bmp","va:fasha","Up","40","4","13","6A","C1","J","85"
"","","approach-retreat","234","1573426","0.0-234.0","","","1-2","4318","39","1","Testing","Stims/Figures/139-C-20-2.bmp","sahaha","Right","39","4","14","6A","C2","J","86"
"","","approach-retreat","235","1579539","0.0-235.0","","","1-2","4603","37","0","Testing","Stims/Figures/71-C-30-1.bmp","sa:saha","Right","39","4","15","6A","C2","J","87"
"","","approach-retreat","236","1587717","0.0-236.0","","","1-2","6671","39","1","Testing","Stims/Figures/44-J-10-3.bmp","fa:fasha","Left","39","4","16","6A","C1","J","88"
"","","approach-retreat","237","1595629","0.0-237.0","","","1-2","6406","38","0","Testing","Stims/Figures/144-C-30-3.bmp","sasa:za","Down","40","4","17","6A","C2","J","89"
"","","approach-retreat","238","1602498","0.0-238.0","","","1-2","5361","40","0","Testing","Stims/Figures/86-C-30-1.bmp","zasaha","Up","38","4","18","6A","C2","J","90"
"","","approach-retreat","239","1608361","0.0-239.0","","","1-2","4356","37","0","Testing","Stims/Figures/7-C-20-4.bmp","saha:ha","Right","39","4","19","6A","C2","J","91"
"","","approach-retreat","240","1614275","0.0-240.0","","","1-2","4406","37","0","Testing","Stims/Figures/128-C-30-3.bmp","sasaza","Right","39","4","20","6A","C2","J","92"
"","","approach-retreat","241","1620430","0.0-241.0","","","1-2","4647","40","1","Testing","Stims/Figures/144-J-10-3.bmp","va:fa:sha","Up","40","4","21","6A","C1","J","93"
"","","approach-retreat","242","1626503","0.0-242.0","","","1-2","4564","38","1","Testing","Stims/Figures/57-J-0-1.bmp","fa:fava","Down","38","4","22","6A","C1","J","94"
"","","approach-retreat","243","1632858","0.0-243.0","","","1-2","4846","38","0","Testing","Stims/Figures/94-C-20-2.bmp","zaha:za","Down","40","4","23","6A","C2","J","95"
"","","approach-retreat","244","1638704","0.0-244.0","","","1-2","4336","39","1","Testing","Stims/Figures/94-J-0-2.bmp","vasha:va","Left","39","4","24","6A","C1","J","96"
"25847","","survey-text","245","1664559","0.0-245.0","","{""Q0"":""1061/2018""}","","","","","","","","","","","","","","",""
