"rt","key_press","trial_type","trial_index","time_elapsed","internal_node_id","view_history","responses","Id","Rt","ResKeyCode","ResCorr","TrialType2","Image","Label","Location","CorrectResponse","Block","BlockTrial","Condition","LabelType","Subcondition","trialNum"
"25186","32","text","0","25188","0.0-0.0-0.0","","","","","","","","","","","","","","","","",""
"57419","","instructions","1","82607","0.0-1.0","[{""page_index"":0,""viewing_time"":57419}]","","","","","","","","","","","","","","","",""
"33293","","survey-multi-choice","2","115911","0.0-2.0","","{""Q0"":""Da"",""Q1"":""Da"",""Q2"":""Da"",""Q3"":""Da"",""Q4"":""Da"",""Q5"":""Da""}","","","","","","","","","","","","","","",""
"","","bio","3","136156","0.0-3.0","","{""age"":""19"",""gender"":""m"",""specify"":""Muški""}","","","","","","","","","","","","","","",""
"","","approach-retreat","4","143529","0.0-4.0","","","1-1","5869","37","1","Training","Stims/Figures/128-J-10-3.bmp","fashasha","Left","37","1","1","6A","C1","C","1"
"","","approach-retreat","5","149312","0.0-5.0","","","1-1","4278","38","1","Training","Stims/Figures/57-J-0-1.bmp","fafava","Up","38","1","2","6A","C1","C","2"
"","","approach-retreat","6","155476","0.0-6.0","","","1-1","4660","38","0","Training","Stims/Figures/139-J-0-2.bmp","vafava","Down","40","1","3","6A","C1","C","3"
"","","approach-retreat","7","161972","0.0-7.0","","","1-1","4993","37","0","Training","Stims/Figures/7-J-10-4.bmp","va:fa:sha","Right","39","1","4","6A","C1","C","4"
"","","approach-retreat","8","167791","0.0-8.0","","","1-1","4317","40","0","Training","Stims/Figures/87-J-10-4.bmp","va:sha:sha","Up","38","1","5","6A","C1","C","5"
"","","approach-retreat","9","174075","0.0-9.0","","","1-1","4780","37","0","Training","Stims/Figures/7-C-20-4.bmp","zaha:ha","Left","39","1","6","6A","C2","C","6"
"","","approach-retreat","10","179931","0.0-10.0","","","1-1","4353","38","0","Training","Stims/Figures/93-J-0-1.bmp","fasha:va","Down","40","1","7","6A","C1","C","7"
"","","approach-retreat","11","185698","0.0-11.0","","","1-1","4263","40","1","Training","Stims/Figures/85-C-20-2.bmp","sasaza","Up","40","1","8","6A","C2","C","8"
"","","approach-retreat","12","191593","0.0-12.0","","","1-1","4393","37","1","Training","Stims/Figures/85-J-0-2.bmp","fafa:va","Left","37","1","9","6A","C1","C","9"
"","","approach-retreat","13","197275","0.0-13.0","","","1-1","4179","37","0","Training","Stims/Figures/100-J-10-3.bmp","vasha:va","Right","39","1","10","6A","C1","C","10"
"","","approach-retreat","14","203212","0.0-14.0","","","1-1","4434","37","1","Training","Stims/Figures/100-C-30-3.bmp","zaha:za","Right","37","1","11","6A","C2","C","11"
"","","approach-retreat","15","208797","0.0-15.0","","","1-1","4081","37","1","Training","Stims/Figures/93-C-30-1.bmp","sahaza","Right","37","1","12","6A","C2","C","12"
"","","approach-retreat","16","214245","0.0-16.0","","","1-1","3945","38","1","Training","Stims/Figures/57-C-30-1.bmp","sa:haha","Down","38","1","13","6A","C2","C","13"
"","","approach-retreat","17","219761","0.0-17.0","","","1-1","4013","38","1","Training","Stims/Figures/87-C-20-4.bmp","sa:saha","Down","38","1","14","6A","C2","C","14"
"","","approach-retreat","18","225251","0.0-18.0","","","1-1","3986","40","1","Training","Stims/Figures/139-C-20-2.bmp","zahaha","Up","40","1","15","6A","C2","C","15"
"","","approach-retreat","19","230957","0.0-19.0","","","1-1","4204","39","1","Training","Stims/Figures/128-C-30-3.bmp","za:haha","Left","39","1","16","6A","C2","C","16"
"","","approach-retreat","20","236592","0.0-20.0","","","1-1","4131","39","1","Training","Stims/Figures/93-C-30-1.bmp","sahaza","Left","39","2","1","6A","C2","C","17"
"","","approach-retreat","21","242527","0.0-21.0","","","1-1","4432","39","0","Training","Stims/Figures/139-J-0-2.bmp","vafava","Left","37","2","2","6A","C1","C","18"
"","","approach-retreat","22","248604","0.0-22.0","","","1-1","4574","39","1","Training","Stims/Figures/85-J-0-2.bmp","fafa:va","Right","39","2","3","6A","C1","C","19"
"","","approach-retreat","23","254471","0.0-23.0","","","1-1","4365","39","0","Training","Stims/Figures/128-J-10-3.bmp","fashasha","Left","37","2","4","6A","C1","C","20"
"","","approach-retreat","24","260107","0.0-24.0","","","1-1","4133","40","1","Training","Stims/Figures/93-J-0-1.bmp","fasha:va","Down","40","2","5","6A","C1","C","21"
"","","approach-retreat","25","265905","0.0-25.0","","","1-1","4294","40","1","Training","Stims/Figures/85-C-20-2.bmp","sasaza","Up","40","2","6","6A","C2","C","22"
"","","approach-retreat","26","271508","0.0-26.0","","","1-1","4101","40","1","Training","Stims/Figures/7-C-20-4.bmp","zaha:ha","Up","40","2","7","6A","C2","C","23"
"","","approach-retreat","27","277060","0.0-27.0","","","1-1","4049","37","0","Training","Stims/Figures/100-C-30-3.bmp","zaha:za","Left","39","2","8","6A","C2","C","24"
"","","approach-retreat","28","282944","0.0-28.0","","","1-1","4381","39","1","Training","Stims/Figures/100-J-10-3.bmp","vasha:va","Right","39","2","9","6A","C1","C","25"
"","","approach-retreat","29","288460","0.0-29.0","","","1-1","4013","40","1","Training","Stims/Figures/57-C-30-1.bmp","sa:haha","Up","40","2","10","6A","C2","C","26"
"","","approach-retreat","30","293957","0.0-30.0","","","1-1","3992","40","1","Training","Stims/Figures/139-C-20-2.bmp","zahaha","Up","40","2","11","6A","C2","C","27"
"","","approach-retreat","31","299815","0.0-31.0","","","1-1","4356","38","1","Training","Stims/Figures/128-C-30-3.bmp","za:haha","Down","38","2","12","6A","C2","C","28"
"","","approach-retreat","32","305393","0.0-32.0","","","1-1","4076","38","0","Training","Stims/Figures/57-J-0-1.bmp","fafava","Down","40","2","13","6A","C1","C","29"
"","","approach-retreat","33","311290","0.0-33.0","","","1-1","4394","40","1","Training","Stims/Figures/7-J-10-4.bmp","va:fa:sha","Down","40","2","14","6A","C1","C","30"
"","","approach-retreat","34","316850","0.0-34.0","","","1-1","4058","37","1","Training","Stims/Figures/87-C-20-4.bmp","sa:saha","Right","37","2","15","6A","C2","C","31"
"","","approach-retreat","35","322485","0.0-35.0","","","1-1","4133","39","1","Training","Stims/Figures/87-J-10-4.bmp","va:sha:sha","Right","39","2","16","6A","C1","C","32"
"","","approach-retreat","36","328078","0.0-36.0","","","1-1","4090","40","1","Training","Stims/Figures/93-C-30-1.bmp","sahaza","Up","40","3","1","6A","C2","C","33"
"","","approach-retreat","37","333671","0.0-37.0","","","1-1","4090","37","1","Training","Stims/Figures/7-J-10-4.bmp","va:fa:sha","Left","37","3","2","6A","C1","C","34"
"","","approach-retreat","38","339742","0.0-38.0","","","1-1","4569","38","1","Training","Stims/Figures/93-J-0-1.bmp","fasha:va","Up","38","3","3","6A","C1","C","35"
"","","approach-retreat","39","345168","0.0-39.0","","","1-1","3923","38","1","Training","Stims/Figures/85-C-20-2.bmp","sasaza","Down","38","3","4","6A","C2","C","36"
"","","approach-retreat","40","350620","0.0-40.0","","","1-1","3950","39","1","Training","Stims/Figures/100-J-10-3.bmp","vasha:va","Right","39","3","5","6A","C1","C","37"
"","","approach-retreat","41","356128","0.0-41.0","","","1-1","4005","39","1","Training","Stims/Figures/7-C-20-4.bmp","zaha:ha","Left","39","3","6","6A","C2","C","38"
"","","approach-retreat","42","361616","0.0-42.0","","","1-1","3986","38","1","Training","Stims/Figures/100-C-30-3.bmp","zaha:za","Down","38","3","7","6A","C2","C","39"
"","","approach-retreat","43","367025","0.0-43.0","","","1-1","3905","38","1","Training","Stims/Figures/87-C-20-4.bmp","sa:saha","Down","38","3","8","6A","C2","C","40"
"","","approach-retreat","44","372536","0.0-44.0","","","1-1","4010","37","1","Training","Stims/Figures/57-J-0-1.bmp","fafava","Left","37","3","9","6A","C1","C","41"
"","","approach-retreat","45","378164","0.0-45.0","","","1-1","4126","38","1","Training","Stims/Figures/87-J-10-4.bmp","va:sha:sha","Up","38","3","10","6A","C1","C","42"
"","","approach-retreat","46","383643","0.0-46.0","","","1-1","3974","39","1","Training","Stims/Figures/128-C-30-3.bmp","za:haha","Left","39","3","11","6A","C2","C","43"
"","","approach-retreat","47","389162","0.0-47.0","","","1-1","4017","38","0","Training","Stims/Figures/85-J-0-2.bmp","fafa:va","Down","40","3","12","6A","C1","C","44"
"","","approach-retreat","48","394622","0.0-48.0","","","1-1","3958","39","1","Training","Stims/Figures/139-J-0-2.bmp","vafava","Right","39","3","13","6A","C1","C","45"
"","","approach-retreat","49","400234","0.0-49.0","","","1-1","4110","37","1","Training","Stims/Figures/139-C-20-2.bmp","zahaha","Right","37","3","14","6A","C2","C","46"
"","","approach-retreat","50","405810","0.0-50.0","","","1-1","4073","40","1","Training","Stims/Figures/57-C-30-1.bmp","sa:haha","Up","40","3","15","6A","C2","C","47"
"","","approach-retreat","51","411538","0.0-51.0","","","1-1","4226","39","1","Training","Stims/Figures/128-J-10-3.bmp","fashasha","Right","39","3","16","6A","C1","C","48"
"","","approach-retreat","52","417062","0.0-52.0","","","1-1","4022","40","1","Training","Stims/Figures/85-C-20-2.bmp","sasaza","Up","40","4","1","6A","C2","C","49"
"","","approach-retreat","53","423248","0.0-53.0","","","1-1","4682","39","1","Training","Stims/Figures/100-J-10-3.bmp","vasha:va","Right","39","4","2","6A","C1","C","50"
"","","approach-retreat","54","428780","0.0-54.0","","","1-1","4030","38","1","Training","Stims/Figures/87-J-10-4.bmp","va:sha:sha","Up","38","4","3","6A","C1","C","51"
"","","approach-retreat","55","434384","0.0-55.0","","","1-1","4102","40","1","Training","Stims/Figures/57-C-30-1.bmp","sa:haha","Up","40","4","4","6A","C2","C","52"
"","","approach-retreat","56","440190","0.0-56.0","","","1-1","4302","40","1","Training","Stims/Figures/93-C-30-1.bmp","sahaza","Up","40","4","5","6A","C2","C","53"
"","","approach-retreat","57","446104","0.0-57.0","","","1-1","4411","39","1","Training","Stims/Figures/57-J-0-1.bmp","fafava","Right","39","4","6","6A","C1","C","54"
"","","approach-retreat","58","451596","0.0-58.0","","","1-1","3988","38","1","Training","Stims/Figures/139-C-20-2.bmp","zahaha","Down","38","4","7","6A","C2","C","55"
"","","approach-retreat","59","457276","0.0-59.0","","","1-1","4178","40","1","Training","Stims/Figures/93-J-0-1.bmp","fasha:va","Down","40","4","8","6A","C1","C","56"
"","","approach-retreat","60","462886","0.0-60.0","","","1-1","4107","40","1","Training","Stims/Figures/7-J-10-4.bmp","va:fa:sha","Down","40","4","9","6A","C1","C","57"
"","","approach-retreat","61","468497","0.0-61.0","","","1-1","4109","37","1","Training","Stims/Figures/87-C-20-4.bmp","sa:saha","Right","37","4","10","6A","C2","C","58"
"","","approach-retreat","62","474002","0.0-62.0","","","1-1","4002","39","1","Training","Stims/Figures/7-C-20-4.bmp","zaha:ha","Left","39","4","11","6A","C2","C","59"
"","","approach-retreat","63","479426","0.0-63.0","","","1-1","3921","37","1","Training","Stims/Figures/139-J-0-2.bmp","vafava","Left","37","4","12","6A","C1","C","60"
"","","approach-retreat","64","484765","0.0-64.0","","","1-1","3837","37","1","Training","Stims/Figures/128-C-30-3.bmp","za:haha","Right","37","4","13","6A","C2","C","61"
"","","approach-retreat","65","490451","0.0-65.0","","","1-1","4182","39","0","Training","Stims/Figures/85-J-0-2.bmp","fafa:va","Left","37","4","14","6A","C1","C","62"
"","","approach-retreat","66","495973","0.0-66.0","","","1-1","4020","37","1","Training","Stims/Figures/128-J-10-3.bmp","fashasha","Left","37","4","15","6A","C1","C","63"
"","","approach-retreat","67","501422","0.0-67.0","","","1-1","3945","38","1","Training","Stims/Figures/100-C-30-3.bmp","zaha:za","Down","38","4","16","6A","C2","C","64"
"","","approach-retreat","68","507202","0.0-68.0","","","1-1","4279","37","1","Training","Stims/Figures/93-J-0-1.bmp","fasha:va","Left","37","5","1","6A","C1","C","65"
"","","approach-retreat","69","512783","0.0-69.0","","","1-1","4078","38","1","Training","Stims/Figures/128-J-10-3.bmp","fashasha","Up","38","5","2","6A","C1","C","66"
"","","approach-retreat","70","518223","0.0-70.0","","","1-1","3938","38","1","Training","Stims/Figures/100-J-10-3.bmp","vasha:va","Up","38","5","3","6A","C1","C","67"
"","","approach-retreat","71","523715","0.0-71.0","","","1-1","3988","37","1","Training","Stims/Figures/87-J-10-4.bmp","va:sha:sha","Left","37","5","4","6A","C1","C","68"
"","","approach-retreat","72","529279","0.0-72.0","","","1-1","4061","39","1","Training","Stims/Figures/93-C-30-1.bmp","sahaza","Left","39","5","5","6A","C2","C","69"
"","","approach-retreat","73","534735","0.0-73.0","","","1-1","3953","40","1","Training","Stims/Figures/100-C-30-3.bmp","zaha:za","Up","40","5","6","6A","C2","C","70"
"","","approach-retreat","74","540471","0.0-74.0","","","1-1","4232","39","1","Training","Stims/Figures/85-C-20-2.bmp","sasaza","Left","39","5","7","6A","C2","C","71"
"","","approach-retreat","75","546017","0.0-75.0","","","1-1","4044","40","1","Training","Stims/Figures/139-J-0-2.bmp","vafava","Down","40","5","8","6A","C1","C","72"
"","","approach-retreat","76","551493","0.0-76.0","","","1-1","3973","38","1","Training","Stims/Figures/57-C-30-1.bmp","sa:haha","Down","38","5","9","6A","C2","C","73"
"","","approach-retreat","77","556917","0.0-77.0","","","1-1","3920","40","1","Training","Stims/Figures/87-C-20-4.bmp","sa:saha","Up","40","5","10","6A","C2","C","74"
"","","approach-retreat","78","562357","0.0-78.0","","","1-1","3938","39","1","Training","Stims/Figures/7-J-10-4.bmp","va:fa:sha","Right","39","5","11","6A","C1","C","75"
"","","approach-retreat","79","567989","0.0-79.0","","","1-1","4131","37","1","Training","Stims/Figures/7-C-20-4.bmp","zaha:ha","Right","37","5","12","6A","C2","C","76"
"","","approach-retreat","80","573933","0.0-80.0","","","1-1","4440","39","1","Training","Stims/Figures/85-J-0-2.bmp","fafa:va","Right","39","5","13","6A","C1","C","77"
"","","approach-retreat","81","579312","0.0-81.0","","","1-1","3879","40","1","Training","Stims/Figures/57-J-0-1.bmp","fafava","Down","40","5","14","6A","C1","C","78"
"","","approach-retreat","82","585387","0.0-82.0","","","1-1","4573","38","1","Training","Stims/Figures/139-C-20-2.bmp","zahaha","Down","38","5","15","6A","C2","C","79"
"","","approach-retreat","83","591019","0.0-83.0","","","1-1","4129","37","1","Training","Stims/Figures/128-C-30-3.bmp","za:haha","Right","37","5","16","6A","C2","C","80"
"","","approach-retreat","84","597223","0.0-84.0","","","1-1","4700","37","1","Training","Stims/Figures/87-C-20-4.bmp","sa:saha","Right","37","6","1","6A","C2","C","81"
"","","approach-retreat","85","602671","0.0-85.0","","","1-1","3946","39","1","Training","Stims/Figures/87-J-10-4.bmp","va:sha:sha","Right","39","6","2","6A","C1","C","82"
"","","approach-retreat","86","608518","0.0-86.0","","","1-1","4346","37","1","Training","Stims/Figures/100-C-30-3.bmp","zaha:za","Right","37","6","3","6A","C2","C","83"
"","","approach-retreat","87","614512","0.0-87.0","","","1-1","4489","38","1","Training","Stims/Figures/7-J-10-4.bmp","va:fa:sha","Up","38","6","4","6A","C1","C","84"
"","","approach-retreat","88","621473","0.0-88.0","","","1-1","5459","37","1","Training","Stims/Figures/128-J-10-3.bmp","fashasha","Left","37","6","5","6A","C1","C","85"
"","","approach-retreat","89","628792","0.0-89.0","","","1-1","5816","38","1","Training","Stims/Figures/85-C-20-2.bmp","sasaza","Down","38","6","6","6A","C2","C","86"
"","","approach-retreat","90","634521","0.0-90.0","","","1-1","4225","38","1","Training","Stims/Figures/100-J-10-3.bmp","vasha:va","Up","38","6","7","6A","C1","C","87"
"","","approach-retreat","91","640265","0.0-91.0","","","1-1","4241","38","1","Training","Stims/Figures/57-J-0-1.bmp","fafava","Up","38","6","8","6A","C1","C","88"
"","","approach-retreat","92","646760","0.0-92.0","","","1-1","4993","40","1","Training","Stims/Figures/139-J-0-2.bmp","vafava","Down","40","6","9","6A","C1","C","89"
"","","approach-retreat","93","652684","0.0-93.0","","","1-1","4421","39","1","Training","Stims/Figures/7-C-20-4.bmp","zaha:ha","Left","39","6","10","6A","C2","C","90"
"","","approach-retreat","94","658452","0.0-94.0","","","1-1","4265","38","1","Training","Stims/Figures/139-C-20-2.bmp","zahaha","Down","38","6","11","6A","C2","C","91"
"","","approach-retreat","95","663895","0.0-95.0","","","1-1","3939","37","1","Training","Stims/Figures/128-C-30-3.bmp","za:haha","Right","37","6","12","6A","C2","C","92"
"","","approach-retreat","96","669458","0.0-96.0","","","1-1","4061","37","1","Training","Stims/Figures/85-J-0-2.bmp","fafa:va","Left","37","6","13","6A","C1","C","93"
"","","approach-retreat","97","674978","0.0-97.0","","","1-1","4016","40","1","Training","Stims/Figures/93-C-30-1.bmp","sahaza","Up","40","6","14","6A","C2","C","94"
"","","approach-retreat","98","680571","0.0-98.0","","","1-1","4090","39","1","Training","Stims/Figures/57-C-30-1.bmp","sa:haha","Left","39","6","15","6A","C2","C","95"
"","","approach-retreat","99","685927","0.0-99.0","","","1-1","3852","40","1","Training","Stims/Figures/93-J-0-1.bmp","fasha:va","Down","40","6","16","6A","C1","C","96"
"","","approach-retreat","100","691254","0.0-100.0","","","1-1","3826","37","1","Training","Stims/Figures/128-J-10-3.bmp","fashasha","Left","37","7","1","6A","C1","C","97"
"","","approach-retreat","101","696623","0.0-101.0","","","1-1","3865","39","1","Training","Stims/Figures/87-J-10-4.bmp","va:sha:sha","Right","39","7","2","6A","C1","C","98"
"","","approach-retreat","102","702058","0.0-102.0","","","1-1","3933","38","1","Training","Stims/Figures/128-C-30-3.bmp","za:haha","Down","38","7","3","6A","C2","C","99"
"","","approach-retreat","103","707420","0.0-103.0","","","1-1","3860","39","1","Training","Stims/Figures/85-C-20-2.bmp","sasaza","Left","39","7","4","6A","C2","C","100"
"","","approach-retreat","104","712813","0.0-104.0","","","1-1","3890","38","1","Training","Stims/Figures/93-C-30-1.bmp","sahaza","Down","38","7","5","6A","C2","C","101"
"","","approach-retreat","105","718409","0.0-105.0","","","1-1","4093","37","1","Training","Stims/Figures/7-C-20-4.bmp","zaha:ha","Right","37","7","6","6A","C2","C","102"
"","","approach-retreat","106","723760","0.0-106.0","","","1-1","3850","37","1","Training","Stims/Figures/87-C-20-4.bmp","sa:saha","Right","37","7","7","6A","C2","C","103"
"","","approach-retreat","107","729101","0.0-107.0","","","1-1","3838","40","1","Training","Stims/Figures/57-C-30-1.bmp","sa:haha","Up","40","7","8","6A","C2","C","104"
"","","approach-retreat","108","734516","0.0-108.0","","","1-1","3914","37","1","Training","Stims/Figures/100-C-30-3.bmp","zaha:za","Right","37","7","9","6A","C2","C","105"
"","","approach-retreat","109","739980","0.0-109.0","","","1-1","3961","40","1","Training","Stims/Figures/139-C-20-2.bmp","zahaha","Up","40","7","10","6A","C2","C","106"
"","","approach-retreat","110","745370","0.0-110.0","","","1-1","3886","38","1","Training","Stims/Figures/93-J-0-1.bmp","fasha:va","Up","38","7","11","6A","C1","C","107"
"","","approach-retreat","111","750707","0.0-111.0","","","1-1","3833","37","1","Training","Stims/Figures/57-J-0-1.bmp","fafava","Left","37","7","12","6A","C1","C","108"
"","","approach-retreat","112","756134","0.0-112.0","","","1-1","3924","38","0","Training","Stims/Figures/100-J-10-3.bmp","vasha:va","Down","40","7","13","6A","C1","C","109"
"","","approach-retreat","113","761647","0.0-113.0","","","1-1","4010","40","1","Training","Stims/Figures/139-J-0-2.bmp","vafava","Down","40","7","14","6A","C1","C","110"
"","","approach-retreat","114","767138","0.0-114.0","","","1-1","3989","38","1","Training","Stims/Figures/7-J-10-4.bmp","va:fa:sha","Up","38","7","15","6A","C1","C","111"
"","","approach-retreat","115","772537","0.0-115.0","","","1-1","3898","37","1","Training","Stims/Figures/85-J-0-2.bmp","fafa:va","Left","37","7","16","6A","C1","C","112"
"","","approach-retreat","116","777927","0.0-116.0","","","1-1","3885","37","1","Training","Stims/Figures/139-C-20-2.bmp","zahaha","Right","37","8","1","6A","C2","C","113"
"","","approach-retreat","117","783408","0.0-117.0","","","1-1","3978","38","1","Training","Stims/Figures/93-J-0-1.bmp","fasha:va","Up","38","8","2","6A","C1","C","114"
"","","approach-retreat","118","788828","0.0-118.0","","","1-1","3916","38","1","Training","Stims/Figures/87-C-20-4.bmp","sa:saha","Down","38","8","3","6A","C2","C","115"
"","","approach-retreat","119","794248","0.0-119.0","","","1-1","3917","38","1","Training","Stims/Figures/85-J-0-2.bmp","fafa:va","Up","38","8","4","6A","C1","C","116"
"","","approach-retreat","120","799716","0.0-120.0","","","1-1","3966","37","1","Training","Stims/Figures/85-C-20-2.bmp","sasaza","Right","37","8","5","6A","C2","C","117"
"","","approach-retreat","121","805216","0.0-121.0","","","1-1","3998","38","1","Training","Stims/Figures/7-J-10-4.bmp","va:fa:sha","Up","38","8","6","6A","C1","C","118"
"","","approach-retreat","122","810680","0.0-122.0","","","1-1","3961","37","1","Training","Stims/Figures/128-J-10-3.bmp","fashasha","Left","37","8","7","6A","C1","C","119"
"","","approach-retreat","123","816132","0.0-123.0","","","1-1","3950","39","1","Training","Stims/Figures/7-C-20-4.bmp","zaha:ha","Left","39","8","8","6A","C2","C","120"
"","","approach-retreat","124","821519","0.0-124.0","","","1-1","3883","38","1","Training","Stims/Figures/128-C-30-3.bmp","za:haha","Down","38","8","9","6A","C2","C","121"
"","","approach-retreat","125","826897","0.0-125.0","","","1-1","3876","39","1","Training","Stims/Figures/100-J-10-3.bmp","vasha:va","Right","39","8","10","6A","C1","C","122"
"","","approach-retreat","126","833082","0.0-126.0","","","1-1","4681","39","1","Training","Stims/Figures/57-J-0-1.bmp","fafava","Right","39","8","11","6A","C1","C","123"
"","","approach-retreat","127","838545","0.0-127.0","","","1-1","3960","38","1","Training","Stims/Figures/93-C-30-1.bmp","sahaza","Down","38","8","12","6A","C2","C","124"
"","","approach-retreat","128","844069","0.0-128.0","","","1-1","4022","39","1","Training","Stims/Figures/100-C-30-3.bmp","zaha:za","Left","39","8","13","6A","C2","C","125"
"","","approach-retreat","129","849826","0.0-129.0","","","1-1","4254","38","1","Training","Stims/Figures/139-J-0-2.bmp","vafava","Up","38","8","14","6A","C1","C","126"
"","","approach-retreat","130","855377","0.0-130.0","","","1-1","4049","38","1","Training","Stims/Figures/57-C-30-1.bmp","sa:haha","Down","38","8","15","6A","C2","C","127"
"","","approach-retreat","131","861192","0.0-131.0","","","1-1","4311","39","0","Training","Stims/Figures/87-J-10-4.bmp","va:sha:sha","Left","37","8","16","6A","C1","C","128"
"","","approach-retreat","132","866723","0.0-132.0","","","1-1","4029","38","1","Training","Stims/Figures/139-C-20-2.bmp","zahaha","Down","38","9","1","6A","C2","C","129"
"","","approach-retreat","133","872191","0.0-133.0","","","1-1","3966","38","0","Training","Stims/Figures/85-C-20-2.bmp","sasaza","Up","40","9","2","6A","C2","C","130"
"","","approach-retreat","134","877767","0.0-134.0","","","1-1","4072","39","1","Training","Stims/Figures/57-J-0-1.bmp","fafava","Right","39","9","3","6A","C1","C","131"
"","","approach-retreat","135","883259","0.0-135.0","","","1-1","3990","39","1","Training","Stims/Figures/7-C-20-4.bmp","zaha:ha","Left","39","9","4","6A","C2","C","132"
"","","approach-retreat","136","889424","0.0-136.0","","","1-1","4661","40","1","Training","Stims/Figures/87-J-10-4.bmp","va:sha:sha","Down","40","9","5","6A","C1","C","133"
"","","approach-retreat","137","895000","0.0-137.0","","","1-1","4073","37","1","Training","Stims/Figures/128-J-10-3.bmp","fashasha","Left","37","9","6","6A","C1","C","134"
"","","approach-retreat","138","901152","0.0-138.0","","","1-1","4652","38","1","Training","Stims/Figures/139-J-0-2.bmp","vafava","Up","38","9","7","6A","C1","C","135"
"","","approach-retreat","139","906649","0.0-139.0","","","1-1","3993","39","1","Training","Stims/Figures/93-J-0-1.bmp","fasha:va","Right","39","9","8","6A","C1","C","136"
"","","approach-retreat","140","912137","0.0-140.0","","","1-1","3985","37","1","Training","Stims/Figures/57-C-30-1.bmp","sa:haha","Right","37","9","9","6A","C2","C","137"
"","","approach-retreat","141","917909","0.0-141.0","","","1-1","4269","38","1","Training","Stims/Figures/100-J-10-3.bmp","vasha:va","Up","38","9","10","6A","C1","C","138"
"","","approach-retreat","142","923358","0.0-142.0","","","1-1","3946","37","1","Training","Stims/Figures/87-C-20-4.bmp","sa:saha","Right","37","9","11","6A","C2","C","139"
"","","approach-retreat","143","928889","0.0-143.0","","","1-1","4027","38","1","Training","Stims/Figures/128-C-30-3.bmp","za:haha","Down","38","9","12","6A","C2","C","140"
"","","approach-retreat","144","934442","0.0-144.0","","","1-1","4050","39","1","Training","Stims/Figures/93-C-30-1.bmp","sahaza","Left","39","9","13","6A","C2","C","141"
"","","approach-retreat","145","940053","0.0-145.0","","","1-1","4108","38","1","Training","Stims/Figures/7-J-10-4.bmp","va:fa:sha","Up","38","9","14","6A","C1","C","142"
"","","approach-retreat","146","945572","0.0-146.0","","","1-1","4016","40","1","Training","Stims/Figures/85-J-0-2.bmp","fafa:va","Down","40","9","15","6A","C1","C","143"
"","","approach-retreat","147","951155","0.0-147.0","","","1-1","4081","39","1","Training","Stims/Figures/100-C-30-3.bmp","zaha:za","Left","39","9","16","6A","C2","C","144"
"14939","","instructions","148","966095","0.0-148.0","[{""page_index"":0,""viewing_time"":14939}]","","","","","","","","","","","","","","","",""
"","","approach-retreat","149","973223","0.0-149.0","","","1-1","5627","39","1","Testing","Stims/Figures/74-J-10-4.bmp","va:fa:va","Right","39","1","1","6A","C1","C","1"
"","","approach-retreat","150","979783","0.0-150.0","","","1-1","5058","39","1","Testing","Stims/Figures/7-J-10-4.bmp","va:fa:sha","Right","39","1","2","6A","C1","C","2"
"","","approach-retreat","151","985729","0.0-151.0","","","1-1","4443","37","0","Testing","Stims/Figures/74-C-20-4.bmp","sasaha","Left","39","1","3","6A","C2","C","3"
"","","approach-retreat","152","991438","0.0-152.0","","","1-1","4205","38","1","Testing","Stims/Figures/44-C-30-3.bmp","za:sa:za","Down","38","1","4","6A","C2","C","4"
"","","approach-retreat","153","997993","0.0-153.0","","","1-1","5053","40","1","Testing","Stims/Figures/57-J-0-1.bmp","fafava","Down","40","1","5","6A","C1","C","5"
"","","approach-retreat","154","1003598","0.0-154.0","","","1-1","4102","40","1","Testing","Stims/Figures/44-J-10-3.bmp","fa:fava","Down","40","1","6","6A","C1","C","6"
"","","approach-retreat","155","1010421","0.0-155.0","","","1-1","5321","38","1","Testing","Stims/Figures/87-J-10-4.bmp","va:sha:sha","Up","38","1","7","6A","C1","C","7"
"","","approach-retreat","156","1015948","0.0-156.0","","","1-1","4025","37","1","Testing","Stims/Figures/7-C-20-4.bmp","zaha:ha","Right","37","1","8","6A","C2","C","8"
"","","approach-retreat","157","1022014","0.0-157.0","","","1-1","4563","38","1","Testing","Stims/Figures/87-C-20-4.bmp","sa:saha","Down","38","1","9","6A","C2","C","9"
"","","approach-retreat","158","1027531","0.0-158.0","","","1-1","4015","38","1","Testing","Stims/Figures/100-J-10-3.bmp","vasha:va","Up","38","1","10","6A","C1","C","10"
"","","approach-retreat","159","1032982","0.0-159.0","","","1-1","3949","38","1","Testing","Stims/Figures/139-C-20-2.bmp","zahaha","Down","38","1","11","6A","C2","C","11"
"","","approach-retreat","160","1038490","0.0-160.0","","","1-1","4006","40","1","Testing","Stims/Figures/57-C-30-1.bmp","sa:haha","Up","40","1","12","6A","C2","C","12"
"","","approach-retreat","161","1043907","0.0-161.0","","","1-1","3914","38","1","Testing","Stims/Figures/118-J-0-2.bmp","fa:sha:sha","Up","38","1","13","6A","C1","C","13"
"","","approach-retreat","162","1049474","0.0-162.0","","","1-1","4065","38","1","Testing","Stims/Figures/27-C-30-1.bmp","sasa:za","Down","38","1","14","6A","C2","C","14"
"","","approach-retreat","163","1054982","0.0-163.0","","","1-1","4005","37","1","Testing","Stims/Figures/93-J-0-1.bmp","fasha:va","Left","37","1","15","6A","C1","C","15"
"","","approach-retreat","164","1061440","0.0-164.0","","","1-1","4956","39","1","Testing","Stims/Figures/128-C-30-3.bmp","za:haha","Left","39","1","16","6A","C2","C","16"
"","","approach-retreat","165","1066936","0.0-165.0","","","1-1","3993","39","1","Testing","Stims/Figures/139-J-0-2.bmp","vafava","Right","39","1","17","6A","C1","C","17"
"","","approach-retreat","166","1074949","0.0-166.0","","","1-1","6510","40","1","Testing","Stims/Figures/118-C-20-2.bmp","zasaza","Up","40","1","18","6A","C2","C","18"
"","","approach-retreat","167","1081508","0.0-167.0","","","1-1","5056","39","1","Testing","Stims/Figures/85-J-0-2.bmp","fafa:va","Right","39","1","19","6A","C1","C","19"
"","","approach-retreat","168","1087036","0.0-168.0","","","1-1","4024","37","1","Testing","Stims/Figures/85-C-20-2.bmp","sasaza","Right","37","1","20","6A","C2","C","20"
"","","approach-retreat","169","1092621","0.0-169.0","","","1-1","4082","40","1","Testing","Stims/Figures/100-C-30-3.bmp","zaha:za","Up","40","1","21","6A","C2","C","21"
"","","approach-retreat","170","1098089","0.0-170.0","","","1-1","3966","37","1","Testing","Stims/Figures/27-J-0-1.bmp","va:fava","Left","37","1","22","6A","C1","C","22"
"","","approach-retreat","171","1105106","0.0-171.0","","","1-1","5515","39","1","Testing","Stims/Figures/93-C-30-1.bmp","sahaza","Left","39","1","23","6A","C2","C","23"
"","","approach-retreat","172","1110710","0.0-172.0","","","1-1","4101","37","1","Testing","Stims/Figures/128-J-10-3.bmp","fashasha","Left","37","1","24","6A","C1","C","24"
"","","approach-retreat","173","1116634","0.0-173.0","","","1-1","4422","40","1","Testing","Stims/Figures/118-J-0-2.bmp","fa:sha:sha","Down","40","2","1","6A","C1","C","25"
"","","approach-retreat","174","1122551","0.0-174.0","","","1-1","4412","38","1","Testing","Stims/Figures/139-C-20-2.bmp","zahaha","Down","38","2","2","6A","C2","C","26"
"","","approach-retreat","175","1131122","0.0-175.0","","","1-1","7069","40","1","Testing","Stims/Figures/74-C-20-4.bmp","sasaha","Up","40","2","3","6A","C2","C","27"
"","","approach-retreat","176","1136743","0.0-176.0","","","1-1","4118","37","1","Testing","Stims/Figures/85-C-20-2.bmp","sasaza","Right","37","2","4","6A","C2","C","28"
"","","approach-retreat","177","1142173","0.0-177.0","","","1-1","3927","39","1","Testing","Stims/Figures/57-C-30-1.bmp","sa:haha","Left","39","2","5","6A","C2","C","29"
"","","approach-retreat","178","1147666","0.0-178.0","","","1-1","3990","39","1","Testing","Stims/Figures/118-C-20-2.bmp","zasaza","Left","39","2","6","6A","C2","C","30"
"","","approach-retreat","179","1155572","0.0-179.0","","","1-1","6405","38","1","Testing","Stims/Figures/74-J-10-4.bmp","va:fa:va","Up","38","2","7","6A","C1","C","31"
"","","approach-retreat","180","1161188","0.0-180.0","","","1-1","4113","40","1","Testing","Stims/Figures/44-C-30-3.bmp","za:sa:za","Up","40","2","8","6A","C2","C","32"
"","","approach-retreat","181","1166600","0.0-181.0","","","1-1","3910","37","1","Testing","Stims/Figures/100-J-10-3.bmp","vasha:va","Left","37","2","9","6A","C1","C","33"
"","","approach-retreat","182","1172088","0.0-182.0","","","1-1","3984","39","0","Testing","Stims/Figures/44-J-10-3.bmp","fa:fava","Left","37","2","10","6A","C1","C","34"
"","","approach-retreat","183","1178784","0.0-183.0","","","1-1","5193","37","1","Testing","Stims/Figures/93-C-30-1.bmp","sahaza","Right","37","2","11","6A","C2","C","35"
"","","approach-retreat","184","1185058","0.0-184.0","","","1-1","4772","40","1","Testing","Stims/Figures/93-J-0-1.bmp","fasha:va","Down","40","2","12","6A","C1","C","36"
"","","approach-retreat","185","1190786","0.0-185.0","","","1-1","4225","38","1","Testing","Stims/Figures/100-C-30-3.bmp","zaha:za","Down","38","2","13","6A","C2","C","37"
"","","approach-retreat","186","1196509","0.0-186.0","","","1-1","4222","39","1","Testing","Stims/Figures/87-J-10-4.bmp","va:sha:sha","Right","39","2","14","6A","C1","C","38"
"","","approach-retreat","187","1201993","0.0-187.0","","","1-1","3982","38","1","Testing","Stims/Figures/128-C-30-3.bmp","za:haha","Down","38","2","15","6A","C2","C","39"
"","","approach-retreat","188","1207621","0.0-188.0","","","1-1","4126","39","1","Testing","Stims/Figures/87-C-20-4.bmp","sa:saha","Left","39","2","16","6A","C2","C","40"
"","","approach-retreat","189","1213333","0.0-189.0","","","1-1","4209","38","1","Testing","Stims/Figures/139-J-0-2.bmp","vafava","Up","38","2","17","6A","C1","C","41"
"","","approach-retreat","190","1219246","0.0-190.0","","","1-1","4409","39","1","Testing","Stims/Figures/7-J-10-4.bmp","va:fa:sha","Right","39","2","18","6A","C1","C","42"
"","","approach-retreat","191","1224866","0.0-191.0","","","1-1","4118","37","1","Testing","Stims/Figures/57-J-0-1.bmp","fafava","Left","37","2","19","6A","C1","C","43"
"","","approach-retreat","192","1230358","0.0-192.0","","","1-1","3989","39","1","Testing","Stims/Figures/128-J-10-3.bmp","fashasha","Right","39","2","20","6A","C1","C","44"
"","","approach-retreat","193","1235888","0.0-193.0","","","1-1","4027","38","1","Testing","Stims/Figures/27-C-30-1.bmp","sasa:za","Down","38","2","21","6A","C2","C","45"
"","","approach-retreat","194","1241600","0.0-194.0","","","1-1","4209","39","1","Testing","Stims/Figures/85-J-0-2.bmp","fafa:va","Right","39","2","22","6A","C1","C","46"
"","","approach-retreat","195","1247147","0.0-195.0","","","1-1","4046","38","1","Testing","Stims/Figures/27-J-0-1.bmp","va:fava","Up","38","2","23","6A","C1","C","47"
"","","approach-retreat","196","1252699","0.0-196.0","","","1-1","4049","40","1","Testing","Stims/Figures/7-C-20-4.bmp","zaha:ha","Up","40","2","24","6A","C2","C","48"
"","","approach-retreat","197","1258211","0.0-197.0","","","1-1","4010","40","1","Testing","Stims/Figures/44-C-30-3.bmp","za:sa:za","Up","40","3","1","6A","C2","C","49"
"","","approach-retreat","198","1263969","0.0-198.0","","","1-1","4256","37","1","Testing","Stims/Figures/74-J-10-4.bmp","va:fa:va","Left","37","3","2","6A","C1","C","50"
"","","approach-retreat","199","1269405","0.0-199.0","","","1-1","3933","38","1","Testing","Stims/Figures/100-J-10-3.bmp","vasha:va","Up","38","3","3","6A","C1","C","51"
"","","approach-retreat","200","1278397","0.0-200.0","","","1-1","7490","40","1","Testing","Stims/Figures/7-C-20-4.bmp","zaha:ha","Up","40","3","4","6A","C2","C","52"
"","","approach-retreat","201","1283833","0.0-201.0","","","1-1","3933","40","1","Testing","Stims/Figures/139-C-20-2.bmp","zahaha","Up","40","3","5","6A","C2","C","53"
"","","approach-retreat","202","1289226","0.0-202.0","","","1-1","3889","37","1","Testing","Stims/Figures/93-C-30-1.bmp","sahaza","Right","37","3","6","6A","C2","C","54"
"","","approach-retreat","203","1294697","0.0-203.0","","","1-1","3970","37","1","Testing","Stims/Figures/118-C-20-2.bmp","zasaza","Right","37","3","7","6A","C2","C","55"
"","","approach-retreat","204","1300409","0.0-204.0","","","1-1","4209","40","1","Testing","Stims/Figures/128-J-10-3.bmp","fashasha","Down","40","3","8","6A","C1","C","56"
"","","approach-retreat","205","1305983","0.0-205.0","","","1-1","4072","37","1","Testing","Stims/Figures/100-C-30-3.bmp","zaha:za","Right","37","3","9","6A","C2","C","57"
"","","approach-retreat","206","1311588","0.0-206.0","","","1-1","4102","37","0","Testing","Stims/Figures/74-C-20-4.bmp","sasaha","Left","39","3","10","6A","C2","C","58"
"","","approach-retreat","207","1317228","0.0-207.0","","","1-1","4136","39","1","Testing","Stims/Figures/128-C-30-3.bmp","za:haha","Left","39","3","11","6A","C2","C","59"
"","","approach-retreat","208","1322704","0.0-208.0","","","1-1","3973","38","1","Testing","Stims/Figures/57-J-0-1.bmp","fafava","Up","38","3","12","6A","C1","C","60"
"","","approach-retreat","209","1328303","0.0-209.0","","","1-1","4097","37","1","Testing","Stims/Figures/93-J-0-1.bmp","fasha:va","Left","37","3","13","6A","C1","C","61"
"","","approach-retreat","210","1333695","0.0-210.0","","","1-1","3889","40","1","Testing","Stims/Figures/57-C-30-1.bmp","sa:haha","Up","40","3","14","6A","C2","C","62"
"","","approach-retreat","211","1339328","0.0-211.0","","","1-1","4130","39","1","Testing","Stims/Figures/85-C-20-2.bmp","sasaza","Left","39","3","15","6A","C2","C","63"
"","","approach-retreat","212","1344954","0.0-212.0","","","1-1","4123","40","1","Testing","Stims/Figures/44-J-10-3.bmp","fa:fava","Down","40","3","16","6A","C1","C","64"
"","","approach-retreat","213","1351969","0.0-213.0","","","1-1","5513","39","1","Testing","Stims/Figures/85-J-0-2.bmp","fafa:va","Right","39","3","17","6A","C1","C","65"
"","","approach-retreat","214","1357473","0.0-214.0","","","1-1","4002","40","1","Testing","Stims/Figures/139-J-0-2.bmp","vafava","Down","40","3","18","6A","C1","C","66"
"","","approach-retreat","215","1363017","0.0-215.0","","","1-1","4041","39","1","Testing","Stims/Figures/87-J-10-4.bmp","va:sha:sha","Right","39","3","19","6A","C1","C","67"
"","","approach-retreat","216","1368529","0.0-216.0","","","1-1","4009","38","1","Testing","Stims/Figures/27-C-30-1.bmp","sasa:za","Down","38","3","20","6A","C2","C","68"
"","","approach-retreat","217","1373993","0.0-217.0","","","1-1","3960","37","1","Testing","Stims/Figures/87-C-20-4.bmp","sa:saha","Right","37","3","21","6A","C2","C","69"
"","","approach-retreat","218","1379637","0.0-218.0","","","1-1","4143","40","1","Testing","Stims/Figures/27-J-0-1.bmp","va:fava","Down","40","3","22","6A","C1","C","70"
"","","approach-retreat","219","1385231","0.0-219.0","","","1-1","4092","37","1","Testing","Stims/Figures/7-J-10-4.bmp","va:fa:sha","Left","37","3","23","6A","C1","C","71"
"","","approach-retreat","220","1390771","0.0-220.0","","","1-1","4036","40","1","Testing","Stims/Figures/118-J-0-2.bmp","fa:sha:sha","Down","40","3","24","6A","C1","C","72"
"","","approach-retreat","221","1396191","0.0-221.0","","","1-1","3919","38","1","Testing","Stims/Figures/27-J-0-1.bmp","va:fava","Up","38","4","1","6A","C1","C","73"
"","","approach-retreat","222","1401571","0.0-222.0","","","1-1","3877","37","1","Testing","Stims/Figures/128-C-30-3.bmp","za:haha","Right","37","4","2","6A","C2","C","74"
"","","approach-retreat","223","1406987","0.0-223.0","","","1-1","3913","40","1","Testing","Stims/Figures/44-C-30-3.bmp","za:sa:za","Up","40","4","3","6A","C2","C","75"
"","","approach-retreat","224","1412847","0.0-224.0","","","1-1","4357","40","1","Testing","Stims/Figures/100-J-10-3.bmp","vasha:va","Down","40","4","4","6A","C1","C","76"
"","","approach-retreat","225","1418430","0.0-225.0","","","1-1","4081","38","1","Testing","Stims/Figures/85-J-0-2.bmp","fafa:va","Up","38","4","5","6A","C1","C","77"
"","","approach-retreat","226","1424813","0.0-226.0","","","1-1","4880","39","1","Testing","Stims/Figures/44-J-10-3.bmp","fa:fava","Right","39","4","6","6A","C1","C","78"
"","","approach-retreat","227","1432520","0.0-227.0","","","1-1","6206","37","1","Testing","Stims/Figures/93-J-0-1.bmp","fasha:va","Left","37","4","7","6A","C1","C","79"
"","","approach-retreat","228","1438343","0.0-228.0","","","1-1","4321","37","1","Testing","Stims/Figures/100-C-30-3.bmp","zaha:za","Right","37","4","8","6A","C2","C","80"
"","","approach-retreat","229","1443888","0.0-229.0","","","1-1","4042","38","1","Testing","Stims/Figures/93-C-30-1.bmp","sahaza","Down","38","4","9","6A","C2","C","81"
"","","approach-retreat","230","1449625","0.0-230.0","","","1-1","4234","37","1","Testing","Stims/Figures/7-C-20-4.bmp","zaha:ha","Right","37","4","10","6A","C2","C","82"
"","","approach-retreat","231","1455200","0.0-231.0","","","1-1","4074","39","1","Testing","Stims/Figures/74-C-20-4.bmp","sasaha","Left","39","4","11","6A","C2","C","83"
"","","approach-retreat","232","1460864","0.0-232.0","","","1-1","4163","40","1","Testing","Stims/Figures/7-J-10-4.bmp","va:fa:sha","Down","40","4","12","6A","C1","C","84"
"","","approach-retreat","233","1466434","0.0-233.0","","","1-1","4068","37","1","Testing","Stims/Figures/128-J-10-3.bmp","fashasha","Left","37","4","13","6A","C1","C","85"
"","","approach-retreat","234","1471859","0.0-234.0","","","1-1","3923","40","1","Testing","Stims/Figures/27-C-30-1.bmp","sasa:za","Up","40","4","14","6A","C2","C","86"
"","","approach-retreat","235","1477386","0.0-235.0","","","1-1","4026","38","1","Testing","Stims/Figures/57-J-0-1.bmp","fafava","Up","38","4","15","6A","C1","C","87"
"","","approach-retreat","236","1483003","0.0-236.0","","","1-1","4113","40","1","Testing","Stims/Figures/118-J-0-2.bmp","fa:sha:sha","Down","40","4","16","6A","C1","C","88"
"","","approach-retreat","237","1488502","0.0-237.0","","","1-1","3998","39","1","Testing","Stims/Figures/118-C-20-2.bmp","zasaza","Left","39","4","17","6A","C2","C","89"
"","","approach-retreat","238","1494127","0.0-238.0","","","1-1","4121","39","1","Testing","Stims/Figures/139-C-20-2.bmp","zahaha","Left","39","4","18","6A","C2","C","90"
"","","approach-retreat","239","1499715","0.0-239.0","","","1-1","4086","38","1","Testing","Stims/Figures/85-C-20-2.bmp","sasaza","Down","38","4","19","6A","C2","C","91"
"","","approach-retreat","240","1505308","0.0-240.0","","","1-1","4091","40","1","Testing","Stims/Figures/57-C-30-1.bmp","sa:haha","Up","40","4","20","6A","C2","C","92"
"","","approach-retreat","241","1510865","0.0-241.0","","","1-1","4054","40","1","Testing","Stims/Figures/74-J-10-4.bmp","va:fa:va","Down","40","4","21","6A","C1","C","93"
"","","approach-retreat","242","1516244","0.0-242.0","","","1-1","3878","37","1","Testing","Stims/Figures/87-C-20-4.bmp","sa:saha","Right","37","4","22","6A","C2","C","94"
"","","approach-retreat","243","1521716","0.0-243.0","","","1-1","3968","39","1","Testing","Stims/Figures/139-J-0-2.bmp","vafava","Right","39","4","23","6A","C1","C","95"
"","","approach-retreat","244","1527360","0.0-244.0","","","1-1","4142","37","1","Testing","Stims/Figures/87-J-10-4.bmp","va:sha:sha","Left","37","4","24","6A","C1","C","96"
"29753","","survey-text","245","1557114","0.0-245.0","","{""Q0"":""""}","","","","","","","","","","","","","","",""
