"rt","key_press","trial_type","trial_index","time_elapsed","internal_node_id","view_history","responses","Id","Rt","ResKeyCode","ResCorr","TrialType2","Image","Label","Location","CorrectResponse","Block","BlockTrial","Condition","LabelType","Subcondition","trialNum"
"7182","32","text","0","7195","0.0-0.0-0.0","","","","","","","","","","","","","","","","",""
"291207","","instructions","1","298406","0.0-1.0","[{""page_index"":0,""viewing_time"":291205}]","","","","","","","","","","","","","","","",""
"43789","","survey-multi-choice","2","342241","0.0-2.0","","{""Q0"":""Da"",""Q1"":""Da"",""Q2"":""Da"",""Q3"":""Da"",""Q4"":""Da"",""Q5"":""Da""}","","","","","","","","","","","","","","",""
"","","bio","3","423114","0.0-3.0","","{""age"":""18"",""gender"":""f"",""specify"":""""}","","","","","","","","","","","","","","",""
"","","approach-retreat","4","438755","0.0-4.0","","","1-2","14118","37","1","Training","Stims/Figures/7-J-10-4.bmp","namala","Right","37","1","1","2","S","J","1"
"","","approach-retreat","5","446943","0.0-5.0","","","1-2","6668","39","1","Training","Stims/Figures/74-J-10-4.bmp","namala","Left","39","1","2","2","S","J","2"
"","","approach-retreat","6","454828","0.0-6.0","","","1-2","6371","37","1","Training","Stims/Figures/85-C-20-2.bmp","papata","Left","37","1","3","2","P","J","3"
"","","approach-retreat","7","465345","0.0-7.0","","","1-2","9000","40","1","Training","Stims/Figures/86-C-30-1.bmp","papata","Down","40","1","4","2","P","J","4"
"","","approach-retreat","8","472895","0.0-8.0","","","1-2","6032","38","0","Training","Stims/Figures/74-C-20-4.bmp","papata","Down","40","1","5","2","P","J","5"
"","","approach-retreat","9","478752","0.0-9.0","","","1-2","4340","40","0","Training","Stims/Figures/111-J-10-3.bmp","namala","Down","38","1","6","2","S","J","6"
"","","approach-retreat","10","487473","0.0-10.0","","","1-2","7204","39","0","Training","Stims/Figures/139-J-0-2.bmp","namala","Right","37","1","7","2","S","J","7"
"","","approach-retreat","11","495154","0.0-11.0","","","1-2","6164","37","1","Training","Stims/Figures/7-C-20-4.bmp","papata","Left","37","1","8","2","P","J","8"
"","","approach-retreat","12","504137","0.0-12.0","","","1-2","7465","39","1","Training","Stims/Figures/111-C-30-3.bmp","papata","Right","39","1","9","2","P","J","9"
"","","approach-retreat","13","512436","0.0-13.0","","","1-2","6782","40","1","Training","Stims/Figures/100-J-10-3.bmp","namala","Up","40","1","10","2","S","J","10"
"","","approach-retreat","14","519602","0.0-14.0","","","1-2","5650","37","0","Training","Stims/Figures/85-J-0-2.bmp","namala","Left","39","1","11","2","S","J","11"
"","","approach-retreat","15","530463","0.0-15.0","","","1-2","9347","37","1","Training","Stims/Figures/93-J-0-1.bmp","namala","Right","37","1","12","2","S","J","12"
"","","approach-retreat","16","539371","0.0-16.0","","","1-2","7390","38","0","Training","Stims/Figures/86-J-0-1.bmp","namala","Up","40","1","13","2","S","J","13"
"","","approach-retreat","17","546464","0.0-17.0","","","1-2","5578","38","1","Training","Stims/Figures/100-C-30-3.bmp","papata","Up","38","1","14","2","P","J","14"
"","","approach-retreat","18","553186","0.0-18.0","","","1-2","5207","40","0","Training","Stims/Figures/139-C-20-2.bmp","papata","Up","38","1","15","2","P","J","15"
"","","approach-retreat","19","562356","0.0-19.0","","","1-2","7661","40","1","Training","Stims/Figures/93-C-30-1.bmp","papata","Down","40","1","16","2","P","J","16"
"","","approach-retreat","20","569635","0.0-20.0","","","1-2","5765","38","1","Training","Stims/Figures/74-J-10-4.bmp","namala","Down","38","2","1","2","S","J","17"
"","","approach-retreat","21","577867","0.0-21.0","","","1-2","6715","38","0","Training","Stims/Figures/100-C-30-3.bmp","papata","Down","40","2","2","2","P","J","18"
"","","approach-retreat","22","584070","0.0-22.0","","","1-2","4686","40","0","Training","Stims/Figures/111-C-30-3.bmp","papata","Up","38","2","3","2","P","J","19"
"","","approach-retreat","23","590634","0.0-23.0","","","1-2","5047","37","1","Training","Stims/Figures/111-J-10-3.bmp","namala","Right","37","2","4","2","S","J","20"
"","","approach-retreat","24","597422","0.0-24.0","","","1-2","5271","38","1","Training","Stims/Figures/139-C-20-2.bmp","papata","Up","38","2","5","2","P","J","21"
"","","approach-retreat","25","608312","0.0-25.0","","","1-2","9372","38","1","Training","Stims/Figures/86-J-0-1.bmp","namala","Down","38","2","6","2","S","J","22"
"","","approach-retreat","26","616669","0.0-26.0","","","1-2","6841","39","0","Training","Stims/Figures/7-C-20-4.bmp","papata","Left","37","2","7","2","P","J","23"
"","","approach-retreat","27","623311","0.0-27.0","","","1-2","5124","38","0","Training","Stims/Figures/100-J-10-3.bmp","namala","Up","40","2","8","2","S","J","24"
"","","approach-retreat","28","631167","0.0-28.0","","","1-2","6339","39","1","Training","Stims/Figures/74-C-20-4.bmp","papata","Right","39","2","9","2","P","J","25"
"","","approach-retreat","29","638735","0.0-29.0","","","1-2","6050","38","1","Training","Stims/Figures/139-J-0-2.bmp","namala","Down","38","2","10","2","S","J","26"
"","","approach-retreat","30","648245","0.0-30.0","","","1-2","7992","39","0","Training","Stims/Figures/93-C-30-1.bmp","papata","Left","37","2","11","2","P","J","27"
"","","approach-retreat","31","657620","0.0-31.0","","","1-2","7860","39","1","Training","Stims/Figures/85-J-0-2.bmp","namala","Left","39","2","12","2","S","J","28"
"","","approach-retreat","32","664453","0.0-32.0","","","1-2","5316","37","1","Training","Stims/Figures/93-J-0-1.bmp","namala","Right","37","2","13","2","S","J","29"
"","","approach-retreat","33","672143","0.0-33.0","","","1-2","6173","39","1","Training","Stims/Figures/86-C-30-1.bmp","papata","Right","39","2","14","2","P","J","30"
"","","approach-retreat","34","679799","0.0-34.0","","","1-2","6140","37","0","Training","Stims/Figures/7-J-10-4.bmp","namala","Left","39","2","15","2","S","J","31"
"","","approach-retreat","35","686756","0.0-35.0","","","1-2","5439","38","1","Training","Stims/Figures/85-C-20-2.bmp","papata","Up","38","2","16","2","P","J","32"
"","","approach-retreat","36","692611","0.0-36.0","","","1-2","4340","39","0","Training","Stims/Figures/111-J-10-3.bmp","namala","Right","37","3","1","2","S","J","33"
"","","approach-retreat","37","699741","0.0-37.0","","","1-2","5611","38","0","Training","Stims/Figures/7-J-10-4.bmp","namala","Up","40","3","2","2","S","J","34"
"","","approach-retreat","38","706917","0.0-38.0","","","1-2","5658","37","1","Training","Stims/Figures/74-C-20-4.bmp","papata","Left","37","3","3","2","P","J","35"
"","","approach-retreat","39","715405","0.0-39.0","","","1-2","6971","40","1","Training","Stims/Figures/100-C-30-3.bmp","papata","Down","40","3","4","2","P","J","36"
"","","approach-retreat","40","722866","0.0-40.0","","","1-2","5945","38","1","Training","Stims/Figures/74-J-10-4.bmp","namala","Down","38","3","5","2","S","J","37"
"","","approach-retreat","41","731544","0.0-41.0","","","1-2","7161","37","0","Training","Stims/Figures/7-C-20-4.bmp","papata","Right","39","3","6","2","P","J","38"
"","","approach-retreat","42","738914","0.0-42.0","","","1-2","5854","37","0","Training","Stims/Figures/93-J-0-1.bmp","namala","Left","39","3","7","2","S","J","39"
"","","approach-retreat","43","747800","0.0-43.0","","","1-2","7369","38","0","Training","Stims/Figures/100-J-10-3.bmp","namala","Up","40","3","8","2","S","J","40"
"","","approach-retreat","44","755527","0.0-44.0","","","1-2","6211","37","1","Training","Stims/Figures/93-C-30-1.bmp","papata","Left","37","3","9","2","P","J","41"
"","","approach-retreat","45","761922","0.0-45.0","","","1-2","4877","38","1","Training","Stims/Figures/111-C-30-3.bmp","papata","Up","38","3","10","2","P","J","42"
"","","approach-retreat","46","769277","0.0-46.0","","","1-2","5837","39","1","Training","Stims/Figures/86-J-0-1.bmp","namala","Left","39","3","11","2","S","J","43"
"","","approach-retreat","47","775572","0.0-47.0","","","1-2","4779","40","1","Training","Stims/Figures/139-J-0-2.bmp","namala","Up","40","3","12","2","S","J","44"
"","","approach-retreat","48","781848","0.0-48.0","","","1-2","4758","38","0","Training","Stims/Figures/86-C-30-1.bmp","papata","Down","40","3","13","2","P","J","45"
"","","approach-retreat","49","788354","0.0-49.0","","","1-2","4990","37","0","Training","Stims/Figures/139-C-20-2.bmp","papata","Right","39","3","14","2","P","J","46"
"","","approach-retreat","50","797064","0.0-50.0","","","1-2","7192","39","0","Training","Stims/Figures/85-J-0-2.bmp","namala","Right","37","3","15","2","S","J","47"
"","","approach-retreat","51","803220","0.0-51.0","","","1-2","4641","38","0","Training","Stims/Figures/85-C-20-2.bmp","papata","Down","40","3","16","2","P","J","48"
"","","approach-retreat","52","809687","0.0-52.0","","","1-2","4949","37","1","Training","Stims/Figures/93-J-0-1.bmp","namala","Right","37","4","1","2","S","J","49"
"","","approach-retreat","53","815893","0.0-53.0","","","1-2","4688","38","0","Training","Stims/Figures/111-C-30-3.bmp","papata","Down","40","4","2","2","P","J","50"
"","","approach-retreat","54","827020","0.0-54.0","","","1-2","9611","37","1","Training","Stims/Figures/7-C-20-4.bmp","papata","Left","37","4","3","2","P","J","51"
"","","approach-retreat","55","835941","0.0-55.0","","","1-2","7408","37","1","Training","Stims/Figures/100-C-30-3.bmp","papata","Left","37","4","4","2","P","J","52"
"","","approach-retreat","56","842481","0.0-56.0","","","1-2","5023","39","0","Training","Stims/Figures/111-J-10-3.bmp","namala","Right","37","4","5","2","S","J","53"
"","","approach-retreat","57","848691","0.0-57.0","","","1-2","4693","40","0","Training","Stims/Figures/93-C-30-1.bmp","papata","Up","38","4","6","2","P","J","54"
"","","approach-retreat","58","856847","0.0-58.0","","","1-2","6638","39","0","Training","Stims/Figures/139-C-20-2.bmp","papata","Left","37","4","7","2","P","J","55"
"","","approach-retreat","59","863242","0.0-59.0","","","1-2","4878","40","1","Training","Stims/Figures/7-J-10-4.bmp","namala","Up","40","4","8","2","S","J","56"
"","","approach-retreat","60","871634","0.0-60.0","","","1-2","6875","40","1","Training","Stims/Figures/74-J-10-4.bmp","namala","Up","40","4","9","2","S","J","57"
"","","approach-retreat","61","878611","0.0-61.0","","","1-2","5459","39","0","Training","Stims/Figures/85-C-20-2.bmp","papata","Left","37","4","10","2","P","J","58"
"","","approach-retreat","62","885538","0.0-62.0","","","1-2","5410","37","1","Training","Stims/Figures/86-J-0-1.bmp","namala","Right","37","4","11","2","S","J","59"
"","","approach-retreat","63","893459","0.0-63.0","","","1-2","6404","39","0","Training","Stims/Figures/139-J-0-2.bmp","namala","Right","37","4","12","2","S","J","60"
"","","approach-retreat","64","901799","0.0-64.0","","","1-2","6822","40","1","Training","Stims/Figures/100-J-10-3.bmp","namala","Up","40","4","13","2","S","J","61"
"","","approach-retreat","65","908521","0.0-65.0","","","1-2","5206","38","0","Training","Stims/Figures/86-C-30-1.bmp","papata","Down","40","4","14","2","P","J","62"
"","","approach-retreat","66","916706","0.0-66.0","","","1-2","6669","38","0","Training","Stims/Figures/74-C-20-4.bmp","papata","Down","40","4","15","2","P","J","63"
"","","approach-retreat","67","935498","0.0-67.0","","","1-2","17275","38","1","Training","Stims/Figures/85-J-0-2.bmp","namala","Down","38","4","16","2","S","J","64"
"","","approach-retreat","68","942776","0.0-68.0","","","1-2","5761","39","1","Training","Stims/Figures/139-C-20-2.bmp","papata","Right","39","5","1","2","P","J","65"
"","","approach-retreat","69","950052","0.0-69.0","","","1-2","5761","38","0","Training","Stims/Figures/7-J-10-4.bmp","namala","Up","40","5","2","2","S","J","66"
"","","approach-retreat","70","959183","0.0-70.0","","","1-2","7614","40","1","Training","Stims/Figures/139-J-0-2.bmp","namala","Up","40","5","3","2","S","J","67"
"","","approach-retreat","71","966953","0.0-71.0","","","1-2","6251","39","1","Training","Stims/Figures/7-C-20-4.bmp","papata","Right","39","5","4","2","P","J","68"
"","","approach-retreat","72","974395","0.0-72.0","","","1-2","5925","37","1","Training","Stims/Figures/85-C-20-2.bmp","papata","Left","37","5","5","2","P","J","69"
"","","approach-retreat","73","980497","0.0-73.0","","","1-2","4585","40","1","Training","Stims/Figures/111-J-10-3.bmp","namala","Up","40","5","6","2","S","J","70"
"","","approach-retreat","74","988094","0.0-74.0","","","1-2","6081","37","1","Training","Stims/Figures/86-J-0-1.bmp","namala","Right","37","5","7","2","S","J","71"
"","","approach-retreat","75","995013","0.0-75.0","","","1-2","5402","39","0","Training","Stims/Figures/86-C-30-1.bmp","papata","Left","37","5","8","2","P","J","72"
"","","approach-retreat","76","1002225","0.0-76.0","","","1-2","5695","37","1","Training","Stims/Figures/100-J-10-3.bmp","namala","Right","37","5","9","2","S","J","73"
"","","approach-retreat","77","1009481","0.0-77.0","","","1-2","5739","40","0","Training","Stims/Figures/93-J-0-1.bmp","namala","Down","38","5","10","2","S","J","74"
"","","approach-retreat","78","1016094","0.0-78.0","","","1-2","5097","38","1","Training","Stims/Figures/74-C-20-4.bmp","papata","Up","38","5","11","2","P","J","75"
"","","approach-retreat","79","1024695","0.0-79.0","","","1-2","7083","37","0","Training","Stims/Figures/74-J-10-4.bmp","namala","Left","39","5","12","2","S","J","76"
"","","approach-retreat","80","1033519","0.0-80.0","","","1-2","7307","40","1","Training","Stims/Figures/100-C-30-3.bmp","papata","Down","40","5","13","2","P","J","77"
"","","approach-retreat","81","1040853","0.0-81.0","","","1-2","5815","38","1","Training","Stims/Figures/85-J-0-2.bmp","namala","Down","38","5","14","2","S","J","78"
"","","approach-retreat","82","1047192","0.0-82.0","","","1-2","4822","40","1","Training","Stims/Figures/111-C-30-3.bmp","papata","Down","40","5","15","2","P","J","79"
"","","approach-retreat","83","1054834","0.0-83.0","","","1-2","6125","37","1","Training","Stims/Figures/93-C-30-1.bmp","papata","Left","37","5","16","2","P","J","80"
"","","approach-retreat","84","1062092","0.0-84.0","","","1-2","5741","37","1","Training","Stims/Figures/86-J-0-1.bmp","namala","Right","37","6","1","2","S","J","81"
"","","approach-retreat","85","1068941","0.0-85.0","","","1-2","5333","37","1","Training","Stims/Figures/86-C-30-1.bmp","papata","Left","37","6","2","2","P","J","82"
"","","approach-retreat","86","1076836","0.0-86.0","","","1-2","6378","37","1","Training","Stims/Figures/139-C-20-2.bmp","papata","Left","37","6","3","2","P","J","83"
"","","approach-retreat","87","1083649","0.0-87.0","","","1-2","5296","38","0","Training","Stims/Figures/139-J-0-2.bmp","namala","Up","40","6","4","2","S","J","84"
"","","approach-retreat","88","1091738","0.0-88.0","","","1-2","6572","38","0","Training","Stims/Figures/74-J-10-4.bmp","namala","Up","40","6","5","2","S","J","85"
"","","approach-retreat","89","1097963","0.0-89.0","","","1-2","4709","40","1","Training","Stims/Figures/100-J-10-3.bmp","namala","Up","40","6","6","2","S","J","86"
"","","approach-retreat","90","1107188","0.0-90.0","","","1-2","7707","38","0","Training","Stims/Figures/74-C-20-4.bmp","papata","Down","40","6","7","2","P","J","87"
"","","approach-retreat","91","1113234","0.0-91.0","","","1-2","4528","40","0","Training","Stims/Figures/7-J-10-4.bmp","namala","Down","38","6","8","2","S","J","88"
"","","approach-retreat","92","1120636","0.0-92.0","","","1-2","5884","37","1","Training","Stims/Figures/100-C-30-3.bmp","papata","Left","37","6","9","2","P","J","89"
"","","approach-retreat","93","1126861","0.0-93.0","","","1-2","4706","37","1","Training","Stims/Figures/93-J-0-1.bmp","namala","Right","37","6","10","2","S","J","90"
"","","approach-retreat","94","1133074","0.0-94.0","","","1-2","4697","40","1","Training","Stims/Figures/85-J-0-2.bmp","namala","Up","40","6","11","2","S","J","91"
"","","approach-retreat","95","1139396","0.0-95.0","","","1-2","4805","38","1","Training","Stims/Figures/111-J-10-3.bmp","namala","Down","38","6","12","2","S","J","92"
"","","approach-retreat","96","1145984","0.0-96.0","","","1-2","5071","37","1","Training","Stims/Figures/93-C-30-1.bmp","papata","Left","37","6","13","2","P","J","93"
"","","approach-retreat","97","1154274","0.0-97.0","","","1-2","6772","37","0","Training","Stims/Figures/85-C-20-2.bmp","papata","Right","39","6","14","2","P","J","94"
"","","approach-retreat","98","1160397","0.0-98.0","","","1-2","4607","40","1","Training","Stims/Figures/7-C-20-4.bmp","papata","Down","40","6","15","2","P","J","95"
"","","approach-retreat","99","1167152","0.0-99.0","","","1-2","5239","39","1","Training","Stims/Figures/111-C-30-3.bmp","papata","Right","39","6","16","2","P","J","96"
"","","approach-retreat","100","1173628","0.0-100.0","","","1-2","4960","40","1","Training","Stims/Figures/111-C-30-3.bmp","papata","Down","40","7","1","2","P","J","97"
"","","approach-retreat","101","1180181","0.0-101.0","","","1-2","5037","40","1","Training","Stims/Figures/93-C-30-1.bmp","papata","Down","40","7","2","2","P","J","98"
"","","approach-retreat","102","1186947","0.0-102.0","","","1-2","5250","37","1","Training","Stims/Figures/7-C-20-4.bmp","papata","Left","37","7","3","2","P","J","99"
"","","approach-retreat","103","1194437","0.0-103.0","","","1-2","5974","40","0","Training","Stims/Figures/85-C-20-2.bmp","papata","Up","38","7","4","2","P","J","100"
"","","approach-retreat","104","1202263","0.0-104.0","","","1-2","6309","37","1","Training","Stims/Figures/86-J-0-1.bmp","namala","Right","37","7","5","2","S","J","101"
"","","approach-retreat","105","1209154","0.0-105.0","","","1-2","5373","39","1","Training","Stims/Figures/111-J-10-3.bmp","namala","Left","39","7","6","2","S","J","102"
"","","approach-retreat","106","1216296","0.0-106.0","","","1-2","5627","40","1","Training","Stims/Figures/100-C-30-3.bmp","papata","Down","40","7","7","2","P","J","103"
"","","approach-retreat","107","1222780","0.0-107.0","","","1-2","4967","37","1","Training","Stims/Figures/85-J-0-2.bmp","namala","Right","37","7","8","2","S","J","104"
"","","approach-retreat","108","1229206","0.0-108.0","","","1-2","4910","40","1","Training","Stims/Figures/139-J-0-2.bmp","namala","Up","40","7","9","2","S","J","105"
"","","approach-retreat","109","1235806","0.0-109.0","","","1-2","5083","37","1","Training","Stims/Figures/139-C-20-2.bmp","papata","Left","37","7","10","2","P","J","106"
"","","approach-retreat","110","1242519","0.0-110.0","","","1-2","5198","37","0","Training","Stims/Figures/100-J-10-3.bmp","namala","Left","39","7","11","2","S","J","107"
"","","approach-retreat","111","1249733","0.0-111.0","","","1-2","5698","38","0","Training","Stims/Figures/7-J-10-4.bmp","namala","Up","40","7","12","2","S","J","108"
"","","approach-retreat","112","1256544","0.0-112.0","","","1-2","5293","39","1","Training","Stims/Figures/86-C-30-1.bmp","papata","Right","39","7","13","2","P","J","109"
"","","approach-retreat","113","1263951","0.0-113.0","","","1-2","5891","38","1","Training","Stims/Figures/93-J-0-1.bmp","namala","Down","38","7","14","2","S","J","110"
"","","approach-retreat","114","1272247","0.0-114.0","","","1-2","6781","40","1","Training","Stims/Figures/74-J-10-4.bmp","namala","Up","40","7","15","2","S","J","111"
"","","approach-retreat","115","1279622","0.0-115.0","","","1-2","5857","37","0","Training","Stims/Figures/74-C-20-4.bmp","papata","Right","39","7","16","2","P","J","112"
"","","approach-retreat","116","1288043","0.0-116.0","","","1-2","6905","37","0","Training","Stims/Figures/139-C-20-2.bmp","papata","Right","39","8","1","2","P","J","113"
"","","approach-retreat","117","1298444","0.0-117.0","","","1-2","8884","40","1","Training","Stims/Figures/85-J-0-2.bmp","namala","Up","40","8","2","2","S","J","114"
"","","approach-retreat","118","1310473","0.0-118.0","","","1-2","10511","37","1","Training","Stims/Figures/74-C-20-4.bmp","papata","Left","37","8","3","2","P","J","115"
"","","approach-retreat","119","1318804","0.0-119.0","","","1-2","6813","40","0","Training","Stims/Figures/7-C-20-4.bmp","papata","Up","38","8","4","2","P","J","116"
"","","approach-retreat","120","1325558","0.0-120.0","","","1-2","5238","37","1","Training","Stims/Figures/100-J-10-3.bmp","namala","Right","37","8","5","2","S","J","117"
"","","approach-retreat","121","1332385","0.0-121.0","","","1-2","5310","38","0","Training","Stims/Figures/86-C-30-1.bmp","papata","Down","40","8","6","2","P","J","118"
"","","approach-retreat","122","1339590","0.0-122.0","","","1-2","5686","38","1","Training","Stims/Figures/139-J-0-2.bmp","namala","Down","38","8","7","2","S","J","119"
"","","approach-retreat","123","1345853","0.0-123.0","","","1-2","4746","37","1","Training","Stims/Figures/93-C-30-1.bmp","papata","Left","37","8","8","2","P","J","120"
"","","approach-retreat","124","1353200","0.0-124.0","","","1-2","5832","38","1","Training","Stims/Figures/86-J-0-1.bmp","namala","Down","38","8","9","2","S","J","121"
"","","approach-retreat","125","1360497","0.0-125.0","","","1-2","5780","40","1","Training","Stims/Figures/93-J-0-1.bmp","namala","Up","40","8","10","2","S","J","122"
"","","approach-retreat","126","1366651","0.0-126.0","","","1-2","4639","38","1","Training","Stims/Figures/111-C-30-3.bmp","papata","Up","38","8","11","2","P","J","123"
"","","approach-retreat","127","1376908","0.0-127.0","","","1-2","8741","39","1","Training","Stims/Figures/100-C-30-3.bmp","papata","Right","39","8","12","2","P","J","124"
"","","approach-retreat","128","1383946","0.0-128.0","","","1-2","5522","39","1","Training","Stims/Figures/74-J-10-4.bmp","namala","Left","39","8","13","2","S","J","125"
"","","approach-retreat","129","1390507","0.0-129.0","","","1-2","5044","37","1","Training","Stims/Figures/111-J-10-3.bmp","namala","Right","37","8","14","2","S","J","126"
"","","approach-retreat","130","1396998","0.0-130.0","","","1-2","4974","40","1","Training","Stims/Figures/85-C-20-2.bmp","papata","Down","40","8","15","2","P","J","127"
"","","approach-retreat","131","1405239","0.0-131.0","","","1-2","6724","39","1","Training","Stims/Figures/7-J-10-4.bmp","namala","Left","39","8","16","2","S","J","128"
"","","approach-retreat","132","1413143","0.0-132.0","","","1-2","6388","40","1","Training","Stims/Figures/111-J-10-3.bmp","namala","Up","40","9","1","2","S","J","129"
"","","approach-retreat","133","1421688","0.0-133.0","","","1-2","7029","38","1","Training","Stims/Figures/7-C-20-4.bmp","papata","Up","38","9","2","2","P","J","130"
"","","approach-retreat","134","1429172","0.0-134.0","","","1-2","5966","37","1","Training","Stims/Figures/74-J-10-4.bmp","namala","Right","37","9","3","2","S","J","131"
"","","approach-retreat","135","1441823","0.0-135.0","","","1-2","11135","40","1","Training","Stims/Figures/93-C-30-1.bmp","papata","Down","40","9","4","2","P","J","132"
"","","approach-retreat","136","1448185","0.0-136.0","","","1-2","4846","38","1","Training","Stims/Figures/7-J-10-4.bmp","namala","Down","38","9","5","2","S","J","133"
"","","approach-retreat","137","1456650","0.0-137.0","","","1-2","6948","40","1","Training","Stims/Figures/111-C-30-3.bmp","papata","Down","40","9","6","2","P","J","134"
"","","approach-retreat","138","1463448","0.0-138.0","","","1-2","5280","40","1","Training","Stims/Figures/86-C-30-1.bmp","papata","Down","40","9","7","2","P","J","135"
"","","approach-retreat","139","1470012","0.0-139.0","","","1-2","5047","37","1","Training","Stims/Figures/139-C-20-2.bmp","papata","Left","37","9","8","2","P","J","136"
"","","approach-retreat","140","1476985","0.0-140.0","","","1-2","5457","37","1","Training","Stims/Figures/100-C-30-3.bmp","papata","Left","37","9","9","2","P","J","137"
"","","approach-retreat","141","1485401","0.0-141.0","","","1-2","6900","38","1","Training","Stims/Figures/85-C-20-2.bmp","papata","Up","38","9","10","2","P","J","138"
"","","approach-retreat","142","1491956","0.0-142.0","","","1-2","5037","37","1","Training","Stims/Figures/85-J-0-2.bmp","namala","Right","37","9","11","2","S","J","139"
"","","approach-retreat","143","1500302","0.0-143.0","","","1-2","6826","37","1","Training","Stims/Figures/139-J-0-2.bmp","namala","Right","37","9","12","2","S","J","140"
"","","approach-retreat","144","1529966","0.0-144.0","","","1-2","28149","38","1","Training","Stims/Figures/74-C-20-4.bmp","papata","Up","38","9","13","2","P","J","141"
"","","approach-retreat","145","1539675","0.0-145.0","","","1-2","8192","39","1","Training","Stims/Figures/100-J-10-3.bmp","namala","Left","39","9","14","2","S","J","142"
"","","approach-retreat","146","1547872","0.0-146.0","","","1-2","6688","39","1","Training","Stims/Figures/93-J-0-1.bmp","namala","Left","39","9","15","2","S","J","143"
"","","approach-retreat","147","1554676","0.0-147.0","","","1-2","5287","37","1","Training","Stims/Figures/86-J-0-1.bmp","namala","Right","37","9","16","2","S","J","144"
"15130","","instructions","148","1569806","0.0-148.0","[{""page_index"":0,""viewing_time"":15129}]","","","","","","","","","","","","","","","",""
"","","approach-retreat","149","1584273","0.0-149.0","","","1-2","12954","37","1","Testing","Stims/Figures/94-C-20-2.bmp","papata","Left","37","1","1","2","P","J","1"
"","","approach-retreat","150","1591506","0.0-150.0","","","1-2","5719","39","1","Testing","Stims/Figures/139-J-0-2.bmp","namala","Left","39","1","2","2","S","J","2"
"","","approach-retreat","151","1598271","0.0-151.0","","","1-2","5250","38","1","Testing","Stims/Figures/87-C-20-4.bmp","papata","Up","38","1","3","2","P","J","3"
"","","approach-retreat","152","1605771","0.0-152.0","","","1-2","5987","39","1","Testing","Stims/Figures/74-C-20-4.bmp","papata","Right","39","1","4","2","P","J","4"
"","","approach-retreat","153","1612327","0.0-153.0","","","1-2","5043","37","1","Testing","Stims/Figures/128-C-30-3.bmp","papata","Left","37","1","5","2","P","J","5"
"","","approach-retreat","154","1621085","0.0-154.0","","","1-2","7245","39","0","Testing","Stims/Figures/139-C-20-2.bmp","papata","Left","37","1","6","2","P","J","6"
"","","approach-retreat","155","1631873","0.0-155.0","","","1-2","9276","38","1","Testing","Stims/Figures/71-C-30-1.bmp","papata","Up","38","1","7","2","P","J","7"
"","","approach-retreat","156","1638908","0.0-156.0","","","1-2","5523","40","1","Testing","Stims/Figures/86-C-30-1.bmp","papata","Down","40","1","8","2","P","J","8"
"","","approach-retreat","157","1651772","0.0-157.0","","","1-2","11352","39","1","Testing","Stims/Figures/85-J-0-2.bmp","namala","Left","39","1","9","2","S","J","9"
"","","approach-retreat","158","1672728","0.0-158.0","","","1-2","19442","40","1","Testing","Stims/Figures/7-C-20-4.bmp","papata","Down","40","1","10","2","P","J","10"
"","","approach-retreat","159","1678980","0.0-159.0","","","1-2","4740","38","1","Testing","Stims/Figures/111-C-30-3.bmp","papata","Up","38","1","11","2","P","J","11"
"","","approach-retreat","160","1687038","0.0-160.0","","","1-2","6544","38","1","Testing","Stims/Figures/111-J-10-3.bmp","namala","Down","38","1","12","2","S","J","12"
"","","approach-retreat","161","1693726","0.0-161.0","","","1-2","5175","38","1","Testing","Stims/Figures/100-J-10-3.bmp","namala","Down","38","1","13","2","S","J","13"
"","","approach-retreat","162","1704446","0.0-162.0","","","1-2","9208","37","1","Testing","Stims/Figures/100-C-30-3.bmp","papata","Left","37","1","14","2","P","J","14"
"","","approach-retreat","163","1713667","0.0-163.0","","","1-2","7709","39","1","Testing","Stims/Figures/93-C-30-1.bmp","papata","Right","39","1","15","2","P","J","15"
"","","approach-retreat","164","1719919","0.0-164.0","","","1-2","4739","40","1","Testing","Stims/Figures/128-J-10-3.bmp","namala","Up","40","1","16","2","S","J","16"
"","","approach-retreat","165","1726506","0.0-165.0","","","1-2","5072","38","1","Testing","Stims/Figures/86-J-0-1.bmp","namala","Down","38","1","17","2","S","J","17"
"","","approach-retreat","166","1732771","0.0-166.0","","","1-2","4751","37","1","Testing","Stims/Figures/71-J-0-1.bmp","namala","Right","37","1","18","2","S","J","18"
"","","approach-retreat","167","1739817","0.0-167.0","","","1-2","5523","40","0","Testing","Stims/Figures/7-J-10-4.bmp","namala","Down","38","1","19","2","S","J","19"
"","","approach-retreat","168","1746029","0.0-168.0","","","1-2","4700","40","1","Testing","Stims/Figures/93-J-0-1.bmp","namala","Up","40","1","20","2","S","J","20"
"","","approach-retreat","169","1763238","0.0-169.0","","","1-2","15696","37","0","Testing","Stims/Figures/85-C-20-2.bmp","papata","Right","39","1","21","2","P","J","21"
"","","approach-retreat","170","1773907","0.0-170.0","","","1-2","9155","39","0","Testing","Stims/Figures/87-J-10-4.bmp","namala","Right","37","1","22","2","S","J","22"
"","","approach-retreat","171","1780979","0.0-171.0","","","1-2","5560","40","1","Testing","Stims/Figures/94-J-0-2.bmp","namala","Up","40","1","23","2","S","J","23"
"","","approach-retreat","172","1787129","0.0-172.0","","","1-2","4637","37","1","Testing","Stims/Figures/74-J-10-4.bmp","namala","Right","37","1","24","2","S","J","24"
"","","approach-retreat","173","1825953","0.0-173.0","","","1-2","37310","37","1","Testing","Stims/Figures/111-C-30-3.bmp","papata","Left","37","2","1","2","P","J","25"
"","","approach-retreat","174","1856401","0.0-174.0","","","1-2","28934","39","1","Testing","Stims/Figures/7-C-20-4.bmp","papata","Right","39","2","2","2","P","J","26"
"","","approach-retreat","175","1872729","0.0-175.0","","","1-2","14815","37","1","Testing","Stims/Figures/74-C-20-4.bmp","papata","Left","37","2","3","2","P","J","27"
"","","approach-retreat","176","1878759","0.0-176.0","","","1-2","4517","40","1","Testing","Stims/Figures/71-J-0-1.bmp","namala","Up","40","2","4","2","S","J","28"
"","","approach-retreat","177","1885656","0.0-177.0","","","1-2","5383","40","0","Testing","Stims/Figures/71-C-30-1.bmp","papata","Up","38","2","5","2","P","J","29"
"","","approach-retreat","178","1893489","0.0-178.0","","","1-2","6319","37","1","Testing","Stims/Figures/100-J-10-3.bmp","namala","Right","37","2","6","2","S","J","30"
"","","approach-retreat","179","1902764","0.0-179.0","","","1-2","7763","37","0","Testing","Stims/Figures/94-C-20-2.bmp","papata","Right","39","2","7","2","P","J","31"
"","","approach-retreat","180","1909793","0.0-180.0","","","1-2","5515","39","1","Testing","Stims/Figures/86-J-0-1.bmp","namala","Left","39","2","8","2","S","J","32"
"","","approach-retreat","181","1919065","0.0-181.0","","","1-2","7759","39","1","Testing","Stims/Figures/94-J-0-2.bmp","namala","Left","39","2","9","2","S","J","33"
"","","approach-retreat","182","1929337","0.0-182.0","","","1-2","8759","38","1","Testing","Stims/Figures/139-J-0-2.bmp","namala","Down","38","2","10","2","S","J","34"
"","","approach-retreat","183","1967652","0.0-183.0","","","1-2","36801","37","1","Testing","Stims/Figures/7-J-10-4.bmp","namala","Right","37","2","11","2","S","J","35"
"","","approach-retreat","184","1977897","0.0-184.0","","","1-2","8731","40","1","Testing","Stims/Figures/93-C-30-1.bmp","papata","Down","40","2","12","2","P","J","36"
"","","approach-retreat","185","1984629","0.0-185.0","","","1-2","5218","38","1","Testing","Stims/Figures/85-J-0-2.bmp","namala","Down","38","2","13","2","S","J","37"
"","","approach-retreat","186","1991272","0.0-186.0","","","1-2","5130","37","1","Testing","Stims/Figures/128-C-30-3.bmp","papata","Left","37","2","14","2","P","J","38"
"","","approach-retreat","187","1998157","0.0-187.0","","","1-2","5373","39","1","Testing","Stims/Figures/100-C-30-3.bmp","papata","Right","39","2","15","2","P","J","39"
"","","approach-retreat","188","2004718","0.0-188.0","","","1-2","5047","40","0","Testing","Stims/Figures/87-J-10-4.bmp","namala","Down","38","2","16","2","S","J","40"
"","","approach-retreat","189","2013366","0.0-189.0","","","1-2","7136","38","0","Testing","Stims/Figures/111-J-10-3.bmp","namala","Up","40","2","17","2","S","J","41"
"","","approach-retreat","190","2099940","0.0-190.0","","","1-2","85062","39","1","Testing","Stims/Figures/85-C-20-2.bmp","papata","Right","39","2","18","2","P","J","42"
"","","approach-retreat","191","2106095","0.0-191.0","","","1-2","4642","38","1","Testing","Stims/Figures/87-C-20-4.bmp","papata","Up","38","2","19","2","P","J","43"
"","","approach-retreat","192","2112440","0.0-192.0","","","1-2","4829","38","1","Testing","Stims/Figures/139-C-20-2.bmp","papata","Up","38","2","20","2","P","J","44"
"","","approach-retreat","193","2118714","0.0-193.0","","","1-2","4761","40","1","Testing","Stims/Figures/93-J-0-1.bmp","namala","Up","40","2","21","2","S","J","45"
"","","approach-retreat","194","2128452","0.0-194.0","","","1-2","8224","40","1","Testing","Stims/Figures/86-C-30-1.bmp","papata","Down","40","2","22","2","P","J","46"
"","","approach-retreat","195","2134498","0.0-195.0","","","1-2","4534","40","0","Testing","Stims/Figures/74-J-10-4.bmp","namala","Down","38","2","23","2","S","J","47"
"","","approach-retreat","196","2156787","0.0-196.0","","","1-2","20776","39","1","Testing","Stims/Figures/128-J-10-3.bmp","namala","Left","39","2","24","2","S","J","48"
"","","approach-retreat","197","2166719","0.0-197.0","","","1-2","8419","40","1","Testing","Stims/Figures/86-C-30-1.bmp","papata","Down","40","3","1","2","P","J","49"
"","","approach-retreat","198","2295524","0.0-198.0","","","1-2","127291","40","1","Testing","Stims/Figures/128-J-10-3.bmp","namala","Up","40","3","2","2","S","J","50"
"","","approach-retreat","199","2308048","0.0-199.0","","","1-2","11010","39","1","Testing","Stims/Figures/94-J-0-2.bmp","namala","Left","39","3","3","2","S","J","51"
"","","approach-retreat","200","2314285","0.0-200.0","","","1-2","4723","40","1","Testing","Stims/Figures/100-C-30-3.bmp","papata","Down","40","3","4","2","P","J","52"
"","","approach-retreat","201","2320998","0.0-201.0","","","1-2","5200","40","1","Testing","Stims/Figures/93-J-0-1.bmp","namala","Up","40","3","5","2","S","J","53"
"","","approach-retreat","202","2336323","0.0-202.0","","","1-2","13810","39","1","Testing","Stims/Figures/74-C-20-4.bmp","papata","Right","39","3","6","2","P","J","54"
"","","approach-retreat","203","2342472","0.0-203.0","","","1-2","4638","39","1","Testing","Stims/Figures/85-C-20-2.bmp","papata","Right","39","3","7","2","P","J","55"
"","","approach-retreat","204","2350191","0.0-204.0","","","1-2","6206","37","1","Testing","Stims/Figures/111-C-30-3.bmp","papata","Left","37","3","8","2","P","J","56"
"","","approach-retreat","205","2357172","0.0-205.0","","","1-2","5466","39","1","Testing","Stims/Figures/87-C-20-4.bmp","papata","Right","39","3","9","2","P","J","57"
"","","approach-retreat","206","2364053","0.0-206.0","","","1-2","5371","38","1","Testing","Stims/Figures/86-J-0-1.bmp","namala","Down","38","3","10","2","S","J","58"
"","","approach-retreat","207","2381924","0.0-207.0","","","1-2","16357","39","1","Testing","Stims/Figures/85-J-0-2.bmp","namala","Left","39","3","11","2","S","J","59"
"","","approach-retreat","208","2395783","0.0-208.0","","","1-2","12345","39","1","Testing","Stims/Figures/93-C-30-1.bmp","papata","Right","39","3","12","2","P","J","60"
"","","approach-retreat","209","2414790","0.0-209.0","","","1-2","17493","40","1","Testing","Stims/Figures/7-J-10-4.bmp","namala","Up","40","3","13","2","S","J","61"
"","","approach-retreat","210","2421887","0.0-210.0","","","1-2","5584","39","1","Testing","Stims/Figures/71-J-0-1.bmp","namala","Left","39","3","14","2","S","J","62"
"","","approach-retreat","211","2435091","0.0-211.0","","","1-2","11692","40","1","Testing","Stims/Figures/94-C-20-2.bmp","papata","Down","40","3","15","2","P","J","63"
"","","approach-retreat","212","2442940","0.0-212.0","","","1-2","6334","38","0","Testing","Stims/Figures/74-J-10-4.bmp","namala","Up","40","3","16","2","S","J","64"
"","","approach-retreat","213","2473963","0.0-213.0","","","1-2","29509","40","1","Testing","Stims/Figures/139-C-20-2.bmp","papata","Down","40","3","17","2","P","J","65"
"","","approach-retreat","214","2481677","0.0-214.0","","","1-2","6201","37","0","Testing","Stims/Figures/71-C-30-1.bmp","papata","Right","39","3","18","2","P","J","66"
"","","approach-retreat","215","2501631","0.0-215.0","","","1-2","18437","37","0","Testing","Stims/Figures/100-J-10-3.bmp","namala","Left","39","3","19","2","S","J","67"
"","","approach-retreat","216","2508001","0.0-216.0","","","1-2","4857","38","0","Testing","Stims/Figures/111-J-10-3.bmp","namala","Up","40","3","20","2","S","J","68"
"","","approach-retreat","217","2541054","0.0-217.0","","","1-2","31538","37","1","Testing","Stims/Figures/87-J-10-4.bmp","namala","Right","37","3","21","2","S","J","69"
"","","approach-retreat","218","2566970","0.0-218.0","","","1-2","24405","38","1","Testing","Stims/Figures/128-C-30-3.bmp","papata","Up","38","3","22","2","P","J","70"
"","","approach-retreat","219","2573953","0.0-219.0","","","1-2","5469","40","1","Testing","Stims/Figures/7-C-20-4.bmp","papata","Down","40","3","23","2","P","J","71"
"","","approach-retreat","220","2581945","0.0-220.0","","","1-2","6480","39","1","Testing","Stims/Figures/139-J-0-2.bmp","namala","Left","39","3","24","2","S","J","72"
"","","approach-retreat","221","2588833","0.0-221.0","","","1-2","5374","37","1","Testing","Stims/Figures/85-J-0-2.bmp","namala","Right","37","4","1","2","S","J","73"
"","","approach-retreat","222","2596022","0.0-222.0","","","1-2","5675","39","1","Testing","Stims/Figures/94-C-20-2.bmp","papata","Right","39","4","2","2","P","J","74"
"","","approach-retreat","223","2601990","0.0-223.0","","","1-2","4456","37","1","Testing","Stims/Figures/87-J-10-4.bmp","namala","Right","37","4","3","2","S","J","75"
"","","approach-retreat","224","2608631","0.0-224.0","","","1-2","5128","37","1","Testing","Stims/Figures/94-J-0-2.bmp","namala","Right","37","4","4","2","S","J","76"
"","","approach-retreat","225","2615054","0.0-225.0","","","1-2","4910","37","1","Testing","Stims/Figures/93-J-0-1.bmp","namala","Right","37","4","5","2","S","J","77"
"","","approach-retreat","226","2622763","0.0-226.0","","","1-2","6196","37","1","Testing","Stims/Figures/111-C-30-3.bmp","papata","Left","37","4","6","2","P","J","78"
"","","approach-retreat","227","2643203","0.0-227.0","","","1-2","18927","39","1","Testing","Stims/Figures/71-J-0-1.bmp","namala","Left","39","4","7","2","S","J","79"
"","","approach-retreat","228","2656946","0.0-228.0","","","1-2","12229","37","1","Testing","Stims/Figures/139-C-20-2.bmp","papata","Left","37","4","8","2","P","J","80"
"","","approach-retreat","229","2664815","0.0-229.0","","","1-2","6356","38","0","Testing","Stims/Figures/7-J-10-4.bmp","namala","Up","40","4","9","2","S","J","81"
"","","approach-retreat","230","2680709","0.0-230.0","","","1-2","14380","40","0","Testing","Stims/Figures/100-J-10-3.bmp","namala","Down","38","4","10","2","S","J","82"
"","","approach-retreat","231","2690003","0.0-231.0","","","1-2","7782","40","1","Testing","Stims/Figures/93-C-30-1.bmp","papata","Down","40","4","11","2","P","J","83"
"","","approach-retreat","232","2724619","0.0-232.0","","","1-2","33102","40","1","Testing","Stims/Figures/7-C-20-4.bmp","papata","Down","40","4","12","2","P","J","84"
"","","approach-retreat","233","2730889","0.0-233.0","","","1-2","4754","38","1","Testing","Stims/Figures/111-J-10-3.bmp","namala","Down","38","4","13","2","S","J","85"
"","","approach-retreat","234","2737191","0.0-234.0","","","1-2","4788","38","1","Testing","Stims/Figures/85-C-20-2.bmp","papata","Up","38","4","14","2","P","J","86"
"","","approach-retreat","235","2749198","0.0-235.0","","","1-2","10493","38","1","Testing","Stims/Figures/71-C-30-1.bmp","papata","Up","38","4","15","2","P","J","87"
"","","approach-retreat","236","2758443","0.0-236.0","","","1-2","7733","37","0","Testing","Stims/Figures/74-J-10-4.bmp","namala","Left","39","4","16","2","S","J","88"
"","","approach-retreat","237","2767515","0.0-237.0","","","1-2","7559","38","1","Testing","Stims/Figures/86-J-0-1.bmp","namala","Down","38","4","17","2","S","J","89"
"","","approach-retreat","238","2776857","0.0-238.0","","","1-2","7828","38","1","Testing","Stims/Figures/128-C-30-3.bmp","papata","Up","38","4","18","2","P","J","90"
"","","approach-retreat","239","2785274","0.0-239.0","","","1-2","6903","37","1","Testing","Stims/Figures/74-C-20-4.bmp","papata","Left","37","4","19","2","P","J","91"
"","","approach-retreat","240","2798974","0.0-240.0","","","1-2","12180","40","1","Testing","Stims/Figures/139-J-0-2.bmp","namala","Up","40","4","20","2","S","J","92"
"","","approach-retreat","241","2810058","0.0-241.0","","","1-2","9570","38","0","Testing","Stims/Figures/87-C-20-4.bmp","papata","Down","40","4","21","2","P","J","93"
"","","approach-retreat","242","2820705","0.0-242.0","","","1-2","9135","39","1","Testing","Stims/Figures/100-C-30-3.bmp","papata","Right","39","4","22","2","P","J","94"
"","","approach-retreat","243","2827020","0.0-243.0","","","1-2","4801","37","0","Testing","Stims/Figures/128-J-10-3.bmp","namala","Left","39","4","23","2","S","J","95"
"","","approach-retreat","244","2833829","0.0-244.0","","","1-2","5297","38","1","Testing","Stims/Figures/86-C-30-1.bmp","papata","Up","38","4","24","2","P","J","96"
"41604","","survey-text","245","2875445","0.0-245.0","","{""Q0"":""1131/2018""}","","","","","","","","","","","","","","",""
