"rt","key_press","trial_type","trial_index","time_elapsed","internal_node_id","view_history","responses","Id","Rt","ResKeyCode","ResCorr","TrialType2","Image","Label","Location","CorrectResponse","Block","BlockTrial","Condition","LabelType","Subcondition","trialNum"
"48033","32","text","0","48049","0.0-0.0-0.0","","","","","","","","","","","","","","","","",""
"234230","","instructions","1","282285","0.0-1.0","[{""page_index"":0,""viewing_time"":234230}]","","","","","","","","","","","","","","","",""
"125330","","survey-multi-choice","2","407672","0.0-2.0","","{""Q0"":""Da"",""Q1"":""Da"",""Q2"":""Da"",""Q3"":""Da"",""Q4"":""Da"",""Q5"":""Da""}","","","","","","","","","","","","","","",""
"","","bio","3","421529","0.0-3.0","","{""age"":""37"",""gender"":""f"",""specify"":""""}","","","","","","","","","","","","","","",""
"","","approach-retreat","4","438571","0.0-4.0","","","2-5","15520","40","1","Training","Stims/Figures/27-C-30-1.bmp","pa:pa:ta","Up","40","1","1","5","P","C","1"
"","","approach-retreat","5","445925","0.0-5.0","","","2-5","5840","39","0","Training","Stims/Figures/118-J-0-2.bmp","ma:lala","Left","37","1","2","5","S","C","2"
"","","approach-retreat","6","453716","0.0-6.0","","","2-5","6278","40","0","Training","Stims/Figures/139-J-0-2.bmp","mala:la","Up","38","1","3","5","S","C","3"
"","","approach-retreat","7","459805","0.0-7.0","","","2-5","4578","39","1","Training","Stims/Figures/118-C-20-2.bmp","pakata","Left","39","1","4","5","P","C","4"
"","","approach-retreat","8","468862","0.0-8.0","","","2-5","7544","39","0","Training","Stims/Figures/102-C-20-4.bmp","pa:ka:ta","Right","37","1","5","5","P","C","5"
"","","approach-retreat","9","477282","0.0-9.0","","","2-5","6907","39","1","Training","Stims/Figures/27-J-0-1.bmp","na:la:la","Right","39","1","6","5","S","C","6"
"","","approach-retreat","10","485003","0.0-10.0","","","2-5","6209","37","0","Training","Stims/Figures/100-J-10-3.bmp","ma:la:la","Right","39","1","7","5","S","C","7"
"","","approach-retreat","11","491138","0.0-11.0","","","2-5","4620","38","0","Training","Stims/Figures/128-J-10-3.bmp","namala","Down","40","1","8","5","S","C","8"
"","","approach-retreat","12","498122","0.0-12.0","","","2-5","5469","37","1","Training","Stims/Figures/57-J-0-1.bmp","na:la:na","Left","37","1","9","5","S","C","9"
"","","approach-retreat","13","505164","0.0-13.0","","","2-5","5529","40","0","Training","Stims/Figures/7-J-10-4.bmp","namana","Up","38","1","10","5","S","C","10"
"","","approach-retreat","14","512690","0.0-14.0","","","2-5","6013","40","1","Training","Stims/Figures/102-J-10-4.bmp","mama:na","Down","40","1","11","5","S","C","11"
"","","approach-retreat","15","519419","0.0-15.0","","","2-5","5218","38","1","Training","Stims/Figures/100-C-30-3.bmp","taka:ta","Down","38","1","12","5","P","C","12"
"","","approach-retreat","16","526573","0.0-16.0","","","2-5","5642","39","0","Training","Stims/Figures/139-C-20-2.bmp","papa:ka","Right","37","1","13","5","P","C","13"
"","","approach-retreat","17","532728","0.0-17.0","","","2-5","4643","38","1","Training","Stims/Figures/128-C-30-3.bmp","paka:ta","Down","38","1","14","5","P","C","14"
"","","approach-retreat","18","541108","0.0-18.0","","","2-5","6868","37","0","Training","Stims/Figures/57-C-30-1.bmp","pa:kaka","Left","39","1","15","5","P","C","15"
"","","approach-retreat","19","547516","0.0-19.0","","","2-5","4895","40","1","Training","Stims/Figures/7-C-20-4.bmp","tapaka","Up","40","1","16","5","P","C","16"
"","","approach-retreat","20","554137","0.0-20.0","","","2-5","5108","39","0","Training","Stims/Figures/100-J-10-3.bmp","ma:la:la","Left","37","2","1","5","S","C","17"
"","","approach-retreat","21","560549","0.0-21.0","","","2-5","4899","40","1","Training","Stims/Figures/100-C-30-3.bmp","taka:ta","Up","40","2","2","5","P","C","18"
"","","approach-retreat","22","567639","0.0-22.0","","","2-5","5577","39","0","Training","Stims/Figures/27-C-30-1.bmp","pa:pa:ta","Right","37","2","3","5","P","C","19"
"","","approach-retreat","23","573607","0.0-23.0","","","2-5","4455","40","0","Training","Stims/Figures/7-J-10-4.bmp","namana","Up","38","2","4","5","S","C","20"
"","","approach-retreat","24","579748","0.0-24.0","","","2-5","4630","40","1","Training","Stims/Figures/7-C-20-4.bmp","tapaka","Up","40","2","5","5","P","C","21"
"","","approach-retreat","25","585888","0.0-25.0","","","2-5","4626","39","1","Training","Stims/Figures/139-C-20-2.bmp","papa:ka","Left","39","2","6","5","P","C","22"
"","","approach-retreat","26","591861","0.0-26.0","","","2-5","4461","37","1","Training","Stims/Figures/102-C-20-4.bmp","pa:ka:ta","Right","37","2","7","5","P","C","23"
"","","approach-retreat","27","598439","0.0-27.0","","","2-5","5065","39","1","Training","Stims/Figures/139-J-0-2.bmp","mala:la","Right","39","2","8","5","S","C","24"
"","","approach-retreat","28","604204","0.0-28.0","","","2-5","4253","38","1","Training","Stims/Figures/118-C-20-2.bmp","pakata","Down","38","2","9","5","P","C","25"
"","","approach-retreat","29","610004","0.0-29.0","","","2-5","4288","38","1","Training","Stims/Figures/57-C-30-1.bmp","pa:kaka","Down","38","2","10","5","P","C","26"
"","","approach-retreat","30","615887","0.0-30.0","","","2-5","4369","37","0","Training","Stims/Figures/27-J-0-1.bmp","na:la:la","Right","39","2","11","5","S","C","27"
"","","approach-retreat","31","621340","0.0-31.0","","","2-5","3941","40","0","Training","Stims/Figures/128-J-10-3.bmp","namala","Up","38","2","12","5","S","C","28"
"","","approach-retreat","32","627478","0.0-32.0","","","2-5","4627","39","1","Training","Stims/Figures/128-C-30-3.bmp","paka:ta","Left","39","2","13","5","P","C","29"
"","","approach-retreat","33","633347","0.0-33.0","","","2-5","4355","37","1","Training","Stims/Figures/102-J-10-4.bmp","mama:na","Left","37","2","14","5","S","C","30"
"","","approach-retreat","34","640508","0.0-34.0","","","2-5","5650","40","1","Training","Stims/Figures/118-J-0-2.bmp","ma:lala","Down","40","2","15","5","S","C","31"
"","","approach-retreat","35","646608","0.0-35.0","","","2-5","4588","40","1","Training","Stims/Figures/57-J-0-1.bmp","na:la:na","Down","40","2","16","5","S","C","32"
"","","approach-retreat","36","653184","0.0-36.0","","","2-5","5065","40","0","Training","Stims/Figures/57-C-30-1.bmp","pa:kaka","Down","38","3","1","5","P","C","33"
"","","approach-retreat","37","659186","0.0-37.0","","","2-5","4489","40","0","Training","Stims/Figures/57-J-0-1.bmp","na:la:na","Up","38","3","2","5","S","C","34"
"","","approach-retreat","38","665130","0.0-38.0","","","2-5","4430","40","0","Training","Stims/Figures/7-J-10-4.bmp","namana","Up","38","3","3","5","S","C","35"
"","","approach-retreat","39","671094","0.0-39.0","","","2-5","4452","40","0","Training","Stims/Figures/27-J-0-1.bmp","na:la:la","Up","38","3","4","5","S","C","36"
"","","approach-retreat","40","677549","0.0-40.0","","","2-5","4940","37","1","Training","Stims/Figures/27-C-30-1.bmp","pa:pa:ta","Right","37","3","5","5","P","C","37"
"","","approach-retreat","41","683347","0.0-41.0","","","2-5","4285","39","0","Training","Stims/Figures/100-J-10-3.bmp","ma:la:la","Left","37","3","6","5","S","C","38"
"","","approach-retreat","42","690843","0.0-42.0","","","2-5","5985","38","1","Training","Stims/Figures/139-C-20-2.bmp","papa:ka","Down","38","3","7","5","P","C","39"
"","","approach-retreat","43","696734","0.0-43.0","","","2-5","4379","40","1","Training","Stims/Figures/118-C-20-2.bmp","pakata","Up","40","3","8","5","P","C","40"
"","","approach-retreat","44","702578","0.0-44.0","","","2-5","4333","37","1","Training","Stims/Figures/118-J-0-2.bmp","ma:lala","Left","37","3","9","5","S","C","41"
"","","approach-retreat","45","708526","0.0-45.0","","","2-5","4437","38","1","Training","Stims/Figures/100-C-30-3.bmp","taka:ta","Down","38","3","10","5","P","C","42"
"","","approach-retreat","46","714641","0.0-46.0","","","2-5","4603","39","0","Training","Stims/Figures/7-C-20-4.bmp","tapaka","Right","37","3","11","5","P","C","43"
"","","approach-retreat","47","720546","0.0-47.0","","","2-5","4395","39","0","Training","Stims/Figures/139-J-0-2.bmp","mala:la","Left","37","3","12","5","S","C","44"
"","","approach-retreat","48","726590","0.0-48.0","","","2-5","4531","37","0","Training","Stims/Figures/102-J-10-4.bmp","mama:na","Right","39","3","13","5","S","C","45"
"","","approach-retreat","49","732591","0.0-49.0","","","2-5","4490","39","1","Training","Stims/Figures/102-C-20-4.bmp","pa:ka:ta","Left","39","3","14","5","P","C","46"
"","","approach-retreat","50","738272","0.0-50.0","","","2-5","4168","38","1","Training","Stims/Figures/128-C-30-3.bmp","paka:ta","Down","38","3","15","5","P","C","47"
"","","approach-retreat","51","744720","0.0-51.0","","","2-5","4934","39","1","Training","Stims/Figures/128-J-10-3.bmp","namala","Right","39","3","16","5","S","C","48"
"","","approach-retreat","52","750950","0.0-52.0","","","2-5","4718","40","1","Training","Stims/Figures/7-C-20-4.bmp","tapaka","Up","40","4","1","5","P","C","49"
"","","approach-retreat","53","756622","0.0-53.0","","","2-5","4160","39","1","Training","Stims/Figures/27-C-30-1.bmp","pa:pa:ta","Left","39","4","2","5","P","C","50"
"","","approach-retreat","54","762373","0.0-54.0","","","2-5","4238","37","1","Training","Stims/Figures/118-J-0-2.bmp","ma:lala","Left","37","4","3","5","S","C","51"
"","","approach-retreat","55","768422","0.0-55.0","","","2-5","4536","38","1","Training","Stims/Figures/100-C-30-3.bmp","taka:ta","Down","38","4","4","5","P","C","52"
"","","approach-retreat","56","774942","0.0-56.0","","","2-5","5007","38","1","Training","Stims/Figures/139-J-0-2.bmp","mala:la","Up","38","4","5","5","S","C","53"
"","","approach-retreat","57","780926","0.0-57.0","","","2-5","4472","40","0","Training","Stims/Figures/128-C-30-3.bmp","paka:ta","Down","38","4","6","5","P","C","54"
"","","approach-retreat","58","787549","0.0-58.0","","","2-5","5106","37","0","Training","Stims/Figures/57-J-0-1.bmp","na:la:na","Right","39","4","7","5","S","C","55"
"","","approach-retreat","59","793511","0.0-59.0","","","2-5","4451","37","1","Training","Stims/Figures/118-C-20-2.bmp","pakata","Right","37","4","8","5","P","C","56"
"","","approach-retreat","60","799161","0.0-60.0","","","2-5","4137","40","1","Training","Stims/Figures/128-J-10-3.bmp","namala","Down","40","4","9","5","S","C","57"
"","","approach-retreat","61","804972","0.0-61.0","","","2-5","4300","38","1","Training","Stims/Figures/102-C-20-4.bmp","pa:ka:ta","Down","38","4","10","5","P","C","58"
"","","approach-retreat","62","811162","0.0-62.0","","","2-5","4678","39","1","Training","Stims/Figures/57-C-30-1.bmp","pa:kaka","Left","39","4","11","5","P","C","59"
"","","approach-retreat","63","817140","0.0-63.0","","","2-5","4465","39","1","Training","Stims/Figures/100-J-10-3.bmp","ma:la:la","Right","39","4","12","5","S","C","60"
"","","approach-retreat","64","822961","0.0-64.0","","","2-5","4307","38","1","Training","Stims/Figures/27-J-0-1.bmp","na:la:la","Up","38","4","13","5","S","C","61"
"","","approach-retreat","65","830576","0.0-65.0","","","2-5","6103","38","1","Training","Stims/Figures/102-J-10-4.bmp","mama:na","Up","38","4","14","5","S","C","62"
"","","approach-retreat","66","836411","0.0-66.0","","","2-5","4323","37","1","Training","Stims/Figures/139-C-20-2.bmp","papa:ka","Right","37","4","15","5","P","C","63"
"","","approach-retreat","67","842804","0.0-67.0","","","2-5","4880","37","1","Training","Stims/Figures/7-J-10-4.bmp","namana","Left","37","4","16","5","S","C","64"
"","","approach-retreat","68","848661","0.0-68.0","","","2-5","4347","40","1","Training","Stims/Figures/7-C-20-4.bmp","tapaka","Up","40","5","1","5","P","C","65"
"","","approach-retreat","69","855043","0.0-69.0","","","2-5","4871","38","1","Training","Stims/Figures/27-J-0-1.bmp","na:la:la","Up","38","5","2","5","S","C","66"
"","","approach-retreat","70","860952","0.0-70.0","","","2-5","4397","38","1","Training","Stims/Figures/100-C-30-3.bmp","taka:ta","Down","38","5","3","5","P","C","67"
"","","approach-retreat","71","866975","0.0-71.0","","","2-5","4511","39","1","Training","Stims/Figures/7-J-10-4.bmp","namana","Right","39","5","4","5","S","C","68"
"","","approach-retreat","72","872913","0.0-72.0","","","2-5","4426","38","1","Training","Stims/Figures/139-J-0-2.bmp","mala:la","Up","38","5","5","5","S","C","69"
"","","approach-retreat","73","878773","0.0-73.0","","","2-5","4349","39","1","Training","Stims/Figures/118-C-20-2.bmp","pakata","Left","39","5","6","5","P","C","70"
"","","approach-retreat","74","884986","0.0-74.0","","","2-5","4700","39","1","Training","Stims/Figures/128-J-10-3.bmp","namala","Right","39","5","7","5","S","C","71"
"","","approach-retreat","75","890896","0.0-75.0","","","2-5","4398","37","1","Training","Stims/Figures/128-C-30-3.bmp","paka:ta","Right","37","5","8","5","P","C","72"
"","","approach-retreat","76","897509","0.0-76.0","","","2-5","5100","38","1","Training","Stims/Figures/57-J-0-1.bmp","na:la:na","Up","38","5","9","5","S","C","73"
"","","approach-retreat","77","903421","0.0-77.0","","","2-5","4400","40","1","Training","Stims/Figures/118-J-0-2.bmp","ma:lala","Down","40","5","10","5","S","C","74"
"","","approach-retreat","78","910680","0.0-78.0","","","2-5","5746","37","1","Training","Stims/Figures/102-J-10-4.bmp","mama:na","Left","37","5","11","5","S","C","75"
"","","approach-retreat","79","916641","0.0-79.0","","","2-5","4448","40","0","Training","Stims/Figures/102-C-20-4.bmp","pa:ka:ta","Down","38","5","12","5","P","C","76"
"","","approach-retreat","80","922289","0.0-80.0","","","2-5","4132","37","0","Training","Stims/Figures/27-C-30-1.bmp","pa:pa:ta","Left","39","5","13","5","P","C","77"
"","","approach-retreat","81","928012","0.0-81.0","","","2-5","4210","39","1","Training","Stims/Figures/139-C-20-2.bmp","papa:ka","Left","39","5","14","5","P","C","78"
"","","approach-retreat","82","933801","0.0-82.0","","","2-5","4276","40","1","Training","Stims/Figures/100-J-10-3.bmp","ma:la:la","Down","40","5","15","5","S","C","79"
"","","approach-retreat","83","940107","0.0-83.0","","","2-5","4795","37","1","Training","Stims/Figures/57-C-30-1.bmp","pa:kaka","Right","37","5","16","5","P","C","80"
"","","approach-retreat","84","946157","0.0-84.0","","","2-5","4538","38","1","Training","Stims/Figures/57-C-30-1.bmp","pa:kaka","Down","38","6","1","5","P","C","81"
"","","approach-retreat","85","951955","0.0-85.0","","","2-5","4285","39","1","Training","Stims/Figures/102-J-10-4.bmp","mama:na","Right","39","6","2","5","S","C","82"
"","","approach-retreat","86","959039","0.0-86.0","","","2-5","5572","37","1","Training","Stims/Figures/7-C-20-4.bmp","tapaka","Right","37","6","3","5","P","C","83"
"","","approach-retreat","87","965151","0.0-87.0","","","2-5","4598","37","1","Training","Stims/Figures/7-J-10-4.bmp","namana","Left","37","6","4","5","S","C","84"
"","","approach-retreat","88","972204","0.0-88.0","","","2-5","5541","40","1","Training","Stims/Figures/118-J-0-2.bmp","ma:lala","Down","40","6","5","5","S","C","85"
"","","approach-retreat","89","978090","0.0-89.0","","","2-5","4374","38","1","Training","Stims/Figures/118-C-20-2.bmp","pakata","Down","38","6","6","5","P","C","86"
"","","approach-retreat","90","983868","0.0-90.0","","","2-5","4266","39","1","Training","Stims/Figures/128-C-30-3.bmp","paka:ta","Left","39","6","7","5","P","C","87"
"","","approach-retreat","91","990727","0.0-91.0","","","2-5","5348","39","1","Training","Stims/Figures/27-J-0-1.bmp","na:la:la","Right","39","6","8","5","S","C","88"
"","","approach-retreat","92","997033","0.0-92.0","","","2-5","4792","40","1","Training","Stims/Figures/139-J-0-2.bmp","mala:la","Down","40","6","9","5","S","C","89"
"","","approach-retreat","93","1003063","0.0-93.0","","","2-5","4518","40","1","Training","Stims/Figures/139-C-20-2.bmp","papa:ka","Up","40","6","10","5","P","C","90"
"","","approach-retreat","94","1009265","0.0-94.0","","","2-5","4688","38","1","Training","Stims/Figures/128-J-10-3.bmp","namala","Up","38","6","11","5","S","C","91"
"","","approach-retreat","95","1015092","0.0-95.0","","","2-5","4316","39","1","Training","Stims/Figures/27-C-30-1.bmp","pa:pa:ta","Left","39","6","12","5","P","C","92"
"","","approach-retreat","96","1021885","0.0-96.0","","","2-5","5282","40","1","Training","Stims/Figures/100-C-30-3.bmp","taka:ta","Up","40","6","13","5","P","C","93"
"","","approach-retreat","97","1027635","0.0-97.0","","","2-5","4239","39","1","Training","Stims/Figures/102-C-20-4.bmp","pa:ka:ta","Left","39","6","14","5","P","C","94"
"","","approach-retreat","98","1034133","0.0-98.0","","","2-5","4987","39","1","Training","Stims/Figures/100-J-10-3.bmp","ma:la:la","Right","39","6","15","5","S","C","95"
"","","approach-retreat","99","1040450","0.0-99.0","","","2-5","4805","38","1","Training","Stims/Figures/57-J-0-1.bmp","na:la:na","Up","38","6","16","5","S","C","96"
"","","approach-retreat","100","1047254","0.0-100.0","","","2-5","5292","38","1","Training","Stims/Figures/139-J-0-2.bmp","mala:la","Up","38","7","1","5","S","C","97"
"","","approach-retreat","101","1054161","0.0-101.0","","","2-5","5395","38","1","Training","Stims/Figures/57-J-0-1.bmp","na:la:na","Up","38","7","2","5","S","C","98"
"","","approach-retreat","102","1060061","0.0-102.0","","","2-5","4388","38","1","Training","Stims/Figures/118-C-20-2.bmp","pakata","Down","38","7","3","5","P","C","99"
"","","approach-retreat","103","1066197","0.0-103.0","","","2-5","4625","37","1","Training","Stims/Figures/128-J-10-3.bmp","namala","Left","37","7","4","5","S","C","100"
"","","approach-retreat","104","1072277","0.0-104.0","","","2-5","4566","39","1","Training","Stims/Figures/57-C-30-1.bmp","pa:kaka","Left","39","7","5","5","P","C","101"
"","","approach-retreat","105","1078344","0.0-105.0","","","2-5","4557","39","1","Training","Stims/Figures/128-C-30-3.bmp","paka:ta","Left","39","7","6","5","P","C","102"
"","","approach-retreat","106","1084304","0.0-106.0","","","2-5","4449","40","1","Training","Stims/Figures/7-C-20-4.bmp","tapaka","Up","40","7","7","5","P","C","103"
"","","approach-retreat","107","1090304","0.0-107.0","","","2-5","4487","38","1","Training","Stims/Figures/118-J-0-2.bmp","ma:lala","Up","38","7","8","5","S","C","104"
"","","approach-retreat","108","1097831","0.0-108.0","","","2-5","6015","37","1","Training","Stims/Figures/102-C-20-4.bmp","pa:ka:ta","Right","37","7","9","5","P","C","105"
"","","approach-retreat","109","1103920","0.0-109.0","","","2-5","4575","39","0","Training","Stims/Figures/139-C-20-2.bmp","papa:ka","Right","37","7","10","5","P","C","106"
"","","approach-retreat","110","1110114","0.0-110.0","","","2-5","4682","38","1","Training","Stims/Figures/100-C-30-3.bmp","taka:ta","Down","38","7","11","5","P","C","107"
"","","approach-retreat","111","1116617","0.0-111.0","","","2-5","4991","39","1","Training","Stims/Figures/7-J-10-4.bmp","namana","Right","39","7","12","5","S","C","108"
"","","approach-retreat","112","1122990","0.0-112.0","","","2-5","4862","40","1","Training","Stims/Figures/102-J-10-4.bmp","mama:na","Down","40","7","13","5","S","C","109"
"","","approach-retreat","113","1129264","0.0-113.0","","","2-5","4762","39","1","Training","Stims/Figures/100-J-10-3.bmp","ma:la:la","Right","39","7","14","5","S","C","110"
"","","approach-retreat","114","1135598","0.0-114.0","","","2-5","4823","40","1","Training","Stims/Figures/27-J-0-1.bmp","na:la:la","Down","40","7","15","5","S","C","111"
"","","approach-retreat","115","1141504","0.0-115.0","","","2-5","4391","39","1","Training","Stims/Figures/27-C-30-1.bmp","pa:pa:ta","Left","39","7","16","5","P","C","112"
"","","approach-retreat","116","1148855","0.0-116.0","","","2-5","5840","38","1","Training","Stims/Figures/139-J-0-2.bmp","mala:la","Up","38","8","1","5","S","C","113"
"","","approach-retreat","117","1155060","0.0-117.0","","","2-5","4691","38","1","Training","Stims/Figures/118-J-0-2.bmp","ma:lala","Up","38","8","2","5","S","C","114"
"","","approach-retreat","118","1161051","0.0-118.0","","","2-5","4479","38","1","Training","Stims/Figures/128-C-30-3.bmp","paka:ta","Down","38","8","3","5","P","C","115"
"","","approach-retreat","119","1166880","0.0-119.0","","","2-5","4318","37","1","Training","Stims/Figures/7-C-20-4.bmp","tapaka","Right","37","8","4","5","P","C","116"
"","","approach-retreat","120","1173464","0.0-120.0","","","2-5","5071","39","1","Training","Stims/Figures/57-J-0-1.bmp","na:la:na","Right","39","8","5","5","S","C","117"
"","","approach-retreat","121","1180094","0.0-121.0","","","2-5","5117","39","1","Training","Stims/Figures/139-C-20-2.bmp","papa:ka","Left","39","8","6","5","P","C","118"
"","","approach-retreat","122","1186091","0.0-122.0","","","2-5","4484","38","1","Training","Stims/Figures/128-J-10-3.bmp","namala","Up","38","8","7","5","S","C","119"
"","","approach-retreat","123","1193189","0.0-123.0","","","2-5","5588","37","1","Training","Stims/Figures/100-C-30-3.bmp","taka:ta","Right","37","8","8","5","P","C","120"
"","","approach-retreat","124","1199438","0.0-124.0","","","2-5","4736","40","1","Training","Stims/Figures/102-J-10-4.bmp","mama:na","Down","40","8","9","5","S","C","121"
"","","approach-retreat","125","1206363","0.0-125.0","","","2-5","5413","39","1","Training","Stims/Figures/27-C-30-1.bmp","pa:pa:ta","Left","39","8","10","5","P","C","122"
"","","approach-retreat","126","1212753","0.0-126.0","","","2-5","4878","39","1","Training","Stims/Figures/7-J-10-4.bmp","namana","Right","39","8","11","5","S","C","123"
"","","approach-retreat","127","1219038","0.0-127.0","","","2-5","4772","38","1","Training","Stims/Figures/57-C-30-1.bmp","pa:kaka","Down","38","8","12","5","P","C","124"
"","","approach-retreat","128","1225432","0.0-128.0","","","2-5","4881","40","1","Training","Stims/Figures/100-J-10-3.bmp","ma:la:la","Down","40","8","13","5","S","C","125"
"","","approach-retreat","129","1231527","0.0-129.0","","","2-5","4584","40","1","Training","Stims/Figures/118-C-20-2.bmp","pakata","Up","40","8","14","5","P","C","126"
"","","approach-retreat","130","1237474","0.0-130.0","","","2-5","4435","39","1","Training","Stims/Figures/102-C-20-4.bmp","pa:ka:ta","Left","39","8","15","5","P","C","127"
"","","approach-retreat","131","1243638","0.0-131.0","","","2-5","4653","37","1","Training","Stims/Figures/27-J-0-1.bmp","na:la:la","Left","37","8","16","5","S","C","128"
"","","approach-retreat","132","1249510","0.0-132.0","","","2-5","4358","38","1","Training","Stims/Figures/128-C-30-3.bmp","paka:ta","Down","38","9","1","5","P","C","129"
"","","approach-retreat","133","1255361","0.0-133.0","","","2-5","4339","37","1","Training","Stims/Figures/27-C-30-1.bmp","pa:pa:ta","Right","37","9","2","5","P","C","130"
"","","approach-retreat","134","1261312","0.0-134.0","","","2-5","4438","37","1","Training","Stims/Figures/139-J-0-2.bmp","mala:la","Left","37","9","3","5","S","C","131"
"","","approach-retreat","135","1267484","0.0-135.0","","","2-5","4660","39","1","Training","Stims/Figures/128-J-10-3.bmp","namala","Right","39","9","4","5","S","C","132"
"","","approach-retreat","136","1274336","0.0-136.0","","","2-5","5339","40","1","Training","Stims/Figures/57-J-0-1.bmp","na:la:na","Down","40","9","5","5","S","C","133"
"","","approach-retreat","137","1280655","0.0-137.0","","","2-5","4809","39","1","Training","Stims/Figures/102-J-10-4.bmp","mama:na","Right","39","9","6","5","S","C","134"
"","","approach-retreat","138","1287245","0.0-138.0","","","2-5","5078","37","1","Training","Stims/Figures/27-J-0-1.bmp","na:la:la","Left","37","9","7","5","S","C","135"
"","","approach-retreat","139","1294992","0.0-139.0","","","2-5","6236","38","1","Training","Stims/Figures/7-J-10-4.bmp","namana","Up","38","9","8","5","S","C","136"
"","","approach-retreat","140","1301203","0.0-140.0","","","2-5","4699","37","1","Training","Stims/Figures/118-C-20-2.bmp","pakata","Right","37","9","9","5","P","C","137"
"","","approach-retreat","141","1307124","0.0-141.0","","","2-5","4409","37","1","Training","Stims/Figures/118-J-0-2.bmp","ma:lala","Left","37","9","10","5","S","C","138"
"","","approach-retreat","142","1313195","0.0-142.0","","","2-5","4560","40","1","Training","Stims/Figures/139-C-20-2.bmp","papa:ka","Up","40","9","11","5","P","C","139"
"","","approach-retreat","143","1320025","0.0-143.0","","","2-5","5319","38","1","Training","Stims/Figures/100-C-30-3.bmp","taka:ta","Down","38","9","12","5","P","C","140"
"","","approach-retreat","144","1326585","0.0-144.0","","","2-5","5048","38","1","Training","Stims/Figures/100-J-10-3.bmp","ma:la:la","Up","38","9","13","5","S","C","141"
"","","approach-retreat","145","1332804","0.0-145.0","","","2-5","4707","39","1","Training","Stims/Figures/57-C-30-1.bmp","pa:kaka","Left","39","9","14","5","P","C","142"
"","","approach-retreat","146","1338705","0.0-146.0","","","2-5","4388","38","1","Training","Stims/Figures/102-C-20-4.bmp","pa:ka:ta","Down","38","9","15","5","P","C","143"
"","","approach-retreat","147","1344613","0.0-147.0","","","2-5","4396","40","1","Training","Stims/Figures/7-C-20-4.bmp","tapaka","Up","40","9","16","5","P","C","144"
"19862","","instructions","148","1364475","0.0-148.0","[{""page_index"":0,""viewing_time"":19862}]","","","","","","","","","","","","","","","",""
"","","approach-retreat","149","1379203","0.0-149.0","","","2-5","13218","38","1","Testing","Stims/Figures/144-C-30-3.bmp","tapata","Down","38","1","1","5","P","C","1"
"","","approach-retreat","150","1385809","0.0-150.0","","","2-5","5095","39","1","Testing","Stims/Figures/144-J-10-3.bmp","mamana","Right","39","1","2","5","S","C","2"
"","","approach-retreat","151","1395076","0.0-151.0","","","2-5","7758","40","1","Testing","Stims/Figures/27-C-30-1.bmp","pa:pa:ta","Up","40","1","3","5","P","C","3"
"","","approach-retreat","152","1402792","0.0-152.0","","","2-5","6207","38","0","Testing","Stims/Figures/27-J-0-1.bmp","na:la:la","Down","40","1","4","5","S","C","4"
"","","approach-retreat","153","1410504","0.0-153.0","","","2-5","6201","39","1","Testing","Stims/Figures/139-J-0-2.bmp","mala:la","Right","39","1","5","5","S","C","5"
"","","approach-retreat","154","1416619","0.0-154.0","","","2-5","4606","39","1","Testing","Stims/Figures/100-C-30-3.bmp","taka:ta","Left","39","1","6","5","P","C","6"
"","","approach-retreat","155","1423436","0.0-155.0","","","2-5","5307","38","1","Testing","Stims/Figures/100-J-10-3.bmp","ma:la:la","Up","38","1","7","5","S","C","7"
"","","approach-retreat","156","1432304","0.0-156.0","","","2-5","7360","37","0","Testing","Stims/Figures/102-J-10-4.bmp","mama:na","Right","39","1","8","5","S","C","8"
"","","approach-retreat","157","1439124","0.0-157.0","","","2-5","5310","37","1","Testing","Stims/Figures/57-J-0-1.bmp","na:la:na","Left","37","1","9","5","S","C","9"
"","","approach-retreat","158","1445216","0.0-158.0","","","2-5","4582","37","1","Testing","Stims/Figures/102-C-20-4.bmp","pa:ka:ta","Right","37","1","10","5","P","C","10"
"","","approach-retreat","159","1451035","0.0-159.0","","","2-5","4309","37","1","Testing","Stims/Figures/128-J-10-3.bmp","namala","Left","37","1","11","5","S","C","11"
"","","approach-retreat","160","1459684","0.0-160.0","","","2-5","7141","40","0","Testing","Stims/Figures/93-C-30-1.bmp","takaka","Down","38","1","12","5","P","C","12"
"","","approach-retreat","161","1467266","0.0-161.0","","","2-5","6071","38","1","Testing","Stims/Figures/7-J-10-4.bmp","namana","Up","38","1","13","5","S","C","13"
"","","approach-retreat","162","1473286","0.0-162.0","","","2-5","4510","38","1","Testing","Stims/Figures/128-C-30-3.bmp","paka:ta","Down","38","1","14","5","P","C","14"
"","","approach-retreat","163","1479970","0.0-163.0","","","2-5","5175","39","0","Testing","Stims/Figures/57-C-30-1.bmp","pa:kaka","Right","37","1","15","5","P","C","15"
"","","approach-retreat","164","1487471","0.0-164.0","","","2-5","5991","38","1","Testing","Stims/Figures/93-J-0-1.bmp","ma:la:na","Up","38","1","16","5","S","C","16"
"","","approach-retreat","165","1494049","0.0-165.0","","","2-5","5067","37","0","Testing","Stims/Figures/7-C-20-4.bmp","tapaka","Left","39","1","17","5","P","C","17"
"","","approach-retreat","166","1502559","0.0-166.0","","","2-5","6998","38","0","Testing","Stims/Figures/84-C-20-2.bmp","ta:pata","Up","40","1","18","5","P","C","18"
"","","approach-retreat","167","1508627","0.0-167.0","","","2-5","4550","39","0","Testing","Stims/Figures/118-J-0-2.bmp","ma:lala","Left","37","1","19","5","S","C","19"
"","","approach-retreat","168","1515846","0.0-168.0","","","2-5","5710","39","0","Testing","Stims/Figures/74-J-10-4.bmp","na:mana","Left","37","1","20","5","S","C","20"
"","","approach-retreat","169","1522520","0.0-169.0","","","2-5","5165","39","0","Testing","Stims/Figures/74-C-20-4.bmp","tapa:ka","Right","37","1","21","5","P","C","21"
"","","approach-retreat","170","1529235","0.0-170.0","","","2-5","5206","38","1","Testing","Stims/Figures/84-J-0-2.bmp","mama:la","Up","38","1","22","5","S","C","22"
"","","approach-retreat","171","1536935","0.0-171.0","","","2-5","6191","40","0","Testing","Stims/Figures/139-C-20-2.bmp","papa:ka","Down","38","1","23","5","P","C","23"
"","","approach-retreat","172","1545686","0.0-172.0","","","2-5","7241","38","1","Testing","Stims/Figures/118-C-20-2.bmp","pakata","Down","38","1","24","5","P","C","24"
"","","approach-retreat","173","1552981","0.0-173.0","","","2-5","5785","38","1","Testing","Stims/Figures/93-J-0-1.bmp","ma:la:na","Up","38","2","1","5","S","C","25"
"","","approach-retreat","174","1560486","0.0-174.0","","","2-5","5997","37","0","Testing","Stims/Figures/144-J-10-3.bmp","mamana","Right","39","2","2","5","S","C","26"
"","","approach-retreat","175","1567627","0.0-175.0","","","2-5","5632","39","1","Testing","Stims/Figures/118-J-0-2.bmp","ma:lala","Right","39","2","3","5","S","C","27"
"","","approach-retreat","176","1573968","0.0-176.0","","","2-5","4828","40","0","Testing","Stims/Figures/128-J-10-3.bmp","namala","Up","38","2","4","5","S","C","28"
"","","approach-retreat","177","1579625","0.0-177.0","","","2-5","4145","39","0","Testing","Stims/Figures/102-J-10-4.bmp","mama:na","Left","37","2","5","5","S","C","29"
"","","approach-retreat","178","1585705","0.0-178.0","","","2-5","4570","39","0","Testing","Stims/Figures/84-C-20-2.bmp","ta:pata","Right","37","2","6","5","P","C","30"
"","","approach-retreat","179","1593717","0.0-179.0","","","2-5","6502","38","0","Testing","Stims/Figures/93-C-30-1.bmp","takaka","Up","40","2","7","5","P","C","31"
"","","approach-retreat","180","1600869","0.0-180.0","","","2-5","5642","38","1","Testing","Stims/Figures/57-C-30-1.bmp","pa:kaka","Down","38","2","8","5","P","C","32"
"","","approach-retreat","181","1607450","0.0-181.0","","","2-5","5072","39","1","Testing","Stims/Figures/144-C-30-3.bmp","tapata","Left","39","2","9","5","P","C","33"
"","","approach-retreat","182","1613330","0.0-182.0","","","2-5","4372","38","1","Testing","Stims/Figures/7-C-20-4.bmp","tapaka","Down","38","2","10","5","P","C","34"
"","","approach-retreat","183","1619714","0.0-183.0","","","2-5","4874","38","0","Testing","Stims/Figures/100-J-10-3.bmp","ma:la:la","Down","40","2","11","5","S","C","35"
"","","approach-retreat","184","1626424","0.0-184.0","","","2-5","5201","38","0","Testing","Stims/Figures/139-C-20-2.bmp","papa:ka","Up","40","2","12","5","P","C","36"
"","","approach-retreat","185","1632032","0.0-185.0","","","2-5","4099","39","1","Testing","Stims/Figures/100-C-30-3.bmp","taka:ta","Left","39","2","13","5","P","C","37"
"","","approach-retreat","186","1638542","0.0-186.0","","","2-5","4996","37","1","Testing","Stims/Figures/102-C-20-4.bmp","pa:ka:ta","Right","37","2","14","5","P","C","38"
"","","approach-retreat","187","1645077","0.0-187.0","","","2-5","5025","37","1","Testing","Stims/Figures/84-J-0-2.bmp","mama:la","Left","37","2","15","5","S","C","39"
"","","approach-retreat","188","1653355","0.0-188.0","","","2-5","6767","40","1","Testing","Stims/Figures/27-C-30-1.bmp","pa:pa:ta","Up","40","2","16","5","P","C","40"
"","","approach-retreat","189","1660297","0.0-189.0","","","2-5","5434","40","1","Testing","Stims/Figures/139-J-0-2.bmp","mala:la","Down","40","2","17","5","S","C","41"
"","","approach-retreat","190","1668327","0.0-190.0","","","2-5","6520","40","0","Testing","Stims/Figures/74-C-20-4.bmp","tapa:ka","Down","38","2","18","5","P","C","42"
"","","approach-retreat","191","1674961","0.0-191.0","","","2-5","5124","39","0","Testing","Stims/Figures/27-J-0-1.bmp","na:la:la","Left","37","2","19","5","S","C","43"
"","","approach-retreat","192","1681959","0.0-192.0","","","2-5","5489","39","1","Testing","Stims/Figures/128-C-30-3.bmp","paka:ta","Left","39","2","20","5","P","C","44"
"","","approach-retreat","193","1687980","0.0-193.0","","","2-5","4513","37","1","Testing","Stims/Figures/118-C-20-2.bmp","pakata","Right","37","2","21","5","P","C","45"
"","","approach-retreat","194","1694118","0.0-194.0","","","2-5","4628","38","1","Testing","Stims/Figures/74-J-10-4.bmp","na:mana","Up","38","2","22","5","S","C","46"
"","","approach-retreat","195","1701620","0.0-195.0","","","2-5","5993","40","1","Testing","Stims/Figures/57-J-0-1.bmp","na:la:na","Down","40","2","23","5","S","C","47"
"","","approach-retreat","196","1708365","0.0-196.0","","","2-5","5235","37","0","Testing","Stims/Figures/7-J-10-4.bmp","namana","Right","39","2","24","5","S","C","48"
"","","approach-retreat","197","1714435","0.0-197.0","","","2-5","4559","40","1","Testing","Stims/Figures/118-C-20-2.bmp","pakata","Up","40","3","1","5","P","C","49"
"","","approach-retreat","198","1720799","0.0-198.0","","","2-5","4856","37","0","Testing","Stims/Figures/100-J-10-3.bmp","ma:la:la","Right","39","3","2","5","S","C","50"
"","","approach-retreat","199","1726508","0.0-199.0","","","2-5","4199","37","0","Testing","Stims/Figures/102-J-10-4.bmp","mama:na","Right","39","3","3","5","S","C","51"
"","","approach-retreat","200","1732565","0.0-200.0","","","2-5","4547","37","1","Testing","Stims/Figures/84-J-0-2.bmp","mama:la","Left","37","3","4","5","S","C","52"
"","","approach-retreat","201","1738405","0.0-201.0","","","2-5","4332","40","1","Testing","Stims/Figures/144-C-30-3.bmp","tapata","Up","40","3","5","5","P","C","53"
"","","approach-retreat","202","1744215","0.0-202.0","","","2-5","4302","38","1","Testing","Stims/Figures/57-J-0-1.bmp","na:la:na","Up","38","3","6","5","S","C","54"
"","","approach-retreat","203","1750896","0.0-203.0","","","2-5","5172","39","1","Testing","Stims/Figures/74-J-10-4.bmp","na:mana","Right","39","3","7","5","S","C","55"
"","","approach-retreat","204","1757142","0.0-204.0","","","2-5","4736","40","0","Testing","Stims/Figures/118-J-0-2.bmp","ma:lala","Up","38","3","8","5","S","C","56"
"","","approach-retreat","205","1763852","0.0-205.0","","","2-5","5200","39","1","Testing","Stims/Figures/27-C-30-1.bmp","pa:pa:ta","Left","39","3","9","5","P","C","57"
"","","approach-retreat","206","1769704","0.0-206.0","","","2-5","4344","40","0","Testing","Stims/Figures/93-C-30-1.bmp","takaka","Down","38","3","10","5","P","C","58"
"","","approach-retreat","207","1777671","0.0-207.0","","","2-5","6458","40","1","Testing","Stims/Figures/7-C-20-4.bmp","tapaka","Up","40","3","11","5","P","C","59"
"","","approach-retreat","208","1786641","0.0-208.0","","","2-5","7461","40","0","Testing","Stims/Figures/102-C-20-4.bmp","pa:ka:ta","Down","38","3","12","5","P","C","60"
"","","approach-retreat","209","1792390","0.0-209.0","","","2-5","4240","38","0","Testing","Stims/Figures/128-J-10-3.bmp","namala","Down","40","3","13","5","S","C","61"
"","","approach-retreat","210","1798334","0.0-210.0","","","2-5","4435","37","1","Testing","Stims/Figures/100-C-30-3.bmp","taka:ta","Right","37","3","14","5","P","C","62"
"","","approach-retreat","211","1804132","0.0-211.0","","","2-5","4289","38","1","Testing","Stims/Figures/128-C-30-3.bmp","paka:ta","Down","38","3","15","5","P","C","63"
"","","approach-retreat","212","1810481","0.0-212.0","","","2-5","4841","37","0","Testing","Stims/Figures/139-C-20-2.bmp","papa:ka","Left","39","3","16","5","P","C","64"
"","","approach-retreat","213","1817452","0.0-213.0","","","2-5","5462","37","1","Testing","Stims/Figures/139-J-0-2.bmp","mala:la","Left","37","3","17","5","S","C","65"
"","","approach-retreat","214","1824041","0.0-214.0","","","2-5","5078","37","0","Testing","Stims/Figures/84-C-20-2.bmp","ta:pata","Left","39","3","18","5","P","C","66"
"","","approach-retreat","215","1829898","0.0-215.0","","","2-5","4347","40","1","Testing","Stims/Figures/7-J-10-4.bmp","namana","Down","40","3","19","5","S","C","67"
"","","approach-retreat","216","1837151","0.0-216.0","","","2-5","5743","39","0","Testing","Stims/Figures/74-C-20-4.bmp","tapa:ka","Right","37","3","20","5","P","C","68"
"","","approach-retreat","217","1843211","0.0-217.0","","","2-5","4551","38","1","Testing","Stims/Figures/57-C-30-1.bmp","pa:kaka","Down","38","3","21","5","P","C","69"
"","","approach-retreat","218","1849080","0.0-218.0","","","2-5","4360","37","0","Testing","Stims/Figures/144-J-10-3.bmp","mamana","Right","39","3","22","5","S","C","70"
"","","approach-retreat","219","1859204","0.0-219.0","","","2-5","8615","38","1","Testing","Stims/Figures/93-J-0-1.bmp","ma:la:na","Up","38","3","23","5","S","C","71"
"","","approach-retreat","220","1899491","0.0-220.0","","","2-5","38778","39","0","Testing","Stims/Figures/27-J-0-1.bmp","na:la:la","Left","37","3","24","5","S","C","72"
"","","approach-retreat","221","1906072","0.0-221.0","","","2-5","5072","37","0","Testing","Stims/Figures/74-J-10-4.bmp","na:mana","Right","39","4","1","5","S","C","73"
"","","approach-retreat","222","1912070","0.0-222.0","","","2-5","4488","37","1","Testing","Stims/Figures/139-J-0-2.bmp","mala:la","Left","37","4","2","5","S","C","74"
"","","approach-retreat","223","1917746","0.0-223.0","","","2-5","4168","39","1","Testing","Stims/Figures/100-C-30-3.bmp","taka:ta","Left","39","4","3","5","P","C","75"
"","","approach-retreat","224","1924520","0.0-224.0","","","2-5","5263","38","1","Testing","Stims/Figures/7-J-10-4.bmp","namana","Up","38","4","4","5","S","C","76"
"","","approach-retreat","225","1931276","0.0-225.0","","","2-5","5246","38","0","Testing","Stims/Figures/128-J-10-3.bmp","namala","Down","40","4","5","5","S","C","77"
"","","approach-retreat","226","1937160","0.0-226.0","","","2-5","4375","38","1","Testing","Stims/Figures/84-J-0-2.bmp","mama:la","Up","38","4","6","5","S","C","78"
"","","approach-retreat","227","1943428","0.0-227.0","","","2-5","4759","39","0","Testing","Stims/Figures/118-J-0-2.bmp","ma:lala","Left","37","4","7","5","S","C","79"
"","","approach-retreat","228","1949846","0.0-228.0","","","2-5","4909","40","0","Testing","Stims/Figures/57-C-30-1.bmp","pa:kaka","Down","38","4","8","5","P","C","80"
"","","approach-retreat","229","1957433","0.0-229.0","","","2-5","6078","39","1","Testing","Stims/Figures/27-J-0-1.bmp","na:la:la","Right","39","4","9","5","S","C","81"
"","","approach-retreat","230","1963574","0.0-230.0","","","2-5","4631","39","1","Testing","Stims/Figures/93-J-0-1.bmp","ma:la:na","Right","39","4","10","5","S","C","82"
"","","approach-retreat","231","1973479","0.0-231.0","","","2-5","8396","40","0","Testing","Stims/Figures/84-C-20-2.bmp","ta:pata","Down","38","4","11","5","P","C","83"
"","","approach-retreat","232","1979688","0.0-232.0","","","2-5","4701","40","1","Testing","Stims/Figures/118-C-20-2.bmp","pakata","Up","40","4","12","5","P","C","84"
"","","approach-retreat","233","1985504","0.0-233.0","","","2-5","4306","37","0","Testing","Stims/Figures/74-C-20-4.bmp","tapa:ka","Left","39","4","13","5","P","C","85"
"","","approach-retreat","234","1994580","0.0-234.0","","","2-5","7566","37","1","Testing","Stims/Figures/139-C-20-2.bmp","papa:ka","Right","37","4","14","5","P","C","86"
"","","approach-retreat","235","2001925","0.0-235.0","","","2-5","5836","38","0","Testing","Stims/Figures/100-J-10-3.bmp","ma:la:la","Down","40","4","15","5","S","C","87"
"","","approach-retreat","236","2007913","0.0-236.0","","","2-5","4477","40","1","Testing","Stims/Figures/128-C-30-3.bmp","paka:ta","Up","40","4","16","5","P","C","88"
"","","approach-retreat","237","2016791","0.0-237.0","","","2-5","7369","38","0","Testing","Stims/Figures/102-C-20-4.bmp","pa:ka:ta","Up","40","4","17","5","P","C","89"
"","","approach-retreat","238","2026327","0.0-238.0","","","2-5","8026","37","1","Testing","Stims/Figures/57-J-0-1.bmp","na:la:na","Left","37","4","18","5","S","C","90"
"","","approach-retreat","239","2038054","0.0-239.0","","","2-5","10218","37","1","Testing","Stims/Figures/93-C-30-1.bmp","takaka","Right","37","4","19","5","P","C","91"
"","","approach-retreat","240","2044332","0.0-240.0","","","2-5","4768","37","0","Testing","Stims/Figures/144-J-10-3.bmp","mamana","Right","39","4","20","5","S","C","92"
"","","approach-retreat","241","2050748","0.0-241.0","","","2-5","4906","37","0","Testing","Stims/Figures/7-C-20-4.bmp","tapaka","Left","39","4","21","5","P","C","93"
"","","approach-retreat","242","2061550","0.0-242.0","","","2-5","9294","38","1","Testing","Stims/Figures/27-C-30-1.bmp","pa:pa:ta","Down","38","4","22","5","P","C","94"
"","","approach-retreat","243","2067471","0.0-243.0","","","2-5","4413","38","1","Testing","Stims/Figures/144-C-30-3.bmp","tapata","Down","38","4","23","5","P","C","95"
"","","approach-retreat","244","2073928","0.0-244.0","","","2-5","4948","38","1","Testing","Stims/Figures/102-J-10-4.bmp","mama:na","Up","38","4","24","5","S","C","96"
"135671","","survey-text","245","2209609","0.0-245.0","","{""Q0"":""0050""}","","","","","","","","","","","","","","",""
