"rt","key_press","trial_type","trial_index","time_elapsed","internal_node_id","view_history","responses","Id","Rt","ResKeyCode","ResCorr","TrialType2","Image","Label","Location","CorrectResponse","Block","BlockTrial","Condition","LabelType","Subcondition","trialNum"
"7013","32","text","0","7036","0.0-0.0-0.0","","","","","","","","","","","","","","","","",""
"2552","","instructions","1","9601","0.0-1.0","[{""page_index"":0,""viewing_time"":2540}]","","","","","","","","","","","","","","","",""
"13555","","survey-multi-choice","2","23289","0.0-2.0","","{""Q0"":""Da"",""Q1"":""Da"",""Q2"":""Da"",""Q3"":""Da"",""Q4"":""Da"",""Q5"":""Da""}","","","","","","","","","","","","","","",""
"","","bio","3","31454","0.0-3.0","","{""age"":""37"",""gender"":""f"",""specify"":""""}","","","","","","","","","","","","","","",""
"","","approach-retreat","4","45530","0.0-4.0","","","1-4","12467","40","1","Training","Stims/Figures/128-J-10-3.bmp","fa:fa:sha","Down","40","1","1","3A","C1","C","1"
"","","approach-retreat","5","54932","0.0-5.0","","","1-4","7869","37","1","Training","Stims/Figures/86-J-0-1.bmp","fa:fa:sha","Left","37","1","2","3A","C1","C","2"
"","","approach-retreat","6","63789","0.0-6.0","","","1-4","7298","37","1","Training","Stims/Figures/84-J-0-2.bmp","fa:fa:sha","Left","37","1","3","3A","C1","C","3"
"","","approach-retreat","7","71329","0.0-7.0","","","1-4","5988","40","1","Training","Stims/Figures/94-C-20-2.bmp","za:sa:za","Up","40","1","4","3A","C2","C","4"
"","","approach-retreat","8","79259","0.0-8.0","","","1-4","6380","40","1","Training","Stims/Figures/84-C-20-2.bmp","za:sa:za","Up","40","1","5","3A","C2","C","5"
"","","approach-retreat","9","88433","0.0-9.0","","","1-4","7624","38","1","Training","Stims/Figures/7-C-20-4.bmp","za:sa:za","Down","38","1","6","3A","C2","C","6"
"","","approach-retreat","10","95389","0.0-10.0","","","1-4","5400","37","1","Training","Stims/Figures/144-C-30-3.bmp","za:sa:za","Right","37","1","7","3A","C2","C","7"
"","","approach-retreat","11","102108","0.0-11.0","","","1-4","5192","38","1","Training","Stims/Figures/128-C-30-3.bmp","za:sa:za","Down","38","1","8","3A","C2","C","8"
"","","approach-retreat","12","109269","0.0-12.0","","","1-4","5634","39","1","Training","Stims/Figures/93-J-0-1.bmp","fa:fa:sha","Right","39","1","9","3A","C1","C","9"
"","","approach-retreat","13","115885","0.0-13.0","","","1-4","5082","40","1","Training","Stims/Figures/74-J-10-4.bmp","fa:fa:sha","Down","40","1","10","3A","C1","C","10"
"","","approach-retreat","14","122710","0.0-14.0","","","1-4","5274","38","1","Training","Stims/Figures/144-J-10-3.bmp","fa:fa:sha","Up","38","1","11","3A","C1","C","11"
"","","approach-retreat","15","129884","0.0-15.0","","","1-4","5619","39","1","Training","Stims/Figures/93-C-30-1.bmp","za:sa:za","Left","39","1","12","3A","C2","C","12"
"","","approach-retreat","16","137680","0.0-16.0","","","1-4","6240","39","1","Training","Stims/Figures/86-C-30-1.bmp","za:sa:za","Left","39","1","13","3A","C2","C","13"
"","","approach-retreat","17","144895","0.0-17.0","","","1-4","5690","39","1","Training","Stims/Figures/94-J-0-2.bmp","fa:fa:sha","Right","39","1","14","3A","C1","C","14"
"","","approach-retreat","18","151401","0.0-18.0","","","1-4","4982","40","1","Training","Stims/Figures/74-C-20-4.bmp","za:sa:za","Up","40","1","15","3A","C2","C","15"
"","","approach-retreat","19","157452","0.0-19.0","","","1-4","4502","39","1","Training","Stims/Figures/7-J-10-4.bmp","fa:fa:sha","Right","39","1","16","3A","C1","C","16"
"","","approach-retreat","20","163982","0.0-20.0","","","1-4","4998","39","1","Training","Stims/Figures/74-C-20-4.bmp","za:sa:za","Left","39","2","1","3A","C2","C","17"
"","","approach-retreat","21","172262","0.0-21.0","","","1-4","6744","38","1","Training","Stims/Figures/128-J-10-3.bmp","fa:fa:sha","Up","38","2","2","3A","C1","C","18"
"","","approach-retreat","22","178461","0.0-22.0","","","1-4","4675","38","1","Training","Stims/Figures/7-J-10-4.bmp","fa:fa:sha","Up","38","2","3","3A","C1","C","19"
"","","approach-retreat","23","186095","0.0-23.0","","","1-4","6092","37","1","Training","Stims/Figures/144-C-30-3.bmp","za:sa:za","Right","37","2","4","3A","C2","C","20"
"","","approach-retreat","24","192675","0.0-24.0","","","1-4","5029","38","1","Training","Stims/Figures/86-J-0-1.bmp","fa:fa:sha","Up","38","2","5","3A","C1","C","21"
"","","approach-retreat","25","199772","0.0-25.0","","","1-4","5565","39","1","Training","Stims/Figures/93-J-0-1.bmp","fa:fa:sha","Right","39","2","6","3A","C1","C","22"
"","","approach-retreat","26","206632","0.0-26.0","","","1-4","5333","37","1","Training","Stims/Figures/128-C-30-3.bmp","za:sa:za","Right","37","2","7","3A","C2","C","23"
"","","approach-retreat","27","217183","0.0-27.0","","","1-4","9037","40","1","Training","Stims/Figures/84-J-0-2.bmp","fa:fa:sha","Down","40","2","8","3A","C1","C","24"
"","","approach-retreat","28","225742","0.0-28.0","","","1-4","7039","38","1","Training","Stims/Figures/86-C-30-1.bmp","za:sa:za","Down","38","2","9","3A","C2","C","25"
"","","approach-retreat","29","232122","0.0-29.0","","","1-4","4844","40","1","Training","Stims/Figures/84-C-20-2.bmp","za:sa:za","Up","40","2","10","3A","C2","C","26"
"","","approach-retreat","30","239363","0.0-30.0","","","1-4","5714","39","1","Training","Stims/Figures/93-C-30-1.bmp","za:sa:za","Left","39","2","11","3A","C2","C","27"
"","","approach-retreat","31","246822","0.0-31.0","","","1-4","5935","37","1","Training","Stims/Figures/144-J-10-3.bmp","fa:fa:sha","Left","37","2","12","3A","C1","C","28"
"","","approach-retreat","32","254262","0.0-32.0","","","1-4","5917","38","1","Training","Stims/Figures/94-C-20-2.bmp","za:sa:za","Down","38","2","13","3A","C2","C","29"
"","","approach-retreat","33","263134","0.0-33.0","","","1-4","7355","37","1","Training","Stims/Figures/94-J-0-2.bmp","fa:fa:sha","Left","37","2","14","3A","C1","C","30"
"","","approach-retreat","34","269973","0.0-34.0","","","1-4","5313","37","1","Training","Stims/Figures/7-C-20-4.bmp","za:sa:za","Right","37","2","15","3A","C2","C","31"
"","","approach-retreat","35","277265","0.0-35.0","","","1-4","5780","40","1","Training","Stims/Figures/74-J-10-4.bmp","fa:fa:sha","Down","40","2","16","3A","C1","C","32"
"","","approach-retreat","36","284054","0.0-36.0","","","1-4","5257","40","1","Training","Stims/Figures/86-J-0-1.bmp","fa:fa:sha","Down","40","3","1","3A","C1","C","33"
"","","approach-retreat","37","290702","0.0-37.0","","","1-4","5125","39","1","Training","Stims/Figures/144-J-10-3.bmp","fa:fa:sha","Right","39","3","2","3A","C1","C","34"
"","","approach-retreat","38","297155","0.0-38.0","","","1-4","4928","40","1","Training","Stims/Figures/128-C-30-3.bmp","za:sa:za","Up","40","3","3","3A","C2","C","35"
"","","approach-retreat","39","303395","0.0-39.0","","","1-4","4699","39","1","Training","Stims/Figures/74-C-20-4.bmp","za:sa:za","Left","39","3","4","3A","C2","C","36"
"","","approach-retreat","40","310005","0.0-40.0","","","1-4","5085","37","1","Training","Stims/Figures/84-C-20-2.bmp","za:sa:za","Right","37","3","5","3A","C2","C","37"
"","","approach-retreat","41","316255","0.0-41.0","","","1-4","4729","40","1","Training","Stims/Figures/128-J-10-3.bmp","fa:fa:sha","Down","40","3","6","3A","C1","C","38"
"","","approach-retreat","42","324325","0.0-42.0","","","1-4","6551","40","1","Training","Stims/Figures/7-C-20-4.bmp","za:sa:za","Up","40","3","7","3A","C2","C","39"
"","","approach-retreat","43","331965","0.0-43.0","","","1-4","6109","37","1","Training","Stims/Figures/7-J-10-4.bmp","fa:fa:sha","Left","37","3","8","3A","C1","C","40"
"","","approach-retreat","44","340067","0.0-44.0","","","1-4","6584","37","1","Training","Stims/Figures/144-C-30-3.bmp","za:sa:za","Right","37","3","9","3A","C2","C","41"
"","","approach-retreat","45","346386","0.0-45.0","","","1-4","4792","39","1","Training","Stims/Figures/84-J-0-2.bmp","fa:fa:sha","Right","39","3","10","3A","C1","C","42"
"","","approach-retreat","46","352595","0.0-46.0","","","1-4","4681","38","1","Training","Stims/Figures/74-J-10-4.bmp","fa:fa:sha","Up","38","3","11","3A","C1","C","43"
"","","approach-retreat","47","359006","0.0-47.0","","","1-4","4888","37","1","Training","Stims/Figures/93-J-0-1.bmp","fa:fa:sha","Left","37","3","12","3A","C1","C","44"
"","","approach-retreat","48","365806","0.0-48.0","","","1-4","5271","38","1","Training","Stims/Figures/94-C-20-2.bmp","za:sa:za","Down","38","3","13","3A","C2","C","45"
"","","approach-retreat","49","372726","0.0-49.0","","","1-4","5401","38","1","Training","Stims/Figures/93-C-30-1.bmp","za:sa:za","Down","38","3","14","3A","C2","C","46"
"","","approach-retreat","50","378956","0.0-50.0","","","1-4","4707","40","1","Training","Stims/Figures/86-C-30-1.bmp","za:sa:za","Up","40","3","15","3A","C2","C","47"
"","","approach-retreat","51","385586","0.0-51.0","","","1-4","5116","37","1","Training","Stims/Figures/94-J-0-2.bmp","fa:fa:sha","Left","37","3","16","3A","C1","C","48"
"","","approach-retreat","52","392697","0.0-52.0","","","1-4","5594","38","1","Training","Stims/Figures/128-C-30-3.bmp","za:sa:za","Down","38","4","1","3A","C2","C","49"
"","","approach-retreat","53","398827","0.0-53.0","","","1-4","4607","39","1","Training","Stims/Figures/93-C-30-1.bmp","za:sa:za","Left","39","4","2","3A","C2","C","50"
"","","approach-retreat","54","406107","0.0-54.0","","","1-4","5768","40","1","Training","Stims/Figures/7-C-20-4.bmp","za:sa:za","Up","40","4","3","3A","C2","C","51"
"","","approach-retreat","55","412470","0.0-55.0","","","1-4","4846","40","1","Training","Stims/Figures/84-J-0-2.bmp","fa:fa:sha","Down","40","4","4","3A","C1","C","52"
"","","approach-retreat","56","419257","0.0-56.0","","","1-4","5268","37","1","Training","Stims/Figures/94-C-20-2.bmp","za:sa:za","Right","37","4","5","3A","C2","C","53"
"","","approach-retreat","57","425897","0.0-57.0","","","1-4","5115","39","1","Training","Stims/Figures/74-C-20-4.bmp","za:sa:za","Left","39","4","6","3A","C2","C","54"
"","","approach-retreat","58","432418","0.0-58.0","","","1-4","5007","37","1","Training","Stims/Figures/86-J-0-1.bmp","fa:fa:sha","Left","37","4","7","3A","C1","C","55"
"","","approach-retreat","59","439186","0.0-59.0","","","1-4","5253","38","1","Training","Stims/Figures/7-J-10-4.bmp","fa:fa:sha","Up","38","4","8","3A","C1","C","56"
"","","approach-retreat","60","445358","0.0-60.0","","","1-4","4647","37","1","Training","Stims/Figures/86-C-30-1.bmp","za:sa:za","Right","37","4","9","3A","C2","C","57"
"","","approach-retreat","61","453819","0.0-61.0","","","1-4","6943","37","1","Training","Stims/Figures/144-J-10-3.bmp","fa:fa:sha","Left","37","4","10","3A","C1","C","58"
"","","approach-retreat","62","460239","0.0-62.0","","","1-4","4893","39","1","Training","Stims/Figures/93-J-0-1.bmp","fa:fa:sha","Right","39","4","11","3A","C1","C","59"
"","","approach-retreat","63","467649","0.0-63.0","","","1-4","5896","38","1","Training","Stims/Figures/84-C-20-2.bmp","za:sa:za","Down","38","4","12","3A","C2","C","60"
"","","approach-retreat","64","474829","0.0-64.0","","","1-4","5634","38","1","Training","Stims/Figures/144-C-30-3.bmp","za:sa:za","Down","38","4","13","3A","C2","C","61"
"","","approach-retreat","65","481309","0.0-65.0","","","1-4","4956","38","1","Training","Stims/Figures/74-J-10-4.bmp","fa:fa:sha","Up","38","4","14","3A","C1","C","62"
"","","approach-retreat","66","489399","0.0-66.0","","","1-4","6563","39","1","Training","Stims/Figures/128-J-10-3.bmp","fa:fa:sha","Right","39","4","15","3A","C1","C","63"
"","","approach-retreat","67","495810","0.0-67.0","","","1-4","4889","38","1","Training","Stims/Figures/94-J-0-2.bmp","fa:fa:sha","Up","38","4","16","3A","C1","C","64"
"","","approach-retreat","68","502190","0.0-68.0","","","1-4","4871","39","1","Training","Stims/Figures/84-C-20-2.bmp","za:sa:za","Left","39","5","1","3A","C2","C","65"
"","","approach-retreat","69","509050","0.0-69.0","","","1-4","5344","38","1","Training","Stims/Figures/94-C-20-2.bmp","za:sa:za","Down","38","5","2","3A","C2","C","66"
"","","approach-retreat","70","515701","0.0-70.0","","","1-4","5136","40","1","Training","Stims/Figures/128-J-10-3.bmp","fa:fa:sha","Down","40","5","3","3A","C1","C","67"
"","","approach-retreat","71","522371","0.0-71.0","","","1-4","5147","40","1","Training","Stims/Figures/128-C-30-3.bmp","za:sa:za","Up","40","5","4","3A","C2","C","68"
"","","approach-retreat","72","529430","0.0-72.0","","","1-4","5551","37","1","Training","Stims/Figures/7-C-20-4.bmp","za:sa:za","Right","37","5","5","3A","C2","C","69"
"","","approach-retreat","73","536580","0.0-73.0","","","1-4","5633","37","1","Training","Stims/Figures/144-J-10-3.bmp","fa:fa:sha","Left","37","5","6","3A","C1","C","70"
"","","approach-retreat","74","544541","0.0-74.0","","","1-4","6439","38","1","Training","Stims/Figures/93-J-0-1.bmp","fa:fa:sha","Up","38","5","7","3A","C1","C","71"
"","","approach-retreat","75","551002","0.0-75.0","","","1-4","4946","37","1","Training","Stims/Figures/94-J-0-2.bmp","fa:fa:sha","Left","37","5","8","3A","C1","C","72"
"","","approach-retreat","76","557982","0.0-76.0","","","1-4","5455","37","1","Training","Stims/Figures/86-C-30-1.bmp","za:sa:za","Right","37","5","9","3A","C2","C","73"
"","","approach-retreat","77","564242","0.0-77.0","","","1-4","4733","40","1","Training","Stims/Figures/74-J-10-4.bmp","fa:fa:sha","Down","40","5","10","3A","C1","C","74"
"","","approach-retreat","78","570945","0.0-78.0","","","1-4","5180","39","1","Training","Stims/Figures/86-J-0-1.bmp","fa:fa:sha","Right","39","5","11","3A","C1","C","75"
"","","approach-retreat","79","577974","0.0-79.0","","","1-4","5510","39","1","Training","Stims/Figures/7-J-10-4.bmp","fa:fa:sha","Right","39","5","12","3A","C1","C","76"
"","","approach-retreat","80","584315","0.0-80.0","","","1-4","4824","40","1","Training","Stims/Figures/144-C-30-3.bmp","za:sa:za","Up","40","5","13","3A","C2","C","77"
"","","approach-retreat","81","590493","0.0-81.0","","","1-4","4662","38","1","Training","Stims/Figures/74-C-20-4.bmp","za:sa:za","Down","38","5","14","3A","C2","C","78"
"","","approach-retreat","82","597353","0.0-82.0","","","1-4","5338","37","1","Training","Stims/Figures/84-J-0-2.bmp","fa:fa:sha","Left","37","5","15","3A","C1","C","79"
"","","approach-retreat","83","603742","0.0-83.0","","","1-4","4873","40","1","Training","Stims/Figures/93-C-30-1.bmp","za:sa:za","Up","40","5","16","3A","C2","C","80"
"","","approach-retreat","84","609983","0.0-84.0","","","1-4","4718","40","1","Training","Stims/Figures/7-C-20-4.bmp","za:sa:za","Up","40","6","1","3A","C2","C","81"
"","","approach-retreat","85","615993","0.0-85.0","","","1-4","4485","39","1","Training","Stims/Figures/84-J-0-2.bmp","fa:fa:sha","Right","39","6","2","3A","C1","C","82"
"","","approach-retreat","86","622253","0.0-86.0","","","1-4","4737","39","1","Training","Stims/Figures/144-C-30-3.bmp","za:sa:za","Left","39","6","3","3A","C2","C","83"
"","","approach-retreat","87","628104","0.0-87.0","","","1-4","4324","38","1","Training","Stims/Figures/74-J-10-4.bmp","fa:fa:sha","Up","38","6","4","3A","C1","C","84"
"","","approach-retreat","88","634154","0.0-88.0","","","1-4","4528","38","1","Training","Stims/Figures/84-C-20-2.bmp","za:sa:za","Down","38","6","5","3A","C2","C","85"
"","","approach-retreat","89","640233","0.0-89.0","","","1-4","4568","38","1","Training","Stims/Figures/128-C-30-3.bmp","za:sa:za","Down","38","6","6","3A","C2","C","86"
"","","approach-retreat","90","647124","0.0-90.0","","","1-4","5373","37","1","Training","Stims/Figures/93-C-30-1.bmp","za:sa:za","Right","37","6","7","3A","C2","C","87"
"","","approach-retreat","91","653714","0.0-91.0","","","1-4","5073","37","1","Training","Stims/Figures/74-C-20-4.bmp","za:sa:za","Right","37","6","8","3A","C2","C","88"
"","","approach-retreat","92","660274","0.0-92.0","","","1-4","5048","38","1","Training","Stims/Figures/144-J-10-3.bmp","fa:fa:sha","Up","38","6","9","3A","C1","C","89"
"","","approach-retreat","93","666455","0.0-93.0","","","1-4","4668","39","1","Training","Stims/Figures/93-J-0-1.bmp","fa:fa:sha","Right","39","6","10","3A","C1","C","90"
"","","approach-retreat","94","672626","0.0-94.0","","","1-4","4656","40","1","Training","Stims/Figures/86-J-0-1.bmp","fa:fa:sha","Down","40","6","11","3A","C1","C","91"
"","","approach-retreat","95","678995","0.0-95.0","","","1-4","4851","37","1","Training","Stims/Figures/94-J-0-2.bmp","fa:fa:sha","Left","37","6","12","3A","C1","C","92"
"","","approach-retreat","96","685425","0.0-96.0","","","1-4","4912","39","1","Training","Stims/Figures/94-C-20-2.bmp","za:sa:za","Left","39","6","13","3A","C2","C","93"
"","","approach-retreat","97","691695","0.0-97.0","","","1-4","4750","39","1","Training","Stims/Figures/86-C-30-1.bmp","za:sa:za","Left","39","6","14","3A","C2","C","94"
"","","approach-retreat","98","697646","0.0-98.0","","","1-4","4421","38","1","Training","Stims/Figures/128-J-10-3.bmp","fa:fa:sha","Up","38","6","15","3A","C1","C","95"
"","","approach-retreat","99","703595","0.0-99.0","","","1-4","4431","40","1","Training","Stims/Figures/7-J-10-4.bmp","fa:fa:sha","Down","40","6","16","3A","C1","C","96"
"","","approach-retreat","100","709376","0.0-100.0","","","1-4","4256","38","1","Training","Stims/Figures/93-J-0-1.bmp","fa:fa:sha","Up","38","7","1","3A","C1","C","97"
"","","approach-retreat","101","715766","0.0-101.0","","","1-4","4881","37","1","Training","Stims/Figures/74-C-20-4.bmp","za:sa:za","Right","37","7","2","3A","C2","C","98"
"","","approach-retreat","102","723776","0.0-102.0","","","1-4","6482","37","1","Training","Stims/Figures/144-J-10-3.bmp","fa:fa:sha","Left","37","7","3","3A","C1","C","99"
"","","approach-retreat","103","730026","0.0-103.0","","","1-4","4730","37","1","Training","Stims/Figures/93-C-30-1.bmp","za:sa:za","Right","37","7","4","3A","C2","C","100"
"","","approach-retreat","104","737860","0.0-104.0","","","1-4","6314","38","1","Training","Stims/Figures/144-C-30-3.bmp","za:sa:za","Down","38","7","5","3A","C2","C","101"
"","","approach-retreat","105","743807","0.0-105.0","","","1-4","4437","40","1","Training","Stims/Figures/86-J-0-1.bmp","fa:fa:sha","Down","40","7","6","3A","C1","C","102"
"","","approach-retreat","106","750727","0.0-106.0","","","1-4","5409","38","1","Training","Stims/Figures/94-J-0-2.bmp","fa:fa:sha","Up","38","7","7","3A","C1","C","103"
"","","approach-retreat","107","757077","0.0-107.0","","","1-4","4839","37","1","Training","Stims/Figures/7-J-10-4.bmp","fa:fa:sha","Left","37","7","8","3A","C1","C","104"
"","","approach-retreat","108","763667","0.0-108.0","","","1-4","5067","37","1","Training","Stims/Figures/7-C-20-4.bmp","za:sa:za","Right","37","7","9","3A","C2","C","105"
"","","approach-retreat","109","770247","0.0-109.0","","","1-4","5069","37","1","Training","Stims/Figures/74-J-10-4.bmp","fa:fa:sha","Left","37","7","10","3A","C1","C","106"
"","","approach-retreat","110","776197","0.0-110.0","","","1-4","4422","37","1","Training","Stims/Figures/94-C-20-2.bmp","za:sa:za","Right","37","7","11","3A","C2","C","107"
"","","approach-retreat","111","783317","0.0-111.0","","","1-4","5597","38","1","Training","Stims/Figures/84-C-20-2.bmp","za:sa:za","Down","38","7","12","3A","C2","C","108"
"","","approach-retreat","112","789288","0.0-112.0","","","1-4","4446","38","1","Training","Stims/Figures/84-J-0-2.bmp","fa:fa:sha","Up","38","7","13","3A","C1","C","109"
"","","approach-retreat","113","795228","0.0-113.0","","","1-4","4417","37","1","Training","Stims/Figures/128-J-10-3.bmp","fa:fa:sha","Left","37","7","14","3A","C1","C","110"
"","","approach-retreat","114","801418","0.0-114.0","","","1-4","4672","40","1","Training","Stims/Figures/128-C-30-3.bmp","za:sa:za","Up","40","7","15","3A","C2","C","111"
"","","approach-retreat","115","807409","0.0-115.0","","","1-4","4461","38","1","Training","Stims/Figures/86-C-30-1.bmp","za:sa:za","Down","38","7","16","3A","C2","C","112"
"","","approach-retreat","116","814339","0.0-116.0","","","1-4","5418","38","1","Training","Stims/Figures/93-J-0-1.bmp","fa:fa:sha","Up","38","8","1","3A","C1","C","113"
"","","approach-retreat","117","821049","0.0-117.0","","","1-4","5199","37","1","Training","Stims/Figures/93-C-30-1.bmp","za:sa:za","Right","37","8","2","3A","C2","C","114"
"","","approach-retreat","118","827189","0.0-118.0","","","1-4","4628","37","1","Training","Stims/Figures/144-J-10-3.bmp","fa:fa:sha","Left","37","8","3","3A","C1","C","115"
"","","approach-retreat","119","833689","0.0-119.0","","","1-4","4987","39","1","Training","Stims/Figures/94-C-20-2.bmp","za:sa:za","Left","39","8","4","3A","C2","C","116"
"","","approach-retreat","120","840099","0.0-120.0","","","1-4","4894","39","1","Training","Stims/Figures/74-J-10-4.bmp","fa:fa:sha","Right","39","8","5","3A","C1","C","117"
"","","approach-retreat","121","846630","0.0-121.0","","","1-4","5004","37","1","Training","Stims/Figures/128-C-30-3.bmp","za:sa:za","Right","37","8","6","3A","C2","C","118"
"","","approach-retreat","122","853110","0.0-122.0","","","1-4","4956","40","1","Training","Stims/Figures/86-C-30-1.bmp","za:sa:za","Up","40","8","7","3A","C2","C","119"
"","","approach-retreat","123","859339","0.0-123.0","","","1-4","4707","38","1","Training","Stims/Figures/86-J-0-1.bmp","fa:fa:sha","Up","38","8","8","3A","C1","C","120"
"","","approach-retreat","124","865421","0.0-124.0","","","1-4","4560","39","1","Training","Stims/Figures/7-C-20-4.bmp","za:sa:za","Left","39","8","9","3A","C2","C","121"
"","","approach-retreat","125","871770","0.0-125.0","","","1-4","4839","39","1","Training","Stims/Figures/7-J-10-4.bmp","fa:fa:sha","Right","39","8","10","3A","C1","C","122"
"","","approach-retreat","126","878050","0.0-126.0","","","1-4","4764","38","1","Training","Stims/Figures/144-C-30-3.bmp","za:sa:za","Down","38","8","11","3A","C2","C","123"
"","","approach-retreat","127","884011","0.0-127.0","","","1-4","4438","38","1","Training","Stims/Figures/128-J-10-3.bmp","fa:fa:sha","Up","38","8","12","3A","C1","C","124"
"","","approach-retreat","128","889831","0.0-128.0","","","1-4","4301","38","1","Training","Stims/Figures/74-C-20-4.bmp","za:sa:za","Down","38","8","13","3A","C2","C","125"
"","","approach-retreat","129","895991","0.0-129.0","","","1-4","4633","38","1","Training","Stims/Figures/84-C-20-2.bmp","za:sa:za","Down","38","8","14","3A","C2","C","126"
"","","approach-retreat","130","902141","0.0-130.0","","","1-4","4626","40","1","Training","Stims/Figures/84-J-0-2.bmp","fa:fa:sha","Down","40","8","15","3A","C1","C","127"
"","","approach-retreat","131","908773","0.0-131.0","","","1-4","5106","37","1","Training","Stims/Figures/94-J-0-2.bmp","fa:fa:sha","Left","37","8","16","3A","C1","C","128"
"","","approach-retreat","132","915212","0.0-132.0","","","1-4","4916","39","1","Training","Stims/Figures/93-J-0-1.bmp","fa:fa:sha","Right","39","9","1","3A","C1","C","129"
"","","approach-retreat","133","921662","0.0-133.0","","","1-4","4938","38","1","Training","Stims/Figures/7-C-20-4.bmp","za:sa:za","Down","38","9","2","3A","C2","C","130"
"","","approach-retreat","134","928142","0.0-134.0","","","1-4","4956","38","1","Training","Stims/Figures/84-C-20-2.bmp","za:sa:za","Down","38","9","3","3A","C2","C","131"
"","","approach-retreat","135","934242","0.0-135.0","","","1-4","4589","38","1","Training","Stims/Figures/86-C-30-1.bmp","za:sa:za","Down","38","9","4","3A","C2","C","132"
"","","approach-retreat","136","940293","0.0-136.0","","","1-4","4527","40","1","Training","Stims/Figures/74-C-20-4.bmp","za:sa:za","Up","40","9","5","3A","C2","C","133"
"","","approach-retreat","137","946873","0.0-137.0","","","1-4","5061","37","1","Training","Stims/Figures/74-J-10-4.bmp","fa:fa:sha","Left","37","9","6","3A","C1","C","134"
"","","approach-retreat","138","953043","0.0-138.0","","","1-4","4651","38","1","Training","Stims/Figures/7-J-10-4.bmp","fa:fa:sha","Up","38","9","7","3A","C1","C","135"
"","","approach-retreat","139","959553","0.0-139.0","","","1-4","4970","40","1","Training","Stims/Figures/94-C-20-2.bmp","za:sa:za","Up","40","9","8","3A","C2","C","136"
"","","approach-retreat","140","965853","0.0-140.0","","","1-4","4776","37","1","Training","Stims/Figures/93-C-30-1.bmp","za:sa:za","Right","37","9","9","3A","C2","C","137"
"","","approach-retreat","141","972173","0.0-141.0","","","1-4","4791","38","1","Training","Stims/Figures/128-C-30-3.bmp","za:sa:za","Down","38","9","10","3A","C2","C","138"
"","","approach-retreat","142","978444","0.0-142.0","","","1-4","4747","37","1","Training","Stims/Figures/94-J-0-2.bmp","fa:fa:sha","Left","37","9","11","3A","C1","C","139"
"","","approach-retreat","143","984594","0.0-143.0","","","1-4","4636","38","1","Training","Stims/Figures/84-J-0-2.bmp","fa:fa:sha","Up","38","9","12","3A","C1","C","140"
"","","approach-retreat","144","991834","0.0-144.0","","","1-4","5728","37","1","Training","Stims/Figures/144-C-30-3.bmp","za:sa:za","Right","37","9","13","3A","C2","C","141"
"","","approach-retreat","145","998264","0.0-145.0","","","1-4","4920","37","1","Training","Stims/Figures/128-J-10-3.bmp","fa:fa:sha","Left","37","9","14","3A","C1","C","142"
"","","approach-retreat","146","1004434","0.0-146.0","","","1-4","4659","37","1","Training","Stims/Figures/144-J-10-3.bmp","fa:fa:sha","Left","37","9","15","3A","C1","C","143"
"","","approach-retreat","147","1010574","0.0-147.0","","","1-4","4620","39","1","Training","Stims/Figures/86-J-0-1.bmp","fa:fa:sha","Right","39","9","16","3A","C1","C","144"
"19951","","instructions","148","1030526","0.0-148.0","[{""page_index"":0,""viewing_time"":19950}]","","","","","","","","","","","","","","","",""
"","","approach-retreat","149","1037675","0.0-149.0","","","1-4","5625","38","0","Testing","Stims/Figures/144-C-30-3.bmp","za:sa:za","Up","40","1","1","3A","C2","C","1"
"","","approach-retreat","150","1045288","0.0-150.0","","","1-4","6101","39","0","Testing","Stims/Figures/93-C-30-1.bmp","za:sa:za","Right","37","1","2","3A","C2","C","2"
"","","approach-retreat","151","1052176","0.0-151.0","","","1-4","5365","39","1","Testing","Stims/Figures/27-C-30-1.bmp","za:sa:za","Left","39","1","3","3A","C2","C","3"
"","","approach-retreat","152","1060177","0.0-152.0","","","1-4","6480","40","1","Testing","Stims/Figures/86-C-30-1.bmp","za:sa:za","Up","40","1","4","3A","C2","C","4"
"","","approach-retreat","153","1066266","0.0-153.0","","","1-4","4571","37","1","Testing","Stims/Figures/84-J-0-2.bmp","fa:fa:sha","Left","37","1","5","3A","C1","C","5"
"","","approach-retreat","154","1072257","0.0-154.0","","","1-4","4475","39","0","Testing","Stims/Figures/84-C-20-2.bmp","za:sa:za","Right","37","1","6","3A","C2","C","6"
"","","approach-retreat","155","1077986","0.0-155.0","","","1-4","4207","39","1","Testing","Stims/Figures/86-J-0-1.bmp","fa:fa:sha","Right","39","1","7","3A","C1","C","7"
"","","approach-retreat","156","1084077","0.0-156.0","","","1-4","4582","40","0","Testing","Stims/Figures/7-C-20-4.bmp","za:sa:za","Down","38","1","8","3A","C2","C","8"
"","","approach-retreat","157","1089957","0.0-157.0","","","1-4","4362","38","1","Testing","Stims/Figures/7-J-10-4.bmp","fa:fa:sha","Up","38","1","9","3A","C1","C","9"
"","","approach-retreat","158","1096797","0.0-158.0","","","1-4","5322","37","0","Testing","Stims/Figures/111-J-10-3.bmp","fa:fa:sha","Right","39","1","10","3A","C1","C","10"
"","","approach-retreat","159","1102707","0.0-159.0","","","1-4","4392","40","1","Testing","Stims/Figures/111-C-30-3.bmp","za:sa:za","Up","40","1","11","3A","C2","C","11"
"","","approach-retreat","160","1109477","0.0-160.0","","","1-4","5250","39","1","Testing","Stims/Figures/102-J-10-4.bmp","fa:fa:sha","Right","39","1","12","3A","C1","C","12"
"","","approach-retreat","161","1116208","0.0-161.0","","","1-4","5219","37","0","Testing","Stims/Figures/102-C-20-4.bmp","za:sa:za","Left","39","1","13","3A","C2","C","13"
"","","approach-retreat","162","1122238","0.0-162.0","","","1-4","4515","40","1","Testing","Stims/Figures/27-J-0-1.bmp","fa:fa:sha","Down","40","1","14","3A","C1","C","14"
"","","approach-retreat","163","1128388","0.0-163.0","","","1-4","4634","39","1","Testing","Stims/Figures/74-J-10-4.bmp","fa:fa:sha","Right","39","1","15","3A","C1","C","15"
"","","approach-retreat","164","1134128","0.0-164.0","","","1-4","4223","40","0","Testing","Stims/Figures/94-J-0-2.bmp","fa:fa:sha","Up","38","1","16","3A","C1","C","16"
"","","approach-retreat","165","1140450","0.0-165.0","","","1-4","4806","40","0","Testing","Stims/Figures/74-C-20-4.bmp","za:sa:za","Down","38","1","17","3A","C2","C","17"
"","","approach-retreat","166","1147031","0.0-166.0","","","1-4","5061","39","0","Testing","Stims/Figures/118-J-0-2.bmp","fa:fa:sha","Left","37","1","18","3A","C1","C","18"
"","","approach-retreat","167","1153119","0.0-167.0","","","1-4","4575","38","1","Testing","Stims/Figures/94-C-20-2.bmp","za:sa:za","Down","38","1","19","3A","C2","C","19"
"","","approach-retreat","168","1159009","0.0-168.0","","","1-4","4379","38","1","Testing","Stims/Figures/128-J-10-3.bmp","fa:fa:sha","Up","38","1","20","3A","C1","C","20"
"","","approach-retreat","169","1165689","0.0-169.0","","","1-4","5158","40","1","Testing","Stims/Figures/93-J-0-1.bmp","fa:fa:sha","Down","40","1","21","3A","C1","C","21"
"","","approach-retreat","170","1172199","0.0-170.0","","","1-4","4989","38","1","Testing","Stims/Figures/118-C-20-2.bmp","za:sa:za","Down","38","1","22","3A","C2","C","22"
"","","approach-retreat","171","1178020","0.0-171.0","","","1-4","4295","37","0","Testing","Stims/Figures/128-C-30-3.bmp","za:sa:za","Left","39","1","23","3A","C2","C","23"
"","","approach-retreat","172","1184152","0.0-172.0","","","1-4","4617","37","1","Testing","Stims/Figures/144-J-10-3.bmp","fa:fa:sha","Left","37","1","24","3A","C1","C","24"
"","","approach-retreat","173","1189990","0.0-173.0","","","1-4","4293","40","0","Testing","Stims/Figures/118-J-0-2.bmp","fa:fa:sha","Up","38","2","1","3A","C1","C","25"
"","","approach-retreat","174","1195700","0.0-174.0","","","1-4","4195","37","0","Testing","Stims/Figures/102-C-20-4.bmp","za:sa:za","Left","39","2","2","3A","C2","C","26"
"","","approach-retreat","175","1201390","0.0-175.0","","","1-4","4173","37","0","Testing","Stims/Figures/27-J-0-1.bmp","fa:fa:sha","Right","39","2","3","3A","C1","C","27"
"","","approach-retreat","176","1207712","0.0-176.0","","","1-4","4806","38","0","Testing","Stims/Figures/74-C-20-4.bmp","za:sa:za","Up","40","2","4","3A","C2","C","28"
"","","approach-retreat","177","1213460","0.0-177.0","","","1-4","4224","37","1","Testing","Stims/Figures/84-J-0-2.bmp","fa:fa:sha","Left","37","2","5","3A","C1","C","29"
"","","approach-retreat","178","1219111","0.0-178.0","","","1-4","4132","40","0","Testing","Stims/Figures/7-J-10-4.bmp","fa:fa:sha","Up","38","2","6","3A","C1","C","30"
"","","approach-retreat","179","1224811","0.0-179.0","","","1-4","4181","37","1","Testing","Stims/Figures/111-C-30-3.bmp","za:sa:za","Right","37","2","7","3A","C2","C","31"
"","","approach-retreat","180","1230451","0.0-180.0","","","1-4","4112","37","0","Testing","Stims/Figures/144-C-30-3.bmp","za:sa:za","Left","39","2","8","3A","C2","C","32"
"","","approach-retreat","181","1236071","0.0-181.0","","","1-4","4105","37","1","Testing","Stims/Figures/128-C-30-3.bmp","za:sa:za","Right","37","2","9","3A","C2","C","33"
"","","approach-retreat","182","1242241","0.0-182.0","","","1-4","4646","38","0","Testing","Stims/Figures/74-J-10-4.bmp","fa:fa:sha","Down","40","2","10","3A","C1","C","34"
"","","approach-retreat","183","1247964","0.0-183.0","","","1-4","4210","40","0","Testing","Stims/Figures/27-C-30-1.bmp","za:sa:za","Down","38","2","11","3A","C2","C","35"
"","","approach-retreat","184","1253592","0.0-184.0","","","1-4","4103","37","0","Testing","Stims/Figures/144-J-10-3.bmp","fa:fa:sha","Right","39","2","12","3A","C1","C","36"
"","","approach-retreat","185","1259382","0.0-185.0","","","1-4","4265","38","1","Testing","Stims/Figures/94-C-20-2.bmp","za:sa:za","Down","38","2","13","3A","C2","C","37"
"","","approach-retreat","186","1265212","0.0-186.0","","","1-4","4315","38","0","Testing","Stims/Figures/128-J-10-3.bmp","fa:fa:sha","Down","40","2","14","3A","C1","C","38"
"","","approach-retreat","187","1270946","0.0-187.0","","","1-4","4226","40","0","Testing","Stims/Figures/93-J-0-1.bmp","fa:fa:sha","Up","38","2","15","3A","C1","C","39"
"","","approach-retreat","188","1276662","0.0-188.0","","","1-4","4200","37","0","Testing","Stims/Figures/7-C-20-4.bmp","za:sa:za","Left","39","2","16","3A","C2","C","40"
"","","approach-retreat","189","1282322","0.0-189.0","","","1-4","4152","37","1","Testing","Stims/Figures/118-C-20-2.bmp","za:sa:za","Right","37","2","17","3A","C2","C","41"
"","","approach-retreat","190","1288083","0.0-190.0","","","1-4","4253","38","0","Testing","Stims/Figures/111-J-10-3.bmp","fa:fa:sha","Down","40","2","18","3A","C1","C","42"
"","","approach-retreat","191","1293973","0.0-191.0","","","1-4","4366","40","0","Testing","Stims/Figures/86-J-0-1.bmp","fa:fa:sha","Up","38","2","19","3A","C1","C","43"
"","","approach-retreat","192","1299853","0.0-192.0","","","1-4","4368","39","0","Testing","Stims/Figures/84-C-20-2.bmp","za:sa:za","Right","37","2","20","3A","C2","C","44"
"","","approach-retreat","193","1305513","0.0-193.0","","","1-4","4136","37","0","Testing","Stims/Figures/86-C-30-1.bmp","za:sa:za","Left","39","2","21","3A","C2","C","45"
"","","approach-retreat","194","1311114","0.0-194.0","","","1-4","4083","37","1","Testing","Stims/Figures/102-J-10-4.bmp","fa:fa:sha","Left","37","2","22","3A","C1","C","46"
"","","approach-retreat","195","1317084","0.0-195.0","","","1-4","4443","38","0","Testing","Stims/Figures/94-J-0-2.bmp","fa:fa:sha","Down","40","2","23","3A","C1","C","47"
"","","approach-retreat","196","1322903","0.0-196.0","","","1-4","4308","40","1","Testing","Stims/Figures/93-C-30-1.bmp","za:sa:za","Up","40","2","24","3A","C2","C","48"
"","","approach-retreat","197","1328684","0.0-197.0","","","1-4","4258","40","0","Testing","Stims/Figures/118-J-0-2.bmp","fa:fa:sha","Up","38","3","1","3A","C1","C","49"
"","","approach-retreat","198","1334694","0.0-198.0","","","1-4","4486","38","1","Testing","Stims/Figures/74-C-20-4.bmp","za:sa:za","Down","38","3","2","3A","C2","C","50"
"","","approach-retreat","199","1340364","0.0-199.0","","","1-4","4147","37","0","Testing","Stims/Figures/27-J-0-1.bmp","fa:fa:sha","Right","39","3","3","3A","C1","C","51"
"","","approach-retreat","200","1346095","0.0-200.0","","","1-4","4218","40","0","Testing","Stims/Figures/84-J-0-2.bmp","fa:fa:sha","Up","38","3","4","3A","C1","C","52"
"","","approach-retreat","201","1352118","0.0-201.0","","","1-4","4516","38","0","Testing","Stims/Figures/86-J-0-1.bmp","fa:fa:sha","Down","40","3","5","3A","C1","C","53"
"","","approach-retreat","202","1357745","0.0-202.0","","","1-4","4116","37","1","Testing","Stims/Figures/144-C-30-3.bmp","za:sa:za","Right","37","3","6","3A","C2","C","54"
"","","approach-retreat","203","1363525","0.0-203.0","","","1-4","4263","40","0","Testing","Stims/Figures/7-J-10-4.bmp","fa:fa:sha","Up","38","3","7","3A","C1","C","55"
"","","approach-retreat","204","1369194","0.0-204.0","","","1-4","4145","40","1","Testing","Stims/Figures/128-C-30-3.bmp","za:sa:za","Up","40","3","8","3A","C2","C","56"
"","","approach-retreat","205","1374837","0.0-205.0","","","1-4","4131","37","0","Testing","Stims/Figures/144-J-10-3.bmp","fa:fa:sha","Right","39","3","9","3A","C1","C","57"
"","","approach-retreat","206","1380686","0.0-206.0","","","1-4","4332","40","1","Testing","Stims/Figures/86-C-30-1.bmp","za:sa:za","Up","40","3","10","3A","C2","C","58"
"","","approach-retreat","207","1386707","0.0-207.0","","","1-4","4492","39","0","Testing","Stims/Figures/74-J-10-4.bmp","fa:fa:sha","Left","37","3","11","3A","C1","C","59"
"","","approach-retreat","208","1392546","0.0-208.0","","","1-4","4312","37","1","Testing","Stims/Figures/128-J-10-3.bmp","fa:fa:sha","Left","37","3","12","3A","C1","C","60"
"","","approach-retreat","209","1398337","0.0-209.0","","","1-4","4270","39","1","Testing","Stims/Figures/94-C-20-2.bmp","za:sa:za","Left","39","3","13","3A","C2","C","61"
"","","approach-retreat","210","1404336","0.0-210.0","","","1-4","4488","37","0","Testing","Stims/Figures/84-C-20-2.bmp","za:sa:za","Left","39","3","14","3A","C2","C","62"
"","","approach-retreat","211","1410057","0.0-211.0","","","1-4","4192","40","1","Testing","Stims/Figures/7-C-20-4.bmp","za:sa:za","Up","40","3","15","3A","C2","C","63"
"","","approach-retreat","212","1415706","0.0-212.0","","","1-4","4140","37","1","Testing","Stims/Figures/102-C-20-4.bmp","za:sa:za","Right","37","3","16","3A","C2","C","64"
"","","approach-retreat","213","1421527","0.0-213.0","","","1-4","4302","38","0","Testing","Stims/Figures/111-J-10-3.bmp","fa:fa:sha","Down","40","3","17","3A","C1","C","65"
"","","approach-retreat","214","1427338","0.0-214.0","","","1-4","4300","38","0","Testing","Stims/Figures/93-J-0-1.bmp","fa:fa:sha","Down","40","3","18","3A","C1","C","66"
"","","approach-retreat","215","1432967","0.0-215.0","","","1-4","4113","37","1","Testing","Stims/Figures/118-C-20-2.bmp","za:sa:za","Right","37","3","19","3A","C2","C","67"
"","","approach-retreat","216","1439017","0.0-216.0","","","1-4","4528","40","0","Testing","Stims/Figures/27-C-30-1.bmp","za:sa:za","Down","38","3","20","3A","C2","C","68"
"","","approach-retreat","217","1444672","0.0-217.0","","","1-4","4138","38","0","Testing","Stims/Figures/102-J-10-4.bmp","fa:fa:sha","Down","40","3","21","3A","C1","C","69"
"","","approach-retreat","218","1450517","0.0-218.0","","","1-4","4324","37","0","Testing","Stims/Figures/111-C-30-3.bmp","za:sa:za","Left","39","3","22","3A","C2","C","70"
"","","approach-retreat","219","1456378","0.0-219.0","","","1-4","4337","37","0","Testing","Stims/Figures/94-J-0-2.bmp","fa:fa:sha","Right","39","3","23","3A","C1","C","71"
"","","approach-retreat","220","1462178","0.0-220.0","","","1-4","4282","37","0","Testing","Stims/Figures/93-C-30-1.bmp","za:sa:za","Left","39","3","24","3A","C2","C","72"
"","","approach-retreat","221","1467728","0.0-221.0","","","1-4","4035","37","1","Testing","Stims/Figures/27-J-0-1.bmp","fa:fa:sha","Left","37","4","1","3A","C1","C","73"
"","","approach-retreat","222","1473638","0.0-222.0","","","1-4","4395","38","0","Testing","Stims/Figures/86-J-0-1.bmp","fa:fa:sha","Down","40","4","2","3A","C1","C","74"
"","","approach-retreat","223","1479458","0.0-223.0","","","1-4","4294","40","1","Testing","Stims/Figures/86-C-30-1.bmp","za:sa:za","Up","40","4","3","3A","C2","C","75"
"","","approach-retreat","224","1485309","0.0-224.0","","","1-4","4339","38","0","Testing","Stims/Figures/74-J-10-4.bmp","fa:fa:sha","Down","40","4","4","3A","C1","C","76"
"","","approach-retreat","225","1491028","0.0-225.0","","","1-4","4197","37","0","Testing","Stims/Figures/7-J-10-4.bmp","fa:fa:sha","Right","39","4","5","3A","C1","C","77"
"","","approach-retreat","226","1496878","0.0-226.0","","","1-4","4326","40","1","Testing","Stims/Figures/118-C-20-2.bmp","za:sa:za","Up","40","4","6","3A","C2","C","78"
"","","approach-retreat","227","1502468","0.0-227.0","","","1-4","4065","40","1","Testing","Stims/Figures/111-C-30-3.bmp","za:sa:za","Up","40","4","7","3A","C2","C","79"
"","","approach-retreat","228","1508379","0.0-228.0","","","1-4","4386","37","0","Testing","Stims/Figures/102-C-20-4.bmp","za:sa:za","Left","39","4","8","3A","C2","C","80"
"","","approach-retreat","229","1515880","0.0-229.0","","","1-4","5991","40","1","Testing","Stims/Figures/74-C-20-4.bmp","za:sa:za","Up","40","4","9","3A","C2","C","81"
"","","approach-retreat","230","1524129","0.0-230.0","","","1-4","6736","38","1","Testing","Stims/Figures/93-J-0-1.bmp","fa:fa:sha","Up","38","4","10","3A","C1","C","82"
"","","approach-retreat","231","1529922","0.0-231.0","","","1-4","4277","38","1","Testing","Stims/Figures/7-C-20-4.bmp","za:sa:za","Down","38","4","11","3A","C2","C","83"
"","","approach-retreat","232","1535600","0.0-232.0","","","1-4","4152","37","0","Testing","Stims/Figures/27-C-30-1.bmp","za:sa:za","Left","39","4","12","3A","C2","C","84"
"","","approach-retreat","233","1541360","0.0-233.0","","","1-4","4245","37","1","Testing","Stims/Figures/84-C-20-2.bmp","za:sa:za","Right","37","4","13","3A","C2","C","85"
"","","approach-retreat","234","1547040","0.0-234.0","","","1-4","4165","37","0","Testing","Stims/Figures/144-J-10-3.bmp","fa:fa:sha","Right","39","4","14","3A","C1","C","86"
"","","approach-retreat","235","1553971","0.0-235.0","","","1-4","5410","37","1","Testing","Stims/Figures/144-C-30-3.bmp","za:sa:za","Right","37","4","15","3A","C2","C","87"
"","","approach-retreat","236","1559901","0.0-236.0","","","1-4","4420","38","0","Testing","Stims/Figures/118-J-0-2.bmp","fa:fa:sha","Down","40","4","16","3A","C1","C","88"
"","","approach-retreat","237","1566200","0.0-237.0","","","1-4","4782","38","0","Testing","Stims/Figures/94-J-0-2.bmp","fa:fa:sha","Down","40","4","17","3A","C1","C","89"
"","","approach-retreat","238","1571911","0.0-238.0","","","1-4","4198","39","1","Testing","Stims/Figures/94-C-20-2.bmp","za:sa:za","Left","39","4","18","3A","C2","C","90"
"","","approach-retreat","239","1577601","0.0-239.0","","","1-4","4178","40","0","Testing","Stims/Figures/84-J-0-2.bmp","fa:fa:sha","Up","38","4","19","3A","C1","C","91"
"","","approach-retreat","240","1583301","0.0-240.0","","","1-4","4185","39","0","Testing","Stims/Figures/111-J-10-3.bmp","fa:fa:sha","Left","37","4","20","3A","C1","C","92"
"","","approach-retreat","241","1589572","0.0-241.0","","","1-4","4757","37","0","Testing","Stims/Figures/102-J-10-4.bmp","fa:fa:sha","Right","39","4","21","3A","C1","C","93"
"","","approach-retreat","242","1595521","0.0-242.0","","","1-4","4431","37","0","Testing","Stims/Figures/128-J-10-3.bmp","fa:fa:sha","Right","39","4","22","3A","C1","C","94"
"","","approach-retreat","243","1601402","0.0-243.0","","","1-4","4354","39","1","Testing","Stims/Figures/93-C-30-1.bmp","za:sa:za","Left","39","4","23","3A","C2","C","95"
"","","approach-retreat","244","1607301","0.0-244.0","","","1-4","4390","38","1","Testing","Stims/Figures/128-C-30-3.bmp","za:sa:za","Down","38","4","24","3A","C2","C","96"
"30522","","survey-text","245","1637839","0.0-245.0","","{""Q0"":""0161/2018""}","","","","","","","","","","","","","","",""
