"rt","key_press","trial_type","trial_index","time_elapsed","internal_node_id","view_history","responses","Id","Rt","ResKeyCode","ResCorr","TrialType2","Image","Label","Location","CorrectResponse","Block","BlockTrial","Condition","LabelType","Subcondition","trialNum"
"24162","32","text","0","24167","0.0-0.0-0.0","","","","","","","","","","","","","","","","",""
"1020695","","instructions","1","1044867","0.0-1.0","[{""page_index"":0,""viewing_time"":1020297}]","","","","","","","","","","","","","","","",""
"73637","","survey-multi-choice","2","1119416","0.0-2.0","","{""Q0"":""Da"",""Q1"":""Da"",""Q2"":""Da"",""Q3"":""Da"",""Q4"":""Da"",""Q5"":""Da""}","","","","","","","","","","","","","","",""
"","","bio","3","1131993","0.0-3.0","","{""age"":""19"",""gender"":""f"",""specify"":""""}","","","","","","","","","","","","","","",""
"","","approach-retreat","4","1166024","0.0-4.0","","","1-3","32483","38","1","Training","Stims/Figures/118-J-0-2.bmp","ta:kata","Up","38","1","1","7","P","C","1"
"","","approach-retreat","5","3238350","0.0-5.0","","","1-3","2070810","39","1","Training","Stims/Figures/85-C-20-2.bmp","taka:ta","Left","39","1","2","7","P","C","2"
"","","approach-retreat","6","3255334","0.0-6.0","","","1-3","15471","40","0","Training","Stims/Figures/57-J-0-1.bmp","ta:ka:ta","Up","38","1","3","7","P","C","3"
"","","approach-retreat","7","3261483","0.0-7.0","","","1-3","4635","38","1","Training","Stims/Figures/87-J-10-4.bmp","na:lala","Up","38","1","4","7","S","C","4"
"","","approach-retreat","8","3267430","0.0-8.0","","","1-3","4440","38","1","Training","Stims/Figures/87-C-20-4.bmp","nala:la","Down","38","1","5","7","S","C","5"
"","","approach-retreat","9","3274444","0.0-9.0","","","1-3","5485","37","0","Training","Stims/Figures/111-C-30-3.bmp","ma:ma:na","Left","39","1","6","7","S","C","6"
"","","approach-retreat","10","3281542","0.0-10.0","","","1-3","5576","37","1","Training","Stims/Figures/85-J-0-2.bmp","tapa:ka","Left","37","1","7","7","P","C","7"
"","","approach-retreat","11","3287747","0.0-11.0","","","1-3","4668","40","0","Training","Stims/Figures/128-C-30-3.bmp","mala:la","Down","38","1","8","7","S","C","8"
"","","approach-retreat","12","3299566","0.0-12.0","","","1-3","10292","39","1","Training","Stims/Figures/111-J-10-3.bmp","ma:lana","Right","39","1","9","7","S","C","9"
"","","approach-retreat","13","3306796","0.0-13.0","","","1-3","5701","38","0","Training","Stims/Figures/118-C-20-2.bmp","takaka","Up","40","1","10","7","P","C","10"
"","","approach-retreat","14","3312916","0.0-14.0","","","1-3","4613","39","0","Training","Stims/Figures/57-C-30-1.bmp","papa:ta","Right","37","1","11","7","P","C","11"
"","","approach-retreat","15","3320831","0.0-15.0","","","1-3","6404","40","1","Training","Stims/Figures/128-J-10-3.bmp","mala:na","Down","40","1","12","7","S","C","12"
"","","approach-retreat","16","3326406","0.0-16.0","","","1-3","4050","40","0","Training","Stims/Figures/74-C-20-4.bmp","mamala","Down","38","1","13","7","S","C","13"
"","","approach-retreat","17","3332337","0.0-17.0","","","1-3","4424","39","0","Training","Stims/Figures/86-C-30-1.bmp","takata","Right","37","1","14","7","P","C","14"
"","","approach-retreat","18","3338348","0.0-18.0","","","1-3","4486","39","1","Training","Stims/Figures/74-J-10-4.bmp","na:lana","Right","39","1","15","7","S","C","15"
"","","approach-retreat","19","3346748","0.0-19.0","","","1-3","6874","37","1","Training","Stims/Figures/86-J-0-1.bmp","pa:pa:ka","Left","37","1","16","7","P","C","16"
"","","approach-retreat","20","3353528","0.0-20.0","","","1-3","5272","39","1","Training","Stims/Figures/85-C-20-2.bmp","taka:ta","Left","39","2","1","7","P","C","17"
"","","approach-retreat","21","3359409","0.0-21.0","","","1-3","4371","40","1","Training","Stims/Figures/57-J-0-1.bmp","ta:ka:ta","Down","40","2","2","7","P","C","18"
"","","approach-retreat","22","3365101","0.0-22.0","","","1-3","4185","40","0","Training","Stims/Figures/128-J-10-3.bmp","mala:na","Up","38","2","3","7","S","C","19"
"","","approach-retreat","23","3376564","0.0-23.0","","","1-3","9957","38","1","Training","Stims/Figures/118-C-20-2.bmp","takaka","Down","38","2","4","7","P","C","20"
"","","approach-retreat","24","3384883","0.0-24.0","","","1-3","6795","38","1","Training","Stims/Figures/85-J-0-2.bmp","tapa:ka","Up","38","2","5","7","P","C","21"
"","","approach-retreat","25","3391445","0.0-25.0","","","1-3","5035","40","1","Training","Stims/Figures/74-C-20-4.bmp","mamala","Up","40","2","6","7","S","C","22"
"","","approach-retreat","26","3412560","0.0-26.0","","","1-3","19609","40","1","Training","Stims/Figures/118-J-0-2.bmp","ta:kata","Down","40","2","7","7","P","C","23"
"","","approach-retreat","27","3418793","0.0-27.0","","","1-3","4708","38","1","Training","Stims/Figures/86-J-0-1.bmp","pa:pa:ka","Up","38","2","8","7","P","C","24"
"","","approach-retreat","28","3424860","0.0-28.0","","","1-3","4560","37","1","Training","Stims/Figures/74-J-10-4.bmp","na:lana","Left","37","2","9","7","S","C","25"
"","","approach-retreat","29","3439118","0.0-29.0","","","1-3","12733","39","1","Training","Stims/Figures/128-C-30-3.bmp","mala:la","Left","39","2","10","7","S","C","26"
"","","approach-retreat","30","3444854","0.0-30.0","","","1-3","4229","39","0","Training","Stims/Figures/57-C-30-1.bmp","papa:ta","Right","37","2","11","7","P","C","27"
"","","approach-retreat","31","3450977","0.0-31.0","","","1-3","4592","37","1","Training","Stims/Figures/86-C-30-1.bmp","takata","Right","37","2","12","7","P","C","28"
"","","approach-retreat","32","3459510","0.0-32.0","","","1-3","7009","39","0","Training","Stims/Figures/111-J-10-3.bmp","ma:lana","Left","37","2","13","7","S","C","29"
"","","approach-retreat","33","3467088","0.0-33.0","","","1-3","6057","39","1","Training","Stims/Figures/87-J-10-4.bmp","na:lala","Right","39","2","14","7","S","C","30"
"","","approach-retreat","34","3475090","0.0-34.0","","","1-3","6479","37","1","Training","Stims/Figures/111-C-30-3.bmp","ma:ma:na","Right","37","2","15","7","S","C","31"
"","","approach-retreat","35","3481550","0.0-35.0","","","1-3","4937","40","0","Training","Stims/Figures/87-C-20-4.bmp","nala:la","Down","38","2","16","7","S","C","32"
"","","approach-retreat","36","3488180","0.0-36.0","","","1-3","5115","37","0","Training","Stims/Figures/74-C-20-4.bmp","mamala","Left","39","3","1","7","S","C","33"
"","","approach-retreat","37","3494137","0.0-37.0","","","1-3","4451","40","1","Training","Stims/Figures/118-J-0-2.bmp","ta:kata","Down","40","3","2","7","P","C","34"
"","","approach-retreat","38","3503097","0.0-38.0","","","1-3","7450","39","1","Training","Stims/Figures/111-C-30-3.bmp","ma:ma:na","Left","39","3","3","7","S","C","35"
"","","approach-retreat","39","3512746","0.0-39.0","","","1-3","8127","39","1","Training","Stims/Figures/74-J-10-4.bmp","na:lana","Right","39","3","4","7","S","C","36"
"","","approach-retreat","40","3519173","0.0-40.0","","","1-3","4920","40","0","Training","Stims/Figures/128-C-30-3.bmp","mala:la","Down","38","3","5","7","S","C","37"
"","","approach-retreat","41","3525679","0.0-41.0","","","1-3","4998","39","1","Training","Stims/Figures/86-J-0-1.bmp","pa:pa:ka","Right","39","3","6","7","P","C","38"
"","","approach-retreat","42","3531582","0.0-42.0","","","1-3","4394","37","1","Training","Stims/Figures/118-C-20-2.bmp","takaka","Right","37","3","7","7","P","C","39"
"","","approach-retreat","43","3539903","0.0-43.0","","","1-3","6814","38","0","Training","Stims/Figures/87-C-20-4.bmp","nala:la","Up","40","3","8","7","S","C","40"
"","","approach-retreat","44","3545586","0.0-44.0","","","1-3","4174","40","0","Training","Stims/Figures/57-J-0-1.bmp","ta:ka:ta","Up","38","3","9","7","P","C","41"
"","","approach-retreat","45","3551955","0.0-45.0","","","1-3","4862","38","1","Training","Stims/Figures/86-C-30-1.bmp","takata","Down","38","3","10","7","P","C","42"
"","","approach-retreat","46","3558321","0.0-46.0","","","1-3","4844","38","0","Training","Stims/Figures/128-J-10-3.bmp","mala:na","Down","40","3","11","7","S","C","43"
"","","approach-retreat","47","3564696","0.0-47.0","","","1-3","4867","39","0","Training","Stims/Figures/85-C-20-2.bmp","taka:ta","Right","37","3","12","7","P","C","44"
"","","approach-retreat","48","3571153","0.0-48.0","","","1-3","4951","39","0","Training","Stims/Figures/87-J-10-4.bmp","na:lala","Left","37","3","13","7","S","C","45"
"","","approach-retreat","49","3579843","0.0-49.0","","","1-3","7183","40","0","Training","Stims/Figures/111-J-10-3.bmp","ma:lana","Up","38","3","14","7","S","C","46"
"","","approach-retreat","50","3586658","0.0-50.0","","","1-3","5308","37","1","Training","Stims/Figures/85-J-0-2.bmp","tapa:ka","Left","37","3","15","7","P","C","47"
"","","approach-retreat","51","3595790","0.0-51.0","","","1-3","7625","40","1","Training","Stims/Figures/57-C-30-1.bmp","papa:ta","Up","40","3","16","7","P","C","48"
"","","approach-retreat","52","3604746","0.0-52.0","","","1-3","7449","39","0","Training","Stims/Figures/87-J-10-4.bmp","na:lala","Left","37","4","1","7","S","C","49"
"","","approach-retreat","53","3610670","0.0-53.0","","","1-3","4419","37","0","Training","Stims/Figures/86-C-30-1.bmp","takata","Left","39","4","2","7","P","C","50"
"","","approach-retreat","54","3616502","0.0-54.0","","","1-3","4325","38","0","Training","Stims/Figures/128-C-30-3.bmp","mala:la","Up","40","4","3","7","S","C","51"
"","","approach-retreat","55","3622766","0.0-55.0","","","1-3","4759","40","0","Training","Stims/Figures/74-C-20-4.bmp","mamala","Down","38","4","4","7","S","C","52"
"","","approach-retreat","56","3628721","0.0-56.0","","","1-3","4449","39","1","Training","Stims/Figures/57-J-0-1.bmp","ta:ka:ta","Right","39","4","5","7","P","C","53"
"","","approach-retreat","57","3639336","0.0-57.0","","","1-3","9109","38","1","Training","Stims/Figures/74-J-10-4.bmp","na:lana","Up","38","4","6","7","S","C","54"
"","","approach-retreat","58","3645245","0.0-58.0","","","1-3","4402","37","1","Training","Stims/Figures/128-J-10-3.bmp","mala:na","Left","37","4","7","7","S","C","55"
"","","approach-retreat","59","3650849","0.0-59.0","","","1-3","4097","39","0","Training","Stims/Figures/57-C-30-1.bmp","papa:ta","Right","37","4","8","7","P","C","56"
"","","approach-retreat","60","3656439","0.0-60.0","","","1-3","4084","39","0","Training","Stims/Figures/118-C-20-2.bmp","takaka","Right","37","4","9","7","P","C","57"
"","","approach-retreat","61","3663685","0.0-61.0","","","1-3","5739","38","0","Training","Stims/Figures/85-J-0-2.bmp","tapa:ka","Down","40","4","10","7","P","C","58"
"","","approach-retreat","62","3669413","0.0-62.0","","","1-3","4198","38","1","Training","Stims/Figures/118-J-0-2.bmp","ta:kata","Up","38","4","11","7","P","C","59"
"","","approach-retreat","63","3675299","0.0-63.0","","","1-3","4378","40","1","Training","Stims/Figures/111-J-10-3.bmp","ma:lana","Down","40","4","12","7","S","C","60"
"","","approach-retreat","64","3685536","0.0-64.0","","","1-3","8730","39","0","Training","Stims/Figures/85-C-20-2.bmp","taka:ta","Right","37","4","13","7","P","C","61"
"","","approach-retreat","65","3691487","0.0-65.0","","","1-3","4427","37","0","Training","Stims/Figures/87-C-20-4.bmp","nala:la","Left","39","4","14","7","S","C","62"
"","","approach-retreat","66","3807988","0.0-66.0","","","1-3","114972","38","0","Training","Stims/Figures/111-C-30-3.bmp","ma:ma:na","Up","40","4","15","7","S","C","63"
"","","approach-retreat","67","3814090","0.0-67.0","","","1-3","4594","40","1","Training","Stims/Figures/86-J-0-1.bmp","pa:pa:ka","Down","40","4","16","7","P","C","64"
"","","approach-retreat","68","3819995","0.0-68.0","","","1-3","4398","37","0","Training","Stims/Figures/118-C-20-2.bmp","takaka","Left","39","5","1","7","P","C","65"
"","","approach-retreat","69","3827038","0.0-69.0","","","1-3","5528","39","1","Training","Stims/Figures/74-J-10-4.bmp","na:lana","Right","39","5","2","7","S","C","66"
"","","approach-retreat","70","3832949","0.0-70.0","","","1-3","4404","40","1","Training","Stims/Figures/57-J-0-1.bmp","ta:ka:ta","Down","40","5","3","7","P","C","67"
"","","approach-retreat","71","3838364","0.0-71.0","","","1-3","3908","39","0","Training","Stims/Figures/85-C-20-2.bmp","taka:ta","Right","37","5","4","7","P","C","68"
"","","approach-retreat","72","3844677","0.0-72.0","","","1-3","4808","37","1","Training","Stims/Figures/111-J-10-3.bmp","ma:lana","Left","37","5","5","7","S","C","69"
"","","approach-retreat","73","3850344","0.0-73.0","","","1-3","4155","38","0","Training","Stims/Figures/86-C-30-1.bmp","takata","Up","40","5","6","7","P","C","70"
"","","approach-retreat","74","3855905","0.0-74.0","","","1-3","4055","38","1","Training","Stims/Figures/118-J-0-2.bmp","ta:kata","Up","38","5","7","7","P","C","71"
"","","approach-retreat","75","3861597","0.0-75.0","","","1-3","4185","37","1","Training","Stims/Figures/128-J-10-3.bmp","mala:na","Left","37","5","8","7","S","C","72"
"","","approach-retreat","76","3867384","0.0-76.0","","","1-3","4257","38","0","Training","Stims/Figures/74-C-20-4.bmp","mamala","Up","40","5","9","7","S","C","73"
"","","approach-retreat","77","3874396","0.0-77.0","","","1-3","5491","39","0","Training","Stims/Figures/111-C-30-3.bmp","ma:ma:na","Right","37","5","10","7","S","C","74"
"","","approach-retreat","78","3880248","0.0-78.0","","","1-3","4346","38","1","Training","Stims/Figures/86-J-0-1.bmp","pa:pa:ka","Up","38","5","11","7","P","C","75"
"","","approach-retreat","79","3885818","0.0-79.0","","","1-3","4066","37","0","Training","Stims/Figures/87-C-20-4.bmp","nala:la","Left","39","5","12","7","S","C","76"
"","","approach-retreat","80","3891571","0.0-80.0","","","1-3","4233","40","1","Training","Stims/Figures/85-J-0-2.bmp","tapa:ka","Down","40","5","13","7","P","C","77"
"","","approach-retreat","81","3897336","0.0-81.0","","","1-3","4243","39","0","Training","Stims/Figures/128-C-30-3.bmp","mala:la","Right","37","5","14","7","S","C","78"
"","","approach-retreat","82","3902982","0.0-82.0","","","1-3","4140","38","1","Training","Stims/Figures/57-C-30-1.bmp","papa:ta","Down","38","5","15","7","P","C","79"
"","","approach-retreat","83","3930819","0.0-83.0","","","1-3","26312","40","1","Training","Stims/Figures/87-J-10-4.bmp","na:lala","Down","40","5","16","7","S","C","80"
"","","approach-retreat","84","3965263","0.0-84.0","","","1-3","32937","38","0","Training","Stims/Figures/118-C-20-2.bmp","takaka","Up","40","6","1","7","P","C","81"
"","","approach-retreat","85","3972969","0.0-85.0","","","1-3","6184","38","0","Training","Stims/Figures/87-C-20-4.bmp","nala:la","Up","40","6","2","7","S","C","82"
"","","approach-retreat","86","3986761","0.0-86.0","","","1-3","12286","38","0","Training","Stims/Figures/118-J-0-2.bmp","ta:kata","Down","40","6","3","7","P","C","83"
"","","approach-retreat","87","3993157","0.0-87.0","","","1-3","4874","39","1","Training","Stims/Figures/85-C-20-2.bmp","taka:ta","Left","39","6","4","7","P","C","84"
"","","approach-retreat","88","3999487","0.0-88.0","","","1-3","4823","39","0","Training","Stims/Figures/74-J-10-4.bmp","na:lana","Left","37","6","5","7","S","C","85"
"","","approach-retreat","89","4006231","0.0-89.0","","","1-3","5237","39","1","Training","Stims/Figures/57-J-0-1.bmp","ta:ka:ta","Right","39","6","6","7","P","C","86"
"","","approach-retreat","90","4012423","0.0-90.0","","","1-3","4686","37","0","Training","Stims/Figures/57-C-30-1.bmp","papa:ta","Left","39","6","7","7","P","C","87"
"","","approach-retreat","91","4018750","0.0-91.0","","","1-3","4806","39","0","Training","Stims/Figures/86-J-0-1.bmp","pa:pa:ka","Left","37","6","8","7","P","C","88"
"","","approach-retreat","92","4026987","0.0-92.0","","","1-3","6723","38","0","Training","Stims/Figures/86-C-30-1.bmp","takata","Up","40","6","9","7","P","C","89"
"","","approach-retreat","93","4033351","0.0-93.0","","","1-3","4857","40","0","Training","Stims/Figures/111-C-30-3.bmp","ma:ma:na","Down","38","6","10","7","S","C","90"
"","","approach-retreat","94","4039230","0.0-94.0","","","1-3","4368","39","1","Training","Stims/Figures/87-J-10-4.bmp","na:lala","Right","39","6","11","7","S","C","91"
"","","approach-retreat","95","4051770","0.0-95.0","","","1-3","11033","40","1","Training","Stims/Figures/85-J-0-2.bmp","tapa:ka","Down","40","6","12","7","P","C","92"
"","","approach-retreat","96","4095965","0.0-96.0","","","1-3","42667","39","0","Training","Stims/Figures/128-C-30-3.bmp","mala:la","Right","37","6","13","7","S","C","93"
"","","approach-retreat","97","4104474","0.0-97.0","","","1-3","6988","38","1","Training","Stims/Figures/128-J-10-3.bmp","mala:na","Up","38","6","14","7","S","C","94"
"","","approach-retreat","98","4110981","0.0-98.0","","","1-3","5000","39","0","Training","Stims/Figures/74-C-20-4.bmp","mamala","Right","37","6","15","7","S","C","95"
"","","approach-retreat","99","4121194","0.0-99.0","","","1-3","8687","40","1","Training","Stims/Figures/111-J-10-3.bmp","ma:lana","Down","40","6","16","7","S","C","96"
"","","approach-retreat","100","4127680","0.0-100.0","","","1-3","4979","40","1","Training","Stims/Figures/118-J-0-2.bmp","ta:kata","Down","40","7","1","7","P","C","97"
"","","approach-retreat","101","4134049","0.0-101.0","","","1-3","4851","37","1","Training","Stims/Figures/74-J-10-4.bmp","na:lana","Left","37","7","2","7","S","C","98"
"","","approach-retreat","102","4140895","0.0-102.0","","","1-3","5324","39","0","Training","Stims/Figures/85-C-20-2.bmp","taka:ta","Right","37","7","3","7","P","C","99"
"","","approach-retreat","103","4147303","0.0-103.0","","","1-3","4887","39","1","Training","Stims/Figures/87-J-10-4.bmp","na:lala","Right","39","7","4","7","S","C","100"
"","","approach-retreat","104","4157631","0.0-104.0","","","1-3","8812","40","1","Training","Stims/Figures/87-C-20-4.bmp","nala:la","Up","40","7","5","7","S","C","101"
"","","approach-retreat","105","4164111","0.0-105.0","","","1-3","4955","40","0","Training","Stims/Figures/57-J-0-1.bmp","ta:ka:ta","Up","38","7","6","7","P","C","102"
"","","approach-retreat","106","4170243","0.0-106.0","","","1-3","4610","40","0","Training","Stims/Figures/128-J-10-3.bmp","mala:na","Up","38","7","7","7","S","C","103"
"","","approach-retreat","107","4176423","0.0-107.0","","","1-3","4658","40","1","Training","Stims/Figures/85-J-0-2.bmp","tapa:ka","Down","40","7","8","7","P","C","104"
"","","approach-retreat","108","4183202","0.0-108.0","","","1-3","5257","38","0","Training","Stims/Figures/128-C-30-3.bmp","mala:la","Up","40","7","9","7","S","C","105"
"","","approach-retreat","109","4188805","0.0-109.0","","","1-3","4082","40","1","Training","Stims/Figures/111-J-10-3.bmp","ma:lana","Down","40","7","10","7","S","C","106"
"","","approach-retreat","110","4194472","0.0-110.0","","","1-3","4156","40","1","Training","Stims/Figures/86-J-0-1.bmp","pa:pa:ka","Down","40","7","11","7","P","C","107"
"","","approach-retreat","111","4200932","0.0-111.0","","","1-3","4938","39","1","Training","Stims/Figures/111-C-30-3.bmp","ma:ma:na","Left","39","7","12","7","S","C","108"
"","","approach-retreat","112","4206750","0.0-112.0","","","1-3","4310","37","0","Training","Stims/Figures/74-C-20-4.bmp","mamala","Left","39","7","13","7","S","C","109"
"","","approach-retreat","113","4212243","0.0-113.0","","","1-3","3984","39","0","Training","Stims/Figures/118-C-20-2.bmp","takaka","Right","37","7","14","7","P","C","110"
"","","approach-retreat","114","4217809","0.0-114.0","","","1-3","4059","37","0","Training","Stims/Figures/86-C-30-1.bmp","takata","Left","39","7","15","7","P","C","111"
"","","approach-retreat","115","4223762","0.0-115.0","","","1-3","4447","39","0","Training","Stims/Figures/57-C-30-1.bmp","papa:ta","Right","37","7","16","7","P","C","112"
"","","approach-retreat","116","4229205","0.0-116.0","","","1-3","3934","37","0","Training","Stims/Figures/85-C-20-2.bmp","taka:ta","Left","39","8","1","7","P","C","113"
"","","approach-retreat","117","4234783","0.0-117.0","","","1-3","4069","39","1","Training","Stims/Figures/85-J-0-2.bmp","tapa:ka","Right","39","8","2","7","P","C","114"
"","","approach-retreat","118","4241612","0.0-118.0","","","1-3","5322","39","1","Training","Stims/Figures/111-J-10-3.bmp","ma:lana","Right","39","8","3","7","S","C","115"
"","","approach-retreat","119","4248044","0.0-119.0","","","1-3","4915","38","1","Training","Stims/Figures/128-J-10-3.bmp","mala:na","Up","38","8","4","7","S","C","116"
"","","approach-retreat","120","4259217","0.0-120.0","","","1-3","9650","39","0","Training","Stims/Figures/87-C-20-4.bmp","nala:la","Right","37","8","5","7","S","C","117"
"","","approach-retreat","121","4266733","0.0-121.0","","","1-3","5997","38","0","Training","Stims/Figures/118-C-20-2.bmp","takaka","Up","40","8","6","7","P","C","118"
"","","approach-retreat","122","4272911","0.0-122.0","","","1-3","4669","40","0","Training","Stims/Figures/111-C-30-3.bmp","ma:ma:na","Down","38","8","7","7","S","C","119"
"","","approach-retreat","123","4316232","0.0-123.0","","","1-3","41797","37","0","Training","Stims/Figures/74-C-20-4.bmp","mamala","Left","39","8","8","7","S","C","120"
"","","approach-retreat","124","4321953","0.0-124.0","","","1-3","4217","40","0","Training","Stims/Figures/86-C-30-1.bmp","takata","Down","38","8","9","7","P","C","121"
"","","approach-retreat","125","4327458","0.0-125.0","","","1-3","4000","38","0","Training","Stims/Figures/57-J-0-1.bmp","ta:ka:ta","Down","40","8","10","7","P","C","122"
"","","approach-retreat","126","4333274","0.0-126.0","","","1-3","4298","39","1","Training","Stims/Figures/74-J-10-4.bmp","na:lana","Right","39","8","11","7","S","C","123"
"","","approach-retreat","127","4339376","0.0-127.0","","","1-3","4594","39","0","Training","Stims/Figures/118-J-0-2.bmp","ta:kata","Left","37","8","12","7","P","C","124"
"","","approach-retreat","128","4345027","0.0-128.0","","","1-3","4146","37","1","Training","Stims/Figures/86-J-0-1.bmp","pa:pa:ka","Left","37","8","13","7","P","C","125"
"","","approach-retreat","129","4350704","0.0-129.0","","","1-3","4172","40","1","Training","Stims/Figures/57-C-30-1.bmp","papa:ta","Up","40","8","14","7","P","C","126"
"","","approach-retreat","130","4357720","0.0-130.0","","","1-3","5511","38","1","Training","Stims/Figures/87-J-10-4.bmp","na:lala","Up","38","8","15","7","S","C","127"
"","","approach-retreat","131","4363411","0.0-131.0","","","1-3","4183","40","0","Training","Stims/Figures/128-C-30-3.bmp","mala:la","Down","38","8","16","7","S","C","128"
"","","approach-retreat","132","4369161","0.0-132.0","","","1-3","4245","37","1","Training","Stims/Figures/87-J-10-4.bmp","na:lala","Left","37","9","1","7","S","C","129"
"","","approach-retreat","133","4374924","0.0-133.0","","","1-3","4257","40","0","Training","Stims/Figures/85-C-20-2.bmp","taka:ta","Down","38","9","2","7","P","C","130"
"","","approach-retreat","134","4385192","0.0-134.0","","","1-3","8763","39","1","Training","Stims/Figures/118-J-0-2.bmp","ta:kata","Right","39","9","3","7","P","C","131"
"","","approach-retreat","135","4391228","0.0-135.0","","","1-3","4507","37","0","Training","Stims/Figures/128-C-30-3.bmp","mala:la","Left","39","9","4","7","S","C","132"
"","","approach-retreat","136","4397104","0.0-136.0","","","1-3","4368","38","1","Training","Stims/Figures/86-J-0-1.bmp","pa:pa:ka","Up","38","9","5","7","P","C","133"
"","","approach-retreat","137","4402881","0.0-137.0","","","1-3","4271","39","0","Training","Stims/Figures/86-C-30-1.bmp","takata","Right","37","9","6","7","P","C","134"
"","","approach-retreat","138","4409269","0.0-138.0","","","1-3","4882","39","0","Training","Stims/Figures/74-C-20-4.bmp","mamala","Right","37","9","7","7","S","C","135"
"","","approach-retreat","139","4415224","0.0-139.0","","","1-3","4445","39","0","Training","Stims/Figures/57-C-30-1.bmp","papa:ta","Right","37","9","8","7","P","C","136"
"","","approach-retreat","140","4421325","0.0-140.0","","","1-3","4593","40","0","Training","Stims/Figures/111-J-10-3.bmp","ma:lana","Up","38","9","9","7","S","C","137"
"","","approach-retreat","141","4427385","0.0-141.0","","","1-3","4546","40","1","Training","Stims/Figures/74-J-10-4.bmp","na:lana","Down","40","9","10","7","S","C","138"
"","","approach-retreat","142","4433729","0.0-142.0","","","1-3","4836","40","1","Training","Stims/Figures/57-J-0-1.bmp","ta:ka:ta","Down","40","9","11","7","P","C","139"
"","","approach-retreat","143","4439484","0.0-143.0","","","1-3","4248","37","0","Training","Stims/Figures/87-C-20-4.bmp","nala:la","Left","39","9","12","7","S","C","140"
"","","approach-retreat","144","4445265","0.0-144.0","","","1-3","4273","38","0","Training","Stims/Figures/118-C-20-2.bmp","takaka","Up","40","9","13","7","P","C","141"
"","","approach-retreat","145","4451067","0.0-145.0","","","1-3","4295","38","0","Training","Stims/Figures/111-C-30-3.bmp","ma:ma:na","Up","40","9","14","7","S","C","142"
"","","approach-retreat","146","4461424","0.0-146.0","","","1-3","8849","37","1","Training","Stims/Figures/85-J-0-2.bmp","tapa:ka","Left","37","9","15","7","P","C","143"
"","","approach-retreat","147","4471054","0.0-147.0","","","1-3","8120","40","1","Training","Stims/Figures/128-J-10-3.bmp","mala:na","Down","40","9","16","7","S","C","144"
"34747","","instructions","148","4505802","0.0-148.0","[{""page_index"":0,""viewing_time"":34739}]","","","","","","","","","","","","","","","",""
"","","approach-retreat","149","4515037","0.0-149.0","","","1-3","7718","39","0","Testing","Stims/Figures/57-C-30-1.bmp","papa:ta","Right","37","1","1","7","P","C","1"
"","","approach-retreat","150","4520685","0.0-150.0","","","1-3","4132","39","1","Testing","Stims/Figures/111-J-10-3.bmp","ma:lana","Right","39","1","2","7","S","C","2"
"","","approach-retreat","151","4527296","0.0-151.0","","","1-3","5090","37","0","Testing","Stims/Figures/128-C-30-3.bmp","mala:la","Left","39","1","3","7","S","C","3"
"","","approach-retreat","152","4533282","0.0-152.0","","","1-3","4471","39","0","Testing","Stims/Figures/118-C-20-2.bmp","takaka","Right","37","1","4","7","P","C","4"
"","","approach-retreat","153","4539015","0.0-153.0","","","1-3","4218","40","1","Testing","Stims/Figures/86-J-0-1.bmp","pa:pa:ka","Down","40","1","5","7","P","C","5"
"","","approach-retreat","154","4545099","0.0-154.0","","","1-3","4577","40","1","Testing","Stims/Figures/57-J-0-1.bmp","ta:ka:ta","Down","40","1","6","7","P","C","6"
"","","approach-retreat","155","4550664","0.0-155.0","","","1-3","4032","40","1","Testing","Stims/Figures/87-J-10-4.bmp","na:lala","Down","40","1","7","7","S","C","7"
"","","approach-retreat","156","4560035","0.0-156.0","","","1-3","7866","38","1","Testing","Stims/Figures/128-J-10-3.bmp","mala:na","Up","38","1","8","7","S","C","8"
"","","approach-retreat","157","4573104","0.0-157.0","","","1-3","11547","38","0","Testing","Stims/Figures/74-C-20-4.bmp","mamala","Up","40","1","9","7","S","C","9"
"","","approach-retreat","158","4592534","0.0-158.0","","","1-3","17909","37","0","Testing","Stims/Figures/111-C-30-3.bmp","ma:ma:na","Left","39","1","10","7","S","C","10"
"","","approach-retreat","159","4600785","0.0-159.0","","","1-3","6740","39","0","Testing","Stims/Figures/27-C-30-1.bmp","pa:kata","Right","37","1","11","7","P","C","11"
"","","approach-retreat","160","4624404","0.0-160.0","","","1-3","22110","39","1","Testing","Stims/Figures/27-J-0-1.bmp","ta:pata","Right","39","1","12","7","P","C","12"
"","","approach-retreat","161","4630934","0.0-161.0","","","1-3","5018","37","1","Testing","Stims/Figures/85-J-0-2.bmp","tapa:ka","Left","37","1","13","7","P","C","13"
"","","approach-retreat","162","4637135","0.0-162.0","","","1-3","4682","38","0","Testing","Stims/Figures/94-C-20-2.bmp","pa:ka:ka","Up","40","1","14","7","P","C","14"
"","","approach-retreat","163","4643008","0.0-163.0","","","1-3","4363","40","1","Testing","Stims/Figures/102-J-10-4.bmp","ma:mana","Down","40","1","15","7","S","C","15"
"","","approach-retreat","164","4648724","0.0-164.0","","","1-3","4196","37","0","Testing","Stims/Figures/86-C-30-1.bmp","takata","Left","39","1","16","7","P","C","16"
"","","approach-retreat","165","4655345","0.0-165.0","","","1-3","5108","38","0","Testing","Stims/Figures/85-C-20-2.bmp","taka:ta","Up","40","1","17","7","P","C","17"
"","","approach-retreat","166","4661515","0.0-166.0","","","1-3","4660","38","0","Testing","Stims/Figures/87-C-20-4.bmp","nala:la","Up","40","1","18","7","S","C","18"
"","","approach-retreat","167","4667551","0.0-167.0","","","1-3","4529","40","1","Testing","Stims/Figures/74-J-10-4.bmp","na:lana","Down","40","1","19","7","S","C","19"
"","","approach-retreat","168","4673725","0.0-168.0","","","1-3","4659","37","1","Testing","Stims/Figures/144-J-10-3.bmp","malala","Left","37","1","20","7","S","C","20"
"","","approach-retreat","169","4715827","0.0-169.0","","","1-3","40576","37","1","Testing","Stims/Figures/94-J-0-2.bmp","ta:pa:ta","Left","37","1","21","7","P","C","21"
"","","approach-retreat","170","4721543","0.0-170.0","","","1-3","4199","39","0","Testing","Stims/Figures/102-C-20-4.bmp","nala:na","Right","37","1","22","7","S","C","22"
"","","approach-retreat","171","4741326","0.0-171.0","","","1-3","18263","40","1","Testing","Stims/Figures/118-J-0-2.bmp","ta:kata","Down","40","1","23","7","P","C","23"
"","","approach-retreat","172","4749777","0.0-172.0","","","1-3","6932","38","0","Testing","Stims/Figures/144-C-30-3.bmp","na:ma:la","Up","40","1","24","7","S","C","24"
"","","approach-retreat","173","4755577","0.0-173.0","","","1-3","4295","40","1","Testing","Stims/Figures/94-J-0-2.bmp","ta:pa:ta","Down","40","2","1","7","P","C","25"
"","","approach-retreat","174","4761415","0.0-174.0","","","1-3","4332","38","1","Testing","Stims/Figures/27-J-0-1.bmp","ta:pata","Up","38","2","2","7","P","C","26"
"","","approach-retreat","175","4767286","0.0-175.0","","","1-3","4359","37","0","Testing","Stims/Figures/94-C-20-2.bmp","pa:ka:ka","Left","39","2","3","7","P","C","27"
"","","approach-retreat","176","4773081","0.0-176.0","","","1-3","4289","37","0","Testing","Stims/Figures/74-C-20-4.bmp","mamala","Left","39","2","4","7","S","C","28"
"","","approach-retreat","177","4781845","0.0-177.0","","","1-3","7247","39","0","Testing","Stims/Figures/118-C-20-2.bmp","takaka","Right","37","2","5","7","P","C","29"
"","","approach-retreat","178","4787582","0.0-178.0","","","1-3","4231","39","0","Testing","Stims/Figures/128-J-10-3.bmp","mala:na","Left","37","2","6","7","S","C","30"
"","","approach-retreat","179","4796285","0.0-179.0","","","1-3","7190","39","1","Testing","Stims/Figures/57-J-0-1.bmp","ta:ka:ta","Right","39","2","7","7","P","C","31"
"","","approach-retreat","180","4804745","0.0-180.0","","","1-3","6944","39","0","Testing","Stims/Figures/85-C-20-2.bmp","taka:ta","Right","37","2","8","7","P","C","32"
"","","approach-retreat","181","4810903","0.0-181.0","","","1-3","4652","40","1","Testing","Stims/Figures/144-J-10-3.bmp","malala","Down","40","2","9","7","S","C","33"
"","","approach-retreat","182","4816735","0.0-182.0","","","1-3","4321","38","1","Testing","Stims/Figures/85-J-0-2.bmp","tapa:ka","Up","38","2","10","7","P","C","34"
"","","approach-retreat","183","4822706","0.0-183.0","","","1-3","4466","37","1","Testing","Stims/Figures/74-J-10-4.bmp","na:lana","Left","37","2","11","7","S","C","35"
"","","approach-retreat","184","4828154","0.0-184.0","","","1-3","3932","39","0","Testing","Stims/Figures/57-C-30-1.bmp","papa:ta","Right","37","2","12","7","P","C","36"
"","","approach-retreat","185","4833779","0.0-185.0","","","1-3","4118","38","1","Testing","Stims/Figures/111-J-10-3.bmp","ma:lana","Up","38","2","13","7","S","C","37"
"","","approach-retreat","186","4840472","0.0-186.0","","","1-3","5173","40","0","Testing","Stims/Figures/86-C-30-1.bmp","takata","Down","38","2","14","7","P","C","38"
"","","approach-retreat","187","4846885","0.0-187.0","","","1-3","4905","39","1","Testing","Stims/Figures/27-C-30-1.bmp","pa:kata","Left","39","2","15","7","P","C","39"
"","","approach-retreat","188","4852614","0.0-188.0","","","1-3","4207","39","0","Testing","Stims/Figures/128-C-30-3.bmp","mala:la","Right","37","2","16","7","S","C","40"
"","","approach-retreat","189","4858505","0.0-189.0","","","1-3","4371","40","0","Testing","Stims/Figures/87-C-20-4.bmp","nala:la","Down","38","2","17","7","S","C","41"
"","","approach-retreat","190","4864215","0.0-190.0","","","1-3","4202","38","0","Testing","Stims/Figures/144-C-30-3.bmp","na:ma:la","Up","40","2","18","7","S","C","42"
"","","approach-retreat","191","4869796","0.0-191.0","","","1-3","4065","38","0","Testing","Stims/Figures/102-C-20-4.bmp","nala:na","Up","40","2","19","7","S","C","43"
"","","approach-retreat","192","4875480","0.0-192.0","","","1-3","4179","38","0","Testing","Stims/Figures/111-C-30-3.bmp","ma:ma:na","Up","40","2","20","7","S","C","44"
"","","approach-retreat","193","4880998","0.0-193.0","","","1-3","4003","39","1","Testing","Stims/Figures/102-J-10-4.bmp","ma:mana","Right","39","2","21","7","S","C","45"
"","","approach-retreat","194","4886800","0.0-194.0","","","1-3","4298","37","1","Testing","Stims/Figures/87-J-10-4.bmp","na:lala","Left","37","2","22","7","S","C","46"
"","","approach-retreat","195","4893201","0.0-195.0","","","1-3","4893","40","1","Testing","Stims/Figures/118-J-0-2.bmp","ta:kata","Down","40","2","23","7","P","C","47"
"","","approach-retreat","196","4899047","0.0-196.0","","","1-3","4326","40","1","Testing","Stims/Figures/86-J-0-1.bmp","pa:pa:ka","Down","40","2","24","7","P","C","48"
"","","approach-retreat","197","4904896","0.0-197.0","","","1-3","4329","40","0","Testing","Stims/Figures/111-C-30-3.bmp","ma:ma:na","Down","38","3","1","7","S","C","49"
"","","approach-retreat","198","4910678","0.0-198.0","","","1-3","4275","39","0","Testing","Stims/Figures/85-C-20-2.bmp","taka:ta","Right","37","3","2","7","P","C","50"
"","","approach-retreat","199","4916318","0.0-199.0","","","1-3","4121","39","1","Testing","Stims/Figures/87-J-10-4.bmp","na:lala","Right","39","3","3","7","S","C","51"
"","","approach-retreat","200","4922093","0.0-200.0","","","1-3","4265","39","0","Testing","Stims/Figures/102-J-10-4.bmp","ma:mana","Left","37","3","4","7","S","C","52"
"","","approach-retreat","201","4927778","0.0-201.0","","","1-3","4180","39","1","Testing","Stims/Figures/118-J-0-2.bmp","ta:kata","Right","39","3","5","7","P","C","53"
"","","approach-retreat","202","4933645","0.0-202.0","","","1-3","4351","38","0","Testing","Stims/Figures/144-C-30-3.bmp","na:ma:la","Up","40","3","6","7","S","C","54"
"","","approach-retreat","203","4939235","0.0-203.0","","","1-3","4073","39","1","Testing","Stims/Figures/94-C-20-2.bmp","pa:ka:ka","Left","39","3","7","7","P","C","55"
"","","approach-retreat","204","4945405","0.0-204.0","","","1-3","4649","39","0","Testing","Stims/Figures/128-C-30-3.bmp","mala:la","Right","37","3","8","7","S","C","56"
"","","approach-retreat","205","4951235","0.0-205.0","","","1-3","4319","38","1","Testing","Stims/Figures/85-J-0-2.bmp","tapa:ka","Up","38","3","9","7","P","C","57"
"","","approach-retreat","206","4993707","0.0-206.0","","","1-3","40962","40","0","Testing","Stims/Figures/86-C-30-1.bmp","takata","Down","38","3","10","7","P","C","58"
"","","approach-retreat","207","5107672","0.0-207.0","","","1-3","112447","38","0","Testing","Stims/Figures/87-C-20-4.bmp","nala:la","Up","40","3","11","7","S","C","59"
"","","approach-retreat","208","5113372","0.0-208.0","","","1-3","4193","40","1","Testing","Stims/Figures/128-J-10-3.bmp","mala:na","Down","40","3","12","7","S","C","60"
"","","approach-retreat","209","5119065","0.0-209.0","","","1-3","4171","40","0","Testing","Stims/Figures/118-C-20-2.bmp","takaka","Down","38","3","13","7","P","C","61"
"","","approach-retreat","210","5126655","0.0-210.0","","","1-3","6077","40","1","Testing","Stims/Figures/27-C-30-1.bmp","pa:kata","Up","40","3","14","7","P","C","62"
"","","approach-retreat","211","5132534","0.0-211.0","","","1-3","4369","39","1","Testing","Stims/Figures/74-C-20-4.bmp","mamala","Left","39","3","15","7","S","C","63"
"","","approach-retreat","212","5138556","0.0-212.0","","","1-3","4502","39","1","Testing","Stims/Figures/27-J-0-1.bmp","ta:pata","Right","39","3","16","7","P","C","64"
"","","approach-retreat","213","5146147","0.0-213.0","","","1-3","6085","37","1","Testing","Stims/Figures/86-J-0-1.bmp","pa:pa:ka","Left","37","3","17","7","P","C","65"
"","","approach-retreat","214","5152368","0.0-214.0","","","1-3","4715","39","1","Testing","Stims/Figures/94-J-0-2.bmp","ta:pa:ta","Right","39","3","18","7","P","C","66"
"","","approach-retreat","215","5158365","0.0-215.0","","","1-3","4487","40","0","Testing","Stims/Figures/74-J-10-4.bmp","na:lana","Up","38","3","19","7","S","C","67"
"","","approach-retreat","216","5165596","0.0-216.0","","","1-3","5725","40","1","Testing","Stims/Figures/111-J-10-3.bmp","ma:lana","Down","40","3","20","7","S","C","68"
"","","approach-retreat","217","5171326","0.0-217.0","","","1-3","4212","40","1","Testing","Stims/Figures/144-J-10-3.bmp","malala","Down","40","3","21","7","S","C","69"
"","","approach-retreat","218","5176968","0.0-218.0","","","1-3","4135","39","1","Testing","Stims/Figures/57-C-30-1.bmp","papa:ta","Left","39","3","22","7","P","C","70"
"","","approach-retreat","219","5182565","0.0-219.0","","","1-3","4090","38","0","Testing","Stims/Figures/102-C-20-4.bmp","nala:na","Up","40","3","23","7","S","C","71"
"","","approach-retreat","220","5188555","0.0-220.0","","","1-3","4463","37","1","Testing","Stims/Figures/57-J-0-1.bmp","ta:ka:ta","Left","37","3","24","7","P","C","72"
"","","approach-retreat","221","5194115","0.0-221.0","","","1-3","4046","38","1","Testing","Stims/Figures/27-J-0-1.bmp","ta:pata","Up","38","4","1","7","P","C","73"
"","","approach-retreat","222","5199658","0.0-222.0","","","1-3","4027","38","0","Testing","Stims/Figures/27-C-30-1.bmp","pa:kata","Up","40","4","2","7","P","C","74"
"","","approach-retreat","223","5205366","0.0-223.0","","","1-3","4200","40","1","Testing","Stims/Figures/128-J-10-3.bmp","mala:na","Down","40","4","3","7","S","C","75"
"","","approach-retreat","224","5210909","0.0-224.0","","","1-3","4014","39","0","Testing","Stims/Figures/57-C-30-1.bmp","papa:ta","Right","37","4","4","7","P","C","76"
"","","approach-retreat","225","5218306","0.0-225.0","","","1-3","5880","37","0","Testing","Stims/Figures/128-C-30-3.bmp","mala:la","Left","39","4","5","7","S","C","77"
"","","approach-retreat","226","5224665","0.0-226.0","","","1-3","4849","40","1","Testing","Stims/Figures/85-J-0-2.bmp","tapa:ka","Down","40","4","6","7","P","C","78"
"","","approach-retreat","227","5230515","0.0-227.0","","","1-3","4344","38","1","Testing","Stims/Figures/87-C-20-4.bmp","nala:la","Down","38","4","7","7","S","C","79"
"","","approach-retreat","228","5236216","0.0-228.0","","","1-3","4195","39","1","Testing","Stims/Figures/87-J-10-4.bmp","na:lala","Right","39","4","8","7","S","C","80"
"","","approach-retreat","229","5241725","0.0-229.0","","","1-3","3975","38","0","Testing","Stims/Figures/102-C-20-4.bmp","nala:na","Up","40","4","9","7","S","C","81"
"","","approach-retreat","230","5247737","0.0-230.0","","","1-3","4507","40","0","Testing","Stims/Figures/94-C-20-2.bmp","pa:ka:ka","Down","38","4","10","7","P","C","82"
"","","approach-retreat","231","5255905","0.0-231.0","","","1-3","6648","38","0","Testing","Stims/Figures/144-C-30-3.bmp","na:ma:la","Up","40","4","11","7","S","C","83"
"","","approach-retreat","232","5266936","0.0-232.0","","","1-3","9525","39","0","Testing","Stims/Figures/144-J-10-3.bmp","malala","Left","37","4","12","7","S","C","84"
"","","approach-retreat","233","5273055","0.0-233.0","","","1-3","4598","38","1","Testing","Stims/Figures/94-J-0-2.bmp","ta:pa:ta","Up","38","4","13","7","P","C","85"
"","","approach-retreat","234","5279576","0.0-234.0","","","1-3","5009","39","0","Testing","Stims/Figures/85-C-20-2.bmp","taka:ta","Right","37","4","14","7","P","C","86"
"","","approach-retreat","235","5300094","0.0-235.0","","","1-3","19003","39","0","Testing","Stims/Figures/74-J-10-4.bmp","na:lana","Left","37","4","15","7","S","C","87"
"","","approach-retreat","236","5305555","0.0-236.0","","","1-3","3956","39","0","Testing","Stims/Figures/111-C-30-3.bmp","ma:ma:na","Right","37","4","16","7","S","C","88"
"","","approach-retreat","237","5324731","0.0-237.0","","","1-3","17669","37","1","Testing","Stims/Figures/57-J-0-1.bmp","ta:ka:ta","Left","37","4","17","7","P","C","89"
"","","approach-retreat","238","5331755","0.0-238.0","","","1-3","5519","40","0","Testing","Stims/Figures/74-C-20-4.bmp","mamala","Down","38","4","18","7","S","C","90"
"","","approach-retreat","239","5337612","0.0-239.0","","","1-3","4338","37","1","Testing","Stims/Figures/118-J-0-2.bmp","ta:kata","Left","37","4","19","7","P","C","91"
"","","approach-retreat","240","5343466","0.0-240.0","","","1-3","4341","40","1","Testing","Stims/Figures/102-J-10-4.bmp","ma:mana","Down","40","4","20","7","S","C","92"
"","","approach-retreat","241","5349265","0.0-241.0","","","1-3","4276","37","1","Testing","Stims/Figures/111-J-10-3.bmp","ma:lana","Left","37","4","21","7","S","C","93"
"","","approach-retreat","242","5362326","0.0-242.0","","","1-3","11543","39","0","Testing","Stims/Figures/118-C-20-2.bmp","takaka","Right","37","4","22","7","P","C","94"
"","","approach-retreat","243","5376196","0.0-243.0","","","1-3","12355","39","0","Testing","Stims/Figures/86-C-30-1.bmp","takata","Right","37","4","23","7","P","C","95"
"","","approach-retreat","244","5384218","0.0-244.0","","","1-3","6516","38","1","Testing","Stims/Figures/86-J-0-1.bmp","pa:pa:ka","Up","38","4","24","7","P","C","96"
"20362","","survey-text","245","5404595","0.0-245.0","","{""Q0"":""""}","","","","","","","","","","","","","","",""
