"rt","key_press","trial_type","trial_index","time_elapsed","internal_node_id","view_history","responses","Id","Rt","ResKeyCode","ResCorr","TrialType2","Image","Label","Location","CorrectResponse","Block","BlockTrial","Condition","LabelType","Subcondition","trialNum"
"171369","32","text","0","171374","0.0-0.0-0.0","","","","","","","","","","","","","","","","",""
"1572","","instructions","1","172950","0.0-1.0","[{""page_index"":0,""viewing_time"":1571}]","","","","","","","","","","","","","","","",""
"92353","","survey-multi-choice","2","265397","0.0-2.0","","{""Q0"":""Da"",""Q1"":""Da"",""Q2"":""Da"",""Q3"":""Da"",""Q4"":""Da"",""Q5"":""Da""}","","","","","","","","","","","","","","",""
"","","bio","3","318981","0.0-3.0","","{""age"":""20"",""gender"":""f"",""specify"":""""}","","","","","","","","","","","","","","",""
"","","approach-retreat","4","350560","0.0-4.0","","","1-2","30065","39","1","Training","Stims/Figures/100-C-30-3.bmp","sa:sa:za","Right","39","1","1","3A","C2","J","1"
"","","approach-retreat","5","357768","0.0-5.0","","","1-2","5694","40","0","Training","Stims/Figures/27-J-0-1.bmp","va:fava","Down","38","1","2","3A","C1","J","2"
"","","approach-retreat","6","365739","0.0-6.0","","","1-2","6461","40","1","Training","Stims/Figures/7-J-10-4.bmp","va:fava","Up","40","1","3","3A","C1","J","3"
"","","approach-retreat","7","372478","0.0-7.0","","","1-2","5229","40","0","Training","Stims/Figures/118-C-20-2.bmp","sa:sa:za","Up","38","1","4","3A","C2","J","4"
"","","approach-retreat","8","379380","0.0-8.0","","","1-2","5391","39","0","Training","Stims/Figures/102-C-20-4.bmp","sa:sa:za","Left","37","1","5","3A","C2","J","5"
"","","approach-retreat","9","384880","0.0-9.0","","","1-2","3989","37","1","Training","Stims/Figures/7-C-20-4.bmp","sa:sa:za","Left","37","1","6","3A","C2","J","6"
"","","approach-retreat","10","391671","0.0-10.0","","","1-2","5279","37","0","Training","Stims/Figures/93-J-0-1.bmp","va:fava","Left","39","1","7","3A","C1","J","7"
"","","approach-retreat","11","398463","0.0-11.0","","","1-2","5279","38","0","Training","Stims/Figures/102-J-10-4.bmp","va:fava","Up","40","1","8","3A","C1","J","8"
"","","approach-retreat","12","406609","0.0-12.0","","","1-2","6637","40","0","Training","Stims/Figures/144-J-10-3.bmp","va:fava","Down","38","1","9","3A","C1","J","9"
"","","approach-retreat","13","415416","0.0-13.0","","","1-2","7295","38","0","Training","Stims/Figures/93-C-30-1.bmp","sa:sa:za","Down","40","1","10","3A","C2","J","10"
"","","approach-retreat","14","422751","0.0-14.0","","","1-2","5824","37","0","Training","Stims/Figures/84-C-20-2.bmp","sa:sa:za","Right","39","1","11","3A","C2","J","11"
"","","approach-retreat","15","428568","0.0-15.0","","","1-2","4305","39","0","Training","Stims/Figures/84-J-0-2.bmp","va:fava","Right","37","1","12","3A","C1","J","12"
"","","approach-retreat","16","434892","0.0-16.0","","","1-2","4816","38","1","Training","Stims/Figures/27-C-30-1.bmp","sa:sa:za","Up","38","1","13","3A","C2","J","13"
"","","approach-retreat","17","441834","0.0-17.0","","","1-2","5429","39","0","Training","Stims/Figures/118-J-0-2.bmp","va:fava","Right","37","1","14","3A","C1","J","14"
"","","approach-retreat","18","448259","0.0-18.0","","","1-2","4913","38","1","Training","Stims/Figures/100-J-10-3.bmp","va:fava","Down","38","1","15","3A","C1","J","15"
"","","approach-retreat","19","454097","0.0-19.0","","","1-2","4326","39","0","Training","Stims/Figures/144-C-30-3.bmp","sa:sa:za","Left","37","1","16","3A","C2","J","16"
"","","approach-retreat","20","461870","0.0-20.0","","","1-2","6261","39","1","Training","Stims/Figures/93-J-0-1.bmp","va:fava","Left","39","2","1","3A","C1","J","17"
"","","approach-retreat","21","469614","0.0-21.0","","","1-2","6232","39","0","Training","Stims/Figures/7-J-10-4.bmp","va:fava","Right","37","2","2","3A","C1","J","18"
"","","approach-retreat","22","479667","0.0-22.0","","","1-2","8541","40","1","Training","Stims/Figures/84-C-20-2.bmp","sa:sa:za","Down","40","2","3","3A","C2","J","19"
"","","approach-retreat","23","485270","0.0-23.0","","","1-2","4091","38","1","Training","Stims/Figures/84-J-0-2.bmp","va:fava","Down","38","2","4","3A","C1","J","20"
"","","approach-retreat","24","491279","0.0-24.0","","","1-2","4497","38","0","Training","Stims/Figures/100-J-10-3.bmp","va:fava","Up","40","2","5","3A","C1","J","21"
"","","approach-retreat","25","497452","0.0-25.0","","","1-2","4661","39","1","Training","Stims/Figures/100-C-30-3.bmp","sa:sa:za","Right","39","2","6","3A","C2","J","22"
"","","approach-retreat","26","506676","0.0-26.0","","","1-2","7715","39","0","Training","Stims/Figures/93-C-30-1.bmp","sa:sa:za","Left","37","2","7","3A","C2","J","23"
"","","approach-retreat","27","513079","0.0-27.0","","","1-2","4891","37","1","Training","Stims/Figures/102-C-20-4.bmp","sa:sa:za","Left","37","2","8","3A","C2","J","24"
"","","approach-retreat","28","519742","0.0-28.0","","","1-2","5145","40","0","Training","Stims/Figures/118-C-20-2.bmp","sa:sa:za","Up","38","2","9","3A","C2","J","25"
"","","approach-retreat","29","533867","0.0-29.0","","","1-2","12613","37","1","Training","Stims/Figures/144-C-30-3.bmp","sa:sa:za","Left","37","2","10","3A","C2","J","26"
"","","approach-retreat","30","539696","0.0-30.0","","","1-2","4316","40","1","Training","Stims/Figures/144-J-10-3.bmp","va:fava","Up","40","2","11","3A","C1","J","27"
"","","approach-retreat","31","547830","0.0-31.0","","","1-2","6620","40","1","Training","Stims/Figures/7-C-20-4.bmp","sa:sa:za","Down","40","2","12","3A","C2","J","28"
"","","approach-retreat","32","554388","0.0-32.0","","","1-2","5046","37","0","Training","Stims/Figures/27-C-30-1.bmp","sa:sa:za","Right","39","2","13","3A","C2","J","29"
"","","approach-retreat","33","560417","0.0-33.0","","","1-2","4518","40","1","Training","Stims/Figures/118-J-0-2.bmp","va:fava","Up","40","2","14","3A","C1","J","30"
"","","approach-retreat","34","568333","0.0-34.0","","","1-2","6404","37","1","Training","Stims/Figures/27-J-0-1.bmp","va:fava","Right","37","2","15","3A","C1","J","31"
"","","approach-retreat","35","574627","0.0-35.0","","","1-2","4782","38","1","Training","Stims/Figures/102-J-10-4.bmp","va:fava","Down","38","2","16","3A","C1","J","32"
"","","approach-retreat","36","583935","0.0-36.0","","","1-2","7801","38","1","Training","Stims/Figures/118-C-20-2.bmp","sa:sa:za","Up","38","3","1","3A","C2","J","33"
"","","approach-retreat","37","591661","0.0-37.0","","","1-2","6215","38","0","Training","Stims/Figures/102-C-20-4.bmp","sa:sa:za","Down","40","3","2","3A","C2","J","34"
"","","approach-retreat","38","598026","0.0-38.0","","","1-2","4850","40","1","Training","Stims/Figures/27-J-0-1.bmp","va:fava","Up","40","3","3","3A","C1","J","35"
"","","approach-retreat","39","605277","0.0-39.0","","","1-2","5737","40","1","Training","Stims/Figures/7-C-20-4.bmp","sa:sa:za","Down","40","3","4","3A","C2","J","36"
"","","approach-retreat","40","611204","0.0-40.0","","","1-2","4416","39","1","Training","Stims/Figures/102-J-10-4.bmp","va:fava","Left","39","3","5","3A","C1","J","37"
"","","approach-retreat","41","617145","0.0-41.0","","","1-2","4428","37","0","Training","Stims/Figures/93-C-30-1.bmp","sa:sa:za","Right","39","3","6","3A","C2","J","38"
"","","approach-retreat","42","623642","0.0-42.0","","","1-2","4986","37","1","Training","Stims/Figures/27-C-30-1.bmp","sa:sa:za","Left","37","3","7","3A","C2","J","39"
"","","approach-retreat","43","630505","0.0-43.0","","","1-2","5352","40","1","Training","Stims/Figures/84-J-0-2.bmp","va:fava","Up","40","3","8","3A","C1","J","40"
"","","approach-retreat","44","639556","0.0-44.0","","","1-2","7538","39","1","Training","Stims/Figures/7-J-10-4.bmp","va:fava","Left","39","3","9","3A","C1","J","41"
"","","approach-retreat","45","647283","0.0-45.0","","","1-2","6216","38","1","Training","Stims/Figures/144-J-10-3.bmp","va:fava","Down","38","3","10","3A","C1","J","42"
"","","approach-retreat","46","653078","0.0-46.0","","","1-2","4284","38","1","Training","Stims/Figures/118-J-0-2.bmp","va:fava","Down","38","3","11","3A","C1","J","43"
"","","approach-retreat","47","658959","0.0-47.0","","","1-2","4368","39","1","Training","Stims/Figures/100-C-30-3.bmp","sa:sa:za","Right","39","3","12","3A","C2","J","44"
"","","approach-retreat","48","666105","0.0-48.0","","","1-2","5634","37","1","Training","Stims/Figures/93-J-0-1.bmp","va:fava","Right","37","3","13","3A","C1","J","45"
"","","approach-retreat","49","674873","0.0-49.0","","","1-2","7257","39","1","Training","Stims/Figures/100-J-10-3.bmp","va:fava","Left","39","3","14","3A","C1","J","46"
"","","approach-retreat","50","681305","0.0-50.0","","","1-2","4921","39","1","Training","Stims/Figures/144-C-30-3.bmp","sa:sa:za","Right","39","3","15","3A","C2","J","47"
"","","approach-retreat","51","688357","0.0-51.0","","","1-2","5545","38","1","Training","Stims/Figures/84-C-20-2.bmp","sa:sa:za","Up","38","3","16","3A","C2","J","48"
"","","approach-retreat","52","695457","0.0-52.0","","","1-2","5590","39","1","Training","Stims/Figures/27-J-0-1.bmp","va:fava","Left","39","4","1","3A","C1","J","49"
"","","approach-retreat","53","701349","0.0-53.0","","","1-2","4386","37","1","Training","Stims/Figures/7-J-10-4.bmp","va:fava","Right","37","4","2","3A","C1","J","50"
"","","approach-retreat","54","707446","0.0-54.0","","","1-2","4585","40","1","Training","Stims/Figures/7-C-20-4.bmp","sa:sa:za","Down","40","4","3","3A","C2","J","51"
"","","approach-retreat","55","714239","0.0-55.0","","","1-2","5282","38","1","Training","Stims/Figures/102-C-20-4.bmp","sa:sa:za","Up","38","4","4","3A","C2","J","52"
"","","approach-retreat","56","721443","0.0-56.0","","","1-2","5692","38","1","Training","Stims/Figures/118-J-0-2.bmp","va:fava","Down","38","4","5","3A","C1","J","53"
"","","approach-retreat","57","727338","0.0-57.0","","","1-2","4383","39","1","Training","Stims/Figures/102-J-10-4.bmp","va:fava","Left","39","4","6","3A","C1","J","54"
"","","approach-retreat","58","733876","0.0-58.0","","","1-2","5028","37","1","Training","Stims/Figures/144-J-10-3.bmp","va:fava","Right","37","4","7","3A","C1","J","55"
"","","approach-retreat","59","747350","0.0-59.0","","","1-2","11963","38","1","Training","Stims/Figures/27-C-30-1.bmp","sa:sa:za","Up","38","4","8","3A","C2","J","56"
"","","approach-retreat","60","760253","0.0-60.0","","","1-2","11391","39","1","Training","Stims/Figures/100-C-30-3.bmp","sa:sa:za","Right","39","4","9","3A","C2","J","57"
"","","approach-retreat","61","767265","0.0-61.0","","","1-2","5503","37","1","Training","Stims/Figures/93-J-0-1.bmp","va:fava","Right","37","4","10","3A","C1","J","58"
"","","approach-retreat","62","772973","0.0-62.0","","","1-2","4196","38","1","Training","Stims/Figures/93-C-30-1.bmp","sa:sa:za","Up","38","4","11","3A","C2","J","59"
"","","approach-retreat","63","778728","0.0-63.0","","","1-2","4244","37","1","Training","Stims/Figures/118-C-20-2.bmp","sa:sa:za","Left","37","4","12","3A","C2","J","60"
"","","approach-retreat","64","784432","0.0-64.0","","","1-2","4192","38","1","Training","Stims/Figures/84-C-20-2.bmp","sa:sa:za","Up","38","4","13","3A","C2","J","61"
"","","approach-retreat","65","790788","0.0-65.0","","","1-2","4845","38","1","Training","Stims/Figures/84-J-0-2.bmp","va:fava","Down","38","4","14","3A","C1","J","62"
"","","approach-retreat","66","798607","0.0-66.0","","","1-2","6309","39","1","Training","Stims/Figures/100-J-10-3.bmp","va:fava","Left","39","4","15","3A","C1","J","63"
"","","approach-retreat","67","805253","0.0-67.0","","","1-2","5141","40","1","Training","Stims/Figures/144-C-30-3.bmp","sa:sa:za","Down","40","4","16","3A","C2","J","64"
"","","approach-retreat","68","811458","0.0-68.0","","","1-2","4693","37","1","Training","Stims/Figures/27-J-0-1.bmp","va:fava","Right","37","5","1","3A","C1","J","65"
"","","approach-retreat","69","820658","0.0-69.0","","","1-2","7688","40","1","Training","Stims/Figures/144-J-10-3.bmp","va:fava","Up","40","5","2","3A","C1","J","66"
"","","approach-retreat","70","826377","0.0-70.0","","","1-2","4208","37","1","Training","Stims/Figures/84-C-20-2.bmp","sa:sa:za","Left","37","5","3","3A","C2","J","67"
"","","approach-retreat","71","832275","0.0-71.0","","","1-2","4387","37","1","Training","Stims/Figures/27-C-30-1.bmp","sa:sa:za","Left","37","5","4","3A","C2","J","68"
"","","approach-retreat","72","839126","0.0-72.0","","","1-2","5339","37","1","Training","Stims/Figures/7-J-10-4.bmp","va:fava","Right","37","5","5","3A","C1","J","69"
"","","approach-retreat","73","845691","0.0-73.0","","","1-2","5054","38","1","Training","Stims/Figures/118-J-0-2.bmp","va:fava","Down","38","5","6","3A","C1","J","70"
"","","approach-retreat","74","852452","0.0-74.0","","","1-2","5250","40","1","Training","Stims/Figures/118-C-20-2.bmp","sa:sa:za","Down","40","5","7","3A","C2","J","71"
"","","approach-retreat","75","859215","0.0-75.0","","","1-2","5250","40","1","Training","Stims/Figures/84-J-0-2.bmp","va:fava","Up","40","5","8","3A","C1","J","72"
"","","approach-retreat","76","866985","0.0-76.0","","","1-2","6259","40","1","Training","Stims/Figures/93-J-0-1.bmp","va:fava","Up","40","5","9","3A","C1","J","73"
"","","approach-retreat","77","874313","0.0-77.0","","","1-2","5816","38","1","Training","Stims/Figures/102-C-20-4.bmp","sa:sa:za","Up","38","5","10","3A","C2","J","74"
"","","approach-retreat","78","880384","0.0-78.0","","","1-2","4561","37","1","Training","Stims/Figures/7-C-20-4.bmp","sa:sa:za","Left","37","5","11","3A","C2","J","75"
"","","approach-retreat","79","887297","0.0-79.0","","","1-2","5399","40","1","Training","Stims/Figures/100-C-30-3.bmp","sa:sa:za","Down","40","5","12","3A","C2","J","76"
"","","approach-retreat","80","894166","0.0-80.0","","","1-2","5351","38","1","Training","Stims/Figures/102-J-10-4.bmp","va:fava","Down","38","5","13","3A","C1","J","77"
"","","approach-retreat","81","902869","0.0-81.0","","","1-2","7192","39","1","Training","Stims/Figures/100-J-10-3.bmp","va:fava","Left","39","5","14","3A","C1","J","78"
"","","approach-retreat","82","910275","0.0-82.0","","","1-2","5893","39","1","Training","Stims/Figures/93-C-30-1.bmp","sa:sa:za","Right","39","5","15","3A","C2","J","79"
"","","approach-retreat","83","917130","0.0-83.0","","","1-2","5343","39","1","Training","Stims/Figures/144-C-30-3.bmp","sa:sa:za","Right","39","5","16","3A","C2","J","80"
"","","approach-retreat","84","923043","0.0-84.0","","","1-2","4402","39","1","Training","Stims/Figures/144-J-10-3.bmp","va:fava","Left","39","6","1","3A","C1","J","81"
"","","approach-retreat","85","929036","0.0-85.0","","","1-2","4481","40","1","Training","Stims/Figures/102-J-10-4.bmp","va:fava","Up","40","6","2","3A","C1","J","82"
"","","approach-retreat","86","935815","0.0-86.0","","","1-2","5270","40","1","Training","Stims/Figures/118-C-20-2.bmp","sa:sa:za","Down","40","6","3","3A","C2","J","83"
"","","approach-retreat","87","944923","0.0-87.0","","","1-2","7599","39","1","Training","Stims/Figures/84-J-0-2.bmp","va:fava","Left","39","6","4","3A","C1","J","84"
"","","approach-retreat","88","952083","0.0-88.0","","","1-2","5648","38","1","Training","Stims/Figures/93-C-30-1.bmp","sa:sa:za","Up","38","6","5","3A","C2","J","85"
"","","approach-retreat","89","957986","0.0-89.0","","","1-2","4391","39","1","Training","Stims/Figures/100-C-30-3.bmp","sa:sa:za","Right","39","6","6","3A","C2","J","86"
"","","approach-retreat","90","964798","0.0-90.0","","","1-2","5301","37","1","Training","Stims/Figures/27-C-30-1.bmp","sa:sa:za","Left","37","6","7","3A","C2","J","87"
"","","approach-retreat","91","971228","0.0-91.0","","","1-2","4918","40","1","Training","Stims/Figures/100-J-10-3.bmp","va:fava","Up","40","6","8","3A","C1","J","88"
"","","approach-retreat","92","977282","0.0-92.0","","","1-2","4541","39","1","Training","Stims/Figures/84-C-20-2.bmp","sa:sa:za","Right","39","6","9","3A","C2","J","89"
"","","approach-retreat","93","984093","0.0-93.0","","","1-2","5298","39","1","Training","Stims/Figures/118-J-0-2.bmp","va:fava","Left","39","6","10","3A","C1","J","90"
"","","approach-retreat","94","989855","0.0-94.0","","","1-2","4250","37","1","Training","Stims/Figures/7-J-10-4.bmp","va:fava","Right","37","6","11","3A","C1","J","91"
"","","approach-retreat","95","1002932","0.0-95.0","","","1-2","11567","38","1","Training","Stims/Figures/144-C-30-3.bmp","sa:sa:za","Up","38","6","12","3A","C2","J","92"
"","","approach-retreat","96","1017220","0.0-96.0","","","1-2","12776","37","1","Training","Stims/Figures/27-J-0-1.bmp","va:fava","Right","37","6","13","3A","C1","J","93"
"","","approach-retreat","97","1023615","0.0-97.0","","","1-2","4885","40","1","Training","Stims/Figures/7-C-20-4.bmp","sa:sa:za","Down","40","6","14","3A","C2","J","94"
"","","approach-retreat","98","1034622","0.0-98.0","","","1-2","9500","40","1","Training","Stims/Figures/102-C-20-4.bmp","sa:sa:za","Down","40","6","15","3A","C2","J","95"
"","","approach-retreat","99","1041593","0.0-99.0","","","1-2","5461","38","1","Training","Stims/Figures/93-J-0-1.bmp","va:fava","Down","38","6","16","3A","C1","J","96"
"","","approach-retreat","100","1048214","0.0-100.0","","","1-2","5107","39","1","Training","Stims/Figures/102-J-10-4.bmp","va:fava","Left","39","7","1","3A","C1","J","97"
"","","approach-retreat","101","1056307","0.0-101.0","","","1-2","6583","39","1","Training","Stims/Figures/102-C-20-4.bmp","sa:sa:za","Right","39","7","2","3A","C2","J","98"
"","","approach-retreat","102","1063288","0.0-102.0","","","1-2","5468","37","1","Training","Stims/Figures/84-J-0-2.bmp","va:fava","Right","37","7","3","3A","C1","J","99"
"","","approach-retreat","103","1069652","0.0-103.0","","","1-2","4854","38","1","Training","Stims/Figures/27-J-0-1.bmp","va:fava","Down","38","7","4","3A","C1","J","100"
"","","approach-retreat","104","1075536","0.0-104.0","","","1-2","4372","40","1","Training","Stims/Figures/27-C-30-1.bmp","sa:sa:za","Down","40","7","5","3A","C2","J","101"
"","","approach-retreat","105","1081434","0.0-105.0","","","1-2","4387","40","1","Training","Stims/Figures/7-C-20-4.bmp","sa:sa:za","Down","40","7","6","3A","C2","J","102"
"","","approach-retreat","106","1087015","0.0-106.0","","","1-2","4070","39","1","Training","Stims/Figures/93-C-30-1.bmp","sa:sa:za","Right","39","7","7","3A","C2","J","103"
"","","approach-retreat","107","1093292","0.0-107.0","","","1-2","4764","38","1","Training","Stims/Figures/100-J-10-3.bmp","va:fava","Down","38","7","8","3A","C1","J","104"
"","","approach-retreat","108","1098923","0.0-108.0","","","1-2","4120","39","1","Training","Stims/Figures/93-J-0-1.bmp","va:fava","Left","39","7","9","3A","C1","J","105"
"","","approach-retreat","109","1104937","0.0-109.0","","","1-2","4503","39","1","Training","Stims/Figures/144-J-10-3.bmp","va:fava","Left","39","7","10","3A","C1","J","106"
"","","approach-retreat","110","1111334","0.0-110.0","","","1-2","4886","38","1","Training","Stims/Figures/100-C-30-3.bmp","sa:sa:za","Up","38","7","11","3A","C2","J","107"
"","","approach-retreat","111","1117380","0.0-111.0","","","1-2","4536","40","1","Training","Stims/Figures/118-J-0-2.bmp","va:fava","Up","40","7","12","3A","C1","J","108"
"","","approach-retreat","112","1124093","0.0-112.0","","","1-2","5202","40","1","Training","Stims/Figures/7-J-10-4.bmp","va:fava","Up","40","7","13","3A","C1","J","109"
"","","approach-retreat","113","1130687","0.0-113.0","","","1-2","5083","37","1","Training","Stims/Figures/144-C-30-3.bmp","sa:sa:za","Left","37","7","14","3A","C2","J","110"
"","","approach-retreat","114","1137179","0.0-114.0","","","1-2","4982","38","1","Training","Stims/Figures/118-C-20-2.bmp","sa:sa:za","Up","38","7","15","3A","C2","J","111"
"","","approach-retreat","115","1143370","0.0-115.0","","","1-2","4679","39","1","Training","Stims/Figures/84-C-20-2.bmp","sa:sa:za","Right","39","7","16","3A","C2","J","112"
"","","approach-retreat","116","1149252","0.0-116.0","","","1-2","4371","38","1","Training","Stims/Figures/100-J-10-3.bmp","va:fava","Down","38","8","1","3A","C1","J","113"
"","","approach-retreat","117","1155034","0.0-117.0","","","1-2","4272","39","1","Training","Stims/Figures/144-J-10-3.bmp","va:fava","Left","39","8","2","3A","C1","J","114"
"","","approach-retreat","118","1161109","0.0-118.0","","","1-2","4562","37","1","Training","Stims/Figures/102-C-20-4.bmp","sa:sa:za","Left","37","8","3","3A","C2","J","115"
"","","approach-retreat","119","1167243","0.0-119.0","","","1-2","4621","40","1","Training","Stims/Figures/118-C-20-2.bmp","sa:sa:za","Down","40","8","4","3A","C2","J","116"
"","","approach-retreat","120","1173571","0.0-120.0","","","1-2","4819","40","1","Training","Stims/Figures/84-J-0-2.bmp","va:fava","Up","40","8","5","3A","C1","J","117"
"","","approach-retreat","121","1179578","0.0-121.0","","","1-2","4496","39","1","Training","Stims/Figures/27-C-30-1.bmp","sa:sa:za","Right","39","8","6","3A","C2","J","118"
"","","approach-retreat","122","1186112","0.0-122.0","","","1-2","5023","37","1","Training","Stims/Figures/102-J-10-4.bmp","va:fava","Right","37","8","7","3A","C1","J","119"
"","","approach-retreat","123","1193098","0.0-123.0","","","1-2","5475","38","1","Training","Stims/Figures/7-C-20-4.bmp","sa:sa:za","Up","38","8","8","3A","C2","J","120"
"","","approach-retreat","124","1198916","0.0-124.0","","","1-2","4308","39","1","Training","Stims/Figures/93-C-30-1.bmp","sa:sa:za","Right","39","8","9","3A","C2","J","121"
"","","approach-retreat","125","1205472","0.0-125.0","","","1-2","5044","38","1","Training","Stims/Figures/27-J-0-1.bmp","va:fava","Down","38","8","10","3A","C1","J","122"
"","","approach-retreat","126","1212481","0.0-126.0","","","1-2","5503","38","1","Training","Stims/Figures/84-C-20-2.bmp","sa:sa:za","Up","38","8","11","3A","C2","J","123"
"","","approach-retreat","127","1220328","0.0-127.0","","","1-2","6335","39","1","Training","Stims/Figures/100-C-30-3.bmp","sa:sa:za","Right","39","8","12","3A","C2","J","124"
"","","approach-retreat","128","1227109","0.0-128.0","","","1-2","5271","40","1","Training","Stims/Figures/93-J-0-1.bmp","va:fava","Up","40","8","13","3A","C1","J","125"
"","","approach-retreat","129","1234653","0.0-129.0","","","1-2","6031","37","1","Training","Stims/Figures/144-C-30-3.bmp","sa:sa:za","Left","37","8","14","3A","C2","J","126"
"","","approach-retreat","130","1240342","0.0-130.0","","","1-2","4179","39","1","Training","Stims/Figures/7-J-10-4.bmp","va:fava","Left","39","8","15","3A","C1","J","127"
"","","approach-retreat","131","1246189","0.0-131.0","","","1-2","4334","38","1","Training","Stims/Figures/118-J-0-2.bmp","va:fava","Down","38","8","16","3A","C1","J","128"
"","","approach-retreat","132","1252181","0.0-132.0","","","1-2","4481","38","1","Training","Stims/Figures/84-C-20-2.bmp","sa:sa:za","Up","38","9","1","3A","C2","J","129"
"","","approach-retreat","133","1259372","0.0-133.0","","","1-2","5681","40","1","Training","Stims/Figures/93-C-30-1.bmp","sa:sa:za","Down","40","9","2","3A","C2","J","130"
"","","approach-retreat","134","1265443","0.0-134.0","","","1-2","4558","40","1","Training","Stims/Figures/118-C-20-2.bmp","sa:sa:za","Down","40","9","3","3A","C2","J","131"
"","","approach-retreat","135","1271721","0.0-135.0","","","1-2","4771","37","1","Training","Stims/Figures/27-C-30-1.bmp","sa:sa:za","Left","37","9","4","3A","C2","J","132"
"","","approach-retreat","136","1277750","0.0-136.0","","","1-2","4517","37","1","Training","Stims/Figures/7-J-10-4.bmp","va:fava","Right","37","9","5","3A","C1","J","133"
"","","approach-retreat","137","1284587","0.0-137.0","","","1-2","5325","38","1","Training","Stims/Figures/100-J-10-3.bmp","va:fava","Down","38","9","6","3A","C1","J","134"
"","","approach-retreat","138","1293617","0.0-138.0","","","1-2","7519","38","1","Training","Stims/Figures/100-C-30-3.bmp","sa:sa:za","Up","38","9","7","3A","C2","J","135"
"","","approach-retreat","139","1299406","0.0-139.0","","","1-2","4278","39","1","Training","Stims/Figures/102-C-20-4.bmp","sa:sa:za","Right","39","9","8","3A","C2","J","136"
"","","approach-retreat","140","1305433","0.0-140.0","","","1-2","4515","39","1","Training","Stims/Figures/84-J-0-2.bmp","va:fava","Left","39","9","9","3A","C1","J","137"
"","","approach-retreat","141","1314086","0.0-141.0","","","1-2","7141","39","1","Training","Stims/Figures/7-C-20-4.bmp","sa:sa:za","Right","39","9","10","3A","C2","J","138"
"","","approach-retreat","142","1320769","0.0-142.0","","","1-2","5171","37","1","Training","Stims/Figures/144-C-30-3.bmp","sa:sa:za","Left","37","9","11","3A","C2","J","139"
"","","approach-retreat","143","1326448","0.0-143.0","","","1-2","4169","39","1","Training","Stims/Figures/144-J-10-3.bmp","va:fava","Left","39","9","12","3A","C1","J","140"
"","","approach-retreat","144","1333704","0.0-144.0","","","1-2","5745","37","1","Training","Stims/Figures/93-J-0-1.bmp","va:fava","Right","37","9","13","3A","C1","J","141"
"","","approach-retreat","145","1339820","0.0-145.0","","","1-2","4604","40","1","Training","Stims/Figures/102-J-10-4.bmp","va:fava","Up","40","9","14","3A","C1","J","142"
"","","approach-retreat","146","1345866","0.0-146.0","","","1-2","4533","40","1","Training","Stims/Figures/118-J-0-2.bmp","va:fava","Up","40","9","15","3A","C1","J","143"
"","","approach-retreat","147","1351919","0.0-147.0","","","1-2","4541","38","1","Training","Stims/Figures/27-J-0-1.bmp","va:fava","Down","38","9","16","3A","C1","J","144"
"39624","","instructions","148","1391544","0.0-148.0","[{""page_index"":0,""viewing_time"":39624}]","","","","","","","","","","","","","","","",""
"","","approach-retreat","149","1404644","0.0-149.0","","","1-2","11592","40","0","Testing","Stims/Figures/94-C-20-2.bmp","sa:sa:za","Up","38","1","1","3A","C2","J","1"
"","","approach-retreat","150","1416674","0.0-150.0","","","1-2","10521","39","0","Testing","Stims/Figures/84-C-20-2.bmp","sa:sa:za","Left","37","1","2","3A","C2","J","2"
"","","approach-retreat","151","1422611","0.0-151.0","","","1-2","4426","37","1","Testing","Stims/Figures/111-C-30-3.bmp","sa:sa:za","Left","37","1","3","3A","C2","J","3"
"","","approach-retreat","152","1428777","0.0-152.0","","","1-2","4658","37","1","Testing","Stims/Figures/102-J-10-4.bmp","va:fava","Right","37","1","4","3A","C1","J","4"
"","","approach-retreat","153","1435135","0.0-153.0","","","1-2","4849","40","0","Testing","Stims/Figures/111-J-10-3.bmp","va:fava","Down","38","1","5","3A","C1","J","5"
"","","approach-retreat","154","1441507","0.0-154.0","","","1-2","4864","38","0","Testing","Stims/Figures/100-C-30-3.bmp","sa:sa:za","Down","40","1","6","3A","C2","J","6"
"","","approach-retreat","155","1447382","0.0-155.0","","","1-2","4365","38","1","Testing","Stims/Figures/19-J-10-4.bmp","va:fava","Down","38","1","7","3A","C1","J","7"
"","","approach-retreat","156","1453285","0.0-156.0","","","1-2","4393","40","1","Testing","Stims/Figures/71-J-0-1.bmp","va:fava","Up","40","1","8","3A","C1","J","8"
"","","approach-retreat","157","1459316","0.0-157.0","","","1-2","4523","38","0","Testing","Stims/Figures/144-C-30-3.bmp","sa:sa:za","Down","40","1","9","3A","C2","J","9"
"","","approach-retreat","158","1465129","0.0-158.0","","","1-2","4302","37","0","Testing","Stims/Figures/27-C-30-1.bmp","sa:sa:za","Right","39","1","10","3A","C2","J","10"
"","","approach-retreat","159","1471460","0.0-159.0","","","1-2","4822","39","1","Testing","Stims/Figures/7-J-10-4.bmp","va:fava","Left","39","1","11","3A","C1","J","11"
"","","approach-retreat","160","1477327","0.0-160.0","","","1-2","4356","38","1","Testing","Stims/Figures/19-C-20-4.bmp","sa:sa:za","Up","38","1","12","3A","C2","J","12"
"","","approach-retreat","161","1485674","0.0-161.0","","","1-2","6838","38","0","Testing","Stims/Figures/84-J-0-2.bmp","va:fava","Up","40","1","13","3A","C1","J","13"
"","","approach-retreat","162","1494055","0.0-162.0","","","1-2","6868","37","0","Testing","Stims/Figures/144-J-10-3.bmp","va:fava","Left","39","1","14","3A","C1","J","14"
"","","approach-retreat","163","1499621","0.0-163.0","","","1-2","4057","39","0","Testing","Stims/Figures/71-C-30-1.bmp","sa:sa:za","Left","37","1","15","3A","C2","J","15"
"","","approach-retreat","164","1506640","0.0-164.0","","","1-2","5512","40","1","Testing","Stims/Figures/118-C-20-2.bmp","sa:sa:za","Down","40","1","16","3A","C2","J","16"
"","","approach-retreat","165","1513006","0.0-165.0","","","1-2","4850","38","0","Testing","Stims/Figures/94-J-0-2.bmp","va:fava","Up","40","1","17","3A","C1","J","17"
"","","approach-retreat","166","1518798","0.0-166.0","","","1-2","4281","39","0","Testing","Stims/Figures/118-J-0-2.bmp","va:fava","Right","37","1","18","3A","C1","J","18"
"","","approach-retreat","167","1531686","0.0-167.0","","","1-2","11342","37","0","Testing","Stims/Figures/102-C-20-4.bmp","sa:sa:za","Right","39","1","19","3A","C2","J","19"
"","","approach-retreat","168","1537378","0.0-168.0","","","1-2","4182","39","1","Testing","Stims/Figures/93-C-30-1.bmp","sa:sa:za","Right","39","1","20","3A","C2","J","20"
"","","approach-retreat","169","1543375","0.0-169.0","","","1-2","4488","37","0","Testing","Stims/Figures/93-J-0-1.bmp","va:fava","Left","39","1","21","3A","C1","J","21"
"","","approach-retreat","170","1551088","0.0-170.0","","","1-2","6205","38","1","Testing","Stims/Figures/7-C-20-4.bmp","sa:sa:za","Up","38","1","22","3A","C2","J","22"
"","","approach-retreat","171","1557289","0.0-171.0","","","1-2","4693","40","0","Testing","Stims/Figures/27-J-0-1.bmp","va:fava","Down","38","1","23","3A","C1","J","23"
"","","approach-retreat","172","1563581","0.0-172.0","","","1-2","4785","37","1","Testing","Stims/Figures/100-J-10-3.bmp","va:fava","Right","37","1","24","3A","C1","J","24"
"","","approach-retreat","173","1569918","0.0-173.0","","","1-2","4827","39","0","Testing","Stims/Figures/84-C-20-2.bmp","sa:sa:za","Left","37","2","1","3A","C2","J","25"
"","","approach-retreat","174","1579296","0.0-174.0","","","1-2","7868","39","1","Testing","Stims/Figures/7-C-20-4.bmp","sa:sa:za","Right","39","2","2","3A","C2","J","26"
"","","approach-retreat","175","1585182","0.0-175.0","","","1-2","4377","40","0","Testing","Stims/Figures/71-C-30-1.bmp","sa:sa:za","Up","38","2","3","3A","C2","J","27"
"","","approach-retreat","176","1598708","0.0-176.0","","","1-2","12017","38","0","Testing","Stims/Figures/84-J-0-2.bmp","va:fava","Up","40","2","4","3A","C1","J","28"
"","","approach-retreat","177","1604505","0.0-177.0","","","1-2","4289","37","1","Testing","Stims/Figures/94-C-20-2.bmp","sa:sa:za","Left","37","2","5","3A","C2","J","29"
"","","approach-retreat","178","1611921","0.0-178.0","","","1-2","5908","40","0","Testing","Stims/Figures/102-C-20-4.bmp","sa:sa:za","Up","38","2","6","3A","C2","J","30"
"","","approach-retreat","179","1622059","0.0-179.0","","","1-2","8630","40","0","Testing","Stims/Figures/111-J-10-3.bmp","va:fava","Down","38","2","7","3A","C1","J","31"
"","","approach-retreat","180","1628640","0.0-180.0","","","1-2","5071","37","0","Testing","Stims/Figures/19-C-20-4.bmp","sa:sa:za","Right","39","2","8","3A","C2","J","32"
"","","approach-retreat","181","1636040","0.0-181.0","","","1-2","5892","37","1","Testing","Stims/Figures/71-J-0-1.bmp","va:fava","Right","37","2","9","3A","C1","J","33"
"","","approach-retreat","182","1641504","0.0-182.0","","","1-2","3955","39","1","Testing","Stims/Figures/118-C-20-2.bmp","sa:sa:za","Right","39","2","10","3A","C2","J","34"
"","","approach-retreat","183","1650060","0.0-183.0","","","1-2","7049","37","0","Testing","Stims/Figures/144-J-10-3.bmp","va:fava","Left","39","2","11","3A","C1","J","35"
"","","approach-retreat","184","1656057","0.0-184.0","","","1-2","4487","40","0","Testing","Stims/Figures/94-J-0-2.bmp","va:fava","Down","38","2","12","3A","C1","J","36"
"","","approach-retreat","185","1663725","0.0-185.0","","","1-2","6160","39","0","Testing","Stims/Figures/100-C-30-3.bmp","sa:sa:za","Left","37","2","13","3A","C2","J","37"
"","","approach-retreat","186","1670875","0.0-186.0","","","1-2","5641","38","1","Testing","Stims/Figures/102-J-10-4.bmp","va:fava","Down","38","2","14","3A","C1","J","38"
"","","approach-retreat","187","1676676","0.0-187.0","","","1-2","4292","38","0","Testing","Stims/Figures/118-J-0-2.bmp","va:fava","Up","40","2","15","3A","C1","J","39"
"","","approach-retreat","188","1682654","0.0-188.0","","","1-2","4468","40","0","Testing","Stims/Figures/7-J-10-4.bmp","va:fava","Down","38","2","16","3A","C1","J","40"
"","","approach-retreat","189","1692270","0.0-189.0","","","1-2","8107","39","0","Testing","Stims/Figures/93-J-0-1.bmp","va:fava","Right","37","2","17","3A","C1","J","41"
"","","approach-retreat","190","1703508","0.0-190.0","","","1-2","9729","37","0","Testing","Stims/Figures/19-J-10-4.bmp","va:fava","Left","39","2","18","3A","C1","J","42"
"","","approach-retreat","191","1709298","0.0-191.0","","","1-2","4280","38","0","Testing","Stims/Figures/27-J-0-1.bmp","va:fava","Up","40","2","19","3A","C1","J","43"
"","","approach-retreat","192","1715116","0.0-192.0","","","1-2","4310","37","1","Testing","Stims/Figures/93-C-30-1.bmp","sa:sa:za","Left","37","2","20","3A","C2","J","44"
"","","approach-retreat","193","1721134","0.0-193.0","","","1-2","4507","37","0","Testing","Stims/Figures/144-C-30-3.bmp","sa:sa:za","Right","39","2","21","3A","C2","J","45"
"","","approach-retreat","194","1727237","0.0-194.0","","","1-2","4593","40","1","Testing","Stims/Figures/100-J-10-3.bmp","va:fava","Up","40","2","22","3A","C1","J","46"
"","","approach-retreat","195","1737159","0.0-195.0","","","1-2","8412","40","1","Testing","Stims/Figures/27-C-30-1.bmp","sa:sa:za","Down","40","2","23","3A","C2","J","47"
"","","approach-retreat","196","1743644","0.0-196.0","","","1-2","4977","40","1","Testing","Stims/Figures/111-C-30-3.bmp","sa:sa:za","Down","40","2","24","3A","C2","J","48"
"","","approach-retreat","197","1749980","0.0-197.0","","","1-2","4827","37","0","Testing","Stims/Figures/19-C-20-4.bmp","sa:sa:za","Right","39","3","1","3A","C2","J","49"
"","","approach-retreat","198","1755773","0.0-198.0","","","1-2","4283","37","0","Testing","Stims/Figures/118-J-0-2.bmp","va:fava","Left","39","3","2","3A","C1","J","50"
"","","approach-retreat","199","1762146","0.0-199.0","","","1-2","4863","40","0","Testing","Stims/Figures/100-C-30-3.bmp","sa:sa:za","Up","38","3","3","3A","C2","J","51"
"","","approach-retreat","200","1768642","0.0-200.0","","","1-2","4986","37","1","Testing","Stims/Figures/71-J-0-1.bmp","va:fava","Right","37","3","4","3A","C1","J","52"
"","","approach-retreat","201","1774726","0.0-201.0","","","1-2","4574","38","0","Testing","Stims/Figures/111-J-10-3.bmp","va:fava","Up","40","3","5","3A","C1","J","53"
"","","approach-retreat","202","1780991","0.0-202.0","","","1-2","4757","40","1","Testing","Stims/Figures/93-C-30-1.bmp","sa:sa:za","Down","40","3","6","3A","C2","J","54"
"","","approach-retreat","203","1786859","0.0-203.0","","","1-2","4358","38","0","Testing","Stims/Figures/102-C-20-4.bmp","sa:sa:za","Down","40","3","7","3A","C2","J","55"
"","","approach-retreat","204","1802375","0.0-204.0","","","1-2","14008","37","1","Testing","Stims/Figures/7-C-20-4.bmp","sa:sa:za","Left","37","3","8","3A","C2","J","56"
"","","approach-retreat","205","1814138","0.0-205.0","","","1-2","10253","40","1","Testing","Stims/Figures/93-J-0-1.bmp","va:fava","Up","40","3","9","3A","C1","J","57"
"","","approach-retreat","206","1835086","0.0-206.0","","","1-2","19440","38","0","Testing","Stims/Figures/27-C-30-1.bmp","sa:sa:za","Down","40","3","10","3A","C2","J","58"
"","","approach-retreat","207","1841519","0.0-207.0","","","1-2","4924","40","1","Testing","Stims/Figures/94-C-20-2.bmp","sa:sa:za","Down","40","3","11","3A","C2","J","59"
"","","approach-retreat","208","1847103","0.0-208.0","","","1-2","4072","39","0","Testing","Stims/Figures/71-C-30-1.bmp","sa:sa:za","Left","37","3","12","3A","C2","J","60"
"","","approach-retreat","209","1852771","0.0-209.0","","","1-2","4158","37","1","Testing","Stims/Figures/84-J-0-2.bmp","va:fava","Right","37","3","13","3A","C1","J","61"
"","","approach-retreat","210","1861771","0.0-210.0","","","1-2","7491","38","0","Testing","Stims/Figures/7-J-10-4.bmp","va:fava","Up","40","3","14","3A","C1","J","62"
"","","approach-retreat","211","1868433","0.0-211.0","","","1-2","5151","38","0","Testing","Stims/Figures/144-J-10-3.bmp","va:fava","Up","40","3","15","3A","C1","J","63"
"","","approach-retreat","212","1878688","0.0-212.0","","","1-2","8745","39","1","Testing","Stims/Figures/100-J-10-3.bmp","va:fava","Left","39","3","16","3A","C1","J","64"
"","","approach-retreat","213","1907840","0.0-213.0","","","1-2","27644","37","1","Testing","Stims/Figures/111-C-30-3.bmp","sa:sa:za","Left","37","3","17","3A","C2","J","65"
"","","approach-retreat","214","1913599","0.0-214.0","","","1-2","4250","40","0","Testing","Stims/Figures/84-C-20-2.bmp","sa:sa:za","Up","38","3","18","3A","C2","J","66"
"","","approach-retreat","215","1919498","0.0-215.0","","","1-2","4389","39","1","Testing","Stims/Figures/118-C-20-2.bmp","sa:sa:za","Right","39","3","19","3A","C2","J","67"
"","","approach-retreat","216","1926584","0.0-216.0","","","1-2","5577","39","1","Testing","Stims/Figures/102-J-10-4.bmp","va:fava","Left","39","3","20","3A","C1","J","68"
"","","approach-retreat","217","1934009","0.0-217.0","","","1-2","5916","38","1","Testing","Stims/Figures/19-J-10-4.bmp","va:fava","Down","38","3","21","3A","C1","J","69"
"","","approach-retreat","218","1939846","0.0-218.0","","","1-2","4331","38","1","Testing","Stims/Figures/27-J-0-1.bmp","va:fava","Down","38","3","22","3A","C1","J","70"
"","","approach-retreat","219","1956708","0.0-219.0","","","1-2","15354","37","0","Testing","Stims/Figures/144-C-30-3.bmp","sa:sa:za","Right","39","3","23","3A","C2","J","71"
"","","approach-retreat","220","1962579","0.0-220.0","","","1-2","4361","39","0","Testing","Stims/Figures/94-J-0-2.bmp","va:fava","Right","37","3","24","3A","C1","J","72"
"","","approach-retreat","221","1973448","0.0-221.0","","","1-2","9360","37","0","Testing","Stims/Figures/93-C-30-1.bmp","sa:sa:za","Right","39","4","1","3A","C2","J","73"
"","","approach-retreat","222","1979638","0.0-222.0","","","1-2","4683","39","0","Testing","Stims/Figures/84-C-20-2.bmp","sa:sa:za","Left","37","4","2","3A","C2","J","74"
"","","approach-retreat","223","1986590","0.0-223.0","","","1-2","5442","38","1","Testing","Stims/Figures/94-C-20-2.bmp","sa:sa:za","Up","38","4","3","3A","C2","J","75"
"","","approach-retreat","224","1992049","0.0-224.0","","","1-2","3952","39","0","Testing","Stims/Figures/100-C-30-3.bmp","sa:sa:za","Left","37","4","4","3A","C2","J","76"
"","","approach-retreat","225","1998713","0.0-225.0","","","1-2","5154","37","1","Testing","Stims/Figures/111-C-30-3.bmp","sa:sa:za","Left","37","4","5","3A","C2","J","77"
"","","approach-retreat","226","2006403","0.0-226.0","","","1-2","6181","40","0","Testing","Stims/Figures/118-C-20-2.bmp","sa:sa:za","Up","38","4","6","3A","C2","J","78"
"","","approach-retreat","227","2012299","0.0-227.0","","","1-2","4386","40","0","Testing","Stims/Figures/118-J-0-2.bmp","va:fava","Down","38","4","7","3A","C1","J","79"
"","","approach-retreat","228","2021800","0.0-228.0","","","1-2","7991","39","0","Testing","Stims/Figures/144-J-10-3.bmp","va:fava","Right","37","4","8","3A","C1","J","80"
"","","approach-retreat","229","2027965","0.0-229.0","","","1-2","4654","40","0","Testing","Stims/Figures/93-J-0-1.bmp","va:fava","Down","38","4","9","3A","C1","J","81"
"","","approach-retreat","230","2034745","0.0-230.0","","","1-2","5274","38","0","Testing","Stims/Figures/144-C-30-3.bmp","sa:sa:za","Down","40","4","10","3A","C2","J","82"
"","","approach-retreat","231","2042010","0.0-231.0","","","1-2","5755","37","1","Testing","Stims/Figures/71-J-0-1.bmp","va:fava","Right","37","4","11","3A","C1","J","83"
"","","approach-retreat","232","2051788","0.0-232.0","","","1-2","8269","37","1","Testing","Stims/Figures/7-J-10-4.bmp","va:fava","Right","37","4","12","3A","C1","J","84"
"","","approach-retreat","233","2057318","0.0-233.0","","","1-2","4023","38","0","Testing","Stims/Figures/19-C-20-4.bmp","sa:sa:za","Down","40","4","13","3A","C2","J","85"
"","","approach-retreat","234","2067132","0.0-234.0","","","1-2","8305","38","1","Testing","Stims/Figures/27-C-30-1.bmp","sa:sa:za","Up","38","4","14","3A","C2","J","86"
"","","approach-retreat","235","2073772","0.0-235.0","","","1-2","5130","37","0","Testing","Stims/Figures/94-J-0-2.bmp","va:fava","Left","39","4","15","3A","C1","J","87"
"","","approach-retreat","236","2080093","0.0-236.0","","","1-2","4811","37","1","Testing","Stims/Figures/19-J-10-4.bmp","va:fava","Right","37","4","16","3A","C1","J","88"
"","","approach-retreat","237","2086666","0.0-237.0","","","1-2","5063","40","0","Testing","Stims/Figures/84-J-0-2.bmp","va:fava","Down","38","4","17","3A","C1","J","89"
"","","approach-retreat","238","2094000","0.0-238.0","","","1-2","5829","38","0","Testing","Stims/Figures/71-C-30-1.bmp","sa:sa:za","Down","40","4","18","3A","C2","J","90"
"","","approach-retreat","239","2099700","0.0-239.0","","","1-2","4193","40","1","Testing","Stims/Figures/102-J-10-4.bmp","va:fava","Up","40","4","19","3A","C1","J","91"
"","","approach-retreat","240","2105527","0.0-240.0","","","1-2","4317","37","0","Testing","Stims/Figures/100-J-10-3.bmp","va:fava","Left","39","4","20","3A","C1","J","92"
"","","approach-retreat","241","2113190","0.0-241.0","","","1-2","6157","37","1","Testing","Stims/Figures/27-J-0-1.bmp","va:fava","Right","37","4","21","3A","C1","J","93"
"","","approach-retreat","242","2119256","0.0-242.0","","","1-2","4555","38","1","Testing","Stims/Figures/7-C-20-4.bmp","sa:sa:za","Up","38","4","22","3A","C2","J","94"
"","","approach-retreat","243","2126068","0.0-243.0","","","1-2","5303","40","1","Testing","Stims/Figures/111-J-10-3.bmp","va:fava","Up","40","4","23","3A","C1","J","95"
"","","approach-retreat","244","2131854","0.0-244.0","","","1-2","4277","37","1","Testing","Stims/Figures/102-C-20-4.bmp","sa:sa:za","Left","37","4","24","3A","C2","J","96"
"248307","","survey-text","245","2380168","0.0-245.0","","{""Q0"":""0105/2018""}","","","","","","","","","","","","","","",""
