"rt","key_press","trial_type","trial_index","time_elapsed","internal_node_id","view_history","responses","Id","Rt","ResKeyCode","ResCorr","TrialType2","Image","Label","Location","CorrectResponse","Block","BlockTrial","Condition","LabelType","Subcondition","trialNum"
"4549","32","text","0","4560","0.0-0.0-0.0","","","","","","","","","","","","","","","","",""
"22620","","instructions","1","27185","0.0-1.0","[{""page_index"":0,""viewing_time"":22619}]","","","","","","","","","","","","","","","",""
"12508","","survey-multi-choice","2","39754","0.0-2.0","","{""Q0"":""Da"",""Q1"":""Da"",""Q2"":""Da"",""Q3"":""Da"",""Q4"":""Da"",""Q5"":""Da""}","","","","","","","","","","","","","","",""
"","","bio","3","48866","0.0-3.0","","{""age"":""19"",""gender"":""f"",""specify"":""""}","","","","","","","","","","","","","","",""
"","","approach-retreat","4","57941","0.0-4.0","","","1-3","7558","39","0","Training","Stims/Figures/19-C-20-4.bmp","None","Left","37","1","1","10","N","J","1"
"","","approach-retreat","5","66371","0.0-5.0","","","1-3","6918","38","1","Training","Stims/Figures/128-C-30-3.bmp","None","Up","38","1","2","10","N","J","2"
"","","approach-retreat","6","76564","0.0-6.0","","","1-3","8680","39","0","Training","Stims/Figures/85-C-20-2.bmp","None","Left","37","1","3","10","N","J","3"
"","","approach-retreat","7","83182","0.0-7.0","","","1-3","5107","40","1","Training","Stims/Figures/86-C-30-1.bmp","None","Down","40","1","4","10","N","J","4"
"","","approach-retreat","8","94507","0.0-8.0","","","1-3","9812","38","0","Training","Stims/Figures/93-C-30-1.bmp","None","Down","40","1","5","10","N","J","5"
"","","approach-retreat","9","101249","0.0-9.0","","","1-3","5230","40","1","Training","Stims/Figures/93-J-0-1.bmp","None","Up","40","1","6","10","N","J","6"
"","","approach-retreat","10","109323","0.0-10.0","","","1-3","6563","40","1","Training","Stims/Figures/94-J-0-2.bmp","None","Up","40","1","7","10","N","J","7"
"","","approach-retreat","11","117307","0.0-11.0","","","1-3","6472","37","0","Training","Stims/Figures/94-C-20-2.bmp","None","Right","39","1","8","10","N","J","8"
"","","approach-retreat","12","127784","0.0-12.0","","","1-3","8965","39","0","Training","Stims/Figures/111-J-10-3.bmp","None","Right","37","1","9","10","N","J","9"
"","","approach-retreat","13","134802","0.0-13.0","","","1-3","5507","37","0","Training","Stims/Figures/86-J-0-1.bmp","None","Left","39","1","10","10","N","J","10"
"","","approach-retreat","14","141375","0.0-14.0","","","1-3","5061","38","0","Training","Stims/Figures/7-C-20-4.bmp","None","Down","40","1","11","10","N","J","11"
"","","approach-retreat","15","147726","0.0-15.0","","","1-3","4840","40","1","Training","Stims/Figures/19-J-10-4.bmp","None","Up","40","1","12","10","N","J","12"
"","","approach-retreat","16","154582","0.0-16.0","","","1-3","5344","39","0","Training","Stims/Figures/128-J-10-3.bmp","None","Right","37","1","13","10","N","J","13"
"","","approach-retreat","17","160963","0.0-17.0","","","1-3","4870","38","0","Training","Stims/Figures/111-C-30-3.bmp","None","Down","40","1","14","10","N","J","14"
"","","approach-retreat","18","169428","0.0-18.0","","","1-3","6955","39","1","Training","Stims/Figures/7-J-10-4.bmp","None","Left","39","1","15","10","N","J","15"
"","","approach-retreat","19","176599","0.0-19.0","","","1-3","5660","37","1","Training","Stims/Figures/85-J-0-2.bmp","None","Right","37","1","16","10","N","J","16"
"","","approach-retreat","20","184448","0.0-20.0","","","1-3","6339","37","1","Training","Stims/Figures/19-C-20-4.bmp","None","Left","37","2","1","10","N","J","17"
"","","approach-retreat","21","191935","0.0-21.0","","","1-3","5977","39","0","Training","Stims/Figures/111-C-30-3.bmp","None","Left","37","2","2","10","N","J","18"
"","","approach-retreat","22","199263","0.0-22.0","","","1-3","5817","40","0","Training","Stims/Figures/93-C-30-1.bmp","None","Up","38","2","3","10","N","J","19"
"","","approach-retreat","23","206286","0.0-23.0","","","1-3","5511","40","0","Training","Stims/Figures/7-C-20-4.bmp","None","Up","38","2","4","10","N","J","20"
"","","approach-retreat","24","214233","0.0-24.0","","","1-3","6436","38","0","Training","Stims/Figures/85-J-0-2.bmp","None","Up","40","2","5","10","N","J","21"
"","","approach-retreat","25","220425","0.0-25.0","","","1-3","4681","39","1","Training","Stims/Figures/128-C-30-3.bmp","None","Right","39","2","6","10","N","J","22"
"","","approach-retreat","26","236205","0.0-26.0","","","1-3","14269","37","1","Training","Stims/Figures/93-J-0-1.bmp","None","Right","37","2","7","10","N","J","23"
"","","approach-retreat","27","243580","0.0-27.0","","","1-3","5864","38","1","Training","Stims/Figures/94-J-0-2.bmp","None","Down","38","2","8","10","N","J","24"
"","","approach-retreat","28","251346","0.0-28.0","","","1-3","6254","38","0","Training","Stims/Figures/19-J-10-4.bmp","None","Up","40","2","9","10","N","J","25"
"","","approach-retreat","29","258301","0.0-29.0","","","1-3","5443","39","0","Training","Stims/Figures/85-C-20-2.bmp","None","Left","37","2","10","10","N","J","26"
"","","approach-retreat","30","265555","0.0-30.0","","","1-3","5743","40","1","Training","Stims/Figures/86-C-30-1.bmp","None","Down","40","2","11","10","N","J","27"
"","","approach-retreat","31","272127","0.0-31.0","","","1-3","5061","38","1","Training","Stims/Figures/128-J-10-3.bmp","None","Down","38","2","12","10","N","J","28"
"","","approach-retreat","32","278293","0.0-32.0","","","1-3","4654","37","1","Training","Stims/Figures/86-J-0-1.bmp","None","Right","37","2","13","10","N","J","29"
"","","approach-retreat","33","285280","0.0-33.0","","","1-3","5475","39","0","Training","Stims/Figures/7-J-10-4.bmp","None","Right","37","2","14","10","N","J","30"
"","","approach-retreat","34","291533","0.0-34.0","","","1-3","4741","38","0","Training","Stims/Figures/94-C-20-2.bmp","None","Down","40","2","15","10","N","J","31"
"","","approach-retreat","35","298720","0.0-35.0","","","1-3","5675","39","1","Training","Stims/Figures/111-J-10-3.bmp","None","Left","39","2","16","10","N","J","32"
"","","approach-retreat","36","305959","0.0-36.0","","","1-3","5729","37","0","Training","Stims/Figures/19-J-10-4.bmp","None","Left","39","3","1","10","N","J","33"
"","","approach-retreat","37","311697","0.0-37.0","","","1-3","4224","40","0","Training","Stims/Figures/94-C-20-2.bmp","None","Up","38","3","2","10","N","J","34"
"","","approach-retreat","38","317962","0.0-38.0","","","1-3","4753","40","1","Training","Stims/Figures/111-C-30-3.bmp","None","Down","40","3","3","10","N","J","35"
"","","approach-retreat","39","325732","0.0-39.0","","","1-3","6255","40","0","Training","Stims/Figures/93-C-30-1.bmp","None","Up","38","3","4","10","N","J","36"
"","","approach-retreat","40","332537","0.0-40.0","","","1-3","5295","37","1","Training","Stims/Figures/85-J-0-2.bmp","None","Right","37","3","5","10","N","J","37"
"","","approach-retreat","41","339926","0.0-41.0","","","1-3","5878","39","1","Training","Stims/Figures/94-J-0-2.bmp","None","Left","39","3","6","10","N","J","38"
"","","approach-retreat","42","346920","0.0-42.0","","","1-3","5484","38","1","Training","Stims/Figures/86-J-0-1.bmp","None","Down","38","3","7","10","N","J","39"
"","","approach-retreat","43","353484","0.0-43.0","","","1-3","5049","40","1","Training","Stims/Figures/85-C-20-2.bmp","None","Down","40","3","8","10","N","J","40"
"","","approach-retreat","44","360150","0.0-44.0","","","1-3","5154","38","1","Training","Stims/Figures/7-J-10-4.bmp","None","Down","38","3","9","10","N","J","41"
"","","approach-retreat","45","366891","0.0-45.0","","","1-3","5230","40","0","Training","Stims/Figures/19-C-20-4.bmp","None","Up","38","3","10","10","N","J","42"
"","","approach-retreat","46","372892","0.0-46.0","","","1-3","4490","40","0","Training","Stims/Figures/86-C-30-1.bmp","None","Up","38","3","11","10","N","J","43"
"","","approach-retreat","47","380120","0.0-47.0","","","1-3","5715","37","0","Training","Stims/Figures/93-J-0-1.bmp","None","Left","39","3","12","10","N","J","44"
"","","approach-retreat","48","386555","0.0-48.0","","","1-3","4924","37","0","Training","Stims/Figures/7-C-20-4.bmp","None","Right","39","3","13","10","N","J","45"
"","","approach-retreat","49","393220","0.0-49.0","","","1-3","5153","37","0","Training","Stims/Figures/128-C-30-3.bmp","None","Right","39","3","14","10","N","J","46"
"","","approach-retreat","50","400089","0.0-50.0","","","1-3","5358","39","0","Training","Stims/Figures/111-J-10-3.bmp","None","Right","37","3","15","10","N","J","47"
"","","approach-retreat","51","408531","0.0-51.0","","","1-3","6932","37","0","Training","Stims/Figures/128-J-10-3.bmp","None","Left","39","3","16","10","N","J","48"
"","","approach-retreat","52","415728","0.0-52.0","","","1-3","5685","40","0","Training","Stims/Figures/19-J-10-4.bmp","None","Down","38","4","1","10","N","J","49"
"","","approach-retreat","53","422473","0.0-53.0","","","1-3","5234","38","0","Training","Stims/Figures/94-J-0-2.bmp","None","Up","40","4","2","10","N","J","50"
"","","approach-retreat","54","429340","0.0-54.0","","","1-3","5356","37","1","Training","Stims/Figures/128-C-30-3.bmp","None","Left","37","4","3","10","N","J","51"
"","","approach-retreat","55","438018","0.0-55.0","","","1-3","7167","39","0","Training","Stims/Figures/85-J-0-2.bmp","None","Right","37","4","4","10","N","J","52"
"","","approach-retreat","56","444784","0.0-56.0","","","1-3","5253","37","1","Training","Stims/Figures/85-C-20-2.bmp","None","Left","37","4","5","10","N","J","53"
"","","approach-retreat","57","451377","0.0-57.0","","","1-3","5082","38","1","Training","Stims/Figures/86-J-0-1.bmp","None","Down","38","4","6","10","N","J","54"
"","","approach-retreat","58","458287","0.0-58.0","","","1-3","5398","40","0","Training","Stims/Figures/7-C-20-4.bmp","None","Up","38","4","7","10","N","J","55"
"","","approach-retreat","59","465444","0.0-59.0","","","1-3","5645","37","0","Training","Stims/Figures/93-C-30-1.bmp","None","Right","39","4","8","10","N","J","56"
"","","approach-retreat","60","473596","0.0-60.0","","","1-3","6642","39","1","Training","Stims/Figures/111-C-30-3.bmp","None","Right","39","4","9","10","N","J","57"
"","","approach-retreat","61","480642","0.0-61.0","","","1-3","5534","40","1","Training","Stims/Figures/86-C-30-1.bmp","None","Down","40","4","10","10","N","J","58"
"","","approach-retreat","62","487326","0.0-62.0","","","1-3","5172","39","0","Training","Stims/Figures/128-J-10-3.bmp","None","Right","37","4","11","10","N","J","59"
"","","approach-retreat","63","494434","0.0-63.0","","","1-3","5597","38","1","Training","Stims/Figures/19-C-20-4.bmp","None","Up","38","4","12","10","N","J","60"
"","","approach-retreat","64","500804","0.0-64.0","","","1-3","4858","39","1","Training","Stims/Figures/111-J-10-3.bmp","None","Left","39","4","13","10","N","J","61"
"","","approach-retreat","65","507856","0.0-65.0","","","1-3","5541","38","0","Training","Stims/Figures/93-J-0-1.bmp","None","Up","40","4","14","10","N","J","62"
"","","approach-retreat","66","514790","0.0-66.0","","","1-3","5424","37","0","Training","Stims/Figures/7-J-10-4.bmp","None","Left","39","4","15","10","N","J","63"
"","","approach-retreat","67","520563","0.0-67.0","","","1-3","4262","38","0","Training","Stims/Figures/94-C-20-2.bmp","None","Down","40","4","16","10","N","J","64"
"","","approach-retreat","68","527367","0.0-68.0","","","1-3","5293","38","0","Training","Stims/Figures/85-C-20-2.bmp","None","Down","40","5","1","10","N","J","65"
"","","approach-retreat","69","533510","0.0-69.0","","","1-3","4633","38","0","Training","Stims/Figures/93-C-30-1.bmp","None","Down","40","5","2","10","N","J","66"
"","","approach-retreat","70","540644","0.0-70.0","","","1-3","5623","38","0","Training","Stims/Figures/128-J-10-3.bmp","None","Up","40","5","3","10","N","J","67"
"","","approach-retreat","71","548695","0.0-71.0","","","1-3","6535","39","1","Training","Stims/Figures/111-J-10-3.bmp","None","Left","39","5","4","10","N","J","68"
"","","approach-retreat","72","555515","0.0-72.0","","","1-3","5309","37","0","Training","Stims/Figures/19-C-20-4.bmp","None","Right","39","5","5","10","N","J","69"
"","","approach-retreat","73","561679","0.0-73.0","","","1-3","4650","38","0","Training","Stims/Figures/19-J-10-4.bmp","None","Up","40","5","6","10","N","J","70"
"","","approach-retreat","74","570015","0.0-74.0","","","1-3","6826","38","1","Training","Stims/Figures/94-J-0-2.bmp","None","Down","38","5","7","10","N","J","71"
"","","approach-retreat","75","576806","0.0-75.0","","","1-3","5281","37","0","Training","Stims/Figures/86-C-30-1.bmp","None","Right","39","5","8","10","N","J","72"
"","","approach-retreat","76","584108","0.0-76.0","","","1-3","5792","39","1","Training","Stims/Figures/7-J-10-4.bmp","None","Left","39","5","9","10","N","J","73"
"","","approach-retreat","77","591119","0.0-77.0","","","1-3","5499","40","0","Training","Stims/Figures/7-C-20-4.bmp","None","Up","38","5","10","10","N","J","74"
"","","approach-retreat","78","597497","0.0-78.0","","","1-3","4867","38","1","Training","Stims/Figures/111-C-30-3.bmp","None","Up","38","5","11","10","N","J","75"
"","","approach-retreat","79","604637","0.0-79.0","","","1-3","5628","37","1","Training","Stims/Figures/85-J-0-2.bmp","None","Right","37","5","12","10","N","J","76"
"","","approach-retreat","80","611151","0.0-80.0","","","1-3","4993","38","0","Training","Stims/Figures/94-C-20-2.bmp","None","Down","40","5","13","10","N","J","77"
"","","approach-retreat","81","618990","0.0-81.0","","","1-3","6328","37","0","Training","Stims/Figures/86-J-0-1.bmp","None","Left","39","5","14","10","N","J","78"
"","","approach-retreat","82","626355","0.0-82.0","","","1-3","5854","39","0","Training","Stims/Figures/128-C-30-3.bmp","None","Left","37","5","15","10","N","J","79"
"","","approach-retreat","83","633566","0.0-83.0","","","1-3","5699","37","1","Training","Stims/Figures/93-J-0-1.bmp","None","Right","37","5","16","10","N","J","80"
"","","approach-retreat","84","640007","0.0-84.0","","","1-3","4931","37","0","Training","Stims/Figures/86-J-0-1.bmp","None","Left","39","6","1","10","N","J","81"
"","","approach-retreat","85","646024","0.0-85.0","","","1-3","4507","37","0","Training","Stims/Figures/86-C-30-1.bmp","None","Right","39","6","2","10","N","J","82"
"","","approach-retreat","86","652703","0.0-86.0","","","1-3","5169","37","1","Training","Stims/Figures/128-C-30-3.bmp","None","Left","37","6","3","10","N","J","83"
"","","approach-retreat","87","658946","0.0-87.0","","","1-3","4732","38","0","Training","Stims/Figures/19-C-20-4.bmp","None","Down","40","6","4","10","N","J","84"
"","","approach-retreat","88","665830","0.0-88.0","","","1-3","5372","37","0","Training","Stims/Figures/93-J-0-1.bmp","None","Left","39","6","5","10","N","J","85"
"","","approach-retreat","89","673775","0.0-89.0","","","1-3","6437","38","1","Training","Stims/Figures/128-J-10-3.bmp","None","Down","38","6","6","10","N","J","86"
"","","approach-retreat","90","683428","0.0-90.0","","","1-3","8141","38","0","Training","Stims/Figures/94-J-0-2.bmp","None","Up","40","6","7","10","N","J","87"
"","","approach-retreat","91","689610","0.0-91.0","","","1-3","4672","38","1","Training","Stims/Figures/111-J-10-3.bmp","None","Down","38","6","8","10","N","J","88"
"","","approach-retreat","92","695907","0.0-92.0","","","1-3","4785","37","0","Training","Stims/Figures/93-C-30-1.bmp","None","Right","39","6","9","10","N","J","89"
"","","approach-retreat","93","702277","0.0-93.0","","","1-3","4859","38","1","Training","Stims/Figures/19-J-10-4.bmp","None","Down","38","6","10","10","N","J","90"
"","","approach-retreat","94","709018","0.0-94.0","","","1-3","5229","37","0","Training","Stims/Figures/85-J-0-2.bmp","None","Left","39","6","11","10","N","J","91"
"","","approach-retreat","95","715413","0.0-95.0","","","1-3","4883","37","0","Training","Stims/Figures/85-C-20-2.bmp","None","Right","39","6","12","10","N","J","92"
"","","approach-retreat","96","723175","0.0-96.0","","","1-3","6253","39","1","Training","Stims/Figures/94-C-20-2.bmp","None","Right","39","6","13","10","N","J","93"
"","","approach-retreat","97","730383","0.0-97.0","","","1-3","5698","38","0","Training","Stims/Figures/7-J-10-4.bmp","None","Up","40","6","14","10","N","J","94"
"","","approach-retreat","98","736291","0.0-98.0","","","1-3","4397","40","0","Training","Stims/Figures/7-C-20-4.bmp","None","Up","38","6","15","10","N","J","95"
"","","approach-retreat","99","742838","0.0-99.0","","","1-3","5035","38","1","Training","Stims/Figures/111-C-30-3.bmp","None","Up","38","6","16","10","N","J","96"
"","","approach-retreat","100","749463","0.0-100.0","","","1-3","5113","39","0","Training","Stims/Figures/7-J-10-4.bmp","None","Right","37","7","1","10","N","J","97"
"","","approach-retreat","101","760031","0.0-101.0","","","1-3","9058","38","1","Training","Stims/Figures/111-J-10-3.bmp","None","Down","38","7","2","10","N","J","98"
"","","approach-retreat","102","776821","0.0-102.0","","","1-3","15278","38","1","Training","Stims/Figures/111-C-30-3.bmp","None","Up","38","7","3","10","N","J","99"
"","","approach-retreat","103","785717","0.0-103.0","","","1-3","7384","39","1","Training","Stims/Figures/19-J-10-4.bmp","None","Left","39","7","4","10","N","J","100"
"","","approach-retreat","104","792881","0.0-104.0","","","1-3","5653","38","0","Training","Stims/Figures/93-J-0-1.bmp","None","Up","40","7","5","10","N","J","101"
"","","approach-retreat","105","800066","0.0-105.0","","","1-3","5673","39","1","Training","Stims/Figures/94-C-20-2.bmp","None","Right","39","7","6","10","N","J","102"
"","","approach-retreat","106","806104","0.0-106.0","","","1-3","4528","38","1","Training","Stims/Figures/85-J-0-2.bmp","None","Down","38","7","7","10","N","J","103"
"","","approach-retreat","107","812088","0.0-107.0","","","1-3","4472","39","0","Training","Stims/Figures/94-J-0-2.bmp","None","Right","37","7","8","10","N","J","104"
"","","approach-retreat","108","818239","0.0-108.0","","","1-3","4637","39","0","Training","Stims/Figures/86-C-30-1.bmp","None","Left","37","7","9","10","N","J","105"
"","","approach-retreat","109","824339","0.0-109.0","","","1-3","4586","38","1","Training","Stims/Figures/7-C-20-4.bmp","None","Up","38","7","10","10","N","J","106"
"","","approach-retreat","110","830552","0.0-110.0","","","1-3","4704","40","0","Training","Stims/Figures/128-J-10-3.bmp","None","Down","38","7","11","10","N","J","107"
"","","approach-retreat","111","836634","0.0-111.0","","","1-3","4570","40","0","Training","Stims/Figures/128-C-30-3.bmp","None","Up","38","7","12","10","N","J","108"
"","","approach-retreat","112","843201","0.0-112.0","","","1-3","5055","39","1","Training","Stims/Figures/86-J-0-1.bmp","None","Left","39","7","13","10","N","J","109"
"","","approach-retreat","113","849323","0.0-113.0","","","1-3","4612","38","0","Training","Stims/Figures/93-C-30-1.bmp","None","Down","40","7","14","10","N","J","110"
"","","approach-retreat","114","855614","0.0-114.0","","","1-3","4777","37","1","Training","Stims/Figures/85-C-20-2.bmp","None","Left","37","7","15","10","N","J","111"
"","","approach-retreat","115","862268","0.0-115.0","","","1-3","5142","37","0","Training","Stims/Figures/19-C-20-4.bmp","None","Right","39","7","16","10","N","J","112"
"","","approach-retreat","116","868175","0.0-116.0","","","1-3","4396","37","0","Training","Stims/Figures/85-J-0-2.bmp","None","Left","39","8","1","10","N","J","113"
"","","approach-retreat","117","875187","0.0-117.0","","","1-3","5502","39","1","Training","Stims/Figures/111-J-10-3.bmp","None","Left","39","8","2","10","N","J","114"
"","","approach-retreat","118","882038","0.0-118.0","","","1-3","5341","37","1","Training","Stims/Figures/86-J-0-1.bmp","None","Right","37","8","3","10","N","J","115"
"","","approach-retreat","119","889139","0.0-119.0","","","1-3","5588","38","1","Training","Stims/Figures/93-J-0-1.bmp","None","Down","38","8","4","10","N","J","116"
"","","approach-retreat","120","895179","0.0-120.0","","","1-3","4528","40","0","Training","Stims/Figures/94-C-20-2.bmp","None","Up","38","8","5","10","N","J","117"
"","","approach-retreat","121","901825","0.0-121.0","","","1-3","5133","38","0","Training","Stims/Figures/86-C-30-1.bmp","None","Down","40","8","6","10","N","J","118"
"","","approach-retreat","122","908063","0.0-122.0","","","1-3","4726","38","0","Training","Stims/Figures/94-J-0-2.bmp","None","Up","40","8","7","10","N","J","119"
"","","approach-retreat","123","915426","0.0-123.0","","","1-3","5852","38","0","Training","Stims/Figures/85-C-20-2.bmp","None","Down","40","8","8","10","N","J","120"
"","","approach-retreat","124","921608","0.0-124.0","","","1-3","4670","39","0","Training","Stims/Figures/7-J-10-4.bmp","None","Right","37","8","9","10","N","J","121"
"","","approach-retreat","125","928334","0.0-125.0","","","1-3","5217","38","1","Training","Stims/Figures/128-J-10-3.bmp","None","Down","38","8","10","10","N","J","122"
"","","approach-retreat","126","934733","0.0-126.0","","","1-3","4886","38","0","Training","Stims/Figures/19-J-10-4.bmp","None","Up","40","8","11","10","N","J","123"
"","","approach-retreat","127","941601","0.0-127.0","","","1-3","5357","39","1","Training","Stims/Figures/111-C-30-3.bmp","None","Right","39","8","12","10","N","J","124"
"","","approach-retreat","128","948424","0.0-128.0","","","1-3","5313","39","1","Training","Stims/Figures/7-C-20-4.bmp","None","Right","39","8","13","10","N","J","125"
"","","approach-retreat","129","955639","0.0-129.0","","","1-3","5704","37","1","Training","Stims/Figures/93-C-30-1.bmp","None","Left","37","8","14","10","N","J","126"
"","","approach-retreat","130","962486","0.0-130.0","","","1-3","5337","38","1","Training","Stims/Figures/128-C-30-3.bmp","None","Up","38","8","15","10","N","J","127"
"","","approach-retreat","131","969204","0.0-131.0","","","1-3","5203","37","1","Training","Stims/Figures/19-C-20-4.bmp","None","Left","37","8","16","10","N","J","128"
"","","approach-retreat","132","976058","0.0-132.0","","","1-3","5341","40","0","Training","Stims/Figures/86-J-0-1.bmp","None","Down","38","9","1","10","N","J","129"
"","","approach-retreat","133","982159","0.0-133.0","","","1-3","4591","38","1","Training","Stims/Figures/19-J-10-4.bmp","None","Down","38","9","2","10","N","J","130"
"","","approach-retreat","134","988254","0.0-134.0","","","1-3","4583","40","1","Training","Stims/Figures/7-J-10-4.bmp","None","Up","40","9","3","10","N","J","131"
"","","approach-retreat","135","995203","0.0-135.0","","","1-3","5438","37","0","Training","Stims/Figures/93-J-0-1.bmp","None","Left","39","9","4","10","N","J","132"
"","","approach-retreat","136","1002676","0.0-136.0","","","1-3","5962","39","1","Training","Stims/Figures/111-C-30-3.bmp","None","Right","39","9","5","10","N","J","133"
"","","approach-retreat","137","1009417","0.0-137.0","","","1-3","5230","39","0","Training","Stims/Figures/85-C-20-2.bmp","None","Left","37","9","6","10","N","J","134"
"","","approach-retreat","138","1016134","0.0-138.0","","","1-3","5205","40","0","Training","Stims/Figures/128-C-30-3.bmp","None","Up","38","9","7","10","N","J","135"
"","","approach-retreat","139","1022803","0.0-139.0","","","1-3","5160","38","0","Training","Stims/Figures/128-J-10-3.bmp","None","Up","40","9","8","10","N","J","136"
"","","approach-retreat","140","1029458","0.0-140.0","","","1-3","5141","38","0","Training","Stims/Figures/7-C-20-4.bmp","None","Down","40","9","9","10","N","J","137"
"","","approach-retreat","141","1036047","0.0-141.0","","","1-3","5080","37","1","Training","Stims/Figures/93-C-30-1.bmp","None","Left","37","9","10","10","N","J","138"
"","","approach-retreat","142","1042503","0.0-142.0","","","1-3","4945","38","1","Training","Stims/Figures/111-J-10-3.bmp","None","Down","38","9","11","10","N","J","139"
"","","approach-retreat","143","1050326","0.0-143.0","","","1-3","6310","38","0","Training","Stims/Figures/85-J-0-2.bmp","None","Up","40","9","12","10","N","J","140"
"","","approach-retreat","144","1057851","0.0-144.0","","","1-3","6016","39","1","Training","Stims/Figures/94-C-20-2.bmp","None","Right","39","9","13","10","N","J","141"
"","","approach-retreat","145","1065321","0.0-145.0","","","1-3","5959","39","0","Training","Stims/Figures/94-J-0-2.bmp","None","Right","37","9","14","10","N","J","142"
"","","approach-retreat","146","1075203","0.0-146.0","","","1-3","8372","37","1","Training","Stims/Figures/86-C-30-1.bmp","None","Left","37","9","15","10","N","J","143"
"","","approach-retreat","147","1082269","0.0-147.0","","","1-3","5552","37","0","Training","Stims/Figures/19-C-20-4.bmp","None","Right","39","9","16","10","N","J","144"
"13635","","instructions","148","1095904","0.0-148.0","[{""page_index"":0,""viewing_time"":13634}]","","","","","","","","","","","","","","","",""
"","","approach-retreat","149","1104257","0.0-149.0","","","1-3","6844","39","0","Testing","Stims/Figures/118-J-0-2.bmp","None","Right","37","1","1","10","N","J","1"
"","","approach-retreat","150","1112162","0.0-150.0","","","1-3","6389","38","1","Testing","Stims/Figures/144-J-10-3.bmp","None","Down","38","1","2","10","N","J","2"
"","","approach-retreat","151","1118620","0.0-151.0","","","1-3","4946","39","0","Testing","Stims/Figures/144-C-30-3.bmp","None","Left","37","1","3","10","N","J","3"
"","","approach-retreat","152","1125682","0.0-152.0","","","1-3","5551","38","0","Testing","Stims/Figures/128-J-10-3.bmp","None","Up","40","1","4","10","N","J","4"
"","","approach-retreat","153","1133442","0.0-153.0","","","1-3","6248","38","1","Testing","Stims/Figures/118-C-20-2.bmp","None","Up","38","1","5","10","N","J","5"
"","","approach-retreat","154","1140120","0.0-154.0","","","1-3","5167","40","0","Testing","Stims/Figures/86-C-30-1.bmp","None","Up","38","1","6","10","N","J","6"
"","","approach-retreat","155","1147064","0.0-155.0","","","1-3","5433","37","1","Testing","Stims/Figures/57-J-0-1.bmp","None","Right","37","1","7","10","N","J","7"
"","","approach-retreat","156","1153675","0.0-156.0","","","1-3","5100","38","0","Testing","Stims/Figures/57-C-30-1.bmp","None","Down","40","1","8","10","N","J","8"
"","","approach-retreat","157","1160666","0.0-157.0","","","1-3","5480","38","0","Testing","Stims/Figures/128-C-30-3.bmp","None","Down","40","1","9","10","N","J","9"
"","","approach-retreat","158","1168013","0.0-158.0","","","1-3","5837","40","0","Testing","Stims/Figures/7-J-10-4.bmp","None","Down","38","1","10","10","N","J","10"
"","","approach-retreat","159","1174497","0.0-159.0","","","1-3","4975","38","1","Testing","Stims/Figures/94-J-0-2.bmp","None","Down","38","1","11","10","N","J","11"
"","","approach-retreat","160","1182257","0.0-160.0","","","1-3","6248","40","0","Testing","Stims/Figures/87-J-10-4.bmp","None","Down","38","1","12","10","N","J","12"
"","","approach-retreat","161","1190485","0.0-161.0","","","1-3","6718","38","0","Testing","Stims/Figures/93-J-0-1.bmp","None","Up","40","1","13","10","N","J","13"
"","","approach-retreat","162","1198230","0.0-162.0","","","1-3","6233","37","1","Testing","Stims/Figures/93-C-30-1.bmp","None","Left","37","1","14","10","N","J","14"
"","","approach-retreat","163","1205874","0.0-163.0","","","1-3","6133","37","0","Testing","Stims/Figures/19-C-20-4.bmp","None","Right","39","1","15","10","N","J","15"
"","","approach-retreat","164","1213987","0.0-164.0","","","1-3","6603","39","0","Testing","Stims/Figures/85-C-20-2.bmp","None","Left","37","1","16","10","N","J","16"
"","","approach-retreat","165","1221992","0.0-165.0","","","1-3","6496","39","0","Testing","Stims/Figures/87-C-20-4.bmp","None","Left","37","1","17","10","N","J","17"
"","","approach-retreat","166","1230221","0.0-166.0","","","1-3","6720","39","1","Testing","Stims/Figures/94-C-20-2.bmp","None","Right","39","1","18","10","N","J","18"
"","","approach-retreat","167","1238941","0.0-167.0","","","1-3","7209","37","1","Testing","Stims/Figures/19-J-10-4.bmp","None","Right","37","1","19","10","N","J","19"
"","","approach-retreat","168","1246267","0.0-168.0","","","1-3","5814","37","0","Testing","Stims/Figures/86-J-0-1.bmp","None","Left","39","1","20","10","N","J","20"
"","","approach-retreat","169","1253754","0.0-169.0","","","1-3","5976","40","0","Testing","Stims/Figures/111-C-30-3.bmp","None","Up","38","1","21","10","N","J","21"
"","","approach-retreat","170","1262075","0.0-170.0","","","1-3","6812","37","1","Testing","Stims/Figures/7-C-20-4.bmp","None","Left","37","1","22","10","N","J","22"
"","","approach-retreat","171","1269258","0.0-171.0","","","1-3","5671","40","1","Testing","Stims/Figures/111-J-10-3.bmp","None","Up","40","1","23","10","N","J","23"
"","","approach-retreat","172","1277170","0.0-172.0","","","1-3","6401","37","1","Testing","Stims/Figures/85-J-0-2.bmp","None","Right","37","1","24","10","N","J","24"
"","","approach-retreat","173","1284924","0.0-173.0","","","1-3","6244","40","0","Testing","Stims/Figures/86-C-30-1.bmp","None","Up","38","2","1","10","N","J","25"
"","","approach-retreat","174","1292323","0.0-174.0","","","1-3","5889","37","0","Testing","Stims/Figures/7-C-20-4.bmp","None","Right","39","2","2","10","N","J","26"
"","","approach-retreat","175","1300556","0.0-175.0","","","1-3","6721","38","1","Testing","Stims/Figures/19-C-20-4.bmp","None","Up","38","2","3","10","N","J","27"
"","","approach-retreat","176","1308602","0.0-176.0","","","1-3","6536","37","0","Testing","Stims/Figures/118-J-0-2.bmp","None","Left","39","2","4","10","N","J","28"
"","","approach-retreat","177","1317178","0.0-177.0","","","1-3","7065","38","0","Testing","Stims/Figures/57-J-0-1.bmp","None","Up","40","2","5","10","N","J","29"
"","","approach-retreat","178","1325987","0.0-178.0","","","1-3","7297","39","0","Testing","Stims/Figures/87-J-10-4.bmp","None","Right","37","2","6","10","N","J","30"
"","","approach-retreat","179","1334944","0.0-179.0","","","1-3","7447","37","0","Testing","Stims/Figures/85-J-0-2.bmp","None","Left","39","2","7","10","N","J","31"
"","","approach-retreat","180","1341757","0.0-180.0","","","1-3","5303","38","1","Testing","Stims/Figures/94-J-0-2.bmp","None","Down","38","2","8","10","N","J","32"
"","","approach-retreat","181","1348909","0.0-181.0","","","1-3","5640","38","1","Testing","Stims/Figures/111-C-30-3.bmp","None","Up","38","2","9","10","N","J","33"
"","","approach-retreat","182","1356797","0.0-182.0","","","1-3","6377","37","0","Testing","Stims/Figures/85-C-20-2.bmp","None","Right","39","2","10","10","N","J","34"
"","","approach-retreat","183","1368633","0.0-183.0","","","1-3","10326","39","1","Testing","Stims/Figures/144-J-10-3.bmp","None","Left","39","2","11","10","N","J","35"
"","","approach-retreat","184","1375879","0.0-184.0","","","1-3","5736","38","0","Testing","Stims/Figures/93-C-30-1.bmp","None","Down","40","2","12","10","N","J","36"
"","","approach-retreat","185","1383364","0.0-185.0","","","1-3","5974","38","1","Testing","Stims/Figures/93-J-0-1.bmp","None","Down","38","2","13","10","N","J","37"
"","","approach-retreat","186","1389895","0.0-186.0","","","1-3","5015","39","0","Testing","Stims/Figures/144-C-30-3.bmp","None","Left","37","2","14","10","N","J","38"
"","","approach-retreat","187","1397306","0.0-187.0","","","1-3","5901","37","1","Testing","Stims/Figures/7-J-10-4.bmp","None","Right","37","2","15","10","N","J","39"
"","","approach-retreat","188","1404018","0.0-188.0","","","1-3","5197","38","1","Testing","Stims/Figures/128-J-10-3.bmp","None","Down","38","2","16","10","N","J","40"
"","","approach-retreat","189","1410684","0.0-189.0","","","1-3","5155","38","1","Testing","Stims/Figures/57-C-30-1.bmp","None","Up","38","2","17","10","N","J","41"
"","","approach-retreat","190","1417064","0.0-190.0","","","1-3","4869","37","1","Testing","Stims/Figures/86-J-0-1.bmp","None","Right","37","2","18","10","N","J","42"
"","","approach-retreat","191","1424269","0.0-191.0","","","1-3","5695","39","0","Testing","Stims/Figures/94-C-20-2.bmp","None","Left","37","2","19","10","N","J","43"
"","","approach-retreat","192","1431607","0.0-192.0","","","1-3","5829","39","1","Testing","Stims/Figures/111-J-10-3.bmp","None","Left","39","2","20","10","N","J","44"
"","","approach-retreat","193","1439047","0.0-193.0","","","1-3","5929","37","0","Testing","Stims/Figures/128-C-30-3.bmp","None","Right","39","2","21","10","N","J","45"
"","","approach-retreat","194","1446737","0.0-194.0","","","1-3","6179","38","0","Testing","Stims/Figures/87-C-20-4.bmp","None","Down","40","2","22","10","N","J","46"
"","","approach-retreat","195","1453923","0.0-195.0","","","1-3","5676","40","0","Testing","Stims/Figures/19-J-10-4.bmp","None","Down","38","2","23","10","N","J","47"
"","","approach-retreat","196","1461714","0.0-196.0","","","1-3","6280","38","1","Testing","Stims/Figures/118-C-20-2.bmp","None","Up","38","2","24","10","N","J","48"
"","","approach-retreat","197","1468758","0.0-197.0","","","1-3","5532","37","0","Testing","Stims/Figures/86-J-0-1.bmp","None","Left","39","3","1","10","N","J","49"
"","","approach-retreat","198","1475995","0.0-198.0","","","1-3","5726","37","1","Testing","Stims/Figures/87-C-20-4.bmp","None","Left","37","3","2","10","N","J","50"
"","","approach-retreat","199","1484653","0.0-199.0","","","1-3","7149","37","1","Testing","Stims/Figures/85-J-0-2.bmp","None","Right","37","3","3","10","N","J","51"
"","","approach-retreat","200","1491379","0.0-200.0","","","1-3","5215","38","0","Testing","Stims/Figures/94-C-20-2.bmp","None","Down","40","3","4","10","N","J","52"
"","","approach-retreat","201","1498346","0.0-201.0","","","1-3","5457","38","0","Testing","Stims/Figures/128-J-10-3.bmp","None","Up","40","3","5","10","N","J","53"
"","","approach-retreat","202","1505024","0.0-202.0","","","1-3","5166","37","1","Testing","Stims/Figures/57-J-0-1.bmp","None","Right","37","3","6","10","N","J","54"
"","","approach-retreat","203","1512260","0.0-203.0","","","1-3","5725","38","0","Testing","Stims/Figures/144-J-10-3.bmp","None","Up","40","3","7","10","N","J","55"
"","","approach-retreat","204","1519119","0.0-204.0","","","1-3","5349","38","1","Testing","Stims/Figures/111-J-10-3.bmp","None","Down","38","3","8","10","N","J","56"
"","","approach-retreat","205","1525857","0.0-205.0","","","1-3","5229","38","1","Testing","Stims/Figures/128-C-30-3.bmp","None","Up","38","3","9","10","N","J","57"
"","","approach-retreat","206","1533041","0.0-206.0","","","1-3","5675","40","0","Testing","Stims/Figures/86-C-30-1.bmp","None","Up","38","3","10","10","N","J","58"
"","","approach-retreat","207","1541699","0.0-207.0","","","1-3","7148","40","1","Testing","Stims/Figures/85-C-20-2.bmp","None","Down","40","3","11","10","N","J","59"
"","","approach-retreat","208","1548019","0.0-208.0","","","1-3","4809","38","1","Testing","Stims/Figures/94-J-0-2.bmp","None","Down","38","3","12","10","N","J","60"
"","","approach-retreat","209","1554911","0.0-209.0","","","1-3","5381","38","0","Testing","Stims/Figures/57-C-30-1.bmp","None","Down","40","3","13","10","N","J","61"
"","","approach-retreat","210","1561519","0.0-210.0","","","1-3","5097","37","1","Testing","Stims/Figures/93-C-30-1.bmp","None","Left","37","3","14","10","N","J","62"
"","","approach-retreat","211","1568634","0.0-211.0","","","1-3","5601","37","0","Testing","Stims/Figures/7-C-20-4.bmp","None","Right","39","3","15","10","N","J","63"
"","","approach-retreat","212","1582782","0.0-212.0","","","1-3","12639","39","0","Testing","Stims/Figures/118-J-0-2.bmp","None","Right","37","3","16","10","N","J","64"
"","","approach-retreat","213","1591640","0.0-213.0","","","1-3","7348","37","0","Testing","Stims/Figures/87-J-10-4.bmp","None","Left","39","3","17","10","N","J","65"
"","","approach-retreat","214","1598622","0.0-214.0","","","1-3","5472","40","0","Testing","Stims/Figures/93-J-0-1.bmp","None","Down","38","3","18","10","N","J","66"
"","","approach-retreat","215","1610221","0.0-215.0","","","1-3","10089","40","1","Testing","Stims/Figures/19-J-10-4.bmp","None","Up","40","3","19","10","N","J","67"
"","","approach-retreat","216","1621095","0.0-216.0","","","1-3","9364","38","1","Testing","Stims/Figures/111-C-30-3.bmp","None","Up","38","3","20","10","N","J","68"
"","","approach-retreat","217","1629273","0.0-217.0","","","1-3","6666","39","1","Testing","Stims/Figures/144-C-30-3.bmp","None","Right","39","3","21","10","N","J","69"
"","","approach-retreat","218","1636450","0.0-218.0","","","1-3","5667","37","0","Testing","Stims/Figures/118-C-20-2.bmp","None","Right","39","3","22","10","N","J","70"
"","","approach-retreat","219","1643308","0.0-219.0","","","1-3","5347","37","1","Testing","Stims/Figures/19-C-20-4.bmp","None","Left","37","3","23","10","N","J","71"
"","","approach-retreat","220","1650421","0.0-220.0","","","1-3","5602","37","0","Testing","Stims/Figures/7-J-10-4.bmp","None","Left","39","3","24","10","N","J","72"
"","","approach-retreat","221","1656509","0.0-221.0","","","1-3","4576","38","1","Testing","Stims/Figures/86-C-30-1.bmp","None","Up","38","4","1","10","N","J","73"
"","","approach-retreat","222","1664356","0.0-222.0","","","1-3","6336","39","1","Testing","Stims/Figures/94-C-20-2.bmp","None","Right","39","4","2","10","N","J","74"
"","","approach-retreat","223","1672417","0.0-223.0","","","1-3","6549","39","1","Testing","Stims/Figures/93-C-30-1.bmp","None","Right","39","4","3","10","N","J","75"
"","","approach-retreat","224","1679025","0.0-224.0","","","1-3","5097","38","1","Testing","Stims/Figures/128-J-10-3.bmp","None","Down","38","4","4","10","N","J","76"
"","","approach-retreat","225","1692781","0.0-225.0","","","1-3","12246","40","1","Testing","Stims/Figures/144-J-10-3.bmp","None","Up","40","4","5","10","N","J","77"
"","","approach-retreat","226","1700234","0.0-226.0","","","1-3","5942","37","0","Testing","Stims/Figures/128-C-30-3.bmp","None","Right","39","4","6","10","N","J","78"
"","","approach-retreat","227","1716317","0.0-227.0","","","1-3","14573","38","0","Testing","Stims/Figures/87-J-10-4.bmp","None","Up","40","4","7","10","N","J","79"
"","","approach-retreat","228","1723507","0.0-228.0","","","1-3","5680","38","1","Testing","Stims/Figures/111-J-10-3.bmp","None","Down","38","4","8","10","N","J","80"
"","","approach-retreat","229","1729405","0.0-229.0","","","1-3","4387","37","0","Testing","Stims/Figures/85-J-0-2.bmp","None","Left","39","4","9","10","N","J","81"
"","","approach-retreat","230","1736721","0.0-230.0","","","1-3","5802","37","1","Testing","Stims/Figures/7-C-20-4.bmp","None","Left","37","4","10","10","N","J","82"
"","","approach-retreat","231","1744134","0.0-231.0","","","1-3","5904","37","1","Testing","Stims/Figures/57-C-30-1.bmp","None","Left","37","4","11","10","N","J","83"
"","","approach-retreat","232","1750849","0.0-232.0","","","1-3","5205","37","0","Testing","Stims/Figures/87-C-20-4.bmp","None","Right","39","4","12","10","N","J","84"
"","","approach-retreat","233","1757396","0.0-233.0","","","1-3","5036","37","0","Testing","Stims/Figures/57-J-0-1.bmp","None","Left","39","4","13","10","N","J","85"
"","","approach-retreat","234","1764385","0.0-234.0","","","1-3","5480","38","1","Testing","Stims/Figures/86-J-0-1.bmp","None","Down","38","4","14","10","N","J","86"
"","","approach-retreat","235","1770597","0.0-235.0","","","1-3","4701","39","0","Testing","Stims/Figures/144-C-30-3.bmp","None","Left","37","4","15","10","N","J","87"
"","","approach-retreat","236","1778532","0.0-236.0","","","1-3","6424","40","1","Testing","Stims/Figures/93-J-0-1.bmp","None","Up","40","4","16","10","N","J","88"
"","","approach-retreat","237","1785408","0.0-237.0","","","1-3","5366","40","0","Testing","Stims/Figures/19-J-10-4.bmp","None","Down","38","4","17","10","N","J","89"
"","","approach-retreat","238","1794525","0.0-238.0","","","1-3","7608","38","1","Testing","Stims/Figures/111-C-30-3.bmp","None","Up","38","4","18","10","N","J","90"
"","","approach-retreat","239","1807223","0.0-239.0","","","1-3","11188","40","1","Testing","Stims/Figures/7-J-10-4.bmp","None","Up","40","4","19","10","N","J","91"
"","","approach-retreat","240","1815418","0.0-240.0","","","1-3","6685","40","0","Testing","Stims/Figures/118-J-0-2.bmp","None","Down","38","4","20","10","N","J","92"
"","","approach-retreat","241","1822597","0.0-241.0","","","1-3","5670","37","0","Testing","Stims/Figures/19-C-20-4.bmp","None","Right","39","4","21","10","N","J","93"
"","","approach-retreat","242","1829519","0.0-242.0","","","1-3","5411","40","1","Testing","Stims/Figures/118-C-20-2.bmp","None","Down","40","4","22","10","N","J","94"
"","","approach-retreat","243","1836513","0.0-243.0","","","1-3","5484","39","0","Testing","Stims/Figures/94-J-0-2.bmp","None","Right","37","4","23","10","N","J","95"
"","","approach-retreat","244","1844171","0.0-244.0","","","1-3","6148","39","0","Testing","Stims/Figures/85-C-20-2.bmp","None","Left","37","4","24","10","N","J","96"
"18225","","survey-text","245","1862405","0.0-245.0","","{""Q0"":""1086/2018""}","","","","","","","","","","","","","","",""
