"rt","key_press","trial_type","trial_index","time_elapsed","internal_node_id","view_history","responses","Id","Rt","ResKeyCode","ResCorr","TrialType2","Image","Label","Location","CorrectResponse","Block","BlockTrial","Condition","LabelType","Subcondition","trialNum"
"14971","32","text","0","14974","0.0-0.0-0.0","","","","","","","","","","","","","","","","",""
"117707","","instructions","1","132683","0.0-1.0","[{""page_index"":0,""viewing_time"":117707}]","","","","","","","","","","","","","","","",""
"9853","","survey-multi-choice","2","142560","0.0-2.0","","{""Q0"":""Da"",""Q1"":""Da"",""Q2"":""Da"",""Q3"":""Da"",""Q4"":""Da"",""Q5"":""Da""}","","","","","","","","","","","","","","",""
"","","bio","3","150442","0.0-3.0","","{""age"":""19"",""gender"":""f"",""specify"":""""}","","","","","","","","","","","","","","",""
"","","approach-retreat","4","160807","0.0-4.0","","","2-3","8861","39","1","Training","Stims/Figures/86-C-30-1.bmp","fa:fava","Right","39","1","1","6B","C1","J","1"
"","","approach-retreat","5","172022","0.0-5.0","","","2-3","9711","37","1","Training","Stims/Figures/102-C-20-4.bmp","fa:fa:va","Left","37","1","2","6B","C1","J","2"
"","","approach-retreat","6","180062","0.0-6.0","","","2-3","6537","39","1","Training","Stims/Figures/84-J-0-2.bmp","sa:haha","Left","39","1","3","6B","C2","J","3"
"","","approach-retreat","7","189118","0.0-7.0","","","2-3","7553","38","0","Training","Stims/Figures/102-J-10-4.bmp","saha:za","Up","40","1","4","6B","C2","J","4"
"","","approach-retreat","8","199983","0.0-8.0","","","2-3","9359","37","1","Training","Stims/Figures/27-C-30-1.bmp","vafava","Left","37","1","5","6B","C1","J","5"
"","","approach-retreat","9","211640","0.0-9.0","","","2-3","10150","39","0","Training","Stims/Figures/144-J-10-3.bmp","zahaha","Right","37","1","6","6B","C2","J","6"
"","","approach-retreat","10","219790","0.0-10.0","","","2-3","6646","38","1","Training","Stims/Figures/128-J-10-3.bmp","sasaha","Down","38","1","7","6B","C2","J","7"
"","","approach-retreat","11","231391","0.0-11.0","","","2-3","10096","40","1","Training","Stims/Figures/7-C-20-4.bmp","va:shava","Down","40","1","8","6B","C1","J","8"
"","","approach-retreat","12","246239","0.0-12.0","","","2-3","13345","40","1","Training","Stims/Figures/84-C-20-2.bmp","va:shasha","Down","40","1","9","6B","C1","J","9"
"","","approach-retreat","13","253766","0.0-13.0","","","2-3","6024","40","0","Training","Stims/Figures/144-C-30-3.bmp","fa:fasha","Up","38","1","10","6B","C1","J","10"
"","","approach-retreat","14","278783","0.0-14.0","","","2-3","23510","38","0","Training","Stims/Figures/86-J-0-1.bmp","sa:saha","Up","40","1","11","6B","C2","J","11"
"","","approach-retreat","15","296399","0.0-15.0","","","2-3","16110","37","0","Training","Stims/Figures/128-C-30-3.bmp","vafa:va","Right","39","1","12","6B","C1","J","12"
"","","approach-retreat","16","305127","0.0-16.0","","","2-3","7224","39","0","Training","Stims/Figures/27-J-0-1.bmp","sa:ha:ha","Right","37","1","13","6B","C2","J","13"
"","","approach-retreat","17","319119","0.0-17.0","","","2-3","12487","40","1","Training","Stims/Figures/7-J-10-4.bmp","za:sa:za","Up","40","1","14","6B","C2","J","14"
"","","approach-retreat","18","328784","0.0-18.0","","","2-3","8159","37","0","Training","Stims/Figures/118-J-0-2.bmp","sa:ha:za","Left","39","1","15","6B","C2","J","15"
"","","approach-retreat","19","351590","0.0-19.0","","","2-3","21301","40","1","Training","Stims/Figures/118-C-20-2.bmp","vasha:sha","Down","40","1","16","6B","C1","J","16"
"","","approach-retreat","20","359895","0.0-20.0","","","2-3","6800","38","1","Training","Stims/Figures/144-C-30-3.bmp","fa:fasha","Up","38","2","1","6B","C1","J","17"
"","","approach-retreat","21","389903","0.0-21.0","","","2-3","28504","37","0","Training","Stims/Figures/128-J-10-3.bmp","sasaha","Left","39","2","2","6B","C2","J","18"
"","","approach-retreat","22","399887","0.0-22.0","","","2-3","8478","39","1","Training","Stims/Figures/118-C-20-2.bmp","vasha:sha","Right","39","2","3","6B","C1","J","19"
"","","approach-retreat","23","413038","0.0-23.0","","","2-3","11646","40","1","Training","Stims/Figures/102-J-10-4.bmp","saha:za","Up","40","2","4","6B","C2","J","20"
"","","approach-retreat","24","423214","0.0-24.0","","","2-3","8672","39","0","Training","Stims/Figures/86-J-0-1.bmp","sa:saha","Right","37","2","5","6B","C2","J","21"
"","","approach-retreat","25","434543","0.0-25.0","","","2-3","9823","40","1","Training","Stims/Figures/84-C-20-2.bmp","va:shasha","Down","40","2","6","6B","C1","J","22"
"","","approach-retreat","26","444375","0.0-26.0","","","2-3","8326","39","1","Training","Stims/Figures/27-C-30-1.bmp","vafava","Right","39","2","7","6B","C1","J","23"
"","","approach-retreat","27","451752","0.0-27.0","","","2-3","5870","38","1","Training","Stims/Figures/118-J-0-2.bmp","sa:ha:za","Down","38","2","8","6B","C2","J","24"
"","","approach-retreat","28","463048","0.0-28.0","","","2-3","9790","39","1","Training","Stims/Figures/86-C-30-1.bmp","fa:fava","Right","39","2","9","6B","C1","J","25"
"","","approach-retreat","29","471310","0.0-29.0","","","2-3","6758","39","0","Training","Stims/Figures/128-C-30-3.bmp","vafa:va","Left","37","2","10","6B","C1","J","26"
"","","approach-retreat","30","482270","0.0-30.0","","","2-3","9457","40","1","Training","Stims/Figures/7-J-10-4.bmp","za:sa:za","Up","40","2","11","6B","C2","J","27"
"","","approach-retreat","31","489055","0.0-31.0","","","2-3","5281","39","1","Training","Stims/Figures/27-J-0-1.bmp","sa:ha:ha","Left","39","2","12","6B","C2","J","28"
"","","approach-retreat","32","499126","0.0-32.0","","","2-3","8567","38","1","Training","Stims/Figures/102-C-20-4.bmp","fa:fa:va","Up","38","2","13","6B","C1","J","29"
"","","approach-retreat","33","507640","0.0-33.0","","","2-3","7006","38","1","Training","Stims/Figures/84-J-0-2.bmp","sa:haha","Down","38","2","14","6B","C2","J","30"
"","","approach-retreat","34","514351","0.0-34.0","","","2-3","5206","39","1","Training","Stims/Figures/144-J-10-3.bmp","zahaha","Left","39","2","15","6B","C2","J","31"
"","","approach-retreat","35","523391","0.0-35.0","","","2-3","7534","40","1","Training","Stims/Figures/7-C-20-4.bmp","va:shava","Down","40","2","16","6B","C1","J","32"
"","","approach-retreat","36","533248","0.0-36.0","","","2-3","8352","37","1","Training","Stims/Figures/7-J-10-4.bmp","za:sa:za","Right","37","3","1","6B","C2","J","33"
"","","approach-retreat","37","542166","0.0-37.0","","","2-3","7415","38","1","Training","Stims/Figures/118-J-0-2.bmp","sa:ha:za","Down","38","3","2","6B","C2","J","34"
"","","approach-retreat","38","548031","0.0-38.0","","","2-3","4360","39","1","Training","Stims/Figures/144-J-10-3.bmp","zahaha","Left","39","3","3","6B","C2","J","35"
"","","approach-retreat","39","557855","0.0-39.0","","","2-3","8318","39","1","Training","Stims/Figures/102-C-20-4.bmp","fa:fa:va","Right","39","3","4","6B","C1","J","36"
"","","approach-retreat","40","564599","0.0-40.0","","","2-3","5240","37","1","Training","Stims/Figures/144-C-30-3.bmp","fa:fasha","Left","37","3","5","6B","C1","J","37"
"","","approach-retreat","41","570431","0.0-41.0","","","2-3","4326","38","1","Training","Stims/Figures/86-J-0-1.bmp","sa:saha","Down","38","3","6","6B","C2","J","38"
"","","approach-retreat","42","576879","0.0-42.0","","","2-3","4942","40","1","Training","Stims/Figures/27-J-0-1.bmp","sa:ha:ha","Up","40","3","7","6B","C2","J","39"
"","","approach-retreat","43","583894","0.0-43.0","","","2-3","5511","40","1","Training","Stims/Figures/86-C-30-1.bmp","fa:fava","Down","40","3","8","6B","C1","J","40"
"","","approach-retreat","44","592343","0.0-44.0","","","2-3","6946","39","1","Training","Stims/Figures/118-C-20-2.bmp","vasha:sha","Right","39","3","9","6B","C1","J","41"
"","","approach-retreat","45","599950","0.0-45.0","","","2-3","6103","38","1","Training","Stims/Figures/84-C-20-2.bmp","va:shasha","Up","38","3","10","6B","C1","J","42"
"","","approach-retreat","46","609023","0.0-46.0","","","2-3","7569","37","1","Training","Stims/Figures/27-C-30-1.bmp","vafava","Left","37","3","11","6B","C1","J","43"
"","","approach-retreat","47","617782","0.0-47.0","","","2-3","7253","37","1","Training","Stims/Figures/7-C-20-4.bmp","va:shava","Left","37","3","12","6B","C1","J","44"
"","","approach-retreat","48","632102","0.0-48.0","","","2-3","12815","38","1","Training","Stims/Figures/128-C-30-3.bmp","vafa:va","Up","38","3","13","6B","C1","J","45"
"","","approach-retreat","49","639598","0.0-49.0","","","2-3","5990","40","0","Training","Stims/Figures/102-J-10-4.bmp","saha:za","Down","38","3","14","6B","C2","J","46"
"","","approach-retreat","50","646486","0.0-50.0","","","2-3","5382","40","1","Training","Stims/Figures/128-J-10-3.bmp","sasaha","Up","40","3","15","6B","C2","J","47"
"","","approach-retreat","51","652157","0.0-51.0","","","2-3","4168","37","1","Training","Stims/Figures/84-J-0-2.bmp","sa:haha","Right","37","3","16","6B","C2","J","48"
"","","approach-retreat","52","658118","0.0-52.0","","","2-3","4457","37","1","Training","Stims/Figures/128-J-10-3.bmp","sasaha","Right","37","4","1","6B","C2","J","49"
"","","approach-retreat","53","665319","0.0-53.0","","","2-3","5696","38","1","Training","Stims/Figures/84-C-20-2.bmp","va:shasha","Up","38","4","2","6B","C1","J","50"
"","","approach-retreat","54","671575","0.0-54.0","","","2-3","4752","39","1","Training","Stims/Figures/144-J-10-3.bmp","zahaha","Left","39","4","3","6B","C2","J","51"
"","","approach-retreat","55","677439","0.0-55.0","","","2-3","4357","40","1","Training","Stims/Figures/86-J-0-1.bmp","sa:saha","Up","40","4","4","6B","C2","J","52"
"","","approach-retreat","56","683599","0.0-56.0","","","2-3","4654","38","0","Training","Stims/Figures/7-C-20-4.bmp","va:shava","Down","40","4","5","6B","C1","J","53"
"","","approach-retreat","57","689495","0.0-57.0","","","2-3","4390","37","1","Training","Stims/Figures/27-C-30-1.bmp","vafava","Left","37","4","6","6B","C1","J","54"
"","","approach-retreat","58","695407","0.0-58.0","","","2-3","4408","39","1","Training","Stims/Figures/86-C-30-1.bmp","fa:fava","Right","39","4","7","6B","C1","J","55"
"","","approach-retreat","59","701191","0.0-59.0","","","2-3","4278","39","1","Training","Stims/Figures/144-C-30-3.bmp","fa:fasha","Right","39","4","8","6B","C1","J","56"
"","","approach-retreat","60","707039","0.0-60.0","","","2-3","4342","39","1","Training","Stims/Figures/7-J-10-4.bmp","za:sa:za","Left","39","4","9","6B","C2","J","57"
"","","approach-retreat","61","713677","0.0-61.0","","","2-3","5135","40","1","Training","Stims/Figures/118-J-0-2.bmp","sa:ha:za","Up","40","4","10","6B","C2","J","58"
"","","approach-retreat","62","719446","0.0-62.0","","","2-3","4265","40","1","Training","Stims/Figures/27-J-0-1.bmp","sa:ha:ha","Up","40","4","11","6B","C2","J","59"
"","","approach-retreat","63","725158","0.0-63.0","","","2-3","4209","37","1","Training","Stims/Figures/84-J-0-2.bmp","sa:haha","Right","37","4","12","6B","C2","J","60"
"","","approach-retreat","64","735599","0.0-64.0","","","2-3","8936","37","1","Training","Stims/Figures/128-C-30-3.bmp","vafa:va","Left","37","4","13","6B","C1","J","61"
"","","approach-retreat","65","741886","0.0-65.0","","","2-3","4783","38","1","Training","Stims/Figures/102-J-10-4.bmp","saha:za","Down","38","4","14","6B","C2","J","62"
"","","approach-retreat","66","751735","0.0-66.0","","","2-3","8343","40","1","Training","Stims/Figures/102-C-20-4.bmp","fa:fa:va","Down","40","4","15","6B","C1","J","63"
"","","approach-retreat","67","761943","0.0-67.0","","","2-3","8702","38","0","Training","Stims/Figures/118-C-20-2.bmp","vasha:sha","Down","40","4","16","6B","C1","J","64"
"","","approach-retreat","68","768654","0.0-68.0","","","2-3","5206","38","1","Training","Stims/Figures/7-C-20-4.bmp","va:shava","Up","38","5","1","6B","C1","J","65"
"","","approach-retreat","69","775639","0.0-69.0","","","2-3","5479","38","1","Training","Stims/Figures/144-J-10-3.bmp","zahaha","Down","38","5","2","6B","C2","J","66"
"","","approach-retreat","70","782360","0.0-70.0","","","2-3","5217","40","1","Training","Stims/Figures/128-C-30-3.bmp","vafa:va","Down","40","5","3","6B","C1","J","67"
"","","approach-retreat","71","788736","0.0-71.0","","","2-3","4870","37","1","Training","Stims/Figures/7-J-10-4.bmp","za:sa:za","Right","37","5","4","6B","C2","J","68"
"","","approach-retreat","72","797712","0.0-72.0","","","2-3","7470","40","1","Training","Stims/Figures/84-J-0-2.bmp","sa:haha","Up","40","5","5","6B","C2","J","69"
"","","approach-retreat","73","805663","0.0-73.0","","","2-3","6445","38","0","Training","Stims/Figures/118-C-20-2.bmp","vasha:sha","Down","40","5","6","6B","C1","J","70"
"","","approach-retreat","74","814664","0.0-74.0","","","2-3","7494","40","1","Training","Stims/Figures/102-J-10-4.bmp","saha:za","Up","40","5","7","6B","C2","J","71"
"","","approach-retreat","75","820631","0.0-75.0","","","2-3","4462","40","1","Training","Stims/Figures/128-J-10-3.bmp","sasaha","Up","40","5","8","6B","C2","J","72"
"","","approach-retreat","76","827870","0.0-76.0","","","2-3","5734","39","1","Training","Stims/Figures/118-J-0-2.bmp","sa:ha:za","Left","39","5","9","6B","C2","J","73"
"","","approach-retreat","77","833702","0.0-77.0","","","2-3","4328","39","1","Training","Stims/Figures/27-C-30-1.bmp","vafava","Right","39","5","10","6B","C1","J","74"
"","","approach-retreat","78","839727","0.0-78.0","","","2-3","4519","37","1","Training","Stims/Figures/86-C-30-1.bmp","fa:fava","Left","37","5","11","6B","C1","J","75"
"","","approach-retreat","79","845951","0.0-79.0","","","2-3","4719","39","1","Training","Stims/Figures/27-J-0-1.bmp","sa:ha:ha","Left","39","5","12","6B","C2","J","76"
"","","approach-retreat","80","853303","0.0-80.0","","","2-3","5846","40","1","Training","Stims/Figures/144-C-30-3.bmp","fa:fasha","Down","40","5","13","6B","C1","J","77"
"","","approach-retreat","81","860006","0.0-81.0","","","2-3","5199","37","1","Training","Stims/Figures/86-J-0-1.bmp","sa:saha","Right","37","5","14","6B","C2","J","78"
"","","approach-retreat","82","865873","0.0-82.0","","","2-3","4359","39","1","Training","Stims/Figures/102-C-20-4.bmp","fa:fa:va","Right","39","5","15","6B","C1","J","79"
"","","approach-retreat","83","873016","0.0-83.0","","","2-3","5637","37","1","Training","Stims/Figures/84-C-20-2.bmp","va:shasha","Left","37","5","16","6B","C1","J","80"
"","","approach-retreat","84","879206","0.0-84.0","","","2-3","4684","39","1","Training","Stims/Figures/86-J-0-1.bmp","sa:saha","Left","39","6","1","6B","C2","J","81"
"","","approach-retreat","85","886710","0.0-85.0","","","2-3","5998","38","1","Training","Stims/Figures/128-C-30-3.bmp","vafa:va","Up","38","6","2","6B","C1","J","82"
"","","approach-retreat","86","892551","0.0-86.0","","","2-3","4335","40","1","Training","Stims/Figures/118-J-0-2.bmp","sa:ha:za","Up","40","6","3","6B","C2","J","83"
"","","approach-retreat","87","898790","0.0-87.0","","","2-3","4736","40","1","Training","Stims/Figures/7-J-10-4.bmp","za:sa:za","Up","40","6","4","6B","C2","J","84"
"","","approach-retreat","88","904911","0.0-88.0","","","2-3","4616","39","1","Training","Stims/Figures/7-C-20-4.bmp","va:shava","Right","39","6","5","6B","C1","J","85"
"","","approach-retreat","89","911951","0.0-89.0","","","2-3","5536","40","1","Training","Stims/Figures/102-J-10-4.bmp","saha:za","Up","40","6","6","6B","C2","J","86"
"","","approach-retreat","90","918631","0.0-90.0","","","2-3","5174","40","1","Training","Stims/Figures/144-C-30-3.bmp","fa:fasha","Down","40","6","7","6B","C1","J","87"
"","","approach-retreat","91","924751","0.0-91.0","","","2-3","4614","39","1","Training","Stims/Figures/102-C-20-4.bmp","fa:fa:va","Right","39","6","8","6B","C1","J","88"
"","","approach-retreat","92","930215","0.0-92.0","","","2-3","3958","37","1","Training","Stims/Figures/128-J-10-3.bmp","sasaha","Right","37","6","9","6B","C2","J","89"
"","","approach-retreat","93","935976","0.0-93.0","","","2-3","4254","37","1","Training","Stims/Figures/144-J-10-3.bmp","zahaha","Right","37","6","10","6B","C2","J","90"
"","","approach-retreat","94","943351","0.0-94.0","","","2-3","5870","37","1","Training","Stims/Figures/86-C-30-1.bmp","fa:fava","Left","37","6","11","6B","C1","J","91"
"","","approach-retreat","95","949214","0.0-95.0","","","2-3","4359","37","1","Training","Stims/Figures/84-C-20-2.bmp","va:shasha","Left","37","6","12","6B","C1","J","92"
"","","approach-retreat","96","955638","0.0-96.0","","","2-3","4920","40","1","Training","Stims/Figures/27-C-30-1.bmp","vafava","Down","40","6","13","6B","C1","J","93"
"","","approach-retreat","97","972111","0.0-97.0","","","2-3","14969","37","1","Training","Stims/Figures/118-C-20-2.bmp","vasha:sha","Left","37","6","14","6B","C1","J","94"
"","","approach-retreat","98","978152","0.0-98.0","","","2-3","4534","38","1","Training","Stims/Figures/27-J-0-1.bmp","sa:ha:ha","Down","38","6","15","6B","C2","J","95"
"","","approach-retreat","99","988807","0.0-99.0","","","2-3","9151","38","1","Training","Stims/Figures/84-J-0-2.bmp","sa:haha","Down","38","6","16","6B","C2","J","96"
"","","approach-retreat","100","1008511","0.0-100.0","","","2-3","18198","40","1","Training","Stims/Figures/7-C-20-4.bmp","va:shava","Down","40","7","1","6B","C1","J","97"
"","","approach-retreat","101","1016686","0.0-101.0","","","2-3","6670","38","1","Training","Stims/Figures/84-C-20-2.bmp","va:shasha","Up","38","7","2","6B","C1","J","98"
"","","approach-retreat","102","1024943","0.0-102.0","","","2-3","6752","39","1","Training","Stims/Figures/84-J-0-2.bmp","sa:haha","Left","39","7","3","6B","C2","J","99"
"","","approach-retreat","103","1030758","0.0-103.0","","","2-3","4310","37","1","Training","Stims/Figures/118-C-20-2.bmp","vasha:sha","Left","37","7","4","6B","C1","J","100"
"","","approach-retreat","104","1041439","0.0-104.0","","","2-3","9175","38","1","Training","Stims/Figures/118-J-0-2.bmp","sa:ha:za","Down","38","7","5","6B","C2","J","101"
"","","approach-retreat","105","1053559","0.0-105.0","","","2-3","10615","38","1","Training","Stims/Figures/27-C-30-1.bmp","vafava","Up","38","7","6","6B","C1","J","102"
"","","approach-retreat","106","1059544","0.0-106.0","","","2-3","4478","39","1","Training","Stims/Figures/86-C-30-1.bmp","fa:fava","Right","39","7","7","6B","C1","J","103"
"","","approach-retreat","107","1067024","0.0-107.0","","","2-3","5974","37","1","Training","Stims/Figures/86-J-0-1.bmp","sa:saha","Right","37","7","8","6B","C2","J","104"
"","","approach-retreat","108","1075175","0.0-108.0","","","2-3","6647","37","1","Training","Stims/Figures/102-J-10-4.bmp","saha:za","Right","37","7","9","6B","C2","J","105"
"","","approach-retreat","109","1082903","0.0-109.0","","","2-3","6224","40","1","Training","Stims/Figures/128-C-30-3.bmp","vafa:va","Down","40","7","10","6B","C1","J","106"
"","","approach-retreat","110","1088494","0.0-110.0","","","2-3","4088","37","1","Training","Stims/Figures/7-J-10-4.bmp","za:sa:za","Right","37","7","11","6B","C2","J","107"
"","","approach-retreat","111","1094911","0.0-111.0","","","2-3","4909","37","1","Training","Stims/Figures/102-C-20-4.bmp","fa:fa:va","Left","37","7","12","6B","C1","J","108"
"","","approach-retreat","112","1101438","0.0-112.0","","","2-3","5022","39","1","Training","Stims/Figures/144-J-10-3.bmp","zahaha","Left","39","7","13","6B","C2","J","109"
"","","approach-retreat","113","1107439","0.0-113.0","","","2-3","4495","40","1","Training","Stims/Figures/27-J-0-1.bmp","sa:ha:ha","Up","40","7","14","6B","C2","J","110"
"","","approach-retreat","114","1113622","0.0-114.0","","","2-3","4677","40","1","Training","Stims/Figures/128-J-10-3.bmp","sasaha","Up","40","7","15","6B","C2","J","111"
"","","approach-retreat","115","1120694","0.0-115.0","","","2-3","5567","40","1","Training","Stims/Figures/144-C-30-3.bmp","fa:fasha","Down","40","7","16","6B","C1","J","112"
"","","approach-retreat","116","1131424","0.0-116.0","","","2-3","9221","40","1","Training","Stims/Figures/118-C-20-2.bmp","vasha:sha","Down","40","8","1","6B","C1","J","113"
"","","approach-retreat","117","1141120","0.0-117.0","","","2-3","8192","39","1","Training","Stims/Figures/144-C-30-3.bmp","fa:fasha","Right","39","8","2","6B","C1","J","114"
"","","approach-retreat","118","1148167","0.0-118.0","","","2-3","5543","38","1","Training","Stims/Figures/84-J-0-2.bmp","sa:haha","Down","38","8","3","6B","C2","J","115"
"","","approach-retreat","119","1154271","0.0-119.0","","","2-3","4599","38","1","Training","Stims/Figures/7-C-20-4.bmp","va:shava","Up","38","8","4","6B","C1","J","116"
"","","approach-retreat","120","1160175","0.0-120.0","","","2-3","4399","37","1","Training","Stims/Figures/7-J-10-4.bmp","za:sa:za","Right","37","8","5","6B","C2","J","117"
"","","approach-retreat","121","1166287","0.0-121.0","","","2-3","4605","38","1","Training","Stims/Figures/102-C-20-4.bmp","fa:fa:va","Up","38","8","6","6B","C1","J","118"
"","","approach-retreat","122","1172864","0.0-122.0","","","2-3","5071","37","1","Training","Stims/Figures/86-C-30-1.bmp","fa:fava","Left","37","8","7","6B","C1","J","119"
"","","approach-retreat","123","1180400","0.0-123.0","","","2-3","6030","39","1","Training","Stims/Figures/128-J-10-3.bmp","sasaha","Left","39","8","8","6B","C2","J","120"
"","","approach-retreat","124","1190663","0.0-124.0","","","2-3","8758","39","1","Training","Stims/Figures/102-J-10-4.bmp","saha:za","Left","39","8","9","6B","C2","J","121"
"","","approach-retreat","125","1202574","0.0-125.0","","","2-3","10407","38","1","Training","Stims/Figures/27-C-30-1.bmp","vafava","Up","38","8","10","6B","C1","J","122"
"","","approach-retreat","126","1209927","0.0-126.0","","","2-3","5847","38","1","Training","Stims/Figures/128-C-30-3.bmp","vafa:va","Up","38","8","11","6B","C1","J","123"
"","","approach-retreat","127","1216542","0.0-127.0","","","2-3","5110","38","1","Training","Stims/Figures/118-J-0-2.bmp","sa:ha:za","Down","38","8","12","6B","C2","J","124"
"","","approach-retreat","128","1222678","0.0-128.0","","","2-3","4631","39","1","Training","Stims/Figures/84-C-20-2.bmp","va:shasha","Right","39","8","13","6B","C1","J","125"
"","","approach-retreat","129","1228839","0.0-129.0","","","2-3","4655","39","1","Training","Stims/Figures/86-J-0-1.bmp","sa:saha","Left","39","8","14","6B","C2","J","126"
"","","approach-retreat","130","1234998","0.0-130.0","","","2-3","4655","37","1","Training","Stims/Figures/144-J-10-3.bmp","zahaha","Right","37","8","15","6B","C2","J","127"
"","","approach-retreat","131","1241064","0.0-131.0","","","2-3","4560","38","1","Training","Stims/Figures/27-J-0-1.bmp","sa:ha:ha","Down","38","8","16","6B","C2","J","128"
"","","approach-retreat","132","1246815","0.0-132.0","","","2-3","4246","39","1","Training","Stims/Figures/144-J-10-3.bmp","zahaha","Left","39","9","1","6B","C2","J","129"
"","","approach-retreat","133","1252751","0.0-133.0","","","2-3","4432","39","1","Training","Stims/Figures/128-J-10-3.bmp","sasaha","Left","39","9","2","6B","C2","J","130"
"","","approach-retreat","134","1258630","0.0-134.0","","","2-3","4376","37","1","Training","Stims/Figures/84-J-0-2.bmp","sa:haha","Right","37","9","3","6B","C2","J","131"
"","","approach-retreat","135","1264470","0.0-135.0","","","2-3","4336","39","1","Training","Stims/Figures/128-C-30-3.bmp","vafa:va","Right","39","9","4","6B","C1","J","132"
"","","approach-retreat","136","1270582","0.0-136.0","","","2-3","4606","38","1","Training","Stims/Figures/102-C-20-4.bmp","fa:fa:va","Up","38","9","5","6B","C1","J","133"
"","","approach-retreat","137","1276870","0.0-137.0","","","2-3","4783","40","1","Training","Stims/Figures/144-C-30-3.bmp","fa:fasha","Down","40","9","6","6B","C1","J","134"
"","","approach-retreat","138","1283153","0.0-138.0","","","2-3","4775","40","1","Training","Stims/Figures/7-C-20-4.bmp","va:shava","Down","40","9","7","6B","C1","J","135"
"","","approach-retreat","139","1289366","0.0-139.0","","","2-3","4707","38","1","Training","Stims/Figures/27-C-30-1.bmp","vafava","Up","38","9","8","6B","C1","J","136"
"","","approach-retreat","140","1295742","0.0-140.0","","","2-3","4871","39","1","Training","Stims/Figures/118-J-0-2.bmp","sa:ha:za","Left","39","9","9","6B","C2","J","137"
"","","approach-retreat","141","1303848","0.0-141.0","","","2-3","6598","40","1","Training","Stims/Figures/86-J-0-1.bmp","sa:saha","Up","40","9","10","6B","C2","J","138"
"","","approach-retreat","142","1311398","0.0-142.0","","","2-3","6045","37","1","Training","Stims/Figures/27-J-0-1.bmp","sa:ha:ha","Right","37","9","11","6B","C2","J","139"
"","","approach-retreat","143","1320967","0.0-143.0","","","2-3","8064","38","1","Training","Stims/Figures/7-J-10-4.bmp","za:sa:za","Down","38","9","12","6B","C2","J","140"
"","","approach-retreat","144","1327198","0.0-144.0","","","2-3","4725","38","1","Training","Stims/Figures/84-C-20-2.bmp","va:shasha","Up","38","9","13","6B","C1","J","141"
"","","approach-retreat","145","1340862","0.0-145.0","","","2-3","12160","37","1","Training","Stims/Figures/86-C-30-1.bmp","fa:fava","Left","37","9","14","6B","C1","J","142"
"","","approach-retreat","146","1346782","0.0-146.0","","","2-3","4414","39","0","Training","Stims/Figures/102-J-10-4.bmp","saha:za","Right","37","9","15","6B","C2","J","143"
"","","approach-retreat","147","1352511","0.0-147.0","","","2-3","4223","38","0","Training","Stims/Figures/118-C-20-2.bmp","vasha:sha","Down","40","9","16","6B","C1","J","144"
"12018","","instructions","148","1364529","0.0-148.0","[{""page_index"":0,""viewing_time"":12018}]","","","","","","","","","","","","","","","",""
"","","approach-retreat","149","1371502","0.0-149.0","","","2-3","5469","38","1","Testing","Stims/Figures/27-J-0-1.bmp","sa:ha:ha","Down","38","1","1","6B","C2","J","1"
"","","approach-retreat","150","1377454","0.0-150.0","","","2-3","4449","38","1","Testing","Stims/Figures/118-J-0-2.bmp","sa:ha:za","Down","38","1","2","6B","C2","J","2"
"","","approach-retreat","151","1383478","0.0-151.0","","","2-3","4520","40","1","Testing","Stims/Figures/111-C-30-3.bmp","va:sha:va","Down","40","1","3","6B","C1","J","3"
"","","approach-retreat","152","1389750","0.0-152.0","","","2-3","4769","38","1","Testing","Stims/Figures/118-C-20-2.bmp","vasha:sha","Up","38","1","4","6B","C1","J","4"
"","","approach-retreat","153","1403399","0.0-153.0","","","2-3","12144","37","0","Testing","Stims/Figures/128-J-10-3.bmp","sasaha","Left","39","1","5","6B","C2","J","5"
"","","approach-retreat","154","1410222","0.0-154.0","","","2-3","5318","37","1","Testing","Stims/Figures/19-C-20-4.bmp","va:fava","Left","37","1","6","6B","C1","J","6"
"","","approach-retreat","155","1416286","0.0-155.0","","","2-3","4560","37","1","Testing","Stims/Figures/84-C-20-2.bmp","va:shasha","Left","37","1","7","6B","C1","J","7"
"","","approach-retreat","156","1422367","0.0-156.0","","","2-3","4576","38","1","Testing","Stims/Figures/7-C-20-4.bmp","va:shava","Up","38","1","8","6B","C1","J","8"
"","","approach-retreat","157","1428295","0.0-157.0","","","2-3","4423","40","1","Testing","Stims/Figures/111-J-10-3.bmp","sahaha","Up","40","1","9","6B","C2","J","9"
"","","approach-retreat","158","1434334","0.0-158.0","","","2-3","4536","38","1","Testing","Stims/Figures/86-J-0-1.bmp","sa:saha","Down","38","1","10","6B","C2","J","10"
"","","approach-retreat","159","1441078","0.0-159.0","","","2-3","5241","40","1","Testing","Stims/Figures/7-J-10-4.bmp","za:sa:za","Up","40","1","11","6B","C2","J","11"
"","","approach-retreat","160","1447022","0.0-160.0","","","2-3","4440","39","1","Testing","Stims/Figures/144-C-30-3.bmp","fa:fasha","Right","39","1","12","6B","C1","J","12"
"","","approach-retreat","161","1454814","0.0-161.0","","","2-3","6288","37","1","Testing","Stims/Figures/128-C-30-3.bmp","vafa:va","Left","37","1","13","6B","C1","J","13"
"","","approach-retreat","162","1461318","0.0-162.0","","","2-3","5000","39","1","Testing","Stims/Figures/84-J-0-2.bmp","sa:haha","Left","39","1","14","6B","C2","J","14"
"","","approach-retreat","163","1467352","0.0-163.0","","","2-3","4528","37","1","Testing","Stims/Figures/144-J-10-3.bmp","zahaha","Right","37","1","15","6B","C2","J","15"
"","","approach-retreat","164","1491591","0.0-164.0","","","2-3","22735","37","1","Testing","Stims/Figures/102-C-20-4.bmp","fa:fa:va","Left","37","1","16","6B","C1","J","16"
"","","approach-retreat","165","1497309","0.0-165.0","","","2-3","4215","38","1","Testing","Stims/Figures/27-C-30-1.bmp","vafava","Up","38","1","17","6B","C1","J","17"
"","","approach-retreat","166","1502958","0.0-166.0","","","2-3","4145","37","1","Testing","Stims/Figures/57-J-0-1.bmp","za:ha:za","Right","37","1","18","6B","C2","J","18"
"","","approach-retreat","167","1510118","0.0-167.0","","","2-3","5652","39","0","Testing","Stims/Figures/19-J-10-4.bmp","zaha:ha","Right","37","1","19","6B","C2","J","19"
"","","approach-retreat","168","1516783","0.0-168.0","","","2-3","5161","38","1","Testing","Stims/Figures/85-C-20-2.bmp","vafasha","Up","38","1","20","6B","C1","J","20"
"","","approach-retreat","169","1523175","0.0-169.0","","","2-3","4886","38","1","Testing","Stims/Figures/102-J-10-4.bmp","saha:za","Down","38","1","21","6B","C2","J","21"
"","","approach-retreat","170","1529111","0.0-170.0","","","2-3","4432","37","1","Testing","Stims/Figures/85-J-0-2.bmp","sa:haza","Right","37","1","22","6B","C2","J","22"
"","","approach-retreat","171","1537270","0.0-171.0","","","2-3","6654","40","1","Testing","Stims/Figures/57-C-30-1.bmp","vashava","Down","40","1","23","6B","C1","J","23"
"","","approach-retreat","172","1543599","0.0-172.0","","","2-3","4824","39","1","Testing","Stims/Figures/86-C-30-1.bmp","fa:fava","Right","39","1","24","6B","C1","J","24"
"","","approach-retreat","173","1549927","0.0-173.0","","","2-3","4823","37","1","Testing","Stims/Figures/111-J-10-3.bmp","sahaha","Right","37","2","1","6B","C2","J","25"
"","","approach-retreat","174","1555774","0.0-174.0","","","2-3","4344","37","1","Testing","Stims/Figures/111-C-30-3.bmp","va:sha:va","Left","37","2","2","6B","C1","J","26"
"","","approach-retreat","175","1562814","0.0-175.0","","","2-3","5537","39","1","Testing","Stims/Figures/7-J-10-4.bmp","za:sa:za","Left","39","2","3","6B","C2","J","27"
"","","approach-retreat","176","1568646","0.0-176.0","","","2-3","4328","38","1","Testing","Stims/Figures/7-C-20-4.bmp","va:shava","Up","38","2","4","6B","C1","J","28"
"","","approach-retreat","177","1574583","0.0-177.0","","","2-3","4431","39","1","Testing","Stims/Figures/27-J-0-1.bmp","sa:ha:ha","Left","39","2","5","6B","C2","J","29"
"","","approach-retreat","178","1580350","0.0-178.0","","","2-3","4262","39","1","Testing","Stims/Figures/102-J-10-4.bmp","saha:za","Left","39","2","6","6B","C2","J","30"
"","","approach-retreat","179","1600911","0.0-179.0","","","2-3","19056","39","1","Testing","Stims/Figures/102-C-20-4.bmp","fa:fa:va","Right","39","2","7","6B","C1","J","31"
"","","approach-retreat","180","1607133","0.0-180.0","","","2-3","4718","40","1","Testing","Stims/Figures/84-C-20-2.bmp","va:shasha","Down","40","2","8","6B","C1","J","32"
"","","approach-retreat","181","1612926","0.0-181.0","","","2-3","4289","38","1","Testing","Stims/Figures/86-C-30-1.bmp","fa:fava","Up","38","2","9","6B","C1","J","33"
"","","approach-retreat","182","1622710","0.0-182.0","","","2-3","8280","38","1","Testing","Stims/Figures/118-J-0-2.bmp","sa:ha:za","Down","38","2","10","6B","C2","J","34"
"","","approach-retreat","183","1629567","0.0-183.0","","","2-3","5352","40","1","Testing","Stims/Figures/57-J-0-1.bmp","za:ha:za","Up","40","2","11","6B","C2","J","35"
"","","approach-retreat","184","1636054","0.0-184.0","","","2-3","4983","40","1","Testing","Stims/Figures/57-C-30-1.bmp","vashava","Down","40","2","12","6B","C1","J","36"
"","","approach-retreat","185","1642502","0.0-185.0","","","2-3","4944","40","1","Testing","Stims/Figures/128-C-30-3.bmp","vafa:va","Down","40","2","13","6B","C1","J","37"
"","","approach-retreat","186","1649015","0.0-186.0","","","2-3","5008","37","1","Testing","Stims/Figures/85-J-0-2.bmp","sa:haza","Right","37","2","14","6B","C2","J","38"
"","","approach-retreat","187","1656630","0.0-187.0","","","2-3","6112","38","1","Testing","Stims/Figures/85-C-20-2.bmp","vafasha","Up","38","2","15","6B","C1","J","39"
"","","approach-retreat","188","1663327","0.0-188.0","","","2-3","5192","37","1","Testing","Stims/Figures/27-C-30-1.bmp","vafava","Left","37","2","16","6B","C1","J","40"
"","","approach-retreat","189","1671511","0.0-189.0","","","2-3","6681","37","1","Testing","Stims/Figures/144-J-10-3.bmp","zahaha","Right","37","2","17","6B","C2","J","41"
"","","approach-retreat","190","1678702","0.0-190.0","","","2-3","5689","38","1","Testing","Stims/Figures/86-J-0-1.bmp","sa:saha","Down","38","2","18","6B","C2","J","42"
"","","approach-retreat","191","1685918","0.0-191.0","","","2-3","5715","39","0","Testing","Stims/Figures/19-J-10-4.bmp","zaha:ha","Right","37","2","19","6B","C2","J","43"
"","","approach-retreat","192","1692558","0.0-192.0","","","2-3","5135","38","1","Testing","Stims/Figures/84-J-0-2.bmp","sa:haha","Down","38","2","20","6B","C2","J","44"
"","","approach-retreat","193","1699149","0.0-193.0","","","2-3","5088","38","1","Testing","Stims/Figures/19-C-20-4.bmp","va:fava","Up","38","2","21","6B","C1","J","45"
"","","approach-retreat","194","1709606","0.0-194.0","","","2-3","8952","39","1","Testing","Stims/Figures/128-J-10-3.bmp","sasaha","Left","39","2","22","6B","C2","J","46"
"","","approach-retreat","195","1716813","0.0-195.0","","","2-3","5703","39","1","Testing","Stims/Figures/118-C-20-2.bmp","vasha:sha","Right","39","2","23","6B","C1","J","47"
"","","approach-retreat","196","1724293","0.0-196.0","","","2-3","5975","38","1","Testing","Stims/Figures/144-C-30-3.bmp","fa:fasha","Up","38","2","24","6B","C1","J","48"
"","","approach-retreat","197","1730942","0.0-197.0","","","2-3","5145","40","1","Testing","Stims/Figures/144-J-10-3.bmp","zahaha","Up","40","3","1","6B","C2","J","49"
"","","approach-retreat","198","1736933","0.0-198.0","","","2-3","4487","38","1","Testing","Stims/Figures/86-J-0-1.bmp","sa:saha","Down","38","3","2","6B","C2","J","50"
"","","approach-retreat","199","1742741","0.0-199.0","","","2-3","4304","38","1","Testing","Stims/Figures/57-J-0-1.bmp","za:ha:za","Down","38","3","3","6B","C2","J","51"
"","","approach-retreat","200","1748630","0.0-200.0","","","2-3","4384","38","1","Testing","Stims/Figures/102-C-20-4.bmp","fa:fa:va","Up","38","3","4","6B","C1","J","52"
"","","approach-retreat","201","1755246","0.0-201.0","","","2-3","5111","37","1","Testing","Stims/Figures/102-J-10-4.bmp","saha:za","Right","37","3","5","6B","C2","J","53"
"","","approach-retreat","202","1762278","0.0-202.0","","","2-3","5528","40","1","Testing","Stims/Figures/84-C-20-2.bmp","va:shasha","Down","40","3","6","6B","C1","J","54"
"","","approach-retreat","203","1772367","0.0-203.0","","","2-3","8584","37","1","Testing","Stims/Figures/27-C-30-1.bmp","vafava","Left","37","3","7","6B","C1","J","55"
"","","approach-retreat","204","1779582","0.0-204.0","","","2-3","5710","37","1","Testing","Stims/Figures/85-C-20-2.bmp","vafasha","Left","37","3","8","6B","C1","J","56"
"","","approach-retreat","205","1787053","0.0-205.0","","","2-3","5967","40","1","Testing","Stims/Figures/7-J-10-4.bmp","za:sa:za","Up","40","3","9","6B","C2","J","57"
"","","approach-retreat","206","1793461","0.0-206.0","","","2-3","4906","40","1","Testing","Stims/Figures/144-C-30-3.bmp","fa:fasha","Down","40","3","10","6B","C1","J","58"
"","","approach-retreat","207","1802398","0.0-207.0","","","2-3","7434","39","1","Testing","Stims/Figures/86-C-30-1.bmp","fa:fava","Right","39","3","11","6B","C1","J","59"
"","","approach-retreat","208","1808175","0.0-208.0","","","2-3","4272","37","1","Testing","Stims/Figures/111-J-10-3.bmp","sahaha","Right","37","3","12","6B","C2","J","60"
"","","approach-retreat","209","1815926","0.0-209.0","","","2-3","6246","38","1","Testing","Stims/Figures/118-J-0-2.bmp","sa:ha:za","Down","38","3","13","6B","C2","J","61"
"","","approach-retreat","210","1823565","0.0-210.0","","","2-3","6134","40","1","Testing","Stims/Figures/27-J-0-1.bmp","sa:ha:ha","Up","40","3","14","6B","C2","J","62"
"","","approach-retreat","211","1829318","0.0-211.0","","","2-3","4248","37","1","Testing","Stims/Figures/84-J-0-2.bmp","sa:haha","Right","37","3","15","6B","C2","J","63"
"","","approach-retreat","212","1839245","0.0-212.0","","","2-3","8423","37","1","Testing","Stims/Figures/128-J-10-3.bmp","sasaha","Right","37","3","16","6B","C2","J","64"
"","","approach-retreat","213","1848030","0.0-213.0","","","2-3","7280","37","0","Testing","Stims/Figures/19-J-10-4.bmp","zaha:ha","Left","39","3","17","6B","C2","J","65"
"","","approach-retreat","214","1862222","0.0-214.0","","","2-3","12689","39","1","Testing","Stims/Figures/118-C-20-2.bmp","vasha:sha","Right","39","3","18","6B","C1","J","66"
"","","approach-retreat","215","1868078","0.0-215.0","","","2-3","4350","37","1","Testing","Stims/Figures/111-C-30-3.bmp","va:sha:va","Left","37","3","19","6B","C1","J","67"
"","","approach-retreat","216","1875878","0.0-216.0","","","2-3","6296","38","1","Testing","Stims/Figures/128-C-30-3.bmp","vafa:va","Up","38","3","20","6B","C1","J","68"
"","","approach-retreat","217","1881773","0.0-217.0","","","2-3","4391","40","1","Testing","Stims/Figures/7-C-20-4.bmp","va:shava","Down","40","3","21","6B","C1","J","69"
"","","approach-retreat","218","1890574","0.0-218.0","","","2-3","7297","37","1","Testing","Stims/Figures/19-C-20-4.bmp","va:fava","Left","37","3","22","6B","C1","J","70"
"","","approach-retreat","219","1897837","0.0-219.0","","","2-3","5759","39","1","Testing","Stims/Figures/85-J-0-2.bmp","sa:haza","Left","39","3","23","6B","C2","J","71"
"","","approach-retreat","220","1903870","0.0-220.0","","","2-3","4528","38","1","Testing","Stims/Figures/57-C-30-1.bmp","vashava","Up","38","3","24","6B","C1","J","72"
"","","approach-retreat","221","1909710","0.0-221.0","","","2-3","4337","39","1","Testing","Stims/Figures/128-J-10-3.bmp","sasaha","Left","39","4","1","6B","C2","J","73"
"","","approach-retreat","222","1916637","0.0-222.0","","","2-3","5424","40","1","Testing","Stims/Figures/84-J-0-2.bmp","sa:haha","Up","40","4","2","6B","C2","J","74"
"","","approach-retreat","223","1922837","0.0-223.0","","","2-3","4697","39","1","Testing","Stims/Figures/19-C-20-4.bmp","va:fava","Right","39","4","3","6B","C1","J","75"
"","","approach-retreat","224","1931094","0.0-224.0","","","2-3","6753","38","1","Testing","Stims/Figures/57-C-30-1.bmp","vashava","Up","38","4","4","6B","C1","J","76"
"","","approach-retreat","225","1937463","0.0-225.0","","","2-3","4864","37","1","Testing","Stims/Figures/19-J-10-4.bmp","zaha:ha","Right","37","4","5","6B","C2","J","77"
"","","approach-retreat","226","1944310","0.0-226.0","","","2-3","5344","39","1","Testing","Stims/Figures/7-J-10-4.bmp","za:sa:za","Left","39","4","6","6B","C2","J","78"
"","","approach-retreat","227","1950936","0.0-227.0","","","2-3","5120","37","1","Testing","Stims/Figures/7-C-20-4.bmp","va:shava","Left","37","4","7","6B","C1","J","79"
"","","approach-retreat","228","1959927","0.0-228.0","","","2-3","7488","39","1","Testing","Stims/Figures/128-C-30-3.bmp","vafa:va","Right","39","4","8","6B","C1","J","80"
"","","approach-retreat","229","1966246","0.0-229.0","","","2-3","4814","39","1","Testing","Stims/Figures/111-J-10-3.bmp","sahaha","Left","39","4","9","6B","C2","J","81"
"","","approach-retreat","230","1972526","0.0-230.0","","","2-3","4776","38","0","Testing","Stims/Figures/102-C-20-4.bmp","fa:fa:va","Down","40","4","10","6B","C1","J","82"
"","","approach-retreat","231","1979413","0.0-231.0","","","2-3","5384","40","1","Testing","Stims/Figures/86-J-0-1.bmp","sa:saha","Up","40","4","11","6B","C2","J","83"
"","","approach-retreat","232","1986775","0.0-232.0","","","2-3","5859","37","1","Testing","Stims/Figures/86-C-30-1.bmp","fa:fava","Left","37","4","12","6B","C1","J","84"
"","","approach-retreat","233","1992686","0.0-233.0","","","2-3","4407","38","1","Testing","Stims/Figures/84-C-20-2.bmp","va:shasha","Up","38","4","13","6B","C1","J","85"
"","","approach-retreat","234","2002623","0.0-234.0","","","2-3","8432","38","1","Testing","Stims/Figures/57-J-0-1.bmp","za:ha:za","Down","38","4","14","6B","C2","J","86"
"","","approach-retreat","235","2010110","0.0-235.0","","","2-3","5984","40","0","Testing","Stims/Figures/27-C-30-1.bmp","vafava","Up","38","4","15","6B","C1","J","87"
"","","approach-retreat","236","2017295","0.0-236.0","","","2-3","5680","40","1","Testing","Stims/Figures/111-C-30-3.bmp","va:sha:va","Down","40","4","16","6B","C1","J","88"
"","","approach-retreat","237","2024462","0.0-237.0","","","2-3","5662","37","1","Testing","Stims/Figures/144-J-10-3.bmp","zahaha","Right","37","4","17","6B","C2","J","89"
"","","approach-retreat","238","2030814","0.0-238.0","","","2-3","4848","40","1","Testing","Stims/Figures/27-J-0-1.bmp","sa:ha:ha","Up","40","4","18","6B","C2","J","90"
"","","approach-retreat","239","2039847","0.0-239.0","","","2-3","7528","38","1","Testing","Stims/Figures/85-J-0-2.bmp","sa:haza","Down","38","4","19","6B","C2","J","91"
"","","approach-retreat","240","2048495","0.0-240.0","","","2-3","7145","37","0","Testing","Stims/Figures/102-J-10-4.bmp","saha:za","Left","39","4","20","6B","C2","J","92"
"","","approach-retreat","241","2054237","0.0-241.0","","","2-3","4239","39","1","Testing","Stims/Figures/118-C-20-2.bmp","vasha:sha","Right","39","4","21","6B","C1","J","93"
"","","approach-retreat","242","2060742","0.0-242.0","","","2-3","5000","40","1","Testing","Stims/Figures/85-C-20-2.bmp","vafasha","Down","40","4","22","6B","C1","J","94"
"","","approach-retreat","243","2066406","0.0-243.0","","","2-3","4159","39","1","Testing","Stims/Figures/144-C-30-3.bmp","fa:fasha","Right","39","4","23","6B","C1","J","95"
"","","approach-retreat","244","2072079","0.0-244.0","","","2-3","4167","38","1","Testing","Stims/Figures/118-J-0-2.bmp","sa:ha:za","Down","38","4","24","6B","C2","J","96"
"24119","","survey-text","245","2096200","0.0-245.0","","{""Q0"":""1072/2018""}","","","","","","","","","","","","","","",""
