"rt","key_press","trial_type","trial_index","time_elapsed","internal_node_id","view_history","responses","Id","Rt","ResKeyCode","ResCorr","TrialType2","Image","Label","Location","CorrectResponse","Block","BlockTrial","Condition","LabelType","Subcondition","trialNum"
"45792","32","text","0","45797","0.0-0.0-0.0","","","","","","","","","","","","","","","","",""
"81721","","instructions","1","127521","0.0-1.0","[{""page_index"":0,""viewing_time"":81720}]","","","","","","","","","","","","","","","",""
"27255","","survey-multi-choice","2","154815","0.0-2.0","","{""Q0"":""Da"",""Q1"":""Da"",""Q2"":""Da"",""Q3"":""Da"",""Q4"":""Da"",""Q5"":""Da""}","","","","","","","","","","","","","","",""
"","","bio","3","164614","0.0-3.0","","{""age"":""19"",""gender"":""f"",""specify"":""""}","","","","","","","","","","","","","","",""
"","","approach-retreat","4","175297","0.0-4.0","","","1-1","9149","37","0","Training","Stims/Figures/128-C-30-3.bmp","ma:la:la","Right","39","1","1","7","S","J","1"
"","","approach-retreat","5","186180","0.0-5.0","","","1-1","9371","39","0","Training","Stims/Figures/111-C-30-3.bmp","na:ma:na","Left","37","1","2","7","S","J","2"
"","","approach-retreat","6","198576","0.0-6.0","","","1-1","10885","40","0","Training","Stims/Figures/27-J-0-1.bmp","papata","Down","38","1","3","7","P","J","3"
"","","approach-retreat","7","205140","0.0-7.0","","","1-1","5055","40","1","Training","Stims/Figures/139-J-0-2.bmp","ta:ka:ta","Up","40","1","4","7","P","J","4"
"","","approach-retreat","8","213077","0.0-8.0","","","1-1","6426","39","1","Training","Stims/Figures/57-J-0-1.bmp","pa:pa:ka","Left","39","1","5","7","P","J","5"
"","","approach-retreat","9","219506","0.0-9.0","","","1-1","4920","39","1","Training","Stims/Figures/57-C-30-1.bmp","ta:pata","Right","39","1","6","7","P","J","6"
"","","approach-retreat","10","226968","0.0-10.0","","","1-1","5954","37","0","Training","Stims/Figures/84-J-0-2.bmp","ta:kata","Left","39","1","7","7","P","J","7"
"","","approach-retreat","11","234334","0.0-11.0","","","1-1","5851","40","1","Training","Stims/Figures/102-C-20-4.bmp","mala:na","Down","40","1","8","7","S","J","8"
"","","approach-retreat","12","241342","0.0-12.0","","","1-1","5496","38","0","Training","Stims/Figures/27-C-30-1.bmp","papa:ta","Down","40","1","9","7","P","J","9"
"","","approach-retreat","13","249072","0.0-13.0","","","1-1","6218","40","0","Training","Stims/Figures/102-J-10-4.bmp","malana","Down","38","1","10","7","S","J","10"
"","","approach-retreat","14","255076","0.0-14.0","","","1-1","4492","37","1","Training","Stims/Figures/128-J-10-3.bmp","ma:ma:na","Right","37","1","11","7","S","J","11"
"","","approach-retreat","15","261836","0.0-15.0","","","1-1","5248","38","1","Training","Stims/Figures/139-C-20-2.bmp","takaka","Up","38","1","12","7","P","J","12"
"","","approach-retreat","16","269422","0.0-16.0","","","1-1","6075","38","0","Training","Stims/Figures/74-J-10-4.bmp","nala:la","Up","40","1","13","7","S","J","13"
"","","approach-retreat","17","275328","0.0-17.0","","","1-1","4395","37","1","Training","Stims/Figures/74-C-20-4.bmp","namana","Left","37","1","14","7","S","J","14"
"","","approach-retreat","18","281701","0.0-18.0","","","1-1","4864","38","0","Training","Stims/Figures/111-J-10-3.bmp","mamala","Up","40","1","15","7","S","J","15"
"","","approach-retreat","19","287590","0.0-19.0","","","1-1","4377","37","0","Training","Stims/Figures/84-C-20-2.bmp","tapata","Right","39","1","16","7","P","J","16"
"","","approach-retreat","20","294095","0.0-20.0","","","1-1","4994","40","0","Training","Stims/Figures/84-J-0-2.bmp","ta:kata","Down","38","2","1","7","P","J","17"
"","","approach-retreat","21","299982","0.0-21.0","","","1-1","4376","38","1","Training","Stims/Figures/111-J-10-3.bmp","mamala","Down","38","2","2","7","S","J","18"
"","","approach-retreat","22","306964","0.0-22.0","","","1-1","5473","37","1","Training","Stims/Figures/74-C-20-4.bmp","namana","Left","37","2","3","7","S","J","19"
"","","approach-retreat","23","314022","0.0-23.0","","","1-1","5550","38","1","Training","Stims/Figures/128-C-30-3.bmp","ma:la:la","Up","38","2","4","7","S","J","20"
"","","approach-retreat","24","319876","0.0-24.0","","","1-1","4343","37","1","Training","Stims/Figures/84-C-20-2.bmp","tapata","Left","37","2","5","7","P","J","21"
"","","approach-retreat","25","326488","0.0-25.0","","","1-1","5100","39","0","Training","Stims/Figures/27-J-0-1.bmp","papata","Right","37","2","6","7","P","J","22"
"","","approach-retreat","26","334389","0.0-26.0","","","1-1","6392","39","1","Training","Stims/Figures/57-C-30-1.bmp","ta:pata","Right","39","2","7","7","P","J","23"
"","","approach-retreat","27","340263","0.0-27.0","","","1-1","4364","40","0","Training","Stims/Figures/74-J-10-4.bmp","nala:la","Down","38","2","8","7","S","J","24"
"","","approach-retreat","28","346019","0.0-28.0","","","1-1","4245","38","1","Training","Stims/Figures/111-C-30-3.bmp","na:ma:na","Up","38","2","9","7","S","J","25"
"","","approach-retreat","29","353453","0.0-29.0","","","1-1","5922","39","0","Training","Stims/Figures/102-C-20-4.bmp","mala:na","Left","37","2","10","7","S","J","26"
"","","approach-retreat","30","360409","0.0-30.0","","","1-1","5448","38","0","Training","Stims/Figures/27-C-30-1.bmp","papa:ta","Down","40","2","11","7","P","J","27"
"","","approach-retreat","31","370932","0.0-31.0","","","1-1","9012","39","0","Training","Stims/Figures/128-J-10-3.bmp","ma:ma:na","Right","37","2","12","7","S","J","28"
"","","approach-retreat","32","378792","0.0-32.0","","","1-1","6348","40","1","Training","Stims/Figures/102-J-10-4.bmp","malana","Up","40","2","13","7","S","J","29"
"","","approach-retreat","33","386351","0.0-33.0","","","1-1","6048","40","1","Training","Stims/Figures/139-J-0-2.bmp","ta:ka:ta","Up","40","2","14","7","P","J","30"
"","","approach-retreat","34","392372","0.0-34.0","","","1-1","4512","39","0","Training","Stims/Figures/57-J-0-1.bmp","pa:pa:ka","Right","37","2","15","7","P","J","31"
"","","approach-retreat","35","401213","0.0-35.0","","","1-1","7328","39","0","Training","Stims/Figures/139-C-20-2.bmp","takaka","Left","37","2","16","7","P","J","32"
"","","approach-retreat","36","407300","0.0-36.0","","","1-1","4576","40","1","Training","Stims/Figures/84-J-0-2.bmp","ta:kata","Up","40","3","1","7","P","J","33"
"","","approach-retreat","37","415628","0.0-37.0","","","1-1","6816","37","1","Training","Stims/Figures/139-J-0-2.bmp","ta:ka:ta","Right","37","3","2","7","P","J","34"
"","","approach-retreat","38","422198","0.0-38.0","","","1-1","5058","39","1","Training","Stims/Figures/111-C-30-3.bmp","na:ma:na","Right","39","3","3","7","S","J","35"
"","","approach-retreat","39","430960","0.0-39.0","","","1-1","7251","40","0","Training","Stims/Figures/128-J-10-3.bmp","ma:ma:na","Down","38","3","4","7","S","J","36"
"","","approach-retreat","40","440305","0.0-40.0","","","1-1","7833","37","0","Training","Stims/Figures/27-J-0-1.bmp","papata","Left","39","3","5","7","P","J","37"
"","","approach-retreat","41","447612","0.0-41.0","","","1-1","5796","40","1","Training","Stims/Figures/139-C-20-2.bmp","takaka","Down","40","3","6","7","P","J","38"
"","","approach-retreat","42","457229","0.0-42.0","","","1-1","8108","39","1","Training","Stims/Figures/84-C-20-2.bmp","tapata","Right","39","3","7","7","P","J","39"
"","","approach-retreat","43","463394","0.0-43.0","","","1-1","4653","38","0","Training","Stims/Figures/102-C-20-4.bmp","mala:na","Down","40","3","8","7","S","J","40"
"","","approach-retreat","44","469608","0.0-44.0","","","1-1","4702","37","0","Training","Stims/Figures/102-J-10-4.bmp","malana","Left","39","3","9","7","S","J","41"
"","","approach-retreat","45","478750","0.0-45.0","","","1-1","7630","39","1","Training","Stims/Figures/27-C-30-1.bmp","papa:ta","Right","39","3","10","7","P","J","42"
"","","approach-retreat","46","484659","0.0-46.0","","","1-1","4400","38","1","Training","Stims/Figures/57-J-0-1.bmp","pa:pa:ka","Down","38","3","11","7","P","J","43"
"","","approach-retreat","47","490726","0.0-47.0","","","1-1","4553","39","1","Training","Stims/Figures/74-J-10-4.bmp","nala:la","Left","39","3","12","7","S","J","44"
"","","approach-retreat","48","496874","0.0-48.0","","","1-1","4638","40","0","Training","Stims/Figures/57-C-30-1.bmp","ta:pata","Up","38","3","13","7","P","J","45"
"","","approach-retreat","49","503305","0.0-49.0","","","1-1","4922","39","0","Training","Stims/Figures/128-C-30-3.bmp","ma:la:la","Left","37","3","14","7","S","J","46"
"","","approach-retreat","50","510568","0.0-50.0","","","1-1","5753","40","0","Training","Stims/Figures/74-C-20-4.bmp","namana","Up","38","3","15","7","S","J","47"
"","","approach-retreat","51","516501","0.0-51.0","","","1-1","4421","40","1","Training","Stims/Figures/111-J-10-3.bmp","mamala","Up","40","3","16","7","S","J","48"
"","","approach-retreat","52","523465","0.0-52.0","","","1-1","5453","39","1","Training","Stims/Figures/102-J-10-4.bmp","malana","Left","39","4","1","7","S","J","49"
"","","approach-retreat","53","536079","0.0-53.0","","","1-1","11104","39","0","Training","Stims/Figures/111-J-10-3.bmp","mamala","Right","37","4","2","7","S","J","50"
"","","approach-retreat","54","541919","0.0-54.0","","","1-1","4329","38","1","Training","Stims/Figures/74-C-20-4.bmp","namana","Up","38","4","3","7","S","J","51"
"","","approach-retreat","55","547552","0.0-55.0","","","1-1","4125","39","1","Training","Stims/Figures/57-J-0-1.bmp","pa:pa:ka","Left","39","4","4","7","P","J","52"
"","","approach-retreat","56","553812","0.0-56.0","","","1-1","4751","37","1","Training","Stims/Figures/139-C-20-2.bmp","takaka","Left","37","4","5","7","P","J","53"
"","","approach-retreat","57","560641","0.0-57.0","","","1-1","5321","38","1","Training","Stims/Figures/57-C-30-1.bmp","ta:pata","Up","38","4","6","7","P","J","54"
"","","approach-retreat","58","567389","0.0-58.0","","","1-1","5235","40","0","Training","Stims/Figures/27-J-0-1.bmp","papata","Down","38","4","7","7","P","J","55"
"","","approach-retreat","59","574223","0.0-59.0","","","1-1","5325","38","1","Training","Stims/Figures/139-J-0-2.bmp","ta:ka:ta","Down","38","4","8","7","P","J","56"
"","","approach-retreat","60","581558","0.0-60.0","","","1-1","5823","38","1","Training","Stims/Figures/74-J-10-4.bmp","nala:la","Down","38","4","9","7","S","J","57"
"","","approach-retreat","61","587386","0.0-61.0","","","1-1","4315","40","0","Training","Stims/Figures/128-C-30-3.bmp","ma:la:la","Up","38","4","10","7","S","J","58"
"","","approach-retreat","62","593793","0.0-62.0","","","1-1","4897","39","0","Training","Stims/Figures/128-J-10-3.bmp","ma:ma:na","Right","37","4","11","7","S","J","59"
"","","approach-retreat","63","604260","0.0-63.0","","","1-1","8954","38","1","Training","Stims/Figures/102-C-20-4.bmp","mala:na","Up","38","4","12","7","S","J","60"
"","","approach-retreat","64","609839","0.0-64.0","","","1-1","4065","37","0","Training","Stims/Figures/84-J-0-2.bmp","ta:kata","Left","39","4","13","7","P","J","61"
"","","approach-retreat","65","615675","0.0-65.0","","","1-1","4323","38","0","Training","Stims/Figures/84-C-20-2.bmp","tapata","Down","40","4","14","7","P","J","62"
"","","approach-retreat","66","623256","0.0-66.0","","","1-1","6070","39","1","Training","Stims/Figures/111-C-30-3.bmp","na:ma:na","Right","39","4","15","7","S","J","63"
"","","approach-retreat","67","629531","0.0-67.0","","","1-1","4763","37","0","Training","Stims/Figures/27-C-30-1.bmp","papa:ta","Right","39","4","16","7","P","J","64"
"","","approach-retreat","68","635578","0.0-68.0","","","1-1","4535","39","0","Training","Stims/Figures/111-C-30-3.bmp","na:ma:na","Left","37","5","1","7","S","J","65"
"","","approach-retreat","69","641204","0.0-69.0","","","1-1","4115","37","0","Training","Stims/Figures/128-C-30-3.bmp","ma:la:la","Right","39","5","2","7","S","J","66"
"","","approach-retreat","70","647077","0.0-70.0","","","1-1","4364","38","0","Training","Stims/Figures/27-C-30-1.bmp","papa:ta","Down","40","5","3","7","P","J","67"
"","","approach-retreat","71","652987","0.0-71.0","","","1-1","4399","40","0","Training","Stims/Figures/57-J-0-1.bmp","pa:pa:ka","Down","38","5","4","7","P","J","68"
"","","approach-retreat","72","662186","0.0-72.0","","","1-1","7687","39","0","Training","Stims/Figures/139-C-20-2.bmp","takaka","Left","37","5","5","7","P","J","69"
"","","approach-retreat","73","669132","0.0-73.0","","","1-1","5435","40","1","Training","Stims/Figures/111-J-10-3.bmp","mamala","Up","40","5","6","7","S","J","70"
"","","approach-retreat","74","677754","0.0-74.0","","","1-1","7112","37","0","Training","Stims/Figures/74-C-20-4.bmp","namana","Right","39","5","7","7","S","J","71"
"","","approach-retreat","75","687344","0.0-75.0","","","1-1","8081","38","1","Training","Stims/Figures/57-C-30-1.bmp","ta:pata","Up","38","5","8","7","P","J","72"
"","","approach-retreat","76","692976","0.0-76.0","","","1-1","4123","39","1","Training","Stims/Figures/102-J-10-4.bmp","malana","Left","39","5","9","7","S","J","73"
"","","approach-retreat","77","698820","0.0-77.0","","","1-1","4338","40","1","Training","Stims/Figures/84-J-0-2.bmp","ta:kata","Up","40","5","10","7","P","J","74"
"","","approach-retreat","78","705239","0.0-78.0","","","1-1","4908","38","1","Training","Stims/Figures/27-J-0-1.bmp","papata","Down","38","5","11","7","P","J","75"
"","","approach-retreat","79","711162","0.0-79.0","","","1-1","4413","37","0","Training","Stims/Figures/102-C-20-4.bmp","mala:na","Right","39","5","12","7","S","J","76"
"","","approach-retreat","80","716917","0.0-80.0","","","1-1","4240","38","0","Training","Stims/Figures/84-C-20-2.bmp","tapata","Down","40","5","13","7","P","J","77"
"","","approach-retreat","81","722898","0.0-81.0","","","1-1","4471","40","1","Training","Stims/Figures/74-J-10-4.bmp","nala:la","Up","40","5","14","7","S","J","78"
"","","approach-retreat","82","728757","0.0-82.0","","","1-1","4346","37","1","Training","Stims/Figures/139-J-0-2.bmp","ta:ka:ta","Right","37","5","15","7","P","J","79"
"","","approach-retreat","83","734242","0.0-83.0","","","1-1","3973","39","1","Training","Stims/Figures/128-J-10-3.bmp","ma:ma:na","Left","39","5","16","7","S","J","80"
"","","approach-retreat","84","741709","0.0-84.0","","","1-1","5954","39","0","Training","Stims/Figures/102-J-10-4.bmp","malana","Right","37","6","1","7","S","J","81"
"","","approach-retreat","85","747730","0.0-85.0","","","1-1","4512","40","0","Training","Stims/Figures/57-J-0-1.bmp","pa:pa:ka","Down","38","6","2","7","P","J","82"
"","","approach-retreat","86","753568","0.0-86.0","","","1-1","4326","37","0","Training","Stims/Figures/27-J-0-1.bmp","papata","Left","39","6","3","7","P","J","83"
"","","approach-retreat","87","759236","0.0-87.0","","","1-1","4160","38","0","Training","Stims/Figures/111-C-30-3.bmp","na:ma:na","Down","40","6","4","7","S","J","84"
"","","approach-retreat","88","765127","0.0-88.0","","","1-1","4386","40","1","Training","Stims/Figures/74-C-20-4.bmp","namana","Down","40","6","5","7","S","J","85"
"","","approach-retreat","89","770968","0.0-89.0","","","1-1","4327","39","1","Training","Stims/Figures/84-J-0-2.bmp","ta:kata","Left","39","6","6","7","P","J","86"
"","","approach-retreat","90","776635","0.0-90.0","","","1-1","4152","40","1","Training","Stims/Figures/139-J-0-2.bmp","ta:ka:ta","Up","40","6","7","7","P","J","87"
"","","approach-retreat","91","782539","0.0-91.0","","","1-1","4393","37","0","Training","Stims/Figures/128-C-30-3.bmp","ma:la:la","Right","39","6","8","7","S","J","88"
"","","approach-retreat","92","788283","0.0-92.0","","","1-1","4235","39","0","Training","Stims/Figures/102-C-20-4.bmp","mala:na","Left","37","6","9","7","S","J","89"
"","","approach-retreat","93","794592","0.0-93.0","","","1-1","4799","40","0","Training","Stims/Figures/84-C-20-2.bmp","tapata","Up","38","6","10","7","P","J","90"
"","","approach-retreat","94","801159","0.0-94.0","","","1-1","5055","37","0","Training","Stims/Figures/111-J-10-3.bmp","mamala","Left","39","6","11","7","S","J","91"
"","","approach-retreat","95","807552","0.0-95.0","","","1-1","4885","37","0","Training","Stims/Figures/139-C-20-2.bmp","takaka","Right","39","6","12","7","P","J","92"
"","","approach-retreat","96","813182","0.0-96.0","","","1-1","4117","38","0","Training","Stims/Figures/27-C-30-1.bmp","papa:ta","Down","40","6","13","7","P","J","93"
"","","approach-retreat","97","819292","0.0-97.0","","","1-1","4596","40","1","Training","Stims/Figures/74-J-10-4.bmp","nala:la","Up","40","6","14","7","S","J","94"
"","","approach-retreat","98","826238","0.0-98.0","","","1-1","5434","39","0","Training","Stims/Figures/128-J-10-3.bmp","ma:ma:na","Right","37","6","15","7","S","J","95"
"","","approach-retreat","99","833948","0.0-99.0","","","1-1","6198","38","1","Training","Stims/Figures/57-C-30-1.bmp","ta:pata","Up","38","6","16","7","P","J","96"
"","","approach-retreat","100","840185","0.0-100.0","","","1-1","4724","37","1","Training","Stims/Figures/84-C-20-2.bmp","tapata","Left","37","7","1","7","P","J","97"
"","","approach-retreat","101","846125","0.0-101.0","","","1-1","4431","40","0","Training","Stims/Figures/27-J-0-1.bmp","papata","Down","38","7","2","7","P","J","98"
"","","approach-retreat","102","852354","0.0-102.0","","","1-1","4718","38","1","Training","Stims/Figures/128-C-30-3.bmp","ma:la:la","Up","38","7","3","7","S","J","99"
"","","approach-retreat","103","857988","0.0-103.0","","","1-1","4122","38","0","Training","Stims/Figures/128-J-10-3.bmp","ma:ma:na","Up","40","7","4","7","S","J","100"
"","","approach-retreat","104","863877","0.0-104.0","","","1-1","4377","39","1","Training","Stims/Figures/102-J-10-4.bmp","malana","Left","39","7","5","7","S","J","101"
"","","approach-retreat","105","869791","0.0-105.0","","","1-1","4403","40","1","Training","Stims/Figures/74-C-20-4.bmp","namana","Down","40","7","6","7","S","J","102"
"","","approach-retreat","106","875624","0.0-106.0","","","1-1","4321","37","1","Training","Stims/Figures/84-J-0-2.bmp","ta:kata","Right","37","7","7","7","P","J","103"
"","","approach-retreat","107","881994","0.0-107.0","","","1-1","4861","39","1","Training","Stims/Figures/57-C-30-1.bmp","ta:pata","Right","39","7","8","7","P","J","104"
"","","approach-retreat","108","888553","0.0-108.0","","","1-1","5046","37","1","Training","Stims/Figures/111-C-30-3.bmp","na:ma:na","Left","37","7","9","7","S","J","105"
"","","approach-retreat","109","895654","0.0-109.0","","","1-1","5587","40","0","Training","Stims/Figures/57-J-0-1.bmp","pa:pa:ka","Down","38","7","10","7","P","J","106"
"","","approach-retreat","110","901620","0.0-110.0","","","1-1","4453","40","1","Training","Stims/Figures/74-J-10-4.bmp","nala:la","Up","40","7","11","7","S","J","107"
"","","approach-retreat","111","908265","0.0-111.0","","","1-1","5132","39","1","Training","Stims/Figures/139-C-20-2.bmp","takaka","Right","39","7","12","7","P","J","108"
"","","approach-retreat","112","914634","0.0-112.0","","","1-1","4858","37","0","Training","Stims/Figures/102-C-20-4.bmp","mala:na","Right","39","7","13","7","S","J","109"
"","","approach-retreat","113","922857","0.0-113.0","","","1-1","6711","40","0","Training","Stims/Figures/27-C-30-1.bmp","papa:ta","Up","38","7","14","7","P","J","110"
"","","approach-retreat","114","929581","0.0-114.0","","","1-1","5216","40","0","Training","Stims/Figures/139-J-0-2.bmp","ta:ka:ta","Down","38","7","15","7","P","J","111"
"","","approach-retreat","115","937243","0.0-115.0","","","1-1","6153","37","0","Training","Stims/Figures/111-J-10-3.bmp","mamala","Left","39","7","16","7","S","J","112"
"","","approach-retreat","116","942938","0.0-116.0","","","1-1","4184","39","0","Training","Stims/Figures/128-C-30-3.bmp","ma:la:la","Left","37","8","1","7","S","J","113"
"","","approach-retreat","117","948960","0.0-117.0","","","1-1","4510","39","0","Training","Stims/Figures/102-J-10-4.bmp","malana","Right","37","8","2","7","S","J","114"
"","","approach-retreat","118","954963","0.0-118.0","","","1-1","4489","39","0","Training","Stims/Figures/139-C-20-2.bmp","takaka","Left","37","8","3","7","P","J","115"
"","","approach-retreat","119","960899","0.0-119.0","","","1-1","4425","38","0","Training","Stims/Figures/84-J-0-2.bmp","ta:kata","Up","40","8","4","7","P","J","116"
"","","approach-retreat","120","967025","0.0-120.0","","","1-1","4613","38","1","Training","Stims/Figures/111-J-10-3.bmp","mamala","Down","38","8","5","7","S","J","117"
"","","approach-retreat","121","973177","0.0-121.0","","","1-1","4642","39","1","Training","Stims/Figures/57-C-30-1.bmp","ta:pata","Right","39","8","6","7","P","J","118"
"","","approach-retreat","122","979719","0.0-122.0","","","1-1","5032","37","0","Training","Stims/Figures/74-C-20-4.bmp","namana","Right","39","8","7","7","S","J","119"
"","","approach-retreat","123","985986","0.0-123.0","","","1-1","4757","38","1","Training","Stims/Figures/74-J-10-4.bmp","nala:la","Down","38","8","8","7","S","J","120"
"","","approach-retreat","124","994104","0.0-124.0","","","1-1","6606","39","1","Training","Stims/Figures/102-C-20-4.bmp","mala:na","Right","39","8","9","7","S","J","121"
"","","approach-retreat","125","1001506","0.0-125.0","","","1-1","5889","37","1","Training","Stims/Figures/111-C-30-3.bmp","na:ma:na","Left","37","8","10","7","S","J","122"
"","","approach-retreat","126","1009605","0.0-126.0","","","1-1","6591","40","0","Training","Stims/Figures/128-J-10-3.bmp","ma:ma:na","Down","38","8","11","7","S","J","123"
"","","approach-retreat","127","1016669","0.0-127.0","","","1-1","5552","38","1","Training","Stims/Figures/27-C-30-1.bmp","papa:ta","Up","38","8","12","7","P","J","124"
"","","approach-retreat","128","1022551","0.0-128.0","","","1-1","4373","40","0","Training","Stims/Figures/27-J-0-1.bmp","papata","Down","38","8","13","7","P","J","125"
"","","approach-retreat","129","1028640","0.0-129.0","","","1-1","4580","38","1","Training","Stims/Figures/84-C-20-2.bmp","tapata","Up","38","8","14","7","P","J","126"
"","","approach-retreat","130","1036817","0.0-130.0","","","1-1","6666","37","0","Training","Stims/Figures/139-J-0-2.bmp","ta:ka:ta","Left","39","8","15","7","P","J","127"
"","","approach-retreat","131","1043177","0.0-131.0","","","1-1","4851","38","0","Training","Stims/Figures/57-J-0-1.bmp","pa:pa:ka","Up","40","8","16","7","P","J","128"
"","","approach-retreat","132","1049974","0.0-132.0","","","1-1","5288","37","1","Training","Stims/Figures/27-C-30-1.bmp","papa:ta","Left","37","9","1","7","P","J","129"
"","","approach-retreat","133","1055849","0.0-133.0","","","1-1","4363","38","1","Training","Stims/Figures/139-C-20-2.bmp","takaka","Up","38","9","2","7","P","J","130"
"","","approach-retreat","134","1063568","0.0-134.0","","","1-1","6209","40","1","Training","Stims/Figures/102-J-10-4.bmp","malana","Up","40","9","3","7","S","J","131"
"","","approach-retreat","135","1069750","0.0-135.0","","","1-1","4670","37","1","Training","Stims/Figures/139-J-0-2.bmp","ta:ka:ta","Right","37","9","4","7","P","J","132"
"","","approach-retreat","136","1076157","0.0-136.0","","","1-1","4897","38","0","Training","Stims/Figures/111-C-30-3.bmp","na:ma:na","Down","40","9","5","7","S","J","133"
"","","approach-retreat","137","1082263","0.0-137.0","","","1-1","4596","40","1","Training","Stims/Figures/128-J-10-3.bmp","ma:ma:na","Up","40","9","6","7","S","J","134"
"","","approach-retreat","138","1088976","0.0-138.0","","","1-1","5201","37","1","Training","Stims/Figures/27-J-0-1.bmp","papata","Right","37","9","7","7","P","J","135"
"","","approach-retreat","139","1097487","0.0-139.0","","","1-1","7001","39","1","Training","Stims/Figures/128-C-30-3.bmp","ma:la:la","Right","39","9","8","7","S","J","136"
"","","approach-retreat","140","1103337","0.0-140.0","","","1-1","4340","37","0","Training","Stims/Figures/102-C-20-4.bmp","mala:na","Right","39","9","9","7","S","J","137"
"","","approach-retreat","141","1108947","0.0-141.0","","","1-1","4102","40","1","Training","Stims/Figures/84-J-0-2.bmp","ta:kata","Up","40","9","10","7","P","J","138"
"","","approach-retreat","142","1115230","0.0-142.0","","","1-1","4773","40","1","Training","Stims/Figures/84-C-20-2.bmp","tapata","Down","40","9","11","7","P","J","139"
"","","approach-retreat","143","1123658","0.0-143.0","","","1-1","6918","39","0","Training","Stims/Figures/74-C-20-4.bmp","namana","Left","37","9","12","7","S","J","140"
"","","approach-retreat","144","1131306","0.0-144.0","","","1-1","6137","39","1","Training","Stims/Figures/111-J-10-3.bmp","mamala","Left","39","9","13","7","S","J","141"
"","","approach-retreat","145","1138448","0.0-145.0","","","1-1","5632","39","1","Training","Stims/Figures/57-J-0-1.bmp","pa:pa:ka","Left","39","9","14","7","P","J","142"
"","","approach-retreat","146","1144191","0.0-146.0","","","1-1","4231","40","0","Training","Stims/Figures/74-J-10-4.bmp","nala:la","Down","38","9","15","7","S","J","143"
"","","approach-retreat","147","1151557","0.0-147.0","","","1-1","5855","40","1","Training","Stims/Figures/57-C-30-1.bmp","ta:pata","Down","40","9","16","7","P","J","144"
"15520","","instructions","148","1167077","0.0-148.0","[{""page_index"":0,""viewing_time"":15518}]","","","","","","","","","","","","","","","",""
"","","approach-retreat","149","1177389","0.0-149.0","","","1-1","8804","38","0","Testing","Stims/Figures/27-C-30-1.bmp","papa:ta","Down","40","1","1","7","P","J","1"
"","","approach-retreat","150","1184305","0.0-150.0","","","1-1","5407","38","0","Testing","Stims/Figures/87-J-10-4.bmp","na:ma:la","Up","40","1","2","7","S","J","2"
"","","approach-retreat","151","1191442","0.0-151.0","","","1-1","5627","38","0","Testing","Stims/Figures/84-C-20-2.bmp","tapata","Down","40","1","3","7","P","J","3"
"","","approach-retreat","152","1199751","0.0-152.0","","","1-1","6798","38","0","Testing","Stims/Figures/57-J-0-1.bmp","pa:pa:ka","Up","40","1","4","7","P","J","4"
"","","approach-retreat","153","1206167","0.0-153.0","","","1-1","4907","38","0","Testing","Stims/Figures/139-C-20-2.bmp","takaka","Down","40","1","5","7","P","J","5"
"","","approach-retreat","154","1213690","0.0-154.0","","","1-1","6008","39","1","Testing","Stims/Figures/74-C-20-4.bmp","namana","Right","39","1","6","7","S","J","6"
"","","approach-retreat","155","1221362","0.0-155.0","","","1-1","6164","38","0","Testing","Stims/Figures/128-C-30-3.bmp","ma:la:la","Down","40","1","7","7","S","J","7"
"","","approach-retreat","156","1228221","0.0-156.0","","","1-1","5350","38","1","Testing","Stims/Figures/102-C-20-4.bmp","mala:na","Up","38","1","8","7","S","J","8"
"","","approach-retreat","157","1235082","0.0-157.0","","","1-1","5351","37","1","Testing","Stims/Figures/57-C-30-1.bmp","ta:pata","Left","37","1","9","7","P","J","9"
"","","approach-retreat","158","1245074","0.0-158.0","","","1-1","8483","39","0","Testing","Stims/Figures/102-J-10-4.bmp","malana","Right","37","1","10","7","S","J","10"
"","","approach-retreat","159","1252143","0.0-159.0","","","1-1","5556","38","0","Testing","Stims/Figures/27-J-0-1.bmp","papata","Up","40","1","11","7","P","J","11"
"","","approach-retreat","160","1259427","0.0-160.0","","","1-1","5774","39","1","Testing","Stims/Figures/84-J-0-2.bmp","ta:kata","Left","39","1","12","7","P","J","12"
"","","approach-retreat","161","1266536","0.0-161.0","","","1-1","5600","39","1","Testing","Stims/Figures/111-C-30-3.bmp","na:ma:na","Right","39","1","13","7","S","J","13"
"","","approach-retreat","162","1272549","0.0-162.0","","","1-1","4503","38","1","Testing","Stims/Figures/74-J-10-4.bmp","nala:la","Down","38","1","14","7","S","J","14"
"","","approach-retreat","163","1279108","0.0-163.0","","","1-1","5048","40","1","Testing","Stims/Figures/128-J-10-3.bmp","ma:ma:na","Up","40","1","15","7","S","J","15"
"","","approach-retreat","164","1288079","0.0-164.0","","","1-1","7464","38","1","Testing","Stims/Figures/71-J-0-1.bmp","pa:ka:ka","Down","38","1","16","7","P","J","16"
"","","approach-retreat","165","1295493","0.0-165.0","","","1-1","5901","37","1","Testing","Stims/Figures/100-J-10-3.bmp","ma:la:na","Right","37","1","17","7","S","J","17"
"","","approach-retreat","166","1306955","0.0-166.0","","","1-1","9954","40","0","Testing","Stims/Figures/71-C-30-1.bmp","ta:kaka","Up","38","1","18","7","P","J","18"
"","","approach-retreat","167","1314149","0.0-167.0","","","1-1","5677","37","1","Testing","Stims/Figures/87-C-20-4.bmp","mala:la","Left","37","1","19","7","S","J","19"
"","","approach-retreat","168","1321698","0.0-168.0","","","1-1","6039","39","0","Testing","Stims/Figures/118-J-0-2.bmp","pakaka","Right","37","1","20","7","P","J","20"
"","","approach-retreat","169","1327589","0.0-169.0","","","1-1","4382","37","0","Testing","Stims/Figures/111-J-10-3.bmp","mamala","Left","39","1","21","7","S","J","21"
"","","approach-retreat","170","1339248","0.0-170.0","","","1-1","10147","39","1","Testing","Stims/Figures/139-J-0-2.bmp","ta:ka:ta","Left","39","1","22","7","P","J","22"
"","","approach-retreat","171","1345140","0.0-171.0","","","1-1","4384","37","1","Testing","Stims/Figures/100-C-30-3.bmp","na:la:la","Left","37","1","23","7","S","J","23"
"","","approach-retreat","172","1355436","0.0-172.0","","","1-1","8785","39","1","Testing","Stims/Figures/118-C-20-2.bmp","takata","Right","39","1","24","7","P","J","24"
"","","approach-retreat","173","1365926","0.0-173.0","","","1-1","8984","39","1","Testing","Stims/Figures/27-J-0-1.bmp","papata","Left","39","2","1","7","P","J","25"
"","","approach-retreat","174","1374174","0.0-174.0","","","1-1","6739","37","0","Testing","Stims/Figures/71-C-30-1.bmp","ta:kaka","Right","39","2","2","7","P","J","26"
"","","approach-retreat","175","1384116","0.0-175.0","","","1-1","8432","39","0","Testing","Stims/Figures/100-J-10-3.bmp","ma:la:na","Right","37","2","3","7","S","J","27"
"","","approach-retreat","176","1392795","0.0-176.0","","","1-1","7170","37","1","Testing","Stims/Figures/102-J-10-4.bmp","malana","Right","37","2","4","7","S","J","28"
"","","approach-retreat","177","1401794","0.0-177.0","","","1-1","7488","37","0","Testing","Stims/Figures/57-J-0-1.bmp","pa:pa:ka","Left","39","2","5","7","P","J","29"
"","","approach-retreat","178","1413448","0.0-178.0","","","1-1","10143","38","1","Testing","Stims/Figures/57-C-30-1.bmp","ta:pata","Up","38","2","6","7","P","J","30"
"","","approach-retreat","179","1420857","0.0-179.0","","","1-1","5902","40","0","Testing","Stims/Figures/27-C-30-1.bmp","papa:ta","Up","38","2","7","7","P","J","31"
"","","approach-retreat","180","1431111","0.0-180.0","","","1-1","8744","39","1","Testing","Stims/Figures/128-C-30-3.bmp","ma:la:la","Right","39","2","8","7","S","J","32"
"","","approach-retreat","181","1439277","0.0-181.0","","","1-1","6655","39","0","Testing","Stims/Figures/139-J-0-2.bmp","ta:ka:ta","Right","37","2","9","7","P","J","33"
"","","approach-retreat","182","1447709","0.0-182.0","","","1-1","6923","40","0","Testing","Stims/Figures/111-J-10-3.bmp","mamala","Down","38","2","10","7","S","J","34"
"","","approach-retreat","183","1454575","0.0-183.0","","","1-1","5358","39","0","Testing","Stims/Figures/87-C-20-4.bmp","mala:la","Left","37","2","11","7","S","J","35"
"","","approach-retreat","184","1465905","0.0-184.0","","","1-1","9820","40","0","Testing","Stims/Figures/71-J-0-1.bmp","pa:ka:ka","Down","38","2","12","7","P","J","36"
"","","approach-retreat","185","1473147","0.0-185.0","","","1-1","5735","40","0","Testing","Stims/Figures/74-C-20-4.bmp","namana","Up","38","2","13","7","S","J","37"
"","","approach-retreat","186","1479477","0.0-186.0","","","1-1","4821","38","0","Testing","Stims/Figures/128-J-10-3.bmp","ma:ma:na","Up","40","2","14","7","S","J","38"
"","","approach-retreat","187","1489715","0.0-187.0","","","1-1","8729","39","0","Testing","Stims/Figures/100-C-30-3.bmp","na:la:la","Left","37","2","15","7","S","J","39"
"","","approach-retreat","188","1500735","0.0-188.0","","","1-1","9510","40","1","Testing","Stims/Figures/111-C-30-3.bmp","na:ma:na","Down","40","2","16","7","S","J","40"
"","","approach-retreat","189","1506836","0.0-189.0","","","1-1","4593","39","0","Testing","Stims/Figures/102-C-20-4.bmp","mala:na","Left","37","2","17","7","S","J","41"
"","","approach-retreat","190","1513726","0.0-190.0","","","1-1","5380","40","0","Testing","Stims/Figures/87-J-10-4.bmp","na:ma:la","Down","38","2","18","7","S","J","42"
"","","approach-retreat","191","1526522","0.0-191.0","","","1-1","11287","38","1","Testing","Stims/Figures/139-C-20-2.bmp","takaka","Up","38","2","19","7","P","J","43"
"","","approach-retreat","192","1536262","0.0-192.0","","","1-1","8232","39","0","Testing","Stims/Figures/118-J-0-2.bmp","pakaka","Right","37","2","20","7","P","J","44"
"","","approach-retreat","193","1548483","0.0-193.0","","","1-1","10712","40","0","Testing","Stims/Figures/74-J-10-4.bmp","nala:la","Down","38","2","21","7","S","J","45"
"","","approach-retreat","194","1554200","0.0-194.0","","","1-1","4208","40","1","Testing","Stims/Figures/118-C-20-2.bmp","takata","Down","40","2","22","7","P","J","46"
"","","approach-retreat","195","1559962","0.0-195.0","","","1-1","4254","39","1","Testing","Stims/Figures/84-J-0-2.bmp","ta:kata","Left","39","2","23","7","P","J","47"
"","","approach-retreat","196","1565845","0.0-196.0","","","1-1","4373","40","0","Testing","Stims/Figures/84-C-20-2.bmp","tapata","Up","38","2","24","7","P","J","48"
"","","approach-retreat","197","1575104","0.0-197.0","","","1-1","7748","37","1","Testing","Stims/Figures/111-C-30-3.bmp","na:ma:na","Left","37","3","1","7","S","J","49"
"","","approach-retreat","198","1585124","0.0-198.0","","","1-1","8508","37","0","Testing","Stims/Figures/111-J-10-3.bmp","mamala","Left","39","3","2","7","S","J","50"
"","","approach-retreat","199","1598649","0.0-199.0","","","1-1","12019","37","0","Testing","Stims/Figures/100-J-10-3.bmp","ma:la:na","Left","39","3","3","7","S","J","51"
"","","approach-retreat","200","1608779","0.0-200.0","","","1-1","8623","37","0","Testing","Stims/Figures/57-C-30-1.bmp","ta:pata","Right","39","3","4","7","P","J","52"
"","","approach-retreat","201","1616088","0.0-201.0","","","1-1","5801","37","0","Testing","Stims/Figures/27-J-0-1.bmp","papata","Left","39","3","5","7","P","J","53"
"","","approach-retreat","202","1626987","0.0-202.0","","","1-1","9387","40","0","Testing","Stims/Figures/84-C-20-2.bmp","tapata","Up","38","3","6","7","P","J","54"
"","","approach-retreat","203","1638205","0.0-203.0","","","1-1","9710","39","1","Testing","Stims/Figures/27-C-30-1.bmp","papa:ta","Right","39","3","7","7","P","J","55"
"","","approach-retreat","204","1644217","0.0-204.0","","","1-1","4501","38","0","Testing","Stims/Figures/102-C-20-4.bmp","mala:na","Down","40","3","8","7","S","J","56"
"","","approach-retreat","205","1651672","0.0-205.0","","","1-1","5946","39","0","Testing","Stims/Figures/71-J-0-1.bmp","pa:ka:ka","Right","37","3","9","7","P","J","57"
"","","approach-retreat","206","1657582","0.0-206.0","","","1-1","4403","38","0","Testing","Stims/Figures/100-C-30-3.bmp","na:la:la","Down","40","3","10","7","S","J","58"
"","","approach-retreat","207","1664793","0.0-207.0","","","1-1","5704","38","1","Testing","Stims/Figures/74-C-20-4.bmp","namana","Up","38","3","11","7","S","J","59"
"","","approach-retreat","208","1673566","0.0-208.0","","","1-1","7264","39","0","Testing","Stims/Figures/84-J-0-2.bmp","ta:kata","Right","37","3","12","7","P","J","60"
"","","approach-retreat","209","1680812","0.0-209.0","","","1-1","5735","37","0","Testing","Stims/Figures/128-C-30-3.bmp","ma:la:la","Right","39","3","13","7","S","J","61"
"","","approach-retreat","210","1687653","0.0-210.0","","","1-1","5332","39","1","Testing","Stims/Figures/139-C-20-2.bmp","takaka","Right","39","3","14","7","P","J","62"
"","","approach-retreat","211","1700499","0.0-211.0","","","1-1","11339","37","0","Testing","Stims/Figures/139-J-0-2.bmp","ta:ka:ta","Left","39","3","15","7","P","J","63"
"","","approach-retreat","212","1709556","0.0-212.0","","","1-1","7550","40","1","Testing","Stims/Figures/74-J-10-4.bmp","nala:la","Up","40","3","16","7","S","J","64"
"","","approach-retreat","213","1716325","0.0-213.0","","","1-1","5260","38","0","Testing","Stims/Figures/71-C-30-1.bmp","ta:kaka","Down","40","3","17","7","P","J","65"
"","","approach-retreat","214","1722353","0.0-214.0","","","1-1","4520","40","1","Testing","Stims/Figures/118-C-20-2.bmp","takata","Down","40","3","18","7","P","J","66"
"","","approach-retreat","215","1731750","0.0-215.0","","","1-1","7887","38","0","Testing","Stims/Figures/102-J-10-4.bmp","malana","Up","40","3","19","7","S","J","67"
"","","approach-retreat","216","1737646","0.0-216.0","","","1-1","4388","40","0","Testing","Stims/Figures/87-J-10-4.bmp","na:ma:la","Down","38","3","20","7","S","J","68"
"","","approach-retreat","217","1743696","0.0-217.0","","","1-1","4540","38","0","Testing","Stims/Figures/118-J-0-2.bmp","pakaka","Up","40","3","21","7","P","J","69"
"","","approach-retreat","218","1749983","0.0-218.0","","","1-1","4778","38","0","Testing","Stims/Figures/128-J-10-3.bmp","ma:ma:na","Up","40","3","22","7","S","J","70"
"","","approach-retreat","219","1755975","0.0-219.0","","","1-1","4479","39","1","Testing","Stims/Figures/57-J-0-1.bmp","pa:pa:ka","Left","39","3","23","7","P","J","71"
"","","approach-retreat","220","1765611","0.0-220.0","","","1-1","8127","40","1","Testing","Stims/Figures/87-C-20-4.bmp","mala:la","Down","40","3","24","7","S","J","72"
"","","approach-retreat","221","1776434","0.0-221.0","","","1-1","9312","37","0","Testing","Stims/Figures/71-J-0-1.bmp","pa:ka:ka","Left","39","4","1","7","P","J","73"
"","","approach-retreat","222","1788144","0.0-222.0","","","1-1","10201","40","1","Testing","Stims/Figures/139-C-20-2.bmp","takaka","Down","40","4","2","7","P","J","74"
"","","approach-retreat","223","1796808","0.0-223.0","","","1-1","7155","39","1","Testing","Stims/Figures/102-C-20-4.bmp","mala:na","Right","39","4","3","7","S","J","75"
"","","approach-retreat","224","1802468","0.0-224.0","","","1-1","4153","40","0","Testing","Stims/Figures/57-J-0-1.bmp","pa:pa:ka","Down","38","4","4","7","P","J","76"
"","","approach-retreat","225","1808122","0.0-225.0","","","1-1","4143","38","1","Testing","Stims/Figures/84-J-0-2.bmp","ta:kata","Down","38","4","5","7","P","J","77"
"","","approach-retreat","226","1814848","0.0-226.0","","","1-1","5215","37","0","Testing","Stims/Figures/27-C-30-1.bmp","papa:ta","Right","39","4","6","7","P","J","78"
"","","approach-retreat","227","1822550","0.0-227.0","","","1-1","6193","40","1","Testing","Stims/Figures/102-J-10-4.bmp","malana","Up","40","4","7","7","S","J","79"
"","","approach-retreat","228","1829258","0.0-228.0","","","1-1","5200","40","0","Testing","Stims/Figures/87-J-10-4.bmp","na:ma:la","Down","38","4","8","7","S","J","80"
"","","approach-retreat","229","1842746","0.0-229.0","","","1-1","11980","39","1","Testing","Stims/Figures/118-C-20-2.bmp","takata","Right","39","4","9","7","P","J","81"
"","","approach-retreat","230","1848960","0.0-230.0","","","1-1","4706","38","1","Testing","Stims/Figures/128-J-10-3.bmp","ma:ma:na","Down","38","4","10","7","S","J","82"
"","","approach-retreat","231","1855336","0.0-231.0","","","1-1","4867","40","0","Testing","Stims/Figures/118-J-0-2.bmp","pakaka","Down","38","4","11","7","P","J","83"
"","","approach-retreat","232","1861948","0.0-232.0","","","1-1","5103","37","1","Testing","Stims/Figures/87-C-20-4.bmp","mala:la","Left","37","4","12","7","S","J","84"
"","","approach-retreat","233","1867824","0.0-233.0","","","1-1","4365","37","0","Testing","Stims/Figures/139-J-0-2.bmp","ta:ka:ta","Left","39","4","13","7","P","J","85"
"","","approach-retreat","234","1879127","0.0-234.0","","","1-1","9792","37","0","Testing","Stims/Figures/57-C-30-1.bmp","ta:pata","Right","39","4","14","7","P","J","86"
"","","approach-retreat","235","1888050","0.0-235.0","","","1-1","7414","40","0","Testing","Stims/Figures/128-C-30-3.bmp","ma:la:la","Up","38","4","15","7","S","J","87"
"","","approach-retreat","236","1895234","0.0-236.0","","","1-1","5676","40","0","Testing","Stims/Figures/100-C-30-3.bmp","na:la:la","Up","38","4","16","7","S","J","88"
"","","approach-retreat","237","1906641","0.0-237.0","","","1-1","9898","39","0","Testing","Stims/Figures/84-C-20-2.bmp","tapata","Left","37","4","17","7","P","J","89"
"","","approach-retreat","238","1912220","0.0-238.0","","","1-1","4070","37","0","Testing","Stims/Figures/74-J-10-4.bmp","nala:la","Left","39","4","18","7","S","J","90"
"","","approach-retreat","239","1918053","0.0-239.0","","","1-1","4326","40","0","Testing","Stims/Figures/71-C-30-1.bmp","ta:kaka","Up","38","4","19","7","P","J","91"
"","","approach-retreat","240","1926212","0.0-240.0","","","1-1","6649","39","0","Testing","Stims/Figures/27-J-0-1.bmp","papata","Right","37","4","20","7","P","J","92"
"","","approach-retreat","241","1933202","0.0-241.0","","","1-1","5480","37","0","Testing","Stims/Figures/100-J-10-3.bmp","ma:la:na","Left","39","4","21","7","S","J","93"
"","","approach-retreat","242","1940025","0.0-242.0","","","1-1","5313","37","0","Testing","Stims/Figures/74-C-20-4.bmp","namana","Right","39","4","22","7","S","J","94"
"","","approach-retreat","243","1945925","0.0-243.0","","","1-1","4390","40","0","Testing","Stims/Figures/111-C-30-3.bmp","na:ma:na","Up","38","4","23","7","S","J","95"
"","","approach-retreat","244","1951589","0.0-244.0","","","1-1","4156","38","0","Testing","Stims/Figures/111-J-10-3.bmp","mamala","Up","40","4","24","7","S","J","96"
"42668","","survey-text","245","1994264","0.0-245.0","","{""Q0"":""1016/2018""}","","","","","","","","","","","","","","",""
