"rt","key_press","trial_type","trial_index","time_elapsed","internal_node_id","view_history","responses","Id","Rt","ResKeyCode","ResCorr","TrialType2","Image","Label","Location","CorrectResponse","Block","BlockTrial","Condition","LabelType","Subcondition","trialNum"
"19428","32","text","0","19433","0.0-0.0-0.0","","","","","","","","","","","","","","","","",""
"4324","","instructions","1","23760","0.0-1.0","[{""page_index"":0,""viewing_time"":4322}]","","","","","","","","","","","","","","","",""
"19321","","survey-multi-choice","2","43125","0.0-2.0","","{""Q0"":""Da"",""Q1"":""Da"",""Q2"":""Da"",""Q3"":""Da"",""Q4"":""Da"",""Q5"":""Da""}","","","","","","","","","","","","","","",""
"","","bio","3","49552","0.0-3.0","","{""age"":""19"",""gender"":""f"",""specify"":""""}","","","","","","","","","","","","","","",""
"","","approach-retreat","4","63632","0.0-4.0","","","2-3","12560","38","0","Training","Stims/Figures/7-C-20-4.bmp","ma:lana","Down","40","1","1","7","S","J","1"
"","","approach-retreat","5","71641","0.0-5.0","","","2-3","6501","39","0","Training","Stims/Figures/7-J-10-4.bmp","malala","Right","37","1","2","7","S","J","2"
"","","approach-retreat","6","79813","0.0-6.0","","","2-3","6658","38","1","Training","Stims/Figures/100-J-10-3.bmp","mamana","Down","38","1","3","7","S","J","3"
"","","approach-retreat","7","86505","0.0-7.0","","","2-3","5184","37","1","Training","Stims/Figures/118-J-0-2.bmp","ta:ka:ta","Right","37","1","4","7","P","J","4"
"","","approach-retreat","8","93517","0.0-8.0","","","2-3","5496","40","0","Training","Stims/Figures/118-C-20-2.bmp","pa:pa:ka","Up","38","1","5","7","P","J","5"
"","","approach-retreat","9","99539","0.0-9.0","","","2-3","4513","38","1","Training","Stims/Figures/74-C-20-4.bmp","ma:mala","Up","38","1","6","7","S","J","6"
"","","approach-retreat","10","106742","0.0-10.0","","","2-3","5692","39","1","Training","Stims/Figures/74-J-10-4.bmp","mala:la","Left","39","1","7","7","S","J","7"
"","","approach-retreat","11","113223","0.0-11.0","","","2-3","4974","40","1","Training","Stims/Figures/93-J-0-1.bmp","papa:ka","Up","40","1","8","7","P","J","8"
"","","approach-retreat","12","120097","0.0-12.0","","","2-3","5362","37","1","Training","Stims/Figures/100-C-30-3.bmp","na:mala","Left","37","1","9","7","S","J","9"
"","","approach-retreat","13","126720","0.0-13.0","","","2-3","5110","38","1","Training","Stims/Figures/86-J-0-1.bmp","pa:kata","Down","38","1","10","7","P","J","10"
"","","approach-retreat","14","132561","0.0-14.0","","","2-3","4331","37","0","Training","Stims/Figures/139-J-0-2.bmp","paka:ta","Left","39","1","11","7","P","J","11"
"","","approach-retreat","15","138461","0.0-15.0","","","2-3","4385","38","0","Training","Stims/Figures/93-C-30-1.bmp","pa:pa:ta","Down","40","1","12","7","P","J","12"
"","","approach-retreat","16","144313","0.0-16.0","","","2-3","4345","40","0","Training","Stims/Figures/139-C-20-2.bmp","tapa:ta","Up","38","1","13","7","P","J","13"
"","","approach-retreat","17","150133","0.0-17.0","","","2-3","4312","37","1","Training","Stims/Figures/86-C-30-1.bmp","pa:pata","Left","37","1","14","7","P","J","14"
"","","approach-retreat","18","156135","0.0-18.0","","","2-3","4489","37","1","Training","Stims/Figures/128-J-10-3.bmp","na:mana","Right","37","1","15","7","S","J","15"
"","","approach-retreat","19","162117","0.0-19.0","","","2-3","4470","37","0","Training","Stims/Figures/128-C-30-3.bmp","mama:la","Right","39","1","16","7","S","J","16"
"","","approach-retreat","20","168570","0.0-20.0","","","2-3","4943","37","1","Training","Stims/Figures/118-J-0-2.bmp","ta:ka:ta","Right","37","2","1","7","P","J","17"
"","","approach-retreat","21","173721","0.0-21.0","","","2-3","3645","40","0","Training","Stims/Figures/139-C-20-2.bmp","tapa:ta","Up","38","2","2","7","P","J","18"
"","","approach-retreat","22","179504","0.0-22.0","","","2-3","4275","39","0","Training","Stims/Figures/74-C-20-4.bmp","ma:mala","Left","37","2","3","7","S","J","19"
"","","approach-retreat","23","185005","0.0-23.0","","","2-3","3998","39","0","Training","Stims/Figures/100-C-30-3.bmp","na:mala","Left","37","2","4","7","S","J","20"
"","","approach-retreat","24","190708","0.0-24.0","","","2-3","4190","38","1","Training","Stims/Figures/7-C-20-4.bmp","ma:lana","Up","38","2","5","7","S","J","21"
"","","approach-retreat","25","196569","0.0-25.0","","","2-3","4349","37","0","Training","Stims/Figures/74-J-10-4.bmp","mala:la","Left","39","2","6","7","S","J","22"
"","","approach-retreat","26","202331","0.0-26.0","","","2-3","4249","39","0","Training","Stims/Figures/128-J-10-3.bmp","na:mana","Right","37","2","7","7","S","J","23"
"","","approach-retreat","27","208624","0.0-27.0","","","2-3","4788","40","1","Training","Stims/Figures/93-J-0-1.bmp","papa:ka","Up","40","2","8","7","P","J","24"
"","","approach-retreat","28","214525","0.0-28.0","","","2-3","4397","40","0","Training","Stims/Figures/7-J-10-4.bmp","malala","Down","38","2","9","7","S","J","25"
"","","approach-retreat","29","220167","0.0-29.0","","","2-3","4136","40","0","Training","Stims/Figures/86-J-0-1.bmp","pa:kata","Down","38","2","10","7","P","J","26"
"","","approach-retreat","30","225960","0.0-30.0","","","2-3","4288","38","1","Training","Stims/Figures/118-C-20-2.bmp","pa:pa:ka","Up","38","2","11","7","P","J","27"
"","","approach-retreat","31","231792","0.0-31.0","","","2-3","4320","38","0","Training","Stims/Figures/128-C-30-3.bmp","mama:la","Down","40","2","12","7","S","J","28"
"","","approach-retreat","32","237534","0.0-32.0","","","2-3","4230","39","0","Training","Stims/Figures/93-C-30-1.bmp","pa:pa:ta","Left","37","2","13","7","P","J","29"
"","","approach-retreat","33","243155","0.0-33.0","","","2-3","4116","37","1","Training","Stims/Figures/139-J-0-2.bmp","paka:ta","Right","37","2","14","7","P","J","30"
"","","approach-retreat","34","248747","0.0-34.0","","","2-3","4078","38","0","Training","Stims/Figures/86-C-30-1.bmp","pa:pata","Down","40","2","15","7","P","J","31"
"","","approach-retreat","35","254329","0.0-35.0","","","2-3","4069","39","0","Training","Stims/Figures/100-J-10-3.bmp","mamana","Right","37","2","16","7","S","J","32"
"","","approach-retreat","36","259412","0.0-36.0","","","2-3","3575","40","1","Training","Stims/Figures/86-C-30-1.bmp","pa:pata","Down","40","3","1","7","P","J","33"
"","","approach-retreat","37","265053","0.0-37.0","","","2-3","4127","38","1","Training","Stims/Figures/118-C-20-2.bmp","pa:pa:ka","Up","38","3","2","7","P","J","34"
"","","approach-retreat","38","271005","0.0-38.0","","","2-3","4446","38","1","Training","Stims/Figures/128-C-30-3.bmp","mama:la","Up","38","3","3","7","S","J","35"
"","","approach-retreat","39","277747","0.0-39.0","","","2-3","5231","38","1","Training","Stims/Figures/139-J-0-2.bmp","paka:ta","Down","38","3","4","7","P","J","36"
"","","approach-retreat","40","284070","0.0-40.0","","","2-3","4815","40","0","Training","Stims/Figures/74-J-10-4.bmp","mala:la","Down","38","3","5","7","S","J","37"
"","","approach-retreat","41","290011","0.0-41.0","","","2-3","4429","37","0","Training","Stims/Figures/93-C-30-1.bmp","pa:pa:ta","Right","39","3","6","7","P","J","38"
"","","approach-retreat","42","296124","0.0-42.0","","","2-3","4606","40","1","Training","Stims/Figures/100-J-10-3.bmp","mamana","Up","40","3","7","7","S","J","39"
"","","approach-retreat","43","302156","0.0-43.0","","","2-3","4523","37","1","Training","Stims/Figures/7-C-20-4.bmp","ma:lana","Left","37","3","8","7","S","J","40"
"","","approach-retreat","44","308013","0.0-44.0","","","2-3","4351","37","0","Training","Stims/Figures/139-C-20-2.bmp","tapa:ta","Right","39","3","9","7","P","J","41"
"","","approach-retreat","45","313746","0.0-45.0","","","2-3","4220","40","0","Training","Stims/Figures/86-J-0-1.bmp","pa:kata","Down","38","3","10","7","P","J","42"
"","","approach-retreat","46","319548","0.0-46.0","","","2-3","4290","38","0","Training","Stims/Figures/128-J-10-3.bmp","na:mana","Up","40","3","11","7","S","J","43"
"","","approach-retreat","47","325350","0.0-47.0","","","2-3","4295","37","0","Training","Stims/Figures/100-C-30-3.bmp","na:mala","Right","39","3","12","7","S","J","44"
"","","approach-retreat","48","331391","0.0-48.0","","","2-3","4531","37","0","Training","Stims/Figures/93-J-0-1.bmp","papa:ka","Left","39","3","13","7","P","J","45"
"","","approach-retreat","49","337444","0.0-49.0","","","2-3","4544","39","0","Training","Stims/Figures/74-C-20-4.bmp","ma:mala","Left","37","3","14","7","S","J","46"
"","","approach-retreat","50","343065","0.0-50.0","","","2-3","4109","39","0","Training","Stims/Figures/7-J-10-4.bmp","malala","Right","37","3","15","7","S","J","47"
"","","approach-retreat","51","349127","0.0-51.0","","","2-3","4551","37","0","Training","Stims/Figures/118-J-0-2.bmp","ta:ka:ta","Left","39","3","16","7","P","J","48"
"","","approach-retreat","52","355131","0.0-52.0","","","2-3","4494","40","1","Training","Stims/Figures/74-C-20-4.bmp","ma:mala","Down","40","4","1","7","S","J","49"
"","","approach-retreat","53","361154","0.0-53.0","","","2-3","4514","39","0","Training","Stims/Figures/86-J-0-1.bmp","pa:kata","Right","37","4","2","7","P","J","50"
"","","approach-retreat","54","366916","0.0-54.0","","","2-3","4255","37","1","Training","Stims/Figures/118-C-20-2.bmp","pa:pa:ka","Left","37","4","3","7","P","J","51"
"","","approach-retreat","55","372787","0.0-55.0","","","2-3","4359","40","0","Training","Stims/Figures/100-J-10-3.bmp","mamana","Down","38","4","4","7","S","J","52"
"","","approach-retreat","56","378549","0.0-56.0","","","2-3","4255","39","0","Training","Stims/Figures/139-J-0-2.bmp","paka:ta","Right","37","4","5","7","P","J","53"
"","","approach-retreat","57","385802","0.0-57.0","","","2-3","5742","37","0","Training","Stims/Figures/7-J-10-4.bmp","malala","Left","39","4","6","7","S","J","54"
"","","approach-retreat","58","392180","0.0-58.0","","","2-3","4866","40","0","Training","Stims/Figures/74-J-10-4.bmp","mala:la","Down","38","4","7","7","S","J","55"
"","","approach-retreat","59","397946","0.0-59.0","","","2-3","4256","39","0","Training","Stims/Figures/139-C-20-2.bmp","tapa:ta","Left","37","4","8","7","P","J","56"
"","","approach-retreat","60","404053","0.0-60.0","","","2-3","4599","40","0","Training","Stims/Figures/93-J-0-1.bmp","papa:ka","Down","38","4","9","7","P","J","57"
"","","approach-retreat","61","409914","0.0-61.0","","","2-3","4347","39","0","Training","Stims/Figures/86-C-30-1.bmp","pa:pata","Left","37","4","10","7","P","J","58"
"","","approach-retreat","62","415636","0.0-62.0","","","2-3","4208","38","1","Training","Stims/Figures/128-C-30-3.bmp","mama:la","Up","38","4","11","7","S","J","59"
"","","approach-retreat","63","421400","0.0-63.0","","","2-3","4253","40","0","Training","Stims/Figures/7-C-20-4.bmp","ma:lana","Up","38","4","12","7","S","J","60"
"","","approach-retreat","64","427122","0.0-64.0","","","2-3","4209","40","1","Training","Stims/Figures/118-J-0-2.bmp","ta:ka:ta","Up","40","4","13","7","P","J","61"
"","","approach-retreat","65","433086","0.0-65.0","","","2-3","4454","39","1","Training","Stims/Figures/100-C-30-3.bmp","na:mala","Right","39","4","14","7","S","J","62"
"","","approach-retreat","66","439298","0.0-66.0","","","2-3","4706","40","1","Training","Stims/Figures/128-J-10-3.bmp","na:mana","Up","40","4","15","7","S","J","63"
"","","approach-retreat","67","445610","0.0-67.0","","","2-3","4806","39","1","Training","Stims/Figures/93-C-30-1.bmp","pa:pa:ta","Right","39","4","16","7","P","J","64"
"","","approach-retreat","68","451412","0.0-68.0","","","2-3","4297","40","1","Training","Stims/Figures/74-J-10-4.bmp","mala:la","Up","40","5","1","7","S","J","65"
"","","approach-retreat","69","457463","0.0-69.0","","","2-3","4543","37","0","Training","Stims/Figures/100-J-10-3.bmp","mamana","Left","39","5","2","7","S","J","66"
"","","approach-retreat","70","463295","0.0-70.0","","","2-3","4328","37","1","Training","Stims/Figures/86-C-30-1.bmp","pa:pata","Left","37","5","3","7","P","J","67"
"","","approach-retreat","71","469278","0.0-71.0","","","2-3","4471","39","1","Training","Stims/Figures/74-C-20-4.bmp","ma:mala","Right","39","5","4","7","S","J","68"
"","","approach-retreat","72","475010","0.0-72.0","","","2-3","4222","40","0","Training","Stims/Figures/7-J-10-4.bmp","malala","Down","38","5","5","7","S","J","69"
"","","approach-retreat","73","480962","0.0-73.0","","","2-3","4443","38","0","Training","Stims/Figures/86-J-0-1.bmp","pa:kata","Up","40","5","6","7","P","J","70"
"","","approach-retreat","74","486824","0.0-74.0","","","2-3","4350","40","0","Training","Stims/Figures/118-J-0-2.bmp","ta:ka:ta","Down","38","5","7","7","P","J","71"
"","","approach-retreat","75","492816","0.0-75.0","","","2-3","4485","39","0","Training","Stims/Figures/139-J-0-2.bmp","paka:ta","Right","37","5","8","7","P","J","72"
"","","approach-retreat","76","499020","0.0-76.0","","","2-3","4699","39","1","Training","Stims/Figures/139-C-20-2.bmp","tapa:ta","Right","39","5","9","7","P","J","73"
"","","approach-retreat","77","505882","0.0-77.0","","","2-3","5356","38","0","Training","Stims/Figures/128-J-10-3.bmp","na:mana","Up","40","5","10","7","S","J","74"
"","","approach-retreat","78","511854","0.0-78.0","","","2-3","4466","40","0","Training","Stims/Figures/93-C-30-1.bmp","pa:pa:ta","Up","38","5","11","7","P","J","75"
"","","approach-retreat","79","518512","0.0-79.0","","","2-3","5150","39","1","Training","Stims/Figures/93-J-0-1.bmp","papa:ka","Left","39","5","12","7","P","J","76"
"","","approach-retreat","80","524386","0.0-80.0","","","2-3","4362","38","0","Training","Stims/Figures/7-C-20-4.bmp","ma:lana","Down","40","5","13","7","S","J","77"
"","","approach-retreat","81","530786","0.0-81.0","","","2-3","4889","39","0","Training","Stims/Figures/118-C-20-2.bmp","pa:pa:ka","Left","37","5","14","7","P","J","78"
"","","approach-retreat","82","536852","0.0-82.0","","","2-3","4558","38","0","Training","Stims/Figures/100-C-30-3.bmp","na:mala","Down","40","5","15","7","S","J","79"
"","","approach-retreat","83","543530","0.0-83.0","","","2-3","5173","39","1","Training","Stims/Figures/128-C-30-3.bmp","mama:la","Right","39","5","16","7","S","J","80"
"","","approach-retreat","84","549584","0.0-84.0","","","2-3","4542","39","0","Training","Stims/Figures/93-C-30-1.bmp","pa:pa:ta","Left","37","6","1","7","P","J","81"
"","","approach-retreat","85","555922","0.0-85.0","","","2-3","4830","37","0","Training","Stims/Figures/118-J-0-2.bmp","ta:ka:ta","Left","39","6","2","7","P","J","82"
"","","approach-retreat","86","562044","0.0-86.0","","","2-3","4609","40","0","Training","Stims/Figures/128-J-10-3.bmp","na:mana","Down","38","6","3","7","S","J","83"
"","","approach-retreat","87","567888","0.0-87.0","","","2-3","4331","38","1","Training","Stims/Figures/93-J-0-1.bmp","papa:ka","Down","38","6","4","7","P","J","84"
"","","approach-retreat","88","573656","0.0-88.0","","","2-3","4252","37","1","Training","Stims/Figures/118-C-20-2.bmp","pa:pa:ka","Left","37","6","5","7","P","J","85"
"","","approach-retreat","89","580088","0.0-89.0","","","2-3","4925","40","1","Training","Stims/Figures/86-C-30-1.bmp","pa:pata","Down","40","6","6","7","P","J","86"
"","","approach-retreat","90","586700","0.0-90.0","","","2-3","5103","39","0","Training","Stims/Figures/100-J-10-3.bmp","mamana","Right","37","6","7","7","S","J","87"
"","","approach-retreat","91","592555","0.0-91.0","","","2-3","4350","38","1","Training","Stims/Figures/74-J-10-4.bmp","mala:la","Down","38","6","8","7","S","J","88"
"","","approach-retreat","92","598968","0.0-92.0","","","2-3","4904","39","1","Training","Stims/Figures/7-C-20-4.bmp","ma:lana","Right","39","6","9","7","S","J","89"
"","","approach-retreat","93","605570","0.0-93.0","","","2-3","5088","37","0","Training","Stims/Figures/74-C-20-4.bmp","ma:mala","Right","39","6","10","7","S","J","90"
"","","approach-retreat","94","611462","0.0-94.0","","","2-3","4385","38","0","Training","Stims/Figures/86-J-0-1.bmp","pa:kata","Up","40","6","11","7","P","J","91"
"","","approach-retreat","95","617338","0.0-95.0","","","2-3","4368","40","1","Training","Stims/Figures/139-J-0-2.bmp","paka:ta","Up","40","6","12","7","P","J","92"
"","","approach-retreat","96","623190","0.0-96.0","","","2-3","4341","39","0","Training","Stims/Figures/7-J-10-4.bmp","malala","Right","37","6","13","7","S","J","93"
"","","approach-retreat","97","629524","0.0-97.0","","","2-3","4827","37","1","Training","Stims/Figures/100-C-30-3.bmp","na:mala","Left","37","6","14","7","S","J","94"
"","","approach-retreat","98","635398","0.0-98.0","","","2-3","4347","38","1","Training","Stims/Figures/128-C-30-3.bmp","mama:la","Up","38","6","15","7","S","J","95"
"","","approach-retreat","99","641368","0.0-99.0","","","2-3","4460","40","0","Training","Stims/Figures/139-C-20-2.bmp","tapa:ta","Up","38","6","16","7","P","J","96"
"","","approach-retreat","100","647190","0.0-100.0","","","2-3","4315","37","1","Training","Stims/Figures/86-J-0-1.bmp","pa:kata","Right","37","7","1","7","P","J","97"
"","","approach-retreat","101","653350","0.0-101.0","","","2-3","4656","40","1","Training","Stims/Figures/128-C-30-3.bmp","mama:la","Down","40","7","2","7","S","J","98"
"","","approach-retreat","102","659723","0.0-102.0","","","2-3","4860","39","1","Training","Stims/Figures/74-C-20-4.bmp","ma:mala","Right","39","7","3","7","S","J","99"
"","","approach-retreat","103","666255","0.0-103.0","","","2-3","5024","38","0","Training","Stims/Figures/74-J-10-4.bmp","mala:la","Up","40","7","4","7","S","J","100"
"","","approach-retreat","104","672578","0.0-104.0","","","2-3","4813","37","1","Training","Stims/Figures/7-C-20-4.bmp","ma:lana","Left","37","7","5","7","S","J","101"
"","","approach-retreat","105","678995","0.0-105.0","","","2-3","4905","40","1","Training","Stims/Figures/93-C-30-1.bmp","pa:pa:ta","Down","40","7","6","7","P","J","102"
"","","approach-retreat","106","685257","0.0-106.0","","","2-3","4749","37","0","Training","Stims/Figures/118-J-0-2.bmp","ta:ka:ta","Left","39","7","7","7","P","J","103"
"","","approach-retreat","107","691110","0.0-107.0","","","2-3","4347","39","1","Training","Stims/Figures/100-J-10-3.bmp","mamana","Left","39","7","8","7","S","J","104"
"","","approach-retreat","108","697592","0.0-108.0","","","2-3","4971","37","1","Training","Stims/Figures/7-J-10-4.bmp","malala","Right","37","7","9","7","S","J","105"
"","","approach-retreat","109","703454","0.0-109.0","","","2-3","4353","37","1","Training","Stims/Figures/139-C-20-2.bmp","tapa:ta","Left","37","7","10","7","P","J","106"
"","","approach-retreat","110","709137","0.0-110.0","","","2-3","4172","38","1","Training","Stims/Figures/118-C-20-2.bmp","pa:pa:ka","Up","38","7","11","7","P","J","107"
"","","approach-retreat","111","714601","0.0-111.0","","","2-3","3958","39","0","Training","Stims/Figures/128-J-10-3.bmp","na:mana","Right","37","7","12","7","S","J","108"
"","","approach-retreat","112","720233","0.0-112.0","","","2-3","4117","38","0","Training","Stims/Figures/93-J-0-1.bmp","papa:ka","Up","40","7","13","7","P","J","109"
"","","approach-retreat","113","725906","0.0-113.0","","","2-3","4166","40","0","Training","Stims/Figures/139-J-0-2.bmp","paka:ta","Down","38","7","14","7","P","J","110"
"","","approach-retreat","114","731778","0.0-114.0","","","2-3","4368","38","1","Training","Stims/Figures/100-C-30-3.bmp","na:mala","Up","38","7","15","7","S","J","111"
"","","approach-retreat","115","737640","0.0-115.0","","","2-3","4350","40","1","Training","Stims/Figures/86-C-30-1.bmp","pa:pata","Down","40","7","16","7","P","J","112"
"","","approach-retreat","116","743625","0.0-116.0","","","2-3","4477","39","1","Training","Stims/Figures/7-C-20-4.bmp","ma:lana","Right","39","8","1","7","S","J","113"
"","","approach-retreat","117","749436","0.0-117.0","","","2-3","4299","38","0","Training","Stims/Figures/93-C-30-1.bmp","pa:pa:ta","Down","40","8","2","7","P","J","114"
"","","approach-retreat","118","755329","0.0-118.0","","","2-3","4386","39","0","Training","Stims/Figures/139-J-0-2.bmp","paka:ta","Right","37","8","3","7","P","J","115"
"","","approach-retreat","119","761651","0.0-119.0","","","2-3","4812","38","0","Training","Stims/Figures/118-J-0-2.bmp","ta:ka:ta","Up","40","8","4","7","P","J","116"
"","","approach-retreat","120","767234","0.0-120.0","","","2-3","4079","38","1","Training","Stims/Figures/100-J-10-3.bmp","mamana","Down","38","8","5","7","S","J","117"
"","","approach-retreat","121","772849","0.0-121.0","","","2-3","4104","39","0","Training","Stims/Figures/100-C-30-3.bmp","na:mala","Left","37","8","6","7","S","J","118"
"","","approach-retreat","122","778570","0.0-122.0","","","2-3","4216","38","0","Training","Stims/Figures/7-J-10-4.bmp","malala","Up","40","8","7","7","S","J","119"
"","","approach-retreat","123","784202","0.0-123.0","","","2-3","4124","38","1","Training","Stims/Figures/86-C-30-1.bmp","pa:pata","Up","38","8","8","7","P","J","120"
"","","approach-retreat","124","789678","0.0-124.0","","","2-3","3966","38","1","Training","Stims/Figures/128-C-30-3.bmp","mama:la","Up","38","8","9","7","S","J","121"
"","","approach-retreat","125","794810","0.0-125.0","","","2-3","3626","37","1","Training","Stims/Figures/118-C-20-2.bmp","pa:pa:ka","Left","37","8","10","7","P","J","122"
"","","approach-retreat","126","800743","0.0-126.0","","","2-3","4425","38","0","Training","Stims/Figures/74-C-20-4.bmp","ma:mala","Down","40","8","11","7","S","J","123"
"","","approach-retreat","127","806228","0.0-127.0","","","2-3","3981","39","0","Training","Stims/Figures/93-J-0-1.bmp","papa:ka","Right","37","8","12","7","P","J","124"
"","","approach-retreat","128","811763","0.0-128.0","","","2-3","4027","37","0","Training","Stims/Figures/86-J-0-1.bmp","pa:kata","Left","39","8","13","7","P","J","125"
"","","approach-retreat","129","817302","0.0-129.0","","","2-3","4027","39","0","Training","Stims/Figures/128-J-10-3.bmp","na:mana","Right","37","8","14","7","S","J","126"
"","","approach-retreat","130","823369","0.0-130.0","","","2-3","4560","40","0","Training","Stims/Figures/74-J-10-4.bmp","mala:la","Down","38","8","15","7","S","J","127"
"","","approach-retreat","131","829241","0.0-131.0","","","2-3","4364","37","1","Training","Stims/Figures/139-C-20-2.bmp","tapa:ta","Left","37","8","16","7","P","J","128"
"","","approach-retreat","132","834883","0.0-132.0","","","2-3","4133","37","1","Training","Stims/Figures/139-C-20-2.bmp","tapa:ta","Left","37","9","1","7","P","J","129"
"","","approach-retreat","133","840605","0.0-133.0","","","2-3","4210","39","0","Training","Stims/Figures/118-J-0-2.bmp","ta:ka:ta","Right","37","9","2","7","P","J","130"
"","","approach-retreat","134","846467","0.0-134.0","","","2-3","4351","37","1","Training","Stims/Figures/128-J-10-3.bmp","na:mana","Right","37","9","3","7","S","J","131"
"","","approach-retreat","135","852431","0.0-135.0","","","2-3","4458","38","0","Training","Stims/Figures/139-J-0-2.bmp","paka:ta","Up","40","9","4","7","P","J","132"
"","","approach-retreat","136","858035","0.0-136.0","","","2-3","4097","40","1","Training","Stims/Figures/100-C-30-3.bmp","na:mala","Down","40","9","5","7","S","J","133"
"","","approach-retreat","137","863531","0.0-137.0","","","2-3","3983","37","1","Training","Stims/Figures/93-C-30-1.bmp","pa:pa:ta","Left","37","9","6","7","P","J","134"
"","","approach-retreat","138","870163","0.0-138.0","","","2-3","5127","39","0","Training","Stims/Figures/7-J-10-4.bmp","malala","Right","37","9","7","7","S","J","135"
"","","approach-retreat","139","876005","0.0-139.0","","","2-3","4329","38","1","Training","Stims/Figures/74-J-10-4.bmp","mala:la","Down","38","9","8","7","S","J","136"
"","","approach-retreat","140","881598","0.0-140.0","","","2-3","4078","39","1","Training","Stims/Figures/7-C-20-4.bmp","ma:lana","Right","39","9","9","7","S","J","137"
"","","approach-retreat","141","887151","0.0-141.0","","","2-3","4041","37","0","Training","Stims/Figures/86-J-0-1.bmp","pa:kata","Left","39","9","10","7","P","J","138"
"","","approach-retreat","142","892735","0.0-142.0","","","2-3","4079","38","0","Training","Stims/Figures/86-C-30-1.bmp","pa:pata","Down","40","9","11","7","P","J","139"
"","","approach-retreat","143","898446","0.0-143.0","","","2-3","4208","38","1","Training","Stims/Figures/128-C-30-3.bmp","mama:la","Up","38","9","12","7","S","J","140"
"","","approach-retreat","144","904258","0.0-144.0","","","2-3","4307","40","0","Training","Stims/Figures/100-J-10-3.bmp","mamana","Down","38","9","13","7","S","J","141"
"","","approach-retreat","145","910160","0.0-145.0","","","2-3","4392","38","1","Training","Stims/Figures/74-C-20-4.bmp","ma:mala","Up","38","9","14","7","S","J","142"
"","","approach-retreat","146","916173","0.0-146.0","","","2-3","4505","37","1","Training","Stims/Figures/118-C-20-2.bmp","pa:pa:ka","Left","37","9","15","7","P","J","143"
"","","approach-retreat","147","921907","0.0-147.0","","","2-3","4228","38","0","Training","Stims/Figures/93-J-0-1.bmp","papa:ka","Up","40","9","16","7","P","J","144"
"33936","","instructions","148","955843","0.0-148.0","[{""page_index"":0,""viewing_time"":33935}]","","","","","","","","","","","","","","","",""
"","","approach-retreat","149","961816","0.0-149.0","","","2-3","4462","37","1","Testing","Stims/Figures/44-C-30-3.bmp","na:la:la","Left","37","1","1","7","S","J","1"
"","","approach-retreat","150","967987","0.0-150.0","","","2-3","4658","37","0","Testing","Stims/Figures/100-J-10-3.bmp","mamana","Left","39","1","2","7","S","J","2"
"","","approach-retreat","151","973746","0.0-151.0","","","2-3","4255","37","0","Testing","Stims/Figures/128-J-10-3.bmp","na:mana","Left","39","1","3","7","S","J","3"
"","","approach-retreat","152","979609","0.0-152.0","","","2-3","4352","38","1","Testing","Stims/Figures/87-C-20-4.bmp","namala","Up","38","1","4","7","S","J","4"
"","","approach-retreat","153","985243","0.0-153.0","","","2-3","4129","39","1","Testing","Stims/Figures/7-C-20-4.bmp","ma:lana","Right","39","1","5","7","S","J","5"
"","","approach-retreat","154","991064","0.0-154.0","","","2-3","4311","38","0","Testing","Stims/Figures/74-C-20-4.bmp","ma:mala","Down","40","1","6","7","S","J","6"
"","","approach-retreat","155","996655","0.0-155.0","","","2-3","4084","39","1","Testing","Stims/Figures/93-C-30-1.bmp","pa:pa:ta","Right","39","1","7","7","P","J","7"
"","","approach-retreat","156","1002217","0.0-156.0","","","2-3","4059","39","0","Testing","Stims/Figures/139-J-0-2.bmp","paka:ta","Right","37","1","8","7","P","J","8"
"","","approach-retreat","157","1008134","0.0-157.0","","","2-3","4412","38","1","Testing","Stims/Figures/7-J-10-4.bmp","malala","Down","38","1","9","7","S","J","9"
"","","approach-retreat","158","1013714","0.0-158.0","","","2-3","4070","39","1","Testing","Stims/Figures/94-C-20-2.bmp","ta:kaka","Right","39","1","10","7","P","J","10"
"","","approach-retreat","159","1019305","0.0-159.0","","","2-3","4082","38","0","Testing","Stims/Figures/86-J-0-1.bmp","pa:kata","Up","40","1","11","7","P","J","11"
"","","approach-retreat","160","1025695","0.0-160.0","","","2-3","4873","40","0","Testing","Stims/Figures/44-J-10-3.bmp","na:lana","Down","38","1","12","7","S","J","12"
"","","approach-retreat","161","1031537","0.0-161.0","","","2-3","4334","37","0","Testing","Stims/Figures/93-J-0-1.bmp","papa:ka","Left","39","1","13","7","P","J","13"
"","","approach-retreat","162","1037147","0.0-162.0","","","2-3","4103","38","1","Testing","Stims/Figures/118-C-20-2.bmp","pa:pa:ka","Up","38","1","14","7","P","J","14"
"","","approach-retreat","163","1043317","0.0-163.0","","","2-3","4663","39","0","Testing","Stims/Figures/74-J-10-4.bmp","mala:la","Right","37","1","15","7","S","J","15"
"","","approach-retreat","164","1049007","0.0-164.0","","","2-3","4175","38","1","Testing","Stims/Figures/71-C-30-1.bmp","ta:paka","Up","38","1","16","7","P","J","16"
"","","approach-retreat","165","1054599","0.0-165.0","","","2-3","4086","37","0","Testing","Stims/Figures/94-J-0-2.bmp","ta:pa:ka","Left","39","1","17","7","P","J","17"
"","","approach-retreat","166","1060617","0.0-166.0","","","2-3","4510","39","0","Testing","Stims/Figures/128-C-30-3.bmp","mama:la","Left","37","1","18","7","S","J","18"
"","","approach-retreat","167","1066445","0.0-167.0","","","2-3","4320","40","1","Testing","Stims/Figures/87-J-10-4.bmp","mamala","Up","40","1","19","7","S","J","19"
"","","approach-retreat","168","1072185","0.0-168.0","","","2-3","4227","38","0","Testing","Stims/Figures/139-C-20-2.bmp","tapa:ta","Down","40","1","20","7","P","J","20"
"","","approach-retreat","169","1078055","0.0-169.0","","","2-3","4363","40","1","Testing","Stims/Figures/100-C-30-3.bmp","na:mala","Down","40","1","21","7","S","J","21"
"","","approach-retreat","170","1083957","0.0-170.0","","","2-3","4394","39","0","Testing","Stims/Figures/71-J-0-1.bmp","pa:kaka","Right","37","1","22","7","P","J","22"
"","","approach-retreat","171","1089637","0.0-171.0","","","2-3","4173","40","0","Testing","Stims/Figures/118-J-0-2.bmp","ta:ka:ta","Down","38","1","23","7","P","J","23"
"","","approach-retreat","172","1095407","0.0-172.0","","","2-3","4261","40","0","Testing","Stims/Figures/86-C-30-1.bmp","pa:pata","Up","38","1","24","7","P","J","24"
"","","approach-retreat","173","1101649","0.0-173.0","","","2-3","4734","39","1","Testing","Stims/Figures/44-J-10-3.bmp","na:lana","Left","39","2","1","7","S","J","25"
"","","approach-retreat","174","1107389","0.0-174.0","","","2-3","4229","40","1","Testing","Stims/Figures/44-C-30-3.bmp","na:la:la","Down","40","2","2","7","S","J","26"
"","","approach-retreat","175","1112969","0.0-175.0","","","2-3","4072","39","1","Testing","Stims/Figures/128-C-30-3.bmp","mama:la","Right","39","2","3","7","S","J","27"
"","","approach-retreat","176","1118609","0.0-176.0","","","2-3","4135","40","1","Testing","Stims/Figures/74-C-20-4.bmp","ma:mala","Down","40","2","4","7","S","J","28"
"","","approach-retreat","177","1124281","0.0-177.0","","","2-3","4160","37","1","Testing","Stims/Figures/94-C-20-2.bmp","ta:kaka","Left","37","2","5","7","P","J","29"
"","","approach-retreat","178","1129921","0.0-178.0","","","2-3","4132","38","0","Testing","Stims/Figures/139-J-0-2.bmp","paka:ta","Up","40","2","6","7","P","J","30"
"","","approach-retreat","179","1135498","0.0-179.0","","","2-3","4070","39","1","Testing","Stims/Figures/86-C-30-1.bmp","pa:pata","Right","39","2","7","7","P","J","31"
"","","approach-retreat","180","1141467","0.0-180.0","","","2-3","4464","37","1","Testing","Stims/Figures/7-J-10-4.bmp","malala","Right","37","2","8","7","S","J","32"
"","","approach-retreat","181","1147019","0.0-181.0","","","2-3","4045","40","0","Testing","Stims/Figures/87-J-10-4.bmp","mamala","Down","38","2","9","7","S","J","33"
"","","approach-retreat","182","1152663","0.0-182.0","","","2-3","4133","38","1","Testing","Stims/Figures/139-C-20-2.bmp","tapa:ta","Up","38","2","10","7","P","J","34"
"","","approach-retreat","183","1158253","0.0-183.0","","","2-3","4084","37","1","Testing","Stims/Figures/118-C-20-2.bmp","pa:pa:ka","Left","37","2","11","7","P","J","35"
"","","approach-retreat","184","1163874","0.0-184.0","","","2-3","4114","40","0","Testing","Stims/Figures/74-J-10-4.bmp","mala:la","Down","38","2","12","7","S","J","36"
"","","approach-retreat","185","1169471","0.0-185.0","","","2-3","4091","39","0","Testing","Stims/Figures/93-J-0-1.bmp","papa:ka","Right","37","2","13","7","P","J","37"
"","","approach-retreat","186","1175581","0.0-186.0","","","2-3","4605","40","0","Testing","Stims/Figures/71-J-0-1.bmp","pa:kaka","Down","38","2","14","7","P","J","38"
"","","approach-retreat","187","1181671","0.0-187.0","","","2-3","4583","37","0","Testing","Stims/Figures/86-J-0-1.bmp","pa:kata","Left","39","2","15","7","P","J","39"
"","","approach-retreat","188","1188061","0.0-188.0","","","2-3","4884","38","1","Testing","Stims/Figures/71-C-30-1.bmp","ta:paka","Up","38","2","16","7","P","J","40"
"","","approach-retreat","189","1194113","0.0-189.0","","","2-3","4546","37","0","Testing","Stims/Figures/128-J-10-3.bmp","na:mana","Left","39","2","17","7","S","J","41"
"","","approach-retreat","190","1199944","0.0-190.0","","","2-3","4318","40","1","Testing","Stims/Figures/87-C-20-4.bmp","namala","Down","40","2","18","7","S","J","42"
"","","approach-retreat","191","1205905","0.0-191.0","","","2-3","4459","39","1","Testing","Stims/Figures/93-C-30-1.bmp","pa:pa:ta","Right","39","2","19","7","P","J","43"
"","","approach-retreat","192","1211347","0.0-192.0","","","2-3","3933","37","1","Testing","Stims/Figures/100-J-10-3.bmp","mamana","Right","37","2","20","7","S","J","44"
"","","approach-retreat","193","1217591","0.0-193.0","","","2-3","4735","39","0","Testing","Stims/Figures/100-C-30-3.bmp","na:mala","Left","37","2","21","7","S","J","45"
"","","approach-retreat","194","1224071","0.0-194.0","","","2-3","4974","38","0","Testing","Stims/Figures/94-J-0-2.bmp","ta:pa:ka","Up","40","2","22","7","P","J","46"
"","","approach-retreat","195","1230501","0.0-195.0","","","2-3","4921","40","0","Testing","Stims/Figures/7-C-20-4.bmp","ma:lana","Up","38","2","23","7","S","J","47"
"","","approach-retreat","196","1236771","0.0-196.0","","","2-3","4760","38","0","Testing","Stims/Figures/118-J-0-2.bmp","ta:ka:ta","Up","40","2","24","7","P","J","48"
"","","approach-retreat","197","1242871","0.0-197.0","","","2-3","4594","38","0","Testing","Stims/Figures/86-C-30-1.bmp","pa:pata","Down","40","3","1","7","P","J","49"
"","","approach-retreat","198","1249021","0.0-198.0","","","2-3","4638","39","0","Testing","Stims/Figures/100-J-10-3.bmp","mamana","Right","37","3","2","7","S","J","50"
"","","approach-retreat","199","1255545","0.0-199.0","","","2-3","5016","39","1","Testing","Stims/Figures/118-J-0-2.bmp","ta:ka:ta","Left","39","3","3","7","P","J","51"
"","","approach-retreat","200","1261735","0.0-200.0","","","2-3","4680","39","1","Testing","Stims/Figures/128-J-10-3.bmp","na:mana","Left","39","3","4","7","S","J","52"
"","","approach-retreat","201","1268765","0.0-201.0","","","2-3","5521","39","0","Testing","Stims/Figures/74-J-10-4.bmp","mala:la","Right","37","3","5","7","S","J","53"
"","","approach-retreat","202","1274868","0.0-202.0","","","2-3","4590","38","0","Testing","Stims/Figures/86-J-0-1.bmp","pa:kata","Up","40","3","6","7","P","J","54"
"","","approach-retreat","203","1280707","0.0-203.0","","","2-3","4329","37","1","Testing","Stims/Figures/128-C-30-3.bmp","mama:la","Left","37","3","7","7","S","J","55"
"","","approach-retreat","204","1286877","0.0-204.0","","","2-3","4663","40","1","Testing","Stims/Figures/87-C-20-4.bmp","namala","Down","40","3","8","7","S","J","56"
"","","approach-retreat","205","1294757","0.0-205.0","","","2-3","6366","40","1","Testing","Stims/Figures/93-C-30-1.bmp","pa:pa:ta","Down","40","3","9","7","P","J","57"
"","","approach-retreat","206","1300967","0.0-206.0","","","2-3","4700","38","0","Testing","Stims/Figures/7-C-20-4.bmp","ma:lana","Down","40","3","10","7","S","J","58"
"","","approach-retreat","207","1307019","0.0-207.0","","","2-3","4547","39","0","Testing","Stims/Figures/74-C-20-4.bmp","ma:mala","Left","37","3","11","7","S","J","59"
"","","approach-retreat","208","1313249","0.0-208.0","","","2-3","4722","37","1","Testing","Stims/Figures/118-C-20-2.bmp","pa:pa:ka","Left","37","3","12","7","P","J","60"
"","","approach-retreat","209","1320220","0.0-209.0","","","2-3","5459","39","0","Testing","Stims/Figures/71-J-0-1.bmp","pa:kaka","Right","37","3","13","7","P","J","61"
"","","approach-retreat","210","1326612","0.0-210.0","","","2-3","4881","39","1","Testing","Stims/Figures/71-C-30-1.bmp","ta:paka","Right","39","3","14","7","P","J","62"
"","","approach-retreat","211","1333313","0.0-211.0","","","2-3","5188","38","1","Testing","Stims/Figures/100-C-30-3.bmp","na:mala","Up","38","3","15","7","S","J","63"
"","","approach-retreat","212","1340333","0.0-212.0","","","2-3","5515","40","1","Testing","Stims/Figures/44-C-30-3.bmp","na:la:la","Down","40","3","16","7","S","J","64"
"","","approach-retreat","213","1346353","0.0-213.0","","","2-3","4511","38","0","Testing","Stims/Figures/87-J-10-4.bmp","mamala","Up","40","3","17","7","S","J","65"
"","","approach-retreat","214","1352573","0.0-214.0","","","2-3","4708","38","1","Testing","Stims/Figures/94-C-20-2.bmp","ta:kaka","Up","38","3","18","7","P","J","66"
"","","approach-retreat","215","1359074","0.0-215.0","","","2-3","4991","40","0","Testing","Stims/Figures/44-J-10-3.bmp","na:lana","Down","38","3","19","7","S","J","67"
"","","approach-retreat","216","1367683","0.0-216.0","","","2-3","7105","39","0","Testing","Stims/Figures/93-J-0-1.bmp","papa:ka","Right","37","3","20","7","P","J","68"
"","","approach-retreat","217","1373163","0.0-217.0","","","2-3","3974","37","0","Testing","Stims/Figures/94-J-0-2.bmp","ta:pa:ka","Left","39","3","21","7","P","J","69"
"","","approach-retreat","218","1378834","0.0-218.0","","","2-3","4166","38","1","Testing","Stims/Figures/139-C-20-2.bmp","tapa:ta","Up","38","3","22","7","P","J","70"
"","","approach-retreat","219","1384444","0.0-219.0","","","2-3","4099","39","0","Testing","Stims/Figures/139-J-0-2.bmp","paka:ta","Right","37","3","23","7","P","J","71"
"","","approach-retreat","220","1390098","0.0-220.0","","","2-3","4141","38","0","Testing","Stims/Figures/7-J-10-4.bmp","malala","Up","40","3","24","7","S","J","72"
"","","approach-retreat","221","1395794","0.0-221.0","","","2-3","4191","40","1","Testing","Stims/Figures/128-C-30-3.bmp","mama:la","Down","40","4","1","7","S","J","73"
"","","approach-retreat","222","1402573","0.0-222.0","","","2-3","5271","39","0","Testing","Stims/Figures/118-J-0-2.bmp","ta:ka:ta","Right","37","4","2","7","P","J","74"
"","","approach-retreat","223","1410129","0.0-223.0","","","2-3","6042","39","1","Testing","Stims/Figures/87-J-10-4.bmp","mamala","Left","39","4","3","7","S","J","75"
"","","approach-retreat","224","1416259","0.0-224.0","","","2-3","4625","39","1","Testing","Stims/Figures/94-J-0-2.bmp","ta:pa:ka","Left","39","4","4","7","P","J","76"
"","","approach-retreat","225","1422430","0.0-225.0","","","2-3","4663","37","1","Testing","Stims/Figures/7-C-20-4.bmp","ma:lana","Left","37","4","5","7","S","J","77"
"","","approach-retreat","226","1428130","0.0-226.0","","","2-3","4196","38","1","Testing","Stims/Figures/86-J-0-1.bmp","pa:kata","Down","38","4","6","7","P","J","78"
"","","approach-retreat","227","1434392","0.0-227.0","","","2-3","4751","39","0","Testing","Stims/Figures/7-J-10-4.bmp","malala","Right","37","4","7","7","S","J","79"
"","","approach-retreat","228","1440202","0.0-228.0","","","2-3","4304","37","0","Testing","Stims/Figures/74-C-20-4.bmp","ma:mala","Right","39","4","8","7","S","J","80"
"","","approach-retreat","229","1448731","0.0-229.0","","","2-3","7023","40","1","Testing","Stims/Figures/71-J-0-1.bmp","pa:kaka","Up","40","4","9","7","P","J","81"
"","","approach-retreat","230","1455726","0.0-230.0","","","2-3","5490","39","1","Testing","Stims/Figures/44-J-10-3.bmp","na:lana","Left","39","4","10","7","S","J","82"
"","","approach-retreat","231","1461908","0.0-231.0","","","2-3","4676","38","0","Testing","Stims/Figures/100-J-10-3.bmp","mamana","Up","40","4","11","7","S","J","83"
"","","approach-retreat","232","1467837","0.0-232.0","","","2-3","4419","40","0","Testing","Stims/Figures/74-J-10-4.bmp","mala:la","Down","38","4","12","7","S","J","84"
"","","approach-retreat","233","1473487","0.0-233.0","","","2-3","4145","38","1","Testing","Stims/Figures/44-C-30-3.bmp","na:la:la","Up","38","4","13","7","S","J","85"
"","","approach-retreat","234","1480347","0.0-234.0","","","2-3","5352","40","1","Testing","Stims/Figures/87-C-20-4.bmp","namala","Down","40","4","14","7","S","J","86"
"","","approach-retreat","235","1486428","0.0-235.0","","","2-3","4572","37","0","Testing","Stims/Figures/139-J-0-2.bmp","paka:ta","Left","39","4","15","7","P","J","87"
"","","approach-retreat","236","1493168","0.0-236.0","","","2-3","5237","39","1","Testing","Stims/Figures/93-C-30-1.bmp","pa:pa:ta","Right","39","4","16","7","P","J","88"
"","","approach-retreat","237","1500428","0.0-237.0","","","2-3","5756","39","1","Testing","Stims/Figures/118-C-20-2.bmp","pa:pa:ka","Right","39","4","17","7","P","J","89"
"","","approach-retreat","238","1506392","0.0-238.0","","","2-3","4458","39","1","Testing","Stims/Figures/71-C-30-1.bmp","ta:paka","Right","39","4","18","7","P","J","90"
"","","approach-retreat","239","1512941","0.0-239.0","","","2-3","5039","40","0","Testing","Stims/Figures/128-J-10-3.bmp","na:mana","Down","38","4","19","7","S","J","91"
"","","approach-retreat","240","1519066","0.0-240.0","","","2-3","4618","40","0","Testing","Stims/Figures/139-C-20-2.bmp","tapa:ta","Up","38","4","20","7","P","J","92"
"","","approach-retreat","241","1524776","0.0-241.0","","","2-3","4206","40","1","Testing","Stims/Figures/93-J-0-1.bmp","papa:ka","Up","40","4","21","7","P","J","93"
"","","approach-retreat","242","1531837","0.0-242.0","","","2-3","5551","37","1","Testing","Stims/Figures/94-C-20-2.bmp","ta:kaka","Left","37","4","22","7","P","J","94"
"","","approach-retreat","243","1539738","0.0-243.0","","","2-3","6393","40","1","Testing","Stims/Figures/100-C-30-3.bmp","na:mala","Down","40","4","23","7","S","J","95"
"","","approach-retreat","244","1548008","0.0-244.0","","","2-3","6761","38","1","Testing","Stims/Figures/86-C-30-1.bmp","pa:pata","Up","38","4","24","7","P","J","96"
"70276","","survey-text","245","1618294","0.0-245.0","","{""Q0"":""PS180016""}","","","","","","","","","","","","","","",""
