"rt","key_press","trial_type","trial_index","time_elapsed","internal_node_id","view_history","responses","Id","Rt","ResKeyCode","ResCorr","TrialType2","Image","Label","Location","CorrectResponse","Block","BlockTrial","Condition","LabelType","Subcondition","trialNum"
"4392","32","text","0","4393","0.0-0.0-0.0","","","","","","","","","","","","","","","","",""
"4377","","instructions","1","8770","0.0-1.0","[{""page_index"":0,""viewing_time"":4377}]","","","","","","","","","","","","","","","",""
"15842","","survey-multi-choice","2","24628","0.0-2.0","","{""Q0"":""Da"",""Q1"":""Da"",""Q2"":""Da"",""Q3"":""Da"",""Q4"":""Da"",""Q5"":""Da""}","","","","","","","","","","","","","","",""
"","","bio","3","30867","0.0-3.0","","{""age"":""18"",""gender"":""f"",""specify"":""""}","","","","","","","","","","","","","","",""
"","","approach-retreat","4","40500","0.0-4.0","","","1-5","8128","38","0","Training","Stims/Figures/27-J-0-1.bmp","paka:ta","Down","40","1","1","4","P","C","1"
"","","approach-retreat","5","54469","0.0-5.0","","","1-5","12464","39","1","Training","Stims/Figures/144-J-10-3.bmp","pa:ka:ta","Right","39","1","2","4","P","C","2"
"","","approach-retreat","6","64365","0.0-6.0","","","1-5","8391","38","1","Training","Stims/Figures/84-J-0-2.bmp","pa:pa:ka","Up","38","1","3","4","P","C","3"
"","","approach-retreat","7","72053","0.0-7.0","","","1-5","6183","40","0","Training","Stims/Figures/74-J-10-4.bmp","ta:pata","Up","38","1","4","4","P","C","4"
"","","approach-retreat","8","81667","0.0-8.0","","","1-5","8110","40","0","Training","Stims/Figures/93-C-30-1.bmp","malana","Down","38","1","5","4","S","C","5"
"","","approach-retreat","9","93411","0.0-9.0","","","1-5","10241","38","0","Training","Stims/Figures/27-C-30-1.bmp","mala:na","Up","40","1","6","4","S","C","6"
"","","approach-retreat","10","103264","0.0-10.0","","","1-5","8346","37","0","Training","Stims/Figures/44-C-30-3.bmp","na:mana","Left","39","1","7","4","S","C","7"
"","","approach-retreat","11","110069","0.0-11.0","","","1-5","5300","37","0","Training","Stims/Figures/85-C-20-2.bmp","ma:ma:na","Left","39","1","8","4","S","C","8"
"","","approach-retreat","12","116512","0.0-12.0","","","1-5","4940","38","1","Training","Stims/Figures/44-J-10-3.bmp","pa:kaka","Up","38","1","9","4","P","C","9"
"","","approach-retreat","13","127553","0.0-13.0","","","1-5","9537","39","0","Training","Stims/Figures/19-C-20-4.bmp","mama:na","Right","37","1","10","4","S","C","10"
"","","approach-retreat","14","137170","0.0-14.0","","","1-5","8113","39","1","Training","Stims/Figures/93-J-0-1.bmp","tapa:ta","Right","39","1","11","4","P","C","11"
"","","approach-retreat","15","146105","0.0-15.0","","","1-5","7429","39","0","Training","Stims/Figures/84-C-20-2.bmp","na:ma:la","Right","37","1","12","4","S","C","12"
"","","approach-retreat","16","155338","0.0-16.0","","","1-5","7729","37","0","Training","Stims/Figures/144-C-30-3.bmp","namala","Left","39","1","13","4","S","C","13"
"","","approach-retreat","17","161993","0.0-17.0","","","1-5","5149","40","1","Training","Stims/Figures/85-J-0-2.bmp","ta:ka:ta","Down","40","1","14","4","P","C","14"
"","","approach-retreat","18","171377","0.0-18.0","","","1-5","7878","40","0","Training","Stims/Figures/74-C-20-4.bmp","nama:na","Down","38","1","15","4","S","C","15"
"","","approach-retreat","19","177268","0.0-19.0","","","1-5","4386","37","1","Training","Stims/Figures/19-J-10-4.bmp","ta:kaka","Left","37","1","16","4","P","C","16"
"","","approach-retreat","20","183100","0.0-20.0","","","1-5","4325","38","1","Training","Stims/Figures/19-J-10-4.bmp","ta:kaka","Up","38","2","1","4","P","C","17"
"","","approach-retreat","21","188769","0.0-21.0","","","1-5","4162","38","0","Training","Stims/Figures/93-C-30-1.bmp","malana","Up","40","2","2","4","S","C","18"
"","","approach-retreat","22","195985","0.0-22.0","","","1-5","5711","40","0","Training","Stims/Figures/85-C-20-2.bmp","ma:ma:na","Down","38","2","3","4","S","C","19"
"","","approach-retreat","23","202517","0.0-23.0","","","1-5","5027","37","1","Training","Stims/Figures/74-J-10-4.bmp","ta:pata","Left","37","2","4","4","P","C","20"
"","","approach-retreat","24","208509","0.0-24.0","","","1-5","4486","37","1","Training","Stims/Figures/84-C-20-2.bmp","na:ma:la","Right","37","2","5","4","S","C","21"
"","","approach-retreat","25","214373","0.0-25.0","","","1-5","4359","38","1","Training","Stims/Figures/44-J-10-3.bmp","pa:kaka","Up","38","2","6","4","P","C","22"
"","","approach-retreat","26","220700","0.0-26.0","","","1-5","4821","39","1","Training","Stims/Figures/74-C-20-4.bmp","nama:na","Left","39","2","7","4","S","C","23"
"","","approach-retreat","27","226644","0.0-27.0","","","1-5","4439","37","1","Training","Stims/Figures/84-J-0-2.bmp","pa:pa:ka","Left","37","2","8","4","P","C","24"
"","","approach-retreat","28","234353","0.0-28.0","","","1-5","6206","37","1","Training","Stims/Figures/144-C-30-3.bmp","namala","Right","37","2","9","4","S","C","25"
"","","approach-retreat","29","240217","0.0-29.0","","","1-5","4356","39","1","Training","Stims/Figures/19-C-20-4.bmp","mama:na","Left","39","2","10","4","S","C","26"
"","","approach-retreat","30","246403","0.0-30.0","","","1-5","4681","38","1","Training","Stims/Figures/144-J-10-3.bmp","pa:ka:ta","Up","38","2","11","4","P","C","27"
"","","approach-retreat","31","252976","0.0-31.0","","","1-5","5067","37","1","Training","Stims/Figures/44-C-30-3.bmp","na:mana","Right","37","2","12","4","S","C","28"
"","","approach-retreat","32","259376","0.0-32.0","","","1-5","4896","40","1","Training","Stims/Figures/85-J-0-2.bmp","ta:ka:ta","Down","40","2","13","4","P","C","29"
"","","approach-retreat","33","268297","0.0-33.0","","","1-5","7417","40","1","Training","Stims/Figures/27-J-0-1.bmp","paka:ta","Down","40","2","14","4","P","C","30"
"","","approach-retreat","34","274102","0.0-34.0","","","1-5","4301","37","1","Training","Stims/Figures/27-C-30-1.bmp","mala:na","Right","37","2","15","4","S","C","31"
"","","approach-retreat","35","281237","0.0-35.0","","","1-5","5630","40","1","Training","Stims/Figures/93-J-0-1.bmp","tapa:ta","Down","40","2","16","4","P","C","32"
"","","approach-retreat","36","288620","0.0-36.0","","","1-5","5877","38","1","Training","Stims/Figures/19-C-20-4.bmp","mama:na","Down","38","3","1","4","S","C","33"
"","","approach-retreat","37","294305","0.0-37.0","","","1-5","4180","38","1","Training","Stims/Figures/44-C-30-3.bmp","na:mana","Down","38","3","2","4","S","C","34"
"","","approach-retreat","38","301199","0.0-38.0","","","1-5","5387","39","1","Training","Stims/Figures/144-J-10-3.bmp","pa:ka:ta","Right","39","3","3","4","P","C","35"
"","","approach-retreat","39","308195","0.0-39.0","","","1-5","5491","37","1","Training","Stims/Figures/93-C-30-1.bmp","malana","Right","37","3","4","4","S","C","36"
"","","approach-retreat","40","314583","0.0-40.0","","","1-5","4881","40","1","Training","Stims/Figures/144-C-30-3.bmp","namala","Up","40","3","5","4","S","C","37"
"","","approach-retreat","41","320699","0.0-41.0","","","1-5","4611","40","1","Training","Stims/Figures/85-C-20-2.bmp","ma:ma:na","Up","40","3","6","4","S","C","38"
"","","approach-retreat","42","327100","0.0-42.0","","","1-5","4896","40","1","Training","Stims/Figures/85-J-0-2.bmp","ta:ka:ta","Down","40","3","7","4","P","C","39"
"","","approach-retreat","43","332905","0.0-43.0","","","1-5","4301","39","1","Training","Stims/Figures/19-J-10-4.bmp","ta:kaka","Right","39","3","8","4","P","C","40"
"","","approach-retreat","44","339780","0.0-44.0","","","1-5","5370","38","1","Training","Stims/Figures/74-C-20-4.bmp","nama:na","Down","38","3","9","4","S","C","41"
"","","approach-retreat","45","346977","0.0-45.0","","","1-5","5691","37","1","Training","Stims/Figures/74-J-10-4.bmp","ta:pata","Left","37","3","10","4","P","C","42"
"","","approach-retreat","46","355920","0.0-46.0","","","1-5","7438","37","1","Training","Stims/Figures/27-J-0-1.bmp","paka:ta","Left","37","3","11","4","P","C","43"
"","","approach-retreat","47","361590","0.0-47.0","","","1-5","4165","37","1","Training","Stims/Figures/84-J-0-2.bmp","pa:pa:ka","Left","37","3","12","4","P","C","44"
"","","approach-retreat","48","368470","0.0-48.0","","","1-5","5375","38","1","Training","Stims/Figures/93-J-0-1.bmp","tapa:ta","Up","38","3","13","4","P","C","45"
"","","approach-retreat","49","378834","0.0-49.0","","","1-5","8855","37","1","Training","Stims/Figures/27-C-30-1.bmp","mala:na","Right","37","3","14","4","S","C","46"
"","","approach-retreat","50","385090","0.0-50.0","","","1-5","4752","38","1","Training","Stims/Figures/44-J-10-3.bmp","pa:kaka","Up","38","3","15","4","P","C","47"
"","","approach-retreat","51","391382","0.0-51.0","","","1-5","4788","39","1","Training","Stims/Figures/84-C-20-2.bmp","na:ma:la","Left","39","3","16","4","S","C","48"
"","","approach-retreat","52","398858","0.0-52.0","","","1-5","5970","37","1","Training","Stims/Figures/84-J-0-2.bmp","pa:pa:ka","Left","37","4","1","4","P","C","49"
"","","approach-retreat","53","405206","0.0-53.0","","","1-5","4844","40","1","Training","Stims/Figures/93-C-30-1.bmp","malana","Up","40","4","2","4","S","C","50"
"","","approach-retreat","54","411396","0.0-54.0","","","1-5","4684","39","1","Training","Stims/Figures/19-J-10-4.bmp","ta:kaka","Right","39","4","3","4","P","C","51"
"","","approach-retreat","55","417317","0.0-55.0","","","1-5","4414","39","1","Training","Stims/Figures/93-J-0-1.bmp","tapa:ta","Right","39","4","4","4","P","C","52"
"","","approach-retreat","56","423984","0.0-56.0","","","1-5","5162","40","1","Training","Stims/Figures/27-J-0-1.bmp","paka:ta","Down","40","4","5","4","P","C","53"
"","","approach-retreat","57","432440","0.0-57.0","","","1-5","6950","39","1","Training","Stims/Figures/85-C-20-2.bmp","ma:ma:na","Left","39","4","6","4","S","C","54"
"","","approach-retreat","58","438980","0.0-58.0","","","1-5","5037","38","1","Training","Stims/Figures/84-C-20-2.bmp","na:ma:la","Down","38","4","7","4","S","C","55"
"","","approach-retreat","59","445049","0.0-59.0","","","1-5","4565","38","1","Training","Stims/Figures/44-J-10-3.bmp","pa:kaka","Up","38","4","8","4","P","C","56"
"","","approach-retreat","60","451914","0.0-60.0","","","1-5","5361","38","1","Training","Stims/Figures/144-C-30-3.bmp","namala","Down","38","4","9","4","S","C","57"
"","","approach-retreat","61","458804","0.0-61.0","","","1-5","5385","37","1","Training","Stims/Figures/44-C-30-3.bmp","na:mana","Right","37","4","10","4","S","C","58"
"","","approach-retreat","62","464695","0.0-62.0","","","1-5","4384","39","1","Training","Stims/Figures/27-C-30-1.bmp","mala:na","Left","39","4","11","4","S","C","59"
"","","approach-retreat","63","470915","0.0-63.0","","","1-5","4716","38","1","Training","Stims/Figures/144-J-10-3.bmp","pa:ka:ta","Up","38","4","12","4","P","C","60"
"","","approach-retreat","64","478445","0.0-64.0","","","1-5","6024","38","1","Training","Stims/Figures/74-C-20-4.bmp","nama:na","Down","38","4","13","4","S","C","61"
"","","approach-retreat","65","484664","0.0-65.0","","","1-5","4713","39","1","Training","Stims/Figures/74-J-10-4.bmp","ta:pata","Right","39","4","14","4","P","C","62"
"","","approach-retreat","66","490882","0.0-66.0","","","1-5","4712","37","1","Training","Stims/Figures/85-J-0-2.bmp","ta:ka:ta","Left","37","4","15","4","P","C","63"
"","","approach-retreat","67","497909","0.0-67.0","","","1-5","5520","40","1","Training","Stims/Figures/19-C-20-4.bmp","mama:na","Up","40","4","16","4","S","C","64"
"","","approach-retreat","68","503937","0.0-68.0","","","1-5","4524","38","1","Training","Stims/Figures/44-C-30-3.bmp","na:mana","Down","38","5","1","4","S","C","65"
"","","approach-retreat","69","510077","0.0-69.0","","","1-5","4633","38","1","Training","Stims/Figures/74-J-10-4.bmp","ta:pata","Up","38","5","2","4","P","C","66"
"","","approach-retreat","70","516053","0.0-70.0","","","1-5","4470","37","1","Training","Stims/Figures/84-J-0-2.bmp","pa:pa:ka","Left","37","5","3","4","P","C","67"
"","","approach-retreat","71","522820","0.0-71.0","","","1-5","5262","39","1","Training","Stims/Figures/144-J-10-3.bmp","pa:ka:ta","Right","39","5","4","4","P","C","68"
"","","approach-retreat","72","529382","0.0-72.0","","","1-5","5055","40","1","Training","Stims/Figures/93-J-0-1.bmp","tapa:ta","Down","40","5","5","4","P","C","69"
"","","approach-retreat","73","535192","0.0-73.0","","","1-5","4305","38","1","Training","Stims/Figures/44-J-10-3.bmp","pa:kaka","Up","38","5","6","4","P","C","70"
"","","approach-retreat","74","542158","0.0-74.0","","","1-5","5461","37","1","Training","Stims/Figures/27-J-0-1.bmp","paka:ta","Left","37","5","7","4","P","C","71"
"","","approach-retreat","75","549065","0.0-75.0","","","1-5","5402","40","1","Training","Stims/Figures/84-C-20-2.bmp","na:ma:la","Up","40","5","8","4","S","C","72"
"","","approach-retreat","76","555893","0.0-76.0","","","1-5","5322","40","1","Training","Stims/Figures/19-J-10-4.bmp","ta:kaka","Down","40","5","9","4","P","C","73"
"","","approach-retreat","77","562656","0.0-77.0","","","1-5","5258","40","1","Training","Stims/Figures/93-C-30-1.bmp","malana","Up","40","5","10","4","S","C","74"
"","","approach-retreat","78","571428","0.0-78.0","","","1-5","7266","38","1","Training","Stims/Figures/74-C-20-4.bmp","nama:na","Down","38","5","11","4","S","C","75"
"","","approach-retreat","79","577994","0.0-79.0","","","1-5","5060","39","1","Training","Stims/Figures/85-J-0-2.bmp","ta:ka:ta","Right","39","5","12","4","P","C","76"
"","","approach-retreat","80","584961","0.0-80.0","","","1-5","5462","39","1","Training","Stims/Figures/85-C-20-2.bmp","ma:ma:na","Left","39","5","13","4","S","C","77"
"","","approach-retreat","81","591112","0.0-81.0","","","1-5","4647","37","1","Training","Stims/Figures/27-C-30-1.bmp","mala:na","Right","37","5","14","4","S","C","78"
"","","approach-retreat","82","597099","0.0-82.0","","","1-5","4479","37","1","Training","Stims/Figures/19-C-20-4.bmp","mama:na","Right","37","5","15","4","S","C","79"
"","","approach-retreat","83","602909","0.0-83.0","","","1-5","4306","39","1","Training","Stims/Figures/144-C-30-3.bmp","namala","Left","39","5","16","4","S","C","80"
"","","approach-retreat","84","608988","0.0-84.0","","","1-5","4573","38","1","Training","Stims/Figures/84-J-0-2.bmp","pa:pa:ka","Up","38","6","1","4","P","C","81"
"","","approach-retreat","85","615771","0.0-85.0","","","1-5","5273","37","1","Training","Stims/Figures/85-J-0-2.bmp","ta:ka:ta","Left","37","6","2","4","P","C","82"
"","","approach-retreat","86","621913","0.0-86.0","","","1-5","4634","40","1","Training","Stims/Figures/27-J-0-1.bmp","paka:ta","Down","40","6","3","4","P","C","83"
"","","approach-retreat","87","627937","0.0-87.0","","","1-5","4516","38","1","Training","Stims/Figures/27-C-30-1.bmp","mala:na","Down","38","6","4","4","S","C","84"
"","","approach-retreat","88","634798","0.0-88.0","","","1-5","5356","40","1","Training","Stims/Figures/19-C-20-4.bmp","mama:na","Up","40","6","5","4","S","C","85"
"","","approach-retreat","89","641421","0.0-89.0","","","1-5","5119","37","1","Training","Stims/Figures/74-C-20-4.bmp","nama:na","Right","37","6","6","4","S","C","86"
"","","approach-retreat","90","648847","0.0-90.0","","","1-5","5919","38","1","Training","Stims/Figures/93-C-30-1.bmp","malana","Down","38","6","7","4","S","C","87"
"","","approach-retreat","91","654863","0.0-91.0","","","1-5","4511","38","1","Training","Stims/Figures/44-C-30-3.bmp","na:mana","Down","38","6","8","4","S","C","88"
"","","approach-retreat","92","661843","0.0-92.0","","","1-5","5477","37","1","Training","Stims/Figures/74-J-10-4.bmp","ta:pata","Left","37","6","9","4","P","C","89"
"","","approach-retreat","93","667673","0.0-93.0","","","1-5","4327","38","1","Training","Stims/Figures/93-J-0-1.bmp","tapa:ta","Up","38","6","10","4","P","C","90"
"","","approach-retreat","94","673844","0.0-94.0","","","1-5","4665","39","1","Training","Stims/Figures/44-J-10-3.bmp","pa:kaka","Right","39","6","11","4","P","C","91"
"","","approach-retreat","95","680049","0.0-95.0","","","1-5","4698","39","1","Training","Stims/Figures/144-J-10-3.bmp","pa:ka:ta","Right","39","6","12","4","P","C","92"
"","","approach-retreat","96","686210","0.0-96.0","","","1-5","4656","39","1","Training","Stims/Figures/85-C-20-2.bmp","ma:ma:na","Left","39","6","13","4","S","C","93"
"","","approach-retreat","97","694160","0.0-97.0","","","1-5","6440","38","1","Training","Stims/Figures/19-J-10-4.bmp","ta:kaka","Up","38","6","14","4","P","C","94"
"","","approach-retreat","98","700091","0.0-98.0","","","1-5","4426","39","1","Training","Stims/Figures/84-C-20-2.bmp","na:ma:la","Left","39","6","15","4","S","C","95"
"","","approach-retreat","99","706060","0.0-99.0","","","1-5","4462","37","1","Training","Stims/Figures/144-C-30-3.bmp","namala","Right","37","6","16","4","S","C","96"
"","","approach-retreat","100","712321","0.0-100.0","","","1-5","4752","38","1","Training","Stims/Figures/19-J-10-4.bmp","ta:kaka","Up","38","7","1","4","P","C","97"
"","","approach-retreat","101","718502","0.0-101.0","","","1-5","4677","40","1","Training","Stims/Figures/84-J-0-2.bmp","pa:pa:ka","Down","40","7","2","4","P","C","98"
"","","approach-retreat","102","724509","0.0-102.0","","","1-5","4502","37","1","Training","Stims/Figures/84-C-20-2.bmp","na:ma:la","Right","37","7","3","4","S","C","99"
"","","approach-retreat","103","731102","0.0-103.0","","","1-5","5088","38","1","Training","Stims/Figures/144-C-30-3.bmp","namala","Down","38","7","4","4","S","C","100"
"","","approach-retreat","104","737192","0.0-104.0","","","1-5","4582","39","1","Training","Stims/Figures/93-C-30-1.bmp","malana","Left","39","7","5","4","S","C","101"
"","","approach-retreat","105","743055","0.0-105.0","","","1-5","4358","38","1","Training","Stims/Figures/85-C-20-2.bmp","ma:ma:na","Down","38","7","6","4","S","C","102"
"","","approach-retreat","106","749320","0.0-106.0","","","1-5","4760","37","1","Training","Stims/Figures/44-C-30-3.bmp","na:mana","Right","37","7","7","4","S","C","103"
"","","approach-retreat","107","755766","0.0-107.0","","","1-5","4940","37","1","Training","Stims/Figures/19-C-20-4.bmp","mama:na","Right","37","7","8","4","S","C","104"
"","","approach-retreat","108","761908","0.0-108.0","","","1-5","4636","38","1","Training","Stims/Figures/93-J-0-1.bmp","tapa:ta","Up","38","7","9","4","P","C","105"
"","","approach-retreat","109","768041","0.0-109.0","","","1-5","4629","40","1","Training","Stims/Figures/74-C-20-4.bmp","nama:na","Up","40","7","10","4","S","C","106"
"","","approach-retreat","110","774185","0.0-110.0","","","1-5","4636","37","1","Training","Stims/Figures/27-C-30-1.bmp","mala:na","Right","37","7","11","4","S","C","107"
"","","approach-retreat","111","780508","0.0-111.0","","","1-5","4819","38","1","Training","Stims/Figures/144-J-10-3.bmp","pa:ka:ta","Up","38","7","12","4","P","C","108"
"","","approach-retreat","112","786605","0.0-112.0","","","1-5","4592","37","1","Training","Stims/Figures/85-J-0-2.bmp","ta:ka:ta","Left","37","7","13","4","P","C","109"
"","","approach-retreat","113","793036","0.0-113.0","","","1-5","4926","40","1","Training","Stims/Figures/44-J-10-3.bmp","pa:kaka","Down","40","7","14","4","P","C","110"
"","","approach-retreat","114","798756","0.0-114.0","","","1-5","4212","37","1","Training","Stims/Figures/27-J-0-1.bmp","paka:ta","Left","37","7","15","4","P","C","111"
"","","approach-retreat","115","806269","0.0-115.0","","","1-5","6002","37","1","Training","Stims/Figures/74-J-10-4.bmp","ta:pata","Left","37","7","16","4","P","C","112"
"","","approach-retreat","116","812398","0.0-116.0","","","1-5","4624","40","1","Training","Stims/Figures/27-C-30-1.bmp","mala:na","Up","40","8","1","4","S","C","113"
"","","approach-retreat","117","818612","0.0-117.0","","","1-5","4710","37","1","Training","Stims/Figures/85-C-20-2.bmp","ma:ma:na","Right","37","8","2","4","S","C","114"
"","","approach-retreat","118","824171","0.0-118.0","","","1-5","4054","37","1","Training","Stims/Figures/144-C-30-3.bmp","namala","Right","37","8","3","4","S","C","115"
"","","approach-retreat","119","830583","0.0-119.0","","","1-5","4906","38","1","Training","Stims/Figures/74-J-10-4.bmp","ta:pata","Up","38","8","4","4","P","C","116"
"","","approach-retreat","120","836668","0.0-120.0","","","1-5","4582","38","1","Training","Stims/Figures/84-J-0-2.bmp","pa:pa:ka","Up","38","8","5","4","P","C","117"
"","","approach-retreat","121","842709","0.0-121.0","","","1-5","4536","37","1","Training","Stims/Figures/44-C-30-3.bmp","na:mana","Right","37","8","6","4","S","C","118"
"","","approach-retreat","122","848629","0.0-122.0","","","1-5","4416","38","1","Training","Stims/Figures/93-C-30-1.bmp","malana","Down","38","8","7","4","S","C","119"
"","","approach-retreat","123","856052","0.0-123.0","","","1-5","5918","39","1","Training","Stims/Figures/19-J-10-4.bmp","ta:kaka","Right","39","8","8","4","P","C","120"
"","","approach-retreat","124","862006","0.0-124.0","","","1-5","4450","38","1","Training","Stims/Figures/84-C-20-2.bmp","na:ma:la","Down","38","8","9","4","S","C","121"
"","","approach-retreat","125","868994","0.0-125.0","","","1-5","5482","37","1","Training","Stims/Figures/93-J-0-1.bmp","tapa:ta","Left","37","8","10","4","P","C","122"
"","","approach-retreat","126","874643","0.0-126.0","","","1-5","4144","37","1","Training","Stims/Figures/27-J-0-1.bmp","paka:ta","Left","37","8","11","4","P","C","123"
"","","approach-retreat","127","880624","0.0-127.0","","","1-5","4475","37","1","Training","Stims/Figures/144-J-10-3.bmp","pa:ka:ta","Left","37","8","12","4","P","C","124"
"","","approach-retreat","128","886664","0.0-128.0","","","1-5","4535","40","1","Training","Stims/Figures/19-C-20-4.bmp","mama:na","Up","40","8","13","4","S","C","125"
"","","approach-retreat","129","892314","0.0-129.0","","","1-5","4147","37","1","Training","Stims/Figures/85-J-0-2.bmp","ta:ka:ta","Left","37","8","14","4","P","C","126"
"","","approach-retreat","130","898345","0.0-130.0","","","1-5","4527","40","1","Training","Stims/Figures/44-J-10-3.bmp","pa:kaka","Down","40","8","15","4","P","C","127"
"","","approach-retreat","131","904465","0.0-131.0","","","1-5","4614","38","1","Training","Stims/Figures/74-C-20-4.bmp","nama:na","Down","38","8","16","4","S","C","128"
"","","approach-retreat","132","910826","0.0-132.0","","","1-5","4854","40","1","Training","Stims/Figures/93-C-30-1.bmp","malana","Up","40","9","1","4","S","C","129"
"","","approach-retreat","133","916788","0.0-133.0","","","1-5","4457","40","1","Training","Stims/Figures/19-J-10-4.bmp","ta:kaka","Down","40","9","2","4","P","C","130"
"","","approach-retreat","134","922813","0.0-134.0","","","1-5","4521","38","1","Training","Stims/Figures/93-J-0-1.bmp","tapa:ta","Up","38","9","3","4","P","C","131"
"","","approach-retreat","135","928571","0.0-135.0","","","1-5","4252","37","1","Training","Stims/Figures/144-C-30-3.bmp","namala","Right","37","9","4","4","S","C","132"
"","","approach-retreat","136","934991","0.0-136.0","","","1-5","4916","39","1","Training","Stims/Figures/27-J-0-1.bmp","paka:ta","Right","39","9","5","4","P","C","133"
"","","approach-retreat","137","941356","0.0-137.0","","","1-5","4861","40","1","Training","Stims/Figures/44-J-10-3.bmp","pa:kaka","Down","40","9","6","4","P","C","134"
"","","approach-retreat","138","947322","0.0-138.0","","","1-5","4460","39","1","Training","Stims/Figures/84-C-20-2.bmp","na:ma:la","Left","39","9","7","4","S","C","135"
"","","approach-retreat","139","953212","0.0-139.0","","","1-5","4386","40","1","Training","Stims/Figures/74-C-20-4.bmp","nama:na","Up","40","9","8","4","S","C","136"
"","","approach-retreat","140","960049","0.0-140.0","","","1-5","5331","38","1","Training","Stims/Figures/74-J-10-4.bmp","ta:pata","Up","38","9","9","4","P","C","137"
"","","approach-retreat","141","966036","0.0-141.0","","","1-5","4483","39","1","Training","Stims/Figures/84-J-0-2.bmp","pa:pa:ka","Right","39","9","10","4","P","C","138"
"","","approach-retreat","142","972511","0.0-142.0","","","1-5","4967","39","1","Training","Stims/Figures/85-J-0-2.bmp","ta:ka:ta","Right","39","9","11","4","P","C","139"
"","","approach-retreat","143","979237","0.0-143.0","","","1-5","5221","38","1","Training","Stims/Figures/85-C-20-2.bmp","ma:ma:na","Down","38","9","12","4","S","C","140"
"","","approach-retreat","144","985638","0.0-144.0","","","1-5","4897","39","1","Training","Stims/Figures/19-C-20-4.bmp","mama:na","Left","39","9","13","4","S","C","141"
"","","approach-retreat","145","992238","0.0-145.0","","","1-5","5095","39","1","Training","Stims/Figures/27-C-30-1.bmp","mala:na","Left","39","9","14","4","S","C","142"
"","","approach-retreat","146","998350","0.0-146.0","","","1-5","4607","40","1","Training","Stims/Figures/144-J-10-3.bmp","pa:ka:ta","Down","40","9","15","4","P","C","143"
"","","approach-retreat","147","1004439","0.0-147.0","","","1-5","4584","39","1","Training","Stims/Figures/44-C-30-3.bmp","na:mana","Left","39","9","16","4","S","C","144"
"5054","","instructions","148","1009495","0.0-148.0","[{""page_index"":0,""viewing_time"":5054}]","","","","","","","","","","","","","","","",""
"","","approach-retreat","149","1018509","0.0-149.0","","","1-5","7510","38","1","Testing","Stims/Figures/85-C-20-2.bmp","ma:ma:na","Down","38","1","1","4","S","C","1"
"","","approach-retreat","150","1026787","0.0-150.0","","","1-5","6763","39","1","Testing","Stims/Figures/44-C-30-3.bmp","na:mana","Left","39","1","2","4","S","C","2"
"","","approach-retreat","151","1037299","0.0-151.0","","","1-5","9007","39","1","Testing","Stims/Figures/19-C-20-4.bmp","mama:na","Left","39","1","3","4","S","C","3"
"","","approach-retreat","152","1043406","0.0-152.0","","","1-5","4604","39","1","Testing","Stims/Figures/57-C-30-1.bmp","na:ma:na","Left","39","1","4","4","S","C","4"
"","","approach-retreat","153","1049321","0.0-153.0","","","1-5","4403","39","1","Testing","Stims/Figures/111-J-10-3.bmp","takata","Right","39","1","5","4","P","C","5"
"","","approach-retreat","154","1055077","0.0-154.0","","","1-5","4242","37","1","Testing","Stims/Figures/144-J-10-3.bmp","pa:ka:ta","Left","37","1","6","4","P","C","6"
"","","approach-retreat","155","1064646","0.0-155.0","","","1-5","8051","40","1","Testing","Stims/Figures/74-J-10-4.bmp","ta:pata","Down","40","1","7","4","P","C","7"
"","","approach-retreat","156","1071953","0.0-156.0","","","1-5","5797","40","1","Testing","Stims/Figures/27-C-30-1.bmp","mala:na","Up","40","1","8","4","S","C","8"
"","","approach-retreat","157","1078134","0.0-157.0","","","1-5","4668","39","1","Testing","Stims/Figures/111-C-30-3.bmp","malala","Left","39","1","9","4","S","C","9"
"","","approach-retreat","158","1084677","0.0-158.0","","","1-5","5029","37","1","Testing","Stims/Figures/93-C-30-1.bmp","malana","Right","37","1","10","4","S","C","10"
"","","approach-retreat","159","1090554","0.0-159.0","","","1-5","4368","38","1","Testing","Stims/Figures/84-J-0-2.bmp","pa:pa:ka","Up","38","1","11","4","P","C","11"
"","","approach-retreat","160","1099113","0.0-160.0","","","1-5","7044","39","1","Testing","Stims/Figures/94-C-20-2.bmp","ma:mana","Left","39","1","12","4","S","C","12"
"","","approach-retreat","161","1110300","0.0-161.0","","","1-5","9673","40","1","Testing","Stims/Figures/144-C-30-3.bmp","namala","Up","40","1","13","4","S","C","13"
"","","approach-retreat","162","1125110","0.0-162.0","","","1-5","13293","38","1","Testing","Stims/Figures/7-C-20-4.bmp","na:lana","Down","38","1","14","4","S","C","14"
"","","approach-retreat","163","1131175","0.0-163.0","","","1-5","4549","38","0","Testing","Stims/Figures/74-C-20-4.bmp","nama:na","Up","40","1","15","4","S","C","15"
"","","approach-retreat","164","1163126","0.0-164.0","","","1-5","30439","40","0","Testing","Stims/Figures/84-C-20-2.bmp","na:ma:la","Down","38","1","16","4","S","C","16"
"","","approach-retreat","165","1169113","0.0-165.0","","","1-5","4477","39","1","Testing","Stims/Figures/19-J-10-4.bmp","ta:kaka","Right","39","1","17","4","P","C","17"
"","","approach-retreat","166","1174977","0.0-166.0","","","1-5","4361","40","1","Testing","Stims/Figures/94-J-0-2.bmp","takaka","Down","40","1","18","4","P","C","18"
"","","approach-retreat","167","1181024","0.0-167.0","","","1-5","4543","40","1","Testing","Stims/Figures/57-J-0-1.bmp","tapa:ka","Down","40","1","19","4","P","C","19"
"","","approach-retreat","168","1186804","0.0-168.0","","","1-5","4274","39","1","Testing","Stims/Figures/27-J-0-1.bmp","paka:ta","Right","39","1","20","4","P","C","20"
"","","approach-retreat","169","1192728","0.0-169.0","","","1-5","4419","39","1","Testing","Stims/Figures/44-J-10-3.bmp","pa:kaka","Right","39","1","21","4","P","C","21"
"","","approach-retreat","170","1201063","0.0-170.0","","","1-5","6824","38","1","Testing","Stims/Figures/7-J-10-4.bmp","paka:ka","Up","38","1","22","4","P","C","22"
"","","approach-retreat","171","1206794","0.0-171.0","","","1-5","4214","38","1","Testing","Stims/Figures/85-J-0-2.bmp","ta:ka:ta","Up","38","1","23","4","P","C","23"
"","","approach-retreat","172","1212997","0.0-172.0","","","1-5","4691","39","1","Testing","Stims/Figures/93-J-0-1.bmp","tapa:ta","Right","39","1","24","4","P","C","24"
"","","approach-retreat","173","1218903","0.0-173.0","","","1-5","4403","40","1","Testing","Stims/Figures/85-J-0-2.bmp","ta:ka:ta","Down","40","2","1","4","P","C","25"
"","","approach-retreat","174","1226403","0.0-174.0","","","1-5","5993","39","1","Testing","Stims/Figures/93-J-0-1.bmp","tapa:ta","Right","39","2","2","4","P","C","26"
"","","approach-retreat","175","1232098","0.0-175.0","","","1-5","4189","39","1","Testing","Stims/Figures/27-J-0-1.bmp","paka:ta","Right","39","2","3","4","P","C","27"
"","","approach-retreat","176","1238175","0.0-176.0","","","1-5","4565","37","1","Testing","Stims/Figures/44-C-30-3.bmp","na:mana","Right","37","2","4","4","S","C","28"
"","","approach-retreat","177","1245155","0.0-177.0","","","1-5","5465","37","1","Testing","Stims/Figures/7-J-10-4.bmp","paka:ka","Left","37","2","5","4","P","C","29"
"","","approach-retreat","178","1254790","0.0-178.0","","","1-5","8120","39","1","Testing","Stims/Figures/57-C-30-1.bmp","na:ma:na","Left","39","2","6","4","S","C","30"
"","","approach-retreat","179","1266170","0.0-179.0","","","1-5","9868","40","1","Testing","Stims/Figures/19-J-10-4.bmp","ta:kaka","Down","40","2","7","4","P","C","31"
"","","approach-retreat","180","1272510","0.0-180.0","","","1-5","4824","40","1","Testing","Stims/Figures/74-J-10-4.bmp","ta:pata","Down","40","2","8","4","P","C","32"
"","","approach-retreat","181","1280080","0.0-181.0","","","1-5","6059","37","1","Testing","Stims/Figures/85-C-20-2.bmp","ma:ma:na","Right","37","2","9","4","S","C","33"
"","","approach-retreat","182","1288144","0.0-182.0","","","1-5","6549","40","1","Testing","Stims/Figures/7-C-20-4.bmp","na:lana","Up","40","2","10","4","S","C","34"
"","","approach-retreat","183","1294134","0.0-183.0","","","1-5","4484","40","1","Testing","Stims/Figures/93-C-30-1.bmp","malana","Up","40","2","11","4","S","C","35"
"","","approach-retreat","184","1299920","0.0-184.0","","","1-5","4283","37","1","Testing","Stims/Figures/94-J-0-2.bmp","takaka","Left","37","2","12","4","P","C","36"
"","","approach-retreat","185","1309323","0.0-185.0","","","1-5","7897","38","1","Testing","Stims/Figures/111-J-10-3.bmp","takata","Up","38","2","13","4","P","C","37"
"","","approach-retreat","186","1315424","0.0-186.0","","","1-5","4587","40","1","Testing","Stims/Figures/44-J-10-3.bmp","pa:kaka","Down","40","2","14","4","P","C","38"
"","","approach-retreat","187","1327427","0.0-187.0","","","1-5","10492","39","0","Testing","Stims/Figures/84-C-20-2.bmp","na:ma:la","Right","37","2","15","4","S","C","39"
"","","approach-retreat","188","1334090","0.0-188.0","","","1-5","5159","40","1","Testing","Stims/Figures/111-C-30-3.bmp","malala","Up","40","2","16","4","S","C","40"
"","","approach-retreat","189","1340306","0.0-189.0","","","1-5","4708","40","1","Testing","Stims/Figures/94-C-20-2.bmp","ma:mana","Up","40","2","17","4","S","C","41"
"","","approach-retreat","190","1346209","0.0-190.0","","","1-5","4389","39","1","Testing","Stims/Figures/27-C-30-1.bmp","mala:na","Left","39","2","18","4","S","C","42"
"","","approach-retreat","191","1352304","0.0-191.0","","","1-5","4582","39","1","Testing","Stims/Figures/57-J-0-1.bmp","tapa:ka","Right","39","2","19","4","P","C","43"
"","","approach-retreat","192","1358183","0.0-192.0","","","1-5","4368","40","1","Testing","Stims/Figures/144-J-10-3.bmp","pa:ka:ta","Down","40","2","20","4","P","C","44"
"","","approach-retreat","193","1368139","0.0-193.0","","","1-5","8449","37","0","Testing","Stims/Figures/74-C-20-4.bmp","nama:na","Left","39","2","21","4","S","C","45"
"","","approach-retreat","194","1388337","0.0-194.0","","","1-5","18684","40","1","Testing","Stims/Figures/144-C-30-3.bmp","namala","Up","40","2","22","4","S","C","46"
"","","approach-retreat","195","1394781","0.0-195.0","","","1-5","4929","39","1","Testing","Stims/Figures/19-C-20-4.bmp","mama:na","Left","39","2","23","4","S","C","47"
"","","approach-retreat","196","1401563","0.0-196.0","","","1-5","5277","40","1","Testing","Stims/Figures/84-J-0-2.bmp","pa:pa:ka","Down","40","2","24","4","P","C","48"
"","","approach-retreat","197","1409594","0.0-197.0","","","1-5","6526","37","1","Testing","Stims/Figures/85-C-20-2.bmp","ma:ma:na","Right","37","3","1","4","S","C","49"
"","","approach-retreat","198","1418271","0.0-198.0","","","1-5","7175","37","0","Testing","Stims/Figures/84-C-20-2.bmp","na:ma:la","Left","39","3","2","4","S","C","50"
"","","approach-retreat","199","1424329","0.0-199.0","","","1-5","4553","39","1","Testing","Stims/Figures/94-J-0-2.bmp","takaka","Right","39","3","3","4","P","C","51"
"","","approach-retreat","200","1430243","0.0-200.0","","","1-5","4402","40","1","Testing","Stims/Figures/44-J-10-3.bmp","pa:kaka","Down","40","3","4","4","P","C","52"
"","","approach-retreat","201","1436581","0.0-201.0","","","1-5","4823","37","1","Testing","Stims/Figures/144-C-30-3.bmp","namala","Right","37","3","5","4","S","C","53"
"","","approach-retreat","202","1443325","0.0-202.0","","","1-5","5240","40","1","Testing","Stims/Figures/19-C-20-4.bmp","mama:na","Up","40","3","6","4","S","C","54"
"","","approach-retreat","203","1448937","0.0-203.0","","","1-5","4107","40","1","Testing","Stims/Figures/27-C-30-1.bmp","mala:na","Up","40","3","7","4","S","C","55"
"","","approach-retreat","204","1454472","0.0-204.0","","","1-5","4028","40","1","Testing","Stims/Figures/57-C-30-1.bmp","na:ma:na","Up","40","3","8","4","S","C","56"
"","","approach-retreat","205","1462183","0.0-205.0","","","1-5","6207","37","1","Testing","Stims/Figures/93-J-0-1.bmp","tapa:ta","Left","37","3","9","4","P","C","57"
"","","approach-retreat","206","1477721","0.0-206.0","","","1-5","14031","38","1","Testing","Stims/Figures/7-C-20-4.bmp","na:lana","Down","38","3","10","4","S","C","58"
"","","approach-retreat","207","1487779","0.0-207.0","","","1-5","8554","39","0","Testing","Stims/Figures/74-C-20-4.bmp","nama:na","Right","37","3","11","4","S","C","59"
"","","approach-retreat","208","1494631","0.0-208.0","","","1-5","5343","38","1","Testing","Stims/Figures/111-J-10-3.bmp","takata","Up","38","3","12","4","P","C","60"
"","","approach-retreat","209","1500660","0.0-209.0","","","1-5","4514","38","1","Testing","Stims/Figures/111-C-30-3.bmp","malala","Down","38","3","13","4","S","C","61"
"","","approach-retreat","210","1507568","0.0-210.0","","","1-5","5395","37","1","Testing","Stims/Figures/27-J-0-1.bmp","paka:ta","Left","37","3","14","4","P","C","62"
"","","approach-retreat","211","1514919","0.0-211.0","","","1-5","5837","37","1","Testing","Stims/Figures/85-J-0-2.bmp","ta:ka:ta","Left","37","3","15","4","P","C","63"
"","","approach-retreat","212","1523356","0.0-212.0","","","1-5","6929","38","0","Testing","Stims/Figures/19-J-10-4.bmp","ta:kaka","Down","40","3","16","4","P","C","64"
"","","approach-retreat","213","1529248","0.0-213.0","","","1-5","4377","38","1","Testing","Stims/Figures/94-C-20-2.bmp","ma:mana","Down","38","3","17","4","S","C","65"
"","","approach-retreat","214","1536803","0.0-214.0","","","1-5","6042","39","1","Testing","Stims/Figures/7-J-10-4.bmp","paka:ka","Right","39","3","18","4","P","C","66"
"","","approach-retreat","215","1542619","0.0-215.0","","","1-5","4301","40","1","Testing","Stims/Figures/93-C-30-1.bmp","malana","Up","40","3","19","4","S","C","67"
"","","approach-retreat","216","1548712","0.0-216.0","","","1-5","4581","40","1","Testing","Stims/Figures/74-J-10-4.bmp","ta:pata","Down","40","3","20","4","P","C","68"
"","","approach-retreat","217","1555698","0.0-217.0","","","1-5","5478","39","1","Testing","Stims/Figures/144-J-10-3.bmp","pa:ka:ta","Right","39","3","21","4","P","C","69"
"","","approach-retreat","218","1564147","0.0-218.0","","","1-5","6943","37","1","Testing","Stims/Figures/57-J-0-1.bmp","tapa:ka","Left","37","3","22","4","P","C","70"
"","","approach-retreat","219","1571579","0.0-219.0","","","1-5","5918","40","1","Testing","Stims/Figures/44-C-30-3.bmp","na:mana","Up","40","3","23","4","S","C","71"
"","","approach-retreat","220","1577139","0.0-220.0","","","1-5","4049","37","1","Testing","Stims/Figures/84-J-0-2.bmp","pa:pa:ka","Left","37","3","24","4","P","C","72"
"","","approach-retreat","221","1596804","0.0-221.0","","","1-5","18160","37","1","Testing","Stims/Figures/85-C-20-2.bmp","ma:ma:na","Right","37","4","1","4","S","C","73"
"","","approach-retreat","222","1604122","0.0-222.0","","","1-5","5812","38","1","Testing","Stims/Figures/57-C-30-1.bmp","na:ma:na","Down","38","4","2","4","S","C","74"
"","","approach-retreat","223","1609776","0.0-223.0","","","1-5","4149","39","1","Testing","Stims/Figures/7-J-10-4.bmp","paka:ka","Right","39","4","3","4","P","C","75"
"","","approach-retreat","224","1616769","0.0-224.0","","","1-5","5486","40","1","Testing","Stims/Figures/19-C-20-4.bmp","mama:na","Up","40","4","4","4","S","C","76"
"","","approach-retreat","225","1622727","0.0-225.0","","","1-5","4452","39","0","Testing","Stims/Figures/84-C-20-2.bmp","na:ma:la","Right","37","4","5","4","S","C","77"
"","","approach-retreat","226","1628982","0.0-226.0","","","1-5","4745","38","1","Testing","Stims/Figures/111-J-10-3.bmp","takata","Up","38","4","6","4","P","C","78"
"","","approach-retreat","227","1635122","0.0-227.0","","","1-5","4627","37","1","Testing","Stims/Figures/57-J-0-1.bmp","tapa:ka","Left","37","4","7","4","P","C","79"
"","","approach-retreat","228","1641292","0.0-228.0","","","1-5","4666","40","1","Testing","Stims/Figures/27-J-0-1.bmp","paka:ta","Down","40","4","8","4","P","C","80"
"","","approach-retreat","229","1648766","0.0-229.0","","","1-5","5964","40","1","Testing","Stims/Figures/19-J-10-4.bmp","ta:kaka","Down","40","4","9","4","P","C","81"
"","","approach-retreat","230","1654549","0.0-230.0","","","1-5","4271","37","1","Testing","Stims/Figures/44-J-10-3.bmp","pa:kaka","Left","37","4","10","4","P","C","82"
"","","approach-retreat","231","1660508","0.0-231.0","","","1-5","4451","38","1","Testing","Stims/Figures/74-J-10-4.bmp","ta:pata","Up","38","4","11","4","P","C","83"
"","","approach-retreat","232","1666179","0.0-232.0","","","1-5","4156","37","1","Testing","Stims/Figures/93-J-0-1.bmp","tapa:ta","Left","37","4","12","4","P","C","84"
"","","approach-retreat","233","1672147","0.0-233.0","","","1-5","4455","38","1","Testing","Stims/Figures/144-J-10-3.bmp","pa:ka:ta","Up","38","4","13","4","P","C","85"
"","","approach-retreat","234","1678010","0.0-234.0","","","1-5","4352","40","1","Testing","Stims/Figures/111-C-30-3.bmp","malala","Up","40","4","14","4","S","C","86"
"","","approach-retreat","235","1683973","0.0-235.0","","","1-5","4448","37","1","Testing","Stims/Figures/94-C-20-2.bmp","ma:mana","Right","37","4","15","4","S","C","87"
"","","approach-retreat","236","1690390","0.0-236.0","","","1-5","4904","39","1","Testing","Stims/Figures/84-J-0-2.bmp","pa:pa:ka","Right","39","4","16","4","P","C","88"
"","","approach-retreat","237","1696932","0.0-237.0","","","1-5","5028","40","1","Testing","Stims/Figures/93-C-30-1.bmp","malana","Up","40","4","17","4","S","C","89"
"","","approach-retreat","238","1705456","0.0-238.0","","","1-5","7021","40","1","Testing","Stims/Figures/85-J-0-2.bmp","ta:ka:ta","Down","40","4","18","4","P","C","90"
"","","approach-retreat","239","1713220","0.0-239.0","","","1-5","6248","39","1","Testing","Stims/Figures/7-C-20-4.bmp","na:lana","Left","39","4","19","4","S","C","91"
"","","approach-retreat","240","1722785","0.0-240.0","","","1-5","8055","38","1","Testing","Stims/Figures/144-C-30-3.bmp","namala","Down","38","4","20","4","S","C","92"
"","","approach-retreat","241","1731958","0.0-241.0","","","1-5","7659","39","1","Testing","Stims/Figures/27-C-30-1.bmp","mala:na","Left","39","4","21","4","S","C","93"
"","","approach-retreat","242","1748427","0.0-242.0","","","1-5","14958","39","0","Testing","Stims/Figures/74-C-20-4.bmp","nama:na","Right","37","4","22","4","S","C","94"
"","","approach-retreat","243","1754607","0.0-243.0","","","1-5","4676","37","1","Testing","Stims/Figures/94-J-0-2.bmp","takaka","Left","37","4","23","4","P","C","95"
"","","approach-retreat","244","1762083","0.0-244.0","","","1-5","5969","38","1","Testing","Stims/Figures/44-C-30-3.bmp","na:mana","Down","38","4","24","4","S","C","96"
"17307","","survey-text","245","1779399","0.0-245.0","","{""Q0"":""0083/2018""}","","","","","","","","","","","","","","",""
