"rt","key_press","trial_type","trial_index","time_elapsed","internal_node_id","view_history","responses","Id","Rt","ResKeyCode","ResCorr","TrialType2","Image","Label","Location","CorrectResponse","Block","BlockTrial","Condition","LabelType","Subcondition","trialNum"
"365284","32","text","0","365296","0.0-0.0-0.0","","","","","","","","","","","","","","","","",""
"117203","","instructions","1","482510","0.0-1.0","[{""page_index"":0,""viewing_time"":117201}]","","","","","","","","","","","","","","","",""
"63129","","survey-multi-choice","2","545754","0.0-2.0","","{""Q0"":""Da"",""Q1"":""Da"",""Q2"":""Da"",""Q3"":""Da"",""Q4"":""Da"",""Q5"":""Da""}","","","","","","","","","","","","","","",""
"","","bio","3","561647","0.0-3.0","","{""age"":""19"",""gender"":""f"",""specify"":""""}","","","","","","","","","","","","","","",""
"","","approach-retreat","4","574898","0.0-4.0","","","1-1","11730","37","0","Training","Stims/Figures/27-C-30-1.bmp","pakaka","Right","39","1","1","5","P","J","1"
"","","approach-retreat","5","586537","0.0-5.0","","","1-1","10100","38","1","Training","Stims/Figures/144-J-10-3.bmp","nama:la","Down","38","1","2","5","S","J","2"
"","","approach-retreat","6","599721","0.0-6.0","","","1-1","11649","38","1","Training","Stims/Figures/84-J-0-2.bmp","ma:la:la","Down","38","1","3","5","S","J","3"
"","","approach-retreat","7","615982","0.0-7.0","","","1-1","14729","37","1","Training","Stims/Figures/7-J-10-4.bmp","nalala","Right","37","1","4","5","S","J","4"
"","","approach-retreat","8","646795","0.0-8.0","","","1-1","29286","37","0","Training","Stims/Figures/71-J-0-1.bmp","ma:la:na","Left","39","1","5","5","S","J","5"
"","","approach-retreat","9","653356","0.0-9.0","","","1-1","5031","37","0","Training","Stims/Figures/102-J-10-4.bmp","ma:ma:na","Left","39","1","6","5","S","J","6"
"","","approach-retreat","10","661428","0.0-10.0","","","1-1","6540","38","1","Training","Stims/Figures/71-C-30-1.bmp","taka:ka","Up","38","1","7","5","P","J","7"
"","","approach-retreat","11","668563","0.0-11.0","","","1-1","5600","38","1","Training","Stims/Figures/102-C-20-4.bmp","pa:pa:ta","Up","38","1","8","5","P","J","8"
"","","approach-retreat","12","680145","0.0-12.0","","","1-1","10045","37","1","Training","Stims/Figures/118-J-0-2.bmp","ma:lana","Right","37","1","9","5","S","J","9"
"","","approach-retreat","13","690317","0.0-13.0","","","1-1","8637","40","1","Training","Stims/Figures/100-C-30-3.bmp","pa:ka:ka","Down","40","1","10","5","P","J","10"
"","","approach-retreat","14","697516","0.0-14.0","","","1-1","5663","37","0","Training","Stims/Figures/100-J-10-3.bmp","na:mala","Left","39","1","11","5","S","J","11"
"","","approach-retreat","15","704254","0.0-15.0","","","1-1","5205","38","1","Training","Stims/Figures/118-C-20-2.bmp","ta:pa:ka","Up","38","1","12","5","P","J","12"
"","","approach-retreat","16","711500","0.0-16.0","","","1-1","5713","39","1","Training","Stims/Figures/7-C-20-4.bmp","pa:kaka","Right","39","1","13","5","P","J","13"
"","","approach-retreat","17","717512","0.0-17.0","","","1-1","4480","40","1","Training","Stims/Figures/144-C-30-3.bmp","tapa:ta","Down","40","1","14","5","P","J","14"
"","","approach-retreat","18","723507","0.0-18.0","","","1-1","4463","37","1","Training","Stims/Figures/84-C-20-2.bmp","ta:paka","Left","37","1","15","5","P","J","15"
"","","approach-retreat","19","729607","0.0-19.0","","","1-1","4565","38","0","Training","Stims/Figures/27-J-0-1.bmp","namala","Up","40","1","16","5","S","J","16"
"","","approach-retreat","20","735659","0.0-20.0","","","1-1","4507","38","0","Training","Stims/Figures/102-C-20-4.bmp","pa:pa:ta","Down","40","2","1","5","P","J","17"
"","","approach-retreat","21","741219","0.0-21.0","","","1-1","4025","40","0","Training","Stims/Figures/84-C-20-2.bmp","ta:paka","Up","38","2","2","5","P","J","18"
"","","approach-retreat","22","746884","0.0-22.0","","","1-1","4131","37","0","Training","Stims/Figures/102-J-10-4.bmp","ma:ma:na","Left","39","2","3","5","S","J","19"
"","","approach-retreat","23","752683","0.0-23.0","","","1-1","4265","38","0","Training","Stims/Figures/100-C-30-3.bmp","pa:ka:ka","Down","40","2","4","5","P","J","20"
"","","approach-retreat","24","760749","0.0-24.0","","","1-1","6532","37","0","Training","Stims/Figures/84-J-0-2.bmp","ma:la:la","Left","39","2","5","5","S","J","21"
"","","approach-retreat","25","766824","0.0-25.0","","","1-1","4538","38","0","Training","Stims/Figures/118-J-0-2.bmp","ma:lana","Up","40","2","6","5","S","J","22"
"","","approach-retreat","26","773396","0.0-26.0","","","1-1","5036","38","0","Training","Stims/Figures/118-C-20-2.bmp","ta:pa:ka","Down","40","2","7","5","P","J","23"
"","","approach-retreat","27","779736","0.0-27.0","","","1-1","4810","39","0","Training","Stims/Figures/100-J-10-3.bmp","na:mala","Right","37","2","8","5","S","J","24"
"","","approach-retreat","28","785537","0.0-28.0","","","1-1","4267","38","0","Training","Stims/Figures/7-J-10-4.bmp","nalala","Up","40","2","9","5","S","J","25"
"","","approach-retreat","29","792805","0.0-29.0","","","1-1","5734","39","1","Training","Stims/Figures/27-J-0-1.bmp","namala","Left","39","2","10","5","S","J","26"
"","","approach-retreat","30","799728","0.0-30.0","","","1-1","5389","39","0","Training","Stims/Figures/71-J-0-1.bmp","ma:la:na","Right","37","2","11","5","S","J","27"
"","","approach-retreat","31","805621","0.0-31.0","","","1-1","4360","39","1","Training","Stims/Figures/144-C-30-3.bmp","tapa:ta","Right","39","2","12","5","P","J","28"
"","","approach-retreat","32","814374","0.0-32.0","","","1-1","7219","40","0","Training","Stims/Figures/144-J-10-3.bmp","nama:la","Down","38","2","13","5","S","J","29"
"","","approach-retreat","33","820011","0.0-33.0","","","1-1","4101","39","0","Training","Stims/Figures/71-C-30-1.bmp","taka:ka","Left","37","2","14","5","P","J","30"
"","","approach-retreat","34","825894","0.0-34.0","","","1-1","4349","40","0","Training","Stims/Figures/27-C-30-1.bmp","pakaka","Up","38","2","15","5","P","J","31"
"","","approach-retreat","35","832167","0.0-35.0","","","1-1","4738","39","1","Training","Stims/Figures/7-C-20-4.bmp","pa:kaka","Right","39","2","16","5","P","J","32"
"","","approach-retreat","36","837928","0.0-36.0","","","1-1","4227","40","0","Training","Stims/Figures/27-C-30-1.bmp","pakaka","Up","38","3","1","5","P","J","33"
"","","approach-retreat","37","847138","0.0-37.0","","","1-1","7677","40","0","Training","Stims/Figures/27-J-0-1.bmp","namala","Down","38","3","2","5","S","J","34"
"","","approach-retreat","38","853002","0.0-38.0","","","1-1","4328","38","0","Training","Stims/Figures/84-C-20-2.bmp","ta:paka","Down","40","3","3","5","P","J","35"
"","","approach-retreat","39","859227","0.0-39.0","","","1-1","4691","38","0","Training","Stims/Figures/100-C-30-3.bmp","pa:ka:ka","Down","40","3","4","5","P","J","36"
"","","approach-retreat","40","865325","0.0-40.0","","","1-1","4565","37","1","Training","Stims/Figures/7-C-20-4.bmp","pa:kaka","Left","37","3","5","5","P","J","37"
"","","approach-retreat","41","870956","0.0-41.0","","","1-1","4097","37","1","Training","Stims/Figures/144-C-30-3.bmp","tapa:ta","Left","37","3","6","5","P","J","38"
"","","approach-retreat","42","877194","0.0-42.0","","","1-1","4717","37","1","Training","Stims/Figures/7-J-10-4.bmp","nalala","Right","37","3","7","5","S","J","39"
"","","approach-retreat","43","882890","0.0-43.0","","","1-1","4161","37","0","Training","Stims/Figures/84-J-0-2.bmp","ma:la:la","Left","39","3","8","5","S","J","40"
"","","approach-retreat","44","888697","0.0-44.0","","","1-1","4272","39","1","Training","Stims/Figures/71-C-30-1.bmp","taka:ka","Right","39","3","9","5","P","J","41"
"","","approach-retreat","45","894606","0.0-45.0","","","1-1","4375","40","1","Training","Stims/Figures/100-J-10-3.bmp","na:mala","Up","40","3","10","5","S","J","42"
"","","approach-retreat","46","900211","0.0-46.0","","","1-1","4072","40","1","Training","Stims/Figures/118-J-0-2.bmp","ma:lana","Up","40","3","11","5","S","J","43"
"","","approach-retreat","47","906178","0.0-47.0","","","1-1","4429","39","0","Training","Stims/Figures/102-J-10-4.bmp","ma:ma:na","Right","37","3","12","5","S","J","44"
"","","approach-retreat","48","912048","0.0-48.0","","","1-1","4337","39","1","Training","Stims/Figures/102-C-20-4.bmp","pa:pa:ta","Right","39","3","13","5","P","J","45"
"","","approach-retreat","49","917990","0.0-49.0","","","1-1","4408","40","1","Training","Stims/Figures/144-J-10-3.bmp","nama:la","Up","40","3","14","5","S","J","46"
"","","approach-retreat","50","923722","0.0-50.0","","","1-1","4199","37","1","Training","Stims/Figures/118-C-20-2.bmp","ta:pa:ka","Left","37","3","15","5","P","J","47"
"","","approach-retreat","51","929475","0.0-51.0","","","1-1","4221","40","0","Training","Stims/Figures/71-J-0-1.bmp","ma:la:na","Down","38","3","16","5","S","J","48"
"","","approach-retreat","52","935276","0.0-52.0","","","1-1","4266","37","0","Training","Stims/Figures/102-J-10-4.bmp","ma:ma:na","Left","39","4","1","5","S","J","49"
"","","approach-retreat","53","942547","0.0-53.0","","","1-1","5737","38","1","Training","Stims/Figures/100-J-10-3.bmp","na:mala","Down","38","4","2","5","S","J","50"
"","","approach-retreat","54","951595","0.0-54.0","","","1-1","7515","40","1","Training","Stims/Figures/118-C-20-2.bmp","ta:pa:ka","Down","40","4","3","5","P","J","51"
"","","approach-retreat","55","964370","0.0-55.0","","","1-1","11254","40","0","Training","Stims/Figures/71-C-30-1.bmp","taka:ka","Up","38","4","4","5","P","J","52"
"","","approach-retreat","56","970734","0.0-56.0","","","1-1","4834","39","1","Training","Stims/Figures/71-J-0-1.bmp","ma:la:na","Left","39","4","5","5","S","J","53"
"","","approach-retreat","57","976483","0.0-57.0","","","1-1","4217","37","0","Training","Stims/Figures/144-J-10-3.bmp","nama:la","Left","39","4","6","5","S","J","54"
"","","approach-retreat","58","982091","0.0-58.0","","","1-1","4074","40","0","Training","Stims/Figures/100-C-30-3.bmp","pa:ka:ka","Up","38","4","7","5","P","J","55"
"","","approach-retreat","59","988048","0.0-59.0","","","1-1","4424","38","1","Training","Stims/Figures/27-J-0-1.bmp","namala","Down","38","4","8","5","S","J","56"
"","","approach-retreat","60","993775","0.0-60.0","","","1-1","4195","37","1","Training","Stims/Figures/84-J-0-2.bmp","ma:la:la","Right","37","4","9","5","S","J","57"
"","","approach-retreat","61","1000505","0.0-61.0","","","1-1","5196","38","1","Training","Stims/Figures/27-C-30-1.bmp","pakaka","Up","38","4","10","5","P","J","58"
"","","approach-retreat","62","1006325","0.0-62.0","","","1-1","4286","37","0","Training","Stims/Figures/7-J-10-4.bmp","nalala","Left","39","4","11","5","S","J","59"
"","","approach-retreat","63","1012979","0.0-63.0","","","1-1","5119","39","1","Training","Stims/Figures/144-C-30-3.bmp","tapa:ta","Right","39","4","12","5","P","J","60"
"","","approach-retreat","64","1019348","0.0-64.0","","","1-1","4835","40","0","Training","Stims/Figures/102-C-20-4.bmp","pa:pa:ta","Up","38","4","13","5","P","J","61"
"","","approach-retreat","65","1026713","0.0-65.0","","","1-1","5830","39","1","Training","Stims/Figures/7-C-20-4.bmp","pa:kaka","Right","39","4","14","5","P","J","62"
"","","approach-retreat","66","1032632","0.0-66.0","","","1-1","4386","40","1","Training","Stims/Figures/84-C-20-2.bmp","ta:paka","Down","40","4","15","5","P","J","63"
"","","approach-retreat","67","1038562","0.0-67.0","","","1-1","4415","39","0","Training","Stims/Figures/118-J-0-2.bmp","ma:lana","Right","37","4","16","5","S","J","64"
"","","approach-retreat","68","1044407","0.0-68.0","","","1-1","4310","37","1","Training","Stims/Figures/118-C-20-2.bmp","ta:pa:ka","Left","37","5","1","5","P","J","65"
"","","approach-retreat","69","1049986","0.0-69.0","","","1-1","4047","40","1","Training","Stims/Figures/100-C-30-3.bmp","pa:ka:ka","Down","40","5","2","5","P","J","66"
"","","approach-retreat","70","1055714","0.0-70.0","","","1-1","4192","40","0","Training","Stims/Figures/144-J-10-3.bmp","nama:la","Down","38","5","3","5","S","J","67"
"","","approach-retreat","71","1061306","0.0-71.0","","","1-1","4073","40","0","Training","Stims/Figures/7-J-10-4.bmp","nalala","Down","38","5","4","5","S","J","68"
"","","approach-retreat","72","1067144","0.0-72.0","","","1-1","4312","40","1","Training","Stims/Figures/84-J-0-2.bmp","ma:la:la","Up","40","5","5","5","S","J","69"
"","","approach-retreat","73","1073630","0.0-73.0","","","1-1","4953","38","1","Training","Stims/Figures/102-J-10-4.bmp","ma:ma:na","Down","38","5","6","5","S","J","70"
"","","approach-retreat","74","1078724","0.0-74.0","","","1-1","3559","37","1","Training","Stims/Figures/7-C-20-4.bmp","pa:kaka","Left","37","5","7","5","P","J","71"
"","","approach-retreat","75","1085257","0.0-75.0","","","1-1","5002","38","1","Training","Stims/Figures/27-C-30-1.bmp","pakaka","Up","38","5","8","5","P","J","72"
"","","approach-retreat","76","1090933","0.0-76.0","","","1-1","4142","39","1","Training","Stims/Figures/71-C-30-1.bmp","taka:ka","Right","39","5","9","5","P","J","73"
"","","approach-retreat","77","1097472","0.0-77.0","","","1-1","5005","37","0","Training","Stims/Figures/27-J-0-1.bmp","namala","Left","39","5","10","5","S","J","74"
"","","approach-retreat","78","1112841","0.0-78.0","","","1-1","13835","37","1","Training","Stims/Figures/144-C-30-3.bmp","tapa:ta","Left","37","5","11","5","P","J","75"
"","","approach-retreat","79","1119227","0.0-79.0","","","1-1","4854","38","0","Training","Stims/Figures/71-J-0-1.bmp","ma:la:na","Up","40","5","12","5","S","J","76"
"","","approach-retreat","80","1126017","0.0-80.0","","","1-1","5255","37","0","Training","Stims/Figures/84-C-20-2.bmp","ta:paka","Right","39","5","13","5","P","J","77"
"","","approach-retreat","81","1132196","0.0-81.0","","","1-1","4648","40","1","Training","Stims/Figures/100-J-10-3.bmp","na:mala","Up","40","5","14","5","S","J","78"
"","","approach-retreat","82","1138010","0.0-82.0","","","1-1","4281","39","1","Training","Stims/Figures/102-C-20-4.bmp","pa:pa:ta","Right","39","5","15","5","P","J","79"
"","","approach-retreat","83","1145125","0.0-83.0","","","1-1","5581","39","0","Training","Stims/Figures/118-J-0-2.bmp","ma:lana","Right","37","5","16","5","S","J","80"
"","","approach-retreat","84","1153011","0.0-84.0","","","1-1","6365","39","0","Training","Stims/Figures/100-C-30-3.bmp","pa:ka:ka","Left","37","6","1","5","P","J","81"
"","","approach-retreat","85","1160992","0.0-85.0","","","1-1","6450","40","0","Training","Stims/Figures/71-C-30-1.bmp","taka:ka","Up","38","6","2","5","P","J","82"
"","","approach-retreat","86","1169096","0.0-86.0","","","1-1","6572","40","1","Training","Stims/Figures/84-C-20-2.bmp","ta:paka","Down","40","6","3","5","P","J","83"
"","","approach-retreat","87","1180925","0.0-87.0","","","1-1","10296","39","1","Training","Stims/Figures/144-C-30-3.bmp","tapa:ta","Right","39","6","4","5","P","J","84"
"","","approach-retreat","88","1189190","0.0-88.0","","","1-1","6733","38","0","Training","Stims/Figures/102-J-10-4.bmp","ma:ma:na","Up","40","6","5","5","S","J","85"
"","","approach-retreat","89","1195665","0.0-89.0","","","1-1","4941","37","0","Training","Stims/Figures/144-J-10-3.bmp","nama:la","Left","39","6","6","5","S","J","86"
"","","approach-retreat","90","1201767","0.0-90.0","","","1-1","4567","37","1","Training","Stims/Figures/118-C-20-2.bmp","ta:pa:ka","Left","37","6","7","5","P","J","87"
"","","approach-retreat","91","1209296","0.0-91.0","","","1-1","5995","39","1","Training","Stims/Figures/27-C-30-1.bmp","pakaka","Right","39","6","8","5","P","J","88"
"","","approach-retreat","92","1222765","0.0-92.0","","","1-1","11936","40","0","Training","Stims/Figures/118-J-0-2.bmp","ma:lana","Down","38","6","9","5","S","J","89"
"","","approach-retreat","93","1231891","0.0-93.0","","","1-1","7595","40","0","Training","Stims/Figures/7-C-20-4.bmp","pa:kaka","Up","38","6","10","5","P","J","90"
"","","approach-retreat","94","1239384","0.0-94.0","","","1-1","5960","38","1","Training","Stims/Figures/7-J-10-4.bmp","nalala","Down","38","6","11","5","S","J","91"
"","","approach-retreat","95","1245333","0.0-95.0","","","1-1","4414","39","0","Training","Stims/Figures/100-J-10-3.bmp","na:mala","Right","37","6","12","5","S","J","92"
"","","approach-retreat","96","1251692","0.0-96.0","","","1-1","4827","38","0","Training","Stims/Figures/84-J-0-2.bmp","ma:la:la","Up","40","6","13","5","S","J","93"
"","","approach-retreat","97","1257807","0.0-97.0","","","1-1","4581","39","0","Training","Stims/Figures/102-C-20-4.bmp","pa:pa:ta","Left","37","6","14","5","P","J","94"
"","","approach-retreat","98","1264478","0.0-98.0","","","1-1","5137","40","0","Training","Stims/Figures/71-J-0-1.bmp","ma:la:na","Down","38","6","15","5","S","J","95"
"","","approach-retreat","99","1270445","0.0-99.0","","","1-1","4432","39","0","Training","Stims/Figures/27-J-0-1.bmp","namala","Right","37","6","16","5","S","J","96"
"","","approach-retreat","100","1276105","0.0-100.0","","","1-1","4127","38","0","Training","Stims/Figures/84-C-20-2.bmp","ta:paka","Down","40","7","1","5","P","J","97"
"","","approach-retreat","101","1282219","0.0-101.0","","","1-1","4580","40","1","Training","Stims/Figures/84-J-0-2.bmp","ma:la:la","Up","40","7","2","5","S","J","98"
"","","approach-retreat","102","1288964","0.0-102.0","","","1-1","5210","40","1","Training","Stims/Figures/27-C-30-1.bmp","pakaka","Down","40","7","3","5","P","J","99"
"","","approach-retreat","103","1294509","0.0-103.0","","","1-1","4012","39","1","Training","Stims/Figures/144-J-10-3.bmp","nama:la","Left","39","7","4","5","S","J","100"
"","","approach-retreat","104","1300041","0.0-104.0","","","1-1","3999","39","1","Training","Stims/Figures/71-C-30-1.bmp","taka:ka","Right","39","7","5","5","P","J","101"
"","","approach-retreat","105","1307099","0.0-105.0","","","1-1","5528","40","0","Training","Stims/Figures/118-C-20-2.bmp","ta:pa:ka","Up","38","7","6","5","P","J","102"
"","","approach-retreat","106","1313576","0.0-106.0","","","1-1","4943","37","1","Training","Stims/Figures/71-J-0-1.bmp","ma:la:na","Right","37","7","7","5","S","J","103"
"","","approach-retreat","107","1319265","0.0-107.0","","","1-1","4155","37","1","Training","Stims/Figures/100-J-10-3.bmp","na:mala","Right","37","7","8","5","S","J","104"
"","","approach-retreat","108","1324936","0.0-108.0","","","1-1","4140","39","0","Training","Stims/Figures/102-C-20-4.bmp","pa:pa:ta","Left","37","7","9","5","P","J","105"
"","","approach-retreat","109","1330772","0.0-109.0","","","1-1","4303","39","1","Training","Stims/Figures/144-C-30-3.bmp","tapa:ta","Right","39","7","10","5","P","J","106"
"","","approach-retreat","110","1337025","0.0-110.0","","","1-1","4717","40","1","Training","Stims/Figures/27-J-0-1.bmp","namala","Up","40","7","11","5","S","J","107"
"","","approach-retreat","111","1342706","0.0-111.0","","","1-1","4147","40","1","Training","Stims/Figures/118-J-0-2.bmp","ma:lana","Up","40","7","12","5","S","J","108"
"","","approach-retreat","112","1348785","0.0-112.0","","","1-1","4546","38","1","Training","Stims/Figures/7-J-10-4.bmp","nalala","Down","38","7","13","5","S","J","109"
"","","approach-retreat","113","1356064","0.0-113.0","","","1-1","5742","40","1","Training","Stims/Figures/100-C-30-3.bmp","pa:ka:ka","Down","40","7","14","5","P","J","110"
"","","approach-retreat","114","1362038","0.0-114.0","","","1-1","4440","39","1","Training","Stims/Figures/102-J-10-4.bmp","ma:ma:na","Left","39","7","15","5","S","J","111"
"","","approach-retreat","115","1367880","0.0-115.0","","","1-1","4319","39","0","Training","Stims/Figures/7-C-20-4.bmp","pa:kaka","Left","37","7","16","5","P","J","112"
"","","approach-retreat","116","1374127","0.0-116.0","","","1-1","4712","40","1","Training","Stims/Figures/102-J-10-4.bmp","ma:ma:na","Up","40","8","1","5","S","J","113"
"","","approach-retreat","117","1380220","0.0-117.0","","","1-1","4556","37","0","Training","Stims/Figures/84-C-20-2.bmp","ta:paka","Right","39","8","2","5","P","J","114"
"","","approach-retreat","118","1387028","0.0-118.0","","","1-1","5274","37","1","Training","Stims/Figures/144-C-30-3.bmp","tapa:ta","Left","37","8","3","5","P","J","115"
"","","approach-retreat","119","1392755","0.0-119.0","","","1-1","4194","39","1","Training","Stims/Figures/27-C-30-1.bmp","pakaka","Right","39","8","4","5","P","J","116"
"","","approach-retreat","120","1398996","0.0-120.0","","","1-1","4706","38","0","Training","Stims/Figures/7-J-10-4.bmp","nalala","Up","40","8","5","5","S","J","117"
"","","approach-retreat","121","1404959","0.0-121.0","","","1-1","4431","39","1","Training","Stims/Figures/7-C-20-4.bmp","pa:kaka","Right","39","8","6","5","P","J","118"
"","","approach-retreat","122","1410812","0.0-122.0","","","1-1","4320","40","1","Training","Stims/Figures/100-J-10-3.bmp","na:mala","Up","40","8","7","5","S","J","119"
"","","approach-retreat","123","1416631","0.0-123.0","","","1-1","4287","38","1","Training","Stims/Figures/71-J-0-1.bmp","ma:la:na","Down","38","8","8","5","S","J","120"
"","","approach-retreat","124","1422275","0.0-124.0","","","1-1","4121","38","0","Training","Stims/Figures/102-C-20-4.bmp","pa:pa:ta","Down","40","8","9","5","P","J","121"
"","","approach-retreat","125","1428048","0.0-125.0","","","1-1","4239","39","1","Training","Stims/Figures/118-J-0-2.bmp","ma:lana","Left","39","8","10","5","S","J","122"
"","","approach-retreat","126","1433786","0.0-126.0","","","1-1","4207","38","1","Training","Stims/Figures/144-J-10-3.bmp","nama:la","Down","38","8","11","5","S","J","123"
"","","approach-retreat","127","1439586","0.0-127.0","","","1-1","4271","40","1","Training","Stims/Figures/84-J-0-2.bmp","ma:la:la","Up","40","8","12","5","S","J","124"
"","","approach-retreat","128","1445555","0.0-128.0","","","1-1","4435","37","1","Training","Stims/Figures/71-C-30-1.bmp","taka:ka","Left","37","8","13","5","P","J","125"
"","","approach-retreat","129","1451340","0.0-129.0","","","1-1","4250","38","1","Training","Stims/Figures/27-J-0-1.bmp","namala","Down","38","8","14","5","S","J","126"
"","","approach-retreat","130","1457358","0.0-130.0","","","1-1","4485","39","1","Training","Stims/Figures/118-C-20-2.bmp","ta:pa:ka","Right","39","8","15","5","P","J","127"
"","","approach-retreat","131","1463457","0.0-131.0","","","1-1","4565","37","1","Training","Stims/Figures/100-C-30-3.bmp","pa:ka:ka","Left","37","8","16","5","P","J","128"
"","","approach-retreat","132","1469323","0.0-132.0","","","1-1","4332","40","1","Training","Stims/Figures/144-C-30-3.bmp","tapa:ta","Down","40","9","1","5","P","J","129"
"","","approach-retreat","133","1475294","0.0-133.0","","","1-1","4438","38","1","Training","Stims/Figures/27-C-30-1.bmp","pakaka","Up","38","9","2","5","P","J","130"
"","","approach-retreat","134","1481232","0.0-134.0","","","1-1","4405","38","1","Training","Stims/Figures/84-J-0-2.bmp","ma:la:la","Down","38","9","3","5","S","J","131"
"","","approach-retreat","135","1487018","0.0-135.0","","","1-1","4255","39","1","Training","Stims/Figures/102-C-20-4.bmp","pa:pa:ta","Right","39","9","4","5","P","J","132"
"","","approach-retreat","136","1493261","0.0-136.0","","","1-1","4719","37","1","Training","Stims/Figures/118-C-20-2.bmp","ta:pa:ka","Left","37","9","5","5","P","J","133"
"","","approach-retreat","137","1498999","0.0-137.0","","","1-1","4205","40","1","Training","Stims/Figures/84-C-20-2.bmp","ta:paka","Down","40","9","6","5","P","J","134"
"","","approach-retreat","138","1504855","0.0-138.0","","","1-1","4321","39","1","Training","Stims/Figures/27-J-0-1.bmp","namala","Left","39","9","7","5","S","J","135"
"","","approach-retreat","139","1511472","0.0-139.0","","","1-1","5079","37","1","Training","Stims/Figures/100-J-10-3.bmp","na:mala","Right","37","9","8","5","S","J","136"
"","","approach-retreat","140","1517244","0.0-140.0","","","1-1","4239","40","1","Training","Stims/Figures/118-J-0-2.bmp","ma:lana","Up","40","9","9","5","S","J","137"
"","","approach-retreat","141","1524765","0.0-141.0","","","1-1","5998","38","1","Training","Stims/Figures/7-J-10-4.bmp","nalala","Down","38","9","10","5","S","J","138"
"","","approach-retreat","142","1530635","0.0-142.0","","","1-1","4334","39","1","Training","Stims/Figures/7-C-20-4.bmp","pa:kaka","Right","39","9","11","5","P","J","139"
"","","approach-retreat","143","1536507","0.0-143.0","","","1-1","4340","37","1","Training","Stims/Figures/71-C-30-1.bmp","taka:ka","Left","37","9","12","5","P","J","140"
"","","approach-retreat","144","1542362","0.0-144.0","","","1-1","4323","39","0","Training","Stims/Figures/102-J-10-4.bmp","ma:ma:na","Right","37","9","13","5","S","J","141"
"","","approach-retreat","145","1548326","0.0-145.0","","","1-1","4431","40","1","Training","Stims/Figures/144-J-10-3.bmp","nama:la","Up","40","9","14","5","S","J","142"
"","","approach-retreat","146","1554234","0.0-146.0","","","1-1","4374","40","1","Training","Stims/Figures/71-J-0-1.bmp","ma:la:na","Up","40","9","15","5","S","J","143"
"","","approach-retreat","147","1560193","0.0-147.0","","","1-1","4427","37","1","Training","Stims/Figures/100-C-30-3.bmp","pa:ka:ka","Left","37","9","16","5","P","J","144"
"85794","","instructions","148","1645989","0.0-148.0","[{""page_index"":0,""viewing_time"":85792}]","","","","","","","","","","","","","","","",""
"","","approach-retreat","149","1654882","0.0-149.0","","","1-1","7366","39","1","Testing","Stims/Figures/94-C-20-2.bmp","ta:ka:ta","Right","39","1","1","5","P","J","1"
"","","approach-retreat","150","1661547","0.0-150.0","","","1-1","5137","38","1","Testing","Stims/Figures/74-C-20-4.bmp","tapa:ka","Up","38","1","2","5","P","J","2"
"","","approach-retreat","151","1667753","0.0-151.0","","","1-1","4693","38","1","Testing","Stims/Figures/84-J-0-2.bmp","ma:la:la","Down","38","1","3","5","S","J","3"
"","","approach-retreat","152","1674000","0.0-152.0","","","1-1","4721","37","1","Testing","Stims/Figures/71-C-30-1.bmp","taka:ka","Left","37","1","4","5","P","J","4"
"","","approach-retreat","153","1679883","0.0-153.0","","","1-1","4356","38","1","Testing","Stims/Figures/118-J-0-2.bmp","ma:lana","Down","38","1","5","5","S","J","5"
"","","approach-retreat","154","1685924","0.0-154.0","","","1-1","4514","40","1","Testing","Stims/Figures/74-J-10-4.bmp","na:la:na","Up","40","1","6","5","S","J","6"
"","","approach-retreat","155","1691840","0.0-155.0","","","1-1","4387","37","1","Testing","Stims/Figures/118-C-20-2.bmp","ta:pa:ka","Left","37","1","7","5","P","J","7"
"","","approach-retreat","156","1697664","0.0-156.0","","","1-1","4298","38","1","Testing","Stims/Figures/100-C-30-3.bmp","pa:ka:ka","Up","38","1","8","5","P","J","8"
"","","approach-retreat","157","1703587","0.0-157.0","","","1-1","4406","39","1","Testing","Stims/Figures/144-J-10-3.bmp","nama:la","Left","39","1","9","5","S","J","9"
"","","approach-retreat","158","1709421","0.0-158.0","","","1-1","4318","40","1","Testing","Stims/Figures/57-C-30-1.bmp","ta:kata","Down","40","1","10","5","P","J","10"
"","","approach-retreat","159","1716671","0.0-159.0","","","1-1","5728","40","1","Testing","Stims/Figures/111-J-10-3.bmp","na:lana","Up","40","1","11","5","S","J","11"
"","","approach-retreat","160","1723124","0.0-160.0","","","1-1","4924","39","1","Testing","Stims/Figures/102-J-10-4.bmp","ma:ma:na","Left","39","1","12","5","S","J","12"
"","","approach-retreat","161","1729590","0.0-161.0","","","1-1","4940","39","1","Testing","Stims/Figures/100-J-10-3.bmp","na:mala","Left","39","1","13","5","S","J","13"
"","","approach-retreat","162","1735904","0.0-162.0","","","1-1","4790","39","1","Testing","Stims/Figures/7-C-20-4.bmp","pa:kaka","Right","39","1","14","5","P","J","14"
"","","approach-retreat","163","1743356","0.0-163.0","","","1-1","5926","40","1","Testing","Stims/Figures/144-C-30-3.bmp","tapa:ta","Down","40","1","15","5","P","J","15"
"","","approach-retreat","164","1750008","0.0-164.0","","","1-1","5125","38","1","Testing","Stims/Figures/57-J-0-1.bmp","na:ma:na","Down","38","1","16","5","S","J","16"
"","","approach-retreat","165","1755683","0.0-165.0","","","1-1","4142","40","1","Testing","Stims/Figures/94-J-0-2.bmp","ma:lala","Up","40","1","17","5","S","J","17"
"","","approach-retreat","166","1761588","0.0-166.0","","","1-1","4380","37","1","Testing","Stims/Figures/27-J-0-1.bmp","namala","Right","37","1","18","5","S","J","18"
"","","approach-retreat","167","1767465","0.0-167.0","","","1-1","4335","40","1","Testing","Stims/Figures/7-J-10-4.bmp","nalala","Up","40","1","19","5","S","J","19"
"","","approach-retreat","168","1773415","0.0-168.0","","","1-1","4423","38","1","Testing","Stims/Figures/71-J-0-1.bmp","ma:la:na","Down","38","1","20","5","S","J","20"
"","","approach-retreat","169","1781792","0.0-169.0","","","1-1","6852","39","1","Testing","Stims/Figures/102-C-20-4.bmp","pa:pa:ta","Right","39","1","21","5","P","J","21"
"","","approach-retreat","170","1787439","0.0-170.0","","","1-1","4121","39","1","Testing","Stims/Figures/111-C-30-3.bmp","papata","Right","39","1","22","5","P","J","22"
"","","approach-retreat","171","1793227","0.0-171.0","","","1-1","4260","37","1","Testing","Stims/Figures/27-C-30-1.bmp","pakaka","Left","37","1","23","5","P","J","23"
"","","approach-retreat","172","1799142","0.0-172.0","","","1-1","4390","39","1","Testing","Stims/Figures/84-C-20-2.bmp","ta:paka","Right","39","1","24","5","P","J","24"
"","","approach-retreat","173","1804997","0.0-173.0","","","1-1","4328","37","1","Testing","Stims/Figures/118-C-20-2.bmp","ta:pa:ka","Left","37","2","1","5","P","J","25"
"","","approach-retreat","174","1810874","0.0-174.0","","","1-1","4351","38","1","Testing","Stims/Figures/7-J-10-4.bmp","nalala","Down","38","2","2","5","S","J","26"
"","","approach-retreat","175","1816687","0.0-175.0","","","1-1","4286","40","1","Testing","Stims/Figures/57-J-0-1.bmp","na:ma:na","Up","40","2","3","5","S","J","27"
"","","approach-retreat","176","1824312","0.0-176.0","","","1-1","6097","40","1","Testing","Stims/Figures/144-C-30-3.bmp","tapa:ta","Down","40","2","4","5","P","J","28"
"","","approach-retreat","177","1832128","0.0-177.0","","","1-1","6289","40","1","Testing","Stims/Figures/7-C-20-4.bmp","pa:kaka","Down","40","2","5","5","P","J","29"
"","","approach-retreat","178","1838211","0.0-178.0","","","1-1","4554","38","1","Testing","Stims/Figures/27-C-30-1.bmp","pakaka","Up","38","2","6","5","P","J","30"
"","","approach-retreat","179","1843958","0.0-179.0","","","1-1","4220","37","1","Testing","Stims/Figures/111-J-10-3.bmp","na:lana","Right","37","2","7","5","S","J","31"
"","","approach-retreat","180","1849572","0.0-180.0","","","1-1","4082","40","1","Testing","Stims/Figures/71-J-0-1.bmp","ma:la:na","Up","40","2","8","5","S","J","32"
"","","approach-retreat","181","1855509","0.0-181.0","","","1-1","4410","40","1","Testing","Stims/Figures/94-J-0-2.bmp","ma:lala","Up","40","2","9","5","S","J","33"
"","","approach-retreat","182","1862774","0.0-182.0","","","1-1","5740","38","1","Testing","Stims/Figures/144-J-10-3.bmp","nama:la","Down","38","2","10","5","S","J","34"
"","","approach-retreat","183","1868500","0.0-183.0","","","1-1","4197","37","1","Testing","Stims/Figures/74-J-10-4.bmp","na:la:na","Right","37","2","11","5","S","J","35"
"","","approach-retreat","184","1874200","0.0-184.0","","","1-1","4173","39","1","Testing","Stims/Figures/102-C-20-4.bmp","pa:pa:ta","Right","39","2","12","5","P","J","36"
"","","approach-retreat","185","1879852","0.0-185.0","","","1-1","4126","37","1","Testing","Stims/Figures/84-J-0-2.bmp","ma:la:la","Right","37","2","13","5","S","J","37"
"","","approach-retreat","186","1885841","0.0-186.0","","","1-1","4465","38","1","Testing","Stims/Figures/57-C-30-1.bmp","ta:kata","Up","38","2","14","5","P","J","38"
"","","approach-retreat","187","1891675","0.0-187.0","","","1-1","4304","39","1","Testing","Stims/Figures/74-C-20-4.bmp","tapa:ka","Right","39","2","15","5","P","J","39"
"","","approach-retreat","188","1897939","0.0-188.0","","","1-1","4737","37","0","Testing","Stims/Figures/27-J-0-1.bmp","namala","Left","39","2","16","5","S","J","40"
"","","approach-retreat","189","1903909","0.0-189.0","","","1-1","4446","40","1","Testing","Stims/Figures/84-C-20-2.bmp","ta:paka","Down","40","2","17","5","P","J","41"
"","","approach-retreat","190","1909951","0.0-190.0","","","1-1","4517","37","1","Testing","Stims/Figures/94-C-20-2.bmp","ta:ka:ta","Left","37","2","18","5","P","J","42"
"","","approach-retreat","191","1916874","0.0-191.0","","","1-1","5395","39","1","Testing","Stims/Figures/102-J-10-4.bmp","ma:ma:na","Left","39","2","19","5","S","J","43"
"","","approach-retreat","192","1922863","0.0-192.0","","","1-1","4470","40","1","Testing","Stims/Figures/111-C-30-3.bmp","papata","Down","40","2","20","5","P","J","44"
"","","approach-retreat","193","1928656","0.0-193.0","","","1-1","4266","39","1","Testing","Stims/Figures/118-J-0-2.bmp","ma:lana","Left","39","2","21","5","S","J","45"
"","","approach-retreat","194","1934396","0.0-194.0","","","1-1","4212","39","1","Testing","Stims/Figures/100-C-30-3.bmp","pa:ka:ka","Right","39","2","22","5","P","J","46"
"","","approach-retreat","195","1941033","0.0-195.0","","","1-1","5111","37","1","Testing","Stims/Figures/71-C-30-1.bmp","taka:ka","Left","37","2","23","5","P","J","47"
"","","approach-retreat","196","1950210","0.0-196.0","","","1-1","7659","40","1","Testing","Stims/Figures/100-J-10-3.bmp","na:mala","Up","40","2","24","5","S","J","48"
"","","approach-retreat","197","1956073","0.0-197.0","","","1-1","4336","39","1","Testing","Stims/Figures/94-J-0-2.bmp","ma:lala","Left","39","3","1","5","S","J","49"
"","","approach-retreat","198","1962178","0.0-198.0","","","1-1","4578","39","1","Testing","Stims/Figures/71-C-30-1.bmp","taka:ka","Right","39","3","2","5","P","J","50"
"","","approach-retreat","199","1968021","0.0-199.0","","","1-1","4313","39","1","Testing","Stims/Figures/118-J-0-2.bmp","ma:lana","Left","39","3","3","5","S","J","51"
"","","approach-retreat","200","1974736","0.0-200.0","","","1-1","5198","39","1","Testing","Stims/Figures/27-C-30-1.bmp","pakaka","Right","39","3","4","5","P","J","52"
"","","approach-retreat","201","1981053","0.0-201.0","","","1-1","4792","38","1","Testing","Stims/Figures/74-J-10-4.bmp","na:la:na","Down","38","3","5","5","S","J","53"
"","","approach-retreat","202","1986848","0.0-202.0","","","1-1","4274","37","1","Testing","Stims/Figures/27-J-0-1.bmp","namala","Right","37","3","6","5","S","J","54"
"","","approach-retreat","203","1992555","0.0-203.0","","","1-1","4180","38","1","Testing","Stims/Figures/144-J-10-3.bmp","nama:la","Down","38","3","7","5","S","J","55"
"","","approach-retreat","204","1998955","0.0-204.0","","","1-1","4873","37","1","Testing","Stims/Figures/84-J-0-2.bmp","ma:la:la","Right","37","3","8","5","S","J","56"
"","","approach-retreat","205","2006820","0.0-205.0","","","1-1","6338","38","1","Testing","Stims/Figures/100-C-30-3.bmp","pa:ka:ka","Up","38","3","9","5","P","J","57"
"","","approach-retreat","206","2012670","0.0-206.0","","","1-1","4327","38","1","Testing","Stims/Figures/94-C-20-2.bmp","ta:ka:ta","Up","38","3","10","5","P","J","58"
"","","approach-retreat","207","2018542","0.0-207.0","","","1-1","4346","37","1","Testing","Stims/Figures/71-J-0-1.bmp","ma:la:na","Right","37","3","11","5","S","J","59"
"","","approach-retreat","208","2025922","0.0-208.0","","","1-1","5853","40","1","Testing","Stims/Figures/57-C-30-1.bmp","ta:kata","Down","40","3","12","5","P","J","60"
"","","approach-retreat","209","2032092","0.0-209.0","","","1-1","4649","39","1","Testing","Stims/Figures/100-J-10-3.bmp","na:mala","Left","39","3","13","5","S","J","61"
"","","approach-retreat","210","2038400","0.0-210.0","","","1-1","4786","38","1","Testing","Stims/Figures/102-C-20-4.bmp","pa:pa:ta","Up","38","3","14","5","P","J","62"
"","","approach-retreat","211","2045347","0.0-211.0","","","1-1","5420","37","1","Testing","Stims/Figures/144-C-30-3.bmp","tapa:ta","Left","37","3","15","5","P","J","63"
"","","approach-retreat","212","2053502","0.0-212.0","","","1-1","6630","38","1","Testing","Stims/Figures/102-J-10-4.bmp","ma:ma:na","Down","38","3","16","5","S","J","64"
"","","approach-retreat","213","2059697","0.0-213.0","","","1-1","4667","40","1","Testing","Stims/Figures/57-J-0-1.bmp","na:ma:na","Up","40","3","17","5","S","J","65"
"","","approach-retreat","214","2065514","0.0-214.0","","","1-1","4292","39","0","Testing","Stims/Figures/74-C-20-4.bmp","tapa:ka","Left","37","3","18","5","P","J","66"
"","","approach-retreat","215","2072270","0.0-215.0","","","1-1","5220","40","0","Testing","Stims/Figures/7-C-20-4.bmp","pa:kaka","Up","38","3","19","5","P","J","67"
"","","approach-retreat","216","2078458","0.0-216.0","","","1-1","4656","37","1","Testing","Stims/Figures/118-C-20-2.bmp","ta:pa:ka","Left","37","3","20","5","P","J","68"
"","","approach-retreat","217","2085180","0.0-217.0","","","1-1","5200","40","1","Testing","Stims/Figures/111-C-30-3.bmp","papata","Down","40","3","21","5","P","J","69"
"","","approach-retreat","218","2112831","0.0-218.0","","","1-1","26125","40","1","Testing","Stims/Figures/111-J-10-3.bmp","na:lana","Up","40","3","22","5","S","J","70"
"","","approach-retreat","219","2119395","0.0-219.0","","","1-1","5039","40","1","Testing","Stims/Figures/84-C-20-2.bmp","ta:paka","Down","40","3","23","5","P","J","71"
"","","approach-retreat","220","2126129","0.0-220.0","","","1-1","5207","37","1","Testing","Stims/Figures/7-J-10-4.bmp","nalala","Right","37","3","24","5","S","J","72"
"","","approach-retreat","221","2133739","0.0-221.0","","","1-1","6084","37","1","Testing","Stims/Figures/27-J-0-1.bmp","namala","Right","37","4","1","5","S","J","73"
"","","approach-retreat","222","2139761","0.0-222.0","","","1-1","4496","37","1","Testing","Stims/Figures/100-C-30-3.bmp","pa:ka:ka","Left","37","4","2","5","P","J","74"
"","","approach-retreat","223","2146399","0.0-223.0","","","1-1","5111","40","1","Testing","Stims/Figures/84-C-20-2.bmp","ta:paka","Down","40","4","3","5","P","J","75"
"","","approach-retreat","224","2152346","0.0-224.0","","","1-1","4421","38","1","Testing","Stims/Figures/118-J-0-2.bmp","ma:lana","Down","38","4","4","5","S","J","76"
"","","approach-retreat","225","2158721","0.0-225.0","","","1-1","4848","39","1","Testing","Stims/Figures/102-J-10-4.bmp","ma:ma:na","Left","39","4","5","5","S","J","77"
"","","approach-retreat","226","2166006","0.0-226.0","","","1-1","5758","39","1","Testing","Stims/Figures/57-C-30-1.bmp","ta:kata","Right","39","4","6","5","P","J","78"
"","","approach-retreat","227","2173265","0.0-227.0","","","1-1","5733","37","1","Testing","Stims/Figures/7-C-20-4.bmp","pa:kaka","Left","37","4","7","5","P","J","79"
"","","approach-retreat","228","2179085","0.0-228.0","","","1-1","4292","40","1","Testing","Stims/Figures/7-J-10-4.bmp","nalala","Up","40","4","8","5","S","J","80"
"","","approach-retreat","229","2185103","0.0-229.0","","","1-1","4499","40","1","Testing","Stims/Figures/111-C-30-3.bmp","papata","Down","40","4","9","5","P","J","81"
"","","approach-retreat","230","2192797","0.0-230.0","","","1-1","6169","40","1","Testing","Stims/Figures/94-C-20-2.bmp","ta:ka:ta","Down","40","4","10","5","P","J","82"
"","","approach-retreat","231","2199111","0.0-231.0","","","1-1","4777","39","1","Testing","Stims/Figures/102-C-20-4.bmp","pa:pa:ta","Right","39","4","11","5","P","J","83"
"","","approach-retreat","232","2204826","0.0-232.0","","","1-1","4189","40","1","Testing","Stims/Figures/111-J-10-3.bmp","na:lana","Up","40","4","12","5","S","J","84"
"","","approach-retreat","233","2212578","0.0-233.0","","","1-1","6229","38","1","Testing","Stims/Figures/74-C-20-4.bmp","tapa:ka","Up","38","4","13","5","P","J","85"
"","","approach-retreat","234","2218075","0.0-234.0","","","1-1","3973","40","1","Testing","Stims/Figures/144-J-10-3.bmp","nama:la","Up","40","4","14","5","S","J","86"
"","","approach-retreat","235","2223884","0.0-235.0","","","1-1","4280","37","1","Testing","Stims/Figures/27-C-30-1.bmp","pakaka","Left","37","4","15","5","P","J","87"
"","","approach-retreat","236","2229637","0.0-236.0","","","1-1","4228","38","1","Testing","Stims/Figures/118-C-20-2.bmp","ta:pa:ka","Up","38","4","16","5","P","J","88"
"","","approach-retreat","237","2235258","0.0-237.0","","","1-1","4093","39","1","Testing","Stims/Figures/84-J-0-2.bmp","ma:la:la","Left","39","4","17","5","S","J","89"
"","","approach-retreat","238","2241537","0.0-238.0","","","1-1","4755","40","1","Testing","Stims/Figures/144-C-30-3.bmp","tapa:ta","Down","40","4","18","5","P","J","90"
"","","approach-retreat","239","2248273","0.0-239.0","","","1-1","5227","39","1","Testing","Stims/Figures/74-J-10-4.bmp","na:la:na","Left","39","4","19","5","S","J","91"
"","","approach-retreat","240","2254455","0.0-240.0","","","1-1","4655","37","1","Testing","Stims/Figures/94-J-0-2.bmp","ma:lala","Right","37","4","20","5","S","J","92"
"","","approach-retreat","241","2261241","0.0-241.0","","","1-1","5259","40","1","Testing","Stims/Figures/100-J-10-3.bmp","na:mala","Up","40","4","21","5","S","J","93"
"","","approach-retreat","242","2267355","0.0-242.0","","","1-1","4589","38","1","Testing","Stims/Figures/71-J-0-1.bmp","ma:la:na","Down","38","4","22","5","S","J","94"
"","","approach-retreat","243","2273223","0.0-243.0","","","1-1","4341","37","1","Testing","Stims/Figures/57-J-0-1.bmp","na:ma:na","Right","37","4","23","5","S","J","95"
"","","approach-retreat","244","2279073","0.0-244.0","","","1-1","4323","39","1","Testing","Stims/Figures/71-C-30-1.bmp","taka:ka","Right","39","4","24","5","P","J","96"
"128245","","survey-text","245","2407340","0.0-245.0","","{""Q0"":""1039/2018""}","","","","","","","","","","","","","","",""
