"rt","key_press","trial_type","trial_index","time_elapsed","internal_node_id","view_history","responses","Id","Rt","ResKeyCode","ResCorr","TrialType2","Image","Label","Location","CorrectResponse","Block","BlockTrial","Condition","LabelType","Subcondition","trialNum"
"95273","32","text","0","95277","0.0-0.0-0.0","","","","","","","","","","","","","","","","",""
"87848","","instructions","1","183128","0.0-1.0","[{""page_index"":0,""viewing_time"":87847}]","","","","","","","","","","","","","","","",""
"45388","","survey-multi-choice","2","228602","0.0-2.0","","{""Q0"":""Da"",""Q1"":""Da"",""Q2"":""Da"",""Q3"":""Da"",""Q4"":""Da"",""Q5"":""Da""}","","","","","","","","","","","","","","",""
"","","bio","3","239281","0.0-3.0","","{""age"":""18"",""gender"":""f"",""specify"":""""}","","","","","","","","","","","","","","",""
"","","approach-retreat","4","250832","0.0-4.0","","","3-5","10028","38","0","Training","Stims/Figures/100-C-30-3.bmp","zahaha","Down","40","1","1","6A","C2","J","1"
"","","approach-retreat","5","267444","0.0-5.0","","","3-5","15089","39","0","Training","Stims/Figures/57-J-0-1.bmp","va:shava","Right","37","1","2","6A","C1","J","2"
"","","approach-retreat","6","275594","0.0-6.0","","","3-5","6638","37","1","Training","Stims/Figures/128-J-10-3.bmp","vashasha","Right","37","1","3","6A","C1","J","3"
"","","approach-retreat","7","286204","0.0-7.0","","","3-5","9089","39","1","Training","Stims/Figures/118-J-0-2.bmp","fa:fa:va","Left","39","1","4","6A","C1","J","4"
"","","approach-retreat","8","294107","0.0-8.0","","","3-5","6383","40","0","Training","Stims/Figures/74-C-20-4.bmp","zasa:ha","Up","38","1","5","6A","C2","J","5"
"","","approach-retreat","9","300059","0.0-9.0","","","3-5","4432","39","1","Training","Stims/Figures/102-J-10-4.bmp","va:fa:sha","Left","39","1","6","6A","C1","J","6"
"","","approach-retreat","10","306334","0.0-10.0","","","3-5","4754","38","1","Training","Stims/Figures/74-J-10-4.bmp","fafa:sha","Down","38","1","7","6A","C1","J","7"
"","","approach-retreat","11","312588","0.0-11.0","","","3-5","4733","37","0","Training","Stims/Figures/118-C-20-2.bmp","sa:haha","Right","39","1","8","6A","C2","J","8"
"","","approach-retreat","12","318442","0.0-12.0","","","3-5","4333","39","0","Training","Stims/Figures/57-C-30-1.bmp","zasa:za","Left","37","1","9","6A","C2","J","9"
"","","approach-retreat","13","326816","0.0-13.0","","","3-5","6864","40","0","Training","Stims/Figures/84-C-20-2.bmp","sa:sa:za","Up","38","1","10","6A","C2","J","10"
"","","approach-retreat","14","335924","0.0-14.0","","","3-5","7586","37","1","Training","Stims/Figures/27-J-0-1.bmp","fa:sha:va","Right","37","1","11","6A","C1","J","11"
"","","approach-retreat","15","342418","0.0-15.0","","","3-5","4978","38","0","Training","Stims/Figures/102-C-20-4.bmp","za:haza","Down","40","1","12","6A","C2","J","12"
"","","approach-retreat","16","348715","0.0-16.0","","","3-5","4776","40","1","Training","Stims/Figures/84-J-0-2.bmp","vafa:va","Up","40","1","13","6A","C1","J","13"
"","","approach-retreat","17","354590","0.0-17.0","","","3-5","4366","40","1","Training","Stims/Figures/100-J-10-3.bmp","vafa:sha","Up","40","1","14","6A","C1","J","14"
"","","approach-retreat","18","360395","0.0-18.0","","","3-5","4285","39","0","Training","Stims/Figures/128-C-30-3.bmp","sa:sa:ha","Left","37","1","15","6A","C2","J","15"
"","","approach-retreat","19","366548","0.0-19.0","","","3-5","4631","38","0","Training","Stims/Figures/27-C-30-1.bmp","sasaza","Down","40","1","16","6A","C2","J","16"
"","","approach-retreat","20","372452","0.0-20.0","","","3-5","4385","37","0","Training","Stims/Figures/57-C-30-1.bmp","zasa:za","Right","39","2","1","6A","C2","J","17"
"","","approach-retreat","21","378444","0.0-21.0","","","3-5","4474","38","0","Training","Stims/Figures/118-C-20-2.bmp","sa:haha","Down","40","2","2","6A","C2","J","18"
"","","approach-retreat","22","384439","0.0-22.0","","","3-5","4475","37","1","Training","Stims/Figures/100-J-10-3.bmp","vafa:sha","Right","37","2","3","6A","C1","J","19"
"","","approach-retreat","23","390676","0.0-23.0","","","3-5","4716","40","1","Training","Stims/Figures/57-J-0-1.bmp","va:shava","Up","40","2","4","6A","C1","J","20"
"","","approach-retreat","24","396976","0.0-24.0","","","3-5","4781","38","1","Training","Stims/Figures/118-J-0-2.bmp","fa:fa:va","Down","38","2","5","6A","C1","J","21"
"","","approach-retreat","25","403368","0.0-25.0","","","3-5","4869","39","0","Training","Stims/Figures/74-C-20-4.bmp","zasa:ha","Left","37","2","6","6A","C2","J","22"
"","","approach-retreat","26","409185","0.0-26.0","","","3-5","4296","38","0","Training","Stims/Figures/128-C-30-3.bmp","sa:sa:ha","Down","40","2","7","6A","C2","J","23"
"","","approach-retreat","27","415043","0.0-27.0","","","3-5","4341","37","1","Training","Stims/Figures/27-C-30-1.bmp","sasaza","Left","37","2","8","6A","C2","J","24"
"","","approach-retreat","28","421767","0.0-28.0","","","3-5","5203","40","1","Training","Stims/Figures/84-J-0-2.bmp","vafa:va","Up","40","2","9","6A","C1","J","25"
"","","approach-retreat","29","427535","0.0-29.0","","","3-5","4248","37","0","Training","Stims/Figures/84-C-20-2.bmp","sa:sa:za","Right","39","2","10","6A","C2","J","26"
"","","approach-retreat","30","434045","0.0-30.0","","","3-5","4998","39","1","Training","Stims/Figures/27-J-0-1.bmp","fa:sha:va","Left","39","2","11","6A","C1","J","27"
"","","approach-retreat","31","439780","0.0-31.0","","","3-5","4218","37","1","Training","Stims/Figures/74-J-10-4.bmp","fafa:sha","Right","37","2","12","6A","C1","J","28"
"","","approach-retreat","32","445627","0.0-32.0","","","3-5","4331","40","0","Training","Stims/Figures/100-C-30-3.bmp","zahaha","Up","38","2","13","6A","C2","J","29"
"","","approach-retreat","33","452279","0.0-33.0","","","3-5","5134","38","1","Training","Stims/Figures/128-J-10-3.bmp","vashasha","Down","38","2","14","6A","C1","J","30"
"","","approach-retreat","34","458217","0.0-34.0","","","3-5","4417","39","0","Training","Stims/Figures/102-C-20-4.bmp","za:haza","Left","37","2","15","6A","C2","J","31"
"","","approach-retreat","35","464008","0.0-35.0","","","3-5","4272","40","1","Training","Stims/Figures/102-J-10-4.bmp","va:fa:sha","Up","40","2","16","6A","C1","J","32"
"","","approach-retreat","36","469716","0.0-36.0","","","3-5","4188","39","0","Training","Stims/Figures/118-C-20-2.bmp","sa:haha","Left","37","3","1","6A","C2","J","33"
"","","approach-retreat","37","475870","0.0-37.0","","","3-5","4636","38","0","Training","Stims/Figures/74-C-20-4.bmp","zasa:ha","Down","40","3","2","6A","C2","J","34"
"","","approach-retreat","38","481544","0.0-38.0","","","3-5","4152","37","1","Training","Stims/Figures/128-J-10-3.bmp","vashasha","Right","37","3","3","6A","C1","J","35"
"","","approach-retreat","39","487789","0.0-39.0","","","3-5","4726","38","1","Training","Stims/Figures/102-J-10-4.bmp","va:fa:sha","Down","38","3","4","6A","C1","J","36"
"","","approach-retreat","40","493864","0.0-40.0","","","3-5","4554","40","0","Training","Stims/Figures/128-C-30-3.bmp","sa:sa:ha","Up","38","3","5","6A","C2","J","37"
"","","approach-retreat","41","499643","0.0-41.0","","","3-5","4259","38","0","Training","Stims/Figures/84-C-20-2.bmp","sa:sa:za","Down","40","3","6","6A","C2","J","38"
"","","approach-retreat","42","505348","0.0-42.0","","","3-5","4185","37","1","Training","Stims/Figures/100-J-10-3.bmp","vafa:sha","Right","37","3","7","6A","C1","J","39"
"","","approach-retreat","43","511004","0.0-43.0","","","3-5","4137","39","1","Training","Stims/Figures/27-J-0-1.bmp","fa:sha:va","Left","39","3","8","6A","C1","J","40"
"","","approach-retreat","44","516946","0.0-44.0","","","3-5","4422","38","0","Training","Stims/Figures/102-C-20-4.bmp","za:haza","Down","40","3","9","6A","C2","J","41"
"","","approach-retreat","45","522711","0.0-45.0","","","3-5","4247","40","0","Training","Stims/Figures/57-C-30-1.bmp","zasa:za","Up","38","3","10","6A","C2","J","42"
"","","approach-retreat","46","528508","0.0-46.0","","","3-5","4276","37","0","Training","Stims/Figures/84-J-0-2.bmp","vafa:va","Left","39","3","11","6A","C1","J","43"
"","","approach-retreat","47","534443","0.0-47.0","","","3-5","4414","40","0","Training","Stims/Figures/100-C-30-3.bmp","zahaha","Up","38","3","12","6A","C2","J","44"
"","","approach-retreat","48","540128","0.0-48.0","","","3-5","4167","38","0","Training","Stims/Figures/118-J-0-2.bmp","fa:fa:va","Up","40","3","13","6A","C1","J","45"
"","","approach-retreat","49","545798","0.0-49.0","","","3-5","4149","37","1","Training","Stims/Figures/74-J-10-4.bmp","fafa:sha","Right","37","3","14","6A","C1","J","46"
"","","approach-retreat","50","551513","0.0-50.0","","","3-5","4195","39","1","Training","Stims/Figures/57-J-0-1.bmp","va:shava","Left","39","3","15","6A","C1","J","47"
"","","approach-retreat","51","557238","0.0-51.0","","","3-5","4205","37","0","Training","Stims/Figures/27-C-30-1.bmp","sasaza","Right","39","3","16","6A","C2","J","48"
"","","approach-retreat","52","563012","0.0-52.0","","","3-5","4256","38","1","Training","Stims/Figures/74-J-10-4.bmp","fafa:sha","Down","38","4","1","6A","C1","J","49"
"","","approach-retreat","53","568715","0.0-53.0","","","3-5","4178","37","1","Training","Stims/Figures/57-J-0-1.bmp","va:shava","Right","37","4","2","6A","C1","J","50"
"","","approach-retreat","54","574462","0.0-54.0","","","3-5","4228","39","0","Training","Stims/Figures/27-C-30-1.bmp","sasaza","Left","37","4","3","6A","C2","J","51"
"","","approach-retreat","55","580632","0.0-55.0","","","3-5","4660","39","0","Training","Stims/Figures/74-C-20-4.bmp","zasa:ha","Left","37","4","4","6A","C2","J","52"
"","","approach-retreat","56","586380","0.0-56.0","","","3-5","4228","39","1","Training","Stims/Figures/100-J-10-3.bmp","vafa:sha","Left","39","4","5","6A","C1","J","53"
"","","approach-retreat","57","592064","0.0-57.0","","","3-5","4166","37","0","Training","Stims/Figures/128-C-30-3.bmp","sa:sa:ha","Right","39","4","6","6A","C2","J","54"
"","","approach-retreat","58","598586","0.0-58.0","","","3-5","5005","37","0","Training","Stims/Figures/100-C-30-3.bmp","zahaha","Right","39","4","7","6A","C2","J","55"
"","","approach-retreat","59","604846","0.0-59.0","","","3-5","4739","38","1","Training","Stims/Figures/27-J-0-1.bmp","fa:sha:va","Down","38","4","8","6A","C1","J","56"
"","","approach-retreat","60","610937","0.0-60.0","","","3-5","4573","40","0","Training","Stims/Figures/102-C-20-4.bmp","za:haza","Up","38","4","9","6A","C2","J","57"
"","","approach-retreat","61","616645","0.0-61.0","","","3-5","4191","40","0","Training","Stims/Figures/57-C-30-1.bmp","zasa:za","Up","38","4","10","6A","C2","J","58"
"","","approach-retreat","62","622558","0.0-62.0","","","3-5","4394","38","1","Training","Stims/Figures/84-J-0-2.bmp","vafa:va","Down","38","4","11","6A","C1","J","59"
"","","approach-retreat","63","630218","0.0-63.0","","","3-5","6143","37","1","Training","Stims/Figures/128-J-10-3.bmp","vashasha","Right","37","4","12","6A","C1","J","60"
"","","approach-retreat","64","639106","0.0-64.0","","","3-5","7367","40","0","Training","Stims/Figures/118-C-20-2.bmp","sa:haha","Up","38","4","13","6A","C2","J","61"
"","","approach-retreat","65","645297","0.0-65.0","","","3-5","4678","38","1","Training","Stims/Figures/102-J-10-4.bmp","va:fa:sha","Down","38","4","14","6A","C1","J","62"
"","","approach-retreat","66","651975","0.0-66.0","","","3-5","5163","40","1","Training","Stims/Figures/118-J-0-2.bmp","fa:fa:va","Up","40","4","15","6A","C1","J","63"
"","","approach-retreat","67","659667","0.0-67.0","","","3-5","6176","39","0","Training","Stims/Figures/84-C-20-2.bmp","sa:sa:za","Left","37","4","16","6A","C2","J","64"
"","","approach-retreat","68","666185","0.0-68.0","","","3-5","4995","39","0","Training","Stims/Figures/128-C-30-3.bmp","sa:sa:ha","Left","37","5","1","6A","C2","J","65"
"","","approach-retreat","69","672741","0.0-69.0","","","3-5","5038","39","1","Training","Stims/Figures/27-J-0-1.bmp","fa:sha:va","Left","39","5","2","6A","C1","J","66"
"","","approach-retreat","70","678688","0.0-70.0","","","3-5","4432","40","0","Training","Stims/Figures/84-C-20-2.bmp","sa:sa:za","Up","38","5","3","6A","C2","J","67"
"","","approach-retreat","71","684625","0.0-71.0","","","3-5","4429","37","1","Training","Stims/Figures/27-C-30-1.bmp","sasaza","Left","37","5","4","6A","C2","J","68"
"","","approach-retreat","72","690958","0.0-72.0","","","3-5","4822","39","0","Training","Stims/Figures/118-J-0-2.bmp","fa:fa:va","Right","37","5","5","6A","C1","J","69"
"","","approach-retreat","73","696966","0.0-73.0","","","3-5","4490","38","1","Training","Stims/Figures/102-J-10-4.bmp","va:fa:sha","Down","38","5","6","6A","C1","J","70"
"","","approach-retreat","74","703043","0.0-74.0","","","3-5","4561","38","1","Training","Stims/Figures/128-J-10-3.bmp","vashasha","Down","38","5","7","6A","C1","J","71"
"","","approach-retreat","75","709516","0.0-75.0","","","3-5","4954","39","1","Training","Stims/Figures/74-J-10-4.bmp","fafa:sha","Left","39","5","8","6A","C1","J","72"
"","","approach-retreat","76","715341","0.0-76.0","","","3-5","4306","38","1","Training","Stims/Figures/57-J-0-1.bmp","va:shava","Down","38","5","9","6A","C1","J","73"
"","","approach-retreat","77","721072","0.0-77.0","","","3-5","4211","37","0","Training","Stims/Figures/74-C-20-4.bmp","zasa:ha","Right","39","5","10","6A","C2","J","74"
"","","approach-retreat","78","726768","0.0-78.0","","","3-5","4177","38","0","Training","Stims/Figures/100-J-10-3.bmp","vafa:sha","Up","40","5","11","6A","C1","J","75"
"","","approach-retreat","79","732710","0.0-79.0","","","3-5","4429","37","1","Training","Stims/Figures/84-J-0-2.bmp","vafa:va","Right","37","5","12","6A","C1","J","76"
"","","approach-retreat","80","739730","0.0-80.0","","","3-5","5508","38","1","Training","Stims/Figures/118-C-20-2.bmp","sa:haha","Up","38","5","13","6A","C2","J","77"
"","","approach-retreat","81","745771","0.0-81.0","","","3-5","4527","39","1","Training","Stims/Figures/100-C-30-3.bmp","zahaha","Right","39","5","14","6A","C2","J","78"
"","","approach-retreat","82","752997","0.0-82.0","","","3-5","5710","38","0","Training","Stims/Figures/102-C-20-4.bmp","za:haza","Down","40","5","15","6A","C2","J","79"
"","","approach-retreat","83","758869","0.0-83.0","","","3-5","4355","40","0","Training","Stims/Figures/57-C-30-1.bmp","zasa:za","Up","38","5","16","6A","C2","J","80"
"","","approach-retreat","84","765098","0.0-84.0","","","3-5","4710","37","1","Training","Stims/Figures/118-J-0-2.bmp","fa:fa:va","Right","37","6","1","6A","C1","J","81"
"","","approach-retreat","85","771091","0.0-85.0","","","3-5","4479","40","1","Training","Stims/Figures/128-J-10-3.bmp","vashasha","Up","40","6","2","6A","C1","J","82"
"","","approach-retreat","86","777014","0.0-86.0","","","3-5","4405","38","0","Training","Stims/Figures/118-C-20-2.bmp","sa:haha","Down","40","6","3","6A","C2","J","83"
"","","approach-retreat","87","783166","0.0-87.0","","","3-5","4634","37","1","Training","Stims/Figures/100-J-10-3.bmp","vafa:sha","Right","37","6","4","6A","C1","J","84"
"","","approach-retreat","88","789201","0.0-88.0","","","3-5","4515","38","0","Training","Stims/Figures/74-C-20-4.bmp","zasa:ha","Down","40","6","5","6A","C2","J","85"
"","","approach-retreat","89","794946","0.0-89.0","","","3-5","4224","40","0","Training","Stims/Figures/128-C-30-3.bmp","sa:sa:ha","Up","38","6","6","6A","C2","J","86"
"","","approach-retreat","90","802119","0.0-90.0","","","3-5","5653","39","1","Training","Stims/Figures/84-J-0-2.bmp","vafa:va","Left","39","6","7","6A","C1","J","87"
"","","approach-retreat","91","809104","0.0-91.0","","","3-5","5466","37","1","Training","Stims/Figures/84-C-20-2.bmp","sa:sa:za","Left","37","6","8","6A","C2","J","88"
"","","approach-retreat","92","815851","0.0-92.0","","","3-5","5227","38","1","Training","Stims/Figures/57-J-0-1.bmp","va:shava","Down","38","6","9","6A","C1","J","89"
"","","approach-retreat","93","821635","0.0-93.0","","","3-5","4264","39","0","Training","Stims/Figures/27-C-30-1.bmp","sasaza","Left","37","6","10","6A","C2","J","90"
"","","approach-retreat","94","827848","0.0-94.0","","","3-5","4698","38","1","Training","Stims/Figures/27-J-0-1.bmp","fa:sha:va","Down","38","6","11","6A","C1","J","91"
"","","approach-retreat","95","833569","0.0-95.0","","","3-5","4199","40","1","Training","Stims/Figures/102-J-10-4.bmp","va:fa:sha","Up","40","6","12","6A","C1","J","92"
"","","approach-retreat","96","839549","0.0-96.0","","","3-5","4464","37","0","Training","Stims/Figures/102-C-20-4.bmp","za:haza","Right","39","6","13","6A","C2","J","93"
"","","approach-retreat","97","845467","0.0-97.0","","","3-5","4402","37","1","Training","Stims/Figures/100-C-30-3.bmp","zahaha","Left","37","6","14","6A","C2","J","94"
"","","approach-retreat","98","851231","0.0-98.0","","","3-5","4246","37","1","Training","Stims/Figures/74-J-10-4.bmp","fafa:sha","Right","37","6","15","6A","C1","J","95"
"","","approach-retreat","99","857120","0.0-99.0","","","3-5","4373","40","0","Training","Stims/Figures/57-C-30-1.bmp","zasa:za","Up","38","6","16","6A","C2","J","96"
"","","approach-retreat","100","863254","0.0-100.0","","","3-5","4616","38","1","Training","Stims/Figures/74-C-20-4.bmp","zasa:ha","Up","38","7","1","6A","C2","J","97"
"","","approach-retreat","101","869044","0.0-101.0","","","3-5","4272","37","1","Training","Stims/Figures/128-J-10-3.bmp","vashasha","Right","37","7","2","6A","C1","J","98"
"","","approach-retreat","102","876358","0.0-102.0","","","3-5","5799","38","1","Training","Stims/Figures/27-C-30-1.bmp","sasaza","Up","38","7","3","6A","C2","J","99"
"","","approach-retreat","103","882347","0.0-103.0","","","3-5","4469","39","0","Training","Stims/Figures/102-C-20-4.bmp","za:haza","Left","37","7","4","6A","C2","J","100"
"","","approach-retreat","104","888380","0.0-104.0","","","3-5","4515","38","1","Training","Stims/Figures/57-J-0-1.bmp","va:shava","Down","38","7","5","6A","C1","J","101"
"","","approach-retreat","105","894606","0.0-105.0","","","3-5","4707","39","1","Training","Stims/Figures/118-J-0-2.bmp","fa:fa:va","Left","39","7","6","6A","C1","J","102"
"","","approach-retreat","106","901560","0.0-106.0","","","3-5","5435","38","1","Training","Stims/Figures/84-J-0-2.bmp","vafa:va","Down","38","7","7","6A","C1","J","103"
"","","approach-retreat","107","908305","0.0-107.0","","","3-5","5227","37","0","Training","Stims/Figures/100-C-30-3.bmp","zahaha","Right","39","7","8","6A","C2","J","104"
"","","approach-retreat","108","914451","0.0-108.0","","","3-5","4627","40","0","Training","Stims/Figures/57-C-30-1.bmp","zasa:za","Up","38","7","9","6A","C2","J","105"
"","","approach-retreat","109","921636","0.0-109.0","","","3-5","5665","39","1","Training","Stims/Figures/102-J-10-4.bmp","va:fa:sha","Left","39","7","10","6A","C1","J","106"
"","","approach-retreat","110","927743","0.0-110.0","","","3-5","4588","37","1","Training","Stims/Figures/100-J-10-3.bmp","vafa:sha","Right","37","7","11","6A","C1","J","107"
"","","approach-retreat","111","934201","0.0-111.0","","","3-5","4939","39","1","Training","Stims/Figures/27-J-0-1.bmp","fa:sha:va","Left","39","7","12","6A","C1","J","108"
"","","approach-retreat","112","940473","0.0-112.0","","","3-5","4763","38","0","Training","Stims/Figures/118-C-20-2.bmp","sa:haha","Down","40","7","13","6A","C2","J","109"
"","","approach-retreat","113","947800","0.0-113.0","","","3-5","5807","40","1","Training","Stims/Figures/84-C-20-2.bmp","sa:sa:za","Down","40","7","14","6A","C2","J","110"
"","","approach-retreat","114","954508","0.0-114.0","","","3-5","5188","37","1","Training","Stims/Figures/74-J-10-4.bmp","fafa:sha","Right","37","7","15","6A","C1","J","111"
"","","approach-retreat","115","960557","0.0-115.0","","","3-5","4527","40","0","Training","Stims/Figures/128-C-30-3.bmp","sa:sa:ha","Up","38","7","16","6A","C2","J","112"
"","","approach-retreat","116","966220","0.0-116.0","","","3-5","4143","38","0","Training","Stims/Figures/27-C-30-1.bmp","sasaza","Down","40","8","1","6A","C2","J","113"
"","","approach-retreat","117","971819","0.0-117.0","","","3-5","4087","37","0","Training","Stims/Figures/118-C-20-2.bmp","sa:haha","Right","39","8","2","6A","C2","J","114"
"","","approach-retreat","118","977468","0.0-118.0","","","3-5","4131","40","0","Training","Stims/Figures/100-C-30-3.bmp","zahaha","Up","38","8","3","6A","C2","J","115"
"","","approach-retreat","119","983197","0.0-119.0","","","3-5","4209","38","0","Training","Stims/Figures/84-C-20-2.bmp","sa:sa:za","Down","40","8","4","6A","C2","J","116"
"","","approach-retreat","120","988862","0.0-120.0","","","3-5","4145","39","1","Training","Stims/Figures/100-J-10-3.bmp","vafa:sha","Left","39","8","5","6A","C1","J","117"
"","","approach-retreat","121","994604","0.0-121.0","","","3-5","4231","38","0","Training","Stims/Figures/57-C-30-1.bmp","zasa:za","Down","40","8","6","6A","C2","J","118"
"","","approach-retreat","122","1000298","0.0-122.0","","","3-5","4173","37","1","Training","Stims/Figures/27-J-0-1.bmp","fa:sha:va","Right","37","8","7","6A","C1","J","119"
"","","approach-retreat","123","1006189","0.0-123.0","","","3-5","4371","40","1","Training","Stims/Figures/84-J-0-2.bmp","vafa:va","Up","40","8","8","6A","C1","J","120"
"","","approach-retreat","124","1012359","0.0-124.0","","","3-5","4648","39","1","Training","Stims/Figures/74-J-10-4.bmp","fafa:sha","Left","39","8","9","6A","C1","J","121"
"","","approach-retreat","125","1018193","0.0-125.0","","","3-5","4316","40","1","Training","Stims/Figures/57-J-0-1.bmp","va:shava","Up","40","8","10","6A","C1","J","122"
"","","approach-retreat","126","1025048","0.0-126.0","","","3-5","5338","37","0","Training","Stims/Figures/128-C-30-3.bmp","sa:sa:ha","Right","39","8","11","6A","C2","J","123"
"","","approach-retreat","127","1031679","0.0-127.0","","","3-5","5112","38","0","Training","Stims/Figures/74-C-20-4.bmp","zasa:ha","Down","40","8","12","6A","C2","J","124"
"","","approach-retreat","128","1037444","0.0-128.0","","","3-5","4247","37","0","Training","Stims/Figures/102-C-20-4.bmp","za:haza","Right","39","8","13","6A","C2","J","125"
"","","approach-retreat","129","1043133","0.0-129.0","","","3-5","4167","40","1","Training","Stims/Figures/118-J-0-2.bmp","fa:fa:va","Up","40","8","14","6A","C1","J","126"
"","","approach-retreat","130","1048837","0.0-130.0","","","3-5","4183","39","1","Training","Stims/Figures/102-J-10-4.bmp","va:fa:sha","Left","39","8","15","6A","C1","J","127"
"","","approach-retreat","131","1054804","0.0-131.0","","","3-5","4449","39","1","Training","Stims/Figures/128-J-10-3.bmp","vashasha","Left","39","8","16","6A","C1","J","128"
"","","approach-retreat","132","1060726","0.0-132.0","","","3-5","4403","40","1","Training","Stims/Figures/128-J-10-3.bmp","vashasha","Up","40","9","1","6A","C1","J","129"
"","","approach-retreat","133","1066466","0.0-133.0","","","3-5","4222","37","1","Training","Stims/Figures/100-J-10-3.bmp","vafa:sha","Right","37","9","2","6A","C1","J","130"
"","","approach-retreat","134","1072636","0.0-134.0","","","3-5","4650","38","0","Training","Stims/Figures/84-J-0-2.bmp","vafa:va","Up","40","9","3","6A","C1","J","131"
"","","approach-retreat","135","1078272","0.0-135.0","","","3-5","4117","40","0","Training","Stims/Figures/84-C-20-2.bmp","sa:sa:za","Up","38","9","4","6A","C2","J","132"
"","","approach-retreat","136","1084007","0.0-136.0","","","3-5","4215","38","1","Training","Stims/Figures/118-J-0-2.bmp","fa:fa:va","Down","38","9","5","6A","C1","J","133"
"","","approach-retreat","137","1089675","0.0-137.0","","","3-5","4147","37","1","Training","Stims/Figures/74-J-10-4.bmp","fafa:sha","Right","37","9","6","6A","C1","J","134"
"","","approach-retreat","138","1095317","0.0-138.0","","","3-5","4120","38","0","Training","Stims/Figures/100-C-30-3.bmp","zahaha","Down","40","9","7","6A","C2","J","135"
"","","approach-retreat","139","1101055","0.0-139.0","","","3-5","4220","39","1","Training","Stims/Figures/102-J-10-4.bmp","va:fa:sha","Left","39","9","8","6A","C1","J","136"
"","","approach-retreat","140","1107292","0.0-140.0","","","3-5","4719","40","0","Training","Stims/Figures/128-C-30-3.bmp","sa:sa:ha","Up","38","9","9","6A","C2","J","137"
"","","approach-retreat","141","1113130","0.0-141.0","","","3-5","4319","37","1","Training","Stims/Figures/27-C-30-1.bmp","sasaza","Left","37","9","10","6A","C2","J","138"
"","","approach-retreat","142","1118845","0.0-142.0","","","3-5","4193","38","0","Training","Stims/Figures/74-C-20-4.bmp","zasa:ha","Down","40","9","11","6A","C2","J","139"
"","","approach-retreat","143","1124551","0.0-143.0","","","3-5","4191","39","1","Training","Stims/Figures/27-J-0-1.bmp","fa:sha:va","Left","39","9","12","6A","C1","J","140"
"","","approach-retreat","144","1130439","0.0-144.0","","","3-5","4369","37","1","Training","Stims/Figures/57-J-0-1.bmp","va:shava","Right","37","9","13","6A","C1","J","141"
"","","approach-retreat","145","1136229","0.0-145.0","","","3-5","4275","38","0","Training","Stims/Figures/57-C-30-1.bmp","zasa:za","Down","40","9","14","6A","C2","J","142"
"","","approach-retreat","146","1142005","0.0-146.0","","","3-5","4255","39","0","Training","Stims/Figures/118-C-20-2.bmp","sa:haha","Left","37","9","15","6A","C2","J","143"
"","","approach-retreat","147","1147689","0.0-147.0","","","3-5","4165","37","0","Training","Stims/Figures/102-C-20-4.bmp","za:haza","Right","39","9","16","6A","C2","J","144"
"18268","","instructions","148","1165957","0.0-148.0","[{""page_index"":0,""viewing_time"":18267}]","","","","","","","","","","","","","","","",""
"","","approach-retreat","149","1173858","0.0-149.0","","","3-5","6387","38","0","Testing","Stims/Figures/100-C-30-3.bmp","zahaha","Down","40","1","1","6A","C2","J","1"
"","","approach-retreat","150","1180131","0.0-150.0","","","3-5","4756","40","0","Testing","Stims/Figures/7-J-10-4.bmp","va:sha:sha","Down","38","1","2","6A","C1","J","2"
"","","approach-retreat","151","1186959","0.0-151.0","","","3-5","5313","37","0","Testing","Stims/Figures/74-C-20-4.bmp","zasa:ha","Right","39","1","3","6A","C2","J","3"
"","","approach-retreat","152","1193941","0.0-152.0","","","3-5","5465","40","1","Testing","Stims/Figures/102-C-20-4.bmp","za:haza","Down","40","1","4","6A","C2","J","4"
"","","approach-retreat","153","1199694","0.0-153.0","","","3-5","4239","40","1","Testing","Stims/Figures/93-C-30-1.bmp","za:saha","Down","40","1","5","6A","C2","J","5"
"","","approach-retreat","154","1205495","0.0-154.0","","","3-5","4284","38","0","Testing","Stims/Figures/118-C-20-2.bmp","sa:haha","Down","40","1","6","6A","C2","J","6"
"","","approach-retreat","155","1211157","0.0-155.0","","","3-5","4145","40","1","Testing","Stims/Figures/44-C-30-3.bmp","sa:haza","Down","40","1","7","6A","C2","J","7"
"","","approach-retreat","156","1217017","0.0-156.0","","","3-5","4343","39","0","Testing","Stims/Figures/128-C-30-3.bmp","sa:sa:ha","Left","37","1","8","6A","C2","J","8"
"","","approach-retreat","157","1223336","0.0-157.0","","","3-5","4804","39","1","Testing","Stims/Figures/100-J-10-3.bmp","vafa:sha","Left","39","1","9","6A","C1","J","9"
"","","approach-retreat","158","1232021","0.0-158.0","","","3-5","7170","38","0","Testing","Stims/Figures/44-J-10-3.bmp","fashasha","Up","40","1","10","6A","C1","J","10"
"","","approach-retreat","159","1240037","0.0-159.0","","","3-5","6499","37","0","Testing","Stims/Figures/118-J-0-2.bmp","fa:fa:va","Left","39","1","11","6A","C1","J","11"
"","","approach-retreat","160","1246087","0.0-160.0","","","3-5","4536","40","1","Testing","Stims/Figures/27-J-0-1.bmp","fa:sha:va","Up","40","1","12","6A","C1","J","12"
"","","approach-retreat","161","1253532","0.0-161.0","","","3-5","5929","39","0","Testing","Stims/Figures/93-J-0-1.bmp","fa:fava","Right","37","1","13","6A","C1","J","13"
"","","approach-retreat","162","1259600","0.0-162.0","","","3-5","4552","40","0","Testing","Stims/Figures/27-C-30-1.bmp","sasaza","Up","38","1","14","6A","C2","J","14"
"","","approach-retreat","163","1265691","0.0-163.0","","","3-5","4575","39","1","Testing","Stims/Figures/102-J-10-4.bmp","va:fa:sha","Left","39","1","15","6A","C1","J","15"
"","","approach-retreat","164","1271704","0.0-164.0","","","3-5","4499","40","1","Testing","Stims/Figures/74-J-10-4.bmp","fafa:sha","Up","40","1","16","6A","C1","J","16"
"","","approach-retreat","165","1277554","0.0-165.0","","","3-5","4330","40","1","Testing","Stims/Figures/57-J-0-1.bmp","va:shava","Up","40","1","17","6A","C1","J","17"
"","","approach-retreat","166","1283456","0.0-166.0","","","3-5","4393","39","1","Testing","Stims/Figures/128-J-10-3.bmp","vashasha","Left","39","1","18","6A","C1","J","18"
"","","approach-retreat","167","1289338","0.0-167.0","","","3-5","4355","37","0","Testing","Stims/Figures/84-C-20-2.bmp","sa:sa:za","Right","39","1","19","6A","C2","J","19"
"","","approach-retreat","168","1295977","0.0-168.0","","","3-5","5124","37","0","Testing","Stims/Figures/139-C-20-2.bmp","za:sa:za","Right","39","1","20","6A","C2","J","20"
"","","approach-retreat","169","1302815","0.0-169.0","","","3-5","5321","37","0","Testing","Stims/Figures/139-J-0-2.bmp","fafasha","Left","39","1","21","6A","C1","J","21"
"","","approach-retreat","170","1310449","0.0-170.0","","","3-5","6117","39","0","Testing","Stims/Figures/84-J-0-2.bmp","vafa:va","Right","37","1","22","6A","C1","J","22"
"","","approach-retreat","171","1316378","0.0-171.0","","","3-5","4413","37","0","Testing","Stims/Figures/7-C-20-4.bmp","sahaza","Right","39","1","23","6A","C2","J","23"
"","","approach-retreat","172","1323110","0.0-172.0","","","3-5","5220","40","0","Testing","Stims/Figures/57-C-30-1.bmp","zasa:za","Up","38","1","24","6A","C2","J","24"
"","","approach-retreat","173","1329768","0.0-173.0","","","3-5","5140","37","1","Testing","Stims/Figures/57-J-0-1.bmp","va:shava","Right","37","2","1","6A","C1","J","25"
"","","approach-retreat","174","1338347","0.0-174.0","","","3-5","7064","37","0","Testing","Stims/Figures/128-J-10-3.bmp","vashasha","Left","39","2","2","6A","C1","J","26"
"","","approach-retreat","175","1344528","0.0-175.0","","","3-5","4666","37","1","Testing","Stims/Figures/27-J-0-1.bmp","fa:sha:va","Right","37","2","3","6A","C1","J","27"
"","","approach-retreat","176","1351840","0.0-176.0","","","3-5","5798","40","1","Testing","Stims/Figures/100-J-10-3.bmp","vafa:sha","Up","40","2","4","6A","C1","J","28"
"","","approach-retreat","177","1357468","0.0-177.0","","","3-5","4113","40","1","Testing","Stims/Figures/74-J-10-4.bmp","fafa:sha","Up","40","2","5","6A","C1","J","29"
"","","approach-retreat","178","1363461","0.0-178.0","","","3-5","4477","38","0","Testing","Stims/Figures/74-C-20-4.bmp","zasa:ha","Down","40","2","6","6A","C2","J","30"
"","","approach-retreat","179","1371103","0.0-179.0","","","3-5","6126","37","0","Testing","Stims/Figures/139-C-20-2.bmp","za:sa:za","Right","39","2","7","6A","C2","J","31"
"","","approach-retreat","180","1377073","0.0-180.0","","","3-5","4455","38","1","Testing","Stims/Figures/7-C-20-4.bmp","sahaza","Up","38","2","8","6A","C2","J","32"
"","","approach-retreat","181","1383083","0.0-181.0","","","3-5","4491","38","0","Testing","Stims/Figures/93-J-0-1.bmp","fa:fava","Up","40","2","9","6A","C1","J","33"
"","","approach-retreat","182","1389535","0.0-182.0","","","3-5","4937","39","0","Testing","Stims/Figures/44-J-10-3.bmp","fashasha","Right","37","2","10","6A","C1","J","34"
"","","approach-retreat","183","1397899","0.0-183.0","","","3-5","6845","37","1","Testing","Stims/Figures/84-J-0-2.bmp","vafa:va","Right","37","2","11","6A","C1","J","35"
"","","approach-retreat","184","1405147","0.0-184.0","","","3-5","5732","38","0","Testing","Stims/Figures/102-C-20-4.bmp","za:haza","Down","40","2","12","6A","C2","J","36"
"","","approach-retreat","185","1411177","0.0-185.0","","","3-5","4513","37","0","Testing","Stims/Figures/128-C-30-3.bmp","sa:sa:ha","Right","39","2","13","6A","C2","J","37"
"","","approach-retreat","186","1417136","0.0-186.0","","","3-5","4444","37","0","Testing","Stims/Figures/118-J-0-2.bmp","fa:fa:va","Left","39","2","14","6A","C1","J","38"
"","","approach-retreat","187","1423143","0.0-187.0","","","3-5","4488","37","0","Testing","Stims/Figures/7-J-10-4.bmp","va:sha:sha","Left","39","2","15","6A","C1","J","39"
"","","approach-retreat","188","1429011","0.0-188.0","","","3-5","4353","38","0","Testing","Stims/Figures/57-C-30-1.bmp","zasa:za","Down","40","2","16","6A","C2","J","40"
"","","approach-retreat","189","1435882","0.0-189.0","","","3-5","5356","38","1","Testing","Stims/Figures/118-C-20-2.bmp","sa:haha","Up","38","2","17","6A","C2","J","41"
"","","approach-retreat","190","1441735","0.0-190.0","","","3-5","4339","38","0","Testing","Stims/Figures/84-C-20-2.bmp","sa:sa:za","Down","40","2","18","6A","C2","J","42"
"","","approach-retreat","191","1447518","0.0-191.0","","","3-5","4269","40","0","Testing","Stims/Figures/100-C-30-3.bmp","zahaha","Up","38","2","19","6A","C2","J","43"
"","","approach-retreat","192","1454605","0.0-192.0","","","3-5","5570","40","1","Testing","Stims/Figures/44-C-30-3.bmp","sa:haza","Down","40","2","20","6A","C2","J","44"
"","","approach-retreat","193","1461849","0.0-193.0","","","3-5","5728","37","1","Testing","Stims/Figures/93-C-30-1.bmp","za:saha","Left","37","2","21","6A","C2","J","45"
"","","approach-retreat","194","1468008","0.0-194.0","","","3-5","4644","40","0","Testing","Stims/Figures/139-J-0-2.bmp","fafasha","Down","38","2","22","6A","C1","J","46"
"","","approach-retreat","195","1473929","0.0-195.0","","","3-5","4407","39","1","Testing","Stims/Figures/102-J-10-4.bmp","va:fa:sha","Left","39","2","23","6A","C1","J","47"
"","","approach-retreat","196","1479877","0.0-196.0","","","3-5","4432","39","0","Testing","Stims/Figures/27-C-30-1.bmp","sasaza","Left","37","2","24","6A","C2","J","48"
"","","approach-retreat","197","1486100","0.0-197.0","","","3-5","4707","39","1","Testing","Stims/Figures/100-J-10-3.bmp","vafa:sha","Left","39","3","1","6A","C1","J","49"
"","","approach-retreat","198","1492023","0.0-198.0","","","3-5","4406","39","1","Testing","Stims/Figures/84-J-0-2.bmp","vafa:va","Left","39","3","2","6A","C1","J","50"
"","","approach-retreat","199","1498191","0.0-199.0","","","3-5","4654","39","0","Testing","Stims/Figures/93-J-0-1.bmp","fa:fava","Right","37","3","3","6A","C1","J","51"
"","","approach-retreat","200","1504350","0.0-200.0","","","3-5","4642","37","1","Testing","Stims/Figures/27-C-30-1.bmp","sasaza","Left","37","3","4","6A","C2","J","52"
"","","approach-retreat","201","1511567","0.0-201.0","","","3-5","5704","39","1","Testing","Stims/Figures/44-C-30-3.bmp","sa:haza","Right","39","3","5","6A","C2","J","53"
"","","approach-retreat","202","1517878","0.0-202.0","","","3-5","4794","38","1","Testing","Stims/Figures/74-J-10-4.bmp","fafa:sha","Down","38","3","6","6A","C1","J","54"
"","","approach-retreat","203","1524198","0.0-203.0","","","3-5","4806","38","0","Testing","Stims/Figures/100-C-30-3.bmp","zahaha","Down","40","3","7","6A","C2","J","55"
"","","approach-retreat","204","1532132","0.0-204.0","","","3-5","6419","39","0","Testing","Stims/Figures/128-J-10-3.bmp","vashasha","Right","37","3","8","6A","C1","J","56"
"","","approach-retreat","205","1539461","0.0-205.0","","","3-5","5812","37","1","Testing","Stims/Figures/102-J-10-4.bmp","va:fa:sha","Right","37","3","9","6A","C1","J","57"
"","","approach-retreat","206","1545283","0.0-206.0","","","3-5","4305","40","0","Testing","Stims/Figures/139-C-20-2.bmp","za:sa:za","Up","38","3","10","6A","C2","J","58"
"","","approach-retreat","207","1551773","0.0-207.0","","","3-5","4977","40","0","Testing","Stims/Figures/93-C-30-1.bmp","za:saha","Up","38","3","11","6A","C2","J","59"
"","","approach-retreat","208","1557962","0.0-208.0","","","3-5","4675","40","1","Testing","Stims/Figures/7-J-10-4.bmp","va:sha:sha","Up","40","3","12","6A","C1","J","60"
"","","approach-retreat","209","1564182","0.0-209.0","","","3-5","4703","38","1","Testing","Stims/Figures/27-J-0-1.bmp","fa:sha:va","Down","38","3","13","6A","C1","J","61"
"","","approach-retreat","210","1570613","0.0-210.0","","","3-5","4915","37","1","Testing","Stims/Figures/118-J-0-2.bmp","fa:fa:va","Right","37","3","14","6A","C1","J","62"
"","","approach-retreat","211","1582080","0.0-211.0","","","3-5","9948","40","1","Testing","Stims/Figures/139-J-0-2.bmp","fafasha","Up","40","3","15","6A","C1","J","63"
"","","approach-retreat","212","1589096","0.0-212.0","","","3-5","5499","39","0","Testing","Stims/Figures/102-C-20-4.bmp","za:haza","Left","37","3","16","6A","C2","J","64"
"","","approach-retreat","213","1595110","0.0-213.0","","","3-5","4498","37","1","Testing","Stims/Figures/118-C-20-2.bmp","sa:haha","Left","37","3","17","6A","C2","J","65"
"","","approach-retreat","214","1608725","0.0-214.0","","","3-5","12100","38","0","Testing","Stims/Figures/84-C-20-2.bmp","sa:sa:za","Down","40","3","18","6A","C2","J","66"
"","","approach-retreat","215","1615550","0.0-215.0","","","3-5","5309","39","0","Testing","Stims/Figures/57-C-30-1.bmp","zasa:za","Left","37","3","19","6A","C2","J","67"
"","","approach-retreat","216","1622202","0.0-216.0","","","3-5","5136","38","0","Testing","Stims/Figures/57-J-0-1.bmp","va:shava","Up","40","3","20","6A","C1","J","68"
"","","approach-retreat","217","1633390","0.0-217.0","","","3-5","9672","40","0","Testing","Stims/Figures/128-C-30-3.bmp","sa:sa:ha","Up","38","3","21","6A","C2","J","69"
"","","approach-retreat","218","1640619","0.0-218.0","","","3-5","5713","37","0","Testing","Stims/Figures/74-C-20-4.bmp","zasa:ha","Right","39","3","22","6A","C2","J","70"
"","","approach-retreat","219","1652765","0.0-219.0","","","3-5","10631","38","0","Testing","Stims/Figures/7-C-20-4.bmp","sahaza","Down","40","3","23","6A","C2","J","71"
"","","approach-retreat","220","1658342","0.0-220.0","","","3-5","4061","40","0","Testing","Stims/Figures/44-J-10-3.bmp","fashasha","Down","38","3","24","6A","C1","J","72"
"","","approach-retreat","221","1665156","0.0-221.0","","","3-5","5297","40","1","Testing","Stims/Figures/93-J-0-1.bmp","fa:fava","Up","40","4","1","6A","C1","J","73"
"","","approach-retreat","222","1674790","0.0-222.0","","","3-5","8115","39","1","Testing","Stims/Figures/93-C-30-1.bmp","za:saha","Right","39","4","2","6A","C2","J","74"
"","","approach-retreat","223","1680769","0.0-223.0","","","3-5","4462","39","0","Testing","Stims/Figures/139-J-0-2.bmp","fafasha","Right","37","4","3","6A","C1","J","75"
"","","approach-retreat","224","1689563","0.0-224.0","","","3-5","7278","38","1","Testing","Stims/Figures/74-J-10-4.bmp","fafa:sha","Down","38","4","4","6A","C1","J","76"
"","","approach-retreat","225","1696857","0.0-225.0","","","3-5","5778","39","1","Testing","Stims/Figures/100-J-10-3.bmp","vafa:sha","Left","39","4","5","6A","C1","J","77"
"","","approach-retreat","226","1706452","0.0-226.0","","","3-5","8080","38","1","Testing","Stims/Figures/118-C-20-2.bmp","sa:haha","Up","38","4","6","6A","C2","J","78"
"","","approach-retreat","227","1713192","0.0-227.0","","","3-5","5230","40","0","Testing","Stims/Figures/44-J-10-3.bmp","fashasha","Down","38","4","7","6A","C1","J","79"
"","","approach-retreat","228","1719855","0.0-228.0","","","3-5","5149","39","0","Testing","Stims/Figures/100-C-30-3.bmp","zahaha","Left","37","4","8","6A","C2","J","80"
"","","approach-retreat","229","1726148","0.0-229.0","","","3-5","4779","39","0","Testing","Stims/Figures/84-C-20-2.bmp","sa:sa:za","Left","37","4","9","6A","C2","J","81"
"","","approach-retreat","230","1732818","0.0-230.0","","","3-5","5157","40","1","Testing","Stims/Figures/139-C-20-2.bmp","za:sa:za","Down","40","4","10","6A","C2","J","82"
"","","approach-retreat","231","1740581","0.0-231.0","","","3-5","6248","39","1","Testing","Stims/Figures/102-J-10-4.bmp","va:fa:sha","Left","39","4","11","6A","C1","J","83"
"","","approach-retreat","232","1746327","0.0-232.0","","","3-5","4230","40","0","Testing","Stims/Figures/128-C-30-3.bmp","sa:sa:ha","Up","38","4","12","6A","C2","J","84"
"","","approach-retreat","233","1752356","0.0-233.0","","","3-5","4511","39","0","Testing","Stims/Figures/7-J-10-4.bmp","va:sha:sha","Right","37","4","13","6A","C1","J","85"
"","","approach-retreat","234","1758191","0.0-234.0","","","3-5","4320","40","0","Testing","Stims/Figures/27-C-30-1.bmp","sasaza","Up","38","4","14","6A","C2","J","86"
"","","approach-retreat","235","1764644","0.0-235.0","","","3-5","4938","40","0","Testing","Stims/Figures/57-J-0-1.bmp","va:shava","Down","38","4","15","6A","C1","J","87"
"","","approach-retreat","236","1771763","0.0-236.0","","","3-5","5604","38","0","Testing","Stims/Figures/118-J-0-2.bmp","fa:fa:va","Up","40","4","16","6A","C1","J","88"
"","","approach-retreat","237","1779898","0.0-237.0","","","3-5","6619","38","1","Testing","Stims/Figures/128-J-10-3.bmp","vashasha","Down","38","4","17","6A","C1","J","89"
"","","approach-retreat","238","1786215","0.0-238.0","","","3-5","4801","39","0","Testing","Stims/Figures/57-C-30-1.bmp","zasa:za","Left","37","4","18","6A","C2","J","90"
"","","approach-retreat","239","1792628","0.0-239.0","","","3-5","4900","37","0","Testing","Stims/Figures/102-C-20-4.bmp","za:haza","Right","39","4","19","6A","C2","J","91"
"","","approach-retreat","240","1798948","0.0-240.0","","","3-5","4805","37","0","Testing","Stims/Figures/74-C-20-4.bmp","zasa:ha","Right","39","4","20","6A","C2","J","92"
"","","approach-retreat","241","1805403","0.0-241.0","","","3-5","4934","39","0","Testing","Stims/Figures/7-C-20-4.bmp","sahaza","Left","37","4","21","6A","C2","J","93"
"","","approach-retreat","242","1812816","0.0-242.0","","","3-5","5895","39","0","Testing","Stims/Figures/27-J-0-1.bmp","fa:sha:va","Right","37","4","22","6A","C1","J","94"
"","","approach-retreat","243","1819381","0.0-243.0","","","3-5","5047","38","1","Testing","Stims/Figures/84-J-0-2.bmp","vafa:va","Down","38","4","23","6A","C1","J","95"
"","","approach-retreat","244","1833660","0.0-244.0","","","3-5","12763","38","1","Testing","Stims/Figures/44-C-30-3.bmp","sa:haza","Up","38","4","24","6A","C2","J","96"
"32805","","survey-text","245","1866472","0.0-245.0","","{""Q0"":""0031/2018""}","","","","","","","","","","","","","","",""
