"rt","key_press","trial_type","trial_index","time_elapsed","internal_node_id","view_history","responses","Id","Rt","ResKeyCode","ResCorr","TrialType2","Image","Label","Location","CorrectResponse","Block","BlockTrial","Condition","LabelType","Subcondition","trialNum"
"11214","32","text","0","11216","0.0-0.0-0.0","","","","","","","","","","","","","","","","",""
"37753","","instructions","1","48972","0.0-1.0","[{""page_index"":0,""viewing_time"":37752}]","","","","","","","","","","","","","","","",""
"18629","","survey-multi-choice","2","67630","0.0-2.0","","{""Q0"":""Da"",""Q1"":""Da"",""Q2"":""Da"",""Q3"":""Da"",""Q4"":""Da"",""Q5"":""Da""}","","","","","","","","","","","","","","",""
"","","bio","3","74877","0.0-3.0","","{""age"":""18"",""gender"":""f"",""specify"":""""}","","","","","","","","","","","","","","",""
"","","approach-retreat","4","82766","0.0-4.0","","","3-4","6375","38","1","Training","Stims/Figures/118-C-20-2.bmp","pa:pa:ta","Down","38","1","1","2","P","C","1"
"","","approach-retreat","5","89216","0.0-5.0","","","3-4","4936","37","1","Training","Stims/Figures/93-C-30-1.bmp","pa:pa:ta","Right","37","1","2","2","P","C","2"
"","","approach-retreat","6","95127","0.0-6.0","","","3-4","4401","37","1","Training","Stims/Figures/19-C-20-4.bmp","pa:pa:ta","Right","37","1","3","2","P","C","3"
"","","approach-retreat","7","101929","0.0-7.0","","","3-4","5298","39","0","Training","Stims/Figures/128-J-10-3.bmp","mamana","Left","37","1","4","2","S","C","4"
"","","approach-retreat","8","107739","0.0-8.0","","","3-4","4299","40","1","Training","Stims/Figures/102-C-20-4.bmp","pa:pa:ta","Up","40","1","5","2","P","C","5"
"","","approach-retreat","9","114236","0.0-9.0","","","3-4","4989","40","1","Training","Stims/Figures/118-J-0-2.bmp","mamana","Down","40","1","6","2","S","C","6"
"","","approach-retreat","10","120504","0.0-10.0","","","3-4","4760","37","1","Training","Stims/Figures/93-J-0-1.bmp","mamana","Left","37","1","7","2","S","C","7"
"","","approach-retreat","11","127012","0.0-11.0","","","3-4","5002","39","1","Training","Stims/Figures/19-J-10-4.bmp","mamana","Right","39","1","8","2","S","C","8"
"","","approach-retreat","12","133103","0.0-12.0","","","3-4","4585","40","1","Training","Stims/Figures/128-C-30-3.bmp","pa:pa:ta","Up","40","1","9","2","P","C","9"
"","","approach-retreat","13","138842","0.0-13.0","","","3-4","4234","37","1","Training","Stims/Figures/86-C-30-1.bmp","pa:pa:ta","Right","37","1","10","2","P","C","10"
"","","approach-retreat","14","144418","0.0-14.0","","","3-4","4061","40","1","Training","Stims/Figures/144-J-10-3.bmp","mamana","Down","40","1","11","2","S","C","11"
"","","approach-retreat","15","150043","0.0-15.0","","","3-4","4119","39","1","Training","Stims/Figures/84-C-20-2.bmp","pa:pa:ta","Left","39","1","12","2","P","C","12"
"","","approach-retreat","16","155783","0.0-16.0","","","3-4","4233","40","1","Training","Stims/Figures/144-C-30-3.bmp","pa:pa:ta","Up","40","1","13","2","P","C","13"
"","","approach-retreat","17","162077","0.0-17.0","","","3-4","4785","38","1","Training","Stims/Figures/84-J-0-2.bmp","mamana","Up","38","1","14","2","S","C","14"
"","","approach-retreat","18","168248","0.0-18.0","","","3-4","4665","40","1","Training","Stims/Figures/102-J-10-4.bmp","mamana","Down","40","1","15","2","S","C","15"
"","","approach-retreat","19","174072","0.0-19.0","","","3-4","4318","37","1","Training","Stims/Figures/86-J-0-1.bmp","mamana","Left","37","1","16","2","S","C","16"
"","","approach-retreat","20","179875","0.0-20.0","","","3-4","4294","39","1","Training","Stims/Figures/86-C-30-1.bmp","pa:pa:ta","Left","39","2","1","2","P","C","17"
"","","approach-retreat","21","185943","0.0-21.0","","","3-4","4564","38","1","Training","Stims/Figures/144-J-10-3.bmp","mamana","Up","38","2","2","2","S","C","18"
"","","approach-retreat","22","191719","0.0-22.0","","","3-4","4270","40","1","Training","Stims/Figures/19-J-10-4.bmp","mamana","Down","40","2","3","2","S","C","19"
"","","approach-retreat","23","197621","0.0-23.0","","","3-4","4397","37","1","Training","Stims/Figures/93-C-30-1.bmp","pa:pa:ta","Right","37","2","4","2","P","C","20"
"","","approach-retreat","24","203342","0.0-24.0","","","3-4","4217","38","1","Training","Stims/Figures/144-C-30-3.bmp","pa:pa:ta","Down","38","2","5","2","P","C","21"
"","","approach-retreat","25","208976","0.0-25.0","","","3-4","4126","38","1","Training","Stims/Figures/102-J-10-4.bmp","mamana","Up","38","2","6","2","S","C","22"
"","","approach-retreat","26","214693","0.0-26.0","","","3-4","4207","39","1","Training","Stims/Figures/102-C-20-4.bmp","pa:pa:ta","Left","39","2","7","2","P","C","23"
"","","approach-retreat","27","220856","0.0-27.0","","","3-4","4654","37","1","Training","Stims/Figures/84-J-0-2.bmp","mamana","Left","37","2","8","2","S","C","24"
"","","approach-retreat","28","226450","0.0-28.0","","","3-4","4088","37","1","Training","Stims/Figures/118-C-20-2.bmp","pa:pa:ta","Right","37","2","9","2","P","C","25"
"","","approach-retreat","29","232440","0.0-29.0","","","3-4","4481","38","1","Training","Stims/Figures/86-J-0-1.bmp","mamana","Up","38","2","10","2","S","C","26"
"","","approach-retreat","30","237994","0.0-30.0","","","3-4","4047","37","1","Training","Stims/Figures/128-C-30-3.bmp","pa:pa:ta","Right","37","2","11","2","P","C","27"
"","","approach-retreat","31","243633","0.0-31.0","","","3-4","4132","38","1","Training","Stims/Figures/19-C-20-4.bmp","pa:pa:ta","Down","38","2","12","2","P","C","28"
"","","approach-retreat","32","249169","0.0-32.0","","","3-4","4029","37","1","Training","Stims/Figures/84-C-20-2.bmp","pa:pa:ta","Right","37","2","13","2","P","C","29"
"","","approach-retreat","33","255046","0.0-33.0","","","3-4","4368","38","1","Training","Stims/Figures/128-J-10-3.bmp","mamana","Up","38","2","14","2","S","C","30"
"","","approach-retreat","34","260782","0.0-34.0","","","3-4","4225","40","1","Training","Stims/Figures/93-J-0-1.bmp","mamana","Down","40","2","15","2","S","C","31"
"","","approach-retreat","35","266513","0.0-35.0","","","3-4","4225","37","1","Training","Stims/Figures/118-J-0-2.bmp","mamana","Left","37","2","16","2","S","C","32"
"","","approach-retreat","36","272227","0.0-36.0","","","3-4","4201","39","1","Training","Stims/Figures/128-J-10-3.bmp","mamana","Right","39","3","1","2","S","C","33"
"","","approach-retreat","37","277813","0.0-37.0","","","3-4","4079","38","1","Training","Stims/Figures/144-J-10-3.bmp","mamana","Up","38","3","2","2","S","C","34"
"","","approach-retreat","38","283676","0.0-38.0","","","3-4","4356","38","1","Training","Stims/Figures/93-J-0-1.bmp","mamana","Up","38","3","3","2","S","C","35"
"","","approach-retreat","39","289486","0.0-39.0","","","3-4","4307","37","1","Training","Stims/Figures/102-C-20-4.bmp","pa:pa:ta","Right","37","3","4","2","P","C","36"
"","","approach-retreat","40","295099","0.0-40.0","","","3-4","4106","40","1","Training","Stims/Figures/128-C-30-3.bmp","pa:pa:ta","Up","40","3","5","2","P","C","37"
"","","approach-retreat","41","300871","0.0-41.0","","","3-4","4266","39","1","Training","Stims/Figures/118-C-20-2.bmp","pa:pa:ta","Left","39","3","6","2","P","C","38"
"","","approach-retreat","42","306411","0.0-42.0","","","3-4","4030","38","1","Training","Stims/Figures/84-C-20-2.bmp","pa:pa:ta","Down","38","3","7","2","P","C","39"
"","","approach-retreat","43","311876","0.0-43.0","","","3-4","3958","39","1","Training","Stims/Figures/86-C-30-1.bmp","pa:pa:ta","Left","39","3","8","2","P","C","40"
"","","approach-retreat","44","317815","0.0-44.0","","","3-4","4434","37","1","Training","Stims/Figures/19-J-10-4.bmp","mamana","Left","37","3","9","2","S","C","41"
"","","approach-retreat","45","323518","0.0-45.0","","","3-4","4198","40","1","Training","Stims/Figures/118-J-0-2.bmp","mamana","Down","40","3","10","2","S","C","42"
"","","approach-retreat","46","329220","0.0-46.0","","","3-4","4195","40","1","Training","Stims/Figures/102-J-10-4.bmp","mamana","Down","40","3","11","2","S","C","43"
"","","approach-retreat","47","334822","0.0-47.0","","","3-4","4089","39","1","Training","Stims/Figures/84-J-0-2.bmp","mamana","Right","39","3","12","2","S","C","44"
"","","approach-retreat","48","340841","0.0-48.0","","","3-4","4512","37","1","Training","Stims/Figures/144-C-30-3.bmp","pa:pa:ta","Right","37","3","13","2","P","C","45"
"","","approach-retreat","49","346808","0.0-49.0","","","3-4","4459","38","1","Training","Stims/Figures/93-C-30-1.bmp","pa:pa:ta","Down","38","3","14","2","P","C","46"
"","","approach-retreat","50","352548","0.0-50.0","","","3-4","4229","39","1","Training","Stims/Figures/19-C-20-4.bmp","pa:pa:ta","Left","39","3","15","2","P","C","47"
"","","approach-retreat","51","358396","0.0-51.0","","","3-4","4341","38","1","Training","Stims/Figures/86-J-0-1.bmp","mamana","Up","38","3","16","2","S","C","48"
"","","approach-retreat","52","363852","0.0-52.0","","","3-4","3949","38","1","Training","Stims/Figures/93-C-30-1.bmp","pa:pa:ta","Down","38","4","1","2","P","C","49"
"","","approach-retreat","53","369417","0.0-53.0","","","3-4","4061","37","1","Training","Stims/Figures/128-C-30-3.bmp","pa:pa:ta","Right","37","4","2","2","P","C","50"
"","","approach-retreat","54","374991","0.0-54.0","","","3-4","4066","38","1","Training","Stims/Figures/128-J-10-3.bmp","mamana","Up","38","4","3","2","S","C","51"
"","","approach-retreat","55","380572","0.0-55.0","","","3-4","4074","39","1","Training","Stims/Figures/144-C-30-3.bmp","pa:pa:ta","Left","39","4","4","2","P","C","52"
"","","approach-retreat","56","386809","0.0-56.0","","","3-4","4731","37","1","Training","Stims/Figures/102-J-10-4.bmp","mamana","Left","37","4","5","2","S","C","53"
"","","approach-retreat","57","392597","0.0-57.0","","","3-4","4276","40","1","Training","Stims/Figures/86-J-0-1.bmp","mamana","Down","40","4","6","2","S","C","54"
"","","approach-retreat","58","398166","0.0-58.0","","","3-4","4066","40","1","Training","Stims/Figures/86-C-30-1.bmp","pa:pa:ta","Up","40","4","7","2","P","C","55"
"","","approach-retreat","59","403992","0.0-59.0","","","3-4","4317","39","1","Training","Stims/Figures/144-J-10-3.bmp","mamana","Right","39","4","8","2","S","C","56"
"","","approach-retreat","60","409613","0.0-60.0","","","3-4","4115","37","1","Training","Stims/Figures/118-C-20-2.bmp","pa:pa:ta","Right","37","4","9","2","P","C","57"
"","","approach-retreat","61","415288","0.0-61.0","","","3-4","4166","37","1","Training","Stims/Figures/93-J-0-1.bmp","mamana","Left","37","4","10","2","S","C","58"
"","","approach-retreat","62","420850","0.0-62.0","","","3-4","4056","37","1","Training","Stims/Figures/19-J-10-4.bmp","mamana","Left","37","4","11","2","S","C","59"
"","","approach-retreat","63","426548","0.0-63.0","","","3-4","4192","38","1","Training","Stims/Figures/102-C-20-4.bmp","pa:pa:ta","Down","38","4","12","2","P","C","60"
"","","approach-retreat","64","432108","0.0-64.0","","","3-4","4052","38","1","Training","Stims/Figures/84-J-0-2.bmp","mamana","Up","38","4","13","2","S","C","61"
"","","approach-retreat","65","438183","0.0-65.0","","","3-4","4570","40","1","Training","Stims/Figures/19-C-20-4.bmp","pa:pa:ta","Up","40","4","14","2","P","C","62"
"","","approach-retreat","66","443935","0.0-66.0","","","3-4","4247","40","1","Training","Stims/Figures/118-J-0-2.bmp","mamana","Down","40","4","15","2","S","C","63"
"","","approach-retreat","67","449744","0.0-67.0","","","3-4","4300","37","1","Training","Stims/Figures/84-C-20-2.bmp","pa:pa:ta","Right","37","4","16","2","P","C","64"
"","","approach-retreat","68","455261","0.0-68.0","","","3-4","4010","39","1","Training","Stims/Figures/86-C-30-1.bmp","pa:pa:ta","Left","39","5","1","2","P","C","65"
"","","approach-retreat","69","461075","0.0-69.0","","","3-4","4303","38","1","Training","Stims/Figures/19-J-10-4.bmp","mamana","Up","38","5","2","2","S","C","66"
"","","approach-retreat","70","466896","0.0-70.0","","","3-4","4313","37","1","Training","Stims/Figures/118-J-0-2.bmp","mamana","Left","37","5","3","2","S","C","67"
"","","approach-retreat","71","472714","0.0-71.0","","","3-4","4311","40","1","Training","Stims/Figures/19-C-20-4.bmp","pa:pa:ta","Up","40","5","4","2","P","C","68"
"","","approach-retreat","72","478485","0.0-72.0","","","3-4","4264","39","1","Training","Stims/Figures/102-J-10-4.bmp","mamana","Right","39","5","5","2","S","C","69"
"","","approach-retreat","73","484733","0.0-73.0","","","3-4","4742","37","1","Training","Stims/Figures/128-J-10-3.bmp","mamana","Left","37","5","6","2","S","C","70"
"","","approach-retreat","74","490201","0.0-74.0","","","3-4","3960","38","1","Training","Stims/Figures/93-C-30-1.bmp","pa:pa:ta","Down","38","5","7","2","P","C","71"
"","","approach-retreat","75","495892","0.0-75.0","","","3-4","4185","38","1","Training","Stims/Figures/86-J-0-1.bmp","mamana","Up","38","5","8","2","S","C","72"
"","","approach-retreat","76","501367","0.0-76.0","","","3-4","3969","37","1","Training","Stims/Figures/118-C-20-2.bmp","pa:pa:ta","Right","37","5","9","2","P","C","73"
"","","approach-retreat","77","506887","0.0-77.0","","","3-4","4014","38","1","Training","Stims/Figures/144-C-30-3.bmp","pa:pa:ta","Down","38","5","10","2","P","C","74"
"","","approach-retreat","78","512446","0.0-78.0","","","3-4","4052","39","1","Training","Stims/Figures/84-J-0-2.bmp","mamana","Right","39","5","11","2","S","C","75"
"","","approach-retreat","79","518006","0.0-79.0","","","3-4","4054","39","1","Training","Stims/Figures/102-C-20-4.bmp","pa:pa:ta","Left","39","5","12","2","P","C","76"
"","","approach-retreat","80","523485","0.0-80.0","","","3-4","3974","38","1","Training","Stims/Figures/128-C-30-3.bmp","pa:pa:ta","Down","38","5","13","2","P","C","77"
"","","approach-retreat","81","529044","0.0-81.0","","","3-4","4053","40","1","Training","Stims/Figures/84-C-20-2.bmp","pa:pa:ta","Up","40","5","14","2","P","C","78"
"","","approach-retreat","82","534834","0.0-82.0","","","3-4","4280","40","1","Training","Stims/Figures/144-J-10-3.bmp","mamana","Down","40","5","15","2","S","C","79"
"","","approach-retreat","83","540527","0.0-83.0","","","3-4","4187","39","1","Training","Stims/Figures/93-J-0-1.bmp","mamana","Right","39","5","16","2","S","C","80"
"","","approach-retreat","84","546265","0.0-84.0","","","3-4","4232","38","1","Training","Stims/Figures/19-J-10-4.bmp","mamana","Up","38","6","1","2","S","C","81"
"","","approach-retreat","85","551962","0.0-85.0","","","3-4","4191","38","1","Training","Stims/Figures/93-J-0-1.bmp","mamana","Up","38","6","2","2","S","C","82"
"","","approach-retreat","86","557558","0.0-86.0","","","3-4","4089","38","1","Training","Stims/Figures/102-J-10-4.bmp","mamana","Up","38","6","3","2","S","C","83"
"","","approach-retreat","87","563504","0.0-87.0","","","3-4","4442","38","1","Training","Stims/Figures/19-C-20-4.bmp","pa:pa:ta","Down","38","6","4","2","P","C","84"
"","","approach-retreat","88","569244","0.0-88.0","","","3-4","4221","37","1","Training","Stims/Figures/86-C-30-1.bmp","pa:pa:ta","Right","37","6","5","2","P","C","85"
"","","approach-retreat","89","575419","0.0-89.0","","","3-4","4668","39","1","Training","Stims/Figures/84-J-0-2.bmp","mamana","Right","39","6","6","2","S","C","86"
"","","approach-retreat","90","581212","0.0-90.0","","","3-4","4286","40","1","Training","Stims/Figures/128-J-10-3.bmp","mamana","Down","40","6","7","2","S","C","87"
"","","approach-retreat","91","586942","0.0-91.0","","","3-4","4224","40","1","Training","Stims/Figures/84-C-20-2.bmp","pa:pa:ta","Up","40","6","8","2","P","C","88"
"","","approach-retreat","92","592916","0.0-92.0","","","3-4","4468","37","1","Training","Stims/Figures/86-J-0-1.bmp","mamana","Left","37","6","9","2","S","C","89"
"","","approach-retreat","93","598778","0.0-93.0","","","3-4","4356","39","1","Training","Stims/Figures/144-C-30-3.bmp","pa:pa:ta","Left","39","6","10","2","P","C","90"
"","","approach-retreat","94","604401","0.0-94.0","","","3-4","4116","38","1","Training","Stims/Figures/128-C-30-3.bmp","pa:pa:ta","Down","38","6","11","2","P","C","91"
"","","approach-retreat","95","610032","0.0-95.0","","","3-4","4127","37","1","Training","Stims/Figures/118-C-20-2.bmp","pa:pa:ta","Right","37","6","12","2","P","C","92"
"","","approach-retreat","96","615881","0.0-96.0","","","3-4","4343","37","1","Training","Stims/Figures/144-J-10-3.bmp","mamana","Left","37","6","13","2","S","C","93"
"","","approach-retreat","97","621404","0.0-97.0","","","3-4","4015","37","1","Training","Stims/Figures/93-C-30-1.bmp","pa:pa:ta","Right","37","6","14","2","P","C","94"
"","","approach-retreat","98","627390","0.0-98.0","","","3-4","4480","37","1","Training","Stims/Figures/118-J-0-2.bmp","mamana","Left","37","6","15","2","S","C","95"
"","","approach-retreat","99","632870","0.0-99.0","","","3-4","3970","38","1","Training","Stims/Figures/102-C-20-4.bmp","pa:pa:ta","Down","38","6","16","2","P","C","96"
"","","approach-retreat","100","638510","0.0-100.0","","","3-4","4129","37","1","Training","Stims/Figures/86-J-0-1.bmp","mamana","Left","37","7","1","2","S","C","97"
"","","approach-retreat","101","644407","0.0-101.0","","","3-4","4385","39","1","Training","Stims/Figures/118-C-20-2.bmp","pa:pa:ta","Left","39","7","2","2","P","C","98"
"","","approach-retreat","102","650078","0.0-102.0","","","3-4","4160","38","1","Training","Stims/Figures/19-J-10-4.bmp","mamana","Up","38","7","3","2","S","C","99"
"","","approach-retreat","103","655867","0.0-103.0","","","3-4","4282","39","1","Training","Stims/Figures/84-C-20-2.bmp","pa:pa:ta","Left","39","7","4","2","P","C","100"
"","","approach-retreat","104","661529","0.0-104.0","","","3-4","4154","38","1","Training","Stims/Figures/93-J-0-1.bmp","mamana","Up","38","7","5","2","S","C","101"
"","","approach-retreat","105","667384","0.0-105.0","","","3-4","4347","38","1","Training","Stims/Figures/19-C-20-4.bmp","pa:pa:ta","Down","38","7","6","2","P","C","102"
"","","approach-retreat","106","673140","0.0-106.0","","","3-4","4246","40","1","Training","Stims/Figures/128-J-10-3.bmp","mamana","Down","40","7","7","2","S","C","103"
"","","approach-retreat","107","678719","0.0-107.0","","","3-4","4068","37","1","Training","Stims/Figures/102-C-20-4.bmp","pa:pa:ta","Right","37","7","8","2","P","C","104"
"","","approach-retreat","108","684430","0.0-108.0","","","3-4","4206","37","1","Training","Stims/Figures/144-J-10-3.bmp","mamana","Left","37","7","9","2","S","C","105"
"","","approach-retreat","109","690021","0.0-109.0","","","3-4","4086","37","1","Training","Stims/Figures/128-C-30-3.bmp","pa:pa:ta","Right","37","7","10","2","P","C","106"
"","","approach-retreat","110","695915","0.0-110.0","","","3-4","4383","40","1","Training","Stims/Figures/86-C-30-1.bmp","pa:pa:ta","Up","40","7","11","2","P","C","107"
"","","approach-retreat","111","701517","0.0-111.0","","","3-4","4091","38","1","Training","Stims/Figures/144-C-30-3.bmp","pa:pa:ta","Down","38","7","12","2","P","C","108"
"","","approach-retreat","112","707961","0.0-112.0","","","3-4","4937","38","1","Training","Stims/Figures/84-J-0-2.bmp","mamana","Up","38","7","13","2","S","C","109"
"","","approach-retreat","113","713652","0.0-113.0","","","3-4","4187","37","1","Training","Stims/Figures/93-C-30-1.bmp","pa:pa:ta","Right","37","7","14","2","P","C","110"
"","","approach-retreat","114","719515","0.0-114.0","","","3-4","4359","39","1","Training","Stims/Figures/118-J-0-2.bmp","mamana","Right","39","7","15","2","S","C","111"
"","","approach-retreat","115","725681","0.0-115.0","","","3-4","4659","40","1","Training","Stims/Figures/102-J-10-4.bmp","mamana","Down","40","7","16","2","S","C","112"
"","","approach-retreat","116","731230","0.0-116.0","","","3-4","4042","39","1","Training","Stims/Figures/102-J-10-4.bmp","mamana","Right","39","8","1","2","S","C","113"
"","","approach-retreat","117","736886","0.0-117.0","","","3-4","4150","40","1","Training","Stims/Figures/118-J-0-2.bmp","mamana","Down","40","8","2","2","S","C","114"
"","","approach-retreat","118","743005","0.0-118.0","","","3-4","4610","37","1","Training","Stims/Figures/102-C-20-4.bmp","pa:pa:ta","Right","37","8","3","2","P","C","115"
"","","approach-retreat","119","749297","0.0-119.0","","","3-4","4786","40","1","Training","Stims/Figures/118-C-20-2.bmp","pa:pa:ta","Up","40","8","4","2","P","C","116"
"","","approach-retreat","120","754843","0.0-120.0","","","3-4","4041","39","1","Training","Stims/Figures/84-C-20-2.bmp","pa:pa:ta","Left","39","8","5","2","P","C","117"
"","","approach-retreat","121","760623","0.0-121.0","","","3-4","4273","39","1","Training","Stims/Figures/86-J-0-1.bmp","mamana","Right","39","8","6","2","S","C","118"
"","","approach-retreat","122","767002","0.0-122.0","","","3-4","4875","40","1","Training","Stims/Figures/19-J-10-4.bmp","mamana","Down","40","8","7","2","S","C","119"
"","","approach-retreat","123","772915","0.0-123.0","","","3-4","4407","38","1","Training","Stims/Figures/84-J-0-2.bmp","mamana","Up","38","8","8","2","S","C","120"
"","","approach-retreat","124","779023","0.0-124.0","","","3-4","4603","40","1","Training","Stims/Figures/128-C-30-3.bmp","pa:pa:ta","Up","40","8","9","2","P","C","121"
"","","approach-retreat","125","785088","0.0-125.0","","","3-4","4559","39","1","Training","Stims/Figures/19-C-20-4.bmp","pa:pa:ta","Left","39","8","10","2","P","C","122"
"","","approach-retreat","126","791020","0.0-126.0","","","3-4","4427","40","1","Training","Stims/Figures/93-C-30-1.bmp","pa:pa:ta","Up","40","8","11","2","P","C","123"
"","","approach-retreat","127","797092","0.0-127.0","","","3-4","4568","37","1","Training","Stims/Figures/128-J-10-3.bmp","mamana","Left","37","8","12","2","S","C","124"
"","","approach-retreat","128","802612","0.0-128.0","","","3-4","4013","38","1","Training","Stims/Figures/144-C-30-3.bmp","pa:pa:ta","Down","38","8","13","2","P","C","125"
"","","approach-retreat","129","808724","0.0-129.0","","","3-4","4603","37","1","Training","Stims/Figures/144-J-10-3.bmp","mamana","Left","37","8","14","2","S","C","126"
"","","approach-retreat","130","814742","0.0-130.0","","","3-4","4513","38","1","Training","Stims/Figures/86-C-30-1.bmp","pa:pa:ta","Down","38","8","15","2","P","C","127"
"","","approach-retreat","131","820584","0.0-131.0","","","3-4","4336","39","1","Training","Stims/Figures/93-J-0-1.bmp","mamana","Right","39","8","16","2","S","C","128"
"","","approach-retreat","132","826343","0.0-132.0","","","3-4","4251","39","1","Training","Stims/Figures/84-J-0-2.bmp","mamana","Right","39","9","1","2","S","C","129"
"","","approach-retreat","133","831917","0.0-133.0","","","3-4","4069","39","1","Training","Stims/Figures/93-C-30-1.bmp","pa:pa:ta","Left","39","9","2","2","P","C","130"
"","","approach-retreat","134","837592","0.0-134.0","","","3-4","4169","37","1","Training","Stims/Figures/19-J-10-4.bmp","mamana","Left","37","9","3","2","S","C","131"
"","","approach-retreat","135","843657","0.0-135.0","","","3-4","4555","37","1","Training","Stims/Figures/128-J-10-3.bmp","mamana","Left","37","9","4","2","S","C","132"
"","","approach-retreat","136","849317","0.0-136.0","","","3-4","4152","38","1","Training","Stims/Figures/128-C-30-3.bmp","pa:pa:ta","Down","38","9","5","2","P","C","133"
"","","approach-retreat","137","854803","0.0-137.0","","","3-4","3981","38","1","Training","Stims/Figures/86-C-30-1.bmp","pa:pa:ta","Down","38","9","6","2","P","C","134"
"","","approach-retreat","138","860348","0.0-138.0","","","3-4","4040","37","1","Training","Stims/Figures/93-J-0-1.bmp","mamana","Left","37","9","7","2","S","C","135"
"","","approach-retreat","139","866108","0.0-139.0","","","3-4","4253","38","1","Training","Stims/Figures/144-J-10-3.bmp","mamana","Up","38","9","8","2","S","C","136"
"","","approach-retreat","140","871887","0.0-140.0","","","3-4","4274","40","1","Training","Stims/Figures/84-C-20-2.bmp","pa:pa:ta","Up","40","9","9","2","P","C","137"
"","","approach-retreat","141","877492","0.0-141.0","","","3-4","4098","40","1","Training","Stims/Figures/102-C-20-4.bmp","pa:pa:ta","Up","40","9","10","2","P","C","138"
"","","approach-retreat","142","883003","0.0-142.0","","","3-4","4006","37","1","Training","Stims/Figures/144-C-30-3.bmp","pa:pa:ta","Right","37","9","11","2","P","C","139"
"","","approach-retreat","143","888658","0.0-143.0","","","3-4","4148","37","1","Training","Stims/Figures/19-C-20-4.bmp","pa:pa:ta","Right","37","9","12","2","P","C","140"
"","","approach-retreat","144","894378","0.0-144.0","","","3-4","4213","40","1","Training","Stims/Figures/118-C-20-2.bmp","pa:pa:ta","Up","40","9","13","2","P","C","141"
"","","approach-retreat","145","900198","0.0-145.0","","","3-4","4310","40","1","Training","Stims/Figures/86-J-0-1.bmp","mamana","Down","40","9","14","2","S","C","142"
"","","approach-retreat","146","905971","0.0-146.0","","","3-4","4260","39","1","Training","Stims/Figures/118-J-0-2.bmp","mamana","Right","39","9","15","2","S","C","143"
"","","approach-retreat","147","911580","0.0-147.0","","","3-4","4104","40","1","Training","Stims/Figures/102-J-10-4.bmp","mamana","Down","40","9","16","2","S","C","144"
"8001","","instructions","148","919581","0.0-148.0","[{""page_index"":0,""viewing_time"":8001}]","","","","","","","","","","","","","","","",""
"","","approach-retreat","149","925328","0.0-149.0","","","3-4","4241","39","1","Testing","Stims/Figures/118-J-0-2.bmp","mamana","Right","39","1","1","2","S","C","1"
"","","approach-retreat","150","930895","0.0-150.0","","","3-4","4064","39","1","Testing","Stims/Figures/144-J-10-3.bmp","mamana","Right","39","1","2","2","S","C","2"
"","","approach-retreat","151","936763","0.0-151.0","","","3-4","4362","39","1","Testing","Stims/Figures/19-C-20-4.bmp","pa:pa:ta","Left","39","1","3","2","P","C","3"
"","","approach-retreat","152","942356","0.0-152.0","","","3-4","4087","38","1","Testing","Stims/Figures/86-C-30-1.bmp","pa:pa:ta","Down","38","1","4","2","P","C","4"
"","","approach-retreat","153","947847","0.0-153.0","","","3-4","3986","38","1","Testing","Stims/Figures/144-C-30-3.bmp","pa:pa:ta","Down","38","1","5","2","P","C","5"
"","","approach-retreat","154","953475","0.0-154.0","","","3-4","4120","38","1","Testing","Stims/Figures/118-C-20-2.bmp","pa:pa:ta","Down","38","1","6","2","P","C","6"
"","","approach-retreat","155","959432","0.0-155.0","","","3-4","4452","38","1","Testing","Stims/Figures/93-J-0-1.bmp","mamana","Up","38","1","7","2","S","C","7"
"","","approach-retreat","156","965072","0.0-156.0","","","3-4","4135","38","1","Testing","Stims/Figures/84-C-20-2.bmp","pa:pa:ta","Down","38","1","8","2","P","C","8"
"","","approach-retreat","157","970779","0.0-157.0","","","3-4","4202","38","1","Testing","Stims/Figures/57-J-0-1.bmp","mamana","Up","38","1","9","2","S","C","9"
"","","approach-retreat","158","976621","0.0-158.0","","","3-4","4334","37","1","Testing","Stims/Figures/128-J-10-3.bmp","mamana","Left","37","1","10","2","S","C","10"
"","","approach-retreat","159","982584","0.0-159.0","","","3-4","4456","39","1","Testing","Stims/Figures/85-C-20-2.bmp","pa:pa:ta","Left","39","1","11","2","P","C","11"
"","","approach-retreat","160","988536","0.0-160.0","","","3-4","4446","39","1","Testing","Stims/Figures/111-C-30-3.bmp","pa:pa:ta","Left","39","1","12","2","P","C","12"
"","","approach-retreat","161","994127","0.0-161.0","","","3-4","4085","39","1","Testing","Stims/Figures/84-J-0-2.bmp","mamana","Right","39","1","13","2","S","C","13"
"","","approach-retreat","162","999665","0.0-162.0","","","3-4","4033","38","1","Testing","Stims/Figures/57-C-30-1.bmp","pa:pa:ta","Down","38","1","14","2","P","C","14"
"","","approach-retreat","163","1005222","0.0-163.0","","","3-4","4052","39","1","Testing","Stims/Figures/93-C-30-1.bmp","pa:pa:ta","Left","39","1","15","2","P","C","15"
"","","approach-retreat","164","1010909","0.0-164.0","","","3-4","4181","40","1","Testing","Stims/Figures/85-J-0-2.bmp","mamana","Down","40","1","16","2","S","C","16"
"","","approach-retreat","165","1016662","0.0-165.0","","","3-4","4249","37","1","Testing","Stims/Figures/87-C-20-4.bmp","pa:pa:ta","Right","37","1","17","2","P","C","17"
"","","approach-retreat","166","1022281","0.0-166.0","","","3-4","4111","38","1","Testing","Stims/Figures/19-J-10-4.bmp","mamana","Up","38","1","18","2","S","C","18"
"","","approach-retreat","167","1028113","0.0-167.0","","","3-4","4324","38","1","Testing","Stims/Figures/102-J-10-4.bmp","mamana","Up","38","1","19","2","S","C","19"
"","","approach-retreat","168","1034326","0.0-168.0","","","3-4","4707","37","0","Testing","Stims/Figures/87-J-10-4.bmp","mamana","Right","39","1","20","2","S","C","20"
"","","approach-retreat","169","1040214","0.0-169.0","","","3-4","4383","40","1","Testing","Stims/Figures/102-C-20-4.bmp","pa:pa:ta","Up","40","1","21","2","P","C","21"
"","","approach-retreat","170","1046065","0.0-170.0","","","3-4","4346","39","1","Testing","Stims/Figures/86-J-0-1.bmp","mamana","Right","39","1","22","2","S","C","22"
"","","approach-retreat","171","1051978","0.0-171.0","","","3-4","4407","39","1","Testing","Stims/Figures/128-C-30-3.bmp","pa:pa:ta","Left","39","1","23","2","P","C","23"
"","","approach-retreat","172","1057593","0.0-172.0","","","3-4","4111","38","1","Testing","Stims/Figures/111-J-10-3.bmp","mamana","Up","38","1","24","2","S","C","24"
"","","approach-retreat","173","1063167","0.0-173.0","","","3-4","4070","38","1","Testing","Stims/Figures/144-J-10-3.bmp","mamana","Up","38","2","1","2","S","C","25"
"","","approach-retreat","174","1068999","0.0-174.0","","","3-4","4326","39","1","Testing","Stims/Figures/84-C-20-2.bmp","pa:pa:ta","Left","39","2","2","2","P","C","26"
"","","approach-retreat","175","1074977","0.0-175.0","","","3-4","4469","37","1","Testing","Stims/Figures/86-C-30-1.bmp","pa:pa:ta","Right","37","2","3","2","P","C","27"
"","","approach-retreat","176","1081060","0.0-176.0","","","3-4","4572","39","1","Testing","Stims/Figures/128-C-30-3.bmp","pa:pa:ta","Left","39","2","4","2","P","C","28"
"","","approach-retreat","177","1086590","0.0-177.0","","","3-4","4024","39","1","Testing","Stims/Figures/84-J-0-2.bmp","mamana","Right","39","2","5","2","S","C","29"
"","","approach-retreat","178","1092368","0.0-178.0","","","3-4","4272","38","1","Testing","Stims/Figures/57-C-30-1.bmp","pa:pa:ta","Down","38","2","6","2","P","C","30"
"","","approach-retreat","179","1097945","0.0-179.0","","","3-4","4071","39","1","Testing","Stims/Figures/87-J-10-4.bmp","mamana","Right","39","2","7","2","S","C","31"
"","","approach-retreat","180","1103737","0.0-180.0","","","3-4","4287","38","1","Testing","Stims/Figures/144-C-30-3.bmp","pa:pa:ta","Down","38","2","8","2","P","C","32"
"","","approach-retreat","181","1109455","0.0-181.0","","","3-4","4213","37","1","Testing","Stims/Figures/57-J-0-1.bmp","mamana","Left","37","2","9","2","S","C","33"
"","","approach-retreat","182","1115300","0.0-182.0","","","3-4","4338","40","1","Testing","Stims/Figures/118-C-20-2.bmp","pa:pa:ta","Up","40","2","10","2","P","C","34"
"","","approach-retreat","183","1120791","0.0-183.0","","","3-4","3986","39","1","Testing","Stims/Figures/19-J-10-4.bmp","mamana","Right","39","2","11","2","S","C","35"
"","","approach-retreat","184","1126634","0.0-184.0","","","3-4","4339","40","1","Testing","Stims/Figures/118-J-0-2.bmp","mamana","Down","40","2","12","2","S","C","36"
"","","approach-retreat","185","1132216","0.0-185.0","","","3-4","4078","39","1","Testing","Stims/Figures/93-C-30-1.bmp","pa:pa:ta","Left","39","2","13","2","P","C","37"
"","","approach-retreat","186","1137952","0.0-186.0","","","3-4","4229","40","1","Testing","Stims/Figures/111-C-30-3.bmp","pa:pa:ta","Up","40","2","14","2","P","C","38"
"","","approach-retreat","187","1143611","0.0-187.0","","","3-4","4154","39","1","Testing","Stims/Figures/102-J-10-4.bmp","mamana","Right","39","2","15","2","S","C","39"
"","","approach-retreat","188","1149117","0.0-188.0","","","3-4","3999","39","1","Testing","Stims/Figures/128-J-10-3.bmp","mamana","Right","39","2","16","2","S","C","40"
"","","approach-retreat","189","1154642","0.0-189.0","","","3-4","4019","39","1","Testing","Stims/Figures/85-C-20-2.bmp","pa:pa:ta","Left","39","2","17","2","P","C","41"
"","","approach-retreat","190","1160536","0.0-190.0","","","3-4","4389","40","1","Testing","Stims/Figures/111-J-10-3.bmp","mamana","Down","40","2","18","2","S","C","42"
"","","approach-retreat","191","1166262","0.0-191.0","","","3-4","4221","38","1","Testing","Stims/Figures/93-J-0-1.bmp","mamana","Up","38","2","19","2","S","C","43"
"","","approach-retreat","192","1172594","0.0-192.0","","","3-4","4828","38","1","Testing","Stims/Figures/87-C-20-4.bmp","pa:pa:ta","Down","38","2","20","2","P","C","44"
"","","approach-retreat","193","1179174","0.0-193.0","","","3-4","5076","40","1","Testing","Stims/Figures/86-J-0-1.bmp","mamana","Down","40","2","21","2","S","C","45"
"","","approach-retreat","194","1184778","0.0-194.0","","","3-4","4093","38","1","Testing","Stims/Figures/85-J-0-2.bmp","mamana","Up","38","2","22","2","S","C","46"
"","","approach-retreat","195","1190371","0.0-195.0","","","3-4","4086","40","1","Testing","Stims/Figures/102-C-20-4.bmp","pa:pa:ta","Up","40","2","23","2","P","C","47"
"","","approach-retreat","196","1196182","0.0-196.0","","","3-4","4304","37","0","Testing","Stims/Figures/19-C-20-4.bmp","pa:pa:ta","Left","39","2","24","2","P","C","48"
"","","approach-retreat","197","1201774","0.0-197.0","","","3-4","4088","38","1","Testing","Stims/Figures/87-J-10-4.bmp","mamana","Up","38","3","1","2","S","C","49"
"","","approach-retreat","198","1207378","0.0-198.0","","","3-4","4097","37","1","Testing","Stims/Figures/102-J-10-4.bmp","mamana","Left","37","3","2","2","S","C","50"
"","","approach-retreat","199","1213293","0.0-199.0","","","3-4","4411","37","1","Testing","Stims/Figures/87-C-20-4.bmp","pa:pa:ta","Right","37","3","3","2","P","C","51"
"","","approach-retreat","200","1219041","0.0-200.0","","","3-4","4244","38","1","Testing","Stims/Figures/144-J-10-3.bmp","mamana","Up","38","3","4","2","S","C","52"
"","","approach-retreat","201","1224643","0.0-201.0","","","3-4","4096","37","1","Testing","Stims/Figures/128-J-10-3.bmp","mamana","Left","37","3","5","2","S","C","53"
"","","approach-retreat","202","1230236","0.0-202.0","","","3-4","4083","40","1","Testing","Stims/Figures/93-J-0-1.bmp","mamana","Down","40","3","6","2","S","C","54"
"","","approach-retreat","203","1235798","0.0-203.0","","","3-4","4056","40","1","Testing","Stims/Figures/128-C-30-3.bmp","pa:pa:ta","Up","40","3","7","2","P","C","55"
"","","approach-retreat","204","1241444","0.0-204.0","","","3-4","4140","38","1","Testing","Stims/Figures/19-J-10-4.bmp","mamana","Up","38","3","8","2","S","C","56"
"","","approach-retreat","205","1247193","0.0-205.0","","","3-4","4240","37","1","Testing","Stims/Figures/57-C-30-1.bmp","pa:pa:ta","Right","37","3","9","2","P","C","57"
"","","approach-retreat","206","1252858","0.0-206.0","","","3-4","4158","37","1","Testing","Stims/Figures/102-C-20-4.bmp","pa:pa:ta","Right","37","3","10","2","P","C","58"
"","","approach-retreat","207","1258452","0.0-207.0","","","3-4","4089","37","1","Testing","Stims/Figures/118-J-0-2.bmp","mamana","Left","37","3","11","2","S","C","59"
"","","approach-retreat","208","1264858","0.0-208.0","","","3-4","4898","39","1","Testing","Stims/Figures/85-J-0-2.bmp","mamana","Right","39","3","12","2","S","C","60"
"","","approach-retreat","209","1270582","0.0-209.0","","","3-4","4215","37","1","Testing","Stims/Figures/111-J-10-3.bmp","mamana","Left","37","3","13","2","S","C","61"
"","","approach-retreat","210","1276026","0.0-210.0","","","3-4","3938","38","1","Testing","Stims/Figures/86-C-30-1.bmp","pa:pa:ta","Down","38","3","14","2","P","C","62"
"","","approach-retreat","211","1282211","0.0-211.0","","","3-4","4675","40","1","Testing","Stims/Figures/93-C-30-1.bmp","pa:pa:ta","Up","40","3","15","2","P","C","63"
"","","approach-retreat","212","1287896","0.0-212.0","","","3-4","4182","39","1","Testing","Stims/Figures/84-C-20-2.bmp","pa:pa:ta","Left","39","3","16","2","P","C","64"
"","","approach-retreat","213","1293426","0.0-213.0","","","3-4","4022","38","1","Testing","Stims/Figures/144-C-30-3.bmp","pa:pa:ta","Down","38","3","17","2","P","C","65"
"","","approach-retreat","214","1299039","0.0-214.0","","","3-4","4108","39","1","Testing","Stims/Figures/86-J-0-1.bmp","mamana","Right","39","3","18","2","S","C","66"
"","","approach-retreat","215","1305019","0.0-215.0","","","3-4","4473","40","1","Testing","Stims/Figures/84-J-0-2.bmp","mamana","Down","40","3","19","2","S","C","67"
"","","approach-retreat","216","1310932","0.0-216.0","","","3-4","4410","40","1","Testing","Stims/Figures/19-C-20-4.bmp","pa:pa:ta","Up","40","3","20","2","P","C","68"
"","","approach-retreat","217","1316977","0.0-217.0","","","3-4","4540","37","1","Testing","Stims/Figures/57-J-0-1.bmp","mamana","Left","37","3","21","2","S","C","69"
"","","approach-retreat","218","1324526","0.0-218.0","","","3-4","6043","38","1","Testing","Stims/Figures/118-C-20-2.bmp","pa:pa:ta","Down","38","3","22","2","P","C","70"
"","","approach-retreat","219","1330263","0.0-219.0","","","3-4","4226","38","1","Testing","Stims/Figures/85-C-20-2.bmp","pa:pa:ta","Down","38","3","23","2","P","C","71"
"","","approach-retreat","220","1335876","0.0-220.0","","","3-4","4105","37","1","Testing","Stims/Figures/111-C-30-3.bmp","pa:pa:ta","Right","37","3","24","2","P","C","72"
"","","approach-retreat","221","1341396","0.0-221.0","","","3-4","4017","40","1","Testing","Stims/Figures/85-J-0-2.bmp","mamana","Down","40","4","1","2","S","C","73"
"","","approach-retreat","222","1346931","0.0-222.0","","","3-4","4026","39","1","Testing","Stims/Figures/128-C-30-3.bmp","pa:pa:ta","Left","39","4","2","2","P","C","74"
"","","approach-retreat","223","1352557","0.0-223.0","","","3-4","4122","38","1","Testing","Stims/Figures/87-C-20-4.bmp","pa:pa:ta","Down","38","4","3","2","P","C","75"
"","","approach-retreat","224","1358220","0.0-224.0","","","3-4","4157","40","1","Testing","Stims/Figures/118-J-0-2.bmp","mamana","Down","40","4","4","2","S","C","76"
"","","approach-retreat","225","1363862","0.0-225.0","","","3-4","4137","40","1","Testing","Stims/Figures/87-J-10-4.bmp","mamana","Down","40","4","5","2","S","C","77"
"","","approach-retreat","226","1369354","0.0-226.0","","","3-4","3987","39","1","Testing","Stims/Figures/102-C-20-4.bmp","pa:pa:ta","Left","39","4","6","2","P","C","78"
"","","approach-retreat","227","1375304","0.0-227.0","","","3-4","4444","40","1","Testing","Stims/Figures/86-J-0-1.bmp","mamana","Down","40","4","7","2","S","C","79"
"","","approach-retreat","228","1380828","0.0-228.0","","","3-4","4017","40","1","Testing","Stims/Figures/111-J-10-3.bmp","mamana","Down","40","4","8","2","S","C","80"
"","","approach-retreat","229","1386471","0.0-229.0","","","3-4","4137","39","1","Testing","Stims/Figures/144-C-30-3.bmp","pa:pa:ta","Left","39","4","9","2","P","C","81"
"","","approach-retreat","230","1392131","0.0-230.0","","","3-4","4155","37","1","Testing","Stims/Figures/86-C-30-1.bmp","pa:pa:ta","Right","37","4","10","2","P","C","82"
"","","approach-retreat","231","1397964","0.0-231.0","","","3-4","4329","38","1","Testing","Stims/Figures/144-J-10-3.bmp","mamana","Up","38","4","11","2","S","C","83"
"","","approach-retreat","232","1404168","0.0-232.0","","","3-4","4697","39","1","Testing","Stims/Figures/93-C-30-1.bmp","pa:pa:ta","Left","39","4","12","2","P","C","84"
"","","approach-retreat","233","1409790","0.0-233.0","","","3-4","4118","39","1","Testing","Stims/Figures/19-J-10-4.bmp","mamana","Right","39","4","13","2","S","C","85"
"","","approach-retreat","234","1415259","0.0-234.0","","","3-4","3960","40","1","Testing","Stims/Figures/57-C-30-1.bmp","pa:pa:ta","Up","40","4","14","2","P","C","86"
"","","approach-retreat","235","1420771","0.0-235.0","","","3-4","4002","38","1","Testing","Stims/Figures/102-J-10-4.bmp","mamana","Up","38","4","15","2","S","C","87"
"","","approach-retreat","236","1426383","0.0-236.0","","","3-4","4106","40","1","Testing","Stims/Figures/84-C-20-2.bmp","pa:pa:ta","Up","40","4","16","2","P","C","88"
"","","approach-retreat","237","1431971","0.0-237.0","","","3-4","4081","39","1","Testing","Stims/Figures/84-J-0-2.bmp","mamana","Right","39","4","17","2","S","C","89"
"","","approach-retreat","238","1438247","0.0-238.0","","","3-4","4768","39","1","Testing","Stims/Figures/57-J-0-1.bmp","mamana","Right","39","4","18","2","S","C","90"
"","","approach-retreat","239","1443955","0.0-239.0","","","3-4","4206","39","1","Testing","Stims/Figures/111-C-30-3.bmp","pa:pa:ta","Left","39","4","19","2","P","C","91"
"","","approach-retreat","240","1449924","0.0-240.0","","","3-4","4464","37","1","Testing","Stims/Figures/19-C-20-4.bmp","pa:pa:ta","Right","37","4","20","2","P","C","92"
"","","approach-retreat","241","1455827","0.0-241.0","","","3-4","4397","40","0","Testing","Stims/Figures/128-J-10-3.bmp","mamana","Up","38","4","21","2","S","C","93"
"","","approach-retreat","242","1462168","0.0-242.0","","","3-4","4835","40","1","Testing","Stims/Figures/118-C-20-2.bmp","pa:pa:ta","Up","40","4","22","2","P","C","94"
"","","approach-retreat","243","1467859","0.0-243.0","","","3-4","4185","37","1","Testing","Stims/Figures/85-C-20-2.bmp","pa:pa:ta","Right","37","4","23","2","P","C","95"
"","","approach-retreat","244","1473991","0.0-244.0","","","3-4","4618","37","1","Testing","Stims/Figures/93-J-0-1.bmp","mamana","Left","37","4","24","2","S","C","96"
"40609","","survey-text","245","1514605","0.0-245.0","","{""Q0"":""PS180084""}","","","","","","","","","","","","","","",""
