"rt","key_press","trial_type","trial_index","time_elapsed","internal_node_id","view_history","responses","Id","Rt","ResKeyCode","ResCorr","TrialType2","Image","Label","Location","CorrectResponse","Block","BlockTrial","Condition","LabelType","Subcondition","trialNum"
"50810","32","text","0","50813","0.0-0.0-0.0","","","","","","","","","","","","","","","","",""
"80657","","instructions","1","131472","0.0-1.0","[{""page_index"":0,""viewing_time"":80657}]","","","","","","","","","","","","","","","",""
"43642","","survey-multi-choice","2","175141","0.0-2.0","","{""Q0"":""Da"",""Q1"":""Da"",""Q2"":""Da"",""Q3"":""Da"",""Q4"":""Da"",""Q5"":""Da""}","","","","","","","","","","","","","","",""
"","","bio","3","186997","0.0-3.0","","{""age"":""19"",""gender"":""m"",""specify"":""""}","","","","","","","","","","","","","","",""
"","","approach-retreat","4","199747","0.0-4.0","","","2-5","11239","39","0","Training","Stims/Figures/44-C-30-3.bmp","za:ha:za","Right","37","1","1","6A","C2","C","1"
"","","approach-retreat","5","207172","0.0-5.0","","","2-5","5917","40","0","Training","Stims/Figures/57-C-30-1.bmp","za:saza","Down","38","1","2","6A","C2","C","2"
"","","approach-retreat","6","217538","0.0-6.0","","","2-5","8860","38","0","Training","Stims/Figures/139-J-0-2.bmp","fasha:sha","Down","40","1","3","6A","C1","C","3"
"","","approach-retreat","7","223952","0.0-7.0","","","2-5","4907","40","1","Training","Stims/Figures/71-J-0-1.bmp","fafa:sha","Down","40","1","4","6A","C1","C","4"
"","","approach-retreat","8","230295","0.0-8.0","","","2-5","4837","40","0","Training","Stims/Figures/44-J-10-3.bmp","vasha:va","Up","38","1","5","6A","C1","C","5"
"","","approach-retreat","9","236330","0.0-9.0","","","2-5","4530","39","1","Training","Stims/Figures/71-C-30-1.bmp","sa:saza","Left","39","1","6","6A","C2","C","6"
"","","approach-retreat","10","242782","0.0-10.0","","","2-5","4945","40","1","Training","Stims/Figures/139-C-20-2.bmp","zasaha","Up","40","1","7","6A","C2","C","7"
"","","approach-retreat","11","249206","0.0-11.0","","","2-5","4918","37","0","Training","Stims/Figures/118-J-0-2.bmp","fafava","Right","39","1","8","6A","C1","C","8"
"","","approach-retreat","12","255532","0.0-12.0","","","2-5","4819","37","0","Training","Stims/Figures/111-C-30-3.bmp","sa:saha","Left","39","1","9","6A","C2","C","9"
"","","approach-retreat","13","261385","0.0-13.0","","","2-5","4348","40","0","Training","Stims/Figures/7-J-10-4.bmp","va:fa:sha","Up","38","1","10","6A","C1","C","10"
"","","approach-retreat","14","267659","0.0-14.0","","","2-5","4768","37","0","Training","Stims/Figures/118-C-20-2.bmp","za:haha","Left","39","1","11","6A","C2","C","11"
"","","approach-retreat","15","273133","0.0-15.0","","","2-5","3967","40","0","Training","Stims/Figures/111-J-10-3.bmp","vafava","Up","38","1","12","6A","C1","C","12"
"","","approach-retreat","16","279653","0.0-16.0","","","2-5","5014","38","0","Training","Stims/Figures/57-J-0-1.bmp","fa:shasha","Down","40","1","13","6A","C1","C","13"
"","","approach-retreat","17","285550","0.0-17.0","","","2-5","4390","37","1","Training","Stims/Figures/7-C-20-4.bmp","saha:ha","Right","37","1","14","6A","C2","C","14"
"","","approach-retreat","18","291277","0.0-18.0","","","2-5","4221","37","0","Training","Stims/Figures/87-J-10-4.bmp","va:sha:va","Right","39","1","15","6A","C1","C","15"
"","","approach-retreat","19","296719","0.0-19.0","","","2-5","3935","39","1","Training","Stims/Figures/87-C-20-4.bmp","saha:za","Left","39","1","16","6A","C2","C","16"
"","","approach-retreat","20","306207","0.0-20.0","","","2-5","7983","38","1","Training","Stims/Figures/57-C-30-1.bmp","za:saza","Down","38","2","1","6A","C2","C","17"
"","","approach-retreat","21","312480","0.0-21.0","","","2-5","4766","40","1","Training","Stims/Figures/57-J-0-1.bmp","fa:shasha","Down","40","2","2","6A","C1","C","18"
"","","approach-retreat","22","319736","0.0-22.0","","","2-5","5749","40","0","Training","Stims/Figures/111-J-10-3.bmp","vafava","Up","38","2","3","6A","C1","C","19"
"","","approach-retreat","23","325742","0.0-23.0","","","2-5","4499","37","0","Training","Stims/Figures/7-J-10-4.bmp","va:fa:sha","Right","39","2","4","6A","C1","C","20"
"","","approach-retreat","24","331373","0.0-24.0","","","2-5","4125","38","1","Training","Stims/Figures/111-C-30-3.bmp","sa:saha","Down","38","2","5","6A","C2","C","21"
"","","approach-retreat","25","336875","0.0-25.0","","","2-5","3995","40","1","Training","Stims/Figures/7-C-20-4.bmp","saha:ha","Up","40","2","6","6A","C2","C","22"
"","","approach-retreat","26","343130","0.0-26.0","","","2-5","4747","38","0","Training","Stims/Figures/118-J-0-2.bmp","fafava","Down","40","2","7","6A","C1","C","23"
"","","approach-retreat","27","348757","0.0-27.0","","","2-5","4113","37","0","Training","Stims/Figures/44-C-30-3.bmp","za:ha:za","Left","39","2","8","6A","C2","C","24"
"","","approach-retreat","28","354511","0.0-28.0","","","2-5","4247","39","0","Training","Stims/Figures/44-J-10-3.bmp","vasha:va","Left","37","2","9","6A","C1","C","25"
"","","approach-retreat","29","360196","0.0-29.0","","","2-5","4178","38","1","Training","Stims/Figures/71-J-0-1.bmp","fafa:sha","Up","38","2","10","6A","C1","C","26"
"","","approach-retreat","30","366155","0.0-30.0","","","2-5","4452","37","0","Training","Stims/Figures/118-C-20-2.bmp","za:haha","Left","39","2","11","6A","C2","C","27"
"","","approach-retreat","31","371784","0.0-31.0","","","2-5","4122","39","0","Training","Stims/Figures/87-J-10-4.bmp","va:sha:va","Left","37","2","12","6A","C1","C","28"
"","","approach-retreat","32","377536","0.0-32.0","","","2-5","4245","39","0","Training","Stims/Figures/87-C-20-4.bmp","saha:za","Right","37","2","13","6A","C2","C","29"
"","","approach-retreat","33","383798","0.0-33.0","","","2-5","4755","37","1","Training","Stims/Figures/71-C-30-1.bmp","sa:saza","Right","37","2","14","6A","C2","C","30"
"","","approach-retreat","34","389504","0.0-34.0","","","2-5","4199","40","0","Training","Stims/Figures/139-J-0-2.bmp","fasha:sha","Up","38","2","15","6A","C1","C","31"
"","","approach-retreat","35","395053","0.0-35.0","","","2-5","4042","37","1","Training","Stims/Figures/139-C-20-2.bmp","zasaha","Right","37","2","16","6A","C2","C","32"
"","","approach-retreat","36","401146","0.0-36.0","","","2-5","4587","40","1","Training","Stims/Figures/71-C-30-1.bmp","sa:saza","Up","40","3","1","6A","C2","C","33"
"","","approach-retreat","37","407430","0.0-37.0","","","2-5","4777","38","0","Training","Stims/Figures/139-C-20-2.bmp","zasaha","Up","40","3","2","6A","C2","C","34"
"","","approach-retreat","38","413300","0.0-38.0","","","2-5","4365","37","0","Training","Stims/Figures/111-J-10-3.bmp","vafava","Right","39","3","3","6A","C1","C","35"
"","","approach-retreat","39","419229","0.0-39.0","","","2-5","4422","39","0","Training","Stims/Figures/7-J-10-4.bmp","va:fa:sha","Left","37","3","4","6A","C1","C","36"
"","","approach-retreat","40","425589","0.0-40.0","","","2-5","4854","40","0","Training","Stims/Figures/87-C-20-4.bmp","saha:za","Down","38","3","5","6A","C2","C","37"
"","","approach-retreat","41","431513","0.0-41.0","","","2-5","4418","37","1","Training","Stims/Figures/57-C-30-1.bmp","za:saza","Right","37","3","6","6A","C2","C","38"
"","","approach-retreat","42","437572","0.0-42.0","","","2-5","4552","38","1","Training","Stims/Figures/118-C-20-2.bmp","za:haha","Down","38","3","7","6A","C2","C","39"
"","","approach-retreat","43","443403","0.0-43.0","","","2-5","4323","40","0","Training","Stims/Figures/44-J-10-3.bmp","vasha:va","Up","38","3","8","6A","C1","C","40"
"","","approach-retreat","44","448927","0.0-44.0","","","2-5","4018","39","0","Training","Stims/Figures/71-J-0-1.bmp","fafa:sha","Left","37","3","9","6A","C1","C","41"
"","","approach-retreat","45","454792","0.0-45.0","","","2-5","4359","40","0","Training","Stims/Figures/118-J-0-2.bmp","fafava","Up","38","3","10","6A","C1","C","42"
"","","approach-retreat","46","460175","0.0-46.0","","","2-5","3877","38","1","Training","Stims/Figures/7-C-20-4.bmp","saha:ha","Down","38","3","11","6A","C2","C","43"
"","","approach-retreat","47","465545","0.0-47.0","","","2-5","3863","37","0","Training","Stims/Figures/111-C-30-3.bmp","sa:saha","Left","39","3","12","6A","C2","C","44"
"","","approach-retreat","48","471330","0.0-48.0","","","2-5","4279","38","0","Training","Stims/Figures/139-J-0-2.bmp","fasha:sha","Down","40","3","13","6A","C1","C","45"
"","","approach-retreat","49","476866","0.0-49.0","","","2-5","4032","37","0","Training","Stims/Figures/57-J-0-1.bmp","fa:shasha","Right","39","3","14","6A","C1","C","46"
"","","approach-retreat","50","483053","0.0-50.0","","","2-5","4682","37","1","Training","Stims/Figures/87-J-10-4.bmp","va:sha:va","Left","37","3","15","6A","C1","C","47"
"","","approach-retreat","51","489074","0.0-51.0","","","2-5","4514","37","1","Training","Stims/Figures/44-C-30-3.bmp","za:ha:za","Right","37","3","16","6A","C2","C","48"
"","","approach-retreat","52","494789","0.0-52.0","","","2-5","4209","38","1","Training","Stims/Figures/71-C-30-1.bmp","sa:saza","Down","38","4","1","6A","C2","C","49"
"","","approach-retreat","53","500701","0.0-53.0","","","2-5","4407","40","1","Training","Stims/Figures/139-J-0-2.bmp","fasha:sha","Down","40","4","2","6A","C1","C","50"
"","","approach-retreat","54","506635","0.0-54.0","","","2-5","4427","38","0","Training","Stims/Figures/44-C-30-3.bmp","za:ha:za","Up","40","4","3","6A","C2","C","51"
"","","approach-retreat","55","512437","0.0-55.0","","","2-5","4294","39","0","Training","Stims/Figures/7-J-10-4.bmp","va:fa:sha","Left","37","4","4","6A","C1","C","52"
"","","approach-retreat","56","519167","0.0-56.0","","","2-5","5223","37","0","Training","Stims/Figures/57-J-0-1.bmp","fa:shasha","Right","39","4","5","6A","C1","C","53"
"","","approach-retreat","57","525032","0.0-57.0","","","2-5","4359","40","0","Training","Stims/Figures/44-J-10-3.bmp","vasha:va","Up","38","4","6","6A","C1","C","54"
"","","approach-retreat","58","531506","0.0-58.0","","","2-5","4967","37","0","Training","Stims/Figures/139-C-20-2.bmp","zasaha","Left","39","4","7","6A","C2","C","55"
"","","approach-retreat","59","537319","0.0-59.0","","","2-5","4307","38","0","Training","Stims/Figures/111-C-30-3.bmp","sa:saha","Up","40","4","8","6A","C2","C","56"
"","","approach-retreat","60","544346","0.0-60.0","","","2-5","5521","37","1","Training","Stims/Figures/7-C-20-4.bmp","saha:ha","Right","37","4","9","6A","C2","C","57"
"","","approach-retreat","61","550514","0.0-61.0","","","2-5","4662","39","1","Training","Stims/Figures/87-J-10-4.bmp","va:sha:va","Right","39","4","10","6A","C1","C","58"
"","","approach-retreat","62","556570","0.0-62.0","","","2-5","4549","38","1","Training","Stims/Figures/87-C-20-4.bmp","saha:za","Down","38","4","11","6A","C2","C","59"
"","","approach-retreat","63","563704","0.0-63.0","","","2-5","5626","37","0","Training","Stims/Figures/71-J-0-1.bmp","fafa:sha","Right","39","4","12","6A","C1","C","60"
"","","approach-retreat","64","571765","0.0-64.0","","","2-5","6555","39","1","Training","Stims/Figures/118-C-20-2.bmp","za:haha","Left","39","4","13","6A","C2","C","61"
"","","approach-retreat","65","577643","0.0-65.0","","","2-5","4372","40","0","Training","Stims/Figures/57-C-30-1.bmp","za:saza","Down","38","4","14","6A","C2","C","62"
"","","approach-retreat","66","583474","0.0-66.0","","","2-5","4327","38","1","Training","Stims/Figures/111-J-10-3.bmp","vafava","Up","38","4","15","6A","C1","C","63"
"","","approach-retreat","67","589303","0.0-67.0","","","2-5","4322","37","1","Training","Stims/Figures/118-J-0-2.bmp","fafava","Left","37","4","16","6A","C1","C","64"
"","","approach-retreat","68","595158","0.0-68.0","","","2-5","4349","37","1","Training","Stims/Figures/71-C-30-1.bmp","sa:saza","Right","37","5","1","6A","C2","C","65"
"","","approach-retreat","69","600701","0.0-69.0","","","2-5","4036","38","1","Training","Stims/Figures/139-J-0-2.bmp","fasha:sha","Up","38","5","2","6A","C1","C","66"
"","","approach-retreat","70","606429","0.0-70.0","","","2-5","4222","38","1","Training","Stims/Figures/111-C-30-3.bmp","sa:saha","Down","38","5","3","6A","C2","C","67"
"","","approach-retreat","71","612495","0.0-71.0","","","2-5","4561","37","1","Training","Stims/Figures/111-J-10-3.bmp","vafava","Left","37","5","4","6A","C1","C","68"
"","","approach-retreat","72","618323","0.0-72.0","","","2-5","4320","37","1","Training","Stims/Figures/57-J-0-1.bmp","fa:shasha","Left","37","5","5","6A","C1","C","69"
"","","approach-retreat","73","623972","0.0-73.0","","","2-5","4143","39","0","Training","Stims/Figures/118-C-20-2.bmp","za:haha","Right","37","5","6","6A","C2","C","70"
"","","approach-retreat","74","630853","0.0-74.0","","","2-5","5376","40","0","Training","Stims/Figures/57-C-30-1.bmp","za:saza","Down","38","5","7","6A","C2","C","71"
"","","approach-retreat","75","636679","0.0-75.0","","","2-5","4319","38","0","Training","Stims/Figures/139-C-20-2.bmp","zasaha","Up","40","5","8","6A","C2","C","72"
"","","approach-retreat","76","642227","0.0-76.0","","","2-5","4043","37","0","Training","Stims/Figures/44-J-10-3.bmp","vasha:va","Right","39","5","9","6A","C1","C","73"
"","","approach-retreat","77","648138","0.0-77.0","","","2-5","4406","39","1","Training","Stims/Figures/7-J-10-4.bmp","va:fa:sha","Right","39","5","10","6A","C1","C","74"
"","","approach-retreat","78","654927","0.0-78.0","","","2-5","5282","38","1","Training","Stims/Figures/87-C-20-4.bmp","saha:za","Down","38","5","11","6A","C2","C","75"
"","","approach-retreat","79","661221","0.0-79.0","","","2-5","4787","40","0","Training","Stims/Figures/87-J-10-4.bmp","va:sha:va","Up","38","5","12","6A","C1","C","76"
"","","approach-retreat","80","667403","0.0-80.0","","","2-5","4676","40","1","Training","Stims/Figures/44-C-30-3.bmp","za:ha:za","Up","40","5","13","6A","C2","C","77"
"","","approach-retreat","81","674164","0.0-81.0","","","2-5","5255","37","1","Training","Stims/Figures/118-J-0-2.bmp","fafava","Left","37","5","14","6A","C1","C","78"
"","","approach-retreat","82","680575","0.0-82.0","","","2-5","4906","37","1","Training","Stims/Figures/71-J-0-1.bmp","fafa:sha","Left","37","5","15","6A","C1","C","79"
"","","approach-retreat","83","687711","0.0-83.0","","","2-5","5630","40","0","Training","Stims/Figures/7-C-20-4.bmp","saha:ha","Down","38","5","16","6A","C2","C","80"
"","","approach-retreat","84","694763","0.0-84.0","","","2-5","5545","40","0","Training","Stims/Figures/7-C-20-4.bmp","saha:ha","Down","38","6","1","6A","C2","C","81"
"","","approach-retreat","85","701351","0.0-85.0","","","2-5","5081","38","0","Training","Stims/Figures/118-C-20-2.bmp","za:haha","Up","40","6","2","6A","C2","C","82"
"","","approach-retreat","86","709800","0.0-86.0","","","2-5","6941","37","0","Training","Stims/Figures/57-C-30-1.bmp","za:saza","Left","39","6","3","6A","C2","C","83"
"","","approach-retreat","87","715643","0.0-87.0","","","2-5","4336","40","0","Training","Stims/Figures/87-C-20-4.bmp","saha:za","Down","38","6","4","6A","C2","C","84"
"","","approach-retreat","88","738010","0.0-88.0","","","2-5","20861","37","0","Training","Stims/Figures/57-J-0-1.bmp","fa:shasha","Right","39","6","5","6A","C1","C","85"
"","","approach-retreat","89","744652","0.0-89.0","","","2-5","5135","39","1","Training","Stims/Figures/71-C-30-1.bmp","sa:saza","Left","39","6","6","6A","C2","C","86"
"","","approach-retreat","90","751287","0.0-90.0","","","2-5","5131","39","1","Training","Stims/Figures/44-C-30-3.bmp","za:ha:za","Left","39","6","7","6A","C2","C","87"
"","","approach-retreat","91","756768","0.0-91.0","","","2-5","3975","37","1","Training","Stims/Figures/71-J-0-1.bmp","fafa:sha","Left","37","6","8","6A","C1","C","88"
"","","approach-retreat","92","762574","0.0-92.0","","","2-5","4299","40","1","Training","Stims/Figures/139-J-0-2.bmp","fasha:sha","Down","40","6","9","6A","C1","C","89"
"","","approach-retreat","93","768345","0.0-93.0","","","2-5","4263","39","1","Training","Stims/Figures/87-J-10-4.bmp","va:sha:va","Right","39","6","10","6A","C1","C","90"
"","","approach-retreat","94","773965","0.0-94.0","","","2-5","4113","38","0","Training","Stims/Figures/139-C-20-2.bmp","zasaha","Up","40","6","11","6A","C2","C","91"
"","","approach-retreat","95","780830","0.0-95.0","","","2-5","5357","38","1","Training","Stims/Figures/111-J-10-3.bmp","vafava","Up","38","6","12","6A","C1","C","92"
"","","approach-retreat","96","788322","0.0-96.0","","","2-5","5985","37","1","Training","Stims/Figures/111-C-30-3.bmp","sa:saha","Right","37","6","13","6A","C2","C","93"
"","","approach-retreat","97","794644","0.0-97.0","","","2-5","4815","38","1","Training","Stims/Figures/118-J-0-2.bmp","fafava","Up","38","6","14","6A","C1","C","94"
"","","approach-retreat","98","802191","0.0-98.0","","","2-5","6042","38","0","Training","Stims/Figures/44-J-10-3.bmp","vasha:va","Down","40","6","15","6A","C1","C","95"
"","","approach-retreat","99","808484","0.0-99.0","","","2-5","4785","37","0","Training","Stims/Figures/7-J-10-4.bmp","va:fa:sha","Right","39","6","16","6A","C1","C","96"
"","","approach-retreat","100","814175","0.0-100.0","","","2-5","4185","38","1","Training","Stims/Figures/7-C-20-4.bmp","saha:ha","Down","38","7","1","6A","C2","C","97"
"","","approach-retreat","101","819834","0.0-101.0","","","2-5","4153","40","0","Training","Stims/Figures/87-J-10-4.bmp","va:sha:va","Up","38","7","2","6A","C1","C","98"
"","","approach-retreat","102","826206","0.0-102.0","","","2-5","4865","39","1","Training","Stims/Figures/57-C-30-1.bmp","za:saza","Left","39","7","3","6A","C2","C","99"
"","","approach-retreat","103","832016","0.0-103.0","","","2-5","4304","38","1","Training","Stims/Figures/111-C-30-3.bmp","sa:saha","Down","38","7","4","6A","C2","C","100"
"","","approach-retreat","104","837745","0.0-104.0","","","2-5","4222","40","1","Training","Stims/Figures/71-C-30-1.bmp","sa:saza","Up","40","7","5","6A","C2","C","101"
"","","approach-retreat","105","843723","0.0-105.0","","","2-5","4472","39","1","Training","Stims/Figures/71-J-0-1.bmp","fafa:sha","Right","39","7","6","6A","C1","C","102"
"","","approach-retreat","106","849396","0.0-106.0","","","2-5","4167","39","1","Training","Stims/Figures/118-C-20-2.bmp","za:haha","Left","39","7","7","6A","C2","C","103"
"","","approach-retreat","107","855522","0.0-107.0","","","2-5","4620","38","0","Training","Stims/Figures/44-J-10-3.bmp","vasha:va","Down","40","7","8","6A","C1","C","104"
"","","approach-retreat","108","861310","0.0-108.0","","","2-5","4281","38","1","Training","Stims/Figures/87-C-20-4.bmp","saha:za","Down","38","7","9","6A","C2","C","105"
"","","approach-retreat","109","866822","0.0-109.0","","","2-5","4005","37","1","Training","Stims/Figures/118-J-0-2.bmp","fafava","Left","37","7","10","6A","C1","C","106"
"","","approach-retreat","110","873056","0.0-110.0","","","2-5","4726","40","0","Training","Stims/Figures/111-J-10-3.bmp","vafava","Up","38","7","11","6A","C1","C","107"
"","","approach-retreat","111","879433","0.0-111.0","","","2-5","4869","37","0","Training","Stims/Figures/57-J-0-1.bmp","fa:shasha","Right","39","7","12","6A","C1","C","108"
"","","approach-retreat","112","885706","0.0-112.0","","","2-5","4766","38","0","Training","Stims/Figures/139-C-20-2.bmp","zasaha","Up","40","7","13","6A","C2","C","109"
"","","approach-retreat","113","891734","0.0-113.0","","","2-5","4522","39","1","Training","Stims/Figures/7-J-10-4.bmp","va:fa:sha","Right","39","7","14","6A","C1","C","110"
"","","approach-retreat","114","898017","0.0-114.0","","","2-5","4777","37","0","Training","Stims/Figures/139-J-0-2.bmp","fasha:sha","Right","39","7","15","6A","C1","C","111"
"","","approach-retreat","115","904075","0.0-115.0","","","2-5","4552","39","1","Training","Stims/Figures/44-C-30-3.bmp","za:ha:za","Left","39","7","16","6A","C2","C","112"
"","","approach-retreat","116","910689","0.0-116.0","","","2-5","5108","40","1","Training","Stims/Figures/87-J-10-4.bmp","va:sha:va","Down","40","8","1","6A","C1","C","113"
"","","approach-retreat","117","917065","0.0-117.0","","","2-5","4868","38","0","Training","Stims/Figures/44-C-30-3.bmp","za:ha:za","Up","40","8","2","6A","C2","C","114"
"","","approach-retreat","118","923266","0.0-118.0","","","2-5","4695","37","1","Training","Stims/Figures/44-J-10-3.bmp","vasha:va","Left","37","8","3","6A","C1","C","115"
"","","approach-retreat","119","929361","0.0-119.0","","","2-5","4588","40","1","Training","Stims/Figures/57-C-30-1.bmp","za:saza","Up","40","8","4","6A","C2","C","116"
"","","approach-retreat","120","935466","0.0-120.0","","","2-5","4599","38","1","Training","Stims/Figures/71-C-30-1.bmp","sa:saza","Down","38","8","5","6A","C2","C","117"
"","","approach-retreat","121","941947","0.0-121.0","","","2-5","4974","39","1","Training","Stims/Figures/118-J-0-2.bmp","fafava","Right","39","8","6","6A","C1","C","118"
"","","approach-retreat","122","948030","0.0-122.0","","","2-5","4577","39","1","Training","Stims/Figures/118-C-20-2.bmp","za:haha","Left","39","8","7","6A","C2","C","119"
"","","approach-retreat","123","953981","0.0-123.0","","","2-5","4444","38","1","Training","Stims/Figures/7-C-20-4.bmp","saha:ha","Down","38","8","8","6A","C2","C","120"
"","","approach-retreat","124","960344","0.0-124.0","","","2-5","4857","39","0","Training","Stims/Figures/7-J-10-4.bmp","va:fa:sha","Left","37","8","9","6A","C1","C","121"
"","","approach-retreat","125","965746","0.0-125.0","","","2-5","3895","39","1","Training","Stims/Figures/111-C-30-3.bmp","sa:saha","Left","39","8","10","6A","C2","C","122"
"","","approach-retreat","126","971844","0.0-126.0","","","2-5","4592","40","1","Training","Stims/Figures/139-C-20-2.bmp","zasaha","Up","40","8","11","6A","C2","C","123"
"","","approach-retreat","127","977552","0.0-127.0","","","2-5","4201","37","1","Training","Stims/Figures/87-C-20-4.bmp","saha:za","Right","37","8","12","6A","C2","C","124"
"","","approach-retreat","128","984653","0.0-128.0","","","2-5","5595","39","1","Training","Stims/Figures/139-J-0-2.bmp","fasha:sha","Right","39","8","13","6A","C1","C","125"
"","","approach-retreat","129","991665","0.0-129.0","","","2-5","5506","39","1","Training","Stims/Figures/71-J-0-1.bmp","fafa:sha","Right","39","8","14","6A","C1","C","126"
"","","approach-retreat","130","998505","0.0-130.0","","","2-5","5335","38","1","Training","Stims/Figures/111-J-10-3.bmp","vafava","Up","38","8","15","6A","C1","C","127"
"","","approach-retreat","131","1006358","0.0-131.0","","","2-5","6347","40","1","Training","Stims/Figures/57-J-0-1.bmp","fa:shasha","Down","40","8","16","6A","C1","C","128"
"","","approach-retreat","132","1012537","0.0-132.0","","","2-5","4672","40","1","Training","Stims/Figures/57-J-0-1.bmp","fa:shasha","Down","40","9","1","6A","C1","C","129"
"","","approach-retreat","133","1018748","0.0-133.0","","","2-5","4703","37","0","Training","Stims/Figures/111-C-30-3.bmp","sa:saha","Left","39","9","2","6A","C2","C","130"
"","","approach-retreat","134","1024764","0.0-134.0","","","2-5","4511","37","1","Training","Stims/Figures/87-J-10-4.bmp","va:sha:va","Left","37","9","3","6A","C1","C","131"
"","","approach-retreat","135","1031157","0.0-135.0","","","2-5","4885","38","0","Training","Stims/Figures/7-J-10-4.bmp","va:fa:sha","Down","40","9","4","6A","C1","C","132"
"","","approach-retreat","136","1036999","0.0-136.0","","","2-5","4335","38","1","Training","Stims/Figures/71-C-30-1.bmp","sa:saza","Down","38","9","5","6A","C2","C","133"
"","","approach-retreat","137","1042776","0.0-137.0","","","2-5","4272","40","1","Training","Stims/Figures/118-C-20-2.bmp","za:haha","Up","40","9","6","6A","C2","C","134"
"","","approach-retreat","138","1048485","0.0-138.0","","","2-5","4200","39","1","Training","Stims/Figures/111-J-10-3.bmp","vafava","Right","39","9","7","6A","C1","C","135"
"","","approach-retreat","139","1054171","0.0-139.0","","","2-5","4179","40","1","Training","Stims/Figures/57-C-30-1.bmp","za:saza","Up","40","9","8","6A","C2","C","136"
"","","approach-retreat","140","1059770","0.0-140.0","","","2-5","4092","37","1","Training","Stims/Figures/139-C-20-2.bmp","zasaha","Right","37","9","9","6A","C2","C","137"
"","","approach-retreat","141","1065457","0.0-141.0","","","2-5","4181","40","1","Training","Stims/Figures/44-J-10-3.bmp","vasha:va","Down","40","9","10","6A","C1","C","138"
"","","approach-retreat","142","1070950","0.0-142.0","","","2-5","3986","39","1","Training","Stims/Figures/7-C-20-4.bmp","saha:ha","Left","39","9","11","6A","C2","C","139"
"","","approach-retreat","143","1076616","0.0-143.0","","","2-5","4159","38","1","Training","Stims/Figures/118-J-0-2.bmp","fafava","Up","38","9","12","6A","C1","C","140"
"","","approach-retreat","144","1082232","0.0-144.0","","","2-5","4107","38","1","Training","Stims/Figures/139-J-0-2.bmp","fasha:sha","Up","38","9","13","6A","C1","C","141"
"","","approach-retreat","145","1087784","0.0-145.0","","","2-5","4046","39","1","Training","Stims/Figures/71-J-0-1.bmp","fafa:sha","Right","39","9","14","6A","C1","C","142"
"","","approach-retreat","146","1094071","0.0-146.0","","","2-5","4781","39","1","Training","Stims/Figures/87-C-20-4.bmp","saha:za","Left","39","9","15","6A","C2","C","143"
"","","approach-retreat","147","1100244","0.0-147.0","","","2-5","4667","37","1","Training","Stims/Figures/44-C-30-3.bmp","za:ha:za","Right","37","9","16","6A","C2","C","144"
"20442","","instructions","148","1120686","0.0-148.0","[{""page_index"":0,""viewing_time"":20441}]","","","","","","","","","","","","","","","",""
"","","approach-retreat","149","1129779","0.0-149.0","","","2-5","7587","40","1","Testing","Stims/Figures/86-J-0-1.bmp","vafa:va","Down","40","1","1","6A","C1","C","1"
"","","approach-retreat","150","1135738","0.0-150.0","","","2-5","4453","40","1","Testing","Stims/Figures/71-C-30-1.bmp","sa:saza","Up","40","1","2","6A","C2","C","2"
"","","approach-retreat","151","1142271","0.0-151.0","","","2-5","5026","38","1","Testing","Stims/Figures/84-J-0-2.bmp","fashasha","Up","38","1","3","6A","C1","C","3"
"","","approach-retreat","152","1150451","0.0-152.0","","","2-5","6676","39","1","Testing","Stims/Figures/7-J-10-4.bmp","va:fa:sha","Right","39","1","4","6A","C1","C","4"
"","","approach-retreat","153","1157063","0.0-153.0","","","2-5","5106","39","1","Testing","Stims/Figures/57-C-30-1.bmp","za:saza","Left","39","1","5","6A","C2","C","5"
"","","approach-retreat","154","1163104","0.0-154.0","","","2-5","4536","39","0","Testing","Stims/Figures/100-C-30-3.bmp","zasa:ha","Right","37","1","6","6A","C2","C","6"
"","","approach-retreat","155","1169968","0.0-155.0","","","2-5","5359","37","1","Testing","Stims/Figures/44-J-10-3.bmp","vasha:va","Left","37","1","7","6A","C1","C","7"
"","","approach-retreat","156","1175758","0.0-156.0","","","2-5","4286","40","0","Testing","Stims/Figures/102-C-20-4.bmp","za:ha:ha","Down","38","1","8","6A","C2","C","8"
"","","approach-retreat","157","1181336","0.0-157.0","","","2-5","4072","37","1","Testing","Stims/Figures/118-J-0-2.bmp","fafava","Left","37","1","9","6A","C1","C","9"
"","","approach-retreat","158","1187185","0.0-158.0","","","2-5","4343","38","1","Testing","Stims/Figures/7-C-20-4.bmp","saha:ha","Down","38","1","10","6A","C2","C","10"
"","","approach-retreat","159","1192902","0.0-159.0","","","2-5","4213","39","1","Testing","Stims/Figures/118-C-20-2.bmp","za:haha","Left","39","1","11","6A","C2","C","11"
"","","approach-retreat","160","1200168","0.0-160.0","","","2-5","5761","37","1","Testing","Stims/Figures/84-C-20-2.bmp","sa:sa:ha","Right","37","1","12","6A","C2","C","12"
"","","approach-retreat","161","1205816","0.0-161.0","","","2-5","4142","40","1","Testing","Stims/Figures/71-J-0-1.bmp","fafa:sha","Down","40","1","13","6A","C1","C","13"
"","","approach-retreat","162","1212227","0.0-162.0","","","2-5","4904","37","1","Testing","Stims/Figures/139-C-20-2.bmp","zasaha","Right","37","1","14","6A","C2","C","14"
"","","approach-retreat","163","1218419","0.0-163.0","","","2-5","4684","38","1","Testing","Stims/Figures/111-J-10-3.bmp","vafava","Up","38","1","15","6A","C1","C","15"
"","","approach-retreat","164","1224243","0.0-164.0","","","2-5","4319","40","1","Testing","Stims/Figures/87-C-20-4.bmp","saha:za","Up","40","1","16","6A","C2","C","16"
"","","approach-retreat","165","1230028","0.0-165.0","","","2-5","4277","37","1","Testing","Stims/Figures/111-C-30-3.bmp","sa:saha","Right","37","1","17","6A","C2","C","17"
"","","approach-retreat","166","1236433","0.0-166.0","","","2-5","4900","39","0","Testing","Stims/Figures/57-J-0-1.bmp","fa:shasha","Left","37","1","18","6A","C1","C","18"
"","","approach-retreat","167","1242217","0.0-167.0","","","2-5","4273","40","1","Testing","Stims/Figures/102-J-10-4.bmp","va:fasha","Down","40","1","19","6A","C1","C","19"
"","","approach-retreat","168","1248351","0.0-168.0","","","2-5","4626","38","0","Testing","Stims/Figures/100-J-10-3.bmp","va:shasha","Down","40","1","20","6A","C1","C","20"
"","","approach-retreat","169","1254335","0.0-169.0","","","2-5","4480","37","1","Testing","Stims/Figures/86-C-30-1.bmp","za:sa:ha","Right","37","1","21","6A","C2","C","21"
"","","approach-retreat","170","1264237","0.0-170.0","","","2-5","8397","40","0","Testing","Stims/Figures/87-J-10-4.bmp","va:sha:va","Up","38","1","22","6A","C1","C","22"
"","","approach-retreat","171","1270216","0.0-171.0","","","2-5","4475","39","1","Testing","Stims/Figures/44-C-30-3.bmp","za:ha:za","Left","39","1","23","6A","C2","C","23"
"","","approach-retreat","172","1276853","0.0-172.0","","","2-5","5131","40","0","Testing","Stims/Figures/139-J-0-2.bmp","fasha:sha","Up","38","1","24","6A","C1","C","24"
"","","approach-retreat","173","1284323","0.0-173.0","","","2-5","5964","38","1","Testing","Stims/Figures/84-C-20-2.bmp","sa:sa:ha","Down","38","2","1","6A","C2","C","25"
"","","approach-retreat","174","1290365","0.0-174.0","","","2-5","4535","38","1","Testing","Stims/Figures/86-J-0-1.bmp","vafa:va","Up","38","2","2","6A","C1","C","26"
"","","approach-retreat","175","1295995","0.0-175.0","","","2-5","4124","39","1","Testing","Stims/Figures/139-C-20-2.bmp","zasaha","Left","39","2","3","6A","C2","C","27"
"","","approach-retreat","176","1302776","0.0-176.0","","","2-5","5276","40","1","Testing","Stims/Figures/57-J-0-1.bmp","fa:shasha","Down","40","2","4","6A","C1","C","28"
"","","approach-retreat","177","1309889","0.0-177.0","","","2-5","5608","38","1","Testing","Stims/Figures/86-C-30-1.bmp","za:sa:ha","Down","38","2","5","6A","C2","C","29"
"","","approach-retreat","178","1315413","0.0-178.0","","","2-5","4018","39","1","Testing","Stims/Figures/71-J-0-1.bmp","fafa:sha","Right","39","2","6","6A","C1","C","30"
"","","approach-retreat","179","1321700","0.0-179.0","","","2-5","4782","40","0","Testing","Stims/Figures/100-J-10-3.bmp","va:shasha","Up","38","2","7","6A","C1","C","31"
"","","approach-retreat","180","1329708","0.0-180.0","","","2-5","6502","38","1","Testing","Stims/Figures/7-C-20-4.bmp","saha:ha","Down","38","2","8","6A","C2","C","32"
"","","approach-retreat","181","1337628","0.0-181.0","","","2-5","6416","39","1","Testing","Stims/Figures/102-C-20-4.bmp","za:ha:ha","Left","39","2","9","6A","C2","C","33"
"","","approach-retreat","182","1343667","0.0-182.0","","","2-5","4533","38","1","Testing","Stims/Figures/139-J-0-2.bmp","fasha:sha","Up","38","2","10","6A","C1","C","34"
"","","approach-retreat","183","1349310","0.0-183.0","","","2-5","4139","40","1","Testing","Stims/Figures/111-C-30-3.bmp","sa:saha","Up","40","2","11","6A","C2","C","35"
"","","approach-retreat","184","1355109","0.0-184.0","","","2-5","4293","38","1","Testing","Stims/Figures/118-J-0-2.bmp","fafava","Up","38","2","12","6A","C1","C","36"
"","","approach-retreat","185","1362694","0.0-185.0","","","2-5","6080","39","1","Testing","Stims/Figures/7-J-10-4.bmp","va:fa:sha","Right","39","2","13","6A","C1","C","37"
"","","approach-retreat","186","1369567","0.0-186.0","","","2-5","5367","39","1","Testing","Stims/Figures/44-J-10-3.bmp","vasha:va","Right","39","2","14","6A","C1","C","38"
"","","approach-retreat","187","1376430","0.0-187.0","","","2-5","5357","39","1","Testing","Stims/Figures/57-C-30-1.bmp","za:saza","Left","39","2","15","6A","C2","C","39"
"","","approach-retreat","188","1382201","0.0-188.0","","","2-5","4267","39","1","Testing","Stims/Figures/84-J-0-2.bmp","fashasha","Right","39","2","16","6A","C1","C","40"
"","","approach-retreat","189","1387973","0.0-189.0","","","2-5","4266","37","1","Testing","Stims/Figures/118-C-20-2.bmp","za:haha","Right","37","2","17","6A","C2","C","41"
"","","approach-retreat","190","1394207","0.0-190.0","","","2-5","4728","39","1","Testing","Stims/Figures/87-C-20-4.bmp","saha:za","Left","39","2","18","6A","C2","C","42"
"","","approach-retreat","191","1399873","0.0-191.0","","","2-5","4160","38","1","Testing","Stims/Figures/102-J-10-4.bmp","va:fasha","Up","38","2","19","6A","C1","C","43"
"","","approach-retreat","192","1406031","0.0-192.0","","","2-5","4652","37","1","Testing","Stims/Figures/87-J-10-4.bmp","va:sha:va","Left","37","2","20","6A","C1","C","44"
"","","approach-retreat","193","1411744","0.0-193.0","","","2-5","4208","40","1","Testing","Stims/Figures/111-J-10-3.bmp","vafava","Down","40","2","21","6A","C1","C","45"
"","","approach-retreat","194","1417942","0.0-194.0","","","2-5","4694","37","1","Testing","Stims/Figures/100-C-30-3.bmp","zasa:ha","Right","37","2","22","6A","C2","C","46"
"","","approach-retreat","195","1424778","0.0-195.0","","","2-5","5331","40","0","Testing","Stims/Figures/71-C-30-1.bmp","sa:saza","Down","38","2","23","6A","C2","C","47"
"","","approach-retreat","196","1430994","0.0-196.0","","","2-5","4711","39","1","Testing","Stims/Figures/44-C-30-3.bmp","za:ha:za","Left","39","2","24","6A","C2","C","48"
"","","approach-retreat","197","1437912","0.0-197.0","","","2-5","5412","39","1","Testing","Stims/Figures/84-C-20-2.bmp","sa:sa:ha","Left","39","3","1","6A","C2","C","49"
"","","approach-retreat","198","1444059","0.0-198.0","","","2-5","4643","38","1","Testing","Stims/Figures/71-J-0-1.bmp","fafa:sha","Up","38","3","2","6A","C1","C","50"
"","","approach-retreat","199","1449926","0.0-199.0","","","2-5","4361","39","0","Testing","Stims/Figures/100-C-30-3.bmp","zasa:ha","Right","37","3","3","6A","C2","C","51"
"","","approach-retreat","200","1455513","0.0-200.0","","","2-5","4082","39","1","Testing","Stims/Figures/57-J-0-1.bmp","fa:shasha","Right","39","3","4","6A","C1","C","52"
"","","approach-retreat","201","1463160","0.0-201.0","","","2-5","6142","37","0","Testing","Stims/Figures/7-C-20-4.bmp","saha:ha","Left","39","3","5","6A","C2","C","53"
"","","approach-retreat","202","1468851","0.0-202.0","","","2-5","4186","38","1","Testing","Stims/Figures/111-J-10-3.bmp","vafava","Up","38","3","6","6A","C1","C","54"
"","","approach-retreat","203","1478879","0.0-203.0","","","2-5","8523","39","1","Testing","Stims/Figures/44-C-30-3.bmp","za:ha:za","Left","39","3","7","6A","C2","C","55"
"","","approach-retreat","204","1487815","0.0-204.0","","","2-5","7431","37","1","Testing","Stims/Figures/102-C-20-4.bmp","za:ha:ha","Right","37","3","8","6A","C2","C","56"
"","","approach-retreat","205","1493441","0.0-205.0","","","2-5","4119","37","1","Testing","Stims/Figures/102-J-10-4.bmp","va:fasha","Left","37","3","9","6A","C1","C","57"
"","","approach-retreat","206","1499976","0.0-206.0","","","2-5","5030","38","1","Testing","Stims/Figures/87-C-20-4.bmp","saha:za","Down","38","3","10","6A","C2","C","58"
"","","approach-retreat","207","1507310","0.0-207.0","","","2-5","5829","37","1","Testing","Stims/Figures/86-C-30-1.bmp","za:sa:ha","Right","37","3","11","6A","C2","C","59"
"","","approach-retreat","208","1513083","0.0-208.0","","","2-5","4267","38","1","Testing","Stims/Figures/139-C-20-2.bmp","zasaha","Down","38","3","12","6A","C2","C","60"
"","","approach-retreat","209","1519109","0.0-209.0","","","2-5","4520","38","1","Testing","Stims/Figures/57-C-30-1.bmp","za:saza","Down","38","3","13","6A","C2","C","61"
"","","approach-retreat","210","1527563","0.0-210.0","","","2-5","6948","39","1","Testing","Stims/Figures/100-J-10-3.bmp","va:shasha","Right","39","3","14","6A","C1","C","62"
"","","approach-retreat","211","1534835","0.0-211.0","","","2-5","5768","38","1","Testing","Stims/Figures/7-J-10-4.bmp","va:fa:sha","Up","38","3","15","6A","C1","C","63"
"","","approach-retreat","212","1540595","0.0-212.0","","","2-5","4255","40","0","Testing","Stims/Figures/87-J-10-4.bmp","va:sha:va","Up","38","3","16","6A","C1","C","64"
"","","approach-retreat","213","1546468","0.0-213.0","","","2-5","4367","39","1","Testing","Stims/Figures/111-C-30-3.bmp","sa:saha","Left","39","3","17","6A","C2","C","65"
"","","approach-retreat","214","1552802","0.0-214.0","","","2-5","4829","40","1","Testing","Stims/Figures/139-J-0-2.bmp","fasha:sha","Down","40","3","18","6A","C1","C","66"
"","","approach-retreat","215","1559425","0.0-215.0","","","2-5","5116","39","0","Testing","Stims/Figures/118-C-20-2.bmp","za:haha","Right","37","3","19","6A","C2","C","67"
"","","approach-retreat","216","1565674","0.0-216.0","","","2-5","4743","38","0","Testing","Stims/Figures/84-J-0-2.bmp","fashasha","Down","40","3","20","6A","C1","C","68"
"","","approach-retreat","217","1576012","0.0-217.0","","","2-5","8834","38","1","Testing","Stims/Figures/71-C-30-1.bmp","sa:saza","Down","38","3","21","6A","C2","C","69"
"","","approach-retreat","218","1581887","0.0-218.0","","","2-5","4368","38","1","Testing","Stims/Figures/86-J-0-1.bmp","vafa:va","Up","38","3","22","6A","C1","C","70"
"","","approach-retreat","219","1588142","0.0-219.0","","","2-5","4748","40","0","Testing","Stims/Figures/118-J-0-2.bmp","fafava","Up","38","3","23","6A","C1","C","71"
"","","approach-retreat","220","1593782","0.0-220.0","","","2-5","4135","37","1","Testing","Stims/Figures/44-J-10-3.bmp","vasha:va","Left","37","3","24","6A","C1","C","72"
"","","approach-retreat","221","1602710","0.0-221.0","","","2-5","7423","40","0","Testing","Stims/Figures/84-J-0-2.bmp","fashasha","Up","38","4","1","6A","C1","C","73"
"","","approach-retreat","222","1612115","0.0-222.0","","","2-5","7899","37","1","Testing","Stims/Figures/86-C-30-1.bmp","za:sa:ha","Right","37","4","2","6A","C2","C","74"
"","","approach-retreat","223","1617971","0.0-223.0","","","2-5","4350","37","0","Testing","Stims/Figures/87-C-20-4.bmp","saha:za","Left","39","4","3","6A","C2","C","75"
"","","approach-retreat","224","1623931","0.0-224.0","","","2-5","4453","39","0","Testing","Stims/Figures/7-C-20-4.bmp","saha:ha","Right","37","4","4","6A","C2","C","76"
"","","approach-retreat","225","1631501","0.0-225.0","","","2-5","6065","40","0","Testing","Stims/Figures/87-J-10-4.bmp","va:sha:va","Up","38","4","5","6A","C1","C","77"
"","","approach-retreat","226","1638043","0.0-226.0","","","2-5","5037","40","0","Testing","Stims/Figures/102-J-10-4.bmp","va:fasha","Up","38","4","6","6A","C1","C","78"
"","","approach-retreat","227","1644720","0.0-227.0","","","2-5","5170","40","0","Testing","Stims/Figures/102-C-20-4.bmp","za:ha:ha","Down","38","4","7","6A","C2","C","79"
"","","approach-retreat","228","1650892","0.0-228.0","","","2-5","4668","37","0","Testing","Stims/Figures/86-J-0-1.bmp","vafa:va","Right","39","4","8","6A","C1","C","80"
"","","approach-retreat","229","1658449","0.0-229.0","","","2-5","6042","39","1","Testing","Stims/Figures/111-C-30-3.bmp","sa:saha","Left","39","4","9","6A","C2","C","81"
"","","approach-retreat","230","1664244","0.0-230.0","","","2-5","4290","37","0","Testing","Stims/Figures/84-C-20-2.bmp","sa:sa:ha","Left","39","4","10","6A","C2","C","82"
"","","approach-retreat","231","1670520","0.0-231.0","","","2-5","4773","40","0","Testing","Stims/Figures/7-J-10-4.bmp","va:fa:sha","Up","38","4","11","6A","C1","C","83"
"","","approach-retreat","232","1676305","0.0-232.0","","","2-5","4277","39","1","Testing","Stims/Figures/139-C-20-2.bmp","zasaha","Left","39","4","12","6A","C2","C","84"
"","","approach-retreat","233","1683335","0.0-233.0","","","2-5","5525","39","1","Testing","Stims/Figures/111-J-10-3.bmp","vafava","Right","39","4","13","6A","C1","C","85"
"","","approach-retreat","234","1690969","0.0-234.0","","","2-5","6129","38","0","Testing","Stims/Figures/57-J-0-1.bmp","fa:shasha","Down","40","4","14","6A","C1","C","86"
"","","approach-retreat","235","1697793","0.0-235.0","","","2-5","5318","40","1","Testing","Stims/Figures/100-J-10-3.bmp","va:shasha","Down","40","4","15","6A","C1","C","87"
"","","approach-retreat","236","1703769","0.0-236.0","","","2-5","4469","40","1","Testing","Stims/Figures/139-J-0-2.bmp","fasha:sha","Down","40","4","16","6A","C1","C","88"
"","","approach-retreat","237","1709562","0.0-237.0","","","2-5","4288","40","1","Testing","Stims/Figures/57-C-30-1.bmp","za:saza","Up","40","4","17","6A","C2","C","89"
"","","approach-retreat","238","1716222","0.0-238.0","","","2-5","5155","37","0","Testing","Stims/Figures/71-C-30-1.bmp","sa:saza","Left","39","4","18","6A","C2","C","90"
"","","approach-retreat","239","1722758","0.0-239.0","","","2-5","5031","39","0","Testing","Stims/Figures/100-C-30-3.bmp","zasa:ha","Right","37","4","19","6A","C2","C","91"
"","","approach-retreat","240","1728351","0.0-240.0","","","2-5","4088","37","1","Testing","Stims/Figures/71-J-0-1.bmp","fafa:sha","Left","37","4","20","6A","C1","C","92"
"","","approach-retreat","241","1734368","0.0-241.0","","","2-5","4511","38","1","Testing","Stims/Figures/118-C-20-2.bmp","za:haha","Down","38","4","21","6A","C2","C","93"
"","","approach-retreat","242","1741161","0.0-242.0","","","2-5","5287","37","0","Testing","Stims/Figures/118-J-0-2.bmp","fafava","Right","39","4","22","6A","C1","C","94"
"","","approach-retreat","243","1747296","0.0-243.0","","","2-5","4630","38","1","Testing","Stims/Figures/44-C-30-3.bmp","za:ha:za","Down","38","4","23","6A","C2","C","95"
"","","approach-retreat","244","1752860","0.0-244.0","","","2-5","4059","40","0","Testing","Stims/Figures/44-J-10-3.bmp","vasha:va","Up","38","4","24","6A","C1","C","96"
"37223","","survey-text","245","1790087","0.0-245.0","","{""Q0"":""2018/0025""}","","","","","","","","","","","","","","",""
