"rt","key_press","trial_type","trial_index","time_elapsed","internal_node_id","view_history","responses","Id","Rt","ResKeyCode","ResCorr","TrialType2","Image","Label","Location","CorrectResponse","Block","BlockTrial","Condition","LabelType","Subcondition","trialNum"
"27247","32","text","0","27252","0.0-0.0-0.0","","","","","","","","","","","","","","","","",""
"154470","","instructions","1","181723","0.0-1.0","[{""page_index"":0,""viewing_time"":154470}]","","","","","","","","","","","","","","","",""
"64161","","survey-multi-choice","2","245903","0.0-2.0","","{""Q0"":""Da"",""Q1"":""Da"",""Q2"":""Da"",""Q3"":""Da"",""Q4"":""Da"",""Q5"":""Da""}","","","","","","","","","","","","","","",""
"","","bio","3","257460","0.0-3.0","","{""age"":""18"",""gender"":""f"",""specify"":""""}","","","","","","","","","","","","","","",""
"","","approach-retreat","4","270630","0.0-4.0","","","1-1","11660","37","1","Training","Stims/Figures/128-J-10-3.bmp","va:fa:sha","Left","37","1","1","6A","C1","C","1"
"","","approach-retreat","5","279510","0.0-5.0","","","1-1","7373","39","0","Training","Stims/Figures/44-C-30-3.bmp","sa:saza","Right","37","1","2","6A","C2","C","2"
"","","approach-retreat","6","289487","0.0-6.0","","","1-1","8468","39","0","Training","Stims/Figures/27-J-0-1.bmp","va:shasha","Left","37","1","3","6A","C1","C","3"
"","","approach-retreat","7","297288","0.0-7.0","","","1-1","6296","38","0","Training","Stims/Figures/44-J-10-3.bmp","va:fasha","Down","40","1","4","6A","C1","C","4"
"","","approach-retreat","8","303608","0.0-8.0","","","1-1","4814","40","1","Training","Stims/Figures/118-C-20-2.bmp","sa:sa:ha","Up","40","1","5","6A","C2","C","5"
"","","approach-retreat","9","313223","0.0-9.0","","","1-1","8109","37","1","Training","Stims/Figures/85-C-20-2.bmp","sa:saha","Right","37","1","6","6A","C2","C","6"
"","","approach-retreat","10","319696","0.0-10.0","","","1-1","4964","39","0","Training","Stims/Figures/118-J-0-2.bmp","fasha:va","Left","37","1","7","6A","C1","C","7"
"","","approach-retreat","11","326303","0.0-11.0","","","1-1","5100","38","0","Training","Stims/Figures/57-J-0-1.bmp","va:sha:va","Down","40","1","8","6A","C1","C","8"
"","","approach-retreat","12","333488","0.0-12.0","","","1-1","5681","40","1","Training","Stims/Figures/19-J-10-4.bmp","fa:shava","Down","40","1","9","6A","C1","C","9"
"","","approach-retreat","13","340558","0.0-13.0","","","1-1","5563","39","0","Training","Stims/Figures/57-C-30-1.bmp","zasaha","Right","37","1","10","6A","C2","C","10"
"","","approach-retreat","14","346793","0.0-14.0","","","1-1","4728","38","1","Training","Stims/Figures/128-C-30-3.bmp","zasa:za","Down","38","1","11","6A","C2","C","11"
"","","approach-retreat","15","357095","0.0-15.0","","","1-1","8799","37","1","Training","Stims/Figures/27-C-30-1.bmp","sasa:za","Right","37","1","12","6A","C2","C","12"
"","","approach-retreat","16","364951","0.0-16.0","","","1-1","6349","39","0","Training","Stims/Figures/102-J-10-4.bmp","fa:fasha","Left","37","1","13","6A","C1","C","13"
"","","approach-retreat","17","372551","0.0-17.0","","","1-1","6092","40","1","Training","Stims/Figures/102-C-20-4.bmp","za:saha","Up","40","1","14","6A","C2","C","14"
"","","approach-retreat","18","378687","0.0-18.0","","","1-1","4628","38","0","Training","Stims/Figures/19-C-20-4.bmp","zahaza","Up","40","1","15","6A","C2","C","15"
"","","approach-retreat","19","385511","0.0-19.0","","","1-1","5319","40","0","Training","Stims/Figures/85-J-0-2.bmp","vafa:va","Up","38","1","16","6A","C1","C","16"
"","","approach-retreat","20","391887","0.0-20.0","","","1-1","4871","40","0","Training","Stims/Figures/118-C-20-2.bmp","sa:sa:ha","Down","38","2","1","6A","C2","C","17"
"","","approach-retreat","21","397719","0.0-21.0","","","1-1","4324","39","1","Training","Stims/Figures/44-C-30-3.bmp","sa:saza","Left","39","2","2","6A","C2","C","18"
"","","approach-retreat","22","403815","0.0-22.0","","","1-1","4590","39","1","Training","Stims/Figures/128-C-30-3.bmp","zasa:za","Left","39","2","3","6A","C2","C","19"
"","","approach-retreat","23","409263","0.0-23.0","","","1-1","3945","37","0","Training","Stims/Figures/27-J-0-1.bmp","va:shasha","Right","39","2","4","6A","C1","C","20"
"","","approach-retreat","24","415005","0.0-24.0","","","1-1","4239","40","0","Training","Stims/Figures/44-J-10-3.bmp","va:fasha","Up","38","2","5","6A","C1","C","21"
"","","approach-retreat","25","420958","0.0-25.0","","","1-1","4446","37","1","Training","Stims/Figures/57-C-30-1.bmp","zasaha","Right","37","2","6","6A","C2","C","22"
"","","approach-retreat","26","427207","0.0-26.0","","","1-1","4744","39","0","Training","Stims/Figures/85-J-0-2.bmp","vafa:va","Left","37","2","7","6A","C1","C","23"
"","","approach-retreat","27","433248","0.0-27.0","","","1-1","4535","39","0","Training","Stims/Figures/27-C-30-1.bmp","sasa:za","Right","37","2","8","6A","C2","C","24"
"","","approach-retreat","28","439511","0.0-28.0","","","1-1","4756","40","0","Training","Stims/Figures/102-J-10-4.bmp","fa:fasha","Up","38","2","9","6A","C1","C","25"
"","","approach-retreat","29","445384","0.0-29.0","","","1-1","4366","37","0","Training","Stims/Figures/118-J-0-2.bmp","fasha:va","Right","39","2","10","6A","C1","C","26"
"","","approach-retreat","30","451072","0.0-30.0","","","1-1","4181","39","1","Training","Stims/Figures/19-C-20-4.bmp","zahaza","Left","39","2","11","6A","C2","C","27"
"","","approach-retreat","31","457160","0.0-31.0","","","1-1","4584","38","0","Training","Stims/Figures/57-J-0-1.bmp","va:sha:va","Down","40","2","12","6A","C1","C","28"
"","","approach-retreat","32","462791","0.0-32.0","","","1-1","4127","40","1","Training","Stims/Figures/102-C-20-4.bmp","za:saha","Up","40","2","13","6A","C2","C","29"
"","","approach-retreat","33","468616","0.0-33.0","","","1-1","4319","40","0","Training","Stims/Figures/128-J-10-3.bmp","va:fa:sha","Up","38","2","14","6A","C1","C","30"
"","","approach-retreat","34","475167","0.0-34.0","","","1-1","5047","38","1","Training","Stims/Figures/85-C-20-2.bmp","sa:saha","Down","38","2","15","6A","C2","C","31"
"","","approach-retreat","35","483079","0.0-35.0","","","1-1","6404","38","0","Training","Stims/Figures/19-J-10-4.bmp","fa:shava","Down","40","2","16","6A","C1","C","32"
"","","approach-retreat","36","488584","0.0-36.0","","","1-1","3997","40","1","Training","Stims/Figures/27-C-30-1.bmp","sasa:za","Up","40","3","1","6A","C2","C","33"
"","","approach-retreat","37","495904","0.0-37.0","","","1-1","5814","37","0","Training","Stims/Figures/27-J-0-1.bmp","va:shasha","Right","39","3","2","6A","C1","C","34"
"","","approach-retreat","38","504487","0.0-38.0","","","1-1","7078","39","0","Training","Stims/Figures/102-C-20-4.bmp","za:saha","Right","37","3","3","6A","C2","C","35"
"","","approach-retreat","39","510350","0.0-39.0","","","1-1","4357","40","0","Training","Stims/Figures/118-J-0-2.bmp","fasha:va","Up","38","3","4","6A","C1","C","36"
"","","approach-retreat","40","516719","0.0-40.0","","","1-1","4863","38","1","Training","Stims/Figures/57-J-0-1.bmp","va:sha:va","Up","38","3","5","6A","C1","C","37"
"","","approach-retreat","41","523184","0.0-41.0","","","1-1","4961","39","1","Training","Stims/Figures/19-C-20-4.bmp","zahaza","Left","39","3","6","6A","C2","C","38"
"","","approach-retreat","42","531687","0.0-42.0","","","1-1","6996","38","1","Training","Stims/Figures/57-C-30-1.bmp","zasaha","Down","38","3","7","6A","C2","C","39"
"","","approach-retreat","43","538633","0.0-43.0","","","1-1","5441","38","0","Training","Stims/Figures/44-J-10-3.bmp","va:fasha","Down","40","3","8","6A","C1","C","40"
"","","approach-retreat","44","544551","0.0-44.0","","","1-1","4416","39","0","Training","Stims/Figures/128-J-10-3.bmp","va:fa:sha","Left","37","3","9","6A","C1","C","41"
"","","approach-retreat","45","550471","0.0-45.0","","","1-1","4413","40","1","Training","Stims/Figures/85-C-20-2.bmp","sa:saha","Up","40","3","10","6A","C2","C","42"
"","","approach-retreat","46","558071","0.0-46.0","","","1-1","6094","38","0","Training","Stims/Figures/85-J-0-2.bmp","vafa:va","Down","40","3","11","6A","C1","C","43"
"","","approach-retreat","47","564160","0.0-47.0","","","1-1","4582","37","1","Training","Stims/Figures/118-C-20-2.bmp","sa:sa:ha","Right","37","3","12","6A","C2","C","44"
"","","approach-retreat","48","569791","0.0-48.0","","","1-1","4126","39","0","Training","Stims/Figures/19-J-10-4.bmp","fa:shava","Left","37","3","13","6A","C1","C","45"
"","","approach-retreat","49","575504","0.0-49.0","","","1-1","4207","39","0","Training","Stims/Figures/102-J-10-4.bmp","fa:fasha","Left","37","3","14","6A","C1","C","46"
"","","approach-retreat","50","582599","0.0-50.0","","","1-1","5589","40","0","Training","Stims/Figures/128-C-30-3.bmp","zasa:za","Down","38","3","15","6A","C2","C","47"
"","","approach-retreat","51","589455","0.0-51.0","","","1-1","5349","37","1","Training","Stims/Figures/44-C-30-3.bmp","sa:saza","Right","37","3","16","6A","C2","C","48"
"","","approach-retreat","52","595199","0.0-52.0","","","1-1","4238","38","0","Training","Stims/Figures/27-J-0-1.bmp","va:shasha","Down","40","4","1","6A","C1","C","49"
"","","approach-retreat","53","601296","0.0-53.0","","","1-1","4590","40","0","Training","Stims/Figures/102-J-10-4.bmp","fa:fasha","Up","38","4","2","6A","C1","C","50"
"","","approach-retreat","54","607103","0.0-54.0","","","1-1","4303","37","1","Training","Stims/Figures/19-C-20-4.bmp","zahaza","Right","37","4","3","6A","C2","C","51"
"","","approach-retreat","55","645896","0.0-55.0","","","1-1","37287","39","1","Training","Stims/Figures/57-C-30-1.bmp","zasaha","Left","39","4","4","6A","C2","C","52"
"","","approach-retreat","56","652158","0.0-56.0","","","1-1","4758","38","0","Training","Stims/Figures/44-J-10-3.bmp","va:fasha","Down","40","4","5","6A","C1","C","53"
"","","approach-retreat","57","657926","0.0-57.0","","","1-1","4262","40","1","Training","Stims/Figures/27-C-30-1.bmp","sasa:za","Up","40","4","6","6A","C2","C","54"
"","","approach-retreat","58","663671","0.0-58.0","","","1-1","4239","37","0","Training","Stims/Figures/57-J-0-1.bmp","va:sha:va","Right","39","4","7","6A","C1","C","55"
"","","approach-retreat","59","669552","0.0-59.0","","","1-1","4375","38","0","Training","Stims/Figures/128-C-30-3.bmp","zasa:za","Up","40","4","8","6A","C2","C","56"
"","","approach-retreat","60","675150","0.0-60.0","","","1-1","4091","40","1","Training","Stims/Figures/44-C-30-3.bmp","sa:saza","Up","40","4","9","6A","C2","C","57"
"","","approach-retreat","61","680905","0.0-61.0","","","1-1","4248","38","0","Training","Stims/Figures/19-J-10-4.bmp","fa:shava","Down","40","4","10","6A","C1","C","58"
"","","approach-retreat","62","686471","0.0-62.0","","","1-1","4062","39","1","Training","Stims/Figures/118-C-20-2.bmp","sa:sa:ha","Left","39","4","11","6A","C2","C","59"
"","","approach-retreat","63","692144","0.0-63.0","","","1-1","4169","37","1","Training","Stims/Figures/85-C-20-2.bmp","sa:saha","Right","37","4","12","6A","C2","C","60"
"","","approach-retreat","64","698735","0.0-64.0","","","1-1","5085","38","0","Training","Stims/Figures/118-J-0-2.bmp","fasha:va","Down","40","4","13","6A","C1","C","61"
"","","approach-retreat","65","704655","0.0-65.0","","","1-1","4416","39","0","Training","Stims/Figures/85-J-0-2.bmp","vafa:va","Left","37","4","14","6A","C1","C","62"
"","","approach-retreat","66","710278","0.0-66.0","","","1-1","4116","37","1","Training","Stims/Figures/102-C-20-4.bmp","za:saha","Right","37","4","15","6A","C2","C","63"
"","","approach-retreat","67","715872","0.0-67.0","","","1-1","4088","39","0","Training","Stims/Figures/128-J-10-3.bmp","va:fa:sha","Left","37","4","16","6A","C1","C","64"
"","","approach-retreat","68","721287","0.0-68.0","","","1-1","3909","37","0","Training","Stims/Figures/128-C-30-3.bmp","zasa:za","Left","39","5","1","6A","C2","C","65"
"","","approach-retreat","69","726808","0.0-69.0","","","1-1","4017","39","1","Training","Stims/Figures/118-C-20-2.bmp","sa:sa:ha","Left","39","5","2","6A","C2","C","66"
"","","approach-retreat","70","732895","0.0-70.0","","","1-1","4580","40","0","Training","Stims/Figures/102-J-10-4.bmp","fa:fasha","Up","38","5","3","6A","C1","C","67"
"","","approach-retreat","71","738672","0.0-71.0","","","1-1","4271","37","0","Training","Stims/Figures/27-J-0-1.bmp","va:shasha","Right","39","5","4","6A","C1","C","68"
"","","approach-retreat","72","744247","0.0-72.0","","","1-1","4067","38","1","Training","Stims/Figures/44-C-30-3.bmp","sa:saza","Down","38","5","5","6A","C2","C","69"
"","","approach-retreat","73","749777","0.0-73.0","","","1-1","4023","38","1","Training","Stims/Figures/118-J-0-2.bmp","fasha:va","Up","38","5","6","6A","C1","C","70"
"","","approach-retreat","74","755336","0.0-74.0","","","1-1","4053","40","1","Training","Stims/Figures/85-J-0-2.bmp","vafa:va","Down","40","5","7","6A","C1","C","71"
"","","approach-retreat","75","760952","0.0-75.0","","","1-1","4109","40","0","Training","Stims/Figures/102-C-20-4.bmp","za:saha","Down","38","5","8","6A","C2","C","72"
"","","approach-retreat","76","766601","0.0-76.0","","","1-1","4144","37","0","Training","Stims/Figures/19-J-10-4.bmp","fa:shava","Right","39","5","9","6A","C1","C","73"
"","","approach-retreat","77","772176","0.0-77.0","","","1-1","4072","39","1","Training","Stims/Figures/128-J-10-3.bmp","va:fa:sha","Right","39","5","10","6A","C1","C","74"
"","","approach-retreat","78","782840","0.0-78.0","","","1-1","9156","38","1","Training","Stims/Figures/27-C-30-1.bmp","sasa:za","Down","38","5","11","6A","C2","C","75"
"","","approach-retreat","79","788336","0.0-79.0","","","1-1","3988","37","0","Training","Stims/Figures/19-C-20-4.bmp","zahaza","Left","39","5","12","6A","C2","C","76"
"","","approach-retreat","80","794568","0.0-80.0","","","1-1","4728","39","1","Training","Stims/Figures/85-C-20-2.bmp","sa:saha","Left","39","5","13","6A","C2","C","77"
"","","approach-retreat","81","803232","0.0-81.0","","","1-1","7156","38","1","Training","Stims/Figures/57-J-0-1.bmp","va:sha:va","Up","38","5","14","6A","C1","C","78"
"","","approach-retreat","82","808872","0.0-82.0","","","1-1","4137","37","1","Training","Stims/Figures/57-C-30-1.bmp","zasaha","Right","37","5","15","6A","C2","C","79"
"","","approach-retreat","83","814560","0.0-83.0","","","1-1","4185","38","1","Training","Stims/Figures/44-J-10-3.bmp","va:fasha","Up","38","5","16","6A","C1","C","80"
"","","approach-retreat","84","822951","0.0-84.0","","","1-1","6885","38","1","Training","Stims/Figures/85-C-20-2.bmp","sa:saha","Down","38","6","1","6A","C2","C","81"
"","","approach-retreat","85","829137","0.0-85.0","","","1-1","4678","37","0","Training","Stims/Figures/102-C-20-4.bmp","za:saha","Left","39","6","2","6A","C2","C","82"
"","","approach-retreat","86","834927","0.0-86.0","","","1-1","4285","38","1","Training","Stims/Figures/85-J-0-2.bmp","vafa:va","Up","38","6","3","6A","C1","C","83"
"","","approach-retreat","87","840719","0.0-87.0","","","1-1","4286","40","1","Training","Stims/Figures/27-C-30-1.bmp","sasa:za","Up","40","6","4","6A","C2","C","84"
"","","approach-retreat","88","846576","0.0-88.0","","","1-1","4353","38","0","Training","Stims/Figures/27-J-0-1.bmp","va:shasha","Down","40","6","5","6A","C1","C","85"
"","","approach-retreat","89","851791","0.0-89.0","","","1-1","3711","38","1","Training","Stims/Figures/118-J-0-2.bmp","fasha:va","Up","38","6","6","6A","C1","C","86"
"","","approach-retreat","90","857623","0.0-90.0","","","1-1","4325","39","1","Training","Stims/Figures/128-J-10-3.bmp","va:fa:sha","Right","39","6","7","6A","C1","C","87"
"","","approach-retreat","91","863263","0.0-91.0","","","1-1","4132","39","0","Training","Stims/Figures/102-J-10-4.bmp","fa:fasha","Left","37","6","8","6A","C1","C","88"
"","","approach-retreat","92","868824","0.0-92.0","","","1-1","4053","38","0","Training","Stims/Figures/57-J-0-1.bmp","va:sha:va","Down","40","6","9","6A","C1","C","89"
"","","approach-retreat","93","874312","0.0-93.0","","","1-1","3985","38","1","Training","Stims/Figures/44-C-30-3.bmp","sa:saza","Down","38","6","10","6A","C2","C","90"
"","","approach-retreat","94","880032","0.0-94.0","","","1-1","4212","37","1","Training","Stims/Figures/57-C-30-1.bmp","zasaha","Right","37","6","11","6A","C2","C","91"
"","","approach-retreat","95","886128","0.0-95.0","","","1-1","4588","39","1","Training","Stims/Figures/118-C-20-2.bmp","sa:sa:ha","Left","39","6","12","6A","C2","C","92"
"","","approach-retreat","96","891880","0.0-96.0","","","1-1","4249","37","0","Training","Stims/Figures/19-J-10-4.bmp","fa:shava","Right","39","6","13","6A","C1","C","93"
"","","approach-retreat","97","897448","0.0-97.0","","","1-1","4060","38","0","Training","Stims/Figures/128-C-30-3.bmp","zasa:za","Up","40","6","14","6A","C2","C","94"
"","","approach-retreat","98","903353","0.0-98.0","","","1-1","4397","37","1","Training","Stims/Figures/19-C-20-4.bmp","zahaza","Right","37","6","15","6A","C2","C","95"
"","","approach-retreat","99","909008","0.0-99.0","","","1-1","4150","39","0","Training","Stims/Figures/44-J-10-3.bmp","va:fasha","Left","37","6","16","6A","C1","C","96"
"","","approach-retreat","100","914671","0.0-100.0","","","1-1","4159","38","0","Training","Stims/Figures/118-C-20-2.bmp","sa:sa:ha","Up","40","7","1","6A","C2","C","97"
"","","approach-retreat","101","920190","0.0-101.0","","","1-1","4014","39","1","Training","Stims/Figures/27-C-30-1.bmp","sasa:za","Left","39","7","2","6A","C2","C","98"
"","","approach-retreat","102","926561","0.0-102.0","","","1-1","4863","39","0","Training","Stims/Figures/128-C-30-3.bmp","zasa:za","Right","37","7","3","6A","C2","C","99"
"","","approach-retreat","103","932287","0.0-103.0","","","1-1","4222","39","1","Training","Stims/Figures/85-C-20-2.bmp","sa:saha","Left","39","7","4","6A","C2","C","100"
"","","approach-retreat","104","938127","0.0-104.0","","","1-1","4334","40","1","Training","Stims/Figures/57-C-30-1.bmp","zasaha","Up","40","7","5","6A","C2","C","101"
"","","approach-retreat","105","943726","0.0-105.0","","","1-1","4097","40","0","Training","Stims/Figures/57-J-0-1.bmp","va:sha:va","Up","38","7","6","6A","C1","C","102"
"","","approach-retreat","106","949201","0.0-106.0","","","1-1","3970","38","1","Training","Stims/Figures/102-C-20-4.bmp","za:saha","Down","38","7","7","6A","C2","C","103"
"","","approach-retreat","107","954631","0.0-107.0","","","1-1","3923","38","1","Training","Stims/Figures/19-C-20-4.bmp","zahaza","Down","38","7","8","6A","C2","C","104"
"","","approach-retreat","108","960414","0.0-108.0","","","1-1","4277","39","0","Training","Stims/Figures/118-J-0-2.bmp","fasha:va","Left","37","7","9","6A","C1","C","105"
"","","approach-retreat","109","966007","0.0-109.0","","","1-1","4085","37","0","Training","Stims/Figures/44-J-10-3.bmp","va:fasha","Right","39","7","10","6A","C1","C","106"
"","","approach-retreat","110","971768","0.0-110.0","","","1-1","4257","39","0","Training","Stims/Figures/44-C-30-3.bmp","sa:saza","Right","37","7","11","6A","C2","C","107"
"","","approach-retreat","111","977816","0.0-111.0","","","1-1","4541","40","0","Training","Stims/Figures/27-J-0-1.bmp","va:shasha","Up","38","7","12","6A","C1","C","108"
"","","approach-retreat","112","983304","0.0-112.0","","","1-1","3981","38","0","Training","Stims/Figures/128-J-10-3.bmp","va:fa:sha","Down","40","7","13","6A","C1","C","109"
"","","approach-retreat","113","990335","0.0-113.0","","","1-1","5526","40","1","Training","Stims/Figures/102-J-10-4.bmp","fa:fasha","Down","40","7","14","6A","C1","C","110"
"","","approach-retreat","114","998024","0.0-114.0","","","1-1","6183","37","0","Training","Stims/Figures/85-J-0-2.bmp","vafa:va","Right","39","7","15","6A","C1","C","111"
"","","approach-retreat","115","1009096","0.0-115.0","","","1-1","9568","39","0","Training","Stims/Figures/19-J-10-4.bmp","fa:shava","Left","37","7","16","6A","C1","C","112"
"","","approach-retreat","116","1017767","0.0-116.0","","","1-1","7165","38","1","Training","Stims/Figures/27-C-30-1.bmp","sasa:za","Down","38","8","1","6A","C2","C","113"
"","","approach-retreat","117","1027303","0.0-117.0","","","1-1","8030","40","0","Training","Stims/Figures/57-J-0-1.bmp","va:sha:va","Up","38","8","2","6A","C1","C","114"
"","","approach-retreat","118","1033727","0.0-118.0","","","1-1","4917","38","0","Training","Stims/Figures/118-J-0-2.bmp","fasha:va","Down","40","8","3","6A","C1","C","115"
"","","approach-retreat","119","1039303","0.0-119.0","","","1-1","4072","37","0","Training","Stims/Figures/102-J-10-4.bmp","fa:fasha","Right","39","8","4","6A","C1","C","116"
"","","approach-retreat","120","1045181","0.0-120.0","","","1-1","4373","38","0","Training","Stims/Figures/57-C-30-1.bmp","zasaha","Up","40","8","5","6A","C2","C","117"
"","","approach-retreat","121","1050712","0.0-121.0","","","1-1","4024","39","0","Training","Stims/Figures/27-J-0-1.bmp","va:shasha","Left","37","8","6","6A","C1","C","118"
"","","approach-retreat","122","1056262","0.0-122.0","","","1-1","4047","37","0","Training","Stims/Figures/19-J-10-4.bmp","fa:shava","Right","39","8","7","6A","C1","C","119"
"","","approach-retreat","123","1062080","0.0-123.0","","","1-1","4314","39","1","Training","Stims/Figures/19-C-20-4.bmp","zahaza","Left","39","8","8","6A","C2","C","120"
"","","approach-retreat","124","1067855","0.0-124.0","","","1-1","4269","38","0","Training","Stims/Figures/44-J-10-3.bmp","va:fasha","Down","40","8","9","6A","C1","C","121"
"","","approach-retreat","125","1073336","0.0-125.0","","","1-1","3974","37","1","Training","Stims/Figures/118-C-20-2.bmp","sa:sa:ha","Right","37","8","10","6A","C2","C","122"
"","","approach-retreat","126","1078919","0.0-126.0","","","1-1","4080","38","1","Training","Stims/Figures/85-C-20-2.bmp","sa:saha","Down","38","8","11","6A","C2","C","123"
"","","approach-retreat","127","1084392","0.0-127.0","","","1-1","3969","39","1","Training","Stims/Figures/44-C-30-3.bmp","sa:saza","Left","39","8","12","6A","C2","C","124"
"","","approach-retreat","128","1090296","0.0-128.0","","","1-1","4397","37","1","Training","Stims/Figures/128-C-30-3.bmp","zasa:za","Right","37","8","13","6A","C2","C","125"
"","","approach-retreat","129","1095808","0.0-129.0","","","1-1","4006","39","1","Training","Stims/Figures/102-C-20-4.bmp","za:saha","Left","39","8","14","6A","C2","C","126"
"","","approach-retreat","130","1101368","0.0-130.0","","","1-1","4055","40","0","Training","Stims/Figures/128-J-10-3.bmp","va:fa:sha","Up","38","8","15","6A","C1","C","127"
"","","approach-retreat","131","1106768","0.0-131.0","","","1-1","3897","38","1","Training","Stims/Figures/85-J-0-2.bmp","vafa:va","Up","38","8","16","6A","C1","C","128"
"","","approach-retreat","132","1112294","0.0-132.0","","","1-1","4019","39","1","Training","Stims/Figures/128-C-30-3.bmp","zasa:za","Left","39","9","1","6A","C2","C","129"
"","","approach-retreat","133","1118007","0.0-133.0","","","1-1","4207","38","0","Training","Stims/Figures/102-C-20-4.bmp","za:saha","Up","40","9","2","6A","C2","C","130"
"","","approach-retreat","134","1123720","0.0-134.0","","","1-1","4209","39","1","Training","Stims/Figures/27-C-30-1.bmp","sasa:za","Left","39","9","3","6A","C2","C","131"
"","","approach-retreat","135","1129536","0.0-135.0","","","1-1","4313","37","0","Training","Stims/Figures/57-J-0-1.bmp","va:sha:va","Right","39","9","4","6A","C1","C","132"
"","","approach-retreat","136","1135023","0.0-136.0","","","1-1","3980","38","1","Training","Stims/Figures/57-C-30-1.bmp","zasaha","Down","38","9","5","6A","C2","C","133"
"","","approach-retreat","137","1141081","0.0-137.0","","","1-1","4549","39","1","Training","Stims/Figures/19-J-10-4.bmp","fa:shava","Right","39","9","6","6A","C1","C","134"
"","","approach-retreat","138","1146512","0.0-138.0","","","1-1","3926","37","1","Training","Stims/Figures/44-C-30-3.bmp","sa:saza","Right","37","9","7","6A","C2","C","135"
"","","approach-retreat","139","1151919","0.0-139.0","","","1-1","3905","39","1","Training","Stims/Figures/118-C-20-2.bmp","sa:sa:ha","Left","39","9","8","6A","C2","C","136"
"","","approach-retreat","140","1157567","0.0-140.0","","","1-1","4140","38","0","Training","Stims/Figures/102-J-10-4.bmp","fa:fasha","Down","40","9","9","6A","C1","C","137"
"","","approach-retreat","141","1163208","0.0-141.0","","","1-1","4134","40","1","Training","Stims/Figures/85-C-20-2.bmp","sa:saha","Up","40","9","10","6A","C2","C","138"
"","","approach-retreat","142","1168633","0.0-142.0","","","1-1","3920","38","1","Training","Stims/Figures/19-C-20-4.bmp","zahaza","Down","38","9","11","6A","C2","C","139"
"","","approach-retreat","143","1174495","0.0-143.0","","","1-1","4359","39","0","Training","Stims/Figures/27-J-0-1.bmp","va:shasha","Left","37","9","12","6A","C1","C","140"
"","","approach-retreat","144","1181518","0.0-144.0","","","1-1","5518","40","0","Training","Stims/Figures/118-J-0-2.bmp","fasha:va","Up","38","9","13","6A","C1","C","141"
"","","approach-retreat","145","1189408","0.0-145.0","","","1-1","6386","40","1","Training","Stims/Figures/85-J-0-2.bmp","vafa:va","Down","40","9","14","6A","C1","C","142"
"","","approach-retreat","146","1199598","0.0-146.0","","","1-1","8684","37","0","Training","Stims/Figures/128-J-10-3.bmp","va:fa:sha","Right","39","9","15","6A","C1","C","143"
"","","approach-retreat","147","1208976","0.0-147.0","","","1-1","7869","40","0","Training","Stims/Figures/44-J-10-3.bmp","va:fasha","Up","38","9","16","6A","C1","C","144"
"17765","","instructions","148","1226741","0.0-148.0","[{""page_index"":0,""viewing_time"":17764}]","","","","","","","","","","","","","","","",""
"","","approach-retreat","149","1236630","0.0-149.0","","","1-1","8384","40","1","Testing","Stims/Figures/85-C-20-2.bmp","sa:saha","Up","40","1","1","6A","C2","C","1"
"","","approach-retreat","150","1242815","0.0-150.0","","","1-1","4683","38","0","Testing","Stims/Figures/111-J-10-3.bmp","fasha:sha","Down","40","1","2","6A","C1","C","2"
"","","approach-retreat","151","1249599","0.0-151.0","","","1-1","5278","37","0","Testing","Stims/Figures/94-C-20-2.bmp","zaha:ha","Left","39","1","3","6A","C2","C","3"
"","","approach-retreat","152","1255961","0.0-152.0","","","1-1","4856","37","0","Testing","Stims/Figures/85-J-0-2.bmp","vafa:va","Right","39","1","4","6A","C1","C","4"
"","","approach-retreat","153","1263487","0.0-153.0","","","1-1","6023","38","1","Testing","Stims/Figures/7-J-10-4.bmp","fa:sha:sha","Up","38","1","5","6A","C1","C","5"
"","","approach-retreat","154","1269791","0.0-154.0","","","1-1","4801","38","1","Testing","Stims/Figures/102-J-10-4.bmp","fa:fasha","Up","38","1","6","6A","C1","C","6"
"","","approach-retreat","155","1275631","0.0-155.0","","","1-1","4335","39","0","Testing","Stims/Figures/111-C-30-3.bmp","za:ha:za","Right","37","1","7","6A","C2","C","7"
"","","approach-retreat","156","1281064","0.0-156.0","","","1-1","3930","37","0","Testing","Stims/Figures/57-J-0-1.bmp","va:sha:va","Right","39","1","8","6A","C1","C","8"
"","","approach-retreat","157","1286503","0.0-157.0","","","1-1","3936","40","0","Testing","Stims/Figures/128-J-10-3.bmp","va:fa:sha","Up","38","1","9","6A","C1","C","9"
"","","approach-retreat","158","1292040","0.0-158.0","","","1-1","4033","37","1","Testing","Stims/Figures/57-C-30-1.bmp","zasaha","Right","37","1","10","6A","C2","C","10"
"","","approach-retreat","159","1297991","0.0-159.0","","","1-1","4445","40","1","Testing","Stims/Figures/118-J-0-2.bmp","fasha:va","Down","40","1","11","6A","C1","C","11"
"","","approach-retreat","160","1303655","0.0-160.0","","","1-1","4162","37","1","Testing","Stims/Figures/19-C-20-4.bmp","zahaza","Right","37","1","12","6A","C2","C","12"
"","","approach-retreat","161","1310719","0.0-161.0","","","1-1","5561","40","1","Testing","Stims/Figures/19-J-10-4.bmp","fa:shava","Down","40","1","13","6A","C1","C","13"
"","","approach-retreat","162","1316191","0.0-162.0","","","1-1","3968","40","1","Testing","Stims/Figures/118-C-20-2.bmp","sa:sa:ha","Up","40","1","14","6A","C2","C","14"
"","","approach-retreat","163","1322519","0.0-163.0","","","1-1","4823","39","1","Testing","Stims/Figures/71-C-30-1.bmp","za:saza","Left","39","1","15","6A","C2","C","15"
"","","approach-retreat","164","1328696","0.0-164.0","","","1-1","4673","37","1","Testing","Stims/Figures/44-J-10-3.bmp","va:fasha","Left","37","1","16","6A","C1","C","16"
"","","approach-retreat","165","1334511","0.0-165.0","","","1-1","4311","40","0","Testing","Stims/Figures/128-C-30-3.bmp","zasa:za","Down","38","1","17","6A","C2","C","17"
"","","approach-retreat","166","1340351","0.0-166.0","","","1-1","4338","38","1","Testing","Stims/Figures/44-C-30-3.bmp","sa:saza","Down","38","1","18","6A","C2","C","18"
"","","approach-retreat","167","1346527","0.0-167.0","","","1-1","4668","38","1","Testing","Stims/Figures/71-J-0-1.bmp","va:fava","Up","38","1","19","6A","C1","C","19"
"","","approach-retreat","168","1352735","0.0-168.0","","","1-1","4704","39","1","Testing","Stims/Figures/27-C-30-1.bmp","sasa:za","Left","39","1","20","6A","C2","C","20"
"","","approach-retreat","169","1359045","0.0-169.0","","","1-1","4806","39","0","Testing","Stims/Figures/102-C-20-4.bmp","za:saha","Right","37","1","21","6A","C2","C","21"
"","","approach-retreat","170","1364487","0.0-170.0","","","1-1","3938","39","0","Testing","Stims/Figures/27-J-0-1.bmp","va:shasha","Left","37","1","22","6A","C1","C","22"
"","","approach-retreat","171","1370743","0.0-171.0","","","1-1","4750","39","0","Testing","Stims/Figures/94-J-0-2.bmp","vasha:va","Left","37","1","23","6A","C1","C","23"
"","","approach-retreat","172","1376159","0.0-172.0","","","1-1","3913","38","1","Testing","Stims/Figures/7-C-20-4.bmp","zasaza","Down","38","1","24","6A","C2","C","24"
"","","approach-retreat","173","1382159","0.0-173.0","","","1-1","4496","38","1","Testing","Stims/Figures/27-C-30-1.bmp","sasa:za","Down","38","2","1","6A","C2","C","25"
"","","approach-retreat","174","1388456","0.0-174.0","","","1-1","4792","39","1","Testing","Stims/Figures/71-C-30-1.bmp","za:saza","Left","39","2","2","6A","C2","C","26"
"","","approach-retreat","175","1394399","0.0-175.0","","","1-1","4441","38","0","Testing","Stims/Figures/128-C-30-3.bmp","zasa:za","Up","40","2","3","6A","C2","C","27"
"","","approach-retreat","176","1400567","0.0-176.0","","","1-1","4662","40","0","Testing","Stims/Figures/118-C-20-2.bmp","sa:sa:ha","Down","38","2","4","6A","C2","C","28"
"","","approach-retreat","177","1406518","0.0-177.0","","","1-1","4447","39","0","Testing","Stims/Figures/44-J-10-3.bmp","va:fasha","Left","37","2","5","6A","C1","C","29"
"","","approach-retreat","178","1412374","0.0-178.0","","","1-1","4354","39","1","Testing","Stims/Figures/57-C-30-1.bmp","zasaha","Left","39","2","6","6A","C2","C","30"
"","","approach-retreat","179","1418807","0.0-179.0","","","1-1","4929","39","1","Testing","Stims/Figures/111-J-10-3.bmp","fasha:sha","Right","39","2","7","6A","C1","C","31"
"","","approach-retreat","180","1425344","0.0-180.0","","","1-1","5033","38","0","Testing","Stims/Figures/27-J-0-1.bmp","va:shasha","Down","40","2","8","6A","C1","C","32"
"","","approach-retreat","181","1431143","0.0-181.0","","","1-1","4293","39","0","Testing","Stims/Figures/118-J-0-2.bmp","fasha:va","Left","37","2","9","6A","C1","C","33"
"","","approach-retreat","182","1437239","0.0-182.0","","","1-1","4592","38","0","Testing","Stims/Figures/85-J-0-2.bmp","vafa:va","Down","40","2","10","6A","C1","C","34"
"","","approach-retreat","183","1443111","0.0-183.0","","","1-1","4368","39","0","Testing","Stims/Figures/85-C-20-2.bmp","sa:saha","Right","37","2","11","6A","C2","C","35"
"","","approach-retreat","184","1452847","0.0-184.0","","","1-1","8232","38","0","Testing","Stims/Figures/102-J-10-4.bmp","fa:fasha","Down","40","2","12","6A","C1","C","36"
"","","approach-retreat","185","1458255","0.0-185.0","","","1-1","3902","38","1","Testing","Stims/Figures/94-J-0-2.bmp","vasha:va","Up","38","2","13","6A","C1","C","37"
"","","approach-retreat","186","1465049","0.0-186.0","","","1-1","5290","37","0","Testing","Stims/Figures/19-J-10-4.bmp","fa:shava","Right","39","2","14","6A","C1","C","38"
"","","approach-retreat","187","1470462","0.0-187.0","","","1-1","3910","38","0","Testing","Stims/Figures/94-C-20-2.bmp","zaha:ha","Up","40","2","15","6A","C2","C","39"
"","","approach-retreat","188","1477935","0.0-188.0","","","1-1","5966","40","0","Testing","Stims/Figures/57-J-0-1.bmp","va:sha:va","Up","38","2","16","6A","C1","C","40"
"","","approach-retreat","189","1484254","0.0-189.0","","","1-1","4817","39","0","Testing","Stims/Figures/7-C-20-4.bmp","zasaza","Right","37","2","17","6A","C2","C","41"
"","","approach-retreat","190","1490632","0.0-190.0","","","1-1","4871","40","0","Testing","Stims/Figures/7-J-10-4.bmp","fa:sha:sha","Up","38","2","18","6A","C1","C","42"
"","","approach-retreat","191","1499927","0.0-191.0","","","1-1","7792","37","1","Testing","Stims/Figures/44-C-30-3.bmp","sa:saza","Right","37","2","19","6A","C2","C","43"
"","","approach-retreat","192","1509542","0.0-192.0","","","1-1","8110","38","1","Testing","Stims/Figures/102-C-20-4.bmp","za:saha","Down","38","2","20","6A","C2","C","44"
"","","approach-retreat","193","1527239","0.0-193.0","","","1-1","16190","39","0","Testing","Stims/Figures/128-J-10-3.bmp","va:fa:sha","Left","37","2","21","6A","C1","C","45"
"","","approach-retreat","194","1534606","0.0-194.0","","","1-1","5861","37","0","Testing","Stims/Figures/19-C-20-4.bmp","zahaza","Left","39","2","22","6A","C2","C","46"
"","","approach-retreat","195","1540456","0.0-195.0","","","1-1","4343","37","0","Testing","Stims/Figures/71-J-0-1.bmp","va:fava","Right","39","2","23","6A","C1","C","47"
"","","approach-retreat","196","1546840","0.0-196.0","","","1-1","4877","38","0","Testing","Stims/Figures/111-C-30-3.bmp","za:ha:za","Up","40","2","24","6A","C2","C","48"
"","","approach-retreat","197","1553216","0.0-197.0","","","1-1","4871","39","0","Testing","Stims/Figures/27-J-0-1.bmp","va:shasha","Left","37","3","1","6A","C1","C","49"
"","","approach-retreat","198","1562294","0.0-198.0","","","1-1","7575","37","1","Testing","Stims/Figures/7-C-20-4.bmp","zasaza","Right","37","3","2","6A","C2","C","50"
"","","approach-retreat","199","1568951","0.0-199.0","","","1-1","5152","38","0","Testing","Stims/Figures/118-J-0-2.bmp","fasha:va","Down","40","3","3","6A","C1","C","51"
"","","approach-retreat","200","1574864","0.0-200.0","","","1-1","4409","39","0","Testing","Stims/Figures/118-C-20-2.bmp","sa:sa:ha","Right","37","3","4","6A","C2","C","52"
"","","approach-retreat","201","1580511","0.0-201.0","","","1-1","4143","40","0","Testing","Stims/Figures/7-J-10-4.bmp","fa:sha:sha","Up","38","3","5","6A","C1","C","53"
"","","approach-retreat","202","1586278","0.0-202.0","","","1-1","4262","37","1","Testing","Stims/Figures/85-C-20-2.bmp","sa:saha","Right","37","3","6","6A","C2","C","54"
"","","approach-retreat","203","1595711","0.0-203.0","","","1-1","7929","38","1","Testing","Stims/Figures/102-C-20-4.bmp","za:saha","Down","38","3","7","6A","C2","C","55"
"","","approach-retreat","204","1601615","0.0-204.0","","","1-1","4401","37","1","Testing","Stims/Figures/44-C-30-3.bmp","sa:saza","Right","37","3","8","6A","C2","C","56"
"","","approach-retreat","205","1607239","0.0-205.0","","","1-1","4118","39","1","Testing","Stims/Figures/71-C-30-1.bmp","za:saza","Left","39","3","9","6A","C2","C","57"
"","","approach-retreat","206","1613103","0.0-206.0","","","1-1","4357","38","1","Testing","Stims/Figures/94-J-0-2.bmp","vasha:va","Up","38","3","10","6A","C1","C","58"
"","","approach-retreat","207","1619214","0.0-207.0","","","1-1","4606","37","1","Testing","Stims/Figures/85-J-0-2.bmp","vafa:va","Left","37","3","11","6A","C1","C","59"
"","","approach-retreat","208","1628047","0.0-208.0","","","1-1","7329","38","1","Testing","Stims/Figures/102-J-10-4.bmp","fa:fasha","Up","38","3","12","6A","C1","C","60"
"","","approach-retreat","209","1633719","0.0-209.0","","","1-1","4169","37","0","Testing","Stims/Figures/19-J-10-4.bmp","fa:shava","Right","39","3","13","6A","C1","C","61"
"","","approach-retreat","210","1639927","0.0-210.0","","","1-1","4705","39","0","Testing","Stims/Figures/57-J-0-1.bmp","va:sha:va","Left","37","3","14","6A","C1","C","62"
"","","approach-retreat","211","1650880","0.0-211.0","","","1-1","9447","37","1","Testing","Stims/Figures/128-C-30-3.bmp","zasa:za","Right","37","3","15","6A","C2","C","63"
"","","approach-retreat","212","1656926","0.0-212.0","","","1-1","4544","40","1","Testing","Stims/Figures/57-C-30-1.bmp","zasaha","Up","40","3","16","6A","C2","C","64"
"","","approach-retreat","213","1663240","0.0-213.0","","","1-1","4808","38","0","Testing","Stims/Figures/44-J-10-3.bmp","va:fasha","Down","40","3","17","6A","C1","C","65"
"","","approach-retreat","214","1670631","0.0-214.0","","","1-1","5887","38","1","Testing","Stims/Figures/71-J-0-1.bmp","va:fava","Up","38","3","18","6A","C1","C","66"
"","","approach-retreat","215","1676640","0.0-215.0","","","1-1","4506","38","1","Testing","Stims/Figures/128-J-10-3.bmp","va:fa:sha","Up","38","3","19","6A","C1","C","67"
"","","approach-retreat","216","1682734","0.0-216.0","","","1-1","4588","38","0","Testing","Stims/Figures/111-J-10-3.bmp","fasha:sha","Down","40","3","20","6A","C1","C","68"
"","","approach-retreat","217","1694208","0.0-217.0","","","1-1","9966","39","1","Testing","Stims/Figures/27-C-30-1.bmp","sasa:za","Left","39","3","21","6A","C2","C","69"
"","","approach-retreat","218","1704007","0.0-218.0","","","1-1","8294","38","1","Testing","Stims/Figures/111-C-30-3.bmp","za:ha:za","Down","38","3","22","6A","C2","C","70"
"","","approach-retreat","219","1709679","0.0-219.0","","","1-1","4168","39","1","Testing","Stims/Figures/19-C-20-4.bmp","zahaza","Left","39","3","23","6A","C2","C","71"
"","","approach-retreat","220","1715334","0.0-220.0","","","1-1","4151","40","0","Testing","Stims/Figures/94-C-20-2.bmp","zaha:ha","Down","38","3","24","6A","C2","C","72"
"","","approach-retreat","221","1722423","0.0-221.0","","","1-1","5582","38","0","Testing","Stims/Figures/111-J-10-3.bmp","fasha:sha","Down","40","4","1","6A","C1","C","73"
"","","approach-retreat","222","1736800","0.0-222.0","","","1-1","12871","38","1","Testing","Stims/Figures/111-C-30-3.bmp","za:ha:za","Down","38","4","2","6A","C2","C","74"
"","","approach-retreat","223","1742821","0.0-223.0","","","1-1","4516","38","1","Testing","Stims/Figures/94-J-0-2.bmp","vasha:va","Up","38","4","3","6A","C1","C","75"
"","","approach-retreat","224","1748472","0.0-224.0","","","1-1","4146","38","0","Testing","Stims/Figures/94-C-20-2.bmp","zaha:ha","Up","40","4","4","6A","C2","C","76"
"","","approach-retreat","225","1759630","0.0-225.0","","","1-1","9655","39","0","Testing","Stims/Figures/57-C-30-1.bmp","zasaha","Right","37","4","5","6A","C2","C","77"
"","","approach-retreat","226","1769335","0.0-226.0","","","1-1","8199","37","1","Testing","Stims/Figures/118-J-0-2.bmp","fasha:va","Left","37","4","6","6A","C1","C","78"
"","","approach-retreat","227","1776463","0.0-227.0","","","1-1","5624","37","1","Testing","Stims/Figures/19-J-10-4.bmp","fa:shava","Left","37","4","7","6A","C1","C","79"
"","","approach-retreat","228","1794535","0.0-228.0","","","1-1","16567","38","0","Testing","Stims/Figures/27-C-30-1.bmp","sasa:za","Up","40","4","8","6A","C2","C","80"
"","","approach-retreat","229","1801887","0.0-229.0","","","1-1","5846","39","0","Testing","Stims/Figures/71-J-0-1.bmp","va:fava","Left","37","4","9","6A","C1","C","81"
"","","approach-retreat","230","1808200","0.0-230.0","","","1-1","4807","38","0","Testing","Stims/Figures/102-J-10-4.bmp","fa:fasha","Down","40","4","10","6A","C1","C","82"
"","","approach-retreat","231","1813999","0.0-231.0","","","1-1","4296","37","1","Testing","Stims/Figures/19-C-20-4.bmp","zahaza","Right","37","4","11","6A","C2","C","83"
"","","approach-retreat","232","1819584","0.0-232.0","","","1-1","4079","39","0","Testing","Stims/Figures/118-C-20-2.bmp","sa:sa:ha","Right","37","4","12","6A","C2","C","84"
"","","approach-retreat","233","1825440","0.0-233.0","","","1-1","4346","40","1","Testing","Stims/Figures/44-C-30-3.bmp","sa:saza","Up","40","4","13","6A","C2","C","85"
"","","approach-retreat","234","1830968","0.0-234.0","","","1-1","4025","38","0","Testing","Stims/Figures/128-C-30-3.bmp","zasa:za","Up","40","4","14","6A","C2","C","86"
"","","approach-retreat","235","1836807","0.0-235.0","","","1-1","4337","39","0","Testing","Stims/Figures/27-J-0-1.bmp","va:shasha","Left","37","4","15","6A","C1","C","87"
"","","approach-retreat","236","1843007","0.0-236.0","","","1-1","4695","39","1","Testing","Stims/Figures/128-J-10-3.bmp","va:fa:sha","Right","39","4","16","6A","C1","C","88"
"","","approach-retreat","237","1848679","0.0-237.0","","","1-1","4169","38","1","Testing","Stims/Figures/7-C-20-4.bmp","zasaza","Down","38","4","17","6A","C2","C","89"
"","","approach-retreat","238","1859911","0.0-238.0","","","1-1","9729","38","0","Testing","Stims/Figures/44-J-10-3.bmp","va:fasha","Down","40","4","18","6A","C1","C","90"
"","","approach-retreat","239","1865759","0.0-239.0","","","1-1","4342","39","0","Testing","Stims/Figures/57-J-0-1.bmp","va:sha:va","Left","37","4","19","6A","C1","C","91"
"","","approach-retreat","240","1871568","0.0-240.0","","","1-1","4306","38","1","Testing","Stims/Figures/102-C-20-4.bmp","za:saha","Down","38","4","20","6A","C2","C","92"
"","","approach-retreat","241","1877534","0.0-241.0","","","1-1","4462","39","0","Testing","Stims/Figures/71-C-30-1.bmp","za:saza","Right","37","4","21","6A","C2","C","93"
"","","approach-retreat","242","1883871","0.0-242.0","","","1-1","4832","37","0","Testing","Stims/Figures/85-J-0-2.bmp","vafa:va","Right","39","4","22","6A","C1","C","94"
"","","approach-retreat","243","1889679","0.0-243.0","","","1-1","4304","38","1","Testing","Stims/Figures/7-J-10-4.bmp","fa:sha:sha","Up","38","4","23","6A","C1","C","95"
"","","approach-retreat","244","1895239","0.0-244.0","","","1-1","4053","39","1","Testing","Stims/Figures/85-C-20-2.bmp","sa:saha","Left","39","4","24","6A","C2","C","96"
"146459","","survey-text","245","2041703","0.0-245.0","","{""Q0"":""0042""}","","","","","","","","","","","","","","",""
