"rt","key_press","trial_type","trial_index","time_elapsed","internal_node_id","view_history","responses","Id","Rt","ResKeyCode","ResCorr","TrialType2","Image","Label","Location","CorrectResponse","Block","BlockTrial","Condition","LabelType","Subcondition","trialNum"
"86420","32","text","0","86424","0.0-0.0-0.0","","","","","","","","","","","","","","","","",""
"230122","","instructions","1","316549","0.0-1.0","[{""page_index"":0,""viewing_time"":230122}]","","","","","","","","","","","","","","","",""
"50576","","survey-multi-choice","2","367148","0.0-2.0","","{""Q0"":""Da"",""Q1"":""Da"",""Q2"":""Da"",""Q3"":""Da"",""Q4"":""Da"",""Q5"":""Da""}","","","","","","","","","","","","","","",""
"","","bio","3","376937","0.0-3.0","","{""age"":""19"",""gender"":""f"",""specify"":""""}","","","","","","","","","","","","","","",""
"","","approach-retreat","4","432159","0.0-4.0","","","1-4","53715","40","0","Training","Stims/Figures/118-J-0-2.bmp","fasha:va","Up","38","1","1","6A","C1","C","1"
"","","approach-retreat","5","457582","0.0-5.0","","","1-4","23916","40","0","Training","Stims/Figures/118-C-20-2.bmp","sa:sa:ha","Down","38","1","2","6A","C2","C","2"
"","","approach-retreat","6","471037","0.0-6.0","","","1-4","11950","40","1","Training","Stims/Figures/57-C-30-1.bmp","zasaha","Up","40","1","3","6A","C2","C","3"
"","","approach-retreat","7","480700","0.0-7.0","","","1-4","8159","40","0","Training","Stims/Figures/19-C-20-4.bmp","zahaza","Down","38","1","4","6A","C2","C","4"
"","","approach-retreat","8","517021","0.0-8.0","","","1-4","34816","39","0","Training","Stims/Figures/57-J-0-1.bmp","va:sha:va","Left","37","1","5","6A","C1","C","5"
"","","approach-retreat","9","529021","0.0-9.0","","","1-4","10495","38","0","Training","Stims/Figures/128-J-10-3.bmp","va:fa:sha","Down","40","1","6","6A","C1","C","6"
"","","approach-retreat","10","547485","0.0-10.0","","","1-4","16959","38","1","Training","Stims/Figures/85-J-0-2.bmp","vafa:va","Up","38","1","7","6A","C1","C","7"
"","","approach-retreat","11","558540","0.0-11.0","","","1-4","9552","39","1","Training","Stims/Figures/128-C-30-3.bmp","zasa:za","Left","39","1","8","6A","C2","C","8"
"","","approach-retreat","12","567404","0.0-12.0","","","1-4","7360","37","1","Training","Stims/Figures/102-C-20-4.bmp","za:saha","Right","37","1","9","6A","C2","C","9"
"","","approach-retreat","13","605965","0.0-13.0","","","1-4","37056","38","0","Training","Stims/Figures/19-J-10-4.bmp","fa:shava","Down","40","1","10","6A","C1","C","10"
"","","approach-retreat","14","618204","0.0-14.0","","","1-4","10734","40","0","Training","Stims/Figures/27-J-0-1.bmp","va:shasha","Up","38","1","11","6A","C1","C","11"
"","","approach-retreat","15","627835","0.0-15.0","","","1-4","8126","39","1","Training","Stims/Figures/102-J-10-4.bmp","fa:fasha","Right","39","1","12","6A","C1","C","12"
"","","approach-retreat","16","637148","0.0-16.0","","","1-4","7808","37","1","Training","Stims/Figures/85-C-20-2.bmp","sa:saha","Right","37","1","13","6A","C2","C","13"
"","","approach-retreat","17","644380","0.0-17.0","","","1-4","5727","39","1","Training","Stims/Figures/27-C-30-1.bmp","sasa:za","Left","39","1","14","6A","C2","C","14"
"","","approach-retreat","18","652043","0.0-18.0","","","1-4","6158","37","1","Training","Stims/Figures/44-C-30-3.bmp","sa:saza","Right","37","1","15","6A","C2","C","15"
"","","approach-retreat","19","659531","0.0-19.0","","","1-4","5982","37","1","Training","Stims/Figures/44-J-10-3.bmp","va:fasha","Left","37","1","16","6A","C1","C","16"
"","","approach-retreat","20","666683","0.0-20.0","","","1-4","5647","39","1","Training","Stims/Figures/27-C-30-1.bmp","sasa:za","Left","39","2","1","6A","C2","C","17"
"","","approach-retreat","21","674065","0.0-21.0","","","1-4","5871","38","0","Training","Stims/Figures/19-C-20-4.bmp","zahaza","Up","40","2","2","6A","C2","C","18"
"","","approach-retreat","22","696639","0.0-22.0","","","1-4","21071","39","0","Training","Stims/Figures/102-C-20-4.bmp","za:saha","Right","37","2","3","6A","C2","C","19"
"","","approach-retreat","23","709247","0.0-23.0","","","1-4","11104","40","1","Training","Stims/Figures/57-J-0-1.bmp","va:sha:va","Down","40","2","4","6A","C1","C","20"
"","","approach-retreat","24","718799","0.0-24.0","","","1-4","8048","38","1","Training","Stims/Figures/85-J-0-2.bmp","vafa:va","Up","38","2","5","6A","C1","C","21"
"","","approach-retreat","25","728960","0.0-25.0","","","1-4","8656","40","1","Training","Stims/Figures/128-C-30-3.bmp","zasa:za","Up","40","2","6","6A","C2","C","22"
"","","approach-retreat","26","737882","0.0-26.0","","","1-4","7418","37","0","Training","Stims/Figures/57-C-30-1.bmp","zasaha","Left","39","2","7","6A","C2","C","23"
"","","approach-retreat","27","746507","0.0-27.0","","","1-4","7121","40","1","Training","Stims/Figures/85-C-20-2.bmp","sa:saha","Up","40","2","8","6A","C2","C","24"
"","","approach-retreat","28","763241","0.0-28.0","","","1-4","15230","40","1","Training","Stims/Figures/27-J-0-1.bmp","va:shasha","Down","40","2","9","6A","C1","C","25"
"","","approach-retreat","29","773337","0.0-29.0","","","1-4","8593","37","0","Training","Stims/Figures/44-C-30-3.bmp","sa:saza","Left","39","2","10","6A","C2","C","26"
"","","approach-retreat","30","783321","0.0-30.0","","","1-4","8479","39","1","Training","Stims/Figures/128-J-10-3.bmp","va:fa:sha","Right","39","2","11","6A","C1","C","27"
"","","approach-retreat","31","793849","0.0-31.0","","","1-4","9024","40","1","Training","Stims/Figures/118-J-0-2.bmp","fasha:va","Down","40","2","12","6A","C1","C","28"
"","","approach-retreat","32","804923","0.0-32.0","","","1-4","9569","40","1","Training","Stims/Figures/102-J-10-4.bmp","fa:fasha","Down","40","2","13","6A","C1","C","29"
"","","approach-retreat","33","813179","0.0-33.0","","","1-4","6751","39","1","Training","Stims/Figures/118-C-20-2.bmp","sa:sa:ha","Left","39","2","14","6A","C2","C","30"
"","","approach-retreat","34","820494","0.0-34.0","","","1-4","5812","37","0","Training","Stims/Figures/19-J-10-4.bmp","fa:shava","Right","39","2","15","6A","C1","C","31"
"","","approach-retreat","35","828842","0.0-35.0","","","1-4","6844","37","0","Training","Stims/Figures/44-J-10-3.bmp","va:fasha","Right","39","2","16","6A","C1","C","32"
"","","approach-retreat","36","839657","0.0-36.0","","","1-4","9311","38","1","Training","Stims/Figures/19-C-20-4.bmp","zahaza","Down","38","3","1","6A","C2","C","33"
"","","approach-retreat","37","848377","0.0-37.0","","","1-4","7216","40","1","Training","Stims/Figures/128-J-10-3.bmp","va:fa:sha","Down","40","3","2","6A","C1","C","34"
"","","approach-retreat","38","856296","0.0-38.0","","","1-4","6416","37","0","Training","Stims/Figures/128-C-30-3.bmp","zasa:za","Left","39","3","3","6A","C2","C","35"
"","","approach-retreat","39","864729","0.0-39.0","","","1-4","6929","40","1","Training","Stims/Figures/19-J-10-4.bmp","fa:shava","Down","40","3","4","6A","C1","C","36"
"","","approach-retreat","40","871481","0.0-40.0","","","1-4","5248","40","0","Training","Stims/Figures/102-J-10-4.bmp","fa:fasha","Up","38","3","5","6A","C1","C","37"
"","","approach-retreat","41","879913","0.0-41.0","","","1-4","6927","38","1","Training","Stims/Figures/85-J-0-2.bmp","vafa:va","Up","38","3","6","6A","C1","C","38"
"","","approach-retreat","42","887528","0.0-42.0","","","1-4","6112","40","1","Training","Stims/Figures/57-C-30-1.bmp","zasaha","Up","40","3","7","6A","C2","C","39"
"","","approach-retreat","43","894600","0.0-43.0","","","1-4","5569","37","0","Training","Stims/Figures/118-C-20-2.bmp","sa:sa:ha","Left","39","3","8","6A","C2","C","40"
"","","approach-retreat","44","902776","0.0-44.0","","","1-4","6673","39","0","Training","Stims/Figures/27-J-0-1.bmp","va:shasha","Left","37","3","9","6A","C1","C","41"
"","","approach-retreat","45","916901","0.0-45.0","","","1-4","12625","40","1","Training","Stims/Figures/44-J-10-3.bmp","va:fasha","Down","40","3","10","6A","C1","C","42"
"","","approach-retreat","46","926661","0.0-46.0","","","1-4","8256","37","1","Training","Stims/Figures/27-C-30-1.bmp","sasa:za","Right","37","3","11","6A","C2","C","43"
"","","approach-retreat","47","936471","0.0-47.0","","","1-4","8305","40","1","Training","Stims/Figures/44-C-30-3.bmp","sa:saza","Up","40","3","12","6A","C2","C","44"
"","","approach-retreat","48","949029","0.0-48.0","","","1-4","11055","37","1","Training","Stims/Figures/102-C-20-4.bmp","za:saha","Right","37","3","13","6A","C2","C","45"
"","","approach-retreat","49","959365","0.0-49.0","","","1-4","8832","37","0","Training","Stims/Figures/85-C-20-2.bmp","sa:saha","Left","39","3","14","6A","C2","C","46"
"","","approach-retreat","50","969780","0.0-50.0","","","1-4","8912","37","0","Training","Stims/Figures/57-J-0-1.bmp","va:sha:va","Right","39","3","15","6A","C1","C","47"
"","","approach-retreat","51","975526","0.0-51.0","","","1-4","4241","37","0","Training","Stims/Figures/118-J-0-2.bmp","fasha:va","Right","39","3","16","6A","C1","C","48"
"","","approach-retreat","52","981325","0.0-52.0","","","1-4","4296","38","0","Training","Stims/Figures/27-C-30-1.bmp","sasa:za","Up","40","4","1","6A","C2","C","49"
"","","approach-retreat","53","987659","0.0-53.0","","","1-4","4832","40","1","Training","Stims/Figures/128-J-10-3.bmp","va:fa:sha","Down","40","4","2","6A","C1","C","50"
"","","approach-retreat","54","993596","0.0-54.0","","","1-4","4432","39","1","Training","Stims/Figures/85-C-20-2.bmp","sa:saha","Left","39","4","3","6A","C2","C","51"
"","","approach-retreat","55","999004","0.0-55.0","","","1-4","3903","40","0","Training","Stims/Figures/44-C-30-3.bmp","sa:saza","Down","38","4","4","6A","C2","C","52"
"","","approach-retreat","56","1006732","0.0-56.0","","","1-4","6225","40","1","Training","Stims/Figures/118-J-0-2.bmp","fasha:va","Down","40","4","5","6A","C1","C","53"
"","","approach-retreat","57","1014844","0.0-57.0","","","1-4","6607","38","1","Training","Stims/Figures/102-J-10-4.bmp","fa:fasha","Up","38","4","6","6A","C1","C","54"
"","","approach-retreat","58","1021851","0.0-58.0","","","1-4","5503","37","1","Training","Stims/Figures/118-C-20-2.bmp","sa:sa:ha","Right","37","4","7","6A","C2","C","55"
"","","approach-retreat","59","1027692","0.0-59.0","","","1-4","4336","39","1","Training","Stims/Figures/27-J-0-1.bmp","va:shasha","Right","39","4","8","6A","C1","C","56"
"","","approach-retreat","60","1033483","0.0-60.0","","","1-4","4287","40","0","Training","Stims/Figures/85-J-0-2.bmp","vafa:va","Up","38","4","9","6A","C1","C","57"
"","","approach-retreat","61","1040726","0.0-61.0","","","1-4","5740","37","0","Training","Stims/Figures/102-C-20-4.bmp","za:saha","Left","39","4","10","6A","C2","C","58"
"","","approach-retreat","62","1046518","0.0-62.0","","","1-4","4289","39","1","Training","Stims/Figures/44-J-10-3.bmp","va:fasha","Right","39","4","11","6A","C1","C","59"
"","","approach-retreat","63","1052566","0.0-63.0","","","1-4","4545","37","0","Training","Stims/Figures/19-C-20-4.bmp","zahaza","Left","39","4","12","6A","C2","C","60"
"","","approach-retreat","64","1058038","0.0-64.0","","","1-4","3968","39","1","Training","Stims/Figures/57-C-30-1.bmp","zasaha","Left","39","4","13","6A","C2","C","61"
"","","approach-retreat","65","1063767","0.0-65.0","","","1-4","4224","40","0","Training","Stims/Figures/128-C-30-3.bmp","zasa:za","Down","38","4","14","6A","C2","C","62"
"","","approach-retreat","66","1070341","0.0-66.0","","","1-4","5070","39","1","Training","Stims/Figures/57-J-0-1.bmp","va:sha:va","Right","39","4","15","6A","C1","C","63"
"","","approach-retreat","67","1075973","0.0-67.0","","","1-4","4128","40","0","Training","Stims/Figures/19-J-10-4.bmp","fa:shava","Up","38","4","16","6A","C1","C","64"
"","","approach-retreat","68","1083190","0.0-68.0","","","1-4","5714","38","1","Training","Stims/Figures/102-J-10-4.bmp","fa:fasha","Up","38","5","1","6A","C1","C","65"
"","","approach-retreat","69","1091653","0.0-69.0","","","1-4","6959","37","1","Training","Stims/Figures/128-J-10-3.bmp","va:fa:sha","Left","37","5","2","6A","C1","C","66"
"","","approach-retreat","70","1097956","0.0-70.0","","","1-4","4800","40","1","Training","Stims/Figures/57-C-30-1.bmp","zasaha","Up","40","5","3","6A","C2","C","67"
"","","approach-retreat","71","1106244","0.0-71.0","","","1-4","6784","38","0","Training","Stims/Figures/19-J-10-4.bmp","fa:shava","Down","40","5","4","6A","C1","C","68"
"","","approach-retreat","72","1114677","0.0-72.0","","","1-4","6929","40","1","Training","Stims/Figures/27-J-0-1.bmp","va:shasha","Down","40","5","5","6A","C1","C","69"
"","","approach-retreat","73","1121619","0.0-73.0","","","1-4","5439","39","0","Training","Stims/Figures/44-C-30-3.bmp","sa:saza","Right","37","5","6","6A","C2","C","70"
"","","approach-retreat","74","1129348","0.0-74.0","","","1-4","6226","37","0","Training","Stims/Figures/102-C-20-4.bmp","za:saha","Left","39","5","7","6A","C2","C","71"
"","","approach-retreat","75","1136116","0.0-75.0","","","1-4","5264","40","0","Training","Stims/Figures/27-C-30-1.bmp","sasa:za","Down","38","5","8","6A","C2","C","72"
"","","approach-retreat","76","1142835","0.0-76.0","","","1-4","5215","37","0","Training","Stims/Figures/85-C-20-2.bmp","sa:saha","Left","39","5","9","6A","C2","C","73"
"","","approach-retreat","77","1152980","0.0-77.0","","","1-4","8642","40","0","Training","Stims/Figures/57-J-0-1.bmp","va:sha:va","Up","38","5","10","6A","C1","C","74"
"","","approach-retreat","78","1160563","0.0-78.0","","","1-4","6079","40","0","Training","Stims/Figures/118-J-0-2.bmp","fasha:va","Up","38","5","11","6A","C1","C","75"
"","","approach-retreat","79","1167940","0.0-79.0","","","1-4","5874","40","1","Training","Stims/Figures/85-J-0-2.bmp","vafa:va","Down","40","5","12","6A","C1","C","76"
"","","approach-retreat","80","1175124","0.0-80.0","","","1-4","5679","39","0","Training","Stims/Figures/44-J-10-3.bmp","va:fasha","Left","37","5","13","6A","C1","C","77"
"","","approach-retreat","81","1181316","0.0-81.0","","","1-4","4688","37","1","Training","Stims/Figures/118-C-20-2.bmp","sa:sa:ha","Right","37","5","14","6A","C2","C","78"
"","","approach-retreat","82","1188164","0.0-82.0","","","1-4","5344","37","1","Training","Stims/Figures/128-C-30-3.bmp","zasa:za","Right","37","5","15","6A","C2","C","79"
"","","approach-retreat","83","1194964","0.0-83.0","","","1-4","5295","39","0","Training","Stims/Figures/19-C-20-4.bmp","zahaza","Right","37","5","16","6A","C2","C","80"
"","","approach-retreat","84","1200772","0.0-84.0","","","1-4","4303","37","1","Training","Stims/Figures/44-J-10-3.bmp","va:fasha","Left","37","6","1","6A","C1","C","81"
"","","approach-retreat","85","1206611","0.0-85.0","","","1-4","4335","38","0","Training","Stims/Figures/128-J-10-3.bmp","va:fa:sha","Down","40","6","2","6A","C1","C","82"
"","","approach-retreat","86","1212563","0.0-86.0","","","1-4","4449","40","0","Training","Stims/Figures/128-C-30-3.bmp","zasa:za","Down","38","6","3","6A","C2","C","83"
"","","approach-retreat","87","1218394","0.0-87.0","","","1-4","4320","39","0","Training","Stims/Figures/19-J-10-4.bmp","fa:shava","Left","37","6","4","6A","C1","C","84"
"","","approach-retreat","88","1224745","0.0-88.0","","","1-4","4848","38","0","Training","Stims/Figures/19-C-20-4.bmp","zahaza","Up","40","6","5","6A","C2","C","85"
"","","approach-retreat","89","1237930","0.0-89.0","","","1-4","11681","39","1","Training","Stims/Figures/57-J-0-1.bmp","va:sha:va","Right","39","6","6","6A","C1","C","86"
"","","approach-retreat","90","1245050","0.0-90.0","","","1-4","5616","40","1","Training","Stims/Figures/57-C-30-1.bmp","zasaha","Up","40","6","7","6A","C2","C","87"
"","","approach-retreat","91","1252409","0.0-91.0","","","1-4","5856","37","0","Training","Stims/Figures/102-J-10-4.bmp","fa:fasha","Right","39","6","8","6A","C1","C","88"
"","","approach-retreat","92","1260345","0.0-92.0","","","1-4","6433","37","0","Training","Stims/Figures/85-J-0-2.bmp","vafa:va","Right","39","6","9","6A","C1","C","89"
"","","approach-retreat","93","1270921","0.0-93.0","","","1-4","9071","37","1","Training","Stims/Figures/27-J-0-1.bmp","va:shasha","Left","37","6","10","6A","C1","C","90"
"","","approach-retreat","94","1278154","0.0-94.0","","","1-4","5729","40","1","Training","Stims/Figures/118-C-20-2.bmp","sa:sa:ha","Up","40","6","11","6A","C2","C","91"
"","","approach-retreat","95","1286403","0.0-95.0","","","1-4","6745","37","0","Training","Stims/Figures/27-C-30-1.bmp","sasa:za","Left","39","6","12","6A","C2","C","92"
"","","approach-retreat","96","1294307","0.0-96.0","","","1-4","6398","40","0","Training","Stims/Figures/44-C-30-3.bmp","sa:saza","Down","38","6","13","6A","C2","C","93"
"","","approach-retreat","97","1301458","0.0-97.0","","","1-4","5648","39","0","Training","Stims/Figures/102-C-20-4.bmp","za:saha","Right","37","6","14","6A","C2","C","94"
"","","approach-retreat","98","1311987","0.0-98.0","","","1-4","9026","40","0","Training","Stims/Figures/118-J-0-2.bmp","fasha:va","Up","38","6","15","6A","C1","C","95"
"","","approach-retreat","99","1319491","0.0-99.0","","","1-4","6000","38","1","Training","Stims/Figures/85-C-20-2.bmp","sa:saha","Down","38","6","16","6A","C2","C","96"
"","","approach-retreat","100","1328851","0.0-100.0","","","1-4","7856","37","1","Training","Stims/Figures/102-J-10-4.bmp","fa:fasha","Left","37","7","1","6A","C1","C","97"
"","","approach-retreat","101","1335890","0.0-101.0","","","1-4","5536","39","0","Training","Stims/Figures/57-C-30-1.bmp","zasaha","Right","37","7","2","6A","C2","C","98"
"","","approach-retreat","102","1343153","0.0-102.0","","","1-4","5759","40","1","Training","Stims/Figures/19-C-20-4.bmp","zahaza","Up","40","7","3","6A","C2","C","99"
"","","approach-retreat","103","1349555","0.0-103.0","","","1-4","4898","39","1","Training","Stims/Figures/85-C-20-2.bmp","sa:saha","Left","39","7","4","6A","C2","C","100"
"","","approach-retreat","104","1357027","0.0-104.0","","","1-4","5967","40","0","Training","Stims/Figures/102-C-20-4.bmp","za:saha","Down","38","7","5","6A","C2","C","101"
"","","approach-retreat","105","1367541","0.0-105.0","","","1-4","9008","38","0","Training","Stims/Figures/57-J-0-1.bmp","va:sha:va","Down","40","7","6","6A","C1","C","102"
"","","approach-retreat","106","1374690","0.0-106.0","","","1-4","5645","40","0","Training","Stims/Figures/128-C-30-3.bmp","zasa:za","Down","38","7","7","6A","C2","C","103"
"","","approach-retreat","107","1381650","0.0-107.0","","","1-4","5456","37","1","Training","Stims/Figures/27-J-0-1.bmp","va:shasha","Left","37","7","8","6A","C1","C","104"
"","","approach-retreat","108","1389122","0.0-108.0","","","1-4","5968","38","1","Training","Stims/Figures/128-J-10-3.bmp","va:fa:sha","Up","38","7","9","6A","C1","C","105"
"","","approach-retreat","109","1396994","0.0-109.0","","","1-4","6368","37","0","Training","Stims/Figures/44-J-10-3.bmp","va:fasha","Right","39","7","10","6A","C1","C","106"
"","","approach-retreat","110","1404356","0.0-110.0","","","1-4","5859","39","0","Training","Stims/Figures/85-J-0-2.bmp","vafa:va","Left","37","7","11","6A","C1","C","107"
"","","approach-retreat","111","1413444","0.0-111.0","","","1-4","7585","37","1","Training","Stims/Figures/44-C-30-3.bmp","sa:saza","Right","37","7","12","6A","C2","C","108"
"","","approach-retreat","112","1422517","0.0-112.0","","","1-4","7568","39","1","Training","Stims/Figures/118-J-0-2.bmp","fasha:va","Right","39","7","13","6A","C1","C","109"
"","","approach-retreat","113","1429684","0.0-113.0","","","1-4","5663","40","0","Training","Stims/Figures/19-J-10-4.bmp","fa:shava","Up","38","7","14","6A","C1","C","110"
"","","approach-retreat","114","1437923","0.0-114.0","","","1-4","6736","40","0","Training","Stims/Figures/27-C-30-1.bmp","sasa:za","Down","38","7","15","6A","C2","C","111"
"","","approach-retreat","115","1444579","0.0-115.0","","","1-4","5153","40","1","Training","Stims/Figures/118-C-20-2.bmp","sa:sa:ha","Up","40","7","16","6A","C2","C","112"
"","","approach-retreat","116","1452884","0.0-116.0","","","1-4","6801","38","1","Training","Stims/Figures/128-J-10-3.bmp","va:fa:sha","Up","38","8","1","6A","C1","C","113"
"","","approach-retreat","117","1463777","0.0-117.0","","","1-4","9389","37","0","Training","Stims/Figures/27-J-0-1.bmp","va:shasha","Right","39","8","2","6A","C1","C","114"
"","","approach-retreat","118","1473792","0.0-118.0","","","1-4","8512","39","0","Training","Stims/Figures/57-C-30-1.bmp","zasaha","Right","37","8","3","6A","C2","C","115"
"","","approach-retreat","119","1484737","0.0-119.0","","","1-4","9440","37","1","Training","Stims/Figures/85-J-0-2.bmp","vafa:va","Left","37","8","4","6A","C1","C","116"
"","","approach-retreat","120","1491137","0.0-120.0","","","1-4","4897","40","1","Training","Stims/Figures/128-C-30-3.bmp","zasa:za","Up","40","8","5","6A","C2","C","117"
"","","approach-retreat","121","1497695","0.0-121.0","","","1-4","5055","38","0","Training","Stims/Figures/85-C-20-2.bmp","sa:saha","Up","40","8","6","6A","C2","C","118"
"","","approach-retreat","122","1505760","0.0-122.0","","","1-4","6562","38","0","Training","Stims/Figures/118-J-0-2.bmp","fasha:va","Down","40","8","7","6A","C1","C","119"
"","","approach-retreat","123","1512528","0.0-123.0","","","1-4","5264","37","0","Training","Stims/Figures/118-C-20-2.bmp","sa:sa:ha","Left","39","8","8","6A","C2","C","120"
"","","approach-retreat","124","1520000","0.0-124.0","","","1-4","5968","40","0","Training","Stims/Figures/19-C-20-4.bmp","zahaza","Down","38","8","9","6A","C2","C","121"
"","","approach-retreat","125","1527855","0.0-125.0","","","1-4","6352","39","0","Training","Stims/Figures/57-J-0-1.bmp","va:sha:va","Left","37","8","10","6A","C1","C","122"
"","","approach-retreat","126","1535120","0.0-126.0","","","1-4","5761","38","0","Training","Stims/Figures/44-C-30-3.bmp","sa:saza","Up","40","8","11","6A","C2","C","123"
"","","approach-retreat","127","1541375","0.0-127.0","","","1-4","4752","39","1","Training","Stims/Figures/102-J-10-4.bmp","fa:fasha","Right","39","8","12","6A","C1","C","124"
"","","approach-retreat","128","1547536","0.0-128.0","","","1-4","4656","40","1","Training","Stims/Figures/19-J-10-4.bmp","fa:shava","Down","40","8","13","6A","C1","C","125"
"","","approach-retreat","129","1554415","0.0-129.0","","","1-4","5375","39","1","Training","Stims/Figures/44-J-10-3.bmp","va:fasha","Right","39","8","14","6A","C1","C","126"
"","","approach-retreat","130","1563184","0.0-130.0","","","1-4","7264","39","1","Training","Stims/Figures/27-C-30-1.bmp","sasa:za","Left","39","8","15","6A","C2","C","127"
"","","approach-retreat","131","1570064","0.0-131.0","","","1-4","5375","38","1","Training","Stims/Figures/102-C-20-4.bmp","za:saha","Down","38","8","16","6A","C2","C","128"
"","","approach-retreat","132","1575695","0.0-132.0","","","1-4","4126","39","0","Training","Stims/Figures/128-J-10-3.bmp","va:fa:sha","Left","37","9","1","6A","C1","C","129"
"","","approach-retreat","133","1581487","0.0-133.0","","","1-4","4290","40","0","Training","Stims/Figures/118-C-20-2.bmp","sa:sa:ha","Down","38","9","2","6A","C2","C","130"
"","","approach-retreat","134","1589710","0.0-134.0","","","1-4","6720","38","0","Training","Stims/Figures/102-J-10-4.bmp","fa:fasha","Down","40","9","3","6A","C1","C","131"
"","","approach-retreat","135","1597822","0.0-135.0","","","1-4","6608","39","1","Training","Stims/Figures/27-J-0-1.bmp","va:shasha","Right","39","9","4","6A","C1","C","132"
"","","approach-retreat","136","1603790","0.0-136.0","","","1-4","4464","39","1","Training","Stims/Figures/102-C-20-4.bmp","za:saha","Left","39","9","5","6A","C2","C","133"
"","","approach-retreat","137","1611087","0.0-137.0","","","1-4","5792","40","1","Training","Stims/Figures/57-J-0-1.bmp","va:sha:va","Down","40","9","6","6A","C1","C","134"
"","","approach-retreat","138","1617007","0.0-138.0","","","1-4","4416","38","0","Training","Stims/Figures/85-C-20-2.bmp","sa:saha","Up","40","9","7","6A","C2","C","135"
"","","approach-retreat","139","1622862","0.0-139.0","","","1-4","4352","38","0","Training","Stims/Figures/128-C-30-3.bmp","zasa:za","Up","40","9","8","6A","C2","C","136"
"","","approach-retreat","140","1628527","0.0-140.0","","","1-4","4161","40","1","Training","Stims/Figures/27-C-30-1.bmp","sasa:za","Up","40","9","9","6A","C2","C","137"
"","","approach-retreat","141","1634126","0.0-141.0","","","1-4","4096","39","1","Training","Stims/Figures/44-J-10-3.bmp","va:fasha","Right","39","9","10","6A","C1","C","138"
"","","approach-retreat","142","1640036","0.0-142.0","","","1-4","4405","39","0","Training","Stims/Figures/85-J-0-2.bmp","vafa:va","Left","37","9","11","6A","C1","C","139"
"","","approach-retreat","143","1646111","0.0-143.0","","","1-4","4570","40","1","Training","Stims/Figures/57-C-30-1.bmp","zasaha","Up","40","9","12","6A","C2","C","140"
"","","approach-retreat","144","1651821","0.0-144.0","","","1-4","4208","39","0","Training","Stims/Figures/19-C-20-4.bmp","zahaza","Right","37","9","13","6A","C2","C","141"
"","","approach-retreat","145","1657647","0.0-145.0","","","1-4","4322","37","1","Training","Stims/Figures/44-C-30-3.bmp","sa:saza","Right","37","9","14","6A","C2","C","142"
"","","approach-retreat","146","1664909","0.0-146.0","","","1-4","5759","40","1","Training","Stims/Figures/118-J-0-2.bmp","fasha:va","Down","40","9","15","6A","C1","C","143"
"","","approach-retreat","147","1670685","0.0-147.0","","","1-4","4273","39","0","Training","Stims/Figures/19-J-10-4.bmp","fa:shava","Left","37","9","16","6A","C1","C","144"
"22102","","instructions","148","1692788","0.0-148.0","[{""page_index"":0,""viewing_time"":22101}]","","","","","","","","","","","","","","","",""
"","","approach-retreat","149","1701598","0.0-149.0","","","1-4","7307","37","0","Testing","Stims/Figures/19-C-20-4.bmp","zahaza","Left","39","1","1","6A","C2","C","1"
"","","approach-retreat","150","1707098","0.0-150.0","","","1-4","3996","40","0","Testing","Stims/Figures/71-C-30-1.bmp","za:saza","Down","38","1","2","6A","C2","C","2"
"","","approach-retreat","151","1712713","0.0-151.0","","","1-4","4111","39","1","Testing","Stims/Figures/85-J-0-2.bmp","vafa:va","Right","39","1","3","6A","C1","C","3"
"","","approach-retreat","152","1719098","0.0-152.0","","","1-4","4881","37","1","Testing","Stims/Figures/44-J-10-3.bmp","va:fasha","Left","37","1","4","6A","C1","C","4"
"","","approach-retreat","153","1733066","0.0-153.0","","","1-4","12464","40","0","Testing","Stims/Figures/27-J-0-1.bmp","va:shasha","Up","38","1","5","6A","C1","C","5"
"","","approach-retreat","154","1740601","0.0-154.0","","","1-4","6032","40","1","Testing","Stims/Figures/19-J-10-4.bmp","fa:shava","Down","40","1","6","6A","C1","C","6"
"","","approach-retreat","155","1746359","0.0-155.0","","","1-4","4255","39","0","Testing","Stims/Figures/27-C-30-1.bmp","sasa:za","Right","37","1","7","6A","C2","C","7"
"","","approach-retreat","156","1751816","0.0-156.0","","","1-4","3954","38","1","Testing","Stims/Figures/57-J-0-1.bmp","va:sha:va","Up","38","1","8","6A","C1","C","8"
"","","approach-retreat","157","1756889","0.0-157.0","","","1-4","3566","37","0","Testing","Stims/Figures/128-C-30-3.bmp","zasa:za","Left","39","1","9","6A","C2","C","9"
"","","approach-retreat","158","1762567","0.0-158.0","","","1-4","4173","39","1","Testing","Stims/Figures/102-J-10-4.bmp","fa:fasha","Right","39","1","10","6A","C1","C","10"
"","","approach-retreat","159","1768317","0.0-159.0","","","1-4","4245","37","1","Testing","Stims/Figures/118-J-0-2.bmp","fasha:va","Left","37","1","11","6A","C1","C","11"
"","","approach-retreat","160","1775101","0.0-160.0","","","1-4","5280","40","0","Testing","Stims/Figures/7-C-20-4.bmp","zasaza","Down","38","1","12","6A","C2","C","12"
"","","approach-retreat","161","1781500","0.0-161.0","","","1-4","4895","40","0","Testing","Stims/Figures/94-C-20-2.bmp","zaha:ha","Down","38","1","13","6A","C2","C","13"
"","","approach-retreat","162","1787229","0.0-162.0","","","1-4","4225","39","1","Testing","Stims/Figures/71-J-0-1.bmp","va:fava","Right","39","1","14","6A","C1","C","14"
"","","approach-retreat","163","1800140","0.0-163.0","","","1-4","11407","37","0","Testing","Stims/Figures/111-C-30-3.bmp","za:ha:za","Left","39","1","15","6A","C2","C","15"
"","","approach-retreat","164","1806076","0.0-164.0","","","1-4","4432","40","0","Testing","Stims/Figures/128-J-10-3.bmp","va:fa:sha","Up","38","1","16","6A","C1","C","16"
"","","approach-retreat","165","1813452","0.0-165.0","","","1-4","5872","40","0","Testing","Stims/Figures/94-J-0-2.bmp","vasha:va","Up","38","1","17","6A","C1","C","17"
"","","approach-retreat","166","1819420","0.0-166.0","","","1-4","4464","40","0","Testing","Stims/Figures/7-J-10-4.bmp","fa:sha:sha","Up","38","1","18","6A","C1","C","18"
"","","approach-retreat","167","1824895","0.0-167.0","","","1-4","3971","39","0","Testing","Stims/Figures/102-C-20-4.bmp","za:saha","Right","37","1","19","6A","C2","C","19"
"","","approach-retreat","168","1830623","0.0-168.0","","","1-4","4224","37","1","Testing","Stims/Figures/118-C-20-2.bmp","sa:sa:ha","Right","37","1","20","6A","C2","C","20"
"","","approach-retreat","169","1837807","0.0-169.0","","","1-4","5680","40","0","Testing","Stims/Figures/57-C-30-1.bmp","zasaha","Down","38","1","21","6A","C2","C","21"
"","","approach-retreat","170","1844286","0.0-170.0","","","1-4","4975","40","0","Testing","Stims/Figures/85-C-20-2.bmp","sa:saha","Down","38","1","22","6A","C2","C","22"
"","","approach-retreat","171","1849886","0.0-171.0","","","1-4","4096","40","0","Testing","Stims/Figures/111-J-10-3.bmp","fasha:sha","Up","38","1","23","6A","C1","C","23"
"","","approach-retreat","172","1855662","0.0-172.0","","","1-4","4272","37","0","Testing","Stims/Figures/44-C-30-3.bmp","sa:saza","Left","39","1","24","6A","C2","C","24"
"","","approach-retreat","173","1861151","0.0-173.0","","","1-4","3985","39","0","Testing","Stims/Figures/57-C-30-1.bmp","zasaha","Right","37","2","1","6A","C2","C","25"
"","","approach-retreat","174","1866815","0.0-174.0","","","1-4","4160","38","0","Testing","Stims/Figures/128-J-10-3.bmp","va:fa:sha","Down","40","2","2","6A","C1","C","26"
"","","approach-retreat","175","1872430","0.0-175.0","","","1-4","4111","39","0","Testing","Stims/Figures/118-C-20-2.bmp","sa:sa:ha","Right","37","2","3","6A","C2","C","27"
"","","approach-retreat","176","1878175","0.0-176.0","","","1-4","4240","37","0","Testing","Stims/Figures/7-C-20-4.bmp","zasaza","Left","39","2","4","6A","C2","C","28"
"","","approach-retreat","177","1883940","0.0-177.0","","","1-4","4271","40","1","Testing","Stims/Figures/44-J-10-3.bmp","va:fasha","Down","40","2","5","6A","C1","C","29"
"","","approach-retreat","178","1889732","0.0-178.0","","","1-4","4288","40","0","Testing","Stims/Figures/7-J-10-4.bmp","fa:sha:sha","Up","38","2","6","6A","C1","C","30"
"","","approach-retreat","179","1896053","0.0-179.0","","","1-4","4817","40","1","Testing","Stims/Figures/27-C-30-1.bmp","sasa:za","Up","40","2","7","6A","C2","C","31"
"","","approach-retreat","180","1902725","0.0-180.0","","","1-4","5167","37","0","Testing","Stims/Figures/71-C-30-1.bmp","za:saza","Left","39","2","8","6A","C2","C","32"
"","","approach-retreat","181","1910261","0.0-181.0","","","1-4","6032","39","0","Testing","Stims/Figures/118-J-0-2.bmp","fasha:va","Left","37","2","9","6A","C1","C","33"
"","","approach-retreat","182","1918324","0.0-182.0","","","1-4","6559","37","0","Testing","Stims/Figures/111-C-30-3.bmp","za:ha:za","Left","39","2","10","6A","C2","C","34"
"","","approach-retreat","183","1925620","0.0-183.0","","","1-4","5792","40","1","Testing","Stims/Figures/71-J-0-1.bmp","va:fava","Down","40","2","11","6A","C1","C","35"
"","","approach-retreat","184","1934580","0.0-184.0","","","1-4","7456","40","1","Testing","Stims/Figures/85-C-20-2.bmp","sa:saha","Up","40","2","12","6A","C2","C","36"
"","","approach-retreat","185","1941605","0.0-185.0","","","1-4","5521","38","1","Testing","Stims/Figures/102-C-20-4.bmp","za:saha","Down","38","2","13","6A","C2","C","37"
"","","approach-retreat","186","1949130","0.0-186.0","","","1-4","6022","40","0","Testing","Stims/Figures/57-J-0-1.bmp","va:sha:va","Up","38","2","14","6A","C1","C","38"
"","","approach-retreat","187","1956617","0.0-187.0","","","1-4","5984","37","0","Testing","Stims/Figures/94-J-0-2.bmp","vasha:va","Right","39","2","15","6A","C1","C","39"
"","","approach-retreat","188","1966106","0.0-188.0","","","1-4","7985","39","0","Testing","Stims/Figures/19-J-10-4.bmp","fa:shava","Left","37","2","16","6A","C1","C","40"
"","","approach-retreat","189","1974250","0.0-189.0","","","1-4","6640","37","1","Testing","Stims/Figures/94-C-20-2.bmp","zaha:ha","Right","37","2","17","6A","C2","C","41"
"","","approach-retreat","190","1983338","0.0-190.0","","","1-4","7584","39","0","Testing","Stims/Figures/111-J-10-3.bmp","fasha:sha","Left","37","2","18","6A","C1","C","42"
"","","approach-retreat","191","1989993","0.0-191.0","","","1-4","5151","40","1","Testing","Stims/Figures/27-J-0-1.bmp","va:shasha","Down","40","2","19","6A","C1","C","43"
"","","approach-retreat","192","1995898","0.0-192.0","","","1-4","4401","39","1","Testing","Stims/Figures/102-J-10-4.bmp","fa:fasha","Right","39","2","20","6A","C1","C","44"
"","","approach-retreat","193","2002744","0.0-193.0","","","1-4","5343","39","1","Testing","Stims/Figures/85-J-0-2.bmp","vafa:va","Right","39","2","21","6A","C1","C","45"
"","","approach-retreat","194","2009416","0.0-194.0","","","1-4","5167","38","0","Testing","Stims/Figures/44-C-30-3.bmp","sa:saza","Up","40","2","22","6A","C2","C","46"
"","","approach-retreat","195","2016712","0.0-195.0","","","1-4","5792","40","0","Testing","Stims/Figures/128-C-30-3.bmp","zasa:za","Down","38","2","23","6A","C2","C","47"
"","","approach-retreat","196","2027416","0.0-196.0","","","1-4","9199","40","1","Testing","Stims/Figures/19-C-20-4.bmp","zahaza","Up","40","2","24","6A","C2","C","48"
"","","approach-retreat","197","2034376","0.0-197.0","","","1-4","5456","40","1","Testing","Stims/Figures/7-C-20-4.bmp","zasaza","Up","40","3","1","6A","C2","C","49"
"","","approach-retreat","198","2041224","0.0-198.0","","","1-4","5344","38","0","Testing","Stims/Figures/19-C-20-4.bmp","zahaza","Up","40","3","2","6A","C2","C","50"
"","","approach-retreat","199","2049080","0.0-199.0","","","1-4","6352","38","1","Testing","Stims/Figures/85-J-0-2.bmp","vafa:va","Up","38","3","3","6A","C1","C","51"
"","","approach-retreat","200","2055239","0.0-200.0","","","1-4","4655","38","1","Testing","Stims/Figures/102-J-10-4.bmp","fa:fasha","Up","38","3","4","6A","C1","C","52"
"","","approach-retreat","201","2062199","0.0-201.0","","","1-4","5456","37","0","Testing","Stims/Figures/118-J-0-2.bmp","fasha:va","Right","39","3","5","6A","C1","C","53"
"","","approach-retreat","202","2069048","0.0-202.0","","","1-4","5345","40","1","Testing","Stims/Figures/94-J-0-2.bmp","vasha:va","Down","40","3","6","6A","C1","C","54"
"","","approach-retreat","203","2074856","0.0-203.0","","","1-4","4304","37","1","Testing","Stims/Figures/128-J-10-3.bmp","va:fa:sha","Left","37","3","7","6A","C1","C","55"
"","","approach-retreat","204","2080550","0.0-204.0","","","1-4","4191","38","1","Testing","Stims/Figures/111-J-10-3.bmp","fasha:sha","Up","38","3","8","6A","C1","C","56"
"","","approach-retreat","205","2086838","0.0-205.0","","","1-4","4785","40","0","Testing","Stims/Figures/71-C-30-1.bmp","za:saza","Down","38","3","9","6A","C2","C","57"
"","","approach-retreat","206","2092743","0.0-206.0","","","1-4","4401","37","0","Testing","Stims/Figures/94-C-20-2.bmp","zaha:ha","Left","39","3","10","6A","C2","C","58"
"","","approach-retreat","207","2099287","0.0-207.0","","","1-4","5040","39","0","Testing","Stims/Figures/19-J-10-4.bmp","fa:shava","Left","37","3","11","6A","C1","C","59"
"","","approach-retreat","208","2105159","0.0-208.0","","","1-4","4368","37","0","Testing","Stims/Figures/128-C-30-3.bmp","zasa:za","Left","39","3","12","6A","C2","C","60"
"","","approach-retreat","209","2111879","0.0-209.0","","","1-4","5216","40","1","Testing","Stims/Figures/27-J-0-1.bmp","va:shasha","Down","40","3","13","6A","C1","C","61"
"","","approach-retreat","210","2118486","0.0-210.0","","","1-4","5104","38","1","Testing","Stims/Figures/111-C-30-3.bmp","za:ha:za","Down","38","3","14","6A","C2","C","62"
"","","approach-retreat","211","2124855","0.0-211.0","","","1-4","4865","39","1","Testing","Stims/Figures/57-J-0-1.bmp","va:sha:va","Right","39","3","15","6A","C1","C","63"
"","","approach-retreat","212","2131020","0.0-212.0","","","1-4","4661","37","1","Testing","Stims/Figures/71-J-0-1.bmp","va:fava","Left","37","3","16","6A","C1","C","64"
"","","approach-retreat","213","2137532","0.0-213.0","","","1-4","5008","39","0","Testing","Stims/Figures/118-C-20-2.bmp","sa:sa:ha","Right","37","3","17","6A","C2","C","65"
"","","approach-retreat","214","2146619","0.0-214.0","","","1-4","7583","40","1","Testing","Stims/Figures/27-C-30-1.bmp","sasa:za","Up","40","3","18","6A","C2","C","66"
"","","approach-retreat","215","2152476","0.0-215.0","","","1-4","4352","38","1","Testing","Stims/Figures/102-C-20-4.bmp","za:saha","Down","38","3","19","6A","C2","C","67"
"","","approach-retreat","216","2158379","0.0-216.0","","","1-4","4399","37","1","Testing","Stims/Figures/57-C-30-1.bmp","zasaha","Right","37","3","20","6A","C2","C","68"
"","","approach-retreat","217","2166364","0.0-217.0","","","1-4","6481","39","1","Testing","Stims/Figures/44-J-10-3.bmp","va:fasha","Right","39","3","21","6A","C1","C","69"
"","","approach-retreat","218","2172059","0.0-218.0","","","1-4","4192","37","1","Testing","Stims/Figures/7-J-10-4.bmp","fa:sha:sha","Left","37","3","22","6A","C1","C","70"
"","","approach-retreat","219","2178043","0.0-219.0","","","1-4","4480","39","0","Testing","Stims/Figures/44-C-30-3.bmp","sa:saza","Right","37","3","23","6A","C2","C","71"
"","","approach-retreat","220","2188316","0.0-220.0","","","1-4","8769","40","0","Testing","Stims/Figures/85-C-20-2.bmp","sa:saha","Down","38","3","24","6A","C2","C","72"
"","","approach-retreat","221","2194331","0.0-221.0","","","1-4","4511","37","1","Testing","Stims/Figures/27-J-0-1.bmp","va:shasha","Left","37","4","1","6A","C1","C","73"
"","","approach-retreat","222","2200556","0.0-222.0","","","1-4","4721","37","1","Testing","Stims/Figures/71-J-0-1.bmp","va:fava","Left","37","4","2","6A","C1","C","74"
"","","approach-retreat","223","2206364","0.0-223.0","","","1-4","4303","39","0","Testing","Stims/Figures/27-C-30-1.bmp","sasa:za","Right","37","4","3","6A","C2","C","75"
"","","approach-retreat","224","2212972","0.0-224.0","","","1-4","5104","37","1","Testing","Stims/Figures/7-C-20-4.bmp","zasaza","Right","37","4","4","6A","C2","C","76"
"","","approach-retreat","225","2218908","0.0-225.0","","","1-4","4432","40","0","Testing","Stims/Figures/44-C-30-3.bmp","sa:saza","Down","38","4","5","6A","C2","C","77"
"","","approach-retreat","226","2225035","0.0-226.0","","","1-4","4624","37","0","Testing","Stims/Figures/102-J-10-4.bmp","fa:fasha","Right","39","4","6","6A","C1","C","78"
"","","approach-retreat","227","2231179","0.0-227.0","","","1-4","4640","37","1","Testing","Stims/Figures/128-J-10-3.bmp","va:fa:sha","Left","37","4","7","6A","C1","C","79"
"","","approach-retreat","228","2237324","0.0-228.0","","","1-4","4641","38","1","Testing","Stims/Figures/94-J-0-2.bmp","vasha:va","Up","38","4","8","6A","C1","C","80"
"","","approach-retreat","229","2243450","0.0-229.0","","","1-4","4624","40","1","Testing","Stims/Figures/111-C-30-3.bmp","za:ha:za","Up","40","4","9","6A","C2","C","81"
"","","approach-retreat","230","2249430","0.0-230.0","","","1-4","4476","40","1","Testing","Stims/Figures/19-C-20-4.bmp","zahaza","Up","40","4","10","6A","C2","C","82"
"","","approach-retreat","231","2256646","0.0-231.0","","","1-4","5712","38","0","Testing","Stims/Figures/118-C-20-2.bmp","sa:sa:ha","Up","40","4","11","6A","C2","C","83"
"","","approach-retreat","232","2263653","0.0-232.0","","","1-4","5503","38","0","Testing","Stims/Figures/85-J-0-2.bmp","vafa:va","Down","40","4","12","6A","C1","C","84"
"","","approach-retreat","233","2271046","0.0-233.0","","","1-4","5889","40","0","Testing","Stims/Figures/85-C-20-2.bmp","sa:saha","Down","38","4","13","6A","C2","C","85"
"","","approach-retreat","234","2276838","0.0-234.0","","","1-4","4287","38","0","Testing","Stims/Figures/102-C-20-4.bmp","za:saha","Up","40","4","14","6A","C2","C","86"
"","","approach-retreat","235","2282997","0.0-235.0","","","1-4","4655","37","0","Testing","Stims/Figures/7-J-10-4.bmp","fa:sha:sha","Right","39","4","15","6A","C1","C","87"
"","","approach-retreat","236","2288854","0.0-236.0","","","1-4","4353","39","1","Testing","Stims/Figures/44-J-10-3.bmp","va:fasha","Right","39","4","16","6A","C1","C","88"
"","","approach-retreat","237","2294694","0.0-237.0","","","1-4","4336","40","1","Testing","Stims/Figures/57-J-0-1.bmp","va:sha:va","Down","40","4","17","6A","C1","C","89"
"","","approach-retreat","238","2300612","0.0-238.0","","","1-4","4416","37","0","Testing","Stims/Figures/71-C-30-1.bmp","za:saza","Left","39","4","18","6A","C2","C","90"
"","","approach-retreat","239","2306533","0.0-239.0","","","1-4","4417","38","1","Testing","Stims/Figures/111-J-10-3.bmp","fasha:sha","Up","38","4","19","6A","C1","C","91"
"","","approach-retreat","240","2312916","0.0-240.0","","","1-4","4879","37","1","Testing","Stims/Figures/118-J-0-2.bmp","fasha:va","Left","37","4","20","6A","C1","C","92"
"","","approach-retreat","241","2320260","0.0-241.0","","","1-4","5840","37","0","Testing","Stims/Figures/94-C-20-2.bmp","zaha:ha","Left","39","4","21","6A","C2","C","93"
"","","approach-retreat","242","2329156","0.0-242.0","","","1-4","7392","40","0","Testing","Stims/Figures/128-C-30-3.bmp","zasa:za","Down","38","4","22","6A","C2","C","94"
"","","approach-retreat","243","2335620","0.0-243.0","","","1-4","4960","37","0","Testing","Stims/Figures/19-J-10-4.bmp","fa:shava","Right","39","4","23","6A","C1","C","95"
"","","approach-retreat","244","2341907","0.0-244.0","","","1-4","4783","38","1","Testing","Stims/Figures/57-C-30-1.bmp","zasaha","Down","38","4","24","6A","C2","C","96"
"112966","","survey-text","245","2454883","0.0-245.0","","{""Q0"":""46/2018""}","","","","","","","","","","","","","","",""
