"rt","key_press","trial_type","trial_index","time_elapsed","internal_node_id","view_history","responses","Id","Rt","ResKeyCode","ResCorr","TrialType2","Image","Label","Location","CorrectResponse","Block","BlockTrial","Condition","LabelType","Subcondition","trialNum"
"19839","32","text","0","19843","0.0-0.0-0.0","","","","","","","","","","","","","","","","",""
"72463","","instructions","1","92308","0.0-1.0","[{""page_index"":0,""viewing_time"":72462}]","","","","","","","","","","","","","","","",""
"36896","","survey-multi-choice","2","129246","0.0-2.0","","{""Q0"":""Da"",""Q1"":""Da"",""Q2"":""Da"",""Q3"":""Da"",""Q4"":""Da"",""Q5"":""Da""}","","","","","","","","","","","","","","",""
"","","bio","3","139516","0.0-3.0","","{""age"":""19"",""gender"":""f"",""specify"":""""}","","","","","","","","","","","","","","",""
"","","approach-retreat","4","152047","0.0-4.0","","","3-1","11022","38","1","Training","Stims/Figures/84-C-20-2.bmp","vafa:va","Down","38","1","1","6B","C1","C","1"
"","","approach-retreat","5","160905","0.0-5.0","","","3-1","7348","39","1","Training","Stims/Figures/84-J-0-2.bmp","sa:ha:ha","Right","39","1","2","6B","C2","C","2"
"","","approach-retreat","6","167781","0.0-6.0","","","3-1","5367","39","1","Training","Stims/Figures/128-C-30-3.bmp","fa:fava","Left","39","1","3","6B","C1","C","3"
"","","approach-retreat","7","174988","0.0-7.0","","","3-1","5698","40","1","Training","Stims/Figures/94-C-20-2.bmp","va:sha:sha","Up","40","1","4","6B","C1","C","4"
"","","approach-retreat","8","182162","0.0-8.0","","","3-1","5666","39","1","Training","Stims/Figures/86-J-0-1.bmp","sa:sa:ha","Right","39","1","5","6B","C2","C","5"
"","","approach-retreat","9","188808","0.0-9.0","","","3-1","5137","38","1","Training","Stims/Figures/128-J-10-3.bmp","za:saza","Up","38","1","6","6B","C2","C","6"
"","","approach-retreat","10","195842","0.0-10.0","","","3-1","5526","40","1","Training","Stims/Figures/102-J-10-4.bmp","zaha:za","Down","40","1","7","6B","C2","C","7"
"","","approach-retreat","11","202478","0.0-11.0","","","3-1","5126","37","1","Training","Stims/Figures/71-C-30-1.bmp","va:fava","Right","37","1","8","6B","C1","C","8"
"","","approach-retreat","12","208913","0.0-12.0","","","3-1","4925","37","1","Training","Stims/Figures/74-J-10-4.bmp","zasaza","Left","37","1","9","6B","C2","C","9"
"","","approach-retreat","13","215262","0.0-13.0","","","3-1","4841","40","0","Training","Stims/Figures/102-C-20-4.bmp","fafasha","Down","38","1","10","6B","C1","C","10"
"","","approach-retreat","14","223217","0.0-14.0","","","3-1","6447","39","0","Training","Stims/Figures/71-J-0-1.bmp","sa:haza","Left","37","1","11","6B","C2","C","11"
"","","approach-retreat","15","229189","0.0-15.0","","","3-1","4463","38","1","Training","Stims/Figures/94-J-0-2.bmp","zahaza","Up","38","1","12","6B","C2","C","12"
"","","approach-retreat","16","235398","0.0-16.0","","","3-1","4699","38","0","Training","Stims/Figures/100-C-30-3.bmp","fa:fa:sha","Up","40","1","13","6B","C1","C","13"
"","","approach-retreat","17","242974","0.0-17.0","","","3-1","6068","37","0","Training","Stims/Figures/86-C-30-1.bmp","vasha:sha","Left","39","1","14","6B","C1","C","14"
"","","approach-retreat","18","248926","0.0-18.0","","","3-1","4444","40","1","Training","Stims/Figures/100-J-10-3.bmp","za:ha:ha","Down","40","1","15","6B","C2","C","15"
"","","approach-retreat","19","255038","0.0-19.0","","","3-1","4604","39","0","Training","Stims/Figures/74-C-20-4.bmp","va:fasha","Right","37","1","16","6B","C1","C","16"
"","","approach-retreat","20","260965","0.0-20.0","","","3-1","4419","39","0","Training","Stims/Figures/71-J-0-1.bmp","sa:haza","Left","37","2","1","6B","C2","C","17"
"","","approach-retreat","21","268047","0.0-21.0","","","3-1","5572","37","0","Training","Stims/Figures/84-J-0-2.bmp","sa:ha:ha","Right","39","2","2","6B","C2","C","18"
"","","approach-retreat","22","274586","0.0-22.0","","","3-1","5031","40","0","Training","Stims/Figures/100-C-30-3.bmp","fa:fa:sha","Down","38","2","3","6B","C1","C","19"
"","","approach-retreat","23","280646","0.0-23.0","","","3-1","4551","39","1","Training","Stims/Figures/128-J-10-3.bmp","za:saza","Right","39","2","4","6B","C2","C","20"
"","","approach-retreat","24","289738","0.0-24.0","","","3-1","7582","40","1","Training","Stims/Figures/94-C-20-2.bmp","va:sha:sha","Up","40","2","5","6B","C1","C","21"
"","","approach-retreat","25","296353","0.0-25.0","","","3-1","5107","38","1","Training","Stims/Figures/71-C-30-1.bmp","va:fava","Down","38","2","6","6B","C1","C","22"
"","","approach-retreat","26","302478","0.0-26.0","","","3-1","4616","40","1","Training","Stims/Figures/74-C-20-4.bmp","va:fasha","Up","40","2","7","6B","C1","C","23"
"","","approach-retreat","27","308846","0.0-27.0","","","3-1","4859","39","1","Training","Stims/Figures/102-J-10-4.bmp","zaha:za","Right","39","2","8","6B","C2","C","24"
"","","approach-retreat","28","314957","0.0-28.0","","","3-1","4602","40","1","Training","Stims/Figures/100-J-10-3.bmp","za:ha:ha","Down","40","2","9","6B","C2","C","25"
"","","approach-retreat","29","320803","0.0-29.0","","","3-1","4337","39","1","Training","Stims/Figures/84-C-20-2.bmp","vafa:va","Left","39","2","10","6B","C1","C","26"
"","","approach-retreat","30","326859","0.0-30.0","","","3-1","4546","40","1","Training","Stims/Figures/128-C-30-3.bmp","fa:fava","Up","40","2","11","6B","C1","C","27"
"","","approach-retreat","31","332388","0.0-31.0","","","3-1","4019","40","1","Training","Stims/Figures/86-C-30-1.bmp","vasha:sha","Up","40","2","12","6B","C1","C","28"
"","","approach-retreat","32","338210","0.0-32.0","","","3-1","4311","39","1","Training","Stims/Figures/74-J-10-4.bmp","zasaza","Right","39","2","13","6B","C2","C","29"
"","","approach-retreat","33","343948","0.0-33.0","","","3-1","4230","39","1","Training","Stims/Figures/102-C-20-4.bmp","fafasha","Left","39","2","14","6B","C1","C","30"
"","","approach-retreat","34","349599","0.0-34.0","","","3-1","4140","39","0","Training","Stims/Figures/86-J-0-1.bmp","sa:sa:ha","Left","37","2","15","6B","C2","C","31"
"","","approach-retreat","35","355463","0.0-35.0","","","3-1","4356","40","1","Training","Stims/Figures/94-J-0-2.bmp","zahaza","Down","40","2","16","6B","C2","C","32"
"","","approach-retreat","36","361641","0.0-36.0","","","3-1","4668","37","1","Training","Stims/Figures/71-C-30-1.bmp","va:fava","Right","37","3","1","6B","C1","C","33"
"","","approach-retreat","37","368029","0.0-37.0","","","3-1","4880","37","1","Training","Stims/Figures/102-C-20-4.bmp","fafasha","Right","37","3","2","6B","C1","C","34"
"","","approach-retreat","38","374112","0.0-38.0","","","3-1","4574","37","1","Training","Stims/Figures/94-C-20-2.bmp","va:sha:sha","Right","37","3","3","6B","C1","C","35"
"","","approach-retreat","39","381429","0.0-39.0","","","3-1","5806","38","1","Training","Stims/Figures/128-J-10-3.bmp","za:saza","Up","38","3","4","6B","C2","C","36"
"","","approach-retreat","40","387025","0.0-40.0","","","3-1","4088","40","1","Training","Stims/Figures/84-C-20-2.bmp","vafa:va","Up","40","3","5","6B","C1","C","37"
"","","approach-retreat","41","392986","0.0-41.0","","","3-1","4452","38","1","Training","Stims/Figures/128-C-30-3.bmp","fa:fava","Down","38","3","6","6B","C1","C","38"
"","","approach-retreat","42","398780","0.0-42.0","","","3-1","4285","39","1","Training","Stims/Figures/74-C-20-4.bmp","va:fasha","Left","39","3","7","6B","C1","C","39"
"","","approach-retreat","43","404658","0.0-43.0","","","3-1","4369","39","1","Training","Stims/Figures/94-J-0-2.bmp","zahaza","Right","39","3","8","6B","C2","C","40"
"","","approach-retreat","44","410648","0.0-44.0","","","3-1","4482","40","1","Training","Stims/Figures/74-J-10-4.bmp","zasaza","Down","40","3","9","6B","C2","C","41"
"","","approach-retreat","45","420842","0.0-45.0","","","3-1","8685","37","1","Training","Stims/Figures/86-J-0-1.bmp","sa:sa:ha","Left","37","3","10","6B","C2","C","42"
"","","approach-retreat","46","431027","0.0-46.0","","","3-1","8676","40","1","Training","Stims/Figures/84-J-0-2.bmp","sa:ha:ha","Down","40","3","11","6B","C2","C","43"
"","","approach-retreat","47","436898","0.0-47.0","","","3-1","4364","40","1","Training","Stims/Figures/100-C-30-3.bmp","fa:fa:sha","Up","40","3","12","6B","C1","C","44"
"","","approach-retreat","48","442927","0.0-48.0","","","3-1","4521","40","1","Training","Stims/Figures/102-J-10-4.bmp","zaha:za","Down","40","3","13","6B","C2","C","45"
"","","approach-retreat","49","448592","0.0-49.0","","","3-1","4157","39","1","Training","Stims/Figures/86-C-30-1.bmp","vasha:sha","Left","39","3","14","6B","C1","C","46"
"","","approach-retreat","50","454511","0.0-50.0","","","3-1","4409","37","1","Training","Stims/Figures/71-J-0-1.bmp","sa:haza","Left","37","3","15","6B","C2","C","47"
"","","approach-retreat","51","461273","0.0-51.0","","","3-1","5254","38","1","Training","Stims/Figures/100-J-10-3.bmp","za:ha:ha","Up","38","3","16","6B","C2","C","48"
"","","approach-retreat","52","466986","0.0-52.0","","","3-1","4203","40","1","Training","Stims/Figures/86-C-30-1.bmp","vasha:sha","Up","40","4","1","6B","C1","C","49"
"","","approach-retreat","53","473323","0.0-53.0","","","3-1","4827","40","1","Training","Stims/Figures/71-J-0-1.bmp","sa:haza","Down","40","4","2","6B","C2","C","50"
"","","approach-retreat","54","481555","0.0-54.0","","","3-1","6724","39","1","Training","Stims/Figures/71-C-30-1.bmp","va:fava","Left","39","4","3","6B","C1","C","51"
"","","approach-retreat","55","488173","0.0-55.0","","","3-1","5108","39","1","Training","Stims/Figures/74-J-10-4.bmp","zasaza","Right","39","4","4","6B","C2","C","52"
"","","approach-retreat","56","494338","0.0-56.0","","","3-1","4658","40","1","Training","Stims/Figures/94-J-0-2.bmp","zahaza","Down","40","4","5","6B","C2","C","53"
"","","approach-retreat","57","500532","0.0-57.0","","","3-1","4685","37","1","Training","Stims/Figures/102-J-10-4.bmp","zaha:za","Left","37","4","6","6B","C2","C","54"
"","","approach-retreat","58","506473","0.0-58.0","","","3-1","4433","38","1","Training","Stims/Figures/100-J-10-3.bmp","za:ha:ha","Up","38","4","7","6B","C2","C","55"
"","","approach-retreat","59","515067","0.0-59.0","","","3-1","7085","39","1","Training","Stims/Figures/102-C-20-4.bmp","fafasha","Left","39","4","8","6B","C1","C","56"
"","","approach-retreat","60","521888","0.0-60.0","","","3-1","5313","37","1","Training","Stims/Figures/74-C-20-4.bmp","va:fasha","Right","37","4","9","6B","C1","C","57"
"","","approach-retreat","61","529191","0.0-61.0","","","3-1","5793","38","1","Training","Stims/Figures/128-J-10-3.bmp","za:saza","Up","38","4","10","6B","C2","C","58"
"","","approach-retreat","62","534815","0.0-62.0","","","3-1","4116","37","1","Training","Stims/Figures/84-C-20-2.bmp","vafa:va","Right","37","4","11","6B","C1","C","59"
"","","approach-retreat","63","540943","0.0-63.0","","","3-1","4619","37","1","Training","Stims/Figures/86-J-0-1.bmp","sa:sa:ha","Left","37","4","12","6B","C2","C","60"
"","","approach-retreat","64","547084","0.0-64.0","","","3-1","4634","39","1","Training","Stims/Figures/84-J-0-2.bmp","sa:ha:ha","Right","39","4","13","6B","C2","C","61"
"","","approach-retreat","65","552873","0.0-65.0","","","3-1","4282","38","1","Training","Stims/Figures/128-C-30-3.bmp","fa:fava","Down","38","4","14","6B","C1","C","62"
"","","approach-retreat","66","559203","0.0-66.0","","","3-1","4822","40","1","Training","Stims/Figures/94-C-20-2.bmp","va:sha:sha","Up","40","4","15","6B","C1","C","63"
"","","approach-retreat","67","564920","0.0-67.0","","","3-1","4209","38","1","Training","Stims/Figures/100-C-30-3.bmp","fa:fa:sha","Down","38","4","16","6B","C1","C","64"
"","","approach-retreat","68","570836","0.0-68.0","","","3-1","4407","37","0","Training","Stims/Figures/86-J-0-1.bmp","sa:sa:ha","Right","39","5","1","6B","C2","C","65"
"","","approach-retreat","69","577188","0.0-69.0","","","3-1","4844","38","1","Training","Stims/Figures/94-J-0-2.bmp","zahaza","Up","38","5","2","6B","C2","C","66"
"","","approach-retreat","70","583136","0.0-70.0","","","3-1","4440","40","1","Training","Stims/Figures/94-C-20-2.bmp","va:sha:sha","Up","40","5","3","6B","C1","C","67"
"","","approach-retreat","71","589167","0.0-71.0","","","3-1","4523","37","1","Training","Stims/Figures/84-J-0-2.bmp","sa:ha:ha","Left","37","5","4","6B","C2","C","68"
"","","approach-retreat","72","595055","0.0-72.0","","","3-1","4379","37","1","Training","Stims/Figures/74-C-20-4.bmp","va:fasha","Right","37","5","5","6B","C1","C","69"
"","","approach-retreat","73","601049","0.0-73.0","","","3-1","4486","40","1","Training","Stims/Figures/128-J-10-3.bmp","za:saza","Down","40","5","6","6B","C2","C","70"
"","","approach-retreat","74","606812","0.0-74.0","","","3-1","4252","37","1","Training","Stims/Figures/100-J-10-3.bmp","za:ha:ha","Left","37","5","7","6B","C2","C","71"
"","","approach-retreat","75","612712","0.0-75.0","","","3-1","4392","40","0","Training","Stims/Figures/128-C-30-3.bmp","fa:fava","Down","38","5","8","6B","C1","C","72"
"","","approach-retreat","76","618654","0.0-76.0","","","3-1","4433","39","0","Training","Stims/Figures/102-J-10-4.bmp","zaha:za","Left","37","5","9","6B","C2","C","73"
"","","approach-retreat","77","624870","0.0-77.0","","","3-1","4708","38","1","Training","Stims/Figures/86-C-30-1.bmp","vasha:sha","Down","38","5","10","6B","C1","C","74"
"","","approach-retreat","78","631023","0.0-78.0","","","3-1","4643","39","1","Training","Stims/Figures/71-J-0-1.bmp","sa:haza","Right","39","5","11","6B","C2","C","75"
"","","approach-retreat","79","637650","0.0-79.0","","","3-1","5118","37","1","Training","Stims/Figures/84-C-20-2.bmp","vafa:va","Right","37","5","12","6B","C1","C","76"
"","","approach-retreat","80","644157","0.0-80.0","","","3-1","4997","39","1","Training","Stims/Figures/100-C-30-3.bmp","fa:fa:sha","Left","39","5","13","6B","C1","C","77"
"","","approach-retreat","81","650014","0.0-81.0","","","3-1","4349","40","1","Training","Stims/Figures/71-C-30-1.bmp","va:fava","Up","40","5","14","6B","C1","C","78"
"","","approach-retreat","82","656062","0.0-82.0","","","3-1","4540","40","1","Training","Stims/Figures/74-J-10-4.bmp","zasaza","Down","40","5","15","6B","C2","C","79"
"","","approach-retreat","83","663411","0.0-83.0","","","3-1","5839","40","1","Training","Stims/Figures/102-C-20-4.bmp","fafasha","Up","40","5","16","6B","C1","C","80"
"","","approach-retreat","84","668963","0.0-84.0","","","3-1","4043","40","1","Training","Stims/Figures/100-C-30-3.bmp","fa:fa:sha","Up","40","6","1","6B","C1","C","81"
"","","approach-retreat","85","675184","0.0-85.0","","","3-1","4713","39","1","Training","Stims/Figures/84-J-0-2.bmp","sa:ha:ha","Right","39","6","2","6B","C2","C","82"
"","","approach-retreat","86","681709","0.0-86.0","","","3-1","5015","38","1","Training","Stims/Figures/71-C-30-1.bmp","va:fava","Down","38","6","3","6B","C1","C","83"
"","","approach-retreat","87","687742","0.0-87.0","","","3-1","4524","38","1","Training","Stims/Figures/94-C-20-2.bmp","va:sha:sha","Down","38","6","4","6B","C1","C","84"
"","","approach-retreat","88","693826","0.0-88.0","","","3-1","4576","37","1","Training","Stims/Figures/86-C-30-1.bmp","vasha:sha","Right","37","6","5","6B","C1","C","85"
"","","approach-retreat","89","700086","0.0-89.0","","","3-1","4750","38","1","Training","Stims/Figures/86-J-0-1.bmp","sa:sa:ha","Up","38","6","6","6B","C2","C","86"
"","","approach-retreat","90","706353","0.0-90.0","","","3-1","4758","38","1","Training","Stims/Figures/94-J-0-2.bmp","zahaza","Up","38","6","7","6B","C2","C","87"
"","","approach-retreat","91","712142","0.0-91.0","","","3-1","4281","39","1","Training","Stims/Figures/128-J-10-3.bmp","za:saza","Right","39","6","8","6B","C2","C","88"
"","","approach-retreat","92","719383","0.0-92.0","","","3-1","5731","39","1","Training","Stims/Figures/100-J-10-3.bmp","za:ha:ha","Right","39","6","9","6B","C2","C","89"
"","","approach-retreat","93","726212","0.0-93.0","","","3-1","5320","38","1","Training","Stims/Figures/84-C-20-2.bmp","vafa:va","Down","38","6","10","6B","C1","C","90"
"","","approach-retreat","94","732258","0.0-94.0","","","3-1","4538","37","1","Training","Stims/Figures/74-J-10-4.bmp","zasaza","Left","37","6","11","6B","C2","C","91"
"","","approach-retreat","95","737909","0.0-95.0","","","3-1","4143","37","1","Training","Stims/Figures/102-J-10-4.bmp","zaha:za","Left","37","6","12","6B","C2","C","92"
"","","approach-retreat","96","743949","0.0-96.0","","","3-1","4530","40","1","Training","Stims/Figures/71-J-0-1.bmp","sa:haza","Down","40","6","13","6B","C2","C","93"
"","","approach-retreat","97","750187","0.0-97.0","","","3-1","4730","39","1","Training","Stims/Figures/74-C-20-4.bmp","va:fasha","Left","39","6","14","6B","C1","C","94"
"","","approach-retreat","98","756197","0.0-98.0","","","3-1","4500","40","1","Training","Stims/Figures/128-C-30-3.bmp","fa:fava","Up","40","6","15","6B","C1","C","95"
"","","approach-retreat","99","762220","0.0-99.0","","","3-1","4515","39","1","Training","Stims/Figures/102-C-20-4.bmp","fafasha","Left","39","6","16","6B","C1","C","96"
"","","approach-retreat","100","768608","0.0-100.0","","","3-1","4880","39","1","Training","Stims/Figures/74-J-10-4.bmp","zasaza","Right","39","7","1","6B","C2","C","97"
"","","approach-retreat","101","777620","0.0-101.0","","","3-1","7505","37","1","Training","Stims/Figures/74-C-20-4.bmp","va:fasha","Right","37","7","2","6B","C1","C","98"
"","","approach-retreat","102","783660","0.0-102.0","","","3-1","4532","40","1","Training","Stims/Figures/86-C-30-1.bmp","vasha:sha","Up","40","7","3","6B","C1","C","99"
"","","approach-retreat","103","792121","0.0-103.0","","","3-1","6952","38","1","Training","Stims/Figures/128-C-30-3.bmp","fa:fava","Down","38","7","4","6B","C1","C","100"
"","","approach-retreat","104","798395","0.0-104.0","","","3-1","4765","40","1","Training","Stims/Figures/84-C-20-2.bmp","vafa:va","Up","40","7","5","6B","C1","C","101"
"","","approach-retreat","105","804424","0.0-105.0","","","3-1","4521","39","1","Training","Stims/Figures/86-J-0-1.bmp","sa:sa:ha","Right","39","7","6","6B","C2","C","102"
"","","approach-retreat","106","810402","0.0-106.0","","","3-1","4470","40","1","Training","Stims/Figures/102-C-20-4.bmp","fafasha","Up","40","7","7","6B","C1","C","103"
"","","approach-retreat","107","816651","0.0-107.0","","","3-1","4740","39","1","Training","Stims/Figures/71-C-30-1.bmp","va:fava","Left","39","7","8","6B","C1","C","104"
"","","approach-retreat","108","825186","0.0-108.0","","","3-1","7027","40","1","Training","Stims/Figures/102-J-10-4.bmp","zaha:za","Down","40","7","9","6B","C2","C","105"
"","","approach-retreat","109","831612","0.0-109.0","","","3-1","4919","37","1","Training","Stims/Figures/84-J-0-2.bmp","sa:ha:ha","Left","37","7","10","6B","C2","C","106"
"","","approach-retreat","110","837786","0.0-110.0","","","3-1","4665","38","1","Training","Stims/Figures/128-J-10-3.bmp","za:saza","Up","38","7","11","6B","C2","C","107"
"","","approach-retreat","111","843950","0.0-111.0","","","3-1","4653","40","1","Training","Stims/Figures/100-J-10-3.bmp","za:ha:ha","Down","40","7","12","6B","C2","C","108"
"","","approach-retreat","112","850100","0.0-112.0","","","3-1","4643","37","1","Training","Stims/Figures/94-C-20-2.bmp","va:sha:sha","Right","37","7","13","6B","C1","C","109"
"","","approach-retreat","113","856629","0.0-113.0","","","3-1","5020","37","1","Training","Stims/Figures/94-J-0-2.bmp","zahaza","Left","37","7","14","6B","C2","C","110"
"","","approach-retreat","114","862192","0.0-114.0","","","3-1","4055","39","1","Training","Stims/Figures/100-C-30-3.bmp","fa:fa:sha","Left","39","7","15","6B","C1","C","111"
"","","approach-retreat","115","868779","0.0-115.0","","","3-1","5078","40","1","Training","Stims/Figures/71-J-0-1.bmp","sa:haza","Down","40","7","16","6B","C2","C","112"
"","","approach-retreat","116","874952","0.0-116.0","","","3-1","4664","37","1","Training","Stims/Figures/100-C-30-3.bmp","fa:fa:sha","Right","37","8","1","6B","C1","C","113"
"","","approach-retreat","117","881426","0.0-117.0","","","3-1","4969","37","1","Training","Stims/Figures/100-J-10-3.bmp","za:ha:ha","Left","37","8","2","6B","C2","C","114"
"","","approach-retreat","118","887629","0.0-118.0","","","3-1","4696","40","1","Training","Stims/Figures/86-C-30-1.bmp","vasha:sha","Up","40","8","3","6B","C1","C","115"
"","","approach-retreat","119","893886","0.0-119.0","","","3-1","4750","37","1","Training","Stims/Figures/71-J-0-1.bmp","sa:haza","Left","37","8","4","6B","C2","C","116"
"","","approach-retreat","120","900088","0.0-120.0","","","3-1","4693","40","1","Training","Stims/Figures/86-J-0-1.bmp","sa:sa:ha","Down","40","8","5","6B","C2","C","117"
"","","approach-retreat","121","906626","0.0-121.0","","","3-1","5029","37","1","Training","Stims/Figures/128-C-30-3.bmp","fa:fava","Right","37","8","6","6B","C1","C","118"
"","","approach-retreat","122","913225","0.0-122.0","","","3-1","5090","38","1","Training","Stims/Figures/74-J-10-4.bmp","zasaza","Up","38","8","7","6B","C2","C","119"
"","","approach-retreat","123","919697","0.0-123.0","","","3-1","4965","40","1","Training","Stims/Figures/102-J-10-4.bmp","zaha:za","Down","40","8","8","6B","C2","C","120"
"","","approach-retreat","124","926384","0.0-124.0","","","3-1","5178","37","1","Training","Stims/Figures/84-C-20-2.bmp","vafa:va","Right","37","8","9","6B","C1","C","121"
"","","approach-retreat","125","932747","0.0-125.0","","","3-1","4854","40","1","Training","Stims/Figures/128-J-10-3.bmp","za:saza","Down","40","8","10","6B","C2","C","122"
"","","approach-retreat","126","938653","0.0-126.0","","","3-1","4398","39","1","Training","Stims/Figures/94-C-20-2.bmp","va:sha:sha","Left","39","8","11","6B","C1","C","123"
"","","approach-retreat","127","944654","0.0-127.0","","","3-1","4493","37","1","Training","Stims/Figures/74-C-20-4.bmp","va:fasha","Right","37","8","12","6B","C1","C","124"
"","","approach-retreat","128","950823","0.0-128.0","","","3-1","4660","37","1","Training","Stims/Figures/94-J-0-2.bmp","zahaza","Left","37","8","13","6B","C2","C","125"
"","","approach-retreat","129","956860","0.0-129.0","","","3-1","4528","40","1","Training","Stims/Figures/71-C-30-1.bmp","va:fava","Up","40","8","14","6B","C1","C","126"
"","","approach-retreat","130","963470","0.0-130.0","","","3-1","5101","38","1","Training","Stims/Figures/102-C-20-4.bmp","fafasha","Down","38","8","15","6B","C1","C","127"
"","","approach-retreat","131","969522","0.0-131.0","","","3-1","4544","38","1","Training","Stims/Figures/84-J-0-2.bmp","sa:ha:ha","Up","38","8","16","6B","C2","C","128"
"","","approach-retreat","132","976377","0.0-132.0","","","3-1","5346","37","1","Training","Stims/Figures/128-C-30-3.bmp","fa:fava","Right","37","9","1","6B","C1","C","129"
"","","approach-retreat","133","983572","0.0-133.0","","","3-1","5686","39","1","Training","Stims/Figures/71-C-30-1.bmp","va:fava","Left","39","9","2","6B","C1","C","130"
"","","approach-retreat","134","990190","0.0-134.0","","","3-1","5109","37","1","Training","Stims/Figures/84-J-0-2.bmp","sa:ha:ha","Left","37","9","3","6B","C2","C","131"
"","","approach-retreat","135","996331","0.0-135.0","","","3-1","4633","39","1","Training","Stims/Figures/86-C-30-1.bmp","vasha:sha","Left","39","9","4","6B","C1","C","132"
"","","approach-retreat","136","1002701","0.0-136.0","","","3-1","4862","38","1","Training","Stims/Figures/71-J-0-1.bmp","sa:haza","Up","38","9","5","6B","C2","C","133"
"","","approach-retreat","137","1008840","0.0-137.0","","","3-1","4630","38","1","Training","Stims/Figures/100-C-30-3.bmp","fa:fa:sha","Down","38","9","6","6B","C1","C","134"
"","","approach-retreat","138","1015187","0.0-138.0","","","3-1","4838","40","1","Training","Stims/Figures/100-J-10-3.bmp","za:ha:ha","Down","40","9","7","6B","C2","C","135"
"","","approach-retreat","139","1021197","0.0-139.0","","","3-1","4502","40","0","Training","Stims/Figures/74-J-10-4.bmp","zasaza","Up","38","9","8","6B","C2","C","136"
"","","approach-retreat","140","1027744","0.0-140.0","","","3-1","5038","37","1","Training","Stims/Figures/102-J-10-4.bmp","zaha:za","Left","37","9","9","6B","C2","C","137"
"","","approach-retreat","141","1033353","0.0-141.0","","","3-1","4100","40","1","Training","Stims/Figures/102-C-20-4.bmp","fafasha","Up","40","9","10","6B","C1","C","138"
"","","approach-retreat","142","1040846","0.0-142.0","","","3-1","5985","39","1","Training","Stims/Figures/128-J-10-3.bmp","za:saza","Right","39","9","11","6B","C2","C","139"
"","","approach-retreat","143","1046550","0.0-143.0","","","3-1","4193","37","1","Training","Stims/Figures/74-C-20-4.bmp","va:fasha","Right","37","9","12","6B","C1","C","140"
"","","approach-retreat","144","1054212","0.0-144.0","","","3-1","6154","38","1","Training","Stims/Figures/94-J-0-2.bmp","zahaza","Up","38","9","13","6B","C2","C","141"
"","","approach-retreat","145","1061632","0.0-145.0","","","3-1","5911","38","1","Training","Stims/Figures/84-C-20-2.bmp","vafa:va","Down","38","9","14","6B","C1","C","142"
"","","approach-retreat","146","1067696","0.0-146.0","","","3-1","4554","39","1","Training","Stims/Figures/86-J-0-1.bmp","sa:sa:ha","Right","39","9","15","6B","C2","C","143"
"","","approach-retreat","147","1073575","0.0-147.0","","","3-1","4370","38","1","Training","Stims/Figures/94-C-20-2.bmp","va:sha:sha","Down","38","9","16","6B","C1","C","144"
"18390","","instructions","148","1091965","0.0-148.0","[{""page_index"":0,""viewing_time"":18390}]","","","","","","","","","","","","","","","",""
"","","approach-retreat","149","1099767","0.0-149.0","","","3-1","6294","40","1","Testing","Stims/Figures/19-C-20-4.bmp","fasha:va","Up","40","1","1","6B","C1","C","1"
"","","approach-retreat","150","1106057","0.0-150.0","","","3-1","4784","40","1","Testing","Stims/Figures/139-J-0-2.bmp","za:haza","Down","40","1","2","6B","C2","C","2"
"","","approach-retreat","151","1111888","0.0-151.0","","","3-1","4324","40","1","Testing","Stims/Figures/27-C-30-1.bmp","fa:fa:va","Up","40","1","3","6B","C1","C","3"
"","","approach-retreat","152","1117789","0.0-152.0","","","3-1","4393","39","1","Testing","Stims/Figures/84-J-0-2.bmp","sa:ha:ha","Right","39","1","4","6B","C2","C","4"
"","","approach-retreat","153","1125794","0.0-153.0","","","3-1","6498","37","1","Testing","Stims/Figures/84-C-20-2.bmp","vafa:va","Right","37","1","5","6B","C1","C","5"
"","","approach-retreat","154","1131572","0.0-154.0","","","3-1","4270","39","1","Testing","Stims/Figures/102-J-10-4.bmp","zaha:za","Right","39","1","6","6B","C2","C","6"
"","","approach-retreat","155","1137573","0.0-155.0","","","3-1","4495","39","1","Testing","Stims/Figures/128-C-30-3.bmp","fa:fava","Left","39","1","7","6B","C1","C","7"
"","","approach-retreat","156","1143844","0.0-156.0","","","3-1","4766","37","1","Testing","Stims/Figures/19-J-10-4.bmp","za:haha","Left","37","1","8","6B","C2","C","8"
"","","approach-retreat","157","1151377","0.0-157.0","","","3-1","6025","38","1","Testing","Stims/Figures/144-C-30-3.bmp","va:shasha","Down","38","1","9","6B","C1","C","9"
"","","approach-retreat","158","1157829","0.0-158.0","","","3-1","4947","38","1","Testing","Stims/Figures/86-C-30-1.bmp","vasha:sha","Down","38","1","10","6B","C1","C","10"
"","","approach-retreat","159","1164521","0.0-159.0","","","3-1","5184","40","1","Testing","Stims/Figures/71-J-0-1.bmp","sa:haza","Down","40","1","11","6B","C2","C","11"
"","","approach-retreat","160","1171102","0.0-160.0","","","3-1","5073","38","1","Testing","Stims/Figures/144-J-10-3.bmp","sahaha","Up","38","1","12","6B","C2","C","12"
"","","approach-retreat","161","1177710","0.0-161.0","","","3-1","5102","38","1","Testing","Stims/Figures/27-J-0-1.bmp","sasaza","Up","38","1","13","6B","C2","C","13"
"","","approach-retreat","162","1186511","0.0-162.0","","","3-1","7293","37","1","Testing","Stims/Figures/94-C-20-2.bmp","va:sha:sha","Right","37","1","14","6B","C1","C","14"
"","","approach-retreat","163","1192991","0.0-163.0","","","3-1","4973","38","1","Testing","Stims/Figures/100-C-30-3.bmp","fa:fa:sha","Down","38","1","15","6B","C1","C","15"
"","","approach-retreat","164","1199545","0.0-164.0","","","3-1","5047","37","1","Testing","Stims/Figures/94-J-0-2.bmp","zahaza","Left","37","1","16","6B","C2","C","16"
"","","approach-retreat","165","1207871","0.0-165.0","","","3-1","6817","39","1","Testing","Stims/Figures/74-J-10-4.bmp","zasaza","Right","39","1","17","6B","C2","C","17"
"","","approach-retreat","166","1214801","0.0-166.0","","","3-1","5423","37","1","Testing","Stims/Figures/139-C-20-2.bmp","vafava","Right","37","1","18","6B","C1","C","18"
"","","approach-retreat","167","1221299","0.0-167.0","","","3-1","4985","39","1","Testing","Stims/Figures/102-C-20-4.bmp","fafasha","Left","39","1","19","6B","C1","C","19"
"","","approach-retreat","168","1228990","0.0-168.0","","","3-1","6184","38","1","Testing","Stims/Figures/100-J-10-3.bmp","za:ha:ha","Up","38","1","20","6B","C2","C","20"
"","","approach-retreat","169","1235409","0.0-169.0","","","3-1","4912","38","1","Testing","Stims/Figures/71-C-30-1.bmp","va:fava","Down","38","1","21","6B","C1","C","21"
"","","approach-retreat","170","1241931","0.0-170.0","","","3-1","5015","38","1","Testing","Stims/Figures/128-J-10-3.bmp","za:saza","Up","38","1","22","6B","C2","C","22"
"","","approach-retreat","171","1248163","0.0-171.0","","","3-1","4725","37","1","Testing","Stims/Figures/86-J-0-1.bmp","sa:sa:ha","Left","37","1","23","6B","C2","C","23"
"","","approach-retreat","172","1255248","0.0-172.0","","","3-1","5579","39","1","Testing","Stims/Figures/74-C-20-4.bmp","va:fasha","Left","39","1","24","6B","C1","C","24"
"","","approach-retreat","173","1261312","0.0-173.0","","","3-1","4555","39","1","Testing","Stims/Figures/100-C-30-3.bmp","fa:fa:sha","Left","39","2","1","6B","C1","C","25"
"","","approach-retreat","174","1268545","0.0-174.0","","","3-1","5723","37","1","Testing","Stims/Figures/74-C-20-4.bmp","va:fasha","Right","37","2","2","6B","C1","C","26"
"","","approach-retreat","175","1275185","0.0-175.0","","","3-1","5134","39","1","Testing","Stims/Figures/100-J-10-3.bmp","za:ha:ha","Right","39","2","3","6B","C2","C","27"
"","","approach-retreat","176","1282313","0.0-176.0","","","3-1","5621","38","1","Testing","Stims/Figures/27-J-0-1.bmp","sasaza","Up","38","2","4","6B","C2","C","28"
"","","approach-retreat","177","1288960","0.0-177.0","","","3-1","5141","40","1","Testing","Stims/Figures/102-J-10-4.bmp","zaha:za","Down","40","2","5","6B","C2","C","29"
"","","approach-retreat","178","1295457","0.0-178.0","","","3-1","4989","37","1","Testing","Stims/Figures/84-C-20-2.bmp","vafa:va","Right","37","2","6","6B","C1","C","30"
"","","approach-retreat","179","1301741","0.0-179.0","","","3-1","4777","40","1","Testing","Stims/Figures/19-C-20-4.bmp","fasha:va","Up","40","2","7","6B","C1","C","31"
"","","approach-retreat","180","1308023","0.0-180.0","","","3-1","4774","37","1","Testing","Stims/Figures/128-C-30-3.bmp","fa:fava","Right","37","2","8","6B","C1","C","32"
"","","approach-retreat","181","1314697","0.0-181.0","","","3-1","5167","38","1","Testing","Stims/Figures/144-C-30-3.bmp","va:shasha","Down","38","2","9","6B","C1","C","33"
"","","approach-retreat","182","1322250","0.0-182.0","","","3-1","6043","37","1","Testing","Stims/Figures/71-J-0-1.bmp","sa:haza","Left","37","2","10","6B","C2","C","34"
"","","approach-retreat","183","1328686","0.0-183.0","","","3-1","4927","37","1","Testing","Stims/Figures/71-C-30-1.bmp","va:fava","Right","37","2","11","6B","C1","C","35"
"","","approach-retreat","184","1334727","0.0-184.0","","","3-1","4533","37","1","Testing","Stims/Figures/94-J-0-2.bmp","zahaza","Left","37","2","12","6B","C2","C","36"
"","","approach-retreat","185","1340994","0.0-185.0","","","3-1","4761","40","1","Testing","Stims/Figures/19-J-10-4.bmp","za:haha","Down","40","2","13","6B","C2","C","37"
"","","approach-retreat","186","1348302","0.0-186.0","","","3-1","5801","37","1","Testing","Stims/Figures/27-C-30-1.bmp","fa:fa:va","Right","37","2","14","6B","C1","C","38"
"","","approach-retreat","187","1357321","0.0-187.0","","","3-1","7512","38","1","Testing","Stims/Figures/139-J-0-2.bmp","za:haza","Up","38","2","15","6B","C2","C","39"
"","","approach-retreat","188","1363998","0.0-188.0","","","3-1","5171","37","1","Testing","Stims/Figures/84-J-0-2.bmp","sa:ha:ha","Left","37","2","16","6B","C2","C","40"
"","","approach-retreat","189","1370371","0.0-189.0","","","3-1","4866","38","1","Testing","Stims/Figures/139-C-20-2.bmp","vafava","Down","38","2","17","6B","C1","C","41"
"","","approach-retreat","190","1377277","0.0-190.0","","","3-1","5399","37","1","Testing","Stims/Figures/128-J-10-3.bmp","za:saza","Left","37","2","18","6B","C2","C","42"
"","","approach-retreat","191","1384389","0.0-191.0","","","3-1","5605","40","1","Testing","Stims/Figures/102-C-20-4.bmp","fafasha","Up","40","2","19","6B","C1","C","43"
"","","approach-retreat","192","1393332","0.0-192.0","","","3-1","7437","40","1","Testing","Stims/Figures/144-J-10-3.bmp","sahaha","Down","40","2","20","6B","C2","C","44"
"","","approach-retreat","193","1399743","0.0-193.0","","","3-1","4905","38","1","Testing","Stims/Figures/74-J-10-4.bmp","zasaza","Up","38","2","21","6B","C2","C","45"
"","","approach-retreat","194","1406388","0.0-194.0","","","3-1","5137","40","1","Testing","Stims/Figures/86-J-0-1.bmp","sa:sa:ha","Down","40","2","22","6B","C2","C","46"
"","","approach-retreat","195","1412716","0.0-195.0","","","3-1","4819","40","1","Testing","Stims/Figures/86-C-30-1.bmp","vasha:sha","Up","40","2","23","6B","C1","C","47"
"","","approach-retreat","196","1418796","0.0-196.0","","","3-1","4575","39","1","Testing","Stims/Figures/94-C-20-2.bmp","va:sha:sha","Left","39","2","24","6B","C1","C","48"
"","","approach-retreat","197","1424919","0.0-197.0","","","3-1","4614","40","1","Testing","Stims/Figures/100-J-10-3.bmp","za:ha:ha","Down","40","3","1","6B","C2","C","49"
"","","approach-retreat","198","1431130","0.0-198.0","","","3-1","4704","39","1","Testing","Stims/Figures/102-J-10-4.bmp","zaha:za","Right","39","3","2","6B","C2","C","50"
"","","approach-retreat","199","1437514","0.0-199.0","","","3-1","4877","38","1","Testing","Stims/Figures/84-C-20-2.bmp","vafa:va","Down","38","3","3","6B","C1","C","51"
"","","approach-retreat","200","1443813","0.0-200.0","","","3-1","4792","39","1","Testing","Stims/Figures/74-C-20-4.bmp","va:fasha","Left","39","3","4","6B","C1","C","52"
"","","approach-retreat","201","1450090","0.0-201.0","","","3-1","4771","37","1","Testing","Stims/Figures/27-J-0-1.bmp","sasaza","Left","37","3","5","6B","C2","C","53"
"","","approach-retreat","202","1457126","0.0-202.0","","","3-1","5529","38","1","Testing","Stims/Figures/71-C-30-1.bmp","va:fava","Down","38","3","6","6B","C1","C","54"
"","","approach-retreat","203","1463471","0.0-203.0","","","3-1","4836","37","1","Testing","Stims/Figures/27-C-30-1.bmp","fa:fa:va","Right","37","3","7","6B","C1","C","55"
"","","approach-retreat","204","1469668","0.0-204.0","","","3-1","4689","37","1","Testing","Stims/Figures/71-J-0-1.bmp","sa:haza","Left","37","3","8","6B","C2","C","56"
"","","approach-retreat","205","1475872","0.0-205.0","","","3-1","4697","37","1","Testing","Stims/Figures/94-C-20-2.bmp","va:sha:sha","Right","37","3","9","6B","C1","C","57"
"","","approach-retreat","206","1484765","0.0-206.0","","","3-1","7386","40","1","Testing","Stims/Figures/102-C-20-4.bmp","fafasha","Up","40","3","10","6B","C1","C","58"
"","","approach-retreat","207","1491089","0.0-207.0","","","3-1","4818","37","1","Testing","Stims/Figures/139-C-20-2.bmp","vafava","Right","37","3","11","6B","C1","C","59"
"","","approach-retreat","208","1497450","0.0-208.0","","","3-1","4854","40","1","Testing","Stims/Figures/94-J-0-2.bmp","zahaza","Down","40","3","12","6B","C2","C","60"
"","","approach-retreat","209","1503778","0.0-209.0","","","3-1","4821","37","1","Testing","Stims/Figures/100-C-30-3.bmp","fa:fa:sha","Right","37","3","13","6B","C1","C","61"
"","","approach-retreat","210","1510120","0.0-210.0","","","3-1","4835","38","1","Testing","Stims/Figures/128-C-30-3.bmp","fa:fava","Down","38","3","14","6B","C1","C","62"
"","","approach-retreat","211","1516584","0.0-211.0","","","3-1","4957","38","1","Testing","Stims/Figures/128-J-10-3.bmp","za:saza","Up","38","3","15","6B","C2","C","63"
"","","approach-retreat","212","1523699","0.0-212.0","","","3-1","5607","37","1","Testing","Stims/Figures/19-J-10-4.bmp","za:haha","Left","37","3","16","6B","C2","C","64"
"","","approach-retreat","213","1530037","0.0-213.0","","","3-1","4832","38","1","Testing","Stims/Figures/139-J-0-2.bmp","za:haza","Up","38","3","17","6B","C2","C","65"
"","","approach-retreat","214","1536378","0.0-214.0","","","3-1","4834","39","1","Testing","Stims/Figures/74-J-10-4.bmp","zasaza","Right","39","3","18","6B","C2","C","66"
"","","approach-retreat","215","1542973","0.0-215.0","","","3-1","5088","40","1","Testing","Stims/Figures/144-C-30-3.bmp","va:shasha","Up","40","3","19","6B","C1","C","67"
"","","approach-retreat","216","1549691","0.0-216.0","","","3-1","5211","38","1","Testing","Stims/Figures/144-J-10-3.bmp","sahaha","Up","38","3","20","6B","C2","C","68"
"","","approach-retreat","217","1555720","0.0-217.0","","","3-1","4521","38","1","Testing","Stims/Figures/19-C-20-4.bmp","fasha:va","Down","38","3","21","6B","C1","C","69"
"","","approach-retreat","218","1561958","0.0-218.0","","","3-1","4732","37","1","Testing","Stims/Figures/84-J-0-2.bmp","sa:ha:ha","Left","37","3","22","6B","C2","C","70"
"","","approach-retreat","219","1569327","0.0-219.0","","","3-1","5863","40","1","Testing","Stims/Figures/86-C-30-1.bmp","vasha:sha","Up","40","3","23","6B","C1","C","71"
"","","approach-retreat","220","1575194","0.0-220.0","","","3-1","4360","37","1","Testing","Stims/Figures/86-J-0-1.bmp","sa:sa:ha","Left","37","3","24","6B","C2","C","72"
"","","approach-retreat","221","1581548","0.0-221.0","","","3-1","4848","40","1","Testing","Stims/Figures/19-J-10-4.bmp","za:haha","Down","40","4","1","6B","C2","C","73"
"","","approach-retreat","222","1587658","0.0-222.0","","","3-1","4605","39","1","Testing","Stims/Figures/27-C-30-1.bmp","fa:fa:va","Left","39","4","2","6B","C1","C","74"
"","","approach-retreat","223","1594556","0.0-223.0","","","3-1","5389","39","1","Testing","Stims/Figures/139-C-20-2.bmp","vafava","Left","39","4","3","6B","C1","C","75"
"","","approach-retreat","224","1601074","0.0-224.0","","","3-1","5011","37","1","Testing","Stims/Figures/100-J-10-3.bmp","za:ha:ha","Left","37","4","4","6B","C2","C","76"
"","","approach-retreat","225","1607314","0.0-225.0","","","3-1","4734","40","1","Testing","Stims/Figures/84-J-0-2.bmp","sa:ha:ha","Down","40","4","5","6B","C2","C","77"
"","","approach-retreat","226","1613716","0.0-226.0","","","3-1","4897","38","1","Testing","Stims/Figures/94-J-0-2.bmp","zahaza","Up","38","4","6","6B","C2","C","78"
"","","approach-retreat","227","1620887","0.0-227.0","","","3-1","5662","39","1","Testing","Stims/Figures/86-J-0-1.bmp","sa:sa:ha","Right","39","4","7","6B","C2","C","79"
"","","approach-retreat","228","1628311","0.0-228.0","","","3-1","5918","39","0","Testing","Stims/Figures/19-C-20-4.bmp","fasha:va","Right","37","4","8","6B","C1","C","80"
"","","approach-retreat","229","1634504","0.0-229.0","","","3-1","4684","38","1","Testing","Stims/Figures/71-C-30-1.bmp","va:fava","Down","38","4","9","6B","C1","C","81"
"","","approach-retreat","230","1640819","0.0-230.0","","","3-1","4811","39","1","Testing","Stims/Figures/94-C-20-2.bmp","va:sha:sha","Left","39","4","10","6B","C1","C","82"
"","","approach-retreat","231","1647538","0.0-231.0","","","3-1","5211","40","1","Testing","Stims/Figures/128-C-30-3.bmp","fa:fava","Up","40","4","11","6B","C1","C","83"
"","","approach-retreat","232","1654211","0.0-232.0","","","3-1","5166","40","1","Testing","Stims/Figures/144-C-30-3.bmp","va:shasha","Up","40","4","12","6B","C1","C","84"
"","","approach-retreat","233","1660411","0.0-233.0","","","3-1","4691","37","1","Testing","Stims/Figures/100-C-30-3.bmp","fa:fa:sha","Right","37","4","13","6B","C1","C","85"
"","","approach-retreat","234","1666564","0.0-234.0","","","3-1","4646","37","0","Testing","Stims/Figures/84-C-20-2.bmp","vafa:va","Left","39","4","14","6B","C1","C","86"
"","","approach-retreat","235","1673699","0.0-235.0","","","3-1","5628","38","1","Testing","Stims/Figures/71-J-0-1.bmp","sa:haza","Up","38","4","15","6B","C2","C","87"
"","","approach-retreat","236","1680968","0.0-236.0","","","3-1","5763","39","1","Testing","Stims/Figures/27-J-0-1.bmp","sasaza","Right","39","4","16","6B","C2","C","88"
"","","approach-retreat","237","1687885","0.0-237.0","","","3-1","5409","40","1","Testing","Stims/Figures/139-J-0-2.bmp","za:haza","Down","40","4","17","6B","C2","C","89"
"","","approach-retreat","238","1694315","0.0-238.0","","","3-1","4924","37","1","Testing","Stims/Figures/74-J-10-4.bmp","zasaza","Left","37","4","18","6B","C2","C","90"
"","","approach-retreat","239","1700612","0.0-239.0","","","3-1","4791","40","1","Testing","Stims/Figures/102-J-10-4.bmp","zaha:za","Down","40","4","19","6B","C2","C","91"
"","","approach-retreat","240","1706946","0.0-240.0","","","3-1","4828","37","1","Testing","Stims/Figures/74-C-20-4.bmp","va:fasha","Right","37","4","20","6B","C1","C","92"
"","","approach-retreat","241","1715471","0.0-241.0","","","3-1","7017","40","1","Testing","Stims/Figures/86-C-30-1.bmp","vasha:sha","Up","40","4","21","6B","C1","C","93"
"","","approach-retreat","242","1722280","0.0-242.0","","","3-1","5302","38","1","Testing","Stims/Figures/144-J-10-3.bmp","sahaha","Up","38","4","22","6B","C2","C","94"
"","","approach-retreat","243","1728836","0.0-243.0","","","3-1","5049","39","0","Testing","Stims/Figures/102-C-20-4.bmp","fafasha","Right","37","4","23","6B","C1","C","95"
"","","approach-retreat","244","1735476","0.0-244.0","","","3-1","5135","40","1","Testing","Stims/Figures/128-J-10-3.bmp","za:saza","Down","40","4","24","6B","C2","C","96"
"28725","","survey-text","245","1764206","0.0-245.0","","{""Q0"":""2018/0013""}","","","","","","","","","","","","","","",""
