"rt","key_press","trial_type","trial_index","time_elapsed","internal_node_id","view_history","responses","Id","Rt","ResKeyCode","ResCorr","TrialType2","Image","Label","Location","CorrectResponse","Block","BlockTrial","Condition","LabelType","Subcondition","trialNum"
"56635","32","text","0","56640","0.0-0.0-0.0","","","","","","","","","","","","","","","","",""
"150546","","instructions","1","207190","0.0-1.0","[{""page_index"":0,""viewing_time"":150545}]","","","","","","","","","","","","","","","",""
"65005","","survey-multi-choice","2","272234","0.0-2.0","","{""Q0"":""Da"",""Q1"":""Da"",""Q2"":""Da"",""Q3"":""Da"",""Q4"":""Da"",""Q5"":""Da""}","","","","","","","","","","","","","","",""
"","","bio","3","283922","0.0-3.0","","{""age"":""19"",""gender"":""f"",""specify"":""""}","","","","","","","","","","","","","","",""
"","","approach-retreat","4","420063","0.0-4.0","","","3-4","134624","37","1","Training","Stims/Figures/7-C-20-4.bmp","mamala","Left","37","1","1","9","S","J","1"
"","","approach-retreat","5","449382","0.0-5.0","","","3-4","27807","38","1","Training","Stims/Figures/86-J-0-1.bmp","paka:ka","Down","38","1","2","9","P","J","2"
"","","approach-retreat","6","472467","0.0-6.0","","","3-4","21573","37","0","Training","Stims/Figures/27-C-30-1.bmp","ma:mana","Right","39","1","3","9","S","J","3"
"","","approach-retreat","7","490135","0.0-7.0","","","3-4","16158","39","1","Training","Stims/Figures/139-J-0-2.bmp","sasa:ha","Left","39","1","4","9","C2","J","4"
"","","approach-retreat","8","518393","0.0-8.0","","","3-4","26749","40","1","Training","Stims/Figures/144-C-30-3.bmp","fa:sha:va","Down","40","1","5","9","C1","J","5"
"","","approach-retreat","9","529726","0.0-9.0","","","3-4","9821","38","0","Training","Stims/Figures/27-J-0-1.bmp","vafa:sha","Up","40","1","6","9","C1","J","6"
"","","approach-retreat","10","540818","0.0-10.0","","","3-4","9581","39","0","Training","Stims/Figures/128-C-30-3.bmp","mamana","Left","37","1","7","9","S","J","7"
"","","approach-retreat","11","549500","0.0-11.0","","","3-4","7170","37","0","Training","Stims/Figures/84-C-20-2.bmp","pakata","Right","39","1","8","9","P","J","8"
"","","approach-retreat","12","559755","0.0-12.0","","","3-4","8744","38","1","Training","Stims/Figures/84-J-0-2.bmp","pa:pata","Down","38","1","9","9","P","J","9"
"","","approach-retreat","13","573001","0.0-13.0","","","3-4","11736","38","1","Training","Stims/Figures/86-C-30-1.bmp","pa:pa:ka","Up","38","1","10","9","P","J","10"
"","","approach-retreat","14","585497","0.0-14.0","","","3-4","10986","39","0","Training","Stims/Figures/74-J-10-4.bmp","ma:lana","Right","37","1","11","9","S","J","11"
"","","approach-retreat","15","593964","0.0-15.0","","","3-4","6957","37","0","Training","Stims/Figures/139-C-20-2.bmp","ma:la:na","Right","39","1","12","9","S","J","12"
"","","approach-retreat","16","621063","0.0-16.0","","","3-4","25589","40","0","Training","Stims/Figures/7-J-10-4.bmp","na:lala","Down","38","1","13","9","S","J","13"
"","","approach-retreat","17","630013","0.0-17.0","","","3-4","7441","37","0","Training","Stims/Figures/128-J-10-3.bmp","va:sha:va","Left","39","1","14","9","C1","J","14"
"","","approach-retreat","18","656285","0.0-18.0","","","3-4","24762","38","1","Training","Stims/Figures/74-C-20-4.bmp","za:haza","Up","38","1","15","9","C2","J","15"
"","","approach-retreat","19","664466","0.0-19.0","","","3-4","6670","38","0","Training","Stims/Figures/144-J-10-3.bmp","sasaza","Up","40","1","16","9","C2","J","16"
"","","approach-retreat","20","677411","0.0-20.0","","","3-4","11435","38","0","Training","Stims/Figures/7-J-10-4.bmp","na:lala","Up","40","2","1","9","S","J","17"
"","","approach-retreat","21","685476","0.0-21.0","","","3-4","6553","39","1","Training","Stims/Figures/74-C-20-4.bmp","za:haza","Right","39","2","2","9","C2","J","18"
"","","approach-retreat","22","693706","0.0-22.0","","","3-4","6718","40","0","Training","Stims/Figures/128-J-10-3.bmp","va:sha:va","Down","38","2","3","9","C1","J","19"
"","","approach-retreat","23","701736","0.0-23.0","","","3-4","6517","39","0","Training","Stims/Figures/128-C-30-3.bmp","mamana","Left","37","2","4","9","S","J","20"
"","","approach-retreat","24","709745","0.0-24.0","","","3-4","6499","39","1","Training","Stims/Figures/139-C-20-2.bmp","ma:la:na","Right","39","2","5","9","S","J","21"
"","","approach-retreat","25","717602","0.0-25.0","","","3-4","6346","38","1","Training","Stims/Figures/7-C-20-4.bmp","mamala","Up","38","2","6","9","S","J","22"
"","","approach-retreat","26","725294","0.0-26.0","","","3-4","6182","40","1","Training","Stims/Figures/144-C-30-3.bmp","fa:sha:va","Down","40","2","7","9","C1","J","23"
"","","approach-retreat","27","733241","0.0-27.0","","","3-4","6437","40","1","Training","Stims/Figures/139-J-0-2.bmp","sasa:ha","Up","40","2","8","9","C2","J","24"
"","","approach-retreat","28","740875","0.0-28.0","","","3-4","6125","40","0","Training","Stims/Figures/74-J-10-4.bmp","ma:lana","Down","38","2","9","9","S","J","25"
"","","approach-retreat","29","747350","0.0-29.0","","","3-4","4966","40","1","Training","Stims/Figures/84-C-20-2.bmp","pakata","Down","40","2","10","9","P","J","26"
"","","approach-retreat","30","755391","0.0-30.0","","","3-4","6530","37","0","Training","Stims/Figures/27-J-0-1.bmp","vafa:sha","Left","39","2","11","9","C1","J","27"
"","","approach-retreat","31","761563","0.0-31.0","","","3-4","4663","39","1","Training","Stims/Figures/86-C-30-1.bmp","pa:pa:ka","Right","39","2","12","9","P","J","28"
"","","approach-retreat","32","767435","0.0-32.0","","","3-4","4362","37","0","Training","Stims/Figures/86-J-0-1.bmp","paka:ka","Left","39","2","13","9","P","J","29"
"","","approach-retreat","33","776459","0.0-33.0","","","3-4","7512","37","1","Training","Stims/Figures/84-J-0-2.bmp","pa:pata","Right","37","2","14","9","P","J","30"
"","","approach-retreat","34","783436","0.0-34.0","","","3-4","5467","38","1","Training","Stims/Figures/27-C-30-1.bmp","ma:mana","Up","38","2","15","9","S","J","31"
"","","approach-retreat","35","792512","0.0-35.0","","","3-4","7566","39","1","Training","Stims/Figures/144-J-10-3.bmp","sasaza","Left","39","2","16","9","C2","J","32"
"","","approach-retreat","36","802167","0.0-36.0","","","3-4","8145","38","1","Training","Stims/Figures/27-C-30-1.bmp","ma:mana","Up","38","3","1","9","S","J","33"
"","","approach-retreat","37","808224","0.0-37.0","","","3-4","4549","38","0","Training","Stims/Figures/139-J-0-2.bmp","sasa:ha","Up","40","3","2","9","C2","J","34"
"","","approach-retreat","38","815474","0.0-38.0","","","3-4","5737","37","0","Training","Stims/Figures/86-J-0-1.bmp","paka:ka","Left","39","3","3","9","P","J","35"
"","","approach-retreat","39","821425","0.0-39.0","","","3-4","4440","37","1","Training","Stims/Figures/86-C-30-1.bmp","pa:pa:ka","Left","37","3","4","9","P","J","36"
"","","approach-retreat","40","828084","0.0-40.0","","","3-4","5150","38","0","Training","Stims/Figures/84-C-20-2.bmp","pakata","Down","40","3","5","9","P","J","37"
"","","approach-retreat","41","835119","0.0-41.0","","","3-4","5525","39","0","Training","Stims/Figures/27-J-0-1.bmp","vafa:sha","Right","37","3","6","9","C1","J","38"
"","","approach-retreat","42","843742","0.0-42.0","","","3-4","7113","39","1","Training","Stims/Figures/144-J-10-3.bmp","sasaza","Left","39","3","7","9","C2","J","39"
"","","approach-retreat","43","851234","0.0-43.0","","","3-4","5983","40","1","Training","Stims/Figures/84-J-0-2.bmp","pa:pata","Up","40","3","8","9","P","J","40"
"","","approach-retreat","44","857995","0.0-44.0","","","3-4","5249","40","1","Training","Stims/Figures/139-C-20-2.bmp","ma:la:na","Down","40","3","9","9","S","J","41"
"","","approach-retreat","45","864138","0.0-45.0","","","3-4","4634","40","0","Training","Stims/Figures/128-J-10-3.bmp","va:sha:va","Down","38","3","10","9","C1","J","42"
"","","approach-retreat","46","870396","0.0-46.0","","","3-4","4749","40","1","Training","Stims/Figures/144-C-30-3.bmp","fa:sha:va","Down","40","3","11","9","C1","J","43"
"","","approach-retreat","47","877020","0.0-47.0","","","3-4","5115","39","1","Training","Stims/Figures/128-C-30-3.bmp","mamana","Right","39","3","12","9","S","J","44"
"","","approach-retreat","48","883811","0.0-48.0","","","3-4","5281","37","0","Training","Stims/Figures/7-J-10-4.bmp","na:lala","Left","39","3","13","9","S","J","45"
"","","approach-retreat","49","889739","0.0-49.0","","","3-4","4418","39","0","Training","Stims/Figures/74-J-10-4.bmp","ma:lana","Right","37","3","14","9","S","J","46"
"","","approach-retreat","50","896460","0.0-50.0","","","3-4","5211","39","1","Training","Stims/Figures/74-C-20-4.bmp","za:haza","Right","39","3","15","9","C2","J","47"
"","","approach-retreat","51","905909","0.0-51.0","","","3-4","7939","40","0","Training","Stims/Figures/7-C-20-4.bmp","mamala","Up","38","3","16","9","S","J","48"
"","","approach-retreat","52","917594","0.0-52.0","","","3-4","10179","39","0","Training","Stims/Figures/27-C-30-1.bmp","ma:mana","Left","37","4","1","9","S","J","49"
"","","approach-retreat","53","924846","0.0-53.0","","","3-4","5741","38","1","Training","Stims/Figures/144-C-30-3.bmp","fa:sha:va","Up","38","4","2","9","C1","J","50"
"","","approach-retreat","54","931195","0.0-54.0","","","3-4","4838","38","1","Training","Stims/Figures/144-J-10-3.bmp","sasaza","Down","38","4","3","9","C2","J","51"
"","","approach-retreat","55","937113","0.0-55.0","","","3-4","4407","40","0","Training","Stims/Figures/74-J-10-4.bmp","ma:lana","Down","38","4","4","9","S","J","52"
"","","approach-retreat","56","946601","0.0-56.0","","","3-4","7979","38","0","Training","Stims/Figures/27-J-0-1.bmp","vafa:sha","Up","40","4","5","9","C1","J","53"
"","","approach-retreat","57","964542","0.0-57.0","","","3-4","16429","39","0","Training","Stims/Figures/86-C-30-1.bmp","pa:pa:ka","Left","37","4","6","9","P","J","54"
"","","approach-retreat","58","976058","0.0-58.0","","","3-4","10005","40","1","Training","Stims/Figures/7-C-20-4.bmp","mamala","Down","40","4","7","9","S","J","55"
"","","approach-retreat","59","986678","0.0-59.0","","","3-4","9110","39","0","Training","Stims/Figures/139-J-0-2.bmp","sasa:ha","Right","37","4","8","9","C2","J","56"
"","","approach-retreat","60","997166","0.0-60.0","","","3-4","8978","39","0","Training","Stims/Figures/86-J-0-1.bmp","paka:ka","Right","37","4","9","9","P","J","57"
"","","approach-retreat","61","1010696","0.0-61.0","","","3-4","12019","38","0","Training","Stims/Figures/84-J-0-2.bmp","pa:pata","Up","40","4","10","9","P","J","58"
"","","approach-retreat","62","1021001","0.0-62.0","","","3-4","8795","39","1","Training","Stims/Figures/74-C-20-4.bmp","za:haza","Right","39","4","11","9","C2","J","59"
"","","approach-retreat","63","1027696","0.0-63.0","","","3-4","5184","37","1","Training","Stims/Figures/128-C-30-3.bmp","mamana","Left","37","4","12","9","S","J","60"
"","","approach-retreat","64","1038198","0.0-64.0","","","3-4","8991","38","1","Training","Stims/Figures/84-C-20-2.bmp","pakata","Up","38","4","13","9","P","J","61"
"","","approach-retreat","65","1048539","0.0-65.0","","","3-4","8830","40","1","Training","Stims/Figures/139-C-20-2.bmp","ma:la:na","Down","40","4","14","9","S","J","62"
"","","approach-retreat","66","1057048","0.0-66.0","","","3-4","7000","37","1","Training","Stims/Figures/7-J-10-4.bmp","na:lala","Right","37","4","15","9","S","J","63"
"","","approach-retreat","67","1071808","0.0-67.0","","","3-4","13250","37","0","Training","Stims/Figures/128-J-10-3.bmp","va:sha:va","Left","39","4","16","9","C1","J","64"
"","","approach-retreat","68","1078423","0.0-68.0","","","3-4","5105","37","1","Training","Stims/Figures/128-C-30-3.bmp","mamana","Left","37","5","1","9","S","J","65"
"","","approach-retreat","69","1085907","0.0-69.0","","","3-4","5975","40","1","Training","Stims/Figures/74-C-20-4.bmp","za:haza","Down","40","5","2","9","C2","J","66"
"","","approach-retreat","70","1093546","0.0-70.0","","","3-4","6128","40","1","Training","Stims/Figures/84-C-20-2.bmp","pakata","Down","40","5","3","9","P","J","67"
"","","approach-retreat","71","1100709","0.0-71.0","","","3-4","5652","37","0","Training","Stims/Figures/84-J-0-2.bmp","pa:pata","Left","39","5","4","9","P","J","68"
"","","approach-retreat","72","1107629","0.0-72.0","","","3-4","5410","38","1","Training","Stims/Figures/27-C-30-1.bmp","ma:mana","Up","38","5","5","9","S","J","69"
"","","approach-retreat","73","1115472","0.0-73.0","","","3-4","6334","37","1","Training","Stims/Figures/139-J-0-2.bmp","sasa:ha","Right","37","5","6","9","C2","J","70"
"","","approach-retreat","74","1125538","0.0-74.0","","","3-4","8555","37","0","Training","Stims/Figures/86-C-30-1.bmp","pa:pa:ka","Right","39","5","7","9","P","J","71"
"","","approach-retreat","75","1134710","0.0-75.0","","","3-4","7661","40","0","Training","Stims/Figures/7-C-20-4.bmp","mamala","Up","38","5","8","9","S","J","72"
"","","approach-retreat","76","1154132","0.0-76.0","","","3-4","17910","37","1","Training","Stims/Figures/86-J-0-1.bmp","paka:ka","Right","37","5","9","9","P","J","73"
"","","approach-retreat","77","1164959","0.0-77.0","","","3-4","9316","39","0","Training","Stims/Figures/144-J-10-3.bmp","sasaza","Right","37","5","10","9","C2","J","74"
"","","approach-retreat","78","1175716","0.0-78.0","","","3-4","9247","40","1","Training","Stims/Figures/74-J-10-4.bmp","ma:lana","Up","40","5","11","9","S","J","75"
"","","approach-retreat","79","1185555","0.0-79.0","","","3-4","8328","40","0","Training","Stims/Figures/7-J-10-4.bmp","na:lala","Down","38","5","12","9","S","J","76"
"","","approach-retreat","80","1193510","0.0-80.0","","","3-4","6444","37","1","Training","Stims/Figures/144-C-30-3.bmp","fa:sha:va","Left","37","5","13","9","C1","J","77"
"","","approach-retreat","81","1204399","0.0-81.0","","","3-4","9379","40","0","Training","Stims/Figures/128-J-10-3.bmp","va:sha:va","Down","38","5","14","9","C1","J","78"
"","","approach-retreat","82","1212570","0.0-82.0","","","3-4","6658","40","0","Training","Stims/Figures/139-C-20-2.bmp","ma:la:na","Up","38","5","15","9","S","J","79"
"","","approach-retreat","83","1222399","0.0-83.0","","","3-4","8318","37","0","Training","Stims/Figures/27-J-0-1.bmp","vafa:sha","Left","39","5","16","9","C1","J","80"
"","","approach-retreat","84","1229084","0.0-84.0","","","3-4","5176","40","0","Training","Stims/Figures/74-J-10-4.bmp","ma:lana","Down","38","6","1","9","S","J","81"
"","","approach-retreat","85","1236936","0.0-85.0","","","3-4","6342","39","1","Training","Stims/Figures/74-C-20-4.bmp","za:haza","Right","39","6","2","9","C2","J","82"
"","","approach-retreat","86","1254241","0.0-86.0","","","3-4","15794","37","1","Training","Stims/Figures/7-J-10-4.bmp","na:lala","Right","37","6","3","9","S","J","83"
"","","approach-retreat","87","1267496","0.0-87.0","","","3-4","11746","37","0","Training","Stims/Figures/84-J-0-2.bmp","pa:pata","Left","39","6","4","9","P","J","84"
"","","approach-retreat","88","1275186","0.0-88.0","","","3-4","6178","40","0","Training","Stims/Figures/144-J-10-3.bmp","sasaza","Down","38","6","5","9","C2","J","85"
"","","approach-retreat","89","1284369","0.0-89.0","","","3-4","7671","37","1","Training","Stims/Figures/84-C-20-2.bmp","pakata","Left","37","6","6","9","P","J","86"
"","","approach-retreat","90","1294635","0.0-90.0","","","3-4","8757","40","0","Training","Stims/Figures/27-J-0-1.bmp","vafa:sha","Down","38","6","7","9","C1","J","87"
"","","approach-retreat","91","1344023","0.0-91.0","","","3-4","47879","38","1","Training","Stims/Figures/27-C-30-1.bmp","ma:mana","Up","38","6","8","9","S","J","88"
"","","approach-retreat","92","1353842","0.0-92.0","","","3-4","8309","37","1","Training","Stims/Figures/128-J-10-3.bmp","va:sha:va","Right","37","6","9","9","C1","J","89"
"","","approach-retreat","93","1362235","0.0-93.0","","","3-4","6883","40","0","Training","Stims/Figures/86-C-30-1.bmp","pa:pa:ka","Up","38","6","10","9","P","J","90"
"","","approach-retreat","94","1370113","0.0-94.0","","","3-4","6367","39","0","Training","Stims/Figures/128-C-30-3.bmp","mamana","Left","37","6","11","9","S","J","91"
"","","approach-retreat","95","1380645","0.0-95.0","","","3-4","9023","39","0","Training","Stims/Figures/144-C-30-3.bmp","fa:sha:va","Left","37","6","12","9","C1","J","92"
"","","approach-retreat","96","1388559","0.0-96.0","","","3-4","6405","38","0","Training","Stims/Figures/86-J-0-1.bmp","paka:ka","Up","40","6","13","9","P","J","93"
"","","approach-retreat","97","1397033","0.0-97.0","","","3-4","6963","40","0","Training","Stims/Figures/7-C-20-4.bmp","mamala","Up","38","6","14","9","S","J","94"
"","","approach-retreat","98","1406375","0.0-98.0","","","3-4","7833","37","0","Training","Stims/Figures/139-C-20-2.bmp","ma:la:na","Right","39","6","15","9","S","J","95"
"","","approach-retreat","99","1413095","0.0-99.0","","","3-4","5211","40","0","Training","Stims/Figures/139-J-0-2.bmp","sasa:ha","Down","38","6","16","9","C2","J","96"
"","","approach-retreat","100","1418987","0.0-100.0","","","3-4","4383","40","1","Training","Stims/Figures/74-C-20-4.bmp","za:haza","Down","40","7","1","9","C2","J","97"
"","","approach-retreat","101","1426171","0.0-101.0","","","3-4","5672","37","0","Training","Stims/Figures/84-J-0-2.bmp","pa:pata","Left","39","7","2","9","P","J","98"
"","","approach-retreat","102","1432008","0.0-102.0","","","3-4","4326","40","1","Training","Stims/Figures/84-C-20-2.bmp","pakata","Down","40","7","3","9","P","J","99"
"","","approach-retreat","103","1439346","0.0-103.0","","","3-4","5828","39","1","Training","Stims/Figures/74-J-10-4.bmp","ma:lana","Left","39","7","4","9","S","J","100"
"","","approach-retreat","104","1445353","0.0-104.0","","","3-4","4496","37","1","Training","Stims/Figures/128-C-30-3.bmp","mamana","Left","37","7","5","9","S","J","101"
"","","approach-retreat","105","1453543","0.0-105.0","","","3-4","6680","39","0","Training","Stims/Figures/86-J-0-1.bmp","paka:ka","Right","37","7","6","9","P","J","102"
"","","approach-retreat","106","1467533","0.0-106.0","","","3-4","12479","38","0","Training","Stims/Figures/27-J-0-1.bmp","vafa:sha","Up","40","7","7","9","C1","J","103"
"","","approach-retreat","107","1475737","0.0-107.0","","","3-4","6695","38","1","Training","Stims/Figures/7-J-10-4.bmp","na:lala","Down","38","7","8","9","S","J","104"
"","","approach-retreat","108","1484444","0.0-108.0","","","3-4","7197","39","0","Training","Stims/Figures/7-C-20-4.bmp","mamala","Left","37","7","9","9","S","J","105"
"","","approach-retreat","109","1494484","0.0-109.0","","","3-4","8531","38","0","Training","Stims/Figures/128-J-10-3.bmp","va:sha:va","Up","40","7","10","9","C1","J","106"
"","","approach-retreat","110","1503767","0.0-110.0","","","3-4","7773","38","0","Training","Stims/Figures/144-C-30-3.bmp","fa:sha:va","Down","40","7","11","9","C1","J","107"
"","","approach-retreat","111","1514920","0.0-111.0","","","3-4","9643","39","1","Training","Stims/Figures/27-C-30-1.bmp","ma:mana","Right","39","7","12","9","S","J","108"
"","","approach-retreat","112","1523489","0.0-112.0","","","3-4","7061","37","1","Training","Stims/Figures/139-J-0-2.bmp","sasa:ha","Right","37","7","13","9","C2","J","109"
"","","approach-retreat","113","1530731","0.0-113.0","","","3-4","5732","40","0","Training","Stims/Figures/139-C-20-2.bmp","ma:la:na","Up","38","7","14","9","S","J","110"
"","","approach-retreat","114","1539573","0.0-114.0","","","3-4","7332","37","0","Training","Stims/Figures/86-C-30-1.bmp","pa:pa:ka","Right","39","7","15","9","P","J","111"
"","","approach-retreat","115","1547662","0.0-115.0","","","3-4","6580","40","1","Training","Stims/Figures/144-J-10-3.bmp","sasaza","Up","40","7","16","9","C2","J","112"
"","","approach-retreat","116","1558240","0.0-116.0","","","3-4","9068","38","1","Training","Stims/Figures/144-J-10-3.bmp","sasaza","Down","38","8","1","9","C2","J","113"
"","","approach-retreat","117","1570702","0.0-117.0","","","3-4","10952","39","0","Training","Stims/Figures/128-C-30-3.bmp","mamana","Left","37","8","2","9","S","J","114"
"","","approach-retreat","118","1577727","0.0-118.0","","","3-4","5515","40","1","Training","Stims/Figures/139-C-20-2.bmp","ma:la:na","Down","40","8","3","9","S","J","115"
"","","approach-retreat","119","1583566","0.0-119.0","","","3-4","4329","40","0","Training","Stims/Figures/128-J-10-3.bmp","va:sha:va","Down","38","8","4","9","C1","J","116"
"","","approach-retreat","120","1590381","0.0-120.0","","","3-4","5305","40","0","Training","Stims/Figures/74-J-10-4.bmp","ma:lana","Down","38","8","5","9","S","J","117"
"","","approach-retreat","121","1599002","0.0-121.0","","","3-4","7111","39","0","Training","Stims/Figures/27-C-30-1.bmp","ma:mana","Left","37","8","6","9","S","J","118"
"","","approach-retreat","122","1610307","0.0-122.0","","","3-4","9794","39","1","Training","Stims/Figures/86-J-0-1.bmp","paka:ka","Left","39","8","7","9","P","J","119"
"","","approach-retreat","123","1616244","0.0-123.0","","","3-4","4427","37","1","Training","Stims/Figures/7-J-10-4.bmp","na:lala","Right","37","8","8","9","S","J","120"
"","","approach-retreat","124","1628927","0.0-124.0","","","3-4","11173","39","0","Training","Stims/Figures/139-J-0-2.bmp","sasa:ha","Right","37","8","9","9","C2","J","121"
"","","approach-retreat","125","1635943","0.0-125.0","","","3-4","5505","39","0","Training","Stims/Figures/7-C-20-4.bmp","mamala","Left","37","8","10","9","S","J","122"
"","","approach-retreat","126","1648094","0.0-126.0","","","3-4","10641","37","1","Training","Stims/Figures/84-J-0-2.bmp","pa:pata","Right","37","8","11","9","P","J","123"
"","","approach-retreat","127","1655999","0.0-127.0","","","3-4","6394","40","0","Training","Stims/Figures/74-C-20-4.bmp","za:haza","Up","38","8","12","9","C2","J","124"
"","","approach-retreat","128","1665278","0.0-128.0","","","3-4","7769","40","0","Training","Stims/Figures/86-C-30-1.bmp","pa:pa:ka","Up","38","8","13","9","P","J","125"
"","","approach-retreat","129","1674645","0.0-129.0","","","3-4","7856","39","1","Training","Stims/Figures/84-C-20-2.bmp","pakata","Right","39","8","14","9","P","J","126"
"","","approach-retreat","130","1681214","0.0-130.0","","","3-4","5060","38","0","Training","Stims/Figures/27-J-0-1.bmp","vafa:sha","Up","40","8","15","9","C1","J","127"
"","","approach-retreat","131","1687904","0.0-131.0","","","3-4","5181","40","0","Training","Stims/Figures/144-C-30-3.bmp","fa:sha:va","Up","38","8","16","9","C1","J","128"
"","","approach-retreat","132","1694049","0.0-132.0","","","3-4","4635","39","1","Training","Stims/Figures/27-C-30-1.bmp","ma:mana","Right","39","9","1","9","S","J","129"
"","","approach-retreat","133","1702016","0.0-133.0","","","3-4","6458","38","1","Training","Stims/Figures/84-J-0-2.bmp","pa:pata","Down","38","9","2","9","P","J","130"
"","","approach-retreat","134","1711302","0.0-134.0","","","3-4","7776","39","0","Training","Stims/Figures/86-C-30-1.bmp","pa:pa:ka","Left","37","9","3","9","P","J","131"
"","","approach-retreat","135","1722196","0.0-135.0","","","3-4","9383","38","0","Training","Stims/Figures/139-J-0-2.bmp","sasa:ha","Up","40","9","4","9","C2","J","132"
"","","approach-retreat","136","1732289","0.0-136.0","","","3-4","8582","37","0","Training","Stims/Figures/27-J-0-1.bmp","vafa:sha","Left","39","9","5","9","C1","J","133"
"","","approach-retreat","137","1740556","0.0-137.0","","","3-4","6756","38","0","Training","Stims/Figures/128-J-10-3.bmp","va:sha:va","Up","40","9","6","9","C1","J","134"
"","","approach-retreat","138","1747416","0.0-138.0","","","3-4","5351","38","0","Training","Stims/Figures/74-J-10-4.bmp","ma:lana","Up","40","9","7","9","S","J","135"
"","","approach-retreat","139","1755435","0.0-139.0","","","3-4","6510","37","1","Training","Stims/Figures/144-C-30-3.bmp","fa:sha:va","Left","37","9","8","9","C1","J","136"
"","","approach-retreat","140","1763262","0.0-140.0","","","3-4","6317","40","1","Training","Stims/Figures/7-C-20-4.bmp","mamala","Down","40","9","9","9","S","J","137"
"","","approach-retreat","141","1773919","0.0-141.0","","","3-4","9147","38","1","Training","Stims/Figures/144-J-10-3.bmp","sasaza","Down","38","9","10","9","C2","J","138"
"","","approach-retreat","142","1780192","0.0-142.0","","","3-4","4763","39","1","Training","Stims/Figures/84-C-20-2.bmp","pakata","Right","39","9","11","9","P","J","139"
"","","approach-retreat","143","1791254","0.0-143.0","","","3-4","9550","40","0","Training","Stims/Figures/7-J-10-4.bmp","na:lala","Down","38","9","12","9","S","J","140"
"","","approach-retreat","144","1800832","0.0-144.0","","","3-4","8069","38","0","Training","Stims/Figures/86-J-0-1.bmp","paka:ka","Up","40","9","13","9","P","J","141"
"","","approach-retreat","145","1808434","0.0-145.0","","","3-4","6092","39","1","Training","Stims/Figures/74-C-20-4.bmp","za:haza","Right","39","9","14","9","C2","J","142"
"","","approach-retreat","146","1817070","0.0-146.0","","","3-4","7125","39","0","Training","Stims/Figures/139-C-20-2.bmp","ma:la:na","Left","37","9","15","9","S","J","143"
"","","approach-retreat","147","1823814","0.0-147.0","","","3-4","5235","39","1","Training","Stims/Figures/128-C-30-3.bmp","mamana","Right","39","9","16","9","S","J","144"
"24394","","instructions","148","1848209","0.0-148.0","[{""page_index"":0,""viewing_time"":24393}]","","","","","","","","","","","","","","","",""
"","","approach-retreat","149","1868428","0.0-149.0","","","3-4","18711","40","0","Testing","Stims/Figures/27-J-0-1.bmp","vafa:sha","Down","38","1","1","9","C1","J","1"
"","","approach-retreat","150","1883744","0.0-150.0","","","3-4","13808","39","0","Testing","Stims/Figures/85-C-20-2.bmp","fa:fava","Left","37","1","2","9","C1","J","2"
"","","approach-retreat","151","1893696","0.0-151.0","","","3-4","8444","40","1","Testing","Stims/Figures/85-J-0-2.bmp","mama:na","Up","40","1","3","9","S","J","3"
"","","approach-retreat","152","1900235","0.0-152.0","","","3-4","5030","38","1","Testing","Stims/Figures/27-C-30-1.bmp","ma:mana","Up","38","1","4","9","S","J","4"
"","","approach-retreat","153","1907552","0.0-153.0","","","3-4","5808","38","0","Testing","Stims/Figures/74-J-10-4.bmp","ma:lana","Up","40","1","5","9","S","J","5"
"","","approach-retreat","154","1942214","0.0-154.0","","","3-4","33154","39","1","Testing","Stims/Figures/57-C-30-1.bmp","ta:ka:ka","Right","39","1","6","9","P","J","6"
"","","approach-retreat","155","1949995","0.0-155.0","","","3-4","6273","37","1","Testing","Stims/Figures/86-C-30-1.bmp","pa:pa:ka","Left","37","1","7","9","P","J","7"
"","","approach-retreat","156","1962088","0.0-156.0","","","3-4","10584","38","1","Testing","Stims/Figures/84-J-0-2.bmp","pa:pata","Down","38","1","8","9","P","J","8"
"","","approach-retreat","157","1978920","0.0-157.0","","","3-4","15323","37","1","Testing","Stims/Figures/139-J-0-2.bmp","sasa:ha","Right","37","1","9","9","C2","J","9"
"","","approach-retreat","158","2009892","0.0-158.0","","","3-4","29466","37","1","Testing","Stims/Figures/144-J-10-3.bmp","sasaza","Right","37","1","10","9","C2","J","10"
"","","approach-retreat","159","2020359","0.0-159.0","","","3-4","8962","38","1","Testing","Stims/Figures/100-C-30-3.bmp","takata","Up","38","1","11","9","P","J","11"
"","","approach-retreat","160","2049139","0.0-160.0","","","3-4","27272","38","1","Testing","Stims/Figures/7-J-10-4.bmp","na:lala","Down","38","1","12","9","S","J","12"
"","","approach-retreat","161","2061390","0.0-161.0","","","3-4","10743","38","1","Testing","Stims/Figures/100-J-10-3.bmp","taka:ka","Down","38","1","13","9","P","J","13"
"","","approach-retreat","162","2070075","0.0-162.0","","","3-4","7177","38","0","Testing","Stims/Figures/84-C-20-2.bmp","pakata","Down","40","1","14","9","P","J","14"
"","","approach-retreat","163","2079937","0.0-163.0","","","3-4","8353","39","1","Testing","Stims/Figures/57-J-0-1.bmp","tapa:ta","Left","39","1","15","9","P","J","15"
"","","approach-retreat","164","2089187","0.0-164.0","","","3-4","7742","37","1","Testing","Stims/Figures/86-J-0-1.bmp","paka:ka","Right","37","1","16","9","P","J","16"
"","","approach-retreat","165","2096869","0.0-165.0","","","3-4","6172","38","1","Testing","Stims/Figures/74-C-20-4.bmp","za:haza","Up","38","1","17","9","C2","J","17"
"","","approach-retreat","166","2105013","0.0-166.0","","","3-4","6636","40","1","Testing","Stims/Figures/128-C-30-3.bmp","mamana","Down","40","1","18","9","S","J","18"
"","","approach-retreat","167","2175192","0.0-167.0","","","3-4","68665","39","1","Testing","Stims/Figures/128-J-10-3.bmp","va:sha:va","Left","39","1","19","9","C1","J","19"
"","","approach-retreat","168","2181796","0.0-168.0","","","3-4","5096","37","1","Testing","Stims/Figures/144-C-30-3.bmp","fa:sha:va","Left","37","1","20","9","C1","J","20"
"","","approach-retreat","169","2216404","0.0-169.0","","","3-4","33099","39","1","Testing","Stims/Figures/19-C-20-4.bmp","fafasha","Right","39","1","21","9","C1","J","21"
"","","approach-retreat","170","2283370","0.0-170.0","","","3-4","65456","39","1","Testing","Stims/Figures/7-C-20-4.bmp","mamala","Right","39","1","22","9","S","J","22"
"","","approach-retreat","171","2290112","0.0-171.0","","","3-4","5235","37","1","Testing","Stims/Figures/139-C-20-2.bmp","ma:la:na","Left","37","1","23","9","S","J","23"
"","","approach-retreat","172","2297475","0.0-172.0","","","3-4","5855","40","1","Testing","Stims/Figures/19-J-10-4.bmp","zasaha","Up","40","1","24","9","C2","J","24"
"","","approach-retreat","173","2304360","0.0-173.0","","","3-4","5377","40","1","Testing","Stims/Figures/139-J-0-2.bmp","sasa:ha","Up","40","2","1","9","C2","J","25"
"","","approach-retreat","174","2311536","0.0-174.0","","","3-4","5669","40","1","Testing","Stims/Figures/144-J-10-3.bmp","sasaza","Up","40","2","2","9","C2","J","26"
"","","approach-retreat","175","2319264","0.0-175.0","","","3-4","6220","37","1","Testing","Stims/Figures/74-J-10-4.bmp","ma:lana","Right","37","2","3","9","S","J","27"
"","","approach-retreat","176","2327749","0.0-176.0","","","3-4","6977","40","1","Testing","Stims/Figures/139-C-20-2.bmp","ma:la:na","Down","40","2","4","9","S","J","28"
"","","approach-retreat","177","2335401","0.0-177.0","","","3-4","6144","38","1","Testing","Stims/Figures/128-C-30-3.bmp","mamana","Up","38","2","5","9","S","J","29"
"","","approach-retreat","178","2343759","0.0-178.0","","","3-4","6849","40","0","Testing","Stims/Figures/84-J-0-2.bmp","pa:pata","Down","38","2","6","9","P","J","30"
"","","approach-retreat","179","2351065","0.0-179.0","","","3-4","5797","37","1","Testing","Stims/Figures/144-C-30-3.bmp","fa:sha:va","Left","37","2","7","9","C1","J","31"
"","","approach-retreat","180","2358408","0.0-180.0","","","3-4","5835","37","1","Testing","Stims/Figures/128-J-10-3.bmp","va:sha:va","Right","37","2","8","9","C1","J","32"
"","","approach-retreat","181","2365889","0.0-181.0","","","3-4","5974","37","1","Testing","Stims/Figures/27-C-30-1.bmp","ma:mana","Left","37","2","9","9","S","J","33"
"","","approach-retreat","182","2374115","0.0-182.0","","","3-4","6718","40","1","Testing","Stims/Figures/100-J-10-3.bmp","taka:ka","Up","40","2","10","9","P","J","34"
"","","approach-retreat","183","2381191","0.0-183.0","","","3-4","5569","38","1","Testing","Stims/Figures/57-C-30-1.bmp","ta:ka:ka","Up","38","2","11","9","P","J","35"
"","","approach-retreat","184","2394636","0.0-184.0","","","3-4","11938","37","1","Testing","Stims/Figures/7-J-10-4.bmp","na:lala","Right","37","2","12","9","S","J","36"
"","","approach-retreat","185","2403980","0.0-185.0","","","3-4","7836","39","1","Testing","Stims/Figures/7-C-20-4.bmp","mamala","Right","39","2","13","9","S","J","37"
"","","approach-retreat","186","2411132","0.0-186.0","","","3-4","5646","40","1","Testing","Stims/Figures/85-J-0-2.bmp","mama:na","Up","40","2","14","9","S","J","38"
"","","approach-retreat","187","2418404","0.0-187.0","","","3-4","5762","37","1","Testing","Stims/Figures/57-J-0-1.bmp","tapa:ta","Right","37","2","15","9","P","J","39"
"","","approach-retreat","188","2428299","0.0-188.0","","","3-4","8388","40","1","Testing","Stims/Figures/100-C-30-3.bmp","takata","Down","40","2","16","9","P","J","40"
"","","approach-retreat","189","2436714","0.0-189.0","","","3-4","6909","38","1","Testing","Stims/Figures/19-J-10-4.bmp","zasaha","Down","38","2","17","9","C2","J","41"
"","","approach-retreat","190","2447613","0.0-190.0","","","3-4","9391","39","1","Testing","Stims/Figures/19-C-20-4.bmp","fafasha","Right","39","2","18","9","C1","J","42"
"","","approach-retreat","191","2476292","0.0-191.0","","","3-4","27171","40","1","Testing","Stims/Figures/74-C-20-4.bmp","za:haza","Down","40","2","19","9","C2","J","43"
"","","approach-retreat","192","2483989","0.0-192.0","","","3-4","6189","37","1","Testing","Stims/Figures/86-C-30-1.bmp","pa:pa:ka","Left","37","2","20","9","P","J","44"
"","","approach-retreat","193","2492164","0.0-193.0","","","3-4","6666","40","1","Testing","Stims/Figures/85-C-20-2.bmp","fa:fava","Down","40","2","21","9","C1","J","45"
"","","approach-retreat","194","2499467","0.0-194.0","","","3-4","5794","39","1","Testing","Stims/Figures/86-J-0-1.bmp","paka:ka","Left","39","2","22","9","P","J","46"
"","","approach-retreat","195","2506790","0.0-195.0","","","3-4","5816","37","1","Testing","Stims/Figures/84-C-20-2.bmp","pakata","Left","37","2","23","9","P","J","47"
"","","approach-retreat","196","2514001","0.0-196.0","","","3-4","5703","39","1","Testing","Stims/Figures/27-J-0-1.bmp","vafa:sha","Left","39","2","24","9","C1","J","48"
"","","approach-retreat","197","2521710","0.0-197.0","","","3-4","6201","40","1","Testing","Stims/Figures/85-C-20-2.bmp","fa:fava","Down","40","3","1","9","C1","J","49"
"","","approach-retreat","198","2534369","0.0-198.0","","","3-4","11151","37","1","Testing","Stims/Figures/74-J-10-4.bmp","ma:lana","Right","37","3","2","9","S","J","50"
"","","approach-retreat","199","2549511","0.0-199.0","","","3-4","13635","37","1","Testing","Stims/Figures/139-C-20-2.bmp","ma:la:na","Left","37","3","3","9","S","J","51"
"","","approach-retreat","200","2556538","0.0-200.0","","","3-4","5519","38","1","Testing","Stims/Figures/86-J-0-1.bmp","paka:ka","Down","38","3","4","9","P","J","52"
"","","approach-retreat","201","2563510","0.0-201.0","","","3-4","5463","37","1","Testing","Stims/Figures/100-C-30-3.bmp","takata","Left","37","3","5","9","P","J","53"
"","","approach-retreat","202","2569931","0.0-202.0","","","3-4","4912","40","1","Testing","Stims/Figures/128-C-30-3.bmp","mamana","Down","40","3","6","9","S","J","54"
"","","approach-retreat","203","2577269","0.0-203.0","","","3-4","5830","40","1","Testing","Stims/Figures/144-J-10-3.bmp","sasaza","Up","40","3","7","9","C2","J","55"
"","","approach-retreat","204","2659601","0.0-204.0","","","3-4","80825","39","1","Testing","Stims/Figures/19-J-10-4.bmp","zasaha","Left","39","3","8","9","C2","J","56"
"","","approach-retreat","205","2666015","0.0-205.0","","","3-4","4905","40","1","Testing","Stims/Figures/27-J-0-1.bmp","vafa:sha","Up","40","3","9","9","C1","J","57"
"","","approach-retreat","206","2672602","0.0-206.0","","","3-4","5077","37","1","Testing","Stims/Figures/27-C-30-1.bmp","ma:mana","Left","37","3","10","9","S","J","58"
"","","approach-retreat","207","2679482","0.0-207.0","","","3-4","5374","38","1","Testing","Stims/Figures/139-J-0-2.bmp","sasa:ha","Down","38","3","11","9","C2","J","59"
"","","approach-retreat","208","2687382","0.0-208.0","","","3-4","6393","37","1","Testing","Stims/Figures/85-J-0-2.bmp","mama:na","Right","37","3","12","9","S","J","60"
"","","approach-retreat","209","2707590","0.0-209.0","","","3-4","18700","40","1","Testing","Stims/Figures/100-J-10-3.bmp","taka:ka","Up","40","3","13","9","P","J","61"
"","","approach-retreat","210","2719989","0.0-210.0","","","3-4","10891","37","1","Testing","Stims/Figures/7-J-10-4.bmp","na:lala","Right","37","3","14","9","S","J","62"
"","","approach-retreat","211","2726448","0.0-211.0","","","3-4","4951","39","1","Testing","Stims/Figures/57-J-0-1.bmp","tapa:ta","Left","39","3","15","9","P","J","63"
"","","approach-retreat","212","2734698","0.0-212.0","","","3-4","6743","39","1","Testing","Stims/Figures/74-C-20-4.bmp","za:haza","Right","39","3","16","9","C2","J","64"
"","","approach-retreat","213","2740898","0.0-213.0","","","3-4","4690","38","1","Testing","Stims/Figures/7-C-20-4.bmp","mamala","Up","38","3","17","9","S","J","65"
"","","approach-retreat","214","2748251","0.0-214.0","","","3-4","5846","39","1","Testing","Stims/Figures/144-C-30-3.bmp","fa:sha:va","Right","39","3","18","9","C1","J","66"
"","","approach-retreat","215","2756801","0.0-215.0","","","3-4","7043","39","1","Testing","Stims/Figures/57-C-30-1.bmp","ta:ka:ka","Right","39","3","19","9","P","J","67"
"","","approach-retreat","216","2763572","0.0-216.0","","","3-4","5265","40","1","Testing","Stims/Figures/128-J-10-3.bmp","va:sha:va","Up","40","3","20","9","C1","J","68"
"","","approach-retreat","217","2778736","0.0-217.0","","","3-4","13654","40","0","Testing","Stims/Figures/84-C-20-2.bmp","pakata","Up","38","3","21","9","P","J","69"
"","","approach-retreat","218","2785576","0.0-218.0","","","3-4","5332","40","1","Testing","Stims/Figures/86-C-30-1.bmp","pa:pa:ka","Down","40","3","22","9","P","J","70"
"","","approach-retreat","219","2812413","0.0-219.0","","","3-4","25329","39","0","Testing","Stims/Figures/19-C-20-4.bmp","fafasha","Left","37","3","23","9","C1","J","71"
"","","approach-retreat","220","2819586","0.0-220.0","","","3-4","5664","38","1","Testing","Stims/Figures/84-J-0-2.bmp","pa:pata","Down","38","3","24","9","P","J","72"
"","","approach-retreat","221","2826245","0.0-221.0","","","3-4","5151","37","1","Testing","Stims/Figures/7-J-10-4.bmp","na:lala","Right","37","4","1","9","S","J","73"
"","","approach-retreat","222","2833111","0.0-222.0","","","3-4","5359","39","1","Testing","Stims/Figures/19-J-10-4.bmp","zasaha","Left","39","4","2","9","C2","J","74"
"","","approach-retreat","223","2839401","0.0-223.0","","","3-4","4781","40","1","Testing","Stims/Figures/74-J-10-4.bmp","ma:lana","Up","40","4","3","9","S","J","75"
"","","approach-retreat","224","2847792","0.0-224.0","","","3-4","6883","39","1","Testing","Stims/Figures/85-J-0-2.bmp","mama:na","Left","39","4","4","9","S","J","76"
"","","approach-retreat","225","2854748","0.0-225.0","","","3-4","5450","38","1","Testing","Stims/Figures/139-J-0-2.bmp","sasa:ha","Down","38","4","5","9","C2","J","77"
"","","approach-retreat","226","2863098","0.0-226.0","","","3-4","6842","40","1","Testing","Stims/Figures/100-J-10-3.bmp","taka:ka","Up","40","4","6","9","P","J","78"
"","","approach-retreat","227","2869734","0.0-227.0","","","3-4","5128","40","1","Testing","Stims/Figures/128-C-30-3.bmp","mamana","Down","40","4","7","9","S","J","79"
"","","approach-retreat","228","2875791","0.0-228.0","","","3-4","4550","37","1","Testing","Stims/Figures/19-C-20-4.bmp","fafasha","Left","37","4","8","9","C1","J","80"
"","","approach-retreat","229","2882323","0.0-229.0","","","3-4","5023","37","1","Testing","Stims/Figures/84-C-20-2.bmp","pakata","Left","37","4","9","9","P","J","81"
"","","approach-retreat","230","2888331","0.0-230.0","","","3-4","4501","38","1","Testing","Stims/Figures/86-J-0-1.bmp","paka:ka","Down","38","4","10","9","P","J","82"
"","","approach-retreat","231","2895006","0.0-231.0","","","3-4","5166","39","1","Testing","Stims/Figures/139-C-20-2.bmp","ma:la:na","Right","39","4","11","9","S","J","83"
"","","approach-retreat","232","2902495","0.0-232.0","","","3-4","5981","40","1","Testing","Stims/Figures/144-C-30-3.bmp","fa:sha:va","Down","40","4","12","9","C1","J","84"
"","","approach-retreat","233","2908950","0.0-233.0","","","3-4","4947","37","1","Testing","Stims/Figures/27-J-0-1.bmp","vafa:sha","Right","37","4","13","9","C1","J","85"
"","","approach-retreat","234","2918299","0.0-234.0","","","3-4","7842","37","1","Testing","Stims/Figures/85-C-20-2.bmp","fa:fava","Left","37","4","14","9","C1","J","86"
"","","approach-retreat","235","2926366","0.0-235.0","","","3-4","6557","37","1","Testing","Stims/Figures/27-C-30-1.bmp","ma:mana","Left","37","4","15","9","S","J","87"
"","","approach-retreat","236","2932919","0.0-236.0","","","3-4","5045","39","1","Testing","Stims/Figures/57-C-30-1.bmp","ta:ka:ka","Right","39","4","16","9","P","J","88"
"","","approach-retreat","237","2938946","0.0-237.0","","","3-4","4516","39","1","Testing","Stims/Figures/86-C-30-1.bmp","pa:pa:ka","Right","39","4","17","9","P","J","89"
"","","approach-retreat","238","2945723","0.0-238.0","","","3-4","5270","40","1","Testing","Stims/Figures/84-J-0-2.bmp","pa:pata","Up","40","4","18","9","P","J","90"
"","","approach-retreat","239","2968887","0.0-239.0","","","3-4","21654","37","1","Testing","Stims/Figures/128-J-10-3.bmp","va:sha:va","Right","37","4","19","9","C1","J","91"
"","","approach-retreat","240","2975425","0.0-240.0","","","3-4","5031","38","1","Testing","Stims/Figures/100-C-30-3.bmp","takata","Up","38","4","20","9","P","J","92"
"","","approach-retreat","241","2981845","0.0-241.0","","","3-4","4911","38","1","Testing","Stims/Figures/144-J-10-3.bmp","sasaza","Down","38","4","21","9","C2","J","93"
"","","approach-retreat","242","2988750","0.0-242.0","","","3-4","5397","38","1","Testing","Stims/Figures/7-C-20-4.bmp","mamala","Up","38","4","22","9","S","J","94"
"","","approach-retreat","243","2997127","0.0-243.0","","","3-4","6868","38","1","Testing","Stims/Figures/74-C-20-4.bmp","za:haza","Up","38","4","23","9","C2","J","95"
"","","approach-retreat","244","3004699","0.0-244.0","","","3-4","6064","38","1","Testing","Stims/Figures/57-J-0-1.bmp","tapa:ta","Down","38","4","24","9","P","J","96"
"136370","","survey-text","245","3141077","0.0-245.0","","{""Q0"":""10882018""}","","","","","","","","","","","","","","",""
