"rt","key_press","trial_type","trial_index","time_elapsed","internal_node_id","view_history","responses","Id","Rt","ResKeyCode","ResCorr","TrialType2","Image","Label","Location","CorrectResponse","Block","BlockTrial","Condition","LabelType","Subcondition","trialNum"
"2914497","32","text","0","2914504","0.0-0.0-0.0","","","","","","","","","","","","","","","","",""
"116419","","instructions","1","3030927","0.0-1.0","[{""page_index"":0,""viewing_time"":116416}]","","","","","","","","","","","","","","","",""
"65792","","survey-multi-choice","2","3096802","0.0-2.0","","{""Q0"":""Da"",""Q1"":""Ne"",""Q2"":""Ne"",""Q3"":""Ne"",""Q4"":""Da"",""Q5"":""Da""}","","","","","","","","","","","","","","",""
"","","bio","3","3108194","0.0-3.0","","{""age"":""19"",""gender"":""f"",""specify"":""""}","","","","","","","","","","","","","","",""
"","","approach-retreat","4","3140376","0.0-4.0","","","2-1","30663","37","1","Training","Stims/Figures/44-C-30-3.bmp","nala:na","Left","37","1","1","1","S","J","1"
"","","approach-retreat","5","3149678","0.0-5.0","","","2-1","7758","40","0","Training","Stims/Figures/139-C-20-2.bmp","nala:na","Up","38","1","2","1","S","J","2"
"","","approach-retreat","6","3159767","0.0-6.0","","","2-1","8548","37","0","Training","Stims/Figures/87-J-10-4.bmp","ta:ka:ta","Left","39","1","3","1","P","J","3"
"","","approach-retreat","7","3169385","0.0-7.0","","","2-1","8078","39","1","Training","Stims/Figures/102-J-10-4.bmp","ta:ka:ta","Left","39","1","4","1","P","J","4"
"","","approach-retreat","8","3180720","0.0-8.0","","","2-1","9800","40","0","Training","Stims/Figures/93-J-0-1.bmp","ta:ka:ta","Down","38","1","5","1","P","J","5"
"","","approach-retreat","9","3197863","0.0-9.0","","","2-1","15619","39","1","Training","Stims/Figures/57-C-30-1.bmp","nala:na","Right","39","1","6","1","S","J","6"
"","","approach-retreat","10","3217861","0.0-10.0","","","2-1","18464","40","1","Training","Stims/Figures/57-J-0-1.bmp","ta:ka:ta","Up","40","1","7","1","P","J","7"
"","","approach-retreat","11","3240800","0.0-11.0","","","2-1","21398","39","0","Training","Stims/Figures/44-J-10-3.bmp","ta:ka:ta","Right","37","1","8","1","P","J","8"
"","","approach-retreat","12","3247782","0.0-12.0","","","2-1","5447","37","0","Training","Stims/Figures/128-J-10-3.bmp","ta:ka:ta","Left","39","1","9","1","P","J","9"
"","","approach-retreat","13","3276795","0.0-13.0","","","2-1","27498","40","1","Training","Stims/Figures/84-C-20-2.bmp","nala:na","Down","40","1","10","1","S","J","10"
"","","approach-retreat","14","3285802","0.0-14.0","","","2-1","7469","38","0","Training","Stims/Figures/102-C-20-4.bmp","nala:na","Down","40","1","11","1","S","J","11"
"","","approach-retreat","15","3303744","0.0-15.0","","","2-1","16404","39","0","Training","Stims/Figures/139-J-0-2.bmp","ta:ka:ta","Right","37","1","12","1","P","J","12"
"","","approach-retreat","16","3313273","0.0-16.0","","","2-1","7996","38","1","Training","Stims/Figures/84-J-0-2.bmp","ta:ka:ta","Down","38","1","13","1","P","J","13"
"","","approach-retreat","17","3322556","0.0-17.0","","","2-1","7771","39","1","Training","Stims/Figures/128-C-30-3.bmp","nala:na","Right","39","1","14","1","S","J","14"
"","","approach-retreat","18","3330886","0.0-18.0","","","2-1","6790","40","0","Training","Stims/Figures/93-C-30-1.bmp","nala:na","Up","38","1","15","1","S","J","15"
"","","approach-retreat","19","3338757","0.0-19.0","","","2-1","6332","40","0","Training","Stims/Figures/87-C-20-4.bmp","nala:na","Up","38","1","16","1","S","J","16"
"","","approach-retreat","20","3353021","0.0-20.0","","","2-1","12731","37","1","Training","Stims/Figures/57-J-0-1.bmp","ta:ka:ta","Right","37","2","1","1","P","J","17"
"","","approach-retreat","21","3362455","0.0-21.0","","","2-1","7898","38","1","Training","Stims/Figures/57-C-30-1.bmp","nala:na","Up","38","2","2","1","S","J","18"
"","","approach-retreat","22","3372041","0.0-22.0","","","2-1","8052","39","1","Training","Stims/Figures/87-J-10-4.bmp","ta:ka:ta","Left","39","2","3","1","P","J","19"
"","","approach-retreat","23","3389591","0.0-23.0","","","2-1","16018","37","1","Training","Stims/Figures/93-J-0-1.bmp","ta:ka:ta","Right","37","2","4","1","P","J","20"
"","","approach-retreat","24","3405102","0.0-24.0","","","2-1","13982","38","1","Training","Stims/Figures/93-C-30-1.bmp","nala:na","Up","38","2","5","1","S","J","21"
"","","approach-retreat","25","3412379","0.0-25.0","","","2-1","5735","40","0","Training","Stims/Figures/84-C-20-2.bmp","nala:na","Up","38","2","6","1","S","J","22"
"","","approach-retreat","26","3422328","0.0-26.0","","","2-1","8414","39","1","Training","Stims/Figures/44-C-30-3.bmp","nala:na","Right","39","2","7","1","S","J","23"
"","","approach-retreat","27","3431889","0.0-27.0","","","2-1","8023","39","1","Training","Stims/Figures/102-C-20-4.bmp","nala:na","Right","39","2","8","1","S","J","24"
"","","approach-retreat","28","3442084","0.0-28.0","","","2-1","8646","40","0","Training","Stims/Figures/44-J-10-3.bmp","ta:ka:ta","Down","38","2","9","1","P","J","25"
"","","approach-retreat","29","3450571","0.0-29.0","","","2-1","6961","37","0","Training","Stims/Figures/84-J-0-2.bmp","ta:ka:ta","Left","39","2","10","1","P","J","26"
"","","approach-retreat","30","3457768","0.0-30.0","","","2-1","5654","40","0","Training","Stims/Figures/102-J-10-4.bmp","ta:ka:ta","Down","38","2","11","1","P","J","27"
"","","approach-retreat","31","3464195","0.0-31.0","","","2-1","4891","40","1","Training","Stims/Figures/139-C-20-2.bmp","nala:na","Down","40","2","12","1","S","J","28"
"","","approach-retreat","32","3478942","0.0-32.0","","","2-1","13205","40","0","Training","Stims/Figures/87-C-20-4.bmp","nala:na","Up","38","2","13","1","S","J","29"
"","","approach-retreat","33","3486457","0.0-33.0","","","2-1","5979","39","1","Training","Stims/Figures/139-J-0-2.bmp","ta:ka:ta","Left","39","2","14","1","P","J","30"
"","","approach-retreat","34","3496630","0.0-34.0","","","2-1","8633","39","1","Training","Stims/Figures/128-J-10-3.bmp","ta:ka:ta","Left","39","2","15","1","P","J","31"
"","","approach-retreat","35","3503062","0.0-35.0","","","2-1","4893","40","1","Training","Stims/Figures/128-C-30-3.bmp","nala:na","Down","40","2","16","1","S","J","32"
"","","approach-retreat","36","3508876","0.0-36.0","","","2-1","4279","40","1","Training","Stims/Figures/139-C-20-2.bmp","nala:na","Down","40","3","1","1","S","J","33"
"","","approach-retreat","37","3519658","0.0-37.0","","","2-1","9270","39","1","Training","Stims/Figures/87-J-10-4.bmp","ta:ka:ta","Left","39","3","2","1","P","J","34"
"","","approach-retreat","38","3525939","0.0-38.0","","","2-1","4738","37","1","Training","Stims/Figures/44-J-10-3.bmp","ta:ka:ta","Right","37","3","3","1","P","J","35"
"","","approach-retreat","39","3533153","0.0-39.0","","","2-1","5683","38","1","Training","Stims/Figures/93-C-30-1.bmp","nala:na","Up","38","3","4","1","S","J","36"
"","","approach-retreat","40","3540037","0.0-40.0","","","2-1","5352","38","1","Training","Stims/Figures/102-C-20-4.bmp","nala:na","Up","38","3","5","1","S","J","37"
"","","approach-retreat","41","3556304","0.0-41.0","","","2-1","14724","40","0","Training","Stims/Figures/128-J-10-3.bmp","ta:ka:ta","Down","38","3","6","1","P","J","38"
"","","approach-retreat","42","3563114","0.0-42.0","","","2-1","5270","39","1","Training","Stims/Figures/128-C-30-3.bmp","nala:na","Right","39","3","7","1","S","J","39"
"","","approach-retreat","43","3569794","0.0-43.0","","","2-1","5140","40","1","Training","Stims/Figures/139-J-0-2.bmp","ta:ka:ta","Up","40","3","8","1","P","J","40"
"","","approach-retreat","44","3585837","0.0-44.0","","","2-1","14529","37","1","Training","Stims/Figures/93-J-0-1.bmp","ta:ka:ta","Right","37","3","9","1","P","J","41"
"","","approach-retreat","45","3597343","0.0-45.0","","","2-1","9973","39","1","Training","Stims/Figures/102-J-10-4.bmp","ta:ka:ta","Left","39","3","10","1","P","J","42"
"","","approach-retreat","46","3603234","0.0-46.0","","","2-1","4352","39","0","Training","Stims/Figures/44-C-30-3.bmp","nala:na","Left","37","3","11","1","S","J","43"
"","","approach-retreat","47","3610504","0.0-47.0","","","2-1","5734","38","1","Training","Stims/Figures/84-C-20-2.bmp","nala:na","Up","38","3","12","1","S","J","44"
"","","approach-retreat","48","3630378","0.0-48.0","","","2-1","18334","37","0","Training","Stims/Figures/87-C-20-4.bmp","nala:na","Right","39","3","13","1","S","J","45"
"","","approach-retreat","49","3639321","0.0-49.0","","","2-1","7408","38","1","Training","Stims/Figures/57-J-0-1.bmp","ta:ka:ta","Down","38","3","14","1","P","J","46"
"","","approach-retreat","50","3645361","0.0-50.0","","","2-1","4510","38","1","Training","Stims/Figures/84-J-0-2.bmp","ta:ka:ta","Down","38","3","15","1","P","J","47"
"","","approach-retreat","51","3651593","0.0-51.0","","","2-1","4716","37","1","Training","Stims/Figures/57-C-30-1.bmp","nala:na","Left","37","3","16","1","S","J","48"
"","","approach-retreat","52","3658584","0.0-52.0","","","2-1","5454","39","1","Training","Stims/Figures/139-J-0-2.bmp","ta:ka:ta","Left","39","4","1","1","P","J","49"
"","","approach-retreat","53","3669421","0.0-53.0","","","2-1","9301","38","1","Training","Stims/Figures/128-J-10-3.bmp","ta:ka:ta","Down","38","4","2","1","P","J","50"
"","","approach-retreat","54","3678349","0.0-54.0","","","2-1","7397","38","1","Training","Stims/Figures/93-J-0-1.bmp","ta:ka:ta","Down","38","4","3","1","P","J","51"
"","","approach-retreat","55","3686140","0.0-55.0","","","2-1","6254","38","1","Training","Stims/Figures/84-C-20-2.bmp","nala:na","Up","38","4","4","1","S","J","52"
"","","approach-retreat","56","3692424","0.0-56.0","","","2-1","4747","37","1","Training","Stims/Figures/87-C-20-4.bmp","nala:na","Left","37","4","5","1","S","J","53"
"","","approach-retreat","57","3701204","0.0-57.0","","","2-1","7248","37","1","Training","Stims/Figures/102-J-10-4.bmp","ta:ka:ta","Right","37","4","6","1","P","J","54"
"","","approach-retreat","58","3707635","0.0-58.0","","","2-1","4895","39","0","Training","Stims/Figures/57-J-0-1.bmp","ta:ka:ta","Right","37","4","7","1","P","J","55"
"","","approach-retreat","59","3713424","0.0-59.0","","","2-1","4262","37","0","Training","Stims/Figures/102-C-20-4.bmp","nala:na","Right","39","4","8","1","S","J","56"
"","","approach-retreat","60","3719555","0.0-60.0","","","2-1","4593","37","1","Training","Stims/Figures/57-C-30-1.bmp","nala:na","Left","37","4","9","1","S","J","57"
"","","approach-retreat","61","3728658","0.0-61.0","","","2-1","7574","38","0","Training","Stims/Figures/87-J-10-4.bmp","ta:ka:ta","Up","40","4","10","1","P","J","58"
"","","approach-retreat","62","3735264","0.0-62.0","","","2-1","5068","38","1","Training","Stims/Figures/44-J-10-3.bmp","ta:ka:ta","Down","38","4","11","1","P","J","59"
"","","approach-retreat","63","3742905","0.0-63.0","","","2-1","6106","38","1","Training","Stims/Figures/128-C-30-3.bmp","nala:na","Up","38","4","12","1","S","J","60"
"","","approach-retreat","64","3750732","0.0-64.0","","","2-1","6291","40","0","Training","Stims/Figures/139-C-20-2.bmp","nala:na","Up","38","4","13","1","S","J","61"
"","","approach-retreat","65","3756908","0.0-65.0","","","2-1","4636","37","1","Training","Stims/Figures/93-C-30-1.bmp","nala:na","Left","37","4","14","1","S","J","62"
"","","approach-retreat","66","3762984","0.0-66.0","","","2-1","4538","38","1","Training","Stims/Figures/84-J-0-2.bmp","ta:ka:ta","Down","38","4","15","1","P","J","63"
"","","approach-retreat","67","3769829","0.0-67.0","","","2-1","5310","39","1","Training","Stims/Figures/44-C-30-3.bmp","nala:na","Right","39","4","16","1","S","J","64"
"","","approach-retreat","68","3775813","0.0-68.0","","","2-1","4451","39","1","Training","Stims/Figures/84-J-0-2.bmp","ta:ka:ta","Left","39","5","1","1","P","J","65"
"","","approach-retreat","69","3782147","0.0-69.0","","","2-1","4796","37","1","Training","Stims/Figures/139-C-20-2.bmp","nala:na","Left","37","5","2","1","S","J","66"
"","","approach-retreat","70","3788152","0.0-70.0","","","2-1","4471","37","1","Training","Stims/Figures/57-C-30-1.bmp","nala:na","Left","37","5","3","1","S","J","67"
"","","approach-retreat","71","3795094","0.0-71.0","","","2-1","5405","38","0","Training","Stims/Figures/102-C-20-4.bmp","nala:na","Down","40","5","4","1","S","J","68"
"","","approach-retreat","72","3801455","0.0-72.0","","","2-1","4829","37","1","Training","Stims/Figures/44-J-10-3.bmp","ta:ka:ta","Right","37","5","5","1","P","J","69"
"","","approach-retreat","73","3807487","0.0-73.0","","","2-1","4510","39","1","Training","Stims/Figures/102-J-10-4.bmp","ta:ka:ta","Left","39","5","6","1","P","J","70"
"","","approach-retreat","74","3813712","0.0-74.0","","","2-1","4713","37","1","Training","Stims/Figures/93-J-0-1.bmp","ta:ka:ta","Right","37","5","7","1","P","J","71"
"","","approach-retreat","75","3819845","0.0-75.0","","","2-1","4597","40","1","Training","Stims/Figures/84-C-20-2.bmp","nala:na","Down","40","5","8","1","S","J","72"
"","","approach-retreat","76","3829103","0.0-76.0","","","2-1","7717","40","0","Training","Stims/Figures/87-C-20-4.bmp","nala:na","Up","38","5","9","1","S","J","73"
"","","approach-retreat","77","3835142","0.0-77.0","","","2-1","4504","38","1","Training","Stims/Figures/128-J-10-3.bmp","ta:ka:ta","Down","38","5","10","1","P","J","74"
"","","approach-retreat","78","3841185","0.0-78.0","","","2-1","4515","38","1","Training","Stims/Figures/57-J-0-1.bmp","ta:ka:ta","Down","38","5","11","1","P","J","75"
"","","approach-retreat","79","3847445","0.0-79.0","","","2-1","4717","39","1","Training","Stims/Figures/44-C-30-3.bmp","nala:na","Right","39","5","12","1","S","J","76"
"","","approach-retreat","80","3854012","0.0-80.0","","","2-1","5024","39","0","Training","Stims/Figures/87-J-10-4.bmp","ta:ka:ta","Right","37","5","13","1","P","J","77"
"","","approach-retreat","81","3860650","0.0-81.0","","","2-1","5098","38","1","Training","Stims/Figures/93-C-30-1.bmp","nala:na","Up","38","5","14","1","S","J","78"
"","","approach-retreat","82","3870790","0.0-82.0","","","2-1","8601","38","1","Training","Stims/Figures/128-C-30-3.bmp","nala:na","Up","38","5","15","1","S","J","79"
"","","approach-retreat","83","3877127","0.0-83.0","","","2-1","4795","40","1","Training","Stims/Figures/139-J-0-2.bmp","ta:ka:ta","Up","40","5","16","1","P","J","80"
"","","approach-retreat","84","3882927","0.0-84.0","","","2-1","4261","40","1","Training","Stims/Figures/93-J-0-1.bmp","ta:ka:ta","Up","40","6","1","1","P","J","81"
"","","approach-retreat","85","3888678","0.0-85.0","","","2-1","4217","39","0","Training","Stims/Figures/128-J-10-3.bmp","ta:ka:ta","Right","37","6","2","1","P","J","82"
"","","approach-retreat","86","3894462","0.0-86.0","","","2-1","4245","37","1","Training","Stims/Figures/84-C-20-2.bmp","nala:na","Left","37","6","3","1","S","J","83"
"","","approach-retreat","87","3900342","0.0-87.0","","","2-1","4341","40","1","Training","Stims/Figures/102-J-10-4.bmp","ta:ka:ta","Up","40","6","4","1","P","J","84"
"","","approach-retreat","88","3906218","0.0-88.0","","","2-1","4340","37","1","Training","Stims/Figures/87-C-20-4.bmp","nala:na","Left","37","6","5","1","S","J","85"
"","","approach-retreat","89","3912456","0.0-89.0","","","2-1","4698","39","0","Training","Stims/Figures/139-C-20-2.bmp","nala:na","Left","37","6","6","1","S","J","86"
"","","approach-retreat","90","3918313","0.0-90.0","","","2-1","4326","40","1","Training","Stims/Figures/57-C-30-1.bmp","nala:na","Down","40","6","7","1","S","J","87"
"","","approach-retreat","91","3925893","0.0-91.0","","","2-1","6047","38","1","Training","Stims/Figures/93-C-30-1.bmp","nala:na","Up","38","6","8","1","S","J","88"
"","","approach-retreat","92","3931946","0.0-92.0","","","2-1","4516","38","1","Training","Stims/Figures/139-J-0-2.bmp","ta:ka:ta","Down","38","6","9","1","P","J","89"
"","","approach-retreat","93","3938453","0.0-93.0","","","2-1","4973","38","1","Training","Stims/Figures/44-C-30-3.bmp","nala:na","Up","38","6","10","1","S","J","90"
"","","approach-retreat","94","3945183","0.0-94.0","","","2-1","5195","38","0","Training","Stims/Figures/128-C-30-3.bmp","nala:na","Down","40","6","11","1","S","J","91"
"","","approach-retreat","95","3952476","0.0-95.0","","","2-1","5756","40","0","Training","Stims/Figures/87-J-10-4.bmp","ta:ka:ta","Down","38","6","12","1","P","J","92"
"","","approach-retreat","96","3958804","0.0-96.0","","","2-1","4804","37","0","Training","Stims/Figures/102-C-20-4.bmp","nala:na","Right","39","6","13","1","S","J","93"
"","","approach-retreat","97","3964982","0.0-97.0","","","2-1","4641","37","1","Training","Stims/Figures/57-J-0-1.bmp","ta:ka:ta","Right","37","6","14","1","P","J","94"
"","","approach-retreat","98","3970646","0.0-98.0","","","2-1","4133","37","1","Training","Stims/Figures/44-J-10-3.bmp","ta:ka:ta","Right","37","6","15","1","P","J","95"
"","","approach-retreat","99","3976860","0.0-99.0","","","2-1","4678","39","1","Training","Stims/Figures/84-J-0-2.bmp","ta:ka:ta","Left","39","6","16","1","P","J","96"
"","","approach-retreat","100","3982853","0.0-100.0","","","2-1","4463","40","1","Training","Stims/Figures/57-J-0-1.bmp","ta:ka:ta","Up","40","7","1","1","P","J","97"
"","","approach-retreat","101","3991309","0.0-101.0","","","2-1","6914","39","0","Training","Stims/Figures/93-C-30-1.bmp","nala:na","Left","37","7","2","1","S","J","98"
"","","approach-retreat","102","3997531","0.0-102.0","","","2-1","4684","40","1","Training","Stims/Figures/57-C-30-1.bmp","nala:na","Down","40","7","3","1","S","J","99"
"","","approach-retreat","103","4019968","0.0-103.0","","","2-1","20902","39","0","Training","Stims/Figures/102-J-10-4.bmp","ta:ka:ta","Right","37","7","4","1","P","J","100"
"","","approach-retreat","104","4027225","0.0-104.0","","","2-1","5717","38","1","Training","Stims/Figures/128-J-10-3.bmp","ta:ka:ta","Down","38","7","5","1","P","J","101"
"","","approach-retreat","105","4033132","0.0-105.0","","","2-1","4372","39","1","Training","Stims/Figures/87-J-10-4.bmp","ta:ka:ta","Left","39","7","6","1","P","J","102"
"","","approach-retreat","106","4040027","0.0-106.0","","","2-1","5358","38","1","Training","Stims/Figures/93-J-0-1.bmp","ta:ka:ta","Down","38","7","7","1","P","J","103"
"","","approach-retreat","107","4048628","0.0-107.0","","","2-1","7061","37","1","Training","Stims/Figures/44-J-10-3.bmp","ta:ka:ta","Right","37","7","8","1","P","J","104"
"","","approach-retreat","108","4059400","0.0-108.0","","","2-1","9232","37","1","Training","Stims/Figures/139-C-20-2.bmp","nala:na","Left","37","7","9","1","S","J","105"
"","","approach-retreat","109","4065779","0.0-109.0","","","2-1","4842","38","1","Training","Stims/Figures/84-C-20-2.bmp","nala:na","Up","38","7","10","1","S","J","106"
"","","approach-retreat","110","4073790","0.0-110.0","","","2-1","6472","40","1","Training","Stims/Figures/128-C-30-3.bmp","nala:na","Down","40","7","11","1","S","J","107"
"","","approach-retreat","111","4079443","0.0-111.0","","","2-1","4118","38","0","Training","Stims/Figures/139-J-0-2.bmp","ta:ka:ta","Up","40","7","12","1","P","J","108"
"","","approach-retreat","112","4086370","0.0-112.0","","","2-1","5391","37","1","Training","Stims/Figures/44-C-30-3.bmp","nala:na","Left","37","7","13","1","S","J","109"
"","","approach-retreat","113","4095131","0.0-113.0","","","2-1","7224","38","1","Training","Stims/Figures/87-C-20-4.bmp","nala:na","Up","38","7","14","1","S","J","110"
"","","approach-retreat","114","4102359","0.0-114.0","","","2-1","5686","39","1","Training","Stims/Figures/102-C-20-4.bmp","nala:na","Right","39","7","15","1","S","J","111"
"","","approach-retreat","115","4108067","0.0-115.0","","","2-1","4168","37","1","Training","Stims/Figures/84-J-0-2.bmp","ta:ka:ta","Right","37","7","16","1","P","J","112"
"","","approach-retreat","116","4114281","0.0-116.0","","","2-1","4678","40","1","Training","Stims/Figures/44-C-30-3.bmp","nala:na","Down","40","8","1","1","S","J","113"
"","","approach-retreat","117","4120473","0.0-117.0","","","2-1","4660","38","1","Training","Stims/Figures/87-C-20-4.bmp","nala:na","Up","38","8","2","1","S","J","114"
"","","approach-retreat","118","4126403","0.0-118.0","","","2-1","4397","40","1","Training","Stims/Figures/128-J-10-3.bmp","ta:ka:ta","Up","40","8","3","1","P","J","115"
"","","approach-retreat","119","4132834","0.0-119.0","","","2-1","4908","39","1","Training","Stims/Figures/84-J-0-2.bmp","ta:ka:ta","Left","39","8","4","1","P","J","116"
"","","approach-retreat","120","4140159","0.0-120.0","","","2-1","5785","39","1","Training","Stims/Figures/93-C-30-1.bmp","nala:na","Right","39","8","5","1","S","J","117"
"","","approach-retreat","121","4146021","0.0-121.0","","","2-1","4329","37","1","Training","Stims/Figures/139-C-20-2.bmp","nala:na","Left","37","8","6","1","S","J","118"
"","","approach-retreat","122","4151979","0.0-122.0","","","2-1","4424","39","1","Training","Stims/Figures/128-C-30-3.bmp","nala:na","Right","39","8","7","1","S","J","119"
"","","approach-retreat","123","4157798","0.0-123.0","","","2-1","4286","40","1","Training","Stims/Figures/87-J-10-4.bmp","ta:ka:ta","Up","40","8","8","1","P","J","120"
"","","approach-retreat","124","4164568","0.0-124.0","","","2-1","5233","38","1","Training","Stims/Figures/57-J-0-1.bmp","ta:ka:ta","Down","38","8","9","1","P","J","121"
"","","approach-retreat","125","4170673","0.0-125.0","","","2-1","4592","40","1","Training","Stims/Figures/102-C-20-4.bmp","nala:na","Down","40","8","10","1","S","J","122"
"","","approach-retreat","126","4177696","0.0-126.0","","","2-1","5486","39","1","Training","Stims/Figures/139-J-0-2.bmp","ta:ka:ta","Left","39","8","11","1","P","J","123"
"","","approach-retreat","127","4183636","0.0-127.0","","","2-1","4407","38","1","Training","Stims/Figures/93-J-0-1.bmp","ta:ka:ta","Down","38","8","12","1","P","J","124"
"","","approach-retreat","128","4189398","0.0-128.0","","","2-1","4224","37","1","Training","Stims/Figures/44-J-10-3.bmp","ta:ka:ta","Right","37","8","13","1","P","J","125"
"","","approach-retreat","129","4197085","0.0-129.0","","","2-1","6149","40","0","Training","Stims/Figures/57-C-30-1.bmp","nala:na","Up","38","8","14","1","S","J","126"
"","","approach-retreat","130","4203933","0.0-130.0","","","2-1","5312","39","1","Training","Stims/Figures/102-J-10-4.bmp","ta:ka:ta","Left","39","8","15","1","P","J","127"
"","","approach-retreat","131","4209882","0.0-131.0","","","2-1","4417","39","1","Training","Stims/Figures/84-C-20-2.bmp","nala:na","Right","39","8","16","1","S","J","128"
"","","approach-retreat","132","4216103","0.0-132.0","","","2-1","4684","39","1","Training","Stims/Figures/57-C-30-1.bmp","nala:na","Right","39","9","1","1","S","J","129"
"","","approach-retreat","133","4222274","0.0-133.0","","","2-1","4634","40","1","Training","Stims/Figures/93-C-30-1.bmp","nala:na","Down","40","9","2","1","S","J","130"
"","","approach-retreat","134","4228150","0.0-134.0","","","2-1","4336","38","1","Training","Stims/Figures/44-C-30-3.bmp","nala:na","Up","38","9","3","1","S","J","131"
"","","approach-retreat","135","4233777","0.0-135.0","","","2-1","4091","39","1","Training","Stims/Figures/93-J-0-1.bmp","ta:ka:ta","Left","39","9","4","1","P","J","132"
"","","approach-retreat","136","4240140","0.0-136.0","","","2-1","4825","39","1","Training","Stims/Figures/87-J-10-4.bmp","ta:ka:ta","Left","39","9","5","1","P","J","133"
"","","approach-retreat","137","4246008","0.0-137.0","","","2-1","4328","37","1","Training","Stims/Figures/87-C-20-4.bmp","nala:na","Left","37","9","6","1","S","J","134"
"","","approach-retreat","138","4252187","0.0-138.0","","","2-1","4639","39","1","Training","Stims/Figures/139-C-20-2.bmp","nala:na","Right","39","9","7","1","S","J","135"
"","","approach-retreat","139","4258805","0.0-139.0","","","2-1","5079","37","1","Training","Stims/Figures/102-J-10-4.bmp","ta:ka:ta","Right","37","9","8","1","P","J","136"
"","","approach-retreat","140","4264720","0.0-140.0","","","2-1","4384","37","1","Training","Stims/Figures/84-J-0-2.bmp","ta:ka:ta","Right","37","9","9","1","P","J","137"
"","","approach-retreat","141","4270634","0.0-141.0","","","2-1","4377","40","1","Training","Stims/Figures/84-C-20-2.bmp","nala:na","Down","40","9","10","1","S","J","138"
"","","approach-retreat","142","4276730","0.0-142.0","","","2-1","4555","38","1","Training","Stims/Figures/44-J-10-3.bmp","ta:ka:ta","Down","38","9","11","1","P","J","139"
"","","approach-retreat","143","4282620","0.0-143.0","","","2-1","4350","40","1","Training","Stims/Figures/128-J-10-3.bmp","ta:ka:ta","Up","40","9","12","1","P","J","140"
"","","approach-retreat","144","4288813","0.0-144.0","","","2-1","4657","38","0","Training","Stims/Figures/102-C-20-4.bmp","nala:na","Down","40","9","13","1","S","J","141"
"","","approach-retreat","145","4294539","0.0-145.0","","","2-1","4198","40","1","Training","Stims/Figures/139-J-0-2.bmp","ta:ka:ta","Up","40","9","14","1","P","J","142"
"","","approach-retreat","146","4300427","0.0-146.0","","","2-1","4370","37","1","Training","Stims/Figures/128-C-30-3.bmp","nala:na","Left","37","9","15","1","S","J","143"
"","","approach-retreat","147","4306267","0.0-147.0","","","2-1","4307","40","1","Training","Stims/Figures/57-J-0-1.bmp","ta:ka:ta","Up","40","9","16","1","P","J","144"
"97647","","instructions","148","4403917","0.0-148.0","[{""page_index"":0,""viewing_time"":97646}]","","","","","","","","","","","","","","","",""
"","","approach-retreat","149","4465021","0.0-149.0","","","2-1","59578","38","1","Testing","Stims/Figures/93-C-30-1.bmp","nala:na","Up","38","1","1","1","S","J","1"
"","","approach-retreat","150","4507346","0.0-150.0","","","2-1","40796","40","1","Testing","Stims/Figures/44-C-30-3.bmp","nala:na","Down","40","1","2","1","S","J","2"
"","","approach-retreat","151","4533338","0.0-151.0","","","2-1","24462","39","1","Testing","Stims/Figures/7-C-20-4.bmp","nala:na","Right","39","1","3","1","S","J","3"
"","","approach-retreat","152","4541899","0.0-152.0","","","2-1","7028","40","0","Testing","Stims/Figures/102-C-20-4.bmp","nala:na","Up","38","1","4","1","S","J","4"
"","","approach-retreat","153","4549049","0.0-153.0","","","2-1","5616","40","1","Testing","Stims/Figures/57-C-30-1.bmp","nala:na","Down","40","1","5","1","S","J","5"
"","","approach-retreat","154","4555595","0.0-154.0","","","2-1","5017","38","1","Testing","Stims/Figures/57-J-0-1.bmp","ta:ka:ta","Down","38","1","6","1","P","J","6"
"","","approach-retreat","155","4563245","0.0-155.0","","","2-1","6134","39","1","Testing","Stims/Figures/102-J-10-4.bmp","ta:ka:ta","Left","39","1","7","1","P","J","7"
"","","approach-retreat","156","4570994","0.0-156.0","","","2-1","6218","38","1","Testing","Stims/Figures/128-C-30-3.bmp","nala:na","Up","38","1","8","1","S","J","8"
"","","approach-retreat","157","4582370","0.0-157.0","","","2-1","9844","37","0","Testing","Stims/Figures/7-J-10-4.bmp","ta:ka:ta","Left","39","1","9","1","P","J","9"
"","","approach-retreat","158","4605458","0.0-158.0","","","2-1","21554","37","1","Testing","Stims/Figures/71-C-30-1.bmp","nala:na","Left","37","1","10","1","S","J","10"
"","","approach-retreat","159","4612158","0.0-159.0","","","2-1","5174","40","1","Testing","Stims/Figures/84-J-0-2.bmp","ta:ka:ta","Up","40","1","11","1","P","J","11"
"","","approach-retreat","160","4631997","0.0-160.0","","","2-1","18309","38","1","Testing","Stims/Figures/44-J-10-3.bmp","ta:ka:ta","Down","38","1","12","1","P","J","12"
"","","approach-retreat","161","4640404","0.0-161.0","","","2-1","6879","40","0","Testing","Stims/Figures/139-C-20-2.bmp","nala:na","Up","38","1","13","1","S","J","13"
"","","approach-retreat","162","4646778","0.0-162.0","","","2-1","4847","40","1","Testing","Stims/Figures/93-J-0-1.bmp","ta:ka:ta","Up","40","1","14","1","P","J","14"
"","","approach-retreat","163","4677238","0.0-163.0","","","2-1","28928","37","1","Testing","Stims/Figures/144-J-10-3.bmp","ta:ka:ta","Right","37","1","15","1","P","J","15"
"","","approach-retreat","164","4693531","0.0-164.0","","","2-1","14764","37","0","Testing","Stims/Figures/128-J-10-3.bmp","ta:ka:ta","Left","39","1","16","1","P","J","16"
"","","approach-retreat","165","4707036","0.0-165.0","","","2-1","11972","37","1","Testing","Stims/Figures/118-C-20-2.bmp","nala:na","Left","37","1","17","1","S","J","17"
"","","approach-retreat","166","4719529","0.0-166.0","","","2-1","10967","39","1","Testing","Stims/Figures/87-C-20-4.bmp","nala:na","Right","39","1","18","1","S","J","18"
"","","approach-retreat","167","4726165","0.0-167.0","","","2-1","5079","37","1","Testing","Stims/Figures/87-J-10-4.bmp","ta:ka:ta","Right","37","1","19","1","P","J","19"
"","","approach-retreat","168","4736706","0.0-168.0","","","2-1","9008","37","1","Testing","Stims/Figures/144-C-30-3.bmp","nala:na","Left","37","1","20","1","S","J","20"
"","","approach-retreat","169","4742911","0.0-169.0","","","2-1","4673","37","1","Testing","Stims/Figures/139-J-0-2.bmp","ta:ka:ta","Right","37","1","21","1","P","J","21"
"","","approach-retreat","170","4749806","0.0-170.0","","","2-1","5366","38","1","Testing","Stims/Figures/71-J-0-1.bmp","ta:ka:ta","Down","38","1","22","1","P","J","22"
"","","approach-retreat","171","4761459","0.0-171.0","","","2-1","10123","37","0","Testing","Stims/Figures/84-C-20-2.bmp","nala:na","Right","39","1","23","1","S","J","23"
"","","approach-retreat","172","4769795","0.0-172.0","","","2-1","6792","38","1","Testing","Stims/Figures/118-J-0-2.bmp","ta:ka:ta","Down","38","1","24","1","P","J","24"
"","","approach-retreat","173","4777438","0.0-173.0","","","2-1","6112","40","0","Testing","Stims/Figures/144-J-10-3.bmp","ta:ka:ta","Down","38","2","1","1","P","J","25"
"","","approach-retreat","174","4783539","0.0-174.0","","","2-1","4571","39","1","Testing","Stims/Figures/139-J-0-2.bmp","ta:ka:ta","Left","39","2","2","1","P","J","26"
"","","approach-retreat","175","4796596","0.0-175.0","","","2-1","11525","38","0","Testing","Stims/Figures/87-C-20-4.bmp","nala:na","Down","40","2","3","1","S","J","27"
"","","approach-retreat","176","4823766","0.0-176.0","","","2-1","25637","38","1","Testing","Stims/Figures/84-J-0-2.bmp","ta:ka:ta","Down","38","2","4","1","P","J","28"
"","","approach-retreat","177","4830626","0.0-177.0","","","2-1","5330","38","1","Testing","Stims/Figures/7-C-20-4.bmp","nala:na","Up","38","2","5","1","S","J","29"
"","","approach-retreat","178","4837126","0.0-178.0","","","2-1","4972","40","1","Testing","Stims/Figures/118-C-20-2.bmp","nala:na","Down","40","2","6","1","S","J","30"
"","","approach-retreat","179","4850086","0.0-179.0","","","2-1","11430","38","1","Testing","Stims/Figures/144-C-30-3.bmp","nala:na","Up","38","2","7","1","S","J","31"
"","","approach-retreat","180","4858390","0.0-180.0","","","2-1","6774","39","1","Testing","Stims/Figures/128-C-30-3.bmp","nala:na","Right","39","2","8","1","S","J","32"
"","","approach-retreat","181","4866814","0.0-181.0","","","2-1","6898","37","0","Testing","Stims/Figures/139-C-20-2.bmp","nala:na","Right","39","2","9","1","S","J","33"
"","","approach-retreat","182","4874198","0.0-182.0","","","2-1","5857","40","1","Testing","Stims/Figures/102-J-10-4.bmp","ta:ka:ta","Up","40","2","10","1","P","J","34"
"","","approach-retreat","183","4895667","0.0-183.0","","","2-1","19938","39","1","Testing","Stims/Figures/44-J-10-3.bmp","ta:ka:ta","Left","39","2","11","1","P","J","35"
"","","approach-retreat","184","4903013","0.0-184.0","","","2-1","5816","38","1","Testing","Stims/Figures/71-C-30-1.bmp","nala:na","Up","38","2","12","1","S","J","36"
"","","approach-retreat","185","4910321","0.0-185.0","","","2-1","5778","37","1","Testing","Stims/Figures/44-C-30-3.bmp","nala:na","Left","37","2","13","1","S","J","37"
"","","approach-retreat","186","4918792","0.0-186.0","","","2-1","6939","37","1","Testing","Stims/Figures/57-C-30-1.bmp","nala:na","Left","37","2","14","1","S","J","38"
"","","approach-retreat","187","4933896","0.0-187.0","","","2-1","13574","37","0","Testing","Stims/Figures/87-J-10-4.bmp","ta:ka:ta","Left","39","2","15","1","P","J","39"
"","","approach-retreat","188","4940395","0.0-188.0","","","2-1","4973","37","1","Testing","Stims/Figures/71-J-0-1.bmp","ta:ka:ta","Right","37","2","16","1","P","J","40"
"","","approach-retreat","189","4946537","0.0-189.0","","","2-1","4612","37","1","Testing","Stims/Figures/93-J-0-1.bmp","ta:ka:ta","Right","37","2","17","1","P","J","41"
"","","approach-retreat","190","4952680","0.0-190.0","","","2-1","4624","39","1","Testing","Stims/Figures/93-C-30-1.bmp","nala:na","Right","39","2","18","1","S","J","42"
"","","approach-retreat","191","4959204","0.0-191.0","","","2-1","4994","39","1","Testing","Stims/Figures/84-C-20-2.bmp","nala:na","Right","39","2","19","1","S","J","43"
"","","approach-retreat","192","4972435","0.0-192.0","","","2-1","11696","38","0","Testing","Stims/Figures/102-C-20-4.bmp","nala:na","Down","40","2","20","1","S","J","44"
"","","approach-retreat","193","4982624","0.0-193.0","","","2-1","8659","39","1","Testing","Stims/Figures/118-J-0-2.bmp","ta:ka:ta","Left","39","2","21","1","P","J","45"
"","","approach-retreat","194","4990860","0.0-194.0","","","2-1","6705","38","1","Testing","Stims/Figures/57-J-0-1.bmp","ta:ka:ta","Down","38","2","22","1","P","J","46"
"","","approach-retreat","195","4997376","0.0-195.0","","","2-1","4984","38","0","Testing","Stims/Figures/7-J-10-4.bmp","ta:ka:ta","Up","40","2","23","1","P","J","47"
"","","approach-retreat","196","5009196","0.0-196.0","","","2-1","10291","38","0","Testing","Stims/Figures/128-J-10-3.bmp","ta:ka:ta","Up","40","2","24","1","P","J","48"
"","","approach-retreat","197","5019896","0.0-197.0","","","2-1","9168","40","0","Testing","Stims/Figures/44-C-30-3.bmp","nala:na","Up","38","3","1","1","S","J","49"
"","","approach-retreat","198","5026225","0.0-198.0","","","2-1","4797","40","0","Testing","Stims/Figures/102-C-20-4.bmp","nala:na","Up","38","3","2","1","S","J","50"
"","","approach-retreat","199","5033095","0.0-199.0","","","2-1","5339","40","0","Testing","Stims/Figures/128-J-10-3.bmp","ta:ka:ta","Down","38","3","3","1","P","J","51"
"","","approach-retreat","200","5039773","0.0-200.0","","","2-1","5149","37","1","Testing","Stims/Figures/93-C-30-1.bmp","nala:na","Left","37","3","4","1","S","J","52"
"","","approach-retreat","201","5062836","0.0-201.0","","","2-1","21530","38","1","Testing","Stims/Figures/84-C-20-2.bmp","nala:na","Up","38","3","5","1","S","J","53"
"","","approach-retreat","202","5069290","0.0-202.0","","","2-1","4926","38","1","Testing","Stims/Figures/118-J-0-2.bmp","ta:ka:ta","Down","38","3","6","1","P","J","54"
"","","approach-retreat","203","5081017","0.0-203.0","","","2-1","10195","38","1","Testing","Stims/Figures/71-J-0-1.bmp","ta:ka:ta","Down","38","3","7","1","P","J","55"
"","","approach-retreat","204","5089005","0.0-204.0","","","2-1","6476","40","0","Testing","Stims/Figures/144-J-10-3.bmp","ta:ka:ta","Down","38","3","8","1","P","J","56"
"","","approach-retreat","205","5096741","0.0-205.0","","","2-1","6214","39","1","Testing","Stims/Figures/84-J-0-2.bmp","ta:ka:ta","Left","39","3","9","1","P","J","57"
"","","approach-retreat","206","5109594","0.0-206.0","","","2-1","11322","37","0","Testing","Stims/Figures/44-J-10-3.bmp","ta:ka:ta","Left","39","3","10","1","P","J","58"
"","","approach-retreat","207","5116953","0.0-207.0","","","2-1","5828","40","0","Testing","Stims/Figures/87-J-10-4.bmp","ta:ka:ta","Down","38","3","11","1","P","J","59"
"","","approach-retreat","208","5125486","0.0-208.0","","","2-1","7001","39","1","Testing","Stims/Figures/87-C-20-4.bmp","nala:na","Right","39","3","12","1","S","J","60"
"","","approach-retreat","209","5131178","0.0-209.0","","","2-1","4158","40","1","Testing","Stims/Figures/118-C-20-2.bmp","nala:na","Down","40","3","13","1","S","J","61"
"","","approach-retreat","210","5138608","0.0-210.0","","","2-1","5899","39","1","Testing","Stims/Figures/128-C-30-3.bmp","nala:na","Right","39","3","14","1","S","J","62"
"","","approach-retreat","211","5146148","0.0-211.0","","","2-1","6011","39","0","Testing","Stims/Figures/7-J-10-4.bmp","ta:ka:ta","Right","37","3","15","1","P","J","63"
"","","approach-retreat","212","5156998","0.0-212.0","","","2-1","9339","37","1","Testing","Stims/Figures/7-C-20-4.bmp","nala:na","Left","37","3","16","1","S","J","64"
"","","approach-retreat","213","5163220","0.0-213.0","","","2-1","4694","37","0","Testing","Stims/Figures/71-C-30-1.bmp","nala:na","Right","39","3","17","1","S","J","65"
"","","approach-retreat","214","5173458","0.0-214.0","","","2-1","8708","39","1","Testing","Stims/Figures/144-C-30-3.bmp","nala:na","Right","39","3","18","1","S","J","66"
"","","approach-retreat","215","5179641","0.0-215.0","","","2-1","4652","39","0","Testing","Stims/Figures/139-C-20-2.bmp","nala:na","Left","37","3","19","1","S","J","67"
"","","approach-retreat","216","5185654","0.0-216.0","","","2-1","4483","40","1","Testing","Stims/Figures/57-J-0-1.bmp","ta:ka:ta","Up","40","3","20","1","P","J","68"
"","","approach-retreat","217","5198355","0.0-217.0","","","2-1","11174","38","1","Testing","Stims/Figures/57-C-30-1.bmp","nala:na","Up","38","3","21","1","S","J","69"
"","","approach-retreat","218","5204078","0.0-218.0","","","2-1","4194","40","1","Testing","Stims/Figures/93-J-0-1.bmp","ta:ka:ta","Up","40","3","22","1","P","J","70"
"","","approach-retreat","219","5216957","0.0-219.0","","","2-1","11348","37","1","Testing","Stims/Figures/102-J-10-4.bmp","ta:ka:ta","Right","37","3","23","1","P","J","71"
"","","approach-retreat","220","5222779","0.0-220.0","","","2-1","4291","39","1","Testing","Stims/Figures/139-J-0-2.bmp","ta:ka:ta","Left","39","3","24","1","P","J","72"
"","","approach-retreat","221","5228684","0.0-221.0","","","2-1","4376","38","1","Testing","Stims/Figures/57-J-0-1.bmp","ta:ka:ta","Down","38","4","1","1","P","J","73"
"","","approach-retreat","222","5234452","0.0-222.0","","","2-1","4237","39","1","Testing","Stims/Figures/93-J-0-1.bmp","ta:ka:ta","Left","39","4","2","1","P","J","74"
"","","approach-retreat","223","5241612","0.0-223.0","","","2-1","5631","37","0","Testing","Stims/Figures/87-J-10-4.bmp","ta:ka:ta","Left","39","4","3","1","P","J","75"
"","","approach-retreat","224","5247468","0.0-224.0","","","2-1","4325","39","1","Testing","Stims/Figures/128-J-10-3.bmp","ta:ka:ta","Left","39","4","4","1","P","J","76"
"","","approach-retreat","225","5255087","0.0-225.0","","","2-1","6087","40","1","Testing","Stims/Figures/128-C-30-3.bmp","nala:na","Down","40","4","5","1","S","J","77"
"","","approach-retreat","226","5262057","0.0-226.0","","","2-1","5439","39","1","Testing","Stims/Figures/118-C-20-2.bmp","nala:na","Right","39","4","6","1","S","J","78"
"","","approach-retreat","227","5268350","0.0-227.0","","","2-1","4763","39","0","Testing","Stims/Figures/7-J-10-4.bmp","ta:ka:ta","Right","37","4","7","1","P","J","79"
"","","approach-retreat","228","5274062","0.0-228.0","","","2-1","4181","39","1","Testing","Stims/Figures/84-C-20-2.bmp","nala:na","Right","39","4","8","1","S","J","80"
"","","approach-retreat","229","5282596","0.0-229.0","","","2-1","7004","38","1","Testing","Stims/Figures/7-C-20-4.bmp","nala:na","Up","38","4","9","1","S","J","81"
"","","approach-retreat","230","5290284","0.0-230.0","","","2-1","6158","38","1","Testing","Stims/Figures/139-J-0-2.bmp","ta:ka:ta","Down","38","4","10","1","P","J","82"
"","","approach-retreat","231","5298571","0.0-231.0","","","2-1","6757","40","0","Testing","Stims/Figures/44-J-10-3.bmp","ta:ka:ta","Down","38","4","11","1","P","J","83"
"","","approach-retreat","232","5304521","0.0-232.0","","","2-1","4419","37","1","Testing","Stims/Figures/87-C-20-4.bmp","nala:na","Left","37","4","12","1","S","J","84"
"","","approach-retreat","233","5311190","0.0-233.0","","","2-1","5135","39","1","Testing","Stims/Figures/102-C-20-4.bmp","nala:na","Right","39","4","13","1","S","J","85"
"","","approach-retreat","234","5319591","0.0-234.0","","","2-1","6890","40","1","Testing","Stims/Figures/71-J-0-1.bmp","ta:ka:ta","Up","40","4","14","1","P","J","86"
"","","approach-retreat","235","5326460","0.0-235.0","","","2-1","5338","39","1","Testing","Stims/Figures/118-J-0-2.bmp","ta:ka:ta","Left","39","4","15","1","P","J","87"
"","","approach-retreat","236","5332479","0.0-236.0","","","2-1","4489","38","0","Testing","Stims/Figures/144-J-10-3.bmp","ta:ka:ta","Up","40","4","16","1","P","J","88"
"","","approach-retreat","237","5338530","0.0-237.0","","","2-1","4519","37","1","Testing","Stims/Figures/84-J-0-2.bmp","ta:ka:ta","Right","37","4","17","1","P","J","89"
"","","approach-retreat","238","5348906","0.0-238.0","","","2-1","8845","40","1","Testing","Stims/Figures/93-C-30-1.bmp","nala:na","Down","40","4","18","1","S","J","90"
"","","approach-retreat","239","5355046","0.0-239.0","","","2-1","4607","37","1","Testing","Stims/Figures/44-C-30-3.bmp","nala:na","Left","37","4","19","1","S","J","91"
"","","approach-retreat","240","5360963","0.0-240.0","","","2-1","4385","38","1","Testing","Stims/Figures/144-C-30-3.bmp","nala:na","Up","38","4","20","1","S","J","92"
"","","approach-retreat","241","5369026","0.0-241.0","","","2-1","6529","38","0","Testing","Stims/Figures/102-J-10-4.bmp","ta:ka:ta","Up","40","4","21","1","P","J","93"
"","","approach-retreat","242","5375611","0.0-242.0","","","2-1","5055","38","1","Testing","Stims/Figures/57-C-30-1.bmp","nala:na","Up","38","4","22","1","S","J","94"
"","","approach-retreat","243","5383031","0.0-243.0","","","2-1","5888","39","1","Testing","Stims/Figures/71-C-30-1.bmp","nala:na","Right","39","4","23","1","S","J","95"
"","","approach-retreat","244","5390650","0.0-244.0","","","2-1","6089","40","1","Testing","Stims/Figures/139-C-20-2.bmp","nala:na","Down","40","4","24","1","S","J","96"
"123543","","survey-text","245","5514210","0.0-245.0","","{""Q0"":""1116/2018""}","","","","","","","","","","","","","","",""
