"rt","key_press","trial_type","trial_index","time_elapsed","internal_node_id","view_history","responses","Id","Rt","ResKeyCode","ResCorr","TrialType2","Image","Label","Location","CorrectResponse","Block","BlockTrial","Condition","LabelType","Subcondition","trialNum"
"31920","32","text","0","31923","0.0-0.0-0.0","","","","","","","","","","","","","","","","",""
"176161","","instructions","1","208085","0.0-1.0","[{""page_index"":0,""viewing_time"":176160}]","","","","","","","","","","","","","","","",""
"150616","","survey-multi-choice","2","358728","0.0-2.0","","{""Q0"":""Da"",""Q1"":""Da"",""Q2"":""Da"",""Q3"":""Da"",""Q4"":""Da"",""Q5"":""Da""}","","","","","","","","","","","","","","",""
"","","bio","3","376616","0.0-3.0","","{""age"":""19"",""gender"":""f"",""specify"":""""}","","","","","","","","","","","","","","",""
"","","approach-retreat","4","411315","0.0-4.0","","","2-2","33184","37","1","Training","Stims/Figures/71-J-0-1.bmp","fasha:sha","Left","37","1","1","3A","C1","C","1"
"","","approach-retreat","5","418985","0.0-5.0","","","2-2","6161","40","1","Training","Stims/Figures/118-J-0-2.bmp","fasha:sha","Down","40","1","2","3A","C1","C","2"
"","","approach-retreat","6","426806","0.0-6.0","","","2-2","6310","37","1","Training","Stims/Figures/94-C-20-2.bmp","saha:ha","Right","37","1","3","3A","C2","C","3"
"","","approach-retreat","7","435116","0.0-7.0","","","2-2","6802","37","1","Training","Stims/Figures/144-C-30-3.bmp","saha:ha","Right","37","1","4","3A","C2","C","4"
"","","approach-retreat","8","442114","0.0-8.0","","","2-2","5489","40","1","Training","Stims/Figures/87-C-20-4.bmp","saha:ha","Up","40","1","5","3A","C2","C","5"
"","","approach-retreat","9","448295","0.0-9.0","","","2-2","4674","37","1","Training","Stims/Figures/128-J-10-3.bmp","fasha:sha","Left","37","1","6","3A","C1","C","6"
"","","approach-retreat","10","454735","0.0-10.0","","","2-2","4933","40","1","Training","Stims/Figures/144-J-10-3.bmp","fasha:sha","Down","40","1","7","3A","C1","C","7"
"","","approach-retreat","11","460654","0.0-11.0","","","2-2","4414","39","1","Training","Stims/Figures/87-J-10-4.bmp","fasha:sha","Right","39","1","8","3A","C1","C","8"
"","","approach-retreat","12","466486","0.0-12.0","","","2-2","4326","38","1","Training","Stims/Figures/71-C-30-1.bmp","saha:ha","Down","38","1","9","3A","C2","C","9"
"","","approach-retreat","13","472347","0.0-13.0","","","2-2","4355","37","0","Training","Stims/Figures/118-C-20-2.bmp","saha:ha","Left","39","1","10","3A","C2","C","10"
"","","approach-retreat","14","478353","0.0-14.0","","","2-2","4500","40","0","Training","Stims/Figures/74-J-10-4.bmp","fasha:sha","Up","38","1","11","3A","C1","C","11"
"","","approach-retreat","15","484123","0.0-15.0","","","2-2","4265","39","0","Training","Stims/Figures/74-C-20-4.bmp","saha:ha","Right","37","1","12","3A","C2","C","12"
"","","approach-retreat","16","490307","0.0-16.0","","","2-2","4678","40","0","Training","Stims/Figures/128-C-30-3.bmp","saha:ha","Down","38","1","13","3A","C2","C","13"
"","","approach-retreat","17","497416","0.0-17.0","","","2-2","5604","38","1","Training","Stims/Figures/86-J-0-1.bmp","fasha:sha","Up","38","1","14","3A","C1","C","14"
"","","approach-retreat","18","503324","0.0-18.0","","","2-2","4403","37","0","Training","Stims/Figures/86-C-30-1.bmp","saha:ha","Left","39","1","15","3A","C2","C","15"
"","","approach-retreat","19","509310","0.0-19.0","","","2-2","4481","40","0","Training","Stims/Figures/94-J-0-2.bmp","fasha:sha","Up","38","1","16","3A","C1","C","16"
"","","approach-retreat","20","521508","0.0-20.0","","","2-2","10691","39","1","Training","Stims/Figures/144-J-10-3.bmp","fasha:sha","Right","39","2","1","3A","C1","C","17"
"","","approach-retreat","21","527309","0.0-21.0","","","2-2","4294","39","0","Training","Stims/Figures/118-C-20-2.bmp","saha:ha","Right","37","2","2","3A","C2","C","18"
"","","approach-retreat","22","532883","0.0-22.0","","","2-2","4069","39","1","Training","Stims/Figures/74-J-10-4.bmp","fasha:sha","Right","39","2","3","3A","C1","C","19"
"","","approach-retreat","23","538844","0.0-23.0","","","2-2","4453","37","0","Training","Stims/Figures/86-C-30-1.bmp","saha:ha","Left","39","2","4","3A","C2","C","20"
"","","approach-retreat","24","544635","0.0-24.0","","","2-2","4284","40","0","Training","Stims/Figures/128-C-30-3.bmp","saha:ha","Down","38","2","5","3A","C2","C","21"
"","","approach-retreat","25","550915","0.0-25.0","","","2-2","4776","40","1","Training","Stims/Figures/144-C-30-3.bmp","saha:ha","Up","40","2","6","3A","C2","C","22"
"","","approach-retreat","26","557443","0.0-26.0","","","2-2","5021","40","1","Training","Stims/Figures/128-J-10-3.bmp","fasha:sha","Down","40","2","7","3A","C1","C","23"
"","","approach-retreat","27","563219","0.0-27.0","","","2-2","4270","37","1","Training","Stims/Figures/94-J-0-2.bmp","fasha:sha","Left","37","2","8","3A","C1","C","24"
"","","approach-retreat","28","569169","0.0-28.0","","","2-2","4443","38","1","Training","Stims/Figures/71-J-0-1.bmp","fasha:sha","Up","38","2","9","3A","C1","C","25"
"","","approach-retreat","29","575053","0.0-29.0","","","2-2","4377","40","1","Training","Stims/Figures/86-J-0-1.bmp","fasha:sha","Down","40","2","10","3A","C1","C","26"
"","","approach-retreat","30","580806","0.0-30.0","","","2-2","4235","40","1","Training","Stims/Figures/87-J-10-4.bmp","fasha:sha","Down","40","2","11","3A","C1","C","27"
"","","approach-retreat","31","586894","0.0-31.0","","","2-2","4579","38","0","Training","Stims/Figures/74-C-20-4.bmp","saha:ha","Up","40","2","12","3A","C2","C","28"
"","","approach-retreat","32","592793","0.0-32.0","","","2-2","4394","38","0","Training","Stims/Figures/71-C-30-1.bmp","saha:ha","Up","40","2","13","3A","C2","C","29"
"","","approach-retreat","33","598666","0.0-33.0","","","2-2","4368","37","0","Training","Stims/Figures/94-C-20-2.bmp","saha:ha","Left","39","2","14","3A","C2","C","30"
"","","approach-retreat","34","605529","0.0-34.0","","","2-2","5358","37","1","Training","Stims/Figures/87-C-20-4.bmp","saha:ha","Right","37","2","15","3A","C2","C","31"
"","","approach-retreat","35","611371","0.0-35.0","","","2-2","4336","39","0","Training","Stims/Figures/118-J-0-2.bmp","fasha:sha","Left","37","2","16","3A","C1","C","32"
"","","approach-retreat","36","617385","0.0-36.0","","","2-2","4509","40","0","Training","Stims/Figures/74-C-20-4.bmp","saha:ha","Down","38","3","1","3A","C2","C","33"
"","","approach-retreat","37","623474","0.0-37.0","","","2-2","4581","38","0","Training","Stims/Figures/128-J-10-3.bmp","fasha:sha","Down","40","3","2","3A","C1","C","34"
"","","approach-retreat","38","629426","0.0-38.0","","","2-2","4446","37","0","Training","Stims/Figures/128-C-30-3.bmp","saha:ha","Left","39","3","3","3A","C2","C","35"
"","","approach-retreat","39","635398","0.0-39.0","","","2-2","4467","39","0","Training","Stims/Figures/144-C-30-3.bmp","saha:ha","Right","37","3","4","3A","C2","C","36"
"","","approach-retreat","40","642734","0.0-40.0","","","2-2","5830","37","1","Training","Stims/Figures/144-J-10-3.bmp","fasha:sha","Left","37","3","5","3A","C1","C","37"
"","","approach-retreat","41","649726","0.0-41.0","","","2-2","5488","39","0","Training","Stims/Figures/71-J-0-1.bmp","fasha:sha","Left","37","3","6","3A","C1","C","38"
"","","approach-retreat","42","656393","0.0-42.0","","","2-2","5162","38","0","Training","Stims/Figures/94-C-20-2.bmp","saha:ha","Up","40","3","7","3A","C2","C","39"
"","","approach-retreat","43","663265","0.0-43.0","","","2-2","5365","40","0","Training","Stims/Figures/118-J-0-2.bmp","fasha:sha","Up","38","3","8","3A","C1","C","40"
"","","approach-retreat","44","677667","0.0-44.0","","","2-2","12897","40","0","Training","Stims/Figures/118-C-20-2.bmp","saha:ha","Down","38","3","9","3A","C2","C","41"
"","","approach-retreat","45","683689","0.0-45.0","","","2-2","4518","38","1","Training","Stims/Figures/87-C-20-4.bmp","saha:ha","Down","38","3","10","3A","C2","C","42"
"","","approach-retreat","46","689585","0.0-46.0","","","2-2","4390","40","1","Training","Stims/Figures/71-C-30-1.bmp","saha:ha","Up","40","3","11","3A","C2","C","43"
"","","approach-retreat","47","695751","0.0-47.0","","","2-2","4661","37","1","Training","Stims/Figures/74-J-10-4.bmp","fasha:sha","Left","37","3","12","3A","C1","C","44"
"","","approach-retreat","48","701623","0.0-48.0","","","2-2","4368","40","0","Training","Stims/Figures/86-J-0-1.bmp","fasha:sha","Up","38","3","13","3A","C1","C","45"
"","","approach-retreat","49","707212","0.0-49.0","","","2-2","4084","37","0","Training","Stims/Figures/87-J-10-4.bmp","fasha:sha","Right","39","3","14","3A","C1","C","46"
"","","approach-retreat","50","714552","0.0-50.0","","","2-2","5832","39","1","Training","Stims/Figures/94-J-0-2.bmp","fasha:sha","Right","39","3","15","3A","C1","C","47"
"","","approach-retreat","51","720247","0.0-51.0","","","2-2","4189","39","0","Training","Stims/Figures/86-C-30-1.bmp","saha:ha","Right","37","3","16","3A","C2","C","48"
"","","approach-retreat","52","726104","0.0-52.0","","","2-2","4351","37","0","Training","Stims/Figures/128-J-10-3.bmp","fasha:sha","Right","39","4","1","3A","C1","C","49"
"","","approach-retreat","53","731905","0.0-53.0","","","2-2","4295","37","0","Training","Stims/Figures/94-J-0-2.bmp","fasha:sha","Right","39","4","2","3A","C1","C","50"
"","","approach-retreat","54","737990","0.0-54.0","","","2-2","4578","38","0","Training","Stims/Figures/74-C-20-4.bmp","saha:ha","Up","40","4","3","3A","C2","C","51"
"","","approach-retreat","55","745277","0.0-55.0","","","2-2","5782","40","0","Training","Stims/Figures/94-C-20-2.bmp","saha:ha","Down","38","4","4","3A","C2","C","52"
"","","approach-retreat","56","751314","0.0-56.0","","","2-2","4531","38","0","Training","Stims/Figures/74-J-10-4.bmp","fasha:sha","Down","40","4","5","3A","C1","C","53"
"","","approach-retreat","57","757461","0.0-57.0","","","2-2","4641","40","1","Training","Stims/Figures/118-J-0-2.bmp","fasha:sha","Down","40","4","6","3A","C1","C","54"
"","","approach-retreat","58","763359","0.0-58.0","","","2-2","4394","37","0","Training","Stims/Figures/144-J-10-3.bmp","fasha:sha","Right","39","4","7","3A","C1","C","55"
"","","approach-retreat","59","769656","0.0-59.0","","","2-2","4793","38","1","Training","Stims/Figures/71-J-0-1.bmp","fasha:sha","Up","38","4","8","3A","C1","C","56"
"","","approach-retreat","60","776899","0.0-60.0","","","2-2","5736","39","1","Training","Stims/Figures/86-C-30-1.bmp","saha:ha","Left","39","4","9","3A","C2","C","57"
"","","approach-retreat","61","783387","0.0-61.0","","","2-2","4982","38","1","Training","Stims/Figures/86-J-0-1.bmp","fasha:sha","Up","38","4","10","3A","C1","C","58"
"","","approach-retreat","62","789606","0.0-62.0","","","2-2","4714","40","1","Training","Stims/Figures/71-C-30-1.bmp","saha:ha","Up","40","4","11","3A","C2","C","59"
"","","approach-retreat","63","795575","0.0-63.0","","","2-2","4462","37","1","Training","Stims/Figures/118-C-20-2.bmp","saha:ha","Right","37","4","12","3A","C2","C","60"
"","","approach-retreat","64","801540","0.0-64.0","","","2-2","4458","40","0","Training","Stims/Figures/87-C-20-4.bmp","saha:ha","Down","38","4","13","3A","C2","C","61"
"","","approach-retreat","65","808964","0.0-65.0","","","2-2","5918","37","0","Training","Stims/Figures/128-C-30-3.bmp","saha:ha","Left","39","4","14","3A","C2","C","62"
"","","approach-retreat","66","814540","0.0-66.0","","","2-2","4069","39","1","Training","Stims/Figures/144-C-30-3.bmp","saha:ha","Left","39","4","15","3A","C2","C","63"
"","","approach-retreat","67","820262","0.0-67.0","","","2-2","4216","39","0","Training","Stims/Figures/87-J-10-4.bmp","fasha:sha","Left","37","4","16","3A","C1","C","64"
"","","approach-retreat","68","826207","0.0-68.0","","","2-2","4439","40","1","Training","Stims/Figures/128-C-30-3.bmp","saha:ha","Up","40","5","1","3A","C2","C","65"
"","","approach-retreat","69","834640","0.0-69.0","","","2-2","6927","37","1","Training","Stims/Figures/86-J-0-1.bmp","fasha:sha","Left","37","5","2","3A","C1","C","66"
"","","approach-retreat","70","841155","0.0-70.0","","","2-2","5009","39","0","Training","Stims/Figures/94-C-20-2.bmp","saha:ha","Right","37","5","3","3A","C2","C","67"
"","","approach-retreat","71","848037","0.0-71.0","","","2-2","5377","40","1","Training","Stims/Figures/94-J-0-2.bmp","fasha:sha","Down","40","5","4","3A","C1","C","68"
"","","approach-retreat","72","854602","0.0-72.0","","","2-2","5058","38","1","Training","Stims/Figures/87-C-20-4.bmp","saha:ha","Down","38","5","5","3A","C2","C","69"
"","","approach-retreat","73","861745","0.0-73.0","","","2-2","5636","37","1","Training","Stims/Figures/74-C-20-4.bmp","saha:ha","Right","37","5","6","3A","C2","C","70"
"","","approach-retreat","74","867696","0.0-74.0","","","2-2","4445","40","0","Training","Stims/Figures/86-C-30-1.bmp","saha:ha","Down","38","5","7","3A","C2","C","71"
"","","approach-retreat","75","873296","0.0-75.0","","","2-2","4093","39","0","Training","Stims/Figures/71-J-0-1.bmp","fasha:sha","Left","37","5","8","3A","C1","C","72"
"","","approach-retreat","76","879030","0.0-76.0","","","2-2","4227","40","1","Training","Stims/Figures/144-C-30-3.bmp","saha:ha","Up","40","5","9","3A","C2","C","73"
"","","approach-retreat","77","884630","0.0-77.0","","","2-2","4095","37","0","Training","Stims/Figures/87-J-10-4.bmp","fasha:sha","Right","39","5","10","3A","C1","C","74"
"","","approach-retreat","78","889975","0.0-78.0","","","2-2","3840","39","1","Training","Stims/Figures/128-J-10-3.bmp","fasha:sha","Right","39","5","11","3A","C1","C","75"
"","","approach-retreat","79","896069","0.0-79.0","","","2-2","4588","40","0","Training","Stims/Figures/144-J-10-3.bmp","fasha:sha","Up","38","5","12","3A","C1","C","76"
"","","approach-retreat","80","903236","0.0-80.0","","","2-2","5660","37","1","Training","Stims/Figures/74-J-10-4.bmp","fasha:sha","Left","37","5","13","3A","C1","C","77"
"","","approach-retreat","81","910351","0.0-81.0","","","2-2","5610","39","0","Training","Stims/Figures/118-J-0-2.bmp","fasha:sha","Left","37","5","14","3A","C1","C","78"
"","","approach-retreat","82","915983","0.0-82.0","","","2-2","4126","40","0","Training","Stims/Figures/71-C-30-1.bmp","saha:ha","Down","38","5","15","3A","C2","C","79"
"","","approach-retreat","83","921916","0.0-83.0","","","2-2","4427","38","0","Training","Stims/Figures/118-C-20-2.bmp","saha:ha","Up","40","5","16","3A","C2","C","80"
"","","approach-retreat","84","927466","0.0-84.0","","","2-2","4045","39","0","Training","Stims/Figures/94-C-20-2.bmp","saha:ha","Right","37","6","1","3A","C2","C","81"
"","","approach-retreat","85","932926","0.0-85.0","","","2-2","3954","37","0","Training","Stims/Figures/87-J-10-4.bmp","fasha:sha","Right","39","6","2","3A","C1","C","82"
"","","approach-retreat","86","939658","0.0-86.0","","","2-2","5225","39","1","Training","Stims/Figures/128-J-10-3.bmp","fasha:sha","Right","39","6","3","3A","C1","C","83"
"","","approach-retreat","87","945788","0.0-87.0","","","2-2","4622","38","0","Training","Stims/Figures/118-C-20-2.bmp","saha:ha","Up","40","6","4","3A","C2","C","84"
"","","approach-retreat","88","951867","0.0-88.0","","","2-2","4571","39","0","Training","Stims/Figures/86-J-0-1.bmp","fasha:sha","Left","37","6","5","3A","C1","C","85"
"","","approach-retreat","89","957830","0.0-89.0","","","2-2","4457","40","1","Training","Stims/Figures/86-C-30-1.bmp","saha:ha","Up","40","6","6","3A","C2","C","86"
"","","approach-retreat","90","963648","0.0-90.0","","","2-2","4312","39","0","Training","Stims/Figures/144-C-30-3.bmp","saha:ha","Right","37","6","7","3A","C2","C","87"
"","","approach-retreat","91","969955","0.0-91.0","","","2-2","4800","38","0","Training","Stims/Figures/71-J-0-1.bmp","fasha:sha","Down","40","6","8","3A","C1","C","88"
"","","approach-retreat","92","976375","0.0-92.0","","","2-2","4915","38","0","Training","Stims/Figures/74-J-10-4.bmp","fasha:sha","Down","40","6","9","3A","C1","C","89"
"","","approach-retreat","93","982725","0.0-93.0","","","2-2","4845","37","0","Training","Stims/Figures/71-C-30-1.bmp","saha:ha","Left","39","6","10","3A","C2","C","90"
"","","approach-retreat","94","988716","0.0-94.0","","","2-2","4485","38","1","Training","Stims/Figures/74-C-20-4.bmp","saha:ha","Down","38","6","11","3A","C2","C","91"
"","","approach-retreat","95","994750","0.0-95.0","","","2-2","4528","39","1","Training","Stims/Figures/128-C-30-3.bmp","saha:ha","Left","39","6","12","3A","C2","C","92"
"","","approach-retreat","96","1000476","0.0-96.0","","","2-2","4221","39","1","Training","Stims/Figures/87-C-20-4.bmp","saha:ha","Left","39","6","13","3A","C2","C","93"
"","","approach-retreat","97","1006419","0.0-97.0","","","2-2","4436","40","0","Training","Stims/Figures/118-J-0-2.bmp","fasha:sha","Up","38","6","14","3A","C1","C","94"
"","","approach-retreat","98","1012148","0.0-98.0","","","2-2","4225","38","1","Training","Stims/Figures/144-J-10-3.bmp","fasha:sha","Up","38","6","15","3A","C1","C","95"
"","","approach-retreat","99","1017919","0.0-99.0","","","2-2","4254","38","0","Training","Stims/Figures/94-J-0-2.bmp","fasha:sha","Down","40","6","16","3A","C1","C","96"
"","","approach-retreat","100","1024221","0.0-100.0","","","2-2","4797","38","0","Training","Stims/Figures/118-C-20-2.bmp","saha:ha","Up","40","7","1","3A","C2","C","97"
"","","approach-retreat","101","1029725","0.0-101.0","","","2-2","3979","40","0","Training","Stims/Figures/86-J-0-1.bmp","fasha:sha","Up","38","7","2","3A","C1","C","98"
"","","approach-retreat","102","1036631","0.0-102.0","","","2-2","5399","37","1","Training","Stims/Figures/94-J-0-2.bmp","fasha:sha","Left","37","7","3","3A","C1","C","99"
"","","approach-retreat","103","1042438","0.0-103.0","","","2-2","4302","40","1","Training","Stims/Figures/128-J-10-3.bmp","fasha:sha","Down","40","7","4","3A","C1","C","100"
"","","approach-retreat","104","1048418","0.0-104.0","","","2-2","4472","38","0","Training","Stims/Figures/94-C-20-2.bmp","saha:ha","Up","40","7","5","3A","C2","C","101"
"","","approach-retreat","105","1054334","0.0-105.0","","","2-2","4412","40","0","Training","Stims/Figures/87-J-10-4.bmp","fasha:sha","Up","38","7","6","3A","C1","C","102"
"","","approach-retreat","106","1060276","0.0-106.0","","","2-2","4438","37","0","Training","Stims/Figures/128-C-30-3.bmp","saha:ha","Left","39","7","7","3A","C2","C","103"
"","","approach-retreat","107","1066102","0.0-107.0","","","2-2","4319","39","1","Training","Stims/Figures/118-J-0-2.bmp","fasha:sha","Right","39","7","8","3A","C1","C","104"
"","","approach-retreat","108","1071998","0.0-108.0","","","2-2","4389","38","0","Training","Stims/Figures/74-J-10-4.bmp","fasha:sha","Down","40","7","9","3A","C1","C","105"
"","","approach-retreat","109","1077686","0.0-109.0","","","2-2","4182","40","1","Training","Stims/Figures/71-J-0-1.bmp","fasha:sha","Down","40","7","10","3A","C1","C","106"
"","","approach-retreat","110","1084295","0.0-110.0","","","2-2","5104","38","1","Training","Stims/Figures/86-C-30-1.bmp","saha:ha","Down","38","7","11","3A","C2","C","107"
"","","approach-retreat","111","1090221","0.0-111.0","","","2-2","4419","39","0","Training","Stims/Figures/87-C-20-4.bmp","saha:ha","Right","37","7","12","3A","C2","C","108"
"","","approach-retreat","112","1096224","0.0-112.0","","","2-2","4488","37","0","Training","Stims/Figures/144-J-10-3.bmp","fasha:sha","Right","39","7","13","3A","C1","C","109"
"","","approach-retreat","113","1102547","0.0-113.0","","","2-2","4818","39","1","Training","Stims/Figures/71-C-30-1.bmp","saha:ha","Left","39","7","14","3A","C2","C","110"
"","","approach-retreat","114","1108618","0.0-114.0","","","2-2","4564","39","0","Training","Stims/Figures/74-C-20-4.bmp","saha:ha","Right","37","7","15","3A","C2","C","111"
"","","approach-retreat","115","1116231","0.0-115.0","","","2-2","6108","37","0","Training","Stims/Figures/144-C-30-3.bmp","saha:ha","Left","39","7","16","3A","C2","C","112"
"","","approach-retreat","116","1121799","0.0-116.0","","","2-2","4062","40","0","Training","Stims/Figures/118-C-20-2.bmp","saha:ha","Down","38","8","1","3A","C2","C","113"
"","","approach-retreat","117","1127644","0.0-117.0","","","2-2","4339","38","1","Training","Stims/Figures/144-J-10-3.bmp","fasha:sha","Up","38","8","2","3A","C1","C","114"
"","","approach-retreat","118","1133468","0.0-118.0","","","2-2","4317","37","1","Training","Stims/Figures/86-J-0-1.bmp","fasha:sha","Left","37","8","3","3A","C1","C","115"
"","","approach-retreat","119","1139265","0.0-119.0","","","2-2","4292","38","0","Training","Stims/Figures/128-C-30-3.bmp","saha:ha","Up","40","8","4","3A","C2","C","116"
"","","approach-retreat","120","1144963","0.0-120.0","","","2-2","4191","39","0","Training","Stims/Figures/74-C-20-4.bmp","saha:ha","Right","37","8","5","3A","C2","C","117"
"","","approach-retreat","121","1150555","0.0-121.0","","","2-2","4086","40","1","Training","Stims/Figures/87-C-20-4.bmp","saha:ha","Up","40","8","6","3A","C2","C","118"
"","","approach-retreat","122","1156267","0.0-122.0","","","2-2","4205","39","1","Training","Stims/Figures/94-J-0-2.bmp","fasha:sha","Right","39","8","7","3A","C1","C","119"
"","","approach-retreat","123","1161919","0.0-123.0","","","2-2","4147","40","0","Training","Stims/Figures/71-C-30-1.bmp","saha:ha","Down","38","8","8","3A","C2","C","120"
"","","approach-retreat","124","1167527","0.0-124.0","","","2-2","4102","39","0","Training","Stims/Figures/87-J-10-4.bmp","fasha:sha","Left","37","8","9","3A","C1","C","121"
"","","approach-retreat","125","1173242","0.0-125.0","","","2-2","4209","38","1","Training","Stims/Figures/144-C-30-3.bmp","saha:ha","Down","38","8","10","3A","C2","C","122"
"","","approach-retreat","126","1178850","0.0-126.0","","","2-2","4102","38","1","Training","Stims/Figures/128-J-10-3.bmp","fasha:sha","Up","38","8","11","3A","C1","C","123"
"","","approach-retreat","127","1186740","0.0-127.0","","","2-2","6385","39","0","Training","Stims/Figures/86-C-30-1.bmp","saha:ha","Right","37","8","12","3A","C2","C","124"
"","","approach-retreat","128","1192421","0.0-128.0","","","2-2","4176","37","0","Training","Stims/Figures/94-C-20-2.bmp","saha:ha","Left","39","8","13","3A","C2","C","125"
"","","approach-retreat","129","1198008","0.0-129.0","","","2-2","4080","38","0","Training","Stims/Figures/74-J-10-4.bmp","fasha:sha","Down","40","8","14","3A","C1","C","126"
"","","approach-retreat","130","1204053","0.0-130.0","","","2-2","4538","39","1","Training","Stims/Figures/71-J-0-1.bmp","fasha:sha","Right","39","8","15","3A","C1","C","127"
"","","approach-retreat","131","1210104","0.0-131.0","","","2-2","4536","37","1","Training","Stims/Figures/118-J-0-2.bmp","fasha:sha","Left","37","8","16","3A","C1","C","128"
"","","approach-retreat","132","1215958","0.0-132.0","","","2-2","4349","39","1","Training","Stims/Figures/87-C-20-4.bmp","saha:ha","Left","39","9","1","3A","C2","C","129"
"","","approach-retreat","133","1221873","0.0-133.0","","","2-2","4408","37","1","Training","Stims/Figures/94-C-20-2.bmp","saha:ha","Right","37","9","2","3A","C2","C","130"
"","","approach-retreat","134","1228245","0.0-134.0","","","2-2","4866","39","0","Training","Stims/Figures/118-J-0-2.bmp","fasha:sha","Left","37","9","3","3A","C1","C","131"
"","","approach-retreat","135","1233928","0.0-135.0","","","2-2","4176","38","1","Training","Stims/Figures/144-C-30-3.bmp","saha:ha","Down","38","9","4","3A","C2","C","132"
"","","approach-retreat","136","1240847","0.0-136.0","","","2-2","5414","39","0","Training","Stims/Figures/86-J-0-1.bmp","fasha:sha","Left","37","9","5","3A","C1","C","133"
"","","approach-retreat","137","1246857","0.0-137.0","","","2-2","4504","40","1","Training","Stims/Figures/128-C-30-3.bmp","saha:ha","Up","40","9","6","3A","C2","C","134"
"","","approach-retreat","138","1253006","0.0-138.0","","","2-2","4642","39","1","Training","Stims/Figures/86-C-30-1.bmp","saha:ha","Left","39","9","7","3A","C2","C","135"
"","","approach-retreat","139","1258663","0.0-139.0","","","2-2","4151","37","0","Training","Stims/Figures/87-J-10-4.bmp","fasha:sha","Right","39","9","8","3A","C1","C","136"
"","","approach-retreat","140","1264190","0.0-140.0","","","2-2","4022","40","1","Training","Stims/Figures/94-J-0-2.bmp","fasha:sha","Down","40","9","9","3A","C1","C","137"
"","","approach-retreat","141","1269829","0.0-141.0","","","2-2","4131","38","1","Training","Stims/Figures/74-J-10-4.bmp","fasha:sha","Up","38","9","10","3A","C1","C","138"
"","","approach-retreat","142","1275463","0.0-142.0","","","2-2","4127","38","0","Training","Stims/Figures/71-J-0-1.bmp","fasha:sha","Down","40","9","11","3A","C1","C","139"
"","","approach-retreat","143","1281171","0.0-143.0","","","2-2","4201","40","0","Training","Stims/Figures/144-J-10-3.bmp","fasha:sha","Up","38","9","12","3A","C1","C","140"
"","","approach-retreat","144","1287131","0.0-144.0","","","2-2","4454","37","1","Training","Stims/Figures/118-C-20-2.bmp","saha:ha","Right","37","9","13","3A","C2","C","141"
"","","approach-retreat","145","1292752","0.0-145.0","","","2-2","4119","38","0","Training","Stims/Figures/71-C-30-1.bmp","saha:ha","Up","40","9","14","3A","C2","C","142"
"","","approach-retreat","146","1298455","0.0-146.0","","","2-2","4188","38","1","Training","Stims/Figures/74-C-20-4.bmp","saha:ha","Down","38","9","15","3A","C2","C","143"
"","","approach-retreat","147","1304401","0.0-147.0","","","2-2","4430","37","0","Training","Stims/Figures/128-J-10-3.bmp","fasha:sha","Right","39","9","16","3A","C1","C","144"
"22539","","instructions","148","1326940","0.0-148.0","[{""page_index"":0,""viewing_time"":22539}]","","","","","","","","","","","","","","","",""
"","","approach-retreat","149","1334695","0.0-149.0","","","2-2","6252","39","1","Testing","Stims/Figures/94-J-0-2.bmp","fasha:sha","Right","39","1","1","3A","C1","C","1"
"","","approach-retreat","150","1341198","0.0-150.0","","","2-2","4996","38","0","Testing","Stims/Figures/44-J-10-3.bmp","fasha:sha","Down","40","1","2","3A","C1","C","2"
"","","approach-retreat","151","1347065","0.0-151.0","","","2-2","4356","40","1","Testing","Stims/Figures/139-J-0-2.bmp","fasha:sha","Down","40","1","3","3A","C1","C","3"
"","","approach-retreat","152","1352673","0.0-152.0","","","2-2","4104","37","1","Testing","Stims/Figures/74-C-20-4.bmp","saha:ha","Right","37","1","4","3A","C2","C","4"
"","","approach-retreat","153","1358338","0.0-153.0","","","2-2","4159","40","1","Testing","Stims/Figures/44-C-30-3.bmp","saha:ha","Up","40","1","5","3A","C2","C","5"
"","","approach-retreat","154","1364664","0.0-154.0","","","2-2","4822","39","1","Testing","Stims/Figures/93-J-0-1.bmp","fasha:sha","Right","39","1","6","3A","C1","C","6"
"","","approach-retreat","155","1370388","0.0-155.0","","","2-2","4219","37","1","Testing","Stims/Figures/7-J-10-4.bmp","fasha:sha","Left","37","1","7","3A","C1","C","7"
"","","approach-retreat","156","1375938","0.0-156.0","","","2-2","4045","40","1","Testing","Stims/Figures/87-C-20-4.bmp","saha:ha","Up","40","1","8","3A","C2","C","8"
"","","approach-retreat","157","1382553","0.0-157.0","","","2-2","5110","38","0","Testing","Stims/Figures/128-C-30-3.bmp","saha:ha","Up","40","1","9","3A","C2","C","9"
"","","approach-retreat","158","1388430","0.0-158.0","","","2-2","4375","39","0","Testing","Stims/Figures/74-J-10-4.bmp","fasha:sha","Left","37","1","10","3A","C1","C","10"
"","","approach-retreat","159","1394085","0.0-159.0","","","2-2","4151","37","0","Testing","Stims/Figures/86-J-0-1.bmp","fasha:sha","Right","39","1","11","3A","C1","C","11"
"","","approach-retreat","160","1399755","0.0-160.0","","","2-2","4166","40","1","Testing","Stims/Figures/86-C-30-1.bmp","saha:ha","Up","40","1","12","3A","C2","C","12"
"","","approach-retreat","161","1405315","0.0-161.0","","","2-2","4057","40","0","Testing","Stims/Figures/128-J-10-3.bmp","fasha:sha","Up","38","1","13","3A","C1","C","13"
"","","approach-retreat","162","1411114","0.0-162.0","","","2-2","4295","38","1","Testing","Stims/Figures/71-C-30-1.bmp","saha:ha","Down","38","1","14","3A","C2","C","14"
"","","approach-retreat","163","1416754","0.0-163.0","","","2-2","4135","38","0","Testing","Stims/Figures/87-J-10-4.bmp","fasha:sha","Down","40","1","15","3A","C1","C","15"
"","","approach-retreat","164","1422546","0.0-164.0","","","2-2","4289","39","1","Testing","Stims/Figures/7-C-20-4.bmp","saha:ha","Left","39","1","16","3A","C2","C","16"
"","","approach-retreat","165","1428174","0.0-165.0","","","2-2","4122","39","1","Testing","Stims/Figures/93-C-30-1.bmp","saha:ha","Left","39","1","17","3A","C2","C","17"
"","","approach-retreat","166","1435607","0.0-166.0","","","2-2","5929","39","0","Testing","Stims/Figures/118-C-20-2.bmp","saha:ha","Right","37","1","18","3A","C2","C","18"
"","","approach-retreat","167","1444644","0.0-167.0","","","2-2","7500","37","1","Testing","Stims/Figures/71-J-0-1.bmp","fasha:sha","Left","37","1","19","3A","C1","C","19"
"","","approach-retreat","168","1453203","0.0-168.0","","","2-2","7055","38","1","Testing","Stims/Figures/144-C-30-3.bmp","saha:ha","Down","38","1","20","3A","C2","C","20"
"","","approach-retreat","169","1458686","0.0-169.0","","","2-2","3978","37","1","Testing","Stims/Figures/94-C-20-2.bmp","saha:ha","Right","37","1","21","3A","C2","C","21"
"","","approach-retreat","170","1466979","0.0-170.0","","","2-2","6788","40","0","Testing","Stims/Figures/118-J-0-2.bmp","fasha:sha","Up","38","1","22","3A","C1","C","22"
"","","approach-retreat","171","1472839","0.0-171.0","","","2-2","4357","39","1","Testing","Stims/Figures/139-C-20-2.bmp","saha:ha","Left","39","1","23","3A","C2","C","23"
"","","approach-retreat","172","1478452","0.0-172.0","","","2-2","4108","38","0","Testing","Stims/Figures/144-J-10-3.bmp","fasha:sha","Down","40","1","24","3A","C1","C","24"
"","","approach-retreat","173","1483848","0.0-173.0","","","2-2","3892","39","0","Testing","Stims/Figures/128-J-10-3.bmp","fasha:sha","Left","37","2","1","3A","C1","C","25"
"","","approach-retreat","174","1489577","0.0-174.0","","","2-2","4225","38","1","Testing","Stims/Figures/71-J-0-1.bmp","fasha:sha","Up","38","2","2","3A","C1","C","26"
"","","approach-retreat","175","1495756","0.0-175.0","","","2-2","4673","39","0","Testing","Stims/Figures/44-J-10-3.bmp","fasha:sha","Left","37","2","3","3A","C1","C","27"
"","","approach-retreat","176","1501316","0.0-176.0","","","2-2","4059","38","1","Testing","Stims/Figures/44-C-30-3.bmp","saha:ha","Down","38","2","4","3A","C2","C","28"
"","","approach-retreat","177","1507380","0.0-177.0","","","2-2","4560","39","1","Testing","Stims/Figures/118-J-0-2.bmp","fasha:sha","Right","39","2","5","3A","C1","C","29"
"","","approach-retreat","178","1514875","0.0-178.0","","","2-2","5990","37","0","Testing","Stims/Figures/139-C-20-2.bmp","saha:ha","Left","39","2","6","3A","C2","C","30"
"","","approach-retreat","179","1520568","0.0-179.0","","","2-2","4189","38","0","Testing","Stims/Figures/94-J-0-2.bmp","fasha:sha","Down","40","2","7","3A","C1","C","31"
"","","approach-retreat","180","1526275","0.0-180.0","","","2-2","4203","40","0","Testing","Stims/Figures/93-J-0-1.bmp","fasha:sha","Up","38","2","8","3A","C1","C","32"
"","","approach-retreat","181","1536368","0.0-181.0","","","2-2","8588","38","0","Testing","Stims/Figures/87-C-20-4.bmp","saha:ha","Up","40","2","9","3A","C2","C","33"
"","","approach-retreat","182","1542121","0.0-182.0","","","2-2","4249","37","1","Testing","Stims/Figures/128-C-30-3.bmp","saha:ha","Right","37","2","10","3A","C2","C","34"
"","","approach-retreat","183","1548017","0.0-183.0","","","2-2","4391","38","1","Testing","Stims/Figures/94-C-20-2.bmp","saha:ha","Down","38","2","11","3A","C2","C","35"
"","","approach-retreat","184","1553669","0.0-184.0","","","2-2","4144","39","0","Testing","Stims/Figures/74-C-20-4.bmp","saha:ha","Right","37","2","12","3A","C2","C","36"
"","","approach-retreat","185","1559702","0.0-185.0","","","2-2","4531","37","1","Testing","Stims/Figures/144-C-30-3.bmp","saha:ha","Right","37","2","13","3A","C2","C","37"
"","","approach-retreat","186","1566007","0.0-186.0","","","2-2","4800","37","1","Testing","Stims/Figures/7-C-20-4.bmp","saha:ha","Right","37","2","14","3A","C2","C","38"
"","","approach-retreat","187","1571781","0.0-187.0","","","2-2","4268","39","1","Testing","Stims/Figures/93-C-30-1.bmp","saha:ha","Left","39","2","15","3A","C2","C","39"
"","","approach-retreat","188","1577386","0.0-188.0","","","2-2","4100","39","1","Testing","Stims/Figures/118-C-20-2.bmp","saha:ha","Left","39","2","16","3A","C2","C","40"
"","","approach-retreat","189","1583337","0.0-189.0","","","2-2","4447","40","1","Testing","Stims/Figures/71-C-30-1.bmp","saha:ha","Up","40","2","17","3A","C2","C","41"
"","","approach-retreat","190","1588813","0.0-190.0","","","2-2","3972","38","0","Testing","Stims/Figures/7-J-10-4.bmp","fasha:sha","Down","40","2","18","3A","C1","C","42"
"","","approach-retreat","191","1595731","0.0-191.0","","","2-2","5413","38","1","Testing","Stims/Figures/139-J-0-2.bmp","fasha:sha","Up","38","2","19","3A","C1","C","43"
"","","approach-retreat","192","1602986","0.0-192.0","","","2-2","5749","40","1","Testing","Stims/Figures/74-J-10-4.bmp","fasha:sha","Down","40","2","20","3A","C1","C","44"
"","","approach-retreat","193","1609033","0.0-193.0","","","2-2","4542","37","0","Testing","Stims/Figures/86-C-30-1.bmp","saha:ha","Left","39","2","21","3A","C2","C","45"
"","","approach-retreat","194","1614832","0.0-194.0","","","2-2","4295","40","1","Testing","Stims/Figures/144-J-10-3.bmp","fasha:sha","Down","40","2","22","3A","C1","C","46"
"","","approach-retreat","195","1625093","0.0-195.0","","","2-2","8756","39","1","Testing","Stims/Figures/86-J-0-1.bmp","fasha:sha","Right","39","2","23","3A","C1","C","47"
"","","approach-retreat","196","1632256","0.0-196.0","","","2-2","5659","40","0","Testing","Stims/Figures/87-J-10-4.bmp","fasha:sha","Up","38","2","24","3A","C1","C","48"
"","","approach-retreat","197","1637786","0.0-197.0","","","2-2","4024","40","1","Testing","Stims/Figures/94-J-0-2.bmp","fasha:sha","Down","40","3","1","3A","C1","C","49"
"","","approach-retreat","198","1643537","0.0-198.0","","","2-2","4245","39","0","Testing","Stims/Figures/93-J-0-1.bmp","fasha:sha","Left","37","3","2","3A","C1","C","50"
"","","approach-retreat","199","1649343","0.0-199.0","","","2-2","4300","39","1","Testing","Stims/Figures/86-C-30-1.bmp","saha:ha","Left","39","3","3","3A","C2","C","51"
"","","approach-retreat","200","1655039","0.0-200.0","","","2-2","4193","37","0","Testing","Stims/Figures/118-J-0-2.bmp","fasha:sha","Right","39","3","4","3A","C1","C","52"
"","","approach-retreat","201","1661463","0.0-201.0","","","2-2","4920","40","1","Testing","Stims/Figures/71-C-30-1.bmp","saha:ha","Up","40","3","5","3A","C2","C","53"
"","","approach-retreat","202","1669667","0.0-202.0","","","2-2","6672","40","0","Testing","Stims/Figures/44-J-10-3.bmp","fasha:sha","Up","38","3","6","3A","C1","C","54"
"","","approach-retreat","203","1675842","0.0-203.0","","","2-2","4669","37","1","Testing","Stims/Figures/118-C-20-2.bmp","saha:ha","Right","37","3","7","3A","C2","C","55"
"","","approach-retreat","204","1683547","0.0-204.0","","","2-2","6198","38","0","Testing","Stims/Figures/74-J-10-4.bmp","fasha:sha","Down","40","3","8","3A","C1","C","56"
"","","approach-retreat","205","1690674","0.0-205.0","","","2-2","5622","38","0","Testing","Stims/Figures/144-C-30-3.bmp","saha:ha","Up","40","3","9","3A","C2","C","57"
"","","approach-retreat","206","1699261","0.0-206.0","","","2-2","7085","37","1","Testing","Stims/Figures/87-C-20-4.bmp","saha:ha","Right","37","3","10","3A","C2","C","58"
"","","approach-retreat","207","1705325","0.0-207.0","","","2-2","4558","40","0","Testing","Stims/Figures/139-J-0-2.bmp","fasha:sha","Up","38","3","11","3A","C1","C","59"
"","","approach-retreat","208","1710952","0.0-208.0","","","2-2","4125","38","0","Testing","Stims/Figures/87-J-10-4.bmp","fasha:sha","Down","40","3","12","3A","C1","C","60"
"","","approach-retreat","209","1720645","0.0-209.0","","","2-2","8190","38","0","Testing","Stims/Figures/44-C-30-3.bmp","saha:ha","Up","40","3","13","3A","C2","C","61"
"","","approach-retreat","210","1727005","0.0-210.0","","","2-2","4856","39","0","Testing","Stims/Figures/74-C-20-4.bmp","saha:ha","Right","37","3","14","3A","C2","C","62"
"","","approach-retreat","211","1739470","0.0-211.0","","","2-2","10961","37","0","Testing","Stims/Figures/7-C-20-4.bmp","saha:ha","Left","39","3","15","3A","C2","C","63"
"","","approach-retreat","212","1745846","0.0-212.0","","","2-2","4871","40","0","Testing","Stims/Figures/128-C-30-3.bmp","saha:ha","Down","38","3","16","3A","C2","C","64"
"","","approach-retreat","213","1751432","0.0-213.0","","","2-2","4081","38","1","Testing","Stims/Figures/94-C-20-2.bmp","saha:ha","Down","38","3","17","3A","C2","C","65"
"","","approach-retreat","214","1759023","0.0-214.0","","","2-2","6087","37","0","Testing","Stims/Figures/7-J-10-4.bmp","fasha:sha","Right","39","3","18","3A","C1","C","66"
"","","approach-retreat","215","1766702","0.0-215.0","","","2-2","6173","39","1","Testing","Stims/Figures/139-C-20-2.bmp","saha:ha","Left","39","3","19","3A","C2","C","67"
"","","approach-retreat","216","1773274","0.0-216.0","","","2-2","5068","39","0","Testing","Stims/Figures/128-J-10-3.bmp","fasha:sha","Left","37","3","20","3A","C1","C","68"
"","","approach-retreat","217","1781584","0.0-217.0","","","2-2","6804","39","0","Testing","Stims/Figures/144-J-10-3.bmp","fasha:sha","Left","37","3","21","3A","C1","C","69"
"","","approach-retreat","218","1787400","0.0-218.0","","","2-2","4310","40","0","Testing","Stims/Figures/71-J-0-1.bmp","fasha:sha","Up","38","3","22","3A","C1","C","70"
"","","approach-retreat","219","1792998","0.0-219.0","","","2-2","4093","37","0","Testing","Stims/Figures/86-J-0-1.bmp","fasha:sha","Right","39","3","23","3A","C1","C","71"
"","","approach-retreat","220","1809171","0.0-220.0","","","2-2","14671","38","1","Testing","Stims/Figures/93-C-30-1.bmp","saha:ha","Down","38","3","24","3A","C2","C","72"
"","","approach-retreat","221","1817020","0.0-221.0","","","2-2","6343","37","0","Testing","Stims/Figures/74-J-10-4.bmp","fasha:sha","Right","39","4","1","3A","C1","C","73"
"","","approach-retreat","222","1822447","0.0-222.0","","","2-2","3921","37","0","Testing","Stims/Figures/118-J-0-2.bmp","fasha:sha","Right","39","4","2","3A","C1","C","74"
"","","approach-retreat","223","1828208","0.0-223.0","","","2-2","4257","39","1","Testing","Stims/Figures/71-C-30-1.bmp","saha:ha","Left","39","4","3","3A","C2","C","75"
"","","approach-retreat","224","1835703","0.0-224.0","","","2-2","5992","37","1","Testing","Stims/Figures/44-J-10-3.bmp","fasha:sha","Left","37","4","4","3A","C1","C","76"
"","","approach-retreat","225","1843033","0.0-225.0","","","2-2","5826","40","0","Testing","Stims/Figures/86-C-30-1.bmp","saha:ha","Down","38","4","5","3A","C2","C","77"
"","","approach-retreat","226","1848738","0.0-226.0","","","2-2","4201","40","0","Testing","Stims/Figures/71-J-0-1.bmp","fasha:sha","Up","38","4","6","3A","C1","C","78"
"","","approach-retreat","227","1854572","0.0-227.0","","","2-2","4331","38","1","Testing","Stims/Figures/144-J-10-3.bmp","fasha:sha","Up","38","4","7","3A","C1","C","79"
"","","approach-retreat","228","1860181","0.0-228.0","","","2-2","4104","40","1","Testing","Stims/Figures/139-J-0-2.bmp","fasha:sha","Down","40","4","8","3A","C1","C","80"
"","","approach-retreat","229","1865745","0.0-229.0","","","2-2","4059","38","0","Testing","Stims/Figures/93-J-0-1.bmp","fasha:sha","Down","40","4","9","3A","C1","C","81"
"","","approach-retreat","230","1872599","0.0-230.0","","","2-2","5350","38","0","Testing","Stims/Figures/93-C-30-1.bmp","saha:ha","Up","40","4","10","3A","C2","C","82"
"","","approach-retreat","231","1878717","0.0-231.0","","","2-2","4615","38","1","Testing","Stims/Figures/144-C-30-3.bmp","saha:ha","Down","38","4","11","3A","C2","C","83"
"","","approach-retreat","232","1884366","0.0-232.0","","","2-2","4143","40","1","Testing","Stims/Figures/118-C-20-2.bmp","saha:ha","Up","40","4","12","3A","C2","C","84"
"","","approach-retreat","233","1891085","0.0-233.0","","","2-2","5214","37","0","Testing","Stims/Figures/128-C-30-3.bmp","saha:ha","Left","39","4","13","3A","C2","C","85"
"","","approach-retreat","234","1896820","0.0-234.0","","","2-2","4224","38","1","Testing","Stims/Figures/94-C-20-2.bmp","saha:ha","Down","38","4","14","3A","C2","C","86"
"","","approach-retreat","235","1902294","0.0-235.0","","","2-2","3969","39","1","Testing","Stims/Figures/7-J-10-4.bmp","fasha:sha","Right","39","4","15","3A","C1","C","87"
"","","approach-retreat","236","1908076","0.0-236.0","","","2-2","4279","37","0","Testing","Stims/Figures/7-C-20-4.bmp","saha:ha","Left","39","4","16","3A","C2","C","88"
"","","approach-retreat","237","1913826","0.0-237.0","","","2-2","4245","37","0","Testing","Stims/Figures/74-C-20-4.bmp","saha:ha","Left","39","4","17","3A","C2","C","89"
"","","approach-retreat","238","1919446","0.0-238.0","","","2-2","4115","37","1","Testing","Stims/Figures/128-J-10-3.bmp","fasha:sha","Left","37","4","18","3A","C1","C","90"
"","","approach-retreat","239","1924972","0.0-239.0","","","2-2","4023","37","0","Testing","Stims/Figures/87-J-10-4.bmp","fasha:sha","Right","39","4","19","3A","C1","C","91"
"","","approach-retreat","240","1930797","0.0-240.0","","","2-2","4319","40","1","Testing","Stims/Figures/86-J-0-1.bmp","fasha:sha","Down","40","4","20","3A","C1","C","92"
"","","approach-retreat","241","1937812","0.0-241.0","","","2-2","5512","37","1","Testing","Stims/Figures/139-C-20-2.bmp","saha:ha","Right","37","4","21","3A","C2","C","93"
"","","approach-retreat","242","1943916","0.0-242.0","","","2-2","4600","40","1","Testing","Stims/Figures/44-C-30-3.bmp","saha:ha","Up","40","4","22","3A","C2","C","94"
"","","approach-retreat","243","1949444","0.0-243.0","","","2-2","4022","37","1","Testing","Stims/Figures/87-C-20-4.bmp","saha:ha","Right","37","4","23","3A","C2","C","95"
"","","approach-retreat","244","1955291","0.0-244.0","","","2-2","4343","40","0","Testing","Stims/Figures/94-J-0-2.bmp","fasha:sha","Up","38","4","24","3A","C1","C","96"
"60636","","survey-text","245","2015932","0.0-245.0","","{""Q0"":""0106/2018""}","","","","","","","","","","","","","","",""
