"rt","key_press","trial_type","trial_index","time_elapsed","internal_node_id","view_history","responses","Id","Rt","ResKeyCode","ResCorr","TrialType2","Image","Label","Location","CorrectResponse","Block","BlockTrial","Condition","LabelType","Subcondition","trialNum"
"47122","32","text","0","47127","0.0-0.0-0.0","","","","","","","","","","","","","","","","",""
"602502","","instructions","1","649635","0.0-1.0","[{""page_index"":0,""viewing_time"":602498}]","","","","","","","","","","","","","","","",""
"41449","","survey-multi-choice","2","691163","0.0-2.0","","{""Q0"":""Da"",""Q1"":""Da"",""Q2"":""Da"",""Q3"":""Da"",""Q4"":""Da"",""Q5"":""Da""}","","","","","","","","","","","","","","",""
"","","bio","3","701942","0.0-3.0","","{""age"":""18"",""gender"":""f"",""specify"":""""}","","","","","","","","","","","","","","",""
"","","approach-retreat","4","709331","0.0-4.0","","","2-3","5850","40","1","Training","Stims/Figures/139-J-0-2.bmp","ta:ka:ta","Up","40","1","1","1","P","J","1"
"","","approach-retreat","5","715370","0.0-5.0","","","2-3","4515","40","1","Training","Stims/Figures/44-J-10-3.bmp","ta:ka:ta","Up","40","1","2","1","P","J","2"
"","","approach-retreat","6","721961","0.0-6.0","","","2-3","5063","37","0","Training","Stims/Figures/102-C-20-4.bmp","nala:na","Right","39","1","3","1","S","J","3"
"","","approach-retreat","7","727809","0.0-7.0","","","2-3","4324","40","0","Training","Stims/Figures/44-C-30-3.bmp","nala:na","Up","38","1","4","1","S","J","4"
"","","approach-retreat","8","733435","0.0-8.0","","","2-3","4104","39","1","Training","Stims/Figures/139-C-20-2.bmp","nala:na","Right","39","1","5","1","S","J","5"
"","","approach-retreat","9","739512","0.0-9.0","","","2-3","4547","39","1","Training","Stims/Figures/57-J-0-1.bmp","ta:ka:ta","Left","39","1","6","1","P","J","6"
"","","approach-retreat","10","745171","0.0-10.0","","","2-3","4143","37","1","Training","Stims/Figures/84-J-0-2.bmp","ta:ka:ta","Right","37","1","7","1","P","J","7"
"","","approach-retreat","11","751413","0.0-11.0","","","2-3","4716","37","1","Training","Stims/Figures/57-C-30-1.bmp","nala:na","Left","37","1","8","1","S","J","8"
"","","approach-retreat","12","757487","0.0-12.0","","","2-3","4555","38","1","Training","Stims/Figures/87-J-10-4.bmp","ta:ka:ta","Down","38","1","9","1","P","J","9"
"","","approach-retreat","13","763286","0.0-13.0","","","2-3","4288","38","1","Training","Stims/Figures/102-J-10-4.bmp","ta:ka:ta","Down","38","1","10","1","P","J","10"
"","","approach-retreat","14","769223","0.0-14.0","","","2-3","4409","39","0","Training","Stims/Figures/93-C-30-1.bmp","nala:na","Left","37","1","11","1","S","J","11"
"","","approach-retreat","15","775124","0.0-15.0","","","2-3","4389","37","1","Training","Stims/Figures/93-J-0-1.bmp","ta:ka:ta","Right","37","1","12","1","P","J","12"
"","","approach-retreat","16","781162","0.0-16.0","","","2-3","4516","40","1","Training","Stims/Figures/84-C-20-2.bmp","nala:na","Down","40","1","13","1","S","J","13"
"","","approach-retreat","17","787356","0.0-17.0","","","2-3","4679","38","1","Training","Stims/Figures/128-C-30-3.bmp","nala:na","Up","38","1","14","1","S","J","14"
"","","approach-retreat","18","793563","0.0-18.0","","","2-3","4679","39","1","Training","Stims/Figures/128-J-10-3.bmp","ta:ka:ta","Left","39","1","15","1","P","J","15"
"","","approach-retreat","19","800155","0.0-19.0","","","2-3","5073","40","1","Training","Stims/Figures/87-C-20-4.bmp","nala:na","Down","40","1","16","1","S","J","16"
"","","approach-retreat","20","806229","0.0-20.0","","","2-3","4559","40","1","Training","Stims/Figures/57-C-30-1.bmp","nala:na","Down","40","2","1","1","S","J","17"
"","","approach-retreat","21","812004","0.0-21.0","","","2-3","4264","37","1","Training","Stims/Figures/102-J-10-4.bmp","ta:ka:ta","Right","37","2","2","1","P","J","18"
"","","approach-retreat","22","818239","0.0-22.0","","","2-3","4712","38","1","Training","Stims/Figures/139-C-20-2.bmp","nala:na","Up","38","2","3","1","S","J","19"
"","","approach-retreat","23","824565","0.0-23.0","","","2-3","4814","40","1","Training","Stims/Figures/87-C-20-4.bmp","nala:na","Down","40","2","4","1","S","J","20"
"","","approach-retreat","24","830448","0.0-24.0","","","2-3","4363","37","1","Training","Stims/Figures/93-J-0-1.bmp","ta:ka:ta","Right","37","2","5","1","P","J","21"
"","","approach-retreat","25","836546","0.0-25.0","","","2-3","4571","40","1","Training","Stims/Figures/102-C-20-4.bmp","nala:na","Down","40","2","6","1","S","J","22"
"","","approach-retreat","26","842479","0.0-26.0","","","2-3","4419","37","1","Training","Stims/Figures/128-J-10-3.bmp","ta:ka:ta","Right","37","2","7","1","P","J","23"
"","","approach-retreat","27","849036","0.0-27.0","","","2-3","5031","39","1","Training","Stims/Figures/87-J-10-4.bmp","ta:ka:ta","Left","39","2","8","1","P","J","24"
"","","approach-retreat","28","855006","0.0-28.0","","","2-3","4460","37","0","Training","Stims/Figures/128-C-30-3.bmp","nala:na","Right","39","2","9","1","S","J","25"
"","","approach-retreat","29","861484","0.0-29.0","","","2-3","4955","38","1","Training","Stims/Figures/93-C-30-1.bmp","nala:na","Up","38","2","10","1","S","J","26"
"","","approach-retreat","30","867625","0.0-30.0","","","2-3","4629","39","1","Training","Stims/Figures/57-J-0-1.bmp","ta:ka:ta","Left","39","2","11","1","P","J","27"
"","","approach-retreat","31","873835","0.0-31.0","","","2-3","4688","38","1","Training","Stims/Figures/84-C-20-2.bmp","nala:na","Up","38","2","12","1","S","J","28"
"","","approach-retreat","32","880296","0.0-32.0","","","2-3","4946","39","1","Training","Stims/Figures/84-J-0-2.bmp","ta:ka:ta","Left","39","2","13","1","P","J","29"
"","","approach-retreat","33","886581","0.0-33.0","","","2-3","4762","39","0","Training","Stims/Figures/44-C-30-3.bmp","nala:na","Left","37","2","14","1","S","J","30"
"","","approach-retreat","34","893086","0.0-34.0","","","2-3","4990","38","1","Training","Stims/Figures/139-J-0-2.bmp","ta:ka:ta","Down","38","2","15","1","P","J","31"
"","","approach-retreat","35","899028","0.0-35.0","","","2-3","4416","40","1","Training","Stims/Figures/44-J-10-3.bmp","ta:ka:ta","Up","40","2","16","1","P","J","32"
"","","approach-retreat","36","904820","0.0-36.0","","","2-3","4284","38","1","Training","Stims/Figures/57-J-0-1.bmp","ta:ka:ta","Down","38","3","1","1","P","J","33"
"","","approach-retreat","37","911097","0.0-37.0","","","2-3","4752","38","1","Training","Stims/Figures/102-C-20-4.bmp","nala:na","Up","38","3","2","1","S","J","34"
"","","approach-retreat","38","917296","0.0-38.0","","","2-3","4676","40","1","Training","Stims/Figures/102-J-10-4.bmp","ta:ka:ta","Up","40","3","3","1","P","J","35"
"","","approach-retreat","39","923157","0.0-39.0","","","2-3","4339","40","1","Training","Stims/Figures/139-C-20-2.bmp","nala:na","Down","40","3","4","1","S","J","36"
"","","approach-retreat","40","929566","0.0-40.0","","","2-3","4885","37","1","Training","Stims/Figures/128-C-30-3.bmp","nala:na","Left","37","3","5","1","S","J","37"
"","","approach-retreat","41","935482","0.0-41.0","","","2-3","4398","40","0","Training","Stims/Figures/128-J-10-3.bmp","ta:ka:ta","Down","38","3","6","1","P","J","38"
"","","approach-retreat","42","942048","0.0-42.0","","","2-3","5044","39","1","Training","Stims/Figures/57-C-30-1.bmp","nala:na","Right","39","3","7","1","S","J","39"
"","","approach-retreat","43","948231","0.0-43.0","","","2-3","4661","39","1","Training","Stims/Figures/44-J-10-3.bmp","ta:ka:ta","Left","39","3","8","1","P","J","40"
"","","approach-retreat","44","954550","0.0-44.0","","","2-3","4799","40","1","Training","Stims/Figures/93-J-0-1.bmp","ta:ka:ta","Up","40","3","9","1","P","J","41"
"","","approach-retreat","45","960879","0.0-45.0","","","2-3","4810","39","1","Training","Stims/Figures/44-C-30-3.bmp","nala:na","Right","39","3","10","1","S","J","42"
"","","approach-retreat","46","967589","0.0-46.0","","","2-3","5197","40","1","Training","Stims/Figures/93-C-30-1.bmp","nala:na","Down","40","3","11","1","S","J","43"
"","","approach-retreat","47","973539","0.0-47.0","","","2-3","4435","39","1","Training","Stims/Figures/87-C-20-4.bmp","nala:na","Right","39","3","12","1","S","J","44"
"","","approach-retreat","48","979958","0.0-48.0","","","2-3","4904","38","1","Training","Stims/Figures/84-C-20-2.bmp","nala:na","Up","38","3","13","1","S","J","45"
"","","approach-retreat","49","986319","0.0-49.0","","","2-3","4837","37","1","Training","Stims/Figures/84-J-0-2.bmp","ta:ka:ta","Right","37","3","14","1","P","J","46"
"","","approach-retreat","50","993360","0.0-50.0","","","2-3","5527","39","1","Training","Stims/Figures/87-J-10-4.bmp","ta:ka:ta","Left","39","3","15","1","P","J","47"
"","","approach-retreat","51","999555","0.0-51.0","","","2-3","4684","39","1","Training","Stims/Figures/139-J-0-2.bmp","ta:ka:ta","Left","39","3","16","1","P","J","48"
"","","approach-retreat","52","1005345","0.0-52.0","","","2-3","4278","38","1","Training","Stims/Figures/102-J-10-4.bmp","ta:ka:ta","Down","38","4","1","1","P","J","49"
"","","approach-retreat","53","1011631","0.0-53.0","","","2-3","4764","39","1","Training","Stims/Figures/57-J-0-1.bmp","ta:ka:ta","Left","39","4","2","1","P","J","50"
"","","approach-retreat","54","1017869","0.0-54.0","","","2-3","4721","39","1","Training","Stims/Figures/87-C-20-4.bmp","nala:na","Right","39","4","3","1","S","J","51"
"","","approach-retreat","55","1024730","0.0-55.0","","","2-3","5337","37","1","Training","Stims/Figures/128-J-10-3.bmp","ta:ka:ta","Right","37","4","4","1","P","J","52"
"","","approach-retreat","56","1032311","0.0-56.0","","","2-3","6068","40","0","Training","Stims/Figures/93-C-30-1.bmp","nala:na","Up","38","4","5","1","S","J","53"
"","","approach-retreat","57","1041023","0.0-57.0","","","2-3","7197","40","1","Training","Stims/Figures/57-C-30-1.bmp","nala:na","Down","40","4","6","1","S","J","54"
"","","approach-retreat","58","1047811","0.0-58.0","","","2-3","5254","38","1","Training","Stims/Figures/128-C-30-3.bmp","nala:na","Up","38","4","7","1","S","J","55"
"","","approach-retreat","59","1054897","0.0-59.0","","","2-3","5571","40","1","Training","Stims/Figures/93-J-0-1.bmp","ta:ka:ta","Up","40","4","8","1","P","J","56"
"","","approach-retreat","60","1061391","0.0-60.0","","","2-3","4977","39","1","Training","Stims/Figures/84-J-0-2.bmp","ta:ka:ta","Left","39","4","9","1","P","J","57"
"","","approach-retreat","61","1067336","0.0-61.0","","","2-3","4428","37","1","Training","Stims/Figures/44-J-10-3.bmp","ta:ka:ta","Right","37","4","10","1","P","J","58"
"","","approach-retreat","62","1073882","0.0-62.0","","","2-3","5022","40","1","Training","Stims/Figures/102-C-20-4.bmp","nala:na","Down","40","4","11","1","S","J","59"
"","","approach-retreat","63","1080023","0.0-63.0","","","2-3","4626","37","1","Training","Stims/Figures/84-C-20-2.bmp","nala:na","Left","37","4","12","1","S","J","60"
"","","approach-retreat","64","1086026","0.0-64.0","","","2-3","4483","39","1","Training","Stims/Figures/44-C-30-3.bmp","nala:na","Right","39","4","13","1","S","J","61"
"","","approach-retreat","65","1092391","0.0-65.0","","","2-3","4851","40","1","Training","Stims/Figures/139-J-0-2.bmp","ta:ka:ta","Up","40","4","14","1","P","J","62"
"","","approach-retreat","66","1098652","0.0-66.0","","","2-3","4743","40","1","Training","Stims/Figures/139-C-20-2.bmp","nala:na","Down","40","4","15","1","S","J","63"
"","","approach-retreat","67","1104942","0.0-67.0","","","2-3","4768","39","1","Training","Stims/Figures/87-J-10-4.bmp","ta:ka:ta","Left","39","4","16","1","P","J","64"
"","","approach-retreat","68","1112194","0.0-68.0","","","2-3","5730","39","1","Training","Stims/Figures/87-C-20-4.bmp","nala:na","Right","39","5","1","1","S","J","65"
"","","approach-retreat","69","1118869","0.0-69.0","","","2-3","5155","40","1","Training","Stims/Figures/57-C-30-1.bmp","nala:na","Down","40","5","2","1","S","J","66"
"","","approach-retreat","70","1125549","0.0-70.0","","","2-3","5160","39","1","Training","Stims/Figures/93-J-0-1.bmp","ta:ka:ta","Left","39","5","3","1","P","J","67"
"","","approach-retreat","71","1131354","0.0-71.0","","","2-3","4292","37","1","Training","Stims/Figures/128-C-30-3.bmp","nala:na","Left","37","5","4","1","S","J","68"
"","","approach-retreat","72","1138074","0.0-72.0","","","2-3","5199","40","1","Training","Stims/Figures/84-J-0-2.bmp","ta:ka:ta","Up","40","5","5","1","P","J","69"
"","","approach-retreat","73","1144578","0.0-73.0","","","2-3","4988","38","1","Training","Stims/Figures/102-J-10-4.bmp","ta:ka:ta","Down","38","5","6","1","P","J","70"
"","","approach-retreat","74","1151238","0.0-74.0","","","2-3","5142","39","0","Training","Stims/Figures/84-C-20-2.bmp","nala:na","Left","37","5","7","1","S","J","71"
"","","approach-retreat","75","1157399","0.0-75.0","","","2-3","4647","38","1","Training","Stims/Figures/44-J-10-3.bmp","ta:ka:ta","Down","38","5","8","1","P","J","72"
"","","approach-retreat","76","1164559","0.0-76.0","","","2-3","5650","40","1","Training","Stims/Figures/57-J-0-1.bmp","ta:ka:ta","Up","40","5","9","1","P","J","73"
"","","approach-retreat","77","1171154","0.0-77.0","","","2-3","5075","38","1","Training","Stims/Figures/102-C-20-4.bmp","nala:na","Up","38","5","10","1","S","J","74"
"","","approach-retreat","78","1177685","0.0-78.0","","","2-3","5008","37","1","Training","Stims/Figures/139-J-0-2.bmp","ta:ka:ta","Right","37","5","11","1","P","J","75"
"","","approach-retreat","79","1185452","0.0-79.0","","","2-3","6258","38","1","Training","Stims/Figures/44-C-30-3.bmp","nala:na","Up","38","5","12","1","S","J","76"
"","","approach-retreat","80","1192310","0.0-80.0","","","2-3","5343","38","1","Training","Stims/Figures/87-J-10-4.bmp","ta:ka:ta","Down","38","5","13","1","P","J","77"
"","","approach-retreat","81","1198936","0.0-81.0","","","2-3","5113","37","1","Training","Stims/Figures/128-J-10-3.bmp","ta:ka:ta","Right","37","5","14","1","P","J","78"
"","","approach-retreat","82","1205827","0.0-82.0","","","2-3","5374","39","0","Training","Stims/Figures/93-C-30-1.bmp","nala:na","Left","37","5","15","1","S","J","79"
"","","approach-retreat","83","1212105","0.0-83.0","","","2-3","4769","39","1","Training","Stims/Figures/139-C-20-2.bmp","nala:na","Right","39","5","16","1","S","J","80"
"","","approach-retreat","84","1218548","0.0-84.0","","","2-3","4922","39","1","Training","Stims/Figures/84-C-20-2.bmp","nala:na","Right","39","6","1","1","S","J","81"
"","","approach-retreat","85","1224915","0.0-85.0","","","2-3","4858","37","1","Training","Stims/Figures/44-C-30-3.bmp","nala:na","Left","37","6","2","1","S","J","82"
"","","approach-retreat","86","1231269","0.0-86.0","","","2-3","4838","39","1","Training","Stims/Figures/102-C-20-4.bmp","nala:na","Right","39","6","3","1","S","J","83"
"","","approach-retreat","87","1237572","0.0-87.0","","","2-3","4789","40","1","Training","Stims/Figures/139-J-0-2.bmp","ta:ka:ta","Up","40","6","4","1","P","J","84"
"","","approach-retreat","88","1243858","0.0-88.0","","","2-3","4761","40","1","Training","Stims/Figures/57-J-0-1.bmp","ta:ka:ta","Up","40","6","5","1","P","J","85"
"","","approach-retreat","89","1249830","0.0-89.0","","","2-3","4449","37","1","Training","Stims/Figures/57-C-30-1.bmp","nala:na","Left","37","6","6","1","S","J","86"
"","","approach-retreat","90","1256217","0.0-90.0","","","2-3","4866","40","1","Training","Stims/Figures/93-C-30-1.bmp","nala:na","Down","40","6","7","1","S","J","87"
"","","approach-retreat","91","1262158","0.0-91.0","","","2-3","4416","37","1","Training","Stims/Figures/84-J-0-2.bmp","ta:ka:ta","Right","37","6","8","1","P","J","88"
"","","approach-retreat","92","1268317","0.0-92.0","","","2-3","4639","38","1","Training","Stims/Figures/139-C-20-2.bmp","nala:na","Up","38","6","9","1","S","J","89"
"","","approach-retreat","93","1274770","0.0-93.0","","","2-3","4945","39","1","Training","Stims/Figures/44-J-10-3.bmp","ta:ka:ta","Left","39","6","10","1","P","J","90"
"","","approach-retreat","94","1282054","0.0-94.0","","","2-3","5765","40","1","Training","Stims/Figures/128-C-30-3.bmp","nala:na","Down","40","6","11","1","S","J","91"
"","","approach-retreat","95","1288629","0.0-95.0","","","2-3","5057","38","1","Training","Stims/Figures/93-J-0-1.bmp","ta:ka:ta","Down","38","6","12","1","P","J","92"
"","","approach-retreat","96","1294798","0.0-96.0","","","2-3","4648","39","1","Training","Stims/Figures/128-J-10-3.bmp","ta:ka:ta","Left","39","6","13","1","P","J","93"
"","","approach-retreat","97","1301722","0.0-97.0","","","2-3","5409","38","1","Training","Stims/Figures/87-C-20-4.bmp","nala:na","Up","38","6","14","1","S","J","94"
"","","approach-retreat","98","1308105","0.0-98.0","","","2-3","4860","38","1","Training","Stims/Figures/87-J-10-4.bmp","ta:ka:ta","Down","38","6","15","1","P","J","95"
"","","approach-retreat","99","1314214","0.0-99.0","","","2-3","4593","37","1","Training","Stims/Figures/102-J-10-4.bmp","ta:ka:ta","Right","37","6","16","1","P","J","96"
"","","approach-retreat","100","1321004","0.0-100.0","","","2-3","5276","38","1","Training","Stims/Figures/93-C-30-1.bmp","nala:na","Up","38","7","1","1","S","J","97"
"","","approach-retreat","101","1327166","0.0-101.0","","","2-3","4643","40","1","Training","Stims/Figures/57-J-0-1.bmp","ta:ka:ta","Up","40","7","2","1","P","J","98"
"","","approach-retreat","102","1334855","0.0-102.0","","","2-3","6175","37","1","Training","Stims/Figures/102-C-20-4.bmp","nala:na","Left","37","7","3","1","S","J","99"
"","","approach-retreat","103","1341110","0.0-103.0","","","2-3","4733","39","1","Training","Stims/Figures/44-J-10-3.bmp","ta:ka:ta","Left","39","7","4","1","P","J","100"
"","","approach-retreat","104","1347347","0.0-104.0","","","2-3","4713","37","1","Training","Stims/Figures/44-C-30-3.bmp","nala:na","Left","37","7","5","1","S","J","101"
"","","approach-retreat","105","1353515","0.0-105.0","","","2-3","4646","39","1","Training","Stims/Figures/84-C-20-2.bmp","nala:na","Right","39","7","6","1","S","J","102"
"","","approach-retreat","106","1359237","0.0-106.0","","","2-3","4195","39","1","Training","Stims/Figures/87-C-20-4.bmp","nala:na","Right","39","7","7","1","S","J","103"
"","","approach-retreat","107","1365181","0.0-107.0","","","2-3","4425","37","1","Training","Stims/Figures/128-J-10-3.bmp","ta:ka:ta","Right","37","7","8","1","P","J","104"
"","","approach-retreat","108","1371507","0.0-108.0","","","2-3","4804","40","1","Training","Stims/Figures/84-J-0-2.bmp","ta:ka:ta","Up","40","7","9","1","P","J","105"
"","","approach-retreat","109","1377866","0.0-109.0","","","2-3","4840","40","0","Training","Stims/Figures/128-C-30-3.bmp","nala:na","Up","38","7","10","1","S","J","106"
"","","approach-retreat","110","1383627","0.0-110.0","","","2-3","4235","37","1","Training","Stims/Figures/139-J-0-2.bmp","ta:ka:ta","Right","37","7","11","1","P","J","107"
"","","approach-retreat","111","1389822","0.0-111.0","","","2-3","4673","38","1","Training","Stims/Figures/87-J-10-4.bmp","ta:ka:ta","Down","38","7","12","1","P","J","108"
"","","approach-retreat","112","1396130","0.0-112.0","","","2-3","4787","40","1","Training","Stims/Figures/139-C-20-2.bmp","nala:na","Down","40","7","13","1","S","J","109"
"","","approach-retreat","113","1402480","0.0-113.0","","","2-3","4831","38","1","Training","Stims/Figures/102-J-10-4.bmp","ta:ka:ta","Down","38","7","14","1","P","J","110"
"","","approach-retreat","114","1409706","0.0-114.0","","","2-3","5719","37","1","Training","Stims/Figures/57-C-30-1.bmp","nala:na","Left","37","7","15","1","S","J","111"
"","","approach-retreat","115","1416226","0.0-115.0","","","2-3","4992","38","1","Training","Stims/Figures/93-J-0-1.bmp","ta:ka:ta","Down","38","7","16","1","P","J","112"
"","","approach-retreat","116","1422808","0.0-116.0","","","2-3","5071","38","1","Training","Stims/Figures/139-J-0-2.bmp","ta:ka:ta","Down","38","8","1","1","P","J","113"
"","","approach-retreat","117","1428888","0.0-117.0","","","2-3","4568","37","1","Training","Stims/Figures/128-J-10-3.bmp","ta:ka:ta","Right","37","8","2","1","P","J","114"
"","","approach-retreat","118","1435322","0.0-118.0","","","2-3","4909","39","1","Training","Stims/Figures/87-J-10-4.bmp","ta:ka:ta","Left","39","8","3","1","P","J","115"
"","","approach-retreat","119","1440949","0.0-119.0","","","2-3","4101","37","1","Training","Stims/Figures/44-J-10-3.bmp","ta:ka:ta","Right","37","8","4","1","P","J","116"
"","","approach-retreat","120","1447338","0.0-120.0","","","2-3","4871","37","1","Training","Stims/Figures/139-C-20-2.bmp","nala:na","Left","37","8","5","1","S","J","117"
"","","approach-retreat","121","1453589","0.0-121.0","","","2-3","4735","39","1","Training","Stims/Figures/57-C-30-1.bmp","nala:na","Right","39","8","6","1","S","J","118"
"","","approach-retreat","122","1460949","0.0-122.0","","","2-3","5846","38","1","Training","Stims/Figures/84-C-20-2.bmp","nala:na","Up","38","8","7","1","S","J","119"
"","","approach-retreat","123","1468420","0.0-123.0","","","2-3","5947","40","1","Training","Stims/Figures/57-J-0-1.bmp","ta:ka:ta","Up","40","8","8","1","P","J","120"
"","","approach-retreat","124","1475760","0.0-124.0","","","2-3","5824","40","1","Training","Stims/Figures/84-J-0-2.bmp","ta:ka:ta","Up","40","8","9","1","P","J","121"
"","","approach-retreat","125","1483358","0.0-125.0","","","2-3","6084","40","1","Training","Stims/Figures/93-C-30-1.bmp","nala:na","Down","40","8","10","1","S","J","122"
"","","approach-retreat","126","1491251","0.0-126.0","","","2-3","6373","39","1","Training","Stims/Figures/93-J-0-1.bmp","ta:ka:ta","Left","39","8","11","1","P","J","123"
"","","approach-retreat","127","1498262","0.0-127.0","","","2-3","5503","38","1","Training","Stims/Figures/87-C-20-4.bmp","nala:na","Up","38","8","12","1","S","J","124"
"","","approach-retreat","128","1504824","0.0-128.0","","","2-3","5047","37","1","Training","Stims/Figures/44-C-30-3.bmp","nala:na","Left","37","8","13","1","S","J","125"
"","","approach-retreat","129","1511492","0.0-129.0","","","2-3","5159","40","1","Training","Stims/Figures/128-C-30-3.bmp","nala:na","Down","40","8","14","1","S","J","126"
"","","approach-retreat","130","1518281","0.0-130.0","","","2-3","5273","39","1","Training","Stims/Figures/102-C-20-4.bmp","nala:na","Right","39","8","15","1","S","J","127"
"","","approach-retreat","131","1524023","0.0-131.0","","","2-3","4223","38","1","Training","Stims/Figures/102-J-10-4.bmp","ta:ka:ta","Down","38","8","16","1","P","J","128"
"","","approach-retreat","132","1529870","0.0-132.0","","","2-3","4339","39","1","Training","Stims/Figures/44-J-10-3.bmp","ta:ka:ta","Left","39","9","1","1","P","J","129"
"","","approach-retreat","133","1535692","0.0-133.0","","","2-3","4304","38","1","Training","Stims/Figures/84-C-20-2.bmp","nala:na","Up","38","9","2","1","S","J","130"
"","","approach-retreat","134","1542025","0.0-134.0","","","2-3","4817","38","1","Training","Stims/Figures/93-C-30-1.bmp","nala:na","Up","38","9","3","1","S","J","131"
"","","approach-retreat","135","1548782","0.0-135.0","","","2-3","5237","39","1","Training","Stims/Figures/102-J-10-4.bmp","ta:ka:ta","Left","39","9","4","1","P","J","132"
"","","approach-retreat","136","1555870","0.0-136.0","","","2-3","5571","37","1","Training","Stims/Figures/57-C-30-1.bmp","nala:na","Left","37","9","5","1","S","J","133"
"","","approach-retreat","137","1563022","0.0-137.0","","","2-3","5643","40","1","Training","Stims/Figures/87-C-20-4.bmp","nala:na","Down","40","9","6","1","S","J","134"
"","","approach-retreat","138","1569173","0.0-138.0","","","2-3","4638","39","1","Training","Stims/Figures/139-J-0-2.bmp","ta:ka:ta","Left","39","9","7","1","P","J","135"
"","","approach-retreat","139","1575343","0.0-139.0","","","2-3","4660","38","1","Training","Stims/Figures/128-J-10-3.bmp","ta:ka:ta","Down","38","9","8","1","P","J","136"
"","","approach-retreat","140","1581353","0.0-140.0","","","2-3","4488","37","1","Training","Stims/Figures/93-J-0-1.bmp","ta:ka:ta","Right","37","9","9","1","P","J","137"
"","","approach-retreat","141","1587845","0.0-141.0","","","2-3","4980","39","1","Training","Stims/Figures/102-C-20-4.bmp","nala:na","Right","39","9","10","1","S","J","138"
"","","approach-retreat","142","1594683","0.0-142.0","","","2-3","5318","37","1","Training","Stims/Figures/87-J-10-4.bmp","ta:ka:ta","Right","37","9","11","1","P","J","139"
"","","approach-retreat","143","1600793","0.0-143.0","","","2-3","4582","38","1","Training","Stims/Figures/84-J-0-2.bmp","ta:ka:ta","Down","38","9","12","1","P","J","140"
"","","approach-retreat","144","1607064","0.0-144.0","","","2-3","4756","38","1","Training","Stims/Figures/128-C-30-3.bmp","nala:na","Up","38","9","13","1","S","J","141"
"","","approach-retreat","145","1613259","0.0-145.0","","","2-3","4683","37","1","Training","Stims/Figures/57-J-0-1.bmp","ta:ka:ta","Right","37","9","14","1","P","J","142"
"","","approach-retreat","146","1619475","0.0-146.0","","","2-3","4700","38","1","Training","Stims/Figures/44-C-30-3.bmp","nala:na","Up","38","9","15","1","S","J","143"
"","","approach-retreat","147","1625425","0.0-147.0","","","2-3","4430","40","1","Training","Stims/Figures/139-C-20-2.bmp","nala:na","Down","40","9","16","1","S","J","144"
"20753","","instructions","148","1646178","0.0-148.0","[{""page_index"":0,""viewing_time"":20752}]","","","","","","","","","","","","","","","",""
"","","approach-retreat","149","1652795","0.0-149.0","","","2-3","5091","38","1","Testing","Stims/Figures/84-C-20-2.bmp","nala:na","Up","38","1","1","1","S","J","1"
"","","approach-retreat","150","1662457","0.0-150.0","","","2-3","8136","38","0","Testing","Stims/Figures/102-C-20-4.bmp","nala:na","Down","40","1","2","1","S","J","2"
"","","approach-retreat","151","1670396","0.0-151.0","","","2-3","6422","38","0","Testing","Stims/Figures/118-J-0-2.bmp","ta:ka:ta","Up","40","1","3","1","P","J","3"
"","","approach-retreat","152","1677057","0.0-152.0","","","2-3","5151","40","1","Testing","Stims/Figures/139-C-20-2.bmp","nala:na","Down","40","1","4","1","S","J","4"
"","","approach-retreat","153","1683635","0.0-153.0","","","2-3","5061","38","0","Testing","Stims/Figures/84-J-0-2.bmp","ta:ka:ta","Up","40","1","5","1","P","J","5"
"","","approach-retreat","154","1689188","0.0-154.0","","","2-3","4029","39","0","Testing","Stims/Figures/139-J-0-2.bmp","ta:ka:ta","Right","37","1","6","1","P","J","6"
"","","approach-retreat","155","1694677","0.0-155.0","","","2-3","3970","40","0","Testing","Stims/Figures/7-J-10-4.bmp","ta:ka:ta","Down","38","1","7","1","P","J","7"
"","","approach-retreat","156","1700928","0.0-156.0","","","2-3","4724","38","1","Testing","Stims/Figures/144-J-10-3.bmp","ta:ka:ta","Down","38","1","8","1","P","J","8"
"","","approach-retreat","157","1706978","0.0-157.0","","","2-3","4530","38","0","Testing","Stims/Figures/93-J-0-1.bmp","ta:ka:ta","Up","40","1","9","1","P","J","9"
"","","approach-retreat","158","1713638","0.0-158.0","","","2-3","5143","38","0","Testing","Stims/Figures/87-C-20-4.bmp","nala:na","Down","40","1","10","1","S","J","10"
"","","approach-retreat","159","1719664","0.0-159.0","","","2-3","4510","39","0","Testing","Stims/Figures/118-C-20-2.bmp","nala:na","Left","37","1","11","1","S","J","11"
"","","approach-retreat","160","1727325","0.0-160.0","","","2-3","6141","37","0","Testing","Stims/Figures/128-C-30-3.bmp","nala:na","Right","39","1","12","1","S","J","12"
"","","approach-retreat","161","1733527","0.0-161.0","","","2-3","4690","37","0","Testing","Stims/Figures/128-J-10-3.bmp","ta:ka:ta","Left","39","1","13","1","P","J","13"
"","","approach-retreat","162","1739248","0.0-162.0","","","2-3","4210","39","1","Testing","Stims/Figures/7-C-20-4.bmp","nala:na","Right","39","1","14","1","S","J","14"
"","","approach-retreat","163","1745050","0.0-163.0","","","2-3","4288","39","1","Testing","Stims/Figures/57-C-30-1.bmp","nala:na","Right","39","1","15","1","S","J","15"
"","","approach-retreat","164","1752189","0.0-164.0","","","2-3","5625","37","1","Testing","Stims/Figures/44-C-30-3.bmp","nala:na","Left","37","1","16","1","S","J","16"
"","","approach-retreat","165","1758026","0.0-165.0","","","2-3","4318","38","0","Testing","Stims/Figures/87-J-10-4.bmp","ta:ka:ta","Up","40","1","17","1","P","J","17"
"","","approach-retreat","166","1763994","0.0-166.0","","","2-3","4458","37","0","Testing","Stims/Figures/44-J-10-3.bmp","ta:ka:ta","Left","39","1","18","1","P","J","18"
"","","approach-retreat","167","1769702","0.0-167.0","","","2-3","4189","39","1","Testing","Stims/Figures/93-C-30-1.bmp","nala:na","Right","39","1","19","1","S","J","19"
"","","approach-retreat","168","1775800","0.0-168.0","","","2-3","4585","39","0","Testing","Stims/Figures/144-C-30-3.bmp","nala:na","Left","37","1","20","1","S","J","20"
"","","approach-retreat","169","1781686","0.0-169.0","","","2-3","4364","37","1","Testing","Stims/Figures/102-J-10-4.bmp","ta:ka:ta","Right","37","1","21","1","P","J","21"
"","","approach-retreat","170","1787756","0.0-170.0","","","2-3","4550","39","1","Testing","Stims/Figures/71-J-0-1.bmp","ta:ka:ta","Left","39","1","22","1","P","J","22"
"","","approach-retreat","171","1793670","0.0-171.0","","","2-3","4398","38","0","Testing","Stims/Figures/57-J-0-1.bmp","ta:ka:ta","Up","40","1","23","1","P","J","23"
"","","approach-retreat","172","1800706","0.0-172.0","","","2-3","5518","40","1","Testing","Stims/Figures/71-C-30-1.bmp","nala:na","Down","40","1","24","1","S","J","24"
"","","approach-retreat","173","1806817","0.0-173.0","","","2-3","4593","39","0","Testing","Stims/Figures/71-J-0-1.bmp","ta:ka:ta","Right","37","2","1","1","P","J","25"
"","","approach-retreat","174","1812550","0.0-174.0","","","2-3","4224","39","1","Testing","Stims/Figures/139-C-20-2.bmp","nala:na","Right","39","2","2","1","S","J","26"
"","","approach-retreat","175","1821441","0.0-175.0","","","2-3","7383","39","0","Testing","Stims/Figures/84-J-0-2.bmp","ta:ka:ta","Right","37","2","3","1","P","J","27"
"","","approach-retreat","176","1827517","0.0-176.0","","","2-3","4558","37","0","Testing","Stims/Figures/93-J-0-1.bmp","ta:ka:ta","Left","39","2","4","1","P","J","28"
"","","approach-retreat","177","1833341","0.0-177.0","","","2-3","4316","40","0","Testing","Stims/Figures/71-C-30-1.bmp","nala:na","Up","38","2","5","1","S","J","29"
"","","approach-retreat","178","1839142","0.0-178.0","","","2-3","4289","39","0","Testing","Stims/Figures/87-C-20-4.bmp","nala:na","Left","37","2","6","1","S","J","30"
"","","approach-retreat","179","1844451","0.0-179.0","","","2-3","3785","37","1","Testing","Stims/Figures/93-C-30-1.bmp","nala:na","Left","37","2","7","1","S","J","31"
"","","approach-retreat","180","1850327","0.0-180.0","","","2-3","4364","38","0","Testing","Stims/Figures/139-J-0-2.bmp","ta:ka:ta","Up","40","2","8","1","P","J","32"
"","","approach-retreat","181","1856226","0.0-181.0","","","2-3","4376","39","1","Testing","Stims/Figures/118-C-20-2.bmp","nala:na","Right","39","2","9","1","S","J","33"
"","","approach-retreat","182","1862903","0.0-182.0","","","2-3","5164","40","0","Testing","Stims/Figures/118-J-0-2.bmp","ta:ka:ta","Down","38","2","10","1","P","J","34"
"","","approach-retreat","183","1868784","0.0-183.0","","","2-3","4364","39","0","Testing","Stims/Figures/128-J-10-3.bmp","ta:ka:ta","Right","37","2","11","1","P","J","35"
"","","approach-retreat","184","1875822","0.0-184.0","","","2-3","5525","37","1","Testing","Stims/Figures/44-C-30-3.bmp","nala:na","Left","37","2","12","1","S","J","36"
"","","approach-retreat","185","1881622","0.0-185.0","","","2-3","4290","38","1","Testing","Stims/Figures/102-J-10-4.bmp","ta:ka:ta","Down","38","2","13","1","P","J","37"
"","","approach-retreat","186","1888167","0.0-186.0","","","2-3","5027","40","1","Testing","Stims/Figures/44-J-10-3.bmp","ta:ka:ta","Up","40","2","14","1","P","J","38"
"","","approach-retreat","187","1893676","0.0-187.0","","","2-3","3994","37","0","Testing","Stims/Figures/7-J-10-4.bmp","ta:ka:ta","Left","39","2","15","1","P","J","39"
"","","approach-retreat","188","1900587","0.0-188.0","","","2-3","5391","38","1","Testing","Stims/Figures/57-C-30-1.bmp","nala:na","Up","38","2","16","1","S","J","40"
"","","approach-retreat","189","1906884","0.0-189.0","","","2-3","4776","40","1","Testing","Stims/Figures/102-C-20-4.bmp","nala:na","Down","40","2","17","1","S","J","41"
"","","approach-retreat","190","1913983","0.0-190.0","","","2-3","5585","37","1","Testing","Stims/Figures/57-J-0-1.bmp","ta:ka:ta","Right","37","2","18","1","P","J","42"
"","","approach-retreat","191","1920044","0.0-191.0","","","2-3","4544","40","0","Testing","Stims/Figures/87-J-10-4.bmp","ta:ka:ta","Down","38","2","19","1","P","J","43"
"","","approach-retreat","192","1927605","0.0-192.0","","","2-3","6040","38","1","Testing","Stims/Figures/84-C-20-2.bmp","nala:na","Up","38","2","20","1","S","J","44"
"","","approach-retreat","193","1935175","0.0-193.0","","","2-3","6059","40","0","Testing","Stims/Figures/144-J-10-3.bmp","ta:ka:ta","Down","38","2","21","1","P","J","45"
"","","approach-retreat","194","1941944","0.0-194.0","","","2-3","5249","37","1","Testing","Stims/Figures/144-C-30-3.bmp","nala:na","Left","37","2","22","1","S","J","46"
"","","approach-retreat","195","1948186","0.0-195.0","","","2-3","4720","40","0","Testing","Stims/Figures/7-C-20-4.bmp","nala:na","Up","38","2","23","1","S","J","47"
"","","approach-retreat","196","1954568","0.0-196.0","","","2-3","4860","38","0","Testing","Stims/Figures/128-C-30-3.bmp","nala:na","Down","40","2","24","1","S","J","48"
"","","approach-retreat","197","1960335","0.0-197.0","","","2-3","4252","38","0","Testing","Stims/Figures/128-C-30-3.bmp","nala:na","Down","40","3","1","1","S","J","49"
"","","approach-retreat","198","1966365","0.0-198.0","","","2-3","4513","38","0","Testing","Stims/Figures/7-C-20-4.bmp","nala:na","Down","40","3","2","1","S","J","50"
"","","approach-retreat","199","1973095","0.0-199.0","","","2-3","5208","39","1","Testing","Stims/Figures/44-J-10-3.bmp","ta:ka:ta","Left","39","3","3","1","P","J","51"
"","","approach-retreat","200","1981105","0.0-200.0","","","2-3","6487","37","1","Testing","Stims/Figures/57-C-30-1.bmp","nala:na","Left","37","3","4","1","S","J","52"
"","","approach-retreat","201","1993026","0.0-201.0","","","2-3","10408","38","1","Testing","Stims/Figures/44-C-30-3.bmp","nala:na","Up","38","3","5","1","S","J","53"
"","","approach-retreat","202","2003828","0.0-202.0","","","2-3","9284","39","0","Testing","Stims/Figures/84-J-0-2.bmp","ta:ka:ta","Right","37","3","6","1","P","J","54"
"","","approach-retreat","203","2009627","0.0-203.0","","","2-3","4281","38","0","Testing","Stims/Figures/128-J-10-3.bmp","ta:ka:ta","Up","40","3","7","1","P","J","55"
"","","approach-retreat","204","2017966","0.0-204.0","","","2-3","6820","37","0","Testing","Stims/Figures/139-J-0-2.bmp","ta:ka:ta","Left","39","3","8","1","P","J","56"
"","","approach-retreat","205","2028058","0.0-205.0","","","2-3","8574","38","0","Testing","Stims/Figures/118-J-0-2.bmp","ta:ka:ta","Up","40","3","9","1","P","J","57"
"","","approach-retreat","206","2035075","0.0-206.0","","","2-3","5505","39","1","Testing","Stims/Figures/87-C-20-4.bmp","nala:na","Right","39","3","10","1","S","J","58"
"","","approach-retreat","207","2046058","0.0-207.0","","","2-3","9466","39","0","Testing","Stims/Figures/71-J-0-1.bmp","ta:ka:ta","Right","37","3","11","1","P","J","59"
"","","approach-retreat","208","2053063","0.0-208.0","","","2-3","5492","39","0","Testing","Stims/Figures/71-C-30-1.bmp","nala:na","Left","37","3","12","1","S","J","60"
"","","approach-retreat","209","2063090","0.0-209.0","","","2-3","8510","38","0","Testing","Stims/Figures/139-C-20-2.bmp","nala:na","Down","40","3","13","1","S","J","61"
"","","approach-retreat","210","2072039","0.0-210.0","","","2-3","7427","39","0","Testing","Stims/Figures/144-J-10-3.bmp","ta:ka:ta","Right","37","3","14","1","P","J","62"
"","","approach-retreat","211","2085069","0.0-211.0","","","2-3","11519","38","0","Testing","Stims/Figures/87-J-10-4.bmp","ta:ka:ta","Up","40","3","15","1","P","J","63"
"","","approach-retreat","212","2093881","0.0-212.0","","","2-3","7300","37","0","Testing","Stims/Figures/93-J-0-1.bmp","ta:ka:ta","Left","39","3","16","1","P","J","64"
"","","approach-retreat","213","2100131","0.0-213.0","","","2-3","4727","38","0","Testing","Stims/Figures/84-C-20-2.bmp","nala:na","Down","40","3","17","1","S","J","65"
"","","approach-retreat","214","2107209","0.0-214.0","","","2-3","5558","37","0","Testing","Stims/Figures/118-C-20-2.bmp","nala:na","Right","39","3","18","1","S","J","66"
"","","approach-retreat","215","2113290","0.0-215.0","","","2-3","4568","40","0","Testing","Stims/Figures/93-C-30-1.bmp","nala:na","Up","38","3","19","1","S","J","67"
"","","approach-retreat","216","2122862","0.0-216.0","","","2-3","8049","37","1","Testing","Stims/Figures/144-C-30-3.bmp","nala:na","Left","37","3","20","1","S","J","68"
"","","approach-retreat","217","2129136","0.0-217.0","","","2-3","4759","40","1","Testing","Stims/Figures/102-J-10-4.bmp","ta:ka:ta","Up","40","3","21","1","P","J","69"
"","","approach-retreat","218","2136220","0.0-218.0","","","2-3","5561","37","1","Testing","Stims/Figures/7-J-10-4.bmp","ta:ka:ta","Right","37","3","22","1","P","J","70"
"","","approach-retreat","219","2144061","0.0-219.0","","","2-3","6331","40","1","Testing","Stims/Figures/102-C-20-4.bmp","nala:na","Down","40","3","23","1","S","J","71"
"","","approach-retreat","220","2151546","0.0-220.0","","","2-3","5972","40","0","Testing","Stims/Figures/57-J-0-1.bmp","ta:ka:ta","Down","38","3","24","1","P","J","72"
"","","approach-retreat","221","2157462","0.0-221.0","","","2-3","4398","40","0","Testing","Stims/Figures/84-C-20-2.bmp","nala:na","Up","38","4","1","1","S","J","73"
"","","approach-retreat","222","2163223","0.0-222.0","","","2-3","4248","37","1","Testing","Stims/Figures/139-J-0-2.bmp","ta:ka:ta","Right","37","4","2","1","P","J","74"
"","","approach-retreat","223","2169512","0.0-223.0","","","2-3","4776","37","1","Testing","Stims/Figures/57-J-0-1.bmp","ta:ka:ta","Right","37","4","3","1","P","J","75"
"","","approach-retreat","224","2175276","0.0-224.0","","","2-3","4239","37","1","Testing","Stims/Figures/44-J-10-3.bmp","ta:ka:ta","Right","37","4","4","1","P","J","76"
"","","approach-retreat","225","2181163","0.0-225.0","","","2-3","4361","37","1","Testing","Stims/Figures/102-C-20-4.bmp","nala:na","Left","37","4","5","1","S","J","77"
"","","approach-retreat","226","2188424","0.0-226.0","","","2-3","5750","40","1","Testing","Stims/Figures/7-J-10-4.bmp","ta:ka:ta","Up","40","4","6","1","P","J","78"
"","","approach-retreat","227","2194694","0.0-227.0","","","2-3","4747","37","0","Testing","Stims/Figures/144-J-10-3.bmp","ta:ka:ta","Left","39","4","7","1","P","J","79"
"","","approach-retreat","228","2200464","0.0-228.0","","","2-3","4261","40","1","Testing","Stims/Figures/71-J-0-1.bmp","ta:ka:ta","Up","40","4","8","1","P","J","80"
"","","approach-retreat","229","2207413","0.0-229.0","","","2-3","5436","37","1","Testing","Stims/Figures/71-C-30-1.bmp","nala:na","Left","37","4","9","1","S","J","81"
"","","approach-retreat","230","2213482","0.0-230.0","","","2-3","4555","40","0","Testing","Stims/Figures/93-J-0-1.bmp","ta:ka:ta","Down","38","4","10","1","P","J","82"
"","","approach-retreat","231","2220534","0.0-231.0","","","2-3","5536","37","0","Testing","Stims/Figures/84-J-0-2.bmp","ta:ka:ta","Left","39","4","11","1","P","J","83"
"","","approach-retreat","232","2226686","0.0-232.0","","","2-3","4641","38","1","Testing","Stims/Figures/102-J-10-4.bmp","ta:ka:ta","Down","38","4","12","1","P","J","84"
"","","approach-retreat","233","2232935","0.0-233.0","","","2-3","4726","37","0","Testing","Stims/Figures/128-J-10-3.bmp","ta:ka:ta","Left","39","4","13","1","P","J","85"
"","","approach-retreat","234","2241110","0.0-234.0","","","2-3","6663","40","0","Testing","Stims/Figures/87-C-20-4.bmp","nala:na","Up","38","4","14","1","S","J","86"
"","","approach-retreat","235","2247838","0.0-235.0","","","2-3","5221","40","0","Testing","Stims/Figures/57-C-30-1.bmp","nala:na","Up","38","4","15","1","S","J","87"
"","","approach-retreat","236","2254263","0.0-236.0","","","2-3","4902","37","0","Testing","Stims/Figures/93-C-30-1.bmp","nala:na","Right","39","4","16","1","S","J","88"
"","","approach-retreat","237","2261947","0.0-237.0","","","2-3","6164","40","1","Testing","Stims/Figures/118-C-20-2.bmp","nala:na","Down","40","4","17","1","S","J","89"
"","","approach-retreat","238","2268665","0.0-238.0","","","2-3","5203","37","0","Testing","Stims/Figures/87-J-10-4.bmp","ta:ka:ta","Left","39","4","18","1","P","J","90"
"","","approach-retreat","239","2275435","0.0-239.0","","","2-3","5248","37","0","Testing","Stims/Figures/139-C-20-2.bmp","nala:na","Right","39","4","19","1","S","J","91"
"","","approach-retreat","240","2281984","0.0-240.0","","","2-3","5034","39","1","Testing","Stims/Figures/44-C-30-3.bmp","nala:na","Right","39","4","20","1","S","J","92"
"","","approach-retreat","241","2290697","0.0-241.0","","","2-3","7194","38","1","Testing","Stims/Figures/7-C-20-4.bmp","nala:na","Up","38","4","21","1","S","J","93"
"","","approach-retreat","242","2296976","0.0-242.0","","","2-3","4758","38","0","Testing","Stims/Figures/128-C-30-3.bmp","nala:na","Down","40","4","22","1","S","J","94"
"","","approach-retreat","243","2302888","0.0-243.0","","","2-3","4402","40","0","Testing","Stims/Figures/118-J-0-2.bmp","ta:ka:ta","Down","38","4","23","1","P","J","95"
"","","approach-retreat","244","2310356","0.0-244.0","","","2-3","5958","38","0","Testing","Stims/Figures/144-C-30-3.bmp","nala:na","Down","40","4","24","1","S","J","96"
"25882","","survey-text","245","2336247","0.0-245.0","","{""Q0"":""0067/2018""}","","","","","","","","","","","","","","",""
