"rt","key_press","trial_type","trial_index","time_elapsed","internal_node_id","view_history","responses","Id","Rt","ResKeyCode","ResCorr","TrialType2","Image","Label","Location","CorrectResponse","Block","BlockTrial","Condition","LabelType","Subcondition","trialNum"
"71953","32","text","0","71960","0.0-0.0-0.0","","","","","","","","","","","","","","","","",""
"145797","","instructions","1","217763","0.0-1.0","[{""page_index"":0,""viewing_time"":145796}]","","","","","","","","","","","","","","","",""
"55926","","survey-multi-choice","2","273749","0.0-2.0","","{""Q0"":""Da"",""Q1"":""Da"",""Q2"":""Da"",""Q3"":""Da"",""Q4"":""Da"",""Q5"":""Da""}","","","","","","","","","","","","","","",""
"","","bio","3","286408","0.0-3.0","","{""age"":""20"",""gender"":""f"",""specify"":""""}","","","","","","","","","","","","","","",""
"","","approach-retreat","4","302307","0.0-4.0","","","2-1","14271","40","0","Training","Stims/Figures/128-C-30-3.bmp","zasaza","Up","38","1","1","8","C2","J","1"
"","","approach-retreat","5","311486","0.0-5.0","","","2-1","7659","40","0","Training","Stims/Figures/27-J-0-1.bmp","fa:fa:sha","Down","38","1","2","8","C1","J","2"
"","","approach-retreat","6","321185","0.0-6.0","","","2-1","8166","37","1","Training","Stims/Figures/19-C-20-4.bmp","za:saha","Left","37","1","3","8","C2","J","3"
"","","approach-retreat","7","330156","0.0-7.0","","","2-1","7448","38","0","Training","Stims/Figures/118-C-20-2.bmp","vashava","Down","40","1","4","8","C1","J","4"
"","","approach-retreat","8","336354","0.0-8.0","","","2-1","4690","39","1","Training","Stims/Figures/84-C-20-2.bmp","fasha:sha","Right","39","1","5","8","C1","J","5"
"","","approach-retreat","9","342406","0.0-9.0","","","2-1","4533","40","1","Training","Stims/Figures/27-C-30-1.bmp","fafa:sha","Down","40","1","6","8","C1","J","6"
"","","approach-retreat","10","348097","0.0-10.0","","","2-1","4175","40","0","Training","Stims/Figures/128-J-10-3.bmp","sa:sa:ha","Down","38","1","7","8","C2","J","7"
"","","approach-retreat","11","354586","0.0-11.0","","","2-1","4976","38","0","Training","Stims/Figures/74-J-10-4.bmp","sahaza","Up","40","1","8","8","C2","J","8"
"","","approach-retreat","12","360405","0.0-12.0","","","2-1","4297","40","1","Training","Stims/Figures/84-J-0-2.bmp","fa:sha:va","Up","40","1","9","8","C1","J","9"
"","","approach-retreat","13","368626","0.0-13.0","","","2-1","6697","38","0","Training","Stims/Figures/19-J-10-4.bmp","za:ha:ha","Up","40","1","10","8","C2","J","10"
"","","approach-retreat","14","374896","0.0-14.0","","","2-1","4738","39","0","Training","Stims/Figures/118-J-0-2.bmp","fa:shava","Right","37","1","11","8","C1","J","11"
"","","approach-retreat","15","381296","0.0-15.0","","","2-1","4883","37","1","Training","Stims/Figures/44-C-30-3.bmp","zahaza","Left","37","1","12","8","C2","J","12"
"","","approach-retreat","16","388315","0.0-16.0","","","2-1","5510","37","1","Training","Stims/Figures/74-C-20-4.bmp","sa:ha:ha","Left","37","1","13","8","C2","J","13"
"","","approach-retreat","17","394166","0.0-17.0","","","2-1","4325","39","0","Training","Stims/Figures/44-J-10-3.bmp","zasa:za","Right","37","1","14","8","C2","J","14"
"","","approach-retreat","18","402666","0.0-18.0","","","2-1","6992","39","1","Training","Stims/Figures/93-C-30-1.bmp","va:sha:va","Right","39","1","15","8","C1","J","15"
"","","approach-retreat","19","409396","0.0-19.0","","","2-1","5207","37","0","Training","Stims/Figures/93-J-0-1.bmp","vafa:va","Left","39","1","16","8","C1","J","16"
"","","approach-retreat","20","415217","0.0-20.0","","","2-1","4299","37","0","Training","Stims/Figures/84-J-0-2.bmp","fa:sha:va","Left","39","2","1","8","C1","J","17"
"","","approach-retreat","21","421615","0.0-21.0","","","2-1","4872","39","1","Training","Stims/Figures/118-C-20-2.bmp","vashava","Right","39","2","2","8","C1","J","18"
"","","approach-retreat","22","428016","0.0-22.0","","","2-1","4879","37","1","Training","Stims/Figures/27-C-30-1.bmp","fafa:sha","Left","37","2","3","8","C1","J","19"
"","","approach-retreat","23","434776","0.0-23.0","","","2-1","5237","40","0","Training","Stims/Figures/118-J-0-2.bmp","fa:shava","Down","38","2","4","8","C1","J","20"
"","","approach-retreat","24","440506","0.0-24.0","","","2-1","4202","38","1","Training","Stims/Figures/74-J-10-4.bmp","sahaza","Down","38","2","5","8","C2","J","21"
"","","approach-retreat","25","446566","0.0-25.0","","","2-1","4553","40","0","Training","Stims/Figures/128-J-10-3.bmp","sa:sa:ha","Down","38","2","6","8","C2","J","22"
"","","approach-retreat","26","452615","0.0-26.0","","","2-1","4540","38","0","Training","Stims/Figures/93-J-0-1.bmp","vafa:va","Up","40","2","7","8","C1","J","23"
"","","approach-retreat","27","458195","0.0-27.0","","","2-1","4059","39","0","Training","Stims/Figures/19-J-10-4.bmp","za:ha:ha","Right","37","2","8","8","C2","J","24"
"","","approach-retreat","28","464244","0.0-28.0","","","2-1","4533","39","1","Training","Stims/Figures/19-C-20-4.bmp","za:saha","Right","39","2","9","8","C2","J","25"
"","","approach-retreat","29","470625","0.0-29.0","","","2-1","4864","39","1","Training","Stims/Figures/27-J-0-1.bmp","fa:fa:sha","Left","39","2","10","8","C1","J","26"
"","","approach-retreat","30","476525","0.0-30.0","","","2-1","4397","39","1","Training","Stims/Figures/74-C-20-4.bmp","sa:ha:ha","Right","39","2","11","8","C2","J","27"
"","","approach-retreat","31","482556","0.0-31.0","","","2-1","4515","40","1","Training","Stims/Figures/93-C-30-1.bmp","va:sha:va","Down","40","2","12","8","C1","J","28"
"","","approach-retreat","32","488465","0.0-32.0","","","2-1","4398","40","1","Training","Stims/Figures/44-J-10-3.bmp","zasa:za","Up","40","2","13","8","C2","J","29"
"","","approach-retreat","33","496025","0.0-33.0","","","2-1","6044","40","0","Training","Stims/Figures/84-C-20-2.bmp","fasha:sha","Up","38","2","14","8","C1","J","30"
"","","approach-retreat","34","501805","0.0-34.0","","","2-1","4263","39","0","Training","Stims/Figures/128-C-30-3.bmp","zasaza","Left","37","2","15","8","C2","J","31"
"","","approach-retreat","35","507556","0.0-35.0","","","2-1","4234","40","0","Training","Stims/Figures/44-C-30-3.bmp","zahaza","Up","38","2","16","8","C2","J","32"
"","","approach-retreat","36","513475","0.0-36.0","","","2-1","4402","39","1","Training","Stims/Figures/84-J-0-2.bmp","fa:sha:va","Left","39","3","1","8","C1","J","33"
"","","approach-retreat","37","519455","0.0-37.0","","","2-1","4451","37","0","Training","Stims/Figures/74-C-20-4.bmp","sa:ha:ha","Right","39","3","2","8","C2","J","34"
"","","approach-retreat","38","525285","0.0-38.0","","","2-1","4310","39","1","Training","Stims/Figures/74-J-10-4.bmp","sahaza","Left","39","3","3","8","C2","J","35"
"","","approach-retreat","39","531755","0.0-39.0","","","2-1","4958","38","1","Training","Stims/Figures/44-C-30-3.bmp","zahaza","Up","38","3","4","8","C2","J","36"
"","","approach-retreat","40","537655","0.0-40.0","","","2-1","4386","40","0","Training","Stims/Figures/93-J-0-1.bmp","vafa:va","Down","38","3","5","8","C1","J","37"
"","","approach-retreat","41","543345","0.0-41.0","","","2-1","4163","37","0","Training","Stims/Figures/27-C-30-1.bmp","fafa:sha","Right","39","3","6","8","C1","J","38"
"","","approach-retreat","42","549105","0.0-42.0","","","2-1","4242","38","0","Training","Stims/Figures/84-C-20-2.bmp","fasha:sha","Down","40","3","7","8","C1","J","39"
"","","approach-retreat","43","554935","0.0-43.0","","","2-1","4320","40","0","Training","Stims/Figures/118-C-20-2.bmp","vashava","Up","38","3","8","8","C1","J","40"
"","","approach-retreat","44","560836","0.0-44.0","","","2-1","4386","39","0","Training","Stims/Figures/19-J-10-4.bmp","za:ha:ha","Right","37","3","9","8","C2","J","41"
"","","approach-retreat","45","566745","0.0-45.0","","","2-1","4395","37","0","Training","Stims/Figures/128-J-10-3.bmp","sa:sa:ha","Left","39","3","10","8","C2","J","42"
"","","approach-retreat","46","572625","0.0-46.0","","","2-1","4359","38","1","Training","Stims/Figures/93-C-30-1.bmp","va:sha:va","Up","38","3","11","8","C1","J","43"
"","","approach-retreat","47","578925","0.0-47.0","","","2-1","4778","38","0","Training","Stims/Figures/27-J-0-1.bmp","fa:fa:sha","Up","40","3","12","8","C1","J","44"
"","","approach-retreat","48","584995","0.0-48.0","","","2-1","4555","40","0","Training","Stims/Figures/44-J-10-3.bmp","zasa:za","Down","38","3","13","8","C2","J","45"
"","","approach-retreat","49","590965","0.0-49.0","","","2-1","4454","39","1","Training","Stims/Figures/128-C-30-3.bmp","zasaza","Right","39","3","14","8","C2","J","46"
"","","approach-retreat","50","597115","0.0-50.0","","","2-1","4640","40","1","Training","Stims/Figures/19-C-20-4.bmp","za:saha","Down","40","3","15","8","C2","J","47"
"","","approach-retreat","51","602895","0.0-51.0","","","2-1","4256","37","0","Training","Stims/Figures/118-J-0-2.bmp","fa:shava","Left","39","3","16","8","C1","J","48"
"","","approach-retreat","52","609375","0.0-52.0","","","2-1","4956","37","1","Training","Stims/Figures/19-C-20-4.bmp","za:saha","Left","37","4","1","8","C2","J","49"
"","","approach-retreat","53","616055","0.0-53.0","","","2-1","5168","38","0","Training","Stims/Figures/118-J-0-2.bmp","fa:shava","Up","40","4","2","8","C1","J","50"
"","","approach-retreat","54","622125","0.0-54.0","","","2-1","4551","37","0","Training","Stims/Figures/44-C-30-3.bmp","zahaza","Right","39","4","3","8","C2","J","51"
"","","approach-retreat","55","628835","0.0-55.0","","","2-1","5190","40","0","Training","Stims/Figures/74-J-10-4.bmp","sahaza","Down","38","4","4","8","C2","J","52"
"","","approach-retreat","56","635055","0.0-56.0","","","2-1","4707","37","0","Training","Stims/Figures/93-C-30-1.bmp","va:sha:va","Right","39","4","5","8","C1","J","53"
"","","approach-retreat","57","640905","0.0-57.0","","","2-1","4332","37","0","Training","Stims/Figures/74-C-20-4.bmp","sa:ha:ha","Right","39","4","6","8","C2","J","54"
"","","approach-retreat","58","653866","0.0-58.0","","","2-1","11453","37","0","Training","Stims/Figures/93-J-0-1.bmp","vafa:va","Left","39","4","7","8","C1","J","55"
"","","approach-retreat","59","661865","0.0-59.0","","","2-1","6477","38","1","Training","Stims/Figures/128-C-30-3.bmp","zasaza","Up","38","4","8","8","C2","J","56"
"","","approach-retreat","60","667965","0.0-60.0","","","2-1","4584","37","0","Training","Stims/Figures/27-J-0-1.bmp","fa:fa:sha","Left","39","4","9","8","C1","J","57"
"","","approach-retreat","61","674204","0.0-61.0","","","2-1","4734","39","1","Training","Stims/Figures/84-J-0-2.bmp","fa:sha:va","Left","39","4","10","8","C1","J","58"
"","","approach-retreat","62","681355","0.0-62.0","","","2-1","5629","38","1","Training","Stims/Figures/19-J-10-4.bmp","za:ha:ha","Down","38","4","11","8","C2","J","59"
"","","approach-retreat","63","687165","0.0-63.0","","","2-1","4296","40","0","Training","Stims/Figures/27-C-30-1.bmp","fafa:sha","Up","38","4","12","8","C1","J","60"
"","","approach-retreat","64","693026","0.0-64.0","","","2-1","4357","40","1","Training","Stims/Figures/128-J-10-3.bmp","sa:sa:ha","Up","40","4","13","8","C2","J","61"
"","","approach-retreat","65","699365","0.0-65.0","","","2-1","4826","38","0","Training","Stims/Figures/84-C-20-2.bmp","fasha:sha","Down","40","4","14","8","C1","J","62"
"","","approach-retreat","66","705725","0.0-66.0","","","2-1","4849","38","0","Training","Stims/Figures/118-C-20-2.bmp","vashava","Down","40","4","15","8","C1","J","63"
"","","approach-retreat","67","711685","0.0-67.0","","","2-1","4438","39","0","Training","Stims/Figures/44-J-10-3.bmp","zasa:za","Right","37","4","16","8","C2","J","64"
"","","approach-retreat","68","717395","0.0-68.0","","","2-1","4197","39","0","Training","Stims/Figures/118-C-20-2.bmp","vashava","Left","37","5","1","8","C1","J","65"
"","","approach-retreat","69","723745","0.0-69.0","","","2-1","4831","39","1","Training","Stims/Figures/84-J-0-2.bmp","fa:sha:va","Left","39","5","2","8","C1","J","66"
"","","approach-retreat","70","729816","0.0-70.0","","","2-1","4557","38","1","Training","Stims/Figures/128-J-10-3.bmp","sa:sa:ha","Down","38","5","3","8","C2","J","67"
"","","approach-retreat","71","735624","0.0-71.0","","","2-1","4283","38","1","Training","Stims/Figures/118-J-0-2.bmp","fa:shava","Down","38","5","4","8","C1","J","68"
"","","approach-retreat","72","741745","0.0-72.0","","","2-1","4599","39","1","Training","Stims/Figures/128-C-30-3.bmp","zasaza","Right","39","5","5","8","C2","J","69"
"","","approach-retreat","73","749235","0.0-73.0","","","2-1","5966","40","1","Training","Stims/Figures/93-C-30-1.bmp","va:sha:va","Down","40","5","6","8","C1","J","70"
"","","approach-retreat","74","754885","0.0-74.0","","","2-1","4144","39","1","Training","Stims/Figures/27-C-30-1.bmp","fafa:sha","Right","39","5","7","8","C1","J","71"
"","","approach-retreat","75","761395","0.0-75.0","","","2-1","4998","39","0","Training","Stims/Figures/84-C-20-2.bmp","fasha:sha","Left","37","5","8","8","C1","J","72"
"","","approach-retreat","76","768155","0.0-76.0","","","2-1","5244","39","1","Training","Stims/Figures/74-C-20-4.bmp","sa:ha:ha","Right","39","5","9","8","C2","J","73"
"","","approach-retreat","77","774455","0.0-77.0","","","2-1","4794","37","1","Training","Stims/Figures/27-J-0-1.bmp","fa:fa:sha","Right","37","5","10","8","C1","J","74"
"","","approach-retreat","78","781275","0.0-78.0","","","2-1","5302","39","1","Training","Stims/Figures/74-J-10-4.bmp","sahaza","Left","39","5","11","8","C2","J","75"
"","","approach-retreat","79","790065","0.0-79.0","","","2-1","7275","38","1","Training","Stims/Figures/19-C-20-4.bmp","za:saha","Up","38","5","12","8","C2","J","76"
"","","approach-retreat","80","796125","0.0-80.0","","","2-1","4540","40","1","Training","Stims/Figures/44-J-10-3.bmp","zasa:za","Up","40","5","13","8","C2","J","77"
"","","approach-retreat","81","802325","0.0-81.0","","","2-1","4693","38","1","Training","Stims/Figures/44-C-30-3.bmp","zahaza","Up","38","5","14","8","C2","J","78"
"","","approach-retreat","82","808344","0.0-82.0","","","2-1","4505","40","0","Training","Stims/Figures/19-J-10-4.bmp","za:ha:ha","Down","38","5","15","8","C2","J","79"
"","","approach-retreat","83","814125","0.0-83.0","","","2-1","4261","38","0","Training","Stims/Figures/93-J-0-1.bmp","vafa:va","Up","40","5","16","8","C1","J","80"
"","","approach-retreat","84","819945","0.0-84.0","","","2-1","4312","39","1","Training","Stims/Figures/27-C-30-1.bmp","fafa:sha","Right","39","6","1","8","C1","J","81"
"","","approach-retreat","85","825945","0.0-85.0","","","2-1","4490","40","1","Training","Stims/Figures/74-J-10-4.bmp","sahaza","Up","40","6","2","8","C2","J","82"
"","","approach-retreat","86","831595","0.0-86.0","","","2-1","4127","39","1","Training","Stims/Figures/128-C-30-3.bmp","zasaza","Right","39","6","3","8","C2","J","83"
"","","approach-retreat","87","838264","0.0-87.0","","","2-1","5145","37","0","Training","Stims/Figures/19-J-10-4.bmp","za:ha:ha","Left","39","6","4","8","C2","J","84"
"","","approach-retreat","88","846485","0.0-88.0","","","2-1","6695","38","0","Training","Stims/Figures/84-J-0-2.bmp","fa:sha:va","Up","40","6","5","8","C1","J","85"
"","","approach-retreat","89","852675","0.0-89.0","","","2-1","4680","39","1","Training","Stims/Figures/84-C-20-2.bmp","fasha:sha","Right","39","6","6","8","C1","J","86"
"","","approach-retreat","90","858975","0.0-90.0","","","2-1","4788","40","0","Training","Stims/Figures/118-J-0-2.bmp","fa:shava","Down","38","6","7","8","C1","J","87"
"","","approach-retreat","91","879985","0.0-91.0","","","2-1","19495","38","1","Training","Stims/Figures/128-J-10-3.bmp","sa:sa:ha","Down","38","6","8","8","C2","J","88"
"","","approach-retreat","92","886195","0.0-92.0","","","2-1","4693","37","0","Training","Stims/Figures/93-C-30-1.bmp","va:sha:va","Right","39","6","9","8","C1","J","89"
"","","approach-retreat","93","892385","0.0-93.0","","","2-1","4671","37","1","Training","Stims/Figures/74-C-20-4.bmp","sa:ha:ha","Left","37","6","10","8","C2","J","90"
"","","approach-retreat","94","898428","0.0-94.0","","","2-1","4526","37","0","Training","Stims/Figures/93-J-0-1.bmp","vafa:va","Left","39","6","11","8","C1","J","91"
"","","approach-retreat","95","946175","0.0-95.0","","","2-1","46226","37","1","Training","Stims/Figures/19-C-20-4.bmp","za:saha","Left","37","6","12","8","C2","J","92"
"","","approach-retreat","96","952184","0.0-96.0","","","2-1","4495","40","0","Training","Stims/Figures/44-C-30-3.bmp","zahaza","Up","38","6","13","8","C2","J","93"
"","","approach-retreat","97","957975","0.0-97.0","","","2-1","4276","38","1","Training","Stims/Figures/27-J-0-1.bmp","fa:fa:sha","Down","38","6","14","8","C1","J","94"
"","","approach-retreat","98","963964","0.0-98.0","","","2-1","4477","40","0","Training","Stims/Figures/44-J-10-3.bmp","zasa:za","Down","38","6","15","8","C2","J","95"
"","","approach-retreat","99","970625","0.0-99.0","","","2-1","5152","38","1","Training","Stims/Figures/118-C-20-2.bmp","vashava","Up","38","6","16","8","C1","J","96"
"","","approach-retreat","100","976515","0.0-100.0","","","2-1","4364","38","1","Training","Stims/Figures/44-J-10-3.bmp","zasa:za","Down","38","7","1","8","C2","J","97"
"","","approach-retreat","101","982924","0.0-101.0","","","2-1","4894","38","0","Training","Stims/Figures/19-C-20-4.bmp","za:saha","Down","40","7","2","8","C2","J","98"
"","","approach-retreat","102","1111664","0.0-102.0","","","2-1","127229","37","0","Training","Stims/Figures/74-J-10-4.bmp","sahaza","Left","39","7","3","8","C2","J","99"
"","","approach-retreat","103","1117514","0.0-103.0","","","2-1","4321","40","0","Training","Stims/Figures/93-C-30-1.bmp","va:sha:va","Up","38","7","4","8","C1","J","100"
"","","approach-retreat","104","1123504","0.0-104.0","","","2-1","4481","39","1","Training","Stims/Figures/118-J-0-2.bmp","fa:shava","Left","39","7","5","8","C1","J","101"
"","","approach-retreat","105","1129394","0.0-105.0","","","2-1","4374","37","1","Training","Stims/Figures/27-C-30-1.bmp","fafa:sha","Left","37","7","6","8","C1","J","102"
"","","approach-retreat","106","1136014","0.0-106.0","","","2-1","5109","39","1","Training","Stims/Figures/118-C-20-2.bmp","vashava","Right","39","7","7","8","C1","J","103"
"","","approach-retreat","107","1141763","0.0-107.0","","","2-1","4227","39","0","Training","Stims/Figures/93-J-0-1.bmp","vafa:va","Right","37","7","8","8","C1","J","104"
"","","approach-retreat","108","1147514","0.0-108.0","","","2-1","4227","38","1","Training","Stims/Figures/44-C-30-3.bmp","zahaza","Up","38","7","9","8","C2","J","105"
"","","approach-retreat","109","1153314","0.0-109.0","","","2-1","4281","38","0","Training","Stims/Figures/74-C-20-4.bmp","sa:ha:ha","Down","40","7","10","8","C2","J","106"
"","","approach-retreat","110","1159064","0.0-110.0","","","2-1","4227","38","0","Training","Stims/Figures/27-J-0-1.bmp","fa:fa:sha","Up","40","7","11","8","C1","J","107"
"","","approach-retreat","111","1164454","0.0-111.0","","","2-1","3884","39","0","Training","Stims/Figures/128-J-10-3.bmp","sa:sa:ha","Right","37","7","12","8","C2","J","108"
"","","approach-retreat","112","1171235","0.0-112.0","","","2-1","5252","38","0","Training","Stims/Figures/84-J-0-2.bmp","fa:sha:va","Up","40","7","13","8","C1","J","109"
"","","approach-retreat","113","1177194","0.0-113.0","","","2-1","4448","39","1","Training","Stims/Figures/84-C-20-2.bmp","fasha:sha","Right","39","7","14","8","C1","J","110"
"","","approach-retreat","114","1183994","0.0-114.0","","","2-1","5282","39","1","Training","Stims/Figures/19-J-10-4.bmp","za:ha:ha","Left","39","7","15","8","C2","J","111"
"","","approach-retreat","115","1189854","0.0-115.0","","","2-1","4344","38","0","Training","Stims/Figures/128-C-30-3.bmp","zasaza","Down","40","7","16","8","C2","J","112"
"","","approach-retreat","116","1198804","0.0-116.0","","","2-1","7423","40","1","Training","Stims/Figures/128-C-30-3.bmp","zasaza","Down","40","8","1","8","C2","J","113"
"","","approach-retreat","117","1204745","0.0-117.0","","","2-1","4424","37","1","Training","Stims/Figures/74-C-20-4.bmp","sa:ha:ha","Left","37","8","2","8","C2","J","114"
"","","approach-retreat","118","1210624","0.0-118.0","","","2-1","4349","38","0","Training","Stims/Figures/118-J-0-2.bmp","fa:shava","Up","40","8","3","8","C1","J","115"
"","","approach-retreat","119","1216883","0.0-119.0","","","2-1","4752","40","0","Training","Stims/Figures/27-C-30-1.bmp","fafa:sha","Up","38","8","4","8","C1","J","116"
"","","approach-retreat","120","1222844","0.0-120.0","","","2-1","4450","38","1","Training","Stims/Figures/84-J-0-2.bmp","fa:sha:va","Down","38","8","5","8","C1","J","117"
"","","approach-retreat","121","1228674","0.0-121.0","","","2-1","4305","37","0","Training","Stims/Figures/44-J-10-3.bmp","zasa:za","Left","39","8","6","8","C2","J","118"
"","","approach-retreat","122","1234524","0.0-122.0","","","2-1","4330","39","1","Training","Stims/Figures/19-C-20-4.bmp","za:saha","Right","39","8","7","8","C2","J","119"
"","","approach-retreat","123","1240295","0.0-123.0","","","2-1","4250","39","1","Training","Stims/Figures/93-C-30-1.bmp","va:sha:va","Right","39","8","8","8","C1","J","120"
"","","approach-retreat","124","1246104","0.0-124.0","","","2-1","4296","38","1","Training","Stims/Figures/84-C-20-2.bmp","fasha:sha","Up","38","8","9","8","C1","J","121"
"","","approach-retreat","125","1251704","0.0-125.0","","","2-1","4078","37","0","Training","Stims/Figures/74-J-10-4.bmp","sahaza","Left","39","8","10","8","C2","J","122"
"","","approach-retreat","126","1257864","0.0-126.0","","","2-1","4636","38","0","Training","Stims/Figures/44-C-30-3.bmp","zahaza","Down","40","8","11","8","C2","J","123"
"","","approach-retreat","127","1264084","0.0-127.0","","","2-1","4701","38","0","Training","Stims/Figures/19-J-10-4.bmp","za:ha:ha","Up","40","8","12","8","C2","J","124"
"","","approach-retreat","128","1270634","0.0-128.0","","","2-1","5037","40","0","Training","Stims/Figures/128-J-10-3.bmp","sa:sa:ha","Down","38","8","13","8","C2","J","125"
"","","approach-retreat","129","1276736","0.0-129.0","","","2-1","4583","39","1","Training","Stims/Figures/118-C-20-2.bmp","vashava","Right","39","8","14","8","C1","J","126"
"","","approach-retreat","130","1282304","0.0-130.0","","","2-1","4042","37","1","Training","Stims/Figures/93-J-0-1.bmp","vafa:va","Right","37","8","15","8","C1","J","127"
"","","approach-retreat","131","1287994","0.0-131.0","","","2-1","4175","37","0","Training","Stims/Figures/27-J-0-1.bmp","fa:fa:sha","Left","39","8","16","8","C1","J","128"
"","","approach-retreat","132","1294274","0.0-132.0","","","2-1","4761","39","1","Training","Stims/Figures/118-C-20-2.bmp","vashava","Right","39","9","1","8","C1","J","129"
"","","approach-retreat","133","1300484","0.0-133.0","","","2-1","4699","37","0","Training","Stims/Figures/128-C-30-3.bmp","zasaza","Right","39","9","2","8","C2","J","130"
"","","approach-retreat","134","1306544","0.0-134.0","","","2-1","4540","38","0","Training","Stims/Figures/93-J-0-1.bmp","vafa:va","Up","40","9","3","8","C1","J","131"
"","","approach-retreat","135","1312174","0.0-135.0","","","2-1","4114","39","0","Training","Stims/Figures/128-J-10-3.bmp","sa:sa:ha","Right","37","9","4","8","C2","J","132"
"","","approach-retreat","136","1317914","0.0-136.0","","","2-1","4215","37","1","Training","Stims/Figures/44-C-30-3.bmp","zahaza","Left","37","9","5","8","C2","J","133"
"","","approach-retreat","137","1323873","0.0-137.0","","","2-1","4452","40","1","Training","Stims/Figures/19-C-20-4.bmp","za:saha","Down","40","9","6","8","C2","J","134"
"","","approach-retreat","138","1329404","0.0-138.0","","","2-1","4022","37","1","Training","Stims/Figures/84-C-20-2.bmp","fasha:sha","Left","37","9","7","8","C1","J","135"
"","","approach-retreat","139","1335634","0.0-139.0","","","2-1","4705","38","1","Training","Stims/Figures/19-J-10-4.bmp","za:ha:ha","Down","38","9","8","8","C2","J","136"
"","","approach-retreat","140","1341294","0.0-140.0","","","2-1","4147","40","1","Training","Stims/Figures/74-J-10-4.bmp","sahaza","Up","40","9","9","8","C2","J","137"
"","","approach-retreat","141","1347623","0.0-141.0","","","2-1","4814","39","0","Training","Stims/Figures/27-J-0-1.bmp","fa:fa:sha","Right","37","9","10","8","C1","J","138"
"","","approach-retreat","142","1353684","0.0-142.0","","","2-1","4549","40","1","Training","Stims/Figures/84-J-0-2.bmp","fa:sha:va","Up","40","9","11","8","C1","J","139"
"","","approach-retreat","143","1360624","0.0-143.0","","","2-1","5426","37","1","Training","Stims/Figures/74-C-20-4.bmp","sa:ha:ha","Left","37","9","12","8","C2","J","140"
"","","approach-retreat","144","1367434","0.0-144.0","","","2-1","5290","38","0","Training","Stims/Figures/118-J-0-2.bmp","fa:shava","Up","40","9","13","8","C1","J","141"
"","","approach-retreat","145","1373544","0.0-145.0","","","2-1","4588","37","0","Training","Stims/Figures/44-J-10-3.bmp","zasa:za","Left","39","9","14","8","C2","J","142"
"","","approach-retreat","146","1379386","0.0-146.0","","","2-1","4329","40","1","Training","Stims/Figures/27-C-30-1.bmp","fafa:sha","Down","40","9","15","8","C1","J","143"
"","","approach-retreat","147","1385264","0.0-147.0","","","2-1","4359","40","1","Training","Stims/Figures/93-C-30-1.bmp","va:sha:va","Down","40","9","16","8","C1","J","144"
"54660","","instructions","148","1439924","0.0-148.0","[{""page_index"":0,""viewing_time"":54659}]","","","","","","","","","","","","","","","",""
"","","approach-retreat","149","1446554","0.0-149.0","","","2-1","5115","38","1","Testing","Stims/Figures/118-C-20-2.bmp","vashava","Up","38","1","1","8","C1","J","1"
"","","approach-retreat","150","1454314","0.0-150.0","","","2-1","6252","39","1","Testing","Stims/Figures/128-C-30-3.bmp","zasaza","Right","39","1","2","8","C2","J","2"
"","","approach-retreat","151","1460234","0.0-151.0","","","2-1","4414","38","0","Testing","Stims/Figures/74-C-20-4.bmp","sa:ha:ha","Down","40","1","3","8","C2","J","3"
"","","approach-retreat","152","1468614","0.0-152.0","","","2-1","6872","40","1","Testing","Stims/Figures/102-J-10-4.bmp","sahaha","Up","40","1","4","8","C2","J","4"
"","","approach-retreat","153","1474933","0.0-153.0","","","2-1","4797","39","0","Testing","Stims/Figures/84-J-0-2.bmp","fa:sha:va","Right","37","1","5","8","C1","J","5"
"","","approach-retreat","154","1480744","0.0-154.0","","","2-1","4292","38","1","Testing","Stims/Figures/93-C-30-1.bmp","va:sha:va","Up","38","1","6","8","C1","J","6"
"","","approach-retreat","155","1486503","0.0-155.0","","","2-1","4236","39","0","Testing","Stims/Figures/93-J-0-1.bmp","vafa:va","Right","37","1","7","8","C1","J","7"
"","","approach-retreat","156","1492494","0.0-156.0","","","2-1","4460","37","0","Testing","Stims/Figures/86-J-0-1.bmp","fashasha","Left","39","1","8","8","C1","J","8"
"","","approach-retreat","157","1498483","0.0-157.0","","","2-1","4475","40","0","Testing","Stims/Figures/139-J-0-2.bmp","va:fa:va","Down","38","1","9","8","C1","J","9"
"","","approach-retreat","158","1504333","0.0-158.0","","","2-1","4320","37","0","Testing","Stims/Figures/128-J-10-3.bmp","sa:sa:ha","Left","39","1","10","8","C2","J","10"
"","","approach-retreat","159","1511074","0.0-159.0","","","2-1","5224","37","1","Testing","Stims/Figures/118-J-0-2.bmp","fa:shava","Right","37","1","11","8","C1","J","11"
"","","approach-retreat","160","1516763","0.0-160.0","","","2-1","4166","37","0","Testing","Stims/Figures/44-C-30-3.bmp","zahaza","Right","39","1","12","8","C2","J","12"
"","","approach-retreat","161","1522444","0.0-161.0","","","2-1","4171","39","1","Testing","Stims/Figures/84-C-20-2.bmp","fasha:sha","Right","39","1","13","8","C1","J","13"
"","","approach-retreat","162","1528484","0.0-162.0","","","2-1","4526","40","0","Testing","Stims/Figures/100-J-10-3.bmp","zasa:ha","Down","38","1","14","8","C2","J","14"
"","","approach-retreat","163","1534424","0.0-163.0","","","2-1","4432","38","0","Testing","Stims/Figures/44-J-10-3.bmp","zasa:za","Up","40","1","15","8","C2","J","15"
"","","approach-retreat","164","1540144","0.0-164.0","","","2-1","4203","37","1","Testing","Stims/Figures/100-C-30-3.bmp","za:haza","Left","37","1","16","8","C2","J","16"
"","","approach-retreat","165","1545913","0.0-165.0","","","2-1","4250","40","0","Testing","Stims/Figures/74-J-10-4.bmp","sahaza","Down","38","1","17","8","C2","J","17"
"","","approach-retreat","166","1551623","0.0-166.0","","","2-1","4187","37","1","Testing","Stims/Figures/102-C-20-4.bmp","za:sa:za","Left","37","1","18","8","C2","J","18"
"","","approach-retreat","167","1557613","0.0-167.0","","","2-1","4473","40","0","Testing","Stims/Figures/19-C-20-4.bmp","za:saha","Up","38","1","19","8","C2","J","19"
"","","approach-retreat","168","1563693","0.0-168.0","","","2-1","4567","38","0","Testing","Stims/Figures/27-C-30-1.bmp","fafa:sha","Down","40","1","20","8","C1","J","20"
"","","approach-retreat","169","1569433","0.0-169.0","","","2-1","4218","38","0","Testing","Stims/Figures/86-C-30-1.bmp","fa:fa:va","Down","40","1","21","8","C1","J","21"
"","","approach-retreat","170","1575524","0.0-170.0","","","2-1","4563","39","1","Testing","Stims/Figures/19-J-10-4.bmp","za:ha:ha","Left","39","1","22","8","C2","J","22"
"","","approach-retreat","171","1581594","0.0-171.0","","","2-1","4542","37","0","Testing","Stims/Figures/27-J-0-1.bmp","fa:fa:sha","Left","39","1","23","8","C1","J","23"
"","","approach-retreat","172","1587273","0.0-172.0","","","2-1","4167","38","1","Testing","Stims/Figures/139-C-20-2.bmp","vasha:va","Up","38","1","24","8","C1","J","24"
"","","approach-retreat","173","1593773","0.0-173.0","","","2-1","4978","40","1","Testing","Stims/Figures/128-J-10-3.bmp","sa:sa:ha","Up","40","2","1","8","C2","J","25"
"","","approach-retreat","174","1599464","0.0-174.0","","","2-1","4165","39","1","Testing","Stims/Figures/139-C-20-2.bmp","vasha:va","Right","39","2","2","8","C1","J","26"
"","","approach-retreat","175","1606274","0.0-175.0","","","2-1","5291","37","1","Testing","Stims/Figures/74-J-10-4.bmp","sahaza","Right","37","2","3","8","C2","J","27"
"","","approach-retreat","176","1611863","0.0-176.0","","","2-1","4072","40","1","Testing","Stims/Figures/86-J-0-1.bmp","fashasha","Up","40","2","4","8","C1","J","28"
"","","approach-retreat","177","1618423","0.0-177.0","","","2-1","5034","38","1","Testing","Stims/Figures/86-C-30-1.bmp","fa:fa:va","Up","38","2","5","8","C1","J","29"
"","","approach-retreat","178","1624333","0.0-178.0","","","2-1","4388","38","1","Testing","Stims/Figures/128-C-30-3.bmp","zasaza","Up","38","2","6","8","C2","J","30"
"","","approach-retreat","179","1630813","0.0-179.0","","","2-1","4971","39","1","Testing","Stims/Figures/19-J-10-4.bmp","za:ha:ha","Left","39","2","7","8","C2","J","31"
"","","approach-retreat","180","1636723","0.0-180.0","","","2-1","4389","38","1","Testing","Stims/Figures/139-J-0-2.bmp","va:fa:va","Down","38","2","8","8","C1","J","32"
"","","approach-retreat","181","1642533","0.0-181.0","","","2-1","4290","37","0","Testing","Stims/Figures/19-C-20-4.bmp","za:saha","Right","39","2","9","8","C2","J","33"
"","","approach-retreat","182","1648883","0.0-182.0","","","2-1","4831","37","0","Testing","Stims/Figures/102-J-10-4.bmp","sahaha","Left","39","2","10","8","C2","J","34"
"","","approach-retreat","183","1654943","0.0-183.0","","","2-1","4554","39","0","Testing","Stims/Figures/93-C-30-1.bmp","va:sha:va","Left","37","2","11","8","C1","J","35"
"","","approach-retreat","184","1660984","0.0-184.0","","","2-1","4536","39","0","Testing","Stims/Figures/84-C-20-2.bmp","fasha:sha","Left","37","2","12","8","C1","J","36"
"","","approach-retreat","185","1666963","0.0-185.0","","","2-1","4457","40","0","Testing","Stims/Figures/44-J-10-3.bmp","zasa:za","Down","38","2","13","8","C2","J","37"
"","","approach-retreat","186","1673103","0.0-186.0","","","2-1","4627","38","1","Testing","Stims/Figures/100-C-30-3.bmp","za:haza","Up","38","2","14","8","C2","J","38"
"","","approach-retreat","187","1679553","0.0-187.0","","","2-1","4937","37","1","Testing","Stims/Figures/93-J-0-1.bmp","vafa:va","Right","37","2","15","8","C1","J","39"
"","","approach-retreat","188","1687643","0.0-188.0","","","2-1","6566","40","0","Testing","Stims/Figures/118-C-20-2.bmp","vashava","Up","38","2","16","8","C1","J","40"
"","","approach-retreat","189","1714064","0.0-189.0","","","2-1","24914","40","0","Testing","Stims/Figures/100-J-10-3.bmp","zasa:ha","Down","38","2","17","8","C2","J","41"
"","","approach-retreat","190","1719873","0.0-190.0","","","2-1","4287","39","1","Testing","Stims/Figures/102-C-20-4.bmp","za:sa:za","Right","39","2","18","8","C2","J","42"
"","","approach-retreat","191","1725693","0.0-191.0","","","2-1","4313","37","0","Testing","Stims/Figures/27-J-0-1.bmp","fa:fa:sha","Left","39","2","19","8","C1","J","43"
"","","approach-retreat","192","1731624","0.0-192.0","","","2-1","4422","38","0","Testing","Stims/Figures/74-C-20-4.bmp","sa:ha:ha","Down","40","2","20","8","C2","J","44"
"","","approach-retreat","193","1737183","0.0-193.0","","","2-1","4036","39","0","Testing","Stims/Figures/84-J-0-2.bmp","fa:sha:va","Right","37","2","21","8","C1","J","45"
"","","approach-retreat","194","1742913","0.0-194.0","","","2-1","4219","38","0","Testing","Stims/Figures/44-C-30-3.bmp","zahaza","Down","40","2","22","8","C2","J","46"
"","","approach-retreat","195","1749073","0.0-195.0","","","2-1","4643","40","1","Testing","Stims/Figures/27-C-30-1.bmp","fafa:sha","Down","40","2","23","8","C1","J","47"
"","","approach-retreat","196","1754824","0.0-196.0","","","2-1","4224","39","1","Testing","Stims/Figures/118-J-0-2.bmp","fa:shava","Left","39","2","24","8","C1","J","48"
"","","approach-retreat","197","1761074","0.0-197.0","","","2-1","4732","40","0","Testing","Stims/Figures/139-C-20-2.bmp","vasha:va","Up","38","3","1","8","C1","J","49"
"","","approach-retreat","198","1766644","0.0-198.0","","","2-1","4059","39","1","Testing","Stims/Figures/86-C-30-1.bmp","fa:fa:va","Right","39","3","2","8","C1","J","50"
"","","approach-retreat","199","1772392","0.0-199.0","","","2-1","4224","37","0","Testing","Stims/Figures/44-C-30-3.bmp","zahaza","Right","39","3","3","8","C2","J","51"
"","","approach-retreat","200","1778303","0.0-200.0","","","2-1","4387","38","1","Testing","Stims/Figures/86-J-0-1.bmp","fashasha","Down","38","3","4","8","C1","J","52"
"","","approach-retreat","201","1783842","0.0-201.0","","","2-1","4029","39","1","Testing","Stims/Figures/100-C-30-3.bmp","za:haza","Right","39","3","5","8","C2","J","53"
"","","approach-retreat","202","1789661","0.0-202.0","","","2-1","4299","39","1","Testing","Stims/Figures/44-J-10-3.bmp","zasa:za","Left","39","3","6","8","C2","J","54"
"","","approach-retreat","203","1795754","0.0-203.0","","","2-1","4571","37","0","Testing","Stims/Figures/93-J-0-1.bmp","vafa:va","Left","39","3","7","8","C1","J","55"
"","","approach-retreat","204","1801652","0.0-204.0","","","2-1","4390","37","1","Testing","Stims/Figures/128-J-10-3.bmp","sa:sa:ha","Right","37","3","8","8","C2","J","56"
"","","approach-retreat","205","1824673","0.0-205.0","","","2-1","21509","37","0","Testing","Stims/Figures/74-J-10-4.bmp","sahaza","Left","39","3","9","8","C2","J","57"
"","","approach-retreat","206","1843533","0.0-206.0","","","2-1","17344","40","1","Testing","Stims/Figures/74-C-20-4.bmp","sa:ha:ha","Down","40","3","10","8","C2","J","58"
"","","approach-retreat","207","1967475","0.0-207.0","","","2-1","122426","38","1","Testing","Stims/Figures/84-C-20-2.bmp","fasha:sha","Up","38","3","11","8","C1","J","59"
"","","approach-retreat","208","1973133","0.0-208.0","","","2-1","4136","37","0","Testing","Stims/Figures/128-C-30-3.bmp","zasaza","Right","39","3","12","8","C2","J","60"
"","","approach-retreat","209","1978832","0.0-209.0","","","2-1","4190","38","0","Testing","Stims/Figures/27-J-0-1.bmp","fa:fa:sha","Up","40","3","13","8","C1","J","61"
"","","approach-retreat","210","1984574","0.0-210.0","","","2-1","4218","38","1","Testing","Stims/Figures/19-C-20-4.bmp","za:saha","Up","38","3","14","8","C2","J","62"
"","","approach-retreat","211","1990453","0.0-211.0","","","2-1","4372","38","1","Testing","Stims/Figures/84-J-0-2.bmp","fa:sha:va","Down","38","3","15","8","C1","J","63"
"","","approach-retreat","212","1996332","0.0-212.0","","","2-1","4371","39","0","Testing","Stims/Figures/19-J-10-4.bmp","za:ha:ha","Right","37","3","16","8","C2","J","64"
"","","approach-retreat","213","2002142","0.0-213.0","","","2-1","4302","38","0","Testing","Stims/Figures/100-J-10-3.bmp","zasa:ha","Up","40","3","17","8","C2","J","65"
"","","approach-retreat","214","2008163","0.0-214.0","","","2-1","4511","37","1","Testing","Stims/Figures/102-C-20-4.bmp","za:sa:za","Left","37","3","18","8","C2","J","66"
"","","approach-retreat","215","2023713","0.0-215.0","","","2-1","14028","40","1","Testing","Stims/Figures/27-C-30-1.bmp","fafa:sha","Down","40","3","19","8","C1","J","67"
"","","approach-retreat","216","2031213","0.0-216.0","","","2-1","5988","38","0","Testing","Stims/Figures/139-J-0-2.bmp","va:fa:va","Up","40","3","20","8","C1","J","68"
"","","approach-retreat","217","2037492","0.0-217.0","","","2-1","4765","38","0","Testing","Stims/Figures/93-C-30-1.bmp","va:sha:va","Down","40","3","21","8","C1","J","69"
"","","approach-retreat","218","2043453","0.0-218.0","","","2-1","4444","39","0","Testing","Stims/Figures/118-C-20-2.bmp","vashava","Left","37","3","22","8","C1","J","70"
"","","approach-retreat","219","2049332","0.0-219.0","","","2-1","4360","37","0","Testing","Stims/Figures/102-J-10-4.bmp","sahaha","Left","39","3","23","8","C2","J","71"
"","","approach-retreat","220","2055822","0.0-220.0","","","2-1","4985","38","1","Testing","Stims/Figures/118-J-0-2.bmp","fa:shava","Down","38","3","24","8","C1","J","72"
"","","approach-retreat","221","2062713","0.0-221.0","","","2-1","5365","38","1","Testing","Stims/Figures/128-J-10-3.bmp","sa:sa:ha","Down","38","4","1","8","C2","J","73"
"","","approach-retreat","222","2068293","0.0-222.0","","","2-1","4073","40","0","Testing","Stims/Figures/19-J-10-4.bmp","za:ha:ha","Down","38","4","2","8","C2","J","74"
"","","approach-retreat","223","2073962","0.0-223.0","","","2-1","4158","37","0","Testing","Stims/Figures/118-C-20-2.bmp","vashava","Right","39","4","3","8","C1","J","75"
"","","approach-retreat","224","2079663","0.0-224.0","","","2-1","4187","38","1","Testing","Stims/Figures/86-C-30-1.bmp","fa:fa:va","Up","38","4","4","8","C1","J","76"
"","","approach-retreat","225","2085349","0.0-225.0","","","2-1","4170","37","1","Testing","Stims/Figures/74-C-20-4.bmp","sa:ha:ha","Left","37","4","5","8","C2","J","77"
"","","approach-retreat","226","2091272","0.0-226.0","","","2-1","4404","38","0","Testing","Stims/Figures/86-J-0-1.bmp","fashasha","Up","40","4","6","8","C1","J","78"
"","","approach-retreat","227","2097322","0.0-227.0","","","2-1","4530","37","1","Testing","Stims/Figures/100-C-30-3.bmp","za:haza","Left","37","4","7","8","C2","J","79"
"","","approach-retreat","228","2106033","0.0-228.0","","","2-1","7205","40","1","Testing","Stims/Figures/139-C-20-2.bmp","vasha:va","Down","40","4","8","8","C1","J","80"
"","","approach-retreat","229","2111682","0.0-229.0","","","2-1","4138","37","0","Testing","Stims/Figures/74-J-10-4.bmp","sahaza","Left","39","4","9","8","C2","J","81"
"","","approach-retreat","230","2117452","0.0-230.0","","","2-1","4252","38","1","Testing","Stims/Figures/93-C-30-1.bmp","va:sha:va","Up","38","4","10","8","C1","J","82"
"","","approach-retreat","231","2124512","0.0-231.0","","","2-1","5554","37","1","Testing","Stims/Figures/44-J-10-3.bmp","zasa:za","Right","37","4","11","8","C2","J","83"
"","","approach-retreat","232","2130523","0.0-232.0","","","2-1","4492","39","1","Testing","Stims/Figures/84-C-20-2.bmp","fasha:sha","Right","39","4","12","8","C1","J","84"
"","","approach-retreat","233","2137212","0.0-233.0","","","2-1","5177","37","0","Testing","Stims/Figures/19-C-20-4.bmp","za:saha","Right","39","4","13","8","C2","J","85"
"","","approach-retreat","234","2143063","0.0-234.0","","","2-1","4331","38","1","Testing","Stims/Figures/128-C-30-3.bmp","zasaza","Up","38","4","14","8","C2","J","86"
"","","approach-retreat","235","2151192","0.0-235.0","","","2-1","6605","38","0","Testing","Stims/Figures/102-C-20-4.bmp","za:sa:za","Down","40","4","15","8","C2","J","87"
"","","approach-retreat","236","2156552","0.0-236.0","","","2-1","3850","40","0","Testing","Stims/Figures/93-J-0-1.bmp","vafa:va","Down","38","4","16","8","C1","J","88"
"","","approach-retreat","237","2162172","0.0-237.0","","","2-1","4097","39","0","Testing","Stims/Figures/44-C-30-3.bmp","zahaza","Left","37","4","17","8","C2","J","89"
"","","approach-retreat","238","2168052","0.0-238.0","","","2-1","4353","38","1","Testing","Stims/Figures/100-J-10-3.bmp","zasa:ha","Down","38","4","18","8","C2","J","90"
"","","approach-retreat","239","2173602","0.0-239.0","","","2-1","4034","38","0","Testing","Stims/Figures/27-J-0-1.bmp","fa:fa:sha","Up","40","4","19","8","C1","J","91"
"","","approach-retreat","240","2179403","0.0-240.0","","","2-1","4291","37","1","Testing","Stims/Figures/102-J-10-4.bmp","sahaha","Right","37","4","20","8","C2","J","92"
"","","approach-retreat","241","2185292","0.0-241.0","","","2-1","4367","38","1","Testing","Stims/Figures/27-C-30-1.bmp","fafa:sha","Up","38","4","21","8","C1","J","93"
"","","approach-retreat","242","2190992","0.0-242.0","","","2-1","4187","39","0","Testing","Stims/Figures/84-J-0-2.bmp","fa:sha:va","Right","37","4","22","8","C1","J","94"
"","","approach-retreat","243","2197322","0.0-243.0","","","2-1","4819","39","1","Testing","Stims/Figures/118-J-0-2.bmp","fa:shava","Left","39","4","23","8","C1","J","95"
"","","approach-retreat","244","2203152","0.0-244.0","","","2-1","4312","37","0","Testing","Stims/Figures/139-J-0-2.bmp","va:fa:va","Left","39","4","24","8","C1","J","96"
"93013","","survey-text","245","2296177","0.0-245.0","","{""Q0"":""0084/2018""}","","","","","","","","","","","","","","",""
