"rt","key_press","trial_type","trial_index","time_elapsed","internal_node_id","view_history","responses","Id","Rt","ResKeyCode","ResCorr","TrialType2","Image","Label","Location","CorrectResponse","Block","BlockTrial","Condition","LabelType","Subcondition","trialNum"
"42799","32","text","0","42806","0.0-0.0-0.0","","","","","","","","","","","","","","","","",""
"117105","","instructions","1","159917","0.0-1.0","[{""page_index"":0,""viewing_time"":117104}]","","","","","","","","","","","","","","","",""
"37330","","survey-multi-choice","2","197363","0.0-2.0","","{""Q0"":""Da"",""Q1"":""Da"",""Q2"":""Da"",""Q3"":""Da"",""Q4"":""Da"",""Q5"":""Da""}","","","","","","","","","","","","","","",""
"","","bio","3","209292","0.0-3.0","","{""age"":""19"",""gender"":""f"",""specify"":""""}","","","","","","","","","","","","","","",""
"","","approach-retreat","4","218423","0.0-4.0","","","1-1","7448","40","1","Training","Stims/Figures/102-C-20-4.bmp","namala","Down","40","1","1","9","S","J","1"
"","","approach-retreat","5","227046","0.0-5.0","","","1-1","7108","38","0","Training","Stims/Figures/85-J-0-2.bmp","pa:kata","Up","40","1","2","9","P","J","2"
"","","approach-retreat","6","235812","0.0-6.0","","","1-1","7252","39","1","Training","Stims/Figures/128-J-10-3.bmp","tapata","Left","39","1","3","9","P","J","3"
"","","approach-retreat","7","244486","0.0-7.0","","","1-1","7165","39","1","Training","Stims/Figures/7-C-20-4.bmp","mala:la","Right","39","1","4","9","S","J","4"
"","","approach-retreat","8","252109","0.0-8.0","","","1-1","6109","40","0","Training","Stims/Figures/94-C-20-2.bmp","ta:pa:ta","Up","38","1","5","9","P","J","5"
"","","approach-retreat","9","262534","0.0-9.0","","","1-1","8913","40","0","Training","Stims/Figures/44-J-10-3.bmp","saha:ha","Down","38","1","6","9","C2","J","6"
"","","approach-retreat","10","272176","0.0-10.0","","","1-1","8128","37","0","Training","Stims/Figures/7-J-10-4.bmp","vafa:va","Left","39","1","7","9","C1","J","7"
"","","approach-retreat","11","283456","0.0-11.0","","","1-1","9768","40","0","Training","Stims/Figures/44-C-30-3.bmp","zaha:za","Up","38","1","8","9","C2","J","8"
"","","approach-retreat","12","297429","0.0-12.0","","","1-1","12459","37","0","Training","Stims/Figures/85-C-20-2.bmp","papa:ta","Right","39","1","9","9","P","J","9"
"","","approach-retreat","13","303564","0.0-13.0","","","1-1","4613","37","1","Training","Stims/Figures/27-J-0-1.bmp","fafa:sha","Right","37","1","10","9","C1","J","10"
"","","approach-retreat","14","309980","0.0-14.0","","","1-1","4903","39","0","Training","Stims/Figures/27-C-30-1.bmp","pa:ka:ka","Left","37","1","11","9","P","J","11"
"","","approach-retreat","15","316932","0.0-15.0","","","1-1","5438","37","1","Training","Stims/Figures/128-C-30-3.bmp","malala","Left","37","1","12","9","S","J","12"
"","","approach-retreat","16","323853","0.0-16.0","","","1-1","5406","37","1","Training","Stims/Figures/102-J-10-4.bmp","fasha:sha","Right","37","1","13","9","C1","J","13"
"","","approach-retreat","17","330533","0.0-17.0","","","1-1","5167","40","1","Training","Stims/Figures/86-J-0-1.bmp","zahaha","Up","40","1","14","9","C2","J","14"
"","","approach-retreat","18","339749","0.0-18.0","","","1-1","7703","40","0","Training","Stims/Figures/94-J-0-2.bmp","saha:za","Down","38","1","15","9","C2","J","15"
"","","approach-retreat","19","346854","0.0-19.0","","","1-1","5593","38","0","Training","Stims/Figures/86-C-30-1.bmp","fa:shasha","Down","40","1","16","9","C1","J","16"
"","","approach-retreat","20","356694","0.0-20.0","","","1-1","8326","40","0","Training","Stims/Figures/102-J-10-4.bmp","fasha:sha","Down","38","2","1","9","C1","J","17"
"","","approach-retreat","21","363508","0.0-21.0","","","1-1","5300","39","0","Training","Stims/Figures/86-C-30-1.bmp","fa:shasha","Left","37","2","2","9","C1","J","18"
"","","approach-retreat","22","376590","0.0-22.0","","","1-1","11568","40","0","Training","Stims/Figures/128-J-10-3.bmp","tapata","Down","38","2","3","9","P","J","19"
"","","approach-retreat","23","385135","0.0-23.0","","","1-1","7029","38","1","Training","Stims/Figures/44-J-10-3.bmp","saha:ha","Down","38","2","4","9","C2","J","20"
"","","approach-retreat","24","393725","0.0-24.0","","","1-1","7078","37","0","Training","Stims/Figures/27-J-0-1.bmp","fafa:sha","Left","39","2","5","9","C1","J","21"
"","","approach-retreat","25","402575","0.0-25.0","","","1-1","7335","37","0","Training","Stims/Figures/27-C-30-1.bmp","pa:ka:ka","Right","39","2","6","9","P","J","22"
"","","approach-retreat","26","413052","0.0-26.0","","","1-1","8964","38","0","Training","Stims/Figures/128-C-30-3.bmp","malala","Down","40","2","7","9","S","J","23"
"","","approach-retreat","27","424349","0.0-27.0","","","1-1","9783","39","0","Training","Stims/Figures/85-J-0-2.bmp","pa:kata","Right","37","2","8","9","P","J","24"
"","","approach-retreat","28","433107","0.0-28.0","","","1-1","7246","38","0","Training","Stims/Figures/7-J-10-4.bmp","vafa:va","Up","40","2","9","9","C1","J","25"
"","","approach-retreat","29","439677","0.0-29.0","","","1-1","5056","40","1","Training","Stims/Figures/86-J-0-1.bmp","zahaha","Up","40","2","10","9","C2","J","26"
"","","approach-retreat","30","446524","0.0-30.0","","","1-1","5333","39","1","Training","Stims/Figures/102-C-20-4.bmp","namala","Right","39","2","11","9","S","J","27"
"","","approach-retreat","31","454013","0.0-31.0","","","1-1","5977","38","1","Training","Stims/Figures/94-C-20-2.bmp","ta:pa:ta","Up","38","2","12","9","P","J","28"
"","","approach-retreat","32","461046","0.0-32.0","","","1-1","5517","39","1","Training","Stims/Figures/7-C-20-4.bmp","mala:la","Right","39","2","13","9","S","J","29"
"","","approach-retreat","33","469005","0.0-33.0","","","1-1","6448","37","1","Training","Stims/Figures/44-C-30-3.bmp","zaha:za","Left","37","2","14","9","C2","J","30"
"","","approach-retreat","34","476669","0.0-34.0","","","1-1","6151","40","1","Training","Stims/Figures/94-J-0-2.bmp","saha:za","Up","40","2","15","9","C2","J","31"
"","","approach-retreat","35","485662","0.0-35.0","","","1-1","7480","37","1","Training","Stims/Figures/85-C-20-2.bmp","papa:ta","Left","37","2","16","9","P","J","32"
"","","approach-retreat","36","494606","0.0-36.0","","","1-1","7430","37","0","Training","Stims/Figures/27-J-0-1.bmp","fafa:sha","Left","39","3","1","9","C1","J","33"
"","","approach-retreat","37","502325","0.0-37.0","","","1-1","6207","37","1","Training","Stims/Figures/102-J-10-4.bmp","fasha:sha","Right","37","3","2","9","C1","J","34"
"","","approach-retreat","38","509759","0.0-38.0","","","1-1","5919","37","1","Training","Stims/Figures/7-J-10-4.bmp","vafa:va","Right","37","3","3","9","C1","J","35"
"","","approach-retreat","39","516733","0.0-39.0","","","1-1","5461","37","1","Training","Stims/Figures/94-J-0-2.bmp","saha:za","Right","37","3","4","9","C2","J","36"
"","","approach-retreat","40","523076","0.0-40.0","","","1-1","4830","40","1","Training","Stims/Figures/128-J-10-3.bmp","tapata","Up","40","3","5","9","P","J","37"
"","","approach-retreat","41","530405","0.0-41.0","","","1-1","5815","38","1","Training","Stims/Figures/102-C-20-4.bmp","namala","Up","38","3","6","9","S","J","38"
"","","approach-retreat","42","539180","0.0-42.0","","","1-1","7263","40","1","Training","Stims/Figures/86-C-30-1.bmp","fa:shasha","Down","40","3","7","9","C1","J","39"
"","","approach-retreat","43","545853","0.0-43.0","","","1-1","5158","38","0","Training","Stims/Figures/86-J-0-1.bmp","zahaha","Up","40","3","8","9","C2","J","40"
"","","approach-retreat","44","553549","0.0-44.0","","","1-1","6183","39","0","Training","Stims/Figures/7-C-20-4.bmp","mala:la","Left","37","3","9","9","S","J","41"
"","","approach-retreat","45","561710","0.0-45.0","","","1-1","6648","38","0","Training","Stims/Figures/128-C-30-3.bmp","malala","Down","40","3","10","9","S","J","42"
"","","approach-retreat","46","569788","0.0-46.0","","","1-1","6566","39","0","Training","Stims/Figures/44-C-30-3.bmp","zaha:za","Left","37","3","11","9","C2","J","43"
"","","approach-retreat","47","577526","0.0-47.0","","","1-1","6225","39","1","Training","Stims/Figures/44-J-10-3.bmp","saha:ha","Left","39","3","12","9","C2","J","44"
"","","approach-retreat","48","585781","0.0-48.0","","","1-1","6743","39","0","Training","Stims/Figures/85-J-0-2.bmp","pa:kata","Right","37","3","13","9","P","J","45"
"","","approach-retreat","49","596078","0.0-49.0","","","1-1","8785","38","0","Training","Stims/Figures/85-C-20-2.bmp","papa:ta","Down","40","3","14","9","P","J","46"
"","","approach-retreat","50","604902","0.0-50.0","","","1-1","7311","38","0","Training","Stims/Figures/94-C-20-2.bmp","ta:pa:ta","Down","40","3","15","9","P","J","47"
"","","approach-retreat","51","613646","0.0-51.0","","","1-1","7231","40","0","Training","Stims/Figures/27-C-30-1.bmp","pa:ka:ka","Up","38","3","16","9","P","J","48"
"","","approach-retreat","52","622173","0.0-52.0","","","1-1","7014","37","1","Training","Stims/Figures/102-J-10-4.bmp","fasha:sha","Right","37","4","1","9","C1","J","49"
"","","approach-retreat","53","629894","0.0-53.0","","","1-1","6208","39","1","Training","Stims/Figures/7-J-10-4.bmp","vafa:va","Left","39","4","2","9","C1","J","50"
"","","approach-retreat","54","637685","0.0-54.0","","","1-1","6278","40","1","Training","Stims/Figures/86-J-0-1.bmp","zahaha","Up","40","4","3","9","C2","J","51"
"","","approach-retreat","55","643868","0.0-55.0","","","1-1","4672","39","1","Training","Stims/Figures/128-J-10-3.bmp","tapata","Left","39","4","4","9","P","J","52"
"","","approach-retreat","56","652341","0.0-56.0","","","1-1","6954","40","0","Training","Stims/Figures/44-J-10-3.bmp","saha:ha","Down","38","4","5","9","C2","J","53"
"","","approach-retreat","57","661084","0.0-57.0","","","1-1","7230","37","0","Training","Stims/Figures/86-C-30-1.bmp","fa:shasha","Right","39","4","6","9","C1","J","54"
"","","approach-retreat","58","667308","0.0-58.0","","","1-1","4712","39","1","Training","Stims/Figures/27-J-0-1.bmp","fafa:sha","Left","39","4","7","9","C1","J","55"
"","","approach-retreat","59","674917","0.0-59.0","","","1-1","6096","38","1","Training","Stims/Figures/7-C-20-4.bmp","mala:la","Up","38","4","8","9","S","J","56"
"","","approach-retreat","60","682332","0.0-60.0","","","1-1","5904","39","1","Training","Stims/Figures/85-C-20-2.bmp","papa:ta","Right","39","4","9","9","P","J","57"
"","","approach-retreat","61","690261","0.0-61.0","","","1-1","6418","37","0","Training","Stims/Figures/44-C-30-3.bmp","zaha:za","Right","39","4","10","9","C2","J","58"
"","","approach-retreat","62","700477","0.0-62.0","","","1-1","8704","38","0","Training","Stims/Figures/94-C-20-2.bmp","ta:pa:ta","Down","40","4","11","9","P","J","59"
"","","approach-retreat","63","710469","0.0-63.0","","","1-1","8469","38","0","Training","Stims/Figures/128-C-30-3.bmp","malala","Down","40","4","12","9","S","J","60"
"","","approach-retreat","64","720550","0.0-64.0","","","1-1","8568","38","1","Training","Stims/Figures/102-C-20-4.bmp","namala","Up","38","4","13","9","S","J","61"
"","","approach-retreat","65","731389","0.0-65.0","","","1-1","9326","38","0","Training","Stims/Figures/94-J-0-2.bmp","saha:za","Up","40","4","14","9","C2","J","62"
"","","approach-retreat","66","738909","0.0-66.0","","","1-1","6007","39","0","Training","Stims/Figures/27-C-30-1.bmp","pa:ka:ka","Left","37","4","15","9","P","J","63"
"","","approach-retreat","67","748782","0.0-67.0","","","1-1","8360","40","0","Training","Stims/Figures/85-J-0-2.bmp","pa:kata","Down","38","4","16","9","P","J","64"
"","","approach-retreat","68","758373","0.0-68.0","","","1-1","8079","37","0","Training","Stims/Figures/27-C-30-1.bmp","pa:ka:ka","Right","39","5","1","9","P","J","65"
"","","approach-retreat","69","771302","0.0-69.0","","","1-1","11417","37","0","Training","Stims/Figures/44-J-10-3.bmp","saha:ha","Left","39","5","2","9","C2","J","66"
"","","approach-retreat","70","783413","0.0-70.0","","","1-1","10600","39","1","Training","Stims/Figures/86-C-30-1.bmp","fa:shasha","Right","39","5","3","9","C1","J","67"
"","","approach-retreat","71","790332","0.0-71.0","","","1-1","5408","38","1","Training","Stims/Figures/86-J-0-1.bmp","zahaha","Down","38","5","4","9","C2","J","68"
"","","approach-retreat","72","797044","0.0-72.0","","","1-1","5199","38","1","Training","Stims/Figures/102-C-20-4.bmp","namala","Up","38","5","5","9","S","J","69"
"","","approach-retreat","73","809525","0.0-73.0","","","1-1","10966","37","0","Training","Stims/Figures/44-C-30-3.bmp","zaha:za","Right","39","5","6","9","C2","J","70"
"","","approach-retreat","74","820021","0.0-74.0","","","1-1","8985","38","0","Training","Stims/Figures/102-J-10-4.bmp","fasha:sha","Up","40","5","7","9","C1","J","71"
"","","approach-retreat","75","826748","0.0-75.0","","","1-1","5215","37","0","Training","Stims/Figures/94-C-20-2.bmp","ta:pa:ta","Right","39","5","8","9","P","J","72"
"","","approach-retreat","76","838909","0.0-76.0","","","1-1","10648","38","0","Training","Stims/Figures/27-J-0-1.bmp","fafa:sha","Up","40","5","9","9","C1","J","73"
"","","approach-retreat","77","847733","0.0-77.0","","","1-1","7310","37","1","Training","Stims/Figures/7-C-20-4.bmp","mala:la","Left","37","5","10","9","S","J","74"
"","","approach-retreat","78","855910","0.0-78.0","","","1-1","6665","40","1","Training","Stims/Figures/94-J-0-2.bmp","saha:za","Up","40","5","11","9","C2","J","75"
"","","approach-retreat","79","864269","0.0-79.0","","","1-1","6845","37","0","Training","Stims/Figures/85-J-0-2.bmp","pa:kata","Left","39","5","12","9","P","J","76"
"","","approach-retreat","80","871952","0.0-80.0","","","1-1","6167","39","1","Training","Stims/Figures/128-J-10-3.bmp","tapata","Left","39","5","13","9","P","J","77"
"","","approach-retreat","81","879917","0.0-81.0","","","1-1","6452","38","1","Training","Stims/Figures/7-J-10-4.bmp","vafa:va","Down","38","5","14","9","C1","J","78"
"","","approach-retreat","82","896558","0.0-82.0","","","1-1","15127","40","1","Training","Stims/Figures/85-C-20-2.bmp","papa:ta","Down","40","5","15","9","P","J","79"
"","","approach-retreat","83","904876","0.0-83.0","","","1-1","6805","40","1","Training","Stims/Figures/128-C-30-3.bmp","malala","Down","40","5","16","9","S","J","80"
"","","approach-retreat","84","916518","0.0-84.0","","","1-1","10127","38","0","Training","Stims/Figures/86-J-0-1.bmp","zahaha","Up","40","6","1","9","C2","J","81"
"","","approach-retreat","85","924420","0.0-85.0","","","1-1","6383","39","1","Training","Stims/Figures/7-J-10-4.bmp","vafa:va","Left","39","6","2","9","C1","J","82"
"","","approach-retreat","86","931901","0.0-86.0","","","1-1","5965","40","0","Training","Stims/Figures/85-C-20-2.bmp","papa:ta","Up","38","6","3","9","P","J","83"
"","","approach-retreat","87","940828","0.0-87.0","","","1-1","7415","39","0","Training","Stims/Figures/94-J-0-2.bmp","saha:za","Right","37","6","4","9","C2","J","84"
"","","approach-retreat","88","948660","0.0-88.0","","","1-1","6321","39","0","Training","Stims/Figures/102-J-10-4.bmp","fasha:sha","Right","37","6","5","9","C1","J","85"
"","","approach-retreat","89","958357","0.0-89.0","","","1-1","8184","38","1","Training","Stims/Figures/44-J-10-3.bmp","saha:ha","Down","38","6","6","9","C2","J","86"
"","","approach-retreat","90","966638","0.0-90.0","","","1-1","6770","38","1","Training","Stims/Figures/128-J-10-3.bmp","tapata","Down","38","6","7","9","P","J","87"
"","","approach-retreat","91","974525","0.0-91.0","","","1-1","6374","37","1","Training","Stims/Figures/27-C-30-1.bmp","pa:ka:ka","Left","37","6","8","9","P","J","88"
"","","approach-retreat","92","982094","0.0-92.0","","","1-1","6056","38","0","Training","Stims/Figures/44-C-30-3.bmp","zaha:za","Down","40","6","9","9","C2","J","89"
"","","approach-retreat","93","989837","0.0-93.0","","","1-1","6231","39","1","Training","Stims/Figures/27-J-0-1.bmp","fafa:sha","Left","39","6","10","9","C1","J","90"
"","","approach-retreat","94","997774","0.0-94.0","","","1-1","6424","39","1","Training","Stims/Figures/7-C-20-4.bmp","mala:la","Right","39","6","11","9","S","J","91"
"","","approach-retreat","95","1007238","0.0-95.0","","","1-1","7951","37","1","Training","Stims/Figures/128-C-30-3.bmp","malala","Left","37","6","12","9","S","J","92"
"","","approach-retreat","96","1015094","0.0-96.0","","","1-1","6345","40","0","Training","Stims/Figures/94-C-20-2.bmp","ta:pa:ta","Up","38","6","13","9","P","J","93"
"","","approach-retreat","97","1023109","0.0-97.0","","","1-1","6501","40","0","Training","Stims/Figures/85-J-0-2.bmp","pa:kata","Down","38","6","14","9","P","J","94"
"","","approach-retreat","98","1037463","0.0-98.0","","","1-1","12841","38","1","Training","Stims/Figures/86-C-30-1.bmp","fa:shasha","Up","38","6","15","9","C1","J","95"
"","","approach-retreat","99","1046229","0.0-99.0","","","1-1","7253","39","1","Training","Stims/Figures/102-C-20-4.bmp","namala","Right","39","6","16","9","S","J","96"
"","","approach-retreat","100","1055629","0.0-100.0","","","1-1","7889","40","0","Training","Stims/Figures/128-J-10-3.bmp","tapata","Down","38","7","1","9","P","J","97"
"","","approach-retreat","101","1066702","0.0-101.0","","","1-1","9561","38","1","Training","Stims/Figures/27-C-30-1.bmp","pa:ka:ka","Up","38","7","2","9","P","J","98"
"","","approach-retreat","102","1075092","0.0-102.0","","","1-1","6879","37","0","Training","Stims/Figures/94-C-20-2.bmp","ta:pa:ta","Right","39","7","3","9","P","J","99"
"","","approach-retreat","103","1081853","0.0-103.0","","","1-1","5247","37","0","Training","Stims/Figures/85-C-20-2.bmp","papa:ta","Right","39","7","4","9","P","J","100"
"","","approach-retreat","104","1088749","0.0-104.0","","","1-1","5383","37","1","Training","Stims/Figures/86-C-30-1.bmp","fa:shasha","Left","37","7","5","9","C1","J","101"
"","","approach-retreat","105","1095949","0.0-105.0","","","1-1","5686","39","1","Training","Stims/Figures/94-J-0-2.bmp","saha:za","Left","39","7","6","9","C2","J","102"
"","","approach-retreat","106","1103910","0.0-106.0","","","1-1","6448","40","0","Training","Stims/Figures/44-J-10-3.bmp","saha:ha","Down","38","7","7","9","C2","J","103"
"","","approach-retreat","107","1111118","0.0-107.0","","","1-1","5696","38","1","Training","Stims/Figures/102-C-20-4.bmp","namala","Up","38","7","8","9","S","J","104"
"","","approach-retreat","108","1119125","0.0-108.0","","","1-1","6495","38","0","Training","Stims/Figures/86-J-0-1.bmp","zahaha","Up","40","7","9","9","C2","J","105"
"","","approach-retreat","109","1127062","0.0-109.0","","","1-1","6424","38","1","Training","Stims/Figures/128-C-30-3.bmp","malala","Up","38","7","10","9","S","J","106"
"","","approach-retreat","110","1134444","0.0-110.0","","","1-1","5870","39","0","Training","Stims/Figures/44-C-30-3.bmp","zaha:za","Left","37","7","11","9","C2","J","107"
"","","approach-retreat","111","1142229","0.0-111.0","","","1-1","6271","37","1","Training","Stims/Figures/27-J-0-1.bmp","fafa:sha","Right","37","7","12","9","C1","J","108"
"","","approach-retreat","112","1149884","0.0-112.0","","","1-1","6141","40","0","Training","Stims/Figures/85-J-0-2.bmp","pa:kata","Down","38","7","13","9","P","J","109"
"","","approach-retreat","113","1156180","0.0-113.0","","","1-1","4785","37","1","Training","Stims/Figures/102-J-10-4.bmp","fasha:sha","Right","37","7","14","9","C1","J","110"
"","","approach-retreat","114","1167141","0.0-114.0","","","1-1","9447","39","1","Training","Stims/Figures/7-J-10-4.bmp","vafa:va","Left","39","7","15","9","C1","J","111"
"","","approach-retreat","115","1174181","0.0-115.0","","","1-1","5527","40","1","Training","Stims/Figures/7-C-20-4.bmp","mala:la","Down","40","7","16","9","S","J","112"
"","","approach-retreat","116","1180558","0.0-116.0","","","1-1","4863","37","0","Training","Stims/Figures/86-C-30-1.bmp","fa:shasha","Right","39","8","1","9","C1","J","113"
"","","approach-retreat","117","1187420","0.0-117.0","","","1-1","5349","38","1","Training","Stims/Figures/94-J-0-2.bmp","saha:za","Down","38","8","2","9","C2","J","114"
"","","approach-retreat","118","1194390","0.0-118.0","","","1-1","5458","39","1","Training","Stims/Figures/102-C-20-4.bmp","namala","Right","39","8","3","9","S","J","115"
"","","approach-retreat","119","1201260","0.0-119.0","","","1-1","5358","40","1","Training","Stims/Figures/7-J-10-4.bmp","vafa:va","Up","40","8","4","9","C1","J","116"
"","","approach-retreat","120","1207478","0.0-120.0","","","1-1","4706","38","0","Training","Stims/Figures/85-J-0-2.bmp","pa:kata","Up","40","8","5","9","P","J","117"
"","","approach-retreat","121","1213485","0.0-121.0","","","1-1","4495","40","1","Training","Stims/Figures/128-J-10-3.bmp","tapata","Up","40","8","6","9","P","J","118"
"","","approach-retreat","122","1220061","0.0-122.0","","","1-1","5064","37","1","Training","Stims/Figures/27-J-0-1.bmp","fafa:sha","Right","37","8","7","9","C1","J","119"
"","","approach-retreat","123","1226589","0.0-123.0","","","1-1","5016","37","1","Training","Stims/Figures/27-C-30-1.bmp","pa:ka:ka","Left","37","8","8","9","P","J","120"
"","","approach-retreat","124","1232759","0.0-124.0","","","1-1","4657","38","0","Training","Stims/Figures/7-C-20-4.bmp","mala:la","Down","40","8","9","9","S","J","121"
"","","approach-retreat","125","1238941","0.0-125.0","","","1-1","4671","38","1","Training","Stims/Figures/44-J-10-3.bmp","saha:ha","Down","38","8","10","9","C2","J","122"
"","","approach-retreat","126","1245030","0.0-126.0","","","1-1","4577","40","0","Training","Stims/Figures/86-J-0-1.bmp","zahaha","Down","38","8","11","9","C2","J","123"
"","","approach-retreat","127","1251245","0.0-127.0","","","1-1","4704","37","1","Training","Stims/Figures/128-C-30-3.bmp","malala","Left","37","8","12","9","S","J","124"
"","","approach-retreat","128","1257480","0.0-128.0","","","1-1","4720","39","1","Training","Stims/Figures/44-C-30-3.bmp","zaha:za","Right","39","8","13","9","C2","J","125"
"","","approach-retreat","129","1263485","0.0-129.0","","","1-1","4491","40","0","Training","Stims/Figures/94-C-20-2.bmp","ta:pa:ta","Up","38","8","14","9","P","J","126"
"","","approach-retreat","130","1269669","0.0-130.0","","","1-1","4672","39","1","Training","Stims/Figures/102-J-10-4.bmp","fasha:sha","Left","39","8","15","9","C1","J","127"
"","","approach-retreat","131","1276324","0.0-131.0","","","1-1","5142","37","1","Training","Stims/Figures/85-C-20-2.bmp","papa:ta","Left","37","8","16","9","P","J","128"
"","","approach-retreat","132","1282438","0.0-132.0","","","1-1","4598","37","1","Training","Stims/Figures/7-J-10-4.bmp","vafa:va","Right","37","9","1","9","C1","J","129"
"","","approach-retreat","133","1288925","0.0-133.0","","","1-1","4976","38","0","Training","Stims/Figures/44-J-10-3.bmp","saha:ha","Up","40","9","2","9","C2","J","130"
"","","approach-retreat","134","1295150","0.0-134.0","","","1-1","4713","38","0","Training","Stims/Figures/27-J-0-1.bmp","fafa:sha","Up","40","9","3","9","C1","J","131"
"","","approach-retreat","135","1301156","0.0-135.0","","","1-1","4495","40","0","Training","Stims/Figures/7-C-20-4.bmp","mala:la","Up","38","9","4","9","S","J","132"
"","","approach-retreat","136","1307444","0.0-136.0","","","1-1","4775","39","1","Training","Stims/Figures/94-J-0-2.bmp","saha:za","Left","39","9","5","9","C2","J","133"
"","","approach-retreat","137","1314325","0.0-137.0","","","1-1","5367","37","1","Training","Stims/Figures/102-C-20-4.bmp","namala","Left","37","9","6","9","S","J","134"
"","","approach-retreat","138","1321021","0.0-138.0","","","1-1","5183","37","1","Training","Stims/Figures/128-J-10-3.bmp","tapata","Right","37","9","7","9","P","J","135"
"","","approach-retreat","139","1327990","0.0-139.0","","","1-1","5456","39","1","Training","Stims/Figures/44-C-30-3.bmp","zaha:za","Right","39","9","8","9","C2","J","136"
"","","approach-retreat","140","1334501","0.0-140.0","","","1-1","4999","38","0","Training","Stims/Figures/128-C-30-3.bmp","malala","Down","40","9","9","9","S","J","137"
"","","approach-retreat","141","1341558","0.0-141.0","","","1-1","5543","40","1","Training","Stims/Figures/94-C-20-2.bmp","ta:pa:ta","Down","40","9","10","9","P","J","138"
"","","approach-retreat","142","1347889","0.0-142.0","","","1-1","4819","39","0","Training","Stims/Figures/85-C-20-2.bmp","papa:ta","Left","37","9","11","9","P","J","139"
"","","approach-retreat","143","1354966","0.0-143.0","","","1-1","5565","40","0","Training","Stims/Figures/86-J-0-1.bmp","zahaha","Down","38","9","12","9","C2","J","140"
"","","approach-retreat","144","1362533","0.0-144.0","","","1-1","6055","37","1","Training","Stims/Figures/102-J-10-4.bmp","fasha:sha","Right","37","9","13","9","C1","J","141"
"","","approach-retreat","145","1368813","0.0-145.0","","","1-1","4767","40","1","Training","Stims/Figures/27-C-30-1.bmp","pa:ka:ka","Down","40","9","14","9","P","J","142"
"","","approach-retreat","146","1375149","0.0-146.0","","","1-1","4823","38","1","Training","Stims/Figures/86-C-30-1.bmp","fa:shasha","Up","38","9","15","9","C1","J","143"
"","","approach-retreat","147","1383285","0.0-147.0","","","1-1","6622","39","1","Training","Stims/Figures/85-J-0-2.bmp","pa:kata","Left","39","9","16","9","P","J","144"
"35854","","instructions","148","1419139","0.0-148.0","[{""page_index"":0,""viewing_time"":35853}]","","","","","","","","","","","","","","","",""
"","","approach-retreat","149","1430420","0.0-149.0","","","1-1","9770","37","0","Testing","Stims/Figures/94-J-0-2.bmp","saha:za","Left","39","1","1","9","C2","J","1"
"","","approach-retreat","150","1437821","0.0-150.0","","","1-1","5890","38","1","Testing","Stims/Figures/19-C-20-4.bmp","nala:la","Up","38","1","2","9","S","J","2"
"","","approach-retreat","151","1444548","0.0-151.0","","","1-1","5217","40","1","Testing","Stims/Figures/27-C-30-1.bmp","pa:ka:ka","Down","40","1","3","9","P","J","3"
"","","approach-retreat","152","1451988","0.0-152.0","","","1-1","5930","37","1","Testing","Stims/Figures/128-J-10-3.bmp","tapata","Right","37","1","4","9","P","J","4"
"","","approach-retreat","153","1459398","0.0-153.0","","","1-1","5898","39","1","Testing","Stims/Figures/85-C-20-2.bmp","papa:ta","Right","39","1","5","9","P","J","5"
"","","approach-retreat","154","1468421","0.0-154.0","","","1-1","7510","40","0","Testing","Stims/Figures/57-J-0-1.bmp","ta:pata","Down","38","1","6","9","P","J","6"
"","","approach-retreat","155","1474860","0.0-155.0","","","1-1","4929","39","0","Testing","Stims/Figures/44-J-10-3.bmp","saha:ha","Right","37","1","7","9","C2","J","7"
"","","approach-retreat","156","1481156","0.0-156.0","","","1-1","4786","39","1","Testing","Stims/Figures/85-J-0-2.bmp","pa:kata","Left","39","1","8","9","P","J","8"
"","","approach-retreat","157","1489964","0.0-157.0","","","1-1","7298","37","1","Testing","Stims/Figures/7-C-20-4.bmp","mala:la","Left","37","1","9","9","S","J","9"
"","","approach-retreat","158","1496381","0.0-158.0","","","1-1","4906","40","0","Testing","Stims/Figures/139-J-0-2.bmp","ma:lana","Down","38","1","10","9","S","J","10"
"","","approach-retreat","159","1503668","0.0-159.0","","","1-1","5776","38","0","Testing","Stims/Figures/27-J-0-1.bmp","fafa:sha","Up","40","1","11","9","C1","J","11"
"","","approach-retreat","160","1509684","0.0-160.0","","","1-1","4505","37","0","Testing","Stims/Figures/128-C-30-3.bmp","malala","Right","39","1","12","9","S","J","12"
"","","approach-retreat","161","1516466","0.0-161.0","","","1-1","5273","40","0","Testing","Stims/Figures/19-J-10-4.bmp","vafasha","Down","38","1","13","9","C1","J","13"
"","","approach-retreat","162","1522852","0.0-162.0","","","1-1","4875","39","1","Testing","Stims/Figures/144-J-10-3.bmp","fafa:va","Left","39","1","14","9","C1","J","14"
"","","approach-retreat","163","1528763","0.0-163.0","","","1-1","4401","38","1","Testing","Stims/Figures/7-J-10-4.bmp","vafa:va","Down","38","1","15","9","C1","J","15"
"","","approach-retreat","164","1535323","0.0-164.0","","","1-1","5050","39","1","Testing","Stims/Figures/86-C-30-1.bmp","fa:shasha","Right","39","1","16","9","C1","J","16"
"","","approach-retreat","165","1543235","0.0-165.0","","","1-1","6395","38","0","Testing","Stims/Figures/102-J-10-4.bmp","fasha:sha","Up","40","1","17","9","C1","J","17"
"","","approach-retreat","166","1550684","0.0-166.0","","","1-1","5938","37","1","Testing","Stims/Figures/44-C-30-3.bmp","zaha:za","Left","37","1","18","9","C2","J","18"
"","","approach-retreat","167","1559307","0.0-167.0","","","1-1","7104","40","0","Testing","Stims/Figures/139-C-20-2.bmp","zasa:za","Up","38","1","19","9","C2","J","19"
"","","approach-retreat","168","1566324","0.0-168.0","","","1-1","5507","39","0","Testing","Stims/Figures/144-C-30-3.bmp","tapaka","Left","37","1","20","9","P","J","20"
"","","approach-retreat","169","1574532","0.0-169.0","","","1-1","6698","38","1","Testing","Stims/Figures/86-J-0-1.bmp","zahaha","Down","38","1","21","9","C2","J","21"
"","","approach-retreat","170","1580987","0.0-170.0","","","1-1","4945","40","0","Testing","Stims/Figures/94-C-20-2.bmp","ta:pa:ta","Up","38","1","22","9","P","J","22"
"","","approach-retreat","171","1587699","0.0-171.0","","","1-1","5202","40","0","Testing","Stims/Figures/102-C-20-4.bmp","namala","Up","38","1","23","9","S","J","23"
"","","approach-retreat","172","1596213","0.0-172.0","","","1-1","7004","37","0","Testing","Stims/Figures/57-C-30-1.bmp","sa:saha","Right","39","1","24","9","C2","J","24"
"","","approach-retreat","173","1602556","0.0-173.0","","","1-1","4832","38","1","Testing","Stims/Figures/7-J-10-4.bmp","vafa:va","Down","38","2","1","9","C1","J","25"
"","","approach-retreat","174","1609109","0.0-174.0","","","1-1","5043","38","1","Testing","Stims/Figures/85-C-20-2.bmp","papa:ta","Up","38","2","2","9","P","J","26"
"","","approach-retreat","175","1615012","0.0-175.0","","","1-1","4393","40","1","Testing","Stims/Figures/57-J-0-1.bmp","ta:pata","Up","40","2","3","9","P","J","27"
"","","approach-retreat","176","1620876","0.0-176.0","","","1-1","4354","37","0","Testing","Stims/Figures/19-C-20-4.bmp","nala:la","Right","39","2","4","9","S","J","28"
"","","approach-retreat","177","1626428","0.0-177.0","","","1-1","4040","37","1","Testing","Stims/Figures/128-J-10-3.bmp","tapata","Right","37","2","5","9","P","J","29"
"","","approach-retreat","178","1632796","0.0-178.0","","","1-1","4857","39","1","Testing","Stims/Figures/57-C-30-1.bmp","sa:saha","Right","39","2","6","9","C2","J","30"
"","","approach-retreat","179","1638466","0.0-179.0","","","1-1","4161","38","1","Testing","Stims/Figures/86-C-30-1.bmp","fa:shasha","Up","38","2","7","9","C1","J","31"
"","","approach-retreat","180","1644492","0.0-180.0","","","1-1","4515","37","1","Testing","Stims/Figures/85-J-0-2.bmp","pa:kata","Right","37","2","8","9","P","J","32"
"","","approach-retreat","181","1650868","0.0-181.0","","","1-1","4864","37","1","Testing","Stims/Figures/102-C-20-4.bmp","namala","Left","37","2","9","9","S","J","33"
"","","approach-retreat","182","1656603","0.0-182.0","","","1-1","4225","37","1","Testing","Stims/Figures/94-C-20-2.bmp","ta:pa:ta","Left","37","2","10","9","P","J","34"
"","","approach-retreat","183","1665971","0.0-183.0","","","1-1","7857","38","1","Testing","Stims/Figures/44-C-30-3.bmp","zaha:za","Up","38","2","11","9","C2","J","35"
"","","approach-retreat","184","1671563","0.0-184.0","","","1-1","4081","37","0","Testing","Stims/Figures/139-C-20-2.bmp","zasa:za","Right","39","2","12","9","C2","J","36"
"","","approach-retreat","185","1677508","0.0-185.0","","","1-1","4433","39","0","Testing","Stims/Figures/144-C-30-3.bmp","tapaka","Left","37","2","13","9","P","J","37"
"","","approach-retreat","186","1683723","0.0-186.0","","","1-1","4706","40","0","Testing","Stims/Figures/19-J-10-4.bmp","vafasha","Down","38","2","14","9","C1","J","38"
"","","approach-retreat","187","1689684","0.0-187.0","","","1-1","4451","39","1","Testing","Stims/Figures/44-J-10-3.bmp","saha:ha","Left","39","2","15","9","C2","J","39"
"","","approach-retreat","188","1696005","0.0-188.0","","","1-1","4812","39","0","Testing","Stims/Figures/86-J-0-1.bmp","zahaha","Right","37","2","16","9","C2","J","40"
"","","approach-retreat","189","1705420","0.0-189.0","","","1-1","7904","40","1","Testing","Stims/Figures/27-C-30-1.bmp","pa:ka:ka","Down","40","2","17","9","P","J","41"
"","","approach-retreat","190","1713382","0.0-190.0","","","1-1","6452","38","0","Testing","Stims/Figures/128-C-30-3.bmp","malala","Down","40","2","18","9","S","J","42"
"","","approach-retreat","191","1721003","0.0-191.0","","","1-1","6113","39","1","Testing","Stims/Figures/139-J-0-2.bmp","ma:lana","Left","39","2","19","9","S","J","43"
"","","approach-retreat","192","1728196","0.0-192.0","","","1-1","5683","38","0","Testing","Stims/Figures/144-J-10-3.bmp","fafa:va","Up","40","2","20","9","C1","J","44"
"","","approach-retreat","193","1735804","0.0-193.0","","","1-1","6098","40","0","Testing","Stims/Figures/27-J-0-1.bmp","fafa:sha","Down","38","2","21","9","C1","J","45"
"","","approach-retreat","194","1743515","0.0-194.0","","","1-1","6202","40","0","Testing","Stims/Figures/7-C-20-4.bmp","mala:la","Up","38","2","22","9","S","J","46"
"","","approach-retreat","195","1752580","0.0-195.0","","","1-1","7552","37","0","Testing","Stims/Figures/102-J-10-4.bmp","fasha:sha","Left","39","2","23","9","C1","J","47"
"","","approach-retreat","196","1759179","0.0-196.0","","","1-1","5092","40","0","Testing","Stims/Figures/94-J-0-2.bmp","saha:za","Down","38","2","24","9","C2","J","48"
"","","approach-retreat","197","1765204","0.0-197.0","","","1-1","4513","39","0","Testing","Stims/Figures/94-C-20-2.bmp","ta:pa:ta","Left","37","3","1","9","P","J","49"
"","","approach-retreat","198","1770939","0.0-198.0","","","1-1","4225","40","0","Testing","Stims/Figures/94-J-0-2.bmp","saha:za","Down","38","3","2","9","C2","J","50"
"","","approach-retreat","199","1780908","0.0-199.0","","","1-1","8456","38","0","Testing","Stims/Figures/139-C-20-2.bmp","zasa:za","Down","40","3","3","9","C2","J","51"
"","","approach-retreat","200","1788493","0.0-200.0","","","1-1","6073","37","0","Testing","Stims/Figures/102-C-20-4.bmp","namala","Right","39","3","4","9","S","J","52"
"","","approach-retreat","201","1795724","0.0-201.0","","","1-1","5722","37","0","Testing","Stims/Figures/7-J-10-4.bmp","vafa:va","Left","39","3","5","9","C1","J","53"
"","","approach-retreat","202","1803709","0.0-202.0","","","1-1","6474","39","0","Testing","Stims/Figures/139-J-0-2.bmp","ma:lana","Right","37","3","6","9","S","J","54"
"","","approach-retreat","203","1809748","0.0-203.0","","","1-1","4529","40","1","Testing","Stims/Figures/85-J-0-2.bmp","pa:kata","Up","40","3","7","9","P","J","55"
"","","approach-retreat","204","1816316","0.0-204.0","","","1-1","5058","38","1","Testing","Stims/Figures/85-C-20-2.bmp","papa:ta","Up","38","3","8","9","P","J","56"
"","","approach-retreat","205","1822676","0.0-205.0","","","1-1","4849","39","1","Testing","Stims/Figures/44-J-10-3.bmp","saha:ha","Left","39","3","9","9","C2","J","57"
"","","approach-retreat","206","1831420","0.0-206.0","","","1-1","7235","38","1","Testing","Stims/Figures/86-C-30-1.bmp","fa:shasha","Up","38","3","10","9","C1","J","58"
"","","approach-retreat","207","1838468","0.0-207.0","","","1-1","5538","38","1","Testing","Stims/Figures/7-C-20-4.bmp","mala:la","Up","38","3","11","9","S","J","59"
"","","approach-retreat","208","1847581","0.0-208.0","","","1-1","7601","40","0","Testing","Stims/Figures/86-J-0-1.bmp","zahaha","Down","38","3","12","9","C2","J","60"
"","","approach-retreat","209","1853644","0.0-209.0","","","1-1","4553","39","0","Testing","Stims/Figures/44-C-30-3.bmp","zaha:za","Left","37","3","13","9","C2","J","61"
"","","approach-retreat","210","1862340","0.0-210.0","","","1-1","7187","37","1","Testing","Stims/Figures/128-J-10-3.bmp","tapata","Right","37","3","14","9","P","J","62"
"","","approach-retreat","211","1869275","0.0-211.0","","","1-1","5425","40","1","Testing","Stims/Figures/144-C-30-3.bmp","tapaka","Down","40","3","15","9","P","J","63"
"","","approach-retreat","212","1877229","0.0-212.0","","","1-1","6436","38","1","Testing","Stims/Figures/128-C-30-3.bmp","malala","Up","38","3","16","9","S","J","64"
"","","approach-retreat","213","1884700","0.0-213.0","","","1-1","5960","39","0","Testing","Stims/Figures/57-J-0-1.bmp","ta:pata","Right","37","3","17","9","P","J","65"
"","","approach-retreat","214","1893213","0.0-214.0","","","1-1","7001","38","0","Testing","Stims/Figures/27-J-0-1.bmp","fafa:sha","Up","40","3","18","9","C1","J","66"
"","","approach-retreat","215","1903620","0.0-215.0","","","1-1","8898","37","0","Testing","Stims/Figures/27-C-30-1.bmp","pa:ka:ka","Right","39","3","19","9","P","J","67"
"","","approach-retreat","216","1916830","0.0-216.0","","","1-1","11698","38","0","Testing","Stims/Figures/19-C-20-4.bmp","nala:la","Down","40","3","20","9","S","J","68"
"","","approach-retreat","217","1922557","0.0-217.0","","","1-1","4218","40","0","Testing","Stims/Figures/102-J-10-4.bmp","fasha:sha","Down","38","3","21","9","C1","J","69"
"","","approach-retreat","218","1930548","0.0-218.0","","","1-1","6481","39","1","Testing","Stims/Figures/57-C-30-1.bmp","sa:saha","Right","39","3","22","9","C2","J","70"
"","","approach-retreat","219","1947148","0.0-219.0","","","1-1","15090","37","0","Testing","Stims/Figures/19-J-10-4.bmp","vafasha","Left","39","3","23","9","C1","J","71"
"","","approach-retreat","220","1961052","0.0-220.0","","","1-1","12394","39","1","Testing","Stims/Figures/144-J-10-3.bmp","fafa:va","Left","39","3","24","9","C1","J","72"
"","","approach-retreat","221","1969340","0.0-221.0","","","1-1","6778","38","1","Testing","Stims/Figures/86-C-30-1.bmp","fa:shasha","Up","38","4","1","9","C1","J","73"
"","","approach-retreat","222","1976405","0.0-222.0","","","1-1","5556","38","1","Testing","Stims/Figures/57-J-0-1.bmp","ta:pata","Down","38","4","2","9","P","J","74"
"","","approach-retreat","223","1984612","0.0-223.0","","","1-1","6698","39","0","Testing","Stims/Figures/44-C-30-3.bmp","zaha:za","Left","37","4","3","9","C2","J","75"
"","","approach-retreat","224","1995556","0.0-224.0","","","1-1","9435","38","1","Testing","Stims/Figures/7-J-10-4.bmp","vafa:va","Down","38","4","4","9","C1","J","76"
"","","approach-retreat","225","2003868","0.0-225.0","","","1-1","6802","37","0","Testing","Stims/Figures/139-C-20-2.bmp","zasa:za","Right","39","4","5","9","C2","J","77"
"","","approach-retreat","226","2012477","0.0-226.0","","","1-1","7099","39","0","Testing","Stims/Figures/94-J-0-2.bmp","saha:za","Right","37","4","6","9","C2","J","78"
"","","approach-retreat","227","2018732","0.0-227.0","","","1-1","4746","39","0","Testing","Stims/Figures/27-C-30-1.bmp","pa:ka:ka","Left","37","4","7","9","P","J","79"
"","","approach-retreat","228","2025372","0.0-228.0","","","1-1","5130","39","0","Testing","Stims/Figures/57-C-30-1.bmp","sa:saha","Left","37","4","8","9","C2","J","80"
"","","approach-retreat","229","2034580","0.0-229.0","","","1-1","7699","39","1","Testing","Stims/Figures/85-C-20-2.bmp","papa:ta","Right","39","4","9","9","P","J","81"
"","","approach-retreat","230","2043035","0.0-230.0","","","1-1","6945","38","1","Testing","Stims/Figures/19-C-20-4.bmp","nala:la","Up","38","4","10","9","S","J","82"
"","","approach-retreat","231","2049803","0.0-231.0","","","1-1","5258","37","0","Testing","Stims/Figures/44-J-10-3.bmp","saha:ha","Left","39","4","11","9","C2","J","83"
"","","approach-retreat","232","2058461","0.0-232.0","","","1-1","7146","40","0","Testing","Stims/Figures/139-J-0-2.bmp","ma:lana","Down","38","4","12","9","S","J","84"
"","","approach-retreat","233","2065172","0.0-233.0","","","1-1","5200","39","0","Testing","Stims/Figures/128-J-10-3.bmp","tapata","Right","37","4","13","9","P","J","85"
"","","approach-retreat","234","2071676","0.0-234.0","","","1-1","4994","38","0","Testing","Stims/Figures/144-J-10-3.bmp","fafa:va","Up","40","4","14","9","C1","J","86"
"","","approach-retreat","235","2078059","0.0-235.0","","","1-1","4873","40","1","Testing","Stims/Figures/102-J-10-4.bmp","fasha:sha","Up","40","4","15","9","C1","J","87"
"","","approach-retreat","236","2085525","0.0-236.0","","","1-1","5955","39","1","Testing","Stims/Figures/27-J-0-1.bmp","fafa:sha","Left","39","4","16","9","C1","J","88"
"","","approach-retreat","237","2091429","0.0-237.0","","","1-1","4394","39","1","Testing","Stims/Figures/7-C-20-4.bmp","mala:la","Right","39","4","17","9","S","J","89"
"","","approach-retreat","238","2097509","0.0-238.0","","","1-1","4571","38","0","Testing","Stims/Figures/102-C-20-4.bmp","namala","Down","40","4","18","9","S","J","90"
"","","approach-retreat","239","2103612","0.0-239.0","","","1-1","4593","39","1","Testing","Stims/Figures/144-C-30-3.bmp","tapaka","Right","39","4","19","9","P","J","91"
"","","approach-retreat","240","2111572","0.0-240.0","","","1-1","6450","39","1","Testing","Stims/Figures/19-J-10-4.bmp","vafasha","Left","39","4","20","9","C1","J","92"
"","","approach-retreat","241","2118668","0.0-241.0","","","1-1","5585","40","0","Testing","Stims/Figures/128-C-30-3.bmp","malala","Up","38","4","21","9","S","J","93"
"","","approach-retreat","242","2127315","0.0-242.0","","","1-1","7139","40","1","Testing","Stims/Figures/94-C-20-2.bmp","ta:pa:ta","Down","40","4","22","9","P","J","94"
"","","approach-retreat","243","2135483","0.0-243.0","","","1-1","6657","38","0","Testing","Stims/Figures/86-J-0-1.bmp","zahaha","Up","40","4","23","9","C2","J","95"
"","","approach-retreat","244","2141805","0.0-244.0","","","1-1","4811","40","0","Testing","Stims/Figures/85-J-0-2.bmp","pa:kata","Down","38","4","24","9","P","J","96"
"128473","","survey-text","245","2270294","0.0-245.0","","{""Q0"":""00692018""}","","","","","","","","","","","","","","",""
