"rt","key_press","trial_type","trial_index","time_elapsed","internal_node_id","view_history","responses","Id","Rt","ResKeyCode","ResCorr","TrialType2","Image","Label","Location","CorrectResponse","Block","BlockTrial","Condition","LabelType","Subcondition","trialNum"
"61025","32","text","0","61033","0.0-0.0-0.0","","","","","","","","","","","","","","","","",""
"77775","","instructions","1","138813","0.0-1.0","[{""page_index"":0,""viewing_time"":77774}]","","","","","","","","","","","","","","","",""
"35217","","survey-multi-choice","2","174088","0.0-2.0","","{""Q0"":""Da"",""Q1"":""Da"",""Q2"":""Da"",""Q3"":""Da"",""Q4"":""Da"",""Q5"":""Da""}","","","","","","","","","","","","","","",""
"","","bio","3","183461","0.0-3.0","","{""age"":""18"",""gender"":""f"",""specify"":""""}","","","","","","","","","","","","","","",""
"","","approach-retreat","4","207891","0.0-4.0","","","3-3","22913","38","0","Training","Stims/Figures/128-C-30-3.bmp","pa:ka:ka","Up","40","1","1","9","P","C","1"
"","","approach-retreat","5","217149","0.0-5.0","","","3-3","7742","37","0","Training","Stims/Figures/118-J-0-2.bmp","namala","Right","39","1","2","9","S","C","2"
"","","approach-retreat","6","225200","0.0-6.0","","","3-3","6537","39","1","Training","Stims/Figures/74-C-20-4.bmp","ma:lana","Left","39","1","3","9","S","C","3"
"","","approach-retreat","7","236741","0.0-7.0","","","3-3","10029","39","0","Training","Stims/Figures/84-C-20-2.bmp","sa:sa:ha","Right","37","1","4","9","C2","C","4"
"","","approach-retreat","8","242656","0.0-8.0","","","3-3","4400","37","0","Training","Stims/Figures/74-J-10-4.bmp","na:mala","Right","39","1","5","9","S","C","5"
"","","approach-retreat","9","255325","0.0-9.0","","","3-3","11156","38","0","Training","Stims/Figures/128-J-10-3.bmp","ta:kaka","Down","40","1","6","9","P","C","6"
"","","approach-retreat","10","260803","0.0-10.0","","","3-3","3964","38","0","Training","Stims/Figures/71-J-0-1.bmp","ta:pata","Down","40","1","7","9","P","C","7"
"","","approach-retreat","11","267620","0.0-11.0","","","3-3","5303","40","0","Training","Stims/Figures/27-C-30-1.bmp","mamala","Down","38","1","8","9","S","C","8"
"","","approach-retreat","12","276744","0.0-12.0","","","3-3","7610","39","1","Training","Stims/Figures/102-J-10-4.bmp","pa:pata","Right","39","1","9","9","P","C","9"
"","","approach-retreat","13","285284","0.0-13.0","","","3-3","7027","37","0","Training","Stims/Figures/102-C-20-4.bmp","za:haza","Left","39","1","10","9","C2","C","10"
"","","approach-retreat","14","291793","0.0-14.0","","","3-3","4996","38","1","Training","Stims/Figures/84-J-0-2.bmp","fashasha","Up","38","1","11","9","C1","C","11"
"","","approach-retreat","15","302050","0.0-15.0","","","3-3","8744","39","1","Training","Stims/Figures/71-C-30-1.bmp","sasaha","Left","39","1","12","9","C2","C","12"
"","","approach-retreat","16","309643","0.0-16.0","","","3-3","6079","40","0","Training","Stims/Figures/118-C-20-2.bmp","nalala","Down","38","1","13","9","S","C","13"
"","","approach-retreat","17","319089","0.0-17.0","","","3-3","7932","40","0","Training","Stims/Figures/27-J-0-1.bmp","fafava","Up","38","1","14","9","C1","C","14"
"","","approach-retreat","18","325315","0.0-18.0","","","3-3","4713","39","0","Training","Stims/Figures/111-J-10-3.bmp","tapa:ka","Left","37","1","15","9","P","C","15"
"","","approach-retreat","19","330972","0.0-19.0","","","3-3","4144","38","0","Training","Stims/Figures/111-C-30-3.bmp","paka:ta","Up","40","1","16","9","P","C","16"
"","","approach-retreat","20","336495","0.0-20.0","","","3-3","4007","40","0","Training","Stims/Figures/74-C-20-4.bmp","ma:lana","Down","38","2","1","9","S","C","17"
"","","approach-retreat","21","342279","0.0-21.0","","","3-3","4271","39","0","Training","Stims/Figures/84-J-0-2.bmp","fashasha","Left","37","2","2","9","C1","C","18"
"","","approach-retreat","22","348483","0.0-22.0","","","3-3","4690","37","0","Training","Stims/Figures/84-C-20-2.bmp","sa:sa:ha","Left","39","2","3","9","C2","C","19"
"","","approach-retreat","23","354051","0.0-23.0","","","3-3","4055","39","1","Training","Stims/Figures/118-C-20-2.bmp","nalala","Left","39","2","4","9","S","C","20"
"","","approach-retreat","24","363196","0.0-24.0","","","3-3","7631","38","0","Training","Stims/Figures/27-J-0-1.bmp","fafava","Down","40","2","5","9","C1","C","21"
"","","approach-retreat","25","368989","0.0-25.0","","","3-3","4279","40","0","Training","Stims/Figures/111-C-30-3.bmp","paka:ta","Down","38","2","6","9","P","C","22"
"","","approach-retreat","26","376469","0.0-26.0","","","3-3","5967","37","1","Training","Stims/Figures/27-C-30-1.bmp","mamala","Right","37","2","7","9","S","C","23"
"","","approach-retreat","27","382167","0.0-27.0","","","3-3","4183","37","0","Training","Stims/Figures/74-J-10-4.bmp","na:mala","Right","39","2","8","9","S","C","24"
"","","approach-retreat","28","391377","0.0-28.0","","","3-3","7697","40","1","Training","Stims/Figures/71-C-30-1.bmp","sasaha","Up","40","2","9","9","C2","C","25"
"","","approach-retreat","29","397605","0.0-29.0","","","3-3","4714","40","1","Training","Stims/Figures/102-J-10-4.bmp","pa:pata","Down","40","2","10","9","P","C","26"
"","","approach-retreat","30","405760","0.0-30.0","","","3-3","6642","38","0","Training","Stims/Figures/102-C-20-4.bmp","za:haza","Up","40","2","11","9","C2","C","27"
"","","approach-retreat","31","412582","0.0-31.0","","","3-3","5308","39","1","Training","Stims/Figures/71-J-0-1.bmp","ta:pata","Right","39","2","12","9","P","C","28"
"","","approach-retreat","32","418365","0.0-32.0","","","3-3","4271","38","1","Training","Stims/Figures/118-J-0-2.bmp","namala","Up","38","2","13","9","S","C","29"
"","","approach-retreat","33","424869","0.0-33.0","","","3-3","4990","39","1","Training","Stims/Figures/111-J-10-3.bmp","tapa:ka","Right","39","2","14","9","P","C","30"
"","","approach-retreat","34","431404","0.0-34.0","","","3-3","5022","38","1","Training","Stims/Figures/128-J-10-3.bmp","ta:kaka","Up","38","2","15","9","P","C","31"
"","","approach-retreat","35","437173","0.0-35.0","","","3-3","4256","39","1","Training","Stims/Figures/128-C-30-3.bmp","pa:ka:ka","Left","39","2","16","9","P","C","32"
"","","approach-retreat","36","443688","0.0-36.0","","","3-3","5002","37","1","Training","Stims/Figures/102-J-10-4.bmp","pa:pata","Left","37","3","1","9","P","C","33"
"","","approach-retreat","37","450821","0.0-37.0","","","3-3","5620","38","1","Training","Stims/Figures/71-J-0-1.bmp","ta:pata","Up","38","3","2","9","P","C","34"
"","","approach-retreat","38","458283","0.0-38.0","","","3-3","5945","37","1","Training","Stims/Figures/128-C-30-3.bmp","pa:ka:ka","Right","37","3","3","9","P","C","35"
"","","approach-retreat","39","464649","0.0-39.0","","","3-3","4854","40","1","Training","Stims/Figures/74-J-10-4.bmp","na:mala","Down","40","3","4","9","S","C","36"
"","","approach-retreat","40","474188","0.0-40.0","","","3-3","8024","39","0","Training","Stims/Figures/102-C-20-4.bmp","za:haza","Right","37","3","5","9","C2","C","37"
"","","approach-retreat","41","479962","0.0-41.0","","","3-3","4260","37","1","Training","Stims/Figures/111-J-10-3.bmp","tapa:ka","Left","37","3","6","9","P","C","38"
"","","approach-retreat","42","486683","0.0-42.0","","","3-3","5208","39","1","Training","Stims/Figures/111-C-30-3.bmp","paka:ta","Left","39","3","7","9","P","C","39"
"","","approach-retreat","43","493501","0.0-43.0","","","3-3","5303","38","0","Training","Stims/Figures/84-C-20-2.bmp","sa:sa:ha","Up","40","3","8","9","C2","C","40"
"","","approach-retreat","44","498958","0.0-44.0","","","3-3","3943","39","1","Training","Stims/Figures/128-J-10-3.bmp","ta:kaka","Right","39","3","9","9","P","C","41"
"","","approach-retreat","45","504914","0.0-45.0","","","3-3","4442","37","0","Training","Stims/Figures/118-C-20-2.bmp","nalala","Left","39","3","10","9","S","C","42"
"","","approach-retreat","46","511099","0.0-46.0","","","3-3","4671","38","0","Training","Stims/Figures/118-J-0-2.bmp","namala","Down","40","3","11","9","S","C","43"
"","","approach-retreat","47","521055","0.0-47.0","","","3-3","8444","40","1","Training","Stims/Figures/71-C-30-1.bmp","sasaha","Up","40","3","12","9","C2","C","44"
"","","approach-retreat","48","526570","0.0-48.0","","","3-3","4000","40","0","Training","Stims/Figures/27-C-30-1.bmp","mamala","Down","38","3","13","9","S","C","45"
"","","approach-retreat","49","532643","0.0-49.0","","","3-3","4562","38","0","Training","Stims/Figures/27-J-0-1.bmp","fafava","Down","40","3","14","9","C1","C","46"
"","","approach-retreat","50","538175","0.0-50.0","","","3-3","4018","39","1","Training","Stims/Figures/84-J-0-2.bmp","fashasha","Right","39","3","15","9","C1","C","47"
"","","approach-retreat","51","543791","0.0-51.0","","","3-3","4102","38","0","Training","Stims/Figures/74-C-20-4.bmp","ma:lana","Up","40","3","16","9","S","C","48"
"","","approach-retreat","52","549964","0.0-52.0","","","3-3","4659","40","1","Training","Stims/Figures/84-C-20-2.bmp","sa:sa:ha","Up","40","4","1","9","C2","C","49"
"","","approach-retreat","53","556233","0.0-53.0","","","3-3","4751","39","0","Training","Stims/Figures/27-C-30-1.bmp","mamala","Right","37","4","2","9","S","C","50"
"","","approach-retreat","54","562641","0.0-54.0","","","3-3","4894","38","1","Training","Stims/Figures/118-C-20-2.bmp","nalala","Down","38","4","3","9","S","C","51"
"","","approach-retreat","55","568894","0.0-55.0","","","3-3","4738","38","0","Training","Stims/Figures/128-J-10-3.bmp","ta:kaka","Down","40","4","4","9","P","C","52"
"","","approach-retreat","56","574637","0.0-56.0","","","3-3","4230","39","0","Training","Stims/Figures/84-J-0-2.bmp","fashasha","Left","37","4","5","9","C1","C","53"
"","","approach-retreat","57","580208","0.0-57.0","","","3-3","4058","37","1","Training","Stims/Figures/111-J-10-3.bmp","tapa:ka","Left","37","4","6","9","P","C","54"
"","","approach-retreat","58","586094","0.0-58.0","","","3-3","4372","38","0","Training","Stims/Figures/74-C-20-4.bmp","ma:lana","Up","40","4","7","9","S","C","55"
"","","approach-retreat","59","591960","0.0-59.0","","","3-3","4352","39","1","Training","Stims/Figures/74-J-10-4.bmp","na:mala","Right","39","4","8","9","S","C","56"
"","","approach-retreat","60","601581","0.0-60.0","","","3-3","8106","38","1","Training","Stims/Figures/71-J-0-1.bmp","ta:pata","Up","38","4","9","9","P","C","57"
"","","approach-retreat","61","608115","0.0-61.0","","","3-3","5021","40","0","Training","Stims/Figures/111-C-30-3.bmp","paka:ta","Down","38","4","10","9","P","C","58"
"","","approach-retreat","62","613427","0.0-62.0","","","3-3","3798","38","1","Training","Stims/Figures/102-J-10-4.bmp","pa:pata","Up","38","4","11","9","P","C","59"
"","","approach-retreat","63","620655","0.0-63.0","","","3-3","5716","39","1","Training","Stims/Figures/118-J-0-2.bmp","namala","Right","39","4","12","9","S","C","60"
"","","approach-retreat","64","626385","0.0-64.0","","","3-3","4215","40","1","Training","Stims/Figures/27-J-0-1.bmp","fafava","Down","40","4","13","9","C1","C","61"
"","","approach-retreat","65","632306","0.0-65.0","","","3-3","4408","37","1","Training","Stims/Figures/128-C-30-3.bmp","pa:ka:ka","Right","37","4","14","9","P","C","62"
"","","approach-retreat","66","638340","0.0-66.0","","","3-3","4521","39","1","Training","Stims/Figures/71-C-30-1.bmp","sasaha","Left","39","4","15","9","C2","C","63"
"","","approach-retreat","67","643864","0.0-67.0","","","3-3","4011","37","0","Training","Stims/Figures/102-C-20-4.bmp","za:haza","Left","39","4","16","9","C2","C","64"
"","","approach-retreat","68","650059","0.0-68.0","","","3-3","4682","39","1","Training","Stims/Figures/27-J-0-1.bmp","fafava","Right","39","5","1","9","C1","C","65"
"","","approach-retreat","69","657825","0.0-69.0","","","3-3","6251","37","0","Training","Stims/Figures/111-C-30-3.bmp","paka:ta","Left","39","5","2","9","P","C","66"
"","","approach-retreat","70","663159","0.0-70.0","","","3-3","3822","37","1","Training","Stims/Figures/102-J-10-4.bmp","pa:pata","Left","37","5","3","9","P","C","67"
"","","approach-retreat","71","668849","0.0-71.0","","","3-3","4176","38","1","Training","Stims/Figures/128-J-10-3.bmp","ta:kaka","Up","38","5","4","9","P","C","68"
"","","approach-retreat","72","674698","0.0-72.0","","","3-3","4335","40","1","Training","Stims/Figures/71-C-30-1.bmp","sasaha","Up","40","5","5","9","C2","C","69"
"","","approach-retreat","73","680721","0.0-73.0","","","3-3","4510","39","1","Training","Stims/Figures/118-C-20-2.bmp","nalala","Left","39","5","6","9","S","C","70"
"","","approach-retreat","74","686661","0.0-74.0","","","3-3","4425","37","1","Training","Stims/Figures/102-C-20-4.bmp","za:haza","Right","37","5","7","9","C2","C","71"
"","","approach-retreat","75","692642","0.0-75.0","","","3-3","4468","38","1","Training","Stims/Figures/111-J-10-3.bmp","tapa:ka","Up","38","5","8","9","P","C","72"
"","","approach-retreat","76","699315","0.0-76.0","","","3-3","5160","40","0","Training","Stims/Figures/74-C-20-4.bmp","ma:lana","Down","38","5","9","9","S","C","73"
"","","approach-retreat","77","705728","0.0-77.0","","","3-3","4900","38","1","Training","Stims/Figures/27-C-30-1.bmp","mamala","Down","38","5","10","9","S","C","74"
"","","approach-retreat","78","711641","0.0-78.0","","","3-3","4399","40","1","Training","Stims/Figures/71-J-0-1.bmp","ta:pata","Down","40","5","11","9","P","C","75"
"","","approach-retreat","79","718169","0.0-79.0","","","3-3","5014","37","1","Training","Stims/Figures/84-C-20-2.bmp","sa:sa:ha","Right","37","5","12","9","C2","C","76"
"","","approach-retreat","80","724136","0.0-80.0","","","3-3","4452","39","0","Training","Stims/Figures/74-J-10-4.bmp","na:mala","Left","37","5","13","9","S","C","77"
"","","approach-retreat","81","729900","0.0-81.0","","","3-3","4251","38","0","Training","Stims/Figures/84-J-0-2.bmp","fashasha","Down","40","5","14","9","C1","C","78"
"","","approach-retreat","82","736001","0.0-82.0","","","3-3","4590","38","1","Training","Stims/Figures/118-J-0-2.bmp","namala","Up","38","5","15","9","S","C","79"
"","","approach-retreat","83","741997","0.0-83.0","","","3-3","4483","39","0","Training","Stims/Figures/128-C-30-3.bmp","pa:ka:ka","Right","37","5","16","9","P","C","80"
"","","approach-retreat","84","747638","0.0-84.0","","","3-3","4128","37","1","Training","Stims/Figures/74-C-20-4.bmp","ma:lana","Right","37","6","1","9","S","C","81"
"","","approach-retreat","85","753957","0.0-85.0","","","3-3","4805","40","0","Training","Stims/Figures/118-J-0-2.bmp","namala","Up","38","6","2","9","S","C","82"
"","","approach-retreat","86","759629","0.0-86.0","","","3-3","4160","40","0","Training","Stims/Figures/128-C-30-3.bmp","pa:ka:ka","Down","38","6","3","9","P","C","83"
"","","approach-retreat","87","765313","0.0-87.0","","","3-3","4169","38","0","Training","Stims/Figures/111-J-10-3.bmp","tapa:ka","Down","40","6","4","9","P","C","84"
"","","approach-retreat","88","771927","0.0-88.0","","","3-3","5098","38","0","Training","Stims/Figures/111-C-30-3.bmp","paka:ta","Up","40","6","5","9","P","C","85"
"","","approach-retreat","89","778302","0.0-89.0","","","3-3","4862","39","0","Training","Stims/Figures/27-J-0-1.bmp","fafava","Left","37","6","6","9","C1","C","86"
"","","approach-retreat","90","784391","0.0-90.0","","","3-3","4574","37","0","Training","Stims/Figures/84-J-0-2.bmp","fashasha","Right","39","6","7","9","C1","C","87"
"","","approach-retreat","91","790341","0.0-91.0","","","3-3","4437","40","0","Training","Stims/Figures/74-J-10-4.bmp","na:mala","Up","38","6","8","9","S","C","88"
"","","approach-retreat","92","798578","0.0-92.0","","","3-3","6723","37","1","Training","Stims/Figures/102-J-10-4.bmp","pa:pata","Left","37","6","9","9","P","C","89"
"","","approach-retreat","93","804528","0.0-93.0","","","3-3","4438","38","0","Training","Stims/Figures/102-C-20-4.bmp","za:haza","Up","40","6","10","9","C2","C","90"
"","","approach-retreat","94","810834","0.0-94.0","","","3-3","4791","37","1","Training","Stims/Figures/27-C-30-1.bmp","mamala","Right","37","6","11","9","S","C","91"
"","","approach-retreat","95","816648","0.0-95.0","","","3-3","4301","39","1","Training","Stims/Figures/84-C-20-2.bmp","sa:sa:ha","Left","39","6","12","9","C2","C","92"
"","","approach-retreat","96","822903","0.0-96.0","","","3-3","4741","39","0","Training","Stims/Figures/118-C-20-2.bmp","nalala","Right","37","6","13","9","S","C","93"
"","","approach-retreat","97","831990","0.0-97.0","","","3-3","7575","40","0","Training","Stims/Figures/71-C-30-1.bmp","sasaha","Down","38","6","14","9","C2","C","94"
"","","approach-retreat","98","838626","0.0-98.0","","","3-3","5120","40","1","Training","Stims/Figures/128-J-10-3.bmp","ta:kaka","Down","40","6","15","9","P","C","95"
"","","approach-retreat","99","845767","0.0-99.0","","","3-3","5628","37","1","Training","Stims/Figures/71-J-0-1.bmp","ta:pata","Left","37","6","16","9","P","C","96"
"","","approach-retreat","100","851666","0.0-100.0","","","3-3","4384","39","1","Training","Stims/Figures/74-C-20-4.bmp","ma:lana","Left","39","7","1","9","S","C","97"
"","","approach-retreat","101","857580","0.0-101.0","","","3-3","4400","38","1","Training","Stims/Figures/102-J-10-4.bmp","pa:pata","Up","38","7","2","9","P","C","98"
"","","approach-retreat","102","863542","0.0-102.0","","","3-3","4447","40","1","Training","Stims/Figures/118-J-0-2.bmp","namala","Down","40","7","3","9","S","C","99"
"","","approach-retreat","103","869408","0.0-103.0","","","3-3","4353","39","0","Training","Stims/Figures/27-C-30-1.bmp","mamala","Right","37","7","4","9","S","C","100"
"","","approach-retreat","104","876070","0.0-104.0","","","3-3","5149","37","0","Training","Stims/Figures/118-C-20-2.bmp","nalala","Left","39","7","5","9","S","C","101"
"","","approach-retreat","105","883573","0.0-105.0","","","3-3","5990","38","0","Training","Stims/Figures/84-C-20-2.bmp","sa:sa:ha","Up","40","7","6","9","C2","C","102"
"","","approach-retreat","106","890628","0.0-106.0","","","3-3","5542","39","0","Training","Stims/Figures/128-C-30-3.bmp","pa:ka:ka","Right","37","7","7","9","P","C","103"
"","","approach-retreat","107","897142","0.0-107.0","","","3-3","4999","39","1","Training","Stims/Figures/128-J-10-3.bmp","ta:kaka","Right","39","7","8","9","P","C","104"
"","","approach-retreat","108","902775","0.0-108.0","","","3-3","4120","38","1","Training","Stims/Figures/84-J-0-2.bmp","fashasha","Up","38","7","9","9","C1","C","105"
"","","approach-retreat","109","908758","0.0-109.0","","","3-3","4470","40","1","Training","Stims/Figures/111-J-10-3.bmp","tapa:ka","Down","40","7","10","9","P","C","106"
"","","approach-retreat","110","914576","0.0-110.0","","","3-3","4303","38","1","Training","Stims/Figures/102-C-20-4.bmp","za:haza","Down","38","7","11","9","C2","C","107"
"","","approach-retreat","111","920333","0.0-111.0","","","3-3","4243","39","0","Training","Stims/Figures/71-C-30-1.bmp","sasaha","Right","37","7","12","9","C2","C","108"
"","","approach-retreat","112","926039","0.0-112.0","","","3-3","4192","37","1","Training","Stims/Figures/71-J-0-1.bmp","ta:pata","Left","37","7","13","9","P","C","109"
"","","approach-retreat","113","932184","0.0-113.0","","","3-3","4631","40","0","Training","Stims/Figures/27-J-0-1.bmp","fafava","Up","38","7","14","9","C1","C","110"
"","","approach-retreat","114","938134","0.0-114.0","","","3-3","4437","38","1","Training","Stims/Figures/111-C-30-3.bmp","paka:ta","Down","38","7","15","9","P","C","111"
"","","approach-retreat","115","944367","0.0-115.0","","","3-3","4719","39","0","Training","Stims/Figures/74-J-10-4.bmp","na:mala","Left","37","7","16","9","S","C","112"
"","","approach-retreat","116","953034","0.0-116.0","","","3-3","7153","40","1","Training","Stims/Figures/84-J-0-2.bmp","fashasha","Down","40","8","1","9","C1","C","113"
"","","approach-retreat","117","958688","0.0-117.0","","","3-3","4141","39","1","Training","Stims/Figures/128-C-30-3.bmp","pa:ka:ka","Left","39","8","2","9","P","C","114"
"","","approach-retreat","118","964445","0.0-118.0","","","3-3","4243","38","0","Training","Stims/Figures/128-J-10-3.bmp","ta:kaka","Down","40","8","3","9","P","C","115"
"","","approach-retreat","119","970391","0.0-119.0","","","3-3","4433","40","1","Training","Stims/Figures/74-C-20-4.bmp","ma:lana","Up","40","8","4","9","S","C","116"
"","","approach-retreat","120","976015","0.0-120.0","","","3-3","4111","38","0","Training","Stims/Figures/74-J-10-4.bmp","na:mala","Down","40","8","5","9","S","C","117"
"","","approach-retreat","121","981921","0.0-121.0","","","3-3","4394","37","0","Training","Stims/Figures/71-J-0-1.bmp","ta:pata","Right","39","8","6","9","P","C","118"
"","","approach-retreat","122","988006","0.0-122.0","","","3-3","4571","38","1","Training","Stims/Figures/111-J-10-3.bmp","tapa:ka","Up","38","8","7","9","P","C","119"
"","","approach-retreat","123","993506","0.0-123.0","","","3-3","3987","39","1","Training","Stims/Figures/102-J-10-4.bmp","pa:pata","Right","39","8","8","9","P","C","120"
"","","approach-retreat","124","1000762","0.0-124.0","","","3-3","5741","37","0","Training","Stims/Figures/102-C-20-4.bmp","za:haza","Left","39","8","9","9","C2","C","121"
"","","approach-retreat","125","1006918","0.0-125.0","","","3-3","4642","39","0","Training","Stims/Figures/27-C-30-1.bmp","mamala","Right","37","8","10","9","S","C","122"
"","","approach-retreat","126","1012637","0.0-126.0","","","3-3","4207","40","1","Training","Stims/Figures/71-C-30-1.bmp","sasaha","Up","40","8","11","9","C2","C","123"
"","","approach-retreat","127","1018393","0.0-127.0","","","3-3","4244","39","1","Training","Stims/Figures/111-C-30-3.bmp","paka:ta","Left","39","8","12","9","P","C","124"
"","","approach-retreat","128","1024060","0.0-128.0","","","3-3","4154","40","0","Training","Stims/Figures/118-C-20-2.bmp","nalala","Down","38","8","13","9","S","C","125"
"","","approach-retreat","129","1032373","0.0-129.0","","","3-3","6800","37","1","Training","Stims/Figures/118-J-0-2.bmp","namala","Left","37","8","14","9","S","C","126"
"","","approach-retreat","130","1038138","0.0-130.0","","","3-3","4252","38","0","Training","Stims/Figures/84-C-20-2.bmp","sa:sa:ha","Up","40","8","15","9","C2","C","127"
"","","approach-retreat","131","1044307","0.0-131.0","","","3-3","4654","39","1","Training","Stims/Figures/27-J-0-1.bmp","fafava","Right","39","8","16","9","C1","C","128"
"","","approach-retreat","132","1050279","0.0-132.0","","","3-3","4459","40","1","Training","Stims/Figures/118-J-0-2.bmp","namala","Down","40","9","1","9","S","C","129"
"","","approach-retreat","133","1056282","0.0-133.0","","","3-3","4491","37","1","Training","Stims/Figures/102-C-20-4.bmp","za:haza","Right","37","9","2","9","C2","C","130"
"","","approach-retreat","134","1062234","0.0-134.0","","","3-3","4439","39","0","Training","Stims/Figures/27-J-0-1.bmp","fafava","Left","37","9","3","9","C1","C","131"
"","","approach-retreat","135","1068034","0.0-135.0","","","3-3","4288","39","0","Training","Stims/Figures/27-C-30-1.bmp","mamala","Right","37","9","4","9","S","C","132"
"","","approach-retreat","136","1074449","0.0-136.0","","","3-3","4902","37","0","Training","Stims/Figures/84-J-0-2.bmp","fashasha","Right","39","9","5","9","C1","C","133"
"","","approach-retreat","137","1080769","0.0-137.0","","","3-3","4806","40","0","Training","Stims/Figures/128-J-10-3.bmp","ta:kaka","Up","38","9","6","9","P","C","134"
"","","approach-retreat","138","1087522","0.0-138.0","","","3-3","5240","38","1","Training","Stims/Figures/128-C-30-3.bmp","pa:ka:ka","Down","38","9","7","9","P","C","135"
"","","approach-retreat","139","1093591","0.0-139.0","","","3-3","4553","40","1","Training","Stims/Figures/111-C-30-3.bmp","paka:ta","Up","40","9","8","9","P","C","136"
"","","approach-retreat","140","1099500","0.0-140.0","","","3-3","4395","39","1","Training","Stims/Figures/118-C-20-2.bmp","nalala","Left","39","9","9","9","S","C","137"
"","","approach-retreat","141","1105229","0.0-141.0","","","3-3","4212","38","0","Training","Stims/Figures/102-J-10-4.bmp","pa:pata","Down","40","9","10","9","P","C","138"
"","","approach-retreat","142","1110974","0.0-142.0","","","3-3","4232","39","0","Training","Stims/Figures/74-J-10-4.bmp","na:mala","Left","37","9","11","9","S","C","139"
"","","approach-retreat","143","1117889","0.0-143.0","","","3-3","5402","40","1","Training","Stims/Figures/71-C-30-1.bmp","sasaha","Up","40","9","12","9","C2","C","140"
"","","approach-retreat","144","1125536","0.0-144.0","","","3-3","6134","39","0","Training","Stims/Figures/84-C-20-2.bmp","sa:sa:ha","Right","37","9","13","9","C2","C","141"
"","","approach-retreat","145","1131328","0.0-145.0","","","3-3","4279","38","0","Training","Stims/Figures/74-C-20-4.bmp","ma:lana","Up","40","9","14","9","S","C","142"
"","","approach-retreat","146","1137449","0.0-146.0","","","3-3","4607","40","1","Training","Stims/Figures/111-J-10-3.bmp","tapa:ka","Down","40","9","15","9","P","C","143"
"","","approach-retreat","147","1143918","0.0-147.0","","","3-3","4955","37","1","Training","Stims/Figures/71-J-0-1.bmp","ta:pata","Left","37","9","16","9","P","C","144"
"49510","","instructions","148","1193429","0.0-148.0","[{""page_index"":0,""viewing_time"":49509}]","","","","","","","","","","","","","","","",""
"","","approach-retreat","149","1209793","0.0-149.0","","","3-3","14855","39","1","Testing","Stims/Figures/84-C-20-2.bmp","sa:sa:ha","Left","39","1","1","9","C2","C","1"
"","","approach-retreat","150","1221727","0.0-150.0","","","3-3","10423","37","1","Testing","Stims/Figures/86-C-30-1.bmp","sahaza","Right","37","1","2","9","C2","C","2"
"","","approach-retreat","151","1228032","0.0-151.0","","","3-3","4793","40","1","Testing","Stims/Figures/74-J-10-4.bmp","na:mala","Down","40","1","3","9","S","C","3"
"","","approach-retreat","152","1236049","0.0-152.0","","","3-3","6507","40","0","Testing","Stims/Figures/27-C-30-1.bmp","mamala","Down","38","1","4","9","S","C","4"
"","","approach-retreat","153","1245956","0.0-153.0","","","3-3","8396","37","1","Testing","Stims/Figures/111-C-30-3.bmp","paka:ta","Right","37","1","5","9","P","C","5"
"","","approach-retreat","154","1254860","0.0-154.0","","","3-3","7393","38","1","Testing","Stims/Figures/71-C-30-1.bmp","sasaha","Down","38","1","6","9","C2","C","6"
"","","approach-retreat","155","1262190","0.0-155.0","","","3-3","5819","37","1","Testing","Stims/Figures/85-J-0-2.bmp","malala","Left","37","1","7","9","S","C","7"
"","","approach-retreat","156","1269657","0.0-156.0","","","3-3","5957","40","1","Testing","Stims/Figures/74-C-20-4.bmp","ma:lana","Up","40","1","8","9","S","C","8"
"","","approach-retreat","157","1283014","0.0-157.0","","","3-3","11846","37","0","Testing","Stims/Figures/44-J-10-3.bmp","fafa:sha","Right","39","1","9","9","C1","C","9"
"","","approach-retreat","158","1297536","0.0-158.0","","","3-3","12978","38","1","Testing","Stims/Figures/87-C-20-4.bmp","sa:saha","Down","38","1","10","9","C2","C","10"
"","","approach-retreat","159","1316853","0.0-159.0","","","3-3","17806","38","0","Testing","Stims/Figures/102-C-20-4.bmp","za:haza","Up","40","1","11","9","C2","C","11"
"","","approach-retreat","160","1322815","0.0-160.0","","","3-3","4451","38","1","Testing","Stims/Figures/128-J-10-3.bmp","ta:kaka","Up","38","1","12","9","P","C","12"
"","","approach-retreat","161","1332334","0.0-161.0","","","3-3","8008","38","0","Testing","Stims/Figures/102-J-10-4.bmp","pa:pata","Down","40","1","13","9","P","C","13"
"","","approach-retreat","162","1340203","0.0-162.0","","","3-3","6358","39","1","Testing","Stims/Figures/118-J-0-2.bmp","namala","Right","39","1","14","9","S","C","14"
"","","approach-retreat","163","1346428","0.0-163.0","","","3-3","4714","38","1","Testing","Stims/Figures/86-J-0-1.bmp","nama:la","Up","38","1","15","9","S","C","15"
"","","approach-retreat","164","1352340","0.0-164.0","","","3-3","4400","40","1","Testing","Stims/Figures/85-C-20-2.bmp","vafa:va","Up","40","1","16","9","C1","C","16"
"","","approach-retreat","165","1360608","0.0-165.0","","","3-3","6755","39","1","Testing","Stims/Figures/71-J-0-1.bmp","ta:pata","Right","39","1","17","9","P","C","17"
"","","approach-retreat","166","1368188","0.0-166.0","","","3-3","6072","37","1","Testing","Stims/Figures/118-C-20-2.bmp","nalala","Right","37","1","18","9","S","C","18"
"","","approach-retreat","167","1410111","0.0-167.0","","","3-3","40404","37","1","Testing","Stims/Figures/84-J-0-2.bmp","fashasha","Left","37","1","19","9","C1","C","19"
"","","approach-retreat","168","1417220","0.0-168.0","","","3-3","5598","40","1","Testing","Stims/Figures/27-J-0-1.bmp","fafava","Down","40","1","20","9","C1","C","20"
"","","approach-retreat","169","1427063","0.0-169.0","","","3-3","8333","39","0","Testing","Stims/Figures/111-J-10-3.bmp","tapa:ka","Left","37","1","21","9","P","C","21"
"","","approach-retreat","170","1434463","0.0-170.0","","","3-3","5889","39","1","Testing","Stims/Figures/128-C-30-3.bmp","pa:ka:ka","Left","39","1","22","9","P","C","22"
"","","approach-retreat","171","1446040","0.0-171.0","","","3-3","10066","40","0","Testing","Stims/Figures/87-J-10-4.bmp","va:fa:sha","Up","38","1","23","9","C1","C","23"
"","","approach-retreat","172","1459989","0.0-172.0","","","3-3","12439","39","1","Testing","Stims/Figures/44-C-30-3.bmp","taka:ka","Left","39","1","24","9","P","C","24"
"","","approach-retreat","173","1466050","0.0-173.0","","","3-3","4550","39","1","Testing","Stims/Figures/85-J-0-2.bmp","malala","Right","39","2","1","9","S","C","25"
"","","approach-retreat","174","1472042","0.0-174.0","","","3-3","4482","40","0","Testing","Stims/Figures/44-J-10-3.bmp","fafa:sha","Up","38","2","2","9","C1","C","26"
"","","approach-retreat","175","1477768","0.0-175.0","","","3-3","4215","40","1","Testing","Stims/Figures/87-C-20-4.bmp","sa:saha","Up","40","2","3","9","C2","C","27"
"","","approach-retreat","176","1484570","0.0-176.0","","","3-3","5291","39","0","Testing","Stims/Figures/111-J-10-3.bmp","tapa:ka","Left","37","2","4","9","P","C","28"
"","","approach-retreat","177","1500737","0.0-177.0","","","3-3","14657","39","0","Testing","Stims/Figures/74-C-20-4.bmp","ma:lana","Right","37","2","5","9","S","C","29"
"","","approach-retreat","178","1512894","0.0-178.0","","","3-3","10647","37","0","Testing","Stims/Figures/27-C-30-1.bmp","mamala","Left","39","2","6","9","S","C","30"
"","","approach-retreat","179","1524416","0.0-179.0","","","3-3","10010","38","0","Testing","Stims/Figures/111-C-30-3.bmp","paka:ta","Up","40","2","7","9","P","C","31"
"","","approach-retreat","180","1533483","0.0-180.0","","","3-3","7557","40","1","Testing","Stims/Figures/128-J-10-3.bmp","ta:kaka","Down","40","2","8","9","P","C","32"
"","","approach-retreat","181","1539145","0.0-181.0","","","3-3","4147","39","1","Testing","Stims/Figures/27-J-0-1.bmp","fafava","Right","39","2","9","9","C1","C","33"
"","","approach-retreat","182","1549717","0.0-182.0","","","3-3","9062","40","0","Testing","Stims/Figures/86-C-30-1.bmp","sahaza","Down","38","2","10","9","C2","C","34"
"","","approach-retreat","183","1558501","0.0-183.0","","","3-3","7273","37","1","Testing","Stims/Figures/71-J-0-1.bmp","ta:pata","Left","37","2","11","9","P","C","35"
"","","approach-retreat","184","1575747","0.0-184.0","","","3-3","15735","39","0","Testing","Stims/Figures/87-J-10-4.bmp","va:fa:sha","Left","37","2","12","9","C1","C","36"
"","","approach-retreat","185","1594369","0.0-185.0","","","3-3","17112","38","0","Testing","Stims/Figures/84-C-20-2.bmp","sa:sa:ha","Up","40","2","13","9","C2","C","37"
"","","approach-retreat","186","1603805","0.0-186.0","","","3-3","7926","40","0","Testing","Stims/Figures/71-C-30-1.bmp","sasaha","Down","38","2","14","9","C2","C","38"
"","","approach-retreat","187","1611844","0.0-187.0","","","3-3","6528","37","0","Testing","Stims/Figures/85-C-20-2.bmp","vafa:va","Left","39","2","15","9","C1","C","39"
"","","approach-retreat","188","1624197","0.0-188.0","","","3-3","10842","37","1","Testing","Stims/Figures/44-C-30-3.bmp","taka:ka","Right","37","2","16","9","P","C","40"
"","","approach-retreat","189","1638790","0.0-189.0","","","3-3","13083","39","0","Testing","Stims/Figures/118-C-20-2.bmp","nalala","Right","37","2","17","9","S","C","41"
"","","approach-retreat","190","1647000","0.0-190.0","","","3-3","6700","38","1","Testing","Stims/Figures/102-J-10-4.bmp","pa:pata","Up","38","2","18","9","P","C","42"
"","","approach-retreat","191","1671980","0.0-191.0","","","3-3","23469","39","1","Testing","Stims/Figures/128-C-30-3.bmp","pa:ka:ka","Left","39","2","19","9","P","C","43"
"","","approach-retreat","192","1678273","0.0-192.0","","","3-3","4783","40","0","Testing","Stims/Figures/118-J-0-2.bmp","namala","Up","38","2","20","9","S","C","44"
"","","approach-retreat","193","1688354","0.0-193.0","","","3-3","8570","40","1","Testing","Stims/Figures/74-J-10-4.bmp","na:mala","Down","40","2","21","9","S","C","45"
"","","approach-retreat","194","1694473","0.0-194.0","","","3-3","4609","39","1","Testing","Stims/Figures/84-J-0-2.bmp","fashasha","Right","39","2","22","9","C1","C","46"
"","","approach-retreat","195","1703436","0.0-195.0","","","3-3","7453","40","1","Testing","Stims/Figures/86-J-0-1.bmp","nama:la","Down","40","2","23","9","S","C","47"
"","","approach-retreat","196","1713556","0.0-196.0","","","3-3","8610","38","1","Testing","Stims/Figures/102-C-20-4.bmp","za:haza","Down","38","2","24","9","C2","C","48"
"","","approach-retreat","197","1719280","0.0-197.0","","","3-3","4213","39","1","Testing","Stims/Figures/128-J-10-3.bmp","ta:kaka","Right","39","3","1","9","P","C","49"
"","","approach-retreat","198","1726342","0.0-198.0","","","3-3","5550","37","1","Testing","Stims/Figures/27-C-30-1.bmp","mamala","Right","37","3","2","9","S","C","50"
"","","approach-retreat","199","1734620","0.0-199.0","","","3-3","6768","37","1","Testing","Stims/Figures/128-C-30-3.bmp","pa:ka:ka","Right","37","3","3","9","P","C","51"
"","","approach-retreat","200","1742752","0.0-200.0","","","3-3","6623","38","0","Testing","Stims/Figures/111-C-30-3.bmp","paka:ta","Up","40","3","4","9","P","C","52"
"","","approach-retreat","201","1755382","0.0-201.0","","","3-3","11119","40","0","Testing","Stims/Figures/102-C-20-4.bmp","za:haza","Down","38","3","5","9","C2","C","53"
"","","approach-retreat","202","1763017","0.0-202.0","","","3-3","6124","40","1","Testing","Stims/Figures/84-J-0-2.bmp","fashasha","Down","40","3","6","9","C1","C","54"
"","","approach-retreat","203","1778212","0.0-203.0","","","3-3","13684","38","1","Testing","Stims/Figures/71-J-0-1.bmp","ta:pata","Up","38","3","7","9","P","C","55"
"","","approach-retreat","204","1784281","0.0-204.0","","","3-3","4558","40","1","Testing","Stims/Figures/85-C-20-2.bmp","vafa:va","Up","40","3","8","9","C1","C","56"
"","","approach-retreat","205","1790356","0.0-205.0","","","3-3","4564","40","1","Testing","Stims/Figures/44-C-30-3.bmp","taka:ka","Up","40","3","9","9","P","C","57"
"","","approach-retreat","206","1796192","0.0-206.0","","","3-3","4325","38","0","Testing","Stims/Figures/85-J-0-2.bmp","malala","Down","40","3","10","9","S","C","58"
"","","approach-retreat","207","1809895","0.0-207.0","","","3-3","12193","37","1","Testing","Stims/Figures/118-J-0-2.bmp","namala","Left","37","3","11","9","S","C","59"
"","","approach-retreat","208","1817731","0.0-208.0","","","3-3","6326","40","1","Testing","Stims/Figures/111-J-10-3.bmp","tapa:ka","Down","40","3","12","9","P","C","60"
"","","approach-retreat","209","1824195","0.0-209.0","","","3-3","4952","37","1","Testing","Stims/Figures/74-C-20-4.bmp","ma:lana","Right","37","3","13","9","S","C","61"
"","","approach-retreat","210","1831569","0.0-210.0","","","3-3","5862","37","0","Testing","Stims/Figures/118-C-20-2.bmp","nalala","Left","39","3","14","9","S","C","62"
"","","approach-retreat","211","1838567","0.0-211.0","","","3-3","5487","37","0","Testing","Stims/Figures/44-J-10-3.bmp","fafa:sha","Right","39","3","15","9","C1","C","63"
"","","approach-retreat","212","1852635","0.0-212.0","","","3-3","12557","37","0","Testing","Stims/Figures/84-C-20-2.bmp","sa:sa:ha","Left","39","3","16","9","C2","C","64"
"","","approach-retreat","213","1860197","0.0-213.0","","","3-3","6052","37","1","Testing","Stims/Figures/102-J-10-4.bmp","pa:pata","Left","37","3","17","9","P","C","65"
"","","approach-retreat","214","1870045","0.0-214.0","","","3-3","8337","39","1","Testing","Stims/Figures/27-J-0-1.bmp","fafava","Right","39","3","18","9","C1","C","66"
"","","approach-retreat","215","1876107","0.0-215.0","","","3-3","4551","39","1","Testing","Stims/Figures/86-C-30-1.bmp","sahaza","Left","39","3","19","9","C2","C","67"
"","","approach-retreat","216","1883945","0.0-216.0","","","3-3","6327","40","0","Testing","Stims/Figures/87-J-10-4.bmp","va:fa:sha","Up","38","3","20","9","C1","C","68"
"","","approach-retreat","217","1895010","0.0-217.0","","","3-3","9555","40","1","Testing","Stims/Figures/74-J-10-4.bmp","na:mala","Down","40","3","21","9","S","C","69"
"","","approach-retreat","218","1902636","0.0-218.0","","","3-3","6115","38","1","Testing","Stims/Figures/87-C-20-4.bmp","sa:saha","Down","38","3","22","9","C2","C","70"
"","","approach-retreat","219","1909686","0.0-219.0","","","3-3","5539","37","1","Testing","Stims/Figures/86-J-0-1.bmp","nama:la","Left","37","3","23","9","S","C","71"
"","","approach-retreat","220","1923700","0.0-220.0","","","3-3","12503","38","0","Testing","Stims/Figures/71-C-30-1.bmp","sasaha","Up","40","3","24","9","C2","C","72"
"","","approach-retreat","221","1930577","0.0-221.0","","","3-3","5366","39","1","Testing","Stims/Figures/85-J-0-2.bmp","malala","Right","39","4","1","9","S","C","73"
"","","approach-retreat","222","1951932","0.0-222.0","","","3-3","19846","37","1","Testing","Stims/Figures/102-C-20-4.bmp","za:haza","Right","37","4","2","9","C2","C","74"
"","","approach-retreat","223","1966107","0.0-223.0","","","3-3","12664","38","1","Testing","Stims/Figures/85-C-20-2.bmp","vafa:va","Down","38","4","3","9","C1","C","75"
"","","approach-retreat","224","1973268","0.0-224.0","","","3-3","5650","37","1","Testing","Stims/Figures/87-C-20-4.bmp","sa:saha","Right","37","4","4","9","C2","C","76"
"","","approach-retreat","225","1981859","0.0-225.0","","","3-3","7081","40","1","Testing","Stims/Figures/84-J-0-2.bmp","fashasha","Down","40","4","5","9","C1","C","77"
"","","approach-retreat","226","1989697","0.0-226.0","","","3-3","6327","37","1","Testing","Stims/Figures/128-J-10-3.bmp","ta:kaka","Left","37","4","6","9","P","C","78"
"","","approach-retreat","227","2008501","0.0-227.0","","","3-3","17293","40","1","Testing","Stims/Figures/74-J-10-4.bmp","na:mala","Down","40","4","7","9","S","C","79"
"","","approach-retreat","228","2017320","0.0-228.0","","","3-3","7309","38","0","Testing","Stims/Figures/74-C-20-4.bmp","ma:lana","Up","40","4","8","9","S","C","80"
"","","approach-retreat","229","2023795","0.0-229.0","","","3-3","4964","38","1","Testing","Stims/Figures/118-J-0-2.bmp","namala","Up","38","4","9","9","S","C","81"
"","","approach-retreat","230","2032304","0.0-230.0","","","3-3","6998","39","0","Testing","Stims/Figures/87-J-10-4.bmp","va:fa:sha","Left","37","4","10","9","C1","C","82"
"","","approach-retreat","231","2038699","0.0-231.0","","","3-3","4885","39","1","Testing","Stims/Figures/86-J-0-1.bmp","nama:la","Right","39","4","11","9","S","C","83"
"","","approach-retreat","232","2048823","0.0-232.0","","","3-3","8615","38","1","Testing","Stims/Figures/102-J-10-4.bmp","pa:pata","Up","38","4","12","9","P","C","84"
"","","approach-retreat","233","2058096","0.0-233.0","","","3-3","7761","39","1","Testing","Stims/Figures/118-C-20-2.bmp","nalala","Left","39","4","13","9","S","C","85"
"","","approach-retreat","234","2064984","0.0-234.0","","","3-3","5377","40","0","Testing","Stims/Figures/111-C-30-3.bmp","paka:ta","Down","38","4","14","9","P","C","86"
"","","approach-retreat","235","2070988","0.0-235.0","","","3-3","4494","38","1","Testing","Stims/Figures/27-J-0-1.bmp","fafava","Up","38","4","15","9","C1","C","87"
"","","approach-retreat","236","2090434","0.0-236.0","","","3-3","17937","40","0","Testing","Stims/Figures/44-J-10-3.bmp","fafa:sha","Up","38","4","16","9","C1","C","88"
"","","approach-retreat","237","2102119","0.0-237.0","","","3-3","10174","38","1","Testing","Stims/Figures/71-C-30-1.bmp","sasaha","Down","38","4","17","9","C2","C","89"
"","","approach-retreat","238","2116081","0.0-238.0","","","3-3","12451","37","1","Testing","Stims/Figures/111-J-10-3.bmp","tapa:ka","Left","37","4","18","9","P","C","90"
"","","approach-retreat","239","2121962","0.0-239.0","","","3-3","4371","37","0","Testing","Stims/Figures/84-C-20-2.bmp","sa:sa:ha","Left","39","4","19","9","C2","C","91"
"","","approach-retreat","240","2127952","0.0-240.0","","","3-3","4479","39","1","Testing","Stims/Figures/86-C-30-1.bmp","sahaza","Left","39","4","20","9","C2","C","92"
"","","approach-retreat","241","2133724","0.0-241.0","","","3-3","4261","39","1","Testing","Stims/Figures/71-J-0-1.bmp","ta:pata","Right","39","4","21","9","P","C","93"
"","","approach-retreat","242","2141423","0.0-242.0","","","3-3","6189","37","1","Testing","Stims/Figures/27-C-30-1.bmp","mamala","Right","37","4","22","9","S","C","94"
"","","approach-retreat","243","2149295","0.0-243.0","","","3-3","6361","38","1","Testing","Stims/Figures/128-C-30-3.bmp","pa:ka:ka","Down","38","4","23","9","P","C","95"
"","","approach-retreat","244","2155170","0.0-244.0","","","3-3","4365","40","1","Testing","Stims/Figures/44-C-30-3.bmp","taka:ka","Up","40","4","24","9","P","C","96"
"96292","","survey-text","245","2251474","0.0-245.0","","{""Q0"":""PS180078""}","","","","","","","","","","","","","","",""
