"rt","key_press","trial_type","trial_index","time_elapsed","internal_node_id","view_history","responses","Id","Rt","ResKeyCode","ResCorr","TrialType2","Image","Label","Location","CorrectResponse","Block","BlockTrial","Condition","LabelType","Subcondition","trialNum"
"46144","32","text","0","46148","0.0-0.0-0.0","","","","","","","","","","","","","","","","",""
"150820","","instructions","1","196972","0.0-1.0","[{""page_index"":0,""viewing_time"":150819}]","","","","","","","","","","","","","","","",""
"203418","","survey-multi-choice","2","400447","0.0-2.0","","{""Q0"":""Da"",""Q1"":""Da"",""Q2"":""Da"",""Q3"":""Da"",""Q4"":""Da"",""Q5"":""Da""}","","","","","","","","","","","","","","",""
"","","bio","3","409875","0.0-3.0","","{""age"":""18"",""gender"":""f"",""specify"":""""}","","","","","","","","","","","","","","",""
"","","approach-retreat","4","492568","0.0-4.0","","","2-5","81183","38","0","Training","Stims/Figures/100-C-30-3.bmp","sahaza","Down","40","1","1","3A","C2","J","1"
"","","approach-retreat","5","520847","0.0-5.0","","","2-5","26764","38","1","Training","Stims/Figures/118-J-0-2.bmp","vasha:va","Down","38","1","2","3A","C1","J","2"
"","","approach-retreat","6","536271","0.0-6.0","","","2-5","13910","39","1","Training","Stims/Figures/86-J-0-1.bmp","vasha:va","Left","39","1","3","3A","C1","J","3"
"","","approach-retreat","7","543678","0.0-7.0","","","2-5","5894","37","1","Training","Stims/Figures/144-C-30-3.bmp","sahaza","Left","37","1","4","3A","C2","J","4"
"","","approach-retreat","8","550607","0.0-8.0","","","2-5","5415","40","1","Training","Stims/Figures/100-J-10-3.bmp","vasha:va","Up","40","1","5","3A","C1","J","5"
"","","approach-retreat","9","559534","0.0-9.0","","","2-5","7414","38","1","Training","Stims/Figures/57-C-30-1.bmp","sahaza","Up","38","1","6","3A","C2","J","6"
"","","approach-retreat","10","568727","0.0-10.0","","","2-5","7680","38","1","Training","Stims/Figures/94-J-0-2.bmp","vasha:va","Down","38","1","7","3A","C1","J","7"
"","","approach-retreat","11","574638","0.0-11.0","","","2-5","4399","39","1","Training","Stims/Figures/144-J-10-3.bmp","vasha:va","Left","39","1","8","3A","C1","J","8"
"","","approach-retreat","12","582414","0.0-12.0","","","2-5","6262","38","1","Training","Stims/Figures/74-C-20-4.bmp","sahaza","Up","38","1","9","3A","C2","J","9"
"","","approach-retreat","13","592463","0.0-13.0","","","2-5","8537","38","1","Training","Stims/Figures/86-C-30-1.bmp","sahaza","Up","38","1","10","3A","C2","J","10"
"","","approach-retreat","14","601661","0.0-14.0","","","2-5","7686","39","1","Training","Stims/Figures/7-C-20-4.bmp","sahaza","Right","39","1","11","3A","C2","J","11"
"","","approach-retreat","15","608918","0.0-15.0","","","2-5","5744","39","1","Training","Stims/Figures/118-C-20-2.bmp","sahaza","Right","39","1","12","3A","C2","J","12"
"","","approach-retreat","16","620382","0.0-16.0","","","2-5","9950","37","1","Training","Stims/Figures/57-J-0-1.bmp","vasha:va","Right","37","1","13","3A","C1","J","13"
"","","approach-retreat","17","626837","0.0-17.0","","","2-5","4943","39","1","Training","Stims/Figures/74-J-10-4.bmp","vasha:va","Left","39","1","14","3A","C1","J","14"
"","","approach-retreat","18","633951","0.0-18.0","","","2-5","5600","38","1","Training","Stims/Figures/7-J-10-4.bmp","vasha:va","Down","38","1","15","3A","C1","J","15"
"","","approach-retreat","19","641094","0.0-19.0","","","2-5","5630","39","1","Training","Stims/Figures/94-C-20-2.bmp","sahaza","Right","39","1","16","3A","C2","J","16"
"","","approach-retreat","20","650663","0.0-20.0","","","2-5","8056","39","1","Training","Stims/Figures/118-J-0-2.bmp","vasha:va","Left","39","2","1","3A","C1","J","17"
"","","approach-retreat","21","656621","0.0-21.0","","","2-5","4445","39","1","Training","Stims/Figures/74-J-10-4.bmp","vasha:va","Left","39","2","2","3A","C1","J","18"
"","","approach-retreat","22","664918","0.0-22.0","","","2-5","6785","39","1","Training","Stims/Figures/118-C-20-2.bmp","sahaza","Right","39","2","3","3A","C2","J","19"
"","","approach-retreat","23","670870","0.0-23.0","","","2-5","4438","39","1","Training","Stims/Figures/86-J-0-1.bmp","vasha:va","Left","39","2","4","3A","C1","J","20"
"","","approach-retreat","24","676822","0.0-24.0","","","2-5","4440","38","1","Training","Stims/Figures/7-J-10-4.bmp","vasha:va","Down","38","2","5","3A","C1","J","21"
"","","approach-retreat","25","683182","0.0-25.0","","","2-5","4847","39","1","Training","Stims/Figures/74-C-20-4.bmp","sahaza","Right","39","2","6","3A","C2","J","22"
"","","approach-retreat","26","699334","0.0-26.0","","","2-5","14638","37","1","Training","Stims/Figures/57-J-0-1.bmp","vasha:va","Right","37","2","7","3A","C1","J","23"
"","","approach-retreat","27","706517","0.0-27.0","","","2-5","5671","40","1","Training","Stims/Figures/94-J-0-2.bmp","vasha:va","Up","40","2","8","3A","C1","J","24"
"","","approach-retreat","28","734799","0.0-28.0","","","2-5","26770","40","1","Training","Stims/Figures/94-C-20-2.bmp","sahaza","Down","40","2","9","3A","C2","J","25"
"","","approach-retreat","29","752598","0.0-29.0","","","2-5","16287","38","1","Training","Stims/Figures/57-C-30-1.bmp","sahaza","Up","38","2","10","3A","C2","J","26"
"","","approach-retreat","30","762607","0.0-30.0","","","2-5","8497","37","1","Training","Stims/Figures/86-C-30-1.bmp","sahaza","Left","37","2","11","3A","C2","J","27"
"","","approach-retreat","31","775159","0.0-31.0","","","2-5","11039","38","1","Training","Stims/Figures/100-J-10-3.bmp","vasha:va","Down","38","2","12","3A","C1","J","28"
"","","approach-retreat","32","798846","0.0-32.0","","","2-5","22170","38","1","Training","Stims/Figures/100-C-30-3.bmp","sahaza","Up","38","2","13","3A","C2","J","29"
"","","approach-retreat","33","806421","0.0-33.0","","","2-5","6063","40","1","Training","Stims/Figures/7-C-20-4.bmp","sahaza","Down","40","2","14","3A","C2","J","30"
"","","approach-retreat","34","816559","0.0-34.0","","","2-5","8626","37","1","Training","Stims/Figures/144-J-10-3.bmp","vasha:va","Right","37","2","15","3A","C1","J","31"
"","","approach-retreat","35","827878","0.0-35.0","","","2-5","9806","38","1","Training","Stims/Figures/144-C-30-3.bmp","sahaza","Up","38","2","16","3A","C2","J","32"
"","","approach-retreat","36","835221","0.0-36.0","","","2-5","5831","37","1","Training","Stims/Figures/57-J-0-1.bmp","vasha:va","Right","37","3","1","3A","C1","J","33"
"","","approach-retreat","37","841766","0.0-37.0","","","2-5","5033","40","1","Training","Stims/Figures/94-C-20-2.bmp","sahaza","Down","40","3","2","3A","C2","J","34"
"","","approach-retreat","38","848535","0.0-38.0","","","2-5","5255","38","1","Training","Stims/Figures/86-C-30-1.bmp","sahaza","Up","38","3","3","3A","C2","J","35"
"","","approach-retreat","39","855726","0.0-39.0","","","2-5","5677","37","1","Training","Stims/Figures/100-C-30-3.bmp","sahaza","Left","37","3","4","3A","C2","J","36"
"","","approach-retreat","40","864757","0.0-40.0","","","2-5","7518","40","1","Training","Stims/Figures/7-J-10-4.bmp","vasha:va","Up","40","3","5","3A","C1","J","37"
"","","approach-retreat","41","870910","0.0-41.0","","","2-5","4640","37","1","Training","Stims/Figures/74-J-10-4.bmp","vasha:va","Right","37","3","6","3A","C1","J","38"
"","","approach-retreat","42","877197","0.0-42.0","","","2-5","4775","37","1","Training","Stims/Figures/94-J-0-2.bmp","vasha:va","Right","37","3","7","3A","C1","J","39"
"","","approach-retreat","43","883358","0.0-43.0","","","2-5","4649","39","1","Training","Stims/Figures/86-J-0-1.bmp","vasha:va","Left","39","3","8","3A","C1","J","40"
"","","approach-retreat","44","893357","0.0-44.0","","","2-5","8487","39","1","Training","Stims/Figures/74-C-20-4.bmp","sahaza","Right","39","3","9","3A","C2","J","41"
"","","approach-retreat","45","904222","0.0-45.0","","","2-5","9352","39","1","Training","Stims/Figures/100-J-10-3.bmp","vasha:va","Left","39","3","10","3A","C1","J","42"
"","","approach-retreat","46","911285","0.0-46.0","","","2-5","5550","40","1","Training","Stims/Figures/7-C-20-4.bmp","sahaza","Down","40","3","11","3A","C2","J","43"
"","","approach-retreat","47","917454","0.0-47.0","","","2-5","4655","37","1","Training","Stims/Figures/57-C-30-1.bmp","sahaza","Left","37","3","12","3A","C2","J","44"
"","","approach-retreat","48","923453","0.0-48.0","","","2-5","4487","40","1","Training","Stims/Figures/144-J-10-3.bmp","vasha:va","Up","40","3","13","3A","C1","J","45"
"","","approach-retreat","49","929830","0.0-49.0","","","2-5","4865","38","1","Training","Stims/Figures/118-J-0-2.bmp","vasha:va","Down","38","3","14","3A","C1","J","46"
"","","approach-retreat","50","938557","0.0-50.0","","","2-5","7215","40","1","Training","Stims/Figures/118-C-20-2.bmp","sahaza","Down","40","3","15","3A","C2","J","47"
"","","approach-retreat","51","946246","0.0-51.0","","","2-5","6178","38","1","Training","Stims/Figures/144-C-30-3.bmp","sahaza","Up","38","3","16","3A","C2","J","48"
"","","approach-retreat","52","953606","0.0-52.0","","","2-5","5847","40","1","Training","Stims/Figures/7-J-10-4.bmp","vasha:va","Up","40","4","1","3A","C1","J","49"
"","","approach-retreat","53","959518","0.0-53.0","","","2-5","4399","40","1","Training","Stims/Figures/100-J-10-3.bmp","vasha:va","Up","40","4","2","3A","C1","J","50"
"","","approach-retreat","54","966214","0.0-54.0","","","2-5","5183","39","1","Training","Stims/Figures/94-C-20-2.bmp","sahaza","Right","39","4","3","3A","C2","J","51"
"","","approach-retreat","55","972358","0.0-55.0","","","2-5","4632","37","1","Training","Stims/Figures/57-J-0-1.bmp","vasha:va","Right","37","4","4","3A","C1","J","52"
"","","approach-retreat","56","980917","0.0-56.0","","","2-5","7046","37","1","Training","Stims/Figures/57-C-30-1.bmp","sahaza","Left","37","4","5","3A","C2","J","53"
"","","approach-retreat","57","996422","0.0-57.0","","","2-5","13993","38","1","Training","Stims/Figures/144-J-10-3.bmp","vasha:va","Down","38","4","6","3A","C1","J","54"
"","","approach-retreat","58","1003653","0.0-58.0","","","2-5","5719","40","1","Training","Stims/Figures/94-J-0-2.bmp","vasha:va","Up","40","4","7","3A","C1","J","55"
"","","approach-retreat","59","1013023","0.0-59.0","","","2-5","7857","40","1","Training","Stims/Figures/144-C-30-3.bmp","sahaza","Down","40","4","8","3A","C2","J","56"
"","","approach-retreat","60","1028646","0.0-60.0","","","2-5","14111","39","1","Training","Stims/Figures/7-C-20-4.bmp","sahaza","Right","39","4","9","3A","C2","J","57"
"","","approach-retreat","61","1035565","0.0-61.0","","","2-5","5407","38","1","Training","Stims/Figures/86-C-30-1.bmp","sahaza","Up","38","4","10","3A","C2","J","58"
"","","approach-retreat","62","1041670","0.0-62.0","","","2-5","4591","39","1","Training","Stims/Figures/118-J-0-2.bmp","vasha:va","Left","39","4","11","3A","C1","J","59"
"","","approach-retreat","63","1047718","0.0-63.0","","","2-5","4535","38","1","Training","Stims/Figures/86-J-0-1.bmp","vasha:va","Down","38","4","12","3A","C1","J","60"
"","","approach-retreat","64","1058278","0.0-64.0","","","2-5","9047","37","1","Training","Stims/Figures/118-C-20-2.bmp","sahaza","Left","37","4","13","3A","C2","J","61"
"","","approach-retreat","65","1064885","0.0-65.0","","","2-5","5095","39","1","Training","Stims/Figures/74-C-20-4.bmp","sahaza","Right","39","4","14","3A","C2","J","62"
"","","approach-retreat","66","1080304","0.0-66.0","","","2-5","13907","39","1","Training","Stims/Figures/74-J-10-4.bmp","vasha:va","Left","39","4","15","3A","C1","J","63"
"","","approach-retreat","67","1086766","0.0-67.0","","","2-5","4949","40","1","Training","Stims/Figures/100-C-30-3.bmp","sahaza","Down","40","4","16","3A","C2","J","64"
"","","approach-retreat","68","1094550","0.0-68.0","","","2-5","6271","38","1","Training","Stims/Figures/94-C-20-2.bmp","sahaza","Up","38","5","1","3A","C2","J","65"
"","","approach-retreat","69","1101196","0.0-69.0","","","2-5","5134","40","1","Training","Stims/Figures/7-C-20-4.bmp","sahaza","Down","40","5","2","3A","C2","J","66"
"","","approach-retreat","70","1107431","0.0-70.0","","","2-5","4722","40","1","Training","Stims/Figures/86-C-30-1.bmp","sahaza","Down","40","5","3","3A","C2","J","67"
"","","approach-retreat","71","1113742","0.0-71.0","","","2-5","4799","38","1","Training","Stims/Figures/144-J-10-3.bmp","vasha:va","Down","38","5","4","3A","C1","J","68"
"","","approach-retreat","72","1119734","0.0-72.0","","","2-5","4481","39","1","Training","Stims/Figures/100-J-10-3.bmp","vasha:va","Left","39","5","5","3A","C1","J","69"
"","","approach-retreat","73","1131221","0.0-73.0","","","2-5","9975","39","1","Training","Stims/Figures/118-C-20-2.bmp","sahaza","Right","39","5","6","3A","C2","J","70"
"","","approach-retreat","74","1140550","0.0-74.0","","","2-5","7817","39","1","Training","Stims/Figures/57-J-0-1.bmp","vasha:va","Left","39","5","7","3A","C1","J","71"
"","","approach-retreat","75","1146790","0.0-75.0","","","2-5","4728","39","1","Training","Stims/Figures/74-J-10-4.bmp","vasha:va","Left","39","5","8","3A","C1","J","72"
"","","approach-retreat","76","1158550","0.0-76.0","","","2-5","10243","38","1","Training","Stims/Figures/57-C-30-1.bmp","sahaza","Up","38","5","9","3A","C2","J","73"
"","","approach-retreat","77","1168157","0.0-77.0","","","2-5","8095","37","1","Training","Stims/Figures/118-J-0-2.bmp","vasha:va","Right","37","5","10","3A","C1","J","74"
"","","approach-retreat","78","1174150","0.0-78.0","","","2-5","4481","40","1","Training","Stims/Figures/74-C-20-4.bmp","sahaza","Down","40","5","11","3A","C2","J","75"
"","","approach-retreat","79","1180429","0.0-79.0","","","2-5","4767","39","1","Training","Stims/Figures/94-J-0-2.bmp","vasha:va","Left","39","5","12","3A","C1","J","76"
"","","approach-retreat","80","1186710","0.0-80.0","","","2-5","4768","38","1","Training","Stims/Figures/144-C-30-3.bmp","sahaza","Up","38","5","13","3A","C2","J","77"
"","","approach-retreat","81","1195477","0.0-81.0","","","2-5","7255","39","1","Training","Stims/Figures/100-C-30-3.bmp","sahaza","Right","39","5","14","3A","C2","J","78"
"","","approach-retreat","82","1201462","0.0-82.0","","","2-5","4472","40","1","Training","Stims/Figures/7-J-10-4.bmp","vasha:va","Up","40","5","15","3A","C1","J","79"
"","","approach-retreat","83","1207821","0.0-83.0","","","2-5","4846","37","1","Training","Stims/Figures/86-J-0-1.bmp","vasha:va","Right","37","5","16","3A","C1","J","80"
"","","approach-retreat","84","1213839","0.0-84.0","","","2-5","4506","40","1","Training","Stims/Figures/86-J-0-1.bmp","vasha:va","Up","40","6","1","3A","C1","J","81"
"","","approach-retreat","85","1220616","0.0-85.0","","","2-5","5265","39","0","Training","Stims/Figures/57-C-30-1.bmp","sahaza","Left","37","6","2","3A","C2","J","82"
"","","approach-retreat","86","1230446","0.0-86.0","","","2-5","8316","40","1","Training","Stims/Figures/118-J-0-2.bmp","vasha:va","Up","40","6","3","3A","C1","J","83"
"","","approach-retreat","87","1239358","0.0-87.0","","","2-5","7400","38","1","Training","Stims/Figures/7-C-20-4.bmp","sahaza","Up","38","6","4","3A","C2","J","84"
"","","approach-retreat","88","1245606","0.0-88.0","","","2-5","4737","38","1","Training","Stims/Figures/94-J-0-2.bmp","vasha:va","Down","38","6","5","3A","C1","J","85"
"","","approach-retreat","89","1251973","0.0-89.0","","","2-5","4854","37","1","Training","Stims/Figures/100-C-30-3.bmp","sahaza","Left","37","6","6","3A","C2","J","86"
"","","approach-retreat","90","1258046","0.0-90.0","","","2-5","4560","38","1","Training","Stims/Figures/7-J-10-4.bmp","vasha:va","Down","38","6","7","3A","C1","J","87"
"","","approach-retreat","91","1272783","0.0-91.0","","","2-5","13224","39","1","Training","Stims/Figures/100-J-10-3.bmp","vasha:va","Left","39","6","8","3A","C1","J","88"
"","","approach-retreat","92","1282262","0.0-92.0","","","2-5","7967","40","1","Training","Stims/Figures/57-J-0-1.bmp","vasha:va","Up","40","6","9","3A","C1","J","89"
"","","approach-retreat","93","1290350","0.0-93.0","","","2-5","6576","40","1","Training","Stims/Figures/94-C-20-2.bmp","sahaza","Down","40","6","10","3A","C2","J","90"
"","","approach-retreat","94","1302750","0.0-94.0","","","2-5","10888","37","1","Training","Stims/Figures/74-J-10-4.bmp","vasha:va","Right","37","6","11","3A","C1","J","91"
"","","approach-retreat","95","1308558","0.0-95.0","","","2-5","4296","40","1","Training","Stims/Figures/74-C-20-4.bmp","sahaza","Down","40","6","12","3A","C2","J","92"
"","","approach-retreat","96","1316918","0.0-96.0","","","2-5","6848","39","1","Training","Stims/Figures/118-C-20-2.bmp","sahaza","Right","39","6","13","3A","C2","J","93"
"","","approach-retreat","97","1322854","0.0-97.0","","","2-5","4423","39","1","Training","Stims/Figures/86-C-30-1.bmp","sahaza","Right","39","6","14","3A","C2","J","94"
"","","approach-retreat","98","1329782","0.0-98.0","","","2-5","5416","37","1","Training","Stims/Figures/144-C-30-3.bmp","sahaza","Left","37","6","15","3A","C2","J","95"
"","","approach-retreat","99","1337493","0.0-99.0","","","2-5","6199","37","1","Training","Stims/Figures/144-J-10-3.bmp","vasha:va","Right","37","6","16","3A","C1","J","96"
"","","approach-retreat","100","1345879","0.0-100.0","","","2-5","6872","39","1","Training","Stims/Figures/100-C-30-3.bmp","sahaza","Right","39","7","1","3A","C2","J","97"
"","","approach-retreat","101","1353438","0.0-101.0","","","2-5","6048","38","1","Training","Stims/Figures/118-J-0-2.bmp","vasha:va","Down","38","7","2","3A","C1","J","98"
"","","approach-retreat","102","1360558","0.0-102.0","","","2-5","5608","39","1","Training","Stims/Figures/86-J-0-1.bmp","vasha:va","Left","39","7","3","3A","C1","J","99"
"","","approach-retreat","103","1369645","0.0-103.0","","","2-5","7575","40","1","Training","Stims/Figures/57-J-0-1.bmp","vasha:va","Up","40","7","4","3A","C1","J","100"
"","","approach-retreat","104","1378110","0.0-104.0","","","2-5","6949","38","1","Training","Stims/Figures/94-C-20-2.bmp","sahaza","Up","38","7","5","3A","C2","J","101"
"","","approach-retreat","105","1387885","0.0-105.0","","","2-5","8262","37","1","Training","Stims/Figures/86-C-30-1.bmp","sahaza","Left","37","7","6","3A","C2","J","102"
"","","approach-retreat","106","1399478","0.0-106.0","","","2-5","10080","39","1","Training","Stims/Figures/7-C-20-4.bmp","sahaza","Right","39","7","7","3A","C2","J","103"
"","","approach-retreat","107","1406917","0.0-107.0","","","2-5","5925","39","1","Training","Stims/Figures/144-J-10-3.bmp","vasha:va","Left","39","7","8","3A","C1","J","104"
"","","approach-retreat","108","1419702","0.0-108.0","","","2-5","11273","39","1","Training","Stims/Figures/118-C-20-2.bmp","sahaza","Right","39","7","9","3A","C2","J","105"
"","","approach-retreat","109","1426893","0.0-109.0","","","2-5","5679","40","1","Training","Stims/Figures/74-C-20-4.bmp","sahaza","Down","40","7","10","3A","C2","J","106"
"","","approach-retreat","110","1433230","0.0-110.0","","","2-5","4831","38","1","Training","Stims/Figures/74-J-10-4.bmp","vasha:va","Down","38","7","11","3A","C1","J","107"
"","","approach-retreat","111","1439253","0.0-111.0","","","2-5","4510","39","1","Training","Stims/Figures/100-J-10-3.bmp","vasha:va","Left","39","7","12","3A","C1","J","108"
"","","approach-retreat","112","1445662","0.0-112.0","","","2-5","4897","38","1","Training","Stims/Figures/57-C-30-1.bmp","sahaza","Up","38","7","13","3A","C2","J","109"
"","","approach-retreat","113","1452845","0.0-113.0","","","2-5","5671","39","1","Training","Stims/Figures/144-C-30-3.bmp","sahaza","Right","39","7","14","3A","C2","J","110"
"","","approach-retreat","114","1459030","0.0-114.0","","","2-5","4673","38","1","Training","Stims/Figures/94-J-0-2.bmp","vasha:va","Down","38","7","15","3A","C1","J","111"
"","","approach-retreat","115","1472519","0.0-115.0","","","2-5","11977","40","1","Training","Stims/Figures/7-J-10-4.bmp","vasha:va","Up","40","7","16","3A","C1","J","112"
"","","approach-retreat","116","1478421","0.0-116.0","","","2-5","4391","38","1","Training","Stims/Figures/74-J-10-4.bmp","vasha:va","Down","38","8","1","3A","C1","J","113"
"","","approach-retreat","117","1488686","0.0-117.0","","","2-5","8753","39","1","Training","Stims/Figures/86-J-0-1.bmp","vasha:va","Left","39","8","2","3A","C1","J","114"
"","","approach-retreat","118","1498485","0.0-118.0","","","2-5","8286","40","1","Training","Stims/Figures/94-C-20-2.bmp","sahaza","Down","40","8","3","3A","C2","J","115"
"","","approach-retreat","119","1508934","0.0-119.0","","","2-5","8937","37","1","Training","Stims/Figures/57-J-0-1.bmp","vasha:va","Right","37","8","4","3A","C1","J","116"
"","","approach-retreat","120","1514951","0.0-120.0","","","2-5","4505","40","1","Training","Stims/Figures/57-C-30-1.bmp","sahaza","Down","40","8","5","3A","C2","J","117"
"","","approach-retreat","121","1526422","0.0-121.0","","","2-5","9959","38","1","Training","Stims/Figures/100-C-30-3.bmp","sahaza","Up","38","8","6","3A","C2","J","118"
"","","approach-retreat","122","1534230","0.0-122.0","","","2-5","6296","39","1","Training","Stims/Figures/118-C-20-2.bmp","sahaza","Right","39","8","7","3A","C2","J","119"
"","","approach-retreat","123","1541645","0.0-123.0","","","2-5","5903","39","1","Training","Stims/Figures/94-J-0-2.bmp","vasha:va","Left","39","8","8","3A","C1","J","120"
"","","approach-retreat","124","1547685","0.0-124.0","","","2-5","4527","37","1","Training","Stims/Figures/144-C-30-3.bmp","sahaza","Left","37","8","9","3A","C2","J","121"
"","","approach-retreat","125","1553494","0.0-125.0","","","2-5","4296","37","1","Training","Stims/Figures/7-J-10-4.bmp","vasha:va","Right","37","8","10","3A","C1","J","122"
"","","approach-retreat","126","1559838","0.0-126.0","","","2-5","4832","39","1","Training","Stims/Figures/7-C-20-4.bmp","sahaza","Right","39","8","11","3A","C2","J","123"
"","","approach-retreat","127","1565790","0.0-127.0","","","2-5","4440","40","1","Training","Stims/Figures/118-J-0-2.bmp","vasha:va","Up","40","8","12","3A","C1","J","124"
"","","approach-retreat","128","1575101","0.0-128.0","","","2-5","7799","40","1","Training","Stims/Figures/86-C-30-1.bmp","sahaza","Down","40","8","13","3A","C2","J","125"
"","","approach-retreat","129","1581070","0.0-129.0","","","2-5","4457","39","1","Training","Stims/Figures/100-J-10-3.bmp","vasha:va","Left","39","8","14","3A","C1","J","126"
"","","approach-retreat","130","1588005","0.0-130.0","","","2-5","5422","38","1","Training","Stims/Figures/74-C-20-4.bmp","sahaza","Up","38","8","15","3A","C2","J","127"
"","","approach-retreat","131","1594134","0.0-131.0","","","2-5","4616","40","1","Training","Stims/Figures/144-J-10-3.bmp","vasha:va","Up","40","8","16","3A","C1","J","128"
"","","approach-retreat","132","1600821","0.0-132.0","","","2-5","5175","38","1","Training","Stims/Figures/74-J-10-4.bmp","vasha:va","Down","38","9","1","3A","C1","J","129"
"","","approach-retreat","133","1611326","0.0-133.0","","","2-5","8993","38","1","Training","Stims/Figures/118-C-20-2.bmp","sahaza","Up","38","9","2","3A","C2","J","130"
"","","approach-retreat","134","1617525","0.0-134.0","","","2-5","4687","37","1","Training","Stims/Figures/7-C-20-4.bmp","sahaza","Left","37","9","3","3A","C2","J","131"
"","","approach-retreat","135","1623614","0.0-135.0","","","2-5","4577","37","1","Training","Stims/Figures/144-C-30-3.bmp","sahaza","Left","37","9","4","3A","C2","J","132"
"","","approach-retreat","136","1630790","0.0-136.0","","","2-5","5664","38","1","Training","Stims/Figures/100-J-10-3.bmp","vasha:va","Down","38","9","5","3A","C1","J","133"
"","","approach-retreat","137","1636590","0.0-137.0","","","2-5","4287","37","1","Training","Stims/Figures/86-J-0-1.bmp","vasha:va","Right","37","9","6","3A","C1","J","134"
"","","approach-retreat","138","1642461","0.0-138.0","","","2-5","4358","40","1","Training","Stims/Figures/57-J-0-1.bmp","vasha:va","Up","40","9","7","3A","C1","J","135"
"","","approach-retreat","139","1648318","0.0-139.0","","","2-5","4345","40","1","Training","Stims/Figures/118-J-0-2.bmp","vasha:va","Up","40","9","8","3A","C1","J","136"
"","","approach-retreat","140","1661974","0.0-140.0","","","2-5","12144","40","1","Training","Stims/Figures/7-J-10-4.bmp","vasha:va","Up","40","9","9","3A","C1","J","137"
"","","approach-retreat","141","1668389","0.0-141.0","","","2-5","4902","37","1","Training","Stims/Figures/86-C-30-1.bmp","sahaza","Left","37","9","10","3A","C2","J","138"
"","","approach-retreat","142","1675353","0.0-142.0","","","2-5","5452","39","1","Training","Stims/Figures/94-C-20-2.bmp","sahaza","Right","39","9","11","3A","C2","J","139"
"","","approach-retreat","143","1686286","0.0-143.0","","","2-5","9421","39","1","Training","Stims/Figures/74-C-20-4.bmp","sahaza","Right","39","9","12","3A","C2","J","140"
"","","approach-retreat","144","1691989","0.0-144.0","","","2-5","4190","39","1","Training","Stims/Figures/144-J-10-3.bmp","vasha:va","Left","39","9","13","3A","C1","J","141"
"","","approach-retreat","145","1698062","0.0-145.0","","","2-5","4560","38","1","Training","Stims/Figures/94-J-0-2.bmp","vasha:va","Down","38","9","14","3A","C1","J","142"
"","","approach-retreat","146","1703773","0.0-146.0","","","2-5","4198","39","1","Training","Stims/Figures/100-C-30-3.bmp","sahaza","Right","39","9","15","3A","C2","J","143"
"","","approach-retreat","147","1717207","0.0-147.0","","","2-5","11922","40","1","Training","Stims/Figures/57-C-30-1.bmp","sahaza","Down","40","9","16","3A","C2","J","144"
"65284","","instructions","148","1782492","0.0-148.0","[{""page_index"":0,""viewing_time"":65284}]","","","","","","","","","","","","","","","",""
"","","approach-retreat","149","1792788","0.0-149.0","","","2-5","8788","37","1","Testing","Stims/Figures/111-C-30-3.bmp","sahaza","Left","37","1","1","3A","C2","J","1"
"","","approach-retreat","150","1804965","0.0-150.0","","","2-5","10667","37","1","Testing","Stims/Figures/86-J-0-1.bmp","vasha:va","Right","37","1","2","3A","C1","J","2"
"","","approach-retreat","151","1815669","0.0-151.0","","","2-5","9195","40","1","Testing","Stims/Figures/57-J-0-1.bmp","vasha:va","Up","40","1","3","3A","C1","J","3"
"","","approach-retreat","152","1822916","0.0-152.0","","","2-5","5738","38","1","Testing","Stims/Figures/118-J-0-2.bmp","vasha:va","Down","38","1","4","3A","C1","J","4"
"","","approach-retreat","153","1831173","0.0-153.0","","","2-5","6748","40","1","Testing","Stims/Figures/71-J-0-1.bmp","vasha:va","Up","40","1","5","3A","C1","J","5"
"","","approach-retreat","154","1839916","0.0-154.0","","","2-5","7234","37","1","Testing","Stims/Figures/7-C-20-4.bmp","sahaza","Left","37","1","6","3A","C2","J","6"
"","","approach-retreat","155","1846293","0.0-155.0","","","2-5","4868","37","1","Testing","Stims/Figures/71-C-30-1.bmp","sahaza","Left","37","1","7","3A","C2","J","7"
"","","approach-retreat","156","1855204","0.0-156.0","","","2-5","7402","37","1","Testing","Stims/Figures/74-J-10-4.bmp","vasha:va","Right","37","1","8","3A","C1","J","8"
"","","approach-retreat","157","1862181","0.0-157.0","","","2-5","5468","37","1","Testing","Stims/Figures/100-J-10-3.bmp","vasha:va","Right","37","1","9","3A","C1","J","9"
"","","approach-retreat","158","1869356","0.0-158.0","","","2-5","5666","38","1","Testing","Stims/Figures/86-C-30-1.bmp","sahaza","Up","38","1","10","3A","C2","J","10"
"","","approach-retreat","159","1887325","0.0-159.0","","","2-5","16460","40","1","Testing","Stims/Figures/118-C-20-2.bmp","sahaza","Down","40","1","11","3A","C2","J","11"
"","","approach-retreat","160","1897710","0.0-160.0","","","2-5","8876","37","1","Testing","Stims/Figures/100-C-30-3.bmp","sahaza","Left","37","1","12","3A","C2","J","12"
"","","approach-retreat","161","1911149","0.0-161.0","","","2-5","11930","37","1","Testing","Stims/Figures/87-C-20-4.bmp","sahaza","Left","37","1","13","3A","C2","J","13"
"","","approach-retreat","162","1917156","0.0-162.0","","","2-5","4498","38","1","Testing","Stims/Figures/144-J-10-3.bmp","vasha:va","Down","38","1","14","3A","C1","J","14"
"","","approach-retreat","163","1928125","0.0-163.0","","","2-5","9460","38","0","Testing","Stims/Figures/84-C-20-2.bmp","sahaza","Down","40","1","15","3A","C2","J","15"
"","","approach-retreat","164","1934588","0.0-164.0","","","2-5","4954","40","1","Testing","Stims/Figures/87-J-10-4.bmp","vasha:va","Up","40","1","16","3A","C1","J","16"
"","","approach-retreat","165","1940317","0.0-165.0","","","2-5","4217","39","1","Testing","Stims/Figures/94-J-0-2.bmp","vasha:va","Left","39","1","17","3A","C1","J","17"
"","","approach-retreat","166","1951517","0.0-166.0","","","2-5","9690","37","0","Testing","Stims/Figures/144-C-30-3.bmp","sahaza","Right","39","1","18","3A","C2","J","18"
"","","approach-retreat","167","1957500","0.0-167.0","","","2-5","4466","38","1","Testing","Stims/Figures/84-J-0-2.bmp","vasha:va","Down","38","1","19","3A","C1","J","19"
"","","approach-retreat","168","1966517","0.0-168.0","","","2-5","7508","37","1","Testing","Stims/Figures/111-J-10-3.bmp","vasha:va","Right","37","1","20","3A","C1","J","20"
"","","approach-retreat","169","1972188","0.0-169.0","","","2-5","4162","38","1","Testing","Stims/Figures/7-J-10-4.bmp","vasha:va","Down","38","1","21","3A","C1","J","21"
"","","approach-retreat","170","1978621","0.0-170.0","","","2-5","4924","38","1","Testing","Stims/Figures/94-C-20-2.bmp","sahaza","Up","38","1","22","3A","C2","J","22"
"","","approach-retreat","171","1985156","0.0-171.0","","","2-5","5025","39","1","Testing","Stims/Figures/57-C-30-1.bmp","sahaza","Right","39","1","23","3A","C2","J","23"
"","","approach-retreat","172","1996221","0.0-172.0","","","2-5","9556","40","0","Testing","Stims/Figures/74-C-20-4.bmp","sahaza","Up","38","1","24","3A","C2","J","24"
"","","approach-retreat","173","2003116","0.0-173.0","","","2-5","5385","39","1","Testing","Stims/Figures/100-J-10-3.bmp","vasha:va","Left","39","2","1","3A","C1","J","25"
"","","approach-retreat","174","2009581","0.0-174.0","","","2-5","4955","39","1","Testing","Stims/Figures/86-C-30-1.bmp","sahaza","Right","39","2","2","3A","C2","J","26"
"","","approach-retreat","175","2019981","0.0-175.0","","","2-5","8891","37","1","Testing","Stims/Figures/111-J-10-3.bmp","vasha:va","Right","37","2","3","3A","C1","J","27"
"","","approach-retreat","176","2025884","0.0-176.0","","","2-5","4393","40","1","Testing","Stims/Figures/86-J-0-1.bmp","vasha:va","Up","40","2","4","3A","C1","J","28"
"","","approach-retreat","177","2033445","0.0-177.0","","","2-5","6052","38","1","Testing","Stims/Figures/87-J-10-4.bmp","vasha:va","Down","38","2","5","3A","C1","J","29"
"","","approach-retreat","178","2040668","0.0-178.0","","","2-5","5714","40","1","Testing","Stims/Figures/74-J-10-4.bmp","vasha:va","Up","40","2","6","3A","C1","J","30"
"","","approach-retreat","179","2051213","0.0-179.0","","","2-5","9036","39","1","Testing","Stims/Figures/111-C-30-3.bmp","sahaza","Right","39","2","7","3A","C2","J","31"
"","","approach-retreat","180","2061381","0.0-180.0","","","2-5","8659","37","1","Testing","Stims/Figures/118-C-20-2.bmp","sahaza","Left","37","2","8","3A","C2","J","32"
"","","approach-retreat","181","2067604","0.0-181.0","","","2-5","4715","40","1","Testing","Stims/Figures/57-C-30-1.bmp","sahaza","Down","40","2","9","3A","C2","J","33"
"","","approach-retreat","182","2073461","0.0-182.0","","","2-5","4348","39","1","Testing","Stims/Figures/71-C-30-1.bmp","sahaza","Right","39","2","10","3A","C2","J","34"
"","","approach-retreat","183","2082596","0.0-183.0","","","2-5","7626","39","1","Testing","Stims/Figures/100-C-30-3.bmp","sahaza","Right","39","2","11","3A","C2","J","35"
"","","approach-retreat","184","2089909","0.0-184.0","","","2-5","5804","40","1","Testing","Stims/Figures/7-J-10-4.bmp","vasha:va","Up","40","2","12","3A","C1","J","36"
"","","approach-retreat","185","2095876","0.0-185.0","","","2-5","4458","38","1","Testing","Stims/Figures/118-J-0-2.bmp","vasha:va","Down","38","2","13","3A","C1","J","37"
"","","approach-retreat","186","2114053","0.0-186.0","","","2-5","16668","40","1","Testing","Stims/Figures/74-C-20-4.bmp","sahaza","Down","40","2","14","3A","C2","J","38"
"","","approach-retreat","187","2125645","0.0-187.0","","","2-5","10083","38","1","Testing","Stims/Figures/87-C-20-4.bmp","sahaza","Up","38","2","15","3A","C2","J","39"
"","","approach-retreat","188","2138797","0.0-188.0","","","2-5","11643","40","1","Testing","Stims/Figures/94-C-20-2.bmp","sahaza","Down","40","2","16","3A","C2","J","40"
"","","approach-retreat","189","2158525","0.0-189.0","","","2-5","18219","39","0","Testing","Stims/Figures/84-C-20-2.bmp","sahaza","Left","37","2","17","3A","C2","J","41"
"","","approach-retreat","190","2166236","0.0-190.0","","","2-5","6202","40","1","Testing","Stims/Figures/94-J-0-2.bmp","vasha:va","Up","40","2","18","3A","C1","J","42"
"","","approach-retreat","191","2173429","0.0-191.0","","","2-5","5684","37","1","Testing","Stims/Figures/7-C-20-4.bmp","sahaza","Left","37","2","19","3A","C2","J","43"
"","","approach-retreat","192","2179236","0.0-192.0","","","2-5","4298","38","1","Testing","Stims/Figures/84-J-0-2.bmp","vasha:va","Down","38","2","20","3A","C1","J","44"
"","","approach-retreat","193","2185341","0.0-193.0","","","2-5","4596","39","1","Testing","Stims/Figures/57-J-0-1.bmp","vasha:va","Left","39","2","21","3A","C1","J","45"
"","","approach-retreat","194","2190964","0.0-194.0","","","2-5","4114","37","1","Testing","Stims/Figures/144-J-10-3.bmp","vasha:va","Right","37","2","22","3A","C1","J","46"
"","","approach-retreat","195","2197181","0.0-195.0","","","2-5","4708","37","1","Testing","Stims/Figures/144-C-30-3.bmp","sahaza","Left","37","2","23","3A","C2","J","47"
"","","approach-retreat","196","2203028","0.0-196.0","","","2-5","4338","40","1","Testing","Stims/Figures/71-J-0-1.bmp","vasha:va","Up","40","2","24","3A","C1","J","48"
"","","approach-retreat","197","2210501","0.0-197.0","","","2-5","5966","40","1","Testing","Stims/Figures/111-C-30-3.bmp","sahaza","Down","40","3","1","3A","C2","J","49"
"","","approach-retreat","198","2220116","0.0-198.0","","","2-5","8110","40","1","Testing","Stims/Figures/111-J-10-3.bmp","vasha:va","Up","40","3","2","3A","C1","J","50"
"","","approach-retreat","199","2226637","0.0-199.0","","","2-5","5012","38","1","Testing","Stims/Figures/144-C-30-3.bmp","sahaza","Up","38","3","3","3A","C2","J","51"
"","","approach-retreat","200","2232372","0.0-200.0","","","2-5","4226","39","1","Testing","Stims/Figures/74-J-10-4.bmp","vasha:va","Left","39","3","4","3A","C1","J","52"
"","","approach-retreat","201","2238309","0.0-201.0","","","2-5","4428","40","1","Testing","Stims/Figures/7-J-10-4.bmp","vasha:va","Up","40","3","5","3A","C1","J","53"
"","","approach-retreat","202","2243948","0.0-202.0","","","2-5","4130","37","1","Testing","Stims/Figures/118-J-0-2.bmp","vasha:va","Right","37","3","6","3A","C1","J","54"
"","","approach-retreat","203","2249941","0.0-203.0","","","2-5","4483","40","1","Testing","Stims/Figures/74-C-20-4.bmp","sahaza","Down","40","3","7","3A","C2","J","55"
"","","approach-retreat","204","2255548","0.0-204.0","","","2-5","4098","38","1","Testing","Stims/Figures/87-J-10-4.bmp","vasha:va","Down","38","3","8","3A","C1","J","56"
"","","approach-retreat","205","2261317","0.0-205.0","","","2-5","4260","39","1","Testing","Stims/Figures/57-J-0-1.bmp","vasha:va","Left","39","3","9","3A","C1","J","57"
"","","approach-retreat","206","2267140","0.0-206.0","","","2-5","4314","39","1","Testing","Stims/Figures/7-C-20-4.bmp","sahaza","Right","39","3","10","3A","C2","J","58"
"","","approach-retreat","207","2272956","0.0-207.0","","","2-5","4307","40","1","Testing","Stims/Figures/71-J-0-1.bmp","vasha:va","Up","40","3","11","3A","C1","J","59"
"","","approach-retreat","208","2278700","0.0-208.0","","","2-5","4235","37","1","Testing","Stims/Figures/118-C-20-2.bmp","sahaza","Left","37","3","12","3A","C2","J","60"
"","","approach-retreat","209","2284389","0.0-209.0","","","2-5","4180","40","1","Testing","Stims/Figures/86-J-0-1.bmp","vasha:va","Up","40","3","13","3A","C1","J","61"
"","","approach-retreat","210","2290204","0.0-210.0","","","2-5","4305","40","1","Testing","Stims/Figures/57-C-30-1.bmp","sahaza","Down","40","3","14","3A","C2","J","62"
"","","approach-retreat","211","2296037","0.0-211.0","","","2-5","4324","38","1","Testing","Stims/Figures/94-J-0-2.bmp","vasha:va","Down","38","3","15","3A","C1","J","63"
"","","approach-retreat","212","2301716","0.0-212.0","","","2-5","4170","37","1","Testing","Stims/Figures/100-J-10-3.bmp","vasha:va","Right","37","3","16","3A","C1","J","64"
"","","approach-retreat","213","2311845","0.0-213.0","","","2-5","8620","37","1","Testing","Stims/Figures/100-C-30-3.bmp","sahaza","Left","37","3","17","3A","C2","J","65"
"","","approach-retreat","214","2317684","0.0-214.0","","","2-5","4330","39","1","Testing","Stims/Figures/144-J-10-3.bmp","vasha:va","Left","39","3","18","3A","C1","J","66"
"","","approach-retreat","215","2324573","0.0-215.0","","","2-5","5380","37","1","Testing","Stims/Figures/84-J-0-2.bmp","vasha:va","Right","37","3","19","3A","C1","J","67"
"","","approach-retreat","216","2331516","0.0-216.0","","","2-5","5434","37","1","Testing","Stims/Figures/86-C-30-1.bmp","sahaza","Left","37","3","20","3A","C2","J","68"
"","","approach-retreat","217","2337941","0.0-217.0","","","2-5","4916","40","1","Testing","Stims/Figures/84-C-20-2.bmp","sahaza","Down","40","3","21","3A","C2","J","69"
"","","approach-retreat","218","2350429","0.0-218.0","","","2-5","10979","38","1","Testing","Stims/Figures/71-C-30-1.bmp","sahaza","Up","38","3","22","3A","C2","J","70"
"","","approach-retreat","219","2356076","0.0-219.0","","","2-5","4138","39","1","Testing","Stims/Figures/94-C-20-2.bmp","sahaza","Right","39","3","23","3A","C2","J","71"
"","","approach-retreat","220","2361789","0.0-220.0","","","2-5","4204","39","1","Testing","Stims/Figures/87-C-20-4.bmp","sahaza","Right","39","3","24","3A","C2","J","72"
"","","approach-retreat","221","2370373","0.0-221.0","","","2-5","7080","40","1","Testing","Stims/Figures/74-C-20-4.bmp","sahaza","Down","40","4","1","3A","C2","J","73"
"","","approach-retreat","222","2376205","0.0-222.0","","","2-5","4323","37","1","Testing","Stims/Figures/74-J-10-4.bmp","vasha:va","Right","37","4","2","3A","C1","J","74"
"","","approach-retreat","223","2382052","0.0-223.0","","","2-5","4338","37","1","Testing","Stims/Figures/7-C-20-4.bmp","sahaza","Left","37","4","3","3A","C2","J","75"
"","","approach-retreat","224","2391261","0.0-224.0","","","2-5","7700","38","1","Testing","Stims/Figures/111-C-30-3.bmp","sahaza","Up","38","4","4","3A","C2","J","76"
"","","approach-retreat","225","2396916","0.0-225.0","","","2-5","4146","38","1","Testing","Stims/Figures/118-J-0-2.bmp","vasha:va","Down","38","4","5","3A","C1","J","77"
"","","approach-retreat","226","2403045","0.0-226.0","","","2-5","4620","39","1","Testing","Stims/Figures/100-C-30-3.bmp","sahaza","Right","39","4","6","3A","C2","J","78"
"","","approach-retreat","227","2409148","0.0-227.0","","","2-5","4594","37","1","Testing","Stims/Figures/87-C-20-4.bmp","sahaza","Left","37","4","7","3A","C2","J","79"
"","","approach-retreat","228","2414757","0.0-228.0","","","2-5","4100","40","1","Testing","Stims/Figures/87-J-10-4.bmp","vasha:va","Up","40","4","8","3A","C1","J","80"
"","","approach-retreat","229","2421476","0.0-229.0","","","2-5","5210","40","1","Testing","Stims/Figures/57-C-30-1.bmp","sahaza","Down","40","4","9","3A","C2","J","81"
"","","approach-retreat","230","2431989","0.0-230.0","","","2-5","9004","40","0","Testing","Stims/Figures/84-C-20-2.bmp","sahaza","Up","38","4","10","3A","C2","J","82"
"","","approach-retreat","231","2438524","0.0-231.0","","","2-5","5025","40","1","Testing","Stims/Figures/84-J-0-2.bmp","vasha:va","Up","40","4","11","3A","C1","J","83"
"","","approach-retreat","232","2444189","0.0-232.0","","","2-5","4156","39","1","Testing","Stims/Figures/100-J-10-3.bmp","vasha:va","Left","39","4","12","3A","C1","J","84"
"","","approach-retreat","233","2450276","0.0-233.0","","","2-5","4576","38","1","Testing","Stims/Figures/118-C-20-2.bmp","sahaza","Up","38","4","13","3A","C2","J","85"
"","","approach-retreat","234","2455909","0.0-234.0","","","2-5","4124","39","1","Testing","Stims/Figures/71-J-0-1.bmp","vasha:va","Left","39","4","14","3A","C1","J","86"
"","","approach-retreat","235","2461972","0.0-235.0","","","2-5","4554","38","1","Testing","Stims/Figures/94-J-0-2.bmp","vasha:va","Down","38","4","15","3A","C1","J","87"
"","","approach-retreat","236","2468061","0.0-236.0","","","2-5","4580","37","1","Testing","Stims/Figures/86-C-30-1.bmp","sahaza","Left","37","4","16","3A","C2","J","88"
"","","approach-retreat","237","2473900","0.0-237.0","","","2-5","4330","39","1","Testing","Stims/Figures/94-C-20-2.bmp","sahaza","Right","39","4","17","3A","C2","J","89"
"","","approach-retreat","238","2479789","0.0-238.0","","","2-5","4380","39","1","Testing","Stims/Figures/144-C-30-3.bmp","sahaza","Right","39","4","18","3A","C2","J","90"
"","","approach-retreat","239","2491109","0.0-239.0","","","2-5","9811","39","1","Testing","Stims/Figures/71-C-30-1.bmp","sahaza","Right","39","4","19","3A","C2","J","91"
"","","approach-retreat","240","2499428","0.0-240.0","","","2-5","6810","37","1","Testing","Stims/Figures/7-J-10-4.bmp","vasha:va","Right","37","4","20","3A","C1","J","92"
"","","approach-retreat","241","2506869","0.0-241.0","","","2-5","5932","38","1","Testing","Stims/Figures/144-J-10-3.bmp","vasha:va","Down","38","4","21","3A","C1","J","93"
"","","approach-retreat","242","2513580","0.0-242.0","","","2-5","5202","39","1","Testing","Stims/Figures/111-J-10-3.bmp","vasha:va","Left","39","4","22","3A","C1","J","94"
"","","approach-retreat","243","2519717","0.0-243.0","","","2-5","4627","40","1","Testing","Stims/Figures/86-J-0-1.bmp","vasha:va","Up","40","4","23","3A","C1","J","95"
"","","approach-retreat","244","2525500","0.0-244.0","","","2-5","4274","38","1","Testing","Stims/Figures/57-J-0-1.bmp","vasha:va","Down","38","4","24","3A","C1","J","96"
"112849","","survey-text","245","2638356","0.0-245.0","","{""Q0"":""2018/0085""}","","","","","","","","","","","","","","",""
