"rt","key_press","trial_type","trial_index","time_elapsed","internal_node_id","view_history","responses","Id","Rt","ResKeyCode","ResCorr","TrialType2","Image","Label","Location","CorrectResponse","Block","BlockTrial","Condition","LabelType","Subcondition","trialNum"
"456999","32","text","0","457001","0.0-0.0-0.0","","","","","","","","","","","","","","","","",""
"52815","","instructions","1","509817","0.0-1.0","[{""page_index"":0,""viewing_time"":52815}]","","","","","","","","","","","","","","","",""
"46078","","survey-multi-choice","2","555907","0.0-2.0","","{""Q0"":""Da"",""Q1"":""Da"",""Q2"":""Da"",""Q3"":""Da"",""Q4"":""Da"",""Q5"":""Da""}","","","","","","","","","","","","","","",""
"","","bio","3","563496","0.0-3.0","","{""age"":""23"",""gender"":""f"",""specify"":""""}","","","","","","","","","","","","","","",""
"","","approach-retreat","4","576207","0.0-4.0","","","2-3","11205","37","0","Training","Stims/Figures/102-J-10-4.bmp","sa:haza","Right","39","1","1","8","C2","C","1"
"","","approach-retreat","5","582022","0.0-5.0","","","2-3","4311","39","0","Training","Stims/Figures/102-C-20-4.bmp","za:sa:za","Right","37","1","2","8","C2","C","2"
"","","approach-retreat","6","593110","0.0-6.0","","","2-3","9584","40","0","Training","Stims/Figures/139-J-0-2.bmp","va:shava","Up","38","1","3","8","C1","C","3"
"","","approach-retreat","7","603111","0.0-7.0","","","2-3","8498","38","0","Training","Stims/Figures/44-C-30-3.bmp","saha:za","Up","40","1","4","8","C2","C","4"
"","","approach-retreat","8","610565","0.0-8.0","","","2-3","5951","38","1","Training","Stims/Figures/93-J-0-1.bmp","fafa:va","Up","38","1","5","8","C1","C","5"
"","","approach-retreat","9","617366","0.0-9.0","","","2-3","5297","37","0","Training","Stims/Figures/71-C-30-1.bmp","vashasha","Left","39","1","6","8","C1","C","6"
"","","approach-retreat","10","625381","0.0-10.0","","","2-3","6513","40","0","Training","Stims/Figures/93-C-30-1.bmp","fa:sha:sha","Down","38","1","7","8","C1","C","7"
"","","approach-retreat","11","636143","0.0-11.0","","","2-3","9256","37","0","Training","Stims/Figures/71-J-0-1.bmp","fafava","Right","39","1","8","8","C1","C","8"
"","","approach-retreat","12","642749","0.0-12.0","","","2-3","5103","38","1","Training","Stims/Figures/7-C-20-4.bmp","sasa:za","Down","38","1","9","8","C2","C","9"
"","","approach-retreat","13","649375","0.0-13.0","","","2-3","5121","37","1","Training","Stims/Figures/85-J-0-2.bmp","vafasha","Left","37","1","10","8","C1","C","10"
"","","approach-retreat","14","655509","0.0-14.0","","","2-3","4632","40","1","Training","Stims/Figures/44-J-10-3.bmp","sahaza","Down","40","1","11","8","C2","C","11"
"","","approach-retreat","15","661831","0.0-15.0","","","2-3","4816","37","1","Training","Stims/Figures/7-J-10-4.bmp","sasa:ha","Left","37","1","12","8","C2","C","12"
"","","approach-retreat","16","667773","0.0-16.0","","","2-3","4440","37","0","Training","Stims/Figures/85-C-20-2.bmp","vasha:va","Left","39","1","13","8","C1","C","13"
"","","approach-retreat","17","673712","0.0-17.0","","","2-3","4435","39","0","Training","Stims/Figures/139-C-20-2.bmp","va:sha:sha","Right","37","1","14","8","C1","C","14"
"","","approach-retreat","18","681566","0.0-18.0","","","2-3","6352","38","1","Training","Stims/Figures/144-J-10-3.bmp","sa:saza","Up","38","1","15","8","C2","C","15"
"","","approach-retreat","19","689295","0.0-19.0","","","2-3","6226","38","1","Training","Stims/Figures/144-C-30-3.bmp","za:saza","Down","38","1","16","8","C2","C","16"
"","","approach-retreat","20","697223","0.0-20.0","","","2-3","6424","38","1","Training","Stims/Figures/102-C-20-4.bmp","za:sa:za","Down","38","2","1","8","C2","C","17"
"","","approach-retreat","21","706525","0.0-21.0","","","2-3","7800","40","1","Training","Stims/Figures/93-C-30-1.bmp","fa:sha:sha","Up","40","2","2","8","C1","C","18"
"","","approach-retreat","22","712645","0.0-22.0","","","2-3","4617","37","1","Training","Stims/Figures/44-J-10-3.bmp","sahaza","Left","37","2","3","8","C2","C","19"
"","","approach-retreat","23","720798","0.0-23.0","","","2-3","6650","38","0","Training","Stims/Figures/139-J-0-2.bmp","va:shava","Down","40","2","4","8","C1","C","20"
"","","approach-retreat","24","728215","0.0-24.0","","","2-3","5914","40","1","Training","Stims/Figures/93-J-0-1.bmp","fafa:va","Down","40","2","5","8","C1","C","21"
"","","approach-retreat","25","734977","0.0-25.0","","","2-3","5258","37","0","Training","Stims/Figures/139-C-20-2.bmp","va:sha:sha","Left","39","2","6","8","C1","C","22"
"","","approach-retreat","26","742143","0.0-26.0","","","2-3","5665","40","0","Training","Stims/Figures/102-J-10-4.bmp","sa:haza","Up","38","2","7","8","C2","C","23"
"","","approach-retreat","27","748992","0.0-27.0","","","2-3","5345","39","0","Training","Stims/Figures/71-C-30-1.bmp","vashasha","Right","37","2","8","8","C1","C","24"
"","","approach-retreat","28","757616","0.0-28.0","","","2-3","7121","38","1","Training","Stims/Figures/44-C-30-3.bmp","saha:za","Down","38","2","9","8","C2","C","25"
"","","approach-retreat","29","763720","0.0-29.0","","","2-3","4600","37","0","Training","Stims/Figures/144-C-30-3.bmp","za:saza","Left","39","2","10","8","C2","C","26"
"","","approach-retreat","30","770680","0.0-30.0","","","2-3","5459","39","1","Training","Stims/Figures/85-J-0-2.bmp","vafasha","Right","39","2","11","8","C1","C","27"
"","","approach-retreat","31","780319","0.0-31.0","","","2-3","8137","40","0","Training","Stims/Figures/144-J-10-3.bmp","sa:saza","Up","38","2","12","8","C2","C","28"
"","","approach-retreat","32","787547","0.0-32.0","","","2-3","5723","40","1","Training","Stims/Figures/7-C-20-4.bmp","sasa:za","Up","40","2","13","8","C2","C","29"
"","","approach-retreat","33","794449","0.0-33.0","","","2-3","5401","37","0","Training","Stims/Figures/71-J-0-1.bmp","fafava","Right","39","2","14","8","C1","C","30"
"","","approach-retreat","34","800899","0.0-34.0","","","2-3","4946","39","1","Training","Stims/Figures/7-J-10-4.bmp","sasa:ha","Right","39","2","15","8","C2","C","31"
"","","approach-retreat","35","807570","0.0-35.0","","","2-3","5168","39","1","Training","Stims/Figures/85-C-20-2.bmp","vasha:va","Left","39","2","16","8","C1","C","32"
"","","approach-retreat","36","813642","0.0-36.0","","","2-3","4570","37","0","Training","Stims/Figures/44-C-30-3.bmp","saha:za","Left","39","3","1","8","C2","C","33"
"","","approach-retreat","37","820834","0.0-37.0","","","2-3","5689","38","1","Training","Stims/Figures/85-C-20-2.bmp","vasha:va","Down","38","3","2","8","C1","C","34"
"","","approach-retreat","38","827218","0.0-38.0","","","2-3","4881","40","0","Training","Stims/Figures/102-C-20-4.bmp","za:sa:za","Down","38","3","3","8","C2","C","35"
"","","approach-retreat","39","833131","0.0-39.0","","","2-3","4410","37","0","Training","Stims/Figures/139-C-20-2.bmp","va:sha:sha","Left","39","3","4","8","C1","C","36"
"","","approach-retreat","40","839732","0.0-40.0","","","2-3","5095","40","0","Training","Stims/Figures/93-C-30-1.bmp","fa:sha:sha","Down","38","3","5","8","C1","C","37"
"","","approach-retreat","41","849750","0.0-41.0","","","2-3","8515","39","1","Training","Stims/Figures/7-J-10-4.bmp","sasa:ha","Right","39","3","6","8","C2","C","38"
"","","approach-retreat","42","855581","0.0-42.0","","","2-3","4327","37","1","Training","Stims/Figures/93-J-0-1.bmp","fafa:va","Left","37","3","7","8","C1","C","39"
"","","approach-retreat","43","861869","0.0-43.0","","","2-3","4784","37","1","Training","Stims/Figures/71-C-30-1.bmp","vashasha","Right","37","3","8","8","C1","C","40"
"","","approach-retreat","44","868757","0.0-44.0","","","2-3","5383","40","1","Training","Stims/Figures/144-C-30-3.bmp","za:saza","Up","40","3","9","8","C2","C","41"
"","","approach-retreat","45","874901","0.0-45.0","","","2-3","4641","38","1","Training","Stims/Figures/102-J-10-4.bmp","sa:haza","Up","38","3","10","8","C2","C","42"
"","","approach-retreat","46","881510","0.0-46.0","","","2-3","5104","40","0","Training","Stims/Figures/139-J-0-2.bmp","va:shava","Up","38","3","11","8","C1","C","43"
"","","approach-retreat","47","887795","0.0-47.0","","","2-3","4783","39","0","Training","Stims/Figures/85-J-0-2.bmp","vafasha","Left","37","3","12","8","C1","C","44"
"","","approach-retreat","48","894613","0.0-48.0","","","2-3","5314","38","0","Training","Stims/Figures/144-J-10-3.bmp","sa:saza","Down","40","3","13","8","C2","C","45"
"","","approach-retreat","49","904337","0.0-49.0","","","2-3","8215","37","1","Training","Stims/Figures/7-C-20-4.bmp","sasa:za","Right","37","3","14","8","C2","C","46"
"","","approach-retreat","50","911088","0.0-50.0","","","2-3","5248","37","0","Training","Stims/Figures/44-J-10-3.bmp","sahaza","Right","39","3","15","8","C2","C","47"
"","","approach-retreat","51","917111","0.0-51.0","","","2-3","4519","38","1","Training","Stims/Figures/71-J-0-1.bmp","fafava","Up","38","3","16","8","C1","C","48"
"","","approach-retreat","52","923367","0.0-52.0","","","2-3","4752","39","1","Training","Stims/Figures/102-J-10-4.bmp","sa:haza","Right","39","4","1","8","C2","C","49"
"","","approach-retreat","53","929495","0.0-53.0","","","2-3","4625","37","1","Training","Stims/Figures/71-J-0-1.bmp","fafava","Left","37","4","2","8","C1","C","50"
"","","approach-retreat","54","935959","0.0-54.0","","","2-3","4962","39","0","Training","Stims/Figures/144-C-30-3.bmp","za:saza","Right","37","4","3","8","C2","C","51"
"","","approach-retreat","55","942991","0.0-55.0","","","2-3","5529","40","0","Training","Stims/Figures/44-C-30-3.bmp","saha:za","Down","38","4","4","8","C2","C","52"
"","","approach-retreat","56","949559","0.0-56.0","","","2-3","5065","40","0","Training","Stims/Figures/139-J-0-2.bmp","va:shava","Up","38","4","5","8","C1","C","53"
"","","approach-retreat","57","956623","0.0-57.0","","","2-3","5561","39","1","Training","Stims/Figures/93-J-0-1.bmp","fafa:va","Right","39","4","6","8","C1","C","54"
"","","approach-retreat","58","963343","0.0-58.0","","","2-3","5217","39","1","Training","Stims/Figures/93-C-30-1.bmp","fa:sha:sha","Left","39","4","7","8","C1","C","55"
"","","approach-retreat","59","969545","0.0-59.0","","","2-3","4699","39","1","Training","Stims/Figures/139-C-20-2.bmp","va:sha:sha","Left","39","4","8","8","C1","C","56"
"","","approach-retreat","60","978337","0.0-60.0","","","2-3","7290","39","1","Training","Stims/Figures/7-C-20-4.bmp","sasa:za","Left","39","4","9","8","C2","C","57"
"","","approach-retreat","61","985337","0.0-61.0","","","2-3","5497","40","0","Training","Stims/Figures/85-C-20-2.bmp","vasha:va","Down","38","4","10","8","C1","C","58"
"","","approach-retreat","62","991457","0.0-62.0","","","2-3","4618","37","1","Training","Stims/Figures/102-C-20-4.bmp","za:sa:za","Right","37","4","11","8","C2","C","59"
"","","approach-retreat","63","999153","0.0-63.0","","","2-3","6194","40","0","Training","Stims/Figures/144-J-10-3.bmp","sa:saza","Up","38","4","12","8","C2","C","60"
"","","approach-retreat","64","1006386","0.0-64.0","","","2-3","5729","38","1","Training","Stims/Figures/71-C-30-1.bmp","vashasha","Down","38","4","13","8","C1","C","61"
"","","approach-retreat","65","1014097","0.0-65.0","","","2-3","6209","38","1","Training","Stims/Figures/85-J-0-2.bmp","vafasha","Up","38","4","14","8","C1","C","62"
"","","approach-retreat","66","1022097","0.0-66.0","","","2-3","6497","40","1","Training","Stims/Figures/7-J-10-4.bmp","sasa:ha","Down","40","4","15","8","C2","C","63"
"","","approach-retreat","67","1028564","0.0-67.0","","","2-3","4963","38","1","Training","Stims/Figures/44-J-10-3.bmp","sahaza","Up","38","4","16","8","C2","C","64"
"","","approach-retreat","68","1035019","0.0-68.0","","","2-3","4951","38","0","Training","Stims/Figures/85-C-20-2.bmp","vasha:va","Up","40","5","1","8","C1","C","65"
"","","approach-retreat","69","1040755","0.0-69.0","","","2-3","4233","38","1","Training","Stims/Figures/71-J-0-1.bmp","fafava","Up","38","5","2","8","C1","C","66"
"","","approach-retreat","70","1048580","0.0-70.0","","","2-3","6321","37","0","Training","Stims/Figures/139-J-0-2.bmp","va:shava","Right","39","5","3","8","C1","C","67"
"","","approach-retreat","71","1056339","0.0-71.0","","","2-3","6255","39","1","Training","Stims/Figures/7-C-20-4.bmp","sasa:za","Left","39","5","4","8","C2","C","68"
"","","approach-retreat","72","1062802","0.0-72.0","","","2-3","4960","38","1","Training","Stims/Figures/139-C-20-2.bmp","va:sha:sha","Down","38","5","5","8","C1","C","69"
"","","approach-retreat","73","1068714","0.0-73.0","","","2-3","4408","39","0","Training","Stims/Figures/102-C-20-4.bmp","za:sa:za","Right","37","5","6","8","C2","C","70"
"","","approach-retreat","74","1074964","0.0-74.0","","","2-3","4746","39","0","Training","Stims/Figures/144-J-10-3.bmp","sa:saza","Left","37","5","7","8","C2","C","71"
"","","approach-retreat","75","1080665","0.0-75.0","","","2-3","4199","37","1","Training","Stims/Figures/71-C-30-1.bmp","vashasha","Right","37","5","8","8","C1","C","72"
"","","approach-retreat","76","1087052","0.0-76.0","","","2-3","4881","40","0","Training","Stims/Figures/85-J-0-2.bmp","vafasha","Up","38","5","9","8","C1","C","73"
"","","approach-retreat","77","1093362","0.0-77.0","","","2-3","4808","38","1","Training","Stims/Figures/93-C-30-1.bmp","fa:sha:sha","Down","38","5","10","8","C1","C","74"
"","","approach-retreat","78","1099170","0.0-78.0","","","2-3","4306","37","1","Training","Stims/Figures/144-C-30-3.bmp","za:saza","Right","37","5","11","8","C2","C","75"
"","","approach-retreat","79","1105803","0.0-79.0","","","2-3","5129","37","1","Training","Stims/Figures/44-J-10-3.bmp","sahaza","Left","37","5","12","8","C2","C","76"
"","","approach-retreat","80","1112322","0.0-80.0","","","2-3","5015","40","1","Training","Stims/Figures/93-J-0-1.bmp","fafa:va","Down","40","5","13","8","C1","C","77"
"","","approach-retreat","81","1118554","0.0-81.0","","","2-3","4729","39","1","Training","Stims/Figures/44-C-30-3.bmp","saha:za","Left","39","5","14","8","C2","C","78"
"","","approach-retreat","82","1125980","0.0-82.0","","","2-3","5921","40","0","Training","Stims/Figures/102-J-10-4.bmp","sa:haza","Up","38","5","15","8","C2","C","79"
"","","approach-retreat","83","1132866","0.0-83.0","","","2-3","5383","40","1","Training","Stims/Figures/7-J-10-4.bmp","sasa:ha","Down","40","5","16","8","C2","C","80"
"","","approach-retreat","84","1139611","0.0-84.0","","","2-3","5242","38","1","Training","Stims/Figures/71-J-0-1.bmp","fafava","Up","38","6","1","8","C1","C","81"
"","","approach-retreat","85","1146260","0.0-85.0","","","2-3","5144","38","1","Training","Stims/Figures/93-C-30-1.bmp","fa:sha:sha","Down","38","6","2","8","C1","C","82"
"","","approach-retreat","86","1152044","0.0-86.0","","","2-3","4282","39","0","Training","Stims/Figures/7-C-20-4.bmp","sasa:za","Right","37","6","3","8","C2","C","83"
"","","approach-retreat","87","1158389","0.0-87.0","","","2-3","4842","39","1","Training","Stims/Figures/85-C-20-2.bmp","vasha:va","Left","39","6","4","8","C1","C","84"
"","","approach-retreat","88","1164283","0.0-88.0","","","2-3","4391","38","0","Training","Stims/Figures/102-J-10-4.bmp","sa:haza","Down","40","6","5","8","C2","C","85"
"","","approach-retreat","89","1170843","0.0-89.0","","","2-3","5057","38","1","Training","Stims/Figures/144-C-30-3.bmp","za:saza","Down","38","6","6","8","C2","C","86"
"","","approach-retreat","90","1176725","0.0-90.0","","","2-3","4378","39","1","Training","Stims/Figures/71-C-30-1.bmp","vashasha","Left","39","6","7","8","C1","C","87"
"","","approach-retreat","91","1183172","0.0-91.0","","","2-3","4944","40","0","Training","Stims/Figures/139-J-0-2.bmp","va:shava","Up","38","6","8","8","C1","C","88"
"","","approach-retreat","92","1188885","0.0-92.0","","","2-3","4208","37","0","Training","Stims/Figures/85-J-0-2.bmp","vafasha","Right","39","6","9","8","C1","C","89"
"","","approach-retreat","93","1194564","0.0-93.0","","","2-3","4176","39","0","Training","Stims/Figures/7-J-10-4.bmp","sasa:ha","Left","37","6","10","8","C2","C","90"
"","","approach-retreat","94","1201460","0.0-94.0","","","2-3","5393","38","0","Training","Stims/Figures/44-C-30-3.bmp","saha:za","Up","40","6","11","8","C2","C","91"
"","","approach-retreat","95","1207158","0.0-95.0","","","2-3","4193","37","1","Training","Stims/Figures/93-J-0-1.bmp","fafa:va","Left","37","6","12","8","C1","C","92"
"","","approach-retreat","96","1213197","0.0-96.0","","","2-3","4536","37","0","Training","Stims/Figures/144-J-10-3.bmp","sa:saza","Right","39","6","13","8","C2","C","93"
"","","approach-retreat","97","1219333","0.0-97.0","","","2-3","4634","40","1","Training","Stims/Figures/102-C-20-4.bmp","za:sa:za","Up","40","6","14","8","C2","C","94"
"","","approach-retreat","98","1225197","0.0-98.0","","","2-3","4362","38","1","Training","Stims/Figures/139-C-20-2.bmp","va:sha:sha","Down","38","6","15","8","C1","C","95"
"","","approach-retreat","99","1232726","0.0-99.0","","","2-3","6025","37","0","Training","Stims/Figures/44-J-10-3.bmp","sahaza","Right","39","6","16","8","C2","C","96"
"","","approach-retreat","100","1239238","0.0-100.0","","","2-3","5009","40","1","Training","Stims/Figures/44-J-10-3.bmp","sahaza","Down","40","7","1","8","C2","C","97"
"","","approach-retreat","101","1245221","0.0-101.0","","","2-3","4479","40","1","Training","Stims/Figures/7-C-20-4.bmp","sasa:za","Up","40","7","2","8","C2","C","98"
"","","approach-retreat","102","1251639","0.0-102.0","","","2-3","4914","40","0","Training","Stims/Figures/85-C-20-2.bmp","vasha:va","Down","38","7","3","8","C1","C","99"
"","","approach-retreat","103","1257893","0.0-103.0","","","2-3","4752","39","0","Training","Stims/Figures/7-J-10-4.bmp","sasa:ha","Left","37","7","4","8","C2","C","100"
"","","approach-retreat","104","1264207","0.0-104.0","","","2-3","4809","38","1","Training","Stims/Figures/102-C-20-4.bmp","za:sa:za","Down","38","7","5","8","C2","C","101"
"","","approach-retreat","105","1269983","0.0-105.0","","","2-3","4273","40","0","Training","Stims/Figures/93-J-0-1.bmp","fafa:va","Up","38","7","6","8","C1","C","102"
"","","approach-retreat","106","1275742","0.0-106.0","","","2-3","4256","39","1","Training","Stims/Figures/44-C-30-3.bmp","saha:za","Left","39","7","7","8","C2","C","103"
"","","approach-retreat","107","1282055","0.0-107.0","","","2-3","4809","39","1","Training","Stims/Figures/71-J-0-1.bmp","fafava","Right","39","7","8","8","C1","C","104"
"","","approach-retreat","108","1287863","0.0-108.0","","","2-3","4303","40","0","Training","Stims/Figures/139-J-0-2.bmp","va:shava","Up","38","7","9","8","C1","C","105"
"","","approach-retreat","109","1293880","0.0-109.0","","","2-3","4512","40","0","Training","Stims/Figures/85-J-0-2.bmp","vafasha","Up","38","7","10","8","C1","C","106"
"","","approach-retreat","110","1299727","0.0-110.0","","","2-3","4344","37","1","Training","Stims/Figures/71-C-30-1.bmp","vashasha","Right","37","7","11","8","C1","C","107"
"","","approach-retreat","111","1305295","0.0-111.0","","","2-3","4065","37","1","Training","Stims/Figures/144-C-30-3.bmp","za:saza","Right","37","7","12","8","C2","C","108"
"","","approach-retreat","112","1310990","0.0-112.0","","","2-3","4193","39","1","Training","Stims/Figures/93-C-30-1.bmp","fa:sha:sha","Left","39","7","13","8","C1","C","109"
"","","approach-retreat","113","1316984","0.0-113.0","","","2-3","4489","38","1","Training","Stims/Figures/139-C-20-2.bmp","va:sha:sha","Down","38","7","14","8","C1","C","110"
"","","approach-retreat","114","1322822","0.0-114.0","","","2-3","4337","37","1","Training","Stims/Figures/102-J-10-4.bmp","sa:haza","Left","37","7","15","8","C2","C","111"
"","","approach-retreat","115","1330015","0.0-115.0","","","2-3","5690","37","0","Training","Stims/Figures/144-J-10-3.bmp","sa:saza","Right","39","7","16","8","C2","C","112"
"","","approach-retreat","116","1337959","0.0-116.0","","","2-3","6440","39","1","Training","Stims/Figures/85-C-20-2.bmp","vasha:va","Left","39","8","1","8","C1","C","113"
"","","approach-retreat","117","1345662","0.0-117.0","","","2-3","6200","40","0","Training","Stims/Figures/44-J-10-3.bmp","sahaza","Up","38","8","2","8","C2","C","114"
"","","approach-retreat","118","1351439","0.0-118.0","","","2-3","4273","37","1","Training","Stims/Figures/144-C-30-3.bmp","za:saza","Right","37","8","3","8","C2","C","115"
"","","approach-retreat","119","1361975","0.0-119.0","","","2-3","9033","37","1","Training","Stims/Figures/71-J-0-1.bmp","fafava","Left","37","8","4","8","C1","C","116"
"","","approach-retreat","120","1367735","0.0-120.0","","","2-3","4255","39","1","Training","Stims/Figures/144-J-10-3.bmp","sa:saza","Right","39","8","5","8","C2","C","117"
"","","approach-retreat","121","1373527","0.0-121.0","","","2-3","4289","39","1","Training","Stims/Figures/7-J-10-4.bmp","sasa:ha","Right","39","8","6","8","C2","C","118"
"","","approach-retreat","122","1379631","0.0-122.0","","","2-3","4599","38","1","Training","Stims/Figures/44-C-30-3.bmp","saha:za","Down","38","8","7","8","C2","C","119"
"","","approach-retreat","123","1385879","0.0-123.0","","","2-3","4744","38","1","Training","Stims/Figures/85-J-0-2.bmp","vafasha","Up","38","8","8","8","C1","C","120"
"","","approach-retreat","124","1392271","0.0-124.0","","","2-3","4889","40","0","Training","Stims/Figures/139-C-20-2.bmp","va:sha:sha","Down","38","8","9","8","C1","C","121"
"","","approach-retreat","125","1399318","0.0-125.0","","","2-3","5544","37","1","Training","Stims/Figures/102-J-10-4.bmp","sa:haza","Left","37","8","10","8","C2","C","122"
"","","approach-retreat","126","1406160","0.0-126.0","","","2-3","5337","38","1","Training","Stims/Figures/71-C-30-1.bmp","vashasha","Down","38","8","11","8","C1","C","123"
"","","approach-retreat","127","1411799","0.0-127.0","","","2-3","4136","38","1","Training","Stims/Figures/93-C-30-1.bmp","fa:sha:sha","Down","38","8","12","8","C1","C","124"
"","","approach-retreat","128","1418150","0.0-128.0","","","2-3","4848","39","0","Training","Stims/Figures/139-J-0-2.bmp","va:shava","Left","37","8","13","8","C1","C","125"
"","","approach-retreat","129","1424054","0.0-129.0","","","2-3","4401","38","0","Training","Stims/Figures/102-C-20-4.bmp","za:sa:za","Up","40","8","14","8","C2","C","126"
"","","approach-retreat","130","1429974","0.0-130.0","","","2-3","4417","40","1","Training","Stims/Figures/7-C-20-4.bmp","sasa:za","Up","40","8","15","8","C2","C","127"
"","","approach-retreat","131","1436855","0.0-131.0","","","2-3","5378","39","1","Training","Stims/Figures/93-J-0-1.bmp","fafa:va","Right","39","8","16","8","C1","C","128"
"","","approach-retreat","132","1443104","0.0-132.0","","","2-3","4746","37","1","Training","Stims/Figures/102-C-20-4.bmp","za:sa:za","Right","37","9","1","8","C2","C","129"
"","","approach-retreat","133","1449311","0.0-133.0","","","2-3","4705","40","0","Training","Stims/Figures/85-C-20-2.bmp","vasha:va","Down","38","9","2","8","C1","C","130"
"","","approach-retreat","134","1454783","0.0-134.0","","","2-3","3970","39","0","Training","Stims/Figures/85-J-0-2.bmp","vafasha","Left","37","9","3","8","C1","C","131"
"","","approach-retreat","135","1462352","0.0-135.0","","","2-3","6066","39","1","Training","Stims/Figures/7-J-10-4.bmp","sasa:ha","Right","39","9","4","8","C2","C","132"
"","","approach-retreat","136","1469031","0.0-136.0","","","2-3","5176","40","1","Training","Stims/Figures/139-C-20-2.bmp","va:sha:sha","Up","40","9","5","8","C1","C","133"
"","","approach-retreat","137","1478495","0.0-137.0","","","2-3","7961","39","1","Training","Stims/Figures/93-C-30-1.bmp","fa:sha:sha","Left","39","9","6","8","C1","C","134"
"","","approach-retreat","138","1484121","0.0-138.0","","","2-3","4120","39","0","Training","Stims/Figures/102-J-10-4.bmp","sa:haza","Left","37","9","7","8","C2","C","135"
"","","approach-retreat","139","1490423","0.0-139.0","","","2-3","4800","37","1","Training","Stims/Figures/144-C-30-3.bmp","za:saza","Right","37","9","8","8","C2","C","136"
"","","approach-retreat","140","1496801","0.0-140.0","","","2-3","4873","40","1","Training","Stims/Figures/7-C-20-4.bmp","sasa:za","Up","40","9","9","8","C2","C","137"
"","","approach-retreat","141","1506687","0.0-141.0","","","2-3","8384","38","0","Training","Stims/Figures/44-C-30-3.bmp","saha:za","Up","40","9","10","8","C2","C","138"
"","","approach-retreat","142","1513338","0.0-142.0","","","2-3","5147","38","0","Training","Stims/Figures/71-J-0-1.bmp","fafava","Down","40","9","11","8","C1","C","139"
"","","approach-retreat","143","1519488","0.0-143.0","","","2-3","4647","40","1","Training","Stims/Figures/93-J-0-1.bmp","fafa:va","Down","40","9","12","8","C1","C","140"
"","","approach-retreat","144","1525345","0.0-144.0","","","2-3","4352","38","1","Training","Stims/Figures/71-C-30-1.bmp","vashasha","Down","38","9","13","8","C1","C","141"
"","","approach-retreat","145","1531122","0.0-145.0","","","2-3","4271","40","0","Training","Stims/Figures/144-J-10-3.bmp","sa:saza","Up","38","9","14","8","C2","C","142"
"","","approach-retreat","146","1537680","0.0-146.0","","","2-3","5055","37","1","Training","Stims/Figures/44-J-10-3.bmp","sahaza","Left","37","9","15","8","C2","C","143"
"","","approach-retreat","147","1544184","0.0-147.0","","","2-3","5001","39","1","Training","Stims/Figures/139-J-0-2.bmp","va:shava","Right","39","9","16","8","C1","C","144"
"16235","","instructions","148","1560419","0.0-148.0","[{""page_index"":0,""viewing_time"":16235}]","","","","","","","","","","","","","","","",""
"","","approach-retreat","149","1569121","0.0-149.0","","","2-3","7197","39","1","Testing","Stims/Figures/102-C-20-4.bmp","za:sa:za","Left","39","1","1","8","C2","C","1"
"","","approach-retreat","150","1575345","0.0-150.0","","","2-3","4720","40","1","Testing","Stims/Figures/44-C-30-3.bmp","saha:za","Up","40","1","2","8","C2","C","2"
"","","approach-retreat","151","1582328","0.0-151.0","","","2-3","5480","40","1","Testing","Stims/Figures/111-J-10-3.bmp","sasaza","Down","40","1","3","8","C2","C","3"
"","","approach-retreat","152","1589161","0.0-152.0","","","2-3","5330","40","0","Testing","Stims/Figures/139-J-0-2.bmp","va:shava","Up","38","1","4","8","C1","C","4"
"","","approach-retreat","153","1596656","0.0-153.0","","","2-3","5994","40","0","Testing","Stims/Figures/85-C-20-2.bmp","vasha:va","Down","38","1","5","8","C1","C","5"
"","","approach-retreat","154","1603096","0.0-154.0","","","2-3","4938","37","1","Testing","Stims/Figures/144-C-30-3.bmp","za:saza","Right","37","1","6","8","C2","C","6"
"","","approach-retreat","155","1610001","0.0-155.0","","","2-3","5402","40","0","Testing","Stims/Figures/44-J-10-3.bmp","sahaza","Up","38","1","7","8","C2","C","7"
"","","approach-retreat","156","1617223","0.0-156.0","","","2-3","5721","37","1","Testing","Stims/Figures/144-J-10-3.bmp","sa:saza","Left","37","1","8","8","C2","C","8"
"","","approach-retreat","157","1623537","0.0-157.0","","","2-3","4810","37","1","Testing","Stims/Figures/86-J-0-1.bmp","va:fa:va","Left","37","1","9","8","C1","C","9"
"","","approach-retreat","158","1629689","0.0-158.0","","","2-3","4648","38","1","Testing","Stims/Figures/93-C-30-1.bmp","fa:sha:sha","Down","38","1","10","8","C1","C","10"
"","","approach-retreat","159","1635816","0.0-159.0","","","2-3","4624","39","1","Testing","Stims/Figures/87-J-10-4.bmp","sahaha","Right","39","1","11","8","C2","C","11"
"","","approach-retreat","160","1641664","0.0-160.0","","","2-3","4346","40","0","Testing","Stims/Figures/87-C-20-4.bmp","za:sa:ha","Down","38","1","12","8","C2","C","12"
"","","approach-retreat","161","1647664","0.0-161.0","","","2-3","4498","38","0","Testing","Stims/Figures/102-J-10-4.bmp","sa:haza","Down","40","1","13","8","C2","C","13"
"","","approach-retreat","162","1653400","0.0-162.0","","","2-3","4233","37","1","Testing","Stims/Figures/86-C-30-1.bmp","fasha:va","Right","37","1","14","8","C1","C","14"
"","","approach-retreat","163","1659826","0.0-163.0","","","2-3","4922","38","1","Testing","Stims/Figures/7-J-10-4.bmp","sasa:ha","Up","38","1","15","8","C2","C","15"
"","","approach-retreat","164","1665889","0.0-164.0","","","2-3","4561","38","0","Testing","Stims/Figures/118-C-20-2.bmp","fa:sha:va","Up","40","1","16","8","C1","C","16"
"","","approach-retreat","165","1673152","0.0-165.0","","","2-3","5761","37","1","Testing","Stims/Figures/71-J-0-1.bmp","fafava","Left","37","1","17","8","C1","C","17"
"","","approach-retreat","166","1679504","0.0-166.0","","","2-3","4850","39","1","Testing","Stims/Figures/85-J-0-2.bmp","vafasha","Right","39","1","18","8","C1","C","18"
"","","approach-retreat","167","1686624","0.0-167.0","","","2-3","5615","40","1","Testing","Stims/Figures/139-C-20-2.bmp","va:sha:sha","Up","40","1","19","8","C1","C","19"
"","","approach-retreat","168","1692665","0.0-168.0","","","2-3","4538","39","1","Testing","Stims/Figures/111-C-30-3.bmp","sa:haha","Left","39","1","20","8","C2","C","20"
"","","approach-retreat","169","1699265","0.0-169.0","","","2-3","5098","39","1","Testing","Stims/Figures/118-J-0-2.bmp","va:shasha","Right","39","1","21","8","C1","C","21"
"","","approach-retreat","170","1791425","0.0-170.0","","","2-3","90659","38","1","Testing","Stims/Figures/7-C-20-4.bmp","sasa:za","Down","38","1","22","8","C2","C","22"
"","","approach-retreat","171","1797496","0.0-171.0","","","2-3","4568","39","1","Testing","Stims/Figures/93-J-0-1.bmp","fafa:va","Right","39","1","23","8","C1","C","23"
"","","approach-retreat","172","1803353","0.0-172.0","","","2-3","4355","39","1","Testing","Stims/Figures/71-C-30-1.bmp","vashasha","Left","39","1","24","8","C1","C","24"
"","","approach-retreat","173","1808841","0.0-173.0","","","2-3","3985","40","0","Testing","Stims/Figures/7-C-20-4.bmp","sasa:za","Down","38","2","1","8","C2","C","25"
"","","approach-retreat","174","1814513","0.0-174.0","","","2-3","4170","38","1","Testing","Stims/Figures/86-C-30-1.bmp","fasha:va","Down","38","2","2","8","C1","C","26"
"","","approach-retreat","175","1821817","0.0-175.0","","","2-3","5802","37","1","Testing","Stims/Figures/71-C-30-1.bmp","vashasha","Right","37","2","3","8","C1","C","27"
"","","approach-retreat","176","1828786","0.0-176.0","","","2-3","5466","37","1","Testing","Stims/Figures/44-J-10-3.bmp","sahaza","Left","37","2","4","8","C2","C","28"
"","","approach-retreat","177","1835481","0.0-177.0","","","2-3","5192","39","0","Testing","Stims/Figures/87-C-20-4.bmp","za:sa:ha","Right","37","2","5","8","C2","C","29"
"","","approach-retreat","178","1843305","0.0-178.0","","","2-3","6322","38","1","Testing","Stims/Figures/111-J-10-3.bmp","sasaza","Up","38","2","6","8","C2","C","30"
"","","approach-retreat","179","1849649","0.0-179.0","","","2-3","4841","38","1","Testing","Stims/Figures/93-J-0-1.bmp","fafa:va","Up","38","2","7","8","C1","C","31"
"","","approach-retreat","180","1855410","0.0-180.0","","","2-3","4259","38","0","Testing","Stims/Figures/102-C-20-4.bmp","za:sa:za","Up","40","2","8","8","C2","C","32"
"","","approach-retreat","181","1861161","0.0-181.0","","","2-3","4249","37","1","Testing","Stims/Figures/71-J-0-1.bmp","fafava","Left","37","2","9","8","C1","C","33"
"","","approach-retreat","182","1867466","0.0-182.0","","","2-3","4801","39","0","Testing","Stims/Figures/144-J-10-3.bmp","sa:saza","Left","37","2","10","8","C2","C","34"
"","","approach-retreat","183","1873706","0.0-183.0","","","2-3","4738","37","1","Testing","Stims/Figures/93-C-30-1.bmp","fa:sha:sha","Right","37","2","11","8","C1","C","35"
"","","approach-retreat","184","1880291","0.0-184.0","","","2-3","5081","37","1","Testing","Stims/Figures/86-J-0-1.bmp","va:fa:va","Left","37","2","12","8","C1","C","36"
"","","approach-retreat","185","1886139","0.0-185.0","","","2-3","4345","38","1","Testing","Stims/Figures/85-C-20-2.bmp","vasha:va","Down","38","2","13","8","C1","C","37"
"","","approach-retreat","186","1892083","0.0-186.0","","","2-3","4440","40","0","Testing","Stims/Figures/118-C-20-2.bmp","fa:sha:va","Down","38","2","14","8","C1","C","38"
"","","approach-retreat","187","1901308","0.0-187.0","","","2-3","7720","40","0","Testing","Stims/Figures/102-J-10-4.bmp","sa:haza","Up","38","2","15","8","C2","C","39"
"","","approach-retreat","188","1909907","0.0-188.0","","","2-3","7096","38","1","Testing","Stims/Figures/139-J-0-2.bmp","va:shava","Up","38","2","16","8","C1","C","40"
"","","approach-retreat","189","1915571","0.0-189.0","","","2-3","4161","37","1","Testing","Stims/Figures/85-J-0-2.bmp","vafasha","Left","37","2","17","8","C1","C","41"
"","","approach-retreat","190","1921868","0.0-190.0","","","2-3","4793","37","1","Testing","Stims/Figures/44-C-30-3.bmp","saha:za","Right","37","2","18","8","C2","C","42"
"","","approach-retreat","191","1928091","0.0-191.0","","","2-3","4719","39","1","Testing","Stims/Figures/111-C-30-3.bmp","sa:haha","Left","39","2","19","8","C2","C","43"
"","","approach-retreat","192","1934130","0.0-192.0","","","2-3","4536","38","1","Testing","Stims/Figures/7-J-10-4.bmp","sasa:ha","Up","38","2","20","8","C2","C","44"
"","","approach-retreat","193","1940450","0.0-193.0","","","2-3","4817","37","1","Testing","Stims/Figures/139-C-20-2.bmp","va:sha:sha","Right","37","2","21","8","C1","C","45"
"","","approach-retreat","194","1947003","0.0-194.0","","","2-3","5049","40","1","Testing","Stims/Figures/118-J-0-2.bmp","va:shasha","Down","40","2","22","8","C1","C","46"
"","","approach-retreat","195","1952755","0.0-195.0","","","2-3","4249","39","0","Testing","Stims/Figures/144-C-30-3.bmp","za:saza","Right","37","2","23","8","C2","C","47"
"","","approach-retreat","196","1958635","0.0-196.0","","","2-3","4377","40","1","Testing","Stims/Figures/87-J-10-4.bmp","sahaha","Down","40","2","24","8","C2","C","48"
"","","approach-retreat","197","1964611","0.0-197.0","","","2-3","4473","40","1","Testing","Stims/Figures/102-C-20-4.bmp","za:sa:za","Up","40","3","1","8","C2","C","49"
"","","approach-retreat","198","1970897","0.0-198.0","","","2-3","4785","40","0","Testing","Stims/Figures/71-C-30-1.bmp","vashasha","Down","38","3","2","8","C1","C","50"
"","","approach-retreat","199","1976578","0.0-199.0","","","2-3","4179","40","0","Testing","Stims/Figures/86-J-0-1.bmp","va:fa:va","Up","38","3","3","8","C1","C","51"
"","","approach-retreat","200","1982258","0.0-200.0","","","2-3","4178","39","0","Testing","Stims/Figures/85-C-20-2.bmp","vasha:va","Right","37","3","4","8","C1","C","52"
"","","approach-retreat","201","1988116","0.0-201.0","","","2-3","4354","40","1","Testing","Stims/Figures/144-C-30-3.bmp","za:saza","Up","40","3","5","8","C2","C","53"
"","","approach-retreat","202","1993668","0.0-202.0","","","2-3","4048","39","1","Testing","Stims/Figures/102-J-10-4.bmp","sa:haza","Right","39","3","6","8","C2","C","54"
"","","approach-retreat","203","1999498","0.0-203.0","","","2-3","4329","37","0","Testing","Stims/Figures/87-C-20-4.bmp","za:sa:ha","Left","39","3","7","8","C2","C","55"
"","","approach-retreat","204","2005642","0.0-204.0","","","2-3","4642","38","0","Testing","Stims/Figures/118-J-0-2.bmp","va:shasha","Down","40","3","8","8","C1","C","56"
"","","approach-retreat","205","2013747","0.0-205.0","","","2-3","6603","39","1","Testing","Stims/Figures/44-C-30-3.bmp","saha:za","Left","39","3","9","8","C2","C","57"
"","","approach-retreat","206","2019531","0.0-206.0","","","2-3","4282","39","0","Testing","Stims/Figures/7-C-20-4.bmp","sasa:za","Right","37","3","10","8","C2","C","58"
"","","approach-retreat","207","2025482","0.0-207.0","","","2-3","4450","39","1","Testing","Stims/Figures/85-J-0-2.bmp","vafasha","Right","39","3","11","8","C1","C","59"
"","","approach-retreat","208","2031162","0.0-208.0","","","2-3","4178","39","0","Testing","Stims/Figures/87-J-10-4.bmp","sahaha","Left","37","3","12","8","C2","C","60"
"","","approach-retreat","209","2036922","0.0-209.0","","","2-3","4258","40","1","Testing","Stims/Figures/71-J-0-1.bmp","fafava","Down","40","3","13","8","C1","C","61"
"","","approach-retreat","210","2042605","0.0-210.0","","","2-3","4179","39","1","Testing","Stims/Figures/44-J-10-3.bmp","sahaza","Right","39","3","14","8","C2","C","62"
"","","approach-retreat","211","2048131","0.0-211.0","","","2-3","4024","40","1","Testing","Stims/Figures/86-C-30-1.bmp","fasha:va","Up","40","3","15","8","C1","C","63"
"","","approach-retreat","212","2053812","0.0-212.0","","","2-3","4178","40","1","Testing","Stims/Figures/111-J-10-3.bmp","sasaza","Down","40","3","16","8","C2","C","64"
"","","approach-retreat","213","2059715","0.0-213.0","","","2-3","4400","39","0","Testing","Stims/Figures/7-J-10-4.bmp","sasa:ha","Left","37","3","17","8","C2","C","65"
"","","approach-retreat","214","2065691","0.0-214.0","","","2-3","4474","40","0","Testing","Stims/Figures/111-C-30-3.bmp","sa:haha","Down","38","3","18","8","C2","C","66"
"","","approach-retreat","215","2071939","0.0-215.0","","","2-3","4745","37","1","Testing","Stims/Figures/139-J-0-2.bmp","va:shava","Left","37","3","19","8","C1","C","67"
"","","approach-retreat","216","2077940","0.0-216.0","","","2-3","4499","38","0","Testing","Stims/Figures/118-C-20-2.bmp","fa:sha:va","Up","40","3","20","8","C1","C","68"
"","","approach-retreat","217","2083419","0.0-217.0","","","2-3","3976","40","1","Testing","Stims/Figures/93-C-30-1.bmp","fa:sha:sha","Up","40","3","21","8","C1","C","69"
"","","approach-retreat","218","2089083","0.0-218.0","","","2-3","4161","37","0","Testing","Stims/Figures/139-C-20-2.bmp","va:sha:sha","Left","39","3","22","8","C1","C","70"
"","","approach-retreat","219","2094796","0.0-219.0","","","2-3","4210","39","1","Testing","Stims/Figures/144-J-10-3.bmp","sa:saza","Right","39","3","23","8","C2","C","71"
"","","approach-retreat","220","2100485","0.0-220.0","","","2-3","4185","40","1","Testing","Stims/Figures/93-J-0-1.bmp","fafa:va","Down","40","3","24","8","C1","C","72"
"","","approach-retreat","221","2106131","0.0-221.0","","","2-3","4144","40","0","Testing","Stims/Figures/93-C-30-1.bmp","fa:sha:sha","Down","38","4","1","8","C1","C","73"
"","","approach-retreat","222","2111629","0.0-222.0","","","2-3","3994","38","0","Testing","Stims/Figures/102-C-20-4.bmp","za:sa:za","Up","40","4","2","8","C2","C","74"
"","","approach-retreat","223","2117260","0.0-223.0","","","2-3","4128","37","1","Testing","Stims/Figures/139-J-0-2.bmp","va:shava","Left","37","4","3","8","C1","C","75"
"","","approach-retreat","224","2124181","0.0-224.0","","","2-3","5416","38","1","Testing","Stims/Figures/139-C-20-2.bmp","va:sha:sha","Down","38","4","4","8","C1","C","76"
"","","approach-retreat","225","2129924","0.0-225.0","","","2-3","4241","39","1","Testing","Stims/Figures/102-J-10-4.bmp","sa:haza","Right","39","4","5","8","C2","C","77"
"","","approach-retreat","226","2140116","0.0-226.0","","","2-3","8689","37","1","Testing","Stims/Figures/111-C-30-3.bmp","sa:haha","Right","37","4","6","8","C2","C","78"
"","","approach-retreat","227","2145979","0.0-227.0","","","2-3","4362","37","1","Testing","Stims/Figures/144-C-30-3.bmp","za:saza","Right","37","4","7","8","C2","C","79"
"","","approach-retreat","228","2152267","0.0-228.0","","","2-3","4786","38","1","Testing","Stims/Figures/44-C-30-3.bmp","saha:za","Down","38","4","8","8","C2","C","80"
"","","approach-retreat","229","2194629","0.0-229.0","","","2-3","40858","38","0","Testing","Stims/Figures/87-C-20-4.bmp","za:sa:ha","Up","40","4","9","8","C2","C","81"
"","","approach-retreat","230","2210564","0.0-230.0","","","2-3","14434","38","1","Testing","Stims/Figures/85-J-0-2.bmp","vafasha","Up","38","4","10","8","C1","C","82"
"","","approach-retreat","231","2216843","0.0-231.0","","","2-3","4777","38","1","Testing","Stims/Figures/7-J-10-4.bmp","sasa:ha","Up","38","4","11","8","C2","C","83"
"","","approach-retreat","232","2229980","0.0-232.0","","","2-3","11635","40","0","Testing","Stims/Figures/118-C-20-2.bmp","fa:sha:va","Down","38","4","12","8","C1","C","84"
"","","approach-retreat","233","2238531","0.0-233.0","","","2-3","7050","38","1","Testing","Stims/Figures/86-C-30-1.bmp","fasha:va","Down","38","4","13","8","C1","C","85"
"","","approach-retreat","234","2244252","0.0-234.0","","","2-3","4219","37","1","Testing","Stims/Figures/111-J-10-3.bmp","sasaza","Left","37","4","14","8","C2","C","86"
"","","approach-retreat","235","2252532","0.0-235.0","","","2-3","6777","39","0","Testing","Stims/Figures/44-J-10-3.bmp","sahaza","Left","37","4","15","8","C2","C","87"
"","","approach-retreat","236","2258316","0.0-236.0","","","2-3","4282","38","1","Testing","Stims/Figures/86-J-0-1.bmp","va:fa:va","Up","38","4","16","8","C1","C","88"
"","","approach-retreat","237","2264763","0.0-237.0","","","2-3","4945","39","0","Testing","Stims/Figures/144-J-10-3.bmp","sa:saza","Left","37","4","17","8","C2","C","89"
"","","approach-retreat","238","2276788","0.0-238.0","","","2-3","10522","39","1","Testing","Stims/Figures/93-J-0-1.bmp","fafa:va","Right","39","4","18","8","C1","C","90"
"","","approach-retreat","239","2282443","0.0-239.0","","","2-3","4154","37","1","Testing","Stims/Figures/85-C-20-2.bmp","vasha:va","Right","37","4","19","8","C1","C","91"
"","","approach-retreat","240","2293419","0.0-240.0","","","2-3","9474","38","1","Testing","Stims/Figures/87-J-10-4.bmp","sahaha","Up","38","4","20","8","C2","C","92"
"","","approach-retreat","241","2302619","0.0-241.0","","","2-3","7697","37","1","Testing","Stims/Figures/118-J-0-2.bmp","va:shasha","Left","37","4","21","8","C1","C","93"
"","","approach-retreat","242","2310157","0.0-242.0","","","2-3","6035","39","0","Testing","Stims/Figures/71-C-30-1.bmp","vashasha","Right","37","4","22","8","C1","C","94"
"","","approach-retreat","243","2318004","0.0-243.0","","","2-3","6345","40","1","Testing","Stims/Figures/71-J-0-1.bmp","fafava","Down","40","4","23","8","C1","C","95"
"","","approach-retreat","244","2323860","0.0-244.0","","","2-3","4353","37","0","Testing","Stims/Figures/7-C-20-4.bmp","sasa:za","Left","39","4","24","8","C2","C","96"
"9818","","survey-text","245","2333680","0.0-245.0","","{""Q0"":""""}","","","","","","","","","","","","","","",""
