"rt","key_press","trial_type","trial_index","time_elapsed","internal_node_id","view_history","responses","Id","Rt","ResKeyCode","ResCorr","TrialType2","Image","Label","Location","CorrectResponse","Block","BlockTrial","Condition","LabelType","Subcondition","trialNum"
"48090","32","text","0","48099","0.0-0.0-0.0","","","","","","","","","","","","","","","","",""
"46937","","instructions","1","95041","0.0-1.0","[{""page_index"":0,""viewing_time"":46937}]","","","","","","","","","","","","","","","",""
"32865","","survey-multi-choice","2","127979","0.0-2.0","","{""Q0"":""Da"",""Q1"":""Da"",""Q2"":""Da"",""Q3"":""Da"",""Q4"":""Da"",""Q5"":""Da""}","","","","","","","","","","","","","","",""
"","","bio","3","135289","0.0-3.0","","{""age"":""19"",""gender"":""f"",""specify"":""""}","","","","","","","","","","","","","","",""
"","","approach-retreat","4","146350","0.0-4.0","","","2-1","9540","39","1","Training","Stims/Figures/57-J-0-1.bmp","na:la:na","Right","39","1","1","5","S","C","1"
"","","approach-retreat","5","153585","0.0-5.0","","","2-1","5720","40","1","Training","Stims/Figures/128-J-10-3.bmp","namala","Down","40","1","2","5","S","C","2"
"","","approach-retreat","6","160899","0.0-6.0","","","2-1","5798","37","0","Training","Stims/Figures/118-J-0-2.bmp","ma:lala","Right","39","1","3","5","S","C","3"
"","","approach-retreat","7","166883","0.0-7.0","","","2-1","4469","39","0","Training","Stims/Figures/27-C-30-1.bmp","pa:pa:ta","Right","37","1","4","5","P","C","4"
"","","approach-retreat","8","173915","0.0-8.0","","","2-1","5517","38","0","Training","Stims/Figures/7-C-20-4.bmp","tapaka","Up","40","1","5","5","P","C","5"
"","","approach-retreat","9","180795","0.0-9.0","","","2-1","5365","40","1","Training","Stims/Figures/27-J-0-1.bmp","na:la:la","Down","40","1","6","5","S","C","6"
"","","approach-retreat","10","186843","0.0-10.0","","","2-1","4533","37","1","Training","Stims/Figures/102-J-10-4.bmp","mama:na","Left","37","1","7","5","S","C","7"
"","","approach-retreat","11","192805","0.0-11.0","","","2-1","4446","39","1","Training","Stims/Figures/57-C-30-1.bmp","pa:kaka","Left","39","1","8","5","P","C","8"
"","","approach-retreat","12","198788","0.0-12.0","","","2-1","4467","40","1","Training","Stims/Figures/100-J-10-3.bmp","ma:la:la","Down","40","1","9","5","S","C","9"
"","","approach-retreat","13","205155","0.0-13.0","","","2-1","4852","40","1","Training","Stims/Figures/7-J-10-4.bmp","namana","Down","40","1","10","5","S","C","10"
"","","approach-retreat","14","213188","0.0-14.0","","","2-1","6519","40","1","Training","Stims/Figures/128-C-30-3.bmp","paka:ta","Up","40","1","11","5","P","C","11"
"","","approach-retreat","15","219122","0.0-15.0","","","2-1","4420","40","1","Training","Stims/Figures/139-C-20-2.bmp","papa:ka","Up","40","1","12","5","P","C","12"
"","","approach-retreat","16","226019","0.0-16.0","","","2-1","5382","38","1","Training","Stims/Figures/139-J-0-2.bmp","mala:la","Up","38","1","13","5","S","C","13"
"","","approach-retreat","17","232906","0.0-17.0","","","2-1","5381","39","1","Training","Stims/Figures/118-C-20-2.bmp","pakata","Left","39","1","14","5","P","C","14"
"","","approach-retreat","18","239138","0.0-18.0","","","2-1","4716","39","1","Training","Stims/Figures/102-C-20-4.bmp","pa:ka:ta","Left","39","1","15","5","P","C","15"
"","","approach-retreat","19","246059","0.0-19.0","","","2-1","5400","37","1","Training","Stims/Figures/100-C-30-3.bmp","taka:ta","Right","37","1","16","5","P","C","16"
"","","approach-retreat","20","252922","0.0-20.0","","","2-1","5350","39","1","Training","Stims/Figures/102-C-20-4.bmp","pa:ka:ta","Left","39","2","1","5","P","C","17"
"","","approach-retreat","21","258786","0.0-21.0","","","2-1","4348","39","1","Training","Stims/Figures/118-J-0-2.bmp","ma:lala","Right","39","2","2","5","S","C","18"
"","","approach-retreat","22","264987","0.0-22.0","","","2-1","4689","39","1","Training","Stims/Figures/7-J-10-4.bmp","namana","Right","39","2","3","5","S","C","19"
"","","approach-retreat","23","270995","0.0-23.0","","","2-1","4491","39","1","Training","Stims/Figures/139-C-20-2.bmp","papa:ka","Left","39","2","4","5","P","C","20"
"","","approach-retreat","24","277323","0.0-24.0","","","2-1","4814","37","1","Training","Stims/Figures/100-J-10-3.bmp","ma:la:la","Left","37","2","5","5","S","C","21"
"","","approach-retreat","25","283787","0.0-25.0","","","2-1","4948","38","1","Training","Stims/Figures/139-J-0-2.bmp","mala:la","Up","38","2","6","5","S","C","22"
"","","approach-retreat","26","290371","0.0-26.0","","","2-1","5069","38","1","Training","Stims/Figures/128-J-10-3.bmp","namala","Up","38","2","7","5","S","C","23"
"","","approach-retreat","27","296177","0.0-27.0","","","2-1","4292","38","1","Training","Stims/Figures/27-J-0-1.bmp","na:la:la","Up","38","2","8","5","S","C","24"
"","","approach-retreat","28","302610","0.0-28.0","","","2-1","4918","40","0","Training","Stims/Figures/57-C-30-1.bmp","pa:kaka","Down","38","2","9","5","P","C","25"
"","","approach-retreat","29","309410","0.0-29.0","","","2-1","5286","40","1","Training","Stims/Figures/100-C-30-3.bmp","taka:ta","Up","40","2","10","5","P","C","26"
"","","approach-retreat","30","315780","0.0-30.0","","","2-1","4856","38","1","Training","Stims/Figures/27-C-30-1.bmp","pa:pa:ta","Down","38","2","11","5","P","C","27"
"","","approach-retreat","31","321963","0.0-31.0","","","2-1","4669","39","1","Training","Stims/Figures/7-C-20-4.bmp","tapaka","Left","39","2","12","5","P","C","28"
"","","approach-retreat","32","328315","0.0-32.0","","","2-1","4838","37","1","Training","Stims/Figures/118-C-20-2.bmp","pakata","Right","37","2","13","5","P","C","29"
"","","approach-retreat","33","334203","0.0-33.0","","","2-1","4374","38","1","Training","Stims/Figures/128-C-30-3.bmp","paka:ta","Down","38","2","14","5","P","C","30"
"","","approach-retreat","34","340460","0.0-34.0","","","2-1","4742","40","1","Training","Stims/Figures/57-J-0-1.bmp","na:la:na","Down","40","2","15","5","S","C","31"
"","","approach-retreat","35","347002","0.0-35.0","","","2-1","5028","39","1","Training","Stims/Figures/102-J-10-4.bmp","mama:na","Right","39","2","16","5","S","C","32"
"","","approach-retreat","36","353220","0.0-36.0","","","2-1","4702","38","1","Training","Stims/Figures/118-J-0-2.bmp","ma:lala","Up","38","3","1","5","S","C","33"
"","","approach-retreat","37","358970","0.0-37.0","","","2-1","4236","37","1","Training","Stims/Figures/128-C-30-3.bmp","paka:ta","Right","37","3","2","5","P","C","34"
"","","approach-retreat","38","365091","0.0-38.0","","","2-1","4604","39","1","Training","Stims/Figures/7-J-10-4.bmp","namana","Right","39","3","3","5","S","C","35"
"","","approach-retreat","39","370994","0.0-39.0","","","2-1","4387","40","1","Training","Stims/Figures/100-C-30-3.bmp","taka:ta","Up","40","3","4","5","P","C","36"
"","","approach-retreat","40","377147","0.0-40.0","","","2-1","4638","40","1","Training","Stims/Figures/102-J-10-4.bmp","mama:na","Down","40","3","5","5","S","C","37"
"","","approach-retreat","41","383098","0.0-41.0","","","2-1","4447","40","1","Training","Stims/Figures/27-C-30-1.bmp","pa:pa:ta","Up","40","3","6","5","P","C","38"
"","","approach-retreat","42","389445","0.0-42.0","","","2-1","4831","39","1","Training","Stims/Figures/102-C-20-4.bmp","pa:ka:ta","Left","39","3","7","5","P","C","39"
"","","approach-retreat","43","396145","0.0-43.0","","","2-1","5187","37","1","Training","Stims/Figures/139-C-20-2.bmp","papa:ka","Right","37","3","8","5","P","C","40"
"","","approach-retreat","44","403131","0.0-44.0","","","2-1","5472","40","1","Training","Stims/Figures/27-J-0-1.bmp","na:la:la","Down","40","3","9","5","S","C","41"
"","","approach-retreat","45","409531","0.0-45.0","","","2-1","4886","37","1","Training","Stims/Figures/139-J-0-2.bmp","mala:la","Left","37","3","10","5","S","C","42"
"","","approach-retreat","46","415995","0.0-46.0","","","2-1","4950","38","1","Training","Stims/Figures/57-J-0-1.bmp","na:la:na","Up","38","3","11","5","S","C","43"
"","","approach-retreat","47","423603","0.0-47.0","","","2-1","6093","40","1","Training","Stims/Figures/100-J-10-3.bmp","ma:la:la","Down","40","3","12","5","S","C","44"
"","","approach-retreat","48","430731","0.0-48.0","","","2-1","5613","39","1","Training","Stims/Figures/7-C-20-4.bmp","tapaka","Left","39","3","13","5","P","C","45"
"","","approach-retreat","49","437035","0.0-49.0","","","2-1","4789","39","1","Training","Stims/Figures/118-C-20-2.bmp","pakata","Left","39","3","14","5","P","C","46"
"","","approach-retreat","50","443411","0.0-50.0","","","2-1","4862","39","1","Training","Stims/Figures/128-J-10-3.bmp","namala","Right","39","3","15","5","S","C","47"
"","","approach-retreat","51","449785","0.0-51.0","","","2-1","4859","38","1","Training","Stims/Figures/57-C-30-1.bmp","pa:kaka","Down","38","3","16","5","P","C","48"
"","","approach-retreat","52","455900","0.0-52.0","","","2-1","4600","37","1","Training","Stims/Figures/27-J-0-1.bmp","na:la:la","Left","37","4","1","5","S","C","49"
"","","approach-retreat","53","462755","0.0-53.0","","","2-1","5341","40","1","Training","Stims/Figures/7-C-20-4.bmp","tapaka","Up","40","4","2","5","P","C","50"
"","","approach-retreat","54","468579","0.0-54.0","","","2-1","4310","40","1","Training","Stims/Figures/118-C-20-2.bmp","pakata","Up","40","4","3","5","P","C","51"
"","","approach-retreat","55","474786","0.0-55.0","","","2-1","4692","39","1","Training","Stims/Figures/102-C-20-4.bmp","pa:ka:ta","Left","39","4","4","5","P","C","52"
"","","approach-retreat","56","480804","0.0-56.0","","","2-1","4502","37","1","Training","Stims/Figures/27-C-30-1.bmp","pa:pa:ta","Right","37","4","5","5","P","C","53"
"","","approach-retreat","57","487186","0.0-57.0","","","2-1","4867","39","1","Training","Stims/Figures/118-J-0-2.bmp","ma:lala","Right","39","4","6","5","S","C","54"
"","","approach-retreat","58","493844","0.0-58.0","","","2-1","5144","38","1","Training","Stims/Figures/128-C-30-3.bmp","paka:ta","Down","38","4","7","5","P","C","55"
"","","approach-retreat","59","499865","0.0-59.0","","","2-1","4507","39","1","Training","Stims/Figures/100-C-30-3.bmp","taka:ta","Left","39","4","8","5","P","C","56"
"","","approach-retreat","60","506605","0.0-60.0","","","2-1","5224","40","1","Training","Stims/Figures/100-J-10-3.bmp","ma:la:la","Down","40","4","9","5","S","C","57"
"","","approach-retreat","61","516891","0.0-61.0","","","2-1","8772","39","1","Training","Stims/Figures/128-J-10-3.bmp","namala","Right","39","4","10","5","S","C","58"
"","","approach-retreat","62","522665","0.0-62.0","","","2-1","4261","39","1","Training","Stims/Figures/139-C-20-2.bmp","papa:ka","Left","39","4","11","5","P","C","59"
"","","approach-retreat","63","528796","0.0-63.0","","","2-1","4615","38","1","Training","Stims/Figures/57-J-0-1.bmp","na:la:na","Up","38","4","12","5","S","C","60"
"","","approach-retreat","64","535154","0.0-64.0","","","2-1","4844","40","1","Training","Stims/Figures/139-J-0-2.bmp","mala:la","Down","40","4","13","5","S","C","61"
"","","approach-retreat","65","541484","0.0-65.0","","","2-1","4815","39","1","Training","Stims/Figures/7-J-10-4.bmp","namana","Right","39","4","14","5","S","C","62"
"","","approach-retreat","66","547523","0.0-66.0","","","2-1","4524","38","1","Training","Stims/Figures/57-C-30-1.bmp","pa:kaka","Down","38","4","15","5","P","C","63"
"","","approach-retreat","67","554010","0.0-67.0","","","2-1","4974","38","1","Training","Stims/Figures/102-J-10-4.bmp","mama:na","Up","38","4","16","5","S","C","64"
"","","approach-retreat","68","560307","0.0-68.0","","","2-1","4781","39","1","Training","Stims/Figures/27-J-0-1.bmp","na:la:la","Right","39","5","1","5","S","C","65"
"","","approach-retreat","69","567155","0.0-69.0","","","2-1","5333","40","1","Training","Stims/Figures/139-J-0-2.bmp","mala:la","Down","40","5","2","5","S","C","66"
"","","approach-retreat","70","573458","0.0-70.0","","","2-1","4789","39","1","Training","Stims/Figures/128-C-30-3.bmp","paka:ta","Left","39","5","3","5","P","C","67"
"","","approach-retreat","71","579236","0.0-71.0","","","2-1","4262","38","1","Training","Stims/Figures/102-J-10-4.bmp","mama:na","Up","38","5","4","5","S","C","68"
"","","approach-retreat","72","585395","0.0-72.0","","","2-1","4645","38","1","Training","Stims/Figures/100-J-10-3.bmp","ma:la:la","Up","38","5","5","5","S","C","69"
"","","approach-retreat","73","592115","0.0-73.0","","","2-1","5206","38","1","Training","Stims/Figures/57-J-0-1.bmp","na:la:na","Up","38","5","6","5","S","C","70"
"","","approach-retreat","74","598490","0.0-74.0","","","2-1","4863","39","1","Training","Stims/Figures/57-C-30-1.bmp","pa:kaka","Left","39","5","7","5","P","C","71"
"","","approach-retreat","75","604730","0.0-75.0","","","2-1","4727","39","1","Training","Stims/Figures/118-J-0-2.bmp","ma:lala","Right","39","5","8","5","S","C","72"
"","","approach-retreat","76","611802","0.0-76.0","","","2-1","5557","40","1","Training","Stims/Figures/128-J-10-3.bmp","namala","Down","40","5","9","5","S","C","73"
"","","approach-retreat","77","617603","0.0-77.0","","","2-1","4288","37","1","Training","Stims/Figures/118-C-20-2.bmp","pakata","Right","37","5","10","5","P","C","74"
"","","approach-retreat","78","623768","0.0-78.0","","","2-1","4643","38","1","Training","Stims/Figures/27-C-30-1.bmp","pa:pa:ta","Down","38","5","11","5","P","C","75"
"","","approach-retreat","79","630137","0.0-79.0","","","2-1","4854","40","1","Training","Stims/Figures/100-C-30-3.bmp","taka:ta","Up","40","5","12","5","P","C","76"
"","","approach-retreat","80","638947","0.0-80.0","","","2-1","7296","37","1","Training","Stims/Figures/7-J-10-4.bmp","namana","Left","37","5","13","5","S","C","77"
"","","approach-retreat","81","644970","0.0-81.0","","","2-1","4510","37","1","Training","Stims/Figures/139-C-20-2.bmp","papa:ka","Right","37","5","14","5","P","C","78"
"","","approach-retreat","82","651107","0.0-82.0","","","2-1","4622","39","1","Training","Stims/Figures/7-C-20-4.bmp","tapaka","Left","39","5","15","5","P","C","79"
"","","approach-retreat","83","657307","0.0-83.0","","","2-1","4687","38","1","Training","Stims/Figures/102-C-20-4.bmp","pa:ka:ta","Down","38","5","16","5","P","C","80"
"","","approach-retreat","84","663521","0.0-84.0","","","2-1","4701","38","1","Training","Stims/Figures/100-C-30-3.bmp","taka:ta","Down","38","6","1","5","P","C","81"
"","","approach-retreat","85","669764","0.0-85.0","","","2-1","4728","39","1","Training","Stims/Figures/139-C-20-2.bmp","papa:ka","Left","39","6","2","5","P","C","82"
"","","approach-retreat","86","676194","0.0-86.0","","","2-1","4917","38","1","Training","Stims/Figures/102-J-10-4.bmp","mama:na","Up","38","6","3","5","S","C","83"
"","","approach-retreat","87","682420","0.0-87.0","","","2-1","4712","40","1","Training","Stims/Figures/139-J-0-2.bmp","mala:la","Down","40","6","4","5","S","C","84"
"","","approach-retreat","88","688618","0.0-88.0","","","2-1","4685","39","1","Training","Stims/Figures/57-C-30-1.bmp","pa:kaka","Left","39","6","5","5","P","C","85"
"","","approach-retreat","89","694236","0.0-89.0","","","2-1","4103","39","1","Training","Stims/Figures/128-C-30-3.bmp","paka:ta","Left","39","6","6","5","P","C","86"
"","","approach-retreat","90","700020","0.0-90.0","","","2-1","4270","39","1","Training","Stims/Figures/27-C-30-1.bmp","pa:pa:ta","Left","39","6","7","5","P","C","87"
"","","approach-retreat","91","706715","0.0-91.0","","","2-1","5180","37","1","Training","Stims/Figures/118-C-20-2.bmp","pakata","Right","37","6","8","5","P","C","88"
"","","approach-retreat","92","713011","0.0-92.0","","","2-1","4778","40","1","Training","Stims/Figures/100-J-10-3.bmp","ma:la:la","Down","40","6","9","5","S","C","89"
"","","approach-retreat","93","722764","0.0-93.0","","","2-1","8239","38","1","Training","Stims/Figures/7-J-10-4.bmp","namana","Up","38","6","10","5","S","C","90"
"","","approach-retreat","94","728817","0.0-94.0","","","2-1","4541","39","1","Training","Stims/Figures/128-J-10-3.bmp","namala","Right","39","6","11","5","S","C","91"
"","","approach-retreat","95","734588","0.0-95.0","","","2-1","4257","39","1","Training","Stims/Figures/27-J-0-1.bmp","na:la:la","Right","39","6","12","5","S","C","92"
"","","approach-retreat","96","740707","0.0-96.0","","","2-1","4604","38","1","Training","Stims/Figures/102-C-20-4.bmp","pa:ka:ta","Down","38","6","13","5","P","C","93"
"","","approach-retreat","97","746892","0.0-97.0","","","2-1","4678","40","1","Training","Stims/Figures/7-C-20-4.bmp","tapaka","Up","40","6","14","5","P","C","94"
"","","approach-retreat","98","752619","0.0-98.0","","","2-1","4213","39","1","Training","Stims/Figures/57-J-0-1.bmp","na:la:na","Right","39","6","15","5","S","C","95"
"","","approach-retreat","99","758364","0.0-99.0","","","2-1","4230","38","1","Training","Stims/Figures/118-J-0-2.bmp","ma:lala","Up","38","6","16","5","S","C","96"
"","","approach-retreat","100","764047","0.0-100.0","","","2-1","4179","38","1","Training","Stims/Figures/57-J-0-1.bmp","na:la:na","Up","38","7","1","5","S","C","97"
"","","approach-retreat","101","770086","0.0-101.0","","","2-1","4524","39","0","Training","Stims/Figures/27-C-30-1.bmp","pa:pa:ta","Right","37","7","2","5","P","C","98"
"","","approach-retreat","102","776330","0.0-102.0","","","2-1","4728","39","1","Training","Stims/Figures/102-J-10-4.bmp","mama:na","Right","39","7","3","5","S","C","99"
"","","approach-retreat","103","786212","0.0-103.0","","","2-1","8366","37","1","Training","Stims/Figures/128-J-10-3.bmp","namala","Left","37","7","4","5","S","C","100"
"","","approach-retreat","104","807147","0.0-104.0","","","2-1","19423","39","1","Training","Stims/Figures/128-C-30-3.bmp","paka:ta","Left","39","7","5","5","P","C","101"
"","","approach-retreat","105","815585","0.0-105.0","","","2-1","6925","39","1","Training","Stims/Figures/102-C-20-4.bmp","pa:ka:ta","Left","39","7","6","5","P","C","102"
"","","approach-retreat","106","824090","0.0-106.0","","","2-1","6988","40","1","Training","Stims/Figures/118-C-20-2.bmp","pakata","Up","40","7","7","5","P","C","103"
"","","approach-retreat","107","830944","0.0-107.0","","","2-1","5349","40","1","Training","Stims/Figures/118-J-0-2.bmp","ma:lala","Down","40","7","8","5","S","C","104"
"","","approach-retreat","108","854508","0.0-108.0","","","2-1","22058","40","1","Training","Stims/Figures/100-J-10-3.bmp","ma:la:la","Down","40","7","9","5","S","C","105"
"","","approach-retreat","109","877452","0.0-109.0","","","2-1","21429","40","1","Training","Stims/Figures/100-C-30-3.bmp","taka:ta","Up","40","7","10","5","P","C","106"
"","","approach-retreat","110","883747","0.0-110.0","","","2-1","4789","40","1","Training","Stims/Figures/139-C-20-2.bmp","papa:ka","Up","40","7","11","5","P","C","107"
"","","approach-retreat","111","889812","0.0-111.0","","","2-1","4558","38","1","Training","Stims/Figures/57-C-30-1.bmp","pa:kaka","Down","38","7","12","5","P","C","108"
"","","approach-retreat","112","895843","0.0-112.0","","","2-1","4517","40","1","Training","Stims/Figures/7-J-10-4.bmp","namana","Down","40","7","13","5","S","C","109"
"","","approach-retreat","113","901811","0.0-113.0","","","2-1","4455","39","1","Training","Stims/Figures/27-J-0-1.bmp","na:la:la","Right","39","7","14","5","S","C","110"
"","","approach-retreat","114","908003","0.0-114.0","","","2-1","4678","39","1","Training","Stims/Figures/7-C-20-4.bmp","tapaka","Left","39","7","15","5","P","C","111"
"","","approach-retreat","115","914659","0.0-115.0","","","2-1","5140","39","1","Training","Stims/Figures/139-J-0-2.bmp","mala:la","Right","39","7","16","5","S","C","112"
"","","approach-retreat","116","929684","0.0-116.0","","","2-1","13510","40","1","Training","Stims/Figures/7-J-10-4.bmp","namana","Down","40","8","1","5","S","C","113"
"","","approach-retreat","117","935634","0.0-117.0","","","2-1","4438","39","1","Training","Stims/Figures/57-C-30-1.bmp","pa:kaka","Left","39","8","2","5","P","C","114"
"","","approach-retreat","118","942004","0.0-118.0","","","2-1","4855","38","1","Training","Stims/Figures/118-J-0-2.bmp","ma:lala","Up","38","8","3","5","S","C","115"
"","","approach-retreat","119","948827","0.0-119.0","","","2-1","5310","38","1","Training","Stims/Figures/102-C-20-4.bmp","pa:ka:ta","Down","38","8","4","5","P","C","116"
"","","approach-retreat","120","955571","0.0-120.0","","","2-1","5230","40","1","Training","Stims/Figures/27-J-0-1.bmp","na:la:la","Down","40","8","5","5","S","C","117"
"","","approach-retreat","121","961179","0.0-121.0","","","2-1","4090","38","1","Training","Stims/Figures/102-J-10-4.bmp","mama:na","Up","38","8","6","5","S","C","118"
"","","approach-retreat","122","967332","0.0-122.0","","","2-1","4637","39","1","Training","Stims/Figures/139-C-20-2.bmp","papa:ka","Left","39","8","7","5","P","C","119"
"","","approach-retreat","123","974378","0.0-123.0","","","2-1","5533","38","1","Training","Stims/Figures/128-J-10-3.bmp","namala","Up","38","8","8","5","S","C","120"
"","","approach-retreat","124","984187","0.0-124.0","","","2-1","8294","39","1","Training","Stims/Figures/128-C-30-3.bmp","paka:ta","Left","39","8","9","5","P","C","121"
"","","approach-retreat","125","989953","0.0-125.0","","","2-1","4256","38","1","Training","Stims/Figures/100-J-10-3.bmp","ma:la:la","Up","38","8","10","5","S","C","122"
"","","approach-retreat","126","995611","0.0-126.0","","","2-1","4144","39","1","Training","Stims/Figures/139-J-0-2.bmp","mala:la","Right","39","8","11","5","S","C","123"
"","","approach-retreat","127","1001307","0.0-127.0","","","2-1","4181","37","1","Training","Stims/Figures/57-J-0-1.bmp","na:la:na","Left","37","8","12","5","S","C","124"
"","","approach-retreat","128","1008203","0.0-128.0","","","2-1","5382","38","1","Training","Stims/Figures/100-C-30-3.bmp","taka:ta","Down","38","8","13","5","P","C","125"
"","","approach-retreat","129","1014084","0.0-129.0","","","2-1","4368","37","1","Training","Stims/Figures/7-C-20-4.bmp","tapaka","Right","37","8","14","5","P","C","126"
"","","approach-retreat","130","1019874","0.0-130.0","","","2-1","4277","37","1","Training","Stims/Figures/118-C-20-2.bmp","pakata","Right","37","8","15","5","P","C","127"
"","","approach-retreat","131","1025410","0.0-131.0","","","2-1","4022","37","1","Training","Stims/Figures/27-C-30-1.bmp","pa:pa:ta","Right","37","8","16","5","P","C","128"
"","","approach-retreat","132","1031386","0.0-132.0","","","2-1","4463","40","1","Training","Stims/Figures/27-C-30-1.bmp","pa:pa:ta","Up","40","9","1","5","P","C","129"
"","","approach-retreat","133","1036960","0.0-133.0","","","2-1","4060","38","1","Training","Stims/Figures/102-J-10-4.bmp","mama:na","Up","38","9","2","5","S","C","130"
"","","approach-retreat","134","1042978","0.0-134.0","","","2-1","4512","40","1","Training","Stims/Figures/100-J-10-3.bmp","ma:la:la","Down","40","9","3","5","S","C","131"
"","","approach-retreat","135","1049346","0.0-135.0","","","2-1","4860","40","1","Training","Stims/Figures/27-J-0-1.bmp","na:la:la","Down","40","9","4","5","S","C","132"
"","","approach-retreat","136","1054971","0.0-136.0","","","2-1","4109","37","0","Training","Stims/Figures/102-C-20-4.bmp","pa:ka:ta","Left","39","9","5","5","P","C","133"
"","","approach-retreat","137","1061002","0.0-137.0","","","2-1","4518","37","1","Training","Stims/Figures/57-C-30-1.bmp","pa:kaka","Right","37","9","6","5","P","C","134"
"","","approach-retreat","138","1066594","0.0-138.0","","","2-1","4078","37","0","Training","Stims/Figures/7-J-10-4.bmp","namana","Right","39","9","7","5","S","C","135"
"","","approach-retreat","139","1072051","0.0-139.0","","","2-1","3943","40","1","Training","Stims/Figures/139-C-20-2.bmp","papa:ka","Up","40","9","8","5","P","C","136"
"","","approach-retreat","140","1136868","0.0-140.0","","","2-1","63303","40","1","Training","Stims/Figures/128-J-10-3.bmp","namala","Down","40","9","9","5","S","C","137"
"","","approach-retreat","141","1143451","0.0-141.0","","","2-1","5069","37","1","Training","Stims/Figures/128-C-30-3.bmp","paka:ta","Right","37","9","10","5","P","C","138"
"","","approach-retreat","142","1157315","0.0-142.0","","","2-1","12350","37","1","Training","Stims/Figures/100-C-30-3.bmp","taka:ta","Right","37","9","11","5","P","C","139"
"","","approach-retreat","143","1164553","0.0-143.0","","","2-1","5724","37","1","Training","Stims/Figures/139-J-0-2.bmp","mala:la","Left","37","9","12","5","S","C","140"
"","","approach-retreat","144","1170506","0.0-144.0","","","2-1","4438","37","1","Training","Stims/Figures/118-J-0-2.bmp","ma:lala","Left","37","9","13","5","S","C","141"
"","","approach-retreat","145","1176450","0.0-145.0","","","2-1","4429","38","1","Training","Stims/Figures/57-J-0-1.bmp","na:la:na","Up","38","9","14","5","S","C","142"
"","","approach-retreat","146","1182754","0.0-146.0","","","2-1","4790","38","1","Training","Stims/Figures/118-C-20-2.bmp","pakata","Down","38","9","15","5","P","C","143"
"","","approach-retreat","147","1191858","0.0-147.0","","","2-1","7588","39","1","Training","Stims/Figures/7-C-20-4.bmp","tapaka","Left","39","9","16","5","P","C","144"
"27933","","instructions","148","1219792","0.0-148.0","[{""page_index"":0,""viewing_time"":27933}]","","","","","","","","","","","","","","","",""
"","","approach-retreat","149","1228066","0.0-149.0","","","2-1","6761","39","1","Testing","Stims/Figures/93-C-30-1.bmp","takaka","Left","39","1","1","5","P","C","1"
"","","approach-retreat","150","1237577","0.0-150.0","","","2-1","8001","38","1","Testing","Stims/Figures/102-J-10-4.bmp","mama:na","Up","38","1","2","5","S","C","2"
"","","approach-retreat","151","1243610","0.0-151.0","","","2-1","4520","38","0","Testing","Stims/Figures/128-J-10-3.bmp","namala","Down","40","1","3","5","S","C","3"
"","","approach-retreat","152","1249011","0.0-152.0","","","2-1","3886","37","1","Testing","Stims/Figures/57-C-30-1.bmp","pa:kaka","Right","37","1","4","5","P","C","4"
"","","approach-retreat","153","1255033","0.0-153.0","","","2-1","4513","40","1","Testing","Stims/Figures/128-C-30-3.bmp","paka:ta","Up","40","1","5","5","P","C","5"
"","","approach-retreat","154","1260483","0.0-154.0","","","2-1","3940","37","0","Testing","Stims/Figures/100-J-10-3.bmp","ma:la:la","Right","39","1","6","5","S","C","6"
"","","approach-retreat","155","1266890","0.0-155.0","","","2-1","4896","38","0","Testing","Stims/Figures/84-C-20-2.bmp","ta:pata","Up","40","1","7","5","P","C","7"
"","","approach-retreat","156","1272602","0.0-156.0","","","2-1","4201","40","1","Testing","Stims/Figures/27-C-30-1.bmp","pa:pa:ta","Up","40","1","8","5","P","C","8"
"","","approach-retreat","157","1278418","0.0-157.0","","","2-1","4306","38","0","Testing","Stims/Figures/93-J-0-1.bmp","ma:la:na","Down","40","1","9","5","S","C","9"
"","","approach-retreat","158","1284706","0.0-158.0","","","2-1","4776","39","0","Testing","Stims/Figures/139-C-20-2.bmp","papa:ka","Right","37","1","10","5","P","C","10"
"","","approach-retreat","159","1291826","0.0-159.0","","","2-1","5614","37","1","Testing","Stims/Figures/57-J-0-1.bmp","na:la:na","Left","37","1","11","5","S","C","11"
"","","approach-retreat","160","1298250","0.0-160.0","","","2-1","4913","40","1","Testing","Stims/Figures/100-C-30-3.bmp","taka:ta","Up","40","1","12","5","P","C","12"
"","","approach-retreat","161","1305377","0.0-161.0","","","2-1","5616","39","0","Testing","Stims/Figures/7-C-20-4.bmp","tapaka","Right","37","1","13","5","P","C","13"
"","","approach-retreat","162","1310867","0.0-162.0","","","2-1","3979","39","1","Testing","Stims/Figures/144-J-10-3.bmp","mamana","Right","39","1","14","5","S","C","14"
"","","approach-retreat","163","1324554","0.0-163.0","","","2-1","12175","39","0","Testing","Stims/Figures/27-J-0-1.bmp","na:la:la","Left","37","1","15","5","S","C","15"
"","","approach-retreat","164","1330242","0.0-164.0","","","2-1","4176","40","0","Testing","Stims/Figures/139-J-0-2.bmp","mala:la","Up","38","1","16","5","S","C","16"
"","","approach-retreat","165","1337481","0.0-165.0","","","2-1","5727","39","0","Testing","Stims/Figures/7-J-10-4.bmp","namana","Left","37","1","17","5","S","C","17"
"","","approach-retreat","166","1344122","0.0-166.0","","","2-1","5128","39","1","Testing","Stims/Figures/118-C-20-2.bmp","pakata","Left","39","1","18","5","P","C","18"
"","","approach-retreat","167","1350403","0.0-167.0","","","2-1","4761","38","0","Testing","Stims/Figures/84-J-0-2.bmp","mama:la","Down","40","1","19","5","S","C","19"
"","","approach-retreat","168","1356552","0.0-168.0","","","2-1","4639","39","0","Testing","Stims/Figures/74-J-10-4.bmp","na:mana","Left","37","1","20","5","S","C","20"
"","","approach-retreat","169","1363187","0.0-169.0","","","2-1","5124","38","1","Testing","Stims/Figures/144-C-30-3.bmp","tapata","Down","38","1","21","5","P","C","21"
"","","approach-retreat","170","1369882","0.0-170.0","","","2-1","5184","39","0","Testing","Stims/Figures/102-C-20-4.bmp","pa:ka:ta","Right","37","1","22","5","P","C","22"
"","","approach-retreat","171","1376497","0.0-171.0","","","2-1","5105","38","0","Testing","Stims/Figures/118-J-0-2.bmp","ma:lala","Down","40","1","23","5","S","C","23"
"","","approach-retreat","172","1383146","0.0-172.0","","","2-1","5137","40","0","Testing","Stims/Figures/74-C-20-4.bmp","tapa:ka","Down","38","1","24","5","P","C","24"
"","","approach-retreat","173","1390482","0.0-173.0","","","2-1","5825","38","0","Testing","Stims/Figures/100-J-10-3.bmp","ma:la:la","Down","40","2","1","5","S","C","25"
"","","approach-retreat","174","1398394","0.0-174.0","","","2-1","6407","38","1","Testing","Stims/Figures/128-C-30-3.bmp","paka:ta","Down","38","2","2","5","P","C","26"
"","","approach-retreat","175","1404050","0.0-175.0","","","2-1","4145","40","1","Testing","Stims/Figures/139-C-20-2.bmp","papa:ka","Up","40","2","3","5","P","C","27"
"","","approach-retreat","176","1410217","0.0-176.0","","","2-1","4656","39","1","Testing","Stims/Figures/7-C-20-4.bmp","tapaka","Left","39","2","4","5","P","C","28"
"","","approach-retreat","177","1417194","0.0-177.0","","","2-1","5464","39","0","Testing","Stims/Figures/27-J-0-1.bmp","na:la:la","Left","37","2","5","5","S","C","29"
"","","approach-retreat","178","1423649","0.0-178.0","","","2-1","4944","39","0","Testing","Stims/Figures/139-J-0-2.bmp","mala:la","Left","37","2","6","5","S","C","30"
"","","approach-retreat","179","1430601","0.0-179.0","","","2-1","5441","38","0","Testing","Stims/Figures/118-J-0-2.bmp","ma:lala","Down","40","2","7","5","S","C","31"
"","","approach-retreat","180","1439147","0.0-180.0","","","2-1","7035","39","0","Testing","Stims/Figures/102-C-20-4.bmp","pa:ka:ta","Right","37","2","8","5","P","C","32"
"","","approach-retreat","181","1445449","0.0-181.0","","","2-1","4792","39","0","Testing","Stims/Figures/144-J-10-3.bmp","mamana","Left","37","2","9","5","S","C","33"
"","","approach-retreat","182","1453243","0.0-182.0","","","2-1","6283","38","1","Testing","Stims/Figures/128-J-10-3.bmp","namala","Up","38","2","10","5","S","C","34"
"","","approach-retreat","183","1480969","0.0-183.0","","","2-1","26221","38","0","Testing","Stims/Figures/7-J-10-4.bmp","namana","Down","40","2","11","5","S","C","35"
"","","approach-retreat","184","1487329","0.0-184.0","","","2-1","4850","39","1","Testing","Stims/Figures/102-J-10-4.bmp","mama:na","Right","39","2","12","5","S","C","36"
"","","approach-retreat","185","1492577","0.0-185.0","","","2-1","3737","39","0","Testing","Stims/Figures/57-J-0-1.bmp","na:la:na","Left","37","2","13","5","S","C","37"
"","","approach-retreat","186","1499177","0.0-186.0","","","2-1","5088","39","0","Testing","Stims/Figures/27-C-30-1.bmp","pa:pa:ta","Right","37","2","14","5","P","C","38"
"","","approach-retreat","187","1505779","0.0-187.0","","","2-1","5091","38","0","Testing","Stims/Figures/74-J-10-4.bmp","na:mana","Down","40","2","15","5","S","C","39"
"","","approach-retreat","188","1511802","0.0-188.0","","","2-1","4512","39","0","Testing","Stims/Figures/84-C-20-2.bmp","ta:pata","Right","37","2","16","5","P","C","40"
"","","approach-retreat","189","1517970","0.0-189.0","","","2-1","4657","39","0","Testing","Stims/Figures/74-C-20-4.bmp","tapa:ka","Right","37","2","17","5","P","C","41"
"","","approach-retreat","190","1523738","0.0-190.0","","","2-1","4258","39","1","Testing","Stims/Figures/84-J-0-2.bmp","mama:la","Right","39","2","18","5","S","C","42"
"","","approach-retreat","191","1538610","0.0-191.0","","","2-1","13362","38","0","Testing","Stims/Figures/118-C-20-2.bmp","pakata","Up","40","2","19","5","P","C","43"
"","","approach-retreat","192","1543769","0.0-192.0","","","2-1","3648","40","0","Testing","Stims/Figures/93-C-30-1.bmp","takaka","Down","38","2","20","5","P","C","44"
"","","approach-retreat","193","1549873","0.0-193.0","","","2-1","4598","39","1","Testing","Stims/Figures/100-C-30-3.bmp","taka:ta","Left","39","2","21","5","P","C","45"
"","","approach-retreat","194","1555669","0.0-194.0","","","2-1","4282","40","1","Testing","Stims/Figures/144-C-30-3.bmp","tapata","Up","40","2","22","5","P","C","46"
"","","approach-retreat","195","1561312","0.0-195.0","","","2-1","4138","40","1","Testing","Stims/Figures/57-C-30-1.bmp","pa:kaka","Up","40","2","23","5","P","C","47"
"","","approach-retreat","196","1566937","0.0-196.0","","","2-1","4114","38","1","Testing","Stims/Figures/93-J-0-1.bmp","ma:la:na","Up","38","2","24","5","S","C","48"
"","","approach-retreat","197","1572674","0.0-197.0","","","2-1","4224","37","1","Testing","Stims/Figures/128-J-10-3.bmp","namala","Left","37","3","1","5","S","C","49"
"","","approach-retreat","198","1578530","0.0-198.0","","","2-1","4343","37","0","Testing","Stims/Figures/74-C-20-4.bmp","tapa:ka","Left","39","3","2","5","P","C","50"
"","","approach-retreat","199","1584289","0.0-199.0","","","2-1","4247","38","0","Testing","Stims/Figures/102-J-10-4.bmp","mama:na","Down","40","3","3","5","S","C","51"
"","","approach-retreat","200","1591393","0.0-200.0","","","2-1","5593","38","1","Testing","Stims/Figures/7-C-20-4.bmp","tapaka","Down","38","3","4","5","P","C","52"
"","","approach-retreat","201","1597425","0.0-201.0","","","2-1","4527","39","1","Testing","Stims/Figures/27-J-0-1.bmp","na:la:la","Right","39","3","5","5","S","C","53"
"","","approach-retreat","202","1901826","0.0-202.0","","","2-1","302893","38","0","Testing","Stims/Figures/144-C-30-3.bmp","tapata","Up","40","3","6","5","P","C","54"
"","","approach-retreat","203","1924819","0.0-203.0","","","2-1","21481","39","0","Testing","Stims/Figures/139-C-20-2.bmp","papa:ka","Right","37","3","7","5","P","C","55"
"","","approach-retreat","204","1934674","0.0-204.0","","","2-1","8343","39","1","Testing","Stims/Figures/57-J-0-1.bmp","na:la:na","Right","39","3","8","5","S","C","56"
"","","approach-retreat","205","1942698","0.0-205.0","","","2-1","6512","40","0","Testing","Stims/Figures/74-J-10-4.bmp","na:mana","Up","38","3","9","5","S","C","57"
"","","approach-retreat","206","1948331","0.0-206.0","","","2-1","4121","37","1","Testing","Stims/Figures/100-J-10-3.bmp","ma:la:la","Left","37","3","10","5","S","C","58"
"","","approach-retreat","207","1954209","0.0-207.0","","","2-1","4367","40","0","Testing","Stims/Figures/144-J-10-3.bmp","mamana","Up","38","3","11","5","S","C","59"
"","","approach-retreat","208","1960348","0.0-208.0","","","2-1","4627","38","1","Testing","Stims/Figures/84-C-20-2.bmp","ta:pata","Down","38","3","12","5","P","C","60"
"","","approach-retreat","209","1966098","0.0-209.0","","","2-1","4240","40","1","Testing","Stims/Figures/128-C-30-3.bmp","paka:ta","Up","40","3","13","5","P","C","61"
"","","approach-retreat","210","1993833","0.0-210.0","","","2-1","26224","40","0","Testing","Stims/Figures/100-C-30-3.bmp","taka:ta","Down","38","3","14","5","P","C","62"
"","","approach-retreat","211","2001449","0.0-211.0","","","2-1","6104","37","1","Testing","Stims/Figures/93-J-0-1.bmp","ma:la:na","Left","37","3","15","5","S","C","63"
"","","approach-retreat","212","2007083","0.0-212.0","","","2-1","4121","37","1","Testing","Stims/Figures/139-J-0-2.bmp","mala:la","Left","37","3","16","5","S","C","64"
"","","approach-retreat","213","2013105","0.0-213.0","","","2-1","4512","40","0","Testing","Stims/Figures/118-C-20-2.bmp","pakata","Down","38","3","17","5","P","C","65"
"","","approach-retreat","214","2019573","0.0-214.0","","","2-1","4958","37","0","Testing","Stims/Figures/93-C-30-1.bmp","takaka","Left","39","3","18","5","P","C","66"
"","","approach-retreat","215","2026753","0.0-215.0","","","2-1","5669","39","1","Testing","Stims/Figures/7-J-10-4.bmp","namana","Right","39","3","19","5","S","C","67"
"","","approach-retreat","216","2036267","0.0-216.0","","","2-1","8001","38","1","Testing","Stims/Figures/118-J-0-2.bmp","ma:lala","Up","38","3","20","5","S","C","68"
"","","approach-retreat","217","2538522","0.0-217.0","","","2-1","500743","40","1","Testing","Stims/Figures/57-C-30-1.bmp","pa:kaka","Up","40","3","21","5","P","C","69"
"","","approach-retreat","218","2543953","0.0-218.0","","","2-1","3921","39","0","Testing","Stims/Figures/27-C-30-1.bmp","pa:pa:ta","Right","37","3","22","5","P","C","70"
"","","approach-retreat","219","2550697","0.0-219.0","","","2-1","5230","40","0","Testing","Stims/Figures/102-C-20-4.bmp","pa:ka:ta","Down","38","3","23","5","P","C","71"
"","","approach-retreat","220","2558130","0.0-220.0","","","2-1","5925","39","1","Testing","Stims/Figures/84-J-0-2.bmp","mama:la","Right","39","3","24","5","S","C","72"
"","","approach-retreat","221","2582499","0.0-221.0","","","2-1","22857","37","0","Testing","Stims/Figures/128-C-30-3.bmp","paka:ta","Left","39","4","1","5","P","C","73"
"","","approach-retreat","222","2592780","0.0-222.0","","","2-1","8770","39","0","Testing","Stims/Figures/144-C-30-3.bmp","tapata","Right","37","4","2","5","P","C","74"
"","","approach-retreat","223","2602907","0.0-223.0","","","2-1","8614","39","0","Testing","Stims/Figures/139-C-20-2.bmp","papa:ka","Right","37","4","3","5","P","C","75"
"","","approach-retreat","224","2609290","0.0-224.0","","","2-1","4871","40","1","Testing","Stims/Figures/84-J-0-2.bmp","mama:la","Down","40","4","4","5","S","C","76"
"","","approach-retreat","225","2624266","0.0-225.0","","","2-1","13465","40","1","Testing","Stims/Figures/84-C-20-2.bmp","ta:pata","Up","40","4","5","5","P","C","77"
"","","approach-retreat","226","2632002","0.0-226.0","","","2-1","6221","38","1","Testing","Stims/Figures/144-J-10-3.bmp","mamana","Up","38","4","6","5","S","C","78"
"","","approach-retreat","227","2644338","0.0-227.0","","","2-1","10825","39","0","Testing","Stims/Figures/102-J-10-4.bmp","mama:na","Left","37","4","7","5","S","C","79"
"","","approach-retreat","228","2652337","0.0-228.0","","","2-1","6492","40","1","Testing","Stims/Figures/102-C-20-4.bmp","pa:ka:ta","Up","40","4","8","5","P","C","80"
"","","approach-retreat","229","2659235","0.0-229.0","","","2-1","5385","38","1","Testing","Stims/Figures/27-C-30-1.bmp","pa:pa:ta","Down","38","4","9","5","P","C","81"
"","","approach-retreat","230","2664850","0.0-230.0","","","2-1","4101","40","0","Testing","Stims/Figures/57-J-0-1.bmp","na:la:na","Up","38","4","10","5","S","C","82"
"","","approach-retreat","231","2670528","0.0-231.0","","","2-1","4166","38","0","Testing","Stims/Figures/100-J-10-3.bmp","ma:la:la","Down","40","4","11","5","S","C","83"
"","","approach-retreat","232","2676243","0.0-232.0","","","2-1","4204","39","0","Testing","Stims/Figures/118-J-0-2.bmp","ma:lala","Left","37","4","12","5","S","C","84"
"","","approach-retreat","233","2681673","0.0-233.0","","","2-1","3920","39","0","Testing","Stims/Figures/93-C-30-1.bmp","takaka","Right","37","4","13","5","P","C","85"
"","","approach-retreat","234","2779642","0.0-234.0","","","2-1","96457","37","0","Testing","Stims/Figures/139-J-0-2.bmp","mala:la","Right","39","4","14","5","S","C","86"
"","","approach-retreat","235","3112434","0.0-235.0","","","2-1","331286","40","1","Testing","Stims/Figures/74-C-20-4.bmp","tapa:ka","Up","40","4","15","5","P","C","87"
"","","approach-retreat","236","3118376","0.0-236.0","","","2-1","4432","38","0","Testing","Stims/Figures/128-J-10-3.bmp","namala","Down","40","4","16","5","S","C","88"
"","","approach-retreat","237","3125963","0.0-237.0","","","2-1","6076","39","1","Testing","Stims/Figures/7-J-10-4.bmp","namana","Right","39","4","17","5","S","C","89"
"","","approach-retreat","238","3216313","0.0-238.0","","","2-1","88837","39","0","Testing","Stims/Figures/7-C-20-4.bmp","tapaka","Right","37","4","18","5","P","C","90"
"","","approach-retreat","239","3226226","0.0-239.0","","","2-1","8402","40","1","Testing","Stims/Figures/93-J-0-1.bmp","ma:la:na","Down","40","4","19","5","S","C","91"
"","","approach-retreat","240","3249925","0.0-240.0","","","2-1","22189","39","0","Testing","Stims/Figures/27-J-0-1.bmp","na:la:la","Left","37","4","20","5","S","C","92"
"","","approach-retreat","241","3263075","0.0-241.0","","","2-1","11638","40","0","Testing","Stims/Figures/100-C-30-3.bmp","taka:ta","Down","38","4","21","5","P","C","93"
"","","approach-retreat","242","3302402","0.0-242.0","","","2-1","37815","40","1","Testing","Stims/Figures/57-C-30-1.bmp","pa:kaka","Up","40","4","22","5","P","C","94"
"","","approach-retreat","243","3308419","0.0-243.0","","","2-1","4512","39","1","Testing","Stims/Figures/118-C-20-2.bmp","pakata","Left","39","4","23","5","P","C","95"
"","","approach-retreat","244","3324908","0.0-244.0","","","2-1","14983","39","0","Testing","Stims/Figures/74-J-10-4.bmp","na:mana","Left","37","4","24","5","S","C","96"
"40698","","survey-text","245","3365614","0.0-245.0","","{""Q0"":""1126/2018\n""}","","","","","","","","","","","","","","",""
