"rt","key_press","trial_type","trial_index","time_elapsed","internal_node_id","view_history","responses","Id","Rt","ResKeyCode","ResCorr","TrialType2","Image","Label","Location","CorrectResponse","Block","BlockTrial","Condition","LabelType","Subcondition","trialNum"
"30616","32","text","0","30621","0.0-0.0-0.0","","","","","","","","","","","","","","","","",""
"110255","","instructions","1","140879","0.0-1.0","[{""page_index"":0,""viewing_time"":110254}]","","","","","","","","","","","","","","","",""
"48490","","survey-multi-choice","2","189407","0.0-2.0","","{""Q0"":""Da"",""Q1"":""Da"",""Q2"":""Da"",""Q3"":""Da"",""Q4"":""Da"",""Q5"":""Da""}","","","","","","","","","","","","","","",""
"","","bio","3","202918","0.0-3.0","","{""age"":""18"",""gender"":""f"",""specify"":""""}","","","","","","","","","","","","","","",""
"","","approach-retreat","4","210981","0.0-4.0","","","3-2","6550","37","0","Training","Stims/Figures/102-J-10-4.bmp","pa:pata","Right","39","1","1","9","P","C","1"
"","","approach-retreat","5","220720","0.0-5.0","","","3-2","8228","40","0","Training","Stims/Figures/74-C-20-4.bmp","ma:lana","Down","38","1","2","9","S","C","2"
"","","approach-retreat","6","228956","0.0-6.0","","","3-2","6725","38","0","Training","Stims/Figures/84-C-20-2.bmp","sa:sa:ha","Up","40","1","3","9","C2","C","3"
"","","approach-retreat","7","236219","0.0-7.0","","","3-2","5755","38","1","Training","Stims/Figures/74-J-10-4.bmp","na:mala","Up","38","1","4","9","S","C","4"
"","","approach-retreat","8","243135","0.0-8.0","","","3-2","5405","38","1","Training","Stims/Figures/71-C-30-1.bmp","sasaha","Down","38","1","5","9","C2","C","5"
"","","approach-retreat","9","250013","0.0-9.0","","","3-2","5370","39","0","Training","Stims/Figures/27-J-0-1.bmp","fafava","Left","37","1","6","9","C1","C","6"
"","","approach-retreat","10","256162","0.0-10.0","","","3-2","4640","39","1","Training","Stims/Figures/128-J-10-3.bmp","ta:kaka","Right","39","1","7","9","P","C","7"
"","","approach-retreat","11","263805","0.0-11.0","","","3-2","6131","38","0","Training","Stims/Figures/27-C-30-1.bmp","mamala","Up","40","1","8","9","S","C","8"
"","","approach-retreat","12","270562","0.0-12.0","","","3-2","5249","39","0","Training","Stims/Figures/118-J-0-2.bmp","namala","Left","37","1","9","9","S","C","9"
"","","approach-retreat","13","278536","0.0-13.0","","","3-2","6463","37","0","Training","Stims/Figures/71-J-0-1.bmp","ta:pata","Right","39","1","10","9","P","C","10"
"","","approach-retreat","14","285854","0.0-14.0","","","3-2","5808","40","0","Training","Stims/Figures/111-J-10-3.bmp","tapa:ka","Up","38","1","11","9","P","C","11"
"","","approach-retreat","15","291982","0.0-15.0","","","3-2","4619","38","1","Training","Stims/Figures/118-C-20-2.bmp","nalala","Down","38","1","12","9","S","C","12"
"","","approach-retreat","16","298157","0.0-16.0","","","3-2","4666","38","0","Training","Stims/Figures/84-J-0-2.bmp","fashasha","Down","40","1","13","9","C1","C","13"
"","","approach-retreat","17","303784","0.0-17.0","","","3-2","4118","37","1","Training","Stims/Figures/111-C-30-3.bmp","paka:ta","Right","37","1","14","9","P","C","14"
"","","approach-retreat","18","309511","0.0-18.0","","","3-2","4217","39","1","Training","Stims/Figures/128-C-30-3.bmp","pa:ka:ka","Left","39","1","15","9","P","C","15"
"","","approach-retreat","19","315101","0.0-19.0","","","3-2","4082","39","1","Training","Stims/Figures/102-C-20-4.bmp","za:haza","Left","39","1","16","9","C2","C","16"
"","","approach-retreat","20","320936","0.0-20.0","","","3-2","4324","37","0","Training","Stims/Figures/27-J-0-1.bmp","fafava","Right","39","2","1","9","C1","C","17"
"","","approach-retreat","21","326539","0.0-21.0","","","3-2","4093","37","0","Training","Stims/Figures/74-C-20-4.bmp","ma:lana","Left","39","2","2","9","S","C","18"
"","","approach-retreat","22","332275","0.0-22.0","","","3-2","4228","40","1","Training","Stims/Figures/128-C-30-3.bmp","pa:ka:ka","Up","40","2","3","9","P","C","19"
"","","approach-retreat","23","337916","0.0-23.0","","","3-2","4130","37","1","Training","Stims/Figures/111-C-30-3.bmp","paka:ta","Right","37","2","4","9","P","C","20"
"","","approach-retreat","24","345621","0.0-24.0","","","3-2","6195","39","0","Training","Stims/Figures/74-J-10-4.bmp","na:mala","Left","37","2","5","9","S","C","21"
"","","approach-retreat","25","351532","0.0-25.0","","","3-2","4401","39","1","Training","Stims/Figures/71-J-0-1.bmp","ta:pata","Right","39","2","6","9","P","C","22"
"","","approach-retreat","26","357218","0.0-26.0","","","3-2","4173","38","0","Training","Stims/Figures/111-J-10-3.bmp","tapa:ka","Down","40","2","7","9","P","C","23"
"","","approach-retreat","27","363279","0.0-27.0","","","3-2","4552","37","1","Training","Stims/Figures/71-C-30-1.bmp","sasaha","Right","37","2","8","9","C2","C","24"
"","","approach-retreat","28","369493","0.0-28.0","","","3-2","4703","38","1","Training","Stims/Figures/84-J-0-2.bmp","fashasha","Up","38","2","9","9","C1","C","25"
"","","approach-retreat","29","375057","0.0-29.0","","","3-2","4054","39","1","Training","Stims/Figures/27-C-30-1.bmp","mamala","Left","39","2","10","9","S","C","26"
"","","approach-retreat","30","380731","0.0-30.0","","","3-2","4165","38","1","Training","Stims/Figures/84-C-20-2.bmp","sa:sa:ha","Down","38","2","11","9","C2","C","27"
"","","approach-retreat","31","386154","0.0-31.0","","","3-2","3914","37","1","Training","Stims/Figures/102-J-10-4.bmp","pa:pata","Left","37","2","12","9","P","C","28"
"","","approach-retreat","32","391885","0.0-32.0","","","3-2","4220","40","0","Training","Stims/Figures/118-C-20-2.bmp","nalala","Down","38","2","13","9","S","C","29"
"","","approach-retreat","33","397473","0.0-33.0","","","3-2","4078","40","1","Training","Stims/Figures/118-J-0-2.bmp","namala","Down","40","2","14","9","S","C","30"
"","","approach-retreat","34","403099","0.0-34.0","","","3-2","4117","40","0","Training","Stims/Figures/128-J-10-3.bmp","ta:kaka","Up","38","2","15","9","P","C","31"
"","","approach-retreat","35","408964","0.0-35.0","","","3-2","4354","38","0","Training","Stims/Figures/102-C-20-4.bmp","za:haza","Up","40","2","16","9","C2","C","32"
"","","approach-retreat","36","414728","0.0-36.0","","","3-2","4254","40","1","Training","Stims/Figures/74-J-10-4.bmp","na:mala","Down","40","3","1","9","S","C","33"
"","","approach-retreat","37","420393","0.0-37.0","","","3-2","4156","39","1","Training","Stims/Figures/128-J-10-3.bmp","ta:kaka","Right","39","3","2","9","P","C","34"
"","","approach-retreat","38","427162","0.0-38.0","","","3-2","5258","37","1","Training","Stims/Figures/102-C-20-4.bmp","za:haza","Right","37","3","3","9","C2","C","35"
"","","approach-retreat","39","432954","0.0-39.0","","","3-2","4280","39","0","Training","Stims/Figures/102-J-10-4.bmp","pa:pata","Left","37","3","4","9","P","C","36"
"","","approach-retreat","40","440327","0.0-40.0","","","3-2","5865","40","1","Training","Stims/Figures/84-C-20-2.bmp","sa:sa:ha","Up","40","3","5","9","C2","C","37"
"","","approach-retreat","41","446766","0.0-41.0","","","3-2","4929","38","1","Training","Stims/Figures/128-C-30-3.bmp","pa:ka:ka","Down","38","3","6","9","P","C","38"
"","","approach-retreat","42","452257","0.0-42.0","","","3-2","3982","40","1","Training","Stims/Figures/84-J-0-2.bmp","fashasha","Down","40","3","7","9","C1","C","39"
"","","approach-retreat","43","458630","0.0-43.0","","","3-2","4865","38","0","Training","Stims/Figures/27-C-30-1.bmp","mamala","Up","40","3","8","9","S","C","40"
"","","approach-retreat","44","465608","0.0-44.0","","","3-2","5467","37","0","Training","Stims/Figures/71-C-30-1.bmp","sasaha","Left","39","3","9","9","C2","C","41"
"","","approach-retreat","45","473119","0.0-45.0","","","3-2","6002","37","1","Training","Stims/Figures/71-J-0-1.bmp","ta:pata","Left","37","3","10","9","P","C","42"
"","","approach-retreat","46","478840","0.0-46.0","","","3-2","4211","40","1","Training","Stims/Figures/118-J-0-2.bmp","namala","Down","40","3","11","9","S","C","43"
"","","approach-retreat","47","486004","0.0-47.0","","","3-2","5654","37","1","Training","Stims/Figures/118-C-20-2.bmp","nalala","Right","37","3","12","9","S","C","44"
"","","approach-retreat","48","491675","0.0-48.0","","","3-2","4160","37","1","Training","Stims/Figures/111-J-10-3.bmp","tapa:ka","Left","37","3","13","9","P","C","45"
"","","approach-retreat","49","498315","0.0-49.0","","","3-2","5131","38","0","Training","Stims/Figures/74-C-20-4.bmp","ma:lana","Up","40","3","14","9","S","C","46"
"","","approach-retreat","50","504170","0.0-50.0","","","3-2","4345","38","0","Training","Stims/Figures/111-C-30-3.bmp","paka:ta","Up","40","3","15","9","P","C","47"
"","","approach-retreat","51","509964","0.0-51.0","","","3-2","4285","39","1","Training","Stims/Figures/27-J-0-1.bmp","fafava","Right","39","3","16","9","C1","C","48"
"","","approach-retreat","52","518532","0.0-52.0","","","3-2","7059","38","1","Training","Stims/Figures/71-C-30-1.bmp","sasaha","Down","38","4","1","9","C2","C","49"
"","","approach-retreat","53","524331","0.0-53.0","","","3-2","4289","37","1","Training","Stims/Figures/74-C-20-4.bmp","ma:lana","Right","37","4","2","9","S","C","50"
"","","approach-retreat","54","529864","0.0-54.0","","","3-2","4022","37","1","Training","Stims/Figures/128-C-30-3.bmp","pa:ka:ka","Right","37","4","3","9","P","C","51"
"","","approach-retreat","55","535875","0.0-55.0","","","3-2","4502","38","1","Training","Stims/Figures/27-J-0-1.bmp","fafava","Up","38","4","4","9","C1","C","52"
"","","approach-retreat","56","541647","0.0-56.0","","","3-2","4261","37","1","Training","Stims/Figures/118-J-0-2.bmp","namala","Left","37","4","5","9","S","C","53"
"","","approach-retreat","57","547453","0.0-57.0","","","3-2","4297","38","1","Training","Stims/Figures/84-J-0-2.bmp","fashasha","Up","38","4","6","9","C1","C","54"
"","","approach-retreat","58","553865","0.0-58.0","","","3-2","4902","37","0","Training","Stims/Figures/118-C-20-2.bmp","nalala","Left","39","4","7","9","S","C","55"
"","","approach-retreat","59","560393","0.0-59.0","","","3-2","5019","39","0","Training","Stims/Figures/102-C-20-4.bmp","za:haza","Right","37","4","8","9","C2","C","56"
"","","approach-retreat","60","567263","0.0-60.0","","","3-2","5361","40","1","Training","Stims/Figures/74-J-10-4.bmp","na:mala","Down","40","4","9","9","S","C","57"
"","","approach-retreat","61","572832","0.0-61.0","","","3-2","4061","40","0","Training","Stims/Figures/27-C-30-1.bmp","mamala","Down","38","4","10","9","S","C","58"
"","","approach-retreat","62","578175","0.0-62.0","","","3-2","3832","38","1","Training","Stims/Figures/111-C-30-3.bmp","paka:ta","Down","38","4","11","9","P","C","59"
"","","approach-retreat","63","586585","0.0-63.0","","","3-2","6901","39","1","Training","Stims/Figures/111-J-10-3.bmp","tapa:ka","Right","39","4","12","9","P","C","60"
"","","approach-retreat","64","592716","0.0-64.0","","","3-2","4621","38","1","Training","Stims/Figures/71-J-0-1.bmp","ta:pata","Up","38","4","13","9","P","C","61"
"","","approach-retreat","65","598637","0.0-65.0","","","3-2","4410","38","1","Training","Stims/Figures/128-J-10-3.bmp","ta:kaka","Up","38","4","14","9","P","C","62"
"","","approach-retreat","66","604300","0.0-66.0","","","3-2","4153","39","0","Training","Stims/Figures/102-J-10-4.bmp","pa:pata","Left","37","4","15","9","P","C","63"
"","","approach-retreat","67","609810","0.0-67.0","","","3-2","4000","39","1","Training","Stims/Figures/84-C-20-2.bmp","sa:sa:ha","Left","39","4","16","9","C2","C","64"
"","","approach-retreat","68","615839","0.0-68.0","","","3-2","4518","38","0","Training","Stims/Figures/111-J-10-3.bmp","tapa:ka","Down","40","5","1","9","P","C","65"
"","","approach-retreat","69","622340","0.0-69.0","","","3-2","4993","39","1","Training","Stims/Figures/27-J-0-1.bmp","fafava","Right","39","5","2","9","C1","C","66"
"","","approach-retreat","70","628350","0.0-70.0","","","3-2","4499","39","1","Training","Stims/Figures/111-C-30-3.bmp","paka:ta","Left","39","5","3","9","P","C","67"
"","","approach-retreat","71","634184","0.0-71.0","","","3-2","4325","38","0","Training","Stims/Figures/102-J-10-4.bmp","pa:pata","Down","40","5","4","9","P","C","68"
"","","approach-retreat","72","639819","0.0-72.0","","","3-2","4126","40","1","Training","Stims/Figures/128-C-30-3.bmp","pa:ka:ka","Up","40","5","5","9","P","C","69"
"","","approach-retreat","73","645395","0.0-73.0","","","3-2","4067","39","1","Training","Stims/Figures/71-J-0-1.bmp","ta:pata","Right","39","5","6","9","P","C","70"
"","","approach-retreat","74","651198","0.0-74.0","","","3-2","4293","39","0","Training","Stims/Figures/74-C-20-4.bmp","ma:lana","Right","37","5","7","9","S","C","71"
"","","approach-retreat","75","659820","0.0-75.0","","","3-2","7114","39","1","Training","Stims/Figures/84-C-20-2.bmp","sa:sa:ha","Left","39","5","8","9","C2","C","72"
"","","approach-retreat","76","667796","0.0-76.0","","","3-2","6466","39","1","Training","Stims/Figures/118-J-0-2.bmp","namala","Right","39","5","9","9","S","C","73"
"","","approach-retreat","77","679921","0.0-77.0","","","3-2","10613","37","0","Training","Stims/Figures/102-C-20-4.bmp","za:haza","Left","39","5","10","9","C2","C","74"
"","","approach-retreat","78","688347","0.0-78.0","","","3-2","6917","40","0","Training","Stims/Figures/74-J-10-4.bmp","na:mala","Up","38","5","11","9","S","C","75"
"","","approach-retreat","79","693943","0.0-79.0","","","3-2","4086","38","0","Training","Stims/Figures/128-J-10-3.bmp","ta:kaka","Down","40","5","12","9","P","C","76"
"","","approach-retreat","80","701157","0.0-80.0","","","3-2","5703","37","0","Training","Stims/Figures/27-C-30-1.bmp","mamala","Left","39","5","13","9","S","C","77"
"","","approach-retreat","81","707125","0.0-81.0","","","3-2","4458","38","0","Training","Stims/Figures/84-J-0-2.bmp","fashasha","Down","40","5","14","9","C1","C","78"
"","","approach-retreat","82","712670","0.0-82.0","","","3-2","4035","40","1","Training","Stims/Figures/71-C-30-1.bmp","sasaha","Up","40","5","15","9","C2","C","79"
"","","approach-retreat","83","719390","0.0-83.0","","","3-2","5210","38","0","Training","Stims/Figures/118-C-20-2.bmp","nalala","Up","40","5","16","9","S","C","80"
"","","approach-retreat","84","725717","0.0-84.0","","","3-2","4816","37","1","Training","Stims/Figures/118-C-20-2.bmp","nalala","Right","37","6","1","9","S","C","81"
"","","approach-retreat","85","731524","0.0-85.0","","","3-2","4298","37","1","Training","Stims/Figures/128-C-30-3.bmp","pa:ka:ka","Right","37","6","2","9","P","C","82"
"","","approach-retreat","86","737001","0.0-86.0","","","3-2","3967","39","1","Training","Stims/Figures/27-J-0-1.bmp","fafava","Right","39","6","3","9","C1","C","83"
"","","approach-retreat","87","742929","0.0-87.0","","","3-2","4419","39","0","Training","Stims/Figures/118-J-0-2.bmp","namala","Left","37","6","4","9","S","C","84"
"","","approach-retreat","88","748537","0.0-88.0","","","3-2","4098","38","1","Training","Stims/Figures/27-C-30-1.bmp","mamala","Down","38","6","5","9","S","C","85"
"","","approach-retreat","89","754427","0.0-89.0","","","3-2","4380","40","1","Training","Stims/Figures/128-J-10-3.bmp","ta:kaka","Down","40","6","6","9","P","C","86"
"","","approach-retreat","90","760105","0.0-90.0","","","3-2","4168","37","1","Training","Stims/Figures/111-J-10-3.bmp","tapa:ka","Left","37","6","7","9","P","C","87"
"","","approach-retreat","91","765695","0.0-91.0","","","3-2","4081","37","1","Training","Stims/Figures/71-J-0-1.bmp","ta:pata","Left","37","6","8","9","P","C","88"
"","","approach-retreat","92","771472","0.0-92.0","","","3-2","4267","40","0","Training","Stims/Figures/84-J-0-2.bmp","fashasha","Up","38","6","9","9","C1","C","89"
"","","approach-retreat","93","777174","0.0-93.0","","","3-2","4191","38","0","Training","Stims/Figures/102-C-20-4.bmp","za:haza","Up","40","6","10","9","C2","C","90"
"","","approach-retreat","94","783142","0.0-94.0","","","3-2","4459","40","1","Training","Stims/Figures/111-C-30-3.bmp","paka:ta","Up","40","6","11","9","P","C","91"
"","","approach-retreat","95","788750","0.0-95.0","","","3-2","4099","39","1","Training","Stims/Figures/84-C-20-2.bmp","sa:sa:ha","Left","39","6","12","9","C2","C","92"
"","","approach-retreat","96","795279","0.0-96.0","","","3-2","5019","40","1","Training","Stims/Figures/74-J-10-4.bmp","na:mala","Down","40","6","13","9","S","C","93"
"","","approach-retreat","97","801140","0.0-97.0","","","3-2","4352","37","1","Training","Stims/Figures/74-C-20-4.bmp","ma:lana","Right","37","6","14","9","S","C","94"
"","","approach-retreat","98","807546","0.0-98.0","","","3-2","4896","40","1","Training","Stims/Figures/71-C-30-1.bmp","sasaha","Up","40","6","15","9","C2","C","95"
"","","approach-retreat","99","813569","0.0-99.0","","","3-2","4513","38","0","Training","Stims/Figures/102-J-10-4.bmp","pa:pata","Down","40","6","16","9","P","C","96"
"","","approach-retreat","100","819304","0.0-100.0","","","3-2","4226","39","1","Training","Stims/Figures/84-J-0-2.bmp","fashasha","Right","39","7","1","9","C1","C","97"
"","","approach-retreat","101","824831","0.0-101.0","","","3-2","4016","40","0","Training","Stims/Figures/102-C-20-4.bmp","za:haza","Down","38","7","2","9","C2","C","98"
"","","approach-retreat","102","831816","0.0-102.0","","","3-2","5476","39","1","Training","Stims/Figures/71-C-30-1.bmp","sasaha","Left","39","7","3","9","C2","C","99"
"","","approach-retreat","103","837478","0.0-103.0","","","3-2","4150","38","0","Training","Stims/Figures/27-C-30-1.bmp","mamala","Up","40","7","4","9","S","C","100"
"","","approach-retreat","104","843152","0.0-104.0","","","3-2","4166","39","1","Training","Stims/Figures/111-J-10-3.bmp","tapa:ka","Right","39","7","5","9","P","C","101"
"","","approach-retreat","105","848688","0.0-105.0","","","3-2","4027","39","0","Training","Stims/Figures/102-J-10-4.bmp","pa:pata","Left","37","7","6","9","P","C","102"
"","","approach-retreat","106","854199","0.0-106.0","","","3-2","4002","39","0","Training","Stims/Figures/111-C-30-3.bmp","paka:ta","Right","37","7","7","9","P","C","103"
"","","approach-retreat","107","861458","0.0-107.0","","","3-2","5751","40","1","Training","Stims/Figures/84-C-20-2.bmp","sa:sa:ha","Up","40","7","8","9","C2","C","104"
"","","approach-retreat","108","867642","0.0-108.0","","","3-2","4675","40","0","Training","Stims/Figures/118-C-20-2.bmp","nalala","Down","38","7","9","9","S","C","105"
"","","approach-retreat","109","875443","0.0-109.0","","","3-2","6293","38","1","Training","Stims/Figures/128-J-10-3.bmp","ta:kaka","Up","38","7","10","9","P","C","106"
"","","approach-retreat","110","881156","0.0-110.0","","","3-2","4204","40","1","Training","Stims/Figures/27-J-0-1.bmp","fafava","Down","40","7","11","9","C1","C","107"
"","","approach-retreat","111","886813","0.0-111.0","","","3-2","4147","40","1","Training","Stims/Figures/71-J-0-1.bmp","ta:pata","Down","40","7","12","9","P","C","108"
"","","approach-retreat","112","892301","0.0-112.0","","","3-2","3978","39","1","Training","Stims/Figures/118-J-0-2.bmp","namala","Right","39","7","13","9","S","C","109"
"","","approach-retreat","113","897947","0.0-113.0","","","3-2","4136","38","0","Training","Stims/Figures/74-C-20-4.bmp","ma:lana","Up","40","7","14","9","S","C","110"
"","","approach-retreat","114","903602","0.0-114.0","","","3-2","4145","39","0","Training","Stims/Figures/74-J-10-4.bmp","na:mala","Left","37","7","15","9","S","C","111"
"","","approach-retreat","115","909050","0.0-115.0","","","3-2","3939","39","1","Training","Stims/Figures/128-C-30-3.bmp","pa:ka:ka","Left","39","7","16","9","P","C","112"
"","","approach-retreat","116","914805","0.0-116.0","","","3-2","4246","38","1","Training","Stims/Figures/118-J-0-2.bmp","namala","Up","38","8","1","9","S","C","113"
"","","approach-retreat","117","920311","0.0-117.0","","","3-2","3996","40","1","Training","Stims/Figures/27-C-30-1.bmp","mamala","Up","40","8","2","9","S","C","114"
"","","approach-retreat","118","925707","0.0-118.0","","","3-2","3887","38","0","Training","Stims/Figures/111-C-30-3.bmp","paka:ta","Up","40","8","3","9","P","C","115"
"","","approach-retreat","119","931588","0.0-119.0","","","3-2","4371","39","1","Training","Stims/Figures/84-J-0-2.bmp","fashasha","Right","39","8","4","9","C1","C","116"
"","","approach-retreat","120","939094","0.0-120.0","","","3-2","5996","37","0","Training","Stims/Figures/84-C-20-2.bmp","sa:sa:ha","Left","39","8","5","9","C2","C","117"
"","","approach-retreat","121","944700","0.0-121.0","","","3-2","4099","38","1","Training","Stims/Figures/71-C-30-1.bmp","sasaha","Down","38","8","6","9","C2","C","118"
"","","approach-retreat","122","950867","0.0-122.0","","","3-2","4657","37","0","Training","Stims/Figures/74-J-10-4.bmp","na:mala","Right","39","8","7","9","S","C","119"
"","","approach-retreat","123","956469","0.0-123.0","","","3-2","4092","40","1","Training","Stims/Figures/128-J-10-3.bmp","ta:kaka","Down","40","8","8","9","P","C","120"
"","","approach-retreat","124","962146","0.0-124.0","","","3-2","4168","40","1","Training","Stims/Figures/102-C-20-4.bmp","za:haza","Up","40","8","9","9","C2","C","121"
"","","approach-retreat","125","968624","0.0-125.0","","","3-2","4967","39","0","Training","Stims/Figures/128-C-30-3.bmp","pa:ka:ka","Right","37","8","10","9","P","C","122"
"","","approach-retreat","126","974282","0.0-126.0","","","3-2","4148","40","0","Training","Stims/Figures/74-C-20-4.bmp","ma:lana","Down","38","8","11","9","S","C","123"
"","","approach-retreat","127","979903","0.0-127.0","","","3-2","4112","37","1","Training","Stims/Figures/27-J-0-1.bmp","fafava","Left","37","8","12","9","C1","C","124"
"","","approach-retreat","128","985328","0.0-128.0","","","3-2","3915","37","1","Training","Stims/Figures/71-J-0-1.bmp","ta:pata","Left","37","8","13","9","P","C","125"
"","","approach-retreat","129","990912","0.0-129.0","","","3-2","4074","37","1","Training","Stims/Figures/111-J-10-3.bmp","tapa:ka","Left","37","8","14","9","P","C","126"
"","","approach-retreat","130","996524","0.0-130.0","","","3-2","4102","39","0","Training","Stims/Figures/118-C-20-2.bmp","nalala","Right","37","8","15","9","S","C","127"
"","","approach-retreat","131","1002098","0.0-131.0","","","3-2","4065","40","1","Training","Stims/Figures/102-J-10-4.bmp","pa:pata","Down","40","8","16","9","P","C","128"
"","","approach-retreat","132","1007628","0.0-132.0","","","3-2","4020","40","1","Training","Stims/Figures/27-J-0-1.bmp","fafava","Down","40","9","1","9","C1","C","129"
"","","approach-retreat","133","1013137","0.0-133.0","","","3-2","4000","40","1","Training","Stims/Figures/74-J-10-4.bmp","na:mala","Down","40","9","2","9","S","C","130"
"","","approach-retreat","134","1018600","0.0-134.0","","","3-2","3954","37","1","Training","Stims/Figures/102-J-10-4.bmp","pa:pata","Left","37","9","3","9","P","C","131"
"","","approach-retreat","135","1024154","0.0-135.0","","","3-2","4044","38","1","Training","Stims/Figures/111-J-10-3.bmp","tapa:ka","Up","38","9","4","9","P","C","132"
"","","approach-retreat","136","1029694","0.0-136.0","","","3-2","4030","37","0","Training","Stims/Figures/111-C-30-3.bmp","paka:ta","Left","39","9","5","9","P","C","133"
"","","approach-retreat","137","1035171","0.0-137.0","","","3-2","3968","40","1","Training","Stims/Figures/27-C-30-1.bmp","mamala","Up","40","9","6","9","S","C","134"
"","","approach-retreat","138","1040523","0.0-138.0","","","3-2","3842","40","1","Training","Stims/Figures/71-C-30-1.bmp","sasaha","Up","40","9","7","9","C2","C","135"
"","","approach-retreat","139","1045967","0.0-139.0","","","3-2","3933","37","1","Training","Stims/Figures/128-J-10-3.bmp","ta:kaka","Left","37","9","8","9","P","C","136"
"","","approach-retreat","140","1051363","0.0-140.0","","","3-2","3886","39","1","Training","Stims/Figures/128-C-30-3.bmp","pa:ka:ka","Left","39","9","9","9","P","C","137"
"","","approach-retreat","141","1057201","0.0-141.0","","","3-2","4328","37","1","Training","Stims/Figures/118-C-20-2.bmp","nalala","Right","37","9","10","9","S","C","138"
"","","approach-retreat","142","1062844","0.0-142.0","","","3-2","4135","40","1","Training","Stims/Figures/84-J-0-2.bmp","fashasha","Down","40","9","11","9","C1","C","139"
"","","approach-retreat","143","1068479","0.0-143.0","","","3-2","4125","38","0","Training","Stims/Figures/74-C-20-4.bmp","ma:lana","Up","40","9","12","9","S","C","140"
"","","approach-retreat","144","1075294","0.0-144.0","","","3-2","5305","40","1","Training","Stims/Figures/118-J-0-2.bmp","namala","Down","40","9","13","9","S","C","141"
"","","approach-retreat","145","1082428","0.0-145.0","","","3-2","5623","39","0","Training","Stims/Figures/84-C-20-2.bmp","sa:sa:ha","Right","37","9","14","9","C2","C","142"
"","","approach-retreat","146","1090061","0.0-146.0","","","3-2","6124","39","0","Training","Stims/Figures/102-C-20-4.bmp","za:haza","Right","37","9","15","9","C2","C","143"
"","","approach-retreat","147","1095731","0.0-147.0","","","3-2","4161","39","1","Training","Stims/Figures/71-J-0-1.bmp","ta:pata","Right","39","9","16","9","P","C","144"
"17824","","instructions","148","1113555","0.0-148.0","[{""page_index"":0,""viewing_time"":17823}]","","","","","","","","","","","","","","","",""
"","","approach-retreat","149","1119273","0.0-149.0","","","3-2","4211","38","1","Testing","Stims/Figures/86-C-30-1.bmp","sahaza","Down","38","1","1","9","C2","C","1"
"","","approach-retreat","150","1125343","0.0-150.0","","","3-2","4564","38","0","Testing","Stims/Figures/102-C-20-4.bmp","za:haza","Up","40","1","2","9","C2","C","2"
"","","approach-retreat","151","1131095","0.0-151.0","","","3-2","4244","39","1","Testing","Stims/Figures/87-C-20-4.bmp","sa:saha","Left","39","1","3","9","C2","C","3"
"","","approach-retreat","152","1136846","0.0-152.0","","","3-2","4242","37","1","Testing","Stims/Figures/118-C-20-2.bmp","nalala","Right","37","1","4","9","S","C","4"
"","","approach-retreat","153","1144647","0.0-153.0","","","3-2","6294","40","1","Testing","Stims/Figures/85-C-20-2.bmp","vafa:va","Up","40","1","5","9","C1","C","5"
"","","approach-retreat","154","1150207","0.0-154.0","","","3-2","4052","39","0","Testing","Stims/Figures/71-C-30-1.bmp","sasaha","Right","37","1","6","9","C2","C","6"
"","","approach-retreat","155","1155882","0.0-155.0","","","3-2","4166","37","1","Testing","Stims/Figures/44-J-10-3.bmp","fafa:sha","Left","37","1","7","9","C1","C","7"
"","","approach-retreat","156","1161427","0.0-156.0","","","3-2","4038","39","1","Testing","Stims/Figures/118-J-0-2.bmp","namala","Right","39","1","8","9","S","C","8"
"","","approach-retreat","157","1167092","0.0-157.0","","","3-2","4159","37","1","Testing","Stims/Figures/85-J-0-2.bmp","malala","Left","37","1","9","9","S","C","9"
"","","approach-retreat","158","1172493","0.0-158.0","","","3-2","3891","37","1","Testing","Stims/Figures/84-C-20-2.bmp","sa:sa:ha","Right","37","1","10","9","C2","C","10"
"","","approach-retreat","159","1178160","0.0-159.0","","","3-2","4159","38","1","Testing","Stims/Figures/74-J-10-4.bmp","na:mala","Up","38","1","11","9","S","C","11"
"","","approach-retreat","160","1183796","0.0-160.0","","","3-2","4126","40","1","Testing","Stims/Figures/86-J-0-1.bmp","nama:la","Down","40","1","12","9","S","C","12"
"","","approach-retreat","161","1189270","0.0-161.0","","","3-2","3967","38","1","Testing","Stims/Figures/87-J-10-4.bmp","va:fa:sha","Up","38","1","13","9","C1","C","13"
"","","approach-retreat","162","1194859","0.0-162.0","","","3-2","4080","38","1","Testing","Stims/Figures/71-J-0-1.bmp","ta:pata","Up","38","1","14","9","P","C","14"
"","","approach-retreat","163","1200426","0.0-163.0","","","3-2","4060","39","1","Testing","Stims/Figures/111-C-30-3.bmp","paka:ta","Left","39","1","15","9","P","C","15"
"","","approach-retreat","164","1206110","0.0-164.0","","","3-2","4176","38","0","Testing","Stims/Figures/102-J-10-4.bmp","pa:pata","Down","40","1","16","9","P","C","16"
"","","approach-retreat","165","1211665","0.0-165.0","","","3-2","4046","38","1","Testing","Stims/Figures/128-J-10-3.bmp","ta:kaka","Up","38","1","17","9","P","C","17"
"","","approach-retreat","166","1218798","0.0-166.0","","","3-2","5626","37","0","Testing","Stims/Figures/128-C-30-3.bmp","pa:ka:ka","Left","39","1","18","9","P","C","18"
"","","approach-retreat","167","1224775","0.0-167.0","","","3-2","4469","40","1","Testing","Stims/Figures/111-J-10-3.bmp","tapa:ka","Down","40","1","19","9","P","C","19"
"","","approach-retreat","168","1230424","0.0-168.0","","","3-2","4143","39","0","Testing","Stims/Figures/44-C-30-3.bmp","taka:ka","Right","37","1","20","9","P","C","20"
"","","approach-retreat","169","1236013","0.0-169.0","","","3-2","4080","39","1","Testing","Stims/Figures/27-C-30-1.bmp","mamala","Left","39","1","21","9","S","C","21"
"","","approach-retreat","170","1241491","0.0-170.0","","","3-2","3970","40","0","Testing","Stims/Figures/74-C-20-4.bmp","ma:lana","Down","38","1","22","9","S","C","22"
"","","approach-retreat","171","1247072","0.0-171.0","","","3-2","4074","40","1","Testing","Stims/Figures/27-J-0-1.bmp","fafava","Down","40","1","23","9","C1","C","23"
"","","approach-retreat","172","1252551","0.0-172.0","","","3-2","3972","39","1","Testing","Stims/Figures/84-J-0-2.bmp","fashasha","Right","39","1","24","9","C1","C","24"
"","","approach-retreat","173","1258531","0.0-173.0","","","3-2","4471","37","1","Testing","Stims/Figures/86-C-30-1.bmp","sahaza","Right","37","2","1","9","C2","C","25"
"","","approach-retreat","174","1264023","0.0-174.0","","","3-2","3984","40","1","Testing","Stims/Figures/118-J-0-2.bmp","namala","Down","40","2","2","9","S","C","26"
"","","approach-retreat","175","1269697","0.0-175.0","","","3-2","4166","40","1","Testing","Stims/Figures/74-C-20-4.bmp","ma:lana","Up","40","2","3","9","S","C","27"
"","","approach-retreat","176","1275317","0.0-176.0","","","3-2","4111","38","1","Testing","Stims/Figures/111-J-10-3.bmp","tapa:ka","Up","38","2","4","9","P","C","28"
"","","approach-retreat","177","1281024","0.0-177.0","","","3-2","4199","38","1","Testing","Stims/Figures/118-C-20-2.bmp","nalala","Down","38","2","5","9","S","C","29"
"","","approach-retreat","178","1286594","0.0-178.0","","","3-2","4064","40","0","Testing","Stims/Figures/44-J-10-3.bmp","fafa:sha","Up","38","2","6","9","C1","C","30"
"","","approach-retreat","179","1297220","0.0-179.0","","","3-2","9116","40","0","Testing","Stims/Figures/102-J-10-4.bmp","pa:pata","Up","38","2","7","9","P","C","31"
"","","approach-retreat","180","1303218","0.0-180.0","","","3-2","4489","39","1","Testing","Stims/Figures/71-C-30-1.bmp","sasaha","Left","39","2","8","9","C2","C","32"
"","","approach-retreat","181","1308976","0.0-181.0","","","3-2","4250","39","0","Testing","Stims/Figures/87-C-20-4.bmp","sa:saha","Right","37","2","9","9","C2","C","33"
"","","approach-retreat","182","1314541","0.0-182.0","","","3-2","4056","39","1","Testing","Stims/Figures/27-J-0-1.bmp","fafava","Right","39","2","10","9","C1","C","34"
"","","approach-retreat","183","1320036","0.0-183.0","","","3-2","3986","39","0","Testing","Stims/Figures/128-C-30-3.bmp","pa:ka:ka","Right","37","2","11","9","P","C","35"
"","","approach-retreat","184","1325392","0.0-184.0","","","3-2","3850","37","1","Testing","Stims/Figures/128-J-10-3.bmp","ta:kaka","Left","37","2","12","9","P","C","36"
"","","approach-retreat","185","1330943","0.0-185.0","","","3-2","4041","40","1","Testing","Stims/Figures/27-C-30-1.bmp","mamala","Up","40","2","13","9","S","C","37"
"","","approach-retreat","186","1336416","0.0-186.0","","","3-2","3965","39","1","Testing","Stims/Figures/84-C-20-2.bmp","sa:sa:ha","Left","39","2","14","9","C2","C","38"
"","","approach-retreat","187","1342345","0.0-187.0","","","3-2","4423","39","1","Testing","Stims/Figures/85-J-0-2.bmp","malala","Right","39","2","15","9","S","C","39"
"","","approach-retreat","188","1348705","0.0-188.0","","","3-2","4854","38","1","Testing","Stims/Figures/85-C-20-2.bmp","vafa:va","Down","38","2","16","9","C1","C","40"
"","","approach-retreat","189","1354894","0.0-189.0","","","3-2","4680","38","0","Testing","Stims/Figures/102-C-20-4.bmp","za:haza","Up","40","2","17","9","C2","C","41"
"","","approach-retreat","190","1360492","0.0-190.0","","","3-2","4091","37","1","Testing","Stims/Figures/86-J-0-1.bmp","nama:la","Left","37","2","18","9","S","C","42"
"","","approach-retreat","191","1366011","0.0-191.0","","","3-2","4011","39","1","Testing","Stims/Figures/74-J-10-4.bmp","na:mala","Right","39","2","19","9","S","C","43"
"","","approach-retreat","192","1371741","0.0-192.0","","","3-2","4224","40","1","Testing","Stims/Figures/84-J-0-2.bmp","fashasha","Down","40","2","20","9","C1","C","44"
"","","approach-retreat","193","1377419","0.0-193.0","","","3-2","4170","40","1","Testing","Stims/Figures/71-J-0-1.bmp","ta:pata","Down","40","2","21","9","P","C","45"
"","","approach-retreat","194","1382882","0.0-194.0","","","3-2","3956","38","1","Testing","Stims/Figures/111-C-30-3.bmp","paka:ta","Down","38","2","22","9","P","C","46"
"","","approach-retreat","195","1388663","0.0-195.0","","","3-2","4273","39","1","Testing","Stims/Figures/44-C-30-3.bmp","taka:ka","Left","39","2","23","9","P","C","47"
"","","approach-retreat","196","1398955","0.0-196.0","","","3-2","8784","37","1","Testing","Stims/Figures/87-J-10-4.bmp","va:fa:sha","Left","37","2","24","9","C1","C","48"
"","","approach-retreat","197","1404432","0.0-197.0","","","3-2","3968","40","0","Testing","Stims/Figures/118-C-20-2.bmp","nalala","Down","38","3","1","9","S","C","49"
"","","approach-retreat","198","1410394","0.0-198.0","","","3-2","4454","38","0","Testing","Stims/Figures/102-C-20-4.bmp","za:haza","Up","40","3","2","9","C2","C","50"
"","","approach-retreat","199","1416031","0.0-199.0","","","3-2","4130","40","1","Testing","Stims/Figures/111-J-10-3.bmp","tapa:ka","Down","40","3","3","9","P","C","51"
"","","approach-retreat","200","1421635","0.0-200.0","","","3-2","4098","38","1","Testing","Stims/Figures/118-J-0-2.bmp","namala","Up","38","3","4","9","S","C","52"
"","","approach-retreat","201","1427210","0.0-201.0","","","3-2","4066","37","0","Testing","Stims/Figures/74-C-20-4.bmp","ma:lana","Left","39","3","5","9","S","C","53"
"","","approach-retreat","202","1432793","0.0-202.0","","","3-2","4074","38","1","Testing","Stims/Figures/44-C-30-3.bmp","taka:ka","Down","38","3","6","9","P","C","54"
"","","approach-retreat","203","1439562","0.0-203.0","","","3-2","5262","37","1","Testing","Stims/Figures/84-C-20-2.bmp","sa:sa:ha","Right","37","3","7","9","C2","C","55"
"","","approach-retreat","204","1445246","0.0-204.0","","","3-2","4176","38","1","Testing","Stims/Figures/27-J-0-1.bmp","fafava","Up","38","3","8","9","C1","C","56"
"","","approach-retreat","205","1450854","0.0-205.0","","","3-2","4100","37","1","Testing","Stims/Figures/84-J-0-2.bmp","fashasha","Left","37","3","9","9","C1","C","57"
"","","approach-retreat","206","1456342","0.0-206.0","","","3-2","3980","40","1","Testing","Stims/Figures/71-C-30-1.bmp","sasaha","Up","40","3","10","9","C2","C","58"
"","","approach-retreat","207","1462094","0.0-207.0","","","3-2","4243","39","1","Testing","Stims/Figures/86-J-0-1.bmp","nama:la","Right","39","3","11","9","S","C","59"
"","","approach-retreat","208","1467567","0.0-208.0","","","3-2","3966","38","1","Testing","Stims/Figures/27-C-30-1.bmp","mamala","Down","38","3","12","9","S","C","60"
"","","approach-retreat","209","1473022","0.0-209.0","","","3-2","3947","37","1","Testing","Stims/Figures/85-J-0-2.bmp","malala","Left","37","3","13","9","S","C","61"
"","","approach-retreat","210","1478536","0.0-210.0","","","3-2","4005","39","1","Testing","Stims/Figures/71-J-0-1.bmp","ta:pata","Right","39","3","14","9","P","C","62"
"","","approach-retreat","211","1484301","0.0-211.0","","","3-2","4256","38","0","Testing","Stims/Figures/102-J-10-4.bmp","pa:pata","Down","40","3","15","9","P","C","63"
"","","approach-retreat","212","1489668","0.0-212.0","","","3-2","3860","39","1","Testing","Stims/Figures/128-C-30-3.bmp","pa:ka:ka","Left","39","3","16","9","P","C","64"
"","","approach-retreat","213","1495220","0.0-213.0","","","3-2","4045","37","1","Testing","Stims/Figures/74-J-10-4.bmp","na:mala","Left","37","3","17","9","S","C","65"
"","","approach-retreat","214","1500828","0.0-214.0","","","3-2","4099","37","1","Testing","Stims/Figures/86-C-30-1.bmp","sahaza","Right","37","3","18","9","C2","C","66"
"","","approach-retreat","215","1506496","0.0-215.0","","","3-2","4161","37","1","Testing","Stims/Figures/87-J-10-4.bmp","va:fa:sha","Left","37","3","19","9","C1","C","67"
"","","approach-retreat","216","1512034","0.0-216.0","","","3-2","4029","38","1","Testing","Stims/Figures/85-C-20-2.bmp","vafa:va","Down","38","3","20","9","C1","C","68"
"","","approach-retreat","217","1517624","0.0-217.0","","","3-2","4083","40","1","Testing","Stims/Figures/111-C-30-3.bmp","paka:ta","Up","40","3","21","9","P","C","69"
"","","approach-retreat","218","1523084","0.0-218.0","","","3-2","3951","38","1","Testing","Stims/Figures/44-J-10-3.bmp","fafa:sha","Up","38","3","22","9","C1","C","70"
"","","approach-retreat","219","1528533","0.0-219.0","","","3-2","3942","39","0","Testing","Stims/Figures/87-C-20-4.bmp","sa:saha","Right","37","3","23","9","C2","C","71"
"","","approach-retreat","220","1534133","0.0-220.0","","","3-2","4091","39","1","Testing","Stims/Figures/128-J-10-3.bmp","ta:kaka","Right","39","3","24","9","P","C","72"
"","","approach-retreat","221","1544321","0.0-221.0","","","3-2","8679","37","1","Testing","Stims/Figures/86-C-30-1.bmp","sahaza","Right","37","4","1","9","C2","C","73"
"","","approach-retreat","222","1552992","0.0-222.0","","","3-2","7162","39","1","Testing","Stims/Figures/86-J-0-1.bmp","nama:la","Right","39","4","2","9","S","C","74"
"","","approach-retreat","223","1558618","0.0-223.0","","","3-2","4117","38","1","Testing","Stims/Figures/85-J-0-2.bmp","malala","Up","38","4","3","9","S","C","75"
"","","approach-retreat","224","1565934","0.0-224.0","","","3-2","5809","37","1","Testing","Stims/Figures/85-C-20-2.bmp","vafa:va","Right","37","4","4","9","C1","C","76"
"","","approach-retreat","225","1571488","0.0-225.0","","","3-2","4046","38","0","Testing","Stims/Figures/74-C-20-4.bmp","ma:lana","Up","40","4","5","9","S","C","77"
"","","approach-retreat","226","1577672","0.0-226.0","","","3-2","4677","37","1","Testing","Stims/Figures/118-C-20-2.bmp","nalala","Right","37","4","6","9","S","C","78"
"","","approach-retreat","227","1583194","0.0-227.0","","","3-2","4014","40","1","Testing","Stims/Figures/102-C-20-4.bmp","za:haza","Up","40","4","7","9","C2","C","79"
"","","approach-retreat","228","1589789","0.0-228.0","","","3-2","5088","38","1","Testing","Stims/Figures/84-C-20-2.bmp","sa:sa:ha","Down","38","4","8","9","C2","C","80"
"","","approach-retreat","229","1595364","0.0-229.0","","","3-2","4068","37","0","Testing","Stims/Figures/87-C-20-4.bmp","sa:saha","Left","39","4","9","9","C2","C","81"
"","","approach-retreat","230","1601945","0.0-230.0","","","3-2","5073","40","1","Testing","Stims/Figures/44-J-10-3.bmp","fafa:sha","Down","40","4","10","9","C1","C","82"
"","","approach-retreat","231","1608066","0.0-231.0","","","3-2","4614","40","0","Testing","Stims/Figures/128-C-30-3.bmp","pa:ka:ka","Down","38","4","11","9","P","C","83"
"","","approach-retreat","232","1613841","0.0-232.0","","","3-2","4266","40","1","Testing","Stims/Figures/111-J-10-3.bmp","tapa:ka","Down","40","4","12","9","P","C","84"
"","","approach-retreat","233","1619373","0.0-233.0","","","3-2","4025","37","1","Testing","Stims/Figures/118-J-0-2.bmp","namala","Left","37","4","13","9","S","C","85"
"","","approach-retreat","234","1624903","0.0-234.0","","","3-2","4022","37","1","Testing","Stims/Figures/71-J-0-1.bmp","ta:pata","Left","37","4","14","9","P","C","86"
"","","approach-retreat","235","1630712","0.0-235.0","","","3-2","4300","37","1","Testing","Stims/Figures/27-C-30-1.bmp","mamala","Right","37","4","15","9","S","C","87"
"","","approach-retreat","236","1636511","0.0-236.0","","","3-2","4291","40","0","Testing","Stims/Figures/71-C-30-1.bmp","sasaha","Down","38","4","16","9","C2","C","88"
"","","approach-retreat","237","1642070","0.0-237.0","","","3-2","4049","38","1","Testing","Stims/Figures/27-J-0-1.bmp","fafava","Up","38","4","17","9","C1","C","89"
"","","approach-retreat","238","1647618","0.0-238.0","","","3-2","4041","37","1","Testing","Stims/Figures/87-J-10-4.bmp","va:fa:sha","Left","37","4","18","9","C1","C","90"
"","","approach-retreat","239","1653368","0.0-239.0","","","3-2","4242","40","1","Testing","Stims/Figures/74-J-10-4.bmp","na:mala","Down","40","4","19","9","S","C","91"
"","","approach-retreat","240","1658943","0.0-240.0","","","3-2","4068","37","1","Testing","Stims/Figures/128-J-10-3.bmp","ta:kaka","Left","37","4","20","9","P","C","92"
"","","approach-retreat","241","1664522","0.0-241.0","","","3-2","4070","37","1","Testing","Stims/Figures/111-C-30-3.bmp","paka:ta","Right","37","4","21","9","P","C","93"
"","","approach-retreat","242","1670100","0.0-242.0","","","3-2","4069","38","1","Testing","Stims/Figures/84-J-0-2.bmp","fashasha","Up","38","4","22","9","C1","C","94"
"","","approach-retreat","243","1676312","0.0-243.0","","","3-2","4704","39","1","Testing","Stims/Figures/44-C-30-3.bmp","taka:ka","Left","39","4","23","9","P","C","95"
"","","approach-retreat","244","1682376","0.0-244.0","","","3-2","4558","40","0","Testing","Stims/Figures/102-J-10-4.bmp","pa:pata","Up","38","4","24","9","P","C","96"
"28881","","survey-text","245","1711263","0.0-245.0","","{""Q0"":""1018/2018""}","","","","","","","","","","","","","","",""
