"rt","key_press","trial_type","trial_index","time_elapsed","internal_node_id","view_history","responses","Id","Rt","ResKeyCode","ResCorr","TrialType2","Image","Label","Location","CorrectResponse","Block","BlockTrial","Condition","LabelType","Subcondition","trialNum"
"84999","32","text","0","85001","0.0-0.0-0.0","","","","","","","","","","","","","","","","",""
"352097","","instructions","1","437114","0.0-1.0","[{""page_index"":0,""viewing_time"":352097}]","","","","","","","","","","","","","","","",""
"158608","","survey-multi-choice","2","595783","0.0-2.0","","{""Q0"":""Da"",""Q1"":""Da"",""Q2"":""Da"",""Q3"":""Ne"",""Q4"":""Da"",""Q5"":""Da""}","","","","","","","","","","","","","","",""
"","","bio","3","604249","0.0-3.0","","{""age"":""19"",""gender"":""f"",""specify"":""""}","","","","","","","","","","","","","","",""
"","","approach-retreat","4","640041","0.0-4.0","","","2-3","34270","38","0","Training","Stims/Figures/85-C-20-2.bmp","fa:sha:va","Up","40","1","1","8","C1","C","1"
"","","approach-retreat","5","650037","0.0-5.0","","","2-3","8489","37","1","Training","Stims/Figures/111-C-30-3.bmp","zasa:ha","Right","37","1","2","8","C2","C","2"
"","","approach-retreat","6","662120","0.0-6.0","","","2-3","10569","37","0","Training","Stims/Figures/71-C-30-1.bmp","fafasha","Left","39","1","3","8","C1","C","3"
"","","approach-retreat","7","671572","0.0-7.0","","","2-3","7942","40","0","Training","Stims/Figures/19-C-20-4.bmp","za:ha:za","Down","38","1","4","8","C2","C","4"
"","","approach-retreat","8","680938","0.0-8.0","","","2-3","7854","39","1","Training","Stims/Figures/139-C-20-2.bmp","fafa:va","Left","39","1","5","8","C1","C","5"
"","","approach-retreat","9","689154","0.0-9.0","","","2-3","6704","38","0","Training","Stims/Figures/74-C-20-4.bmp","sa:ha:ha","Up","40","1","6","8","C2","C","6"
"","","approach-retreat","10","703098","0.0-10.0","","","2-3","12430","40","1","Training","Stims/Figures/85-J-0-2.bmp","fa:fa:sha","Down","40","1","7","8","C1","C","7"
"","","approach-retreat","11","715605","0.0-11.0","","","2-3","10995","38","1","Training","Stims/Figures/44-C-30-3.bmp","saha:ha","Down","38","1","8","8","C2","C","8"
"","","approach-retreat","12","723915","0.0-12.0","","","2-3","6799","39","0","Training","Stims/Figures/139-J-0-2.bmp","fa:fa:va","Left","37","1","9","8","C1","C","9"
"","","approach-retreat","13","731134","0.0-13.0","","","2-3","5711","40","0","Training","Stims/Figures/86-J-0-1.bmp","va:sha:va","Up","38","1","10","8","C1","C","10"
"","","approach-retreat","14","737883","0.0-14.0","","","2-3","5248","37","1","Training","Stims/Figures/44-J-10-3.bmp","sa:saza","Left","37","1","11","8","C2","C","11"
"","","approach-retreat","15","744935","0.0-15.0","","","2-3","5547","37","0","Training","Stims/Figures/74-J-10-4.bmp","za:sa:ha","Right","39","1","12","8","C2","C","12"
"","","approach-retreat","16","751162","0.0-16.0","","","2-3","4719","38","0","Training","Stims/Figures/111-J-10-3.bmp","zasaza","Down","40","1","13","8","C2","C","13"
"","","approach-retreat","17","756930","0.0-17.0","","","2-3","4236","37","0","Training","Stims/Figures/19-J-10-4.bmp","sasaha","Right","39","1","14","8","C2","C","14"
"","","approach-retreat","18","765979","0.0-18.0","","","2-3","7540","37","0","Training","Stims/Figures/71-J-0-1.bmp","vashasha","Right","39","1","15","8","C1","C","15"
"","","approach-retreat","19","772147","0.0-19.0","","","2-3","4668","38","0","Training","Stims/Figures/86-C-30-1.bmp","vasha:va","Up","40","1","16","8","C1","C","16"
"","","approach-retreat","20","778480","0.0-20.0","","","2-3","4831","37","0","Training","Stims/Figures/111-J-10-3.bmp","zasaza","Right","39","2","1","8","C2","C","17"
"","","approach-retreat","21","785983","0.0-21.0","","","2-3","5993","38","0","Training","Stims/Figures/19-C-20-4.bmp","za:ha:za","Up","40","2","2","8","C2","C","18"
"","","approach-retreat","22","792089","0.0-22.0","","","2-3","4593","39","1","Training","Stims/Figures/111-C-30-3.bmp","zasa:ha","Left","39","2","3","8","C2","C","19"
"","","approach-retreat","23","798017","0.0-23.0","","","2-3","4420","39","1","Training","Stims/Figures/44-C-30-3.bmp","saha:ha","Left","39","2","4","8","C2","C","20"
"","","approach-retreat","24","804110","0.0-24.0","","","2-3","4582","38","0","Training","Stims/Figures/85-J-0-2.bmp","fa:fa:sha","Down","40","2","5","8","C1","C","21"
"","","approach-retreat","25","809977","0.0-25.0","","","2-3","4358","37","1","Training","Stims/Figures/85-C-20-2.bmp","fa:sha:va","Right","37","2","6","8","C1","C","22"
"","","approach-retreat","26","821240","0.0-26.0","","","2-3","9761","38","1","Training","Stims/Figures/139-C-20-2.bmp","fafa:va","Down","38","2","7","8","C1","C","23"
"","","approach-retreat","27","826943","0.0-27.0","","","2-3","4191","38","0","Training","Stims/Figures/71-J-0-1.bmp","vashasha","Down","40","2","8","8","C1","C","24"
"","","approach-retreat","28","833005","0.0-28.0","","","2-3","4549","39","0","Training","Stims/Figures/139-J-0-2.bmp","fa:fa:va","Left","37","2","9","8","C1","C","25"
"","","approach-retreat","29","838574","0.0-29.0","","","2-3","4059","37","0","Training","Stims/Figures/19-J-10-4.bmp","sasaha","Right","39","2","10","8","C2","C","26"
"","","approach-retreat","30","844238","0.0-30.0","","","2-3","4151","39","0","Training","Stims/Figures/44-J-10-3.bmp","sa:saza","Left","37","2","11","8","C2","C","27"
"","","approach-retreat","31","850641","0.0-31.0","","","2-3","4890","38","0","Training","Stims/Figures/86-J-0-1.bmp","va:sha:va","Down","40","2","12","8","C1","C","28"
"","","approach-retreat","32","856626","0.0-32.0","","","2-3","4472","40","0","Training","Stims/Figures/74-J-10-4.bmp","za:sa:ha","Up","38","2","13","8","C2","C","29"
"","","approach-retreat","33","862613","0.0-33.0","","","2-3","4473","37","1","Training","Stims/Figures/71-C-30-1.bmp","fafasha","Right","37","2","14","8","C1","C","30"
"","","approach-retreat","34","869093","0.0-34.0","","","2-3","4977","40","1","Training","Stims/Figures/86-C-30-1.bmp","vasha:va","Up","40","2","15","8","C1","C","31"
"","","approach-retreat","35","874967","0.0-35.0","","","2-3","4362","40","1","Training","Stims/Figures/74-C-20-4.bmp","sa:ha:ha","Up","40","2","16","8","C2","C","32"
"","","approach-retreat","36","881010","0.0-36.0","","","2-3","4541","38","1","Training","Stims/Figures/74-J-10-4.bmp","za:sa:ha","Up","38","3","1","8","C2","C","33"
"","","approach-retreat","37","886625","0.0-37.0","","","2-3","4099","37","0","Training","Stims/Figures/86-J-0-1.bmp","va:sha:va","Right","39","3","2","8","C1","C","34"
"","","approach-retreat","38","892259","0.0-38.0","","","2-3","4132","38","1","Training","Stims/Figures/19-C-20-4.bmp","za:ha:za","Down","38","3","3","8","C2","C","35"
"","","approach-retreat","39","897794","0.0-39.0","","","2-3","4024","37","1","Training","Stims/Figures/85-C-20-2.bmp","fa:sha:va","Right","37","3","4","8","C1","C","36"
"","","approach-retreat","40","903491","0.0-40.0","","","2-3","4193","37","0","Training","Stims/Figures/139-J-0-2.bmp","fa:fa:va","Right","39","3","5","8","C1","C","37"
"","","approach-retreat","41","908972","0.0-41.0","","","2-3","3936","38","1","Training","Stims/Figures/139-C-20-2.bmp","fafa:va","Down","38","3","6","8","C1","C","38"
"","","approach-retreat","42","915443","0.0-42.0","","","2-3","4970","38","1","Training","Stims/Figures/44-J-10-3.bmp","sa:saza","Up","38","3","7","8","C2","C","39"
"","","approach-retreat","43","921226","0.0-43.0","","","2-3","4264","38","0","Training","Stims/Figures/111-C-30-3.bmp","zasa:ha","Up","40","3","8","8","C2","C","40"
"","","approach-retreat","44","926861","0.0-44.0","","","2-3","4123","39","1","Training","Stims/Figures/44-C-30-3.bmp","saha:ha","Left","39","3","9","8","C2","C","41"
"","","approach-retreat","45","932910","0.0-45.0","","","2-3","4535","40","1","Training","Stims/Figures/71-C-30-1.bmp","fafasha","Up","40","3","10","8","C1","C","42"
"","","approach-retreat","46","938458","0.0-46.0","","","2-3","4035","37","0","Training","Stims/Figures/71-J-0-1.bmp","vashasha","Right","39","3","11","8","C1","C","43"
"","","approach-retreat","47","945158","0.0-47.0","","","2-3","5188","39","1","Training","Stims/Figures/74-C-20-4.bmp","sa:ha:ha","Left","39","3","12","8","C2","C","44"
"","","approach-retreat","48","950728","0.0-48.0","","","2-3","4039","39","0","Training","Stims/Figures/19-J-10-4.bmp","sasaha","Left","37","3","13","8","C2","C","45"
"","","approach-retreat","49","956408","0.0-49.0","","","2-3","4167","38","0","Training","Stims/Figures/85-J-0-2.bmp","fa:fa:sha","Down","40","3","14","8","C1","C","46"
"","","approach-retreat","50","962706","0.0-50.0","","","2-3","4783","40","1","Training","Stims/Figures/111-J-10-3.bmp","zasaza","Down","40","3","15","8","C2","C","47"
"","","approach-retreat","51","968956","0.0-51.0","","","2-3","4744","39","1","Training","Stims/Figures/86-C-30-1.bmp","vasha:va","Left","39","3","16","8","C1","C","48"
"","","approach-retreat","52","977503","0.0-52.0","","","2-3","7039","39","1","Training","Stims/Figures/86-C-30-1.bmp","vasha:va","Left","39","4","1","8","C1","C","49"
"","","approach-retreat","53","983403","0.0-53.0","","","2-3","4397","39","0","Training","Stims/Figures/139-J-0-2.bmp","fa:fa:va","Left","37","4","2","8","C1","C","50"
"","","approach-retreat","54","989269","0.0-54.0","","","2-3","4365","38","1","Training","Stims/Figures/86-J-0-1.bmp","va:sha:va","Up","38","4","3","8","C1","C","51"
"","","approach-retreat","55","995067","0.0-55.0","","","2-3","4283","37","0","Training","Stims/Figures/111-J-10-3.bmp","zasaza","Right","39","4","4","8","C2","C","52"
"","","approach-retreat","56","1002963","0.0-56.0","","","2-3","6390","38","0","Training","Stims/Figures/19-C-20-4.bmp","za:ha:za","Up","40","4","5","8","C2","C","53"
"","","approach-retreat","57","1008463","0.0-57.0","","","2-3","3999","38","0","Training","Stims/Figures/44-J-10-3.bmp","sa:saza","Down","40","4","6","8","C2","C","54"
"","","approach-retreat","58","1014620","0.0-58.0","","","2-3","4652","40","1","Training","Stims/Figures/111-C-30-3.bmp","zasa:ha","Up","40","4","7","8","C2","C","55"
"","","approach-retreat","59","1023066","0.0-59.0","","","2-3","6933","38","1","Training","Stims/Figures/44-C-30-3.bmp","saha:ha","Down","38","4","8","8","C2","C","56"
"","","approach-retreat","60","1029201","0.0-60.0","","","2-3","4620","37","0","Training","Stims/Figures/85-J-0-2.bmp","fa:fa:sha","Right","39","4","9","8","C1","C","57"
"","","approach-retreat","61","1034781","0.0-61.0","","","2-3","4074","38","1","Training","Stims/Figures/85-C-20-2.bmp","fa:sha:va","Down","38","4","10","8","C1","C","58"
"","","approach-retreat","62","1040357","0.0-62.0","","","2-3","4073","37","0","Training","Stims/Figures/71-J-0-1.bmp","vashasha","Right","39","4","11","8","C1","C","59"
"","","approach-retreat","63","1046052","0.0-63.0","","","2-3","4195","38","1","Training","Stims/Figures/139-C-20-2.bmp","fafa:va","Down","38","4","12","8","C1","C","60"
"","","approach-retreat","64","1052298","0.0-64.0","","","2-3","4739","40","1","Training","Stims/Figures/74-C-20-4.bmp","sa:ha:ha","Up","40","4","13","8","C2","C","61"
"","","approach-retreat","65","1057906","0.0-65.0","","","2-3","4097","39","0","Training","Stims/Figures/19-J-10-4.bmp","sasaha","Left","37","4","14","8","C2","C","62"
"","","approach-retreat","66","1063484","0.0-66.0","","","2-3","4073","39","0","Training","Stims/Figures/74-J-10-4.bmp","za:sa:ha","Left","37","4","15","8","C2","C","63"
"","","approach-retreat","67","1068977","0.0-67.0","","","2-3","3987","37","1","Training","Stims/Figures/71-C-30-1.bmp","fafasha","Right","37","4","16","8","C1","C","64"
"","","approach-retreat","68","1075368","0.0-68.0","","","2-3","4887","40","1","Training","Stims/Figures/111-C-30-3.bmp","zasa:ha","Up","40","5","1","8","C2","C","65"
"","","approach-retreat","69","1081580","0.0-69.0","","","2-3","4706","40","0","Training","Stims/Figures/111-J-10-3.bmp","zasaza","Up","38","5","2","8","C2","C","66"
"","","approach-retreat","70","1087308","0.0-70.0","","","2-3","4223","39","1","Training","Stims/Figures/74-C-20-4.bmp","sa:ha:ha","Left","39","5","3","8","C2","C","67"
"","","approach-retreat","71","1092777","0.0-71.0","","","2-3","3962","37","0","Training","Stims/Figures/139-J-0-2.bmp","fa:fa:va","Right","39","5","4","8","C1","C","68"
"","","approach-retreat","72","1100125","0.0-72.0","","","2-3","5842","39","1","Training","Stims/Figures/44-C-30-3.bmp","saha:ha","Left","39","5","5","8","C2","C","69"
"","","approach-retreat","73","1106310","0.0-73.0","","","2-3","4683","39","1","Training","Stims/Figures/139-C-20-2.bmp","fafa:va","Left","39","5","6","8","C1","C","70"
"","","approach-retreat","74","1113175","0.0-74.0","","","2-3","5361","38","0","Training","Stims/Figures/74-J-10-4.bmp","za:sa:ha","Down","40","5","7","8","C2","C","71"
"","","approach-retreat","75","1120539","0.0-75.0","","","2-3","5849","37","0","Training","Stims/Figures/44-J-10-3.bmp","sa:saza","Right","39","5","8","8","C2","C","72"
"","","approach-retreat","76","1126808","0.0-76.0","","","2-3","4763","38","1","Training","Stims/Figures/85-J-0-2.bmp","fa:fa:sha","Up","38","5","9","8","C1","C","73"
"","","approach-retreat","77","1132623","0.0-77.0","","","2-3","4303","38","1","Training","Stims/Figures/86-J-0-1.bmp","va:sha:va","Up","38","5","10","8","C1","C","74"
"","","approach-retreat","78","1138941","0.0-78.0","","","2-3","4816","38","0","Training","Stims/Figures/71-J-0-1.bmp","vashasha","Down","40","5","11","8","C1","C","75"
"","","approach-retreat","79","1147007","0.0-79.0","","","2-3","6565","37","1","Training","Stims/Figures/71-C-30-1.bmp","fafasha","Right","37","5","12","8","C1","C","76"
"","","approach-retreat","80","1152671","0.0-80.0","","","2-3","4164","37","1","Training","Stims/Figures/86-C-30-1.bmp","vasha:va","Right","37","5","13","8","C1","C","77"
"","","approach-retreat","81","1158551","0.0-81.0","","","2-3","4372","38","1","Training","Stims/Figures/85-C-20-2.bmp","fa:sha:va","Down","38","5","14","8","C1","C","78"
"","","approach-retreat","82","1164754","0.0-82.0","","","2-3","4703","38","1","Training","Stims/Figures/19-C-20-4.bmp","za:ha:za","Down","38","5","15","8","C2","C","79"
"","","approach-retreat","83","1170541","0.0-83.0","","","2-3","4278","39","0","Training","Stims/Figures/19-J-10-4.bmp","sasaha","Left","37","5","16","8","C2","C","80"
"","","approach-retreat","84","1176437","0.0-84.0","","","2-3","4348","38","1","Training","Stims/Figures/44-C-30-3.bmp","saha:ha","Down","38","6","1","8","C2","C","81"
"","","approach-retreat","85","1182188","0.0-85.0","","","2-3","4240","40","0","Training","Stims/Figures/86-J-0-1.bmp","va:sha:va","Up","38","6","2","8","C1","C","82"
"","","approach-retreat","86","1187948","0.0-86.0","","","2-3","4254","37","0","Training","Stims/Figures/74-J-10-4.bmp","za:sa:ha","Right","39","6","3","8","C2","C","83"
"","","approach-retreat","87","1193552","0.0-87.0","","","2-3","4091","39","0","Training","Stims/Figures/44-J-10-3.bmp","sa:saza","Left","37","6","4","8","C2","C","84"
"","","approach-retreat","88","1199086","0.0-88.0","","","2-3","4034","39","1","Training","Stims/Figures/111-C-30-3.bmp","zasa:ha","Left","39","6","5","8","C2","C","85"
"","","approach-retreat","89","1204771","0.0-89.0","","","2-3","4178","38","1","Training","Stims/Figures/85-C-20-2.bmp","fa:sha:va","Down","38","6","6","8","C1","C","86"
"","","approach-retreat","90","1210349","0.0-90.0","","","2-3","4072","38","0","Training","Stims/Figures/71-J-0-1.bmp","vashasha","Down","40","6","7","8","C1","C","87"
"","","approach-retreat","91","1216657","0.0-91.0","","","2-3","4791","38","0","Training","Stims/Figures/139-C-20-2.bmp","fafa:va","Up","40","6","8","8","C1","C","88"
"","","approach-retreat","92","1222707","0.0-92.0","","","2-3","4542","40","1","Training","Stims/Figures/86-C-30-1.bmp","vasha:va","Up","40","6","9","8","C1","C","89"
"","","approach-retreat","93","1228805","0.0-93.0","","","2-3","4593","37","0","Training","Stims/Figures/19-J-10-4.bmp","sasaha","Right","39","6","10","8","C2","C","90"
"","","approach-retreat","94","1234586","0.0-94.0","","","2-3","4268","39","1","Training","Stims/Figures/74-C-20-4.bmp","sa:ha:ha","Left","39","6","11","8","C2","C","91"
"","","approach-retreat","95","1240683","0.0-95.0","","","2-3","4596","37","0","Training","Stims/Figures/85-J-0-2.bmp","fa:fa:sha","Right","39","6","12","8","C1","C","92"
"","","approach-retreat","96","1246631","0.0-96.0","","","2-3","4442","38","1","Training","Stims/Figures/111-J-10-3.bmp","zasaza","Up","38","6","13","8","C2","C","93"
"","","approach-retreat","97","1252302","0.0-97.0","","","2-3","4159","39","1","Training","Stims/Figures/71-C-30-1.bmp","fafasha","Left","39","6","14","8","C1","C","94"
"","","approach-retreat","98","1258421","0.0-98.0","","","2-3","4607","37","1","Training","Stims/Figures/19-C-20-4.bmp","za:ha:za","Right","37","6","15","8","C2","C","95"
"","","approach-retreat","99","1264870","0.0-99.0","","","2-3","4947","38","0","Training","Stims/Figures/139-J-0-2.bmp","fa:fa:va","Down","40","6","16","8","C1","C","96"
"","","approach-retreat","100","1271377","0.0-100.0","","","2-3","5006","38","1","Training","Stims/Figures/71-J-0-1.bmp","vashasha","Up","38","7","1","8","C1","C","97"
"","","approach-retreat","101","1279003","0.0-101.0","","","2-3","6116","38","1","Training","Stims/Figures/44-C-30-3.bmp","saha:ha","Down","38","7","2","8","C2","C","98"
"","","approach-retreat","102","1286883","0.0-102.0","","","2-3","6369","38","0","Training","Stims/Figures/19-C-20-4.bmp","za:ha:za","Up","40","7","3","8","C2","C","99"
"","","approach-retreat","103","1292752","0.0-103.0","","","2-3","4362","37","1","Training","Stims/Figures/71-C-30-1.bmp","fafasha","Right","37","7","4","8","C1","C","100"
"","","approach-retreat","104","1298712","0.0-104.0","","","2-3","4451","37","1","Training","Stims/Figures/139-C-20-2.bmp","fafa:va","Right","37","7","5","8","C1","C","101"
"","","approach-retreat","105","1311486","0.0-105.0","","","2-3","11263","37","0","Training","Stims/Figures/111-J-10-3.bmp","zasaza","Right","39","7","6","8","C2","C","102"
"","","approach-retreat","106","1319404","0.0-106.0","","","2-3","6406","39","0","Training","Stims/Figures/19-J-10-4.bmp","sasaha","Left","37","7","7","8","C2","C","103"
"","","approach-retreat","107","1326389","0.0-107.0","","","2-3","5470","39","1","Training","Stims/Figures/111-C-30-3.bmp","zasa:ha","Left","39","7","8","8","C2","C","104"
"","","approach-retreat","108","1336676","0.0-108.0","","","2-3","8784","38","1","Training","Stims/Figures/86-C-30-1.bmp","vasha:va","Down","38","7","9","8","C1","C","105"
"","","approach-retreat","109","1343091","0.0-109.0","","","2-3","4911","40","0","Training","Stims/Figures/86-J-0-1.bmp","va:sha:va","Up","38","7","10","8","C1","C","106"
"","","approach-retreat","110","1353906","0.0-110.0","","","2-3","9311","37","0","Training","Stims/Figures/85-J-0-2.bmp","fa:fa:sha","Right","39","7","11","8","C1","C","107"
"","","approach-retreat","111","1362455","0.0-111.0","","","2-3","7034","39","0","Training","Stims/Figures/74-J-10-4.bmp","za:sa:ha","Left","37","7","12","8","C2","C","108"
"","","approach-retreat","112","1368906","0.0-112.0","","","2-3","4946","38","0","Training","Stims/Figures/139-J-0-2.bmp","fa:fa:va","Down","40","7","13","8","C1","C","109"
"","","approach-retreat","113","1376650","0.0-113.0","","","2-3","6231","40","0","Training","Stims/Figures/44-J-10-3.bmp","sa:saza","Up","38","7","14","8","C2","C","110"
"","","approach-retreat","114","1382407","0.0-114.0","","","2-3","4250","38","1","Training","Stims/Figures/85-C-20-2.bmp","fa:sha:va","Down","38","7","15","8","C1","C","111"
"","","approach-retreat","115","1390418","0.0-115.0","","","2-3","6497","39","1","Training","Stims/Figures/74-C-20-4.bmp","sa:ha:ha","Left","39","7","16","8","C2","C","112"
"","","approach-retreat","116","1396031","0.0-116.0","","","2-3","4107","37","1","Training","Stims/Figures/139-C-20-2.bmp","fafa:va","Right","37","8","1","8","C1","C","113"
"","","approach-retreat","117","1401637","0.0-117.0","","","2-3","4105","38","0","Training","Stims/Figures/71-J-0-1.bmp","vashasha","Down","40","8","2","8","C1","C","114"
"","","approach-retreat","118","1407486","0.0-118.0","","","2-3","4335","39","1","Training","Stims/Figures/85-C-20-2.bmp","fa:sha:va","Left","39","8","3","8","C1","C","115"
"","","approach-retreat","119","1413205","0.0-119.0","","","2-3","4209","38","1","Training","Stims/Figures/71-C-30-1.bmp","fafasha","Down","38","8","4","8","C1","C","116"
"","","approach-retreat","120","1418753","0.0-120.0","","","2-3","4035","38","1","Training","Stims/Figures/74-C-20-4.bmp","sa:ha:ha","Down","38","8","5","8","C2","C","117"
"","","approach-retreat","121","1424503","0.0-121.0","","","2-3","4239","40","1","Training","Stims/Figures/86-J-0-1.bmp","va:sha:va","Down","40","8","6","8","C1","C","118"
"","","approach-retreat","122","1430433","0.0-122.0","","","2-3","4417","39","1","Training","Stims/Figures/86-C-30-1.bmp","vasha:va","Left","39","8","7","8","C1","C","119"
"","","approach-retreat","123","1436103","0.0-123.0","","","2-3","4162","37","0","Training","Stims/Figures/85-J-0-2.bmp","fa:fa:sha","Right","39","8","8","8","C1","C","120"
"","","approach-retreat","124","1441841","0.0-124.0","","","2-3","4237","38","1","Training","Stims/Figures/111-J-10-3.bmp","zasaza","Up","38","8","9","8","C2","C","121"
"","","approach-retreat","125","1447449","0.0-125.0","","","2-3","4109","37","0","Training","Stims/Figures/139-J-0-2.bmp","fa:fa:va","Right","39","8","10","8","C1","C","122"
"","","approach-retreat","126","1454599","0.0-126.0","","","2-3","5647","39","0","Training","Stims/Figures/111-C-30-3.bmp","zasa:ha","Right","37","8","11","8","C2","C","123"
"","","approach-retreat","127","1460801","0.0-127.0","","","2-3","4695","40","1","Training","Stims/Figures/19-C-20-4.bmp","za:ha:za","Up","40","8","12","8","C2","C","124"
"","","approach-retreat","128","1466981","0.0-128.0","","","2-3","4678","38","0","Training","Stims/Figures/44-C-30-3.bmp","saha:ha","Up","40","8","13","8","C2","C","125"
"","","approach-retreat","129","1476379","0.0-129.0","","","2-3","7887","38","1","Training","Stims/Figures/44-J-10-3.bmp","sa:saza","Up","38","8","14","8","C2","C","126"
"","","approach-retreat","130","1487651","0.0-130.0","","","2-3","9739","37","1","Training","Stims/Figures/19-J-10-4.bmp","sasaha","Left","37","8","15","8","C2","C","127"
"","","approach-retreat","131","1495703","0.0-131.0","","","2-3","6518","39","0","Training","Stims/Figures/74-J-10-4.bmp","za:sa:ha","Left","37","8","16","8","C2","C","128"
"","","approach-retreat","132","1501347","0.0-132.0","","","2-3","4139","37","1","Training","Stims/Figures/71-J-0-1.bmp","vashasha","Left","37","9","1","8","C1","C","129"
"","","approach-retreat","133","1509529","0.0-133.0","","","2-3","6667","37","1","Training","Stims/Figures/139-J-0-2.bmp","fa:fa:va","Left","37","9","2","8","C1","C","130"
"","","approach-retreat","134","1518857","0.0-134.0","","","2-3","7824","37","0","Training","Stims/Figures/74-J-10-4.bmp","za:sa:ha","Right","39","9","3","8","C2","C","131"
"","","approach-retreat","135","1524527","0.0-135.0","","","2-3","4157","37","1","Training","Stims/Figures/71-C-30-1.bmp","fafasha","Right","37","9","4","8","C1","C","132"
"","","approach-retreat","136","1530719","0.0-136.0","","","2-3","4685","38","1","Training","Stims/Figures/86-J-0-1.bmp","va:sha:va","Up","38","9","5","8","C1","C","133"
"","","approach-retreat","137","1536610","0.0-137.0","","","2-3","4380","37","0","Training","Stims/Figures/111-J-10-3.bmp","zasaza","Right","39","9","6","8","C2","C","134"
"","","approach-retreat","138","1543859","0.0-138.0","","","2-3","5721","38","1","Training","Stims/Figures/44-J-10-3.bmp","sa:saza","Up","38","9","7","8","C2","C","135"
"","","approach-retreat","139","1550964","0.0-139.0","","","2-3","5598","38","0","Training","Stims/Figures/19-J-10-4.bmp","sasaha","Down","40","9","8","8","C2","C","136"
"","","approach-retreat","140","1559523","0.0-140.0","","","2-3","7048","37","0","Training","Stims/Figures/85-C-20-2.bmp","fa:sha:va","Left","39","9","9","8","C1","C","137"
"","","approach-retreat","141","1568621","0.0-141.0","","","2-3","7594","39","1","Training","Stims/Figures/85-J-0-2.bmp","fa:fa:sha","Right","39","9","10","8","C1","C","138"
"","","approach-retreat","142","1577423","0.0-142.0","","","2-3","7295","38","1","Training","Stims/Figures/19-C-20-4.bmp","za:ha:za","Down","38","9","11","8","C2","C","139"
"","","approach-retreat","143","1583183","0.0-143.0","","","2-3","4253","38","1","Training","Stims/Figures/111-C-30-3.bmp","zasa:ha","Down","38","9","12","8","C2","C","140"
"","","approach-retreat","144","1590855","0.0-144.0","","","2-3","6166","40","0","Training","Stims/Figures/74-C-20-4.bmp","sa:ha:ha","Down","38","9","13","8","C2","C","141"
"","","approach-retreat","145","1600338","0.0-145.0","","","2-3","7983","39","1","Training","Stims/Figures/86-C-30-1.bmp","vasha:va","Left","39","9","14","8","C1","C","142"
"","","approach-retreat","146","1609623","0.0-146.0","","","2-3","7777","40","1","Training","Stims/Figures/139-C-20-2.bmp","fafa:va","Up","40","9","15","8","C1","C","143"
"","","approach-retreat","147","1615868","0.0-147.0","","","2-3","4743","40","1","Training","Stims/Figures/44-C-30-3.bmp","saha:ha","Up","40","9","16","8","C2","C","144"
"18688","","instructions","148","1634556","0.0-148.0","[{""page_index"":0,""viewing_time"":18599}]","","","","","","","","","","","","","","","",""
"","","approach-retreat","149","1640338","0.0-149.0","","","2-3","4269","39","1","Testing","Stims/Figures/87-C-20-4.bmp","za:haha","Left","39","1","1","8","C2","C","1"
"","","approach-retreat","150","1648253","0.0-150.0","","","2-3","6359","38","1","Testing","Stims/Figures/19-C-20-4.bmp","za:ha:za","Down","38","1","2","8","C2","C","2"
"","","approach-retreat","151","1654471","0.0-151.0","","","2-3","4711","37","1","Testing","Stims/Figures/86-C-30-1.bmp","vasha:va","Right","37","1","3","8","C1","C","3"
"","","approach-retreat","152","1661256","0.0-152.0","","","2-3","5275","38","0","Testing","Stims/Figures/111-C-30-3.bmp","zasa:ha","Up","40","1","4","8","C2","C","4"
"","","approach-retreat","153","1666894","0.0-153.0","","","2-3","4128","38","1","Testing","Stims/Figures/144-J-10-3.bmp","zahaza","Up","38","1","5","8","C2","C","5"
"","","approach-retreat","154","1672984","0.0-154.0","","","2-3","4575","37","1","Testing","Stims/Figures/93-C-30-1.bmp","fa:sha:sha","Right","37","1","6","8","C1","C","6"
"","","approach-retreat","155","1685309","0.0-155.0","","","2-3","10820","40","1","Testing","Stims/Figures/139-J-0-2.bmp","fa:fa:va","Down","40","1","7","8","C1","C","7"
"","","approach-retreat","156","1697208","0.0-156.0","","","2-3","10395","39","1","Testing","Stims/Figures/74-C-20-4.bmp","sa:ha:ha","Left","39","1","8","8","C2","C","8"
"","","approach-retreat","157","1707729","0.0-157.0","","","2-3","9008","40","1","Testing","Stims/Figures/111-J-10-3.bmp","zasaza","Down","40","1","9","8","C2","C","9"
"","","approach-retreat","158","1714175","0.0-158.0","","","2-3","4940","38","1","Testing","Stims/Figures/86-J-0-1.bmp","va:sha:va","Up","38","1","10","8","C1","C","10"
"","","approach-retreat","159","1724929","0.0-159.0","","","2-3","9236","38","0","Testing","Stims/Figures/44-J-10-3.bmp","sa:saza","Down","40","1","11","8","C2","C","11"
"","","approach-retreat","160","1730615","0.0-160.0","","","2-3","4172","37","0","Testing","Stims/Figures/93-J-0-1.bmp","va:fasha","Right","39","1","12","8","C1","C","12"
"","","approach-retreat","161","1736712","0.0-161.0","","","2-3","4595","39","1","Testing","Stims/Figures/44-C-30-3.bmp","saha:ha","Left","39","1","13","8","C2","C","13"
"","","approach-retreat","162","1743528","0.0-162.0","","","2-3","5313","39","1","Testing","Stims/Figures/19-J-10-4.bmp","sasaha","Right","39","1","14","8","C2","C","14"
"","","approach-retreat","163","1749489","0.0-163.0","","","2-3","4452","38","0","Testing","Stims/Figures/85-C-20-2.bmp","fa:sha:va","Up","40","1","15","8","C1","C","15"
"","","approach-retreat","164","1755279","0.0-164.0","","","2-3","4275","37","1","Testing","Stims/Figures/85-J-0-2.bmp","fa:fa:sha","Left","37","1","16","8","C1","C","16"
"","","approach-retreat","165","1761123","0.0-165.0","","","2-3","4309","38","1","Testing","Stims/Figures/71-J-0-1.bmp","vashasha","Up","38","1","17","8","C1","C","17"
"","","approach-retreat","166","1767542","0.0-166.0","","","2-3","4912","39","0","Testing","Stims/Figures/87-J-10-4.bmp","sa:sa:za","Left","37","1","18","8","C2","C","18"
"","","approach-retreat","167","1781792","0.0-167.0","","","2-3","12741","38","0","Testing","Stims/Figures/74-J-10-4.bmp","za:sa:ha","Down","40","1","19","8","C2","C","19"
"","","approach-retreat","168","1787939","0.0-168.0","","","2-3","4643","39","1","Testing","Stims/Figures/71-C-30-1.bmp","fafasha","Left","39","1","20","8","C1","C","20"
"","","approach-retreat","169","1793522","0.0-169.0","","","2-3","4079","38","1","Testing","Stims/Figures/144-C-30-3.bmp","sa:haza","Down","38","1","21","8","C2","C","21"
"","","approach-retreat","170","1804022","0.0-170.0","","","2-3","8987","37","1","Testing","Stims/Figures/84-C-20-2.bmp","fashasha","Right","37","1","22","8","C1","C","22"
"","","approach-retreat","171","1810278","0.0-171.0","","","2-3","4756","40","1","Testing","Stims/Figures/139-C-20-2.bmp","fafa:va","Up","40","1","23","8","C1","C","23"
"","","approach-retreat","172","1818946","0.0-172.0","","","2-3","7156","39","1","Testing","Stims/Figures/84-J-0-2.bmp","va:fa:sha","Right","39","1","24","8","C1","C","24"
"","","approach-retreat","173","1825477","0.0-173.0","","","2-3","5015","38","1","Testing","Stims/Figures/71-J-0-1.bmp","vashasha","Up","38","2","1","8","C1","C","25"
"","","approach-retreat","174","1832227","0.0-174.0","","","2-3","5236","37","0","Testing","Stims/Figures/44-J-10-3.bmp","sa:saza","Right","39","2","2","8","C2","C","26"
"","","approach-retreat","175","1838742","0.0-175.0","","","2-3","5000","37","1","Testing","Stims/Figures/44-C-30-3.bmp","saha:ha","Right","37","2","3","8","C2","C","27"
"","","approach-retreat","176","1844445","0.0-176.0","","","2-3","4192","39","0","Testing","Stims/Figures/19-J-10-4.bmp","sasaha","Left","37","2","4","8","C2","C","28"
"","","approach-retreat","177","1850942","0.0-177.0","","","2-3","4984","37","0","Testing","Stims/Figures/144-C-30-3.bmp","sa:haza","Left","39","2","5","8","C2","C","29"
"","","approach-retreat","178","1856397","0.0-178.0","","","2-3","3940","37","1","Testing","Stims/Figures/86-C-30-1.bmp","vasha:va","Right","37","2","6","8","C1","C","30"
"","","approach-retreat","179","1863759","0.0-179.0","","","2-3","5848","38","1","Testing","Stims/Figures/93-C-30-1.bmp","fa:sha:sha","Down","38","2","7","8","C1","C","31"
"","","approach-retreat","180","1870844","0.0-180.0","","","2-3","5580","37","1","Testing","Stims/Figures/85-J-0-2.bmp","fa:fa:sha","Left","37","2","8","8","C1","C","32"
"","","approach-retreat","181","1876556","0.0-181.0","","","2-3","4205","37","1","Testing","Stims/Figures/139-J-0-2.bmp","fa:fa:va","Left","37","2","9","8","C1","C","33"
"","","approach-retreat","182","1882195","0.0-182.0","","","2-3","4129","38","1","Testing","Stims/Figures/111-J-10-3.bmp","zasaza","Up","38","2","10","8","C2","C","34"
"","","approach-retreat","183","1887738","0.0-183.0","","","2-3","4031","38","0","Testing","Stims/Figures/74-J-10-4.bmp","za:sa:ha","Down","40","2","11","8","C2","C","35"
"","","approach-retreat","184","1893346","0.0-184.0","","","2-3","4098","37","1","Testing","Stims/Figures/19-C-20-4.bmp","za:ha:za","Right","37","2","12","8","C2","C","36"
"","","approach-retreat","185","1899037","0.0-185.0","","","2-3","4185","38","1","Testing","Stims/Figures/86-J-0-1.bmp","va:sha:va","Up","38","2","13","8","C1","C","37"
"","","approach-retreat","186","1904791","0.0-186.0","","","2-3","4241","38","1","Testing","Stims/Figures/93-J-0-1.bmp","va:fasha","Up","38","2","14","8","C1","C","38"
"","","approach-retreat","187","1910543","0.0-187.0","","","2-3","4252","38","1","Testing","Stims/Figures/87-J-10-4.bmp","sa:sa:za","Up","38","2","15","8","C2","C","39"
"","","approach-retreat","188","1915988","0.0-188.0","","","2-3","3939","38","1","Testing","Stims/Figures/74-C-20-4.bmp","sa:ha:ha","Down","38","2","16","8","C2","C","40"
"","","approach-retreat","189","1921842","0.0-189.0","","","2-3","4349","39","1","Testing","Stims/Figures/85-C-20-2.bmp","fa:sha:va","Left","39","2","17","8","C1","C","41"
"","","approach-retreat","190","1931627","0.0-190.0","","","2-3","8279","38","1","Testing","Stims/Figures/139-C-20-2.bmp","fafa:va","Down","38","2","18","8","C1","C","42"
"","","approach-retreat","191","1938652","0.0-191.0","","","2-3","5524","39","1","Testing","Stims/Figures/71-C-30-1.bmp","fafasha","Left","39","2","19","8","C1","C","43"
"","","approach-retreat","192","1944668","0.0-192.0","","","2-3","4500","40","0","Testing","Stims/Figures/111-C-30-3.bmp","zasa:ha","Down","38","2","20","8","C2","C","44"
"","","approach-retreat","193","1950363","0.0-193.0","","","2-3","4187","37","1","Testing","Stims/Figures/84-C-20-2.bmp","fashasha","Right","37","2","21","8","C1","C","45"
"","","approach-retreat","194","1955807","0.0-194.0","","","2-3","3941","37","0","Testing","Stims/Figures/84-J-0-2.bmp","va:fa:sha","Right","39","2","22","8","C1","C","46"
"","","approach-retreat","195","1962008","0.0-195.0","","","2-3","4696","38","1","Testing","Stims/Figures/144-J-10-3.bmp","zahaza","Up","38","2","23","8","C2","C","47"
"","","approach-retreat","196","1970762","0.0-196.0","","","2-3","7244","38","1","Testing","Stims/Figures/87-C-20-4.bmp","za:haha","Down","38","2","24","8","C2","C","48"
"","","approach-retreat","197","1981098","0.0-197.0","","","2-3","8834","39","1","Testing","Stims/Figures/86-C-30-1.bmp","vasha:va","Left","39","3","1","8","C1","C","49"
"","","approach-retreat","198","1987413","0.0-198.0","","","2-3","4800","39","0","Testing","Stims/Figures/139-J-0-2.bmp","fa:fa:va","Left","37","3","2","8","C1","C","50"
"","","approach-retreat","199","1994826","0.0-199.0","","","2-3","5907","40","1","Testing","Stims/Figures/85-C-20-2.bmp","fa:sha:va","Up","40","3","3","8","C1","C","51"
"","","approach-retreat","200","2004144","0.0-200.0","","","2-3","7816","37","0","Testing","Stims/Figures/84-J-0-2.bmp","va:fa:sha","Right","39","3","4","8","C1","C","52"
"","","approach-retreat","201","2009932","0.0-201.0","","","2-3","4284","40","1","Testing","Stims/Figures/93-C-30-1.bmp","fa:sha:sha","Up","40","3","5","8","C1","C","53"
"","","approach-retreat","202","2015964","0.0-202.0","","","2-3","4530","39","1","Testing","Stims/Figures/85-J-0-2.bmp","fa:fa:sha","Right","39","3","6","8","C1","C","54"
"","","approach-retreat","203","2022114","0.0-203.0","","","2-3","4643","40","1","Testing","Stims/Figures/44-C-30-3.bmp","saha:ha","Up","40","3","7","8","C2","C","55"
"","","approach-retreat","204","2028542","0.0-204.0","","","2-3","4921","40","0","Testing","Stims/Figures/87-J-10-4.bmp","sa:sa:za","Up","38","3","8","8","C2","C","56"
"","","approach-retreat","205","2034096","0.0-205.0","","","2-3","4051","37","1","Testing","Stims/Figures/87-C-20-4.bmp","za:haha","Right","37","3","9","8","C2","C","57"
"","","approach-retreat","206","2039997","0.0-206.0","","","2-3","4394","38","0","Testing","Stims/Figures/93-J-0-1.bmp","va:fasha","Down","40","3","10","8","C1","C","58"
"","","approach-retreat","207","2048886","0.0-207.0","","","2-3","7390","37","0","Testing","Stims/Figures/71-J-0-1.bmp","vashasha","Right","39","3","11","8","C1","C","59"
"","","approach-retreat","208","2055549","0.0-208.0","","","2-3","5157","37","0","Testing","Stims/Figures/44-J-10-3.bmp","sa:saza","Right","39","3","12","8","C2","C","60"
"","","approach-retreat","209","2073915","0.0-209.0","","","2-3","16863","40","1","Testing","Stims/Figures/84-C-20-2.bmp","fashasha","Up","40","3","13","8","C1","C","61"
"","","approach-retreat","210","2085999","0.0-210.0","","","2-3","10578","38","1","Testing","Stims/Figures/71-C-30-1.bmp","fafasha","Down","38","3","14","8","C1","C","62"
"","","approach-retreat","211","2099915","0.0-211.0","","","2-3","12410","39","0","Testing","Stims/Figures/86-J-0-1.bmp","va:sha:va","Left","37","3","15","8","C1","C","63"
"","","approach-retreat","212","2105446","0.0-212.0","","","2-3","4026","39","1","Testing","Stims/Figures/74-C-20-4.bmp","sa:ha:ha","Left","39","3","16","8","C2","C","64"
"","","approach-retreat","213","2111480","0.0-213.0","","","2-3","4523","39","1","Testing","Stims/Figures/111-C-30-3.bmp","zasa:ha","Left","39","3","17","8","C2","C","65"
"","","approach-retreat","214","2129567","0.0-214.0","","","2-3","16573","40","0","Testing","Stims/Figures/144-J-10-3.bmp","zahaza","Up","38","3","18","8","C2","C","66"
"","","approach-retreat","215","2136085","0.0-215.0","","","2-3","5015","37","1","Testing","Stims/Figures/144-C-30-3.bmp","sa:haza","Right","37","3","19","8","C2","C","67"
"","","approach-retreat","216","2147850","0.0-216.0","","","2-3","10250","38","0","Testing","Stims/Figures/74-J-10-4.bmp","za:sa:ha","Down","40","3","20","8","C2","C","68"
"","","approach-retreat","217","2154278","0.0-217.0","","","2-3","4922","38","1","Testing","Stims/Figures/139-C-20-2.bmp","fafa:va","Down","38","3","21","8","C1","C","69"
"","","approach-retreat","218","2160768","0.0-218.0","","","2-3","4989","40","1","Testing","Stims/Figures/19-J-10-4.bmp","sasaha","Down","40","3","22","8","C2","C","70"
"","","approach-retreat","219","2166552","0.0-219.0","","","2-3","4282","38","1","Testing","Stims/Figures/19-C-20-4.bmp","za:ha:za","Down","38","3","23","8","C2","C","71"
"","","approach-retreat","220","2177380","0.0-220.0","","","2-3","9326","39","0","Testing","Stims/Figures/111-J-10-3.bmp","zasaza","Left","37","3","24","8","C2","C","72"
"","","approach-retreat","221","2187062","0.0-221.0","","","2-3","8178","37","0","Testing","Stims/Figures/111-J-10-3.bmp","zasaza","Right","39","4","1","8","C2","C","73"
"","","approach-retreat","222","2222580","0.0-222.0","","","2-3","34016","39","1","Testing","Stims/Figures/44-C-30-3.bmp","saha:ha","Left","39","4","2","8","C2","C","74"
"","","approach-retreat","223","2231389","0.0-223.0","","","2-3","7308","39","1","Testing","Stims/Figures/111-C-30-3.bmp","zasa:ha","Left","39","4","3","8","C2","C","75"
"","","approach-retreat","224","2237808","0.0-224.0","","","2-3","4903","37","1","Testing","Stims/Figures/85-C-20-2.bmp","fa:sha:va","Right","37","4","4","8","C1","C","76"
"","","approach-retreat","225","2244193","0.0-225.0","","","2-3","4872","40","0","Testing","Stims/Figures/87-J-10-4.bmp","sa:sa:za","Up","38","4","5","8","C2","C","77"
"","","approach-retreat","226","2259218","0.0-226.0","","","2-3","13518","40","0","Testing","Stims/Figures/71-J-0-1.bmp","vashasha","Up","38","4","6","8","C1","C","78"
"","","approach-retreat","227","2272940","0.0-227.0","","","2-3","12210","38","1","Testing","Stims/Figures/144-J-10-3.bmp","zahaza","Up","38","4","7","8","C2","C","79"
"","","approach-retreat","228","2279381","0.0-228.0","","","2-3","4935","38","1","Testing","Stims/Figures/87-C-20-4.bmp","za:haha","Down","38","4","8","8","C2","C","80"
"","","approach-retreat","229","2285807","0.0-229.0","","","2-3","4914","40","1","Testing","Stims/Figures/71-C-30-1.bmp","fafasha","Up","40","4","9","8","C1","C","81"
"","","approach-retreat","230","2292145","0.0-230.0","","","2-3","4835","37","0","Testing","Stims/Figures/86-J-0-1.bmp","va:sha:va","Right","39","4","10","8","C1","C","82"
"","","approach-retreat","231","2333714","0.0-231.0","","","2-3","40058","39","1","Testing","Stims/Figures/93-C-30-1.bmp","fa:sha:sha","Left","39","4","11","8","C1","C","83"
"","","approach-retreat","232","2339940","0.0-232.0","","","2-3","4719","39","1","Testing","Stims/Figures/84-C-20-2.bmp","fashasha","Left","39","4","12","8","C1","C","84"
"","","approach-retreat","233","2346458","0.0-233.0","","","2-3","5004","40","0","Testing","Stims/Figures/19-C-20-4.bmp","za:ha:za","Down","38","4","13","8","C2","C","85"
"","","approach-retreat","234","2352180","0.0-234.0","","","2-3","4216","37","1","Testing","Stims/Figures/74-C-20-4.bmp","sa:ha:ha","Right","37","4","14","8","C2","C","86"
"","","approach-retreat","235","2359683","0.0-235.0","","","2-3","5985","38","1","Testing","Stims/Figures/74-J-10-4.bmp","za:sa:ha","Up","38","4","15","8","C2","C","87"
"","","approach-retreat","236","2367651","0.0-236.0","","","2-3","6454","39","0","Testing","Stims/Figures/139-J-0-2.bmp","fa:fa:va","Left","37","4","16","8","C1","C","88"
"","","approach-retreat","237","2373983","0.0-237.0","","","2-3","4830","39","0","Testing","Stims/Figures/19-J-10-4.bmp","sasaha","Left","37","4","17","8","C2","C","89"
"","","approach-retreat","238","2384121","0.0-238.0","","","2-3","8626","37","0","Testing","Stims/Figures/84-J-0-2.bmp","va:fa:sha","Right","39","4","18","8","C1","C","90"
"","","approach-retreat","239","2390936","0.0-239.0","","","2-3","5304","37","0","Testing","Stims/Figures/85-J-0-2.bmp","fa:fa:sha","Right","39","4","19","8","C1","C","91"
"","","approach-retreat","240","2399092","0.0-240.0","","","2-3","6650","38","0","Testing","Stims/Figures/93-J-0-1.bmp","va:fasha","Down","40","4","20","8","C1","C","92"
"","","approach-retreat","241","2405603","0.0-241.0","","","2-3","5000","38","1","Testing","Stims/Figures/86-C-30-1.bmp","vasha:va","Down","38","4","21","8","C1","C","93"
"","","approach-retreat","242","2411839","0.0-242.0","","","2-3","4721","38","0","Testing","Stims/Figures/44-J-10-3.bmp","sa:saza","Down","40","4","22","8","C2","C","94"
"","","approach-retreat","243","2417555","0.0-243.0","","","2-3","4203","40","1","Testing","Stims/Figures/144-C-30-3.bmp","sa:haza","Up","40","4","23","8","C2","C","95"
"","","approach-retreat","244","2425051","0.0-244.0","","","2-3","5987","38","1","Testing","Stims/Figures/139-C-20-2.bmp","fafa:va","Down","38","4","24","8","C1","C","96"
"42940","","survey-text","245","2468035","0.0-245.0","","{""Q0"":""0001""}","","","","","","","","","","","","","","",""
