"rt","key_press","trial_type","trial_index","time_elapsed","internal_node_id","view_history","responses","Id","Rt","ResKeyCode","ResCorr","TrialType2","Image","Label","Location","CorrectResponse","Block","BlockTrial","Condition","LabelType","Subcondition","trialNum"
"90239","32","text","0","90242","0.0-0.0-0.0","","","","","","","","","","","","","","","","",""
"54954","","instructions","1","145199","0.0-1.0","[{""page_index"":0,""viewing_time"":54953}]","","","","","","","","","","","","","","","",""
"23311","","survey-multi-choice","2","168537","0.0-2.0","","{""Q0"":""Da"",""Q1"":""Da"",""Q2"":""Da"",""Q3"":""Da"",""Q4"":""Da"",""Q5"":""Da""}","","","","","","","","","","","","","","",""
"","","bio","3","178220","0.0-3.0","","{""age"":""18"",""gender"":""f"",""specify"":""""}","","","","","","","","","","","","","","",""
"","","approach-retreat","4","196179","0.0-4.0","","","2-5","16454","40","1","Training","Stims/Figures/44-C-30-3.bmp","mamana","Up","40","1","1","4","S","C","1"
"","","approach-retreat","5","206263","0.0-5.0","","","2-5","8576","40","0","Training","Stims/Figures/87-J-10-4.bmp","papa:ka","Up","38","1","2","4","P","C","2"
"","","approach-retreat","6","217504","0.0-6.0","","","2-5","9737","39","1","Training","Stims/Figures/85-J-0-2.bmp","ta:ka:ka","Right","39","1","3","4","P","C","3"
"","","approach-retreat","7","224981","0.0-7.0","","","2-5","5971","40","0","Training","Stims/Figures/118-C-20-2.bmp","ma:la:la","Down","38","1","4","4","S","C","4"
"","","approach-retreat","8","232530","0.0-8.0","","","2-5","6043","40","0","Training","Stims/Figures/27-C-30-1.bmp","nalana","Down","38","1","5","4","S","C","5"
"","","approach-retreat","9","245732","0.0-9.0","","","2-5","11696","37","1","Training","Stims/Figures/102-J-10-4.bmp","paka:ka","Left","37","1","6","4","P","C","6"
"","","approach-retreat","10","252735","0.0-10.0","","","2-5","5497","37","0","Training","Stims/Figures/86-C-30-1.bmp","ma:ma:la","Left","39","1","7","4","S","C","7"
"","","approach-retreat","11","260616","0.0-11.0","","","2-5","6374","39","0","Training","Stims/Figures/128-J-10-3.bmp","papata","Left","37","1","8","4","P","C","8"
"","","approach-retreat","12","266738","0.0-12.0","","","2-5","4617","39","0","Training","Stims/Figures/102-C-20-4.bmp","ma:mala","Right","37","1","9","4","S","C","9"
"","","approach-retreat","13","276321","0.0-13.0","","","2-5","8076","40","1","Training","Stims/Figures/87-C-20-4.bmp","na:mala","Up","40","1","10","4","S","C","10"
"","","approach-retreat","14","282304","0.0-14.0","","","2-5","4477","37","0","Training","Stims/Figures/118-J-0-2.bmp","ta:pa:ta","Right","39","1","11","4","P","C","11"
"","","approach-retreat","15","288376","0.0-15.0","","","2-5","4565","39","1","Training","Stims/Figures/85-C-20-2.bmp","na:lala","Left","39","1","12","4","S","C","12"
"","","approach-retreat","16","294638","0.0-16.0","","","2-5","4756","40","1","Training","Stims/Figures/86-J-0-1.bmp","taka:ta","Down","40","1","13","4","P","C","13"
"","","approach-retreat","17","301052","0.0-17.0","","","2-5","4908","37","0","Training","Stims/Figures/44-J-10-3.bmp","tapa:ta","Right","39","1","14","4","P","C","14"
"","","approach-retreat","18","307148","0.0-18.0","","","2-5","4592","38","1","Training","Stims/Figures/27-J-0-1.bmp","tapaka","Up","38","1","15","4","P","C","15"
"","","approach-retreat","19","313135","0.0-19.0","","","2-5","4479","38","1","Training","Stims/Figures/128-C-30-3.bmp","namala","Down","38","1","16","4","S","C","16"
"","","approach-retreat","20","319232","0.0-20.0","","","2-5","4594","37","1","Training","Stims/Figures/27-C-30-1.bmp","nalana","Right","37","2","1","4","S","C","17"
"","","approach-retreat","21","324835","0.0-21.0","","","2-5","4097","37","1","Training","Stims/Figures/86-C-30-1.bmp","ma:ma:la","Right","37","2","2","4","S","C","18"
"","","approach-retreat","22","331069","0.0-22.0","","","2-5","4729","39","1","Training","Stims/Figures/27-J-0-1.bmp","tapaka","Right","39","2","3","4","P","C","19"
"","","approach-retreat","23","337545","0.0-23.0","","","2-5","4971","37","1","Training","Stims/Figures/128-J-10-3.bmp","papata","Left","37","2","4","4","P","C","20"
"","","approach-retreat","24","345007","0.0-24.0","","","2-5","5957","40","0","Training","Stims/Figures/118-J-0-2.bmp","ta:pa:ta","Up","38","2","5","4","P","C","21"
"","","approach-retreat","25","354226","0.0-25.0","","","2-5","7715","40","0","Training","Stims/Figures/102-J-10-4.bmp","paka:ka","Up","38","2","6","4","P","C","22"
"","","approach-retreat","26","361995","0.0-26.0","","","2-5","6262","38","0","Training","Stims/Figures/86-J-0-1.bmp","taka:ta","Down","40","2","7","4","P","C","23"
"","","approach-retreat","27","368032","0.0-27.0","","","2-5","4527","39","1","Training","Stims/Figures/87-J-10-4.bmp","papa:ka","Right","39","2","8","4","P","C","24"
"","","approach-retreat","28","377358","0.0-28.0","","","2-5","7821","38","0","Training","Stims/Figures/85-J-0-2.bmp","ta:ka:ka","Down","40","2","9","4","P","C","25"
"","","approach-retreat","29","383386","0.0-29.0","","","2-5","4519","37","0","Training","Stims/Figures/87-C-20-4.bmp","na:mala","Left","39","2","10","4","S","C","26"
"","","approach-retreat","30","395188","0.0-30.0","","","2-5","10299","37","0","Training","Stims/Figures/85-C-20-2.bmp","na:lala","Left","39","2","11","4","S","C","27"
"","","approach-retreat","31","401719","0.0-31.0","","","2-5","5024","38","1","Training","Stims/Figures/44-C-30-3.bmp","mamana","Down","38","2","12","4","S","C","28"
"","","approach-retreat","32","407929","0.0-32.0","","","2-5","4706","38","0","Training","Stims/Figures/128-C-30-3.bmp","namala","Up","40","2","13","4","S","C","29"
"","","approach-retreat","33","416465","0.0-33.0","","","2-5","7030","38","1","Training","Stims/Figures/44-J-10-3.bmp","tapa:ta","Up","38","2","14","4","P","C","30"
"","","approach-retreat","34","422945","0.0-34.0","","","2-5","4974","40","0","Training","Stims/Figures/118-C-20-2.bmp","ma:la:la","Down","38","2","15","4","S","C","31"
"","","approach-retreat","35","429092","0.0-35.0","","","2-5","4633","37","0","Training","Stims/Figures/102-C-20-4.bmp","ma:mala","Left","39","2","16","4","S","C","32"
"","","approach-retreat","36","435037","0.0-36.0","","","2-5","4440","40","0","Training","Stims/Figures/87-C-20-4.bmp","na:mala","Down","38","3","1","4","S","C","33"
"","","approach-retreat","37","441013","0.0-37.0","","","2-5","4469","38","0","Training","Stims/Figures/27-C-30-1.bmp","nalana","Up","40","3","2","4","S","C","34"
"","","approach-retreat","38","447591","0.0-38.0","","","2-5","5075","38","0","Training","Stims/Figures/128-C-30-3.bmp","namala","Up","40","3","3","4","S","C","35"
"","","approach-retreat","39","455596","0.0-39.0","","","2-5","6500","40","1","Training","Stims/Figures/118-J-0-2.bmp","ta:pa:ta","Down","40","3","4","4","P","C","36"
"","","approach-retreat","40","461594","0.0-40.0","","","2-5","4492","38","0","Training","Stims/Figures/87-J-10-4.bmp","papa:ka","Down","40","3","5","4","P","C","37"
"","","approach-retreat","41","467429","0.0-41.0","","","2-5","4329","38","0","Training","Stims/Figures/118-C-20-2.bmp","ma:la:la","Up","40","3","6","4","S","C","38"
"","","approach-retreat","42","473495","0.0-42.0","","","2-5","4561","39","1","Training","Stims/Figures/102-J-10-4.bmp","paka:ka","Right","39","3","7","4","P","C","39"
"","","approach-retreat","43","480049","0.0-43.0","","","2-5","5048","37","0","Training","Stims/Figures/44-J-10-3.bmp","tapa:ta","Right","39","3","8","4","P","C","40"
"","","approach-retreat","44","486959","0.0-44.0","","","2-5","5406","37","0","Training","Stims/Figures/86-C-30-1.bmp","ma:ma:la","Left","39","3","9","4","S","C","41"
"","","approach-retreat","45","495054","0.0-45.0","","","2-5","6583","37","1","Training","Stims/Figures/85-C-20-2.bmp","na:lala","Right","37","3","10","4","S","C","42"
"","","approach-retreat","46","501506","0.0-46.0","","","2-5","4948","37","1","Training","Stims/Figures/85-J-0-2.bmp","ta:ka:ka","Left","37","3","11","4","P","C","43"
"","","approach-retreat","47","508361","0.0-47.0","","","2-5","5350","39","1","Training","Stims/Figures/44-C-30-3.bmp","mamana","Left","39","3","12","4","S","C","44"
"","","approach-retreat","48","516163","0.0-48.0","","","2-5","6296","38","1","Training","Stims/Figures/102-C-20-4.bmp","ma:mala","Down","38","3","13","4","S","C","45"
"","","approach-retreat","49","522833","0.0-49.0","","","2-5","5165","37","0","Training","Stims/Figures/128-J-10-3.bmp","papata","Right","39","3","14","4","P","C","46"
"","","approach-retreat","50","528695","0.0-50.0","","","2-5","4357","38","1","Training","Stims/Figures/86-J-0-1.bmp","taka:ta","Up","38","3","15","4","P","C","47"
"","","approach-retreat","51","534734","0.0-51.0","","","2-5","4532","39","0","Training","Stims/Figures/27-J-0-1.bmp","tapaka","Left","37","3","16","4","P","C","48"
"","","approach-retreat","52","541694","0.0-52.0","","","2-5","5455","39","1","Training","Stims/Figures/44-C-30-3.bmp","mamana","Left","39","4","1","4","S","C","49"
"","","approach-retreat","53","549729","0.0-53.0","","","2-5","6530","38","0","Training","Stims/Figures/118-J-0-2.bmp","ta:pa:ta","Down","40","4","2","4","P","C","50"
"","","approach-retreat","54","556500","0.0-54.0","","","2-5","5256","40","0","Training","Stims/Figures/102-C-20-4.bmp","ma:mala","Down","38","4","3","4","S","C","51"
"","","approach-retreat","55","562971","0.0-55.0","","","2-5","4965","39","1","Training","Stims/Figures/86-C-30-1.bmp","ma:ma:la","Left","39","4","4","4","S","C","52"
"","","approach-retreat","56","568986","0.0-56.0","","","2-5","4510","37","0","Training","Stims/Figures/86-J-0-1.bmp","taka:ta","Right","39","4","5","4","P","C","53"
"","","approach-retreat","57","575964","0.0-57.0","","","2-5","5471","38","0","Training","Stims/Figures/85-C-20-2.bmp","na:lala","Up","40","4","6","4","S","C","54"
"","","approach-retreat","58","585945","0.0-58.0","","","2-5","8476","37","0","Training","Stims/Figures/87-C-20-4.bmp","na:mala","Left","39","4","7","4","S","C","55"
"","","approach-retreat","59","593926","0.0-59.0","","","2-5","6477","39","1","Training","Stims/Figures/44-J-10-3.bmp","tapa:ta","Right","39","4","8","4","P","C","56"
"","","approach-retreat","60","600220","0.0-60.0","","","2-5","4791","39","1","Training","Stims/Figures/85-J-0-2.bmp","ta:ka:ka","Right","39","4","9","4","P","C","57"
"","","approach-retreat","61","607374","0.0-61.0","","","2-5","5647","38","1","Training","Stims/Figures/27-J-0-1.bmp","tapaka","Up","38","4","10","4","P","C","58"
"","","approach-retreat","62","613848","0.0-62.0","","","2-5","4968","39","0","Training","Stims/Figures/128-J-10-3.bmp","papata","Left","37","4","11","4","P","C","59"
"","","approach-retreat","63","621696","0.0-63.0","","","2-5","6341","40","0","Training","Stims/Figures/87-J-10-4.bmp","papa:ka","Up","38","4","12","4","P","C","60"
"","","approach-retreat","64","629563","0.0-64.0","","","2-5","6360","40","0","Training","Stims/Figures/102-J-10-4.bmp","paka:ka","Up","38","4","13","4","P","C","61"
"","","approach-retreat","65","636478","0.0-65.0","","","2-5","5409","37","1","Training","Stims/Figures/27-C-30-1.bmp","nalana","Right","37","4","14","4","S","C","62"
"","","approach-retreat","66","642421","0.0-66.0","","","2-5","4438","38","1","Training","Stims/Figures/118-C-20-2.bmp","ma:la:la","Down","38","4","15","4","S","C","63"
"","","approach-retreat","67","649868","0.0-67.0","","","2-5","5940","40","0","Training","Stims/Figures/128-C-30-3.bmp","namala","Down","38","4","16","4","S","C","64"
"","","approach-retreat","68","656128","0.0-68.0","","","2-5","4755","38","1","Training","Stims/Figures/128-C-30-3.bmp","namala","Down","38","5","1","4","S","C","65"
"","","approach-retreat","69","662563","0.0-69.0","","","2-5","4928","37","0","Training","Stims/Figures/27-C-30-1.bmp","nalana","Left","39","5","2","4","S","C","66"
"","","approach-retreat","70","667589","0.0-70.0","","","2-5","3522","39","0","Training","Stims/Figures/118-J-0-2.bmp","ta:pa:ta","Left","37","5","3","4","P","C","67"
"","","approach-retreat","71","674694","0.0-71.0","","","2-5","5598","38","0","Training","Stims/Figures/86-J-0-1.bmp","taka:ta","Down","40","5","4","4","P","C","68"
"","","approach-retreat","72","680404","0.0-72.0","","","2-5","4202","38","1","Training","Stims/Figures/44-C-30-3.bmp","mamana","Down","38","5","5","4","S","C","69"
"","","approach-retreat","73","685489","0.0-73.0","","","2-5","3579","38","1","Training","Stims/Figures/128-J-10-3.bmp","papata","Up","38","5","6","4","P","C","70"
"","","approach-retreat","74","691338","0.0-74.0","","","2-5","4344","37","0","Training","Stims/Figures/27-J-0-1.bmp","tapaka","Right","39","5","7","4","P","C","71"
"","","approach-retreat","75","697163","0.0-75.0","","","2-5","4320","39","1","Training","Stims/Figures/85-C-20-2.bmp","na:lala","Left","39","5","8","4","S","C","72"
"","","approach-retreat","76","702506","0.0-76.0","","","2-5","3838","37","1","Training","Stims/Figures/102-C-20-4.bmp","ma:mala","Right","37","5","9","4","S","C","73"
"","","approach-retreat","77","708636","0.0-77.0","","","2-5","4623","40","0","Training","Stims/Figures/85-J-0-2.bmp","ta:ka:ka","Up","38","5","10","4","P","C","74"
"","","approach-retreat","78","714317","0.0-78.0","","","2-5","4175","37","0","Training","Stims/Figures/87-J-10-4.bmp","papa:ka","Right","39","5","11","4","P","C","75"
"","","approach-retreat","79","719750","0.0-79.0","","","2-5","3927","38","0","Training","Stims/Figures/87-C-20-4.bmp","na:mala","Up","40","5","12","4","S","C","76"
"","","approach-retreat","80","725209","0.0-80.0","","","2-5","3952","38","1","Training","Stims/Figures/118-C-20-2.bmp","ma:la:la","Down","38","5","13","4","S","C","77"
"","","approach-retreat","81","731586","0.0-81.0","","","2-5","4872","40","1","Training","Stims/Figures/86-C-30-1.bmp","ma:ma:la","Up","40","5","14","4","S","C","78"
"","","approach-retreat","82","736676","0.0-82.0","","","2-5","3583","39","1","Training","Stims/Figures/44-J-10-3.bmp","tapa:ta","Right","39","5","15","4","P","C","79"
"","","approach-retreat","83","742364","0.0-83.0","","","2-5","4182","37","1","Training","Stims/Figures/102-J-10-4.bmp","paka:ka","Left","37","5","16","4","P","C","80"
"","","approach-retreat","84","748111","0.0-84.0","","","2-5","4242","38","1","Training","Stims/Figures/128-J-10-3.bmp","papata","Up","38","6","1","4","P","C","81"
"","","approach-retreat","85","754476","0.0-85.0","","","2-5","4858","40","1","Training","Stims/Figures/86-C-30-1.bmp","ma:ma:la","Up","40","6","2","4","S","C","82"
"","","approach-retreat","86","760079","0.0-86.0","","","2-5","4097","40","0","Training","Stims/Figures/27-C-30-1.bmp","nalana","Down","38","6","3","4","S","C","83"
"","","approach-retreat","87","765991","0.0-87.0","","","2-5","4406","38","1","Training","Stims/Figures/87-C-20-4.bmp","na:mala","Down","38","6","4","4","S","C","84"
"","","approach-retreat","88","771699","0.0-88.0","","","2-5","4203","38","0","Training","Stims/Figures/27-J-0-1.bmp","tapaka","Down","40","6","5","4","P","C","85"
"","","approach-retreat","89","777016","0.0-89.0","","","2-5","3812","39","0","Training","Stims/Figures/102-C-20-4.bmp","ma:mala","Right","37","6","6","4","S","C","86"
"","","approach-retreat","90","782525","0.0-90.0","","","2-5","4003","39","1","Training","Stims/Figures/44-J-10-3.bmp","tapa:ta","Right","39","6","7","4","P","C","87"
"","","approach-retreat","91","788279","0.0-91.0","","","2-5","4249","39","0","Training","Stims/Figures/128-C-30-3.bmp","namala","Right","37","6","8","4","S","C","88"
"","","approach-retreat","92","793867","0.0-92.0","","","2-5","4081","37","1","Training","Stims/Figures/118-J-0-2.bmp","ta:pa:ta","Left","37","6","9","4","P","C","89"
"","","approach-retreat","93","799757","0.0-93.0","","","2-5","4384","37","0","Training","Stims/Figures/87-J-10-4.bmp","papa:ka","Right","39","6","10","4","P","C","90"
"","","approach-retreat","94","805424","0.0-94.0","","","2-5","4161","38","1","Training","Stims/Figures/85-J-0-2.bmp","ta:ka:ka","Up","38","6","11","4","P","C","91"
"","","approach-retreat","95","810892","0.0-95.0","","","2-5","3963","37","0","Training","Stims/Figures/44-C-30-3.bmp","mamana","Left","39","6","12","4","S","C","92"
"","","approach-retreat","96","816884","0.0-96.0","","","2-5","4488","38","0","Training","Stims/Figures/118-C-20-2.bmp","ma:la:la","Up","40","6","13","4","S","C","93"
"","","approach-retreat","97","822713","0.0-97.0","","","2-5","4324","38","1","Training","Stims/Figures/85-C-20-2.bmp","na:lala","Down","38","6","14","4","S","C","94"
"","","approach-retreat","98","827806","0.0-98.0","","","2-5","3589","39","0","Training","Stims/Figures/102-J-10-4.bmp","paka:ka","Left","37","6","15","4","P","C","95"
"","","approach-retreat","99","833141","0.0-99.0","","","2-5","3830","37","1","Training","Stims/Figures/86-J-0-1.bmp","taka:ta","Left","37","6","16","4","P","C","96"
"","","approach-retreat","100","838179","0.0-100.0","","","2-5","3533","37","1","Training","Stims/Figures/102-J-10-4.bmp","paka:ka","Left","37","7","1","4","P","C","97"
"","","approach-retreat","101","844462","0.0-101.0","","","2-5","4778","37","1","Training","Stims/Figures/128-C-30-3.bmp","namala","Right","37","7","2","4","S","C","98"
"","","approach-retreat","102","852114","0.0-102.0","","","2-5","6144","40","1","Training","Stims/Figures/44-J-10-3.bmp","tapa:ta","Down","40","7","3","4","P","C","99"
"","","approach-retreat","103","860185","0.0-103.0","","","2-5","6567","40","1","Training","Stims/Figures/27-C-30-1.bmp","nalana","Up","40","7","4","4","S","C","100"
"","","approach-retreat","104","865951","0.0-104.0","","","2-5","4259","37","1","Training","Stims/Figures/128-J-10-3.bmp","papata","Left","37","7","5","4","P","C","101"
"","","approach-retreat","105","873639","0.0-105.0","","","2-5","6183","38","0","Training","Stims/Figures/118-C-20-2.bmp","ma:la:la","Up","40","7","6","4","S","C","102"
"","","approach-retreat","106","879429","0.0-106.0","","","2-5","4284","40","1","Training","Stims/Figures/86-J-0-1.bmp","taka:ta","Down","40","7","7","4","P","C","103"
"","","approach-retreat","107","885095","0.0-107.0","","","2-5","4161","38","1","Training","Stims/Figures/86-C-30-1.bmp","ma:ma:la","Down","38","7","8","4","S","C","104"
"","","approach-retreat","108","890716","0.0-108.0","","","2-5","4115","39","0","Training","Stims/Figures/87-J-10-4.bmp","papa:ka","Left","37","7","9","4","P","C","105"
"","","approach-retreat","109","896371","0.0-109.0","","","2-5","4151","40","1","Training","Stims/Figures/118-J-0-2.bmp","ta:pa:ta","Down","40","7","10","4","P","C","106"
"","","approach-retreat","110","901915","0.0-110.0","","","2-5","4039","37","0","Training","Stims/Figures/102-C-20-4.bmp","ma:mala","Left","39","7","11","4","S","C","107"
"","","approach-retreat","111","908520","0.0-111.0","","","2-5","5099","39","0","Training","Stims/Figures/85-C-20-2.bmp","na:lala","Right","37","7","12","4","S","C","108"
"","","approach-retreat","112","914457","0.0-112.0","","","2-5","4432","38","1","Training","Stims/Figures/27-J-0-1.bmp","tapaka","Up","38","7","13","4","P","C","109"
"","","approach-retreat","113","920062","0.0-113.0","","","2-5","4096","39","1","Training","Stims/Figures/85-J-0-2.bmp","ta:ka:ka","Right","39","7","14","4","P","C","110"
"","","approach-retreat","114","925627","0.0-114.0","","","2-5","4060","37","1","Training","Stims/Figures/87-C-20-4.bmp","na:mala","Right","37","7","15","4","S","C","111"
"","","approach-retreat","115","932280","0.0-115.0","","","2-5","5147","38","0","Training","Stims/Figures/44-C-30-3.bmp","mamana","Up","40","7","16","4","S","C","112"
"","","approach-retreat","116","938110","0.0-116.0","","","2-5","4325","39","1","Training","Stims/Figures/85-J-0-2.bmp","ta:ka:ka","Right","39","8","1","4","P","C","113"
"","","approach-retreat","117","943856","0.0-117.0","","","2-5","4241","37","0","Training","Stims/Figures/128-J-10-3.bmp","papata","Right","39","8","2","4","P","C","114"
"","","approach-retreat","118","950766","0.0-118.0","","","2-5","5402","39","1","Training","Stims/Figures/102-C-20-4.bmp","ma:mala","Left","39","8","3","4","S","C","115"
"","","approach-retreat","119","957156","0.0-119.0","","","2-5","4886","40","1","Training","Stims/Figures/128-C-30-3.bmp","namala","Up","40","8","4","4","S","C","116"
"","","approach-retreat","120","962613","0.0-120.0","","","2-5","3953","39","1","Training","Stims/Figures/86-J-0-1.bmp","taka:ta","Right","39","8","5","4","P","C","117"
"","","approach-retreat","121","967937","0.0-121.0","","","2-5","3818","39","1","Training","Stims/Figures/85-C-20-2.bmp","na:lala","Left","39","8","6","4","S","C","118"
"","","approach-retreat","122","974970","0.0-122.0","","","2-5","5528","40","0","Training","Stims/Figures/27-J-0-1.bmp","tapaka","Up","38","8","7","4","P","C","119"
"","","approach-retreat","123","980540","0.0-123.0","","","2-5","4065","38","0","Training","Stims/Figures/27-C-30-1.bmp","nalana","Up","40","8","8","4","S","C","120"
"","","approach-retreat","124","985721","0.0-124.0","","","2-5","3676","37","0","Training","Stims/Figures/102-J-10-4.bmp","paka:ka","Right","39","8","9","4","P","C","121"
"","","approach-retreat","125","991404","0.0-125.0","","","2-5","4177","40","1","Training","Stims/Figures/86-C-30-1.bmp","ma:ma:la","Up","40","8","10","4","S","C","122"
"","","approach-retreat","126","1005018","0.0-126.0","","","2-5","12108","39","1","Training","Stims/Figures/118-C-20-2.bmp","ma:la:la","Left","39","8","11","4","S","C","123"
"","","approach-retreat","127","1010765","0.0-127.0","","","2-5","4242","38","1","Training","Stims/Figures/87-C-20-4.bmp","na:mala","Down","38","8","12","4","S","C","124"
"","","approach-retreat","128","1016356","0.0-128.0","","","2-5","4086","38","0","Training","Stims/Figures/87-J-10-4.bmp","papa:ka","Down","40","8","13","4","P","C","125"
"","","approach-retreat","129","1022222","0.0-129.0","","","2-5","4362","40","1","Training","Stims/Figures/118-J-0-2.bmp","ta:pa:ta","Down","40","8","14","4","P","C","126"
"","","approach-retreat","130","1028193","0.0-130.0","","","2-5","4466","38","1","Training","Stims/Figures/44-C-30-3.bmp","mamana","Down","38","8","15","4","S","C","127"
"","","approach-retreat","131","1037408","0.0-131.0","","","2-5","7708","37","1","Training","Stims/Figures/44-J-10-3.bmp","tapa:ta","Left","37","8","16","4","P","C","128"
"","","approach-retreat","132","1042795","0.0-132.0","","","2-5","3881","38","1","Training","Stims/Figures/118-J-0-2.bmp","ta:pa:ta","Up","38","9","1","4","P","C","129"
"","","approach-retreat","133","1047931","0.0-133.0","","","2-5","3631","40","0","Training","Stims/Figures/128-J-10-3.bmp","papata","Up","38","9","2","4","P","C","130"
"","","approach-retreat","134","1054476","0.0-134.0","","","2-5","5040","39","0","Training","Stims/Figures/87-J-10-4.bmp","papa:ka","Left","37","9","3","4","P","C","131"
"","","approach-retreat","135","1060917","0.0-135.0","","","2-5","4936","38","1","Training","Stims/Figures/27-C-30-1.bmp","nalana","Down","38","9","4","4","S","C","132"
"","","approach-retreat","136","1069277","0.0-136.0","","","2-5","6853","38","1","Training","Stims/Figures/87-C-20-4.bmp","na:mala","Down","38","9","5","4","S","C","133"
"","","approach-retreat","137","1075341","0.0-137.0","","","2-5","4560","39","0","Training","Stims/Figures/102-J-10-4.bmp","paka:ka","Left","37","9","6","4","P","C","134"
"","","approach-retreat","138","1081315","0.0-138.0","","","2-5","4470","38","0","Training","Stims/Figures/44-J-10-3.bmp","tapa:ta","Down","40","9","7","4","P","C","135"
"","","approach-retreat","139","1087522","0.0-139.0","","","2-5","4701","37","1","Training","Stims/Figures/44-C-30-3.bmp","mamana","Right","37","9","8","4","S","C","136"
"","","approach-retreat","140","1093903","0.0-140.0","","","2-5","4874","37","0","Training","Stims/Figures/118-C-20-2.bmp","ma:la:la","Left","39","9","9","4","S","C","137"
"","","approach-retreat","141","1100628","0.0-141.0","","","2-5","5220","37","1","Training","Stims/Figures/86-C-30-1.bmp","ma:ma:la","Right","37","9","10","4","S","C","138"
"","","approach-retreat","142","1106578","0.0-142.0","","","2-5","4445","37","0","Training","Stims/Figures/85-J-0-2.bmp","ta:ka:ka","Right","39","9","11","4","P","C","139"
"","","approach-retreat","143","1113637","0.0-143.0","","","2-5","5553","38","0","Training","Stims/Figures/128-C-30-3.bmp","namala","Up","40","9","12","4","S","C","140"
"","","approach-retreat","144","1119527","0.0-144.0","","","2-5","4387","38","0","Training","Stims/Figures/27-J-0-1.bmp","tapaka","Down","40","9","13","4","P","C","141"
"","","approach-retreat","145","1127252","0.0-145.0","","","2-5","6214","38","0","Training","Stims/Figures/102-C-20-4.bmp","ma:mala","Up","40","9","14","4","S","C","142"
"","","approach-retreat","146","1133620","0.0-146.0","","","2-5","4862","39","0","Training","Stims/Figures/86-J-0-1.bmp","taka:ta","Left","37","9","15","4","P","C","143"
"","","approach-retreat","147","1139538","0.0-147.0","","","2-5","4412","37","1","Training","Stims/Figures/85-C-20-2.bmp","na:lala","Right","37","9","16","4","S","C","144"
"","","instructions","148","1146465","0.0-148.0","","","2-5","11340","37","1","Training","Stims/Figures/85-C-20-2.bmp","na:lala","Right","37","9","16","4","S","C",""
"","","approach-retreat","149","1151615","0.0-149.0","","","2-5","3644","38","0","Testing","Stims/Figures/27-J-0-1.bmp","tapaka","Down","40","1","1","4","P","C","1"
"","","approach-retreat","150","1157245","0.0-150.0","","","2-5","4127","37","0","Testing","Stims/Figures/86-J-0-1.bmp","taka:ta","Right","39","1","2","4","P","C","2"
"","","approach-retreat","151","1163103","0.0-151.0","","","2-5","4354","39","1","Testing","Stims/Figures/85-J-0-2.bmp","ta:ka:ka","Right","39","1","3","4","P","C","3"
"","","approach-retreat","152","1168652","0.0-152.0","","","2-5","4045","39","1","Testing","Stims/Figures/94-C-20-2.bmp","ma:ma:na","Left","39","1","4","4","S","C","4"
"","","approach-retreat","153","1174263","0.0-153.0","","","2-5","4105","40","1","Testing","Stims/Figures/27-C-30-1.bmp","nalana","Up","40","1","5","4","S","C","5"
"","","approach-retreat","154","1180471","0.0-154.0","","","2-5","4704","38","0","Testing","Stims/Figures/118-J-0-2.bmp","ta:pa:ta","Down","40","1","6","4","P","C","6"
"","","approach-retreat","155","1188749","0.0-155.0","","","2-5","6769","40","1","Testing","Stims/Figures/144-C-30-3.bmp","nama:la","Up","40","1","7","4","S","C","7"
"","","approach-retreat","156","1196236","0.0-156.0","","","2-5","5983","37","0","Testing","Stims/Figures/128-C-30-3.bmp","namala","Left","39","1","8","4","S","C","8"
"","","approach-retreat","157","1203559","0.0-157.0","","","2-5","5820","38","1","Testing","Stims/Figures/87-J-10-4.bmp","papa:ka","Up","38","1","9","4","P","C","9"
"","","approach-retreat","158","1209171","0.0-158.0","","","2-5","4107","38","1","Testing","Stims/Figures/7-J-10-4.bmp","ta:paka","Up","38","1","10","4","P","C","10"
"","","approach-retreat","159","1216833","0.0-159.0","","","2-5","6155","40","0","Testing","Stims/Figures/94-J-0-2.bmp","pa:pata","Up","38","1","11","4","P","C","11"
"","","approach-retreat","160","1222542","0.0-160.0","","","2-5","4205","39","0","Testing","Stims/Figures/44-C-30-3.bmp","mamana","Right","37","1","12","4","S","C","12"
"","","approach-retreat","161","1229567","0.0-161.0","","","2-5","5521","37","1","Testing","Stims/Figures/87-C-20-4.bmp","na:mala","Right","37","1","13","4","S","C","13"
"","","approach-retreat","162","1236916","0.0-162.0","","","2-5","5845","37","1","Testing","Stims/Figures/44-J-10-3.bmp","tapa:ta","Left","37","1","14","4","P","C","14"
"","","approach-retreat","163","1245527","0.0-163.0","","","2-5","7105","37","0","Testing","Stims/Figures/85-C-20-2.bmp","na:lala","Left","39","1","15","4","S","C","15"
"","","approach-retreat","164","1251824","0.0-164.0","","","2-5","4792","39","1","Testing","Stims/Figures/144-J-10-3.bmp","takaka","Right","39","1","16","4","P","C","16"
"","","approach-retreat","165","1257643","0.0-165.0","","","2-5","4313","37","0","Testing","Stims/Figures/102-C-20-4.bmp","ma:mala","Left","39","1","17","4","S","C","17"
"","","approach-retreat","166","1264930","0.0-166.0","","","2-5","5782","37","1","Testing","Stims/Figures/118-C-20-2.bmp","ma:la:la","Right","37","1","18","4","S","C","18"
"","","approach-retreat","167","1272971","0.0-167.0","","","2-5","6533","40","1","Testing","Stims/Figures/128-J-10-3.bmp","papata","Down","40","1","19","4","P","C","19"
"","","approach-retreat","168","1282690","0.0-168.0","","","2-5","8215","38","0","Testing","Stims/Figures/7-C-20-4.bmp","mama:la","Up","40","1","20","4","S","C","20"
"","","approach-retreat","169","1288470","0.0-169.0","","","2-5","4275","38","1","Testing","Stims/Figures/86-C-30-1.bmp","ma:ma:la","Down","38","1","21","4","S","C","21"
"","","approach-retreat","170","1294593","0.0-170.0","","","2-5","4619","37","1","Testing","Stims/Figures/102-J-10-4.bmp","paka:ka","Left","37","1","22","4","P","C","22"
"","","approach-retreat","171","1300949","0.0-171.0","","","2-5","4854","38","0","Testing","Stims/Figures/71-J-0-1.bmp","tapa:ka","Down","40","1","23","4","P","C","23"
"","","approach-retreat","172","1307044","0.0-172.0","","","2-5","4591","40","0","Testing","Stims/Figures/71-C-30-1.bmp","mama:na","Down","38","1","24","4","S","C","24"
"","","approach-retreat","173","1313863","0.0-173.0","","","2-5","5314","38","1","Testing","Stims/Figures/87-C-20-4.bmp","na:mala","Down","38","2","1","4","S","C","25"
"","","approach-retreat","174","1319359","0.0-174.0","","","2-5","3991","38","0","Testing","Stims/Figures/71-J-0-1.bmp","tapa:ka","Down","40","2","2","4","P","C","26"
"","","approach-retreat","175","1339776","0.0-175.0","","","2-5","18912","39","1","Testing","Stims/Figures/86-C-30-1.bmp","ma:ma:la","Left","39","2","3","4","S","C","27"
"","","approach-retreat","176","1348015","0.0-176.0","","","2-5","6734","38","0","Testing","Stims/Figures/94-C-20-2.bmp","ma:ma:na","Up","40","2","4","4","S","C","28"
"","","approach-retreat","177","1353900","0.0-177.0","","","2-5","4380","37","1","Testing","Stims/Figures/128-C-30-3.bmp","namala","Right","37","2","5","4","S","C","29"
"","","approach-retreat","178","1359706","0.0-178.0","","","2-5","4300","37","1","Testing","Stims/Figures/85-C-20-2.bmp","na:lala","Right","37","2","6","4","S","C","30"
"","","approach-retreat","179","1365618","0.0-179.0","","","2-5","4407","37","1","Testing","Stims/Figures/71-C-30-1.bmp","mama:na","Right","37","2","7","4","S","C","31"
"","","approach-retreat","180","1371704","0.0-180.0","","","2-5","4581","37","0","Testing","Stims/Figures/7-C-20-4.bmp","mama:la","Left","39","2","8","4","S","C","32"
"","","approach-retreat","181","1377619","0.0-181.0","","","2-5","4410","39","1","Testing","Stims/Figures/44-J-10-3.bmp","tapa:ta","Right","39","2","9","4","P","C","33"
"","","approach-retreat","182","1383513","0.0-182.0","","","2-5","4389","38","0","Testing","Stims/Figures/118-C-20-2.bmp","ma:la:la","Up","40","2","10","4","S","C","34"
"","","approach-retreat","183","1389054","0.0-183.0","","","2-5","4036","37","1","Testing","Stims/Figures/118-J-0-2.bmp","ta:pa:ta","Left","37","2","11","4","P","C","35"
"","","approach-retreat","184","1394330","0.0-184.0","","","2-5","3773","39","1","Testing","Stims/Figures/144-C-30-3.bmp","nama:la","Left","39","2","12","4","S","C","36"
"","","approach-retreat","185","1399800","0.0-185.0","","","2-5","3966","38","1","Testing","Stims/Figures/27-J-0-1.bmp","tapaka","Up","38","2","13","4","P","C","37"
"","","approach-retreat","186","1405548","0.0-186.0","","","2-5","4244","37","1","Testing","Stims/Figures/7-J-10-4.bmp","ta:paka","Left","37","2","14","4","P","C","38"
"","","approach-retreat","187","1430208","0.0-187.0","","","2-5","23155","38","1","Testing","Stims/Figures/86-J-0-1.bmp","taka:ta","Up","38","2","15","4","P","C","39"
"","","approach-retreat","188","1437180","0.0-188.0","","","2-5","5467","40","0","Testing","Stims/Figures/44-C-30-3.bmp","mamana","Down","38","2","16","4","S","C","40"
"","","approach-retreat","189","1443434","0.0-189.0","","","2-5","4751","38","0","Testing","Stims/Figures/144-J-10-3.bmp","takaka","Down","40","2","17","4","P","C","41"
"","","approach-retreat","190","1449859","0.0-190.0","","","2-5","4919","38","1","Testing","Stims/Figures/94-J-0-2.bmp","pa:pata","Up","38","2","18","4","P","C","42"
"","","approach-retreat","191","1457411","0.0-191.0","","","2-5","6046","38","0","Testing","Stims/Figures/102-J-10-4.bmp","paka:ka","Down","40","2","19","4","P","C","43"
"","","approach-retreat","192","1463867","0.0-192.0","","","2-5","4953","37","1","Testing","Stims/Figures/87-J-10-4.bmp","papa:ka","Left","37","2","20","4","P","C","44"
"","","approach-retreat","193","1470456","0.0-193.0","","","2-5","5085","37","1","Testing","Stims/Figures/102-C-20-4.bmp","ma:mala","Right","37","2","21","4","S","C","45"
"","","approach-retreat","194","1475874","0.0-194.0","","","2-5","3912","38","0","Testing","Stims/Figures/85-J-0-2.bmp","ta:ka:ka","Down","40","2","22","4","P","C","46"
"","","approach-retreat","195","1483368","0.0-195.0","","","2-5","5990","38","0","Testing","Stims/Figures/27-C-30-1.bmp","nalana","Up","40","2","23","4","S","C","47"
"","","approach-retreat","196","1488821","0.0-196.0","","","2-5","3950","39","1","Testing","Stims/Figures/128-J-10-3.bmp","papata","Right","39","2","24","4","P","C","48"
"","","approach-retreat","197","1494651","0.0-197.0","","","2-5","4326","39","1","Testing","Stims/Figures/71-J-0-1.bmp","tapa:ka","Right","39","3","1","4","P","C","49"
"","","approach-retreat","198","1503411","0.0-198.0","","","2-5","7257","39","0","Testing","Stims/Figures/86-C-30-1.bmp","ma:ma:la","Right","37","3","2","4","S","C","50"
"","","approach-retreat","199","1514129","0.0-199.0","","","2-5","9215","39","0","Testing","Stims/Figures/87-C-20-4.bmp","na:mala","Right","37","3","3","4","S","C","51"
"","","approach-retreat","200","1528599","0.0-200.0","","","2-5","12966","39","0","Testing","Stims/Figures/85-J-0-2.bmp","ta:ka:ka","Left","37","3","4","4","P","C","52"
"","","approach-retreat","201","1543432","0.0-201.0","","","2-5","13330","38","1","Testing","Stims/Figures/87-J-10-4.bmp","papa:ka","Up","38","3","5","4","P","C","53"
"","","approach-retreat","202","1559504","0.0-202.0","","","2-5","14567","40","0","Testing","Stims/Figures/71-C-30-1.bmp","mama:na","Down","38","3","6","4","S","C","54"
"","","approach-retreat","203","1610027","0.0-203.0","","","2-5","49018","38","1","Testing","Stims/Figures/27-C-30-1.bmp","nalana","Down","38","3","7","4","S","C","55"
"","","approach-retreat","204","1621116","0.0-204.0","","","2-5","9585","38","1","Testing","Stims/Figures/94-C-20-2.bmp","ma:ma:na","Down","38","3","8","4","S","C","56"
"","","approach-retreat","205","1647622","0.0-205.0","","","2-5","25001","40","0","Testing","Stims/Figures/86-J-0-1.bmp","taka:ta","Up","38","3","9","4","P","C","57"
"","","approach-retreat","206","1668494","0.0-206.0","","","2-5","19368","39","1","Testing","Stims/Figures/118-C-20-2.bmp","ma:la:la","Left","39","3","10","4","S","C","58"
"","","approach-retreat","207","1684273","0.0-207.0","","","2-5","14276","39","1","Testing","Stims/Figures/102-C-20-4.bmp","ma:mala","Left","39","3","11","4","S","C","59"
"","","approach-retreat","208","1698718","0.0-208.0","","","2-5","12939","38","0","Testing","Stims/Figures/118-J-0-2.bmp","ta:pa:ta","Down","40","3","12","4","P","C","60"
"","","approach-retreat","209","1736937","0.0-209.0","","","2-5","36717","40","0","Testing","Stims/Figures/128-C-30-3.bmp","namala","Down","38","3","13","4","S","C","61"
"","","approach-retreat","210","1771101","0.0-210.0","","","2-5","32660","39","1","Testing","Stims/Figures/27-J-0-1.bmp","tapaka","Right","39","3","14","4","P","C","62"
"","","approach-retreat","211","1793412","0.0-211.0","","","2-5","20808","38","0","Testing","Stims/Figures/44-C-30-3.bmp","mamana","Up","40","3","15","4","S","C","63"
"","","approach-retreat","212","1801574","0.0-212.0","","","2-5","6658","39","0","Testing","Stims/Figures/144-J-10-3.bmp","takaka","Left","37","3","16","4","P","C","64"
"","","approach-retreat","213","1820618","0.0-213.0","","","2-5","17538","40","1","Testing","Stims/Figures/144-C-30-3.bmp","nama:la","Up","40","3","17","4","S","C","65"
"","","approach-retreat","214","1833750","0.0-214.0","","","2-5","11627","40","0","Testing","Stims/Figures/128-J-10-3.bmp","papata","Up","38","3","18","4","P","C","66"
"","","approach-retreat","215","1880645","0.0-215.0","","","2-5","45391","39","0","Testing","Stims/Figures/44-J-10-3.bmp","tapa:ta","Left","37","3","19","4","P","C","67"
"","","approach-retreat","216","1893866","0.0-216.0","","","2-5","11716","39","0","Testing","Stims/Figures/85-C-20-2.bmp","na:lala","Right","37","3","20","4","S","C","68"
"","","approach-retreat","217","1905562","0.0-217.0","","","2-5","10191","40","0","Testing","Stims/Figures/94-J-0-2.bmp","pa:pata","Up","38","3","21","4","P","C","69"
"","","approach-retreat","218","1929269","0.0-218.0","","","2-5","22203","40","1","Testing","Stims/Figures/7-J-10-4.bmp","ta:paka","Down","40","3","22","4","P","C","70"
"","","approach-retreat","219","1944795","0.0-219.0","","","2-5","14021","39","0","Testing","Stims/Figures/7-C-20-4.bmp","mama:la","Right","37","3","23","4","S","C","71"
"","","approach-retreat","220","1953084","0.0-220.0","","","2-5","6785","39","0","Testing","Stims/Figures/102-J-10-4.bmp","paka:ka","Left","37","3","24","4","P","C","72"
"","","approach-retreat","221","1962423","0.0-221.0","","","2-5","7837","40","1","Testing","Stims/Figures/71-J-0-1.bmp","tapa:ka","Down","40","4","1","4","P","C","73"
"","","approach-retreat","222","1970253","0.0-222.0","","","2-5","6324","39","1","Testing","Stims/Figures/128-J-10-3.bmp","papata","Right","39","4","2","4","P","C","74"
"","","approach-retreat","223","1987545","0.0-223.0","","","2-5","15787","38","1","Testing","Stims/Figures/102-J-10-4.bmp","paka:ka","Up","38","4","3","4","P","C","75"
"","","approach-retreat","224","2018362","0.0-224.0","","","2-5","29312","39","1","Testing","Stims/Figures/7-J-10-4.bmp","ta:paka","Right","39","4","4","4","P","C","76"
"","","approach-retreat","225","2024093","0.0-225.0","","","2-5","4227","39","1","Testing","Stims/Figures/27-C-30-1.bmp","nalana","Left","39","4","5","4","S","C","77"
"","","approach-retreat","226","2036107","0.0-226.0","","","2-5","10510","39","0","Testing","Stims/Figures/94-C-20-2.bmp","ma:ma:na","Right","37","4","6","4","S","C","78"
"","","approach-retreat","227","2041922","0.0-227.0","","","2-5","4309","39","1","Testing","Stims/Figures/118-J-0-2.bmp","ta:pa:ta","Right","39","4","7","4","P","C","79"
"","","approach-retreat","228","2049618","0.0-228.0","","","2-5","6192","40","1","Testing","Stims/Figures/102-C-20-4.bmp","ma:mala","Up","40","4","8","4","S","C","80"
"","","approach-retreat","229","2060810","0.0-229.0","","","2-5","9687","39","1","Testing","Stims/Figures/85-C-20-2.bmp","na:lala","Left","39","4","9","4","S","C","81"
"","","approach-retreat","230","2068433","0.0-230.0","","","2-5","6118","39","1","Testing","Stims/Figures/7-C-20-4.bmp","mama:la","Left","39","4","10","4","S","C","82"
"","","approach-retreat","231","2078623","0.0-231.0","","","2-5","8686","40","1","Testing","Stims/Figures/94-J-0-2.bmp","pa:pata","Down","40","4","11","4","P","C","83"
"","","approach-retreat","232","2087637","0.0-232.0","","","2-5","7509","39","0","Testing","Stims/Figures/27-J-0-1.bmp","tapaka","Left","37","4","12","4","P","C","84"
"","","approach-retreat","233","2105374","0.0-233.0","","","2-5","16232","40","0","Testing","Stims/Figures/44-J-10-3.bmp","tapa:ta","Up","38","4","13","4","P","C","85"
"","","approach-retreat","234","2151391","0.0-234.0","","","2-5","44512","40","0","Testing","Stims/Figures/144-C-30-3.bmp","nama:la","Down","38","4","14","4","S","C","86"
"","","approach-retreat","235","2158290","0.0-235.0","","","2-5","5394","39","1","Testing","Stims/Figures/144-J-10-3.bmp","takaka","Right","39","4","15","4","P","C","87"
"","","approach-retreat","236","2191701","0.0-236.0","","","2-5","31906","40","0","Testing","Stims/Figures/87-C-20-4.bmp","na:mala","Down","38","4","16","4","S","C","88"
"","","approach-retreat","237","2211725","0.0-237.0","","","2-5","18518","40","0","Testing","Stims/Figures/86-J-0-1.bmp","taka:ta","Up","38","4","17","4","P","C","89"
"","","approach-retreat","238","2222458","0.0-238.0","","","2-5","9227","39","0","Testing","Stims/Figures/86-C-30-1.bmp","ma:ma:la","Right","37","4","18","4","S","C","90"
"","","approach-retreat","239","2245572","0.0-239.0","","","2-5","21607","40","0","Testing","Stims/Figures/71-C-30-1.bmp","mama:na","Down","38","4","19","4","S","C","91"
"","","approach-retreat","240","2253915","0.0-240.0","","","2-5","6841","40","0","Testing","Stims/Figures/128-C-30-3.bmp","namala","Down","38","4","20","4","S","C","92"
"","","approach-retreat","241","2260113","0.0-241.0","","","2-5","4695","39","0","Testing","Stims/Figures/87-J-10-4.bmp","papa:ka","Left","37","4","21","4","P","C","93"
"","","approach-retreat","242","2266428","0.0-242.0","","","2-5","4810","38","0","Testing","Stims/Figures/44-C-30-3.bmp","mamana","Up","40","4","22","4","S","C","94"
"","","approach-retreat","243","2272475","0.0-243.0","","","2-5","4546","37","1","Testing","Stims/Figures/85-J-0-2.bmp","ta:ka:ka","Left","37","4","23","4","P","C","95"
"","","approach-retreat","244","2278769","0.0-244.0","","","2-5","4789","40","1","Testing","Stims/Figures/118-C-20-2.bmp","ma:la:la","Up","40","4","24","4","S","C","96"
"38108","","survey-text","245","2316879","0.0-245.0","","{""Q0"":""PS180009""}","","","","","","","","","","","","","","",""
