"rt","key_press","trial_type","trial_index","time_elapsed","internal_node_id","view_history","responses","Id","Rt","ResKeyCode","ResCorr","TrialType2","Image","Label","Location","CorrectResponse","Block","BlockTrial","Condition","LabelType","Subcondition","trialNum"
"66933","32","text","0","66937","0.0-0.0-0.0","","","","","","","","","","","","","","","","",""
"98418","","instructions","1","165357","0.0-1.0","[{""page_index"":0,""viewing_time"":98418}]","","","","","","","","","","","","","","","",""
"25262","","survey-multi-choice","2","190656","0.0-2.0","","{""Q0"":""Da"",""Q1"":""Da"",""Q2"":""Da"",""Q3"":""Da"",""Q4"":""Da"",""Q5"":""Da""}","","","","","","","","","","","","","","",""
"","","bio","3","198618","0.0-3.0","","{""age"":""20"",""gender"":""f"",""specify"":""""}","","","","","","","","","","","","","","",""
"","","approach-retreat","4","211370","0.0-4.0","","","2-5","11230","39","1","Training","Stims/Figures/93-J-0-1.bmp","pa:ka:ta","Right","39","1","1","4","P","C","1"
"","","approach-retreat","5","219976","0.0-5.0","","","2-5","7099","40","1","Training","Stims/Figures/144-C-30-3.bmp","nala:la","Up","40","1","2","4","S","C","2"
"","","approach-retreat","6","228543","0.0-6.0","","","2-5","7058","39","1","Training","Stims/Figures/139-C-20-2.bmp","ma:mala","Left","39","1","3","4","S","C","3"
"","","approach-retreat","7","236068","0.0-7.0","","","2-5","6015","40","0","Training","Stims/Figures/139-J-0-2.bmp","ta:ka:ta","Up","38","1","4","4","P","C","4"
"","","approach-retreat","8","243268","0.0-8.0","","","2-5","5694","39","0","Training","Stims/Figures/44-J-10-3.bmp","pa:kaka","Left","37","1","5","4","P","C","5"
"","","approach-retreat","9","250020","0.0-9.0","","","2-5","5246","37","0","Training","Stims/Figures/93-C-30-1.bmp","na:ma:na","Left","39","1","6","4","S","C","6"
"","","approach-retreat","10","256830","0.0-10.0","","","2-5","5304","39","1","Training","Stims/Figures/85-C-20-2.bmp","mala:na","Left","39","1","7","4","S","C","7"
"","","approach-retreat","11","263001","0.0-11.0","","","2-5","4664","37","0","Training","Stims/Figures/87-J-10-4.bmp","papa:ta","Right","39","1","8","4","P","C","8"
"","","approach-retreat","12","269639","0.0-12.0","","","2-5","5132","38","1","Training","Stims/Figures/71-C-30-1.bmp","mama:la","Down","38","1","9","4","S","C","9"
"","","approach-retreat","13","276126","0.0-13.0","","","2-5","4981","37","1","Training","Stims/Figures/87-C-20-4.bmp","ma:lala","Right","37","1","10","4","S","C","10"
"","","approach-retreat","14","282262","0.0-14.0","","","2-5","4630","37","1","Training","Stims/Figures/44-C-30-3.bmp","nala:na","Right","37","1","11","4","S","C","11"
"","","approach-retreat","15","288976","0.0-15.0","","","2-5","5208","40","0","Training","Stims/Figures/144-J-10-3.bmp","ta:pata","Up","38","1","12","4","P","C","12"
"","","approach-retreat","16","295433","0.0-16.0","","","2-5","4952","40","1","Training","Stims/Figures/85-J-0-2.bmp","pakata","Down","40","1","13","4","P","C","13"
"","","approach-retreat","17","301546","0.0-17.0","","","2-5","4607","40","0","Training","Stims/Figures/74-C-20-4.bmp","malala","Down","38","1","14","4","S","C","14"
"","","approach-retreat","18","308158","0.0-18.0","","","2-5","5106","38","0","Training","Stims/Figures/71-J-0-1.bmp","ta:pa:ta","Down","40","1","15","4","P","C","15"
"","","approach-retreat","19","314610","0.0-19.0","","","2-5","4946","38","1","Training","Stims/Figures/74-J-10-4.bmp","tapaka","Up","38","1","16","4","P","C","16"
"","","approach-retreat","20","320697","0.0-20.0","","","2-5","4581","38","1","Training","Stims/Figures/71-J-0-1.bmp","ta:pa:ta","Up","38","2","1","4","P","C","17"
"","","approach-retreat","21","327534","0.0-21.0","","","2-5","5331","39","0","Training","Stims/Figures/144-J-10-3.bmp","ta:pata","Left","37","2","2","4","P","C","18"
"","","approach-retreat","22","333844","0.0-22.0","","","2-5","4804","37","0","Training","Stims/Figures/87-C-20-4.bmp","ma:lala","Left","39","2","3","4","S","C","19"
"","","approach-retreat","23","340466","0.0-23.0","","","2-5","5117","39","1","Training","Stims/Figures/74-J-10-4.bmp","tapaka","Right","39","2","4","4","P","C","20"
"","","approach-retreat","24","368491","0.0-24.0","","","2-5","26519","37","1","Training","Stims/Figures/71-C-30-1.bmp","mama:la","Right","37","2","5","4","S","C","21"
"","","approach-retreat","25","384112","0.0-25.0","","","2-5","14115","38","1","Training","Stims/Figures/44-C-30-3.bmp","nala:na","Down","38","2","6","4","S","C","22"
"","","approach-retreat","26","392000","0.0-26.0","","","2-5","6382","38","0","Training","Stims/Figures/139-C-20-2.bmp","ma:mala","Up","40","2","7","4","S","C","23"
"","","approach-retreat","27","400274","0.0-27.0","","","2-5","6768","39","1","Training","Stims/Figures/85-J-0-2.bmp","pakata","Right","39","2","8","4","P","C","24"
"","","approach-retreat","28","406750","0.0-28.0","","","2-5","4970","39","1","Training","Stims/Figures/87-J-10-4.bmp","papa:ta","Right","39","2","9","4","P","C","25"
"","","approach-retreat","29","415073","0.0-29.0","","","2-5","6817","40","0","Training","Stims/Figures/85-C-20-2.bmp","mala:na","Down","38","2","10","4","S","C","26"
"","","approach-retreat","30","423250","0.0-30.0","","","2-5","6671","38","1","Training","Stims/Figures/93-J-0-1.bmp","pa:ka:ta","Up","38","2","11","4","P","C","27"
"","","approach-retreat","31","430848","0.0-31.0","","","2-5","6092","37","0","Training","Stims/Figures/74-C-20-4.bmp","malala","Left","39","2","12","4","S","C","28"
"","","approach-retreat","32","456065","0.0-32.0","","","2-5","23711","39","1","Training","Stims/Figures/93-C-30-1.bmp","na:ma:na","Left","39","2","13","4","S","C","29"
"","","approach-retreat","33","463116","0.0-33.0","","","2-5","5545","40","0","Training","Stims/Figures/144-C-30-3.bmp","nala:la","Down","38","2","14","4","S","C","30"
"","","approach-retreat","34","470386","0.0-34.0","","","2-5","5764","40","0","Training","Stims/Figures/44-J-10-3.bmp","pa:kaka","Up","38","2","15","4","P","C","31"
"","","approach-retreat","35","477148","0.0-35.0","","","2-5","5256","40","1","Training","Stims/Figures/139-J-0-2.bmp","ta:ka:ta","Down","40","2","16","4","P","C","32"
"","","approach-retreat","36","483138","0.0-36.0","","","2-5","4484","40","1","Training","Stims/Figures/74-J-10-4.bmp","tapaka","Down","40","3","1","4","P","C","33"
"","","approach-retreat","37","489367","0.0-37.0","","","2-5","4722","40","0","Training","Stims/Figures/144-J-10-3.bmp","ta:pata","Up","38","3","2","4","P","C","34"
"","","approach-retreat","38","495902","0.0-38.0","","","2-5","5028","38","0","Training","Stims/Figures/87-C-20-4.bmp","ma:lala","Up","40","3","3","4","S","C","35"
"","","approach-retreat","39","502251","0.0-39.0","","","2-5","4842","37","1","Training","Stims/Figures/87-J-10-4.bmp","papa:ta","Left","37","3","4","4","P","C","36"
"","","approach-retreat","40","510147","0.0-40.0","","","2-5","6390","40","0","Training","Stims/Figures/44-C-30-3.bmp","nala:na","Down","38","3","5","4","S","C","37"
"","","approach-retreat","41","516870","0.0-41.0","","","2-5","5217","38","1","Training","Stims/Figures/85-J-0-2.bmp","pakata","Up","38","3","6","4","P","C","38"
"","","approach-retreat","42","523286","0.0-42.0","","","2-5","4910","39","1","Training","Stims/Figures/93-J-0-1.bmp","pa:ka:ta","Right","39","3","7","4","P","C","39"
"","","approach-retreat","43","529229","0.0-43.0","","","2-5","4437","37","1","Training","Stims/Figures/71-J-0-1.bmp","ta:pa:ta","Left","37","3","8","4","P","C","40"
"","","approach-retreat","44","535883","0.0-44.0","","","2-5","5148","39","0","Training","Stims/Figures/93-C-30-1.bmp","na:ma:na","Right","37","3","9","4","S","C","41"
"","","approach-retreat","45","541944","0.0-45.0","","","2-5","4555","39","0","Training","Stims/Figures/74-C-20-4.bmp","malala","Right","37","3","10","4","S","C","42"
"","","approach-retreat","46","548159","0.0-46.0","","","2-5","4709","40","1","Training","Stims/Figures/139-J-0-2.bmp","ta:ka:ta","Down","40","3","11","4","P","C","43"
"","","approach-retreat","47","554201","0.0-47.0","","","2-5","4536","38","1","Training","Stims/Figures/44-J-10-3.bmp","pa:kaka","Up","38","3","12","4","P","C","44"
"","","approach-retreat","48","560367","0.0-48.0","","","2-5","4660","37","0","Training","Stims/Figures/139-C-20-2.bmp","ma:mala","Left","39","3","13","4","S","C","45"
"","","approach-retreat","49","567575","0.0-49.0","","","2-5","5703","37","1","Training","Stims/Figures/85-C-20-2.bmp","mala:na","Right","37","3","14","4","S","C","46"
"","","approach-retreat","50","574654","0.0-50.0","","","2-5","5573","38","1","Training","Stims/Figures/144-C-30-3.bmp","nala:la","Down","38","3","15","4","S","C","47"
"","","approach-retreat","51","580961","0.0-51.0","","","2-5","4801","37","0","Training","Stims/Figures/71-C-30-1.bmp","mama:la","Left","39","3","16","4","S","C","48"
"","","approach-retreat","52","587099","0.0-52.0","","","2-5","4632","37","1","Training","Stims/Figures/74-J-10-4.bmp","tapaka","Left","37","4","1","4","P","C","49"
"","","approach-retreat","53","593224","0.0-53.0","","","2-5","4619","38","0","Training","Stims/Figures/144-J-10-3.bmp","ta:pata","Down","40","4","2","4","P","C","50"
"","","approach-retreat","54","599686","0.0-54.0","","","2-5","4956","40","1","Training","Stims/Figures/93-C-30-1.bmp","na:ma:na","Up","40","4","3","4","S","C","51"
"","","approach-retreat","55","605705","0.0-55.0","","","2-5","4513","37","1","Training","Stims/Figures/85-C-20-2.bmp","mala:na","Right","37","4","4","4","S","C","52"
"","","approach-retreat","56","611844","0.0-56.0","","","2-5","4633","38","1","Training","Stims/Figures/74-C-20-4.bmp","malala","Down","38","4","5","4","S","C","53"
"","","approach-retreat","57","617669","0.0-57.0","","","2-5","4319","38","1","Training","Stims/Figures/87-J-10-4.bmp","papa:ta","Up","38","4","6","4","P","C","54"
"","","approach-retreat","58","623710","0.0-58.0","","","2-5","4535","37","1","Training","Stims/Figures/139-C-20-2.bmp","ma:mala","Right","37","4","7","4","S","C","55"
"","","approach-retreat","59","630178","0.0-59.0","","","2-5","4962","39","0","Training","Stims/Figures/44-J-10-3.bmp","pa:kaka","Left","37","4","8","4","P","C","56"
"","","approach-retreat","60","637194","0.0-60.0","","","2-5","5510","40","1","Training","Stims/Figures/71-J-0-1.bmp","ta:pa:ta","Down","40","4","9","4","P","C","57"
"","","approach-retreat","61","645777","0.0-61.0","","","2-5","7077","39","1","Training","Stims/Figures/139-J-0-2.bmp","ta:ka:ta","Right","39","4","10","4","P","C","58"
"","","approach-retreat","62","652518","0.0-62.0","","","2-5","5235","39","1","Training","Stims/Figures/85-J-0-2.bmp","pakata","Right","39","4","11","4","P","C","59"
"","","approach-retreat","63","659742","0.0-63.0","","","2-5","5717","38","1","Training","Stims/Figures/44-C-30-3.bmp","nala:na","Down","38","4","12","4","S","C","60"
"","","approach-retreat","64","666736","0.0-64.0","","","2-5","5488","38","1","Training","Stims/Figures/93-J-0-1.bmp","pa:ka:ta","Up","38","4","13","4","P","C","61"
"","","approach-retreat","65","673449","0.0-65.0","","","2-5","5206","39","1","Training","Stims/Figures/87-C-20-4.bmp","ma:lala","Left","39","4","14","4","S","C","62"
"","","approach-retreat","66","679759","0.0-66.0","","","2-5","4804","37","0","Training","Stims/Figures/144-C-30-3.bmp","nala:la","Left","39","4","15","4","S","C","63"
"","","approach-retreat","67","686267","0.0-67.0","","","2-5","5002","40","1","Training","Stims/Figures/71-C-30-1.bmp","mama:la","Up","40","4","16","4","S","C","64"
"","","approach-retreat","68","692418","0.0-68.0","","","2-5","4645","38","1","Training","Stims/Figures/74-J-10-4.bmp","tapaka","Up","38","5","1","4","P","C","65"
"","","approach-retreat","69","698640","0.0-69.0","","","2-5","4716","39","1","Training","Stims/Figures/139-C-20-2.bmp","ma:mala","Left","39","5","2","4","S","C","66"
"","","approach-retreat","70","704774","0.0-70.0","","","2-5","4629","40","1","Training","Stims/Figures/44-C-30-3.bmp","nala:na","Up","40","5","3","4","S","C","67"
"","","approach-retreat","71","712382","0.0-71.0","","","2-5","6102","39","1","Training","Stims/Figures/144-J-10-3.bmp","ta:pata","Right","39","5","4","4","P","C","68"
"","","approach-retreat","72","719467","0.0-72.0","","","2-5","5579","40","1","Training","Stims/Figures/87-J-10-4.bmp","papa:ta","Down","40","5","5","4","P","C","69"
"","","approach-retreat","73","725380","0.0-73.0","","","2-5","4407","40","0","Training","Stims/Figures/87-C-20-4.bmp","ma:lala","Down","38","5","6","4","S","C","70"
"","","approach-retreat","74","731511","0.0-74.0","","","2-5","4625","37","1","Training","Stims/Figures/85-J-0-2.bmp","pakata","Left","37","5","7","4","P","C","71"
"","","approach-retreat","75","737661","0.0-75.0","","","2-5","4644","40","1","Training","Stims/Figures/71-J-0-1.bmp","ta:pa:ta","Down","40","5","8","4","P","C","72"
"","","approach-retreat","76","744382","0.0-76.0","","","2-5","5216","37","1","Training","Stims/Figures/85-C-20-2.bmp","mala:na","Right","37","5","9","4","S","C","73"
"","","approach-retreat","77","751308","0.0-77.0","","","2-5","5420","40","1","Training","Stims/Figures/144-C-30-3.bmp","nala:la","Up","40","5","10","4","S","C","74"
"","","approach-retreat","78","758043","0.0-78.0","","","2-5","5229","39","0","Training","Stims/Figures/71-C-30-1.bmp","mama:la","Right","37","5","11","4","S","C","75"
"","","approach-retreat","79","764345","0.0-79.0","","","2-5","4796","38","1","Training","Stims/Figures/139-J-0-2.bmp","ta:ka:ta","Up","38","5","12","4","P","C","76"
"","","approach-retreat","80","770538","0.0-80.0","","","2-5","4687","39","1","Training","Stims/Figures/74-C-20-4.bmp","malala","Left","39","5","13","4","S","C","77"
"","","approach-retreat","81","776620","0.0-81.0","","","2-5","4576","39","1","Training","Stims/Figures/93-J-0-1.bmp","pa:ka:ta","Right","39","5","14","4","P","C","78"
"","","approach-retreat","82","782646","0.0-82.0","","","2-5","4521","37","1","Training","Stims/Figures/44-J-10-3.bmp","pa:kaka","Left","37","5","15","4","P","C","79"
"","","approach-retreat","83","788630","0.0-83.0","","","2-5","4478","38","1","Training","Stims/Figures/93-C-30-1.bmp","na:ma:na","Down","38","5","16","4","S","C","80"
"","","approach-retreat","84","794725","0.0-84.0","","","2-5","4589","37","0","Training","Stims/Figures/74-J-10-4.bmp","tapaka","Right","39","6","1","4","P","C","81"
"","","approach-retreat","85","801004","0.0-85.0","","","2-5","4773","38","0","Training","Stims/Figures/71-C-30-1.bmp","mama:la","Up","40","6","2","4","S","C","82"
"","","approach-retreat","86","807451","0.0-86.0","","","2-5","4941","40","1","Training","Stims/Figures/87-J-10-4.bmp","papa:ta","Down","40","6","3","4","P","C","83"
"","","approach-retreat","87","813665","0.0-87.0","","","2-5","4708","39","1","Training","Stims/Figures/85-J-0-2.bmp","pakata","Right","39","6","4","4","P","C","84"
"","","approach-retreat","88","819887","0.0-88.0","","","2-5","4716","40","1","Training","Stims/Figures/74-C-20-4.bmp","malala","Up","40","6","5","4","S","C","85"
"","","approach-retreat","89","827655","0.0-89.0","","","2-5","6262","38","1","Training","Stims/Figures/44-C-30-3.bmp","nala:na","Down","38","6","6","4","S","C","86"
"","","approach-retreat","90","833644","0.0-90.0","","","2-5","4484","38","1","Training","Stims/Figures/85-C-20-2.bmp","mala:na","Down","38","6","7","4","S","C","87"
"","","approach-retreat","91","839511","0.0-91.0","","","2-5","4361","38","0","Training","Stims/Figures/44-J-10-3.bmp","pa:kaka","Down","40","6","8","4","P","C","88"
"","","approach-retreat","92","845713","0.0-92.0","","","2-5","4695","40","1","Training","Stims/Figures/139-C-20-2.bmp","ma:mala","Up","40","6","9","4","S","C","89"
"","","approach-retreat","93","851641","0.0-93.0","","","2-5","4422","37","0","Training","Stims/Figures/87-C-20-4.bmp","ma:lala","Left","39","6","10","4","S","C","90"
"","","approach-retreat","94","857845","0.0-94.0","","","2-5","4699","40","0","Training","Stims/Figures/144-J-10-3.bmp","ta:pata","Up","38","6","11","4","P","C","91"
"","","approach-retreat","95","864203","0.0-95.0","","","2-5","4853","37","1","Training","Stims/Figures/93-J-0-1.bmp","pa:ka:ta","Left","37","6","12","4","P","C","92"
"","","approach-retreat","96","870282","0.0-96.0","","","2-5","4573","37","1","Training","Stims/Figures/71-J-0-1.bmp","ta:pa:ta","Left","37","6","13","4","P","C","93"
"","","approach-retreat","97","876160","0.0-97.0","","","2-5","4372","37","1","Training","Stims/Figures/139-J-0-2.bmp","ta:ka:ta","Left","37","6","14","4","P","C","94"
"","","approach-retreat","98","882810","0.0-98.0","","","2-5","5144","39","0","Training","Stims/Figures/144-C-30-3.bmp","nala:la","Right","37","6","15","4","S","C","95"
"","","approach-retreat","99","888664","0.0-99.0","","","2-5","4348","37","1","Training","Stims/Figures/93-C-30-1.bmp","na:ma:na","Right","37","6","16","4","S","C","96"
"","","approach-retreat","100","895052","0.0-100.0","","","2-5","4882","38","1","Training","Stims/Figures/44-J-10-3.bmp","pa:kaka","Up","38","7","1","4","P","C","97"
"","","approach-retreat","101","901244","0.0-101.0","","","2-5","4686","40","1","Training","Stims/Figures/85-J-0-2.bmp","pakata","Down","40","7","2","4","P","C","98"
"","","approach-retreat","102","907781","0.0-102.0","","","2-5","5030","38","0","Training","Stims/Figures/44-C-30-3.bmp","nala:na","Up","40","7","3","4","S","C","99"
"","","approach-retreat","103","914159","0.0-103.0","","","2-5","4872","38","1","Training","Stims/Figures/74-C-20-4.bmp","malala","Down","38","7","4","4","S","C","100"
"","","approach-retreat","104","922702","0.0-104.0","","","2-5","7037","39","1","Training","Stims/Figures/144-J-10-3.bmp","ta:pata","Right","39","7","5","4","P","C","101"
"","","approach-retreat","105","929006","0.0-105.0","","","2-5","4798","37","0","Training","Stims/Figures/144-C-30-3.bmp","nala:la","Left","39","7","6","4","S","C","102"
"","","approach-retreat","106","935505","0.0-106.0","","","2-5","4993","37","1","Training","Stims/Figures/74-J-10-4.bmp","tapaka","Left","37","7","7","4","P","C","103"
"","","approach-retreat","107","942005","0.0-107.0","","","2-5","4994","38","0","Training","Stims/Figures/71-C-30-1.bmp","mama:la","Up","40","7","8","4","S","C","104"
"","","approach-retreat","108","948342","0.0-108.0","","","2-5","4831","37","1","Training","Stims/Figures/139-C-20-2.bmp","ma:mala","Right","37","7","9","4","S","C","105"
"","","approach-retreat","109","954328","0.0-109.0","","","2-5","4480","38","0","Training","Stims/Figures/87-J-10-4.bmp","papa:ta","Down","40","7","10","4","P","C","106"
"","","approach-retreat","110","961723","0.0-110.0","","","2-5","5889","39","1","Training","Stims/Figures/93-J-0-1.bmp","pa:ka:ta","Right","39","7","11","4","P","C","107"
"","","approach-retreat","111","968091","0.0-111.0","","","2-5","4859","39","1","Training","Stims/Figures/71-J-0-1.bmp","ta:pa:ta","Right","39","7","12","4","P","C","108"
"","","approach-retreat","112","974047","0.0-112.0","","","2-5","4450","38","0","Training","Stims/Figures/85-C-20-2.bmp","mala:na","Up","40","7","13","4","S","C","109"
"","","approach-retreat","113","980034","0.0-113.0","","","2-5","4480","40","1","Training","Stims/Figures/139-J-0-2.bmp","ta:ka:ta","Down","40","7","14","4","P","C","110"
"","","approach-retreat","114","986096","0.0-114.0","","","2-5","4556","37","0","Training","Stims/Figures/93-C-30-1.bmp","na:ma:na","Left","39","7","15","4","S","C","111"
"","","approach-retreat","115","991879","0.0-115.0","","","2-5","4277","39","1","Training","Stims/Figures/87-C-20-4.bmp","ma:lala","Left","39","7","16","4","S","C","112"
"","","approach-retreat","116","998241","0.0-116.0","","","2-5","4856","37","1","Training","Stims/Figures/144-C-30-3.bmp","nala:la","Right","37","8","1","4","S","C","113"
"","","approach-retreat","117","1004231","0.0-117.0","","","2-5","4484","37","1","Training","Stims/Figures/93-J-0-1.bmp","pa:ka:ta","Left","37","8","2","4","P","C","114"
"","","approach-retreat","118","1010830","0.0-118.0","","","2-5","5093","39","1","Training","Stims/Figures/87-C-20-4.bmp","ma:lala","Left","39","8","3","4","S","C","115"
"","","approach-retreat","119","1016804","0.0-119.0","","","2-5","4465","38","1","Training","Stims/Figures/44-C-30-3.bmp","nala:na","Down","38","8","4","4","S","C","116"
"","","approach-retreat","120","1022733","0.0-120.0","","","2-5","4422","40","1","Training","Stims/Figures/74-C-20-4.bmp","malala","Up","40","8","5","4","S","C","117"
"","","approach-retreat","121","1030123","0.0-121.0","","","2-5","5884","38","1","Training","Stims/Figures/85-J-0-2.bmp","pakata","Up","38","8","6","4","P","C","118"
"","","approach-retreat","122","1036152","0.0-122.0","","","2-5","4523","37","1","Training","Stims/Figures/85-C-20-2.bmp","mala:na","Right","37","8","7","4","S","C","119"
"","","approach-retreat","123","1041786","0.0-123.0","","","2-5","4128","37","1","Training","Stims/Figures/71-C-30-1.bmp","mama:la","Right","37","8","8","4","S","C","120"
"","","approach-retreat","124","1048322","0.0-124.0","","","2-5","5030","39","1","Training","Stims/Figures/139-C-20-2.bmp","ma:mala","Left","39","8","9","4","S","C","121"
"","","approach-retreat","125","1054206","0.0-125.0","","","2-5","4378","40","0","Training","Stims/Figures/74-J-10-4.bmp","tapaka","Up","38","8","10","4","P","C","122"
"","","approach-retreat","126","1061102","0.0-126.0","","","2-5","5390","37","0","Training","Stims/Figures/87-J-10-4.bmp","papa:ta","Right","39","8","11","4","P","C","123"
"","","approach-retreat","127","1067716","0.0-127.0","","","2-5","5108","40","1","Training","Stims/Figures/144-J-10-3.bmp","ta:pata","Down","40","8","12","4","P","C","124"
"","","approach-retreat","128","1073658","0.0-128.0","","","2-5","4436","37","1","Training","Stims/Figures/139-J-0-2.bmp","ta:ka:ta","Left","37","8","13","4","P","C","125"
"","","approach-retreat","129","1079995","0.0-129.0","","","2-5","4831","38","1","Training","Stims/Figures/71-J-0-1.bmp","ta:pa:ta","Up","38","8","14","4","P","C","126"
"","","approach-retreat","130","1085780","0.0-130.0","","","2-5","4278","38","0","Training","Stims/Figures/44-J-10-3.bmp","pa:kaka","Down","40","8","15","4","P","C","127"
"","","approach-retreat","131","1092314","0.0-131.0","","","2-5","5028","38","1","Training","Stims/Figures/93-C-30-1.bmp","na:ma:na","Down","38","8","16","4","S","C","128"
"","","approach-retreat","132","1098292","0.0-132.0","","","2-5","4473","37","0","Training","Stims/Figures/74-J-10-4.bmp","tapaka","Right","39","9","1","4","P","C","129"
"","","approach-retreat","133","1104441","0.0-133.0","","","2-5","4644","37","1","Training","Stims/Figures/44-J-10-3.bmp","pa:kaka","Left","37","9","2","4","P","C","130"
"","","approach-retreat","134","1110204","0.0-134.0","","","2-5","4257","38","1","Training","Stims/Figures/74-C-20-4.bmp","malala","Down","38","9","3","4","S","C","131"
"","","approach-retreat","135","1116093","0.0-135.0","","","2-5","4382","38","1","Training","Stims/Figures/144-J-10-3.bmp","ta:pata","Up","38","9","4","4","P","C","132"
"","","approach-retreat","136","1121876","0.0-136.0","","","2-5","4277","38","0","Training","Stims/Figures/85-J-0-2.bmp","pakata","Down","40","9","5","4","P","C","133"
"","","approach-retreat","137","1127671","0.0-137.0","","","2-5","4289","38","0","Training","Stims/Figures/71-C-30-1.bmp","mama:la","Up","40","9","6","4","S","C","134"
"","","approach-retreat","138","1133617","0.0-138.0","","","2-5","4440","39","1","Training","Stims/Figures/44-C-30-3.bmp","nala:na","Left","39","9","7","4","S","C","135"
"","","approach-retreat","139","1139729","0.0-139.0","","","2-5","4606","40","1","Training","Stims/Figures/87-C-20-4.bmp","ma:lala","Up","40","9","8","4","S","C","136"
"","","approach-retreat","140","1146381","0.0-140.0","","","2-5","5146","37","1","Training","Stims/Figures/144-C-30-3.bmp","nala:la","Right","37","9","9","4","S","C","137"
"","","approach-retreat","141","1152167","0.0-141.0","","","2-5","4280","38","1","Training","Stims/Figures/85-C-20-2.bmp","mala:na","Down","38","9","10","4","S","C","138"
"","","approach-retreat","142","1158154","0.0-142.0","","","2-5","4481","39","1","Training","Stims/Figures/139-J-0-2.bmp","ta:ka:ta","Right","39","9","11","4","P","C","139"
"","","approach-retreat","143","1164765","0.0-143.0","","","2-5","5105","38","0","Training","Stims/Figures/93-C-30-1.bmp","na:ma:na","Up","40","9","12","4","S","C","140"
"","","approach-retreat","144","1171347","0.0-144.0","","","2-5","5076","39","1","Training","Stims/Figures/93-J-0-1.bmp","pa:ka:ta","Right","39","9","13","4","P","C","141"
"","","approach-retreat","145","1179060","0.0-145.0","","","2-5","6207","40","1","Training","Stims/Figures/71-J-0-1.bmp","ta:pa:ta","Down","40","9","14","4","P","C","142"
"","","approach-retreat","146","1185074","0.0-146.0","","","2-5","4508","37","1","Training","Stims/Figures/87-J-10-4.bmp","papa:ta","Left","37","9","15","4","P","C","143"
"","","approach-retreat","147","1191347","0.0-147.0","","","2-5","4767","39","1","Training","Stims/Figures/139-C-20-2.bmp","ma:mala","Left","39","9","16","4","S","C","144"
"42663","","instructions","148","1234010","0.0-148.0","[{""page_index"":0,""viewing_time"":42663}]","","","","","","","","","","","","","","","",""
"","","approach-retreat","149","1241744","0.0-149.0","","","2-5","6230","40","1","Testing","Stims/Figures/144-C-30-3.bmp","nala:la","Up","40","1","1","4","S","C","1"
"","","approach-retreat","150","1250117","0.0-150.0","","","2-5","6868","39","0","Testing","Stims/Figures/71-C-30-1.bmp","mama:la","Right","37","1","2","4","S","C","2"
"","","approach-retreat","151","1256688","0.0-151.0","","","2-5","5066","37","1","Testing","Stims/Figures/139-J-0-2.bmp","ta:ka:ta","Left","37","1","3","4","P","C","3"
"","","approach-retreat","152","1262637","0.0-152.0","","","2-5","4445","38","1","Testing","Stims/Figures/87-C-20-4.bmp","ma:lala","Down","38","1","4","4","S","C","4"
"","","approach-retreat","153","1269332","0.0-153.0","","","2-5","5191","39","1","Testing","Stims/Figures/139-C-20-2.bmp","ma:mala","Left","39","1","5","4","S","C","5"
"","","approach-retreat","154","1276771","0.0-154.0","","","2-5","5935","39","1","Testing","Stims/Figures/71-J-0-1.bmp","ta:pa:ta","Right","39","1","6","4","P","C","6"
"","","approach-retreat","155","1284279","0.0-155.0","","","2-5","6004","39","1","Testing","Stims/Figures/27-C-30-1.bmp","namala","Left","39","1","7","4","S","C","7"
"","","approach-retreat","156","1290572","0.0-156.0","","","2-5","4789","40","1","Testing","Stims/Figures/44-J-10-3.bmp","pa:kaka","Down","40","1","8","4","P","C","8"
"","","approach-retreat","157","1297129","0.0-157.0","","","2-5","5053","40","1","Testing","Stims/Figures/74-C-20-4.bmp","malala","Up","40","1","9","4","S","C","9"
"","","approach-retreat","158","1303262","0.0-158.0","","","2-5","4628","40","1","Testing","Stims/Figures/94-C-20-2.bmp","nama:na","Up","40","1","10","4","S","C","10"
"","","approach-retreat","159","1310323","0.0-159.0","","","2-5","5557","39","1","Testing","Stims/Figures/27-J-0-1.bmp","ta:pa:ka","Right","39","1","11","4","P","C","11"
"","","approach-retreat","160","1317006","0.0-160.0","","","2-5","5178","37","1","Testing","Stims/Figures/85-J-0-2.bmp","pakata","Left","37","1","12","4","P","C","12"
"","","approach-retreat","161","1323322","0.0-161.0","","","2-5","4812","40","1","Testing","Stims/Figures/44-C-30-3.bmp","nala:na","Up","40","1","13","4","S","C","13"
"","","approach-retreat","162","1329767","0.0-162.0","","","2-5","4941","40","1","Testing","Stims/Figures/144-J-10-3.bmp","ta:pata","Down","40","1","14","4","P","C","14"
"","","approach-retreat","163","1335894","0.0-163.0","","","2-5","4623","37","1","Testing","Stims/Figures/128-C-30-3.bmp","na:la:na","Right","37","1","15","4","S","C","15"
"","","approach-retreat","164","1343186","0.0-164.0","","","2-5","5788","39","0","Testing","Stims/Figures/74-J-10-4.bmp","tapaka","Left","37","1","16","4","P","C","16"
"","","approach-retreat","165","1349194","0.0-165.0","","","2-5","4502","38","0","Testing","Stims/Figures/7-J-10-4.bmp","taka:ta","Down","40","1","17","4","P","C","17"
"","","approach-retreat","166","1357200","0.0-166.0","","","2-5","6501","40","1","Testing","Stims/Figures/87-J-10-4.bmp","papa:ta","Down","40","1","18","4","P","C","18"
"","","approach-retreat","167","1365607","0.0-167.0","","","2-5","6898","39","1","Testing","Stims/Figures/94-J-0-2.bmp","papata","Right","39","1","19","4","P","C","19"
"","","approach-retreat","168","1371744","0.0-168.0","","","2-5","4633","40","1","Testing","Stims/Figures/7-C-20-4.bmp","ma:lana","Up","40","1","20","4","S","C","20"
"","","approach-retreat","169","1377804","0.0-169.0","","","2-5","4556","38","0","Testing","Stims/Figures/128-J-10-3.bmp","pa:ka:ka","Down","40","1","21","4","P","C","21"
"","","approach-retreat","170","1384433","0.0-170.0","","","2-5","5125","37","0","Testing","Stims/Figures/93-J-0-1.bmp","pa:ka:ta","Right","39","1","22","4","P","C","22"
"","","approach-retreat","171","1390586","0.0-171.0","","","2-5","4649","40","1","Testing","Stims/Figures/93-C-30-1.bmp","na:ma:na","Up","40","1","23","4","S","C","23"
"","","approach-retreat","172","1396650","0.0-172.0","","","2-5","4560","39","1","Testing","Stims/Figures/85-C-20-2.bmp","mala:na","Left","39","1","24","4","S","C","24"
"","","approach-retreat","173","1403939","0.0-173.0","","","2-5","5785","39","1","Testing","Stims/Figures/87-J-10-4.bmp","papa:ta","Right","39","2","1","4","P","C","25"
"","","approach-retreat","174","1409981","0.0-174.0","","","2-5","4538","40","1","Testing","Stims/Figures/44-C-30-3.bmp","nala:na","Up","40","2","2","4","S","C","26"
"","","approach-retreat","175","1416057","0.0-175.0","","","2-5","4572","38","1","Testing","Stims/Figures/71-J-0-1.bmp","ta:pa:ta","Up","38","2","3","4","P","C","27"
"","","approach-retreat","176","1422529","0.0-176.0","","","2-5","4968","37","1","Testing","Stims/Figures/74-C-20-4.bmp","malala","Right","37","2","4","4","S","C","28"
"","","approach-retreat","177","1429059","0.0-177.0","","","2-5","5026","37","1","Testing","Stims/Figures/94-C-20-2.bmp","nama:na","Right","37","2","5","4","S","C","29"
"","","approach-retreat","178","1435701","0.0-178.0","","","2-5","5138","38","1","Testing","Stims/Figures/139-J-0-2.bmp","ta:ka:ta","Up","38","2","6","4","P","C","30"
"","","approach-retreat","179","1445370","0.0-179.0","","","2-5","8165","38","0","Testing","Stims/Figures/71-C-30-1.bmp","mama:la","Up","40","2","7","4","S","C","31"
"","","approach-retreat","180","1463671","0.0-180.0","","","2-5","16797","39","0","Testing","Stims/Figures/144-C-30-3.bmp","nala:la","Right","37","2","8","4","S","C","32"
"","","approach-retreat","181","1480808","0.0-181.0","","","2-5","15633","40","1","Testing","Stims/Figures/128-C-30-3.bmp","na:la:na","Up","40","2","9","4","S","C","33"
"","","approach-retreat","182","1490506","0.0-182.0","","","2-5","8193","39","0","Testing","Stims/Figures/7-C-20-4.bmp","ma:lana","Right","37","2","10","4","S","C","34"
"","","approach-retreat","183","1498319","0.0-183.0","","","2-5","6309","40","1","Testing","Stims/Figures/27-J-0-1.bmp","ta:pa:ka","Down","40","2","11","4","P","C","35"
"","","approach-retreat","184","1507138","0.0-184.0","","","2-5","7315","38","1","Testing","Stims/Figures/94-J-0-2.bmp","papata","Up","38","2","12","4","P","C","36"
"","","approach-retreat","185","1513258","0.0-185.0","","","2-5","4615","39","1","Testing","Stims/Figures/27-C-30-1.bmp","namala","Left","39","2","13","4","S","C","37"
"","","approach-retreat","186","1521784","0.0-186.0","","","2-5","7021","38","1","Testing","Stims/Figures/85-C-20-2.bmp","mala:na","Down","38","2","14","4","S","C","38"
"","","approach-retreat","187","1533007","0.0-187.0","","","2-5","9719","37","1","Testing","Stims/Figures/144-J-10-3.bmp","ta:pata","Left","37","2","15","4","P","C","39"
"","","approach-retreat","188","1539944","0.0-188.0","","","2-5","5433","38","0","Testing","Stims/Figures/128-J-10-3.bmp","pa:ka:ka","Down","40","2","16","4","P","C","40"
"","","approach-retreat","189","1546232","0.0-189.0","","","2-5","4784","40","1","Testing","Stims/Figures/85-J-0-2.bmp","pakata","Down","40","2","17","4","P","C","41"
"","","approach-retreat","190","1556503","0.0-190.0","","","2-5","8767","37","1","Testing","Stims/Figures/44-J-10-3.bmp","pa:kaka","Left","37","2","18","4","P","C","42"
"","","approach-retreat","191","1564361","0.0-191.0","","","2-5","6354","37","1","Testing","Stims/Figures/93-C-30-1.bmp","na:ma:na","Right","37","2","19","4","S","C","43"
"","","approach-retreat","192","1573170","0.0-192.0","","","2-5","7305","40","1","Testing","Stims/Figures/93-J-0-1.bmp","pa:ka:ta","Down","40","2","20","4","P","C","44"
"","","approach-retreat","193","1583382","0.0-193.0","","","2-5","8708","39","1","Testing","Stims/Figures/87-C-20-4.bmp","ma:lala","Left","39","2","21","4","S","C","45"
"","","approach-retreat","194","1590677","0.0-194.0","","","2-5","5791","38","0","Testing","Stims/Figures/7-J-10-4.bmp","taka:ta","Down","40","2","22","4","P","C","46"
"","","approach-retreat","195","1598331","0.0-195.0","","","2-5","6149","39","1","Testing","Stims/Figures/139-C-20-2.bmp","ma:mala","Left","39","2","23","4","S","C","47"
"","","approach-retreat","196","1605422","0.0-196.0","","","2-5","5586","37","1","Testing","Stims/Figures/74-J-10-4.bmp","tapaka","Left","37","2","24","4","P","C","48"
"","","approach-retreat","197","1611693","0.0-197.0","","","2-5","4766","37","1","Testing","Stims/Figures/93-J-0-1.bmp","pa:ka:ta","Left","37","3","1","4","P","C","49"
"","","approach-retreat","198","1617767","0.0-198.0","","","2-5","4569","38","1","Testing","Stims/Figures/128-J-10-3.bmp","pa:ka:ka","Up","38","3","2","4","P","C","50"
"","","approach-retreat","199","1626804","0.0-199.0","","","2-5","7532","39","1","Testing","Stims/Figures/71-J-0-1.bmp","ta:pa:ta","Right","39","3","3","4","P","C","51"
"","","approach-retreat","200","1642273","0.0-200.0","","","2-5","13964","40","0","Testing","Stims/Figures/27-C-30-1.bmp","namala","Down","38","3","4","4","S","C","52"
"","","approach-retreat","201","1648146","0.0-201.0","","","2-5","4349","38","1","Testing","Stims/Figures/44-J-10-3.bmp","pa:kaka","Up","38","3","5","4","P","C","53"
"","","approach-retreat","202","1657564","0.0-202.0","","","2-5","7914","38","1","Testing","Stims/Figures/139-J-0-2.bmp","ta:ka:ta","Up","38","3","6","4","P","C","54"
"","","approach-retreat","203","1663765","0.0-203.0","","","2-5","4696","39","1","Testing","Stims/Figures/93-C-30-1.bmp","na:ma:na","Left","39","3","7","4","S","C","55"
"","","approach-retreat","204","1669913","0.0-204.0","","","2-5","4628","37","1","Testing","Stims/Figures/144-C-30-3.bmp","nala:la","Right","37","3","8","4","S","C","56"
"","","approach-retreat","205","1675960","0.0-205.0","","","2-5","4542","38","1","Testing","Stims/Figures/44-C-30-3.bmp","nala:na","Down","38","3","9","4","S","C","57"
"","","approach-retreat","206","1682345","0.0-206.0","","","2-5","4879","39","1","Testing","Stims/Figures/74-C-20-4.bmp","malala","Left","39","3","10","4","S","C","58"
"","","approach-retreat","207","1689253","0.0-207.0","","","2-5","5403","39","1","Testing","Stims/Figures/85-J-0-2.bmp","pakata","Right","39","3","11","4","P","C","59"
"","","approach-retreat","208","1697045","0.0-208.0","","","2-5","6287","40","1","Testing","Stims/Figures/27-J-0-1.bmp","ta:pa:ka","Down","40","3","12","4","P","C","60"
"","","approach-retreat","209","1702997","0.0-209.0","","","2-5","4447","38","1","Testing","Stims/Figures/85-C-20-2.bmp","mala:na","Down","38","3","13","4","S","C","61"
"","","approach-retreat","210","1709759","0.0-210.0","","","2-5","5258","37","1","Testing","Stims/Figures/71-C-30-1.bmp","mama:la","Right","37","3","14","4","S","C","62"
"","","approach-retreat","211","1716288","0.0-211.0","","","2-5","5025","39","1","Testing","Stims/Figures/7-J-10-4.bmp","taka:ta","Right","39","3","15","4","P","C","63"
"","","approach-retreat","212","1722074","0.0-212.0","","","2-5","4282","37","1","Testing","Stims/Figures/74-J-10-4.bmp","tapaka","Left","37","3","16","4","P","C","64"
"","","approach-retreat","213","1728394","0.0-213.0","","","2-5","4816","40","1","Testing","Stims/Figures/7-C-20-4.bmp","ma:lana","Up","40","3","17","4","S","C","65"
"","","approach-retreat","214","1734546","0.0-214.0","","","2-5","4648","40","1","Testing","Stims/Figures/87-C-20-4.bmp","ma:lala","Up","40","3","18","4","S","C","66"
"","","approach-retreat","215","1741391","0.0-215.0","","","2-5","5341","40","1","Testing","Stims/Figures/144-J-10-3.bmp","ta:pata","Down","40","3","19","4","P","C","67"
"","","approach-retreat","216","1747959","0.0-216.0","","","2-5","5064","38","1","Testing","Stims/Figures/128-C-30-3.bmp","na:la:na","Down","38","3","20","4","S","C","68"
"","","approach-retreat","217","1754116","0.0-217.0","","","2-5","4653","40","1","Testing","Stims/Figures/139-C-20-2.bmp","ma:mala","Up","40","3","21","4","S","C","69"
"","","approach-retreat","218","1775818","0.0-218.0","","","2-5","20198","39","1","Testing","Stims/Figures/94-J-0-2.bmp","papata","Right","39","3","22","4","P","C","70"
"","","approach-retreat","219","1783651","0.0-219.0","","","2-5","6329","37","1","Testing","Stims/Figures/87-J-10-4.bmp","papa:ta","Left","37","3","23","4","P","C","71"
"","","approach-retreat","220","1791378","0.0-220.0","","","2-5","6223","39","1","Testing","Stims/Figures/94-C-20-2.bmp","nama:na","Left","39","3","24","4","S","C","72"
"","","approach-retreat","221","1798224","0.0-221.0","","","2-5","5342","37","0","Testing","Stims/Figures/44-J-10-3.bmp","pa:kaka","Right","39","4","1","4","P","C","73"
"","","approach-retreat","222","1804355","0.0-222.0","","","2-5","4627","37","1","Testing","Stims/Figures/94-C-20-2.bmp","nama:na","Right","37","4","2","4","S","C","74"
"","","approach-retreat","223","1810188","0.0-223.0","","","2-5","4329","37","1","Testing","Stims/Figures/144-C-30-3.bmp","nala:la","Right","37","4","3","4","S","C","75"
"","","approach-retreat","224","1817296","0.0-224.0","","","2-5","5604","38","1","Testing","Stims/Figures/87-J-10-4.bmp","papa:ta","Up","38","4","4","4","P","C","76"
"","","approach-retreat","225","1825544","0.0-225.0","","","2-5","6744","37","0","Testing","Stims/Figures/139-C-20-2.bmp","ma:mala","Left","39","4","5","4","S","C","77"
"","","approach-retreat","226","1832630","0.0-226.0","","","2-5","5581","38","1","Testing","Stims/Figures/87-C-20-4.bmp","ma:lala","Down","38","4","6","4","S","C","78"
"","","approach-retreat","227","1839621","0.0-227.0","","","2-5","5487","38","1","Testing","Stims/Figures/7-J-10-4.bmp","taka:ta","Up","38","4","7","4","P","C","79"
"","","approach-retreat","228","1845697","0.0-228.0","","","2-5","4571","37","1","Testing","Stims/Figures/139-J-0-2.bmp","ta:ka:ta","Left","37","4","8","4","P","C","80"
"","","approach-retreat","229","1852395","0.0-229.0","","","2-5","5194","40","1","Testing","Stims/Figures/74-J-10-4.bmp","tapaka","Down","40","4","9","4","P","C","81"
"","","approach-retreat","230","1858383","0.0-230.0","","","2-5","4483","38","0","Testing","Stims/Figures/71-C-30-1.bmp","mama:la","Up","40","4","10","4","S","C","82"
"","","approach-retreat","231","1864934","0.0-231.0","","","2-5","5047","40","1","Testing","Stims/Figures/27-J-0-1.bmp","ta:pa:ka","Down","40","4","11","4","P","C","83"
"","","approach-retreat","232","1870952","0.0-232.0","","","2-5","4514","37","1","Testing","Stims/Figures/93-J-0-1.bmp","pa:ka:ta","Left","37","4","12","4","P","C","84"
"","","approach-retreat","233","1877329","0.0-233.0","","","2-5","4873","38","0","Testing","Stims/Figures/74-C-20-4.bmp","malala","Up","40","4","13","4","S","C","85"
"","","approach-retreat","234","1884046","0.0-234.0","","","2-5","5213","40","1","Testing","Stims/Figures/71-J-0-1.bmp","ta:pa:ta","Down","40","4","14","4","P","C","86"
"","","approach-retreat","235","1890028","0.0-235.0","","","2-5","4478","37","1","Testing","Stims/Figures/144-J-10-3.bmp","ta:pata","Left","37","4","15","4","P","C","87"
"","","approach-retreat","236","1896203","0.0-236.0","","","2-5","4671","38","1","Testing","Stims/Figures/93-C-30-1.bmp","na:ma:na","Down","38","4","16","4","S","C","88"
"","","approach-retreat","237","1904926","0.0-237.0","","","2-5","7219","39","1","Testing","Stims/Figures/85-J-0-2.bmp","pakata","Right","39","4","17","4","P","C","89"
"","","approach-retreat","238","1910780","0.0-238.0","","","2-5","4349","37","1","Testing","Stims/Figures/27-C-30-1.bmp","namala","Right","37","4","18","4","S","C","90"
"","","approach-retreat","239","1916717","0.0-239.0","","","2-5","4433","40","1","Testing","Stims/Figures/128-C-30-3.bmp","na:la:na","Up","40","4","19","4","S","C","91"
"","","approach-retreat","240","1922901","0.0-240.0","","","2-5","4680","37","1","Testing","Stims/Figures/85-C-20-2.bmp","mala:na","Right","37","4","20","4","S","C","92"
"","","approach-retreat","241","1929804","0.0-241.0","","","2-5","5399","40","1","Testing","Stims/Figures/94-J-0-2.bmp","papata","Down","40","4","21","4","P","C","93"
"","","approach-retreat","242","1940209","0.0-242.0","","","2-5","8901","38","1","Testing","Stims/Figures/128-J-10-3.bmp","pa:ka:ka","Up","38","4","22","4","P","C","94"
"","","approach-retreat","243","1955634","0.0-243.0","","","2-5","13921","37","0","Testing","Stims/Figures/7-C-20-4.bmp","ma:lana","Left","39","4","23","4","S","C","95"
"","","approach-retreat","244","1966055","0.0-244.0","","","2-5","8917","39","1","Testing","Stims/Figures/44-C-30-3.bmp","nala:na","Left","39","4","24","4","S","C","96"
"40230","","survey-text","245","2006290","0.0-245.0","","{""Q0"":""1052/2018""}","","","","","","","","","","","","","","",""
