"rt","key_press","trial_type","trial_index","time_elapsed","internal_node_id","view_history","responses","Id","Rt","ResKeyCode","ResCorr","TrialType2","Image","Label","Location","CorrectResponse","Block","BlockTrial","Condition","LabelType","Subcondition","trialNum"
"162291","32","text","0","162294","0.0-0.0-0.0","","","","","","","","","","","","","","","","",""
"111795","","instructions","1","274092","0.0-1.0","[{""page_index"":0,""viewing_time"":111795}]","","","","","","","","","","","","","","","",""
"46666","","survey-multi-choice","2","320787","0.0-2.0","","{""Q0"":""Da"",""Q1"":""Da"",""Q2"":""Da"",""Q3"":""Da"",""Q4"":""Da"",""Q5"":""Da""}","","","","","","","","","","","","","","",""
"","","bio","3","331102","0.0-3.0","","{""age"":""19"",""gender"":""f"",""specify"":""""}","","","","","","","","","","","","","","",""
"","","approach-retreat","4","370058","0.0-4.0","","","1-3","37447","38","1","Training","Stims/Figures/139-C-20-2.bmp","ta:kaka","Down","38","1","1","7","P","C","1"
"","","approach-retreat","5","382864","0.0-5.0","","","1-3","11300","38","1","Training","Stims/Figures/44-C-30-3.bmp","malala","Down","38","1","2","7","S","C","2"
"","","approach-retreat","6","391768","0.0-6.0","","","1-3","7398","37","1","Training","Stims/Figures/128-J-10-3.bmp","mala:na","Left","37","1","3","7","S","C","3"
"","","approach-retreat","7","406450","0.0-7.0","","","1-3","13178","39","0","Training","Stims/Figures/57-C-30-1.bmp","tapa:ka","Right","37","1","4","7","P","C","4"
"","","approach-retreat","8","418818","0.0-8.0","","","1-3","10861","37","0","Training","Stims/Figures/86-C-30-1.bmp","pa:ka:ta","Left","39","1","5","7","P","C","5"
"","","approach-retreat","9","427857","0.0-9.0","","","1-3","7535","39","1","Training","Stims/Figures/94-C-20-2.bmp","papa:ta","Left","39","1","6","7","P","C","6"
"","","approach-retreat","10","444345","0.0-10.0","","","1-3","14982","38","1","Training","Stims/Figures/44-J-10-3.bmp","mala:la","Up","38","1","7","7","S","C","7"
"","","approach-retreat","11","459250","0.0-11.0","","","1-3","13400","38","1","Training","Stims/Figures/19-J-10-4.bmp","ma:mala","Up","38","1","8","7","S","C","8"
"","","approach-retreat","12","468418","0.0-12.0","","","1-3","7662","37","0","Training","Stims/Figures/128-C-30-3.bmp","ma:ma:na","Left","39","1","9","7","S","C","9"
"","","approach-retreat","13","478561","0.0-13.0","","","1-3","8639","38","1","Training","Stims/Figures/19-C-20-4.bmp","mama:la","Down","38","1","10","7","S","C","10"
"","","approach-retreat","14","488921","0.0-14.0","","","1-3","8854","39","0","Training","Stims/Figures/74-C-20-4.bmp","ma:ma:la","Right","37","1","11","7","S","C","11"
"","","approach-retreat","15","501281","0.0-15.0","","","1-3","10855","37","0","Training","Stims/Figures/74-J-10-4.bmp","na:mala","Right","39","1","12","7","S","C","12"
"","","approach-retreat","16","510792","0.0-16.0","","","1-3","8006","40","0","Training","Stims/Figures/94-J-0-2.bmp","ta:pa:ta","Up","38","1","13","7","P","C","13"
"","","approach-retreat","17","519137","0.0-17.0","","","1-3","6838","40","0","Training","Stims/Figures/86-J-0-1.bmp","pa:pa:ta","Up","38","1","14","7","P","C","14"
"","","approach-retreat","18","528041","0.0-18.0","","","1-3","7398","37","0","Training","Stims/Figures/139-J-0-2.bmp","tapa:ta","Right","39","1","15","7","P","C","15"
"","","approach-retreat","19","537185","0.0-19.0","","","1-3","7640","38","0","Training","Stims/Figures/57-J-0-1.bmp","pa:pa:ka","Down","40","1","16","7","P","C","16"
"","","approach-retreat","20","548097","0.0-20.0","","","1-3","9407","39","1","Training","Stims/Figures/57-J-0-1.bmp","pa:pa:ka","Right","39","2","1","7","P","C","17"
"","","approach-retreat","21","561209","0.0-21.0","","","1-3","11606","39","0","Training","Stims/Figures/139-C-20-2.bmp","ta:kaka","Right","37","2","2","7","P","C","18"
"","","approach-retreat","22","568176","0.0-22.0","","","1-3","5462","38","1","Training","Stims/Figures/139-J-0-2.bmp","tapa:ta","Up","38","2","3","7","P","C","19"
"","","approach-retreat","23","577072","0.0-23.0","","","1-3","7390","40","0","Training","Stims/Figures/86-J-0-1.bmp","pa:pa:ta","Up","38","2","4","7","P","C","20"
"","","approach-retreat","24","607985","0.0-24.0","","","1-3","29407","40","1","Training","Stims/Figures/86-C-30-1.bmp","pa:ka:ta","Up","40","2","5","7","P","C","21"
"","","approach-retreat","25","615713","0.0-25.0","","","1-3","6223","38","1","Training","Stims/Figures/57-C-30-1.bmp","tapa:ka","Down","38","2","6","7","P","C","22"
"","","approach-retreat","26","622881","0.0-26.0","","","1-3","5662","37","0","Training","Stims/Figures/128-C-30-3.bmp","ma:ma:na","Left","39","2","7","7","S","C","23"
"","","approach-retreat","27","629464","0.0-27.0","","","1-3","5079","39","1","Training","Stims/Figures/128-J-10-3.bmp","mala:na","Right","39","2","8","7","S","C","24"
"","","approach-retreat","28","635465","0.0-28.0","","","1-3","4496","38","0","Training","Stims/Figures/74-J-10-4.bmp","na:mala","Down","40","2","9","7","S","C","25"
"","","approach-retreat","29","646578","0.0-29.0","","","1-3","9609","37","1","Training","Stims/Figures/19-C-20-4.bmp","mama:la","Right","37","2","10","7","S","C","26"
"","","approach-retreat","30","652665","0.0-30.0","","","1-3","4582","37","1","Training","Stims/Figures/19-J-10-4.bmp","ma:mala","Left","37","2","11","7","S","C","27"
"","","approach-retreat","31","659042","0.0-31.0","","","1-3","4869","37","1","Training","Stims/Figures/94-J-0-2.bmp","ta:pa:ta","Left","37","2","12","7","P","C","28"
"","","approach-retreat","32","665009","0.0-32.0","","","1-3","4461","38","1","Training","Stims/Figures/94-C-20-2.bmp","papa:ta","Down","38","2","13","7","P","C","29"
"","","approach-retreat","33","670977","0.0-33.0","","","1-3","4462","38","0","Training","Stims/Figures/44-J-10-3.bmp","mala:la","Down","40","2","14","7","S","C","30"
"","","approach-retreat","34","677032","0.0-34.0","","","1-3","4550","37","0","Training","Stims/Figures/44-C-30-3.bmp","malala","Left","39","2","15","7","S","C","31"
"","","approach-retreat","35","685145","0.0-35.0","","","1-3","6605","38","0","Training","Stims/Figures/74-C-20-4.bmp","ma:ma:la","Up","40","2","16","7","S","C","32"
"","","approach-retreat","36","692407","0.0-36.0","","","1-3","5750","40","1","Training","Stims/Figures/74-C-20-4.bmp","ma:ma:la","Up","40","3","1","7","S","C","33"
"","","approach-retreat","37","699226","0.0-37.0","","","1-3","5310","39","1","Training","Stims/Figures/44-C-30-3.bmp","malala","Left","39","3","2","7","S","C","34"
"","","approach-retreat","38","707193","0.0-38.0","","","1-3","6461","40","1","Training","Stims/Figures/128-C-30-3.bmp","ma:ma:na","Up","40","3","3","7","S","C","35"
"","","approach-retreat","39","714337","0.0-39.0","","","1-3","5637","40","0","Training","Stims/Figures/44-J-10-3.bmp","mala:la","Up","38","3","4","7","S","C","36"
"","","approach-retreat","40","721769","0.0-40.0","","","1-3","5925","37","1","Training","Stims/Figures/94-J-0-2.bmp","ta:pa:ta","Left","37","3","5","7","P","C","37"
"","","approach-retreat","41","728905","0.0-41.0","","","1-3","5631","38","1","Training","Stims/Figures/139-C-20-2.bmp","ta:kaka","Down","38","3","6","7","P","C","38"
"","","approach-retreat","42","735264","0.0-42.0","","","1-3","4850","39","0","Training","Stims/Figures/74-J-10-4.bmp","na:mala","Left","37","3","7","7","S","C","39"
"","","approach-retreat","43","741443","0.0-43.0","","","1-3","4663","40","0","Training","Stims/Figures/57-C-30-1.bmp","tapa:ka","Down","38","3","8","7","P","C","40"
"","","approach-retreat","44","747671","0.0-44.0","","","1-3","4725","37","1","Training","Stims/Figures/19-C-20-4.bmp","mama:la","Right","37","3","9","7","S","C","41"
"","","approach-retreat","45","754200","0.0-45.0","","","1-3","5024","40","1","Training","Stims/Figures/57-J-0-1.bmp","pa:pa:ka","Down","40","3","10","7","P","C","42"
"","","approach-retreat","46","760905","0.0-46.0","","","1-3","5199","37","1","Training","Stims/Figures/94-C-20-2.bmp","papa:ta","Right","37","3","11","7","P","C","43"
"","","approach-retreat","47","792953","0.0-47.0","","","1-3","30544","40","1","Training","Stims/Figures/139-J-0-2.bmp","tapa:ta","Down","40","3","12","7","P","C","44"
"","","approach-retreat","48","798913","0.0-48.0","","","1-3","4454","37","0","Training","Stims/Figures/86-J-0-1.bmp","pa:pa:ta","Right","39","3","13","7","P","C","45"
"","","approach-retreat","49","806337","0.0-49.0","","","1-3","5919","39","1","Training","Stims/Figures/19-J-10-4.bmp","ma:mala","Right","39","3","14","7","S","C","46"
"","","approach-retreat","50","812048","0.0-50.0","","","1-3","4206","37","0","Training","Stims/Figures/86-C-30-1.bmp","pa:ka:ta","Left","39","3","15","7","P","C","47"
"","","approach-retreat","51","818312","0.0-51.0","","","1-3","4758","38","1","Training","Stims/Figures/128-J-10-3.bmp","mala:na","Up","38","3","16","7","S","C","48"
"","","approach-retreat","52","828809","0.0-52.0","","","1-3","8992","37","0","Training","Stims/Figures/57-J-0-1.bmp","pa:pa:ka","Right","39","4","1","7","P","C","49"
"","","approach-retreat","53","854193","0.0-53.0","","","1-3","23878","39","0","Training","Stims/Figures/19-J-10-4.bmp","ma:mala","Left","37","4","2","7","S","C","50"
"","","approach-retreat","54","861576","0.0-54.0","","","1-3","5876","39","0","Training","Stims/Figures/139-C-20-2.bmp","ta:kaka","Right","37","4","3","7","P","C","51"
"","","approach-retreat","55","889385","0.0-55.0","","","1-3","26304","39","1","Training","Stims/Figures/74-C-20-4.bmp","ma:ma:la","Left","39","4","4","7","S","C","52"
"","","approach-retreat","56","905857","0.0-56.0","","","1-3","14967","38","0","Training","Stims/Figures/139-J-0-2.bmp","tapa:ta","Down","40","4","5","7","P","C","53"
"","","approach-retreat","57","918984","0.0-57.0","","","1-3","11623","39","1","Training","Stims/Figures/86-J-0-1.bmp","pa:pa:ta","Right","39","4","6","7","P","C","54"
"","","approach-retreat","58","928064","0.0-58.0","","","1-3","7575","38","0","Training","Stims/Figures/44-C-30-3.bmp","malala","Up","40","4","7","7","S","C","55"
"","","approach-retreat","59","934728","0.0-59.0","","","1-3","5160","40","1","Training","Stims/Figures/94-J-0-2.bmp","ta:pa:ta","Down","40","4","8","7","P","C","56"
"","","approach-retreat","60","942144","0.0-60.0","","","1-3","5912","38","1","Training","Stims/Figures/57-C-30-1.bmp","tapa:ka","Down","38","4","9","7","P","C","57"
"","","approach-retreat","61","948394","0.0-61.0","","","1-3","4744","39","1","Training","Stims/Figures/86-C-30-1.bmp","pa:ka:ta","Left","39","4","10","7","P","C","58"
"","","approach-retreat","62","955369","0.0-62.0","","","1-3","5471","40","1","Training","Stims/Figures/128-C-30-3.bmp","ma:ma:na","Up","40","4","11","7","S","C","59"
"","","approach-retreat","63","962673","0.0-63.0","","","1-3","5798","40","1","Training","Stims/Figures/128-J-10-3.bmp","mala:na","Down","40","4","12","7","S","C","60"
"","","approach-retreat","64","969233","0.0-64.0","","","1-3","5056","39","1","Training","Stims/Figures/94-C-20-2.bmp","papa:ta","Left","39","4","13","7","P","C","61"
"","","approach-retreat","65","975505","0.0-65.0","","","1-3","4768","40","1","Training","Stims/Figures/19-C-20-4.bmp","mama:la","Up","40","4","14","7","S","C","62"
"","","approach-retreat","66","985249","0.0-66.0","","","1-3","8238","38","1","Training","Stims/Figures/74-J-10-4.bmp","na:mala","Up","38","4","15","7","S","C","63"
"","","approach-retreat","67","993162","0.0-67.0","","","1-3","6407","39","1","Training","Stims/Figures/44-J-10-3.bmp","mala:la","Right","39","4","16","7","S","C","64"
"","","approach-retreat","68","1001944","0.0-68.0","","","1-3","7278","37","1","Training","Stims/Figures/57-C-30-1.bmp","tapa:ka","Right","37","5","1","7","P","C","65"
"","","approach-retreat","69","1008441","0.0-69.0","","","1-3","4991","38","1","Training","Stims/Figures/57-J-0-1.bmp","pa:pa:ka","Up","38","5","2","7","P","C","66"
"","","approach-retreat","70","1014777","0.0-70.0","","","1-3","4830","38","1","Training","Stims/Figures/86-J-0-1.bmp","pa:pa:ta","Up","38","5","3","7","P","C","67"
"","","approach-retreat","71","1022425","0.0-71.0","","","1-3","6144","37","1","Training","Stims/Figures/94-C-20-2.bmp","papa:ta","Right","37","5","4","7","P","C","68"
"","","approach-retreat","72","1028648","0.0-72.0","","","1-3","4717","37","1","Training","Stims/Figures/128-J-10-3.bmp","mala:na","Left","37","5","5","7","S","C","69"
"","","approach-retreat","73","1034785","0.0-73.0","","","1-3","4633","39","1","Training","Stims/Figures/139-J-0-2.bmp","tapa:ta","Right","39","5","6","7","P","C","70"
"","","approach-retreat","74","1041905","0.0-74.0","","","1-3","5615","37","1","Training","Stims/Figures/44-J-10-3.bmp","mala:la","Left","37","5","7","7","S","C","71"
"","","approach-retreat","75","1051233","0.0-75.0","","","1-3","7822","39","0","Training","Stims/Figures/19-C-20-4.bmp","mama:la","Right","37","5","8","7","S","C","72"
"","","approach-retreat","76","1057393","0.0-76.0","","","1-3","4655","38","1","Training","Stims/Figures/128-C-30-3.bmp","ma:ma:na","Down","38","5","9","7","S","C","73"
"","","approach-retreat","77","1063953","0.0-77.0","","","1-3","5054","38","0","Training","Stims/Figures/139-C-20-2.bmp","ta:kaka","Up","40","5","10","7","P","C","74"
"","","approach-retreat","78","1069801","0.0-78.0","","","1-3","4343","38","1","Training","Stims/Figures/86-C-30-1.bmp","pa:ka:ta","Down","38","5","11","7","P","C","75"
"","","approach-retreat","79","1075722","0.0-79.0","","","1-3","4415","39","1","Training","Stims/Figures/74-C-20-4.bmp","ma:ma:la","Left","39","5","12","7","S","C","76"
"","","approach-retreat","80","1081761","0.0-80.0","","","1-3","4534","40","1","Training","Stims/Figures/74-J-10-4.bmp","na:mala","Down","40","5","13","7","S","C","77"
"","","approach-retreat","81","1088129","0.0-81.0","","","1-3","4863","38","1","Training","Stims/Figures/19-J-10-4.bmp","ma:mala","Up","38","5","14","7","S","C","78"
"","","approach-retreat","82","1094449","0.0-82.0","","","1-3","4815","39","1","Training","Stims/Figures/44-C-30-3.bmp","malala","Left","39","5","15","7","S","C","79"
"","","approach-retreat","83","1101393","0.0-83.0","","","1-3","5438","40","1","Training","Stims/Figures/94-J-0-2.bmp","ta:pa:ta","Down","40","5","16","7","P","C","80"
"","","approach-retreat","84","1108273","0.0-84.0","","","1-3","5374","38","1","Training","Stims/Figures/139-J-0-2.bmp","tapa:ta","Up","38","6","1","7","P","C","81"
"","","approach-retreat","85","1114153","0.0-85.0","","","1-3","4374","38","1","Training","Stims/Figures/94-J-0-2.bmp","ta:pa:ta","Up","38","6","2","7","P","C","82"
"","","approach-retreat","86","1119800","0.0-86.0","","","1-3","4143","38","1","Training","Stims/Figures/74-J-10-4.bmp","na:mala","Up","38","6","3","7","S","C","83"
"","","approach-retreat","87","1128952","0.0-87.0","","","1-3","7647","38","1","Training","Stims/Figures/94-C-20-2.bmp","papa:ta","Down","38","6","4","7","P","C","84"
"","","approach-retreat","88","1135424","0.0-88.0","","","1-3","4968","40","1","Training","Stims/Figures/19-J-10-4.bmp","ma:mala","Down","40","6","5","7","S","C","85"
"","","approach-retreat","89","1142025","0.0-89.0","","","1-3","5096","39","1","Training","Stims/Figures/44-C-30-3.bmp","malala","Left","39","6","6","7","S","C","86"
"","","approach-retreat","90","1148305","0.0-90.0","","","1-3","4775","39","1","Training","Stims/Figures/139-C-20-2.bmp","ta:kaka","Left","39","6","7","7","P","C","87"
"","","approach-retreat","91","1155352","0.0-91.0","","","1-3","5542","40","1","Training","Stims/Figures/44-J-10-3.bmp","mala:la","Down","40","6","8","7","S","C","88"
"","","approach-retreat","92","1161441","0.0-92.0","","","1-3","4583","37","1","Training","Stims/Figures/86-J-0-1.bmp","pa:pa:ta","Left","37","6","9","7","P","C","89"
"","","approach-retreat","93","1170401","0.0-93.0","","","1-3","7456","37","1","Training","Stims/Figures/74-C-20-4.bmp","ma:ma:la","Right","37","6","10","7","S","C","90"
"","","approach-retreat","94","1176336","0.0-94.0","","","1-3","4431","37","1","Training","Stims/Figures/128-C-30-3.bmp","ma:ma:na","Right","37","6","11","7","S","C","91"
"","","approach-retreat","95","1182960","0.0-95.0","","","1-3","5119","37","1","Training","Stims/Figures/57-J-0-1.bmp","pa:pa:ka","Left","37","6","12","7","P","C","92"
"","","approach-retreat","96","1189576","0.0-96.0","","","1-3","5110","40","1","Training","Stims/Figures/57-C-30-1.bmp","tapa:ka","Up","40","6","13","7","P","C","93"
"","","approach-retreat","97","1201138","0.0-97.0","","","1-3","10056","40","0","Training","Stims/Figures/19-C-20-4.bmp","mama:la","Down","38","6","14","7","S","C","94"
"","","approach-retreat","98","1211499","0.0-98.0","","","1-3","8856","39","1","Training","Stims/Figures/128-J-10-3.bmp","mala:na","Right","39","6","15","7","S","C","95"
"","","approach-retreat","99","1217873","0.0-99.0","","","1-3","4868","37","1","Training","Stims/Figures/86-C-30-1.bmp","pa:ka:ta","Right","37","6","16","7","P","C","96"
"","","approach-retreat","100","1224225","0.0-100.0","","","1-3","4847","39","1","Training","Stims/Figures/128-C-30-3.bmp","ma:ma:na","Left","39","7","1","7","S","C","97"
"","","approach-retreat","101","1237147","0.0-101.0","","","1-3","11414","37","0","Training","Stims/Figures/19-C-20-4.bmp","mama:la","Left","39","7","2","7","S","C","98"
"","","approach-retreat","102","1243073","0.0-102.0","","","1-3","4420","39","1","Training","Stims/Figures/44-J-10-3.bmp","mala:la","Right","39","7","3","7","S","C","99"
"","","approach-retreat","103","1250425","0.0-103.0","","","1-3","5845","38","1","Training","Stims/Figures/44-C-30-3.bmp","malala","Down","38","7","4","7","S","C","100"
"","","approach-retreat","104","1257442","0.0-104.0","","","1-3","5511","39","1","Training","Stims/Figures/139-C-20-2.bmp","ta:kaka","Left","39","7","5","7","P","C","101"
"","","approach-retreat","105","1263441","0.0-105.0","","","1-3","4493","37","1","Training","Stims/Figures/57-C-30-1.bmp","tapa:ka","Right","37","7","6","7","P","C","102"
"","","approach-retreat","106","1270010","0.0-106.0","","","1-3","5062","40","1","Training","Stims/Figures/139-J-0-2.bmp","tapa:ta","Down","40","7","7","7","P","C","103"
"","","approach-retreat","107","1280110","0.0-107.0","","","1-3","8556","38","1","Training","Stims/Figures/94-J-0-2.bmp","ta:pa:ta","Up","38","7","8","7","P","C","104"
"","","approach-retreat","108","1287209","0.0-108.0","","","1-3","5590","39","1","Training","Stims/Figures/128-J-10-3.bmp","mala:na","Right","39","7","9","7","S","C","105"
"","","approach-retreat","109","1294953","0.0-109.0","","","1-3","6238","39","1","Training","Stims/Figures/74-C-20-4.bmp","ma:ma:la","Left","39","7","10","7","S","C","106"
"","","approach-retreat","110","1300708","0.0-110.0","","","1-3","4240","38","1","Training","Stims/Figures/86-C-30-1.bmp","pa:ka:ta","Down","38","7","11","7","P","C","107"
"","","approach-retreat","111","1306609","0.0-111.0","","","1-3","4394","40","1","Training","Stims/Figures/86-J-0-1.bmp","pa:pa:ta","Down","40","7","12","7","P","C","108"
"","","approach-retreat","112","1313145","0.0-112.0","","","1-3","5029","38","1","Training","Stims/Figures/19-J-10-4.bmp","ma:mala","Up","38","7","13","7","S","C","109"
"","","approach-retreat","113","1321913","0.0-113.0","","","1-3","7262","37","1","Training","Stims/Figures/94-C-20-2.bmp","papa:ta","Right","37","7","14","7","P","C","110"
"","","approach-retreat","114","1327985","0.0-114.0","","","1-3","4567","38","1","Training","Stims/Figures/57-J-0-1.bmp","pa:pa:ka","Up","38","7","15","7","P","C","111"
"","","approach-retreat","115","1333633","0.0-115.0","","","1-3","4143","38","1","Training","Stims/Figures/74-J-10-4.bmp","na:mala","Up","38","7","16","7","S","C","112"
"","","approach-retreat","116","1340857","0.0-116.0","","","1-3","5718","38","1","Training","Stims/Figures/128-C-30-3.bmp","ma:ma:na","Down","38","8","1","7","S","C","113"
"","","approach-retreat","117","1348098","0.0-117.0","","","1-3","5735","37","1","Training","Stims/Figures/44-C-30-3.bmp","malala","Right","37","8","2","7","S","C","114"
"","","approach-retreat","118","1354857","0.0-118.0","","","1-3","5254","40","1","Training","Stims/Figures/139-J-0-2.bmp","tapa:ta","Down","40","8","3","7","P","C","115"
"","","approach-retreat","119","1360745","0.0-119.0","","","1-3","4384","38","0","Training","Stims/Figures/139-C-20-2.bmp","ta:kaka","Up","40","8","4","7","P","C","116"
"","","approach-retreat","120","1366697","0.0-120.0","","","1-3","4446","38","1","Training","Stims/Figures/19-J-10-4.bmp","ma:mala","Up","38","8","5","7","S","C","117"
"","","approach-retreat","121","1372770","0.0-121.0","","","1-3","4568","39","1","Training","Stims/Figures/86-J-0-1.bmp","pa:pa:ta","Right","39","8","6","7","P","C","118"
"","","approach-retreat","122","1378666","0.0-122.0","","","1-3","4391","38","0","Training","Stims/Figures/74-J-10-4.bmp","na:mala","Down","40","8","7","7","S","C","119"
"","","approach-retreat","123","1384498","0.0-123.0","","","1-3","4328","38","1","Training","Stims/Figures/86-C-30-1.bmp","pa:ka:ta","Down","38","8","8","7","P","C","120"
"","","approach-retreat","124","1391913","0.0-124.0","","","1-3","5911","40","1","Training","Stims/Figures/94-C-20-2.bmp","papa:ta","Up","40","8","9","7","P","C","121"
"","","approach-retreat","125","1398370","0.0-125.0","","","1-3","4950","37","1","Training","Stims/Figures/94-J-0-2.bmp","ta:pa:ta","Left","37","8","10","7","P","C","122"
"","","approach-retreat","126","1407745","0.0-126.0","","","1-3","7871","39","1","Training","Stims/Figures/128-J-10-3.bmp","mala:na","Right","39","8","11","7","S","C","123"
"","","approach-retreat","127","1414810","0.0-127.0","","","1-3","5559","40","1","Training","Stims/Figures/57-C-30-1.bmp","tapa:ka","Up","40","8","12","7","P","C","124"
"","","approach-retreat","128","1421561","0.0-128.0","","","1-3","5247","37","1","Training","Stims/Figures/44-J-10-3.bmp","mala:la","Left","37","8","13","7","S","C","125"
"","","approach-retreat","129","1427249","0.0-129.0","","","1-3","4183","37","1","Training","Stims/Figures/57-J-0-1.bmp","pa:pa:ka","Left","37","8","14","7","P","C","126"
"","","approach-retreat","130","1436289","0.0-130.0","","","1-3","7535","37","0","Training","Stims/Figures/19-C-20-4.bmp","mama:la","Left","39","8","15","7","S","C","127"
"","","approach-retreat","131","1444017","0.0-131.0","","","1-3","6223","37","1","Training","Stims/Figures/74-C-20-4.bmp","ma:ma:la","Right","37","8","16","7","S","C","128"
"","","approach-retreat","132","1450097","0.0-132.0","","","1-3","4574","37","1","Training","Stims/Figures/44-C-30-3.bmp","malala","Right","37","9","1","7","S","C","129"
"","","approach-retreat","133","1460729","0.0-133.0","","","1-3","9127","39","0","Training","Stims/Figures/128-J-10-3.bmp","mala:na","Left","37","9","2","7","S","C","130"
"","","approach-retreat","134","1466633","0.0-134.0","","","1-3","4400","39","1","Training","Stims/Figures/57-C-30-1.bmp","tapa:ka","Left","39","9","3","7","P","C","131"
"","","approach-retreat","135","1472985","0.0-135.0","","","1-3","4846","40","0","Training","Stims/Figures/19-J-10-4.bmp","ma:mala","Up","38","9","4","7","S","C","132"
"","","approach-retreat","136","1482425","0.0-136.0","","","1-3","7935","39","1","Training","Stims/Figures/128-C-30-3.bmp","ma:ma:na","Left","39","9","5","7","S","C","133"
"","","approach-retreat","137","1488930","0.0-137.0","","","1-3","4999","40","1","Training","Stims/Figures/44-J-10-3.bmp","mala:la","Down","40","9","6","7","S","C","134"
"","","approach-retreat","138","1496746","0.0-138.0","","","1-3","6309","38","1","Training","Stims/Figures/94-J-0-2.bmp","ta:pa:ta","Up","38","9","7","7","P","C","135"
"","","approach-retreat","139","1503585","0.0-139.0","","","1-3","5334","38","1","Training","Stims/Figures/74-C-20-4.bmp","ma:ma:la","Down","38","9","8","7","S","C","136"
"","","approach-retreat","140","1510025","0.0-140.0","","","1-3","4934","39","1","Training","Stims/Figures/86-J-0-1.bmp","pa:pa:ta","Right","39","9","9","7","P","C","137"
"","","approach-retreat","141","1516601","0.0-141.0","","","1-3","5072","37","1","Training","Stims/Figures/19-C-20-4.bmp","mama:la","Right","37","9","10","7","S","C","138"
"","","approach-retreat","142","1522465","0.0-142.0","","","1-3","4359","38","1","Training","Stims/Figures/86-C-30-1.bmp","pa:ka:ta","Down","38","9","11","7","P","C","139"
"","","approach-retreat","143","1528281","0.0-143.0","","","1-3","4311","37","1","Training","Stims/Figures/94-C-20-2.bmp","papa:ta","Right","37","9","12","7","P","C","140"
"","","approach-retreat","144","1538593","0.0-144.0","","","1-3","8808","37","1","Training","Stims/Figures/139-J-0-2.bmp","tapa:ta","Left","37","9","13","7","P","C","141"
"","","approach-retreat","145","1546688","0.0-145.0","","","1-3","6590","38","1","Training","Stims/Figures/74-J-10-4.bmp","na:mala","Up","38","9","14","7","S","C","142"
"","","approach-retreat","146","1554712","0.0-146.0","","","1-3","6519","40","1","Training","Stims/Figures/57-J-0-1.bmp","pa:pa:ka","Down","40","9","15","7","P","C","143"
"","","approach-retreat","147","1564057","0.0-147.0","","","1-3","7841","40","1","Training","Stims/Figures/139-C-20-2.bmp","ta:kaka","Up","40","9","16","7","P","C","144"
"58580","","instructions","148","1622637","0.0-148.0","[{""page_index"":0,""viewing_time"":58580}]","","","","","","","","","","","","","","","",""
"","","approach-retreat","149","1630625","0.0-149.0","","","1-3","6484","38","1","Testing","Stims/Figures/144-C-30-3.bmp","na:mana","Down","38","1","1","7","S","C","1"
"","","approach-retreat","150","1639690","0.0-150.0","","","1-3","7560","40","1","Testing","Stims/Figures/118-C-20-2.bmp","ta:paka","Up","40","1","2","7","P","C","2"
"","","approach-retreat","151","1652785","0.0-151.0","","","1-3","11590","40","1","Testing","Stims/Figures/27-J-0-1.bmp","taka:ka","Down","40","1","3","7","P","C","3"
"","","approach-retreat","152","1659320","0.0-152.0","","","1-3","5031","37","1","Testing","Stims/Figures/144-J-10-3.bmp","nalana","Left","37","1","4","7","S","C","4"
"","","approach-retreat","153","1665489","0.0-153.0","","","1-3","4665","40","1","Testing","Stims/Figures/57-C-30-1.bmp","tapa:ka","Up","40","1","5","7","P","C","5"
"","","approach-retreat","154","1671824","0.0-154.0","","","1-3","4831","37","1","Testing","Stims/Figures/57-J-0-1.bmp","pa:pa:ka","Left","37","1","6","7","P","C","6"
"","","approach-retreat","155","1678128","0.0-155.0","","","1-3","4801","40","1","Testing","Stims/Figures/94-J-0-2.bmp","ta:pa:ta","Down","40","1","7","7","P","C","7"
"","","approach-retreat","156","1684760","0.0-156.0","","","1-3","5128","38","1","Testing","Stims/Figures/74-J-10-4.bmp","na:mala","Up","38","1","8","7","S","C","8"
"","","approach-retreat","157","1691016","0.0-157.0","","","1-3","4752","39","1","Testing","Stims/Figures/139-C-20-2.bmp","ta:kaka","Left","39","1","9","7","P","C","9"
"","","approach-retreat","158","1700056","0.0-158.0","","","1-3","7536","38","1","Testing","Stims/Figures/27-C-30-1.bmp","pa:kata","Down","38","1","10","7","P","C","10"
"","","approach-retreat","159","1706200","0.0-159.0","","","1-3","4640","39","1","Testing","Stims/Figures/19-J-10-4.bmp","ma:mala","Right","39","1","11","7","S","C","11"
"","","approach-retreat","160","1712288","0.0-160.0","","","1-3","4583","38","1","Testing","Stims/Figures/118-J-0-2.bmp","paka:ta","Up","38","1","12","7","P","C","12"
"","","approach-retreat","161","1718192","0.0-161.0","","","1-3","4400","37","1","Testing","Stims/Figures/74-C-20-4.bmp","ma:ma:la","Right","37","1","13","7","S","C","13"
"","","approach-retreat","162","1726800","0.0-162.0","","","1-3","7103","38","1","Testing","Stims/Figures/44-C-30-3.bmp","malala","Down","38","1","14","7","S","C","14"
"","","approach-retreat","163","1733367","0.0-163.0","","","1-3","5064","39","1","Testing","Stims/Figures/19-C-20-4.bmp","mama:la","Left","39","1","15","7","S","C","15"
"","","approach-retreat","164","1739328","0.0-164.0","","","1-3","4456","39","1","Testing","Stims/Figures/7-J-10-4.bmp","na:la:la","Right","39","1","16","7","S","C","16"
"","","approach-retreat","165","1745137","0.0-165.0","","","1-3","4304","39","1","Testing","Stims/Figures/44-J-10-3.bmp","mala:la","Right","39","1","17","7","S","C","17"
"","","approach-retreat","166","1752672","0.0-166.0","","","1-3","6031","40","1","Testing","Stims/Figures/128-C-30-3.bmp","ma:ma:na","Up","40","1","18","7","S","C","18"
"","","approach-retreat","167","1758552","0.0-167.0","","","1-3","4374","37","1","Testing","Stims/Figures/139-J-0-2.bmp","tapa:ta","Left","37","1","19","7","P","C","19"
"","","approach-retreat","168","1765536","0.0-168.0","","","1-3","5479","38","1","Testing","Stims/Figures/128-J-10-3.bmp","mala:na","Up","38","1","20","7","S","C","20"
"","","approach-retreat","169","1771392","0.0-169.0","","","1-3","4353","37","1","Testing","Stims/Figures/86-C-30-1.bmp","pa:ka:ta","Right","37","1","21","7","P","C","21"
"","","approach-retreat","170","1778192","0.0-170.0","","","1-3","5296","40","1","Testing","Stims/Figures/86-J-0-1.bmp","pa:pa:ta","Down","40","1","22","7","P","C","22"
"","","approach-retreat","171","1785256","0.0-171.0","","","1-3","5560","39","1","Testing","Stims/Figures/7-C-20-4.bmp","mamala","Left","39","1","23","7","S","C","23"
"","","approach-retreat","172","1791632","0.0-172.0","","","1-3","4872","37","1","Testing","Stims/Figures/94-C-20-2.bmp","papa:ta","Right","37","1","24","7","P","C","24"
"","","approach-retreat","173","1797616","0.0-173.0","","","1-3","4480","38","1","Testing","Stims/Figures/128-C-30-3.bmp","ma:ma:na","Down","38","2","1","7","S","C","25"
"","","approach-retreat","174","1803296","0.0-174.0","","","1-3","4175","37","1","Testing","Stims/Figures/139-J-0-2.bmp","tapa:ta","Left","37","2","2","7","P","C","26"
"","","approach-retreat","175","1809441","0.0-175.0","","","1-3","4641","39","1","Testing","Stims/Figures/74-J-10-4.bmp","na:mala","Right","39","2","3","7","S","C","27"
"","","approach-retreat","176","1815664","0.0-176.0","","","1-3","4720","38","1","Testing","Stims/Figures/94-J-0-2.bmp","ta:pa:ta","Up","38","2","4","7","P","C","28"
"","","approach-retreat","177","1824873","0.0-177.0","","","1-3","7705","38","1","Testing","Stims/Figures/27-J-0-1.bmp","taka:ka","Up","38","2","5","7","P","C","29"
"","","approach-retreat","178","1831296","0.0-178.0","","","1-3","4920","39","1","Testing","Stims/Figures/144-C-30-3.bmp","na:mana","Left","39","2","6","7","S","C","30"
"","","approach-retreat","179","1837528","0.0-179.0","","","1-3","4728","39","1","Testing","Stims/Figures/7-J-10-4.bmp","na:la:la","Right","39","2","7","7","S","C","31"
"","","approach-retreat","180","1844368","0.0-180.0","","","1-3","5334","39","0","Testing","Stims/Figures/118-C-20-2.bmp","ta:paka","Right","37","2","8","7","P","C","32"
"","","approach-retreat","181","1850905","0.0-181.0","","","1-3","5032","40","0","Testing","Stims/Figures/7-C-20-4.bmp","mamala","Down","38","2","9","7","S","C","33"
"","","approach-retreat","182","1856696","0.0-182.0","","","1-3","4286","38","1","Testing","Stims/Figures/86-J-0-1.bmp","pa:pa:ta","Up","38","2","10","7","P","C","34"
"","","approach-retreat","183","1862696","0.0-183.0","","","1-3","4494","37","1","Testing","Stims/Figures/19-C-20-4.bmp","mama:la","Right","37","2","11","7","S","C","35"
"","","approach-retreat","184","1868840","0.0-184.0","","","1-3","4639","39","1","Testing","Stims/Figures/57-J-0-1.bmp","pa:pa:ka","Right","39","2","12","7","P","C","36"
"","","approach-retreat","185","1875105","0.0-185.0","","","1-3","4759","38","1","Testing","Stims/Figures/74-C-20-4.bmp","ma:ma:la","Down","38","2","13","7","S","C","37"
"","","approach-retreat","186","1882049","0.0-186.0","","","1-3","5439","39","1","Testing","Stims/Figures/139-C-20-2.bmp","ta:kaka","Left","39","2","14","7","P","C","38"
"","","approach-retreat","187","1888264","0.0-187.0","","","1-3","4710","38","1","Testing","Stims/Figures/86-C-30-1.bmp","pa:ka:ta","Down","38","2","15","7","P","C","39"
"","","approach-retreat","188","1894512","0.0-188.0","","","1-3","4742","37","1","Testing","Stims/Figures/44-J-10-3.bmp","mala:la","Left","37","2","16","7","S","C","40"
"","","approach-retreat","189","1901049","0.0-189.0","","","1-3","5031","38","1","Testing","Stims/Figures/144-J-10-3.bmp","nalana","Up","38","2","17","7","S","C","41"
"","","approach-retreat","190","1907064","0.0-190.0","","","1-3","4510","40","1","Testing","Stims/Figures/57-C-30-1.bmp","tapa:ka","Up","40","2","18","7","P","C","42"
"","","approach-retreat","191","1914336","0.0-191.0","","","1-3","5768","40","1","Testing","Stims/Figures/94-C-20-2.bmp","papa:ta","Up","40","2","19","7","P","C","43"
"","","approach-retreat","192","1920211","0.0-192.0","","","1-3","4371","39","1","Testing","Stims/Figures/44-C-30-3.bmp","malala","Left","39","2","20","7","S","C","44"
"","","approach-retreat","193","1930521","0.0-193.0","","","1-3","8804","37","1","Testing","Stims/Figures/118-J-0-2.bmp","paka:ta","Left","37","2","21","7","P","C","45"
"","","approach-retreat","194","1936849","0.0-194.0","","","1-3","4823","40","1","Testing","Stims/Figures/128-J-10-3.bmp","mala:na","Down","40","2","22","7","S","C","46"
"","","approach-retreat","195","1942544","0.0-195.0","","","1-3","4191","38","1","Testing","Stims/Figures/27-C-30-1.bmp","pa:kata","Down","38","2","23","7","P","C","47"
"","","approach-retreat","196","1951040","0.0-196.0","","","1-3","6992","39","1","Testing","Stims/Figures/19-J-10-4.bmp","ma:mala","Right","39","2","24","7","S","C","48"
"","","approach-retreat","197","1957624","0.0-197.0","","","1-3","5081","38","0","Testing","Stims/Figures/7-C-20-4.bmp","mamala","Up","40","3","1","7","S","C","49"
"","","approach-retreat","198","1963544","0.0-198.0","","","1-3","4415","40","1","Testing","Stims/Figures/44-C-30-3.bmp","malala","Up","40","3","2","7","S","C","50"
"","","approach-retreat","199","1970881","0.0-199.0","","","1-3","5833","40","1","Testing","Stims/Figures/86-C-30-1.bmp","pa:ka:ta","Up","40","3","3","7","P","C","51"
"","","approach-retreat","200","1976856","0.0-200.0","","","1-3","4471","38","0","Testing","Stims/Figures/19-J-10-4.bmp","ma:mala","Down","40","3","4","7","S","C","52"
"","","approach-retreat","201","1982568","0.0-201.0","","","1-3","4208","39","1","Testing","Stims/Figures/128-C-30-3.bmp","ma:ma:na","Left","39","3","5","7","S","C","53"
"","","approach-retreat","202","1988264","0.0-202.0","","","1-3","4192","37","1","Testing","Stims/Figures/128-J-10-3.bmp","mala:na","Left","37","3","6","7","S","C","54"
"","","approach-retreat","203","1995216","0.0-203.0","","","1-3","5449","37","1","Testing","Stims/Figures/57-C-30-1.bmp","tapa:ka","Right","37","3","7","7","P","C","55"
"","","approach-retreat","204","2001177","0.0-204.0","","","1-3","4455","39","1","Testing","Stims/Figures/94-J-0-2.bmp","ta:pa:ta","Right","39","3","8","7","P","C","56"
"","","approach-retreat","205","2006929","0.0-205.0","","","1-3","4247","38","1","Testing","Stims/Figures/74-J-10-4.bmp","na:mala","Up","38","3","9","7","S","C","57"
"","","approach-retreat","206","2013136","0.0-206.0","","","1-3","4703","40","1","Testing","Stims/Figures/86-J-0-1.bmp","pa:pa:ta","Down","40","3","10","7","P","C","58"
"","","approach-retreat","207","2026177","0.0-207.0","","","1-3","11537","40","1","Testing","Stims/Figures/118-J-0-2.bmp","paka:ta","Down","40","3","11","7","P","C","59"
"","","approach-retreat","208","2032248","0.0-208.0","","","1-3","4567","38","1","Testing","Stims/Figures/7-J-10-4.bmp","na:la:la","Up","38","3","12","7","S","C","60"
"","","approach-retreat","209","2052017","0.0-209.0","","","1-3","18266","40","1","Testing","Stims/Figures/139-J-0-2.bmp","tapa:ta","Down","40","3","13","7","P","C","61"
"","","approach-retreat","210","2057970","0.0-210.0","","","1-3","4448","37","1","Testing","Stims/Figures/74-C-20-4.bmp","ma:ma:la","Right","37","3","14","7","S","C","62"
"","","approach-retreat","211","2063776","0.0-211.0","","","1-3","4304","39","1","Testing","Stims/Figures/144-J-10-3.bmp","nalana","Right","39","3","15","7","S","C","63"
"","","approach-retreat","212","2069345","0.0-212.0","","","1-3","4064","37","0","Testing","Stims/Figures/19-C-20-4.bmp","mama:la","Left","39","3","16","7","S","C","64"
"","","approach-retreat","213","2075641","0.0-213.0","","","1-3","4792","37","1","Testing","Stims/Figures/94-C-20-2.bmp","papa:ta","Right","37","3","17","7","P","C","65"
"","","approach-retreat","214","2081633","0.0-214.0","","","1-3","4488","37","0","Testing","Stims/Figures/118-C-20-2.bmp","ta:paka","Left","39","3","18","7","P","C","66"
"","","approach-retreat","215","2088040","0.0-215.0","","","1-3","4904","40","1","Testing","Stims/Figures/27-C-30-1.bmp","pa:kata","Up","40","3","19","7","P","C","67"
"","","approach-retreat","216","2094240","0.0-216.0","","","1-3","4696","39","1","Testing","Stims/Figures/144-C-30-3.bmp","na:mana","Left","39","3","20","7","S","C","68"
"","","approach-retreat","217","2103264","0.0-217.0","","","1-3","7520","39","1","Testing","Stims/Figures/139-C-20-2.bmp","ta:kaka","Left","39","3","21","7","P","C","69"
"","","approach-retreat","218","2109831","0.0-218.0","","","1-3","5064","39","1","Testing","Stims/Figures/27-J-0-1.bmp","taka:ka","Right","39","3","22","7","P","C","70"
"","","approach-retreat","219","2116001","0.0-219.0","","","1-3","4666","40","1","Testing","Stims/Figures/57-J-0-1.bmp","pa:pa:ka","Down","40","3","23","7","P","C","71"
"","","approach-retreat","220","2122177","0.0-220.0","","","1-3","4673","40","1","Testing","Stims/Figures/44-J-10-3.bmp","mala:la","Down","40","3","24","7","S","C","72"
"","","approach-retreat","221","2129841","0.0-221.0","","","1-3","6160","40","1","Testing","Stims/Figures/7-J-10-4.bmp","na:la:la","Down","40","4","1","7","S","C","73"
"","","approach-retreat","222","2135928","0.0-222.0","","","1-3","4584","39","1","Testing","Stims/Figures/19-J-10-4.bmp","ma:mala","Right","39","4","2","7","S","C","74"
"","","approach-retreat","223","2142441","0.0-223.0","","","1-3","5007","40","1","Testing","Stims/Figures/74-J-10-4.bmp","na:mala","Down","40","4","3","7","S","C","75"
"","","approach-retreat","224","2149136","0.0-224.0","","","1-3","5192","37","1","Testing","Stims/Figures/19-C-20-4.bmp","mama:la","Right","37","4","4","7","S","C","76"
"","","approach-retreat","225","2155945","0.0-225.0","","","1-3","5304","40","1","Testing","Stims/Figures/86-J-0-1.bmp","pa:pa:ta","Down","40","4","5","7","P","C","77"
"","","approach-retreat","226","2166748","0.0-226.0","","","1-3","9300","40","1","Testing","Stims/Figures/74-C-20-4.bmp","ma:ma:la","Up","40","4","6","7","S","C","78"
"","","approach-retreat","227","2172721","0.0-227.0","","","1-3","4470","38","0","Testing","Stims/Figures/7-C-20-4.bmp","mamala","Up","40","4","7","7","S","C","79"
"","","approach-retreat","228","2179034","0.0-228.0","","","1-3","4808","40","1","Testing","Stims/Figures/128-J-10-3.bmp","mala:na","Down","40","4","8","7","S","C","80"
"","","approach-retreat","229","2184968","0.0-229.0","","","1-3","4432","37","1","Testing","Stims/Figures/27-J-0-1.bmp","taka:ka","Left","37","4","9","7","P","C","81"
"","","approach-retreat","230","2190993","0.0-230.0","","","1-3","4520","39","1","Testing","Stims/Figures/118-J-0-2.bmp","paka:ta","Right","39","4","10","7","P","C","82"
"","","approach-retreat","231","2198442","0.0-231.0","","","1-3","5944","37","1","Testing","Stims/Figures/57-C-30-1.bmp","tapa:ka","Right","37","4","11","7","P","C","83"
"","","approach-retreat","232","2205385","0.0-232.0","","","1-3","5439","40","1","Testing","Stims/Figures/86-C-30-1.bmp","pa:ka:ta","Up","40","4","12","7","P","C","84"
"","","approach-retreat","233","2211313","0.0-233.0","","","1-3","4422","37","1","Testing","Stims/Figures/144-C-30-3.bmp","na:mana","Right","37","4","13","7","S","C","85"
"","","approach-retreat","234","2218033","0.0-234.0","","","1-3","5215","37","1","Testing","Stims/Figures/144-J-10-3.bmp","nalana","Left","37","4","14","7","S","C","86"
"","","approach-retreat","235","2225528","0.0-235.0","","","1-3","5991","40","1","Testing","Stims/Figures/44-C-30-3.bmp","malala","Up","40","4","15","7","S","C","87"
"","","approach-retreat","236","2232514","0.0-236.0","","","1-3","5480","37","1","Testing","Stims/Figures/94-J-0-2.bmp","ta:pa:ta","Left","37","4","16","7","P","C","88"
"","","approach-retreat","237","2239769","0.0-237.0","","","1-3","5750","40","0","Testing","Stims/Figures/139-C-20-2.bmp","ta:kaka","Down","38","4","17","7","P","C","89"
"","","approach-retreat","238","2245587","0.0-238.0","","","1-3","4314","39","1","Testing","Stims/Figures/27-C-30-1.bmp","pa:kata","Left","39","4","18","7","P","C","90"
"","","approach-retreat","239","2253409","0.0-239.0","","","1-3","6317","40","0","Testing","Stims/Figures/118-C-20-2.bmp","ta:paka","Down","38","4","19","7","P","C","91"
"","","approach-retreat","240","2260401","0.0-240.0","","","1-3","5488","37","1","Testing","Stims/Figures/94-C-20-2.bmp","papa:ta","Right","37","4","20","7","P","C","92"
"","","approach-retreat","241","2266714","0.0-241.0","","","1-3","4808","38","1","Testing","Stims/Figures/44-J-10-3.bmp","mala:la","Up","38","4","21","7","S","C","93"
"","","approach-retreat","242","2272914","0.0-242.0","","","1-3","4695","38","1","Testing","Stims/Figures/139-J-0-2.bmp","tapa:ta","Up","38","4","22","7","P","C","94"
"","","approach-retreat","243","2279016","0.0-243.0","","","1-3","4599","37","0","Testing","Stims/Figures/128-C-30-3.bmp","ma:ma:na","Left","39","4","23","7","S","C","95"
"","","approach-retreat","244","2288113","0.0-244.0","","","1-3","7593","37","1","Testing","Stims/Figures/57-J-0-1.bmp","pa:pa:ka","Left","37","4","24","7","P","C","96"
"33483","","survey-text","245","2321599","0.0-245.0","","{""Q0"":""1114/2018""}","","","","","","","","","","","","","","",""
