"rt","key_press","trial_type","trial_index","time_elapsed","internal_node_id","view_history","responses","Id","Rt","ResKeyCode","ResCorr","TrialType2","Image","Label","Location","CorrectResponse","Block","BlockTrial","Condition","LabelType","Subcondition","trialNum"
"83418","32","text","0","83420","0.0-0.0-0.0","","","","","","","","","","","","","","","","",""
"52591","","instructions","1","136013","0.0-1.0","[{""page_index"":0,""viewing_time"":52589}]","","","","","","","","","","","","","","","",""
"34672","","survey-multi-choice","2","170758","0.0-2.0","","{""Q0"":""Da"",""Q1"":""Da"",""Q2"":""Da"",""Q3"":""Da"",""Q4"":""Da"",""Q5"":""Da""}","","","","","","","","","","","","","","",""
"","","bio","3","179756","0.0-3.0","","{""age"":""26"",""gender"":""m"",""specify"":""""}","","","","","","","","","","","","","","",""
"","","approach-retreat","4","191219","0.0-4.0","","","1-4","9948","37","1","Training","Stims/Figures/87-C-20-4.bmp","sa:saha","Right","37","1","1","6A","C2","C","1"
"","","approach-retreat","5","201117","0.0-5.0","","","1-4","8389","40","1","Training","Stims/Figures/85-C-20-2.bmp","sasaza","Up","40","1","2","6A","C2","C","2"
"","","approach-retreat","6","207673","0.0-6.0","","","1-4","5046","40","1","Training","Stims/Figures/85-J-0-2.bmp","fafa:va","Down","40","1","3","6A","C1","C","3"
"","","approach-retreat","7","213712","0.0-7.0","","","1-4","4530","39","1","Training","Stims/Figures/7-J-10-4.bmp","va:fa:sha","Right","39","1","4","6A","C1","C","4"
"","","approach-retreat","8","219785","0.0-8.0","","","1-4","4563","40","1","Training","Stims/Figures/57-C-30-1.bmp","sa:haha","Up","40","1","5","6A","C2","C","5"
"","","approach-retreat","9","226095","0.0-9.0","","","1-4","4800","37","1","Training","Stims/Figures/139-J-0-2.bmp","vafava","Left","37","1","6","6A","C1","C","6"
"","","approach-retreat","10","236750","0.0-10.0","","","1-4","9146","39","1","Training","Stims/Figures/93-J-0-1.bmp","fasha:va","Right","39","1","7","6A","C1","C","7"
"","","approach-retreat","11","242655","0.0-11.0","","","1-4","4394","40","0","Training","Stims/Figures/100-C-30-3.bmp","zaha:za","Down","38","1","8","6A","C2","C","8"
"","","approach-retreat","12","248643","0.0-12.0","","","1-4","4478","40","1","Training","Stims/Figures/139-C-20-2.bmp","zahaha","Up","40","1","9","6A","C2","C","9"
"","","approach-retreat","13","254979","0.0-13.0","","","1-4","4826","39","0","Training","Stims/Figures/57-J-0-1.bmp","fafava","Left","37","1","10","6A","C1","C","10"
"","","approach-retreat","14","263904","0.0-14.0","","","1-4","7418","37","1","Training","Stims/Figures/7-C-20-4.bmp","zaha:ha","Right","37","1","11","6A","C2","C","11"
"","","approach-retreat","15","271999","0.0-15.0","","","1-4","6589","39","1","Training","Stims/Figures/128-C-30-3.bmp","za:haha","Left","39","1","12","6A","C2","C","12"
"","","approach-retreat","16","278724","0.0-16.0","","","1-4","5216","38","1","Training","Stims/Figures/93-C-30-1.bmp","sahaza","Down","38","1","13","6A","C2","C","13"
"","","approach-retreat","17","285445","0.0-17.0","","","1-4","5215","40","1","Training","Stims/Figures/87-J-10-4.bmp","va:sha:sha","Down","40","1","14","6A","C1","C","14"
"","","approach-retreat","18","292854","0.0-18.0","","","1-4","5898","37","1","Training","Stims/Figures/128-J-10-3.bmp","fashasha","Left","37","1","15","6A","C1","C","15"
"","","approach-retreat","19","299059","0.0-19.0","","","1-4","4695","40","0","Training","Stims/Figures/100-J-10-3.bmp","vasha:va","Up","38","1","16","6A","C1","C","16"
"","","approach-retreat","20","306022","0.0-20.0","","","1-4","5454","39","1","Training","Stims/Figures/93-J-0-1.bmp","fasha:va","Right","39","2","1","6A","C1","C","17"
"","","approach-retreat","21","319797","0.0-21.0","","","1-4","12265","38","0","Training","Stims/Figures/93-C-30-1.bmp","sahaza","Up","40","2","2","6A","C2","C","18"
"","","approach-retreat","22","327371","0.0-22.0","","","1-4","6066","37","0","Training","Stims/Figures/85-C-20-2.bmp","sasaza","Left","39","2","3","6A","C2","C","19"
"","","approach-retreat","23","333084","0.0-23.0","","","1-4","4203","37","1","Training","Stims/Figures/100-J-10-3.bmp","vasha:va","Left","37","2","4","6A","C1","C","20"
"","","approach-retreat","24","339077","0.0-24.0","","","1-4","4484","38","1","Training","Stims/Figures/139-C-20-2.bmp","zahaha","Down","38","2","5","6A","C2","C","21"
"","","approach-retreat","25","345122","0.0-25.0","","","1-4","4535","38","1","Training","Stims/Figures/87-J-10-4.bmp","va:sha:sha","Up","38","2","6","6A","C1","C","22"
"","","approach-retreat","26","351190","0.0-26.0","","","1-4","4559","37","1","Training","Stims/Figures/85-J-0-2.bmp","fafa:va","Left","37","2","7","6A","C1","C","23"
"","","approach-retreat","27","360878","0.0-27.0","","","1-4","8179","38","1","Training","Stims/Figures/100-C-30-3.bmp","zaha:za","Down","38","2","8","6A","C2","C","24"
"","","approach-retreat","28","373344","0.0-28.0","","","1-4","10954","37","1","Training","Stims/Figures/87-C-20-4.bmp","sa:saha","Right","37","2","9","6A","C2","C","25"
"","","approach-retreat","29","379784","0.0-29.0","","","1-4","4931","38","1","Training","Stims/Figures/57-C-30-1.bmp","sa:haha","Down","38","2","10","6A","C2","C","26"
"","","approach-retreat","30","385657","0.0-30.0","","","1-4","4363","40","1","Training","Stims/Figures/128-C-30-3.bmp","za:haha","Up","40","2","11","6A","C2","C","27"
"","","approach-retreat","31","391482","0.0-31.0","","","1-4","4317","37","1","Training","Stims/Figures/7-J-10-4.bmp","va:fa:sha","Left","37","2","12","6A","C1","C","28"
"","","approach-retreat","32","397240","0.0-32.0","","","1-4","4250","38","1","Training","Stims/Figures/7-C-20-4.bmp","zaha:ha","Down","38","2","13","6A","C2","C","29"
"","","approach-retreat","33","403191","0.0-33.0","","","1-4","4441","38","1","Training","Stims/Figures/128-J-10-3.bmp","fashasha","Up","38","2","14","6A","C1","C","30"
"","","approach-retreat","34","409104","0.0-34.0","","","1-4","4403","39","1","Training","Stims/Figures/139-J-0-2.bmp","vafava","Right","39","2","15","6A","C1","C","31"
"","","approach-retreat","35","416208","0.0-35.0","","","1-4","5596","39","1","Training","Stims/Figures/57-J-0-1.bmp","fafava","Right","39","2","16","6A","C1","C","32"
"","","approach-retreat","36","422000","0.0-36.0","","","1-4","4282","38","1","Training","Stims/Figures/128-C-30-3.bmp","za:haha","Down","38","3","1","6A","C2","C","33"
"","","approach-retreat","37","427818","0.0-37.0","","","1-4","4309","37","1","Training","Stims/Figures/93-J-0-1.bmp","fasha:va","Left","37","3","2","6A","C1","C","34"
"","","approach-retreat","38","434305","0.0-38.0","","","1-4","4978","40","1","Training","Stims/Figures/139-C-20-2.bmp","zahaha","Up","40","3","3","6A","C2","C","35"
"","","approach-retreat","39","440540","0.0-39.0","","","1-4","4725","40","1","Training","Stims/Figures/87-J-10-4.bmp","va:sha:sha","Down","40","3","4","6A","C1","C","36"
"","","approach-retreat","40","448647","0.0-40.0","","","1-4","6602","40","1","Training","Stims/Figures/93-C-30-1.bmp","sahaza","Up","40","3","5","6A","C2","C","37"
"","","approach-retreat","41","454484","0.0-41.0","","","1-4","4328","38","1","Training","Stims/Figures/7-C-20-4.bmp","zaha:ha","Down","38","3","6","6A","C2","C","38"
"","","approach-retreat","42","460486","0.0-42.0","","","1-4","4493","39","1","Training","Stims/Figures/57-C-30-1.bmp","sa:haha","Left","39","3","7","6A","C2","C","39"
"","","approach-retreat","43","466517","0.0-43.0","","","1-4","4522","37","1","Training","Stims/Figures/85-J-0-2.bmp","fafa:va","Left","37","3","8","6A","C1","C","40"
"","","approach-retreat","44","472531","0.0-44.0","","","1-4","4509","38","1","Training","Stims/Figures/57-J-0-1.bmp","fafava","Up","38","3","9","6A","C1","C","41"
"","","approach-retreat","45","481682","0.0-45.0","","","1-4","7643","37","1","Training","Stims/Figures/128-J-10-3.bmp","fashasha","Left","37","3","10","6A","C1","C","42"
"","","approach-retreat","46","487844","0.0-46.0","","","1-4","4652","39","0","Training","Stims/Figures/85-C-20-2.bmp","sasaza","Right","37","3","11","6A","C2","C","43"
"","","approach-retreat","47","493597","0.0-47.0","","","1-4","4243","37","1","Training","Stims/Figures/100-C-30-3.bmp","zaha:za","Right","37","3","12","6A","C2","C","44"
"","","approach-retreat","48","499383","0.0-48.0","","","1-4","4276","40","1","Training","Stims/Figures/7-J-10-4.bmp","va:fa:sha","Down","40","3","13","6A","C1","C","45"
"","","approach-retreat","49","505003","0.0-49.0","","","1-4","4110","39","0","Training","Stims/Figures/87-C-20-4.bmp","sa:saha","Right","37","3","14","6A","C2","C","46"
"","","approach-retreat","50","511522","0.0-50.0","","","1-4","5011","38","1","Training","Stims/Figures/139-J-0-2.bmp","vafava","Up","38","3","15","6A","C1","C","47"
"","","approach-retreat","51","517929","0.0-51.0","","","1-4","4896","39","1","Training","Stims/Figures/100-J-10-3.bmp","vasha:va","Right","39","3","16","6A","C1","C","48"
"","","approach-retreat","52","523717","0.0-52.0","","","1-4","4275","37","1","Training","Stims/Figures/139-J-0-2.bmp","vafava","Left","37","4","1","6A","C1","C","49"
"","","approach-retreat","53","529721","0.0-53.0","","","1-4","4494","38","1","Training","Stims/Figures/128-J-10-3.bmp","fashasha","Up","38","4","2","6A","C1","C","50"
"","","approach-retreat","54","536076","0.0-54.0","","","1-4","4845","40","1","Training","Stims/Figures/7-C-20-4.bmp","zaha:ha","Up","40","4","3","6A","C2","C","51"
"","","approach-retreat","55","542273","0.0-55.0","","","1-4","4692","38","1","Training","Stims/Figures/100-C-30-3.bmp","zaha:za","Down","38","4","4","6A","C2","C","52"
"","","approach-retreat","56","548617","0.0-56.0","","","1-4","4832","40","1","Training","Stims/Figures/85-J-0-2.bmp","fafa:va","Down","40","4","5","6A","C1","C","53"
"","","approach-retreat","57","554360","0.0-57.0","","","1-4","4236","38","1","Training","Stims/Figures/85-C-20-2.bmp","sasaza","Down","38","4","6","6A","C2","C","54"
"","","approach-retreat","58","560580","0.0-58.0","","","1-4","4712","39","1","Training","Stims/Figures/139-C-20-2.bmp","zahaha","Left","39","4","7","6A","C2","C","55"
"","","approach-retreat","59","566458","0.0-59.0","","","1-4","4369","37","1","Training","Stims/Figures/128-C-30-3.bmp","za:haha","Right","37","4","8","6A","C2","C","56"
"","","approach-retreat","60","572424","0.0-60.0","","","1-4","4461","39","1","Training","Stims/Figures/93-J-0-1.bmp","fasha:va","Right","39","4","9","6A","C1","C","57"
"","","approach-retreat","61","578034","0.0-61.0","","","1-4","4102","37","1","Training","Stims/Figures/57-C-30-1.bmp","sa:haha","Right","37","4","10","6A","C2","C","58"
"","","approach-retreat","62","583816","0.0-62.0","","","1-4","4271","38","1","Training","Stims/Figures/57-J-0-1.bmp","fafava","Up","38","4","11","6A","C1","C","59"
"","","approach-retreat","63","589675","0.0-63.0","","","1-4","4349","37","1","Training","Stims/Figures/100-J-10-3.bmp","vasha:va","Left","37","4","12","6A","C1","C","60"
"","","approach-retreat","64","596564","0.0-64.0","","","1-4","5379","40","1","Training","Stims/Figures/87-J-10-4.bmp","va:sha:sha","Down","40","4","13","6A","C1","C","61"
"","","approach-retreat","65","603188","0.0-65.0","","","1-4","5114","39","1","Training","Stims/Figures/7-J-10-4.bmp","va:fa:sha","Right","39","4","14","6A","C1","C","62"
"","","approach-retreat","66","609010","0.0-66.0","","","1-4","4313","40","1","Training","Stims/Figures/93-C-30-1.bmp","sahaza","Up","40","4","15","6A","C2","C","63"
"","","approach-retreat","67","614645","0.0-67.0","","","1-4","4126","39","1","Training","Stims/Figures/87-C-20-4.bmp","sa:saha","Left","39","4","16","6A","C2","C","64"
"","","approach-retreat","68","620189","0.0-68.0","","","1-4","4033","40","1","Training","Stims/Figures/93-C-30-1.bmp","sahaza","Up","40","5","1","6A","C2","C","65"
"","","approach-retreat","69","625781","0.0-69.0","","","1-4","4082","40","1","Training","Stims/Figures/87-C-20-4.bmp","sa:saha","Up","40","5","2","6A","C2","C","66"
"","","approach-retreat","70","631365","0.0-70.0","","","1-4","4074","39","1","Training","Stims/Figures/139-J-0-2.bmp","vafava","Right","39","5","3","6A","C1","C","67"
"","","approach-retreat","71","637153","0.0-71.0","","","1-4","4277","40","1","Training","Stims/Figures/100-J-10-3.bmp","vasha:va","Down","40","5","4","6A","C1","C","68"
"","","approach-retreat","72","643718","0.0-72.0","","","1-4","5054","40","1","Training","Stims/Figures/128-J-10-3.bmp","fashasha","Down","40","5","5","6A","C1","C","69"
"","","approach-retreat","73","649432","0.0-73.0","","","1-4","4205","40","1","Training","Stims/Figures/7-J-10-4.bmp","va:fa:sha","Down","40","5","6","6A","C1","C","70"
"","","approach-retreat","74","655099","0.0-74.0","","","1-4","4163","37","1","Training","Stims/Figures/57-J-0-1.bmp","fafava","Left","37","5","7","6A","C1","C","71"
"","","approach-retreat","75","660803","0.0-75.0","","","1-4","4198","37","1","Training","Stims/Figures/87-J-10-4.bmp","va:sha:sha","Left","37","5","8","6A","C1","C","72"
"","","approach-retreat","76","666601","0.0-76.0","","","1-4","4292","38","1","Training","Stims/Figures/85-C-20-2.bmp","sasaza","Down","38","5","9","6A","C2","C","73"
"","","approach-retreat","77","672206","0.0-77.0","","","1-4","4096","39","1","Training","Stims/Figures/57-C-30-1.bmp","sa:haha","Left","39","5","10","6A","C2","C","74"
"","","approach-retreat","78","678256","0.0-78.0","","","1-4","4542","40","1","Training","Stims/Figures/100-C-30-3.bmp","zaha:za","Up","40","5","11","6A","C2","C","75"
"","","approach-retreat","79","686660","0.0-79.0","","","1-4","6893","38","1","Training","Stims/Figures/93-J-0-1.bmp","fasha:va","Up","38","5","12","6A","C1","C","76"
"","","approach-retreat","80","692316","0.0-80.0","","","1-4","4144","39","1","Training","Stims/Figures/85-J-0-2.bmp","fafa:va","Right","39","5","13","6A","C1","C","77"
"","","approach-retreat","81","699752","0.0-81.0","","","1-4","5931","39","1","Training","Stims/Figures/128-C-30-3.bmp","za:haha","Left","39","5","14","6A","C2","C","78"
"","","approach-retreat","82","705870","0.0-82.0","","","1-4","4608","37","1","Training","Stims/Figures/7-C-20-4.bmp","zaha:ha","Right","37","5","15","6A","C2","C","79"
"","","approach-retreat","83","711663","0.0-83.0","","","1-4","4287","37","1","Training","Stims/Figures/139-C-20-2.bmp","zahaha","Right","37","5","16","6A","C2","C","80"
"","","approach-retreat","84","717260","0.0-84.0","","","1-4","4090","37","1","Training","Stims/Figures/57-C-30-1.bmp","sa:haha","Right","37","6","1","6A","C2","C","81"
"","","approach-retreat","85","723100","0.0-85.0","","","1-4","4329","40","1","Training","Stims/Figures/139-C-20-2.bmp","zahaha","Up","40","6","2","6A","C2","C","82"
"","","approach-retreat","86","729741","0.0-86.0","","","1-4","5131","40","1","Training","Stims/Figures/87-C-20-4.bmp","sa:saha","Up","40","6","3","6A","C2","C","83"
"","","approach-retreat","87","735591","0.0-87.0","","","1-4","4341","40","1","Training","Stims/Figures/139-J-0-2.bmp","vafava","Down","40","6","4","6A","C1","C","84"
"","","approach-retreat","88","743411","0.0-88.0","","","1-4","6310","38","1","Training","Stims/Figures/93-C-30-1.bmp","sahaza","Down","38","6","5","6A","C2","C","85"
"","","approach-retreat","89","749632","0.0-89.0","","","1-4","4713","39","1","Training","Stims/Figures/85-J-0-2.bmp","fafa:va","Right","39","6","6","6A","C1","C","86"
"","","approach-retreat","90","758306","0.0-90.0","","","1-4","7164","39","1","Training","Stims/Figures/7-C-20-4.bmp","zaha:ha","Left","39","6","7","6A","C2","C","87"
"","","approach-retreat","91","764530","0.0-91.0","","","1-4","4715","38","1","Training","Stims/Figures/128-J-10-3.bmp","fashasha","Up","38","6","8","6A","C1","C","88"
"","","approach-retreat","92","770425","0.0-92.0","","","1-4","4385","38","1","Training","Stims/Figures/100-C-30-3.bmp","zaha:za","Down","38","6","9","6A","C2","C","89"
"","","approach-retreat","93","776331","0.0-93.0","","","1-4","4397","39","1","Training","Stims/Figures/100-J-10-3.bmp","vasha:va","Right","39","6","10","6A","C1","C","90"
"","","approach-retreat","94","783254","0.0-94.0","","","1-4","5415","38","1","Training","Stims/Figures/93-J-0-1.bmp","fasha:va","Up","38","6","11","6A","C1","C","91"
"","","approach-retreat","95","789755","0.0-95.0","","","1-4","4992","39","1","Training","Stims/Figures/85-C-20-2.bmp","sasaza","Left","39","6","12","6A","C2","C","92"
"","","approach-retreat","96","797635","0.0-96.0","","","1-4","6371","37","1","Training","Stims/Figures/87-J-10-4.bmp","va:sha:sha","Left","37","6","13","6A","C1","C","93"
"","","approach-retreat","97","803637","0.0-97.0","","","1-4","4492","38","1","Training","Stims/Figures/128-C-30-3.bmp","za:haha","Down","38","6","14","6A","C2","C","94"
"","","approach-retreat","98","809899","0.0-98.0","","","1-4","4751","37","1","Training","Stims/Figures/57-J-0-1.bmp","fafava","Left","37","6","15","6A","C1","C","95"
"","","approach-retreat","99","816079","0.0-99.0","","","1-4","4671","39","1","Training","Stims/Figures/7-J-10-4.bmp","va:fa:sha","Right","39","6","16","6A","C1","C","96"
"","","approach-retreat","100","823731","0.0-100.0","","","1-4","6147","37","1","Training","Stims/Figures/93-C-30-1.bmp","sahaza","Right","37","7","1","6A","C2","C","97"
"","","approach-retreat","101","829992","0.0-101.0","","","1-4","4751","39","1","Training","Stims/Figures/87-C-20-4.bmp","sa:saha","Left","39","7","2","6A","C2","C","98"
"","","approach-retreat","102","836849","0.0-102.0","","","1-4","5349","38","1","Training","Stims/Figures/100-J-10-3.bmp","vasha:va","Up","38","7","3","6A","C1","C","99"
"","","approach-retreat","103","843329","0.0-103.0","","","1-4","4971","39","1","Training","Stims/Figures/7-C-20-4.bmp","zaha:ha","Left","39","7","4","6A","C2","C","100"
"","","approach-retreat","104","849429","0.0-104.0","","","1-4","4591","39","1","Training","Stims/Figures/7-J-10-4.bmp","va:fa:sha","Right","39","7","5","6A","C1","C","101"
"","","approach-retreat","105","855405","0.0-105.0","","","1-4","4466","38","1","Training","Stims/Figures/139-J-0-2.bmp","vafava","Up","38","7","6","6A","C1","C","102"
"","","approach-retreat","106","861204","0.0-106.0","","","1-4","4289","39","1","Training","Stims/Figures/57-J-0-1.bmp","fafava","Right","39","7","7","6A","C1","C","103"
"","","approach-retreat","107","869198","0.0-107.0","","","1-4","6488","37","1","Training","Stims/Figures/93-J-0-1.bmp","fasha:va","Left","37","7","8","6A","C1","C","104"
"","","approach-retreat","108","875183","0.0-108.0","","","1-4","4477","37","1","Training","Stims/Figures/85-C-20-2.bmp","sasaza","Right","37","7","9","6A","C2","C","105"
"","","approach-retreat","109","881024","0.0-109.0","","","1-4","4333","40","1","Training","Stims/Figures/100-C-30-3.bmp","zaha:za","Up","40","7","10","6A","C2","C","106"
"","","approach-retreat","110","886904","0.0-110.0","","","1-4","4368","38","1","Training","Stims/Figures/128-C-30-3.bmp","za:haha","Down","38","7","11","6A","C2","C","107"
"","","approach-retreat","111","893153","0.0-111.0","","","1-4","4740","40","1","Training","Stims/Figures/139-C-20-2.bmp","zahaha","Up","40","7","12","6A","C2","C","108"
"","","approach-retreat","112","901590","0.0-112.0","","","1-4","6926","40","1","Training","Stims/Figures/128-J-10-3.bmp","fashasha","Down","40","7","13","6A","C1","C","109"
"","","approach-retreat","113","907430","0.0-113.0","","","1-4","4336","40","1","Training","Stims/Figures/85-J-0-2.bmp","fafa:va","Down","40","7","14","6A","C1","C","110"
"","","approach-retreat","114","913219","0.0-114.0","","","1-4","4278","40","1","Training","Stims/Figures/87-J-10-4.bmp","va:sha:sha","Down","40","7","15","6A","C1","C","111"
"","","approach-retreat","115","919255","0.0-115.0","","","1-4","4526","39","1","Training","Stims/Figures/57-C-30-1.bmp","sa:haha","Left","39","7","16","6A","C2","C","112"
"","","approach-retreat","116","925039","0.0-116.0","","","1-4","4275","37","1","Training","Stims/Figures/7-C-20-4.bmp","zaha:ha","Right","37","8","1","6A","C2","C","113"
"","","approach-retreat","117","931020","0.0-117.0","","","1-4","4472","38","1","Training","Stims/Figures/87-J-10-4.bmp","va:sha:sha","Up","38","8","2","6A","C1","C","114"
"","","approach-retreat","118","936750","0.0-118.0","","","1-4","4221","40","1","Training","Stims/Figures/87-C-20-4.bmp","sa:saha","Up","40","8","3","6A","C2","C","115"
"","","approach-retreat","119","942494","0.0-119.0","","","1-4","4235","39","1","Training","Stims/Figures/139-J-0-2.bmp","vafava","Right","39","8","4","6A","C1","C","116"
"","","approach-retreat","120","948197","0.0-120.0","","","1-4","4194","39","1","Training","Stims/Figures/57-J-0-1.bmp","fafava","Right","39","8","5","6A","C1","C","117"
"","","approach-retreat","121","954761","0.0-121.0","","","1-4","5054","38","1","Training","Stims/Figures/139-C-20-2.bmp","zahaha","Down","38","8","6","6A","C2","C","118"
"","","approach-retreat","122","961669","0.0-122.0","","","1-4","5400","37","1","Training","Stims/Figures/7-J-10-4.bmp","va:fa:sha","Left","37","8","7","6A","C1","C","119"
"","","approach-retreat","123","968949","0.0-123.0","","","1-4","5772","38","1","Training","Stims/Figures/100-J-10-3.bmp","vasha:va","Up","38","8","8","6A","C1","C","120"
"","","approach-retreat","124","974886","0.0-124.0","","","1-4","4430","40","1","Training","Stims/Figures/85-C-20-2.bmp","sasaza","Up","40","8","9","6A","C2","C","121"
"","","approach-retreat","125","983193","0.0-125.0","","","1-4","6799","39","1","Training","Stims/Figures/128-J-10-3.bmp","fashasha","Right","39","8","10","6A","C1","C","122"
"","","approach-retreat","126","989373","0.0-126.0","","","1-4","4669","37","1","Training","Stims/Figures/93-J-0-1.bmp","fasha:va","Left","37","8","11","6A","C1","C","123"
"","","approach-retreat","127","995160","0.0-127.0","","","1-4","4279","40","1","Training","Stims/Figures/85-J-0-2.bmp","fafa:va","Down","40","8","12","6A","C1","C","124"
"","","approach-retreat","128","1001121","0.0-128.0","","","1-4","4452","39","1","Training","Stims/Figures/128-C-30-3.bmp","za:haha","Left","39","8","13","6A","C2","C","125"
"","","approach-retreat","129","1006892","0.0-129.0","","","1-4","4263","39","1","Training","Stims/Figures/93-C-30-1.bmp","sahaza","Left","39","8","14","6A","C2","C","126"
"","","approach-retreat","130","1012656","0.0-130.0","","","1-4","4255","38","1","Training","Stims/Figures/100-C-30-3.bmp","zaha:za","Down","38","8","15","6A","C2","C","127"
"","","approach-retreat","131","1018586","0.0-131.0","","","1-4","4420","38","1","Training","Stims/Figures/57-C-30-1.bmp","sa:haha","Down","38","8","16","6A","C2","C","128"
"","","approach-retreat","132","1024475","0.0-132.0","","","1-4","4380","40","1","Training","Stims/Figures/7-J-10-4.bmp","va:fa:sha","Down","40","9","1","6A","C1","C","129"
"","","approach-retreat","133","1030204","0.0-133.0","","","1-4","4220","39","1","Training","Stims/Figures/100-J-10-3.bmp","vasha:va","Right","39","9","2","6A","C1","C","130"
"","","approach-retreat","134","1036225","0.0-134.0","","","1-4","4512","37","1","Training","Stims/Figures/85-J-0-2.bmp","fafa:va","Left","37","9","3","6A","C1","C","131"
"","","approach-retreat","135","1042419","0.0-135.0","","","1-4","4685","37","1","Training","Stims/Figures/128-J-10-3.bmp","fashasha","Left","37","9","4","6A","C1","C","132"
"","","approach-retreat","136","1052148","0.0-136.0","","","1-4","8219","38","1","Training","Stims/Figures/7-C-20-4.bmp","zaha:ha","Down","38","9","5","6A","C2","C","133"
"","","approach-retreat","137","1058762","0.0-137.0","","","1-4","5104","38","1","Training","Stims/Figures/93-J-0-1.bmp","fasha:va","Up","38","9","6","6A","C1","C","134"
"","","approach-retreat","138","1064971","0.0-138.0","","","1-4","4702","40","0","Training","Stims/Figures/139-C-20-2.bmp","zahaha","Down","38","9","7","6A","C2","C","135"
"","","approach-retreat","139","1070958","0.0-139.0","","","1-4","4479","38","1","Training","Stims/Figures/57-J-0-1.bmp","fafava","Up","38","9","8","6A","C1","C","136"
"","","approach-retreat","140","1077034","0.0-140.0","","","1-4","4564","37","1","Training","Stims/Figures/100-C-30-3.bmp","zaha:za","Right","37","9","9","6A","C2","C","137"
"","","approach-retreat","141","1083346","0.0-141.0","","","1-4","4802","37","1","Training","Stims/Figures/128-C-30-3.bmp","za:haha","Right","37","9","10","6A","C2","C","138"
"","","approach-retreat","142","1089528","0.0-142.0","","","1-4","4672","37","1","Training","Stims/Figures/87-J-10-4.bmp","va:sha:sha","Left","37","9","11","6A","C1","C","139"
"","","approach-retreat","143","1095509","0.0-143.0","","","1-4","4471","38","1","Training","Stims/Figures/139-J-0-2.bmp","vafava","Up","38","9","12","6A","C1","C","140"
"","","approach-retreat","144","1101339","0.0-144.0","","","1-4","4319","39","1","Training","Stims/Figures/57-C-30-1.bmp","sa:haha","Left","39","9","13","6A","C2","C","141"
"","","approach-retreat","145","1107273","0.0-145.0","","","1-4","4425","40","1","Training","Stims/Figures/93-C-30-1.bmp","sahaza","Up","40","9","14","6A","C2","C","142"
"","","approach-retreat","146","1113170","0.0-146.0","","","1-4","4392","37","1","Training","Stims/Figures/85-C-20-2.bmp","sasaza","Right","37","9","15","6A","C2","C","143"
"","","approach-retreat","147","1119046","0.0-147.0","","","1-4","4367","38","1","Training","Stims/Figures/87-C-20-4.bmp","sa:saha","Down","38","9","16","6A","C2","C","144"
"19445","","instructions","148","1138491","0.0-148.0","[{""page_index"":0,""viewing_time"":19444}]","","","","","","","","","","","","","","","",""
"","","approach-retreat","149","1146346","0.0-149.0","","","1-4","6348","39","1","Testing","Stims/Figures/93-C-30-1.bmp","sahaza","Left","39","1","1","6A","C2","C","1"
"","","approach-retreat","150","1152312","0.0-150.0","","","1-4","4460","37","1","Testing","Stims/Figures/85-J-0-2.bmp","fafa:va","Left","37","1","2","6A","C1","C","2"
"","","approach-retreat","151","1158208","0.0-151.0","","","1-4","4388","39","1","Testing","Stims/Figures/74-C-20-4.bmp","sasaha","Left","39","1","3","6A","C2","C","3"
"","","approach-retreat","152","1165208","0.0-152.0","","","1-4","5492","38","1","Testing","Stims/Figures/7-C-20-4.bmp","zaha:ha","Down","38","1","4","6A","C2","C","4"
"","","approach-retreat","153","1175090","0.0-153.0","","","1-4","8374","37","0","Testing","Stims/Figures/7-J-10-4.bmp","va:fa:sha","Right","39","1","5","6A","C1","C","5"
"","","approach-retreat","154","1180959","0.0-154.0","","","1-4","4365","37","1","Testing","Stims/Figures/27-C-30-1.bmp","sasa:za","Right","37","1","6","6A","C2","C","6"
"","","approach-retreat","155","1186856","0.0-155.0","","","1-4","4390","37","1","Testing","Stims/Figures/128-J-10-3.bmp","fashasha","Left","37","1","7","6A","C1","C","7"
"","","approach-retreat","156","1192740","0.0-156.0","","","1-4","4376","40","1","Testing","Stims/Figures/100-C-30-3.bmp","zaha:za","Up","40","1","8","6A","C2","C","8"
"","","approach-retreat","157","1198781","0.0-157.0","","","1-4","4534","38","1","Testing","Stims/Figures/44-J-10-3.bmp","fa:fava","Up","38","1","9","6A","C1","C","9"
"","","approach-retreat","158","1206384","0.0-158.0","","","1-4","6096","39","1","Testing","Stims/Figures/139-J-0-2.bmp","vafava","Right","39","1","10","6A","C1","C","10"
"","","approach-retreat","159","1212225","0.0-159.0","","","1-4","4333","38","0","Testing","Stims/Figures/87-C-20-4.bmp","sa:saha","Up","40","1","11","6A","C2","C","11"
"","","approach-retreat","160","1218293","0.0-160.0","","","1-4","4560","40","1","Testing","Stims/Figures/74-J-10-4.bmp","va:fa:va","Down","40","1","12","6A","C1","C","12"
"","","approach-retreat","161","1224151","0.0-161.0","","","1-4","4353","40","1","Testing","Stims/Figures/93-J-0-1.bmp","fasha:va","Down","40","1","13","6A","C1","C","13"
"","","approach-retreat","162","1230069","0.0-162.0","","","1-4","4410","38","1","Testing","Stims/Figures/139-C-20-2.bmp","zahaha","Down","38","1","14","6A","C2","C","14"
"","","approach-retreat","163","1235840","0.0-163.0","","","1-4","4263","40","1","Testing","Stims/Figures/27-J-0-1.bmp","va:fava","Down","40","1","15","6A","C1","C","15"
"","","approach-retreat","164","1241760","0.0-164.0","","","1-4","4413","39","1","Testing","Stims/Figures/100-J-10-3.bmp","vasha:va","Right","39","1","16","6A","C1","C","16"
"","","approach-retreat","165","1247656","0.0-165.0","","","1-4","4387","39","1","Testing","Stims/Figures/128-C-30-3.bmp","za:haha","Left","39","1","17","6A","C2","C","17"
"","","approach-retreat","166","1253522","0.0-166.0","","","1-4","4359","38","1","Testing","Stims/Figures/118-J-0-2.bmp","fa:sha:sha","Up","38","1","18","6A","C1","C","18"
"","","approach-retreat","167","1259409","0.0-167.0","","","1-4","4374","37","1","Testing","Stims/Figures/57-J-0-1.bmp","fafava","Left","37","1","19","6A","C1","C","19"
"","","approach-retreat","168","1265138","0.0-168.0","","","1-4","4222","37","1","Testing","Stims/Figures/118-C-20-2.bmp","zasaza","Right","37","1","20","6A","C2","C","20"
"","","approach-retreat","169","1270896","0.0-169.0","","","1-4","4249","37","1","Testing","Stims/Figures/57-C-30-1.bmp","sa:haha","Right","37","1","21","6A","C2","C","21"
"","","approach-retreat","170","1276766","0.0-170.0","","","1-4","4363","40","1","Testing","Stims/Figures/85-C-20-2.bmp","sasaza","Up","40","1","22","6A","C2","C","22"
"","","approach-retreat","171","1284422","0.0-171.0","","","1-4","6149","40","1","Testing","Stims/Figures/87-J-10-4.bmp","va:sha:sha","Down","40","1","23","6A","C1","C","23"
"","","approach-retreat","172","1294304","0.0-172.0","","","1-4","8375","40","1","Testing","Stims/Figures/44-C-30-3.bmp","za:sa:za","Up","40","1","24","6A","C2","C","24"
"","","approach-retreat","173","1300043","0.0-173.0","","","1-4","4231","37","1","Testing","Stims/Figures/128-J-10-3.bmp","fashasha","Left","37","2","1","6A","C1","C","25"
"","","approach-retreat","174","1305755","0.0-174.0","","","1-4","4204","39","1","Testing","Stims/Figures/93-C-30-1.bmp","sahaza","Left","39","2","2","6A","C2","C","26"
"","","approach-retreat","175","1322650","0.0-175.0","","","1-4","15386","40","0","Testing","Stims/Figures/139-J-0-2.bmp","vafava","Up","38","2","3","6A","C1","C","27"
"","","approach-retreat","176","1328263","0.0-176.0","","","1-4","4106","38","1","Testing","Stims/Figures/27-J-0-1.bmp","va:fava","Up","38","2","4","6A","C1","C","28"
"","","approach-retreat","177","1333885","0.0-177.0","","","1-4","4116","39","1","Testing","Stims/Figures/57-J-0-1.bmp","fafava","Right","39","2","5","6A","C1","C","29"
"","","approach-retreat","178","1339550","0.0-178.0","","","1-4","4158","38","0","Testing","Stims/Figures/87-C-20-4.bmp","sa:saha","Up","40","2","6","6A","C2","C","30"
"","","approach-retreat","179","1346329","0.0-179.0","","","1-4","5274","37","1","Testing","Stims/Figures/139-C-20-2.bmp","zahaha","Right","37","2","7","6A","C2","C","31"
"","","approach-retreat","180","1352333","0.0-180.0","","","1-4","4496","38","1","Testing","Stims/Figures/74-C-20-4.bmp","sasaha","Down","38","2","8","6A","C2","C","32"
"","","approach-retreat","181","1358263","0.0-181.0","","","1-4","4422","39","1","Testing","Stims/Figures/44-C-30-3.bmp","za:sa:za","Left","39","2","9","6A","C2","C","33"
"","","approach-retreat","182","1364538","0.0-182.0","","","1-4","4768","37","1","Testing","Stims/Figures/7-J-10-4.bmp","va:fa:sha","Left","37","2","10","6A","C1","C","34"
"","","approach-retreat","183","1370425","0.0-183.0","","","1-4","4384","37","1","Testing","Stims/Figures/57-C-30-1.bmp","sa:haha","Right","37","2","11","6A","C2","C","35"
"","","approach-retreat","184","1383533","0.0-184.0","","","1-4","11601","39","0","Testing","Stims/Figures/118-C-20-2.bmp","zasaza","Right","37","2","12","6A","C2","C","36"
"","","approach-retreat","185","1389237","0.0-185.0","","","1-4","4196","38","1","Testing","Stims/Figures/100-C-30-3.bmp","zaha:za","Down","38","2","13","6A","C2","C","37"
"","","approach-retreat","186","1395108","0.0-186.0","","","1-4","4364","40","0","Testing","Stims/Figures/7-C-20-4.bmp","zaha:ha","Down","38","2","14","6A","C2","C","38"
"","","approach-retreat","187","1400865","0.0-187.0","","","1-4","4250","40","1","Testing","Stims/Figures/100-J-10-3.bmp","vasha:va","Down","40","2","15","6A","C1","C","39"
"","","approach-retreat","188","1406837","0.0-188.0","","","1-4","4466","40","1","Testing","Stims/Figures/27-C-30-1.bmp","sasa:za","Up","40","2","16","6A","C2","C","40"
"","","approach-retreat","189","1412519","0.0-189.0","","","1-4","4175","40","1","Testing","Stims/Figures/87-J-10-4.bmp","va:sha:sha","Down","40","2","17","6A","C1","C","41"
"","","approach-retreat","190","1418955","0.0-190.0","","","1-4","4928","38","1","Testing","Stims/Figures/85-J-0-2.bmp","fafa:va","Up","38","2","18","6A","C1","C","42"
"","","approach-retreat","191","1428020","0.0-191.0","","","1-4","7562","38","1","Testing","Stims/Figures/74-J-10-4.bmp","va:fa:va","Up","38","2","19","6A","C1","C","43"
"","","approach-retreat","192","1433751","0.0-192.0","","","1-4","4224","37","1","Testing","Stims/Figures/93-J-0-1.bmp","fasha:va","Left","37","2","20","6A","C1","C","44"
"","","approach-retreat","193","1440273","0.0-193.0","","","1-4","5015","38","1","Testing","Stims/Figures/128-C-30-3.bmp","za:haha","Down","38","2","21","6A","C2","C","45"
"","","approach-retreat","194","1446855","0.0-194.0","","","1-4","5073","37","1","Testing","Stims/Figures/118-J-0-2.bmp","fa:sha:sha","Left","37","2","22","6A","C1","C","46"
"","","approach-retreat","195","1452804","0.0-195.0","","","1-4","4442","37","0","Testing","Stims/Figures/44-J-10-3.bmp","fa:fava","Right","39","2","23","6A","C1","C","47"
"","","approach-retreat","196","1459227","0.0-196.0","","","1-4","4917","37","1","Testing","Stims/Figures/85-C-20-2.bmp","sasaza","Right","37","2","24","6A","C2","C","48"
"","","approach-retreat","197","1467459","0.0-197.0","","","1-4","6725","38","1","Testing","Stims/Figures/74-J-10-4.bmp","va:fa:va","Up","38","3","1","6A","C1","C","49"
"","","approach-retreat","198","1473226","0.0-198.0","","","1-4","4260","40","1","Testing","Stims/Figures/139-C-20-2.bmp","zahaha","Up","40","3","2","6A","C2","C","50"
"","","approach-retreat","199","1478901","0.0-199.0","","","1-4","4167","37","1","Testing","Stims/Figures/87-J-10-4.bmp","va:sha:sha","Left","37","3","3","6A","C1","C","51"
"","","approach-retreat","200","1485152","0.0-200.0","","","1-4","4746","39","1","Testing","Stims/Figures/118-J-0-2.bmp","fa:sha:sha","Right","39","3","4","6A","C1","C","52"
"","","approach-retreat","201","1490837","0.0-201.0","","","1-4","4176","37","1","Testing","Stims/Figures/100-J-10-3.bmp","vasha:va","Left","37","3","5","6A","C1","C","53"
"","","approach-retreat","202","1496989","0.0-202.0","","","1-4","4645","37","1","Testing","Stims/Figures/44-C-30-3.bmp","za:sa:za","Right","37","3","6","6A","C2","C","54"
"","","approach-retreat","203","1502618","0.0-203.0","","","1-4","4122","39","1","Testing","Stims/Figures/93-C-30-1.bmp","sahaza","Left","39","3","7","6A","C2","C","55"
"","","approach-retreat","204","1508391","0.0-204.0","","","1-4","4264","39","0","Testing","Stims/Figures/7-C-20-4.bmp","zaha:ha","Right","37","3","8","6A","C2","C","56"
"","","approach-retreat","205","1516291","0.0-205.0","","","1-4","6394","40","1","Testing","Stims/Figures/44-J-10-3.bmp","fa:fava","Down","40","3","9","6A","C1","C","57"
"","","approach-retreat","206","1522371","0.0-206.0","","","1-4","4572","38","1","Testing","Stims/Figures/57-J-0-1.bmp","fafava","Up","38","3","10","6A","C1","C","58"
"","","approach-retreat","207","1528258","0.0-207.0","","","1-4","4380","38","1","Testing","Stims/Figures/85-J-0-2.bmp","fafa:va","Up","38","3","11","6A","C1","C","59"
"","","approach-retreat","208","1534193","0.0-208.0","","","1-4","4429","39","1","Testing","Stims/Figures/128-J-10-3.bmp","fashasha","Right","39","3","12","6A","C1","C","60"
"","","approach-retreat","209","1540206","0.0-209.0","","","1-4","4505","40","0","Testing","Stims/Figures/87-C-20-4.bmp","sa:saha","Down","38","3","13","6A","C2","C","61"
"","","approach-retreat","210","1546409","0.0-210.0","","","1-4","4698","38","1","Testing","Stims/Figures/118-C-20-2.bmp","zasaza","Down","38","3","14","6A","C2","C","62"
"","","approach-retreat","211","1552120","0.0-211.0","","","1-4","4205","39","1","Testing","Stims/Figures/128-C-30-3.bmp","za:haha","Left","39","3","15","6A","C2","C","63"
"","","approach-retreat","212","1557857","0.0-212.0","","","1-4","4228","40","1","Testing","Stims/Figures/27-J-0-1.bmp","va:fava","Down","40","3","16","6A","C1","C","64"
"","","approach-retreat","213","1563550","0.0-213.0","","","1-4","4185","38","1","Testing","Stims/Figures/100-C-30-3.bmp","zaha:za","Down","38","3","17","6A","C2","C","65"
"","","approach-retreat","214","1569176","0.0-214.0","","","1-4","4119","39","1","Testing","Stims/Figures/74-C-20-4.bmp","sasaha","Left","39","3","18","6A","C2","C","66"
"","","approach-retreat","215","1574973","0.0-215.0","","","1-4","4289","39","1","Testing","Stims/Figures/139-J-0-2.bmp","vafava","Right","39","3","19","6A","C1","C","67"
"","","approach-retreat","216","1580726","0.0-216.0","","","1-4","4245","38","1","Testing","Stims/Figures/93-J-0-1.bmp","fasha:va","Up","38","3","20","6A","C1","C","68"
"","","approach-retreat","217","1586444","0.0-217.0","","","1-4","4211","39","1","Testing","Stims/Figures/27-C-30-1.bmp","sasa:za","Left","39","3","21","6A","C2","C","69"
"","","approach-retreat","218","1592168","0.0-218.0","","","1-4","4216","40","1","Testing","Stims/Figures/85-C-20-2.bmp","sasaza","Up","40","3","22","6A","C2","C","70"
"","","approach-retreat","219","1597813","0.0-219.0","","","1-4","4138","38","1","Testing","Stims/Figures/57-C-30-1.bmp","sa:haha","Down","38","3","23","6A","C2","C","71"
"","","approach-retreat","220","1603462","0.0-220.0","","","1-4","4143","39","1","Testing","Stims/Figures/7-J-10-4.bmp","va:fa:sha","Right","39","3","24","6A","C1","C","72"
"","","approach-retreat","221","1614212","0.0-221.0","","","1-4","9244","37","1","Testing","Stims/Figures/87-J-10-4.bmp","va:sha:sha","Left","37","4","1","6A","C1","C","73"
"","","approach-retreat","222","1619838","0.0-222.0","","","1-4","4119","37","1","Testing","Stims/Figures/139-C-20-2.bmp","zahaha","Right","37","4","2","6A","C2","C","74"
"","","approach-retreat","223","1625602","0.0-223.0","","","1-4","4257","37","1","Testing","Stims/Figures/27-J-0-1.bmp","va:fava","Left","37","4","3","6A","C1","C","75"
"","","approach-retreat","224","1631298","0.0-224.0","","","1-4","4189","37","1","Testing","Stims/Figures/118-J-0-2.bmp","fa:sha:sha","Left","37","4","4","6A","C1","C","76"
"","","approach-retreat","225","1636966","0.0-225.0","","","1-4","4162","37","1","Testing","Stims/Figures/139-J-0-2.bmp","vafava","Left","37","4","5","6A","C1","C","77"
"","","approach-retreat","226","1643048","0.0-226.0","","","1-4","4574","40","0","Testing","Stims/Figures/87-C-20-4.bmp","sa:saha","Down","38","4","6","6A","C2","C","78"
"","","approach-retreat","227","1648863","0.0-227.0","","","1-4","4308","38","1","Testing","Stims/Figures/74-J-10-4.bmp","va:fa:va","Up","38","4","7","6A","C1","C","79"
"","","approach-retreat","228","1654703","0.0-228.0","","","1-4","4333","38","1","Testing","Stims/Figures/7-J-10-4.bmp","va:fa:sha","Up","38","4","8","6A","C1","C","80"
"","","approach-retreat","229","1660661","0.0-229.0","","","1-4","4450","40","1","Testing","Stims/Figures/128-C-30-3.bmp","za:haha","Up","40","4","9","6A","C2","C","81"
"","","approach-retreat","230","1666894","0.0-230.0","","","1-4","4725","39","1","Testing","Stims/Figures/100-J-10-3.bmp","vasha:va","Right","39","4","10","6A","C1","C","82"
"","","approach-retreat","231","1672740","0.0-231.0","","","1-4","4338","38","1","Testing","Stims/Figures/57-J-0-1.bmp","fafava","Up","38","4","11","6A","C1","C","83"
"","","approach-retreat","232","1678763","0.0-232.0","","","1-4","4514","39","1","Testing","Stims/Figures/44-C-30-3.bmp","za:sa:za","Left","39","4","12","6A","C2","C","84"
"","","approach-retreat","233","1684685","0.0-233.0","","","1-4","4415","37","1","Testing","Stims/Figures/93-C-30-1.bmp","sahaza","Right","37","4","13","6A","C2","C","85"
"","","approach-retreat","234","1690446","0.0-234.0","","","1-4","4253","38","1","Testing","Stims/Figures/27-C-30-1.bmp","sasa:za","Down","38","4","14","6A","C2","C","86"
"","","approach-retreat","235","1696209","0.0-235.0","","","1-4","4255","39","1","Testing","Stims/Figures/118-C-20-2.bmp","zasaza","Left","39","4","15","6A","C2","C","87"
"","","approach-retreat","236","1703620","0.0-236.0","","","1-4","5902","38","1","Testing","Stims/Figures/128-J-10-3.bmp","fashasha","Up","38","4","16","6A","C1","C","88"
"","","approach-retreat","237","1709641","0.0-237.0","","","1-4","4514","37","1","Testing","Stims/Figures/85-C-20-2.bmp","sasaza","Right","37","4","17","6A","C2","C","89"
"","","approach-retreat","238","1716782","0.0-238.0","","","1-4","5634","37","1","Testing","Stims/Figures/74-C-20-4.bmp","sasaha","Right","37","4","18","6A","C2","C","90"
"","","approach-retreat","239","1725406","0.0-239.0","","","1-4","7114","38","1","Testing","Stims/Figures/100-C-30-3.bmp","zaha:za","Down","38","4","19","6A","C2","C","91"
"","","approach-retreat","240","1731258","0.0-240.0","","","1-4","4346","40","0","Testing","Stims/Figures/7-C-20-4.bmp","zaha:ha","Down","38","4","20","6A","C2","C","92"
"","","approach-retreat","241","1737744","0.0-241.0","","","1-4","4978","38","1","Testing","Stims/Figures/44-J-10-3.bmp","fa:fava","Up","38","4","21","6A","C1","C","93"
"","","approach-retreat","242","1743712","0.0-242.0","","","1-4","4461","38","1","Testing","Stims/Figures/57-C-30-1.bmp","sa:haha","Down","38","4","22","6A","C2","C","94"
"","","approach-retreat","243","1749439","0.0-243.0","","","1-4","4220","39","1","Testing","Stims/Figures/93-J-0-1.bmp","fasha:va","Right","39","4","23","6A","C1","C","95"
"","","approach-retreat","244","1755161","0.0-244.0","","","1-4","4215","40","1","Testing","Stims/Figures/85-J-0-2.bmp","fafa:va","Down","40","4","24","6A","C1","C","96"
"25567","","survey-text","245","1780735","0.0-245.0","","{""Q0"":""""}","","","","","","","","","","","","","","",""
