"rt","key_press","trial_type","trial_index","time_elapsed","internal_node_id","view_history","responses","Id","Rt","ResKeyCode","ResCorr","TrialType2","Image","Label","Location","CorrectResponse","Block","BlockTrial","Condition","LabelType","Subcondition","trialNum"
"61346","32","text","0","61362","0.0-0.0-0.0","","","","","","","","","","","","","","","","",""
"142879","","instructions","1","204256","0.0-1.0","[{""page_index"":0,""viewing_time"":142874}]","","","","","","","","","","","","","","","",""
"74821","","survey-multi-choice","2","279178","0.0-2.0","","{""Q0"":""Da"",""Q1"":""Da"",""Q2"":""Da"",""Q3"":""Da"",""Q4"":""Da"",""Q5"":""Da""}","","","","","","","","","","","","","","",""
"","","bio","3","292886","0.0-3.0","","{""age"":""21"",""gender"":""f"",""specify"":""""}","","","","","","","","","","","","","","",""
"","","approach-retreat","4","300131","0.0-4.0","","","2-1","5200","38","0","Training","Stims/Figures/93-C-30-1.bmp","fa:fasha","Down","40","1","1","3B","C1","J","1"
"","","approach-retreat","5","324253","0.0-5.0","","","2-1","22596","37","1","Training","Stims/Figures/7-J-10-4.bmp","sasaza","Right","37","1","2","3B","C2","J","2"
"","","approach-retreat","6","333549","0.0-6.0","","","2-1","7772","39","1","Training","Stims/Figures/19-J-10-4.bmp","sasaza","Left","39","1","3","3B","C2","J","3"
"","","approach-retreat","7","345655","0.0-7.0","","","2-1","10563","38","1","Training","Stims/Figures/7-C-20-4.bmp","fa:fasha","Up","38","1","4","3B","C1","J","4"
"","","approach-retreat","8","353443","0.0-8.0","","","2-1","6273","37","1","Training","Stims/Figures/100-J-10-3.bmp","sasaza","Right","37","1","5","3B","C2","J","5"
"","","approach-retreat","9","361847","0.0-9.0","","","2-1","6871","39","1","Training","Stims/Figures/84-C-20-2.bmp","fa:fasha","Right","39","1","6","3B","C1","J","6"
"","","approach-retreat","10","369869","0.0-10.0","","","2-1","6502","40","1","Training","Stims/Figures/118-J-0-2.bmp","sasaza","Up","40","1","7","3B","C2","J","7"
"","","approach-retreat","11","378549","0.0-11.0","","","2-1","7132","40","1","Training","Stims/Figures/57-C-30-1.bmp","fa:fasha","Down","40","1","8","3B","C1","J","8"
"","","approach-retreat","12","384855","0.0-12.0","","","2-1","4777","38","1","Training","Stims/Figures/57-J-0-1.bmp","sasaza","Down","38","1","9","3B","C2","J","9"
"","","approach-retreat","13","392480","0.0-13.0","","","2-1","6076","37","1","Training","Stims/Figures/118-C-20-2.bmp","fa:fasha","Left","37","1","10","3B","C1","J","10"
"","","approach-retreat","14","400356","0.0-14.0","","","2-1","6349","40","1","Training","Stims/Figures/93-J-0-1.bmp","sasaza","Up","40","1","11","3B","C2","J","11"
"","","approach-retreat","15","406532","0.0-15.0","","","2-1","4622","40","1","Training","Stims/Figures/84-J-0-2.bmp","sasaza","Up","40","1","12","3B","C2","J","12"
"","","approach-retreat","16","413152","0.0-16.0","","","2-1","5065","37","1","Training","Stims/Figures/128-C-30-3.bmp","fa:fasha","Left","37","1","13","3B","C1","J","13"
"","","approach-retreat","17","421381","0.0-17.0","","","2-1","6700","39","1","Training","Stims/Figures/19-C-20-4.bmp","fa:fasha","Right","39","1","14","3B","C1","J","14"
"","","approach-retreat","18","427532","0.0-18.0","","","2-1","4622","37","1","Training","Stims/Figures/100-C-30-3.bmp","fa:fasha","Left","37","1","15","3B","C1","J","15"
"","","approach-retreat","19","436981","0.0-19.0","","","2-1","7917","38","1","Training","Stims/Figures/128-J-10-3.bmp","sasaza","Down","38","1","16","3B","C2","J","16"
"","","approach-retreat","20","445463","0.0-20.0","","","2-1","6960","39","1","Training","Stims/Figures/128-C-30-3.bmp","fa:fasha","Right","39","2","1","3B","C1","J","17"
"","","approach-retreat","21","453459","0.0-21.0","","","2-1","6472","39","1","Training","Stims/Figures/118-J-0-2.bmp","sasaza","Left","39","2","2","3B","C2","J","18"
"","","approach-retreat","22","460514","0.0-22.0","","","2-1","5527","40","1","Training","Stims/Figures/84-J-0-2.bmp","sasaza","Up","40","2","3","3B","C2","J","19"
"","","approach-retreat","23","467412","0.0-23.0","","","2-1","5386","37","1","Training","Stims/Figures/57-C-30-1.bmp","fa:fasha","Left","37","2","4","3B","C1","J","20"
"","","approach-retreat","24","478940","0.0-24.0","","","2-1","9998","38","1","Training","Stims/Figures/100-C-30-3.bmp","fa:fasha","Up","38","2","5","3B","C1","J","21"
"","","approach-retreat","25","486714","0.0-25.0","","","2-1","6260","37","1","Training","Stims/Figures/19-C-20-4.bmp","fa:fasha","Left","37","2","6","3B","C1","J","22"
"","","approach-retreat","26","494211","0.0-26.0","","","2-1","5964","40","1","Training","Stims/Figures/118-C-20-2.bmp","fa:fasha","Down","40","2","7","3B","C1","J","23"
"","","approach-retreat","27","504092","0.0-27.0","","","2-1","8361","40","0","Training","Stims/Figures/84-C-20-2.bmp","fa:fasha","Up","38","2","8","3B","C1","J","24"
"","","approach-retreat","28","510898","0.0-28.0","","","2-1","5287","39","1","Training","Stims/Figures/57-J-0-1.bmp","sasaza","Left","39","2","9","3B","C2","J","25"
"","","approach-retreat","29","518439","0.0-29.0","","","2-1","6024","38","1","Training","Stims/Figures/93-J-0-1.bmp","sasaza","Down","38","2","10","3B","C2","J","26"
"","","approach-retreat","30","524777","0.0-30.0","","","2-1","4818","38","1","Training","Stims/Figures/100-J-10-3.bmp","sasaza","Down","38","2","11","3B","C2","J","27"
"","","approach-retreat","31","533775","0.0-31.0","","","2-1","7476","37","1","Training","Stims/Figures/19-J-10-4.bmp","sasaza","Right","37","2","12","3B","C2","J","28"
"","","approach-retreat","32","539996","0.0-32.0","","","2-1","4648","38","1","Training","Stims/Figures/128-J-10-3.bmp","sasaza","Down","38","2","13","3B","C2","J","29"
"","","approach-retreat","33","549928","0.0-33.0","","","2-1","8401","39","1","Training","Stims/Figures/93-C-30-1.bmp","fa:fasha","Right","39","2","14","3B","C1","J","30"
"","","approach-retreat","34","558270","0.0-34.0","","","2-1","6821","38","1","Training","Stims/Figures/7-C-20-4.bmp","fa:fasha","Up","38","2","15","3B","C1","J","31"
"","","approach-retreat","35","565833","0.0-35.0","","","2-1","6035","37","1","Training","Stims/Figures/7-J-10-4.bmp","sasaza","Right","37","2","16","3B","C2","J","32"
"","","approach-retreat","36","574544","0.0-36.0","","","2-1","7175","37","1","Training","Stims/Figures/100-C-30-3.bmp","fa:fasha","Left","37","3","1","3B","C1","J","33"
"","","approach-retreat","37","582419","0.0-37.0","","","2-1","6359","37","1","Training","Stims/Figures/7-J-10-4.bmp","sasaza","Right","37","3","2","3B","C2","J","34"
"","","approach-retreat","38","589771","0.0-38.0","","","2-1","5800","39","1","Training","Stims/Figures/84-C-20-2.bmp","fa:fasha","Right","39","3","3","3B","C1","J","35"
"","","approach-retreat","39","598588","0.0-39.0","","","2-1","7267","37","1","Training","Stims/Figures/118-C-20-2.bmp","fa:fasha","Left","37","3","4","3B","C1","J","36"
"","","approach-retreat","40","607046","0.0-40.0","","","2-1","6911","40","1","Training","Stims/Figures/100-J-10-3.bmp","sasaza","Up","40","3","5","3B","C2","J","37"
"","","approach-retreat","41","616926","0.0-41.0","","","2-1","8357","38","1","Training","Stims/Figures/93-C-30-1.bmp","fa:fasha","Up","38","3","6","3B","C1","J","38"
"","","approach-retreat","42","626105","0.0-42.0","","","2-1","7665","40","1","Training","Stims/Figures/57-J-0-1.bmp","sasaza","Up","40","3","7","3B","C2","J","39"
"","","approach-retreat","43","633332","0.0-43.0","","","2-1","5684","37","1","Training","Stims/Figures/128-J-10-3.bmp","sasaza","Right","37","3","8","3B","C2","J","40"
"","","approach-retreat","44","640635","0.0-44.0","","","2-1","5771","39","1","Training","Stims/Figures/84-J-0-2.bmp","sasaza","Left","39","3","9","3B","C2","J","41"
"","","approach-retreat","45","647833","0.0-45.0","","","2-1","5662","40","1","Training","Stims/Figures/19-C-20-4.bmp","fa:fasha","Down","40","3","10","3B","C1","J","42"
"","","approach-retreat","46","655054","0.0-46.0","","","2-1","5699","38","1","Training","Stims/Figures/128-C-30-3.bmp","fa:fasha","Up","38","3","11","3B","C1","J","43"
"","","approach-retreat","47","664622","0.0-47.0","","","2-1","8052","37","1","Training","Stims/Figures/57-C-30-1.bmp","fa:fasha","Left","37","3","12","3B","C1","J","44"
"","","approach-retreat","48","672181","0.0-48.0","","","2-1","6035","38","1","Training","Stims/Figures/118-J-0-2.bmp","sasaza","Down","38","3","13","3B","C2","J","45"
"","","approach-retreat","49","679650","0.0-49.0","","","2-1","5945","37","1","Training","Stims/Figures/93-J-0-1.bmp","sasaza","Right","37","3","14","3B","C2","J","46"
"","","approach-retreat","50","686046","0.0-50.0","","","2-1","4859","40","1","Training","Stims/Figures/7-C-20-4.bmp","fa:fasha","Down","40","3","15","3B","C1","J","47"
"","","approach-retreat","51","692391","0.0-51.0","","","2-1","4831","38","1","Training","Stims/Figures/19-J-10-4.bmp","sasaza","Down","38","3","16","3B","C2","J","48"
"","","approach-retreat","52","698250","0.0-52.0","","","2-1","4342","38","1","Training","Stims/Figures/19-J-10-4.bmp","sasaza","Down","38","4","1","3B","C2","J","49"
"","","approach-retreat","53","706393","0.0-53.0","","","2-1","6629","39","1","Training","Stims/Figures/100-C-30-3.bmp","fa:fasha","Right","39","4","2","3B","C1","J","50"
"","","approach-retreat","54","713955","0.0-54.0","","","2-1","6045","40","1","Training","Stims/Figures/128-J-10-3.bmp","sasaza","Up","40","4","3","3B","C2","J","51"
"","","approach-retreat","55","725145","0.0-55.0","","","2-1","9656","39","1","Training","Stims/Figures/93-J-0-1.bmp","sasaza","Left","39","4","4","3B","C2","J","52"
"","","approach-retreat","56","731670","0.0-56.0","","","2-1","5009","37","1","Training","Stims/Figures/84-C-20-2.bmp","fa:fasha","Left","37","4","5","3B","C1","J","53"
"","","approach-retreat","57","740427","0.0-57.0","","","2-1","7245","39","1","Training","Stims/Figures/128-C-30-3.bmp","fa:fasha","Right","39","4","6","3B","C1","J","54"
"","","approach-retreat","58","750153","0.0-58.0","","","2-1","8209","37","1","Training","Stims/Figures/93-C-30-1.bmp","fa:fasha","Left","37","4","7","3B","C1","J","55"
"","","approach-retreat","59","758005","0.0-59.0","","","2-1","6331","40","1","Training","Stims/Figures/57-J-0-1.bmp","sasaza","Up","40","4","8","3B","C2","J","56"
"","","approach-retreat","60","765875","0.0-60.0","","","2-1","6356","40","1","Training","Stims/Figures/19-C-20-4.bmp","fa:fasha","Down","40","4","9","3B","C1","J","57"
"","","approach-retreat","61","773226","0.0-61.0","","","2-1","5835","40","1","Training","Stims/Figures/118-C-20-2.bmp","fa:fasha","Down","40","4","10","3B","C1","J","58"
"","","approach-retreat","62","780356","0.0-62.0","","","2-1","5607","39","1","Training","Stims/Figures/7-C-20-4.bmp","fa:fasha","Right","39","4","11","3B","C1","J","59"
"","","approach-retreat","63","786725","0.0-63.0","","","2-1","4838","40","1","Training","Stims/Figures/118-J-0-2.bmp","sasaza","Up","40","4","12","3B","C2","J","60"
"","","approach-retreat","64","793789","0.0-64.0","","","2-1","5550","37","1","Training","Stims/Figures/84-J-0-2.bmp","sasaza","Right","37","4","13","3B","C2","J","61"
"","","approach-retreat","65","801919","0.0-65.0","","","2-1","6618","39","1","Training","Stims/Figures/7-J-10-4.bmp","sasaza","Left","39","4","14","3B","C2","J","62"
"","","approach-retreat","66","809655","0.0-66.0","","","2-1","6221","38","1","Training","Stims/Figures/100-J-10-3.bmp","sasaza","Down","38","4","15","3B","C2","J","63"
"","","approach-retreat","67","817573","0.0-67.0","","","2-1","6402","38","1","Training","Stims/Figures/57-C-30-1.bmp","fa:fasha","Up","38","4","16","3B","C1","J","64"
"","","approach-retreat","68","824116","0.0-68.0","","","2-1","5027","38","1","Training","Stims/Figures/100-J-10-3.bmp","sasaza","Down","38","5","1","3B","C2","J","65"
"","","approach-retreat","69","830918","0.0-69.0","","","2-1","5286","37","1","Training","Stims/Figures/57-J-0-1.bmp","sasaza","Right","37","5","2","3B","C2","J","66"
"","","approach-retreat","70","837479","0.0-70.0","","","2-1","5045","39","1","Training","Stims/Figures/128-J-10-3.bmp","sasaza","Left","39","5","3","3B","C2","J","67"
"","","approach-retreat","71","845600","0.0-71.0","","","2-1","6604","39","1","Training","Stims/Figures/57-C-30-1.bmp","fa:fasha","Right","39","5","4","3B","C1","J","68"
"","","approach-retreat","72","852492","0.0-72.0","","","2-1","5380","40","1","Training","Stims/Figures/100-C-30-3.bmp","fa:fasha","Down","40","5","5","3B","C1","J","69"
"","","approach-retreat","73","858982","0.0-73.0","","","2-1","4974","37","1","Training","Stims/Figures/7-C-20-4.bmp","fa:fasha","Left","37","5","6","3B","C1","J","70"
"","","approach-retreat","74","866751","0.0-74.0","","","2-1","6256","40","1","Training","Stims/Figures/118-J-0-2.bmp","sasaza","Up","40","5","7","3B","C2","J","71"
"","","approach-retreat","75","873992","0.0-75.0","","","2-1","5722","40","1","Training","Stims/Figures/84-J-0-2.bmp","sasaza","Up","40","5","8","3B","C2","J","72"
"","","approach-retreat","76","881000","0.0-76.0","","","2-1","5477","37","1","Training","Stims/Figures/118-C-20-2.bmp","fa:fasha","Left","37","5","9","3B","C1","J","73"
"","","approach-retreat","77","888401","0.0-77.0","","","2-1","5888","39","1","Training","Stims/Figures/19-C-20-4.bmp","fa:fasha","Right","39","5","10","3B","C1","J","74"
"","","approach-retreat","78","895375","0.0-78.0","","","2-1","5460","40","1","Training","Stims/Figures/7-J-10-4.bmp","sasaza","Up","40","5","11","3B","C2","J","75"
"","","approach-retreat","79","903304","0.0-79.0","","","2-1","6415","38","1","Training","Stims/Figures/19-J-10-4.bmp","sasaza","Down","38","5","12","3B","C2","J","76"
"","","approach-retreat","80","911013","0.0-80.0","","","2-1","6195","38","1","Training","Stims/Figures/84-C-20-2.bmp","fa:fasha","Up","38","5","13","3B","C1","J","77"
"","","approach-retreat","81","917569","0.0-81.0","","","2-1","5042","38","1","Training","Stims/Figures/93-J-0-1.bmp","sasaza","Down","38","5","14","3B","C2","J","78"
"","","approach-retreat","82","924376","0.0-82.0","","","2-1","5294","39","1","Training","Stims/Figures/93-C-30-1.bmp","fa:fasha","Right","39","5","15","3B","C1","J","79"
"","","approach-retreat","83","931801","0.0-83.0","","","2-1","5911","37","1","Training","Stims/Figures/128-C-30-3.bmp","fa:fasha","Left","37","5","16","3B","C1","J","80"
"","","approach-retreat","84","938367","0.0-84.0","","","2-1","5051","38","1","Training","Stims/Figures/7-J-10-4.bmp","sasaza","Down","38","6","1","3B","C2","J","81"
"","","approach-retreat","85","944661","0.0-85.0","","","2-1","4778","37","1","Training","Stims/Figures/57-C-30-1.bmp","fa:fasha","Left","37","6","2","3B","C1","J","82"
"","","approach-retreat","86","951854","0.0-86.0","","","2-1","5677","37","1","Training","Stims/Figures/118-J-0-2.bmp","sasaza","Right","37","6","3","3B","C2","J","83"
"","","approach-retreat","87","959529","0.0-87.0","","","2-1","6160","37","1","Training","Stims/Figures/100-J-10-3.bmp","sasaza","Right","37","6","4","3B","C2","J","84"
"","","approach-retreat","88","965630","0.0-88.0","","","2-1","4586","37","1","Training","Stims/Figures/84-J-0-2.bmp","sasaza","Right","37","6","5","3B","C2","J","85"
"","","approach-retreat","89","972419","0.0-89.0","","","2-1","5276","40","1","Training","Stims/Figures/93-J-0-1.bmp","sasaza","Up","40","6","6","3B","C2","J","86"
"","","approach-retreat","90","979131","0.0-90.0","","","2-1","5192","37","1","Training","Stims/Figures/84-C-20-2.bmp","fa:fasha","Left","37","6","7","3B","C1","J","87"
"","","approach-retreat","91","986396","0.0-91.0","","","2-1","5748","37","1","Training","Stims/Figures/7-C-20-4.bmp","fa:fasha","Left","37","6","8","3B","C1","J","88"
"","","approach-retreat","92","993483","0.0-92.0","","","2-1","5576","40","1","Training","Stims/Figures/93-C-30-1.bmp","fa:fasha","Down","40","6","9","3B","C1","J","89"
"","","approach-retreat","93","1001790","0.0-93.0","","","2-1","6795","38","1","Training","Stims/Figures/19-C-20-4.bmp","fa:fasha","Up","38","6","10","3B","C1","J","90"
"","","approach-retreat","94","1008514","0.0-94.0","","","2-1","5206","39","1","Training","Stims/Figures/128-J-10-3.bmp","sasaza","Left","39","6","11","3B","C2","J","91"
"","","approach-retreat","95","1015466","0.0-95.0","","","2-1","5435","38","1","Training","Stims/Figures/128-C-30-3.bmp","fa:fasha","Up","38","6","12","3B","C1","J","92"
"","","approach-retreat","96","1023432","0.0-96.0","","","2-1","6454","38","1","Training","Stims/Figures/118-C-20-2.bmp","fa:fasha","Up","38","6","13","3B","C1","J","93"
"","","approach-retreat","97","1030373","0.0-97.0","","","2-1","5428","38","1","Training","Stims/Figures/19-J-10-4.bmp","sasaza","Down","38","6","14","3B","C2","J","94"
"","","approach-retreat","98","1037256","0.0-98.0","","","2-1","5367","40","1","Training","Stims/Figures/100-C-30-3.bmp","fa:fasha","Down","40","6","15","3B","C1","J","95"
"","","approach-retreat","99","1044700","0.0-99.0","","","2-1","5921","37","1","Training","Stims/Figures/57-J-0-1.bmp","sasaza","Right","37","6","16","3B","C2","J","96"
"","","approach-retreat","100","1051212","0.0-100.0","","","2-1","5001","40","1","Training","Stims/Figures/57-J-0-1.bmp","sasaza","Up","40","7","1","3B","C2","J","97"
"","","approach-retreat","101","1058028","0.0-101.0","","","2-1","5300","37","1","Training","Stims/Figures/7-J-10-4.bmp","sasaza","Right","37","7","2","3B","C2","J","98"
"","","approach-retreat","102","1064716","0.0-102.0","","","2-1","5173","38","1","Training","Stims/Figures/93-J-0-1.bmp","sasaza","Down","38","7","3","3B","C2","J","99"
"","","approach-retreat","103","1071051","0.0-103.0","","","2-1","4819","38","1","Training","Stims/Figures/128-J-10-3.bmp","sasaza","Down","38","7","4","3B","C2","J","100"
"","","approach-retreat","104","1077679","0.0-104.0","","","2-1","5111","37","1","Training","Stims/Figures/84-C-20-2.bmp","fa:fasha","Left","37","7","5","3B","C1","J","101"
"","","approach-retreat","105","1084250","0.0-105.0","","","2-1","5057","40","1","Training","Stims/Figures/19-C-20-4.bmp","fa:fasha","Down","40","7","6","3B","C1","J","102"
"","","approach-retreat","106","1090616","0.0-106.0","","","2-1","4853","39","1","Training","Stims/Figures/93-C-30-1.bmp","fa:fasha","Right","39","7","7","3B","C1","J","103"
"","","approach-retreat","107","1097665","0.0-107.0","","","2-1","5535","38","1","Training","Stims/Figures/100-J-10-3.bmp","sasaza","Down","38","7","8","3B","C2","J","104"
"","","approach-retreat","108","1104735","0.0-108.0","","","2-1","5557","37","1","Training","Stims/Figures/19-J-10-4.bmp","sasaza","Right","37","7","9","3B","C2","J","105"
"","","approach-retreat","109","1113039","0.0-109.0","","","2-1","6790","38","1","Training","Stims/Figures/128-C-30-3.bmp","fa:fasha","Up","38","7","10","3B","C1","J","106"
"","","approach-retreat","110","1120612","0.0-110.0","","","2-1","6060","40","1","Training","Stims/Figures/84-J-0-2.bmp","sasaza","Up","40","7","11","3B","C2","J","107"
"","","approach-retreat","111","1127973","0.0-111.0","","","2-1","5848","37","1","Training","Stims/Figures/118-C-20-2.bmp","fa:fasha","Left","37","7","12","3B","C1","J","108"
"","","approach-retreat","112","1135769","0.0-112.0","","","2-1","6284","37","1","Training","Stims/Figures/57-C-30-1.bmp","fa:fasha","Left","37","7","13","3B","C1","J","109"
"","","approach-retreat","113","1142954","0.0-113.0","","","2-1","5670","38","1","Training","Stims/Figures/100-C-30-3.bmp","fa:fasha","Up","38","7","14","3B","C1","J","110"
"","","approach-retreat","114","1149848","0.0-114.0","","","2-1","5383","37","1","Training","Stims/Figures/7-C-20-4.bmp","fa:fasha","Left","37","7","15","3B","C1","J","111"
"","","approach-retreat","115","1156360","0.0-115.0","","","2-1","4999","37","1","Training","Stims/Figures/118-J-0-2.bmp","sasaza","Right","37","7","16","3B","C2","J","112"
"","","approach-retreat","116","1162823","0.0-116.0","","","2-1","4937","40","1","Training","Stims/Figures/7-C-20-4.bmp","fa:fasha","Down","40","8","1","3B","C1","J","113"
"","","approach-retreat","117","1169047","0.0-117.0","","","2-1","4709","39","1","Training","Stims/Figures/57-C-30-1.bmp","fa:fasha","Right","39","8","2","3B","C1","J","114"
"","","approach-retreat","118","1178768","0.0-118.0","","","2-1","8209","40","1","Training","Stims/Figures/84-J-0-2.bmp","sasaza","Up","40","8","3","3B","C2","J","115"
"","","approach-retreat","119","1186061","0.0-119.0","","","2-1","5777","39","1","Training","Stims/Figures/128-C-30-3.bmp","fa:fasha","Right","39","8","4","3B","C1","J","116"
"","","approach-retreat","120","1193086","0.0-120.0","","","2-1","5512","40","1","Training","Stims/Figures/7-J-10-4.bmp","sasaza","Up","40","8","5","3B","C2","J","117"
"","","approach-retreat","121","1201111","0.0-121.0","","","2-1","6511","39","1","Training","Stims/Figures/93-J-0-1.bmp","sasaza","Left","39","8","6","3B","C2","J","118"
"","","approach-retreat","122","1207130","0.0-122.0","","","2-1","4506","40","1","Training","Stims/Figures/19-J-10-4.bmp","sasaza","Up","40","8","7","3B","C2","J","119"
"","","approach-retreat","123","1214115","0.0-123.0","","","2-1","5471","40","1","Training","Stims/Figures/118-C-20-2.bmp","fa:fasha","Down","40","8","8","3B","C1","J","120"
"","","approach-retreat","124","1221263","0.0-124.0","","","2-1","5633","38","1","Training","Stims/Figures/19-C-20-4.bmp","fa:fasha","Up","38","8","9","3B","C1","J","121"
"","","approach-retreat","125","1227925","0.0-125.0","","","2-1","5149","39","1","Training","Stims/Figures/118-J-0-2.bmp","sasaza","Left","39","8","10","3B","C2","J","122"
"","","approach-retreat","126","1234591","0.0-126.0","","","2-1","5150","40","1","Training","Stims/Figures/100-C-30-3.bmp","fa:fasha","Down","40","8","11","3B","C1","J","123"
"","","approach-retreat","127","1241176","0.0-127.0","","","2-1","5070","38","1","Training","Stims/Figures/100-J-10-3.bmp","sasaza","Down","38","8","12","3B","C2","J","124"
"","","approach-retreat","128","1247888","0.0-128.0","","","2-1","5200","39","1","Training","Stims/Figures/93-C-30-1.bmp","fa:fasha","Right","39","8","13","3B","C1","J","125"
"","","approach-retreat","129","1256172","0.0-129.0","","","2-1","6767","39","1","Training","Stims/Figures/128-J-10-3.bmp","sasaza","Left","39","8","14","3B","C2","J","126"
"","","approach-retreat","130","1263429","0.0-130.0","","","2-1","5746","37","1","Training","Stims/Figures/57-J-0-1.bmp","sasaza","Right","37","8","15","3B","C2","J","127"
"","","approach-retreat","131","1272082","0.0-131.0","","","2-1","7139","37","1","Training","Stims/Figures/84-C-20-2.bmp","fa:fasha","Left","37","8","16","3B","C1","J","128"
"","","approach-retreat","132","1278622","0.0-132.0","","","2-1","5025","40","1","Training","Stims/Figures/19-J-10-4.bmp","sasaza","Up","40","9","1","3B","C2","J","129"
"","","approach-retreat","133","1285159","0.0-133.0","","","2-1","5025","40","1","Training","Stims/Figures/19-C-20-4.bmp","fa:fasha","Down","40","9","2","3B","C1","J","130"
"","","approach-retreat","134","1291922","0.0-134.0","","","2-1","5249","40","1","Training","Stims/Figures/84-C-20-2.bmp","fa:fasha","Down","40","9","3","3B","C1","J","131"
"","","approach-retreat","135","1299209","0.0-135.0","","","2-1","5772","37","1","Training","Stims/Figures/100-C-30-3.bmp","fa:fasha","Left","37","9","4","3B","C1","J","132"
"","","approach-retreat","136","1306126","0.0-136.0","","","2-1","5403","37","1","Training","Stims/Figures/93-C-30-1.bmp","fa:fasha","Left","37","9","5","3B","C1","J","133"
"","","approach-retreat","137","1312923","0.0-137.0","","","2-1","5282","38","1","Training","Stims/Figures/118-J-0-2.bmp","sasaza","Down","38","9","6","3B","C2","J","134"
"","","approach-retreat","138","1320511","0.0-138.0","","","2-1","6075","37","1","Training","Stims/Figures/7-J-10-4.bmp","sasaza","Right","37","9","7","3B","C2","J","135"
"","","approach-retreat","139","1327170","0.0-139.0","","","2-1","5140","37","1","Training","Stims/Figures/128-J-10-3.bmp","sasaza","Right","37","9","8","3B","C2","J","136"
"","","approach-retreat","140","1334099","0.0-140.0","","","2-1","5414","40","1","Training","Stims/Figures/118-C-20-2.bmp","fa:fasha","Down","40","9","9","3B","C1","J","137"
"","","approach-retreat","141","1341781","0.0-141.0","","","2-1","6167","37","1","Training","Stims/Figures/57-C-30-1.bmp","fa:fasha","Left","37","9","10","3B","C1","J","138"
"","","approach-retreat","142","1349209","0.0-142.0","","","2-1","5910","37","1","Training","Stims/Figures/100-J-10-3.bmp","sasaza","Right","37","9","11","3B","C2","J","139"
"","","approach-retreat","143","1355889","0.0-143.0","","","2-1","5169","40","1","Training","Stims/Figures/84-J-0-2.bmp","sasaza","Up","40","9","12","3B","C2","J","140"
"","","approach-retreat","144","1362758","0.0-144.0","","","2-1","5356","37","1","Training","Stims/Figures/93-J-0-1.bmp","sasaza","Right","37","9","13","3B","C2","J","141"
"","","approach-retreat","145","1369608","0.0-145.0","","","2-1","5336","40","1","Training","Stims/Figures/57-J-0-1.bmp","sasaza","Up","40","9","14","3B","C2","J","142"
"","","approach-retreat","146","1375937","0.0-146.0","","","2-1","4816","38","1","Training","Stims/Figures/7-C-20-4.bmp","fa:fasha","Up","38","9","15","3B","C1","J","143"
"","","approach-retreat","147","1382315","0.0-147.0","","","2-1","4865","37","1","Training","Stims/Figures/128-C-30-3.bmp","fa:fasha","Left","37","9","16","3B","C1","J","144"
"58497","","instructions","148","1440812","0.0-148.0","[{""page_index"":0,""viewing_time"":58495}]","","","","","","","","","","","","","","","",""
"","","approach-retreat","149","1449404","0.0-149.0","","","2-1","7083","40","0","Testing","Stims/Figures/7-C-20-4.bmp","fa:fasha","Up","38","1","1","3B","C1","J","1"
"","","approach-retreat","150","1463575","0.0-150.0","","","2-1","12658","39","0","Testing","Stims/Figures/84-C-20-2.bmp","fa:fasha","Left","37","1","2","3B","C1","J","2"
"","","approach-retreat","151","1471376","0.0-151.0","","","2-1","6289","40","0","Testing","Stims/Figures/128-J-10-3.bmp","sasaza","Down","38","1","3","3B","C2","J","3"
"","","approach-retreat","152","1479268","0.0-152.0","","","2-1","6384","40","0","Testing","Stims/Figures/86-C-30-1.bmp","fa:fasha","Up","38","1","4","3B","C1","J","4"
"","","approach-retreat","153","1487202","0.0-153.0","","","2-1","6425","39","1","Testing","Stims/Figures/74-C-20-4.bmp","fa:fasha","Right","39","1","5","3B","C1","J","5"
"","","approach-retreat","154","1492806","0.0-154.0","","","2-1","4091","38","0","Testing","Stims/Figures/128-C-30-3.bmp","fa:fasha","Down","40","1","6","3B","C1","J","6"
"","","approach-retreat","155","1498764","0.0-155.0","","","2-1","4446","37","1","Testing","Stims/Figures/118-C-20-2.bmp","fa:fasha","Left","37","1","7","3B","C1","J","7"
"","","approach-retreat","156","1507915","0.0-156.0","","","2-1","7640","40","0","Testing","Stims/Figures/144-J-10-3.bmp","sasaza","Down","38","1","8","3B","C2","J","8"
"","","approach-retreat","157","1514671","0.0-157.0","","","2-1","5247","39","0","Testing","Stims/Figures/93-J-0-1.bmp","sasaza","Right","37","1","9","3B","C2","J","9"
"","","approach-retreat","158","1525538","0.0-158.0","","","2-1","9355","37","0","Testing","Stims/Figures/57-J-0-1.bmp","sasaza","Left","39","1","10","3B","C2","J","10"
"","","approach-retreat","159","1532262","0.0-159.0","","","2-1","5215","37","1","Testing","Stims/Figures/100-J-10-3.bmp","sasaza","Right","37","1","11","3B","C2","J","11"
"","","approach-retreat","160","1537960","0.0-160.0","","","2-1","4189","39","0","Testing","Stims/Figures/74-J-10-4.bmp","sasaza","Right","37","1","12","3B","C2","J","12"
"","","approach-retreat","161","1544751","0.0-161.0","","","2-1","5280","38","0","Testing","Stims/Figures/19-C-20-4.bmp","fa:fasha","Down","40","1","13","3B","C1","J","13"
"","","approach-retreat","162","1550738","0.0-162.0","","","2-1","4473","39","0","Testing","Stims/Figures/144-C-30-3.bmp","fa:fasha","Left","37","1","14","3B","C1","J","14"
"","","approach-retreat","163","1558071","0.0-163.0","","","2-1","5824","37","1","Testing","Stims/Figures/118-J-0-2.bmp","sasaza","Right","37","1","15","3B","C2","J","15"
"","","approach-retreat","164","1565694","0.0-164.0","","","2-1","6112","37","1","Testing","Stims/Figures/94-C-20-2.bmp","fa:fasha","Left","37","1","16","3B","C1","J","16"
"","","approach-retreat","165","1573760","0.0-165.0","","","2-1","6548","39","1","Testing","Stims/Figures/19-J-10-4.bmp","sasaza","Left","39","1","17","3B","C2","J","17"
"","","approach-retreat","166","1579520","0.0-166.0","","","2-1","4251","40","0","Testing","Stims/Figures/94-J-0-2.bmp","sasaza","Down","38","1","18","3B","C2","J","18"
"","","approach-retreat","167","1595796","0.0-167.0","","","2-1","14762","40","0","Testing","Stims/Figures/93-C-30-1.bmp","fa:fasha","Up","38","1","19","3B","C1","J","19"
"","","approach-retreat","168","1601972","0.0-168.0","","","2-1","4665","40","1","Testing","Stims/Figures/7-J-10-4.bmp","sasaza","Up","40","1","20","3B","C2","J","20"
"","","approach-retreat","169","1608801","0.0-169.0","","","2-1","5322","40","0","Testing","Stims/Figures/100-C-30-3.bmp","fa:fasha","Up","38","1","21","3B","C1","J","21"
"","","approach-retreat","170","1615162","0.0-170.0","","","2-1","4850","38","1","Testing","Stims/Figures/84-J-0-2.bmp","sasaza","Down","38","1","22","3B","C2","J","22"
"","","approach-retreat","171","1625639","0.0-171.0","","","2-1","8966","39","1","Testing","Stims/Figures/57-C-30-1.bmp","fa:fasha","Right","39","1","23","3B","C1","J","23"
"","","approach-retreat","172","1635313","0.0-172.0","","","2-1","8162","38","0","Testing","Stims/Figures/86-J-0-1.bmp","sasaza","Up","40","1","24","3B","C2","J","24"
"","","approach-retreat","173","1644873","0.0-173.0","","","2-1","8049","40","0","Testing","Stims/Figures/128-C-30-3.bmp","fa:fasha","Up","38","2","1","3B","C1","J","25"
"","","approach-retreat","174","1650920","0.0-174.0","","","2-1","4537","38","0","Testing","Stims/Figures/118-C-20-2.bmp","fa:fasha","Down","40","2","2","3B","C1","J","26"
"","","approach-retreat","175","1657091","0.0-175.0","","","2-1","4661","38","0","Testing","Stims/Figures/7-J-10-4.bmp","sasaza","Up","40","2","3","3B","C2","J","27"
"","","approach-retreat","176","1665658","0.0-176.0","","","2-1","7055","39","1","Testing","Stims/Figures/144-J-10-3.bmp","sasaza","Left","39","2","4","3B","C2","J","28"
"","","approach-retreat","177","1674331","0.0-177.0","","","2-1","7162","39","1","Testing","Stims/Figures/84-C-20-2.bmp","fa:fasha","Right","39","2","5","3B","C1","J","29"
"","","approach-retreat","178","1685420","0.0-178.0","","","2-1","9580","40","1","Testing","Stims/Figures/7-C-20-4.bmp","fa:fasha","Down","40","2","6","3B","C1","J","30"
"","","approach-retreat","179","1691580","0.0-179.0","","","2-1","4649","39","0","Testing","Stims/Figures/74-J-10-4.bmp","sasaza","Right","37","2","7","3B","C2","J","31"
"","","approach-retreat","180","1699711","0.0-180.0","","","2-1","6618","38","0","Testing","Stims/Figures/57-C-30-1.bmp","fa:fasha","Down","40","2","8","3B","C1","J","32"
"","","approach-retreat","181","1705441","0.0-181.0","","","2-1","4220","39","0","Testing","Stims/Figures/94-J-0-2.bmp","sasaza","Right","37","2","9","3B","C2","J","33"
"","","approach-retreat","182","1713373","0.0-182.0","","","2-1","6422","39","1","Testing","Stims/Figures/118-J-0-2.bmp","sasaza","Left","39","2","10","3B","C2","J","34"
"","","approach-retreat","183","1719472","0.0-183.0","","","2-1","4589","38","0","Testing","Stims/Figures/100-J-10-3.bmp","sasaza","Up","40","2","11","3B","C2","J","35"
"","","approach-retreat","184","1725996","0.0-184.0","","","2-1","5010","39","0","Testing","Stims/Figures/128-J-10-3.bmp","sasaza","Right","37","2","12","3B","C2","J","36"
"","","approach-retreat","185","1731525","0.0-185.0","","","2-1","4020","40","1","Testing","Stims/Figures/74-C-20-4.bmp","fa:fasha","Down","40","2","13","3B","C1","J","37"
"","","approach-retreat","186","1737373","0.0-186.0","","","2-1","4339","40","1","Testing","Stims/Figures/86-J-0-1.bmp","sasaza","Up","40","2","14","3B","C2","J","38"
"","","approach-retreat","187","1743363","0.0-187.0","","","2-1","4480","38","0","Testing","Stims/Figures/19-C-20-4.bmp","fa:fasha","Down","40","2","15","3B","C1","J","39"
"","","approach-retreat","188","1752682","0.0-188.0","","","2-1","7807","38","1","Testing","Stims/Figures/100-C-30-3.bmp","fa:fasha","Up","38","2","16","3B","C1","J","40"
"","","approach-retreat","189","1759943","0.0-189.0","","","2-1","5742","37","0","Testing","Stims/Figures/94-C-20-2.bmp","fa:fasha","Right","39","2","17","3B","C1","J","41"
"","","approach-retreat","190","1767237","0.0-190.0","","","2-1","5784","38","0","Testing","Stims/Figures/93-J-0-1.bmp","sasaza","Up","40","2","18","3B","C2","J","42"
"","","approach-retreat","191","1773722","0.0-191.0","","","2-1","4972","39","0","Testing","Stims/Figures/19-J-10-4.bmp","sasaza","Right","37","2","19","3B","C2","J","43"
"","","approach-retreat","192","1780266","0.0-192.0","","","2-1","5036","39","1","Testing","Stims/Figures/57-J-0-1.bmp","sasaza","Left","39","2","20","3B","C2","J","44"
"","","approach-retreat","193","1787811","0.0-193.0","","","2-1","6034","39","0","Testing","Stims/Figures/93-C-30-1.bmp","fa:fasha","Left","37","2","21","3B","C1","J","45"
"","","approach-retreat","194","1794969","0.0-194.0","","","2-1","5647","39","0","Testing","Stims/Figures/86-C-30-1.bmp","fa:fasha","Left","37","2","22","3B","C1","J","46"
"","","approach-retreat","195","1802250","0.0-195.0","","","2-1","5771","38","1","Testing","Stims/Figures/84-J-0-2.bmp","sasaza","Down","38","2","23","3B","C2","J","47"
"","","approach-retreat","196","1814695","0.0-196.0","","","2-1","10935","39","0","Testing","Stims/Figures/144-C-30-3.bmp","fa:fasha","Left","37","2","24","3B","C1","J","48"
"","","approach-retreat","197","1821308","0.0-197.0","","","2-1","5104","38","0","Testing","Stims/Figures/93-C-30-1.bmp","fa:fasha","Down","40","3","1","3B","C1","J","49"
"","","approach-retreat","198","1827763","0.0-198.0","","","2-1","4945","38","0","Testing","Stims/Figures/57-J-0-1.bmp","sasaza","Up","40","3","2","3B","C2","J","50"
"","","approach-retreat","199","1834071","0.0-199.0","","","2-1","4798","40","1","Testing","Stims/Figures/86-C-30-1.bmp","fa:fasha","Down","40","3","3","3B","C1","J","51"
"","","approach-retreat","200","1845711","0.0-200.0","","","2-1","10129","37","0","Testing","Stims/Figures/144-J-10-3.bmp","sasaza","Left","39","3","4","3B","C2","J","52"
"","","approach-retreat","201","1854776","0.0-201.0","","","2-1","7556","37","1","Testing","Stims/Figures/144-C-30-3.bmp","fa:fasha","Left","37","3","5","3B","C1","J","53"
"","","approach-retreat","202","1863032","0.0-202.0","","","2-1","6747","40","1","Testing","Stims/Figures/84-C-20-2.bmp","fa:fasha","Down","40","3","6","3B","C1","J","54"
"","","approach-retreat","203","1870824","0.0-203.0","","","2-1","6281","38","1","Testing","Stims/Figures/7-C-20-4.bmp","fa:fasha","Up","38","3","7","3B","C1","J","55"
"","","approach-retreat","204","1878031","0.0-204.0","","","2-1","5698","38","0","Testing","Stims/Figures/7-J-10-4.bmp","sasaza","Up","40","3","8","3B","C2","J","56"
"","","approach-retreat","205","1883894","0.0-205.0","","","2-1","4351","40","1","Testing","Stims/Figures/19-C-20-4.bmp","fa:fasha","Down","40","3","9","3B","C1","J","57"
"","","approach-retreat","206","1890751","0.0-206.0","","","2-1","5348","38","0","Testing","Stims/Figures/93-J-0-1.bmp","sasaza","Up","40","3","10","3B","C2","J","58"
"","","approach-retreat","207","1897472","0.0-207.0","","","2-1","5209","40","0","Testing","Stims/Figures/74-C-20-4.bmp","fa:fasha","Up","38","3","11","3B","C1","J","59"
"","","approach-retreat","208","1903417","0.0-208.0","","","2-1","4418","39","0","Testing","Stims/Figures/128-C-30-3.bmp","fa:fasha","Left","37","3","12","3B","C1","J","60"
"","","approach-retreat","209","1909682","0.0-209.0","","","2-1","4755","39","0","Testing","Stims/Figures/118-J-0-2.bmp","sasaza","Right","37","3","13","3B","C2","J","61"
"","","approach-retreat","210","1917111","0.0-210.0","","","2-1","5920","38","1","Testing","Stims/Figures/118-C-20-2.bmp","fa:fasha","Up","38","3","14","3B","C1","J","62"
"","","approach-retreat","211","1923583","0.0-211.0","","","2-1","4961","39","1","Testing","Stims/Figures/128-J-10-3.bmp","sasaza","Left","39","3","15","3B","C2","J","63"
"","","approach-retreat","212","1929750","0.0-212.0","","","2-1","4658","40","0","Testing","Stims/Figures/74-J-10-4.bmp","sasaza","Down","38","3","16","3B","C2","J","64"
"","","approach-retreat","213","1935899","0.0-213.0","","","2-1","4638","39","1","Testing","Stims/Figures/84-J-0-2.bmp","sasaza","Left","39","3","17","3B","C2","J","65"
"","","approach-retreat","214","1942001","0.0-214.0","","","2-1","4572","39","1","Testing","Stims/Figures/86-J-0-1.bmp","sasaza","Left","39","3","18","3B","C2","J","66"
"","","approach-retreat","215","1951680","0.0-215.0","","","2-1","8166","39","1","Testing","Stims/Figures/100-C-30-3.bmp","fa:fasha","Right","39","3","19","3B","C1","J","67"
"","","approach-retreat","216","1957660","0.0-216.0","","","2-1","4470","40","0","Testing","Stims/Figures/100-J-10-3.bmp","sasaza","Down","38","3","20","3B","C2","J","68"
"","","approach-retreat","217","1963555","0.0-217.0","","","2-1","4383","39","0","Testing","Stims/Figures/94-J-0-2.bmp","sasaza","Right","37","3","21","3B","C2","J","69"
"","","approach-retreat","218","1969262","0.0-218.0","","","2-1","4197","39","1","Testing","Stims/Figures/57-C-30-1.bmp","fa:fasha","Right","39","3","22","3B","C1","J","70"
"","","approach-retreat","219","1975020","0.0-219.0","","","2-1","4247","39","1","Testing","Stims/Figures/94-C-20-2.bmp","fa:fasha","Right","39","3","23","3B","C1","J","71"
"","","approach-retreat","220","1981904","0.0-220.0","","","2-1","5371","39","0","Testing","Stims/Figures/19-J-10-4.bmp","sasaza","Right","37","3","24","3B","C2","J","72"
"","","approach-retreat","221","1987848","0.0-221.0","","","2-1","4434","40","1","Testing","Stims/Figures/128-C-30-3.bmp","fa:fasha","Down","40","4","1","3B","C1","J","73"
"","","approach-retreat","222","1994801","0.0-222.0","","","2-1","5443","38","0","Testing","Stims/Figures/86-J-0-1.bmp","sasaza","Up","40","4","2","3B","C2","J","74"
"","","approach-retreat","223","2000926","0.0-223.0","","","2-1","4617","39","0","Testing","Stims/Figures/144-J-10-3.bmp","sasaza","Right","37","4","3","3B","C2","J","75"
"","","approach-retreat","224","2007007","0.0-224.0","","","2-1","4570","38","0","Testing","Stims/Figures/93-J-0-1.bmp","sasaza","Up","40","4","4","3B","C2","J","76"
"","","approach-retreat","225","2012810","0.0-225.0","","","2-1","4293","40","1","Testing","Stims/Figures/94-J-0-2.bmp","sasaza","Up","40","4","5","3B","C2","J","77"
"","","approach-retreat","226","2020119","0.0-226.0","","","2-1","5799","39","1","Testing","Stims/Figures/100-J-10-3.bmp","sasaza","Left","39","4","6","3B","C2","J","78"
"","","approach-retreat","227","2026995","0.0-227.0","","","2-1","5363","40","1","Testing","Stims/Figures/57-C-30-1.bmp","fa:fasha","Down","40","4","7","3B","C1","J","79"
"","","approach-retreat","228","2032851","0.0-228.0","","","2-1","4346","38","0","Testing","Stims/Figures/93-C-30-1.bmp","fa:fasha","Down","40","4","8","3B","C1","J","80"
"","","approach-retreat","229","2038721","0.0-229.0","","","2-1","4359","38","0","Testing","Stims/Figures/19-C-20-4.bmp","fa:fasha","Down","40","4","9","3B","C1","J","81"
"","","approach-retreat","230","2044499","0.0-230.0","","","2-1","4270","38","0","Testing","Stims/Figures/94-C-20-2.bmp","fa:fasha","Down","40","4","10","3B","C1","J","82"
"","","approach-retreat","231","2050301","0.0-231.0","","","2-1","4291","38","1","Testing","Stims/Figures/100-C-30-3.bmp","fa:fasha","Up","38","4","11","3B","C1","J","83"
"","","approach-retreat","232","2056881","0.0-232.0","","","2-1","5060","38","1","Testing","Stims/Figures/7-C-20-4.bmp","fa:fasha","Up","38","4","12","3B","C1","J","84"
"","","approach-retreat","233","2062810","0.0-233.0","","","2-1","4420","38","0","Testing","Stims/Figures/128-J-10-3.bmp","sasaza","Up","40","4","13","3B","C2","J","85"
"","","approach-retreat","234","2070181","0.0-234.0","","","2-1","5863","39","0","Testing","Stims/Figures/144-C-30-3.bmp","fa:fasha","Left","37","4","14","3B","C1","J","86"
"","","approach-retreat","235","2077417","0.0-235.0","","","2-1","5727","39","0","Testing","Stims/Figures/74-C-20-4.bmp","fa:fasha","Left","37","4","15","3B","C1","J","87"
"","","approach-retreat","236","2083776","0.0-236.0","","","2-1","4849","39","1","Testing","Stims/Figures/84-J-0-2.bmp","sasaza","Left","39","4","16","3B","C2","J","88"
"","","approach-retreat","237","2092473","0.0-237.0","","","2-1","7186","37","0","Testing","Stims/Figures/84-C-20-2.bmp","fa:fasha","Right","39","4","17","3B","C1","J","89"
"","","approach-retreat","238","2102068","0.0-238.0","","","2-1","8085","37","0","Testing","Stims/Figures/118-C-20-2.bmp","fa:fasha","Right","39","4","18","3B","C1","J","90"
"","","approach-retreat","239","2117033","0.0-239.0","","","2-1","13457","37","0","Testing","Stims/Figures/57-J-0-1.bmp","sasaza","Left","39","4","19","3B","C2","J","91"
"","","approach-retreat","240","2131195","0.0-240.0","","","2-1","12652","39","1","Testing","Stims/Figures/86-C-30-1.bmp","fa:fasha","Right","39","4","20","3B","C1","J","92"
"","","approach-retreat","241","2138783","0.0-241.0","","","2-1","6077","37","0","Testing","Stims/Figures/7-J-10-4.bmp","sasaza","Left","39","4","21","3B","C2","J","93"
"","","approach-retreat","242","2149298","0.0-242.0","","","2-1","9007","37","1","Testing","Stims/Figures/118-J-0-2.bmp","sasaza","Right","37","4","22","3B","C2","J","94"
"","","approach-retreat","243","2157837","0.0-243.0","","","2-1","7029","37","1","Testing","Stims/Figures/74-J-10-4.bmp","sasaza","Right","37","4","23","3B","C2","J","95"
"","","approach-retreat","244","2166897","0.0-244.0","","","2-1","7550","38","1","Testing","Stims/Figures/19-J-10-4.bmp","sasaza","Down","38","4","24","3B","C2","J","96"
"","","survey-text","245","2257959","0.0-245.0","","","2-1","98612","38","1","Testing","Stims/Figures/19-J-10-4.bmp","sasaza","Down","38","4","24","3B","C2","J",""
