"rt","key_press","trial_type","trial_index","time_elapsed","internal_node_id","view_history","responses","Id","Rt","ResKeyCode","ResCorr","TrialType2","Image","Label","Location","CorrectResponse","Block","BlockTrial","Condition","LabelType","Subcondition","trialNum"
"31689","32","text","0","31695","0.0-0.0-0.0","","","","","","","","","","","","","","","","",""
"97443","","instructions","1","129142","0.0-1.0","[{""page_index"":0,""viewing_time"":97442}]","","","","","","","","","","","","","","","",""
"27143","","survey-multi-choice","2","156324","0.0-2.0","","{""Q0"":""Da"",""Q1"":""Da"",""Q2"":""Da"",""Q3"":""Da"",""Q4"":""Da"",""Q5"":""Da""}","","","","","","","","","","","","","","",""
"","","bio","3","163565","0.0-3.0","","{""age"":""21"",""gender"":""f"",""specify"":""""}","","","","","","","","","","","","","","",""
"","","approach-retreat","4","172088","0.0-4.0","","","2-5","6965","40","0","Training","Stims/Figures/74-C-20-4.bmp","saha:za","Up","38","1","1","3A","C2","J","1"
"","","approach-retreat","5","178301","0.0-5.0","","","2-5","4703","40","0","Training","Stims/Figures/85-J-0-2.bmp","fashasha","Down","38","1","2","3A","C1","J","2"
"","","approach-retreat","6","184303","0.0-6.0","","","2-5","4492","38","1","Training","Stims/Figures/74-J-10-4.bmp","fashasha","Down","38","1","3","3A","C1","J","3"
"","","approach-retreat","7","191078","0.0-7.0","","","2-5","5265","39","1","Training","Stims/Figures/111-C-30-3.bmp","saha:za","Right","39","1","4","3A","C2","J","4"
"","","approach-retreat","8","196961","0.0-8.0","","","2-5","4372","37","1","Training","Stims/Figures/100-C-30-3.bmp","saha:za","Left","37","1","5","3A","C2","J","5"
"","","approach-retreat","9","202883","0.0-9.0","","","2-5","4411","37","1","Training","Stims/Figures/19-C-20-4.bmp","saha:za","Left","37","1","6","3A","C2","J","6"
"","","approach-retreat","10","209298","0.0-10.0","","","2-5","4905","37","1","Training","Stims/Figures/111-J-10-3.bmp","fashasha","Right","37","1","7","3A","C1","J","7"
"","","approach-retreat","11","214916","0.0-11.0","","","2-5","4104","37","1","Training","Stims/Figures/19-J-10-4.bmp","fashasha","Right","37","1","8","3A","C1","J","8"
"","","approach-retreat","12","220981","0.0-12.0","","","2-5","4556","40","1","Training","Stims/Figures/118-C-20-2.bmp","saha:za","Down","40","1","9","3A","C2","J","9"
"","","approach-retreat","13","226681","0.0-13.0","","","2-5","4183","37","1","Training","Stims/Figures/85-C-20-2.bmp","saha:za","Left","37","1","10","3A","C2","J","10"
"","","approach-retreat","14","232411","0.0-14.0","","","2-5","4220","39","1","Training","Stims/Figures/86-J-0-1.bmp","fashasha","Left","39","1","11","3A","C1","J","11"
"","","approach-retreat","15","237947","0.0-15.0","","","2-5","4026","40","1","Training","Stims/Figures/100-J-10-3.bmp","fashasha","Up","40","1","12","3A","C1","J","12"
"","","approach-retreat","16","243639","0.0-16.0","","","2-5","4182","38","0","Training","Stims/Figures/71-C-30-1.bmp","saha:za","Down","40","1","13","3A","C2","J","13"
"","","approach-retreat","17","249267","0.0-17.0","","","2-5","4116","40","1","Training","Stims/Figures/71-J-0-1.bmp","fashasha","Up","40","1","14","3A","C1","J","14"
"","","approach-retreat","18","256302","0.0-18.0","","","2-5","5525","40","1","Training","Stims/Figures/118-J-0-2.bmp","fashasha","Up","40","1","15","3A","C1","J","15"
"","","approach-retreat","19","264007","0.0-19.0","","","2-5","6194","39","1","Training","Stims/Figures/86-C-30-1.bmp","saha:za","Right","39","1","16","3A","C2","J","16"
"","","approach-retreat","20","269803","0.0-20.0","","","2-5","4285","39","1","Training","Stims/Figures/100-J-10-3.bmp","fashasha","Left","39","2","1","3A","C1","J","17"
"","","approach-retreat","21","275457","0.0-21.0","","","2-5","4143","39","1","Training","Stims/Figures/74-J-10-4.bmp","fashasha","Left","39","2","2","3A","C1","J","18"
"","","approach-retreat","22","281230","0.0-22.0","","","2-5","4262","40","1","Training","Stims/Figures/100-C-30-3.bmp","saha:za","Down","40","2","3","3A","C2","J","19"
"","","approach-retreat","23","286942","0.0-23.0","","","2-5","4202","39","1","Training","Stims/Figures/86-C-30-1.bmp","saha:za","Right","39","2","4","3A","C2","J","20"
"","","approach-retreat","24","292493","0.0-24.0","","","2-5","4040","39","1","Training","Stims/Figures/85-C-20-2.bmp","saha:za","Right","39","2","5","3A","C2","J","21"
"","","approach-retreat","25","298196","0.0-25.0","","","2-5","4192","38","1","Training","Stims/Figures/118-C-20-2.bmp","saha:za","Up","38","2","6","3A","C2","J","22"
"","","approach-retreat","26","303867","0.0-26.0","","","2-5","4161","39","1","Training","Stims/Figures/85-J-0-2.bmp","fashasha","Left","39","2","7","3A","C1","J","23"
"","","approach-retreat","27","309386","0.0-27.0","","","2-5","4008","38","1","Training","Stims/Figures/118-J-0-2.bmp","fashasha","Down","38","2","8","3A","C1","J","24"
"","","approach-retreat","28","315148","0.0-28.0","","","2-5","4253","39","1","Training","Stims/Figures/74-C-20-4.bmp","saha:za","Right","39","2","9","3A","C2","J","25"
"","","approach-retreat","29","321054","0.0-29.0","","","2-5","4397","38","1","Training","Stims/Figures/71-C-30-1.bmp","saha:za","Up","38","2","10","3A","C2","J","26"
"","","approach-retreat","30","326633","0.0-30.0","","","2-5","4068","40","1","Training","Stims/Figures/86-J-0-1.bmp","fashasha","Up","40","2","11","3A","C1","J","27"
"","","approach-retreat","31","332233","0.0-31.0","","","2-5","4089","38","1","Training","Stims/Figures/111-J-10-3.bmp","fashasha","Down","38","2","12","3A","C1","J","28"
"","","approach-retreat","32","338180","0.0-32.0","","","2-5","4437","39","1","Training","Stims/Figures/71-J-0-1.bmp","fashasha","Left","39","2","13","3A","C1","J","29"
"","","approach-retreat","33","344568","0.0-33.0","","","2-5","4880","40","1","Training","Stims/Figures/111-C-30-3.bmp","saha:za","Down","40","2","14","3A","C2","J","30"
"","","approach-retreat","34","350201","0.0-34.0","","","2-5","4123","40","1","Training","Stims/Figures/19-J-10-4.bmp","fashasha","Up","40","2","15","3A","C1","J","31"
"","","approach-retreat","35","355856","0.0-35.0","","","2-5","4146","39","1","Training","Stims/Figures/19-C-20-4.bmp","saha:za","Right","39","2","16","3A","C2","J","32"
"","","approach-retreat","36","362203","0.0-36.0","","","2-5","4837","38","1","Training","Stims/Figures/71-J-0-1.bmp","fashasha","Down","38","3","1","3A","C1","J","33"
"","","approach-retreat","37","367867","0.0-37.0","","","2-5","4154","39","1","Training","Stims/Figures/74-J-10-4.bmp","fashasha","Left","39","3","2","3A","C1","J","34"
"","","approach-retreat","38","373520","0.0-38.0","","","2-5","4141","40","1","Training","Stims/Figures/85-J-0-2.bmp","fashasha","Up","40","3","3","3A","C1","J","35"
"","","approach-retreat","39","379206","0.0-39.0","","","2-5","4175","39","1","Training","Stims/Figures/111-C-30-3.bmp","saha:za","Right","39","3","4","3A","C2","J","36"
"","","approach-retreat","40","384970","0.0-40.0","","","2-5","4254","38","1","Training","Stims/Figures/118-C-20-2.bmp","saha:za","Up","38","3","5","3A","C2","J","37"
"","","approach-retreat","41","390707","0.0-41.0","","","2-5","4226","37","1","Training","Stims/Figures/71-C-30-1.bmp","saha:za","Left","37","3","6","3A","C2","J","38"
"","","approach-retreat","42","396656","0.0-42.0","","","2-5","4439","40","1","Training","Stims/Figures/100-C-30-3.bmp","saha:za","Down","40","3","7","3A","C2","J","39"
"","","approach-retreat","43","402766","0.0-43.0","","","2-5","4599","38","1","Training","Stims/Figures/74-C-20-4.bmp","saha:za","Up","38","3","8","3A","C2","J","40"
"","","approach-retreat","44","408942","0.0-44.0","","","2-5","4667","39","1","Training","Stims/Figures/100-J-10-3.bmp","fashasha","Left","39","3","9","3A","C1","J","41"
"","","approach-retreat","45","415583","0.0-45.0","","","2-5","5131","37","1","Training","Stims/Figures/111-J-10-3.bmp","fashasha","Right","37","3","10","3A","C1","J","42"
"","","approach-retreat","46","421575","0.0-46.0","","","2-5","4481","37","1","Training","Stims/Figures/85-C-20-2.bmp","saha:za","Left","37","3","11","3A","C2","J","43"
"","","approach-retreat","47","427452","0.0-47.0","","","2-5","4367","39","1","Training","Stims/Figures/19-C-20-4.bmp","saha:za","Right","39","3","12","3A","C2","J","44"
"","","approach-retreat","48","433341","0.0-48.0","","","2-5","4380","38","1","Training","Stims/Figures/118-J-0-2.bmp","fashasha","Down","38","3","13","3A","C1","J","45"
"","","approach-retreat","49","439235","0.0-49.0","","","2-5","4384","40","1","Training","Stims/Figures/86-J-0-1.bmp","fashasha","Up","40","3","14","3A","C1","J","46"
"","","approach-retreat","50","445253","0.0-50.0","","","2-5","4507","37","1","Training","Stims/Figures/19-J-10-4.bmp","fashasha","Right","37","3","15","3A","C1","J","47"
"","","approach-retreat","51","451262","0.0-51.0","","","2-5","4499","40","1","Training","Stims/Figures/86-C-30-1.bmp","saha:za","Down","40","3","16","3A","C2","J","48"
"","","approach-retreat","52","457216","0.0-52.0","","","2-5","4444","37","1","Training","Stims/Figures/74-J-10-4.bmp","fashasha","Right","37","4","1","3A","C1","J","49"
"","","approach-retreat","53","463089","0.0-53.0","","","2-5","4362","38","1","Training","Stims/Figures/86-J-0-1.bmp","fashasha","Down","38","4","2","3A","C1","J","50"
"","","approach-retreat","54","468813","0.0-54.0","","","2-5","4215","37","1","Training","Stims/Figures/85-C-20-2.bmp","saha:za","Left","37","4","3","3A","C2","J","51"
"","","approach-retreat","55","474619","0.0-55.0","","","2-5","4295","38","1","Training","Stims/Figures/19-J-10-4.bmp","fashasha","Down","38","4","4","3A","C1","J","52"
"","","approach-retreat","56","480925","0.0-56.0","","","2-5","4796","39","1","Training","Stims/Figures/71-J-0-1.bmp","fashasha","Left","39","4","5","3A","C1","J","53"
"","","approach-retreat","57","486649","0.0-57.0","","","2-5","4213","37","1","Training","Stims/Figures/118-C-20-2.bmp","saha:za","Left","37","4","6","3A","C2","J","54"
"","","approach-retreat","58","492507","0.0-58.0","","","2-5","4347","38","1","Training","Stims/Figures/19-C-20-4.bmp","saha:za","Up","38","4","7","3A","C2","J","55"
"","","approach-retreat","59","498259","0.0-59.0","","","2-5","4242","40","1","Training","Stims/Figures/86-C-30-1.bmp","saha:za","Down","40","4","8","3A","C2","J","56"
"","","approach-retreat","60","504088","0.0-60.0","","","2-5","4320","38","1","Training","Stims/Figures/74-C-20-4.bmp","saha:za","Up","38","4","9","3A","C2","J","57"
"","","approach-retreat","61","509754","0.0-61.0","","","2-5","4157","40","1","Training","Stims/Figures/118-J-0-2.bmp","fashasha","Up","40","4","10","3A","C1","J","58"
"","","approach-retreat","62","516017","0.0-62.0","","","2-5","4752","37","1","Training","Stims/Figures/100-J-10-3.bmp","fashasha","Right","37","4","11","3A","C1","J","59"
"","","approach-retreat","63","521800","0.0-63.0","","","2-5","4275","40","1","Training","Stims/Figures/100-C-30-3.bmp","saha:za","Down","40","4","12","3A","C2","J","60"
"","","approach-retreat","64","528727","0.0-64.0","","","2-5","5416","39","1","Training","Stims/Figures/111-C-30-3.bmp","saha:za","Right","39","4","13","3A","C2","J","61"
"","","approach-retreat","65","535097","0.0-65.0","","","2-5","4860","40","1","Training","Stims/Figures/85-J-0-2.bmp","fashasha","Up","40","4","14","3A","C1","J","62"
"","","approach-retreat","66","541164","0.0-66.0","","","2-5","4557","37","1","Training","Stims/Figures/71-C-30-1.bmp","saha:za","Left","37","4","15","3A","C2","J","63"
"","","approach-retreat","67","548113","0.0-67.0","","","2-5","5437","37","1","Training","Stims/Figures/111-J-10-3.bmp","fashasha","Right","37","4","16","3A","C1","J","64"
"","","approach-retreat","68","555862","0.0-68.0","","","2-5","6238","38","1","Training","Stims/Figures/71-J-0-1.bmp","fashasha","Down","38","5","1","3A","C1","J","65"
"","","approach-retreat","69","562587","0.0-69.0","","","2-5","5214","38","1","Training","Stims/Figures/71-C-30-1.bmp","saha:za","Up","38","5","2","3A","C2","J","66"
"","","approach-retreat","70","568687","0.0-70.0","","","2-5","4590","39","1","Training","Stims/Figures/86-C-30-1.bmp","saha:za","Right","39","5","3","3A","C2","J","67"
"","","approach-retreat","71","574834","0.0-71.0","","","2-5","4638","38","1","Training","Stims/Figures/85-C-20-2.bmp","saha:za","Up","38","5","4","3A","C2","J","68"
"","","approach-retreat","72","580764","0.0-72.0","","","2-5","4420","40","1","Training","Stims/Figures/100-J-10-3.bmp","fashasha","Up","40","5","5","3A","C1","J","69"
"","","approach-retreat","73","586562","0.0-73.0","","","2-5","4289","39","1","Training","Stims/Figures/118-J-0-2.bmp","fashasha","Left","39","5","6","3A","C1","J","70"
"","","approach-retreat","74","592530","0.0-74.0","","","2-5","4458","39","1","Training","Stims/Figures/74-C-20-4.bmp","saha:za","Right","39","5","7","3A","C2","J","71"
"","","approach-retreat","75","598555","0.0-75.0","","","2-5","4513","39","1","Training","Stims/Figures/19-J-10-4.bmp","fashasha","Left","39","5","8","3A","C1","J","72"
"","","approach-retreat","76","604707","0.0-76.0","","","2-5","4642","38","1","Training","Stims/Figures/86-J-0-1.bmp","fashasha","Down","38","5","9","3A","C1","J","73"
"","","approach-retreat","77","610612","0.0-77.0","","","2-5","4393","37","1","Training","Stims/Figures/118-C-20-2.bmp","saha:za","Left","37","5","10","3A","C2","J","74"
"","","approach-retreat","78","616589","0.0-78.0","","","2-5","4467","40","1","Training","Stims/Figures/111-C-30-3.bmp","saha:za","Down","40","5","11","3A","C2","J","75"
"","","approach-retreat","79","622717","0.0-79.0","","","2-5","4617","37","1","Training","Stims/Figures/111-J-10-3.bmp","fashasha","Right","37","5","12","3A","C1","J","76"
"","","approach-retreat","80","629418","0.0-80.0","","","2-5","5190","37","1","Training","Stims/Figures/74-J-10-4.bmp","fashasha","Right","37","5","13","3A","C1","J","77"
"","","approach-retreat","81","635297","0.0-81.0","","","2-5","4369","40","1","Training","Stims/Figures/19-C-20-4.bmp","saha:za","Down","40","5","14","3A","C2","J","78"
"","","approach-retreat","82","641679","0.0-82.0","","","2-5","4873","38","1","Training","Stims/Figures/100-C-30-3.bmp","saha:za","Up","38","5","15","3A","C2","J","79"
"","","approach-retreat","83","647888","0.0-83.0","","","2-5","4698","39","1","Training","Stims/Figures/85-J-0-2.bmp","fashasha","Left","39","5","16","3A","C1","J","80"
"","","approach-retreat","84","654092","0.0-84.0","","","2-5","4695","38","1","Training","Stims/Figures/19-C-20-4.bmp","saha:za","Up","38","6","1","3A","C2","J","81"
"","","approach-retreat","85","659934","0.0-85.0","","","2-5","4333","39","1","Training","Stims/Figures/118-C-20-2.bmp","saha:za","Right","39","6","2","3A","C2","J","82"
"","","approach-retreat","86","665953","0.0-86.0","","","2-5","4509","38","1","Training","Stims/Figures/111-J-10-3.bmp","fashasha","Down","38","6","3","3A","C1","J","83"
"","","approach-retreat","87","671816","0.0-87.0","","","2-5","4353","39","1","Training","Stims/Figures/86-C-30-1.bmp","saha:za","Right","39","6","4","3A","C2","J","84"
"","","approach-retreat","88","677664","0.0-88.0","","","2-5","4336","40","1","Training","Stims/Figures/19-J-10-4.bmp","fashasha","Up","40","6","5","3A","C1","J","85"
"","","approach-retreat","89","684000","0.0-89.0","","","2-5","4827","38","1","Training","Stims/Figures/85-J-0-2.bmp","fashasha","Down","38","6","6","3A","C1","J","86"
"","","approach-retreat","90","690001","0.0-90.0","","","2-5","4490","39","1","Training","Stims/Figures/100-J-10-3.bmp","fashasha","Left","39","6","7","3A","C1","J","87"
"","","approach-retreat","91","696450","0.0-91.0","","","2-5","4939","37","1","Training","Stims/Figures/100-C-30-3.bmp","saha:za","Left","37","6","8","3A","C2","J","88"
"","","approach-retreat","92","702781","0.0-92.0","","","2-5","4820","40","1","Training","Stims/Figures/86-J-0-1.bmp","fashasha","Up","40","6","9","3A","C1","J","89"
"","","approach-retreat","93","708918","0.0-93.0","","","2-5","4627","38","1","Training","Stims/Figures/74-J-10-4.bmp","fashasha","Down","38","6","10","3A","C1","J","90"
"","","approach-retreat","94","715037","0.0-94.0","","","2-5","4608","37","1","Training","Stims/Figures/74-C-20-4.bmp","saha:za","Left","37","6","11","3A","C2","J","91"
"","","approach-retreat","95","722133","0.0-95.0","","","2-5","5586","37","1","Training","Stims/Figures/71-C-30-1.bmp","saha:za","Left","37","6","12","3A","C2","J","92"
"","","approach-retreat","96","728296","0.0-96.0","","","2-5","4653","37","1","Training","Stims/Figures/118-J-0-2.bmp","fashasha","Right","37","6","13","3A","C1","J","93"
"","","approach-retreat","97","733974","0.0-97.0","","","2-5","4169","38","1","Training","Stims/Figures/111-C-30-3.bmp","saha:za","Up","38","6","14","3A","C2","J","94"
"","","approach-retreat","98","739929","0.0-98.0","","","2-5","4444","40","1","Training","Stims/Figures/85-C-20-2.bmp","saha:za","Down","40","6","15","3A","C2","J","95"
"","","approach-retreat","99","746068","0.0-99.0","","","2-5","4630","37","1","Training","Stims/Figures/71-J-0-1.bmp","fashasha","Right","37","6","16","3A","C1","J","96"
"","","approach-retreat","100","752038","0.0-100.0","","","2-5","4460","39","1","Training","Stims/Figures/71-C-30-1.bmp","saha:za","Right","39","7","1","3A","C2","J","97"
"","","approach-retreat","101","758183","0.0-101.0","","","2-5","4635","40","1","Training","Stims/Figures/118-C-20-2.bmp","saha:za","Down","40","7","2","3A","C2","J","98"
"","","approach-retreat","102","763903","0.0-102.0","","","2-5","4209","37","1","Training","Stims/Figures/19-J-10-4.bmp","fashasha","Right","37","7","3","3A","C1","J","99"
"","","approach-retreat","103","769479","0.0-103.0","","","2-5","4067","39","1","Training","Stims/Figures/100-J-10-3.bmp","fashasha","Left","39","7","4","3A","C1","J","100"
"","","approach-retreat","104","775106","0.0-104.0","","","2-5","4118","39","1","Training","Stims/Figures/85-J-0-2.bmp","fashasha","Left","39","7","5","3A","C1","J","101"
"","","approach-retreat","105","781108","0.0-105.0","","","2-5","4491","39","1","Training","Stims/Figures/74-C-20-4.bmp","saha:za","Right","39","7","6","3A","C2","J","102"
"","","approach-retreat","106","786857","0.0-106.0","","","2-5","4241","40","1","Training","Stims/Figures/19-C-20-4.bmp","saha:za","Down","40","7","7","3A","C2","J","103"
"","","approach-retreat","107","792490","0.0-107.0","","","2-5","4124","38","1","Training","Stims/Figures/74-J-10-4.bmp","fashasha","Down","38","7","8","3A","C1","J","104"
"","","approach-retreat","108","798564","0.0-108.0","","","2-5","4564","38","1","Training","Stims/Figures/111-C-30-3.bmp","saha:za","Up","38","7","9","3A","C2","J","105"
"","","approach-retreat","109","804390","0.0-109.0","","","2-5","4314","38","1","Training","Stims/Figures/85-C-20-2.bmp","saha:za","Up","38","7","10","3A","C2","J","106"
"","","approach-retreat","110","810463","0.0-110.0","","","2-5","4564","37","1","Training","Stims/Figures/86-C-30-1.bmp","saha:za","Left","37","7","11","3A","C2","J","107"
"","","approach-retreat","111","816278","0.0-111.0","","","2-5","4304","37","1","Training","Stims/Figures/111-J-10-3.bmp","fashasha","Right","37","7","12","3A","C1","J","108"
"","","approach-retreat","112","821932","0.0-112.0","","","2-5","4145","38","1","Training","Stims/Figures/86-J-0-1.bmp","fashasha","Down","38","7","13","3A","C1","J","109"
"","","approach-retreat","113","827802","0.0-113.0","","","2-5","4361","40","1","Training","Stims/Figures/71-J-0-1.bmp","fashasha","Up","40","7","14","3A","C1","J","110"
"","","approach-retreat","114","833369","0.0-114.0","","","2-5","4056","39","1","Training","Stims/Figures/118-J-0-2.bmp","fashasha","Left","39","7","15","3A","C1","J","111"
"","","approach-retreat","115","839061","0.0-115.0","","","2-5","4182","38","1","Training","Stims/Figures/100-C-30-3.bmp","saha:za","Up","38","7","16","3A","C2","J","112"
"","","approach-retreat","116","845319","0.0-116.0","","","2-5","4749","37","1","Training","Stims/Figures/85-J-0-2.bmp","fashasha","Right","37","8","1","3A","C1","J","113"
"","","approach-retreat","117","850947","0.0-117.0","","","2-5","4118","39","1","Training","Stims/Figures/111-J-10-3.bmp","fashasha","Left","39","8","2","3A","C1","J","114"
"","","approach-retreat","118","856469","0.0-118.0","","","2-5","4010","38","1","Training","Stims/Figures/118-C-20-2.bmp","saha:za","Up","38","8","3","3A","C2","J","115"
"","","approach-retreat","119","863203","0.0-119.0","","","2-5","5224","40","1","Training","Stims/Figures/118-J-0-2.bmp","fashasha","Up","40","8","4","3A","C1","J","116"
"","","approach-retreat","120","868853","0.0-120.0","","","2-5","4139","39","1","Training","Stims/Figures/85-C-20-2.bmp","saha:za","Right","39","8","5","3A","C2","J","117"
"","","approach-retreat","121","874482","0.0-121.0","","","2-5","4119","39","1","Training","Stims/Figures/19-C-20-4.bmp","saha:za","Right","39","8","6","3A","C2","J","118"
"","","approach-retreat","122","880337","0.0-122.0","","","2-5","4344","40","1","Training","Stims/Figures/86-C-30-1.bmp","saha:za","Down","40","8","7","3A","C2","J","119"
"","","approach-retreat","123","886061","0.0-123.0","","","2-5","4214","40","1","Training","Stims/Figures/74-C-20-4.bmp","saha:za","Down","40","8","8","3A","C2","J","120"
"","","approach-retreat","124","892106","0.0-124.0","","","2-5","4534","37","1","Training","Stims/Figures/71-J-0-1.bmp","fashasha","Right","37","8","9","3A","C1","J","121"
"","","approach-retreat","125","897722","0.0-125.0","","","2-5","4106","39","1","Training","Stims/Figures/86-J-0-1.bmp","fashasha","Left","39","8","10","3A","C1","J","122"
"","","approach-retreat","126","903607","0.0-126.0","","","2-5","4373","37","1","Training","Stims/Figures/111-C-30-3.bmp","saha:za","Left","37","8","11","3A","C2","J","123"
"","","approach-retreat","127","909806","0.0-127.0","","","2-5","4689","39","1","Training","Stims/Figures/100-J-10-3.bmp","fashasha","Left","39","8","12","3A","C1","J","124"
"","","approach-retreat","128","915710","0.0-128.0","","","2-5","4395","38","1","Training","Stims/Figures/74-J-10-4.bmp","fashasha","Down","38","8","13","3A","C1","J","125"
"","","approach-retreat","129","921495","0.0-129.0","","","2-5","4275","38","1","Training","Stims/Figures/19-J-10-4.bmp","fashasha","Down","38","8","14","3A","C1","J","126"
"","","approach-retreat","130","927238","0.0-130.0","","","2-5","4231","38","1","Training","Stims/Figures/100-C-30-3.bmp","saha:za","Up","38","8","15","3A","C2","J","127"
"","","approach-retreat","131","933476","0.0-131.0","","","2-5","4729","38","1","Training","Stims/Figures/71-C-30-1.bmp","saha:za","Up","38","8","16","3A","C2","J","128"
"","","approach-retreat","132","939374","0.0-132.0","","","2-5","4387","39","1","Training","Stims/Figures/85-J-0-2.bmp","fashasha","Left","39","9","1","3A","C1","J","129"
"","","approach-retreat","133","945330","0.0-133.0","","","2-5","4445","39","1","Training","Stims/Figures/111-C-30-3.bmp","saha:za","Right","39","9","2","3A","C2","J","130"
"","","approach-retreat","134","951033","0.0-134.0","","","2-5","4193","40","1","Training","Stims/Figures/100-C-30-3.bmp","saha:za","Down","40","9","3","3A","C2","J","131"
"","","approach-retreat","135","957009","0.0-135.0","","","2-5","4466","40","1","Training","Stims/Figures/74-J-10-4.bmp","fashasha","Up","40","9","4","3A","C1","J","132"
"","","approach-retreat","136","962851","0.0-136.0","","","2-5","4332","37","1","Training","Stims/Figures/71-J-0-1.bmp","fashasha","Right","37","9","5","3A","C1","J","133"
"","","approach-retreat","137","968457","0.0-137.0","","","2-5","4097","40","1","Training","Stims/Figures/100-J-10-3.bmp","fashasha","Up","40","9","6","3A","C1","J","134"
"","","approach-retreat","138","974060","0.0-138.0","","","2-5","4094","38","1","Training","Stims/Figures/74-C-20-4.bmp","saha:za","Up","38","9","7","3A","C2","J","135"
"","","approach-retreat","139","979627","0.0-139.0","","","2-5","4057","39","1","Training","Stims/Figures/118-C-20-2.bmp","saha:za","Right","39","9","8","3A","C2","J","136"
"","","approach-retreat","140","985324","0.0-140.0","","","2-5","4186","40","1","Training","Stims/Figures/86-C-30-1.bmp","saha:za","Down","40","9","9","3A","C2","J","137"
"","","approach-retreat","141","990850","0.0-141.0","","","2-5","4015","38","1","Training","Stims/Figures/86-J-0-1.bmp","fashasha","Down","38","9","10","3A","C1","J","138"
"","","approach-retreat","142","996399","0.0-142.0","","","2-5","4039","37","1","Training","Stims/Figures/111-J-10-3.bmp","fashasha","Right","37","9","11","3A","C1","J","139"
"","","approach-retreat","143","1002813","0.0-143.0","","","2-5","4903","40","1","Training","Stims/Figures/19-C-20-4.bmp","saha:za","Down","40","9","12","3A","C2","J","140"
"","","approach-retreat","144","1008403","0.0-144.0","","","2-5","4079","37","1","Training","Stims/Figures/85-C-20-2.bmp","saha:za","Left","37","9","13","3A","C2","J","141"
"","","approach-retreat","145","1013970","0.0-145.0","","","2-5","4056","39","1","Training","Stims/Figures/118-J-0-2.bmp","fashasha","Left","39","9","14","3A","C1","J","142"
"","","approach-retreat","146","1019470","0.0-146.0","","","2-5","3988","37","1","Training","Stims/Figures/71-C-30-1.bmp","saha:za","Left","37","9","15","3A","C2","J","143"
"","","approach-retreat","147","1024915","0.0-147.0","","","2-5","3937","40","1","Training","Stims/Figures/19-J-10-4.bmp","fashasha","Up","40","9","16","3A","C1","J","144"
"15485","","instructions","148","1040400","0.0-148.0","[{""page_index"":0,""viewing_time"":15484}]","","","","","","","","","","","","","","","",""
"","","approach-retreat","149","1048117","0.0-149.0","","","2-5","6209","38","0","Testing","Stims/Figures/87-J-10-4.bmp","fashasha","Up","40","1","1","3A","C1","J","1"
"","","approach-retreat","150","1055272","0.0-150.0","","","2-5","5645","37","0","Testing","Stims/Figures/118-C-20-2.bmp","saha:za","Right","39","1","2","3A","C2","J","2"
"","","approach-retreat","151","1061733","0.0-151.0","","","2-5","4954","37","0","Testing","Stims/Figures/27-J-0-1.bmp","fashasha","Left","39","1","3","3A","C1","J","3"
"","","approach-retreat","152","1068201","0.0-152.0","","","2-5","4959","37","0","Testing","Stims/Figures/71-J-0-1.bmp","fashasha","Left","39","1","4","3A","C1","J","4"
"","","approach-retreat","153","1074034","0.0-153.0","","","2-5","4325","38","1","Testing","Stims/Figures/100-J-10-3.bmp","fashasha","Down","38","1","5","3A","C1","J","5"
"","","approach-retreat","154","1081247","0.0-154.0","","","2-5","5704","40","0","Testing","Stims/Figures/118-J-0-2.bmp","fashasha","Down","38","1","6","3A","C1","J","6"
"","","approach-retreat","155","1087155","0.0-155.0","","","2-5","4399","37","0","Testing","Stims/Figures/100-C-30-3.bmp","saha:za","Right","39","1","7","3A","C2","J","7"
"","","approach-retreat","156","1093067","0.0-156.0","","","2-5","4404","39","1","Testing","Stims/Figures/128-C-30-3.bmp","saha:za","Right","39","1","8","3A","C2","J","8"
"","","approach-retreat","157","1098825","0.0-157.0","","","2-5","4249","37","1","Testing","Stims/Figures/87-C-20-4.bmp","saha:za","Left","37","1","9","3A","C2","J","9"
"","","approach-retreat","158","1104291","0.0-158.0","","","2-5","3956","40","1","Testing","Stims/Figures/111-J-10-3.bmp","fashasha","Up","40","1","10","3A","C1","J","10"
"","","approach-retreat","159","1110328","0.0-159.0","","","2-5","4528","40","1","Testing","Stims/Figures/128-J-10-3.bmp","fashasha","Up","40","1","11","3A","C1","J","11"
"","","approach-retreat","160","1115947","0.0-160.0","","","2-5","4110","39","0","Testing","Stims/Figures/85-J-0-2.bmp","fashasha","Right","37","1","12","3A","C1","J","12"
"","","approach-retreat","161","1121747","0.0-161.0","","","2-5","4291","37","1","Testing","Stims/Figures/86-C-30-1.bmp","saha:za","Left","37","1","13","3A","C2","J","13"
"","","approach-retreat","162","1127473","0.0-162.0","","","2-5","4218","40","0","Testing","Stims/Figures/86-J-0-1.bmp","fashasha","Down","38","1","14","3A","C1","J","14"
"","","approach-retreat","163","1133190","0.0-163.0","","","2-5","4209","39","0","Testing","Stims/Figures/85-C-20-2.bmp","saha:za","Left","37","1","15","3A","C2","J","15"
"","","approach-retreat","164","1138978","0.0-164.0","","","2-5","4280","39","0","Testing","Stims/Figures/71-C-30-1.bmp","saha:za","Left","37","1","16","3A","C2","J","16"
"","","approach-retreat","165","1144601","0.0-165.0","","","2-5","4113","39","0","Testing","Stims/Figures/19-J-10-4.bmp","fashasha","Right","37","1","17","3A","C1","J","17"
"","","approach-retreat","166","1150514","0.0-166.0","","","2-5","4405","40","1","Testing","Stims/Figures/84-J-0-2.bmp","fashasha","Up","40","1","18","3A","C1","J","18"
"","","approach-retreat","167","1156505","0.0-167.0","","","2-5","4476","37","0","Testing","Stims/Figures/84-C-20-2.bmp","saha:za","Right","39","1","19","3A","C2","J","19"
"","","approach-retreat","168","1162357","0.0-168.0","","","2-5","4343","38","0","Testing","Stims/Figures/74-J-10-4.bmp","fashasha","Up","40","1","20","3A","C1","J","20"
"","","approach-retreat","169","1168177","0.0-169.0","","","2-5","4312","40","0","Testing","Stims/Figures/111-C-30-3.bmp","saha:za","Up","38","1","21","3A","C2","J","21"
"","","approach-retreat","170","1174067","0.0-170.0","","","2-5","4383","38","0","Testing","Stims/Figures/74-C-20-4.bmp","saha:za","Down","40","1","22","3A","C2","J","22"
"","","approach-retreat","171","1179959","0.0-171.0","","","2-5","4383","40","1","Testing","Stims/Figures/27-C-30-1.bmp","saha:za","Down","40","1","23","3A","C2","J","23"
"","","approach-retreat","172","1185756","0.0-172.0","","","2-5","4288","38","0","Testing","Stims/Figures/19-C-20-4.bmp","saha:za","Down","40","1","24","3A","C2","J","24"
"","","approach-retreat","173","1191526","0.0-173.0","","","2-5","4263","40","0","Testing","Stims/Figures/74-C-20-4.bmp","saha:za","Up","38","2","1","3A","C2","J","25"
"","","approach-retreat","174","1197263","0.0-174.0","","","2-5","4228","37","0","Testing","Stims/Figures/87-J-10-4.bmp","fashasha","Left","39","2","2","3A","C1","J","26"
"","","approach-retreat","175","1202710","0.0-175.0","","","2-5","3938","39","1","Testing","Stims/Figures/128-C-30-3.bmp","saha:za","Right","39","2","3","3A","C2","J","27"
"","","approach-retreat","176","1208431","0.0-176.0","","","2-5","4212","39","0","Testing","Stims/Figures/84-J-0-2.bmp","fashasha","Right","37","2","4","3A","C1","J","28"
"","","approach-retreat","177","1214845","0.0-177.0","","","2-5","4905","37","0","Testing","Stims/Figures/71-J-0-1.bmp","fashasha","Left","39","2","5","3A","C1","J","29"
"","","approach-retreat","178","1220393","0.0-178.0","","","2-5","4039","40","0","Testing","Stims/Figures/71-C-30-1.bmp","saha:za","Up","38","2","6","3A","C2","J","30"
"","","approach-retreat","179","1226629","0.0-179.0","","","2-5","4729","40","0","Testing","Stims/Figures/27-J-0-1.bmp","fashasha","Down","38","2","7","3A","C1","J","31"
"","","approach-retreat","180","1234414","0.0-180.0","","","2-5","6277","39","1","Testing","Stims/Figures/100-C-30-3.bmp","saha:za","Right","39","2","8","3A","C2","J","32"
"","","approach-retreat","181","1241030","0.0-181.0","","","2-5","5107","40","0","Testing","Stims/Figures/74-J-10-4.bmp","fashasha","Down","38","2","9","3A","C1","J","33"
"","","approach-retreat","182","1248069","0.0-182.0","","","2-5","5530","40","1","Testing","Stims/Figures/111-C-30-3.bmp","saha:za","Down","40","2","10","3A","C2","J","34"
"","","approach-retreat","183","1253809","0.0-183.0","","","2-5","4233","37","1","Testing","Stims/Figures/111-J-10-3.bmp","fashasha","Right","37","2","11","3A","C1","J","35"
"","","approach-retreat","184","1259203","0.0-184.0","","","2-5","3885","39","0","Testing","Stims/Figures/118-J-0-2.bmp","fashasha","Right","37","2","12","3A","C1","J","36"
"","","approach-retreat","185","1265184","0.0-185.0","","","2-5","4474","40","1","Testing","Stims/Figures/86-C-30-1.bmp","saha:za","Down","40","2","13","3A","C2","J","37"
"","","approach-retreat","186","1270971","0.0-186.0","","","2-5","4278","39","1","Testing","Stims/Figures/19-J-10-4.bmp","fashasha","Left","39","2","14","3A","C1","J","38"
"","","approach-retreat","187","1276711","0.0-187.0","","","2-5","4231","38","0","Testing","Stims/Figures/19-C-20-4.bmp","saha:za","Down","40","2","15","3A","C2","J","39"
"","","approach-retreat","188","1282266","0.0-188.0","","","2-5","4048","38","0","Testing","Stims/Figures/128-J-10-3.bmp","fashasha","Up","40","2","16","3A","C1","J","40"
"","","approach-retreat","189","1288252","0.0-189.0","","","2-5","4478","38","0","Testing","Stims/Figures/85-J-0-2.bmp","fashasha","Up","40","2","17","3A","C1","J","41"
"","","approach-retreat","190","1294277","0.0-190.0","","","2-5","4517","38","1","Testing","Stims/Figures/27-C-30-1.bmp","saha:za","Up","38","2","18","3A","C2","J","42"
"","","approach-retreat","191","1301409","0.0-191.0","","","2-5","5623","37","1","Testing","Stims/Figures/118-C-20-2.bmp","saha:za","Left","37","2","19","3A","C2","J","43"
"","","approach-retreat","192","1307044","0.0-192.0","","","2-5","4126","38","1","Testing","Stims/Figures/87-C-20-4.bmp","saha:za","Up","38","2","20","3A","C2","J","44"
"","","approach-retreat","193","1312571","0.0-193.0","","","2-5","4019","39","1","Testing","Stims/Figures/100-J-10-3.bmp","fashasha","Left","39","2","21","3A","C1","J","45"
"","","approach-retreat","194","1318158","0.0-194.0","","","2-5","4079","39","0","Testing","Stims/Figures/86-J-0-1.bmp","fashasha","Right","37","2","22","3A","C1","J","46"
"","","approach-retreat","195","1324881","0.0-195.0","","","2-5","5216","39","0","Testing","Stims/Figures/85-C-20-2.bmp","saha:za","Left","37","2","23","3A","C2","J","47"
"","","approach-retreat","196","1330674","0.0-196.0","","","2-5","4285","38","0","Testing","Stims/Figures/84-C-20-2.bmp","saha:za","Down","40","2","24","3A","C2","J","48"
"","","approach-retreat","197","1336325","0.0-197.0","","","2-5","4141","37","1","Testing","Stims/Figures/85-C-20-2.bmp","saha:za","Left","37","3","1","3A","C2","J","49"
"","","approach-retreat","198","1341956","0.0-198.0","","","2-5","4123","37","1","Testing","Stims/Figures/19-J-10-4.bmp","fashasha","Right","37","3","2","3A","C1","J","50"
"","","approach-retreat","199","1348600","0.0-199.0","","","2-5","5137","39","0","Testing","Stims/Figures/86-C-30-1.bmp","saha:za","Left","37","3","3","3A","C2","J","51"
"","","approach-retreat","200","1355732","0.0-200.0","","","2-5","5624","38","0","Testing","Stims/Figures/85-J-0-2.bmp","fashasha","Up","40","3","4","3A","C1","J","52"
"","","approach-retreat","201","1361466","0.0-201.0","","","2-5","4227","39","1","Testing","Stims/Figures/87-C-20-4.bmp","saha:za","Right","39","3","5","3A","C2","J","53"
"","","approach-retreat","202","1367512","0.0-202.0","","","2-5","4536","38","1","Testing","Stims/Figures/84-C-20-2.bmp","saha:za","Up","38","3","6","3A","C2","J","54"
"","","approach-retreat","203","1375022","0.0-203.0","","","2-5","6002","37","1","Testing","Stims/Figures/27-C-30-1.bmp","saha:za","Left","37","3","7","3A","C2","J","55"
"","","approach-retreat","204","1380647","0.0-204.0","","","2-5","4117","38","0","Testing","Stims/Figures/86-J-0-1.bmp","fashasha","Up","40","3","8","3A","C1","J","56"
"","","approach-retreat","205","1386348","0.0-205.0","","","2-5","4194","39","1","Testing","Stims/Figures/111-J-10-3.bmp","fashasha","Left","39","3","9","3A","C1","J","57"
"","","approach-retreat","206","1393368","0.0-206.0","","","2-5","5511","38","0","Testing","Stims/Figures/111-C-30-3.bmp","saha:za","Down","40","3","10","3A","C2","J","58"
"","","approach-retreat","207","1399545","0.0-207.0","","","2-5","4670","39","0","Testing","Stims/Figures/118-J-0-2.bmp","fashasha","Right","37","3","11","3A","C1","J","59"
"","","approach-retreat","208","1405170","0.0-208.0","","","2-5","4117","40","0","Testing","Stims/Figures/84-J-0-2.bmp","fashasha","Down","38","3","12","3A","C1","J","60"
"","","approach-retreat","209","1411327","0.0-209.0","","","2-5","4649","38","0","Testing","Stims/Figures/128-J-10-3.bmp","fashasha","Up","40","3","13","3A","C1","J","61"
"","","approach-retreat","210","1416922","0.0-210.0","","","2-5","4087","38","0","Testing","Stims/Figures/128-C-30-3.bmp","saha:za","Down","40","3","14","3A","C2","J","62"
"","","approach-retreat","211","1424301","0.0-211.0","","","2-5","5870","38","0","Testing","Stims/Figures/27-J-0-1.bmp","fashasha","Up","40","3","15","3A","C1","J","63"
"","","approach-retreat","212","1432816","0.0-212.0","","","2-5","7007","39","0","Testing","Stims/Figures/74-J-10-4.bmp","fashasha","Right","37","3","16","3A","C1","J","64"
"","","approach-retreat","213","1438776","0.0-213.0","","","2-5","4452","39","1","Testing","Stims/Figures/71-C-30-1.bmp","saha:za","Right","39","3","17","3A","C2","J","65"
"","","approach-retreat","214","1444398","0.0-214.0","","","2-5","4114","37","0","Testing","Stims/Figures/118-C-20-2.bmp","saha:za","Right","39","3","18","3A","C2","J","66"
"","","approach-retreat","215","1451636","0.0-215.0","","","2-5","5730","39","0","Testing","Stims/Figures/19-C-20-4.bmp","saha:za","Left","37","3","19","3A","C2","J","67"
"","","approach-retreat","216","1458064","0.0-216.0","","","2-5","4919","38","1","Testing","Stims/Figures/100-J-10-3.bmp","fashasha","Down","38","3","20","3A","C1","J","68"
"","","approach-retreat","217","1464374","0.0-217.0","","","2-5","4803","37","0","Testing","Stims/Figures/71-J-0-1.bmp","fashasha","Left","39","3","21","3A","C1","J","69"
"","","approach-retreat","218","1475245","0.0-218.0","","","2-5","9362","38","0","Testing","Stims/Figures/87-J-10-4.bmp","fashasha","Up","40","3","22","3A","C1","J","70"
"","","approach-retreat","219","1483934","0.0-219.0","","","2-5","7181","40","1","Testing","Stims/Figures/74-C-20-4.bmp","saha:za","Down","40","3","23","3A","C2","J","71"
"","","approach-retreat","220","1489673","0.0-220.0","","","2-5","4232","40","1","Testing","Stims/Figures/100-C-30-3.bmp","saha:za","Down","40","3","24","3A","C2","J","72"
"","","approach-retreat","221","1495247","0.0-221.0","","","2-5","4065","40","0","Testing","Stims/Figures/71-C-30-1.bmp","saha:za","Up","38","4","1","3A","C2","J","73"
"","","approach-retreat","222","1501003","0.0-222.0","","","2-5","4248","37","0","Testing","Stims/Figures/111-C-30-3.bmp","saha:za","Right","39","4","2","3A","C2","J","74"
"","","approach-retreat","223","1508363","0.0-223.0","","","2-5","5851","40","0","Testing","Stims/Figures/84-J-0-2.bmp","fashasha","Down","38","4","3","3A","C1","J","75"
"","","approach-retreat","224","1515041","0.0-224.0","","","2-5","5170","40","0","Testing","Stims/Figures/85-J-0-2.bmp","fashasha","Down","38","4","4","3A","C1","J","76"
"","","approach-retreat","225","1521882","0.0-225.0","","","2-5","5334","37","1","Testing","Stims/Figures/111-J-10-3.bmp","fashasha","Right","37","4","5","3A","C1","J","77"
"","","approach-retreat","226","1527662","0.0-226.0","","","2-5","4271","39","0","Testing","Stims/Figures/100-C-30-3.bmp","saha:za","Left","37","4","6","3A","C2","J","78"
"","","approach-retreat","227","1533245","0.0-227.0","","","2-5","4075","37","1","Testing","Stims/Figures/87-C-20-4.bmp","saha:za","Left","37","4","7","3A","C2","J","79"
"","","approach-retreat","228","1543470","0.0-228.0","","","2-5","8717","37","0","Testing","Stims/Figures/19-C-20-4.bmp","saha:za","Right","39","4","8","3A","C2","J","80"
"","","approach-retreat","229","1549150","0.0-229.0","","","2-5","4172","37","0","Testing","Stims/Figures/86-J-0-1.bmp","fashasha","Left","39","4","9","3A","C1","J","81"
"","","approach-retreat","230","1555035","0.0-230.0","","","2-5","4378","37","0","Testing","Stims/Figures/85-C-20-2.bmp","saha:za","Right","39","4","10","3A","C2","J","82"
"","","approach-retreat","231","1561970","0.0-231.0","","","2-5","5427","38","0","Testing","Stims/Figures/86-C-30-1.bmp","saha:za","Down","40","4","11","3A","C2","J","83"
"","","approach-retreat","232","1567530","0.0-232.0","","","2-5","4052","38","0","Testing","Stims/Figures/118-J-0-2.bmp","fashasha","Up","40","4","12","3A","C1","J","84"
"","","approach-retreat","233","1574842","0.0-233.0","","","2-5","5803","37","0","Testing","Stims/Figures/27-J-0-1.bmp","fashasha","Left","39","4","13","3A","C1","J","85"
"","","approach-retreat","234","1588574","0.0-234.0","","","2-5","12224","37","0","Testing","Stims/Figures/74-J-10-4.bmp","fashasha","Left","39","4","14","3A","C1","J","86"
"","","approach-retreat","235","1599330","0.0-235.0","","","2-5","9248","40","0","Testing","Stims/Figures/118-C-20-2.bmp","saha:za","Up","38","4","15","3A","C2","J","87"
"","","approach-retreat","236","1610784","0.0-236.0","","","2-5","9945","39","0","Testing","Stims/Figures/27-C-30-1.bmp","saha:za","Left","37","4","16","3A","C2","J","88"
"","","approach-retreat","237","1622024","0.0-237.0","","","2-5","9734","40","0","Testing","Stims/Figures/128-C-30-3.bmp","saha:za","Up","38","4","17","3A","C2","J","89"
"","","approach-retreat","238","1627718","0.0-238.0","","","2-5","4185","40","1","Testing","Stims/Figures/74-C-20-4.bmp","saha:za","Down","40","4","18","3A","C2","J","90"
"","","approach-retreat","239","1633199","0.0-239.0","","","2-5","3973","39","0","Testing","Stims/Figures/71-J-0-1.bmp","fashasha","Right","37","4","19","3A","C1","J","91"
"","","approach-retreat","240","1638960","0.0-240.0","","","2-5","4254","39","0","Testing","Stims/Figures/100-J-10-3.bmp","fashasha","Right","37","4","20","3A","C1","J","92"
"","","approach-retreat","241","1644568","0.0-241.0","","","2-5","4101","40","1","Testing","Stims/Figures/19-J-10-4.bmp","fashasha","Up","40","4","21","3A","C1","J","93"
"","","approach-retreat","242","1650308","0.0-242.0","","","2-5","4231","40","0","Testing","Stims/Figures/84-C-20-2.bmp","saha:za","Up","38","4","22","3A","C2","J","94"
"","","approach-retreat","243","1656087","0.0-243.0","","","2-5","4270","40","0","Testing","Stims/Figures/87-J-10-4.bmp","fashasha","Down","38","4","23","3A","C1","J","95"
"","","approach-retreat","244","1662714","0.0-244.0","","","2-5","5118","40","0","Testing","Stims/Figures/128-J-10-3.bmp","fashasha","Down","38","4","24","3A","C1","J","96"
"424531","","survey-text","245","2087253","0.0-245.0","","{""Q0"":""0165/2018""}","","","","","","","","","","","","","","",""
