"rt","key_press","trial_type","trial_index","time_elapsed","internal_node_id","view_history","responses","Id","Rt","ResKeyCode","ResCorr","TrialType2","Image","Label","Location","CorrectResponse","Block","BlockTrial","Condition","LabelType","Subcondition","trialNum"
"47559","32","text","0","47565","0.0-0.0-0.0","","","","","","","","","","","","","","","","",""
"112346","","instructions","1","159915","0.0-1.0","[{""page_index"":0,""viewing_time"":112344}]","","","","","","","","","","","","","","","",""
"56891","","survey-multi-choice","2","216849","0.0-2.0","","{""Q0"":""Da"",""Q1"":""Da"",""Q2"":""Da"",""Q3"":""Da"",""Q4"":""Da"",""Q5"":""Da""}","","","","","","","","","","","","","","",""
"","","bio","3","240562","0.0-3.0","","{""age"":""22"",""gender"":""f"",""specify"":""""}","","","","","","","","","","","","","","",""
"","","approach-retreat","4","252147","0.0-4.0","","","1-1","10065","40","0","Training","Stims/Figures/87-C-20-4.bmp","ma:la:la","Up","38","1","1","1","S","J","1"
"","","approach-retreat","5","261410","0.0-5.0","","","1-1","7750","38","0","Training","Stims/Figures/87-J-10-4.bmp","papa:ta","Up","40","1","2","1","P","J","2"
"","","approach-retreat","6","269363","0.0-6.0","","","1-1","6440","37","1","Training","Stims/Figures/93-J-0-1.bmp","papa:ta","Right","37","1","3","1","P","J","3"
"","","approach-retreat","7","277487","0.0-7.0","","","1-1","6613","39","0","Training","Stims/Figures/57-C-30-1.bmp","ma:la:la","Left","37","1","4","1","S","J","4"
"","","approach-retreat","8","286212","0.0-8.0","","","1-1","7212","38","0","Training","Stims/Figures/44-C-30-3.bmp","ma:la:la","Down","40","1","5","1","S","J","5"
"","","approach-retreat","9","295118","0.0-9.0","","","1-1","7395","39","0","Training","Stims/Figures/128-J-10-3.bmp","papa:ta","Right","37","1","6","1","P","J","6"
"","","approach-retreat","10","303481","0.0-10.0","","","1-1","6851","39","1","Training","Stims/Figures/57-J-0-1.bmp","papa:ta","Left","39","1","7","1","P","J","7"
"","","approach-retreat","11","310133","0.0-11.0","","","1-1","5137","40","1","Training","Stims/Figures/7-J-10-4.bmp","papa:ta","Up","40","1","8","1","P","J","8"
"","","approach-retreat","12","317045","0.0-12.0","","","1-1","5399","37","0","Training","Stims/Figures/94-C-20-2.bmp","ma:la:la","Right","39","1","9","1","S","J","9"
"","","approach-retreat","13","324496","0.0-13.0","","","1-1","5938","39","1","Training","Stims/Figures/93-C-30-1.bmp","ma:la:la","Right","39","1","10","1","S","J","10"
"","","approach-retreat","14","333954","0.0-14.0","","","1-1","7946","39","0","Training","Stims/Figures/7-C-20-4.bmp","ma:la:la","Left","37","1","11","1","S","J","11"
"","","approach-retreat","15","340624","0.0-15.0","","","1-1","5158","40","0","Training","Stims/Figures/139-C-20-2.bmp","ma:la:la","Up","38","1","12","1","S","J","12"
"","","approach-retreat","16","347356","0.0-16.0","","","1-1","5220","38","1","Training","Stims/Figures/139-J-0-2.bmp","papa:ta","Down","38","1","13","1","P","J","13"
"","","approach-retreat","17","354277","0.0-17.0","","","1-1","5408","40","0","Training","Stims/Figures/94-J-0-2.bmp","papa:ta","Down","38","1","14","1","P","J","14"
"","","approach-retreat","18","360858","0.0-18.0","","","1-1","5076","38","0","Training","Stims/Figures/128-C-30-3.bmp","ma:la:la","Down","40","1","15","1","S","J","15"
"","","approach-retreat","19","367529","0.0-19.0","","","1-1","5161","39","1","Training","Stims/Figures/44-J-10-3.bmp","papa:ta","Left","39","1","16","1","P","J","16"
"","","approach-retreat","20","375783","0.0-20.0","","","1-1","6742","40","1","Training","Stims/Figures/128-C-30-3.bmp","ma:la:la","Down","40","2","1","1","S","J","17"
"","","approach-retreat","21","384199","0.0-21.0","","","1-1","6902","39","0","Training","Stims/Figures/7-J-10-4.bmp","papa:ta","Right","37","2","2","1","P","J","18"
"","","approach-retreat","22","391631","0.0-22.0","","","1-1","5921","40","0","Training","Stims/Figures/44-J-10-3.bmp","papa:ta","Down","38","2","3","1","P","J","19"
"","","approach-retreat","23","398161","0.0-23.0","","","1-1","5016","37","1","Training","Stims/Figures/7-C-20-4.bmp","ma:la:la","Left","37","2","4","1","S","J","20"
"","","approach-retreat","24","407728","0.0-24.0","","","1-1","8054","38","0","Training","Stims/Figures/94-J-0-2.bmp","papa:ta","Up","40","2","5","1","P","J","21"
"","","approach-retreat","25","414430","0.0-25.0","","","1-1","5190","37","0","Training","Stims/Figures/87-J-10-4.bmp","papa:ta","Left","39","2","6","1","P","J","22"
"","","approach-retreat","26","421953","0.0-26.0","","","1-1","6011","40","0","Training","Stims/Figures/93-C-30-1.bmp","ma:la:la","Up","38","2","7","1","S","J","23"
"","","approach-retreat","27","429526","0.0-27.0","","","1-1","6061","39","1","Training","Stims/Figures/139-J-0-2.bmp","papa:ta","Left","39","2","8","1","P","J","24"
"","","approach-retreat","28","436770","0.0-28.0","","","1-1","5732","40","1","Training","Stims/Figures/139-C-20-2.bmp","ma:la:la","Down","40","2","9","1","S","J","25"
"","","approach-retreat","29","445024","0.0-29.0","","","1-1","6743","39","0","Training","Stims/Figures/93-J-0-1.bmp","papa:ta","Right","37","2","10","1","P","J","26"
"","","approach-retreat","30","452236","0.0-30.0","","","1-1","5701","40","1","Training","Stims/Figures/44-C-30-3.bmp","ma:la:la","Down","40","2","11","1","S","J","27"
"","","approach-retreat","31","458697","0.0-31.0","","","1-1","4947","38","1","Training","Stims/Figures/57-C-30-1.bmp","ma:la:la","Up","38","2","12","1","S","J","28"
"","","approach-retreat","32","465328","0.0-32.0","","","1-1","5120","37","1","Training","Stims/Figures/94-C-20-2.bmp","ma:la:la","Left","37","2","13","1","S","J","29"
"","","approach-retreat","33","472509","0.0-33.0","","","1-1","5669","39","0","Training","Stims/Figures/57-J-0-1.bmp","papa:ta","Right","37","2","14","1","P","J","30"
"","","approach-retreat","34","479562","0.0-34.0","","","1-1","5541","40","0","Training","Stims/Figures/87-C-20-4.bmp","ma:la:la","Up","38","2","15","1","S","J","31"
"","","approach-retreat","35","487756","0.0-35.0","","","1-1","6681","37","1","Training","Stims/Figures/128-J-10-3.bmp","papa:ta","Right","37","2","16","1","P","J","32"
"","","approach-retreat","36","495660","0.0-36.0","","","1-1","6393","39","1","Training","Stims/Figures/128-J-10-3.bmp","papa:ta","Left","39","3","1","1","P","J","33"
"","","approach-retreat","37","502380","0.0-37.0","","","1-1","5208","40","1","Training","Stims/Figures/139-C-20-2.bmp","ma:la:la","Down","40","3","2","1","S","J","34"
"","","approach-retreat","38","509565","0.0-38.0","","","1-1","5671","39","1","Training","Stims/Figures/87-C-20-4.bmp","ma:la:la","Right","39","3","3","1","S","J","35"
"","","approach-retreat","39","516144","0.0-39.0","","","1-1","5067","37","0","Training","Stims/Figures/87-J-10-4.bmp","papa:ta","Left","39","3","4","1","P","J","36"
"","","approach-retreat","40","523747","0.0-40.0","","","1-1","6091","40","1","Training","Stims/Figures/94-J-0-2.bmp","papa:ta","Up","40","3","5","1","P","J","37"
"","","approach-retreat","41","534656","0.0-41.0","","","1-1","9397","39","1","Training","Stims/Figures/93-C-30-1.bmp","ma:la:la","Right","39","3","6","1","S","J","38"
"","","approach-retreat","42","541799","0.0-42.0","","","1-1","5630","38","0","Training","Stims/Figures/139-J-0-2.bmp","papa:ta","Up","40","3","7","1","P","J","39"
"","","approach-retreat","43","548690","0.0-43.0","","","1-1","5380","38","1","Training","Stims/Figures/7-J-10-4.bmp","papa:ta","Down","38","3","8","1","P","J","40"
"","","approach-retreat","44","555672","0.0-44.0","","","1-1","5469","38","0","Training","Stims/Figures/44-C-30-3.bmp","ma:la:la","Down","40","3","9","1","S","J","41"
"","","approach-retreat","45","562153","0.0-45.0","","","1-1","4968","38","1","Training","Stims/Figures/57-C-30-1.bmp","ma:la:la","Up","38","3","10","1","S","J","42"
"","","approach-retreat","46","569155","0.0-46.0","","","1-1","5488","39","1","Training","Stims/Figures/44-J-10-3.bmp","papa:ta","Left","39","3","11","1","P","J","43"
"","","approach-retreat","47","576558","0.0-47.0","","","1-1","5891","40","1","Training","Stims/Figures/94-C-20-2.bmp","ma:la:la","Down","40","3","12","1","S","J","44"
"","","approach-retreat","48","583358","0.0-48.0","","","1-1","5289","37","1","Training","Stims/Figures/7-C-20-4.bmp","ma:la:la","Left","37","3","13","1","S","J","45"
"","","approach-retreat","49","590872","0.0-49.0","","","1-1","6002","39","0","Training","Stims/Figures/93-J-0-1.bmp","papa:ta","Right","37","3","14","1","P","J","46"
"","","approach-retreat","50","599125","0.0-50.0","","","1-1","6740","39","0","Training","Stims/Figures/57-J-0-1.bmp","papa:ta","Right","37","3","15","1","P","J","47"
"","","approach-retreat","51","606127","0.0-51.0","","","1-1","5491","38","1","Training","Stims/Figures/128-C-30-3.bmp","ma:la:la","Up","38","3","16","1","S","J","48"
"","","approach-retreat","52","613529","0.0-52.0","","","1-1","5891","40","0","Training","Stims/Figures/93-C-30-1.bmp","ma:la:la","Up","38","4","1","1","S","J","49"
"","","approach-retreat","53","621353","0.0-53.0","","","1-1","6305","37","1","Training","Stims/Figures/87-J-10-4.bmp","papa:ta","Right","37","4","2","1","P","J","50"
"","","approach-retreat","54","629837","0.0-54.0","","","1-1","6972","37","0","Training","Stims/Figures/44-J-10-3.bmp","papa:ta","Left","39","4","3","1","P","J","51"
"","","approach-retreat","55","636258","0.0-55.0","","","1-1","4909","38","0","Training","Stims/Figures/139-C-20-2.bmp","ma:la:la","Down","40","4","4","1","S","J","52"
"","","approach-retreat","56","642519","0.0-56.0","","","1-1","4748","38","0","Training","Stims/Figures/94-J-0-2.bmp","papa:ta","Up","40","4","5","1","P","J","53"
"","","approach-retreat","57","649841","0.0-57.0","","","1-1","5811","37","0","Training","Stims/Figures/94-C-20-2.bmp","ma:la:la","Right","39","4","6","1","S","J","54"
"","","approach-retreat","58","655922","0.0-58.0","","","1-1","4569","39","0","Training","Stims/Figures/93-J-0-1.bmp","papa:ta","Right","37","4","7","1","P","J","55"
"","","approach-retreat","59","663656","0.0-59.0","","","1-1","6223","37","0","Training","Stims/Figures/7-J-10-4.bmp","papa:ta","Left","39","4","8","1","P","J","56"
"","","approach-retreat","60","670386","0.0-60.0","","","1-1","5218","40","0","Training","Stims/Figures/57-J-0-1.bmp","papa:ta","Down","38","4","9","1","P","J","57"
"","","approach-retreat","61","678881","0.0-61.0","","","1-1","6982","38","1","Training","Stims/Figures/57-C-30-1.bmp","ma:la:la","Up","38","4","10","1","S","J","58"
"","","approach-retreat","62","686994","0.0-62.0","","","1-1","6601","40","1","Training","Stims/Figures/7-C-20-4.bmp","ma:la:la","Down","40","4","11","1","S","J","59"
"","","approach-retreat","63","693647","0.0-63.0","","","1-1","5139","39","0","Training","Stims/Figures/128-C-30-3.bmp","ma:la:la","Left","37","4","12","1","S","J","60"
"","","approach-retreat","64","703532","0.0-64.0","","","1-1","8373","40","0","Training","Stims/Figures/44-C-30-3.bmp","ma:la:la","Up","38","4","13","1","S","J","61"
"","","approach-retreat","65","710364","0.0-65.0","","","1-1","5321","39","1","Training","Stims/Figures/87-C-20-4.bmp","ma:la:la","Right","39","4","14","1","S","J","62"
"","","approach-retreat","66","717646","0.0-66.0","","","1-1","5769","38","1","Training","Stims/Figures/128-J-10-3.bmp","papa:ta","Down","38","4","15","1","P","J","63"
"","","approach-retreat","67","725900","0.0-67.0","","","1-1","6743","39","1","Training","Stims/Figures/139-J-0-2.bmp","papa:ta","Left","39","4","16","1","P","J","64"
"","","approach-retreat","68","735280","0.0-68.0","","","1-1","7869","40","0","Training","Stims/Figures/87-J-10-4.bmp","papa:ta","Down","38","5","1","1","P","J","65"
"","","approach-retreat","69","744142","0.0-69.0","","","1-1","7350","37","1","Training","Stims/Figures/94-J-0-2.bmp","papa:ta","Right","37","5","2","1","P","J","66"
"","","approach-retreat","70","750822","0.0-70.0","","","1-1","5169","39","1","Training","Stims/Figures/139-C-20-2.bmp","ma:la:la","Right","39","5","3","1","S","J","67"
"","","approach-retreat","71","759497","0.0-71.0","","","1-1","7163","40","1","Training","Stims/Figures/44-C-30-3.bmp","ma:la:la","Down","40","5","4","1","S","J","68"
"","","approach-retreat","72","769143","0.0-72.0","","","1-1","8134","38","1","Training","Stims/Figures/7-C-20-4.bmp","ma:la:la","Up","38","5","5","1","S","J","69"
"","","approach-retreat","73","777940","0.0-73.0","","","1-1","7283","40","1","Training","Stims/Figures/94-C-20-2.bmp","ma:la:la","Down","40","5","6","1","S","J","70"
"","","approach-retreat","74","786163","0.0-74.0","","","1-1","6710","37","1","Training","Stims/Figures/57-C-30-1.bmp","ma:la:la","Left","37","5","7","1","S","J","71"
"","","approach-retreat","75","794618","0.0-75.0","","","1-1","6944","40","1","Training","Stims/Figures/44-J-10-3.bmp","papa:ta","Up","40","5","8","1","P","J","72"
"","","approach-retreat","76","802301","0.0-76.0","","","1-1","6171","39","1","Training","Stims/Figures/128-J-10-3.bmp","papa:ta","Left","39","5","9","1","P","J","73"
"","","approach-retreat","77","812078","0.0-77.0","","","1-1","8265","39","0","Training","Stims/Figures/139-J-0-2.bmp","papa:ta","Right","37","5","10","1","P","J","74"
"","","approach-retreat","78","824268","0.0-78.0","","","1-1","10677","38","0","Training","Stims/Figures/57-J-0-1.bmp","papa:ta","Up","40","5","11","1","P","J","75"
"","","approach-retreat","79","831059","0.0-79.0","","","1-1","5280","40","0","Training","Stims/Figures/128-C-30-3.bmp","ma:la:la","Up","38","5","12","1","S","J","76"
"","","approach-retreat","80","838091","0.0-80.0","","","1-1","5517","37","1","Training","Stims/Figures/7-J-10-4.bmp","papa:ta","Right","37","5","13","1","P","J","77"
"","","approach-retreat","81","847997","0.0-81.0","","","1-1","8393","37","1","Training","Stims/Figures/87-C-20-4.bmp","ma:la:la","Left","37","5","14","1","S","J","78"
"","","approach-retreat","82","854850","0.0-82.0","","","1-1","5340","39","1","Training","Stims/Figures/93-J-0-1.bmp","papa:ta","Left","39","5","15","1","P","J","79"
"","","approach-retreat","83","863894","0.0-83.0","","","1-1","7533","40","1","Training","Stims/Figures/93-C-30-1.bmp","ma:la:la","Down","40","5","16","1","S","J","80"
"","","approach-retreat","84","871548","0.0-84.0","","","1-1","6141","39","1","Training","Stims/Figures/93-C-30-1.bmp","ma:la:la","Right","39","6","1","1","S","J","81"
"","","approach-retreat","85","879441","0.0-85.0","","","1-1","6382","37","1","Training","Stims/Figures/44-J-10-3.bmp","papa:ta","Right","37","6","2","1","P","J","82"
"","","approach-retreat","86","887565","0.0-86.0","","","1-1","6614","40","1","Training","Stims/Figures/57-J-0-1.bmp","papa:ta","Up","40","6","3","1","P","J","83"
"","","approach-retreat","87","896129","0.0-87.0","","","1-1","7051","40","1","Training","Stims/Figures/139-C-20-2.bmp","ma:la:la","Down","40","6","4","1","S","J","84"
"","","approach-retreat","88","903693","0.0-88.0","","","1-1","6053","40","1","Training","Stims/Figures/7-J-10-4.bmp","papa:ta","Up","40","6","5","1","P","J","85"
"","","approach-retreat","89","912138","0.0-89.0","","","1-1","6934","39","0","Training","Stims/Figures/44-C-30-3.bmp","ma:la:la","Left","37","6","6","1","S","J","86"
"","","approach-retreat","90","919089","0.0-90.0","","","1-1","5440","40","1","Training","Stims/Figures/87-J-10-4.bmp","papa:ta","Up","40","6","7","1","P","J","87"
"","","approach-retreat","91","926521","0.0-91.0","","","1-1","5923","37","0","Training","Stims/Figures/93-J-0-1.bmp","papa:ta","Left","39","6","8","1","P","J","88"
"","","approach-retreat","92","934535","0.0-92.0","","","1-1","6500","38","1","Training","Stims/Figures/87-C-20-4.bmp","ma:la:la","Up","38","6","9","1","S","J","89"
"","","approach-retreat","93","942368","0.0-93.0","","","1-1","6322","40","1","Training","Stims/Figures/57-C-30-1.bmp","ma:la:la","Down","40","6","10","1","S","J","90"
"","","approach-retreat","94","949390","0.0-94.0","","","1-1","5511","40","1","Training","Stims/Figures/7-C-20-4.bmp","ma:la:la","Down","40","6","11","1","S","J","91"
"","","approach-retreat","95","955510","0.0-95.0","","","1-1","4608","40","1","Training","Stims/Figures/94-C-20-2.bmp","ma:la:la","Down","40","6","12","1","S","J","92"
"","","approach-retreat","96","962424","0.0-96.0","","","1-1","5403","39","0","Training","Stims/Figures/94-J-0-2.bmp","papa:ta","Right","37","6","13","1","P","J","93"
"","","approach-retreat","97","969929","0.0-97.0","","","1-1","5989","37","0","Training","Stims/Figures/128-J-10-3.bmp","papa:ta","Left","39","6","14","1","P","J","94"
"","","approach-retreat","98","976446","0.0-98.0","","","1-1","5006","39","0","Training","Stims/Figures/139-J-0-2.bmp","papa:ta","Right","37","6","15","1","P","J","95"
"","","approach-retreat","99","983739","0.0-99.0","","","1-1","5781","39","0","Training","Stims/Figures/128-C-30-3.bmp","ma:la:la","Left","37","6","16","1","S","J","96"
"","","approach-retreat","100","993155","0.0-100.0","","","1-1","7906","40","0","Training","Stims/Figures/57-J-0-1.bmp","papa:ta","Down","38","7","1","1","P","J","97"
"","","approach-retreat","101","999786","0.0-101.0","","","1-1","5119","40","0","Training","Stims/Figures/87-C-20-4.bmp","ma:la:la","Up","38","7","2","1","S","J","98"
"","","approach-retreat","102","1007310","0.0-102.0","","","1-1","6011","39","1","Training","Stims/Figures/87-J-10-4.bmp","papa:ta","Left","39","7","3","1","P","J","99"
"","","approach-retreat","103","1018749","0.0-103.0","","","1-1","9929","37","1","Training","Stims/Figures/128-J-10-3.bmp","papa:ta","Right","37","7","4","1","P","J","100"
"","","approach-retreat","104","1025279","0.0-104.0","","","1-1","5018","39","1","Training","Stims/Figures/44-J-10-3.bmp","papa:ta","Left","39","7","5","1","P","J","101"
"","","approach-retreat","105","1033745","0.0-105.0","","","1-1","6955","38","1","Training","Stims/Figures/93-C-30-1.bmp","ma:la:la","Up","38","7","6","1","S","J","102"
"","","approach-retreat","106","1039813","0.0-106.0","","","1-1","4555","38","1","Training","Stims/Figures/44-C-30-3.bmp","ma:la:la","Up","38","7","7","1","S","J","103"
"","","approach-retreat","107","1047598","0.0-107.0","","","1-1","6273","37","1","Training","Stims/Figures/139-J-0-2.bmp","papa:ta","Right","37","7","8","1","P","J","104"
"","","approach-retreat","108","1053407","0.0-108.0","","","1-1","4295","38","1","Training","Stims/Figures/94-C-20-2.bmp","ma:la:la","Up","38","7","9","1","S","J","105"
"","","approach-retreat","109","1059538","0.0-109.0","","","1-1","4618","37","1","Training","Stims/Figures/7-J-10-4.bmp","papa:ta","Right","37","7","10","1","P","J","106"
"","","approach-retreat","110","1065729","0.0-110.0","","","1-1","4674","39","0","Training","Stims/Figures/7-C-20-4.bmp","ma:la:la","Left","37","7","11","1","S","J","107"
"","","approach-retreat","111","1071337","0.0-111.0","","","1-1","4096","37","1","Training","Stims/Figures/128-C-30-3.bmp","ma:la:la","Left","37","7","12","1","S","J","108"
"","","approach-retreat","112","1078208","0.0-112.0","","","1-1","5358","39","0","Training","Stims/Figures/94-J-0-2.bmp","papa:ta","Right","37","7","13","1","P","J","109"
"","","approach-retreat","113","1084662","0.0-113.0","","","1-1","4942","38","0","Training","Stims/Figures/57-C-30-1.bmp","ma:la:la","Down","40","7","14","1","S","J","110"
"","","approach-retreat","114","1091323","0.0-114.0","","","1-1","5149","38","1","Training","Stims/Figures/93-J-0-1.bmp","papa:ta","Down","38","7","15","1","P","J","111"
"","","approach-retreat","115","1098534","0.0-115.0","","","1-1","5701","40","1","Training","Stims/Figures/139-C-20-2.bmp","ma:la:la","Down","40","7","16","1","S","J","112"
"","","approach-retreat","116","1105146","0.0-116.0","","","1-1","5100","39","1","Training","Stims/Figures/87-J-10-4.bmp","papa:ta","Left","39","8","1","1","P","J","113"
"","","approach-retreat","117","1111456","0.0-117.0","","","1-1","4801","37","1","Training","Stims/Figures/57-C-30-1.bmp","ma:la:la","Left","37","8","2","1","S","J","114"
"","","approach-retreat","118","1117757","0.0-118.0","","","1-1","4789","39","1","Training","Stims/Figures/57-J-0-1.bmp","papa:ta","Left","39","8","3","1","P","J","115"
"","","approach-retreat","119","1126472","0.0-119.0","","","1-1","7204","40","0","Training","Stims/Figures/93-C-30-1.bmp","ma:la:la","Up","38","8","4","1","S","J","116"
"","","approach-retreat","120","1133524","0.0-120.0","","","1-1","5541","37","0","Training","Stims/Figures/94-C-20-2.bmp","ma:la:la","Right","39","8","5","1","S","J","117"
"","","approach-retreat","121","1139694","0.0-121.0","","","1-1","4660","39","1","Training","Stims/Figures/44-C-30-3.bmp","ma:la:la","Right","39","8","6","1","S","J","118"
"","","approach-retreat","122","1146114","0.0-122.0","","","1-1","4907","37","1","Training","Stims/Figures/44-J-10-3.bmp","papa:ta","Right","37","8","7","1","P","J","119"
"","","approach-retreat","123","1152888","0.0-123.0","","","1-1","5263","40","0","Training","Stims/Figures/128-J-10-3.bmp","papa:ta","Down","38","8","8","1","P","J","120"
"","","approach-retreat","124","1159437","0.0-124.0","","","1-1","5039","38","0","Training","Stims/Figures/139-J-0-2.bmp","papa:ta","Up","40","8","9","1","P","J","121"
"","","approach-retreat","125","1166138","0.0-125.0","","","1-1","5191","39","0","Training","Stims/Figures/94-J-0-2.bmp","papa:ta","Right","37","8","10","1","P","J","122"
"","","approach-retreat","126","1173050","0.0-126.0","","","1-1","5399","40","1","Training","Stims/Figures/128-C-30-3.bmp","ma:la:la","Down","40","8","11","1","S","J","123"
"","","approach-retreat","127","1179912","0.0-127.0","","","1-1","5350","37","1","Training","Stims/Figures/7-C-20-4.bmp","ma:la:la","Left","37","8","12","1","S","J","124"
"","","approach-retreat","128","1187235","0.0-128.0","","","1-1","5811","38","1","Training","Stims/Figures/7-J-10-4.bmp","papa:ta","Down","38","8","13","1","P","J","125"
"","","approach-retreat","129","1193645","0.0-129.0","","","1-1","4900","40","1","Training","Stims/Figures/93-J-0-1.bmp","papa:ta","Up","40","8","14","1","P","J","126"
"","","approach-retreat","130","1199967","0.0-130.0","","","1-1","4807","38","0","Training","Stims/Figures/87-C-20-4.bmp","ma:la:la","Down","40","8","15","1","S","J","127"
"","","approach-retreat","131","1205827","0.0-131.0","","","1-1","4348","40","0","Training","Stims/Figures/139-C-20-2.bmp","ma:la:la","Up","38","8","16","1","S","J","128"
"","","approach-retreat","132","1212387","0.0-132.0","","","1-1","5049","37","1","Training","Stims/Figures/139-J-0-2.bmp","papa:ta","Right","37","9","1","1","P","J","129"
"","","approach-retreat","133","1219519","0.0-133.0","","","1-1","5620","38","1","Training","Stims/Figures/44-J-10-3.bmp","papa:ta","Down","38","9","2","1","P","J","130"
"","","approach-retreat","134","1226060","0.0-134.0","","","1-1","5029","37","0","Training","Stims/Figures/7-J-10-4.bmp","papa:ta","Left","39","9","3","1","P","J","131"
"","","approach-retreat","135","1232212","0.0-135.0","","","1-1","4639","39","1","Training","Stims/Figures/94-C-20-2.bmp","ma:la:la","Right","39","9","4","1","S","J","132"
"","","approach-retreat","136","1238742","0.0-136.0","","","1-1","5019","38","0","Training","Stims/Figures/87-J-10-4.bmp","papa:ta","Up","40","9","5","1","P","J","133"
"","","approach-retreat","137","1245834","0.0-137.0","","","1-1","5580","40","0","Training","Stims/Figures/139-C-20-2.bmp","ma:la:la","Up","38","9","6","1","S","J","134"
"","","approach-retreat","138","1252336","0.0-138.0","","","1-1","4991","37","0","Training","Stims/Figures/94-J-0-2.bmp","papa:ta","Left","39","9","7","1","P","J","135"
"","","approach-retreat","139","1259248","0.0-139.0","","","1-1","5401","38","1","Training","Stims/Figures/57-J-0-1.bmp","papa:ta","Down","38","9","8","1","P","J","136"
"","","approach-retreat","140","1265738","0.0-140.0","","","1-1","4978","40","0","Training","Stims/Figures/44-C-30-3.bmp","ma:la:la","Up","38","9","9","1","S","J","137"
"","","approach-retreat","141","1272118","0.0-141.0","","","1-1","4870","38","1","Training","Stims/Figures/93-J-0-1.bmp","papa:ta","Down","38","9","10","1","P","J","138"
"","","approach-retreat","142","1278271","0.0-142.0","","","1-1","4646","39","1","Training","Stims/Figures/7-C-20-4.bmp","ma:la:la","Right","39","9","11","1","S","J","139"
"","","approach-retreat","143","1285751","0.0-143.0","","","1-1","5967","39","0","Training","Stims/Figures/57-C-30-1.bmp","ma:la:la","Left","37","9","12","1","S","J","140"
"","","approach-retreat","144","1292683","0.0-144.0","","","1-1","5419","38","1","Training","Stims/Figures/128-C-30-3.bmp","ma:la:la","Up","38","9","13","1","S","J","141"
"","","approach-retreat","145","1300136","0.0-145.0","","","1-1","5943","40","1","Training","Stims/Figures/87-C-20-4.bmp","ma:la:la","Down","40","9","14","1","S","J","142"
"","","approach-retreat","146","1308941","0.0-146.0","","","1-1","7292","37","1","Training","Stims/Figures/93-C-30-1.bmp","ma:la:la","Left","37","9","15","1","S","J","143"
"","","approach-retreat","147","1315012","0.0-147.0","","","1-1","4560","37","1","Training","Stims/Figures/128-J-10-3.bmp","papa:ta","Right","37","9","16","1","P","J","144"
"55100","","instructions","148","1370113","0.0-148.0","[{""page_index"":0,""viewing_time"":55100}]","","","","","","","","","","","","","","","",""
"","","approach-retreat","149","1378950","0.0-149.0","","","1-1","7329","38","1","Testing","Stims/Figures/44-C-30-3.bmp","ma:la:la","Up","38","1","1","1","S","J","1"
"","","approach-retreat","150","1387265","0.0-150.0","","","1-1","6806","40","1","Testing","Stims/Figures/87-C-20-4.bmp","ma:la:la","Down","40","1","2","1","S","J","2"
"","","approach-retreat","151","1395267","0.0-151.0","","","1-1","6492","39","0","Testing","Stims/Figures/7-J-10-4.bmp","papa:ta","Right","37","1","3","1","P","J","3"
"","","approach-retreat","152","1406809","0.0-152.0","","","1-1","10032","39","1","Testing","Stims/Figures/139-J-0-2.bmp","papa:ta","Left","39","1","4","1","P","J","4"
"","","approach-retreat","153","1415193","0.0-153.0","","","1-1","6875","38","1","Testing","Stims/Figures/84-C-20-2.bmp","ma:la:la","Up","38","1","5","1","S","J","5"
"","","approach-retreat","154","1425801","0.0-154.0","","","1-1","9098","40","1","Testing","Stims/Figures/74-C-20-4.bmp","ma:la:la","Down","40","1","6","1","S","J","6"
"","","approach-retreat","155","1432501","0.0-155.0","","","1-1","5191","38","0","Testing","Stims/Figures/71-C-30-1.bmp","ma:la:la","Down","40","1","7","1","S","J","7"
"","","approach-retreat","156","1440286","0.0-156.0","","","1-1","6272","39","1","Testing","Stims/Figures/71-J-0-1.bmp","papa:ta","Left","39","1","8","1","P","J","8"
"","","approach-retreat","157","1449660","0.0-157.0","","","1-1","7864","38","1","Testing","Stims/Figures/57-C-30-1.bmp","ma:la:la","Up","38","1","9","1","S","J","9"
"","","approach-retreat","158","1458855","0.0-158.0","","","1-1","7685","40","0","Testing","Stims/Figures/128-J-10-3.bmp","papa:ta","Down","38","1","10","1","P","J","10"
"","","approach-retreat","159","1467080","0.0-159.0","","","1-1","6716","39","1","Testing","Stims/Figures/94-C-20-2.bmp","ma:la:la","Right","39","1","11","1","S","J","11"
"","","approach-retreat","160","1474254","0.0-160.0","","","1-1","5663","37","0","Testing","Stims/Figures/144-C-30-3.bmp","ma:la:la","Right","39","1","12","1","S","J","12"
"","","approach-retreat","161","1482296","0.0-161.0","","","1-1","6531","38","0","Testing","Stims/Figures/93-C-30-1.bmp","ma:la:la","Down","40","1","13","1","S","J","13"
"","","approach-retreat","162","1498705","0.0-162.0","","","1-1","14900","37","0","Testing","Stims/Figures/93-J-0-1.bmp","papa:ta","Left","39","1","14","1","P","J","14"
"","","approach-retreat","163","1507378","0.0-163.0","","","1-1","7164","39","1","Testing","Stims/Figures/84-J-0-2.bmp","papa:ta","Left","39","1","15","1","P","J","15"
"","","approach-retreat","164","1516022","0.0-164.0","","","1-1","7134","39","0","Testing","Stims/Figures/139-C-20-2.bmp","ma:la:la","Left","37","1","16","1","S","J","16"
"","","approach-retreat","165","1523657","0.0-165.0","","","1-1","6121","39","1","Testing","Stims/Figures/7-C-20-4.bmp","ma:la:la","Right","39","1","17","1","S","J","17"
"","","approach-retreat","166","1530370","0.0-166.0","","","1-1","5203","40","1","Testing","Stims/Figures/87-J-10-4.bmp","papa:ta","Up","40","1","18","1","P","J","18"
"","","approach-retreat","167","1538091","0.0-167.0","","","1-1","6204","39","0","Testing","Stims/Figures/74-J-10-4.bmp","papa:ta","Right","37","1","19","1","P","J","19"
"","","approach-retreat","168","1550125","0.0-168.0","","","1-1","10525","40","1","Testing","Stims/Figures/94-J-0-2.bmp","papa:ta","Up","40","1","20","1","P","J","20"
"","","approach-retreat","169","1558917","0.0-169.0","","","1-1","7283","38","0","Testing","Stims/Figures/57-J-0-1.bmp","papa:ta","Up","40","1","21","1","P","J","21"
"","","approach-retreat","170","1568333","0.0-170.0","","","1-1","7905","40","0","Testing","Stims/Figures/144-J-10-3.bmp","papa:ta","Down","38","1","22","1","P","J","22"
"","","approach-retreat","171","1576096","0.0-171.0","","","1-1","6254","37","1","Testing","Stims/Figures/44-J-10-3.bmp","papa:ta","Right","37","1","23","1","P","J","23"
"","","approach-retreat","172","1582848","0.0-172.0","","","1-1","5243","37","1","Testing","Stims/Figures/128-C-30-3.bmp","ma:la:la","Left","37","1","24","1","S","J","24"
"","","approach-retreat","173","1589688","0.0-173.0","","","1-1","5332","39","0","Testing","Stims/Figures/44-C-30-3.bmp","ma:la:la","Left","37","2","1","1","S","J","25"
"","","approach-retreat","174","1596379","0.0-174.0","","","1-1","5182","37","1","Testing","Stims/Figures/57-J-0-1.bmp","papa:ta","Right","37","2","2","1","P","J","26"
"","","approach-retreat","175","1602528","0.0-175.0","","","1-1","4640","39","1","Testing","Stims/Figures/93-C-30-1.bmp","ma:la:la","Right","39","2","3","1","S","J","27"
"","","approach-retreat","176","1610345","0.0-176.0","","","1-1","6307","38","1","Testing","Stims/Figures/139-C-20-2.bmp","ma:la:la","Up","38","2","4","1","S","J","28"
"","","approach-retreat","177","1619859","0.0-177.0","","","1-1","8007","39","1","Testing","Stims/Figures/144-J-10-3.bmp","papa:ta","Left","39","2","5","1","P","J","29"
"","","approach-retreat","178","1626882","0.0-178.0","","","1-1","5513","39","1","Testing","Stims/Figures/84-C-20-2.bmp","ma:la:la","Right","39","2","6","1","S","J","30"
"","","approach-retreat","179","1634133","0.0-179.0","","","1-1","5742","38","0","Testing","Stims/Figures/128-C-30-3.bmp","ma:la:la","Down","40","2","7","1","S","J","31"
"","","approach-retreat","180","1641839","0.0-180.0","","","1-1","6197","40","1","Testing","Stims/Figures/87-C-20-4.bmp","ma:la:la","Down","40","2","8","1","S","J","32"
"","","approach-retreat","181","1648539","0.0-181.0","","","1-1","5191","38","1","Testing","Stims/Figures/7-C-20-4.bmp","ma:la:la","Up","38","2","9","1","S","J","33"
"","","approach-retreat","182","1655550","0.0-182.0","","","1-1","5502","40","1","Testing","Stims/Figures/93-J-0-1.bmp","papa:ta","Up","40","2","10","1","P","J","34"
"","","approach-retreat","183","1663463","0.0-183.0","","","1-1","6404","39","0","Testing","Stims/Figures/74-J-10-4.bmp","papa:ta","Right","37","2","11","1","P","J","35"
"","","approach-retreat","184","1670597","0.0-184.0","","","1-1","5625","39","1","Testing","Stims/Figures/139-J-0-2.bmp","papa:ta","Left","39","2","12","1","P","J","36"
"","","approach-retreat","185","1679571","0.0-185.0","","","1-1","7466","38","1","Testing","Stims/Figures/94-J-0-2.bmp","papa:ta","Down","38","2","13","1","P","J","37"
"","","approach-retreat","186","1686532","0.0-186.0","","","1-1","5451","39","0","Testing","Stims/Figures/57-C-30-1.bmp","ma:la:la","Left","37","2","14","1","S","J","38"
"","","approach-retreat","187","1694717","0.0-187.0","","","1-1","6677","37","0","Testing","Stims/Figures/84-J-0-2.bmp","papa:ta","Left","39","2","15","1","P","J","39"
"","","approach-retreat","188","1701439","0.0-188.0","","","1-1","5212","37","0","Testing","Stims/Figures/74-C-20-4.bmp","ma:la:la","Right","39","2","16","1","S","J","40"
"","","approach-retreat","189","1708148","0.0-189.0","","","1-1","5200","38","1","Testing","Stims/Figures/71-C-30-1.bmp","ma:la:la","Up","38","2","17","1","S","J","41"
"","","approach-retreat","190","1714952","0.0-190.0","","","1-1","5295","39","0","Testing","Stims/Figures/71-J-0-1.bmp","papa:ta","Right","37","2","18","1","P","J","42"
"","","approach-retreat","191","1723036","0.0-191.0","","","1-1","6573","38","1","Testing","Stims/Figures/7-J-10-4.bmp","papa:ta","Down","38","2","19","1","P","J","43"
"","","approach-retreat","192","1730712","0.0-192.0","","","1-1","6167","38","0","Testing","Stims/Figures/94-C-20-2.bmp","ma:la:la","Down","40","2","20","1","S","J","44"
"","","approach-retreat","193","1742520","0.0-193.0","","","1-1","10300","38","0","Testing","Stims/Figures/44-J-10-3.bmp","papa:ta","Up","40","2","21","1","P","J","45"
"","","approach-retreat","194","1751094","0.0-194.0","","","1-1","7064","40","1","Testing","Stims/Figures/144-C-30-3.bmp","ma:la:la","Down","40","2","22","1","S","J","46"
"","","approach-retreat","195","1757527","0.0-195.0","","","1-1","4924","40","1","Testing","Stims/Figures/128-J-10-3.bmp","papa:ta","Up","40","2","23","1","P","J","47"
"","","approach-retreat","196","1763707","0.0-196.0","","","1-1","4671","39","1","Testing","Stims/Figures/87-J-10-4.bmp","papa:ta","Left","39","2","24","1","P","J","48"
"","","approach-retreat","197","1771129","0.0-197.0","","","1-1","5912","37","0","Testing","Stims/Figures/144-C-30-3.bmp","ma:la:la","Right","39","3","1","1","S","J","49"
"","","approach-retreat","198","1781138","0.0-198.0","","","1-1","8499","39","0","Testing","Stims/Figures/139-C-20-2.bmp","ma:la:la","Left","37","3","2","1","S","J","50"
"","","approach-retreat","199","1793076","0.0-199.0","","","1-1","10428","40","0","Testing","Stims/Figures/128-J-10-3.bmp","papa:ta","Down","38","3","3","1","P","J","51"
"","","approach-retreat","200","1804606","0.0-200.0","","","1-1","10019","40","0","Testing","Stims/Figures/93-C-30-1.bmp","ma:la:la","Up","38","3","4","1","S","J","52"
"","","approach-retreat","201","1811365","0.0-201.0","","","1-1","5251","38","0","Testing","Stims/Figures/94-C-20-2.bmp","ma:la:la","Down","40","3","5","1","S","J","53"
"","","approach-retreat","202","1820314","0.0-202.0","","","1-1","7439","40","0","Testing","Stims/Figures/84-J-0-2.bmp","papa:ta","Down","38","3","6","1","P","J","54"
"","","approach-retreat","203","1827374","0.0-203.0","","","1-1","5551","39","0","Testing","Stims/Figures/57-C-30-1.bmp","ma:la:la","Left","37","3","7","1","S","J","55"
"","","approach-retreat","204","1835879","0.0-204.0","","","1-1","6997","40","0","Testing","Stims/Figures/57-J-0-1.bmp","papa:ta","Down","38","3","8","1","P","J","56"
"","","approach-retreat","205","1842329","0.0-205.0","","","1-1","4940","38","0","Testing","Stims/Figures/128-C-30-3.bmp","ma:la:la","Down","40","3","9","1","S","J","57"
"","","approach-retreat","206","1848439","0.0-206.0","","","1-1","4602","40","0","Testing","Stims/Figures/139-J-0-2.bmp","papa:ta","Down","38","3","10","1","P","J","58"
"","","approach-retreat","207","1854842","0.0-207.0","","","1-1","4893","38","0","Testing","Stims/Figures/71-J-0-1.bmp","papa:ta","Up","40","3","11","1","P","J","59"
"","","approach-retreat","208","1861801","0.0-208.0","","","1-1","5450","37","0","Testing","Stims/Figures/74-C-20-4.bmp","ma:la:la","Right","39","3","12","1","S","J","60"
"","","approach-retreat","209","1869315","0.0-209.0","","","1-1","6004","37","1","Testing","Stims/Figures/87-J-10-4.bmp","papa:ta","Right","37","3","13","1","P","J","61"
"","","approach-retreat","210","1875876","0.0-210.0","","","1-1","5052","39","0","Testing","Stims/Figures/71-C-30-1.bmp","ma:la:la","Left","37","3","14","1","S","J","62"
"","","approach-retreat","211","1882036","0.0-211.0","","","1-1","4651","37","0","Testing","Stims/Figures/7-J-10-4.bmp","papa:ta","Left","39","3","15","1","P","J","63"
"","","approach-retreat","212","1890984","0.0-212.0","","","1-1","7438","39","0","Testing","Stims/Figures/7-C-20-4.bmp","ma:la:la","Left","37","3","16","1","S","J","64"
"","","approach-retreat","213","1899006","0.0-213.0","","","1-1","6512","40","0","Testing","Stims/Figures/84-C-20-2.bmp","ma:la:la","Up","38","3","17","1","S","J","65"
"","","approach-retreat","214","1906250","0.0-214.0","","","1-1","5736","37","1","Testing","Stims/Figures/74-J-10-4.bmp","papa:ta","Right","37","3","18","1","P","J","66"
"","","approach-retreat","215","1914052","0.0-215.0","","","1-1","6293","39","0","Testing","Stims/Figures/144-J-10-3.bmp","papa:ta","Right","37","3","19","1","P","J","67"
"","","approach-retreat","216","1921656","0.0-216.0","","","1-1","6095","39","0","Testing","Stims/Figures/93-J-0-1.bmp","papa:ta","Right","37","3","20","1","P","J","68"
"","","approach-retreat","217","1928816","0.0-217.0","","","1-1","5650","40","1","Testing","Stims/Figures/44-J-10-3.bmp","papa:ta","Up","40","3","21","1","P","J","69"
"","","approach-retreat","218","1935088","0.0-218.0","","","1-1","4764","40","0","Testing","Stims/Figures/44-C-30-3.bmp","ma:la:la","Up","38","3","22","1","S","J","70"
"","","approach-retreat","219","1947107","0.0-219.0","","","1-1","10511","37","1","Testing","Stims/Figures/87-C-20-4.bmp","ma:la:la","Left","37","3","23","1","S","J","71"
"","","approach-retreat","220","1955442","0.0-220.0","","","1-1","6825","40","1","Testing","Stims/Figures/94-J-0-2.bmp","papa:ta","Up","40","3","24","1","P","J","72"
"","","approach-retreat","221","1963464","0.0-221.0","","","1-1","6512","40","0","Testing","Stims/Figures/44-C-30-3.bmp","ma:la:la","Up","38","4","1","1","S","J","73"
"","","approach-retreat","222","1971269","0.0-222.0","","","1-1","6296","40","1","Testing","Stims/Figures/87-C-20-4.bmp","ma:la:la","Down","40","4","2","1","S","J","74"
"","","approach-retreat","223","1978623","0.0-223.0","","","1-1","5844","38","1","Testing","Stims/Figures/139-C-20-2.bmp","ma:la:la","Up","38","4","3","1","S","J","75"
"","","approach-retreat","224","1987477","0.0-224.0","","","1-1","7345","38","1","Testing","Stims/Figures/44-J-10-3.bmp","papa:ta","Down","38","4","4","1","P","J","76"
"","","approach-retreat","225","1994568","0.0-225.0","","","1-1","5581","37","1","Testing","Stims/Figures/94-C-20-2.bmp","ma:la:la","Left","37","4","5","1","S","J","77"
"","","approach-retreat","226","2002112","0.0-226.0","","","1-1","6035","37","0","Testing","Stims/Figures/93-J-0-1.bmp","papa:ta","Left","39","4","6","1","P","J","78"
"","","approach-retreat","227","2012131","0.0-227.0","","","1-1","8508","38","0","Testing","Stims/Figures/87-J-10-4.bmp","papa:ta","Up","40","4","7","1","P","J","79"
"","","approach-retreat","228","2023929","0.0-228.0","","","1-1","10289","39","0","Testing","Stims/Figures/84-J-0-2.bmp","papa:ta","Right","37","4","8","1","P","J","80"
"","","approach-retreat","229","2030470","0.0-229.0","","","1-1","5032","37","0","Testing","Stims/Figures/144-C-30-3.bmp","ma:la:la","Right","39","4","9","1","S","J","81"
"","","approach-retreat","230","2038113","0.0-230.0","","","1-1","6134","40","0","Testing","Stims/Figures/128-C-30-3.bmp","ma:la:la","Up","38","4","10","1","S","J","82"
"","","approach-retreat","231","2046197","0.0-231.0","","","1-1","6574","37","0","Testing","Stims/Figures/74-J-10-4.bmp","papa:ta","Left","39","4","11","1","P","J","83"
"","","approach-retreat","232","2052900","0.0-232.0","","","1-1","5192","37","1","Testing","Stims/Figures/57-J-0-1.bmp","papa:ta","Right","37","4","12","1","P","J","84"
"","","approach-retreat","233","2059198","0.0-233.0","","","1-1","4788","39","0","Testing","Stims/Figures/71-J-0-1.bmp","papa:ta","Right","37","4","13","1","P","J","85"
"","","approach-retreat","234","2066061","0.0-234.0","","","1-1","5355","37","0","Testing","Stims/Figures/57-C-30-1.bmp","ma:la:la","Right","39","4","14","1","S","J","86"
"","","approach-retreat","235","2073412","0.0-235.0","","","1-1","5842","37","1","Testing","Stims/Figures/128-J-10-3.bmp","papa:ta","Right","37","4","15","1","P","J","87"
"","","approach-retreat","236","2081197","0.0-236.0","","","1-1","6276","39","0","Testing","Stims/Figures/71-C-30-1.bmp","ma:la:la","Left","37","4","16","1","S","J","88"
"","","approach-retreat","237","2088590","0.0-237.0","","","1-1","5884","39","0","Testing","Stims/Figures/7-C-20-4.bmp","ma:la:la","Left","37","4","17","1","S","J","89"
"","","approach-retreat","238","2096863","0.0-238.0","","","1-1","6764","38","0","Testing","Stims/Figures/84-C-20-2.bmp","ma:la:la","Down","40","4","18","1","S","J","90"
"","","approach-retreat","239","2105669","0.0-239.0","","","1-1","7297","38","1","Testing","Stims/Figures/94-J-0-2.bmp","papa:ta","Down","38","4","19","1","P","J","91"
"","","approach-retreat","240","2115274","0.0-240.0","","","1-1","8097","40","1","Testing","Stims/Figures/93-C-30-1.bmp","ma:la:la","Down","40","4","20","1","S","J","92"
"","","approach-retreat","241","2122988","0.0-241.0","","","1-1","6203","38","0","Testing","Stims/Figures/7-J-10-4.bmp","papa:ta","Up","40","4","21","1","P","J","93"
"","","approach-retreat","242","2130862","0.0-242.0","","","1-1","6366","40","0","Testing","Stims/Figures/74-C-20-4.bmp","ma:la:la","Up","38","4","22","1","S","J","94"
"","","approach-retreat","243","2139767","0.0-243.0","","","1-1","7397","40","0","Testing","Stims/Figures/139-J-0-2.bmp","papa:ta","Down","38","4","23","1","P","J","95"
"","","approach-retreat","244","2147882","0.0-244.0","","","1-1","6605","39","1","Testing","Stims/Figures/144-J-10-3.bmp","papa:ta","Left","39","4","24","1","P","J","96"
"90419","","survey-text","245","2238309","0.0-245.0","","{""Q0"":""0059/2018""}","","","","","","","","","","","","","","",""
