"rt","key_press","trial_type","trial_index","time_elapsed","internal_node_id","view_history","responses","Id","Rt","ResKeyCode","ResCorr","TrialType2","Image","Label","Location","CorrectResponse","Block","BlockTrial","Condition","LabelType","Subcondition","trialNum"
"4718","32","text","0","4726","0.0-0.0-0.0","","","","","","","","","","","","","","","","",""
"71549","","instructions","1","76283","0.0-1.0","[{""page_index"":0,""viewing_time"":71547}]","","","","","","","","","","","","","","","",""
"30134","","survey-multi-choice","2","106513","0.0-2.0","","{""Q0"":""Da"",""Q1"":""Ne"",""Q2"":""Ne"",""Q3"":""Da"",""Q4"":""Da"",""Q5"":""Da""}","","","","","","","","","","","","","","",""
"","","bio","3","116096","0.0-3.0","","{""age"":""19"",""gender"":""f"",""specify"":""""}","","","","","","","","","","","","","","",""
"","","approach-retreat","4","131670","0.0-4.0","","","1-5","13973","37","0","Training","Stims/Figures/139-C-20-2.bmp","vasha:sha","Left","39","1","1","6B","C1","C","1"
"","","approach-retreat","5","141162","0.0-5.0","","","1-5","7968","37","0","Training","Stims/Figures/27-J-0-1.bmp","saha:za","Right","39","1","2","6B","C2","C","2"
"","","approach-retreat","6","151584","0.0-6.0","","","1-5","8903","38","0","Training","Stims/Figures/7-C-20-4.bmp","va:fa:sha","Up","40","1","3","6B","C1","C","3"
"","","approach-retreat","7","158283","0.0-7.0","","","1-5","5176","38","1","Training","Stims/Figures/144-J-10-3.bmp","za:haha","Up","38","1","4","6B","C2","C","4"
"","","approach-retreat","8","165909","0.0-8.0","","","1-5","6105","37","0","Training","Stims/Figures/57-C-30-1.bmp","vafa:sha","Left","39","1","5","6B","C1","C","5"
"","","approach-retreat","9","174167","0.0-9.0","","","1-5","6736","37","1","Training","Stims/Figures/27-C-30-1.bmp","fafava","Right","37","1","6","6B","C1","C","6"
"","","approach-retreat","10","180689","0.0-10.0","","","1-5","5003","40","0","Training","Stims/Figures/74-C-20-4.bmp","vashasha","Down","38","1","7","6B","C1","C","7"
"","","approach-retreat","11","189559","0.0-11.0","","","1-5","7345","38","0","Training","Stims/Figures/85-J-0-2.bmp","zaha:za","Down","40","1","8","6B","C2","C","8"
"","","approach-retreat","12","197410","0.0-12.0","","","1-5","6328","40","1","Training","Stims/Figures/111-J-10-3.bmp","za:sa:ha","Down","40","1","9","6B","C2","C","9"
"","","approach-retreat","13","204627","0.0-13.0","","","1-5","5696","39","1","Training","Stims/Figures/7-J-10-4.bmp","za:haza","Right","39","1","10","6B","C2","C","10"
"","","approach-retreat","14","213132","0.0-14.0","","","1-5","6985","38","1","Training","Stims/Figures/57-J-0-1.bmp","zaha:ha","Up","38","1","11","6B","C2","C","11"
"","","approach-retreat","15","219414","0.0-15.0","","","1-5","4764","37","1","Training","Stims/Figures/139-J-0-2.bmp","saha:ha","Left","37","1","12","6B","C2","C","12"
"","","approach-retreat","16","225531","0.0-16.0","","","1-5","4597","37","0","Training","Stims/Figures/85-C-20-2.bmp","fa:shasha","Left","39","1","13","6B","C1","C","13"
"","","approach-retreat","17","231988","0.0-17.0","","","1-5","4937","39","1","Training","Stims/Figures/74-J-10-4.bmp","sa:sa:za","Right","39","1","14","6B","C2","C","14"
"","","approach-retreat","18","238342","0.0-18.0","","","1-5","4831","40","0","Training","Stims/Figures/144-C-30-3.bmp","va:fava","Down","38","1","15","6B","C1","C","15"
"","","approach-retreat","19","244749","0.0-19.0","","","1-5","4890","38","0","Training","Stims/Figures/111-C-30-3.bmp","va:sha:sha","Up","40","1","16","6B","C1","C","16"
"","","approach-retreat","20","250962","0.0-20.0","","","1-5","4688","38","0","Training","Stims/Figures/144-C-30-3.bmp","va:fava","Up","40","2","1","6B","C1","C","17"
"","","approach-retreat","21","257035","0.0-21.0","","","1-5","4552","38","1","Training","Stims/Figures/57-J-0-1.bmp","zaha:ha","Up","38","2","2","6B","C2","C","18"
"","","approach-retreat","22","263575","0.0-22.0","","","1-5","5014","37","1","Training","Stims/Figures/139-J-0-2.bmp","saha:ha","Left","37","2","3","6B","C2","C","19"
"","","approach-retreat","23","269755","0.0-23.0","","","1-5","4659","40","1","Training","Stims/Figures/7-J-10-4.bmp","za:haza","Down","40","2","4","6B","C2","C","20"
"","","approach-retreat","24","275846","0.0-24.0","","","1-5","4568","37","0","Training","Stims/Figures/7-C-20-4.bmp","va:fa:sha","Left","39","2","5","6B","C1","C","21"
"","","approach-retreat","25","282285","0.0-25.0","","","1-5","4916","39","0","Training","Stims/Figures/139-C-20-2.bmp","vasha:sha","Right","37","2","6","6B","C1","C","22"
"","","approach-retreat","26","288531","0.0-26.0","","","1-5","4725","40","0","Training","Stims/Figures/57-C-30-1.bmp","vafa:sha","Down","38","2","7","6B","C1","C","23"
"","","approach-retreat","27","294800","0.0-27.0","","","1-5","4751","39","1","Training","Stims/Figures/111-J-10-3.bmp","za:sa:ha","Right","39","2","8","6B","C2","C","24"
"","","approach-retreat","28","301111","0.0-28.0","","","1-5","4788","40","1","Training","Stims/Figures/111-C-30-3.bmp","va:sha:sha","Up","40","2","9","6B","C1","C","25"
"","","approach-retreat","29","307558","0.0-29.0","","","1-5","4925","37","0","Training","Stims/Figures/74-C-20-4.bmp","vashasha","Left","39","2","10","6B","C1","C","26"
"","","approach-retreat","30","313608","0.0-30.0","","","1-5","4529","37","0","Training","Stims/Figures/85-C-20-2.bmp","fa:shasha","Left","39","2","11","6B","C1","C","27"
"","","approach-retreat","31","320088","0.0-31.0","","","1-5","4957","39","1","Training","Stims/Figures/27-J-0-1.bmp","saha:za","Right","39","2","12","6B","C2","C","28"
"","","approach-retreat","32","325823","0.0-32.0","","","1-5","4213","39","1","Training","Stims/Figures/85-J-0-2.bmp","zaha:za","Right","39","2","13","6B","C2","C","29"
"","","approach-retreat","33","332824","0.0-33.0","","","1-5","5481","40","1","Training","Stims/Figures/27-C-30-1.bmp","fafava","Up","40","2","14","6B","C1","C","30"
"","","approach-retreat","34","339986","0.0-34.0","","","1-5","5641","40","1","Training","Stims/Figures/144-J-10-3.bmp","za:haha","Down","40","2","15","6B","C2","C","31"
"","","approach-retreat","35","345707","0.0-35.0","","","1-5","4198","40","1","Training","Stims/Figures/74-J-10-4.bmp","sa:sa:za","Down","40","2","16","6B","C2","C","32"
"","","approach-retreat","36","351625","0.0-36.0","","","1-5","4398","39","1","Training","Stims/Figures/144-J-10-3.bmp","za:haha","Right","39","3","1","6B","C2","C","33"
"","","approach-retreat","37","358335","0.0-37.0","","","1-5","5188","39","1","Training","Stims/Figures/111-C-30-3.bmp","va:sha:sha","Left","39","3","2","6B","C1","C","34"
"","","approach-retreat","38","364401","0.0-38.0","","","1-5","4540","40","1","Training","Stims/Figures/85-C-20-2.bmp","fa:shasha","Up","40","3","3","6B","C1","C","35"
"","","approach-retreat","39","371205","0.0-39.0","","","1-5","5278","39","1","Training","Stims/Figures/144-C-30-3.bmp","va:fava","Left","39","3","4","6B","C1","C","36"
"","","approach-retreat","40","377585","0.0-40.0","","","1-5","4859","39","1","Training","Stims/Figures/57-J-0-1.bmp","zaha:ha","Right","39","3","5","6B","C2","C","37"
"","","approach-retreat","41","384841","0.0-41.0","","","1-5","5732","37","1","Training","Stims/Figures/7-C-20-4.bmp","va:fa:sha","Right","37","3","6","6B","C1","C","38"
"","","approach-retreat","42","391448","0.0-42.0","","","1-5","5084","40","0","Training","Stims/Figures/139-C-20-2.bmp","vasha:sha","Down","38","3","7","6B","C1","C","39"
"","","approach-retreat","43","398411","0.0-43.0","","","1-5","5441","38","1","Training","Stims/Figures/85-J-0-2.bmp","zaha:za","Up","38","3","8","6B","C2","C","40"
"","","approach-retreat","44","404863","0.0-44.0","","","1-5","4931","40","1","Training","Stims/Figures/139-J-0-2.bmp","saha:ha","Down","40","3","9","6B","C2","C","41"
"","","approach-retreat","45","411166","0.0-45.0","","","1-5","4781","39","0","Training","Stims/Figures/74-C-20-4.bmp","vashasha","Right","37","3","10","6B","C1","C","42"
"","","approach-retreat","46","417401","0.0-46.0","","","1-5","4718","37","1","Training","Stims/Figures/7-J-10-4.bmp","za:haza","Left","37","3","11","6B","C2","C","43"
"","","approach-retreat","47","423449","0.0-47.0","","","1-5","4527","39","1","Training","Stims/Figures/27-C-30-1.bmp","fafava","Left","39","3","12","6B","C1","C","44"
"","","approach-retreat","48","431560","0.0-48.0","","","1-5","6585","40","0","Training","Stims/Figures/111-J-10-3.bmp","za:sa:ha","Up","38","3","13","6B","C2","C","45"
"","","approach-retreat","49","437852","0.0-49.0","","","1-5","4772","40","0","Training","Stims/Figures/27-J-0-1.bmp","saha:za","Up","38","3","14","6B","C2","C","46"
"","","approach-retreat","50","444225","0.0-50.0","","","1-5","4852","38","0","Training","Stims/Figures/74-J-10-4.bmp","sa:sa:za","Down","40","3","15","6B","C2","C","47"
"","","approach-retreat","51","450807","0.0-51.0","","","1-5","5062","38","1","Training","Stims/Figures/57-C-30-1.bmp","vafa:sha","Down","38","3","16","6B","C1","C","48"
"","","approach-retreat","52","458788","0.0-52.0","","","1-5","6456","40","1","Training","Stims/Figures/57-J-0-1.bmp","zaha:ha","Down","40","4","1","6B","C2","C","49"
"","","approach-retreat","53","467789","0.0-53.0","","","1-5","7478","37","1","Training","Stims/Figures/144-J-10-3.bmp","za:haha","Left","37","4","2","6B","C2","C","50"
"","","approach-retreat","54","474534","0.0-54.0","","","1-5","5221","40","1","Training","Stims/Figures/111-J-10-3.bmp","za:sa:ha","Down","40","4","3","6B","C2","C","51"
"","","approach-retreat","55","484665","0.0-55.0","","","1-5","8608","37","0","Training","Stims/Figures/74-J-10-4.bmp","sa:sa:za","Right","39","4","4","6B","C2","C","52"
"","","approach-retreat","56","495857","0.0-56.0","","","1-5","9671","39","1","Training","Stims/Figures/111-C-30-3.bmp","va:sha:sha","Left","39","4","5","6B","C1","C","53"
"","","approach-retreat","57","502396","0.0-57.0","","","1-5","5018","40","1","Training","Stims/Figures/27-J-0-1.bmp","saha:za","Down","40","4","6","6B","C2","C","54"
"","","approach-retreat","58","508146","0.0-58.0","","","1-5","4230","37","1","Training","Stims/Figures/74-C-20-4.bmp","vashasha","Right","37","4","7","6B","C1","C","55"
"","","approach-retreat","59","514214","0.0-59.0","","","1-5","4550","39","1","Training","Stims/Figures/139-C-20-2.bmp","vasha:sha","Left","39","4","8","6B","C1","C","56"
"","","approach-retreat","60","520878","0.0-60.0","","","1-5","5141","40","1","Training","Stims/Figures/27-C-30-1.bmp","fafava","Up","40","4","9","6B","C1","C","57"
"","","approach-retreat","61","527588","0.0-61.0","","","1-5","5185","39","1","Training","Stims/Figures/57-C-30-1.bmp","vafa:sha","Left","39","4","10","6B","C1","C","58"
"","","approach-retreat","62","533776","0.0-62.0","","","1-5","4663","38","1","Training","Stims/Figures/7-J-10-4.bmp","za:haza","Up","38","4","11","6B","C2","C","59"
"","","approach-retreat","63","540533","0.0-63.0","","","1-5","5238","38","1","Training","Stims/Figures/85-J-0-2.bmp","zaha:za","Up","38","4","12","6B","C2","C","60"
"","","approach-retreat","64","548531","0.0-64.0","","","1-5","6476","40","1","Training","Stims/Figures/85-C-20-2.bmp","fa:shasha","Up","40","4","13","6B","C1","C","61"
"","","approach-retreat","65","641165","0.0-65.0","","","1-5","91111","37","1","Training","Stims/Figures/144-C-30-3.bmp","va:fava","Right","37","4","14","6B","C1","C","62"
"","","approach-retreat","66","646854","0.0-66.0","","","1-5","4172","37","1","Training","Stims/Figures/7-C-20-4.bmp","va:fa:sha","Right","37","4","15","6B","C1","C","63"
"","","approach-retreat","67","653577","0.0-67.0","","","1-5","5200","40","1","Training","Stims/Figures/139-J-0-2.bmp","saha:ha","Down","40","4","16","6B","C2","C","64"
"","","approach-retreat","68","659750","0.0-68.0","","","1-5","4651","39","1","Training","Stims/Figures/85-J-0-2.bmp","zaha:za","Right","39","5","1","6B","C2","C","65"
"","","approach-retreat","69","665816","0.0-69.0","","","1-5","4547","39","1","Training","Stims/Figures/111-C-30-3.bmp","va:sha:sha","Left","39","5","2","6B","C1","C","66"
"","","approach-retreat","70","671805","0.0-70.0","","","1-5","4466","37","1","Training","Stims/Figures/144-J-10-3.bmp","za:haha","Left","37","5","3","6B","C2","C","67"
"","","approach-retreat","71","677640","0.0-71.0","","","1-5","4313","38","1","Training","Stims/Figures/85-C-20-2.bmp","fa:shasha","Down","38","5","4","6B","C1","C","68"
"","","approach-retreat","72","684245","0.0-72.0","","","1-5","5082","37","0","Training","Stims/Figures/74-J-10-4.bmp","sa:sa:za","Right","39","5","5","6B","C2","C","69"
"","","approach-retreat","73","690172","0.0-73.0","","","1-5","4407","37","1","Training","Stims/Figures/139-C-20-2.bmp","vasha:sha","Right","37","5","6","6B","C1","C","70"
"","","approach-retreat","74","696184","0.0-74.0","","","1-5","4490","40","1","Training","Stims/Figures/7-C-20-4.bmp","va:fa:sha","Up","40","5","7","6B","C1","C","71"
"","","approach-retreat","75","703244","0.0-75.0","","","1-5","5537","40","1","Training","Stims/Figures/27-C-30-1.bmp","fafava","Up","40","5","8","6B","C1","C","72"
"","","approach-retreat","76","709418","0.0-76.0","","","1-5","4654","40","1","Training","Stims/Figures/111-J-10-3.bmp","za:sa:ha","Down","40","5","9","6B","C2","C","73"
"","","approach-retreat","77","715809","0.0-77.0","","","1-5","4868","37","1","Training","Stims/Figures/74-C-20-4.bmp","vashasha","Right","37","5","10","6B","C1","C","74"
"","","approach-retreat","78","722400","0.0-78.0","","","1-5","5071","39","1","Training","Stims/Figures/57-C-30-1.bmp","vafa:sha","Left","39","5","11","6B","C1","C","75"
"","","approach-retreat","79","728295","0.0-79.0","","","1-5","4374","40","1","Training","Stims/Figures/7-J-10-4.bmp","za:haza","Down","40","5","12","6B","C2","C","76"
"","","approach-retreat","80","735031","0.0-80.0","","","1-5","5212","37","1","Training","Stims/Figures/139-J-0-2.bmp","saha:ha","Left","37","5","13","6B","C2","C","77"
"","","approach-retreat","81","741459","0.0-81.0","","","1-5","4906","38","1","Training","Stims/Figures/27-J-0-1.bmp","saha:za","Up","38","5","14","6B","C2","C","78"
"","","approach-retreat","82","747791","0.0-82.0","","","1-5","4810","38","1","Training","Stims/Figures/57-J-0-1.bmp","zaha:ha","Up","38","5","15","6B","C2","C","79"
"","","approach-retreat","83","754797","0.0-83.0","","","1-5","5483","40","0","Training","Stims/Figures/144-C-30-3.bmp","va:fava","Down","38","5","16","6B","C1","C","80"
"","","approach-retreat","84","761339","0.0-84.0","","","1-5","5018","38","0","Training","Stims/Figures/27-C-30-1.bmp","fafava","Up","40","6","1","6B","C1","C","81"
"","","approach-retreat","85","767450","0.0-85.0","","","1-5","4588","39","1","Training","Stims/Figures/27-J-0-1.bmp","saha:za","Right","39","6","2","6B","C2","C","82"
"","","approach-retreat","86","812013","0.0-86.0","","","1-5","43042","38","1","Training","Stims/Figures/57-J-0-1.bmp","zaha:ha","Up","38","6","3","6B","C2","C","83"
"","","approach-retreat","87","818085","0.0-87.0","","","1-5","4550","37","1","Training","Stims/Figures/144-J-10-3.bmp","za:haha","Left","37","6","4","6B","C2","C","84"
"","","approach-retreat","88","824305","0.0-88.0","","","1-5","4699","40","1","Training","Stims/Figures/144-C-30-3.bmp","va:fava","Up","40","6","5","6B","C1","C","85"
"","","approach-retreat","89","830490","0.0-89.0","","","1-5","4663","37","1","Training","Stims/Figures/7-J-10-4.bmp","za:haza","Left","37","6","6","6B","C2","C","86"
"","","approach-retreat","90","837457","0.0-90.0","","","1-5","5445","39","1","Training","Stims/Figures/85-C-20-2.bmp","fa:shasha","Left","39","6","7","6B","C1","C","87"
"","","approach-retreat","91","843378","0.0-91.0","","","1-5","4398","37","1","Training","Stims/Figures/74-C-20-4.bmp","vashasha","Right","37","6","8","6B","C1","C","88"
"","","approach-retreat","92","850198","0.0-92.0","","","1-5","5299","38","1","Training","Stims/Figures/139-C-20-2.bmp","vasha:sha","Down","38","6","9","6B","C1","C","89"
"","","approach-retreat","93","856732","0.0-93.0","","","1-5","5013","39","1","Training","Stims/Figures/111-C-30-3.bmp","va:sha:sha","Left","39","6","10","6B","C1","C","90"
"","","approach-retreat","94","863162","0.0-94.0","","","1-5","4907","38","1","Training","Stims/Figures/85-J-0-2.bmp","zaha:za","Up","38","6","11","6B","C2","C","91"
"","","approach-retreat","95","869936","0.0-95.0","","","1-5","5257","38","1","Training","Stims/Figures/57-C-30-1.bmp","vafa:sha","Down","38","6","12","6B","C1","C","92"
"","","approach-retreat","96","877331","0.0-96.0","","","1-5","5871","39","1","Training","Stims/Figures/111-J-10-3.bmp","za:sa:ha","Right","39","6","13","6B","C2","C","93"
"","","approach-retreat","97","886230","0.0-97.0","","","1-5","7378","38","1","Training","Stims/Figures/7-C-20-4.bmp","va:fa:sha","Down","38","6","14","6B","C1","C","94"
"","","approach-retreat","98","896981","0.0-98.0","","","1-5","9228","40","1","Training","Stims/Figures/139-J-0-2.bmp","saha:ha","Down","40","6","15","6B","C2","C","95"
"","","approach-retreat","99","905424","0.0-99.0","","","1-5","6921","39","1","Training","Stims/Figures/74-J-10-4.bmp","sa:sa:za","Right","39","6","16","6B","C2","C","96"
"","","approach-retreat","100","912040","0.0-100.0","","","1-5","5096","40","1","Training","Stims/Figures/139-J-0-2.bmp","saha:ha","Down","40","7","1","6B","C2","C","97"
"","","approach-retreat","101","920485","0.0-101.0","","","1-5","6928","40","0","Training","Stims/Figures/7-J-10-4.bmp","za:haza","Up","38","7","2","6B","C2","C","98"
"","","approach-retreat","102","926638","0.0-102.0","","","1-5","4631","39","1","Training","Stims/Figures/74-C-20-4.bmp","vashasha","Left","39","7","3","6B","C1","C","99"
"","","approach-retreat","103","933031","0.0-103.0","","","1-5","4876","40","1","Training","Stims/Figures/111-J-10-3.bmp","za:sa:ha","Down","40","7","4","6B","C2","C","100"
"","","approach-retreat","104","939385","0.0-104.0","","","1-5","4832","38","1","Training","Stims/Figures/74-J-10-4.bmp","sa:sa:za","Up","38","7","5","6B","C2","C","101"
"","","approach-retreat","105","947798","0.0-105.0","","","1-5","6889","39","1","Training","Stims/Figures/85-J-0-2.bmp","zaha:za","Right","39","7","6","6B","C2","C","102"
"","","approach-retreat","106","954224","0.0-106.0","","","1-5","4908","39","1","Training","Stims/Figures/27-C-30-1.bmp","fafava","Left","39","7","7","6B","C1","C","103"
"","","approach-retreat","107","963041","0.0-107.0","","","1-5","7294","39","1","Training","Stims/Figures/57-J-0-1.bmp","zaha:ha","Right","39","7","8","6B","C2","C","104"
"","","approach-retreat","108","970602","0.0-108.0","","","1-5","6037","38","1","Training","Stims/Figures/111-C-30-3.bmp","va:sha:sha","Down","38","7","9","6B","C1","C","105"
"","","approach-retreat","109","979895","0.0-109.0","","","1-5","7772","38","1","Training","Stims/Figures/27-J-0-1.bmp","saha:za","Up","38","7","10","6B","C2","C","106"
"","","approach-retreat","110","988384","0.0-110.0","","","1-5","6967","39","1","Training","Stims/Figures/144-C-30-3.bmp","va:fava","Left","39","7","11","6B","C1","C","107"
"","","approach-retreat","111","998125","0.0-111.0","","","1-5","8218","39","1","Training","Stims/Figures/7-C-20-4.bmp","va:fa:sha","Left","39","7","12","6B","C1","C","108"
"","","approach-retreat","112","1004550","0.0-112.0","","","1-5","4904","38","0","Training","Stims/Figures/85-C-20-2.bmp","fa:shasha","Up","40","7","13","6B","C1","C","109"
"","","approach-retreat","113","1010880","0.0-113.0","","","1-5","4811","40","1","Training","Stims/Figures/144-J-10-3.bmp","za:haha","Down","40","7","14","6B","C2","C","110"
"","","approach-retreat","114","1016829","0.0-114.0","","","1-5","4425","37","1","Training","Stims/Figures/57-C-30-1.bmp","vafa:sha","Right","37","7","15","6B","C1","C","111"
"","","approach-retreat","115","1022517","0.0-115.0","","","1-5","4169","37","1","Training","Stims/Figures/139-C-20-2.bmp","vasha:sha","Right","37","7","16","6B","C1","C","112"
"","","approach-retreat","116","1029462","0.0-116.0","","","1-5","5428","38","1","Training","Stims/Figures/139-J-0-2.bmp","saha:ha","Up","38","8","1","6B","C2","C","113"
"","","approach-retreat","117","1036054","0.0-117.0","","","1-5","5068","37","1","Training","Stims/Figures/85-C-20-2.bmp","fa:shasha","Right","37","8","2","6B","C1","C","114"
"","","approach-retreat","118","1043231","0.0-118.0","","","1-5","5654","38","1","Training","Stims/Figures/27-J-0-1.bmp","saha:za","Up","38","8","3","6B","C2","C","115"
"","","approach-retreat","119","1049242","0.0-119.0","","","1-5","4493","37","1","Training","Stims/Figures/111-C-30-3.bmp","va:sha:sha","Right","37","8","4","6B","C1","C","116"
"","","approach-retreat","120","1055223","0.0-120.0","","","1-5","4463","37","1","Training","Stims/Figures/7-J-10-4.bmp","za:haza","Left","37","8","5","6B","C2","C","117"
"","","approach-retreat","121","1061240","0.0-121.0","","","1-5","4495","38","1","Training","Stims/Figures/74-C-20-4.bmp","vashasha","Down","38","8","6","6B","C1","C","118"
"","","approach-retreat","122","1066919","0.0-122.0","","","1-5","4157","40","1","Training","Stims/Figures/111-J-10-3.bmp","za:sa:ha","Down","40","8","7","6B","C2","C","119"
"","","approach-retreat","123","1072955","0.0-123.0","","","1-5","4511","39","1","Training","Stims/Figures/74-J-10-4.bmp","sa:sa:za","Right","39","8","8","6B","C2","C","120"
"","","approach-retreat","124","1078784","0.0-124.0","","","1-5","4308","39","1","Training","Stims/Figures/57-J-0-1.bmp","zaha:ha","Right","39","8","9","6B","C2","C","121"
"","","approach-retreat","125","1084677","0.0-125.0","","","1-5","4371","39","1","Training","Stims/Figures/27-C-30-1.bmp","fafava","Left","39","8","10","6B","C1","C","122"
"","","approach-retreat","126","1091027","0.0-126.0","","","1-5","4826","39","1","Training","Stims/Figures/7-C-20-4.bmp","va:fa:sha","Left","39","8","11","6B","C1","C","123"
"","","approach-retreat","127","1096894","0.0-127.0","","","1-5","4344","40","1","Training","Stims/Figures/139-C-20-2.bmp","vasha:sha","Up","40","8","12","6B","C1","C","124"
"","","approach-retreat","128","1103516","0.0-128.0","","","1-5","5099","40","1","Training","Stims/Figures/85-J-0-2.bmp","zaha:za","Down","40","8","13","6B","C2","C","125"
"","","approach-retreat","129","1109673","0.0-129.0","","","1-5","4635","38","1","Training","Stims/Figures/144-C-30-3.bmp","va:fava","Down","38","8","14","6B","C1","C","126"
"","","approach-retreat","130","1116025","0.0-130.0","","","1-5","4830","39","1","Training","Stims/Figures/57-C-30-1.bmp","vafa:sha","Left","39","8","15","6B","C1","C","127"
"","","approach-retreat","131","1122111","0.0-131.0","","","1-5","4555","38","1","Training","Stims/Figures/144-J-10-3.bmp","za:haha","Up","38","8","16","6B","C2","C","128"
"","","approach-retreat","132","1128663","0.0-132.0","","","1-5","5034","39","1","Training","Stims/Figures/7-C-20-4.bmp","va:fa:sha","Left","39","9","1","6B","C1","C","129"
"","","approach-retreat","133","1134792","0.0-133.0","","","1-5","4607","39","1","Training","Stims/Figures/7-J-10-4.bmp","za:haza","Right","39","9","2","6B","C2","C","130"
"","","approach-retreat","134","1141347","0.0-134.0","","","1-5","5032","39","1","Training","Stims/Figures/27-C-30-1.bmp","fafava","Left","39","9","3","6B","C1","C","131"
"","","approach-retreat","135","1150154","0.0-135.0","","","1-5","7274","38","1","Training","Stims/Figures/139-J-0-2.bmp","saha:ha","Up","38","9","4","6B","C2","C","132"
"","","approach-retreat","136","1155872","0.0-136.0","","","1-5","4199","40","1","Training","Stims/Figures/57-C-30-1.bmp","vafa:sha","Up","40","9","5","6B","C1","C","133"
"","","approach-retreat","137","1162391","0.0-137.0","","","1-5","4993","38","1","Training","Stims/Figures/85-J-0-2.bmp","zaha:za","Up","38","9","6","6B","C2","C","134"
"","","approach-retreat","138","1168986","0.0-138.0","","","1-5","5073","37","1","Training","Stims/Figures/144-C-30-3.bmp","va:fava","Right","37","9","7","6B","C1","C","135"
"","","approach-retreat","139","1176389","0.0-139.0","","","1-5","5881","38","1","Training","Stims/Figures/74-C-20-4.bmp","vashasha","Down","38","9","8","6B","C1","C","136"
"","","approach-retreat","140","1182692","0.0-140.0","","","1-5","4783","37","1","Training","Stims/Figures/57-J-0-1.bmp","zaha:ha","Left","37","9","9","6B","C2","C","137"
"","","approach-retreat","141","1189290","0.0-141.0","","","1-5","5076","39","1","Training","Stims/Figures/111-C-30-3.bmp","va:sha:sha","Left","39","9","10","6B","C1","C","138"
"","","approach-retreat","142","1195606","0.0-142.0","","","1-5","4798","38","1","Training","Stims/Figures/85-C-20-2.bmp","fa:shasha","Down","38","9","11","6B","C1","C","139"
"","","approach-retreat","143","1201077","0.0-143.0","","","1-5","3949","40","1","Training","Stims/Figures/144-J-10-3.bmp","za:haha","Down","40","9","12","6B","C2","C","140"
"","","approach-retreat","144","1206789","0.0-144.0","","","1-5","4190","40","1","Training","Stims/Figures/74-J-10-4.bmp","sa:sa:za","Down","40","9","13","6B","C2","C","141"
"","","approach-retreat","145","1213250","0.0-145.0","","","1-5","4937","38","1","Training","Stims/Figures/111-J-10-3.bmp","za:sa:ha","Up","38","9","14","6B","C2","C","142"
"","","approach-retreat","146","1219901","0.0-146.0","","","1-5","5128","39","0","Training","Stims/Figures/139-C-20-2.bmp","vasha:sha","Right","37","9","15","6B","C1","C","143"
"","","approach-retreat","147","1225930","0.0-147.0","","","1-5","4507","39","1","Training","Stims/Figures/27-J-0-1.bmp","saha:za","Right","39","9","16","6B","C2","C","144"
"13048","","instructions","148","1238979","0.0-148.0","[{""page_index"":0,""viewing_time"":13048}]","","","","","","","","","","","","","","","",""
"","","approach-retreat","149","1248403","0.0-149.0","","","1-5","7908","37","1","Testing","Stims/Figures/144-C-30-3.bmp","va:fava","Right","37","1","1","6B","C1","C","1"
"","","approach-retreat","150","1254008","0.0-150.0","","","1-5","4088","39","1","Testing","Stims/Figures/86-C-30-1.bmp","fasha:va","Left","39","1","2","6B","C1","C","2"
"","","approach-retreat","151","1261726","0.0-151.0","","","1-5","6200","40","0","Testing","Stims/Figures/57-C-30-1.bmp","vafa:sha","Down","38","1","3","6B","C1","C","3"
"","","approach-retreat","152","1268758","0.0-152.0","","","1-5","5515","37","1","Testing","Stims/Figures/57-J-0-1.bmp","zaha:ha","Left","37","1","4","6B","C2","C","4"
"","","approach-retreat","153","1274900","0.0-153.0","","","1-5","4626","38","0","Testing","Stims/Figures/7-C-20-4.bmp","va:fa:sha","Up","40","1","5","6B","C1","C","5"
"","","approach-retreat","154","1280790","0.0-154.0","","","1-5","4376","37","1","Testing","Stims/Figures/74-J-10-4.bmp","sa:sa:za","Left","37","1","6","6B","C2","C","6"
"","","approach-retreat","155","1287706","0.0-155.0","","","1-5","5400","40","1","Testing","Stims/Figures/100-C-30-3.bmp","va:shasha","Up","40","1","7","6B","C1","C","7"
"","","approach-retreat","156","1293924","0.0-156.0","","","1-5","4701","40","1","Testing","Stims/Figures/87-J-10-4.bmp","za:saha","Down","40","1","8","6B","C2","C","8"
"","","approach-retreat","157","1299899","0.0-157.0","","","1-5","4457","37","1","Testing","Stims/Figures/85-J-0-2.bmp","zaha:za","Left","37","1","9","6B","C2","C","9"
"","","approach-retreat","158","1305702","0.0-158.0","","","1-5","4288","37","1","Testing","Stims/Figures/85-C-20-2.bmp","fa:shasha","Right","37","1","10","6B","C1","C","10"
"","","approach-retreat","159","1311739","0.0-159.0","","","1-5","4519","40","0","Testing","Stims/Figures/7-J-10-4.bmp","za:haza","Up","38","1","11","6B","C2","C","11"
"","","approach-retreat","160","1318518","0.0-160.0","","","1-5","5261","38","1","Testing","Stims/Figures/27-C-30-1.bmp","fafava","Down","38","1","12","6B","C1","C","12"
"","","approach-retreat","161","1324423","0.0-161.0","","","1-5","4393","37","1","Testing","Stims/Figures/74-C-20-4.bmp","vashasha","Right","37","1","13","6B","C1","C","13"
"","","approach-retreat","162","1330916","0.0-162.0","","","1-5","4975","40","0","Testing","Stims/Figures/94-C-20-2.bmp","fa:sha:va","Down","38","1","14","6B","C1","C","14"
"","","approach-retreat","163","1336759","0.0-163.0","","","1-5","4328","39","1","Testing","Stims/Figures/139-J-0-2.bmp","saha:ha","Right","39","1","15","6B","C2","C","15"
"","","approach-retreat","164","1342891","0.0-164.0","","","1-5","4614","38","1","Testing","Stims/Figures/94-J-0-2.bmp","zasaha","Up","38","1","16","6B","C2","C","16"
"","","approach-retreat","165","1348994","0.0-165.0","","","1-5","4588","39","0","Testing","Stims/Figures/111-J-10-3.bmp","za:sa:ha","Left","37","1","17","6B","C2","C","17"
"","","approach-retreat","166","1354782","0.0-166.0","","","1-5","4271","39","1","Testing","Stims/Figures/87-C-20-4.bmp","va:fasha","Left","39","1","18","6B","C1","C","18"
"","","approach-retreat","167","1360338","0.0-167.0","","","1-5","4031","40","1","Testing","Stims/Figures/27-J-0-1.bmp","saha:za","Down","40","1","19","6B","C2","C","19"
"","","approach-retreat","168","1366832","0.0-168.0","","","1-5","4978","40","1","Testing","Stims/Figures/139-C-20-2.bmp","vasha:sha","Up","40","1","20","6B","C1","C","20"
"","","approach-retreat","169","1372783","0.0-169.0","","","1-5","4436","40","1","Testing","Stims/Figures/111-C-30-3.bmp","va:sha:sha","Up","40","1","21","6B","C1","C","21"
"","","approach-retreat","170","1378771","0.0-170.0","","","1-5","4470","39","1","Testing","Stims/Figures/86-J-0-1.bmp","sa:haha","Right","39","1","22","6B","C2","C","22"
"","","approach-retreat","171","1385017","0.0-171.0","","","1-5","4729","40","1","Testing","Stims/Figures/144-J-10-3.bmp","za:haha","Down","40","1","23","6B","C2","C","23"
"","","approach-retreat","172","1391066","0.0-172.0","","","1-5","4534","39","1","Testing","Stims/Figures/100-J-10-3.bmp","sasa:ha","Right","39","1","24","6B","C2","C","24"
"","","approach-retreat","173","1396924","0.0-173.0","","","1-5","4343","39","0","Testing","Stims/Figures/144-C-30-3.bmp","va:fava","Right","37","2","1","6B","C1","C","25"
"","","approach-retreat","174","1403112","0.0-174.0","","","1-5","4671","40","0","Testing","Stims/Figures/139-C-20-2.bmp","vasha:sha","Down","38","2","2","6B","C1","C","26"
"","","approach-retreat","175","1409074","0.0-175.0","","","1-5","4446","37","1","Testing","Stims/Figures/100-C-30-3.bmp","va:shasha","Right","37","2","3","6B","C1","C","27"
"","","approach-retreat","176","1415068","0.0-176.0","","","1-5","4479","37","1","Testing","Stims/Figures/144-J-10-3.bmp","za:haha","Left","37","2","4","6B","C2","C","28"
"","","approach-retreat","177","1421034","0.0-177.0","","","1-5","4452","39","0","Testing","Stims/Figures/74-J-10-4.bmp","sa:sa:za","Left","37","2","5","6B","C2","C","29"
"","","approach-retreat","178","2216273","0.0-178.0","","","1-5","793721","37","0","Testing","Stims/Figures/27-C-30-1.bmp","fafava","Left","39","2","6","6B","C1","C","30"
"","","approach-retreat","179","2222624","0.0-179.0","","","1-5","4833","38","0","Testing","Stims/Figures/94-C-20-2.bmp","fa:sha:va","Up","40","2","7","6B","C1","C","31"
"","","approach-retreat","180","2228926","0.0-180.0","","","1-5","4784","40","1","Testing","Stims/Figures/111-C-30-3.bmp","va:sha:sha","Up","40","2","8","6B","C1","C","32"
"","","approach-retreat","181","2262074","0.0-181.0","","","1-5","31629","39","1","Testing","Stims/Figures/87-J-10-4.bmp","za:saha","Right","39","2","9","6B","C2","C","33"
"","","approach-retreat","182","2268183","0.0-182.0","","","1-5","4593","37","1","Testing","Stims/Figures/94-J-0-2.bmp","zasaha","Left","37","2","10","6B","C2","C","34"
"","","approach-retreat","183","2324176","0.0-183.0","","","1-5","54476","39","1","Testing","Stims/Figures/57-J-0-1.bmp","zaha:ha","Right","39","2","11","6B","C2","C","35"
"","","approach-retreat","184","2353882","0.0-184.0","","","1-5","28191","38","1","Testing","Stims/Figures/7-J-10-4.bmp","za:haza","Up","38","2","12","6B","C2","C","36"
"","","approach-retreat","185","2425096","0.0-185.0","","","1-5","69697","38","1","Testing","Stims/Figures/86-C-30-1.bmp","fasha:va","Down","38","2","13","6B","C1","C","37"
"","","approach-retreat","186","2432475","0.0-186.0","","","1-5","5864","40","0","Testing","Stims/Figures/74-C-20-4.bmp","vashasha","Down","38","2","14","6B","C1","C","38"
"","","approach-retreat","187","2438633","0.0-187.0","","","1-5","4640","40","1","Testing","Stims/Figures/111-J-10-3.bmp","za:sa:ha","Down","40","2","15","6B","C2","C","39"
"","","approach-retreat","188","2444677","0.0-188.0","","","1-5","4529","39","1","Testing","Stims/Figures/86-J-0-1.bmp","sa:haha","Right","39","2","16","6B","C2","C","40"
"","","approach-retreat","189","2450689","0.0-189.0","","","1-5","4495","39","1","Testing","Stims/Figures/100-J-10-3.bmp","sasa:ha","Right","39","2","17","6B","C2","C","41"
"","","approach-retreat","190","2456651","0.0-190.0","","","1-5","4447","40","1","Testing","Stims/Figures/27-J-0-1.bmp","saha:za","Down","40","2","18","6B","C2","C","42"
"","","approach-retreat","191","2462288","0.0-191.0","","","1-5","4121","38","1","Testing","Stims/Figures/7-C-20-4.bmp","va:fa:sha","Down","38","2","19","6B","C1","C","43"
"","","approach-retreat","192","2468318","0.0-192.0","","","1-5","4518","37","0","Testing","Stims/Figures/87-C-20-4.bmp","va:fasha","Left","39","2","20","6B","C1","C","44"
"","","approach-retreat","193","2474104","0.0-193.0","","","1-5","4269","37","1","Testing","Stims/Figures/139-J-0-2.bmp","saha:ha","Left","37","2","21","6B","C2","C","45"
"","","approach-retreat","194","2480116","0.0-194.0","","","1-5","4499","40","1","Testing","Stims/Figures/57-C-30-1.bmp","vafa:sha","Up","40","2","22","6B","C1","C","46"
"","","approach-retreat","195","2486425","0.0-195.0","","","1-5","4795","38","1","Testing","Stims/Figures/85-J-0-2.bmp","zaha:za","Up","38","2","23","6B","C2","C","47"
"","","approach-retreat","196","2492895","0.0-196.0","","","1-5","4952","38","0","Testing","Stims/Figures/85-C-20-2.bmp","fa:shasha","Up","40","2","24","6B","C1","C","48"
"","","approach-retreat","197","2501673","0.0-197.0","","","1-5","7261","37","0","Testing","Stims/Figures/144-J-10-3.bmp","za:haha","Right","39","3","1","6B","C2","C","49"
"","","approach-retreat","198","2508577","0.0-198.0","","","1-5","5386","39","1","Testing","Stims/Figures/85-J-0-2.bmp","zaha:za","Right","39","3","2","6B","C2","C","50"
"","","approach-retreat","199","2514653","0.0-199.0","","","1-5","4562","38","1","Testing","Stims/Figures/74-C-20-4.bmp","vashasha","Down","38","3","3","6B","C1","C","51"
"","","approach-retreat","200","2520713","0.0-200.0","","","1-5","4545","37","1","Testing","Stims/Figures/7-C-20-4.bmp","va:fa:sha","Right","37","3","4","6B","C1","C","52"
"","","approach-retreat","201","2526915","0.0-201.0","","","1-5","4685","38","1","Testing","Stims/Figures/139-J-0-2.bmp","saha:ha","Up","38","3","5","6B","C2","C","53"
"","","approach-retreat","202","2533836","0.0-202.0","","","1-5","5403","40","0","Testing","Stims/Figures/139-C-20-2.bmp","vasha:sha","Down","38","3","6","6B","C1","C","54"
"","","approach-retreat","203","2539824","0.0-203.0","","","1-5","4470","37","1","Testing","Stims/Figures/86-J-0-1.bmp","sa:haha","Left","37","3","7","6B","C2","C","55"
"","","approach-retreat","204","2545942","0.0-204.0","","","1-5","4603","40","0","Testing","Stims/Figures/7-J-10-4.bmp","za:haza","Up","38","3","8","6B","C2","C","56"
"","","approach-retreat","205","2552077","0.0-205.0","","","1-5","4623","38","1","Testing","Stims/Figures/57-C-30-1.bmp","vafa:sha","Down","38","3","9","6B","C1","C","57"
"","","approach-retreat","206","2558146","0.0-206.0","","","1-5","4548","37","0","Testing","Stims/Figures/85-C-20-2.bmp","fa:shasha","Left","39","3","10","6B","C1","C","58"
"","","approach-retreat","207","2564363","0.0-207.0","","","1-5","4703","40","1","Testing","Stims/Figures/27-J-0-1.bmp","saha:za","Down","40","3","11","6B","C2","C","59"
"","","approach-retreat","208","2570319","0.0-208.0","","","1-5","4438","37","0","Testing","Stims/Figures/87-J-10-4.bmp","za:saha","Right","39","3","12","6B","C2","C","60"
"","","approach-retreat","209","2576632","0.0-209.0","","","1-5","4798","39","1","Testing","Stims/Figures/144-C-30-3.bmp","va:fava","Left","39","3","13","6B","C1","C","61"
"","","approach-retreat","210","2582857","0.0-210.0","","","1-5","4709","39","0","Testing","Stims/Figures/94-C-20-2.bmp","fa:sha:va","Right","37","3","14","6B","C1","C","62"
"","","approach-retreat","211","2588806","0.0-211.0","","","1-5","4431","40","1","Testing","Stims/Figures/100-C-30-3.bmp","va:shasha","Up","40","3","15","6B","C1","C","63"
"","","approach-retreat","212","2595470","0.0-212.0","","","1-5","5146","38","1","Testing","Stims/Figures/87-C-20-4.bmp","va:fasha","Down","38","3","16","6B","C1","C","64"
"","","approach-retreat","213","2601331","0.0-213.0","","","1-5","4347","40","1","Testing","Stims/Figures/111-J-10-3.bmp","za:sa:ha","Down","40","3","17","6B","C2","C","65"
"","","approach-retreat","214","2607876","0.0-214.0","","","1-5","5028","37","0","Testing","Stims/Figures/27-C-30-1.bmp","fafava","Left","39","3","18","6B","C1","C","66"
"","","approach-retreat","215","2613855","0.0-215.0","","","1-5","4464","39","0","Testing","Stims/Figures/111-C-30-3.bmp","va:sha:sha","Right","37","3","19","6B","C1","C","67"
"","","approach-retreat","216","2620141","0.0-216.0","","","1-5","4764","38","0","Testing","Stims/Figures/86-C-30-1.bmp","fasha:va","Up","40","3","20","6B","C1","C","68"
"","","approach-retreat","217","2626303","0.0-217.0","","","1-5","4647","37","1","Testing","Stims/Figures/94-J-0-2.bmp","zasaha","Left","37","3","21","6B","C2","C","69"
"","","approach-retreat","218","2632486","0.0-218.0","","","1-5","4668","40","0","Testing","Stims/Figures/100-J-10-3.bmp","sasa:ha","Up","38","3","22","6B","C2","C","70"
"","","approach-retreat","219","2638518","0.0-219.0","","","1-5","4516","37","1","Testing","Stims/Figures/57-J-0-1.bmp","zaha:ha","Left","37","3","23","6B","C2","C","71"
"","","approach-retreat","220","2646531","0.0-220.0","","","1-5","6498","40","0","Testing","Stims/Figures/74-J-10-4.bmp","sa:sa:za","Up","38","3","24","6B","C2","C","72"
"","","approach-retreat","221","2653641","0.0-221.0","","","1-5","5596","37","1","Testing","Stims/Figures/144-C-30-3.bmp","va:fava","Right","37","4","1","6B","C1","C","73"
"","","approach-retreat","222","2660744","0.0-222.0","","","1-5","5585","38","1","Testing","Stims/Figures/86-J-0-1.bmp","sa:haha","Up","38","4","2","6B","C2","C","74"
"","","approach-retreat","223","2667326","0.0-223.0","","","1-5","5069","37","0","Testing","Stims/Figures/111-J-10-3.bmp","za:sa:ha","Right","39","4","3","6B","C2","C","75"
"","","approach-retreat","224","2673610","0.0-224.0","","","1-5","4769","38","0","Testing","Stims/Figures/100-C-30-3.bmp","va:shasha","Up","40","4","4","6B","C1","C","76"
"","","approach-retreat","225","2679889","0.0-225.0","","","1-5","4762","39","0","Testing","Stims/Figures/7-J-10-4.bmp","za:haza","Left","37","4","5","6B","C2","C","77"
"","","approach-retreat","226","2686015","0.0-226.0","","","1-5","4609","37","0","Testing","Stims/Figures/139-C-20-2.bmp","vasha:sha","Left","39","4","6","6B","C1","C","78"
"","","approach-retreat","227","2692413","0.0-227.0","","","1-5","4881","38","1","Testing","Stims/Figures/144-J-10-3.bmp","za:haha","Up","38","4","7","6B","C2","C","79"
"","","approach-retreat","228","2698529","0.0-228.0","","","1-5","4599","39","0","Testing","Stims/Figures/85-C-20-2.bmp","fa:shasha","Right","37","4","8","6B","C1","C","80"
"","","approach-retreat","229","2704478","0.0-229.0","","","1-5","4432","38","0","Testing","Stims/Figures/111-C-30-3.bmp","va:sha:sha","Up","40","4","9","6B","C1","C","81"
"","","approach-retreat","230","2710980","0.0-230.0","","","1-5","4987","37","0","Testing","Stims/Figures/94-C-20-2.bmp","fa:sha:va","Left","39","4","10","6B","C1","C","82"
"","","approach-retreat","231","2717937","0.0-231.0","","","1-5","5439","39","1","Testing","Stims/Figures/27-C-30-1.bmp","fafava","Left","39","4","11","6B","C1","C","83"
"","","approach-retreat","232","2730982","0.0-232.0","","","1-5","11532","37","1","Testing","Stims/Figures/74-C-20-4.bmp","vashasha","Right","37","4","12","6B","C1","C","84"
"","","approach-retreat","233","2738585","0.0-233.0","","","1-5","6090","38","1","Testing","Stims/Figures/94-J-0-2.bmp","zasaha","Up","38","4","13","6B","C2","C","85"
"","","approach-retreat","234","2747504","0.0-234.0","","","1-5","7402","37","0","Testing","Stims/Figures/74-J-10-4.bmp","sa:sa:za","Right","39","4","14","6B","C2","C","86"
"","","approach-retreat","235","2754674","0.0-235.0","","","1-5","5653","38","1","Testing","Stims/Figures/86-C-30-1.bmp","fasha:va","Down","38","4","15","6B","C1","C","87"
"","","approach-retreat","236","2763670","0.0-236.0","","","1-5","7482","38","1","Testing","Stims/Figures/57-C-30-1.bmp","vafa:sha","Down","38","4","16","6B","C1","C","88"
"","","approach-retreat","237","2770744","0.0-237.0","","","1-5","5560","40","1","Testing","Stims/Figures/100-J-10-3.bmp","sasa:ha","Down","40","4","17","6B","C2","C","89"
"","","approach-retreat","238","2776873","0.0-238.0","","","1-5","4613","37","1","Testing","Stims/Figures/85-J-0-2.bmp","zaha:za","Left","37","4","18","6B","C2","C","90"
"","","approach-retreat","239","2787605","0.0-239.0","","","1-5","9216","40","1","Testing","Stims/Figures/7-C-20-4.bmp","va:fa:sha","Up","40","4","19","6B","C1","C","91"
"","","approach-retreat","240","2795934","0.0-240.0","","","1-5","6813","40","1","Testing","Stims/Figures/27-J-0-1.bmp","saha:za","Down","40","4","20","6B","C2","C","92"
"","","approach-retreat","241","2807473","0.0-241.0","","","1-5","10021","39","1","Testing","Stims/Figures/87-J-10-4.bmp","za:saha","Right","39","4","21","6B","C2","C","93"
"","","approach-retreat","242","2813447","0.0-242.0","","","1-5","4453","40","1","Testing","Stims/Figures/57-J-0-1.bmp","zaha:ha","Down","40","4","22","6B","C2","C","94"
"","","approach-retreat","243","2821100","0.0-243.0","","","1-5","6135","39","1","Testing","Stims/Figures/87-C-20-4.bmp","va:fasha","Left","39","4","23","6B","C1","C","95"
"","","approach-retreat","244","2833098","0.0-244.0","","","1-5","10484","40","1","Testing","Stims/Figures/139-J-0-2.bmp","saha:ha","Down","40","4","24","6B","C2","C","96"
"38163","","survey-text","245","2871274","0.0-245.0","","{""Q0"":""0007/18""}","","","","","","","","","","","","","","",""
