"rt","key_press","trial_type","trial_index","time_elapsed","internal_node_id","view_history","responses","Id","Rt","ResKeyCode","ResCorr","TrialType2","Image","Label","Location","CorrectResponse","Block","BlockTrial","Condition","LabelType","Subcondition","trialNum"
"78366","32","text","0","78368","0.0-0.0-0.0","","","","","","","","","","","","","","","","",""
"89056","","instructions","1","167426","0.0-1.0","[{""page_index"":0,""viewing_time"":89055}]","","","","","","","","","","","","","","","",""
"54706","","survey-multi-choice","2","222161","0.0-2.0","","{""Q0"":""Da"",""Q1"":""Da"",""Q2"":""Da"",""Q3"":""Da"",""Q4"":""Da"",""Q5"":""Da""}","","","","","","","","","","","","","","",""
"","","bio","3","231441","0.0-3.0","","{""age"":""18"",""gender"":""m"",""specify"":""""}","","","","","","","","","","","","","","",""
"","","approach-retreat","4","237817","0.0-4.0","","","3-1","4867","37","1","Training","Stims/Figures/86-C-30-1.bmp","pa:pa:ta","Right","37","1","1","2","P","C","1"
"","","approach-retreat","5","243923","0.0-5.0","","","3-1","4599","38","0","Training","Stims/Figures/84-J-0-2.bmp","mamana","Down","40","1","2","2","S","C","2"
"","","approach-retreat","6","249790","0.0-6.0","","","3-1","4361","40","0","Training","Stims/Figures/93-J-0-1.bmp","mamana","Up","38","1","3","2","S","C","3"
"","","approach-retreat","7","256043","0.0-7.0","","","3-1","4748","37","1","Training","Stims/Figures/144-J-10-3.bmp","mamana","Left","37","1","4","2","S","C","4"
"","","approach-retreat","8","262023","0.0-8.0","","","3-1","4473","38","1","Training","Stims/Figures/118-J-0-2.bmp","mamana","Up","38","1","5","2","S","C","5"
"","","approach-retreat","9","267551","0.0-9.0","","","3-1","4022","38","1","Training","Stims/Figures/102-C-20-4.bmp","pa:pa:ta","Down","38","1","6","2","P","C","6"
"","","approach-retreat","10","273200","0.0-10.0","","","3-1","4143","38","1","Training","Stims/Figures/144-C-30-3.bmp","pa:pa:ta","Down","38","1","7","2","P","C","7"
"","","approach-retreat","11","278818","0.0-11.0","","","3-1","4111","39","1","Training","Stims/Figures/19-C-20-4.bmp","pa:pa:ta","Left","39","1","8","2","P","C","8"
"","","approach-retreat","12","284687","0.0-12.0","","","3-1","4363","38","1","Training","Stims/Figures/128-J-10-3.bmp","mamana","Up","38","1","9","2","S","C","9"
"","","approach-retreat","13","290513","0.0-13.0","","","3-1","4320","37","1","Training","Stims/Figures/84-C-20-2.bmp","pa:pa:ta","Right","37","1","10","2","P","C","10"
"","","approach-retreat","14","296196","0.0-14.0","","","3-1","4176","37","1","Training","Stims/Figures/19-J-10-4.bmp","mamana","Left","37","1","11","2","S","C","11"
"","","approach-retreat","15","301961","0.0-15.0","","","3-1","4259","37","1","Training","Stims/Figures/93-C-30-1.bmp","pa:pa:ta","Right","37","1","12","2","P","C","12"
"","","approach-retreat","16","307573","0.0-16.0","","","3-1","4106","40","1","Training","Stims/Figures/128-C-30-3.bmp","pa:pa:ta","Up","40","1","13","2","P","C","13"
"","","approach-retreat","17","313277","0.0-17.0","","","3-1","4197","40","1","Training","Stims/Figures/86-J-0-1.bmp","mamana","Down","40","1","14","2","S","C","14"
"","","approach-retreat","18","319020","0.0-18.0","","","3-1","4237","37","1","Training","Stims/Figures/118-C-20-2.bmp","pa:pa:ta","Right","37","1","15","2","P","C","15"
"","","approach-retreat","19","325283","0.0-19.0","","","3-1","4758","37","1","Training","Stims/Figures/102-J-10-4.bmp","mamana","Left","37","1","16","2","S","C","16"
"","","approach-retreat","20","330813","0.0-20.0","","","3-1","4025","38","1","Training","Stims/Figures/118-C-20-2.bmp","pa:pa:ta","Down","38","2","1","2","P","C","17"
"","","approach-retreat","21","336982","0.0-21.0","","","3-1","4662","37","1","Training","Stims/Figures/102-C-20-4.bmp","pa:pa:ta","Right","37","2","2","2","P","C","18"
"","","approach-retreat","22","342642","0.0-22.0","","","3-1","4154","40","1","Training","Stims/Figures/84-J-0-2.bmp","mamana","Down","40","2","3","2","S","C","19"
"","","approach-retreat","23","348622","0.0-23.0","","","3-1","4474","38","1","Training","Stims/Figures/128-J-10-3.bmp","mamana","Up","38","2","4","2","S","C","20"
"","","approach-retreat","24","354227","0.0-24.0","","","3-1","4099","38","1","Training","Stims/Figures/84-C-20-2.bmp","pa:pa:ta","Down","38","2","5","2","P","C","21"
"","","approach-retreat","25","360319","0.0-25.0","","","3-1","4586","39","1","Training","Stims/Figures/144-J-10-3.bmp","mamana","Right","39","2","6","2","S","C","22"
"","","approach-retreat","26","366139","0.0-26.0","","","3-1","4314","39","1","Training","Stims/Figures/118-J-0-2.bmp","mamana","Right","39","2","7","2","S","C","23"
"","","approach-retreat","27","371872","0.0-27.0","","","3-1","4226","37","1","Training","Stims/Figures/86-J-0-1.bmp","mamana","Left","37","2","8","2","S","C","24"
"","","approach-retreat","28","377725","0.0-28.0","","","3-1","4347","40","1","Training","Stims/Figures/93-C-30-1.bmp","pa:pa:ta","Up","40","2","9","2","P","C","25"
"","","approach-retreat","29","383931","0.0-29.0","","","3-1","4700","39","1","Training","Stims/Figures/93-J-0-1.bmp","mamana","Right","39","2","10","2","S","C","26"
"","","approach-retreat","30","390286","0.0-30.0","","","3-1","4848","37","1","Training","Stims/Figures/19-J-10-4.bmp","mamana","Left","37","2","11","2","S","C","27"
"","","approach-retreat","31","396540","0.0-31.0","","","3-1","4747","38","1","Training","Stims/Figures/102-J-10-4.bmp","mamana","Up","38","2","12","2","S","C","28"
"","","approach-retreat","32","402085","0.0-32.0","","","3-1","4036","39","1","Training","Stims/Figures/86-C-30-1.bmp","pa:pa:ta","Left","39","2","13","2","P","C","29"
"","","approach-retreat","33","407606","0.0-33.0","","","3-1","4015","39","1","Training","Stims/Figures/128-C-30-3.bmp","pa:pa:ta","Left","39","2","14","2","P","C","30"
"","","approach-retreat","34","413281","0.0-34.0","","","3-1","4169","38","1","Training","Stims/Figures/19-C-20-4.bmp","pa:pa:ta","Down","38","2","15","2","P","C","31"
"","","approach-retreat","35","418739","0.0-35.0","","","3-1","3953","40","1","Training","Stims/Figures/144-C-30-3.bmp","pa:pa:ta","Up","40","2","16","2","P","C","32"
"","","approach-retreat","36","424635","0.0-36.0","","","3-1","4389","40","1","Training","Stims/Figures/128-C-30-3.bmp","pa:pa:ta","Up","40","3","1","2","P","C","33"
"","","approach-retreat","37","430238","0.0-37.0","","","3-1","4098","40","1","Training","Stims/Figures/84-J-0-2.bmp","mamana","Down","40","3","2","2","S","C","34"
"","","approach-retreat","38","436134","0.0-38.0","","","3-1","4392","39","1","Training","Stims/Figures/84-C-20-2.bmp","pa:pa:ta","Left","39","3","3","2","P","C","35"
"","","approach-retreat","39","441916","0.0-39.0","","","3-1","4274","38","1","Training","Stims/Figures/128-J-10-3.bmp","mamana","Up","38","3","4","2","S","C","36"
"","","approach-retreat","40","447477","0.0-40.0","","","3-1","4057","39","1","Training","Stims/Figures/86-C-30-1.bmp","pa:pa:ta","Left","39","3","5","2","P","C","37"
"","","approach-retreat","41","453444","0.0-41.0","","","3-1","4461","39","1","Training","Stims/Figures/102-C-20-4.bmp","pa:pa:ta","Left","39","3","6","2","P","C","38"
"","","approach-retreat","42","459159","0.0-42.0","","","3-1","4210","38","1","Training","Stims/Figures/93-J-0-1.bmp","mamana","Up","38","3","7","2","S","C","39"
"","","approach-retreat","43","465305","0.0-43.0","","","3-1","4640","39","1","Training","Stims/Figures/144-J-10-3.bmp","mamana","Right","39","3","8","2","S","C","40"
"","","approach-retreat","44","471311","0.0-44.0","","","3-1","4501","39","1","Training","Stims/Figures/86-J-0-1.bmp","mamana","Right","39","3","9","2","S","C","41"
"","","approach-retreat","45","476922","0.0-45.0","","","3-1","4105","40","1","Training","Stims/Figures/19-C-20-4.bmp","pa:pa:ta","Up","40","3","10","2","P","C","42"
"","","approach-retreat","46","482979","0.0-46.0","","","3-1","4551","39","1","Training","Stims/Figures/19-J-10-4.bmp","mamana","Right","39","3","11","2","S","C","43"
"","","approach-retreat","47","488601","0.0-47.0","","","3-1","4116","40","1","Training","Stims/Figures/102-J-10-4.bmp","mamana","Down","40","3","12","2","S","C","44"
"","","approach-retreat","48","494137","0.0-48.0","","","3-1","4032","39","1","Training","Stims/Figures/93-C-30-1.bmp","pa:pa:ta","Left","39","3","13","2","P","C","45"
"","","approach-retreat","49","499968","0.0-49.0","","","3-1","4325","37","1","Training","Stims/Figures/144-C-30-3.bmp","pa:pa:ta","Right","37","3","14","2","P","C","46"
"","","approach-retreat","50","506186","0.0-50.0","","","3-1","4713","38","1","Training","Stims/Figures/118-C-20-2.bmp","pa:pa:ta","Down","38","3","15","2","P","C","47"
"","","approach-retreat","51","511799","0.0-51.0","","","3-1","4109","40","1","Training","Stims/Figures/118-J-0-2.bmp","mamana","Down","40","3","16","2","S","C","48"
"","","approach-retreat","52","517826","0.0-52.0","","","3-1","4520","39","1","Training","Stims/Figures/118-C-20-2.bmp","pa:pa:ta","Left","39","4","1","2","P","C","49"
"","","approach-retreat","53","523596","0.0-53.0","","","3-1","4264","37","1","Training","Stims/Figures/102-J-10-4.bmp","mamana","Left","37","4","2","2","S","C","50"
"","","approach-retreat","54","529533","0.0-54.0","","","3-1","4431","40","1","Training","Stims/Figures/19-J-10-4.bmp","mamana","Down","40","4","3","2","S","C","51"
"","","approach-retreat","55","535101","0.0-55.0","","","3-1","4062","37","1","Training","Stims/Figures/84-C-20-2.bmp","pa:pa:ta","Right","37","4","4","2","P","C","52"
"","","approach-retreat","56","540991","0.0-56.0","","","3-1","4384","38","1","Training","Stims/Figures/86-J-0-1.bmp","mamana","Up","38","4","5","2","S","C","53"
"","","approach-retreat","57","546529","0.0-57.0","","","3-1","4031","37","1","Training","Stims/Figures/128-C-30-3.bmp","pa:pa:ta","Right","37","4","6","2","P","C","54"
"","","approach-retreat","58","552239","0.0-58.0","","","3-1","4203","38","1","Training","Stims/Figures/128-J-10-3.bmp","mamana","Up","38","4","7","2","S","C","55"
"","","approach-retreat","59","558247","0.0-59.0","","","3-1","4502","39","1","Training","Stims/Figures/93-J-0-1.bmp","mamana","Right","39","4","8","2","S","C","56"
"","","approach-retreat","60","564294","0.0-60.0","","","3-1","4540","39","1","Training","Stims/Figures/144-C-30-3.bmp","pa:pa:ta","Left","39","4","9","2","P","C","57"
"","","approach-retreat","61","569972","0.0-61.0","","","3-1","4171","40","1","Training","Stims/Figures/144-J-10-3.bmp","mamana","Down","40","4","10","2","S","C","58"
"","","approach-retreat","62","575441","0.0-62.0","","","3-1","3964","40","1","Training","Stims/Figures/93-C-30-1.bmp","pa:pa:ta","Up","40","4","11","2","P","C","59"
"","","approach-retreat","63","581048","0.0-63.0","","","3-1","4100","40","1","Training","Stims/Figures/102-C-20-4.bmp","pa:pa:ta","Up","40","4","12","2","P","C","60"
"","","approach-retreat","64","586864","0.0-64.0","","","3-1","4311","39","1","Training","Stims/Figures/118-J-0-2.bmp","mamana","Right","39","4","13","2","S","C","61"
"","","approach-retreat","65","592800","0.0-65.0","","","3-1","4431","38","1","Training","Stims/Figures/19-C-20-4.bmp","pa:pa:ta","Down","38","4","14","2","P","C","62"
"","","approach-retreat","66","598251","0.0-66.0","","","3-1","3945","38","1","Training","Stims/Figures/86-C-30-1.bmp","pa:pa:ta","Down","38","4","15","2","P","C","63"
"","","approach-retreat","67","603904","0.0-67.0","","","3-1","4147","37","1","Training","Stims/Figures/84-J-0-2.bmp","mamana","Left","37","4","16","2","S","C","64"
"","","approach-retreat","68","609750","0.0-68.0","","","3-1","4340","40","1","Training","Stims/Figures/19-J-10-4.bmp","mamana","Down","40","5","1","2","S","C","65"
"","","approach-retreat","69","615742","0.0-69.0","","","3-1","4487","39","1","Training","Stims/Figures/144-C-30-3.bmp","pa:pa:ta","Left","39","5","2","2","P","C","66"
"","","approach-retreat","70","622164","0.0-70.0","","","3-1","4917","38","1","Training","Stims/Figures/118-C-20-2.bmp","pa:pa:ta","Down","38","5","3","2","P","C","67"
"","","approach-retreat","71","627862","0.0-71.0","","","3-1","4192","40","1","Training","Stims/Figures/86-J-0-1.bmp","mamana","Down","40","5","4","2","S","C","68"
"","","approach-retreat","72","633337","0.0-72.0","","","3-1","3969","38","1","Training","Stims/Figures/93-C-30-1.bmp","pa:pa:ta","Down","38","5","5","2","P","C","69"
"","","approach-retreat","73","639677","0.0-73.0","","","3-1","4834","38","1","Training","Stims/Figures/128-J-10-3.bmp","mamana","Up","38","5","6","2","S","C","70"
"","","approach-retreat","74","645106","0.0-74.0","","","3-1","3924","40","1","Training","Stims/Figures/84-C-20-2.bmp","pa:pa:ta","Up","40","5","7","2","P","C","71"
"","","approach-retreat","75","650685","0.0-75.0","","","3-1","4073","37","1","Training","Stims/Figures/102-J-10-4.bmp","mamana","Left","37","5","8","2","S","C","72"
"","","approach-retreat","76","656546","0.0-76.0","","","3-1","4356","39","1","Training","Stims/Figures/118-J-0-2.bmp","mamana","Right","39","5","9","2","S","C","73"
"","","approach-retreat","77","662257","0.0-77.0","","","3-1","4205","37","1","Training","Stims/Figures/128-C-30-3.bmp","pa:pa:ta","Right","37","5","10","2","P","C","74"
"","","approach-retreat","78","668283","0.0-78.0","","","3-1","4522","37","1","Training","Stims/Figures/84-J-0-2.bmp","mamana","Left","37","5","11","2","S","C","75"
"","","approach-retreat","79","673891","0.0-79.0","","","3-1","4101","39","1","Training","Stims/Figures/93-J-0-1.bmp","mamana","Right","39","5","12","2","S","C","76"
"","","approach-retreat","80","679491","0.0-80.0","","","3-1","4095","40","1","Training","Stims/Figures/86-C-30-1.bmp","pa:pa:ta","Up","40","5","13","2","P","C","77"
"","","approach-retreat","81","685004","0.0-81.0","","","3-1","4007","40","1","Training","Stims/Figures/19-C-20-4.bmp","pa:pa:ta","Up","40","5","14","2","P","C","78"
"","","approach-retreat","82","690689","0.0-82.0","","","3-1","4177","39","0","Training","Stims/Figures/144-J-10-3.bmp","mamana","Left","37","5","15","2","S","C","79"
"","","approach-retreat","83","696443","0.0-83.0","","","3-1","4248","37","1","Training","Stims/Figures/102-C-20-4.bmp","pa:pa:ta","Right","37","5","16","2","P","C","80"
"","","approach-retreat","84","702209","0.0-84.0","","","3-1","4259","40","1","Training","Stims/Figures/19-J-10-4.bmp","mamana","Down","40","6","1","2","S","C","81"
"","","approach-retreat","85","707924","0.0-85.0","","","3-1","4209","40","1","Training","Stims/Figures/84-C-20-2.bmp","pa:pa:ta","Up","40","6","2","2","P","C","82"
"","","approach-retreat","86","713496","0.0-86.0","","","3-1","4066","39","1","Training","Stims/Figures/118-J-0-2.bmp","mamana","Right","39","6","3","2","S","C","83"
"","","approach-retreat","87","719043","0.0-87.0","","","3-1","4042","39","1","Training","Stims/Figures/19-C-20-4.bmp","pa:pa:ta","Left","39","6","4","2","P","C","84"
"","","approach-retreat","88","724720","0.0-88.0","","","3-1","4170","38","1","Training","Stims/Figures/144-J-10-3.bmp","mamana","Up","38","6","5","2","S","C","85"
"","","approach-retreat","89","730513","0.0-89.0","","","3-1","4287","38","1","Training","Stims/Figures/93-C-30-1.bmp","pa:pa:ta","Down","38","6","6","2","P","C","86"
"","","approach-retreat","90","736006","0.0-90.0","","","3-1","3988","38","1","Training","Stims/Figures/118-C-20-2.bmp","pa:pa:ta","Down","38","6","7","2","P","C","87"
"","","approach-retreat","91","741666","0.0-91.0","","","3-1","4154","37","1","Training","Stims/Figures/102-J-10-4.bmp","mamana","Left","37","6","8","2","S","C","88"
"","","approach-retreat","92","747249","0.0-92.0","","","3-1","4077","39","1","Training","Stims/Figures/93-J-0-1.bmp","mamana","Right","39","6","9","2","S","C","89"
"","","approach-retreat","93","752679","0.0-93.0","","","3-1","3922","40","1","Training","Stims/Figures/86-C-30-1.bmp","pa:pa:ta","Up","40","6","10","2","P","C","90"
"","","approach-retreat","94","758472","0.0-94.0","","","3-1","4287","38","1","Training","Stims/Figures/84-J-0-2.bmp","mamana","Up","38","6","11","2","S","C","91"
"","","approach-retreat","95","763994","0.0-95.0","","","3-1","4016","37","1","Training","Stims/Figures/128-C-30-3.bmp","pa:pa:ta","Right","37","6","12","2","P","C","92"
"","","approach-retreat","96","769486","0.0-96.0","","","3-1","3985","39","1","Training","Stims/Figures/128-J-10-3.bmp","mamana","Right","39","6","13","2","S","C","93"
"","","approach-retreat","97","774995","0.0-97.0","","","3-1","4004","38","1","Training","Stims/Figures/144-C-30-3.bmp","pa:pa:ta","Down","38","6","14","2","P","C","94"
"","","approach-retreat","98","780399","0.0-98.0","","","3-1","3899","39","1","Training","Stims/Figures/102-C-20-4.bmp","pa:pa:ta","Left","39","6","15","2","P","C","95"
"","","approach-retreat","99","786140","0.0-99.0","","","3-1","4235","37","1","Training","Stims/Figures/86-J-0-1.bmp","mamana","Left","37","6","16","2","S","C","96"
"","","approach-retreat","100","791606","0.0-100.0","","","3-1","3960","37","1","Training","Stims/Figures/84-J-0-2.bmp","mamana","Left","37","7","1","2","S","C","97"
"","","approach-retreat","101","797238","0.0-101.0","","","3-1","4127","39","1","Training","Stims/Figures/86-J-0-1.bmp","mamana","Right","39","7","2","2","S","C","98"
"","","approach-retreat","102","802748","0.0-102.0","","","3-1","4003","38","1","Training","Stims/Figures/118-C-20-2.bmp","pa:pa:ta","Down","38","7","3","2","P","C","99"
"","","approach-retreat","103","808621","0.0-103.0","","","3-1","4370","40","1","Training","Stims/Figures/144-J-10-3.bmp","mamana","Down","40","7","4","2","S","C","100"
"","","approach-retreat","104","814158","0.0-104.0","","","3-1","4030","37","1","Training","Stims/Figures/19-J-10-4.bmp","mamana","Left","37","7","5","2","S","C","101"
"","","approach-retreat","105","819657","0.0-105.0","","","3-1","3992","39","1","Training","Stims/Figures/19-C-20-4.bmp","pa:pa:ta","Left","39","7","6","2","P","C","102"
"","","approach-retreat","106","825251","0.0-106.0","","","3-1","4088","40","1","Training","Stims/Figures/128-C-30-3.bmp","pa:pa:ta","Up","40","7","7","2","P","C","103"
"","","approach-retreat","107","830784","0.0-107.0","","","3-1","4028","37","1","Training","Stims/Figures/93-C-30-1.bmp","pa:pa:ta","Right","37","7","8","2","P","C","104"
"","","approach-retreat","108","836407","0.0-108.0","","","3-1","4117","40","1","Training","Stims/Figures/118-J-0-2.bmp","mamana","Down","40","7","9","2","S","C","105"
"","","approach-retreat","109","841968","0.0-109.0","","","3-1","4057","40","1","Training","Stims/Figures/84-C-20-2.bmp","pa:pa:ta","Up","40","7","10","2","P","C","106"
"","","approach-retreat","110","847619","0.0-110.0","","","3-1","4145","38","1","Training","Stims/Figures/128-J-10-3.bmp","mamana","Up","38","7","11","2","S","C","107"
"","","approach-retreat","111","853099","0.0-111.0","","","3-1","3975","39","1","Training","Stims/Figures/102-J-10-4.bmp","mamana","Right","39","7","12","2","S","C","108"
"","","approach-retreat","112","858460","0.0-112.0","","","3-1","3855","37","1","Training","Stims/Figures/102-C-20-4.bmp","pa:pa:ta","Right","37","7","13","2","P","C","109"
"","","approach-retreat","113","863860","0.0-113.0","","","3-1","3894","38","1","Training","Stims/Figures/86-C-30-1.bmp","pa:pa:ta","Down","38","7","14","2","P","C","110"
"","","approach-retreat","114","869178","0.0-114.0","","","3-1","3811","40","1","Training","Stims/Figures/144-C-30-3.bmp","pa:pa:ta","Up","40","7","15","2","P","C","111"
"","","approach-retreat","115","875026","0.0-115.0","","","3-1","4343","37","1","Training","Stims/Figures/93-J-0-1.bmp","mamana","Left","37","7","16","2","S","C","112"
"","","approach-retreat","116","880636","0.0-116.0","","","3-1","4104","38","1","Training","Stims/Figures/128-J-10-3.bmp","mamana","Up","38","8","1","2","S","C","113"
"","","approach-retreat","117","886064","0.0-117.0","","","3-1","3923","40","1","Training","Stims/Figures/84-C-20-2.bmp","pa:pa:ta","Up","40","8","2","2","P","C","114"
"","","approach-retreat","118","891659","0.0-118.0","","","3-1","4090","39","1","Training","Stims/Figures/19-C-20-4.bmp","pa:pa:ta","Left","39","8","3","2","P","C","115"
"","","approach-retreat","119","897168","0.0-119.0","","","3-1","4005","40","1","Training","Stims/Figures/84-J-0-2.bmp","mamana","Down","40","8","4","2","S","C","116"
"","","approach-retreat","120","902996","0.0-120.0","","","3-1","4323","37","1","Training","Stims/Figures/102-C-20-4.bmp","pa:pa:ta","Right","37","8","5","2","P","C","117"
"","","approach-retreat","121","908383","0.0-121.0","","","3-1","3882","37","1","Training","Stims/Figures/144-C-30-3.bmp","pa:pa:ta","Right","37","8","6","2","P","C","118"
"","","approach-retreat","122","914081","0.0-122.0","","","3-1","4193","40","1","Training","Stims/Figures/19-J-10-4.bmp","mamana","Down","40","8","7","2","S","C","119"
"","","approach-retreat","123","919474","0.0-123.0","","","3-1","3887","39","1","Training","Stims/Figures/128-C-30-3.bmp","pa:pa:ta","Left","39","8","8","2","P","C","120"
"","","approach-retreat","124","925022","0.0-124.0","","","3-1","4042","37","1","Training","Stims/Figures/144-J-10-3.bmp","mamana","Left","37","8","9","2","S","C","121"
"","","approach-retreat","125","931105","0.0-125.0","","","3-1","4577","39","1","Training","Stims/Figures/93-J-0-1.bmp","mamana","Right","39","8","10","2","S","C","122"
"","","approach-retreat","126","936735","0.0-126.0","","","3-1","4127","38","1","Training","Stims/Figures/102-J-10-4.bmp","mamana","Up","38","8","11","2","S","C","123"
"","","approach-retreat","127","942346","0.0-127.0","","","3-1","4105","37","1","Training","Stims/Figures/86-J-0-1.bmp","mamana","Left","37","8","12","2","S","C","124"
"","","approach-retreat","128","948029","0.0-128.0","","","3-1","4179","38","1","Training","Stims/Figures/118-C-20-2.bmp","pa:pa:ta","Down","38","8","13","2","P","C","125"
"","","approach-retreat","129","953762","0.0-129.0","","","3-1","4228","39","1","Training","Stims/Figures/118-J-0-2.bmp","mamana","Right","39","8","14","2","S","C","126"
"","","approach-retreat","130","959178","0.0-130.0","","","3-1","3910","40","1","Training","Stims/Figures/93-C-30-1.bmp","pa:pa:ta","Up","40","8","15","2","P","C","127"
"","","approach-retreat","131","964621","0.0-131.0","","","3-1","3936","38","1","Training","Stims/Figures/86-C-30-1.bmp","pa:pa:ta","Down","38","8","16","2","P","C","128"
"","","approach-retreat","132","969978","0.0-132.0","","","3-1","3851","40","1","Training","Stims/Figures/118-C-20-2.bmp","pa:pa:ta","Up","40","9","1","2","P","C","129"
"","","approach-retreat","133","975418","0.0-133.0","","","3-1","3933","38","1","Training","Stims/Figures/128-C-30-3.bmp","pa:pa:ta","Down","38","9","2","2","P","C","130"
"","","approach-retreat","134","981052","0.0-134.0","","","3-1","4126","38","1","Training","Stims/Figures/102-J-10-4.bmp","mamana","Up","38","9","3","2","S","C","131"
"","","approach-retreat","135","986449","0.0-135.0","","","3-1","3893","37","1","Training","Stims/Figures/93-J-0-1.bmp","mamana","Left","37","9","4","2","S","C","132"
"","","approach-retreat","136","992015","0.0-136.0","","","3-1","4060","38","1","Training","Stims/Figures/86-C-30-1.bmp","pa:pa:ta","Down","38","9","5","2","P","C","133"
"","","approach-retreat","137","997529","0.0-137.0","","","3-1","4009","37","1","Training","Stims/Figures/93-C-30-1.bmp","pa:pa:ta","Right","37","9","6","2","P","C","134"
"","","approach-retreat","138","1003042","0.0-138.0","","","3-1","4008","37","1","Training","Stims/Figures/84-J-0-2.bmp","mamana","Left","37","9","7","2","S","C","135"
"","","approach-retreat","139","1008466","0.0-139.0","","","3-1","3918","37","1","Training","Stims/Figures/84-C-20-2.bmp","pa:pa:ta","Right","37","9","8","2","P","C","136"
"","","approach-retreat","140","1013874","0.0-140.0","","","3-1","3904","38","1","Training","Stims/Figures/19-C-20-4.bmp","pa:pa:ta","Down","38","9","9","2","P","C","137"
"","","approach-retreat","141","1019708","0.0-141.0","","","3-1","4328","39","1","Training","Stims/Figures/118-J-0-2.bmp","mamana","Right","39","9","10","2","S","C","138"
"","","approach-retreat","142","1025185","0.0-142.0","","","3-1","3971","39","1","Training","Stims/Figures/144-J-10-3.bmp","mamana","Right","39","9","11","2","S","C","139"
"","","approach-retreat","143","1030793","0.0-143.0","","","3-1","4103","38","1","Training","Stims/Figures/19-J-10-4.bmp","mamana","Up","38","9","12","2","S","C","140"
"","","approach-retreat","144","1036208","0.0-144.0","","","3-1","3908","40","1","Training","Stims/Figures/144-C-30-3.bmp","pa:pa:ta","Up","40","9","13","2","P","C","141"
"","","approach-retreat","145","1041627","0.0-145.0","","","3-1","3913","40","1","Training","Stims/Figures/86-J-0-1.bmp","mamana","Down","40","9","14","2","S","C","142"
"","","approach-retreat","146","1047018","0.0-146.0","","","3-1","3886","39","1","Training","Stims/Figures/102-C-20-4.bmp","pa:pa:ta","Left","39","9","15","2","P","C","143"
"","","approach-retreat","147","1052419","0.0-147.0","","","3-1","3895","37","1","Training","Stims/Figures/128-J-10-3.bmp","mamana","Left","37","9","16","2","S","C","144"
"15746","","instructions","148","1068165","0.0-148.0","[{""page_index"":0,""viewing_time"":15746}]","","","","","","","","","","","","","","","",""
"","","approach-retreat","149","1075145","0.0-149.0","","","3-1","5476","40","1","Testing","Stims/Figures/111-J-10-3.bmp","mamana","Down","40","1","1","2","S","C","1"
"","","approach-retreat","150","1081077","0.0-150.0","","","3-1","4427","37","0","Testing","Stims/Figures/118-C-20-2.bmp","pa:pa:ta","Left","39","1","2","2","P","C","2"
"","","approach-retreat","151","1086765","0.0-151.0","","","3-1","4184","38","1","Testing","Stims/Figures/84-J-0-2.bmp","mamana","Up","38","1","3","2","S","C","3"
"","","approach-retreat","152","1092261","0.0-152.0","","","3-1","3990","38","1","Testing","Stims/Figures/102-J-10-4.bmp","mamana","Up","38","1","4","2","S","C","4"
"","","approach-retreat","153","1097882","0.0-153.0","","","3-1","4117","37","1","Testing","Stims/Figures/144-C-30-3.bmp","pa:pa:ta","Right","37","1","5","2","P","C","5"
"","","approach-retreat","154","1104033","0.0-154.0","","","3-1","4647","37","1","Testing","Stims/Figures/102-C-20-4.bmp","pa:pa:ta","Right","37","1","6","2","P","C","6"
"","","approach-retreat","155","1109671","0.0-155.0","","","3-1","4135","37","1","Testing","Stims/Figures/57-J-0-1.bmp","mamana","Left","37","1","7","2","S","C","7"
"","","approach-retreat","156","1115309","0.0-156.0","","","3-1","4134","37","1","Testing","Stims/Figures/93-C-30-1.bmp","pa:pa:ta","Right","37","1","8","2","P","C","8"
"","","approach-retreat","157","1120986","0.0-157.0","","","3-1","4173","38","1","Testing","Stims/Figures/93-J-0-1.bmp","mamana","Up","38","1","9","2","S","C","9"
"","","approach-retreat","158","1127650","0.0-158.0","","","3-1","5160","37","1","Testing","Stims/Figures/85-C-20-2.bmp","pa:pa:ta","Right","37","1","10","2","P","C","10"
"","","approach-retreat","159","1133454","0.0-159.0","","","3-1","4300","38","1","Testing","Stims/Figures/86-C-30-1.bmp","pa:pa:ta","Down","38","1","11","2","P","C","11"
"","","approach-retreat","160","1139088","0.0-160.0","","","3-1","4130","40","1","Testing","Stims/Figures/111-C-30-3.bmp","pa:pa:ta","Up","40","1","12","2","P","C","12"
"","","approach-retreat","161","1144586","0.0-161.0","","","3-1","3993","40","1","Testing","Stims/Figures/84-C-20-2.bmp","pa:pa:ta","Up","40","1","13","2","P","C","13"
"","","approach-retreat","162","1150240","0.0-162.0","","","3-1","4147","39","1","Testing","Stims/Figures/19-C-20-4.bmp","pa:pa:ta","Left","39","1","14","2","P","C","14"
"","","approach-retreat","163","1155874","0.0-163.0","","","3-1","4130","37","1","Testing","Stims/Figures/128-C-30-3.bmp","pa:pa:ta","Right","37","1","15","2","P","C","15"
"","","approach-retreat","164","1161386","0.0-164.0","","","3-1","4008","38","1","Testing","Stims/Figures/57-C-30-1.bmp","pa:pa:ta","Down","38","1","16","2","P","C","16"
"","","approach-retreat","165","1166876","0.0-165.0","","","3-1","3984","40","1","Testing","Stims/Figures/87-C-20-4.bmp","pa:pa:ta","Up","40","1","17","2","P","C","17"
"","","approach-retreat","166","1172669","0.0-166.0","","","3-1","4289","40","1","Testing","Stims/Figures/128-J-10-3.bmp","mamana","Down","40","1","18","2","S","C","18"
"","","approach-retreat","167","1179557","0.0-167.0","","","3-1","5381","40","1","Testing","Stims/Figures/87-J-10-4.bmp","mamana","Down","40","1","19","2","S","C","19"
"","","approach-retreat","168","1185199","0.0-168.0","","","3-1","4137","37","1","Testing","Stims/Figures/85-J-0-2.bmp","mamana","Left","37","1","20","2","S","C","20"
"","","approach-retreat","169","1190686","0.0-169.0","","","3-1","3983","39","0","Testing","Stims/Figures/19-J-10-4.bmp","mamana","Left","37","1","21","2","S","C","21"
"","","approach-retreat","170","1196530","0.0-170.0","","","3-1","4339","37","0","Testing","Stims/Figures/86-J-0-1.bmp","mamana","Right","39","1","22","2","S","C","22"
"","","approach-retreat","171","1202327","0.0-171.0","","","3-1","4294","37","1","Testing","Stims/Figures/118-J-0-2.bmp","mamana","Left","37","1","23","2","S","C","23"
"","","approach-retreat","172","1207987","0.0-172.0","","","3-1","4155","40","1","Testing","Stims/Figures/144-J-10-3.bmp","mamana","Down","40","1","24","2","S","C","24"
"","","approach-retreat","173","1213576","0.0-173.0","","","3-1","4085","38","1","Testing","Stims/Figures/128-J-10-3.bmp","mamana","Up","38","2","1","2","S","C","25"
"","","approach-retreat","174","1219259","0.0-174.0","","","3-1","4177","39","1","Testing","Stims/Figures/84-J-0-2.bmp","mamana","Right","39","2","2","2","S","C","26"
"","","approach-retreat","175","1224971","0.0-175.0","","","3-1","4208","39","1","Testing","Stims/Figures/85-C-20-2.bmp","pa:pa:ta","Left","39","2","3","2","P","C","27"
"","","approach-retreat","176","1230653","0.0-176.0","","","3-1","4179","38","1","Testing","Stims/Figures/86-C-30-1.bmp","pa:pa:ta","Down","38","2","4","2","P","C","28"
"","","approach-retreat","177","1236204","0.0-177.0","","","3-1","4047","37","1","Testing","Stims/Figures/93-J-0-1.bmp","mamana","Left","37","2","5","2","S","C","29"
"","","approach-retreat","178","1242338","0.0-178.0","","","3-1","4629","38","1","Testing","Stims/Figures/118-J-0-2.bmp","mamana","Up","38","2","6","2","S","C","30"
"","","approach-retreat","179","1247877","0.0-179.0","","","3-1","4035","40","1","Testing","Stims/Figures/111-C-30-3.bmp","pa:pa:ta","Up","40","2","7","2","P","C","31"
"","","approach-retreat","180","1254011","0.0-180.0","","","3-1","4629","39","1","Testing","Stims/Figures/19-C-20-4.bmp","pa:pa:ta","Left","39","2","8","2","P","C","32"
"","","approach-retreat","181","1259626","0.0-181.0","","","3-1","4110","37","1","Testing","Stims/Figures/144-J-10-3.bmp","mamana","Left","37","2","9","2","S","C","33"
"","","approach-retreat","182","1265248","0.0-182.0","","","3-1","4118","37","1","Testing","Stims/Figures/86-J-0-1.bmp","mamana","Left","37","2","10","2","S","C","34"
"","","approach-retreat","183","1272642","0.0-183.0","","","3-1","5890","40","1","Testing","Stims/Figures/102-C-20-4.bmp","pa:pa:ta","Up","40","2","11","2","P","C","35"
"","","approach-retreat","184","1279364","0.0-184.0","","","3-1","5218","40","1","Testing","Stims/Figures/111-J-10-3.bmp","mamana","Down","40","2","12","2","S","C","36"
"","","approach-retreat","185","1285205","0.0-185.0","","","3-1","4337","38","1","Testing","Stims/Figures/93-C-30-1.bmp","pa:pa:ta","Down","38","2","13","2","P","C","37"
"","","approach-retreat","186","1291860","0.0-186.0","","","3-1","5151","39","0","Testing","Stims/Figures/118-C-20-2.bmp","pa:pa:ta","Right","37","2","14","2","P","C","38"
"","","approach-retreat","187","1297545","0.0-187.0","","","3-1","4180","37","1","Testing","Stims/Figures/57-C-30-1.bmp","pa:pa:ta","Right","37","2","15","2","P","C","39"
"","","approach-retreat","188","1305461","0.0-188.0","","","3-1","6413","39","1","Testing","Stims/Figures/87-J-10-4.bmp","mamana","Right","39","2","16","2","S","C","40"
"","","approach-retreat","189","1312007","0.0-189.0","","","3-1","5040","39","1","Testing","Stims/Figures/19-J-10-4.bmp","mamana","Right","39","2","17","2","S","C","41"
"","","approach-retreat","190","1317852","0.0-190.0","","","3-1","4340","38","1","Testing","Stims/Figures/144-C-30-3.bmp","pa:pa:ta","Down","38","2","18","2","P","C","42"
"","","approach-retreat","191","1323523","0.0-191.0","","","3-1","4168","37","1","Testing","Stims/Figures/84-C-20-2.bmp","pa:pa:ta","Right","37","2","19","2","P","C","43"
"","","approach-retreat","192","1329132","0.0-192.0","","","3-1","4105","38","1","Testing","Stims/Figures/128-C-30-3.bmp","pa:pa:ta","Down","38","2","20","2","P","C","44"
"","","approach-retreat","193","1335011","0.0-193.0","","","3-1","4374","40","1","Testing","Stims/Figures/57-J-0-1.bmp","mamana","Down","40","2","21","2","S","C","45"
"","","approach-retreat","194","1340934","0.0-194.0","","","3-1","4419","38","1","Testing","Stims/Figures/85-J-0-2.bmp","mamana","Up","38","2","22","2","S","C","46"
"","","approach-retreat","195","1347191","0.0-195.0","","","3-1","4753","37","1","Testing","Stims/Figures/102-J-10-4.bmp","mamana","Left","37","2","23","2","S","C","47"
"","","approach-retreat","196","1352964","0.0-196.0","","","3-1","4267","40","1","Testing","Stims/Figures/87-C-20-4.bmp","pa:pa:ta","Up","40","2","24","2","P","C","48"
"","","approach-retreat","197","1358540","0.0-197.0","","","3-1","4073","37","1","Testing","Stims/Figures/86-J-0-1.bmp","mamana","Left","37","3","1","2","S","C","49"
"","","approach-retreat","198","1364060","0.0-198.0","","","3-1","4017","39","1","Testing","Stims/Figures/118-C-20-2.bmp","pa:pa:ta","Left","39","3","2","2","P","C","50"
"","","approach-retreat","199","1370235","0.0-199.0","","","3-1","4670","37","1","Testing","Stims/Figures/118-J-0-2.bmp","mamana","Left","37","3","3","2","S","C","51"
"","","approach-retreat","200","1375908","0.0-200.0","","","3-1","4169","40","0","Testing","Stims/Figures/111-J-10-3.bmp","mamana","Up","38","3","4","2","S","C","52"
"","","approach-retreat","201","1381921","0.0-201.0","","","3-1","4509","37","1","Testing","Stims/Figures/128-C-30-3.bmp","pa:pa:ta","Right","37","3","5","2","P","C","53"
"","","approach-retreat","202","1387418","0.0-202.0","","","3-1","3995","40","1","Testing","Stims/Figures/86-C-30-1.bmp","pa:pa:ta","Up","40","3","6","2","P","C","54"
"","","approach-retreat","203","1393026","0.0-203.0","","","3-1","4103","37","1","Testing","Stims/Figures/93-J-0-1.bmp","mamana","Left","37","3","7","2","S","C","55"
"","","approach-retreat","204","1399100","0.0-204.0","","","3-1","4571","37","1","Testing","Stims/Figures/57-C-30-1.bmp","pa:pa:ta","Right","37","3","8","2","P","C","56"
"","","approach-retreat","205","1404559","0.0-205.0","","","3-1","3957","38","1","Testing","Stims/Figures/87-C-20-4.bmp","pa:pa:ta","Down","38","3","9","2","P","C","57"
"","","approach-retreat","206","1410099","0.0-206.0","","","3-1","4034","38","1","Testing","Stims/Figures/19-C-20-4.bmp","pa:pa:ta","Down","38","3","10","2","P","C","58"
"","","approach-retreat","207","1415588","0.0-207.0","","","3-1","3986","39","1","Testing","Stims/Figures/111-C-30-3.bmp","pa:pa:ta","Left","39","3","11","2","P","C","59"
"","","approach-retreat","208","1421169","0.0-208.0","","","3-1","4076","37","0","Testing","Stims/Figures/128-J-10-3.bmp","mamana","Right","39","3","12","2","S","C","60"
"","","approach-retreat","209","1429195","0.0-209.0","","","3-1","6522","38","0","Testing","Stims/Figures/102-J-10-4.bmp","mamana","Down","40","3","13","2","S","C","61"
"","","approach-retreat","210","1434671","0.0-210.0","","","3-1","3972","37","1","Testing","Stims/Figures/85-C-20-2.bmp","pa:pa:ta","Right","37","3","14","2","P","C","62"
"","","approach-retreat","211","1440192","0.0-211.0","","","3-1","4018","40","1","Testing","Stims/Figures/84-C-20-2.bmp","pa:pa:ta","Up","40","3","15","2","P","C","63"
"","","approach-retreat","212","1446703","0.0-212.0","","","3-1","5006","37","1","Testing","Stims/Figures/84-J-0-2.bmp","mamana","Left","37","3","16","2","S","C","64"
"","","approach-retreat","213","1452230","0.0-213.0","","","3-1","4022","38","1","Testing","Stims/Figures/57-J-0-1.bmp","mamana","Up","38","3","17","2","S","C","65"
"","","approach-retreat","214","1457861","0.0-214.0","","","3-1","4127","40","0","Testing","Stims/Figures/19-J-10-4.bmp","mamana","Up","38","3","18","2","S","C","66"
"","","approach-retreat","215","1464555","0.0-215.0","","","3-1","5190","38","0","Testing","Stims/Figures/87-J-10-4.bmp","mamana","Down","40","3","19","2","S","C","67"
"","","approach-retreat","216","1470511","0.0-216.0","","","3-1","4452","38","1","Testing","Stims/Figures/102-C-20-4.bmp","pa:pa:ta","Down","38","3","20","2","P","C","68"
"","","approach-retreat","217","1476487","0.0-217.0","","","3-1","4472","37","1","Testing","Stims/Figures/144-C-30-3.bmp","pa:pa:ta","Right","37","3","21","2","P","C","69"
"","","approach-retreat","218","1482257","0.0-218.0","","","3-1","4266","38","1","Testing","Stims/Figures/85-J-0-2.bmp","mamana","Up","38","3","22","2","S","C","70"
"","","approach-retreat","219","1487708","0.0-219.0","","","3-1","3948","37","1","Testing","Stims/Figures/93-C-30-1.bmp","pa:pa:ta","Right","37","3","23","2","P","C","71"
"","","approach-retreat","220","1493245","0.0-220.0","","","3-1","4034","40","1","Testing","Stims/Figures/144-J-10-3.bmp","mamana","Down","40","3","24","2","S","C","72"
"","","approach-retreat","221","1501230","0.0-221.0","","","3-1","6479","39","0","Testing","Stims/Figures/87-J-10-4.bmp","mamana","Left","37","4","1","2","S","C","73"
"","","approach-retreat","222","1507211","0.0-222.0","","","3-1","4476","39","1","Testing","Stims/Figures/86-J-0-1.bmp","mamana","Right","39","4","2","2","S","C","74"
"","","approach-retreat","223","1512749","0.0-223.0","","","3-1","4032","39","1","Testing","Stims/Figures/118-C-20-2.bmp","pa:pa:ta","Left","39","4","3","2","P","C","75"
"","","approach-retreat","224","1519053","0.0-224.0","","","3-1","4799","37","1","Testing","Stims/Figures/144-C-30-3.bmp","pa:pa:ta","Right","37","4","4","2","P","C","76"
"","","approach-retreat","225","1524594","0.0-225.0","","","3-1","4037","37","1","Testing","Stims/Figures/87-C-20-4.bmp","pa:pa:ta","Right","37","4","5","2","P","C","77"
"","","approach-retreat","226","1530105","0.0-226.0","","","3-1","4008","40","1","Testing","Stims/Figures/57-J-0-1.bmp","mamana","Down","40","4","6","2","S","C","78"
"","","approach-retreat","227","1535610","0.0-227.0","","","3-1","4001","38","1","Testing","Stims/Figures/57-C-30-1.bmp","pa:pa:ta","Down","38","4","7","2","P","C","79"
"","","approach-retreat","228","1541439","0.0-228.0","","","3-1","4324","39","1","Testing","Stims/Figures/102-J-10-4.bmp","mamana","Right","39","4","8","2","S","C","80"
"","","approach-retreat","229","1547013","0.0-229.0","","","3-1","4068","39","1","Testing","Stims/Figures/102-C-20-4.bmp","pa:pa:ta","Left","39","4","9","2","P","C","81"
"","","approach-retreat","230","1552896","0.0-230.0","","","3-1","4378","40","1","Testing","Stims/Figures/84-C-20-2.bmp","pa:pa:ta","Up","40","4","10","2","P","C","82"
"","","approach-retreat","231","1561918","0.0-231.0","","","3-1","7517","40","1","Testing","Stims/Figures/111-J-10-3.bmp","mamana","Down","40","4","11","2","S","C","83"
"","","approach-retreat","232","1567725","0.0-232.0","","","3-1","4305","38","1","Testing","Stims/Figures/86-C-30-1.bmp","pa:pa:ta","Down","38","4","12","2","P","C","84"
"","","approach-retreat","233","1573918","0.0-233.0","","","3-1","4688","39","1","Testing","Stims/Figures/19-C-20-4.bmp","pa:pa:ta","Left","39","4","13","2","P","C","85"
"","","approach-retreat","234","1579300","0.0-234.0","","","3-1","3878","38","1","Testing","Stims/Figures/144-J-10-3.bmp","mamana","Up","38","4","14","2","S","C","86"
"","","approach-retreat","235","1584694","0.0-235.0","","","3-1","3889","39","1","Testing","Stims/Figures/93-C-30-1.bmp","pa:pa:ta","Left","39","4","15","2","P","C","87"
"","","approach-retreat","236","1590205","0.0-236.0","","","3-1","4005","38","1","Testing","Stims/Figures/84-J-0-2.bmp","mamana","Up","38","4","16","2","S","C","88"
"","","approach-retreat","237","1597575","0.0-237.0","","","3-1","5868","39","1","Testing","Stims/Figures/128-J-10-3.bmp","mamana","Right","39","4","17","2","S","C","89"
"","","approach-retreat","238","1603496","0.0-238.0","","","3-1","4416","39","1","Testing","Stims/Figures/111-C-30-3.bmp","pa:pa:ta","Left","39","4","18","2","P","C","90"
"","","approach-retreat","239","1608932","0.0-239.0","","","3-1","3933","38","1","Testing","Stims/Figures/85-J-0-2.bmp","mamana","Up","38","4","19","2","S","C","91"
"","","approach-retreat","240","1614476","0.0-240.0","","","3-1","4041","40","1","Testing","Stims/Figures/118-J-0-2.bmp","mamana","Down","40","4","20","2","S","C","92"
"","","approach-retreat","241","1621977","0.0-241.0","","","3-1","5996","40","0","Testing","Stims/Figures/128-C-30-3.bmp","pa:pa:ta","Down","38","4","21","2","P","C","93"
"","","approach-retreat","242","1627945","0.0-242.0","","","3-1","4463","40","0","Testing","Stims/Figures/93-J-0-1.bmp","mamana","Up","38","4","22","2","S","C","94"
"","","approach-retreat","243","1634667","0.0-243.0","","","3-1","5218","37","0","Testing","Stims/Figures/19-J-10-4.bmp","mamana","Right","39","4","23","2","S","C","95"
"","","approach-retreat","244","1640191","0.0-244.0","","","3-1","4020","40","1","Testing","Stims/Figures/85-C-20-2.bmp","pa:pa:ta","Up","40","4","24","2","P","C","96"
"33276","","survey-text","245","1673470","0.0-245.0","","{""Q0"":""""}","","","","","","","","","","","","","","",""
