"rt","key_press","trial_type","trial_index","time_elapsed","internal_node_id","view_history","responses","Id","Rt","ResKeyCode","ResCorr","TrialType2","Image","Label","Location","CorrectResponse","Block","BlockTrial","Condition","LabelType","Subcondition","trialNum"
"4115","32","text","0","4131","0.0-0.0-0.0","","","","","","","","","","","","","","","","",""
"18914","","instructions","1","23049","0.0-1.0","[{""page_index"":0,""viewing_time"":18913}]","","","","","","","","","","","","","","","",""
"10710","","survey-multi-choice","2","33824","0.0-2.0","","{""Q0"":""Da"",""Q1"":""Da"",""Q2"":""Da"",""Q3"":""Da"",""Q4"":""Da"",""Q5"":""Da""}","","","","","","","","","","","","","","",""
"","","bio","3","39224","0.0-3.0","","{""age"":""19"",""gender"":""f"",""specify"":""""}","","","","","","","","","","","","","","",""
"","","approach-retreat","4","46771","0.0-4.0","","","1-2","6032","39","1","Training","Stims/Figures/93-J-0-1.bmp","papa:ta","Left","39","1","1","1","P","J","1"
"","","approach-retreat","5","54327","0.0-5.0","","","1-2","6031","38","0","Training","Stims/Figures/139-C-20-2.bmp","ma:la:la","Down","40","1","2","1","S","J","2"
"","","approach-retreat","6","60506","0.0-6.0","","","1-2","4653","37","1","Training","Stims/Figures/94-J-0-2.bmp","papa:ta","Right","37","1","3","1","P","J","3"
"","","approach-retreat","7","66696","0.0-7.0","","","1-2","4656","39","0","Training","Stims/Figures/57-C-30-1.bmp","ma:la:la","Left","37","1","4","1","S","J","4"
"","","approach-retreat","8","73079","0.0-8.0","","","1-2","4871","39","1","Training","Stims/Figures/128-J-10-3.bmp","papa:ta","Left","39","1","5","1","P","J","5"
"","","approach-retreat","9","78832","0.0-9.0","","","1-2","4241","38","1","Training","Stims/Figures/44-J-10-3.bmp","papa:ta","Down","38","1","6","1","P","J","6"
"","","approach-retreat","10","85513","0.0-10.0","","","1-2","5170","38","1","Training","Stims/Figures/44-C-30-3.bmp","ma:la:la","Up","38","1","7","1","S","J","7"
"","","approach-retreat","11","92405","0.0-11.0","","","1-2","5367","37","1","Training","Stims/Figures/7-J-10-4.bmp","papa:ta","Right","37","1","8","1","P","J","8"
"","","approach-retreat","12","98482","0.0-12.0","","","1-2","4566","40","1","Training","Stims/Figures/128-C-30-3.bmp","ma:la:la","Down","40","1","9","1","S","J","9"
"","","approach-retreat","13","104419","0.0-13.0","","","1-2","4421","40","1","Training","Stims/Figures/57-J-0-1.bmp","papa:ta","Up","40","1","10","1","P","J","10"
"","","approach-retreat","14","111097","0.0-14.0","","","1-2","5155","37","1","Training","Stims/Figures/94-C-20-2.bmp","ma:la:la","Left","37","1","11","1","S","J","11"
"","","approach-retreat","15","118140","0.0-15.0","","","1-2","5513","38","0","Training","Stims/Figures/87-J-10-4.bmp","papa:ta","Up","40","1","12","1","P","J","12"
"","","approach-retreat","16","124179","0.0-16.0","","","1-2","4528","39","1","Training","Stims/Figures/93-C-30-1.bmp","ma:la:la","Right","39","1","13","1","S","J","13"
"","","approach-retreat","17","130054","0.0-17.0","","","1-2","4363","37","1","Training","Stims/Figures/139-J-0-2.bmp","papa:ta","Right","37","1","14","1","P","J","14"
"","","approach-retreat","18","136777","0.0-18.0","","","1-2","5201","38","1","Training","Stims/Figures/87-C-20-4.bmp","ma:la:la","Up","38","1","15","1","S","J","15"
"","","approach-retreat","19","143167","0.0-19.0","","","1-2","4874","40","1","Training","Stims/Figures/7-C-20-4.bmp","ma:la:la","Down","40","1","16","1","S","J","16"
"","","approach-retreat","20","149860","0.0-20.0","","","1-2","5178","40","1","Training","Stims/Figures/94-J-0-2.bmp","papa:ta","Up","40","2","1","1","P","J","17"
"","","approach-retreat","21","156678","0.0-21.0","","","1-2","5258","39","1","Training","Stims/Figures/7-C-20-4.bmp","ma:la:la","Right","39","2","2","1","S","J","18"
"","","approach-retreat","22","162430","0.0-22.0","","","1-2","4232","38","1","Training","Stims/Figures/87-J-10-4.bmp","papa:ta","Down","38","2","3","1","P","J","19"
"","","approach-retreat","23","168748","0.0-23.0","","","1-2","4785","37","1","Training","Stims/Figures/93-C-30-1.bmp","ma:la:la","Left","37","2","4","1","S","J","20"
"","","approach-retreat","24","174622","0.0-24.0","","","1-2","4359","37","1","Training","Stims/Figures/128-C-30-3.bmp","ma:la:la","Left","37","2","5","1","S","J","21"
"","","approach-retreat","25","180500","0.0-25.0","","","1-2","4346","40","1","Training","Stims/Figures/93-J-0-1.bmp","papa:ta","Up","40","2","6","1","P","J","22"
"","","approach-retreat","26","186457","0.0-26.0","","","1-2","4444","38","1","Training","Stims/Figures/94-C-20-2.bmp","ma:la:la","Up","38","2","7","1","S","J","23"
"","","approach-retreat","27","192250","0.0-27.0","","","1-2","4279","37","1","Training","Stims/Figures/44-J-10-3.bmp","papa:ta","Right","37","2","8","1","P","J","24"
"","","approach-retreat","28","197960","0.0-28.0","","","1-2","4174","37","1","Training","Stims/Figures/7-J-10-4.bmp","papa:ta","Right","37","2","9","1","P","J","25"
"","","approach-retreat","29","204136","0.0-29.0","","","1-2","4645","37","1","Training","Stims/Figures/139-C-20-2.bmp","ma:la:la","Left","37","2","10","1","S","J","26"
"","","approach-retreat","30","210428","0.0-30.0","","","1-2","4779","38","1","Training","Stims/Figures/44-C-30-3.bmp","ma:la:la","Up","38","2","11","1","S","J","27"
"","","approach-retreat","31","216343","0.0-31.0","","","1-2","4394","37","1","Training","Stims/Figures/87-C-20-4.bmp","ma:la:la","Left","37","2","12","1","S","J","28"
"","","approach-retreat","32","222902","0.0-32.0","","","1-2","5027","38","1","Training","Stims/Figures/128-J-10-3.bmp","papa:ta","Down","38","2","13","1","P","J","29"
"","","approach-retreat","33","229568","0.0-33.0","","","1-2","5152","37","1","Training","Stims/Figures/139-J-0-2.bmp","papa:ta","Right","37","2","14","1","P","J","30"
"","","approach-retreat","34","237024","0.0-34.0","","","1-2","5920","40","1","Training","Stims/Figures/57-C-30-1.bmp","ma:la:la","Down","40","2","15","1","S","J","31"
"","","approach-retreat","35","243011","0.0-35.0","","","1-2","4461","38","1","Training","Stims/Figures/57-J-0-1.bmp","papa:ta","Down","38","2","16","1","P","J","32"
"","","approach-retreat","36","248982","0.0-36.0","","","1-2","4453","40","1","Training","Stims/Figures/128-J-10-3.bmp","papa:ta","Up","40","3","1","1","P","J","33"
"","","approach-retreat","37","254740","0.0-37.0","","","1-2","4227","39","1","Training","Stims/Figures/7-J-10-4.bmp","papa:ta","Left","39","3","2","1","P","J","34"
"","","approach-retreat","38","261948","0.0-38.0","","","1-2","5696","39","1","Training","Stims/Figures/57-C-30-1.bmp","ma:la:la","Right","39","3","3","1","S","J","35"
"","","approach-retreat","39","270402","0.0-39.0","","","1-2","6930","38","1","Training","Stims/Figures/139-C-20-2.bmp","ma:la:la","Up","38","3","4","1","S","J","36"
"","","approach-retreat","40","276721","0.0-40.0","","","1-2","4810","38","1","Training","Stims/Figures/93-J-0-1.bmp","papa:ta","Down","38","3","5","1","P","J","37"
"","","approach-retreat","41","283080","0.0-41.0","","","1-2","4810","40","0","Training","Stims/Figures/94-C-20-2.bmp","ma:la:la","Up","38","3","6","1","S","J","38"
"","","approach-retreat","42","288876","0.0-42.0","","","1-2","4265","37","1","Training","Stims/Figures/87-J-10-4.bmp","papa:ta","Right","37","3","7","1","P","J","39"
"","","approach-retreat","43","295363","0.0-43.0","","","1-2","4960","39","1","Training","Stims/Figures/128-C-30-3.bmp","ma:la:la","Right","39","3","8","1","S","J","40"
"","","approach-retreat","44","301153","0.0-44.0","","","1-2","4265","38","1","Training","Stims/Figures/57-J-0-1.bmp","papa:ta","Down","38","3","9","1","P","J","41"
"","","approach-retreat","45","307392","0.0-45.0","","","1-2","4691","38","1","Training","Stims/Figures/94-J-0-2.bmp","papa:ta","Down","38","3","10","1","P","J","42"
"","","approach-retreat","46","313473","0.0-46.0","","","1-2","4536","37","1","Training","Stims/Figures/93-C-30-1.bmp","ma:la:la","Left","37","3","11","1","S","J","43"
"","","approach-retreat","47","320363","0.0-47.0","","","1-2","5373","37","1","Training","Stims/Figures/139-J-0-2.bmp","papa:ta","Right","37","3","12","1","P","J","44"
"","","approach-retreat","48","326561","0.0-48.0","","","1-2","4682","39","1","Training","Stims/Figures/44-J-10-3.bmp","papa:ta","Left","39","3","13","1","P","J","45"
"","","approach-retreat","49","333419","0.0-49.0","","","1-2","5306","40","1","Training","Stims/Figures/7-C-20-4.bmp","ma:la:la","Down","40","3","14","1","S","J","46"
"","","approach-retreat","50","340286","0.0-50.0","","","1-2","5319","37","1","Training","Stims/Figures/87-C-20-4.bmp","ma:la:la","Left","37","3","15","1","S","J","47"
"","","approach-retreat","51","347541","0.0-51.0","","","1-2","5700","38","1","Training","Stims/Figures/44-C-30-3.bmp","ma:la:la","Up","38","3","16","1","S","J","48"
"","","approach-retreat","52","353640","0.0-52.0","","","1-2","4586","37","1","Training","Stims/Figures/128-C-30-3.bmp","ma:la:la","Left","37","4","1","1","S","J","49"
"","","approach-retreat","53","359829","0.0-53.0","","","1-2","4679","39","1","Training","Stims/Figures/57-J-0-1.bmp","papa:ta","Left","39","4","2","1","P","J","50"
"","","approach-retreat","54","365514","0.0-54.0","","","1-2","4168","37","1","Training","Stims/Figures/93-C-30-1.bmp","ma:la:la","Left","37","4","3","1","S","J","51"
"","","approach-retreat","55","371271","0.0-55.0","","","1-2","4245","38","1","Training","Stims/Figures/139-J-0-2.bmp","papa:ta","Down","38","4","4","1","P","J","52"
"","","approach-retreat","56","376949","0.0-56.0","","","1-2","4153","38","1","Training","Stims/Figures/7-J-10-4.bmp","papa:ta","Down","38","4","5","1","P","J","53"
"","","approach-retreat","57","383279","0.0-57.0","","","1-2","4818","37","1","Training","Stims/Figures/7-C-20-4.bmp","ma:la:la","Left","37","4","6","1","S","J","54"
"","","approach-retreat","58","390969","0.0-58.0","","","1-2","6159","38","1","Training","Stims/Figures/94-C-20-2.bmp","ma:la:la","Up","38","4","7","1","S","J","55"
"","","approach-retreat","59","396791","0.0-59.0","","","1-2","4306","37","1","Training","Stims/Figures/94-J-0-2.bmp","papa:ta","Right","37","4","8","1","P","J","56"
"","","approach-retreat","60","403091","0.0-60.0","","","1-2","4774","40","1","Training","Stims/Figures/44-J-10-3.bmp","papa:ta","Up","40","4","9","1","P","J","57"
"","","approach-retreat","61","409652","0.0-61.0","","","1-2","5046","39","1","Training","Stims/Figures/57-C-30-1.bmp","ma:la:la","Right","39","4","10","1","S","J","58"
"","","approach-retreat","62","415432","0.0-62.0","","","1-2","4259","40","1","Training","Stims/Figures/128-J-10-3.bmp","papa:ta","Up","40","4","11","1","P","J","59"
"","","approach-retreat","63","421434","0.0-63.0","","","1-2","4490","40","1","Training","Stims/Figures/87-J-10-4.bmp","papa:ta","Up","40","4","12","1","P","J","60"
"","","approach-retreat","64","427016","0.0-64.0","","","1-2","4069","37","1","Training","Stims/Figures/93-J-0-1.bmp","papa:ta","Right","37","4","13","1","P","J","61"
"","","approach-retreat","65","433027","0.0-65.0","","","1-2","4496","40","1","Training","Stims/Figures/87-C-20-4.bmp","ma:la:la","Down","40","4","14","1","S","J","62"
"","","approach-retreat","66","440519","0.0-66.0","","","1-2","5980","40","1","Training","Stims/Figures/139-C-20-2.bmp","ma:la:la","Down","40","4","15","1","S","J","63"
"","","approach-retreat","67","446729","0.0-67.0","","","1-2","4699","39","1","Training","Stims/Figures/44-C-30-3.bmp","ma:la:la","Right","39","4","16","1","S","J","64"
"","","approach-retreat","68","452461","0.0-68.0","","","1-2","4181","38","1","Training","Stims/Figures/139-J-0-2.bmp","papa:ta","Down","38","5","1","1","P","J","65"
"","","approach-retreat","69","458980","0.0-69.0","","","1-2","5007","37","1","Training","Stims/Figures/87-C-20-4.bmp","ma:la:la","Left","37","5","2","1","S","J","66"
"","","approach-retreat","70","465464","0.0-70.0","","","1-2","4971","37","1","Training","Stims/Figures/139-C-20-2.bmp","ma:la:la","Left","37","5","3","1","S","J","67"
"","","approach-retreat","71","471139","0.0-71.0","","","1-2","4165","40","1","Training","Stims/Figures/44-J-10-3.bmp","papa:ta","Up","40","5","4","1","P","J","68"
"","","approach-retreat","72","477198","0.0-72.0","","","1-2","4547","38","1","Training","Stims/Figures/94-C-20-2.bmp","ma:la:la","Up","38","5","5","1","S","J","69"
"","","approach-retreat","73","483108","0.0-73.0","","","1-2","4350","37","1","Training","Stims/Figures/94-J-0-2.bmp","papa:ta","Right","37","5","6","1","P","J","70"
"","","approach-retreat","74","489090","0.0-74.0","","","1-2","4470","39","1","Training","Stims/Figures/44-C-30-3.bmp","ma:la:la","Right","39","5","7","1","S","J","71"
"","","approach-retreat","75","495535","0.0-75.0","","","1-2","4934","40","1","Training","Stims/Figures/7-J-10-4.bmp","papa:ta","Up","40","5","8","1","P","J","72"
"","","approach-retreat","76","502398","0.0-76.0","","","1-2","5349","40","1","Training","Stims/Figures/57-J-0-1.bmp","papa:ta","Up","40","5","9","1","P","J","73"
"","","approach-retreat","77","508243","0.0-77.0","","","1-2","4313","38","1","Training","Stims/Figures/87-J-10-4.bmp","papa:ta","Down","38","5","10","1","P","J","74"
"","","approach-retreat","78","513929","0.0-78.0","","","1-2","4154","39","1","Training","Stims/Figures/128-J-10-3.bmp","papa:ta","Left","39","5","11","1","P","J","75"
"","","approach-retreat","79","519771","0.0-79.0","","","1-2","4299","37","1","Training","Stims/Figures/93-J-0-1.bmp","papa:ta","Right","37","5","12","1","P","J","76"
"","","approach-retreat","80","526827","0.0-80.0","","","1-2","5545","37","1","Training","Stims/Figures/57-C-30-1.bmp","ma:la:la","Left","37","5","13","1","S","J","77"
"","","approach-retreat","81","533018","0.0-81.0","","","1-2","4661","40","1","Training","Stims/Figures/128-C-30-3.bmp","ma:la:la","Down","40","5","14","1","S","J","78"
"","","approach-retreat","82","539238","0.0-82.0","","","1-2","4689","40","1","Training","Stims/Figures/7-C-20-4.bmp","ma:la:la","Down","40","5","15","1","S","J","79"
"","","approach-retreat","83","545568","0.0-83.0","","","1-2","4812","39","1","Training","Stims/Figures/93-C-30-1.bmp","ma:la:la","Right","39","5","16","1","S","J","80"
"","","approach-retreat","84","551759","0.0-84.0","","","1-2","4662","40","1","Training","Stims/Figures/7-C-20-4.bmp","ma:la:la","Down","40","6","1","1","S","J","81"
"","","approach-retreat","85","558845","0.0-85.0","","","1-2","5555","40","1","Training","Stims/Figures/94-J-0-2.bmp","papa:ta","Up","40","6","2","1","P","J","82"
"","","approach-retreat","86","565454","0.0-86.0","","","1-2","5095","39","1","Training","Stims/Figures/57-C-30-1.bmp","ma:la:la","Right","39","6","3","1","S","J","83"
"","","approach-retreat","87","571584","0.0-87.0","","","1-2","4598","37","1","Training","Stims/Figures/44-C-30-3.bmp","ma:la:la","Left","37","6","4","1","S","J","84"
"","","approach-retreat","88","577238","0.0-88.0","","","1-2","4129","40","1","Training","Stims/Figures/7-J-10-4.bmp","papa:ta","Up","40","6","5","1","P","J","85"
"","","approach-retreat","89","583029","0.0-89.0","","","1-2","4251","39","1","Training","Stims/Figures/139-C-20-2.bmp","ma:la:la","Right","39","6","6","1","S","J","86"
"","","approach-retreat","90","588966","0.0-90.0","","","1-2","4424","39","1","Training","Stims/Figures/93-J-0-1.bmp","papa:ta","Left","39","6","7","1","P","J","87"
"","","approach-retreat","91","595421","0.0-91.0","","","1-2","4946","38","1","Training","Stims/Figures/128-J-10-3.bmp","papa:ta","Down","38","6","8","1","P","J","88"
"","","approach-retreat","92","601077","0.0-92.0","","","1-2","4147","38","1","Training","Stims/Figures/44-J-10-3.bmp","papa:ta","Down","38","6","9","1","P","J","89"
"","","approach-retreat","93","606940","0.0-93.0","","","1-2","4351","40","1","Training","Stims/Figures/94-C-20-2.bmp","ma:la:la","Down","40","6","10","1","S","J","90"
"","","approach-retreat","94","613534","0.0-94.0","","","1-2","5081","37","1","Training","Stims/Figures/128-C-30-3.bmp","ma:la:la","Left","37","6","11","1","S","J","91"
"","","approach-retreat","95","620370","0.0-95.0","","","1-2","5324","39","1","Training","Stims/Figures/87-C-20-4.bmp","ma:la:la","Right","39","6","12","1","S","J","92"
"","","approach-retreat","96","626059","0.0-96.0","","","1-2","4173","40","1","Training","Stims/Figures/57-J-0-1.bmp","papa:ta","Up","40","6","13","1","P","J","93"
"","","approach-retreat","97","632590","0.0-97.0","","","1-2","5004","38","1","Training","Stims/Figures/93-C-30-1.bmp","ma:la:la","Up","38","6","14","1","S","J","94"
"","","approach-retreat","98","638373","0.0-98.0","","","1-2","4259","37","1","Training","Stims/Figures/87-J-10-4.bmp","papa:ta","Right","37","6","15","1","P","J","95"
"","","approach-retreat","99","644791","0.0-99.0","","","1-2","4887","39","1","Training","Stims/Figures/139-J-0-2.bmp","papa:ta","Left","39","6","16","1","P","J","96"
"","","approach-retreat","100","650458","0.0-100.0","","","1-2","4136","37","1","Training","Stims/Figures/87-J-10-4.bmp","papa:ta","Right","37","7","1","1","P","J","97"
"","","approach-retreat","101","656178","0.0-101.0","","","1-2","4188","40","1","Training","Stims/Figures/94-J-0-2.bmp","papa:ta","Up","40","7","2","1","P","J","98"
"","","approach-retreat","102","662624","0.0-102.0","","","1-2","4918","38","1","Training","Stims/Figures/139-J-0-2.bmp","papa:ta","Down","38","7","3","1","P","J","99"
"","","approach-retreat","103","668174","0.0-103.0","","","1-2","4013","39","1","Training","Stims/Figures/128-J-10-3.bmp","papa:ta","Left","39","7","4","1","P","J","100"
"","","approach-retreat","104","674408","0.0-104.0","","","1-2","4716","39","1","Training","Stims/Figures/44-C-30-3.bmp","ma:la:la","Right","39","7","5","1","S","J","101"
"","","approach-retreat","105","680467","0.0-105.0","","","1-2","4545","38","1","Training","Stims/Figures/93-J-0-1.bmp","papa:ta","Down","38","7","6","1","P","J","102"
"","","approach-retreat","106","686524","0.0-106.0","","","1-2","4531","39","1","Training","Stims/Figures/7-J-10-4.bmp","papa:ta","Left","39","7","7","1","P","J","103"
"","","approach-retreat","107","692678","0.0-107.0","","","1-2","4632","39","1","Training","Stims/Figures/139-C-20-2.bmp","ma:la:la","Right","39","7","8","1","S","J","104"
"","","approach-retreat","108","698686","0.0-108.0","","","1-2","4484","37","1","Training","Stims/Figures/93-C-30-1.bmp","ma:la:la","Left","37","7","9","1","S","J","105"
"","","approach-retreat","109","706112","0.0-109.0","","","1-2","5903","38","1","Training","Stims/Figures/128-C-30-3.bmp","ma:la:la","Up","38","7","10","1","S","J","106"
"","","approach-retreat","110","711962","0.0-110.0","","","1-2","4320","39","1","Training","Stims/Figures/57-J-0-1.bmp","papa:ta","Left","39","7","11","1","P","J","107"
"","","approach-retreat","111","718452","0.0-111.0","","","1-2","4958","38","1","Training","Stims/Figures/44-J-10-3.bmp","papa:ta","Down","38","7","12","1","P","J","108"
"","","approach-retreat","112","725101","0.0-112.0","","","1-2","5116","38","1","Training","Stims/Figures/7-C-20-4.bmp","ma:la:la","Up","38","7","13","1","S","J","109"
"","","approach-retreat","113","731369","0.0-113.0","","","1-2","4735","40","1","Training","Stims/Figures/94-C-20-2.bmp","ma:la:la","Down","40","7","14","1","S","J","110"
"","","approach-retreat","114","737359","0.0-114.0","","","1-2","4455","38","1","Training","Stims/Figures/87-C-20-4.bmp","ma:la:la","Up","38","7","15","1","S","J","111"
"","","approach-retreat","115","743629","0.0-115.0","","","1-2","4744","39","1","Training","Stims/Figures/57-C-30-1.bmp","ma:la:la","Right","39","7","16","1","S","J","112"
"","","approach-retreat","116","749456","0.0-116.0","","","1-2","4303","38","1","Training","Stims/Figures/139-J-0-2.bmp","papa:ta","Down","38","8","1","1","P","J","113"
"","","approach-retreat","117","755514","0.0-117.0","","","1-2","4531","39","1","Training","Stims/Figures/57-C-30-1.bmp","ma:la:la","Right","39","8","2","1","S","J","114"
"","","approach-retreat","118","761240","0.0-118.0","","","1-2","4198","37","1","Training","Stims/Figures/57-J-0-1.bmp","papa:ta","Right","37","8","3","1","P","J","115"
"","","approach-retreat","119","768330","0.0-119.0","","","1-2","5562","38","1","Training","Stims/Figures/93-J-0-1.bmp","papa:ta","Down","38","8","4","1","P","J","116"
"","","approach-retreat","120","775231","0.0-120.0","","","1-2","5388","39","1","Training","Stims/Figures/87-J-10-4.bmp","papa:ta","Left","39","8","5","1","P","J","117"
"","","approach-retreat","121","782789","0.0-121.0","","","1-2","6033","38","1","Training","Stims/Figures/93-C-30-1.bmp","ma:la:la","Up","38","8","6","1","S","J","118"
"","","approach-retreat","122","788807","0.0-122.0","","","1-2","4501","37","1","Training","Stims/Figures/44-C-30-3.bmp","ma:la:la","Left","37","8","7","1","S","J","119"
"","","approach-retreat","123","795709","0.0-123.0","","","1-2","5390","40","1","Training","Stims/Figures/128-C-30-3.bmp","ma:la:la","Down","40","8","8","1","S","J","120"
"","","approach-retreat","124","802169","0.0-124.0","","","1-2","4932","40","1","Training","Stims/Figures/44-J-10-3.bmp","papa:ta","Up","40","8","9","1","P","J","121"
"","","approach-retreat","125","809984","0.0-125.0","","","1-2","6300","40","1","Training","Stims/Figures/94-J-0-2.bmp","papa:ta","Up","40","8","10","1","P","J","122"
"","","approach-retreat","126","816880","0.0-126.0","","","1-2","5376","40","1","Training","Stims/Figures/87-C-20-4.bmp","ma:la:la","Down","40","8","11","1","S","J","123"
"","","approach-retreat","127","823112","0.0-127.0","","","1-2","4707","39","1","Training","Stims/Figures/7-J-10-4.bmp","papa:ta","Left","39","8","12","1","P","J","124"
"","","approach-retreat","128","830779","0.0-128.0","","","1-2","6147","39","1","Training","Stims/Figures/139-C-20-2.bmp","ma:la:la","Right","39","8","13","1","S","J","125"
"","","approach-retreat","129","836570","0.0-129.0","","","1-2","4261","37","1","Training","Stims/Figures/128-J-10-3.bmp","papa:ta","Right","37","8","14","1","P","J","126"
"","","approach-retreat","130","844438","0.0-130.0","","","1-2","6341","38","1","Training","Stims/Figures/7-C-20-4.bmp","ma:la:la","Up","38","8","15","1","S","J","127"
"","","approach-retreat","131","850963","0.0-131.0","","","1-2","5006","37","1","Training","Stims/Figures/94-C-20-2.bmp","ma:la:la","Left","37","8","16","1","S","J","128"
"","","approach-retreat","132","857114","0.0-132.0","","","1-2","4631","39","1","Training","Stims/Figures/139-J-0-2.bmp","papa:ta","Left","39","9","1","1","P","J","129"
"","","approach-retreat","133","863226","0.0-133.0","","","1-2","4588","37","1","Training","Stims/Figures/7-J-10-4.bmp","papa:ta","Right","37","9","2","1","P","J","130"
"","","approach-retreat","134","870012","0.0-134.0","","","1-2","5273","38","0","Training","Stims/Figures/94-C-20-2.bmp","ma:la:la","Down","40","9","3","1","S","J","131"
"","","approach-retreat","135","876074","0.0-135.0","","","1-2","4552","38","1","Training","Stims/Figures/87-C-20-4.bmp","ma:la:la","Up","38","9","4","1","S","J","132"
"","","approach-retreat","136","881925","0.0-136.0","","","1-2","4326","38","1","Training","Stims/Figures/87-J-10-4.bmp","papa:ta","Down","38","9","5","1","P","J","133"
"","","approach-retreat","137","887885","0.0-137.0","","","1-2","4445","37","1","Training","Stims/Figures/93-C-30-1.bmp","ma:la:la","Left","37","9","6","1","S","J","134"
"","","approach-retreat","138","893606","0.0-138.0","","","1-2","4204","39","1","Training","Stims/Figures/128-J-10-3.bmp","papa:ta","Left","39","9","7","1","P","J","135"
"","","approach-retreat","139","900540","0.0-139.0","","","1-2","5410","40","1","Training","Stims/Figures/139-C-20-2.bmp","ma:la:la","Down","40","9","8","1","S","J","136"
"","","approach-retreat","140","906606","0.0-140.0","","","1-2","4551","38","1","Training","Stims/Figures/44-C-30-3.bmp","ma:la:la","Up","38","9","9","1","S","J","137"
"","","approach-retreat","141","913516","0.0-141.0","","","1-2","5376","37","1","Training","Stims/Figures/94-J-0-2.bmp","papa:ta","Right","37","9","10","1","P","J","138"
"","","approach-retreat","142","919809","0.0-142.0","","","1-2","4764","38","1","Training","Stims/Figures/128-C-30-3.bmp","ma:la:la","Up","38","9","11","1","S","J","139"
"","","approach-retreat","143","926977","0.0-143.0","","","1-2","5655","39","1","Training","Stims/Figures/57-C-30-1.bmp","ma:la:la","Right","39","9","12","1","S","J","140"
"","","approach-retreat","144","932740","0.0-144.0","","","1-2","4254","37","1","Training","Stims/Figures/57-J-0-1.bmp","papa:ta","Right","37","9","13","1","P","J","141"
"","","approach-retreat","145","939730","0.0-145.0","","","1-2","5471","40","1","Training","Stims/Figures/7-C-20-4.bmp","ma:la:la","Down","40","9","14","1","S","J","142"
"","","approach-retreat","146","945930","0.0-146.0","","","1-2","4667","39","1","Training","Stims/Figures/44-J-10-3.bmp","papa:ta","Left","39","9","15","1","P","J","143"
"","","approach-retreat","147","953113","0.0-147.0","","","1-2","5669","40","1","Training","Stims/Figures/93-J-0-1.bmp","papa:ta","Up","40","9","16","1","P","J","144"
"20750","","instructions","148","973864","0.0-148.0","[{""page_index"":0,""viewing_time"":20749}]","","","","","","","","","","","","","","","",""
"","","approach-retreat","149","981574","0.0-149.0","","","1-2","6181","37","0","Testing","Stims/Figures/94-C-20-2.bmp","ma:la:la","Right","39","1","1","1","S","J","1"
"","","approach-retreat","150","989029","0.0-150.0","","","1-2","5935","37","0","Testing","Stims/Figures/44-J-10-3.bmp","papa:ta","Left","39","1","2","1","P","J","2"
"","","approach-retreat","151","997454","0.0-151.0","","","1-2","6893","38","1","Testing","Stims/Figures/139-J-0-2.bmp","papa:ta","Down","38","1","3","1","P","J","3"
"","","approach-retreat","152","1007095","0.0-152.0","","","1-2","8114","40","1","Testing","Stims/Figures/144-C-30-3.bmp","ma:la:la","Down","40","1","4","1","S","J","4"
"","","approach-retreat","153","1015780","0.0-153.0","","","1-2","7171","40","1","Testing","Stims/Figures/71-J-0-1.bmp","papa:ta","Up","40","1","5","1","P","J","5"
"","","approach-retreat","154","1022849","0.0-154.0","","","1-2","5553","37","0","Testing","Stims/Figures/74-J-10-4.bmp","papa:ta","Left","39","1","6","1","P","J","6"
"","","approach-retreat","155","1029214","0.0-155.0","","","1-2","4844","38","0","Testing","Stims/Figures/94-J-0-2.bmp","papa:ta","Up","40","1","7","1","P","J","7"
"","","approach-retreat","156","1036253","0.0-156.0","","","1-2","5533","37","1","Testing","Stims/Figures/84-J-0-2.bmp","papa:ta","Right","37","1","8","1","P","J","8"
"","","approach-retreat","157","1043109","0.0-157.0","","","1-2","5331","37","1","Testing","Stims/Figures/71-C-30-1.bmp","ma:la:la","Left","37","1","9","1","S","J","9"
"","","approach-retreat","158","1050555","0.0-158.0","","","1-2","5936","39","0","Testing","Stims/Figures/128-J-10-3.bmp","papa:ta","Right","37","1","10","1","P","J","10"
"","","approach-retreat","159","1058841","0.0-159.0","","","1-2","6758","37","1","Testing","Stims/Figures/84-C-20-2.bmp","ma:la:la","Left","37","1","11","1","S","J","11"
"","","approach-retreat","160","1065194","0.0-160.0","","","1-2","4841","40","1","Testing","Stims/Figures/93-C-30-1.bmp","ma:la:la","Down","40","1","12","1","S","J","12"
"","","approach-retreat","161","1071007","0.0-161.0","","","1-2","4301","37","0","Testing","Stims/Figures/128-C-30-3.bmp","ma:la:la","Right","39","1","13","1","S","J","13"
"","","approach-retreat","162","1077823","0.0-162.0","","","1-2","5283","38","1","Testing","Stims/Figures/74-C-20-4.bmp","ma:la:la","Up","38","1","14","1","S","J","14"
"","","approach-retreat","163","1084914","0.0-163.0","","","1-2","5580","40","1","Testing","Stims/Figures/44-C-30-3.bmp","ma:la:la","Down","40","1","15","1","S","J","15"
"","","approach-retreat","164","1090985","0.0-164.0","","","1-2","4562","40","0","Testing","Stims/Figures/7-C-20-4.bmp","ma:la:la","Up","38","1","16","1","S","J","16"
"","","approach-retreat","165","1097204","0.0-165.0","","","1-2","4707","40","1","Testing","Stims/Figures/93-J-0-1.bmp","papa:ta","Up","40","1","17","1","P","J","17"
"","","approach-retreat","166","1103031","0.0-166.0","","","1-2","4316","37","1","Testing","Stims/Figures/87-J-10-4.bmp","papa:ta","Right","37","1","18","1","P","J","18"
"","","approach-retreat","167","1109041","0.0-167.0","","","1-2","4479","38","0","Testing","Stims/Figures/139-C-20-2.bmp","ma:la:la","Down","40","1","19","1","S","J","19"
"","","approach-retreat","168","1114919","0.0-168.0","","","1-2","4368","39","1","Testing","Stims/Figures/7-J-10-4.bmp","papa:ta","Left","39","1","20","1","P","J","20"
"","","approach-retreat","169","1121911","0.0-169.0","","","1-2","5481","38","1","Testing","Stims/Figures/87-C-20-4.bmp","ma:la:la","Up","38","1","21","1","S","J","21"
"","","approach-retreat","170","1128111","0.0-170.0","","","1-2","4671","37","0","Testing","Stims/Figures/57-J-0-1.bmp","papa:ta","Left","39","1","22","1","P","J","22"
"","","approach-retreat","171","1134815","0.0-171.0","","","1-2","5177","38","1","Testing","Stims/Figures/144-J-10-3.bmp","papa:ta","Down","38","1","23","1","P","J","23"
"","","approach-retreat","172","1140608","0.0-172.0","","","1-2","4277","37","0","Testing","Stims/Figures/57-C-30-1.bmp","ma:la:la","Right","39","1","24","1","S","J","24"
"","","approach-retreat","173","1146583","0.0-173.0","","","1-2","4466","39","0","Testing","Stims/Figures/128-J-10-3.bmp","papa:ta","Right","37","2","1","1","P","J","25"
"","","approach-retreat","174","1153390","0.0-174.0","","","1-2","5299","38","0","Testing","Stims/Figures/74-C-20-4.bmp","ma:la:la","Down","40","2","2","1","S","J","26"
"","","approach-retreat","175","1159810","0.0-175.0","","","1-2","4891","39","1","Testing","Stims/Figures/139-C-20-2.bmp","ma:la:la","Right","39","2","3","1","S","J","27"
"","","approach-retreat","176","1166234","0.0-176.0","","","1-2","4893","38","0","Testing","Stims/Figures/94-J-0-2.bmp","papa:ta","Up","40","2","4","1","P","J","28"
"","","approach-retreat","177","1172715","0.0-177.0","","","1-2","4951","37","1","Testing","Stims/Figures/84-J-0-2.bmp","papa:ta","Right","37","2","5","1","P","J","29"
"","","approach-retreat","178","1179271","0.0-178.0","","","1-2","5028","38","0","Testing","Stims/Figures/57-J-0-1.bmp","papa:ta","Up","40","2","6","1","P","J","30"
"","","approach-retreat","179","1185593","0.0-179.0","","","1-2","4791","37","0","Testing","Stims/Figures/144-J-10-3.bmp","papa:ta","Left","39","2","7","1","P","J","31"
"","","approach-retreat","180","1191379","0.0-180.0","","","1-2","4261","39","1","Testing","Stims/Figures/44-J-10-3.bmp","papa:ta","Left","39","2","8","1","P","J","32"
"","","approach-retreat","181","1197651","0.0-181.0","","","1-2","4746","39","1","Testing","Stims/Figures/71-J-0-1.bmp","papa:ta","Left","39","2","9","1","P","J","33"
"","","approach-retreat","182","1204685","0.0-182.0","","","1-2","5505","40","1","Testing","Stims/Figures/7-C-20-4.bmp","ma:la:la","Down","40","2","10","1","S","J","34"
"","","approach-retreat","183","1211190","0.0-183.0","","","1-2","4978","37","0","Testing","Stims/Figures/94-C-20-2.bmp","ma:la:la","Right","39","2","11","1","S","J","35"
"","","approach-retreat","184","1217503","0.0-184.0","","","1-2","4785","37","1","Testing","Stims/Figures/57-C-30-1.bmp","ma:la:la","Left","37","2","12","1","S","J","36"
"","","approach-retreat","185","1224187","0.0-185.0","","","1-2","5158","39","1","Testing","Stims/Figures/71-C-30-1.bmp","ma:la:la","Right","39","2","13","1","S","J","37"
"","","approach-retreat","186","1230167","0.0-186.0","","","1-2","4470","38","1","Testing","Stims/Figures/44-C-30-3.bmp","ma:la:la","Up","38","2","14","1","S","J","38"
"","","approach-retreat","187","1236466","0.0-187.0","","","1-2","4772","39","0","Testing","Stims/Figures/128-C-30-3.bmp","ma:la:la","Left","37","2","15","1","S","J","39"
"","","approach-retreat","188","1244172","0.0-188.0","","","1-2","6178","40","1","Testing","Stims/Figures/7-J-10-4.bmp","papa:ta","Up","40","2","16","1","P","J","40"
"","","approach-retreat","189","1250221","0.0-189.0","","","1-2","4522","38","0","Testing","Stims/Figures/93-J-0-1.bmp","papa:ta","Up","40","2","17","1","P","J","41"
"","","approach-retreat","190","1257629","0.0-190.0","","","1-2","5882","38","0","Testing","Stims/Figures/84-C-20-2.bmp","ma:la:la","Down","40","2","18","1","S","J","42"
"","","approach-retreat","191","1263675","0.0-191.0","","","1-2","4518","40","1","Testing","Stims/Figures/93-C-30-1.bmp","ma:la:la","Down","40","2","19","1","S","J","43"
"","","approach-retreat","192","1270975","0.0-192.0","","","1-2","5773","39","1","Testing","Stims/Figures/87-C-20-4.bmp","ma:la:la","Right","39","2","20","1","S","J","44"
"","","approach-retreat","193","1277786","0.0-193.0","","","1-2","5283","38","1","Testing","Stims/Figures/74-J-10-4.bmp","papa:ta","Down","38","2","21","1","P","J","45"
"","","approach-retreat","194","1284147","0.0-194.0","","","1-2","4834","40","0","Testing","Stims/Figures/87-J-10-4.bmp","papa:ta","Down","38","2","22","1","P","J","46"
"","","approach-retreat","195","1291313","0.0-195.0","","","1-2","5637","39","1","Testing","Stims/Figures/139-J-0-2.bmp","papa:ta","Left","39","2","23","1","P","J","47"
"","","approach-retreat","196","1299794","0.0-196.0","","","1-2","6955","40","0","Testing","Stims/Figures/144-C-30-3.bmp","ma:la:la","Up","38","2","24","1","S","J","48"
"","","approach-retreat","197","1305797","0.0-197.0","","","1-2","4474","37","1","Testing","Stims/Figures/139-J-0-2.bmp","papa:ta","Right","37","3","1","1","P","J","49"
"","","approach-retreat","198","1312585","0.0-198.0","","","1-2","5260","39","0","Testing","Stims/Figures/7-J-10-4.bmp","papa:ta","Right","37","3","2","1","P","J","50"
"","","approach-retreat","199","1318854","0.0-199.0","","","1-2","4740","38","1","Testing","Stims/Figures/44-J-10-3.bmp","papa:ta","Down","38","3","3","1","P","J","51"
"","","approach-retreat","200","1326277","0.0-200.0","","","1-2","5895","39","1","Testing","Stims/Figures/128-J-10-3.bmp","papa:ta","Left","39","3","4","1","P","J","52"
"","","approach-retreat","201","1332091","0.0-201.0","","","1-2","4287","37","0","Testing","Stims/Figures/87-J-10-4.bmp","papa:ta","Left","39","3","5","1","P","J","53"
"","","approach-retreat","202","1338173","0.0-202.0","","","1-2","4555","37","0","Testing","Stims/Figures/94-C-20-2.bmp","ma:la:la","Right","39","3","6","1","S","J","54"
"","","approach-retreat","203","1343996","0.0-203.0","","","1-2","4294","40","0","Testing","Stims/Figures/128-C-30-3.bmp","ma:la:la","Up","38","3","7","1","S","J","55"
"","","approach-retreat","204","1350015","0.0-204.0","","","1-2","4490","38","1","Testing","Stims/Figures/74-J-10-4.bmp","papa:ta","Down","38","3","8","1","P","J","56"
"","","approach-retreat","205","1355763","0.0-205.0","","","1-2","4219","38","0","Testing","Stims/Figures/139-C-20-2.bmp","ma:la:la","Down","40","3","9","1","S","J","57"
"","","approach-retreat","206","1361563","0.0-206.0","","","1-2","4272","37","1","Testing","Stims/Figures/57-J-0-1.bmp","papa:ta","Right","37","3","10","1","P","J","58"
"","","approach-retreat","207","1367783","0.0-207.0","","","1-2","4692","39","0","Testing","Stims/Figures/74-C-20-4.bmp","ma:la:la","Left","37","3","11","1","S","J","59"
"","","approach-retreat","208","1373501","0.0-208.0","","","1-2","4188","40","0","Testing","Stims/Figures/93-C-30-1.bmp","ma:la:la","Up","38","3","12","1","S","J","60"
"","","approach-retreat","209","1379781","0.0-209.0","","","1-2","4751","37","0","Testing","Stims/Figures/84-C-20-2.bmp","ma:la:la","Right","39","3","13","1","S","J","61"
"","","approach-retreat","210","1385558","0.0-210.0","","","1-2","4247","37","0","Testing","Stims/Figures/7-C-20-4.bmp","ma:la:la","Right","39","3","14","1","S","J","62"
"","","approach-retreat","211","1391286","0.0-211.0","","","1-2","4199","38","1","Testing","Stims/Figures/71-J-0-1.bmp","papa:ta","Down","38","3","15","1","P","J","63"
"","","approach-retreat","212","1397067","0.0-212.0","","","1-2","4255","39","0","Testing","Stims/Figures/144-C-30-3.bmp","ma:la:la","Left","37","3","16","1","S","J","64"
"","","approach-retreat","213","1402900","0.0-213.0","","","1-2","4305","40","1","Testing","Stims/Figures/84-J-0-2.bmp","papa:ta","Up","40","3","17","1","P","J","65"
"","","approach-retreat","214","1409064","0.0-214.0","","","1-2","4653","37","0","Testing","Stims/Figures/94-J-0-2.bmp","papa:ta","Left","39","3","18","1","P","J","66"
"","","approach-retreat","215","1414815","0.0-215.0","","","1-2","4226","38","1","Testing","Stims/Figures/144-J-10-3.bmp","papa:ta","Down","38","3","19","1","P","J","67"
"","","approach-retreat","216","1420791","0.0-216.0","","","1-2","4447","38","1","Testing","Stims/Figures/87-C-20-4.bmp","ma:la:la","Up","38","3","20","1","S","J","68"
"","","approach-retreat","217","1426486","0.0-217.0","","","1-2","4169","40","0","Testing","Stims/Figures/44-C-30-3.bmp","ma:la:la","Up","38","3","21","1","S","J","69"
"","","approach-retreat","218","1433299","0.0-218.0","","","1-2","5286","38","0","Testing","Stims/Figures/93-J-0-1.bmp","papa:ta","Up","40","3","22","1","P","J","70"
"","","approach-retreat","219","1439669","0.0-219.0","","","1-2","4844","39","0","Testing","Stims/Figures/57-C-30-1.bmp","ma:la:la","Left","37","3","23","1","S","J","71"
"","","approach-retreat","220","1445654","0.0-220.0","","","1-2","4455","38","0","Testing","Stims/Figures/71-C-30-1.bmp","ma:la:la","Down","40","3","24","1","S","J","72"
"","","approach-retreat","221","1451410","0.0-221.0","","","1-2","4227","40","0","Testing","Stims/Figures/74-C-20-4.bmp","ma:la:la","Up","38","4","1","1","S","J","73"
"","","approach-retreat","222","1457212","0.0-222.0","","","1-2","4274","38","0","Testing","Stims/Figures/84-C-20-2.bmp","ma:la:la","Down","40","4","2","1","S","J","74"
"","","approach-retreat","223","1462978","0.0-223.0","","","1-2","4238","40","1","Testing","Stims/Figures/87-J-10-4.bmp","papa:ta","Up","40","4","3","1","P","J","75"
"","","approach-retreat","224","1468721","0.0-224.0","","","1-2","4227","40","1","Testing","Stims/Figures/84-J-0-2.bmp","papa:ta","Up","40","4","4","1","P","J","76"
"","","approach-retreat","225","1474536","0.0-225.0","","","1-2","4285","37","0","Testing","Stims/Figures/144-C-30-3.bmp","ma:la:la","Right","39","4","5","1","S","J","77"
"","","approach-retreat","226","1480507","0.0-226.0","","","1-2","4442","39","1","Testing","Stims/Figures/44-C-30-3.bmp","ma:la:la","Right","39","4","6","1","S","J","78"
"","","approach-retreat","227","1486396","0.0-227.0","","","1-2","4360","38","0","Testing","Stims/Figures/94-C-20-2.bmp","ma:la:la","Down","40","4","7","1","S","J","79"
"","","approach-retreat","228","1492103","0.0-228.0","","","1-2","4180","40","1","Testing","Stims/Figures/74-J-10-4.bmp","papa:ta","Up","40","4","8","1","P","J","80"
"","","approach-retreat","229","1498540","0.0-229.0","","","1-2","4907","39","0","Testing","Stims/Figures/94-J-0-2.bmp","papa:ta","Right","37","4","9","1","P","J","81"
"","","approach-retreat","230","1504305","0.0-230.0","","","1-2","4238","40","0","Testing","Stims/Figures/71-J-0-1.bmp","papa:ta","Down","38","4","10","1","P","J","82"
"","","approach-retreat","231","1510777","0.0-231.0","","","1-2","4944","39","0","Testing","Stims/Figures/7-C-20-4.bmp","ma:la:la","Left","37","4","11","1","S","J","83"
"","","approach-retreat","232","1516945","0.0-232.0","","","1-2","4639","39","0","Testing","Stims/Figures/139-C-20-2.bmp","ma:la:la","Left","37","4","12","1","S","J","84"
"","","approach-retreat","233","1523559","0.0-233.0","","","1-2","5087","40","1","Testing","Stims/Figures/139-J-0-2.bmp","papa:ta","Up","40","4","13","1","P","J","85"
"","","approach-retreat","234","1530893","0.0-234.0","","","1-2","5806","39","0","Testing","Stims/Figures/87-C-20-4.bmp","ma:la:la","Left","37","4","14","1","S","J","86"
"","","approach-retreat","235","1537540","0.0-235.0","","","1-2","5122","38","1","Testing","Stims/Figures/144-J-10-3.bmp","papa:ta","Down","38","4","15","1","P","J","87"
"","","approach-retreat","236","1543365","0.0-236.0","","","1-2","4296","37","0","Testing","Stims/Figures/57-C-30-1.bmp","ma:la:la","Right","39","4","16","1","S","J","88"
"","","approach-retreat","237","1549585","0.0-237.0","","","1-2","4693","37","0","Testing","Stims/Figures/93-C-30-1.bmp","ma:la:la","Right","39","4","17","1","S","J","89"
"","","approach-retreat","238","1555555","0.0-238.0","","","1-2","4441","39","0","Testing","Stims/Figures/71-C-30-1.bmp","ma:la:la","Left","37","4","18","1","S","J","90"
"","","approach-retreat","239","1561353","0.0-239.0","","","1-2","4270","38","1","Testing","Stims/Figures/7-J-10-4.bmp","papa:ta","Down","38","4","19","1","P","J","91"
"","","approach-retreat","240","1569040","0.0-240.0","","","1-2","6159","39","0","Testing","Stims/Figures/93-J-0-1.bmp","papa:ta","Right","37","4","20","1","P","J","92"
"","","approach-retreat","241","1575769","0.0-241.0","","","1-2","5200","40","1","Testing","Stims/Figures/44-J-10-3.bmp","papa:ta","Up","40","4","21","1","P","J","93"
"","","approach-retreat","242","1582198","0.0-242.0","","","1-2","4901","39","1","Testing","Stims/Figures/57-J-0-1.bmp","papa:ta","Left","39","4","22","1","P","J","94"
"","","approach-retreat","243","1588080","0.0-243.0","","","1-2","4353","37","1","Testing","Stims/Figures/128-C-30-3.bmp","ma:la:la","Left","37","4","23","1","S","J","95"
"","","approach-retreat","244","1593926","0.0-244.0","","","1-2","4316","38","1","Testing","Stims/Figures/128-J-10-3.bmp","papa:ta","Down","38","4","24","1","P","J","96"
"35406","","survey-text","245","1629348","0.0-245.0","","{""Q0"":""1103/2018""}","","","","","","","","","","","","","","",""
