"rt","key_press","trial_type","trial_index","time_elapsed","internal_node_id","view_history","responses","Id","Rt","ResKeyCode","ResCorr","TrialType2","Image","Label","Location","CorrectResponse","Block","BlockTrial","Condition","LabelType","Subcondition","trialNum"
"27681","32","text","0","27689","0.0-0.0-0.0","","","","","","","","","","","","","","","","",""
"81282","","instructions","1","108975","0.0-1.0","[{""page_index"":0,""viewing_time"":81279}]","","","","","","","","","","","","","","","",""
"25353","","survey-multi-choice","2","134408","0.0-2.0","","{""Q0"":""Da"",""Q1"":""Da"",""Q2"":""Da"",""Q3"":""Da"",""Q4"":""Da"",""Q5"":""Da""}","","","","","","","","","","","","","","",""
"","","bio","3","142573","0.0-3.0","","{""age"":""23"",""gender"":""f"",""specify"":""""}","","","","","","","","","","","","","","",""
"","","approach-retreat","4","151366","0.0-4.0","","","1-3","7232","39","1","Training","Stims/Figures/118-J-0-2.bmp","fa:fasha","Left","39","1","1","3A","C1","J","1"
"","","approach-retreat","5","159398","0.0-5.0","","","1-3","6505","37","1","Training","Stims/Figures/93-J-0-1.bmp","fa:fasha","Right","37","1","2","3A","C1","J","2"
"","","approach-retreat","6","167244","0.0-6.0","","","1-3","6317","40","0","Training","Stims/Figures/87-C-20-4.bmp","zasaha","Up","38","1","3","3A","C2","J","3"
"","","approach-retreat","7","173543","0.0-7.0","","","1-3","4773","37","1","Training","Stims/Figures/102-J-10-4.bmp","fa:fasha","Right","37","1","4","3A","C1","J","4"
"","","approach-retreat","8","179951","0.0-8.0","","","1-3","4887","39","1","Training","Stims/Figures/44-J-10-3.bmp","fa:fasha","Left","39","1","5","3A","C1","J","5"
"","","approach-retreat","9","186226","0.0-9.0","","","1-3","4756","38","1","Training","Stims/Figures/87-J-10-4.bmp","fa:fasha","Down","38","1","6","3A","C1","J","6"
"","","approach-retreat","10","192082","0.0-10.0","","","1-3","4337","38","1","Training","Stims/Figures/27-J-0-1.bmp","fa:fasha","Down","38","1","7","3A","C1","J","7"
"","","approach-retreat","11","197968","0.0-11.0","","","1-3","4358","40","1","Training","Stims/Figures/144-J-10-3.bmp","fa:fasha","Up","40","1","8","3A","C1","J","8"
"","","approach-retreat","12","205380","0.0-12.0","","","1-3","5896","37","1","Training","Stims/Figures/102-C-20-4.bmp","zasaha","Left","37","1","9","3A","C2","J","9"
"","","approach-retreat","13","211748","0.0-13.0","","","1-3","4847","39","1","Training","Stims/Figures/27-C-30-1.bmp","zasaha","Right","39","1","10","3A","C2","J","10"
"","","approach-retreat","14","218721","0.0-14.0","","","1-3","5451","39","1","Training","Stims/Figures/118-C-20-2.bmp","zasaha","Right","39","1","11","3A","C2","J","11"
"","","approach-retreat","15","226297","0.0-15.0","","","1-3","6051","37","1","Training","Stims/Figures/93-C-30-1.bmp","zasaha","Left","37","1","12","3A","C2","J","12"
"","","approach-retreat","16","232900","0.0-16.0","","","1-3","5082","40","1","Training","Stims/Figures/44-C-30-3.bmp","zasaha","Down","40","1","13","3A","C2","J","13"
"","","approach-retreat","17","240091","0.0-17.0","","","1-3","5673","38","1","Training","Stims/Figures/144-C-30-3.bmp","zasaha","Up","38","1","14","3A","C2","J","14"
"","","approach-retreat","18","246012","0.0-18.0","","","1-3","4400","38","1","Training","Stims/Figures/139-J-0-2.bmp","fa:fasha","Down","38","1","15","3A","C1","J","15"
"","","approach-retreat","19","252701","0.0-19.0","","","1-3","5167","38","1","Training","Stims/Figures/139-C-20-2.bmp","zasaha","Up","38","1","16","3A","C2","J","16"
"","","approach-retreat","20","261688","0.0-20.0","","","1-3","7465","37","1","Training","Stims/Figures/44-J-10-3.bmp","fa:fasha","Right","37","2","1","3A","C1","J","17"
"","","approach-retreat","21","267466","0.0-21.0","","","1-3","4258","37","1","Training","Stims/Figures/144-J-10-3.bmp","fa:fasha","Right","37","2","2","3A","C1","J","18"
"","","approach-retreat","22","274078","0.0-22.0","","","1-3","5090","38","1","Training","Stims/Figures/118-C-20-2.bmp","zasaha","Up","38","2","3","3A","C2","J","19"
"","","approach-retreat","23","280678","0.0-23.0","","","1-3","5076","38","1","Training","Stims/Figures/44-C-30-3.bmp","zasaha","Up","38","2","4","3A","C2","J","20"
"","","approach-retreat","24","287235","0.0-24.0","","","1-3","5039","37","1","Training","Stims/Figures/102-J-10-4.bmp","fa:fasha","Right","37","2","5","3A","C1","J","21"
"","","approach-retreat","25","293700","0.0-25.0","","","1-3","4945","37","1","Training","Stims/Figures/102-C-20-4.bmp","zasaha","Left","37","2","6","3A","C2","J","22"
"","","approach-retreat","26","302036","0.0-26.0","","","1-3","6825","37","1","Training","Stims/Figures/139-J-0-2.bmp","fa:fasha","Right","37","2","7","3A","C1","J","23"
"","","approach-retreat","27","308231","0.0-27.0","","","1-3","4672","39","1","Training","Stims/Figures/118-J-0-2.bmp","fa:fasha","Left","39","2","8","3A","C1","J","24"
"","","approach-retreat","28","315445","0.0-28.0","","","1-3","5694","40","1","Training","Stims/Figures/87-J-10-4.bmp","fa:fasha","Up","40","2","9","3A","C1","J","25"
"","","approach-retreat","29","321984","0.0-29.0","","","1-3","5011","38","1","Training","Stims/Figures/144-C-30-3.bmp","zasaha","Up","38","2","10","3A","C2","J","26"
"","","approach-retreat","30","328547","0.0-30.0","","","1-3","5041","37","1","Training","Stims/Figures/139-C-20-2.bmp","zasaha","Left","37","2","11","3A","C2","J","27"
"","","approach-retreat","31","335127","0.0-31.0","","","1-3","5060","40","1","Training","Stims/Figures/87-C-20-4.bmp","zasaha","Down","40","2","12","3A","C2","J","28"
"","","approach-retreat","32","341983","0.0-32.0","","","1-3","5338","38","1","Training","Stims/Figures/27-J-0-1.bmp","fa:fasha","Down","38","2","13","3A","C1","J","29"
"","","approach-retreat","33","348099","0.0-33.0","","","1-3","4590","40","1","Training","Stims/Figures/93-C-30-1.bmp","zasaha","Down","40","2","14","3A","C2","J","30"
"","","approach-retreat","34","355809","0.0-34.0","","","1-3","6184","40","1","Training","Stims/Figures/27-C-30-1.bmp","zasaha","Down","40","2","15","3A","C2","J","31"
"","","approach-retreat","35","361878","0.0-35.0","","","1-3","4547","39","1","Training","Stims/Figures/93-J-0-1.bmp","fa:fasha","Left","39","2","16","3A","C1","J","32"
"","","approach-retreat","36","368873","0.0-36.0","","","1-3","5473","40","1","Training","Stims/Figures/139-C-20-2.bmp","zasaha","Down","40","3","1","3A","C2","J","33"
"","","approach-retreat","37","374602","0.0-37.0","","","1-3","4204","37","1","Training","Stims/Figures/118-C-20-2.bmp","zasaha","Left","37","3","2","3A","C2","J","34"
"","","approach-retreat","38","382195","0.0-38.0","","","1-3","6063","40","1","Training","Stims/Figures/118-J-0-2.bmp","fa:fasha","Up","40","3","3","3A","C1","J","35"
"","","approach-retreat","39","388377","0.0-39.0","","","1-3","4665","39","1","Training","Stims/Figures/144-C-30-3.bmp","zasaha","Right","39","3","4","3A","C2","J","36"
"","","approach-retreat","40","394366","0.0-40.0","","","1-3","4462","40","1","Training","Stims/Figures/102-C-20-4.bmp","zasaha","Down","40","3","5","3A","C2","J","37"
"","","approach-retreat","41","400700","0.0-41.0","","","1-3","4810","40","1","Training","Stims/Figures/87-J-10-4.bmp","fa:fasha","Up","40","3","6","3A","C1","J","38"
"","","approach-retreat","42","406731","0.0-42.0","","","1-3","4499","38","1","Training","Stims/Figures/102-J-10-4.bmp","fa:fasha","Down","38","3","7","3A","C1","J","39"
"","","approach-retreat","43","412538","0.0-43.0","","","1-3","4281","37","1","Training","Stims/Figures/139-J-0-2.bmp","fa:fasha","Right","37","3","8","3A","C1","J","40"
"","","approach-retreat","44","418457","0.0-44.0","","","1-3","4399","37","1","Training","Stims/Figures/87-C-20-4.bmp","zasaha","Left","37","3","9","3A","C2","J","41"
"","","approach-retreat","45","424402","0.0-45.0","","","1-3","4419","40","1","Training","Stims/Figures/27-C-30-1.bmp","zasaha","Down","40","3","10","3A","C2","J","42"
"","","approach-retreat","46","430239","0.0-46.0","","","1-3","4316","39","1","Training","Stims/Figures/27-J-0-1.bmp","fa:fasha","Left","39","3","11","3A","C1","J","43"
"","","approach-retreat","47","437648","0.0-47.0","","","1-3","5885","38","1","Training","Stims/Figures/44-C-30-3.bmp","zasaha","Up","38","3","12","3A","C2","J","44"
"","","approach-retreat","48","445226","0.0-48.0","","","1-3","6057","38","1","Training","Stims/Figures/93-C-30-1.bmp","zasaha","Up","38","3","13","3A","C2","J","45"
"","","approach-retreat","49","451259","0.0-49.0","","","1-3","4510","37","1","Training","Stims/Figures/44-J-10-3.bmp","fa:fasha","Right","37","3","14","3A","C1","J","46"
"","","approach-retreat","50","458378","0.0-50.0","","","1-3","5597","37","1","Training","Stims/Figures/144-J-10-3.bmp","fa:fasha","Right","37","3","15","3A","C1","J","47"
"","","approach-retreat","51","464497","0.0-51.0","","","1-3","4598","39","1","Training","Stims/Figures/93-J-0-1.bmp","fa:fasha","Left","39","3","16","3A","C1","J","48"
"","","approach-retreat","52","471495","0.0-52.0","","","1-3","5439","38","1","Training","Stims/Figures/118-C-20-2.bmp","zasaha","Up","38","4","1","3A","C2","J","49"
"","","approach-retreat","53","480787","0.0-53.0","","","1-3","7780","40","1","Training","Stims/Figures/44-C-30-3.bmp","zasaha","Down","40","4","2","3A","C2","J","50"
"","","approach-retreat","54","486792","0.0-54.0","","","1-3","4485","38","1","Training","Stims/Figures/93-J-0-1.bmp","fa:fasha","Down","38","4","3","3A","C1","J","51"
"","","approach-retreat","55","492626","0.0-55.0","","","1-3","4311","37","1","Training","Stims/Figures/102-J-10-4.bmp","fa:fasha","Right","37","4","4","3A","C1","J","52"
"","","approach-retreat","56","498434","0.0-56.0","","","1-3","4279","39","1","Training","Stims/Figures/27-C-30-1.bmp","zasaha","Right","39","4","5","3A","C2","J","53"
"","","approach-retreat","57","504255","0.0-57.0","","","1-3","4300","39","1","Training","Stims/Figures/87-J-10-4.bmp","fa:fasha","Left","39","4","6","3A","C1","J","54"
"","","approach-retreat","58","509893","0.0-58.0","","","1-3","4111","37","1","Training","Stims/Figures/144-C-30-3.bmp","zasaha","Left","37","4","7","3A","C2","J","55"
"","","approach-retreat","59","516862","0.0-59.0","","","1-3","5442","38","1","Training","Stims/Figures/44-J-10-3.bmp","fa:fasha","Down","38","4","8","3A","C1","J","56"
"","","approach-retreat","60","522649","0.0-60.0","","","1-3","4268","38","1","Training","Stims/Figures/27-J-0-1.bmp","fa:fasha","Down","38","4","9","3A","C1","J","57"
"","","approach-retreat","61","528510","0.0-61.0","","","1-3","4332","40","1","Training","Stims/Figures/118-J-0-2.bmp","fa:fasha","Up","40","4","10","3A","C1","J","58"
"","","approach-retreat","62","534510","0.0-62.0","","","1-3","4481","39","1","Training","Stims/Figures/139-J-0-2.bmp","fa:fasha","Left","39","4","11","3A","C1","J","59"
"","","approach-retreat","63","541699","0.0-63.0","","","1-3","5668","38","1","Training","Stims/Figures/87-C-20-4.bmp","zasaha","Up","38","4","12","3A","C2","J","60"
"","","approach-retreat","64","550270","0.0-64.0","","","1-3","7048","37","1","Training","Stims/Figures/93-C-30-1.bmp","zasaha","Left","37","4","13","3A","C2","J","61"
"","","approach-retreat","65","556161","0.0-65.0","","","1-3","4364","39","1","Training","Stims/Figures/102-C-20-4.bmp","zasaha","Right","39","4","14","3A","C2","J","62"
"","","approach-retreat","66","563389","0.0-66.0","","","1-3","5707","39","1","Training","Stims/Figures/139-C-20-2.bmp","zasaha","Right","39","4","15","3A","C2","J","63"
"","","approach-retreat","67","569450","0.0-67.0","","","1-3","4537","40","1","Training","Stims/Figures/144-J-10-3.bmp","fa:fasha","Up","40","4","16","3A","C1","J","64"
"","","approach-retreat","68","575724","0.0-68.0","","","1-3","4754","38","1","Training","Stims/Figures/87-J-10-4.bmp","fa:fasha","Down","38","5","1","3A","C1","J","65"
"","","approach-retreat","69","582796","0.0-69.0","","","1-3","5548","38","1","Training","Stims/Figures/102-C-20-4.bmp","zasaha","Up","38","5","2","3A","C2","J","66"
"","","approach-retreat","70","588810","0.0-70.0","","","1-3","4491","38","1","Training","Stims/Figures/118-J-0-2.bmp","fa:fasha","Down","38","5","3","3A","C1","J","67"
"","","approach-retreat","71","595087","0.0-71.0","","","1-3","4766","37","1","Training","Stims/Figures/27-C-30-1.bmp","zasaha","Left","37","5","4","3A","C2","J","68"
"","","approach-retreat","72","601916","0.0-72.0","","","1-3","5310","38","1","Training","Stims/Figures/144-J-10-3.bmp","fa:fasha","Down","38","5","5","3A","C1","J","69"
"","","approach-retreat","73","608078","0.0-73.0","","","1-3","4640","37","1","Training","Stims/Figures/44-C-30-3.bmp","zasaha","Left","37","5","6","3A","C2","J","70"
"","","approach-retreat","74","616057","0.0-74.0","","","1-3","6453","40","1","Training","Stims/Figures/102-J-10-4.bmp","fa:fasha","Up","40","5","7","3A","C1","J","71"
"","","approach-retreat","75","621870","0.0-75.0","","","1-3","4294","39","1","Training","Stims/Figures/139-J-0-2.bmp","fa:fasha","Left","39","5","8","3A","C1","J","72"
"","","approach-retreat","76","629545","0.0-76.0","","","1-3","6155","40","1","Training","Stims/Figures/118-C-20-2.bmp","zasaha","Down","40","5","9","3A","C2","J","73"
"","","approach-retreat","77","636082","0.0-77.0","","","1-3","5016","39","1","Training","Stims/Figures/144-C-30-3.bmp","zasaha","Right","39","5","10","3A","C2","J","74"
"","","approach-retreat","78","642362","0.0-78.0","","","1-3","4755","37","1","Training","Stims/Figures/27-J-0-1.bmp","fa:fasha","Right","37","5","11","3A","C1","J","75"
"","","approach-retreat","79","648386","0.0-79.0","","","1-3","4506","38","1","Training","Stims/Figures/93-C-30-1.bmp","zasaha","Up","38","5","12","3A","C2","J","76"
"","","approach-retreat","80","654334","0.0-80.0","","","1-3","4425","39","1","Training","Stims/Figures/139-C-20-2.bmp","zasaha","Right","39","5","13","3A","C2","J","77"
"","","approach-retreat","81","660199","0.0-81.0","","","1-3","4343","40","1","Training","Stims/Figures/93-J-0-1.bmp","fa:fasha","Up","40","5","14","3A","C1","J","78"
"","","approach-retreat","82","665861","0.0-82.0","","","1-3","4140","39","1","Training","Stims/Figures/44-J-10-3.bmp","fa:fasha","Left","39","5","15","3A","C1","J","79"
"","","approach-retreat","83","671699","0.0-83.0","","","1-3","4316","37","0","Training","Stims/Figures/87-C-20-4.bmp","zasaha","Right","39","5","16","3A","C2","J","80"
"","","approach-retreat","84","678502","0.0-84.0","","","1-3","5276","38","1","Training","Stims/Figures/102-C-20-4.bmp","zasaha","Up","38","6","1","3A","C2","J","81"
"","","approach-retreat","85","684850","0.0-85.0","","","1-3","4823","39","1","Training","Stims/Figures/118-C-20-2.bmp","zasaha","Right","39","6","2","3A","C2","J","82"
"","","approach-retreat","86","691517","0.0-86.0","","","1-3","5150","40","1","Training","Stims/Figures/44-C-30-3.bmp","zasaha","Down","40","6","3","3A","C2","J","83"
"","","approach-retreat","87","698129","0.0-87.0","","","1-3","5092","38","1","Training","Stims/Figures/27-C-30-1.bmp","zasaha","Up","38","6","4","3A","C2","J","84"
"","","approach-retreat","88","704076","0.0-88.0","","","1-3","4425","40","1","Training","Stims/Figures/102-J-10-4.bmp","fa:fasha","Up","40","6","5","3A","C1","J","85"
"","","approach-retreat","89","710153","0.0-89.0","","","1-3","4556","37","1","Training","Stims/Figures/44-J-10-3.bmp","fa:fasha","Right","37","6","6","3A","C1","J","86"
"","","approach-retreat","90","715997","0.0-90.0","","","1-3","4330","39","1","Training","Stims/Figures/118-J-0-2.bmp","fa:fasha","Left","39","6","7","3A","C1","J","87"
"","","approach-retreat","91","721852","0.0-91.0","","","1-3","4333","39","1","Training","Stims/Figures/27-J-0-1.bmp","fa:fasha","Left","39","6","8","3A","C1","J","88"
"","","approach-retreat","92","727534","0.0-92.0","","","1-3","4157","39","1","Training","Stims/Figures/93-J-0-1.bmp","fa:fasha","Left","39","6","9","3A","C1","J","89"
"","","approach-retreat","93","733572","0.0-93.0","","","1-3","4519","40","1","Training","Stims/Figures/93-C-30-1.bmp","zasaha","Down","40","6","10","3A","C2","J","90"
"","","approach-retreat","94","739897","0.0-94.0","","","1-3","4805","39","1","Training","Stims/Figures/144-C-30-3.bmp","zasaha","Right","39","6","11","3A","C2","J","91"
"","","approach-retreat","95","745645","0.0-95.0","","","1-3","4228","37","1","Training","Stims/Figures/139-C-20-2.bmp","zasaha","Left","37","6","12","3A","C2","J","92"
"","","approach-retreat","96","752132","0.0-96.0","","","1-3","4968","38","1","Training","Stims/Figures/87-J-10-4.bmp","fa:fasha","Down","38","6","13","3A","C1","J","93"
"","","approach-retreat","97","758109","0.0-97.0","","","1-3","4456","38","1","Training","Stims/Figures/139-J-0-2.bmp","fa:fasha","Down","38","6","14","3A","C1","J","94"
"","","approach-retreat","98","764425","0.0-98.0","","","1-3","4798","37","1","Training","Stims/Figures/144-J-10-3.bmp","fa:fasha","Right","37","6","15","3A","C1","J","95"
"","","approach-retreat","99","770933","0.0-99.0","","","1-3","4973","38","1","Training","Stims/Figures/87-C-20-4.bmp","zasaha","Up","38","6","16","3A","C2","J","96"
"","","approach-retreat","100","777084","0.0-100.0","","","1-3","4628","37","1","Training","Stims/Figures/44-C-30-3.bmp","zasaha","Left","37","7","1","3A","C2","J","97"
"","","approach-retreat","101","783318","0.0-101.0","","","1-3","4714","38","1","Training","Stims/Figures/27-J-0-1.bmp","fa:fasha","Down","38","7","2","3A","C1","J","98"
"","","approach-retreat","102","789950","0.0-102.0","","","1-3","5107","40","1","Training","Stims/Figures/118-C-20-2.bmp","zasaha","Down","40","7","3","3A","C2","J","99"
"","","approach-retreat","103","796096","0.0-103.0","","","1-3","4625","38","1","Training","Stims/Figures/144-C-30-3.bmp","zasaha","Up","38","7","4","3A","C2","J","100"
"","","approach-retreat","104","802411","0.0-104.0","","","1-3","4791","38","1","Training","Stims/Figures/87-C-20-4.bmp","zasaha","Up","38","7","5","3A","C2","J","101"
"","","approach-retreat","105","808354","0.0-105.0","","","1-3","4418","39","1","Training","Stims/Figures/139-J-0-2.bmp","fa:fasha","Left","39","7","6","3A","C1","J","102"
"","","approach-retreat","106","814750","0.0-106.0","","","1-3","4875","39","1","Training","Stims/Figures/27-C-30-1.bmp","zasaha","Right","39","7","7","3A","C2","J","103"
"","","approach-retreat","107","822516","0.0-107.0","","","1-3","6246","39","1","Training","Stims/Figures/93-C-30-1.bmp","zasaha","Right","39","7","8","3A","C2","J","104"
"","","approach-retreat","108","828341","0.0-108.0","","","1-3","4300","38","1","Training","Stims/Figures/139-C-20-2.bmp","zasaha","Up","38","7","9","3A","C2","J","105"
"","","approach-retreat","109","834245","0.0-109.0","","","1-3","4380","37","1","Training","Stims/Figures/144-J-10-3.bmp","fa:fasha","Right","37","7","10","3A","C1","J","106"
"","","approach-retreat","110","840610","0.0-110.0","","","1-3","4838","38","1","Training","Stims/Figures/102-J-10-4.bmp","fa:fasha","Down","38","7","11","3A","C1","J","107"
"","","approach-retreat","111","846894","0.0-111.0","","","1-3","4763","37","1","Training","Stims/Figures/87-J-10-4.bmp","fa:fasha","Right","37","7","12","3A","C1","J","108"
"","","approach-retreat","112","853362","0.0-112.0","","","1-3","4946","39","1","Training","Stims/Figures/118-J-0-2.bmp","fa:fasha","Left","39","7","13","3A","C1","J","109"
"","","approach-retreat","113","860295","0.0-113.0","","","1-3","5411","40","1","Training","Stims/Figures/44-J-10-3.bmp","fa:fasha","Up","40","7","14","3A","C1","J","110"
"","","approach-retreat","114","865963","0.0-114.0","","","1-3","4147","39","1","Training","Stims/Figures/93-J-0-1.bmp","fa:fasha","Left","39","7","15","3A","C1","J","111"
"","","approach-retreat","115","872007","0.0-115.0","","","1-3","4524","40","1","Training","Stims/Figures/102-C-20-4.bmp","zasaha","Down","40","7","16","3A","C2","J","112"
"","","approach-retreat","116","878690","0.0-116.0","","","1-3","5152","38","1","Training","Stims/Figures/44-C-30-3.bmp","zasaha","Up","38","8","1","3A","C2","J","113"
"","","approach-retreat","117","884376","0.0-117.0","","","1-3","4163","40","1","Training","Stims/Figures/102-C-20-4.bmp","zasaha","Down","40","8","2","3A","C2","J","114"
"","","approach-retreat","118","890804","0.0-118.0","","","1-3","4905","40","1","Training","Stims/Figures/93-J-0-1.bmp","fa:fasha","Up","40","8","3","3A","C1","J","115"
"","","approach-retreat","119","896641","0.0-119.0","","","1-3","4313","37","1","Training","Stims/Figures/102-J-10-4.bmp","fa:fasha","Right","37","8","4","3A","C1","J","116"
"","","approach-retreat","120","902746","0.0-120.0","","","1-3","4580","37","1","Training","Stims/Figures/27-C-30-1.bmp","zasaha","Left","37","8","5","3A","C2","J","117"
"","","approach-retreat","121","909267","0.0-121.0","","","1-3","4996","40","1","Training","Stims/Figures/87-J-10-4.bmp","fa:fasha","Up","40","8","6","3A","C1","J","118"
"","","approach-retreat","122","915369","0.0-122.0","","","1-3","4585","40","1","Training","Stims/Figures/87-C-20-4.bmp","zasaha","Down","40","8","7","3A","C2","J","119"
"","","approach-retreat","123","921397","0.0-123.0","","","1-3","4509","40","1","Training","Stims/Figures/118-C-20-2.bmp","zasaha","Down","40","8","8","3A","C2","J","120"
"","","approach-retreat","124","927284","0.0-124.0","","","1-3","4361","37","1","Training","Stims/Figures/44-J-10-3.bmp","fa:fasha","Right","37","8","9","3A","C1","J","121"
"","","approach-retreat","125","933094","0.0-125.0","","","1-3","4285","39","1","Training","Stims/Figures/139-J-0-2.bmp","fa:fasha","Left","39","8","10","3A","C1","J","122"
"","","approach-retreat","126","940205","0.0-126.0","","","1-3","5587","38","1","Training","Stims/Figures/93-C-30-1.bmp","zasaha","Up","38","8","11","3A","C2","J","123"
"","","approach-retreat","127","947030","0.0-127.0","","","1-3","5310","39","1","Training","Stims/Figures/144-J-10-3.bmp","fa:fasha","Left","39","8","12","3A","C1","J","124"
"","","approach-retreat","128","952714","0.0-128.0","","","1-3","4158","39","1","Training","Stims/Figures/27-J-0-1.bmp","fa:fasha","Left","39","8","13","3A","C1","J","125"
"","","approach-retreat","129","958765","0.0-129.0","","","1-3","4528","39","1","Training","Stims/Figures/144-C-30-3.bmp","zasaha","Right","39","8","14","3A","C2","J","126"
"","","approach-retreat","130","964834","0.0-130.0","","","1-3","4542","40","1","Training","Stims/Figures/139-C-20-2.bmp","zasaha","Down","40","8","15","3A","C2","J","127"
"","","approach-retreat","131","970977","0.0-131.0","","","1-3","4617","37","1","Training","Stims/Figures/118-J-0-2.bmp","fa:fasha","Right","37","8","16","3A","C1","J","128"
"","","approach-retreat","132","976919","0.0-132.0","","","1-3","4420","40","1","Training","Stims/Figures/118-J-0-2.bmp","fa:fasha","Up","40","9","1","3A","C1","J","129"
"","","approach-retreat","133","983066","0.0-133.0","","","1-3","4621","38","1","Training","Stims/Figures/93-C-30-1.bmp","zasaha","Up","38","9","2","3A","C2","J","130"
"","","approach-retreat","134","988700","0.0-134.0","","","1-3","4112","39","1","Training","Stims/Figures/144-J-10-3.bmp","fa:fasha","Left","39","9","3","3A","C1","J","131"
"","","approach-retreat","135","995652","0.0-135.0","","","1-3","5427","40","1","Training","Stims/Figures/27-C-30-1.bmp","zasaha","Down","40","9","4","3A","C2","J","132"
"","","approach-retreat","136","1001560","0.0-136.0","","","1-3","4387","39","1","Training","Stims/Figures/139-C-20-2.bmp","zasaha","Right","39","9","5","3A","C2","J","133"
"","","approach-retreat","137","1008014","0.0-137.0","","","1-3","4933","40","1","Training","Stims/Figures/118-C-20-2.bmp","zasaha","Down","40","9","6","3A","C2","J","134"
"","","approach-retreat","138","1013878","0.0-138.0","","","1-3","4346","38","1","Training","Stims/Figures/87-J-10-4.bmp","fa:fasha","Down","38","9","7","3A","C1","J","135"
"","","approach-retreat","139","1020619","0.0-139.0","","","1-3","5221","38","1","Training","Stims/Figures/144-C-30-3.bmp","zasaha","Up","38","9","8","3A","C2","J","136"
"","","approach-retreat","140","1026926","0.0-140.0","","","1-3","4781","37","1","Training","Stims/Figures/102-C-20-4.bmp","zasaha","Left","37","9","9","3A","C2","J","137"
"","","approach-retreat","141","1033376","0.0-141.0","","","1-3","4935","39","0","Training","Stims/Figures/139-J-0-2.bmp","fa:fasha","Right","37","9","10","3A","C1","J","138"
"","","approach-retreat","142","1039308","0.0-142.0","","","1-3","4400","39","1","Training","Stims/Figures/93-J-0-1.bmp","fa:fasha","Left","39","9","11","3A","C1","J","139"
"","","approach-retreat","143","1046163","0.0-143.0","","","1-3","5332","38","1","Training","Stims/Figures/27-J-0-1.bmp","fa:fasha","Down","38","9","12","3A","C1","J","140"
"","","approach-retreat","144","1052361","0.0-144.0","","","1-3","4674","40","1","Training","Stims/Figures/102-J-10-4.bmp","fa:fasha","Up","40","9","13","3A","C1","J","141"
"","","approach-retreat","145","1058100","0.0-145.0","","","1-3","4216","37","1","Training","Stims/Figures/87-C-20-4.bmp","zasaha","Left","37","9","14","3A","C2","J","142"
"","","approach-retreat","146","1064786","0.0-146.0","","","1-3","5169","39","1","Training","Stims/Figures/44-C-30-3.bmp","zasaha","Right","39","9","15","3A","C2","J","143"
"","","approach-retreat","147","1070431","0.0-147.0","","","1-3","4112","37","1","Training","Stims/Figures/44-J-10-3.bmp","fa:fasha","Right","37","9","16","3A","C1","J","144"
"9380","","instructions","148","1079812","0.0-148.0","[{""page_index"":0,""viewing_time"":9378}]","","","","","","","","","","","","","","","",""
"","","approach-retreat","149","1087206","0.0-149.0","","","1-3","5881","37","1","Testing","Stims/Figures/27-J-0-1.bmp","fa:fasha","Right","37","1","1","3A","C1","J","1"
"","","approach-retreat","150","1094229","0.0-150.0","","","1-3","5501","40","1","Testing","Stims/Figures/57-C-30-1.bmp","zasaha","Down","40","1","2","3A","C2","J","2"
"","","approach-retreat","151","1100260","0.0-151.0","","","1-3","4508","37","0","Testing","Stims/Figures/144-J-10-3.bmp","fa:fasha","Left","39","1","3","3A","C1","J","3"
"","","approach-retreat","152","1106195","0.0-152.0","","","1-3","4413","39","1","Testing","Stims/Figures/27-C-30-1.bmp","zasaha","Right","39","1","4","3A","C2","J","4"
"","","approach-retreat","153","1112328","0.0-153.0","","","1-3","4626","40","0","Testing","Stims/Figures/87-J-10-4.bmp","fa:fasha","Down","38","1","5","3A","C1","J","5"
"","","approach-retreat","154","1121231","0.0-154.0","","","1-3","7381","40","1","Testing","Stims/Figures/57-J-0-1.bmp","fa:fasha","Up","40","1","6","3A","C1","J","6"
"","","approach-retreat","155","1127962","0.0-155.0","","","1-3","5210","38","1","Testing","Stims/Figures/111-J-10-3.bmp","fa:fasha","Down","38","1","7","3A","C1","J","7"
"","","approach-retreat","156","1133869","0.0-156.0","","","1-3","4382","40","0","Testing","Stims/Figures/102-C-20-4.bmp","zasaha","Up","38","1","8","3A","C2","J","8"
"","","approach-retreat","157","1140762","0.0-157.0","","","1-3","5369","37","0","Testing","Stims/Figures/111-C-30-3.bmp","zasaha","Right","39","1","9","3A","C2","J","9"
"","","approach-retreat","158","1146716","0.0-158.0","","","1-3","4431","40","0","Testing","Stims/Figures/94-J-0-2.bmp","fa:fasha","Down","38","1","10","3A","C1","J","10"
"","","approach-retreat","159","1152783","0.0-159.0","","","1-3","4544","37","1","Testing","Stims/Figures/144-C-30-3.bmp","zasaha","Left","37","1","11","3A","C2","J","11"
"","","approach-retreat","160","1158322","0.0-160.0","","","1-3","4016","37","1","Testing","Stims/Figures/87-C-20-4.bmp","zasaha","Left","37","1","12","3A","C2","J","12"
"","","approach-retreat","161","1164002","0.0-161.0","","","1-3","4159","37","1","Testing","Stims/Figures/94-C-20-2.bmp","zasaha","Left","37","1","13","3A","C2","J","13"
"","","approach-retreat","162","1169704","0.0-162.0","","","1-3","4179","40","1","Testing","Stims/Figures/93-J-0-1.bmp","fa:fasha","Up","40","1","14","3A","C1","J","14"
"","","approach-retreat","163","1175450","0.0-163.0","","","1-3","4222","40","1","Testing","Stims/Figures/118-C-20-2.bmp","zasaha","Down","40","1","15","3A","C2","J","15"
"","","approach-retreat","164","1181042","0.0-164.0","","","1-3","4072","38","0","Testing","Stims/Figures/19-J-10-4.bmp","fa:fasha","Up","40","1","16","3A","C1","J","16"
"","","approach-retreat","165","1188588","0.0-165.0","","","1-3","6016","39","1","Testing","Stims/Figures/19-C-20-4.bmp","zasaha","Right","39","1","17","3A","C2","J","17"
"","","approach-retreat","166","1194476","0.0-166.0","","","1-3","4364","39","1","Testing","Stims/Figures/102-J-10-4.bmp","fa:fasha","Left","39","1","18","3A","C1","J","18"
"","","approach-retreat","167","1200061","0.0-167.0","","","1-3","4044","39","1","Testing","Stims/Figures/44-C-30-3.bmp","zasaha","Right","39","1","19","3A","C2","J","19"
"","","approach-retreat","168","1205736","0.0-168.0","","","1-3","4153","39","0","Testing","Stims/Figures/139-C-20-2.bmp","zasaha","Left","37","1","20","3A","C2","J","20"
"","","approach-retreat","169","1212022","0.0-169.0","","","1-3","4765","40","1","Testing","Stims/Figures/139-J-0-2.bmp","fa:fasha","Up","40","1","21","3A","C1","J","21"
"","","approach-retreat","170","1217903","0.0-170.0","","","1-3","4348","39","1","Testing","Stims/Figures/93-C-30-1.bmp","zasaha","Right","39","1","22","3A","C2","J","22"
"","","approach-retreat","171","1224746","0.0-171.0","","","1-3","5320","38","1","Testing","Stims/Figures/118-J-0-2.bmp","fa:fasha","Down","38","1","23","3A","C1","J","23"
"","","approach-retreat","172","1230839","0.0-172.0","","","1-3","4569","38","0","Testing","Stims/Figures/44-J-10-3.bmp","fa:fasha","Up","40","1","24","3A","C1","J","24"
"","","approach-retreat","173","1237348","0.0-173.0","","","1-3","4988","37","0","Testing","Stims/Figures/93-C-30-1.bmp","zasaha","Right","39","2","1","3A","C2","J","25"
"","","approach-retreat","174","1242960","0.0-174.0","","","1-3","4088","39","0","Testing","Stims/Figures/44-J-10-3.bmp","fa:fasha","Right","37","2","2","3A","C1","J","26"
"","","approach-retreat","175","1250303","0.0-175.0","","","1-3","5820","37","1","Testing","Stims/Figures/94-C-20-2.bmp","zasaha","Left","37","2","3","3A","C2","J","27"
"","","approach-retreat","176","1256088","0.0-176.0","","","1-3","4266","39","1","Testing","Stims/Figures/44-C-30-3.bmp","zasaha","Right","39","2","4","3A","C2","J","28"
"","","approach-retreat","177","1263000","0.0-177.0","","","1-3","5392","38","0","Testing","Stims/Figures/102-C-20-4.bmp","zasaha","Down","40","2","5","3A","C2","J","29"
"","","approach-retreat","178","1268725","0.0-178.0","","","1-3","4201","37","0","Testing","Stims/Figures/94-J-0-2.bmp","fa:fasha","Left","39","2","6","3A","C1","J","30"
"","","approach-retreat","179","1275180","0.0-179.0","","","1-3","4933","39","1","Testing","Stims/Figures/139-J-0-2.bmp","fa:fasha","Left","39","2","7","3A","C1","J","31"
"","","approach-retreat","180","1281811","0.0-180.0","","","1-3","5109","40","0","Testing","Stims/Figures/27-C-30-1.bmp","zasaha","Up","38","2","8","3A","C2","J","32"
"","","approach-retreat","181","1287582","0.0-181.0","","","1-3","4249","38","0","Testing","Stims/Figures/87-C-20-4.bmp","zasaha","Down","40","2","9","3A","C2","J","33"
"","","approach-retreat","182","1293388","0.0-182.0","","","1-3","4284","37","0","Testing","Stims/Figures/144-C-30-3.bmp","zasaha","Right","39","2","10","3A","C2","J","34"
"","","approach-retreat","183","1298974","0.0-183.0","","","1-3","4064","39","0","Testing","Stims/Figures/57-C-30-1.bmp","zasaha","Left","37","2","11","3A","C2","J","35"
"","","approach-retreat","184","1304787","0.0-184.0","","","1-3","4291","40","1","Testing","Stims/Figures/144-J-10-3.bmp","fa:fasha","Up","40","2","12","3A","C1","J","36"
"","","approach-retreat","185","1310560","0.0-185.0","","","1-3","4250","40","0","Testing","Stims/Figures/102-J-10-4.bmp","fa:fasha","Down","38","2","13","3A","C1","J","37"
"","","approach-retreat","186","1316474","0.0-186.0","","","1-3","4393","40","1","Testing","Stims/Figures/57-J-0-1.bmp","fa:fasha","Up","40","2","14","3A","C1","J","38"
"","","approach-retreat","187","1322751","0.0-187.0","","","1-3","4755","38","1","Testing","Stims/Figures/118-C-20-2.bmp","zasaha","Up","38","2","15","3A","C2","J","39"
"","","approach-retreat","188","1328318","0.0-188.0","","","1-3","4045","39","0","Testing","Stims/Figures/111-C-30-3.bmp","zasaha","Left","37","2","16","3A","C2","J","40"
"","","approach-retreat","189","1335871","0.0-189.0","","","1-3","6029","37","1","Testing","Stims/Figures/87-J-10-4.bmp","fa:fasha","Right","37","2","17","3A","C1","J","41"
"","","approach-retreat","190","1343447","0.0-190.0","","","1-3","6053","40","1","Testing","Stims/Figures/19-C-20-4.bmp","zasaha","Down","40","2","18","3A","C2","J","42"
"","","approach-retreat","191","1349661","0.0-191.0","","","1-3","4692","40","1","Testing","Stims/Figures/118-J-0-2.bmp","fa:fasha","Up","40","2","19","3A","C1","J","43"
"","","approach-retreat","192","1357284","0.0-192.0","","","1-3","6099","40","0","Testing","Stims/Figures/93-J-0-1.bmp","fa:fasha","Down","38","2","20","3A","C1","J","44"
"","","approach-retreat","193","1363675","0.0-193.0","","","1-3","4869","39","1","Testing","Stims/Figures/19-J-10-4.bmp","fa:fasha","Left","39","2","21","3A","C1","J","45"
"","","approach-retreat","194","1370443","0.0-194.0","","","1-3","5246","38","1","Testing","Stims/Figures/27-J-0-1.bmp","fa:fasha","Down","38","2","22","3A","C1","J","46"
"","","approach-retreat","195","1376876","0.0-195.0","","","1-3","4911","39","0","Testing","Stims/Figures/111-J-10-3.bmp","fa:fasha","Right","37","2","23","3A","C1","J","47"
"","","approach-retreat","196","1383043","0.0-196.0","","","1-3","4644","40","0","Testing","Stims/Figures/139-C-20-2.bmp","zasaha","Up","38","2","24","3A","C2","J","48"
"","","approach-retreat","197","1389376","0.0-197.0","","","1-3","4811","40","0","Testing","Stims/Figures/111-J-10-3.bmp","fa:fasha","Down","38","3","1","3A","C1","J","49"
"","","approach-retreat","198","1400711","0.0-198.0","","","1-3","9811","38","0","Testing","Stims/Figures/57-C-30-1.bmp","zasaha","Down","40","3","2","3A","C2","J","50"
"","","approach-retreat","199","1409301","0.0-199.0","","","1-3","7068","40","1","Testing","Stims/Figures/144-J-10-3.bmp","fa:fasha","Up","40","3","3","3A","C1","J","51"
"","","approach-retreat","200","1415571","0.0-200.0","","","1-3","4750","38","0","Testing","Stims/Figures/118-J-0-2.bmp","fa:fasha","Up","40","3","4","3A","C1","J","52"
"","","approach-retreat","201","1427874","0.0-201.0","","","1-3","10779","39","0","Testing","Stims/Figures/139-C-20-2.bmp","zasaha","Left","37","3","5","3A","C2","J","53"
"","","approach-retreat","202","1433561","0.0-202.0","","","1-3","4165","39","0","Testing","Stims/Figures/144-C-30-3.bmp","zasaha","Left","37","3","6","3A","C2","J","54"
"","","approach-retreat","203","1440062","0.0-203.0","","","1-3","4977","37","0","Testing","Stims/Figures/19-J-10-4.bmp","fa:fasha","Left","39","3","7","3A","C1","J","55"
"","","approach-retreat","204","1447450","0.0-204.0","","","1-3","5866","39","1","Testing","Stims/Figures/111-C-30-3.bmp","zasaha","Right","39","3","8","3A","C2","J","56"
"","","approach-retreat","205","1453413","0.0-205.0","","","1-3","4441","37","1","Testing","Stims/Figures/118-C-20-2.bmp","zasaha","Left","37","3","9","3A","C2","J","57"
"","","approach-retreat","206","1459291","0.0-206.0","","","1-3","4357","39","1","Testing","Stims/Figures/27-C-30-1.bmp","zasaha","Right","39","3","10","3A","C2","J","58"
"","","approach-retreat","207","1465700","0.0-207.0","","","1-3","4884","38","1","Testing","Stims/Figures/94-C-20-2.bmp","zasaha","Up","38","3","11","3A","C2","J","59"
"","","approach-retreat","208","1473228","0.0-208.0","","","1-3","6006","39","0","Testing","Stims/Figures/44-J-10-3.bmp","fa:fasha","Right","37","3","12","3A","C1","J","60"
"","","approach-retreat","209","1481110","0.0-209.0","","","1-3","6361","39","0","Testing","Stims/Figures/93-J-0-1.bmp","fa:fasha","Right","37","3","13","3A","C1","J","61"
"","","approach-retreat","210","1487497","0.0-210.0","","","1-3","4864","38","1","Testing","Stims/Figures/57-J-0-1.bmp","fa:fasha","Down","38","3","14","3A","C1","J","62"
"","","approach-retreat","211","1494979","0.0-211.0","","","1-3","5961","38","0","Testing","Stims/Figures/19-C-20-4.bmp","zasaha","Down","40","3","15","3A","C2","J","63"
"","","approach-retreat","212","1501904","0.0-212.0","","","1-3","5401","38","0","Testing","Stims/Figures/94-J-0-2.bmp","fa:fasha","Up","40","3","16","3A","C1","J","64"
"","","approach-retreat","213","1510286","0.0-213.0","","","1-3","6861","40","1","Testing","Stims/Figures/102-C-20-4.bmp","zasaha","Down","40","3","17","3A","C2","J","65"
"","","approach-retreat","214","1516339","0.0-214.0","","","1-3","4532","37","1","Testing","Stims/Figures/139-J-0-2.bmp","fa:fasha","Right","37","3","18","3A","C1","J","66"
"","","approach-retreat","215","1522126","0.0-215.0","","","1-3","4263","37","0","Testing","Stims/Figures/102-J-10-4.bmp","fa:fasha","Left","39","3","19","3A","C1","J","67"
"","","approach-retreat","216","1528012","0.0-216.0","","","1-3","4363","37","0","Testing","Stims/Figures/27-J-0-1.bmp","fa:fasha","Left","39","3","20","3A","C1","J","68"
"","","approach-retreat","217","1534534","0.0-217.0","","","1-3","5000","40","1","Testing","Stims/Figures/93-C-30-1.bmp","zasaha","Down","40","3","21","3A","C2","J","69"
"","","approach-retreat","218","1540552","0.0-218.0","","","1-3","4498","39","1","Testing","Stims/Figures/44-C-30-3.bmp","zasaha","Right","39","3","22","3A","C2","J","70"
"","","approach-retreat","219","1546541","0.0-219.0","","","1-3","4467","40","1","Testing","Stims/Figures/87-J-10-4.bmp","fa:fasha","Up","40","3","23","3A","C1","J","71"
"","","approach-retreat","220","1552864","0.0-220.0","","","1-3","4800","40","0","Testing","Stims/Figures/87-C-20-4.bmp","zasaha","Up","38","3","24","3A","C2","J","72"
"","","approach-retreat","221","1558525","0.0-221.0","","","1-3","4138","37","1","Testing","Stims/Figures/111-C-30-3.bmp","zasaha","Left","37","4","1","3A","C2","J","73"
"","","approach-retreat","222","1564575","0.0-222.0","","","1-3","4526","40","1","Testing","Stims/Figures/139-J-0-2.bmp","fa:fasha","Up","40","4","2","3A","C1","J","74"
"","","approach-retreat","223","1570179","0.0-223.0","","","1-3","4084","37","0","Testing","Stims/Figures/27-J-0-1.bmp","fa:fasha","Left","39","4","3","3A","C1","J","75"
"","","approach-retreat","224","1576089","0.0-224.0","","","1-3","4387","37","0","Testing","Stims/Figures/87-C-20-4.bmp","zasaha","Right","39","4","4","3A","C2","J","76"
"","","approach-retreat","225","1582188","0.0-225.0","","","1-3","4577","39","0","Testing","Stims/Figures/139-C-20-2.bmp","zasaha","Left","37","4","5","3A","C2","J","77"
"","","approach-retreat","226","1589790","0.0-226.0","","","1-3","6080","39","1","Testing","Stims/Figures/44-C-30-3.bmp","zasaha","Right","39","4","6","3A","C2","J","78"
"","","approach-retreat","227","1598045","0.0-227.0","","","1-3","6734","40","1","Testing","Stims/Figures/57-J-0-1.bmp","fa:fasha","Up","40","4","7","3A","C1","J","79"
"","","approach-retreat","228","1603789","0.0-228.0","","","1-3","4221","38","0","Testing","Stims/Figures/57-C-30-1.bmp","zasaha","Down","40","4","8","3A","C2","J","80"
"","","approach-retreat","229","1609496","0.0-229.0","","","1-3","4183","38","0","Testing","Stims/Figures/144-C-30-3.bmp","zasaha","Down","40","4","9","3A","C2","J","81"
"","","approach-retreat","230","1615510","0.0-230.0","","","1-3","4485","38","1","Testing","Stims/Figures/118-C-20-2.bmp","zasaha","Up","38","4","10","3A","C2","J","82"
"","","approach-retreat","231","1623151","0.0-231.0","","","1-3","6116","37","0","Testing","Stims/Figures/94-J-0-2.bmp","fa:fasha","Left","39","4","11","3A","C1","J","83"
"","","approach-retreat","232","1629432","0.0-232.0","","","1-3","4760","40","1","Testing","Stims/Figures/102-C-20-4.bmp","zasaha","Down","40","4","12","3A","C2","J","84"
"","","approach-retreat","233","1637899","0.0-233.0","","","1-3","6937","37","1","Testing","Stims/Figures/87-J-10-4.bmp","fa:fasha","Right","37","4","13","3A","C1","J","85"
"","","approach-retreat","234","1644999","0.0-234.0","","","1-3","5577","40","0","Testing","Stims/Figures/118-J-0-2.bmp","fa:fasha","Down","38","4","14","3A","C1","J","86"
"","","approach-retreat","235","1650771","0.0-235.0","","","1-3","4248","39","1","Testing","Stims/Figures/27-C-30-1.bmp","zasaha","Right","39","4","15","3A","C2","J","87"
"","","approach-retreat","236","1656754","0.0-236.0","","","1-3","4459","38","0","Testing","Stims/Figures/19-C-20-4.bmp","zasaha","Down","40","4","16","3A","C2","J","88"
"","","approach-retreat","237","1662815","0.0-237.0","","","1-3","4540","37","1","Testing","Stims/Figures/144-J-10-3.bmp","fa:fasha","Right","37","4","17","3A","C1","J","89"
"","","approach-retreat","238","1670148","0.0-238.0","","","1-3","5809","40","0","Testing","Stims/Figures/102-J-10-4.bmp","fa:fasha","Down","38","4","18","3A","C1","J","90"
"","","approach-retreat","239","1677040","0.0-239.0","","","1-3","5370","39","1","Testing","Stims/Figures/19-J-10-4.bmp","fa:fasha","Left","39","4","19","3A","C1","J","91"
"","","approach-retreat","240","1682665","0.0-240.0","","","1-3","4103","37","0","Testing","Stims/Figures/111-J-10-3.bmp","fa:fasha","Left","39","4","20","3A","C1","J","92"
"","","approach-retreat","241","1689375","0.0-241.0","","","1-3","5187","38","1","Testing","Stims/Figures/93-C-30-1.bmp","zasaha","Up","38","4","21","3A","C2","J","93"
"","","approach-retreat","242","1695502","0.0-242.0","","","1-3","4605","39","0","Testing","Stims/Figures/44-J-10-3.bmp","fa:fasha","Right","37","4","22","3A","C1","J","94"
"","","approach-retreat","243","1701145","0.0-243.0","","","1-3","4122","38","1","Testing","Stims/Figures/94-C-20-2.bmp","zasaha","Up","38","4","23","3A","C2","J","95"
"","","approach-retreat","244","1706850","0.0-244.0","","","1-3","4189","38","0","Testing","Stims/Figures/93-J-0-1.bmp","fa:fasha","Up","40","4","24","3A","C1","J","96"
"27875","","survey-text","245","1734739","0.0-245.0","","{""Q0"":""1015/2018""}","","","","","","","","","","","","","","",""
