"rt","key_press","trial_type","trial_index","time_elapsed","internal_node_id","view_history","responses","Id","Rt","ResKeyCode","ResCorr","TrialType2","Image","Label","Location","CorrectResponse","Block","BlockTrial","Condition","LabelType","Subcondition","trialNum"
"1214","32","text","0","1218","0.0-0.0-0.0","","","","","","","","","","","","","","","","",""
"1344","","instructions","1","2574","0.0-1.0","[{""page_index"":0,""viewing_time"":1344}]","","","","","","","","","","","","","","","",""
"7192","","survey-multi-choice","2","9820","0.0-2.0","","{""Q0"":""Da"",""Q1"":""Da"",""Q2"":""Da"",""Q3"":""Da"",""Q4"":""Da"",""Q5"":""Da""}","","","","","","","","","","","","","","",""
"","","bio","3","15124","0.0-3.0","","{""age"":""18"",""gender"":""f"",""specify"":""""}","","","","","","","","","","","","","","",""
"","","approach-retreat","4","23378","0.0-4.0","","","3-5","6746","38","1","Training","Stims/Figures/102-C-20-4.bmp","ta:pata","Up","38","1","1","2","P","J","1"
"","","approach-retreat","5","30449","0.0-5.0","","","3-5","5560","38","1","Training","Stims/Figures/111-C-30-3.bmp","ta:pata","Up","38","1","2","2","P","J","2"
"","","approach-retreat","6","36931","0.0-6.0","","","3-5","4977","38","0","Training","Stims/Figures/85-C-20-2.bmp","ta:pata","Down","40","1","3","2","P","J","3"
"","","approach-retreat","7","44001","0.0-7.0","","","3-5","5563","37","0","Training","Stims/Figures/19-J-10-4.bmp","nama:la","Left","39","1","4","2","S","J","4"
"","","approach-retreat","8","50747","0.0-8.0","","","3-5","5243","40","1","Training","Stims/Figures/118-J-0-2.bmp","nama:la","Up","40","1","5","2","S","J","5"
"","","approach-retreat","9","62384","0.0-9.0","","","3-5","10127","39","0","Training","Stims/Figures/100-C-30-3.bmp","ta:pata","Left","37","1","6","2","P","J","6"
"","","approach-retreat","10","68477","0.0-10.0","","","3-5","4588","37","1","Training","Stims/Figures/57-C-30-1.bmp","ta:pata","Left","37","1","7","2","P","J","7"
"","","approach-retreat","11","74786","0.0-11.0","","","3-5","4802","40","1","Training","Stims/Figures/19-C-20-4.bmp","ta:pata","Down","40","1","8","2","P","J","8"
"","","approach-retreat","12","81174","0.0-12.0","","","3-5","4882","38","1","Training","Stims/Figures/111-J-10-3.bmp","nama:la","Down","38","1","9","2","S","J","9"
"","","approach-retreat","13","101156","0.0-13.0","","","3-5","18475","39","0","Training","Stims/Figures/100-J-10-3.bmp","nama:la","Right","37","1","10","2","S","J","10"
"","","approach-retreat","14","107162","0.0-14.0","","","3-5","4500","38","0","Training","Stims/Figures/118-C-20-2.bmp","ta:pata","Down","40","1","11","2","P","J","11"
"","","approach-retreat","15","113132","0.0-15.0","","","3-5","4465","37","1","Training","Stims/Figures/93-C-30-1.bmp","ta:pata","Left","37","1","12","2","P","J","12"
"","","approach-retreat","16","118954","0.0-16.0","","","3-5","4316","39","0","Training","Stims/Figures/57-J-0-1.bmp","nama:la","Right","37","1","13","2","S","J","13"
"","","approach-retreat","17","127170","0.0-17.0","","","3-5","6711","37","1","Training","Stims/Figures/85-J-0-2.bmp","nama:la","Right","37","1","14","2","S","J","14"
"","","approach-retreat","18","135012","0.0-18.0","","","3-5","6334","40","1","Training","Stims/Figures/93-J-0-1.bmp","nama:la","Up","40","1","15","2","S","J","15"
"","","approach-retreat","19","140959","0.0-19.0","","","3-5","4441","37","1","Training","Stims/Figures/102-J-10-4.bmp","nama:la","Right","37","1","16","2","S","J","16"
"","","approach-retreat","20","147393","0.0-20.0","","","3-5","4928","39","0","Training","Stims/Figures/85-J-0-2.bmp","nama:la","Right","37","2","1","2","S","J","17"
"","","approach-retreat","21","153483","0.0-21.0","","","3-5","4583","39","0","Training","Stims/Figures/93-J-0-1.bmp","nama:la","Right","37","2","2","2","S","J","18"
"","","approach-retreat","22","158893","0.0-22.0","","","3-5","3901","38","0","Training","Stims/Figures/19-J-10-4.bmp","nama:la","Up","40","2","3","2","S","J","19"
"","","approach-retreat","23","164745","0.0-23.0","","","3-5","4343","40","0","Training","Stims/Figures/57-J-0-1.bmp","nama:la","Down","38","2","4","2","S","J","20"
"","","approach-retreat","24","170571","0.0-24.0","","","3-5","4316","38","1","Training","Stims/Figures/100-J-10-3.bmp","nama:la","Down","38","2","5","2","S","J","21"
"","","approach-retreat","25","176378","0.0-25.0","","","3-5","4301","40","0","Training","Stims/Figures/93-C-30-1.bmp","ta:pata","Up","38","2","6","2","P","J","22"
"","","approach-retreat","26","182278","0.0-26.0","","","3-5","4393","40","1","Training","Stims/Figures/118-J-0-2.bmp","nama:la","Up","40","2","7","2","S","J","23"
"","","approach-retreat","27","188020","0.0-27.0","","","3-5","4236","39","0","Training","Stims/Figures/57-C-30-1.bmp","ta:pata","Left","37","2","8","2","P","J","24"
"","","approach-retreat","28","193509","0.0-28.0","","","3-5","3985","37","0","Training","Stims/Figures/85-C-20-2.bmp","ta:pata","Right","39","2","9","2","P","J","25"
"","","approach-retreat","29","199733","0.0-29.0","","","3-5","4716","39","0","Training","Stims/Figures/102-J-10-4.bmp","nama:la","Right","37","2","10","2","S","J","26"
"","","approach-retreat","30","206121","0.0-30.0","","","3-5","4879","38","0","Training","Stims/Figures/111-C-30-3.bmp","ta:pata","Down","40","2","11","2","P","J","27"
"","","approach-retreat","31","212716","0.0-31.0","","","3-5","5089","39","1","Training","Stims/Figures/111-J-10-3.bmp","nama:la","Left","39","2","12","2","S","J","28"
"","","approach-retreat","32","218554","0.0-32.0","","","3-5","4331","39","0","Training","Stims/Figures/118-C-20-2.bmp","ta:pata","Left","37","2","13","2","P","J","29"
"","","approach-retreat","33","224522","0.0-33.0","","","3-5","4461","38","0","Training","Stims/Figures/102-C-20-4.bmp","ta:pata","Down","40","2","14","2","P","J","30"
"","","approach-retreat","34","230471","0.0-34.0","","","3-5","4444","39","0","Training","Stims/Figures/100-C-30-3.bmp","ta:pata","Left","37","2","15","2","P","J","31"
"","","approach-retreat","35","236287","0.0-35.0","","","3-5","4310","38","1","Training","Stims/Figures/19-C-20-4.bmp","ta:pata","Up","38","2","16","2","P","J","32"
"","","approach-retreat","36","242318","0.0-36.0","","","3-5","4525","37","0","Training","Stims/Figures/57-J-0-1.bmp","nama:la","Left","39","3","1","2","S","J","33"
"","","approach-retreat","37","248137","0.0-37.0","","","3-5","4314","37","1","Training","Stims/Figures/118-J-0-2.bmp","nama:la","Right","37","3","2","2","S","J","34"
"","","approach-retreat","38","253987","0.0-38.0","","","3-5","4340","40","1","Training","Stims/Figures/111-J-10-3.bmp","nama:la","Up","40","3","3","2","S","J","35"
"","","approach-retreat","39","259927","0.0-39.0","","","3-5","4431","40","0","Training","Stims/Figures/19-J-10-4.bmp","nama:la","Down","38","3","4","2","S","J","36"
"","","approach-retreat","40","265857","0.0-40.0","","","3-5","4421","37","0","Training","Stims/Figures/93-J-0-1.bmp","nama:la","Left","39","3","5","2","S","J","37"
"","","approach-retreat","41","272390","0.0-41.0","","","3-5","5028","40","1","Training","Stims/Figures/100-J-10-3.bmp","nama:la","Up","40","3","6","2","S","J","38"
"","","approach-retreat","42","277976","0.0-42.0","","","3-5","4080","37","1","Training","Stims/Figures/102-J-10-4.bmp","nama:la","Right","37","3","7","2","S","J","39"
"","","approach-retreat","43","283684","0.0-43.0","","","3-5","4204","40","0","Training","Stims/Figures/100-C-30-3.bmp","ta:pata","Up","38","3","8","2","P","J","40"
"","","approach-retreat","44","289658","0.0-44.0","","","3-5","4468","39","0","Training","Stims/Figures/85-J-0-2.bmp","nama:la","Right","37","3","9","2","S","J","41"
"","","approach-retreat","45","295610","0.0-45.0","","","3-5","4444","40","1","Training","Stims/Figures/57-C-30-1.bmp","ta:pata","Down","40","3","10","2","P","J","42"
"","","approach-retreat","46","301425","0.0-46.0","","","3-5","4304","39","0","Training","Stims/Figures/111-C-30-3.bmp","ta:pata","Left","37","3","11","2","P","J","43"
"","","approach-retreat","47","308104","0.0-47.0","","","3-5","5175","38","0","Training","Stims/Figures/85-C-20-2.bmp","ta:pata","Down","40","3","12","2","P","J","44"
"","","approach-retreat","48","313854","0.0-48.0","","","3-5","4244","38","0","Training","Stims/Figures/19-C-20-4.bmp","ta:pata","Down","40","3","13","2","P","J","45"
"","","approach-retreat","49","320110","0.0-49.0","","","3-5","4752","39","1","Training","Stims/Figures/93-C-30-1.bmp","ta:pata","Right","39","3","14","2","P","J","46"
"","","approach-retreat","50","326127","0.0-50.0","","","3-5","4513","37","1","Training","Stims/Figures/118-C-20-2.bmp","ta:pata","Left","37","3","15","2","P","J","47"
"","","approach-retreat","51","331944","0.0-51.0","","","3-5","4307","40","0","Training","Stims/Figures/102-C-20-4.bmp","ta:pata","Up","38","3","16","2","P","J","48"
"","","approach-retreat","52","337774","0.0-52.0","","","3-5","4327","37","1","Training","Stims/Figures/102-J-10-4.bmp","nama:la","Right","37","4","1","2","S","J","49"
"","","approach-retreat","53","343477","0.0-53.0","","","3-5","4198","39","0","Training","Stims/Figures/57-C-30-1.bmp","ta:pata","Left","37","4","2","2","P","J","50"
"","","approach-retreat","54","349639","0.0-54.0","","","3-5","4656","38","1","Training","Stims/Figures/85-C-20-2.bmp","ta:pata","Up","38","4","3","2","P","J","51"
"","","approach-retreat","55","355747","0.0-55.0","","","3-5","4600","37","1","Training","Stims/Figures/19-C-20-4.bmp","ta:pata","Left","37","4","4","2","P","J","52"
"","","approach-retreat","56","362545","0.0-56.0","","","3-5","5293","40","0","Training","Stims/Figures/19-J-10-4.bmp","nama:la","Down","38","4","5","2","S","J","53"
"","","approach-retreat","57","368709","0.0-57.0","","","3-5","4657","38","1","Training","Stims/Figures/57-J-0-1.bmp","nama:la","Down","38","4","6","2","S","J","54"
"","","approach-retreat","58","374642","0.0-58.0","","","3-5","4426","40","1","Training","Stims/Figures/111-C-30-3.bmp","ta:pata","Down","40","4","7","2","P","J","55"
"","","approach-retreat","59","380406","0.0-59.0","","","3-5","4255","39","0","Training","Stims/Figures/118-J-0-2.bmp","nama:la","Right","37","4","8","2","S","J","56"
"","","approach-retreat","60","388144","0.0-60.0","","","3-5","6228","37","0","Training","Stims/Figures/102-C-20-4.bmp","ta:pata","Right","39","4","9","2","P","J","57"
"","","approach-retreat","61","394299","0.0-61.0","","","3-5","4650","38","0","Training","Stims/Figures/100-J-10-3.bmp","nama:la","Up","40","4","10","2","S","J","58"
"","","approach-retreat","62","401056","0.0-62.0","","","3-5","5251","37","0","Training","Stims/Figures/111-J-10-3.bmp","nama:la","Left","39","4","11","2","S","J","59"
"","","approach-retreat","63","406985","0.0-63.0","","","3-5","4425","38","1","Training","Stims/Figures/118-C-20-2.bmp","ta:pata","Up","38","4","12","2","P","J","60"
"","","approach-retreat","64","413532","0.0-64.0","","","3-5","5041","39","1","Training","Stims/Figures/93-C-30-1.bmp","ta:pata","Right","39","4","13","2","P","J","61"
"","","approach-retreat","65","419224","0.0-65.0","","","3-5","4185","37","0","Training","Stims/Figures/85-J-0-2.bmp","nama:la","Left","39","4","14","2","S","J","62"
"","","approach-retreat","66","425124","0.0-66.0","","","3-5","4395","40","0","Training","Stims/Figures/100-C-30-3.bmp","ta:pata","Up","38","4","15","2","P","J","63"
"","","approach-retreat","67","430971","0.0-67.0","","","3-5","4342","40","0","Training","Stims/Figures/93-J-0-1.bmp","nama:la","Down","38","4","16","2","S","J","64"
"","","approach-retreat","68","437493","0.0-68.0","","","3-5","5017","37","1","Training","Stims/Figures/85-J-0-2.bmp","nama:la","Right","37","5","1","2","S","J","65"
"","","approach-retreat","69","443315","0.0-69.0","","","3-5","4316","38","1","Training","Stims/Figures/100-J-10-3.bmp","nama:la","Down","38","5","2","2","S","J","66"
"","","approach-retreat","70","449080","0.0-70.0","","","3-5","4258","40","1","Training","Stims/Figures/85-C-20-2.bmp","ta:pata","Down","40","5","3","2","P","J","67"
"","","approach-retreat","71","455034","0.0-71.0","","","3-5","4450","40","1","Training","Stims/Figures/118-J-0-2.bmp","nama:la","Up","40","5","4","2","S","J","68"
"","","approach-retreat","72","460962","0.0-72.0","","","3-5","4421","39","1","Training","Stims/Figures/102-J-10-4.bmp","nama:la","Left","39","5","5","2","S","J","69"
"","","approach-retreat","73","466752","0.0-73.0","","","3-5","4285","40","1","Training","Stims/Figures/57-J-0-1.bmp","nama:la","Up","40","5","6","2","S","J","70"
"","","approach-retreat","74","472518","0.0-74.0","","","3-5","4262","38","1","Training","Stims/Figures/100-C-30-3.bmp","ta:pata","Up","38","5","7","2","P","J","71"
"","","approach-retreat","75","478122","0.0-75.0","","","3-5","4096","39","1","Training","Stims/Figures/118-C-20-2.bmp","ta:pata","Right","39","5","8","2","P","J","72"
"","","approach-retreat","76","483834","0.0-76.0","","","3-5","4206","40","1","Training","Stims/Figures/93-C-30-1.bmp","ta:pata","Down","40","5","9","2","P","J","73"
"","","approach-retreat","77","489642","0.0-77.0","","","3-5","4302","38","1","Training","Stims/Figures/57-C-30-1.bmp","ta:pata","Up","38","5","10","2","P","J","74"
"","","approach-retreat","78","495427","0.0-78.0","","","3-5","4279","37","1","Training","Stims/Figures/102-C-20-4.bmp","ta:pata","Left","37","5","11","2","P","J","75"
"","","approach-retreat","79","501227","0.0-79.0","","","3-5","4292","37","0","Training","Stims/Figures/19-J-10-4.bmp","nama:la","Left","39","5","12","2","S","J","76"
"","","approach-retreat","80","507063","0.0-80.0","","","3-5","4326","39","1","Training","Stims/Figures/19-C-20-4.bmp","ta:pata","Right","39","5","13","2","P","J","77"
"","","approach-retreat","81","512776","0.0-81.0","","","3-5","4201","40","0","Training","Stims/Figures/111-J-10-3.bmp","nama:la","Down","38","5","14","2","S","J","78"
"","","approach-retreat","82","518478","0.0-82.0","","","3-5","4196","39","1","Training","Stims/Figures/93-J-0-1.bmp","nama:la","Left","39","5","15","2","S","J","79"
"","","approach-retreat","83","524665","0.0-83.0","","","3-5","4682","39","1","Training","Stims/Figures/111-C-30-3.bmp","ta:pata","Right","39","5","16","2","P","J","80"
"","","approach-retreat","84","530494","0.0-84.0","","","3-5","4318","40","1","Training","Stims/Figures/57-C-30-1.bmp","ta:pata","Down","40","6","1","2","P","J","81"
"","","approach-retreat","85","536303","0.0-85.0","","","3-5","4304","37","1","Training","Stims/Figures/102-C-20-4.bmp","ta:pata","Left","37","6","2","2","P","J","82"
"","","approach-retreat","86","542204","0.0-86.0","","","3-5","4395","37","0","Training","Stims/Figures/57-J-0-1.bmp","nama:la","Left","39","6","3","2","S","J","83"
"","","approach-retreat","87","547966","0.0-87.0","","","3-5","4258","40","0","Training","Stims/Figures/102-J-10-4.bmp","nama:la","Down","38","6","4","2","S","J","84"
"","","approach-retreat","88","554103","0.0-88.0","","","3-5","4632","38","1","Training","Stims/Figures/100-J-10-3.bmp","nama:la","Down","38","6","5","2","S","J","85"
"","","approach-retreat","89","560653","0.0-89.0","","","3-5","5044","38","1","Training","Stims/Figures/100-C-30-3.bmp","ta:pata","Up","38","6","6","2","P","J","86"
"","","approach-retreat","90","566964","0.0-90.0","","","3-5","4801","38","0","Training","Stims/Figures/19-J-10-4.bmp","nama:la","Up","40","6","7","2","S","J","87"
"","","approach-retreat","91","573735","0.0-91.0","","","3-5","5265","39","0","Training","Stims/Figures/85-J-0-2.bmp","nama:la","Right","37","6","8","2","S","J","88"
"","","approach-retreat","92","579525","0.0-92.0","","","3-5","4283","40","1","Training","Stims/Figures/93-J-0-1.bmp","nama:la","Up","40","6","9","2","S","J","89"
"","","approach-retreat","93","585506","0.0-93.0","","","3-5","4472","39","1","Training","Stims/Figures/93-C-30-1.bmp","ta:pata","Right","39","6","10","2","P","J","90"
"","","approach-retreat","94","591339","0.0-94.0","","","3-5","4325","39","1","Training","Stims/Figures/85-C-20-2.bmp","ta:pata","Right","39","6","11","2","P","J","91"
"","","approach-retreat","95","597282","0.0-95.0","","","3-5","4438","37","1","Training","Stims/Figures/111-C-30-3.bmp","ta:pata","Left","37","6","12","2","P","J","92"
"","","approach-retreat","96","603129","0.0-96.0","","","3-5","4339","37","0","Training","Stims/Figures/111-J-10-3.bmp","nama:la","Left","39","6","13","2","S","J","93"
"","","approach-retreat","97","609346","0.0-97.0","","","3-5","4708","38","0","Training","Stims/Figures/118-C-20-2.bmp","ta:pata","Down","40","6","14","2","P","J","94"
"","","approach-retreat","98","615146","0.0-98.0","","","3-5","4295","40","0","Training","Stims/Figures/19-C-20-4.bmp","ta:pata","Up","38","6","15","2","P","J","95"
"","","approach-retreat","99","621513","0.0-99.0","","","3-5","4861","37","1","Training","Stims/Figures/118-J-0-2.bmp","nama:la","Right","37","6","16","2","S","J","96"
"","","approach-retreat","100","627197","0.0-100.0","","","3-5","4176","38","0","Training","Stims/Figures/19-C-20-4.bmp","ta:pata","Down","40","7","1","2","P","J","97"
"","","approach-retreat","101","633316","0.0-101.0","","","3-5","4610","39","1","Training","Stims/Figures/102-J-10-4.bmp","nama:la","Left","39","7","2","2","S","J","98"
"","","approach-retreat","102","639085","0.0-102.0","","","3-5","4265","38","0","Training","Stims/Figures/85-C-20-2.bmp","ta:pata","Down","40","7","3","2","P","J","99"
"","","approach-retreat","103","644934","0.0-103.0","","","3-5","4344","39","1","Training","Stims/Figures/118-C-20-2.bmp","ta:pata","Right","39","7","4","2","P","J","100"
"","","approach-retreat","104","651002","0.0-104.0","","","3-5","4561","39","1","Training","Stims/Figures/93-C-30-1.bmp","ta:pata","Right","39","7","5","2","P","J","101"
"","","approach-retreat","105","657804","0.0-105.0","","","3-5","5297","37","0","Training","Stims/Figures/102-C-20-4.bmp","ta:pata","Right","39","7","6","2","P","J","102"
"","","approach-retreat","106","663694","0.0-106.0","","","3-5","4385","37","1","Training","Stims/Figures/118-J-0-2.bmp","nama:la","Right","37","7","7","2","S","J","103"
"","","approach-retreat","107","670095","0.0-107.0","","","3-5","4895","39","1","Training","Stims/Figures/93-J-0-1.bmp","nama:la","Left","39","7","8","2","S","J","104"
"","","approach-retreat","108","676212","0.0-108.0","","","3-5","4611","37","1","Training","Stims/Figures/100-C-30-3.bmp","ta:pata","Left","37","7","9","2","P","J","105"
"","","approach-retreat","109","682088","0.0-109.0","","","3-5","4370","40","1","Training","Stims/Figures/85-J-0-2.bmp","nama:la","Up","40","7","10","2","S","J","106"
"","","approach-retreat","110","688531","0.0-110.0","","","3-5","4938","40","1","Training","Stims/Figures/111-C-30-3.bmp","ta:pata","Down","40","7","11","2","P","J","107"
"","","approach-retreat","111","694527","0.0-111.0","","","3-5","4490","38","1","Training","Stims/Figures/57-C-30-1.bmp","ta:pata","Up","38","7","12","2","P","J","108"
"","","approach-retreat","112","701118","0.0-112.0","","","3-5","5084","38","1","Training","Stims/Figures/57-J-0-1.bmp","nama:la","Down","38","7","13","2","S","J","109"
"","","approach-retreat","113","708779","0.0-113.0","","","3-5","6153","40","1","Training","Stims/Figures/100-J-10-3.bmp","nama:la","Up","40","7","14","2","S","J","110"
"","","approach-retreat","114","714696","0.0-114.0","","","3-5","4412","38","0","Training","Stims/Figures/19-J-10-4.bmp","nama:la","Up","40","7","15","2","S","J","111"
"","","approach-retreat","115","720821","0.0-115.0","","","3-5","4619","37","0","Training","Stims/Figures/111-J-10-3.bmp","nama:la","Left","39","7","16","2","S","J","112"
"","","approach-retreat","116","726641","0.0-116.0","","","3-5","4312","39","1","Training","Stims/Figures/57-J-0-1.bmp","nama:la","Left","39","8","1","2","S","J","113"
"","","approach-retreat","117","732379","0.0-117.0","","","3-5","4231","40","1","Training","Stims/Figures/85-J-0-2.bmp","nama:la","Up","40","8","2","2","S","J","114"
"","","approach-retreat","118","738413","0.0-118.0","","","3-5","4529","39","1","Training","Stims/Figures/19-C-20-4.bmp","ta:pata","Right","39","8","3","2","P","J","115"
"","","approach-retreat","119","744356","0.0-119.0","","","3-5","4435","39","1","Training","Stims/Figures/57-C-30-1.bmp","ta:pata","Right","39","8","4","2","P","J","116"
"","","approach-retreat","120","750406","0.0-120.0","","","3-5","4544","40","1","Training","Stims/Figures/118-J-0-2.bmp","nama:la","Up","40","8","5","2","S","J","117"
"","","approach-retreat","121","756668","0.0-121.0","","","3-5","4757","40","1","Training","Stims/Figures/102-C-20-4.bmp","ta:pata","Down","40","8","6","2","P","J","118"
"","","approach-retreat","122","762833","0.0-122.0","","","3-5","4660","40","1","Training","Stims/Figures/93-J-0-1.bmp","nama:la","Up","40","8","7","2","S","J","119"
"","","approach-retreat","123","769915","0.0-123.0","","","3-5","5576","40","1","Training","Stims/Figures/93-C-30-1.bmp","ta:pata","Down","40","8","8","2","P","J","120"
"","","approach-retreat","124","775758","0.0-124.0","","","3-5","4336","37","1","Training","Stims/Figures/85-C-20-2.bmp","ta:pata","Left","37","8","9","2","P","J","121"
"","","approach-retreat","125","781766","0.0-125.0","","","3-5","4500","39","1","Training","Stims/Figures/111-J-10-3.bmp","nama:la","Left","39","8","10","2","S","J","122"
"","","approach-retreat","126","787436","0.0-126.0","","","3-5","4164","40","1","Training","Stims/Figures/118-C-20-2.bmp","ta:pata","Down","40","8","11","2","P","J","123"
"","","approach-retreat","127","793933","0.0-127.0","","","3-5","4991","39","0","Training","Stims/Figures/102-J-10-4.bmp","nama:la","Right","37","8","12","2","S","J","124"
"","","approach-retreat","128","799932","0.0-128.0","","","3-5","4490","40","1","Training","Stims/Figures/100-C-30-3.bmp","ta:pata","Down","40","8","13","2","P","J","125"
"","","approach-retreat","129","805777","0.0-129.0","","","3-5","4338","39","1","Training","Stims/Figures/111-C-30-3.bmp","ta:pata","Right","39","8","14","2","P","J","126"
"","","approach-retreat","130","811918","0.0-130.0","","","3-5","4636","40","1","Training","Stims/Figures/19-J-10-4.bmp","nama:la","Up","40","8","15","2","S","J","127"
"","","approach-retreat","131","817690","0.0-131.0","","","3-5","4266","39","1","Training","Stims/Figures/100-J-10-3.bmp","nama:la","Left","39","8","16","2","S","J","128"
"","","approach-retreat","132","823678","0.0-132.0","","","3-5","4482","39","1","Training","Stims/Figures/57-C-30-1.bmp","ta:pata","Right","39","9","1","2","P","J","129"
"","","approach-retreat","133","829375","0.0-133.0","","","3-5","4188","39","1","Training","Stims/Figures/93-C-30-1.bmp","ta:pata","Right","39","9","2","2","P","J","130"
"","","approach-retreat","134","835293","0.0-134.0","","","3-5","4409","37","1","Training","Stims/Figures/57-J-0-1.bmp","nama:la","Right","37","9","3","2","S","J","131"
"","","approach-retreat","135","841180","0.0-135.0","","","3-5","4381","39","1","Training","Stims/Figures/19-C-20-4.bmp","ta:pata","Right","39","9","4","2","P","J","132"
"","","approach-retreat","136","847347","0.0-136.0","","","3-5","4656","38","1","Training","Stims/Figures/118-J-0-2.bmp","nama:la","Down","38","9","5","2","S","J","133"
"","","approach-retreat","137","854321","0.0-137.0","","","3-5","5468","40","1","Training","Stims/Figures/85-C-20-2.bmp","ta:pata","Down","40","9","6","2","P","J","134"
"","","approach-retreat","138","860903","0.0-138.0","","","3-5","5077","37","1","Training","Stims/Figures/102-C-20-4.bmp","ta:pata","Left","37","9","7","2","P","J","135"
"","","approach-retreat","139","867553","0.0-139.0","","","3-5","5142","39","1","Training","Stims/Figures/102-J-10-4.bmp","nama:la","Left","39","9","8","2","S","J","136"
"","","approach-retreat","140","873339","0.0-140.0","","","3-5","4281","40","1","Training","Stims/Figures/100-C-30-3.bmp","ta:pata","Down","40","9","9","2","P","J","137"
"","","approach-retreat","141","879446","0.0-141.0","","","3-5","4598","40","1","Training","Stims/Figures/111-J-10-3.bmp","nama:la","Up","40","9","10","2","S","J","138"
"","","approach-retreat","142","885942","0.0-142.0","","","3-5","4986","37","1","Training","Stims/Figures/118-C-20-2.bmp","ta:pata","Left","37","9","11","2","P","J","139"
"","","approach-retreat","143","892299","0.0-143.0","","","3-5","4847","38","1","Training","Stims/Figures/100-J-10-3.bmp","nama:la","Down","38","9","12","2","S","J","140"
"","","approach-retreat","144","898192","0.0-144.0","","","3-5","4387","40","1","Training","Stims/Figures/93-J-0-1.bmp","nama:la","Up","40","9","13","2","S","J","141"
"","","approach-retreat","145","903913","0.0-145.0","","","3-5","4212","40","1","Training","Stims/Figures/85-J-0-2.bmp","nama:la","Up","40","9","14","2","S","J","142"
"","","approach-retreat","146","909652","0.0-146.0","","","3-5","4233","39","1","Training","Stims/Figures/19-J-10-4.bmp","nama:la","Left","39","9","15","2","S","J","143"
"","","approach-retreat","147","915707","0.0-147.0","","","3-5","4545","38","1","Training","Stims/Figures/111-C-30-3.bmp","ta:pata","Up","38","9","16","2","P","J","144"
"13395","","instructions","148","929102","0.0-148.0","[{""page_index"":0,""viewing_time"":13395}]","","","","","","","","","","","","","","","",""
"","","approach-retreat","149","936133","0.0-149.0","","","3-5","5526","39","1","Testing","Stims/Figures/111-J-10-3.bmp","nama:la","Left","39","1","1","2","S","J","1"
"","","approach-retreat","150","942977","0.0-150.0","","","3-5","5340","40","1","Testing","Stims/Figures/87-C-20-4.bmp","ta:pata","Down","40","1","2","2","P","J","2"
"","","approach-retreat","151","948996","0.0-151.0","","","3-5","4511","39","1","Testing","Stims/Figures/19-J-10-4.bmp","nama:la","Left","39","1","3","2","S","J","3"
"","","approach-retreat","152","955241","0.0-152.0","","","3-5","4740","38","1","Testing","Stims/Figures/57-C-30-1.bmp","ta:pata","Up","38","1","4","2","P","J","4"
"","","approach-retreat","153","961276","0.0-153.0","","","3-5","4530","39","1","Testing","Stims/Figures/84-C-20-2.bmp","ta:pata","Right","39","1","5","2","P","J","5"
"","","approach-retreat","154","967379","0.0-154.0","","","3-5","4598","40","1","Testing","Stims/Figures/118-J-0-2.bmp","nama:la","Up","40","1","6","2","S","J","6"
"","","approach-retreat","155","973751","0.0-155.0","","","3-5","4867","40","1","Testing","Stims/Figures/102-C-20-4.bmp","ta:pata","Down","40","1","7","2","P","J","7"
"","","approach-retreat","156","980189","0.0-156.0","","","3-5","4931","38","1","Testing","Stims/Figures/57-J-0-1.bmp","nama:la","Down","38","1","8","2","S","J","8"
"","","approach-retreat","157","988856","0.0-157.0","","","3-5","7163","38","1","Testing","Stims/Figures/87-J-10-4.bmp","nama:la","Down","38","1","9","2","S","J","9"
"","","approach-retreat","158","995070","0.0-158.0","","","3-5","4709","37","1","Testing","Stims/Figures/85-C-20-2.bmp","ta:pata","Left","37","1","10","2","P","J","10"
"","","approach-retreat","159","1002692","0.0-159.0","","","3-5","6117","39","1","Testing","Stims/Figures/118-C-20-2.bmp","ta:pata","Right","39","1","11","2","P","J","11"
"","","approach-retreat","160","1009202","0.0-160.0","","","3-5","5003","37","1","Testing","Stims/Figures/93-C-30-1.bmp","ta:pata","Left","37","1","12","2","P","J","12"
"","","approach-retreat","161","1016053","0.0-161.0","","","3-5","5347","38","1","Testing","Stims/Figures/84-J-0-2.bmp","nama:la","Down","38","1","13","2","S","J","13"
"","","approach-retreat","162","1023142","0.0-162.0","","","3-5","5583","38","1","Testing","Stims/Figures/19-C-20-4.bmp","ta:pata","Up","38","1","14","2","P","J","14"
"","","approach-retreat","163","1031092","0.0-163.0","","","3-5","6446","38","1","Testing","Stims/Figures/102-J-10-4.bmp","nama:la","Down","38","1","15","2","S","J","15"
"","","approach-retreat","164","1038511","0.0-164.0","","","3-5","5912","37","1","Testing","Stims/Figures/111-C-30-3.bmp","ta:pata","Left","37","1","16","2","P","J","16"
"","","approach-retreat","165","1044534","0.0-165.0","","","3-5","4517","40","1","Testing","Stims/Figures/85-J-0-2.bmp","nama:la","Up","40","1","17","2","S","J","17"
"","","approach-retreat","166","1052720","0.0-166.0","","","3-5","6679","39","1","Testing","Stims/Figures/128-J-10-3.bmp","nama:la","Left","39","1","18","2","S","J","18"
"","","approach-retreat","167","1059209","0.0-167.0","","","3-5","4981","39","1","Testing","Stims/Figures/100-C-30-3.bmp","ta:pata","Right","39","1","19","2","P","J","19"
"","","approach-retreat","168","1065388","0.0-168.0","","","3-5","4675","39","1","Testing","Stims/Figures/71-C-30-1.bmp","ta:pata","Right","39","1","20","2","P","J","20"
"","","approach-retreat","169","1071842","0.0-169.0","","","3-5","4949","37","1","Testing","Stims/Figures/93-J-0-1.bmp","nama:la","Right","37","1","21","2","S","J","21"
"","","approach-retreat","170","1078209","0.0-170.0","","","3-5","4862","40","1","Testing","Stims/Figures/100-J-10-3.bmp","nama:la","Up","40","1","22","2","S","J","22"
"","","approach-retreat","171","1084587","0.0-171.0","","","3-5","4875","38","1","Testing","Stims/Figures/128-C-30-3.bmp","ta:pata","Up","38","1","23","2","P","J","23"
"","","approach-retreat","172","1090691","0.0-172.0","","","3-5","4596","37","1","Testing","Stims/Figures/71-J-0-1.bmp","nama:la","Right","37","1","24","2","S","J","24"
"","","approach-retreat","173","1097441","0.0-173.0","","","3-5","5244","38","1","Testing","Stims/Figures/118-J-0-2.bmp","nama:la","Down","38","2","1","2","S","J","25"
"","","approach-retreat","174","1103888","0.0-174.0","","","3-5","4944","38","1","Testing","Stims/Figures/128-C-30-3.bmp","ta:pata","Up","38","2","2","2","P","J","26"
"","","approach-retreat","175","1110330","0.0-175.0","","","3-5","4935","38","1","Testing","Stims/Figures/84-C-20-2.bmp","ta:pata","Up","38","2","3","2","P","J","27"
"","","approach-retreat","176","1118562","0.0-176.0","","","3-5","6729","37","1","Testing","Stims/Figures/128-J-10-3.bmp","nama:la","Right","37","2","4","2","S","J","28"
"","","approach-retreat","177","1124449","0.0-177.0","","","3-5","4381","39","1","Testing","Stims/Figures/57-C-30-1.bmp","ta:pata","Right","39","2","5","2","P","J","29"
"","","approach-retreat","178","1131207","0.0-178.0","","","3-5","5254","38","1","Testing","Stims/Figures/71-J-0-1.bmp","nama:la","Down","38","2","6","2","S","J","30"
"","","approach-retreat","179","1137285","0.0-179.0","","","3-5","4572","39","1","Testing","Stims/Figures/57-J-0-1.bmp","nama:la","Left","39","2","7","2","S","J","31"
"","","approach-retreat","180","1143277","0.0-180.0","","","3-5","4488","38","1","Testing","Stims/Figures/84-J-0-2.bmp","nama:la","Down","38","2","8","2","S","J","32"
"","","approach-retreat","181","1149229","0.0-181.0","","","3-5","4447","37","1","Testing","Stims/Figures/85-J-0-2.bmp","nama:la","Right","37","2","9","2","S","J","33"
"","","approach-retreat","182","1155189","0.0-182.0","","","3-5","4456","39","1","Testing","Stims/Figures/102-C-20-4.bmp","ta:pata","Right","39","2","10","2","P","J","34"
"","","approach-retreat","183","1161703","0.0-183.0","","","3-5","5010","39","1","Testing","Stims/Figures/19-J-10-4.bmp","nama:la","Left","39","2","11","2","S","J","35"
"","","approach-retreat","184","1167722","0.0-184.0","","","3-5","4512","40","1","Testing","Stims/Figures/100-C-30-3.bmp","ta:pata","Down","40","2","12","2","P","J","36"
"","","approach-retreat","185","1174555","0.0-185.0","","","3-5","5326","40","1","Testing","Stims/Figures/93-J-0-1.bmp","nama:la","Up","40","2","13","2","S","J","37"
"","","approach-retreat","186","1180510","0.0-186.0","","","3-5","4451","39","1","Testing","Stims/Figures/111-C-30-3.bmp","ta:pata","Right","39","2","14","2","P","J","38"
"","","approach-retreat","187","1186824","0.0-187.0","","","3-5","4810","39","1","Testing","Stims/Figures/19-C-20-4.bmp","ta:pata","Right","39","2","15","2","P","J","39"
"","","approach-retreat","188","1192834","0.0-188.0","","","3-5","4506","38","1","Testing","Stims/Figures/87-C-20-4.bmp","ta:pata","Up","38","2","16","2","P","J","40"
"","","approach-retreat","189","1198743","0.0-189.0","","","3-5","4405","39","1","Testing","Stims/Figures/87-J-10-4.bmp","nama:la","Left","39","2","17","2","S","J","41"
"","","approach-retreat","190","1205165","0.0-190.0","","","3-5","4917","37","1","Testing","Stims/Figures/93-C-30-1.bmp","ta:pata","Left","37","2","18","2","P","J","42"
"","","approach-retreat","191","1216865","0.0-191.0","","","3-5","10197","38","0","Testing","Stims/Figures/118-C-20-2.bmp","ta:pata","Down","40","2","19","2","P","J","43"
"","","approach-retreat","192","1222808","0.0-192.0","","","3-5","4438","38","1","Testing","Stims/Figures/85-C-20-2.bmp","ta:pata","Up","38","2","20","2","P","J","44"
"","","approach-retreat","193","1230517","0.0-193.0","","","3-5","6206","40","1","Testing","Stims/Figures/71-C-30-1.bmp","ta:pata","Down","40","2","21","2","P","J","45"
"","","approach-retreat","194","1236625","0.0-194.0","","","3-5","4603","39","1","Testing","Stims/Figures/100-J-10-3.bmp","nama:la","Left","39","2","22","2","S","J","46"
"","","approach-retreat","195","1242860","0.0-195.0","","","3-5","4730","39","1","Testing","Stims/Figures/111-J-10-3.bmp","nama:la","Left","39","2","23","2","S","J","47"
"","","approach-retreat","196","1249045","0.0-196.0","","","3-5","4678","40","1","Testing","Stims/Figures/102-J-10-4.bmp","nama:la","Up","40","2","24","2","S","J","48"
"","","approach-retreat","197","1255224","0.0-197.0","","","3-5","4675","40","1","Testing","Stims/Figures/85-C-20-2.bmp","ta:pata","Down","40","3","1","2","P","J","49"
"","","approach-retreat","198","1261308","0.0-198.0","","","3-5","4580","38","1","Testing","Stims/Figures/100-J-10-3.bmp","nama:la","Down","38","3","2","2","S","J","50"
"","","approach-retreat","199","1267234","0.0-199.0","","","3-5","4422","40","1","Testing","Stims/Figures/93-J-0-1.bmp","nama:la","Up","40","3","3","2","S","J","51"
"","","approach-retreat","200","1273328","0.0-200.0","","","3-5","4590","39","1","Testing","Stims/Figures/128-J-10-3.bmp","nama:la","Left","39","3","4","2","S","J","52"
"","","approach-retreat","201","1279536","0.0-201.0","","","3-5","4703","40","1","Testing","Stims/Figures/87-C-20-4.bmp","ta:pata","Down","40","3","5","2","P","J","53"
"","","approach-retreat","202","1285782","0.0-202.0","","","3-5","4741","40","1","Testing","Stims/Figures/118-C-20-2.bmp","ta:pata","Down","40","3","6","2","P","J","54"
"","","approach-retreat","203","1291916","0.0-203.0","","","3-5","4630","38","1","Testing","Stims/Figures/57-C-30-1.bmp","ta:pata","Up","38","3","7","2","P","J","55"
"","","approach-retreat","204","1298041","0.0-204.0","","","3-5","4621","37","1","Testing","Stims/Figures/71-C-30-1.bmp","ta:pata","Left","37","3","8","2","P","J","56"
"","","approach-retreat","205","1303826","0.0-205.0","","","3-5","4280","38","1","Testing","Stims/Figures/84-J-0-2.bmp","nama:la","Down","38","3","9","2","S","J","57"
"","","approach-retreat","206","1310485","0.0-206.0","","","3-5","5154","37","1","Testing","Stims/Figures/19-J-10-4.bmp","nama:la","Right","37","3","10","2","S","J","58"
"","","approach-retreat","207","1318109","0.0-207.0","","","3-5","6119","40","1","Testing","Stims/Figures/85-J-0-2.bmp","nama:la","Up","40","3","11","2","S","J","59"
"","","approach-retreat","208","1324696","0.0-208.0","","","3-5","5083","39","1","Testing","Stims/Figures/128-C-30-3.bmp","ta:pata","Right","39","3","12","2","P","J","60"
"","","approach-retreat","209","1330557","0.0-209.0","","","3-5","4354","39","1","Testing","Stims/Figures/100-C-30-3.bmp","ta:pata","Right","39","3","13","2","P","J","61"
"","","approach-retreat","210","1337591","0.0-210.0","","","3-5","5529","37","1","Testing","Stims/Figures/87-J-10-4.bmp","nama:la","Right","37","3","14","2","S","J","62"
"","","approach-retreat","211","1343873","0.0-211.0","","","3-5","4775","39","1","Testing","Stims/Figures/57-J-0-1.bmp","nama:la","Left","39","3","15","2","S","J","63"
"","","approach-retreat","212","1349930","0.0-212.0","","","3-5","4549","37","1","Testing","Stims/Figures/102-C-20-4.bmp","ta:pata","Left","37","3","16","2","P","J","64"
"","","approach-retreat","213","1356427","0.0-213.0","","","3-5","4992","37","1","Testing","Stims/Figures/93-C-30-1.bmp","ta:pata","Left","37","3","17","2","P","J","65"
"","","approach-retreat","214","1362494","0.0-214.0","","","3-5","4563","40","1","Testing","Stims/Figures/111-J-10-3.bmp","nama:la","Up","40","3","18","2","S","J","66"
"","","approach-retreat","215","1368293","0.0-215.0","","","3-5","4294","37","1","Testing","Stims/Figures/71-J-0-1.bmp","nama:la","Right","37","3","19","2","S","J","67"
"","","approach-retreat","216","1374158","0.0-216.0","","","3-5","4360","40","0","Testing","Stims/Figures/111-C-30-3.bmp","ta:pata","Up","38","3","20","2","P","J","68"
"","","approach-retreat","217","1380315","0.0-217.0","","","3-5","4650","37","1","Testing","Stims/Figures/19-C-20-4.bmp","ta:pata","Left","37","3","21","2","P","J","69"
"","","approach-retreat","218","1386913","0.0-218.0","","","3-5","5093","40","1","Testing","Stims/Figures/118-J-0-2.bmp","nama:la","Up","40","3","22","2","S","J","70"
"","","approach-retreat","219","1393030","0.0-219.0","","","3-5","4609","39","1","Testing","Stims/Figures/84-C-20-2.bmp","ta:pata","Right","39","3","23","2","P","J","71"
"","","approach-retreat","220","1399052","0.0-220.0","","","3-5","4518","38","1","Testing","Stims/Figures/102-J-10-4.bmp","nama:la","Down","38","3","24","2","S","J","72"
"","","approach-retreat","221","1406247","0.0-221.0","","","3-5","5688","37","1","Testing","Stims/Figures/71-C-30-1.bmp","ta:pata","Left","37","4","1","2","P","J","73"
"","","approach-retreat","222","1412177","0.0-222.0","","","3-5","4427","40","1","Testing","Stims/Figures/85-C-20-2.bmp","ta:pata","Down","40","4","2","2","P","J","74"
"","","approach-retreat","223","1418217","0.0-223.0","","","3-5","4533","39","1","Testing","Stims/Figures/118-C-20-2.bmp","ta:pata","Right","39","4","3","2","P","J","75"
"","","approach-retreat","224","1424519","0.0-224.0","","","3-5","4797","40","1","Testing","Stims/Figures/57-J-0-1.bmp","nama:la","Up","40","4","4","2","S","J","76"
"","","approach-retreat","225","1430480","0.0-225.0","","","3-5","4456","39","1","Testing","Stims/Figures/85-J-0-2.bmp","nama:la","Left","39","4","5","2","S","J","77"
"","","approach-retreat","226","1436696","0.0-226.0","","","3-5","4708","39","1","Testing","Stims/Figures/84-J-0-2.bmp","nama:la","Left","39","4","6","2","S","J","78"
"","","approach-retreat","227","1442872","0.0-227.0","","","3-5","4668","37","1","Testing","Stims/Figures/71-J-0-1.bmp","nama:la","Right","37","4","7","2","S","J","79"
"","","approach-retreat","228","1448729","0.0-228.0","","","3-5","4349","38","1","Testing","Stims/Figures/128-C-30-3.bmp","ta:pata","Up","38","4","8","2","P","J","80"
"","","approach-retreat","229","1454614","0.0-229.0","","","3-5","4382","40","1","Testing","Stims/Figures/19-J-10-4.bmp","nama:la","Up","40","4","9","2","S","J","81"
"","","approach-retreat","230","1460657","0.0-230.0","","","3-5","4540","40","1","Testing","Stims/Figures/100-C-30-3.bmp","ta:pata","Down","40","4","10","2","P","J","82"
"","","approach-retreat","231","1467853","0.0-231.0","","","3-5","5692","37","1","Testing","Stims/Figures/84-C-20-2.bmp","ta:pata","Left","37","4","11","2","P","J","83"
"","","approach-retreat","232","1473912","0.0-232.0","","","3-5","4552","38","1","Testing","Stims/Figures/118-J-0-2.bmp","nama:la","Down","38","4","12","2","S","J","84"
"","","approach-retreat","233","1479953","0.0-233.0","","","3-5","4532","40","1","Testing","Stims/Figures/111-C-30-3.bmp","ta:pata","Down","40","4","13","2","P","J","85"
"","","approach-retreat","234","1486153","0.0-234.0","","","3-5","4696","37","1","Testing","Stims/Figures/111-J-10-3.bmp","nama:la","Right","37","4","14","2","S","J","86"
"","","approach-retreat","235","1492087","0.0-235.0","","","3-5","4431","38","1","Testing","Stims/Figures/87-J-10-4.bmp","nama:la","Down","38","4","15","2","S","J","87"
"","","approach-retreat","236","1503152","0.0-236.0","","","3-5","9562","40","0","Testing","Stims/Figures/102-C-20-4.bmp","ta:pata","Up","38","4","16","2","P","J","88"
"","","approach-retreat","237","1509126","0.0-237.0","","","3-5","4471","38","1","Testing","Stims/Figures/102-J-10-4.bmp","nama:la","Down","38","4","17","2","S","J","89"
"","","approach-retreat","238","1515301","0.0-238.0","","","3-5","4671","37","1","Testing","Stims/Figures/57-C-30-1.bmp","ta:pata","Left","37","4","18","2","P","J","90"
"","","approach-retreat","239","1521231","0.0-239.0","","","3-5","4423","37","1","Testing","Stims/Figures/93-C-30-1.bmp","ta:pata","Left","37","4","19","2","P","J","91"
"","","approach-retreat","240","1527506","0.0-240.0","","","3-5","4768","39","1","Testing","Stims/Figures/19-C-20-4.bmp","ta:pata","Right","39","4","20","2","P","J","92"
"","","approach-retreat","241","1533729","0.0-241.0","","","3-5","4718","40","1","Testing","Stims/Figures/93-J-0-1.bmp","nama:la","Up","40","4","21","2","S","J","93"
"","","approach-retreat","242","1540631","0.0-242.0","","","3-5","5396","37","1","Testing","Stims/Figures/128-J-10-3.bmp","nama:la","Right","37","4","22","2","S","J","94"
"","","approach-retreat","243","1546471","0.0-243.0","","","3-5","4332","37","1","Testing","Stims/Figures/100-J-10-3.bmp","nama:la","Right","37","4","23","2","S","J","95"
"","","approach-retreat","244","1552576","0.0-244.0","","","3-5","4598","38","1","Testing","Stims/Figures/87-C-20-4.bmp","ta:pata","Up","38","4","24","2","P","J","96"
"21736","","survey-text","245","1574316","0.0-245.0","","{""Q0"":""2018/1071""}","","","","","","","","","","","","","","",""
