"rt","key_press","trial_type","trial_index","time_elapsed","internal_node_id","view_history","responses","Id","Rt","ResKeyCode","ResCorr","TrialType2","Image","Label","Location","CorrectResponse","Block","BlockTrial","Condition","LabelType","Subcondition","trialNum"
"16138","32","text","0","16141","0.0-0.0-0.0","","","","","","","","","","","","","","","","",""
"18773","","instructions","1","34917","0.0-1.0","[{""page_index"":0,""viewing_time"":18772}]","","","","","","","","","","","","","","","",""
"32590","","survey-multi-choice","2","67566","0.0-2.0","","{""Q0"":""Da"",""Q1"":""Da"",""Q2"":""Da"",""Q3"":""Da"",""Q4"":""Da"",""Q5"":""Da""}","","","","","","","","","","","","","","",""
"","","bio","3","75720","0.0-3.0","","{""age"":""20"",""gender"":""f"",""specify"":""""}","","","","","","","","","","","","","","",""
"","","approach-retreat","4","88356","0.0-4.0","","","1-1","11004","39","1","Training","Stims/Figures/94-C-20-2.bmp","papata","Left","39","1","1","5","P","C","1"
"","","approach-retreat","5","97822","0.0-5.0","","","1-1","7959","40","1","Training","Stims/Figures/100-J-10-3.bmp","ma:mana","Down","40","1","2","5","S","C","2"
"","","approach-retreat","6","104250","0.0-6.0","","","1-1","4919","37","1","Training","Stims/Figures/111-J-10-3.bmp","ma:la:na","Left","37","1","3","5","S","C","3"
"","","approach-retreat","7","110072","0.0-7.0","","","1-1","4313","38","0","Training","Stims/Figures/74-C-20-4.bmp","pa:kaka","Up","40","1","4","5","P","C","4"
"","","approach-retreat","8","116182","0.0-8.0","","","1-1","4584","40","1","Training","Stims/Figures/87-J-10-4.bmp","mala:na","Down","40","1","5","5","S","C","5"
"","","approach-retreat","9","122250","0.0-9.0","","","1-1","4555","38","1","Training","Stims/Figures/94-J-0-2.bmp","mamana","Up","38","1","6","5","S","C","6"
"","","approach-retreat","10","128260","0.0-10.0","","","1-1","4503","38","1","Training","Stims/Figures/57-C-30-1.bmp","tapaka","Down","38","1","7","5","P","C","7"
"","","approach-retreat","11","134286","0.0-11.0","","","1-1","4515","39","0","Training","Stims/Figures/85-J-0-2.bmp","mama:na","Left","37","1","8","5","S","C","8"
"","","approach-retreat","12","140166","0.0-12.0","","","1-1","4373","37","0","Training","Stims/Figures/100-C-30-3.bmp","pa:pa:ta","Left","39","1","9","5","P","C","9"
"","","approach-retreat","13","146446","0.0-13.0","","","1-1","4773","40","0","Training","Stims/Figures/74-J-10-4.bmp","ma:lana","Up","38","1","10","5","S","C","10"
"","","approach-retreat","14","152202","0.0-14.0","","","1-1","4249","37","1","Training","Stims/Figures/85-C-20-2.bmp","papa:ka","Right","37","1","11","5","P","C","11"
"","","approach-retreat","15","157928","0.0-15.0","","","1-1","4219","37","0","Training","Stims/Figures/86-J-0-1.bmp","nala:la","Right","39","1","12","5","S","C","12"
"","","approach-retreat","16","163615","0.0-16.0","","","1-1","4180","37","1","Training","Stims/Figures/111-C-30-3.bmp","taka:ta","Right","37","1","13","5","P","C","13"
"","","approach-retreat","17","169271","0.0-17.0","","","1-1","4148","38","1","Training","Stims/Figures/86-C-30-1.bmp","ta:pa:ta","Down","38","1","14","5","P","C","14"
"","","approach-retreat","18","174947","0.0-18.0","","","1-1","4168","37","1","Training","Stims/Figures/87-C-20-4.bmp","takata","Right","37","1","15","5","P","C","15"
"","","approach-retreat","19","181087","0.0-19.0","","","1-1","4631","40","0","Training","Stims/Figures/57-J-0-1.bmp","na:ma:la","Up","38","1","16","5","S","C","16"
"","","approach-retreat","20","187745","0.0-20.0","","","1-1","5150","40","1","Training","Stims/Figures/85-C-20-2.bmp","papa:ka","Up","40","2","1","5","P","C","17"
"","","approach-retreat","21","193487","0.0-21.0","","","1-1","4234","38","1","Training","Stims/Figures/87-C-20-4.bmp","takata","Down","38","2","2","5","P","C","18"
"","","approach-retreat","22","199232","0.0-22.0","","","1-1","4237","38","1","Training","Stims/Figures/57-C-30-1.bmp","tapaka","Down","38","2","3","5","P","C","19"
"","","approach-retreat","23","204864","0.0-23.0","","","1-1","4124","40","1","Training","Stims/Figures/74-C-20-4.bmp","pa:kaka","Up","40","2","4","5","P","C","20"
"","","approach-retreat","24","210378","0.0-24.0","","","1-1","4006","37","0","Training","Stims/Figures/74-J-10-4.bmp","ma:lana","Right","39","2","5","5","S","C","21"
"","","approach-retreat","25","216012","0.0-25.0","","","1-1","4128","38","0","Training","Stims/Figures/57-J-0-1.bmp","na:ma:la","Down","40","2","6","5","S","C","22"
"","","approach-retreat","26","224119","0.0-26.0","","","1-1","6600","39","0","Training","Stims/Figures/111-J-10-3.bmp","ma:la:na","Left","37","2","7","5","S","C","23"
"","","approach-retreat","27","248102","0.0-27.0","","","1-1","22467","39","1","Training","Stims/Figures/111-C-30-3.bmp","taka:ta","Left","39","2","8","5","P","C","24"
"","","approach-retreat","28","254306","0.0-28.0","","","1-1","4694","39","1","Training","Stims/Figures/94-C-20-2.bmp","papata","Left","39","2","9","5","P","C","25"
"","","approach-retreat","29","260386","0.0-29.0","","","1-1","4574","40","0","Training","Stims/Figures/100-J-10-3.bmp","ma:mana","Up","38","2","10","5","S","C","26"
"","","approach-retreat","30","266284","0.0-30.0","","","1-1","4392","39","1","Training","Stims/Figures/86-C-30-1.bmp","ta:pa:ta","Left","39","2","11","5","P","C","27"
"","","approach-retreat","31","272329","0.0-31.0","","","1-1","4537","38","1","Training","Stims/Figures/100-C-30-3.bmp","pa:pa:ta","Down","38","2","12","5","P","C","28"
"","","approach-retreat","32","277845","0.0-32.0","","","1-1","4009","40","0","Training","Stims/Figures/87-J-10-4.bmp","mala:na","Up","38","2","13","5","S","C","29"
"","","approach-retreat","33","283686","0.0-33.0","","","1-1","4332","37","0","Training","Stims/Figures/94-J-0-2.bmp","mamana","Right","39","2","14","5","S","C","30"
"","","approach-retreat","34","289235","0.0-34.0","","","1-1","4041","37","0","Training","Stims/Figures/85-J-0-2.bmp","mama:na","Right","39","2","15","5","S","C","31"
"","","approach-retreat","35","295349","0.0-35.0","","","1-1","4607","39","1","Training","Stims/Figures/86-J-0-1.bmp","nala:la","Right","39","2","16","5","S","C","32"
"","","approach-retreat","36","300961","0.0-36.0","","","1-1","4107","38","1","Training","Stims/Figures/74-C-20-4.bmp","pa:kaka","Down","38","3","1","5","P","C","33"
"","","approach-retreat","37","306459","0.0-37.0","","","1-1","3990","38","1","Training","Stims/Figures/94-C-20-2.bmp","papata","Down","38","3","2","5","P","C","34"
"","","approach-retreat","38","312070","0.0-38.0","","","1-1","4103","40","1","Training","Stims/Figures/100-C-30-3.bmp","pa:pa:ta","Up","40","3","3","5","P","C","35"
"","","approach-retreat","39","317689","0.0-39.0","","","1-1","4111","37","1","Training","Stims/Figures/86-C-30-1.bmp","ta:pa:ta","Right","37","3","4","5","P","C","36"
"","","approach-retreat","40","323325","0.0-40.0","","","1-1","4127","40","0","Training","Stims/Figures/57-J-0-1.bmp","na:ma:la","Up","38","3","5","5","S","C","37"
"","","approach-retreat","41","329157","0.0-41.0","","","1-1","4323","39","0","Training","Stims/Figures/111-J-10-3.bmp","ma:la:na","Left","37","3","6","5","S","C","38"
"","","approach-retreat","42","335113","0.0-42.0","","","1-1","4447","37","1","Training","Stims/Figures/85-C-20-2.bmp","papa:ka","Right","37","3","7","5","P","C","39"
"","","approach-retreat","43","341011","0.0-43.0","","","1-1","4391","38","1","Training","Stims/Figures/111-C-30-3.bmp","taka:ta","Down","38","3","8","5","P","C","40"
"","","approach-retreat","44","456582","0.0-44.0","","","1-1","114059","39","0","Training","Stims/Figures/74-J-10-4.bmp","ma:lana","Left","37","3","9","5","S","C","41"
"","","approach-retreat","45","463482","0.0-45.0","","","1-1","5393","39","1","Training","Stims/Figures/87-C-20-4.bmp","takata","Left","39","3","10","5","P","C","42"
"","","approach-retreat","46","469337","0.0-46.0","","","1-1","4348","37","0","Training","Stims/Figures/87-J-10-4.bmp","mala:na","Right","39","3","11","5","S","C","43"
"","","approach-retreat","47","475074","0.0-47.0","","","1-1","4231","39","1","Training","Stims/Figures/57-C-30-1.bmp","tapaka","Left","39","3","12","5","P","C","44"
"","","approach-retreat","48","480970","0.0-48.0","","","1-1","4389","38","0","Training","Stims/Figures/85-J-0-2.bmp","mama:na","Down","40","3","13","5","S","C","45"
"","","approach-retreat","49","486305","0.0-49.0","","","1-1","3828","40","0","Training","Stims/Figures/94-J-0-2.bmp","mamana","Up","38","3","14","5","S","C","46"
"","","approach-retreat","50","491948","0.0-50.0","","","1-1","4135","38","1","Training","Stims/Figures/100-J-10-3.bmp","ma:mana","Up","38","3","15","5","S","C","47"
"","","approach-retreat","51","520323","0.0-51.0","","","1-1","26868","37","0","Training","Stims/Figures/86-J-0-1.bmp","nala:la","Right","39","3","16","5","S","C","48"
"","","approach-retreat","52","526065","0.0-52.0","","","1-1","4236","40","1","Training","Stims/Figures/100-C-30-3.bmp","pa:pa:ta","Up","40","4","1","5","P","C","49"
"","","approach-retreat","53","544938","0.0-53.0","","","1-1","17364","37","1","Training","Stims/Figures/87-C-20-4.bmp","takata","Right","37","4","2","5","P","C","50"
"","","approach-retreat","54","553669","0.0-54.0","","","1-1","7222","40","0","Training","Stims/Figures/94-J-0-2.bmp","mamana","Up","38","4","3","5","S","C","51"
"","","approach-retreat","55","559613","0.0-55.0","","","1-1","4438","37","0","Training","Stims/Figures/57-C-30-1.bmp","tapaka","Left","39","4","4","5","P","C","52"
"","","approach-retreat","56","565180","0.0-56.0","","","1-1","4059","37","0","Training","Stims/Figures/87-J-10-4.bmp","mala:na","Right","39","4","5","5","S","C","53"
"","","approach-retreat","57","570789","0.0-57.0","","","1-1","4103","40","1","Training","Stims/Figures/86-C-30-1.bmp","ta:pa:ta","Up","40","4","6","5","P","C","54"
"","","approach-retreat","58","576633","0.0-58.0","","","1-1","4334","37","1","Training","Stims/Figures/94-C-20-2.bmp","papata","Right","37","4","7","5","P","C","55"
"","","approach-retreat","59","582550","0.0-59.0","","","1-1","4411","40","0","Training","Stims/Figures/111-J-10-3.bmp","ma:la:na","Up","38","4","8","5","S","C","56"
"","","approach-retreat","60","588232","0.0-60.0","","","1-1","4175","38","0","Training","Stims/Figures/100-J-10-3.bmp","ma:mana","Down","40","4","9","5","S","C","57"
"","","approach-retreat","61","593836","0.0-61.0","","","1-1","4095","38","0","Training","Stims/Figures/86-J-0-1.bmp","nala:la","Down","40","4","10","5","S","C","58"
"","","approach-retreat","62","599574","0.0-62.0","","","1-1","4230","37","0","Training","Stims/Figures/74-J-10-4.bmp","ma:lana","Right","39","4","11","5","S","C","59"
"","","approach-retreat","63","605699","0.0-63.0","","","1-1","4619","38","0","Training","Stims/Figures/85-J-0-2.bmp","mama:na","Down","40","4","12","5","S","C","60"
"","","approach-retreat","64","611465","0.0-64.0","","","1-1","4259","39","1","Training","Stims/Figures/85-C-20-2.bmp","papa:ka","Left","39","4","13","5","P","C","61"
"","","approach-retreat","65","617729","0.0-65.0","","","1-1","4757","39","1","Training","Stims/Figures/111-C-30-3.bmp","taka:ta","Left","39","4","14","5","P","C","62"
"","","approach-retreat","66","623553","0.0-66.0","","","1-1","4317","39","0","Training","Stims/Figures/57-J-0-1.bmp","na:ma:la","Left","37","4","15","5","S","C","63"
"","","approach-retreat","67","629590","0.0-67.0","","","1-1","4530","38","1","Training","Stims/Figures/74-C-20-4.bmp","pa:kaka","Down","38","4","16","5","P","C","64"
"","","approach-retreat","68","635405","0.0-68.0","","","1-1","4306","37","0","Training","Stims/Figures/94-J-0-2.bmp","mamana","Right","39","5","1","5","S","C","65"
"","","approach-retreat","69","641058","0.0-69.0","","","1-1","4145","38","0","Training","Stims/Figures/85-C-20-2.bmp","papa:ka","Up","40","5","2","5","P","C","66"
"","","approach-retreat","70","646391","0.0-70.0","","","1-1","3826","39","0","Training","Stims/Figures/100-J-10-3.bmp","ma:mana","Left","37","5","3","5","S","C","67"
"","","approach-retreat","71","652937","0.0-71.0","","","1-1","5038","37","0","Training","Stims/Figures/74-J-10-4.bmp","ma:lana","Right","39","5","4","5","S","C","68"
"","","approach-retreat","72","658482","0.0-72.0","","","1-1","4038","38","1","Training","Stims/Figures/100-C-30-3.bmp","pa:pa:ta","Down","38","5","5","5","P","C","69"
"","","approach-retreat","73","664138","0.0-73.0","","","1-1","4149","40","1","Training","Stims/Figures/94-C-20-2.bmp","papata","Up","40","5","6","5","P","C","70"
"","","approach-retreat","74","669723","0.0-74.0","","","1-1","4077","39","0","Training","Stims/Figures/85-J-0-2.bmp","mama:na","Left","37","5","7","5","S","C","71"
"","","approach-retreat","75","675596","0.0-75.0","","","1-1","4365","40","1","Training","Stims/Figures/57-C-30-1.bmp","tapaka","Up","40","5","8","5","P","C","72"
"","","approach-retreat","76","681448","0.0-76.0","","","1-1","4345","37","1","Training","Stims/Figures/86-C-30-1.bmp","ta:pa:ta","Right","37","5","9","5","P","C","73"
"","","approach-retreat","77","687590","0.0-77.0","","","1-1","4635","39","0","Training","Stims/Figures/111-J-10-3.bmp","ma:la:na","Left","37","5","10","5","S","C","74"
"","","approach-retreat","78","694708","0.0-78.0","","","1-1","5610","38","1","Training","Stims/Figures/74-C-20-4.bmp","pa:kaka","Down","38","5","11","5","P","C","75"
"","","approach-retreat","79","700763","0.0-79.0","","","1-1","4545","39","0","Training","Stims/Figures/86-J-0-1.bmp","nala:la","Left","37","5","12","5","S","C","76"
"","","approach-retreat","80","711060","0.0-80.0","","","1-1","8783","38","0","Training","Stims/Figures/57-J-0-1.bmp","na:ma:la","Down","40","5","13","5","S","C","77"
"","","approach-retreat","81","716614","0.0-81.0","","","1-1","4048","38","0","Training","Stims/Figures/111-C-30-3.bmp","taka:ta","Up","40","5","14","5","P","C","78"
"","","approach-retreat","82","722079","0.0-82.0","","","1-1","3957","37","0","Training","Stims/Figures/87-J-10-4.bmp","mala:na","Right","39","5","15","5","S","C","79"
"","","approach-retreat","83","730623","0.0-83.0","","","1-1","7036","38","1","Training","Stims/Figures/87-C-20-4.bmp","takata","Down","38","5","16","5","P","C","80"
"","","approach-retreat","84","736096","0.0-84.0","","","1-1","3965","37","0","Training","Stims/Figures/87-J-10-4.bmp","mala:na","Right","39","6","1","5","S","C","81"
"","","approach-retreat","85","741470","0.0-85.0","","","1-1","3867","38","1","Training","Stims/Figures/57-C-30-1.bmp","tapaka","Down","38","6","2","5","P","C","82"
"","","approach-retreat","86","746843","0.0-86.0","","","1-1","3865","37","0","Training","Stims/Figures/111-J-10-3.bmp","ma:la:na","Right","39","6","3","5","S","C","83"
"","","approach-retreat","87","752440","0.0-87.0","","","1-1","4092","39","0","Training","Stims/Figures/57-J-0-1.bmp","na:ma:la","Left","37","6","4","5","S","C","84"
"","","approach-retreat","88","758162","0.0-88.0","","","1-1","4217","40","0","Training","Stims/Figures/86-J-0-1.bmp","nala:la","Up","38","6","5","5","S","C","85"
"","","approach-retreat","89","763828","0.0-89.0","","","1-1","4159","38","0","Training","Stims/Figures/94-J-0-2.bmp","mamana","Down","40","6","6","5","S","C","86"
"","","approach-retreat","90","769299","0.0-90.0","","","1-1","3964","37","1","Training","Stims/Figures/94-C-20-2.bmp","papata","Right","37","6","7","5","P","C","87"
"","","approach-retreat","91","775256","0.0-91.0","","","1-1","4451","39","1","Training","Stims/Figures/74-C-20-4.bmp","pa:kaka","Left","39","6","8","5","P","C","88"
"","","approach-retreat","92","780775","0.0-92.0","","","1-1","4011","39","1","Training","Stims/Figures/85-C-20-2.bmp","papa:ka","Left","39","6","9","5","P","C","89"
"","","approach-retreat","93","786755","0.0-93.0","","","1-1","4474","40","1","Training","Stims/Figures/86-C-30-1.bmp","ta:pa:ta","Up","40","6","10","5","P","C","90"
"","","approach-retreat","94","792554","0.0-94.0","","","1-1","4290","38","0","Training","Stims/Figures/74-J-10-4.bmp","ma:lana","Down","40","6","11","5","S","C","91"
"","","approach-retreat","95","798170","0.0-95.0","","","1-1","4108","37","0","Training","Stims/Figures/100-J-10-3.bmp","ma:mana","Right","39","6","12","5","S","C","92"
"","","approach-retreat","96","804003","0.0-96.0","","","1-1","4325","39","1","Training","Stims/Figures/111-C-30-3.bmp","taka:ta","Left","39","6","13","5","P","C","93"
"","","approach-retreat","97","809482","0.0-97.0","","","1-1","3972","40","0","Training","Stims/Figures/85-J-0-2.bmp","mama:na","Up","38","6","14","5","S","C","94"
"","","approach-retreat","98","815259","0.0-98.0","","","1-1","4268","40","1","Training","Stims/Figures/100-C-30-3.bmp","pa:pa:ta","Up","40","6","15","5","P","C","95"
"","","approach-retreat","99","821000","0.0-99.0","","","1-1","4235","38","1","Training","Stims/Figures/87-C-20-4.bmp","takata","Down","38","6","16","5","P","C","96"
"","","approach-retreat","100","835771","0.0-100.0","","","1-1","13263","40","1","Training","Stims/Figures/111-C-30-3.bmp","taka:ta","Up","40","7","1","5","P","C","97"
"","","approach-retreat","101","848624","0.0-101.0","","","1-1","11345","39","1","Training","Stims/Figures/87-C-20-4.bmp","takata","Left","39","7","2","5","P","C","98"
"","","approach-retreat","102","855126","0.0-102.0","","","1-1","4995","38","0","Training","Stims/Figures/100-C-30-3.bmp","pa:pa:ta","Up","40","7","3","5","P","C","99"
"","","approach-retreat","103","863159","0.0-103.0","","","1-1","6526","38","1","Training","Stims/Figures/86-C-30-1.bmp","ta:pa:ta","Down","38","7","4","5","P","C","100"
"","","approach-retreat","104","868791","0.0-104.0","","","1-1","4125","39","1","Training","Stims/Figures/57-C-30-1.bmp","tapaka","Left","39","7","5","5","P","C","101"
"","","approach-retreat","105","875137","0.0-105.0","","","1-1","4838","40","1","Training","Stims/Figures/74-J-10-4.bmp","ma:lana","Down","40","7","6","5","S","C","102"
"","","approach-retreat","106","881360","0.0-106.0","","","1-1","4714","37","0","Training","Stims/Figures/94-J-0-2.bmp","mamana","Right","39","7","7","5","S","C","103"
"","","approach-retreat","107","886979","0.0-107.0","","","1-1","4110","37","1","Training","Stims/Figures/94-C-20-2.bmp","papata","Right","37","7","8","5","P","C","104"
"","","approach-retreat","108","892699","0.0-108.0","","","1-1","4208","39","1","Training","Stims/Figures/111-J-10-3.bmp","ma:la:na","Right","39","7","9","5","S","C","105"
"","","approach-retreat","109","898409","0.0-109.0","","","1-1","4199","38","1","Training","Stims/Figures/74-C-20-4.bmp","pa:kaka","Down","38","7","10","5","P","C","106"
"","","approach-retreat","110","904069","0.0-110.0","","","1-1","4152","39","1","Training","Stims/Figures/87-J-10-4.bmp","mala:na","Right","39","7","11","5","S","C","107"
"","","approach-retreat","111","910200","0.0-111.0","","","1-1","4622","40","1","Training","Stims/Figures/85-C-20-2.bmp","papa:ka","Up","40","7","12","5","P","C","108"
"","","approach-retreat","112","915671","0.0-112.0","","","1-1","3963","38","1","Training","Stims/Figures/100-J-10-3.bmp","ma:mana","Up","38","7","13","5","S","C","109"
"","","approach-retreat","113","921335","0.0-113.0","","","1-1","4154","37","1","Training","Stims/Figures/86-J-0-1.bmp","nala:la","Left","37","7","14","5","S","C","110"
"","","approach-retreat","114","927184","0.0-114.0","","","1-1","4342","40","1","Training","Stims/Figures/57-J-0-1.bmp","na:ma:la","Down","40","7","15","5","S","C","111"
"","","approach-retreat","115","932935","0.0-115.0","","","1-1","4243","37","1","Training","Stims/Figures/85-J-0-2.bmp","mama:na","Left","37","7","16","5","S","C","112"
"","","approach-retreat","116","938498","0.0-116.0","","","1-1","4054","38","1","Training","Stims/Figures/87-C-20-4.bmp","takata","Down","38","8","1","5","P","C","113"
"","","approach-retreat","117","944049","0.0-117.0","","","1-1","4045","37","0","Training","Stims/Figures/74-C-20-4.bmp","pa:kaka","Left","39","8","2","5","P","C","114"
"","","approach-retreat","118","949809","0.0-118.0","","","1-1","4252","37","1","Training","Stims/Figures/100-J-10-3.bmp","ma:mana","Left","37","8","3","5","S","C","115"
"","","approach-retreat","119","955617","0.0-119.0","","","1-1","4300","40","1","Training","Stims/Figures/85-C-20-2.bmp","papa:ka","Up","40","8","4","5","P","C","116"
"","","approach-retreat","120","961989","0.0-120.0","","","1-1","4867","38","1","Training","Stims/Figures/85-J-0-2.bmp","mama:na","Up","38","8","5","5","S","C","117"
"","","approach-retreat","121","968318","0.0-121.0","","","1-1","4821","40","1","Training","Stims/Figures/94-J-0-2.bmp","mamana","Down","40","8","6","5","S","C","118"
"","","approach-retreat","122","975055","0.0-122.0","","","1-1","5229","37","1","Training","Stims/Figures/86-J-0-1.bmp","nala:la","Left","37","8","7","5","S","C","119"
"","","approach-retreat","123","981014","0.0-123.0","","","1-1","4452","39","1","Training","Stims/Figures/74-J-10-4.bmp","ma:lana","Right","39","8","8","5","S","C","120"
"","","approach-retreat","124","986713","0.0-124.0","","","1-1","4192","39","1","Training","Stims/Figures/57-C-30-1.bmp","tapaka","Left","39","8","9","5","P","C","121"
"","","approach-retreat","125","992185","0.0-125.0","","","1-1","3966","37","1","Training","Stims/Figures/94-C-20-2.bmp","papata","Right","37","8","10","5","P","C","122"
"","","approach-retreat","126","997765","0.0-126.0","","","1-1","4071","38","1","Training","Stims/Figures/100-C-30-3.bmp","pa:pa:ta","Down","38","8","11","5","P","C","123"
"","","approach-retreat","127","1004218","0.0-127.0","","","1-1","4945","39","1","Training","Stims/Figures/111-J-10-3.bmp","ma:la:na","Right","39","8","12","5","S","C","124"
"","","approach-retreat","128","1009860","0.0-128.0","","","1-1","4134","38","0","Training","Stims/Figures/111-C-30-3.bmp","taka:ta","Up","40","8","13","5","P","C","125"
"","","approach-retreat","129","1015465","0.0-129.0","","","1-1","4098","37","1","Training","Stims/Figures/86-C-30-1.bmp","ta:pa:ta","Right","37","8","14","5","P","C","126"
"","","approach-retreat","130","1021141","0.0-130.0","","","1-1","4171","40","1","Training","Stims/Figures/57-J-0-1.bmp","na:ma:la","Down","40","8","15","5","S","C","127"
"","","approach-retreat","131","1026802","0.0-131.0","","","1-1","4142","38","1","Training","Stims/Figures/87-J-10-4.bmp","mala:na","Up","38","8","16","5","S","C","128"
"","","approach-retreat","132","1032346","0.0-132.0","","","1-1","4033","38","1","Training","Stims/Figures/100-C-30-3.bmp","pa:pa:ta","Down","38","9","1","5","P","C","129"
"","","approach-retreat","133","1037892","0.0-133.0","","","1-1","4040","40","1","Training","Stims/Figures/57-C-30-1.bmp","tapaka","Up","40","9","2","5","P","C","130"
"","","approach-retreat","134","1043527","0.0-134.0","","","1-1","4127","39","1","Training","Stims/Figures/94-C-20-2.bmp","papata","Left","39","9","3","5","P","C","131"
"","","approach-retreat","135","1049025","0.0-135.0","","","1-1","3990","37","1","Training","Stims/Figures/74-C-20-4.bmp","pa:kaka","Right","37","9","4","5","P","C","132"
"","","approach-retreat","136","1054575","0.0-136.0","","","1-1","4044","40","1","Training","Stims/Figures/85-C-20-2.bmp","papa:ka","Up","40","9","5","5","P","C","133"
"","","approach-retreat","137","1060152","0.0-137.0","","","1-1","4070","37","1","Training","Stims/Figures/94-J-0-2.bmp","mamana","Left","37","9","6","5","S","C","134"
"","","approach-retreat","138","1066088","0.0-138.0","","","1-1","4428","38","1","Training","Stims/Figures/86-J-0-1.bmp","nala:la","Up","38","9","7","5","S","C","135"
"","","approach-retreat","139","1071607","0.0-139.0","","","1-1","4012","37","1","Training","Stims/Figures/100-J-10-3.bmp","ma:mana","Left","37","9","8","5","S","C","136"
"","","approach-retreat","140","1077303","0.0-140.0","","","1-1","4188","39","1","Training","Stims/Figures/85-J-0-2.bmp","mama:na","Right","39","9","9","5","S","C","137"
"","","approach-retreat","141","1082948","0.0-141.0","","","1-1","4137","40","1","Training","Stims/Figures/111-J-10-3.bmp","ma:la:na","Down","40","9","10","5","S","C","138"
"","","approach-retreat","142","1088538","0.0-142.0","","","1-1","4083","40","1","Training","Stims/Figures/111-C-30-3.bmp","taka:ta","Up","40","9","11","5","P","C","139"
"","","approach-retreat","143","1093961","0.0-143.0","","","1-1","3915","37","1","Training","Stims/Figures/57-J-0-1.bmp","na:ma:la","Left","37","9","12","5","S","C","140"
"","","approach-retreat","144","1099529","0.0-144.0","","","1-1","4062","40","1","Training","Stims/Figures/74-J-10-4.bmp","ma:lana","Down","40","9","13","5","S","C","141"
"","","approach-retreat","145","1104997","0.0-145.0","","","1-1","3960","39","1","Training","Stims/Figures/87-J-10-4.bmp","mala:na","Right","39","9","14","5","S","C","142"
"","","approach-retreat","146","1110564","0.0-146.0","","","1-1","4059","37","1","Training","Stims/Figures/86-C-30-1.bmp","ta:pa:ta","Right","37","9","15","5","P","C","143"
"","","approach-retreat","147","1116076","0.0-147.0","","","1-1","4005","38","1","Training","Stims/Figures/87-C-20-4.bmp","takata","Down","38","9","16","5","P","C","144"
"15115","","instructions","148","1131191","0.0-148.0","[{""page_index"":0,""viewing_time"":15113}]","","","","","","","","","","","","","","","",""
"","","approach-retreat","149","1136875","0.0-149.0","","","1-1","4180","38","0","Testing","Stims/Figures/128-C-30-3.bmp","pa:ka:ta","Up","40","1","1","5","P","C","1"
"","","approach-retreat","150","1142613","0.0-150.0","","","1-1","4233","37","1","Testing","Stims/Figures/111-C-30-3.bmp","taka:ta","Right","37","1","2","5","P","C","2"
"","","approach-retreat","151","1148369","0.0-151.0","","","1-1","4249","39","1","Testing","Stims/Figures/100-J-10-3.bmp","ma:mana","Right","39","1","3","5","S","C","3"
"","","approach-retreat","152","1165993","0.0-152.0","","","1-1","16116","39","1","Testing","Stims/Figures/87-C-20-4.bmp","takata","Left","39","1","4","5","P","C","4"
"","","approach-retreat","153","1171725","0.0-153.0","","","1-1","4227","40","0","Testing","Stims/Figures/139-J-0-2.bmp","nama:la","Up","38","1","5","5","S","C","5"
"","","approach-retreat","154","1177252","0.0-154.0","","","1-1","4021","38","0","Testing","Stims/Figures/19-J-10-4.bmp","ma:la:la","Down","40","1","6","5","S","C","6"
"","","approach-retreat","155","1182698","0.0-155.0","","","1-1","3940","40","0","Testing","Stims/Figures/57-J-0-1.bmp","na:ma:la","Up","38","1","7","5","S","C","7"
"","","approach-retreat","156","1188172","0.0-156.0","","","1-1","3966","38","1","Testing","Stims/Figures/57-C-30-1.bmp","tapaka","Down","38","1","8","5","P","C","8"
"","","approach-retreat","157","1193628","0.0-157.0","","","1-1","3950","39","0","Testing","Stims/Figures/87-J-10-4.bmp","mala:na","Left","37","1","9","5","S","C","9"
"","","approach-retreat","158","1199210","0.0-158.0","","","1-1","4076","39","1","Testing","Stims/Figures/86-C-30-1.bmp","ta:pa:ta","Left","39","1","10","5","P","C","10"
"","","approach-retreat","159","1204821","0.0-159.0","","","1-1","4105","40","0","Testing","Stims/Figures/139-C-20-2.bmp","tapa:ta","Down","38","1","11","5","P","C","11"
"","","approach-retreat","160","1210264","0.0-160.0","","","1-1","3937","37","0","Testing","Stims/Figures/86-J-0-1.bmp","nala:la","Right","39","1","12","5","S","C","12"
"","","approach-retreat","161","1215989","0.0-161.0","","","1-1","4219","40","0","Testing","Stims/Figures/74-C-20-4.bmp","pa:kaka","Down","38","1","13","5","P","C","13"
"","","approach-retreat","162","1221438","0.0-162.0","","","1-1","3942","38","1","Testing","Stims/Figures/100-C-30-3.bmp","pa:pa:ta","Down","38","1","14","5","P","C","14"
"","","approach-retreat","163","1226929","0.0-163.0","","","1-1","3986","37","1","Testing","Stims/Figures/71-C-30-1.bmp","papa:ta","Right","37","1","15","5","P","C","15"
"","","approach-retreat","164","1232372","0.0-164.0","","","1-1","3935","39","0","Testing","Stims/Figures/74-J-10-4.bmp","ma:lana","Left","37","1","16","5","S","C","16"
"","","approach-retreat","165","1238245","0.0-165.0","","","1-1","4366","39","0","Testing","Stims/Figures/94-J-0-2.bmp","mamana","Left","37","1","17","5","S","C","17"
"","","approach-retreat","166","1243853","0.0-166.0","","","1-1","4103","37","0","Testing","Stims/Figures/111-J-10-3.bmp","ma:la:na","Right","39","1","18","5","S","C","18"
"","","approach-retreat","167","1252954","0.0-167.0","","","1-1","7590","37","0","Testing","Stims/Figures/128-J-10-3.bmp","na:mala","Right","39","1","19","5","S","C","19"
"","","approach-retreat","168","1259027","0.0-168.0","","","1-1","4568","40","0","Testing","Stims/Figures/71-J-0-1.bmp","namala","Up","38","1","20","5","S","C","20"
"","","approach-retreat","169","1265386","0.0-169.0","","","1-1","4854","37","0","Testing","Stims/Figures/94-C-20-2.bmp","papata","Left","39","1","21","5","P","C","21"
"","","approach-retreat","170","1271428","0.0-170.0","","","1-1","4534","38","1","Testing","Stims/Figures/19-C-20-4.bmp","taka:ka","Down","38","1","22","5","P","C","22"
"","","approach-retreat","171","1277128","0.0-171.0","","","1-1","4194","40","0","Testing","Stims/Figures/85-J-0-2.bmp","mama:na","Up","38","1","23","5","S","C","23"
"","","approach-retreat","172","1287390","0.0-172.0","","","1-1","8758","40","1","Testing","Stims/Figures/85-C-20-2.bmp","papa:ka","Up","40","1","24","5","P","C","24"
"","","approach-retreat","173","1296158","0.0-173.0","","","1-1","7263","39","0","Testing","Stims/Figures/19-C-20-4.bmp","taka:ka","Right","37","2","1","5","P","C","25"
"","","approach-retreat","174","1302115","0.0-174.0","","","1-1","4451","38","1","Testing","Stims/Figures/128-C-30-3.bmp","pa:ka:ta","Down","38","2","2","5","P","C","26"
"","","approach-retreat","175","1308127","0.0-175.0","","","1-1","4507","39","0","Testing","Stims/Figures/57-J-0-1.bmp","na:ma:la","Left","37","2","3","5","S","C","27"
"","","approach-retreat","176","1313662","0.0-176.0","","","1-1","4028","37","0","Testing","Stims/Figures/57-C-30-1.bmp","tapaka","Left","39","2","4","5","P","C","28"
"","","approach-retreat","177","1319051","0.0-177.0","","","1-1","3883","39","0","Testing","Stims/Figures/74-J-10-4.bmp","ma:lana","Left","37","2","5","5","S","C","29"
"","","approach-retreat","178","1324516","0.0-178.0","","","1-1","3958","38","1","Testing","Stims/Figures/86-C-30-1.bmp","ta:pa:ta","Down","38","2","6","5","P","C","30"
"","","approach-retreat","179","1329973","0.0-179.0","","","1-1","3951","39","1","Testing","Stims/Figures/85-C-20-2.bmp","papa:ka","Left","39","2","7","5","P","C","31"
"","","approach-retreat","180","1335396","0.0-180.0","","","1-1","3918","37","1","Testing","Stims/Figures/94-C-20-2.bmp","papata","Right","37","2","8","5","P","C","32"
"","","approach-retreat","181","1340862","0.0-181.0","","","1-1","3960","38","0","Testing","Stims/Figures/111-J-10-3.bmp","ma:la:na","Down","40","2","9","5","S","C","33"
"","","approach-retreat","182","1346329","0.0-182.0","","","1-1","3961","40","1","Testing","Stims/Figures/139-C-20-2.bmp","tapa:ta","Up","40","2","10","5","P","C","34"
"","","approach-retreat","183","1351788","0.0-183.0","","","1-1","3955","40","0","Testing","Stims/Figures/71-J-0-1.bmp","namala","Up","38","2","11","5","S","C","35"
"","","approach-retreat","184","1357465","0.0-184.0","","","1-1","4170","37","1","Testing","Stims/Figures/74-C-20-4.bmp","pa:kaka","Right","37","2","12","5","P","C","36"
"","","approach-retreat","185","1365076","0.0-185.0","","","1-1","6106","38","1","Testing","Stims/Figures/85-J-0-2.bmp","mama:na","Up","38","2","13","5","S","C","37"
"","","approach-retreat","186","1370881","0.0-186.0","","","1-1","4299","38","1","Testing","Stims/Figures/100-C-30-3.bmp","pa:pa:ta","Down","38","2","14","5","P","C","38"
"","","approach-retreat","187","1377294","0.0-187.0","","","1-1","4909","37","0","Testing","Stims/Figures/139-J-0-2.bmp","nama:la","Right","39","2","15","5","S","C","39"
"","","approach-retreat","188","1383154","0.0-188.0","","","1-1","4355","37","0","Testing","Stims/Figures/71-C-30-1.bmp","papa:ta","Left","39","2","16","5","P","C","40"
"","","approach-retreat","189","1391542","0.0-189.0","","","1-1","6880","40","1","Testing","Stims/Figures/128-J-10-3.bmp","na:mala","Down","40","2","17","5","S","C","41"
"","","approach-retreat","190","1397250","0.0-190.0","","","1-1","4202","37","1","Testing","Stims/Figures/87-C-20-4.bmp","takata","Right","37","2","18","5","P","C","42"
"","","approach-retreat","191","1402956","0.0-191.0","","","1-1","4202","39","0","Testing","Stims/Figures/86-J-0-1.bmp","nala:la","Left","37","2","19","5","S","C","43"
"","","approach-retreat","192","1409131","0.0-192.0","","","1-1","4669","40","1","Testing","Stims/Figures/111-C-30-3.bmp","taka:ta","Up","40","2","20","5","P","C","44"
"","","approach-retreat","193","1414602","0.0-193.0","","","1-1","3966","40","0","Testing","Stims/Figures/87-J-10-4.bmp","mala:na","Up","38","2","21","5","S","C","45"
"","","approach-retreat","194","1861684","0.0-194.0","","","1-1","445577","40","1","Testing","Stims/Figures/19-J-10-4.bmp","ma:la:la","Down","40","2","22","5","S","C","46"
"","","approach-retreat","195","2105249","0.0-195.0","","","1-1","242056","37","0","Testing","Stims/Figures/94-J-0-2.bmp","mamana","Right","39","2","23","5","S","C","47"
"","","approach-retreat","196","2135982","0.0-196.0","","","1-1","29227","40","0","Testing","Stims/Figures/100-J-10-3.bmp","ma:mana","Up","38","2","24","5","S","C","48"
"","","approach-retreat","197","2146682","0.0-197.0","","","1-1","9194","39","0","Testing","Stims/Figures/94-J-0-2.bmp","mamana","Left","37","3","1","5","S","C","49"
"","","approach-retreat","198","2167218","0.0-198.0","","","1-1","19031","39","0","Testing","Stims/Figures/19-J-10-4.bmp","ma:la:la","Left","37","3","2","5","S","C","50"
"","","approach-retreat","199","2174568","0.0-199.0","","","1-1","5845","38","0","Testing","Stims/Figures/139-J-0-2.bmp","nama:la","Down","40","3","3","5","S","C","51"
"","","approach-retreat","200","2182869","0.0-200.0","","","1-1","6793","40","1","Testing","Stims/Figures/19-C-20-4.bmp","taka:ka","Up","40","3","4","5","P","C","52"
"","","approach-retreat","201","2188171","0.0-201.0","","","1-1","3794","40","0","Testing","Stims/Figures/128-C-30-3.bmp","pa:ka:ta","Down","38","3","5","5","P","C","53"
"","","approach-retreat","202","2199845","0.0-202.0","","","1-1","10169","39","0","Testing","Stims/Figures/85-J-0-2.bmp","mama:na","Left","37","3","6","5","S","C","54"
"","","approach-retreat","203","2207948","0.0-203.0","","","1-1","6598","37","1","Testing","Stims/Figures/85-C-20-2.bmp","papa:ka","Right","37","3","7","5","P","C","55"
"","","approach-retreat","204","2214746","0.0-204.0","","","1-1","5291","38","0","Testing","Stims/Figures/74-J-10-4.bmp","ma:lana","Down","40","3","8","5","S","C","56"
"","","approach-retreat","205","2220554","0.0-205.0","","","1-1","4304","39","1","Testing","Stims/Figures/87-C-20-4.bmp","takata","Left","39","3","9","5","P","C","57"
"","","approach-retreat","206","2227625","0.0-206.0","","","1-1","5566","38","0","Testing","Stims/Figures/111-J-10-3.bmp","ma:la:na","Down","40","3","10","5","S","C","58"
"","","approach-retreat","207","2233544","0.0-207.0","","","1-1","4414","40","1","Testing","Stims/Figures/86-C-30-1.bmp","ta:pa:ta","Up","40","3","11","5","P","C","59"
"","","approach-retreat","208","2239189","0.0-208.0","","","1-1","4138","40","1","Testing","Stims/Figures/139-C-20-2.bmp","tapa:ta","Up","40","3","12","5","P","C","60"
"","","approach-retreat","209","2244838","0.0-209.0","","","1-1","4142","38","0","Testing","Stims/Figures/100-J-10-3.bmp","ma:mana","Down","40","3","13","5","S","C","61"
"","","approach-retreat","210","2252028","0.0-210.0","","","1-1","5684","37","1","Testing","Stims/Figures/111-C-30-3.bmp","taka:ta","Right","37","3","14","5","P","C","62"
"","","approach-retreat","211","2257907","0.0-211.0","","","1-1","4370","39","1","Testing","Stims/Figures/94-C-20-2.bmp","papata","Left","39","3","15","5","P","C","63"
"","","approach-retreat","212","2264272","0.0-212.0","","","1-1","4859","37","1","Testing","Stims/Figures/71-C-30-1.bmp","papa:ta","Right","37","3","16","5","P","C","64"
"","","approach-retreat","213","2273392","0.0-213.0","","","1-1","7613","40","0","Testing","Stims/Figures/57-J-0-1.bmp","na:ma:la","Up","38","3","17","5","S","C","65"
"","","approach-retreat","214","2278945","0.0-214.0","","","1-1","4049","38","1","Testing","Stims/Figures/86-J-0-1.bmp","nala:la","Up","38","3","18","5","S","C","66"
"","","approach-retreat","215","2284498","0.0-215.0","","","1-1","4046","37","0","Testing","Stims/Figures/128-J-10-3.bmp","na:mala","Right","39","3","19","5","S","C","67"
"","","approach-retreat","216","2291531","0.0-216.0","","","1-1","5527","37","1","Testing","Stims/Figures/57-C-30-1.bmp","tapaka","Right","37","3","20","5","P","C","68"
"","","approach-retreat","217","2306347","0.0-217.0","","","1-1","13309","38","1","Testing","Stims/Figures/74-C-20-4.bmp","pa:kaka","Down","38","3","21","5","P","C","69"
"","","approach-retreat","218","2312811","0.0-218.0","","","1-1","4957","39","0","Testing","Stims/Figures/87-J-10-4.bmp","mala:na","Left","37","3","22","5","S","C","70"
"","","approach-retreat","219","2322016","0.0-219.0","","","1-1","7700","40","0","Testing","Stims/Figures/71-J-0-1.bmp","namala","Up","38","3","23","5","S","C","71"
"","","approach-retreat","220","2327975","0.0-220.0","","","1-1","4451","39","0","Testing","Stims/Figures/100-C-30-3.bmp","pa:pa:ta","Right","37","3","24","5","P","C","72"
"","","approach-retreat","221","2731729","0.0-221.0","","","1-1","402247","40","1","Testing","Stims/Figures/19-J-10-4.bmp","ma:la:la","Down","40","4","1","5","S","C","73"
"","","approach-retreat","222","2743439","0.0-222.0","","","1-1","10201","37","1","Testing","Stims/Figures/111-J-10-3.bmp","ma:la:na","Left","37","4","2","5","S","C","74"
"","","approach-retreat","223","2758172","0.0-223.0","","","1-1","13225","37","1","Testing","Stims/Figures/85-C-20-2.bmp","papa:ka","Right","37","4","3","5","P","C","75"
"","","approach-retreat","224","2908288","0.0-224.0","","","1-1","148610","37","0","Testing","Stims/Figures/87-J-10-4.bmp","mala:na","Right","39","4","4","5","S","C","76"
"","","approach-retreat","225","2917550","0.0-225.0","","","1-1","7756","39","1","Testing","Stims/Figures/74-C-20-4.bmp","pa:kaka","Left","39","4","5","5","P","C","77"
"","","approach-retreat","226","2923535","0.0-226.0","","","1-1","4479","40","1","Testing","Stims/Figures/94-C-20-2.bmp","papata","Up","40","4","6","5","P","C","78"
"","","approach-retreat","227","2930575","0.0-227.0","","","1-1","5534","37","0","Testing","Stims/Figures/71-J-0-1.bmp","namala","Right","39","4","7","5","S","C","79"
"","","approach-retreat","228","2936431","0.0-228.0","","","1-1","4351","40","0","Testing","Stims/Figures/139-C-20-2.bmp","tapa:ta","Down","38","4","8","5","P","C","80"
"","","approach-retreat","229","2941897","0.0-229.0","","","1-1","3960","39","0","Testing","Stims/Figures/100-J-10-3.bmp","ma:mana","Left","37","4","9","5","S","C","81"
"","","approach-retreat","230","2948656","0.0-230.0","","","1-1","5254","38","1","Testing","Stims/Figures/86-J-0-1.bmp","nala:la","Up","38","4","10","5","S","C","82"
"","","approach-retreat","231","2954192","0.0-231.0","","","1-1","4029","38","0","Testing","Stims/Figures/85-J-0-2.bmp","mama:na","Down","40","4","11","5","S","C","83"
"","","approach-retreat","232","2964143","0.0-232.0","","","1-1","8446","40","0","Testing","Stims/Figures/128-J-10-3.bmp","na:mala","Up","38","4","12","5","S","C","84"
"","","approach-retreat","233","2970310","0.0-233.0","","","1-1","4661","37","1","Testing","Stims/Figures/19-C-20-4.bmp","taka:ka","Right","37","4","13","5","P","C","85"
"","","approach-retreat","234","2976684","0.0-234.0","","","1-1","4867","37","0","Testing","Stims/Figures/128-C-30-3.bmp","pa:ka:ta","Left","39","4","14","5","P","C","86"
"","","approach-retreat","235","2982830","0.0-235.0","","","1-1","4640","39","1","Testing","Stims/Figures/100-C-30-3.bmp","pa:pa:ta","Left","39","4","15","5","P","C","87"
"","","approach-retreat","236","2990541","0.0-236.0","","","1-1","6203","40","0","Testing","Stims/Figures/139-J-0-2.bmp","nama:la","Up","38","4","16","5","S","C","88"
"","","approach-retreat","237","3015395","0.0-237.0","","","1-1","23348","40","1","Testing","Stims/Figures/71-C-30-1.bmp","papa:ta","Up","40","4","17","5","P","C","89"
"","","approach-retreat","238","3026867","0.0-238.0","","","1-1","9967","40","1","Testing","Stims/Figures/57-J-0-1.bmp","na:ma:la","Down","40","4","18","5","S","C","90"
"","","approach-retreat","239","3032543","0.0-239.0","","","1-1","4170","38","0","Testing","Stims/Figures/86-C-30-1.bmp","ta:pa:ta","Up","40","4","19","5","P","C","91"
"","","approach-retreat","240","3038691","0.0-240.0","","","1-1","4642","37","1","Testing","Stims/Figures/111-C-30-3.bmp","taka:ta","Right","37","4","20","5","P","C","92"
"","","approach-retreat","241","3046560","0.0-241.0","","","1-1","6361","37","0","Testing","Stims/Figures/94-J-0-2.bmp","mamana","Right","39","4","21","5","S","C","93"
"","","approach-retreat","242","3070311","0.0-242.0","","","1-1","22246","40","1","Testing","Stims/Figures/74-J-10-4.bmp","ma:lana","Down","40","4","22","5","S","C","94"
"","","approach-retreat","243","3078265","0.0-243.0","","","1-1","6450","38","1","Testing","Stims/Figures/57-C-30-1.bmp","tapaka","Down","38","4","23","5","P","C","95"
"","","approach-retreat","244","3084983","0.0-244.0","","","1-1","5210","39","1","Testing","Stims/Figures/87-C-20-4.bmp","takata","Left","39","4","24","5","P","C","96"
"24785","","survey-text","245","3109797","0.0-245.0","","{""Q0"":""1129/2018""}","","","","","","","","","","","","","","",""
