"rt","key_press","trial_type","trial_index","time_elapsed","internal_node_id","view_history","responses","Id","Rt","ResKeyCode","ResCorr","TrialType2","Image","Label","Location","CorrectResponse","Block","BlockTrial","Condition","LabelType","Subcondition","trialNum"
"56414","32","text","0","56436","0.0-0.0-0.0","","","","","","","","","","","","","","","","",""
"767","","instructions","1","57215","0.0-1.0","[{""page_index"":0,""viewing_time"":762}]","","","","","","","","","","","","","","","",""
"91063","","survey-multi-choice","2","148395","0.0-2.0","","{""Q0"":""Da"",""Q1"":""Da"",""Q2"":""Da"",""Q3"":""Ne"",""Q4"":""Da"",""Q5"":""Da""}","","","","","","","","","","","","","","",""
"","","bio","3","166350","0.0-3.0","","{""age"":""19"",""gender"":""f"",""specify"":""""}","","","","","","","","","","","","","","",""
"","","approach-retreat","4","214343","0.0-4.0","","","1-3","46467","38","0","Training","Stims/Figures/44-J-10-3.bmp","saha:za","Down","40","1","1","8","C2","C","1"
"","","approach-retreat","5","229777","0.0-5.0","","","1-3","13895","40","0","Training","Stims/Figures/71-J-0-1.bmp","va:fava","Up","38","1","2","8","C1","C","2"
"","","approach-retreat","6","250541","0.0-6.0","","","1-3","19242","39","0","Training","Stims/Figures/118-C-20-2.bmp","fa:sha:va","Right","37","1","3","8","C1","C","3"
"","","approach-retreat","7","260018","0.0-7.0","","","1-3","7929","37","0","Training","Stims/Figures/85-C-20-2.bmp","va:fa:sha","Left","39","1","4","8","C1","C","4"
"","","approach-retreat","8","271321","0.0-8.0","","","1-3","9764","37","0","Training","Stims/Figures/128-J-10-3.bmp","za:ha:ha","Right","39","1","5","8","C2","C","5"
"","","approach-retreat","9","282737","0.0-9.0","","","1-3","9878","38","1","Training","Stims/Figures/102-J-10-4.bmp","zaha:ha","Up","38","1","6","8","C2","C","6"
"","","approach-retreat","10","290168","0.0-10.0","","","1-3","5883","40","1","Training","Stims/Figures/86-J-0-1.bmp","vashasha","Down","40","1","7","8","C1","C","7"
"","","approach-retreat","11","297039","0.0-11.0","","","1-3","5317","39","1","Training","Stims/Figures/85-J-0-2.bmp","fa:shasha","Right","39","1","8","8","C1","C","8"
"","","approach-retreat","12","303915","0.0-12.0","","","1-3","5344","37","0","Training","Stims/Figures/71-C-30-1.bmp","va:shasha","Left","39","1","9","8","C1","C","9"
"","","approach-retreat","13","311839","0.0-13.0","","","1-3","6374","38","0","Training","Stims/Figures/87-C-20-4.bmp","sa:saha","Up","40","1","10","8","C2","C","10"
"","","approach-retreat","14","320679","0.0-14.0","","","1-3","7324","40","1","Training","Stims/Figures/44-C-30-3.bmp","zasa:za","Up","40","1","11","8","C2","C","11"
"","","approach-retreat","15","328547","0.0-15.0","","","1-3","6322","39","0","Training","Stims/Figures/87-J-10-4.bmp","sa:ha:ha","Left","37","1","12","8","C2","C","12"
"","","approach-retreat","16","336350","0.0-16.0","","","1-3","6287","40","0","Training","Stims/Figures/86-C-30-1.bmp","fa:fasha","Down","38","1","13","8","C1","C","13"
"","","approach-retreat","17","343197","0.0-17.0","","","1-3","5331","37","1","Training","Stims/Figures/128-C-30-3.bmp","za:haza","Right","37","1","14","8","C2","C","14"
"","","approach-retreat","18","349804","0.0-18.0","","","1-3","5065","38","1","Training","Stims/Figures/102-C-20-4.bmp","za:saha","Down","38","1","15","8","C2","C","15"
"","","approach-retreat","19","356589","0.0-19.0","","","1-3","5246","37","1","Training","Stims/Figures/118-J-0-2.bmp","fafa:sha","Left","37","1","16","8","C1","C","16"
"","","approach-retreat","20","363084","0.0-20.0","","","1-3","4976","40","1","Training","Stims/Figures/102-C-20-4.bmp","za:saha","Up","40","2","1","8","C2","C","17"
"","","approach-retreat","21","370253","0.0-21.0","","","1-3","5625","38","0","Training","Stims/Figures/44-J-10-3.bmp","saha:za","Down","40","2","2","8","C2","C","18"
"","","approach-retreat","22","377081","0.0-22.0","","","1-3","5284","38","0","Training","Stims/Figures/86-C-30-1.bmp","fa:fasha","Up","40","2","3","8","C1","C","19"
"","","approach-retreat","23","384483","0.0-23.0","","","1-3","5855","37","0","Training","Stims/Figures/128-J-10-3.bmp","za:ha:ha","Right","39","2","4","8","C2","C","20"
"","","approach-retreat","24","390934","0.0-24.0","","","1-3","4926","39","1","Training","Stims/Figures/44-C-30-3.bmp","zasa:za","Left","39","2","5","8","C2","C","21"
"","","approach-retreat","25","397059","0.0-25.0","","","1-3","4585","40","0","Training","Stims/Figures/87-J-10-4.bmp","sa:ha:ha","Up","38","2","6","8","C2","C","22"
"","","approach-retreat","26","404268","0.0-26.0","","","1-3","5688","40","0","Training","Stims/Figures/118-C-20-2.bmp","fa:sha:va","Down","38","2","7","8","C1","C","23"
"","","approach-retreat","27","410744","0.0-27.0","","","1-3","4929","39","1","Training","Stims/Figures/71-J-0-1.bmp","va:fava","Right","39","2","8","8","C1","C","24"
"","","approach-retreat","28","417884","0.0-28.0","","","1-3","5591","38","1","Training","Stims/Figures/128-C-30-3.bmp","za:haza","Down","38","2","9","8","C2","C","25"
"","","approach-retreat","29","425257","0.0-29.0","","","1-3","5842","39","0","Training","Stims/Figures/87-C-20-4.bmp","sa:saha","Right","37","2","10","8","C2","C","26"
"","","approach-retreat","30","432707","0.0-30.0","","","1-3","5896","38","0","Training","Stims/Figures/85-C-20-2.bmp","va:fa:sha","Up","40","2","11","8","C1","C","27"
"","","approach-retreat","31","439171","0.0-31.0","","","1-3","4946","37","0","Training","Stims/Figures/118-J-0-2.bmp","fafa:sha","Right","39","2","12","8","C1","C","28"
"","","approach-retreat","32","445469","0.0-32.0","","","1-3","4755","39","1","Training","Stims/Figures/71-C-30-1.bmp","va:shasha","Left","39","2","13","8","C1","C","29"
"","","approach-retreat","33","452260","0.0-33.0","","","1-3","5251","37","1","Training","Stims/Figures/85-J-0-2.bmp","fa:shasha","Left","37","2","14","8","C1","C","30"
"","","approach-retreat","34","458663","0.0-34.0","","","1-3","4856","38","0","Training","Stims/Figures/86-J-0-1.bmp","vashasha","Down","40","2","15","8","C1","C","31"
"","","approach-retreat","35","465124","0.0-35.0","","","1-3","4919","39","0","Training","Stims/Figures/102-J-10-4.bmp","zaha:ha","Left","37","2","16","8","C2","C","32"
"","","approach-retreat","36","474399","0.0-36.0","","","1-3","7729","37","1","Training","Stims/Figures/85-J-0-2.bmp","fa:shasha","Left","37","3","1","8","C1","C","33"
"","","approach-retreat","37","480717","0.0-37.0","","","1-3","4800","38","1","Training","Stims/Figures/86-J-0-1.bmp","vashasha","Up","38","3","2","8","C1","C","34"
"","","approach-retreat","38","487398","0.0-38.0","","","1-3","5131","38","0","Training","Stims/Figures/118-J-0-2.bmp","fafa:sha","Down","40","3","3","8","C1","C","35"
"","","approach-retreat","39","493390","0.0-39.0","","","1-3","4451","40","1","Training","Stims/Figures/44-C-30-3.bmp","zasa:za","Up","40","3","4","8","C2","C","36"
"","","approach-retreat","40","501066","0.0-40.0","","","1-3","6144","39","1","Training","Stims/Figures/71-C-30-1.bmp","va:shasha","Left","39","3","5","8","C1","C","37"
"","","approach-retreat","41","508030","0.0-41.0","","","1-3","5441","39","0","Training","Stims/Figures/86-C-30-1.bmp","fa:fasha","Right","37","3","6","8","C1","C","38"
"","","approach-retreat","42","514274","0.0-42.0","","","1-3","4696","40","0","Training","Stims/Figures/85-C-20-2.bmp","va:fa:sha","Down","38","3","7","8","C1","C","39"
"","","approach-retreat","43","521314","0.0-43.0","","","1-3","5494","39","0","Training","Stims/Figures/87-J-10-4.bmp","sa:ha:ha","Left","37","3","8","8","C2","C","40"
"","","approach-retreat","44","527850","0.0-44.0","","","1-3","5002","38","1","Training","Stims/Figures/102-C-20-4.bmp","za:saha","Down","38","3","9","8","C2","C","41"
"","","approach-retreat","45","534422","0.0-45.0","","","1-3","5028","37","1","Training","Stims/Figures/128-J-10-3.bmp","za:ha:ha","Left","37","3","10","8","C2","C","42"
"","","approach-retreat","46","540627","0.0-46.0","","","1-3","4670","39","0","Training","Stims/Figures/128-C-30-3.bmp","za:haza","Right","37","3","11","8","C2","C","43"
"","","approach-retreat","47","547222","0.0-47.0","","","1-3","5054","40","1","Training","Stims/Figures/118-C-20-2.bmp","fa:sha:va","Up","40","3","12","8","C1","C","44"
"","","approach-retreat","48","553818","0.0-48.0","","","1-3","5050","38","1","Training","Stims/Figures/87-C-20-4.bmp","sa:saha","Down","38","3","13","8","C2","C","45"
"","","approach-retreat","49","560250","0.0-49.0","","","1-3","4886","40","0","Training","Stims/Figures/44-J-10-3.bmp","saha:za","Up","38","3","14","8","C2","C","46"
"","","approach-retreat","50","566436","0.0-50.0","","","1-3","4651","39","1","Training","Stims/Figures/102-J-10-4.bmp","zaha:ha","Right","39","3","15","8","C2","C","47"
"","","approach-retreat","51","572834","0.0-51.0","","","1-3","4879","37","0","Training","Stims/Figures/71-J-0-1.bmp","va:fava","Right","39","3","16","8","C1","C","48"
"","","approach-retreat","52","587401","0.0-52.0","","","1-3","13026","40","0","Training","Stims/Figures/86-C-30-1.bmp","fa:fasha","Down","38","4","1","8","C1","C","49"
"","","approach-retreat","53","593606","0.0-53.0","","","1-3","4658","40","1","Training","Stims/Figures/44-C-30-3.bmp","zasa:za","Up","40","4","2","8","C2","C","50"
"","","approach-retreat","54","600017","0.0-54.0","","","1-3","4890","40","1","Training","Stims/Figures/118-J-0-2.bmp","fafa:sha","Down","40","4","3","8","C1","C","51"
"","","approach-retreat","55","605961","0.0-55.0","","","1-3","4396","39","0","Training","Stims/Figures/128-J-10-3.bmp","za:ha:ha","Left","37","4","4","8","C2","C","52"
"","","approach-retreat","56","611909","0.0-56.0","","","1-3","4403","39","1","Training","Stims/Figures/44-J-10-3.bmp","saha:za","Right","39","4","5","8","C2","C","53"
"","","approach-retreat","57","619690","0.0-57.0","","","1-3","6266","37","1","Training","Stims/Figures/87-C-20-4.bmp","sa:saha","Right","37","4","6","8","C2","C","54"
"","","approach-retreat","58","626015","0.0-58.0","","","1-3","4776","39","1","Training","Stims/Figures/71-C-30-1.bmp","va:shasha","Left","39","4","7","8","C1","C","55"
"","","approach-retreat","59","632026","0.0-59.0","","","1-3","4460","40","0","Training","Stims/Figures/86-J-0-1.bmp","vashasha","Up","38","4","8","8","C1","C","56"
"","","approach-retreat","60","638786","0.0-60.0","","","1-3","5219","37","0","Training","Stims/Figures/85-C-20-2.bmp","va:fa:sha","Left","39","4","9","8","C1","C","57"
"","","approach-retreat","61","645210","0.0-61.0","","","1-3","4881","40","0","Training","Stims/Figures/87-J-10-4.bmp","sa:ha:ha","Up","38","4","10","8","C2","C","58"
"","","approach-retreat","62","651731","0.0-62.0","","","1-3","4980","38","1","Training","Stims/Figures/102-C-20-4.bmp","za:saha","Down","38","4","11","8","C2","C","59"
"","","approach-retreat","63","659970","0.0-63.0","","","1-3","6692","37","0","Training","Stims/Figures/118-C-20-2.bmp","fa:sha:va","Left","39","4","12","8","C1","C","60"
"","","approach-retreat","64","666501","0.0-64.0","","","1-3","4985","39","1","Training","Stims/Figures/102-J-10-4.bmp","zaha:ha","Right","39","4","13","8","C2","C","61"
"","","approach-retreat","65","672677","0.0-65.0","","","1-3","4658","40","0","Training","Stims/Figures/71-J-0-1.bmp","va:fava","Up","38","4","14","8","C1","C","62"
"","","approach-retreat","66","679788","0.0-66.0","","","1-3","5564","38","0","Training","Stims/Figures/85-J-0-2.bmp","fa:shasha","Down","40","4","15","8","C1","C","63"
"","","approach-retreat","67","685862","0.0-67.0","","","1-3","4529","39","0","Training","Stims/Figures/128-C-30-3.bmp","za:haza","Right","37","4","16","8","C2","C","64"
"","","approach-retreat","68","693985","0.0-68.0","","","1-3","6583","37","1","Training","Stims/Figures/44-C-30-3.bmp","zasa:za","Right","37","5","1","8","C2","C","65"
"","","approach-retreat","69","700883","0.0-69.0","","","1-3","5356","38","1","Training","Stims/Figures/118-C-20-2.bmp","fa:sha:va","Down","38","5","2","8","C1","C","66"
"","","approach-retreat","70","707050","0.0-70.0","","","1-3","4622","40","0","Training","Stims/Figures/128-J-10-3.bmp","za:ha:ha","Up","38","5","3","8","C2","C","67"
"","","approach-retreat","71","713303","0.0-71.0","","","1-3","4704","37","1","Training","Stims/Figures/102-C-20-4.bmp","za:saha","Right","37","5","4","8","C2","C","68"
"","","approach-retreat","72","719552","0.0-72.0","","","1-3","4715","38","1","Training","Stims/Figures/86-C-30-1.bmp","fa:fasha","Down","38","5","5","8","C1","C","69"
"","","approach-retreat","73","727160","0.0-73.0","","","1-3","6069","40","1","Training","Stims/Figures/71-C-30-1.bmp","va:shasha","Up","40","5","6","8","C1","C","70"
"","","approach-retreat","74","733970","0.0-74.0","","","1-3","5293","39","0","Training","Stims/Figures/87-C-20-4.bmp","sa:saha","Right","37","5","7","8","C2","C","71"
"","","approach-retreat","75","739972","0.0-75.0","","","1-3","4485","37","0","Training","Stims/Figures/87-J-10-4.bmp","sa:ha:ha","Right","39","5","8","8","C2","C","72"
"","","approach-retreat","76","748682","0.0-76.0","","","1-3","7169","39","1","Training","Stims/Figures/85-C-20-2.bmp","va:fa:sha","Left","39","5","9","8","C1","C","73"
"","","approach-retreat","77","754950","0.0-77.0","","","1-3","4718","37","0","Training","Stims/Figures/128-C-30-3.bmp","za:haza","Left","39","5","10","8","C2","C","74"
"","","approach-retreat","78","760837","0.0-78.0","","","1-3","4346","40","1","Training","Stims/Figures/102-J-10-4.bmp","zaha:ha","Down","40","5","11","8","C2","C","75"
"","","approach-retreat","79","767120","0.0-79.0","","","1-3","4743","38","1","Training","Stims/Figures/118-J-0-2.bmp","fafa:sha","Up","38","5","12","8","C1","C","76"
"","","approach-retreat","80","773924","0.0-80.0","","","1-3","5257","38","0","Training","Stims/Figures/44-J-10-3.bmp","saha:za","Down","40","5","13","8","C2","C","77"
"","","approach-retreat","81","780606","0.0-81.0","","","1-3","5133","39","0","Training","Stims/Figures/85-J-0-2.bmp","fa:shasha","Left","37","5","14","8","C1","C","78"
"","","approach-retreat","82","788798","0.0-82.0","","","1-3","6659","38","1","Training","Stims/Figures/71-J-0-1.bmp","va:fava","Up","38","5","15","8","C1","C","79"
"","","approach-retreat","83","794915","0.0-83.0","","","1-3","4556","39","0","Training","Stims/Figures/86-J-0-1.bmp","vashasha","Left","37","5","16","8","C1","C","80"
"","","approach-retreat","84","801261","0.0-84.0","","","1-3","4834","38","1","Training","Stims/Figures/85-C-20-2.bmp","va:fa:sha","Down","38","6","1","8","C1","C","81"
"","","approach-retreat","85","807644","0.0-85.0","","","1-3","4834","39","0","Training","Stims/Figures/118-J-0-2.bmp","fafa:sha","Left","37","6","2","8","C1","C","82"
"","","approach-retreat","86","813881","0.0-86.0","","","1-3","4690","39","0","Training","Stims/Figures/44-J-10-3.bmp","saha:za","Left","37","6","3","8","C2","C","83"
"","","approach-retreat","87","821319","0.0-87.0","","","1-3","5917","38","1","Training","Stims/Figures/87-C-20-4.bmp","sa:saha","Down","38","6","4","8","C2","C","84"
"","","approach-retreat","88","827335","0.0-88.0","","","1-3","4478","40","0","Training","Stims/Figures/85-J-0-2.bmp","fa:shasha","Up","38","6","5","8","C1","C","85"
"","","approach-retreat","89","833718","0.0-89.0","","","1-3","4864","39","1","Training","Stims/Figures/87-J-10-4.bmp","sa:ha:ha","Right","39","6","6","8","C2","C","86"
"","","approach-retreat","90","839661","0.0-90.0","","","1-3","4397","40","1","Training","Stims/Figures/102-C-20-4.bmp","za:saha","Up","40","6","7","8","C2","C","87"
"","","approach-retreat","91","845876","0.0-91.0","","","1-3","4674","39","1","Training","Stims/Figures/102-J-10-4.bmp","zaha:ha","Right","39","6","8","8","C2","C","88"
"","","approach-retreat","92","852140","0.0-92.0","","","1-3","4722","37","0","Training","Stims/Figures/128-J-10-3.bmp","za:ha:ha","Right","39","6","9","8","C2","C","89"
"","","approach-retreat","93","857912","0.0-93.0","","","1-3","4228","40","1","Training","Stims/Figures/86-C-30-1.bmp","fa:fasha","Up","40","6","10","8","C1","C","90"
"","","approach-retreat","94","863524","0.0-94.0","","","1-3","4072","40","1","Training","Stims/Figures/128-C-30-3.bmp","za:haza","Up","40","6","11","8","C2","C","91"
"","","approach-retreat","95","869937","0.0-95.0","","","1-3","4864","39","0","Training","Stims/Figures/71-J-0-1.bmp","va:fava","Left","37","6","12","8","C1","C","92"
"","","approach-retreat","96","875875","0.0-96.0","","","1-3","4395","37","0","Training","Stims/Figures/118-C-20-2.bmp","fa:sha:va","Left","39","6","13","8","C1","C","93"
"","","approach-retreat","97","881616","0.0-97.0","","","1-3","4202","40","0","Training","Stims/Figures/71-C-30-1.bmp","va:shasha","Down","38","6","14","8","C1","C","94"
"","","approach-retreat","98","887853","0.0-98.0","","","1-3","4700","39","1","Training","Stims/Figures/86-J-0-1.bmp","vashasha","Right","39","6","15","8","C1","C","95"
"","","approach-retreat","99","894439","0.0-99.0","","","1-3","5052","40","0","Training","Stims/Figures/44-C-30-3.bmp","zasa:za","Down","38","6","16","8","C2","C","96"
"","","approach-retreat","100","900830","0.0-100.0","","","1-3","4842","38","1","Training","Stims/Figures/85-J-0-2.bmp","fa:shasha","Up","38","7","1","8","C1","C","97"
"","","approach-retreat","101","907468","0.0-101.0","","","1-3","5124","38","1","Training","Stims/Figures/86-J-0-1.bmp","vashasha","Up","38","7","2","8","C1","C","98"
"","","approach-retreat","102","913723","0.0-102.0","","","1-3","4716","40","0","Training","Stims/Figures/87-C-20-4.bmp","sa:saha","Down","38","7","3","8","C2","C","99"
"","","approach-retreat","103","919875","0.0-103.0","","","1-3","4608","37","0","Training","Stims/Figures/44-J-10-3.bmp","saha:za","Right","39","7","4","8","C2","C","100"
"","","approach-retreat","104","926162","0.0-104.0","","","1-3","4752","38","0","Training","Stims/Figures/87-J-10-4.bmp","sa:ha:ha","Down","40","7","5","8","C2","C","101"
"","","approach-retreat","105","932360","0.0-105.0","","","1-3","4666","39","0","Training","Stims/Figures/118-C-20-2.bmp","fa:sha:va","Right","37","7","6","8","C1","C","102"
"","","approach-retreat","106","938307","0.0-106.0","","","1-3","4399","39","0","Training","Stims/Figures/85-C-20-2.bmp","va:fa:sha","Right","37","7","7","8","C1","C","103"
"","","approach-retreat","107","944362","0.0-107.0","","","1-3","4508","37","1","Training","Stims/Figures/71-J-0-1.bmp","va:fava","Left","37","7","8","8","C1","C","104"
"","","approach-retreat","108","950327","0.0-108.0","","","1-3","4426","38","1","Training","Stims/Figures/128-C-30-3.bmp","za:haza","Down","38","7","9","8","C2","C","105"
"","","approach-retreat","109","956268","0.0-109.0","","","1-3","4425","37","0","Training","Stims/Figures/71-C-30-1.bmp","va:shasha","Left","39","7","10","8","C1","C","106"
"","","approach-retreat","110","962511","0.0-110.0","","","1-3","4698","39","0","Training","Stims/Figures/102-J-10-4.bmp","zaha:ha","Left","37","7","11","8","C2","C","107"
"","","approach-retreat","111","968569","0.0-111.0","","","1-3","4539","38","0","Training","Stims/Figures/118-J-0-2.bmp","fafa:sha","Down","40","7","12","8","C1","C","108"
"","","approach-retreat","112","974737","0.0-112.0","","","1-3","4626","39","0","Training","Stims/Figures/128-J-10-3.bmp","za:ha:ha","Left","37","7","13","8","C2","C","109"
"","","approach-retreat","113","981674","0.0-113.0","","","1-3","5400","40","1","Training","Stims/Figures/102-C-20-4.bmp","za:saha","Up","40","7","14","8","C2","C","110"
"","","approach-retreat","114","987352","0.0-114.0","","","1-3","4129","37","1","Training","Stims/Figures/86-C-30-1.bmp","fa:fasha","Right","37","7","15","8","C1","C","111"
"","","approach-retreat","115","992972","0.0-115.0","","","1-3","4101","40","1","Training","Stims/Figures/44-C-30-3.bmp","zasa:za","Up","40","7","16","8","C2","C","112"
"","","approach-retreat","116","998835","0.0-116.0","","","1-3","4316","40","1","Training","Stims/Figures/71-C-30-1.bmp","va:shasha","Up","40","8","1","8","C1","C","113"
"","","approach-retreat","117","1004633","0.0-117.0","","","1-3","4262","40","1","Training","Stims/Figures/86-C-30-1.bmp","fa:fasha","Up","40","8","2","8","C1","C","114"
"","","approach-retreat","118","1010471","0.0-118.0","","","1-3","4287","39","0","Training","Stims/Figures/87-C-20-4.bmp","sa:saha","Right","37","8","3","8","C2","C","115"
"","","approach-retreat","119","1016728","0.0-119.0","","","1-3","4723","39","0","Training","Stims/Figures/118-C-20-2.bmp","fa:sha:va","Right","37","8","4","8","C1","C","116"
"","","approach-retreat","120","1022398","0.0-120.0","","","1-3","4128","39","1","Training","Stims/Figures/128-C-30-3.bmp","za:haza","Left","39","8","5","8","C2","C","117"
"","","approach-retreat","121","1029329","0.0-121.0","","","1-3","5415","40","0","Training","Stims/Figures/85-C-20-2.bmp","va:fa:sha","Down","38","8","6","8","C1","C","118"
"","","approach-retreat","122","1034991","0.0-122.0","","","1-3","4120","38","0","Training","Stims/Figures/118-J-0-2.bmp","fafa:sha","Down","40","8","7","8","C1","C","119"
"","","approach-retreat","123","1040835","0.0-123.0","","","1-3","4331","38","1","Training","Stims/Figures/86-J-0-1.bmp","vashasha","Up","38","8","8","8","C1","C","120"
"","","approach-retreat","124","1046531","0.0-124.0","","","1-3","4179","39","1","Training","Stims/Figures/44-C-30-3.bmp","zasa:za","Left","39","8","9","8","C2","C","121"
"","","approach-retreat","125","1052237","0.0-125.0","","","1-3","4164","37","1","Training","Stims/Figures/102-C-20-4.bmp","za:saha","Right","37","8","10","8","C2","C","122"
"","","approach-retreat","126","1057972","0.0-126.0","","","1-3","4214","37","0","Training","Stims/Figures/85-J-0-2.bmp","fa:shasha","Right","39","8","11","8","C1","C","123"
"","","approach-retreat","127","1064364","0.0-127.0","","","1-3","4845","38","1","Training","Stims/Figures/87-J-10-4.bmp","sa:ha:ha","Up","38","8","12","8","C2","C","124"
"","","approach-retreat","128","1070270","0.0-128.0","","","1-3","4377","39","0","Training","Stims/Figures/128-J-10-3.bmp","za:ha:ha","Left","37","8","13","8","C2","C","125"
"","","approach-retreat","129","1076037","0.0-129.0","","","1-3","4220","38","0","Training","Stims/Figures/71-J-0-1.bmp","va:fava","Down","40","8","14","8","C1","C","126"
"","","approach-retreat","130","1082389","0.0-130.0","","","1-3","4805","38","0","Training","Stims/Figures/102-J-10-4.bmp","zaha:ha","Down","40","8","15","8","C2","C","127"
"","","approach-retreat","131","1088109","0.0-131.0","","","1-3","4197","39","0","Training","Stims/Figures/44-J-10-3.bmp","saha:za","Left","37","8","16","8","C2","C","128"
"","","approach-retreat","132","1093630","0.0-132.0","","","1-3","3977","39","1","Training","Stims/Figures/86-C-30-1.bmp","fa:fasha","Left","39","9","1","8","C1","C","129"
"","","approach-retreat","133","1099150","0.0-133.0","","","1-3","3981","39","0","Training","Stims/Figures/86-J-0-1.bmp","vashasha","Left","37","9","2","8","C1","C","130"
"","","approach-retreat","134","1104762","0.0-134.0","","","1-3","4070","37","0","Training","Stims/Figures/128-J-10-3.bmp","za:ha:ha","Right","39","9","3","8","C2","C","131"
"","","approach-retreat","135","1110510","0.0-135.0","","","1-3","4210","38","1","Training","Stims/Figures/128-C-30-3.bmp","za:haza","Down","38","9","4","8","C2","C","132"
"","","approach-retreat","136","1116463","0.0-136.0","","","1-3","4407","38","1","Training","Stims/Figures/85-C-20-2.bmp","va:fa:sha","Down","38","9","5","8","C1","C","133"
"","","approach-retreat","137","1122346","0.0-137.0","","","1-3","4342","40","1","Training","Stims/Figures/44-C-30-3.bmp","zasa:za","Up","40","9","6","8","C2","C","134"
"","","approach-retreat","138","1128135","0.0-138.0","","","1-3","4250","40","0","Training","Stims/Figures/71-J-0-1.bmp","va:fava","Up","38","9","7","8","C1","C","135"
"","","approach-retreat","139","1133891","0.0-139.0","","","1-3","4219","38","0","Training","Stims/Figures/44-J-10-3.bmp","saha:za","Down","40","9","8","8","C2","C","136"
"","","approach-retreat","140","1172658","0.0-140.0","","","1-3","37251","37","1","Training","Stims/Figures/118-C-20-2.bmp","fa:sha:va","Right","37","9","9","8","C1","C","137"
"","","approach-retreat","141","1178405","0.0-141.0","","","1-3","4208","37","1","Training","Stims/Figures/87-C-20-4.bmp","sa:saha","Right","37","9","10","8","C2","C","138"
"","","approach-retreat","142","1184384","0.0-142.0","","","1-3","4437","39","0","Training","Stims/Figures/87-J-10-4.bmp","sa:ha:ha","Left","37","9","11","8","C2","C","139"
"","","approach-retreat","143","1190163","0.0-143.0","","","1-3","4236","40","0","Training","Stims/Figures/102-J-10-4.bmp","zaha:ha","Up","38","9","12","8","C2","C","140"
"","","approach-retreat","144","1195958","0.0-144.0","","","1-3","4251","38","0","Training","Stims/Figures/118-J-0-2.bmp","fafa:sha","Down","40","9","13","8","C1","C","141"
"","","approach-retreat","145","1201984","0.0-145.0","","","1-3","4508","39","0","Training","Stims/Figures/85-J-0-2.bmp","fa:shasha","Left","37","9","14","8","C1","C","142"
"","","approach-retreat","146","1207597","0.0-146.0","","","1-3","4097","40","1","Training","Stims/Figures/102-C-20-4.bmp","za:saha","Up","40","9","15","8","C2","C","143"
"","","approach-retreat","147","1213202","0.0-147.0","","","1-3","4066","37","1","Training","Stims/Figures/71-C-30-1.bmp","va:shasha","Right","37","9","16","8","C1","C","144"
"25516","","instructions","148","1238719","0.0-148.0","[{""page_index"":0,""viewing_time"":25513}]","","","","","","","","","","","","","","","",""
"","","approach-retreat","149","1249044","0.0-149.0","","","1-3","8794","40","1","Testing","Stims/Figures/118-C-20-2.bmp","fa:sha:va","Up","40","1","1","8","C1","C","1"
"","","approach-retreat","150","1255506","0.0-150.0","","","1-3","4918","39","1","Testing","Stims/Figures/86-J-0-1.bmp","vashasha","Right","39","1","2","8","C1","C","2"
"","","approach-retreat","151","1261677","0.0-151.0","","","1-3","4636","37","1","Testing","Stims/Figures/118-J-0-2.bmp","fafa:sha","Left","37","1","3","8","C1","C","3"
"","","approach-retreat","152","1268038","0.0-152.0","","","1-3","4840","40","1","Testing","Stims/Figures/128-J-10-3.bmp","za:ha:ha","Down","40","1","4","8","C2","C","4"
"","","approach-retreat","153","1274047","0.0-153.0","","","1-3","4470","39","1","Testing","Stims/Figures/139-C-20-2.bmp","fasha:sha","Left","39","1","5","8","C1","C","5"
"","","approach-retreat","154","1283939","0.0-154.0","","","1-3","8353","39","0","Testing","Stims/Figures/86-C-30-1.bmp","fa:fasha","Right","37","1","6","8","C1","C","6"
"","","approach-retreat","155","1291393","0.0-155.0","","","1-3","5918","38","1","Testing","Stims/Figures/139-J-0-2.bmp","fa:shava","Up","38","1","7","8","C1","C","7"
"","","approach-retreat","156","1298430","0.0-156.0","","","1-3","5504","37","1","Testing","Stims/Figures/100-J-10-3.bmp","sa:haza","Left","37","1","8","8","C2","C","8"
"","","approach-retreat","157","1304330","0.0-157.0","","","1-3","4365","40","1","Testing","Stims/Figures/71-C-30-1.bmp","va:shasha","Up","40","1","9","8","C1","C","9"
"","","approach-retreat","158","1312274","0.0-158.0","","","1-3","6414","38","0","Testing","Stims/Figures/7-C-20-4.bmp","sasa:za","Up","40","1","10","8","C2","C","10"
"","","approach-retreat","159","1318553","0.0-159.0","","","1-3","4769","40","0","Testing","Stims/Figures/87-C-20-4.bmp","sa:saha","Down","38","1","11","8","C2","C","11"
"","","approach-retreat","160","1327119","0.0-160.0","","","1-3","7031","40","1","Testing","Stims/Figures/93-J-0-1.bmp","fa:fa:va","Down","40","1","12","8","C1","C","12"
"","","approach-retreat","161","1334631","0.0-161.0","","","1-3","6000","40","0","Testing","Stims/Figures/44-J-10-3.bmp","saha:za","Up","38","1","13","8","C2","C","13"
"","","approach-retreat","162","1340873","0.0-162.0","","","1-3","4709","40","1","Testing","Stims/Figures/102-C-20-4.bmp","za:saha","Up","40","1","14","8","C2","C","14"
"","","approach-retreat","163","1348545","0.0-163.0","","","1-3","6133","40","0","Testing","Stims/Figures/93-C-30-1.bmp","fa:fava","Down","38","1","15","8","C1","C","15"
"","","approach-retreat","164","1355417","0.0-164.0","","","1-3","5340","39","1","Testing","Stims/Figures/128-C-30-3.bmp","za:haza","Left","39","1","16","8","C2","C","16"
"","","approach-retreat","165","1363236","0.0-165.0","","","1-3","6281","39","0","Testing","Stims/Figures/85-C-20-2.bmp","va:fa:sha","Right","37","1","17","8","C1","C","17"
"","","approach-retreat","166","1369088","0.0-166.0","","","1-3","4316","39","1","Testing","Stims/Figures/71-J-0-1.bmp","va:fava","Right","39","1","18","8","C1","C","18"
"","","approach-retreat","167","1379367","0.0-167.0","","","1-3","8729","39","0","Testing","Stims/Figures/44-C-30-3.bmp","zasa:za","Right","37","1","19","8","C2","C","19"
"","","approach-retreat","168","1386082","0.0-168.0","","","1-3","5198","40","1","Testing","Stims/Figures/87-J-10-4.bmp","sa:ha:ha","Down","40","1","20","8","C2","C","20"
"","","approach-retreat","169","1397509","0.0-169.0","","","1-3","9889","39","1","Testing","Stims/Figures/7-J-10-4.bmp","za:haha","Right","39","1","21","8","C2","C","21"
"","","approach-retreat","170","1403497","0.0-170.0","","","1-3","4453","37","1","Testing","Stims/Figures/102-J-10-4.bmp","zaha:ha","Left","37","1","22","8","C2","C","22"
"","","approach-retreat","171","1413009","0.0-171.0","","","1-3","7971","40","1","Testing","Stims/Figures/85-J-0-2.bmp","fa:shasha","Down","40","1","23","8","C1","C","23"
"","","approach-retreat","172","1419239","0.0-172.0","","","1-3","4696","37","0","Testing","Stims/Figures/100-C-30-3.bmp","sasaha","Left","39","1","24","8","C2","C","24"
"","","approach-retreat","173","1424858","0.0-173.0","","","1-3","4083","40","1","Testing","Stims/Figures/71-J-0-1.bmp","va:fava","Down","40","2","1","8","C1","C","25"
"","","approach-retreat","174","1432511","0.0-174.0","","","1-3","6117","39","0","Testing","Stims/Figures/93-J-0-1.bmp","fa:fa:va","Left","37","2","2","8","C1","C","26"
"","","approach-retreat","175","1438815","0.0-175.0","","","1-3","4770","40","1","Testing","Stims/Figures/139-C-20-2.bmp","fasha:sha","Up","40","2","3","8","C1","C","27"
"","","approach-retreat","176","1445140","0.0-176.0","","","1-3","4794","39","1","Testing","Stims/Figures/7-C-20-4.bmp","sasa:za","Left","39","2","4","8","C2","C","28"
"","","approach-retreat","177","1451930","0.0-177.0","","","1-3","5254","40","1","Testing","Stims/Figures/102-C-20-4.bmp","za:saha","Up","40","2","5","8","C2","C","29"
"","","approach-retreat","178","1458261","0.0-178.0","","","1-3","4798","38","1","Testing","Stims/Figures/44-J-10-3.bmp","saha:za","Up","38","2","6","8","C2","C","30"
"","","approach-retreat","179","1464232","0.0-179.0","","","1-3","4441","39","0","Testing","Stims/Figures/71-C-30-1.bmp","va:shasha","Right","37","2","7","8","C1","C","31"
"","","approach-retreat","180","1469951","0.0-180.0","","","1-3","4184","39","0","Testing","Stims/Figures/86-J-0-1.bmp","vashasha","Left","37","2","8","8","C1","C","32"
"","","approach-retreat","181","1475960","0.0-181.0","","","1-3","4476","38","0","Testing","Stims/Figures/118-J-0-2.bmp","fafa:sha","Down","40","2","9","8","C1","C","33"
"","","approach-retreat","182","1482956","0.0-182.0","","","1-3","5463","38","0","Testing","Stims/Figures/128-C-30-3.bmp","za:haza","Up","40","2","10","8","C2","C","34"
"","","approach-retreat","183","1489308","0.0-183.0","","","1-3","4815","38","1","Testing","Stims/Figures/93-C-30-1.bmp","fa:fava","Down","38","2","11","8","C1","C","35"
"","","approach-retreat","184","1495809","0.0-184.0","","","1-3","4967","40","1","Testing","Stims/Figures/100-C-30-3.bmp","sasaha","Up","40","2","12","8","C2","C","36"
"","","approach-retreat","185","1501955","0.0-185.0","","","1-3","4611","39","0","Testing","Stims/Figures/85-J-0-2.bmp","fa:shasha","Left","37","2","13","8","C1","C","37"
"","","approach-retreat","186","1508923","0.0-186.0","","","1-3","5430","38","0","Testing","Stims/Figures/87-C-20-4.bmp","sa:saha","Up","40","2","14","8","C2","C","38"
"","","approach-retreat","187","1516081","0.0-187.0","","","1-3","5626","38","0","Testing","Stims/Figures/87-J-10-4.bmp","sa:ha:ha","Down","40","2","15","8","C2","C","39"
"","","approach-retreat","188","1522608","0.0-188.0","","","1-3","4993","39","1","Testing","Stims/Figures/100-J-10-3.bmp","sa:haza","Right","39","2","16","8","C2","C","40"
"","","approach-retreat","189","1528922","0.0-189.0","","","1-3","4777","37","1","Testing","Stims/Figures/139-J-0-2.bmp","fa:shava","Left","37","2","17","8","C1","C","41"
"","","approach-retreat","190","1535063","0.0-190.0","","","1-3","4608","39","0","Testing","Stims/Figures/44-C-30-3.bmp","zasa:za","Right","37","2","18","8","C2","C","42"
"","","approach-retreat","191","1541186","0.0-191.0","","","1-3","4585","40","1","Testing","Stims/Figures/7-J-10-4.bmp","za:haha","Down","40","2","19","8","C2","C","43"
"","","approach-retreat","192","1547813","0.0-192.0","","","1-3","5095","37","0","Testing","Stims/Figures/128-J-10-3.bmp","za:ha:ha","Right","39","2","20","8","C2","C","44"
"","","approach-retreat","193","1554064","0.0-193.0","","","1-3","4717","39","1","Testing","Stims/Figures/118-C-20-2.bmp","fa:sha:va","Left","39","2","21","8","C1","C","45"
"","","approach-retreat","194","1567768","0.0-194.0","","","1-3","12166","40","1","Testing","Stims/Figures/102-J-10-4.bmp","zaha:ha","Down","40","2","22","8","C2","C","46"
"","","approach-retreat","195","1574319","0.0-195.0","","","1-3","5015","39","0","Testing","Stims/Figures/85-C-20-2.bmp","va:fa:sha","Right","37","2","23","8","C1","C","47"
"","","approach-retreat","196","1582284","0.0-196.0","","","1-3","6431","39","0","Testing","Stims/Figures/86-C-30-1.bmp","fa:fasha","Right","37","2","24","8","C1","C","48"
"","","approach-retreat","197","1588173","0.0-197.0","","","1-3","4352","39","0","Testing","Stims/Figures/87-C-20-4.bmp","sa:saha","Right","37","3","1","8","C2","C","49"
"","","approach-retreat","198","1594413","0.0-198.0","","","1-3","4707","37","0","Testing","Stims/Figures/139-C-20-2.bmp","fasha:sha","Left","39","3","2","8","C1","C","50"
"","","approach-retreat","199","1600575","0.0-199.0","","","1-3","4624","40","1","Testing","Stims/Figures/102-J-10-4.bmp","zaha:ha","Down","40","3","3","8","C2","C","51"
"","","approach-retreat","200","1607303","0.0-200.0","","","1-3","5195","39","1","Testing","Stims/Figures/93-C-30-1.bmp","fa:fava","Left","39","3","4","8","C1","C","52"
"","","approach-retreat","201","1613404","0.0-201.0","","","1-3","4570","40","0","Testing","Stims/Figures/85-C-20-2.bmp","va:fa:sha","Down","38","3","5","8","C1","C","53"
"","","approach-retreat","202","1619423","0.0-202.0","","","1-3","4483","39","0","Testing","Stims/Figures/100-J-10-3.bmp","sa:haza","Left","37","3","6","8","C2","C","54"
"","","approach-retreat","203","1625958","0.0-203.0","","","1-3","5017","38","0","Testing","Stims/Figures/85-J-0-2.bmp","fa:shasha","Down","40","3","7","8","C1","C","55"
"","","approach-retreat","204","1634984","0.0-204.0","","","1-3","7492","39","0","Testing","Stims/Figures/93-J-0-1.bmp","fa:fa:va","Left","37","3","8","8","C1","C","56"
"","","approach-retreat","205","1651798","0.0-205.0","","","1-3","15301","37","0","Testing","Stims/Figures/128-J-10-3.bmp","za:ha:ha","Right","39","3","9","8","C2","C","57"
"","","approach-retreat","206","1708278","0.0-206.0","","","1-3","54943","39","1","Testing","Stims/Figures/100-C-30-3.bmp","sasaha","Left","39","3","10","8","C2","C","58"
"","","approach-retreat","207","1714742","0.0-207.0","","","1-3","4931","40","1","Testing","Stims/Figures/102-C-20-4.bmp","za:saha","Up","40","3","11","8","C2","C","59"
"","","approach-retreat","208","1720834","0.0-208.0","","","1-3","4568","37","1","Testing","Stims/Figures/87-J-10-4.bmp","sa:ha:ha","Left","37","3","12","8","C2","C","60"
"","","approach-retreat","209","1727234","0.0-209.0","","","1-3","4878","40","0","Testing","Stims/Figures/128-C-30-3.bmp","za:haza","Down","38","3","13","8","C2","C","61"
"","","approach-retreat","210","1755037","0.0-210.0","","","1-3","26292","37","0","Testing","Stims/Figures/7-J-10-4.bmp","za:haha","Right","39","3","14","8","C2","C","62"
"","","approach-retreat","211","1763625","0.0-211.0","","","1-3","7067","37","0","Testing","Stims/Figures/118-J-0-2.bmp","fafa:sha","Right","39","3","15","8","C1","C","63"
"","","approach-retreat","212","1772244","0.0-212.0","","","1-3","7083","39","1","Testing","Stims/Figures/71-J-0-1.bmp","va:fava","Right","39","3","16","8","C1","C","64"
"","","approach-retreat","213","1786827","0.0-213.0","","","1-3","13044","40","0","Testing","Stims/Figures/44-J-10-3.bmp","saha:za","Up","38","3","17","8","C2","C","65"
"","","approach-retreat","214","1813904","0.0-214.0","","","1-3","25548","39","0","Testing","Stims/Figures/71-C-30-1.bmp","va:shasha","Right","37","3","18","8","C1","C","66"
"","","approach-retreat","215","1823072","0.0-215.0","","","1-3","7628","40","0","Testing","Stims/Figures/139-J-0-2.bmp","fa:shava","Up","38","3","19","8","C1","C","67"
"","","approach-retreat","216","1829473","0.0-216.0","","","1-3","4868","40","1","Testing","Stims/Figures/118-C-20-2.bmp","fa:sha:va","Up","40","3","20","8","C1","C","68"
"","","approach-retreat","217","1835618","0.0-217.0","","","1-3","4610","40","1","Testing","Stims/Figures/44-C-30-3.bmp","zasa:za","Up","40","3","21","8","C2","C","69"
"","","approach-retreat","218","1845509","0.0-218.0","","","1-3","8360","40","0","Testing","Stims/Figures/86-J-0-1.bmp","vashasha","Up","38","3","22","8","C1","C","70"
"","","approach-retreat","219","1852981","0.0-219.0","","","1-3","5934","38","1","Testing","Stims/Figures/86-C-30-1.bmp","fa:fasha","Down","38","3","23","8","C1","C","71"
"","","approach-retreat","220","1865042","0.0-220.0","","","1-3","10527","38","1","Testing","Stims/Figures/7-C-20-4.bmp","sasa:za","Down","38","3","24","8","C2","C","72"
"","","approach-retreat","221","1871057","0.0-221.0","","","1-3","4479","40","1","Testing","Stims/Figures/44-C-30-3.bmp","zasa:za","Up","40","4","1","8","C2","C","73"
"","","approach-retreat","222","1881297","0.0-222.0","","","1-3","8704","39","1","Testing","Stims/Figures/87-C-20-4.bmp","sa:saha","Left","39","4","2","8","C2","C","74"
"","","approach-retreat","223","1887338","0.0-223.0","","","1-3","4505","38","1","Testing","Stims/Figures/128-C-30-3.bmp","za:haza","Down","38","4","3","8","C2","C","75"
"","","approach-retreat","224","1901805","0.0-224.0","","","1-3","12958","40","1","Testing","Stims/Figures/86-C-30-1.bmp","fa:fasha","Up","40","4","4","8","C1","C","76"
"","","approach-retreat","225","1921977","0.0-225.0","","","1-3","18638","38","1","Testing","Stims/Figures/93-C-30-1.bmp","fa:fava","Down","38","4","5","8","C1","C","77"
"","","approach-retreat","226","1927893","0.0-226.0","","","1-3","4378","38","1","Testing","Stims/Figures/7-C-20-4.bmp","sasa:za","Down","38","4","6","8","C2","C","78"
"","","approach-retreat","227","1933944","0.0-227.0","","","1-3","4537","38","1","Testing","Stims/Figures/85-C-20-2.bmp","va:fa:sha","Down","38","4","7","8","C1","C","79"
"","","approach-retreat","228","1939893","0.0-228.0","","","1-3","4414","39","0","Testing","Stims/Figures/100-J-10-3.bmp","sa:haza","Left","37","4","8","8","C2","C","80"
"","","approach-retreat","229","1958805","0.0-229.0","","","1-3","17377","39","0","Testing","Stims/Figures/71-J-0-1.bmp","va:fava","Left","37","4","9","8","C1","C","81"
"","","approach-retreat","230","1964978","0.0-230.0","","","1-3","4638","40","1","Testing","Stims/Figures/118-C-20-2.bmp","fa:sha:va","Up","40","4","10","8","C1","C","82"
"","","approach-retreat","231","1975777","0.0-231.0","","","1-3","9283","40","1","Testing","Stims/Figures/100-C-30-3.bmp","sasaha","Up","40","4","11","8","C2","C","83"
"","","approach-retreat","232","1981333","0.0-232.0","","","1-3","4019","37","0","Testing","Stims/Figures/139-J-0-2.bmp","fa:shava","Right","39","4","12","8","C1","C","84"
"","","approach-retreat","233","1987489","0.0-233.0","","","1-3","4628","37","0","Testing","Stims/Figures/93-J-0-1.bmp","fa:fa:va","Right","39","4","13","8","C1","C","85"
"","","approach-retreat","234","1993468","0.0-234.0","","","1-3","4443","39","0","Testing","Stims/Figures/85-J-0-2.bmp","fa:shasha","Left","37","4","14","8","C1","C","86"
"","","approach-retreat","235","2002159","0.0-235.0","","","1-3","7162","38","1","Testing","Stims/Figures/139-C-20-2.bmp","fasha:sha","Down","38","4","15","8","C1","C","87"
"","","approach-retreat","236","2008077","0.0-236.0","","","1-3","4388","37","0","Testing","Stims/Figures/7-J-10-4.bmp","za:haha","Right","39","4","16","8","C2","C","88"
"","","approach-retreat","237","2014056","0.0-237.0","","","1-3","4445","39","0","Testing","Stims/Figures/128-J-10-3.bmp","za:ha:ha","Left","37","4","17","8","C2","C","89"
"","","approach-retreat","238","2020587","0.0-238.0","","","1-3","4992","37","1","Testing","Stims/Figures/102-C-20-4.bmp","za:saha","Right","37","4","18","8","C2","C","90"
"","","approach-retreat","239","2026558","0.0-239.0","","","1-3","4439","37","0","Testing","Stims/Figures/118-J-0-2.bmp","fafa:sha","Right","39","4","19","8","C1","C","91"
"","","approach-retreat","240","2034494","0.0-240.0","","","1-3","6402","37","0","Testing","Stims/Figures/44-J-10-3.bmp","saha:za","Right","39","4","20","8","C2","C","92"
"","","approach-retreat","241","2040675","0.0-241.0","","","1-3","4649","40","0","Testing","Stims/Figures/87-J-10-4.bmp","sa:ha:ha","Up","38","4","21","8","C2","C","93"
"","","approach-retreat","242","2047944","0.0-242.0","","","1-3","5747","38","0","Testing","Stims/Figures/86-J-0-1.bmp","vashasha","Down","40","4","22","8","C1","C","94"
"","","approach-retreat","243","2054614","0.0-243.0","","","1-3","5135","39","1","Testing","Stims/Figures/71-C-30-1.bmp","va:shasha","Left","39","4","23","8","C1","C","95"
"","","approach-retreat","244","2060901","0.0-244.0","","","1-3","4753","40","0","Testing","Stims/Figures/102-J-10-4.bmp","zaha:ha","Up","38","4","24","8","C2","C","96"
"58938","","survey-text","245","2119855","0.0-245.0","","{""Q0"":""1004/2018""}","","","","","","","","","","","","","","",""
