"rt","key_press","trial_type","trial_index","time_elapsed","internal_node_id","view_history","responses","Id","Rt","ResKeyCode","ResCorr","TrialType2","Image","Label","Location","CorrectResponse","Block","BlockTrial","Condition","LabelType","Subcondition","trialNum"
"1939","32","text","0","1944","0.0-0.0-0.0","","","","","","","","","","","","","","","","",""
"681","","instructions","1","2628","0.0-1.0","[{""page_index"":0,""viewing_time"":680}]","","","","","","","","","","","","","","","",""
"14523","","survey-multi-choice","2","17209","0.0-2.0","","{""Q0"":""Da"",""Q1"":""Da"",""Q2"":""Da"",""Q3"":""Da"",""Q4"":""Da"",""Q5"":""Da""}","","","","","","","","","","","","","","",""
"","","bio","3","25135","0.0-3.0","","{""age"":""19"",""gender"":""f"",""specify"":""""}","","","","","","","","","","","","","","",""
"","","approach-retreat","4","32179","0.0-4.0","","","1-4","5457","39","1","Training","Stims/Figures/102-C-20-4.bmp","ta:pa:ka","Left","39","1","1","9","P","C","1"
"","","approach-retreat","5","51977","0.0-5.0","","","1-4","18153","37","1","Training","Stims/Figures/44-C-30-3.bmp","ta:kata","Right","37","1","2","9","P","C","2"
"","","approach-retreat","6","57881","0.0-6.0","","","1-4","4352","40","0","Training","Stims/Figures/7-J-10-4.bmp","pa:kaka","Up","38","1","3","9","P","C","3"
"","","approach-retreat","7","64611","0.0-7.0","","","1-4","5179","39","0","Training","Stims/Figures/7-C-20-4.bmp","pakata","Right","37","1","4","9","P","C","4"
"","","approach-retreat","8","70614","0.0-8.0","","","1-4","4426","37","1","Training","Stims/Figures/44-J-10-3.bmp","zasaza","Left","37","1","5","9","C2","C","5"
"","","approach-retreat","9","92377","0.0-9.0","","","1-4","20207","39","0","Training","Stims/Figures/85-J-0-2.bmp","za:sa:ha","Left","37","1","6","9","C2","C","6"
"","","approach-retreat","10","103020","0.0-10.0","","","1-4","9079","38","1","Training","Stims/Figures/86-C-30-1.bmp","tapa:ta","Down","38","1","7","9","P","C","7"
"","","approach-retreat","11","108933","0.0-11.0","","","1-4","4355","39","0","Training","Stims/Figures/100-C-30-3.bmp","vasha:va","Right","37","1","8","9","C1","C","8"
"","","approach-retreat","12","116486","0.0-12.0","","","1-4","6013","40","0","Training","Stims/Figures/102-J-10-4.bmp","na:mana","Up","38","1","9","9","S","C","9"
"","","approach-retreat","13","123151","0.0-13.0","","","1-4","5111","38","1","Training","Stims/Figures/94-C-20-2.bmp","zahaha","Down","38","1","10","9","C2","C","10"
"","","approach-retreat","14","148736","0.0-14.0","","","1-4","24033","39","0","Training","Stims/Figures/85-C-20-2.bmp","ma:ma:na","Right","37","1","11","9","S","C","11"
"","","approach-retreat","15","155711","0.0-15.0","","","1-4","5422","37","0","Training","Stims/Figures/71-C-30-1.bmp","vafasha","Left","39","1","12","9","C1","C","12"
"","","approach-retreat","16","161671","0.0-16.0","","","1-4","4419","40","1","Training","Stims/Figures/71-J-0-1.bmp","fasha:sha","Down","40","1","13","9","C1","C","13"
"","","approach-retreat","17","167875","0.0-17.0","","","1-4","4654","38","1","Training","Stims/Figures/100-J-10-3.bmp","zasa:ha","Up","38","1","14","9","C2","C","14"
"","","approach-retreat","18","180881","0.0-18.0","","","1-4","11451","38","0","Training","Stims/Figures/94-J-0-2.bmp","sa:sa:ha","Down","40","1","15","9","C2","C","15"
"","","approach-retreat","19","186604","0.0-19.0","","","1-4","4176","40","0","Training","Stims/Figures/86-J-0-1.bmp","sa:saha","Up","38","1","16","9","C2","C","16"
"","","approach-retreat","20","195146","0.0-20.0","","","1-4","6995","39","0","Training","Stims/Figures/85-C-20-2.bmp","ma:ma:na","Right","37","2","1","9","S","C","17"
"","","approach-retreat","21","202632","0.0-21.0","","","1-4","5936","37","1","Training","Stims/Figures/100-J-10-3.bmp","zasa:ha","Left","37","2","2","9","C2","C","18"
"","","approach-retreat","22","208885","0.0-22.0","","","1-4","4704","39","1","Training","Stims/Figures/94-C-20-2.bmp","zahaha","Left","39","2","3","9","C2","C","19"
"","","approach-retreat","23","215732","0.0-23.0","","","1-4","5292","38","1","Training","Stims/Figures/71-J-0-1.bmp","fasha:sha","Up","38","2","4","9","C1","C","20"
"","","approach-retreat","24","221625","0.0-24.0","","","1-4","4356","40","1","Training","Stims/Figures/86-C-30-1.bmp","tapa:ta","Up","40","2","5","9","P","C","21"
"","","approach-retreat","25","228062","0.0-25.0","","","1-4","4889","39","1","Training","Stims/Figures/94-J-0-2.bmp","sa:sa:ha","Right","39","2","6","9","C2","C","22"
"","","approach-retreat","26","233725","0.0-26.0","","","1-4","4106","40","0","Training","Stims/Figures/85-J-0-2.bmp","za:sa:ha","Up","38","2","7","9","C2","C","23"
"","","approach-retreat","27","239384","0.0-27.0","","","1-4","4116","40","1","Training","Stims/Figures/86-J-0-1.bmp","sa:saha","Down","40","2","8","9","C2","C","24"
"","","approach-retreat","28","245400","0.0-28.0","","","1-4","4466","39","0","Training","Stims/Figures/71-C-30-1.bmp","vafasha","Right","37","2","9","9","C1","C","25"
"","","approach-retreat","29","252481","0.0-29.0","","","1-4","5531","39","0","Training","Stims/Figures/44-J-10-3.bmp","zasaza","Left","37","2","10","9","C2","C","26"
"","","approach-retreat","30","258284","0.0-30.0","","","1-4","4246","38","1","Training","Stims/Figures/102-C-20-4.bmp","ta:pa:ka","Down","38","2","11","9","P","C","27"
"","","approach-retreat","31","264680","0.0-31.0","","","1-4","4858","40","1","Training","Stims/Figures/100-C-30-3.bmp","vasha:va","Up","40","2","12","9","C1","C","28"
"","","approach-retreat","32","271440","0.0-32.0","","","1-4","5216","40","1","Training","Stims/Figures/102-J-10-4.bmp","na:mana","Down","40","2","13","9","S","C","29"
"","","approach-retreat","33","278153","0.0-33.0","","","1-4","5179","38","1","Training","Stims/Figures/44-C-30-3.bmp","ta:kata","Down","38","2","14","9","P","C","30"
"","","approach-retreat","34","284602","0.0-34.0","","","1-4","4903","39","1","Training","Stims/Figures/7-C-20-4.bmp","pakata","Left","39","2","15","9","P","C","31"
"","","approach-retreat","35","290418","0.0-35.0","","","1-4","4277","39","1","Training","Stims/Figures/7-J-10-4.bmp","pa:kaka","Right","39","2","16","9","P","C","32"
"","","approach-retreat","36","296747","0.0-36.0","","","1-4","4785","39","1","Training","Stims/Figures/71-C-30-1.bmp","vafasha","Left","39","3","1","9","C1","C","33"
"","","approach-retreat","37","302848","0.0-37.0","","","1-4","4553","38","0","Training","Stims/Figures/44-C-30-3.bmp","ta:kata","Up","40","3","2","9","P","C","34"
"","","approach-retreat","38","350287","0.0-38.0","","","1-4","45896","40","1","Training","Stims/Figures/102-C-20-4.bmp","ta:pa:ka","Up","40","3","3","9","P","C","35"
"","","approach-retreat","39","356682","0.0-39.0","","","1-4","4836","39","0","Training","Stims/Figures/85-C-20-2.bmp","ma:ma:na","Right","37","3","4","9","S","C","36"
"","","approach-retreat","40","362718","0.0-40.0","","","1-4","4490","40","0","Training","Stims/Figures/86-C-30-1.bmp","tapa:ta","Down","38","3","5","9","P","C","37"
"","","approach-retreat","41","368822","0.0-41.0","","","1-4","4561","38","0","Training","Stims/Figures/44-J-10-3.bmp","zasaza","Down","40","3","6","9","C2","C","38"
"","","approach-retreat","42","374799","0.0-42.0","","","1-4","4430","39","1","Training","Stims/Figures/71-J-0-1.bmp","fasha:sha","Right","39","3","7","9","C1","C","39"
"","","approach-retreat","43","380890","0.0-43.0","","","1-4","4533","39","0","Training","Stims/Figures/7-J-10-4.bmp","pa:kaka","Left","37","3","8","9","P","C","40"
"","","approach-retreat","44","387285","0.0-44.0","","","1-4","4849","37","0","Training","Stims/Figures/7-C-20-4.bmp","pakata","Left","39","3","9","9","P","C","41"
"","","approach-retreat","45","395856","0.0-45.0","","","1-4","7019","38","0","Training","Stims/Figures/85-J-0-2.bmp","za:sa:ha","Down","40","3","10","9","C2","C","42"
"","","approach-retreat","46","401723","0.0-46.0","","","1-4","4322","39","1","Training","Stims/Figures/100-C-30-3.bmp","vasha:va","Left","39","3","11","9","C1","C","43"
"","","approach-retreat","47","407401","0.0-47.0","","","1-4","4124","40","1","Training","Stims/Figures/94-C-20-2.bmp","zahaha","Up","40","3","12","9","C2","C","44"
"","","approach-retreat","48","413666","0.0-48.0","","","1-4","4717","38","1","Training","Stims/Figures/94-J-0-2.bmp","sa:sa:ha","Up","38","3","13","9","C2","C","45"
"","","approach-retreat","49","419940","0.0-49.0","","","1-4","4711","37","0","Training","Stims/Figures/100-J-10-3.bmp","zasa:ha","Right","39","3","14","9","C2","C","46"
"","","approach-retreat","50","426232","0.0-50.0","","","1-4","4739","39","1","Training","Stims/Figures/102-J-10-4.bmp","na:mana","Right","39","3","15","9","S","C","47"
"","","approach-retreat","51","432177","0.0-51.0","","","1-4","4410","40","1","Training","Stims/Figures/86-J-0-1.bmp","sa:saha","Down","40","3","16","9","C2","C","48"
"","","approach-retreat","52","438583","0.0-52.0","","","1-4","4858","38","1","Training","Stims/Figures/86-C-30-1.bmp","tapa:ta","Down","38","4","1","9","P","C","49"
"","","approach-retreat","53","445238","0.0-53.0","","","1-4","5098","37","1","Training","Stims/Figures/85-J-0-2.bmp","za:sa:ha","Left","37","4","2","9","C2","C","50"
"","","approach-retreat","54","451460","0.0-54.0","","","1-4","4655","39","0","Training","Stims/Figures/85-C-20-2.bmp","ma:ma:na","Right","37","4","3","9","S","C","51"
"","","approach-retreat","55","457705","0.0-55.0","","","1-4","4722","39","1","Training","Stims/Figures/94-J-0-2.bmp","sa:sa:ha","Right","39","4","4","9","C2","C","52"
"","","approach-retreat","56","463782","0.0-56.0","","","1-4","4515","38","1","Training","Stims/Figures/7-C-20-4.bmp","pakata","Down","38","4","5","9","P","C","53"
"","","approach-retreat","57","470059","0.0-57.0","","","1-4","4735","40","0","Training","Stims/Figures/86-J-0-1.bmp","sa:saha","Up","38","4","6","9","C2","C","54"
"","","approach-retreat","58","477528","0.0-58.0","","","1-4","5921","38","0","Training","Stims/Figures/44-C-30-3.bmp","ta:kata","Up","40","4","7","9","P","C","55"
"","","approach-retreat","59","483537","0.0-59.0","","","1-4","4451","40","1","Training","Stims/Figures/102-C-20-4.bmp","ta:pa:ka","Up","40","4","8","9","P","C","56"
"","","approach-retreat","60","489575","0.0-60.0","","","1-4","4481","39","0","Training","Stims/Figures/71-C-30-1.bmp","vafasha","Right","37","4","9","9","C1","C","57"
"","","approach-retreat","61","496288","0.0-61.0","","","1-4","5159","38","0","Training","Stims/Figures/100-C-30-3.bmp","vasha:va","Up","40","4","10","9","C1","C","58"
"","","approach-retreat","62","503069","0.0-62.0","","","1-4","5244","40","1","Training","Stims/Figures/102-J-10-4.bmp","na:mana","Down","40","4","11","9","S","C","59"
"","","approach-retreat","63","509243","0.0-63.0","","","1-4","4624","37","0","Training","Stims/Figures/44-J-10-3.bmp","zasaza","Right","39","4","12","9","C2","C","60"
"","","approach-retreat","64","515254","0.0-64.0","","","1-4","4467","38","0","Training","Stims/Figures/100-J-10-3.bmp","zasa:ha","Down","40","4","13","9","C2","C","61"
"","","approach-retreat","65","520916","0.0-65.0","","","1-4","4121","39","0","Training","Stims/Figures/7-J-10-4.bmp","pa:kaka","Left","37","4","14","9","P","C","62"
"","","approach-retreat","66","527484","0.0-66.0","","","1-4","5012","37","1","Training","Stims/Figures/71-J-0-1.bmp","fasha:sha","Left","37","4","15","9","C1","C","63"
"","","approach-retreat","67","611984","0.0-67.0","","","1-4","82937","39","1","Training","Stims/Figures/94-C-20-2.bmp","zahaha","Left","39","4","16","9","C2","C","64"
"","","approach-retreat","68","617595","0.0-68.0","","","1-4","4059","40","1","Training","Stims/Figures/7-C-20-4.bmp","pakata","Up","40","5","1","9","P","C","65"
"","","approach-retreat","69","623831","0.0-69.0","","","1-4","4678","39","0","Training","Stims/Figures/94-C-20-2.bmp","zahaha","Right","37","5","2","9","C2","C","66"
"","","approach-retreat","70","629982","0.0-70.0","","","1-4","4602","39","1","Training","Stims/Figures/71-C-30-1.bmp","vafasha","Left","39","5","3","9","C1","C","67"
"","","approach-retreat","71","636188","0.0-71.0","","","1-4","4668","38","1","Training","Stims/Figures/86-C-30-1.bmp","tapa:ta","Down","38","5","4","9","P","C","68"
"","","approach-retreat","72","642746","0.0-72.0","","","1-4","5009","39","1","Training","Stims/Figures/44-J-10-3.bmp","zasaza","Right","39","5","5","9","C2","C","69"
"","","approach-retreat","73","659160","0.0-73.0","","","1-4","14860","37","0","Training","Stims/Figures/102-C-20-4.bmp","ta:pa:ka","Left","39","5","6","9","P","C","70"
"","","approach-retreat","74","666037","0.0-74.0","","","1-4","5315","40","0","Training","Stims/Figures/100-C-30-3.bmp","vasha:va","Down","38","5","7","9","C1","C","71"
"","","approach-retreat","75","671813","0.0-75.0","","","1-4","4216","38","1","Training","Stims/Figures/85-J-0-2.bmp","za:sa:ha","Up","38","5","8","9","C2","C","72"
"","","approach-retreat","76","677959","0.0-76.0","","","1-4","4598","39","0","Training","Stims/Figures/85-C-20-2.bmp","ma:ma:na","Right","37","5","9","9","S","C","73"
"","","approach-retreat","77","800667","0.0-77.0","","","1-4","121158","40","0","Training","Stims/Figures/94-J-0-2.bmp","sa:sa:ha","Up","38","5","10","9","C2","C","74"
"","","approach-retreat","78","806461","0.0-78.0","","","1-4","4246","38","0","Training","Stims/Figures/86-J-0-1.bmp","sa:saha","Down","40","5","11","9","C2","C","75"
"","","approach-retreat","79","815916","0.0-79.0","","","1-4","7909","39","0","Training","Stims/Figures/7-J-10-4.bmp","pa:kaka","Left","37","5","12","9","P","C","76"
"","","approach-retreat","80","836676","0.0-80.0","","","1-4","19215","38","1","Training","Stims/Figures/71-J-0-1.bmp","fasha:sha","Up","38","5","13","9","C1","C","77"
"","","approach-retreat","81","911583","0.0-81.0","","","1-4","73355","39","0","Training","Stims/Figures/44-C-30-3.bmp","ta:kata","Right","37","5","14","9","P","C","78"
"","","approach-retreat","82","918184","0.0-82.0","","","1-4","5057","38","0","Training","Stims/Figures/102-J-10-4.bmp","na:mana","Down","40","5","15","9","S","C","79"
"","","approach-retreat","83","923906","0.0-83.0","","","1-4","4166","37","1","Training","Stims/Figures/100-J-10-3.bmp","zasa:ha","Left","37","5","16","9","C2","C","80"
"","","approach-retreat","84","930764","0.0-84.0","","","1-4","5293","38","1","Training","Stims/Figures/94-C-20-2.bmp","zahaha","Down","38","6","1","9","C2","C","81"
"","","approach-retreat","85","937720","0.0-85.0","","","1-4","5395","38","0","Training","Stims/Figures/102-C-20-4.bmp","ta:pa:ka","Up","40","6","2","9","P","C","82"
"","","approach-retreat","86","947372","0.0-86.0","","","1-4","8118","40","1","Training","Stims/Figures/71-C-30-1.bmp","vafasha","Up","40","6","3","9","C1","C","83"
"","","approach-retreat","87","956215","0.0-87.0","","","1-4","7289","37","0","Training","Stims/Figures/100-C-30-3.bmp","vasha:va","Left","39","6","4","9","C1","C","84"
"","","approach-retreat","88","962436","0.0-88.0","","","1-4","4670","38","1","Training","Stims/Figures/7-C-20-4.bmp","pakata","Down","38","6","5","9","P","C","85"
"","","approach-retreat","89","968720","0.0-89.0","","","1-4","4737","37","0","Training","Stims/Figures/102-J-10-4.bmp","na:mana","Right","39","6","6","9","S","C","86"
"","","approach-retreat","90","974808","0.0-90.0","","","1-4","4538","37","0","Training","Stims/Figures/86-C-30-1.bmp","tapa:ta","Left","39","6","7","9","P","C","87"
"","","approach-retreat","91","980768","0.0-91.0","","","1-4","4422","38","1","Training","Stims/Figures/7-J-10-4.bmp","pa:kaka","Up","38","6","8","9","P","C","88"
"","","approach-retreat","92","987124","0.0-92.0","","","1-4","4800","39","1","Training","Stims/Figures/94-J-0-2.bmp","sa:sa:ha","Right","39","6","9","9","C2","C","89"
"","","approach-retreat","93","993033","0.0-93.0","","","1-4","4369","37","0","Training","Stims/Figures/44-J-10-3.bmp","zasaza","Right","39","6","10","9","C2","C","90"
"","","approach-retreat","94","999751","0.0-94.0","","","1-4","5172","39","1","Training","Stims/Figures/85-C-20-2.bmp","ma:ma:na","Left","39","6","11","9","S","C","91"
"","","approach-retreat","95","1006553","0.0-95.0","","","1-4","5264","38","1","Training","Stims/Figures/85-J-0-2.bmp","za:sa:ha","Up","38","6","12","9","C2","C","92"
"","","approach-retreat","96","1012393","0.0-96.0","","","1-4","4288","37","0","Training","Stims/Figures/71-J-0-1.bmp","fasha:sha","Right","39","6","13","9","C1","C","93"
"","","approach-retreat","97","1018016","0.0-97.0","","","1-4","4069","39","0","Training","Stims/Figures/100-J-10-3.bmp","zasa:ha","Left","37","6","14","9","C2","C","94"
"","","approach-retreat","98","1024118","0.0-98.0","","","1-4","4549","38","0","Training","Stims/Figures/86-J-0-1.bmp","sa:saha","Down","40","6","15","9","C2","C","95"
"","","approach-retreat","99","1029783","0.0-99.0","","","1-4","4128","40","0","Training","Stims/Figures/44-C-30-3.bmp","ta:kata","Down","38","6","16","9","P","C","96"
"","","approach-retreat","100","1037852","0.0-100.0","","","1-4","6518","38","0","Training","Stims/Figures/44-C-30-3.bmp","ta:kata","Up","40","7","1","9","P","C","97"
"","","approach-retreat","101","1043583","0.0-101.0","","","1-4","4191","40","0","Training","Stims/Figures/44-J-10-3.bmp","zasaza","Up","38","7","2","9","C2","C","98"
"","","approach-retreat","102","1049232","0.0-102.0","","","1-4","4098","38","1","Training","Stims/Figures/102-C-20-4.bmp","ta:pa:ka","Down","38","7","3","9","P","C","99"
"","","approach-retreat","103","1055455","0.0-103.0","","","1-4","4664","39","1","Training","Stims/Figures/7-C-20-4.bmp","pakata","Left","39","7","4","9","P","C","100"
"","","approach-retreat","104","1061823","0.0-104.0","","","1-4","4825","40","0","Training","Stims/Figures/86-C-30-1.bmp","tapa:ta","Down","38","7","5","9","P","C","101"
"","","approach-retreat","105","1067663","0.0-105.0","","","1-4","4297","40","0","Training","Stims/Figures/94-J-0-2.bmp","sa:sa:ha","Up","38","7","6","9","C2","C","102"
"","","approach-retreat","106","1074196","0.0-106.0","","","1-4","4978","39","1","Training","Stims/Figures/94-C-20-2.bmp","zahaha","Left","39","7","7","9","C2","C","103"
"","","approach-retreat","107","1082730","0.0-107.0","","","1-4","6984","37","1","Training","Stims/Figures/85-J-0-2.bmp","za:sa:ha","Left","37","7","8","9","C2","C","104"
"","","approach-retreat","108","1090373","0.0-108.0","","","1-4","6115","39","1","Training","Stims/Figures/7-J-10-4.bmp","pa:kaka","Right","39","7","9","9","P","C","105"
"","","approach-retreat","109","1096034","0.0-109.0","","","1-4","4109","37","0","Training","Stims/Figures/71-J-0-1.bmp","fasha:sha","Right","39","7","10","9","C1","C","106"
"","","approach-retreat","110","1102514","0.0-110.0","","","1-4","4951","40","1","Training","Stims/Figures/100-J-10-3.bmp","zasa:ha","Down","40","7","11","9","C2","C","107"
"","","approach-retreat","111","1108947","0.0-111.0","","","1-4","4882","38","0","Training","Stims/Figures/100-C-30-3.bmp","vasha:va","Up","40","7","12","9","C1","C","108"
"","","approach-retreat","112","1114941","0.0-112.0","","","1-4","4454","37","0","Training","Stims/Figures/86-J-0-1.bmp","sa:saha","Right","39","7","13","9","C2","C","109"
"","","approach-retreat","113","1120855","0.0-113.0","","","1-4","4371","40","0","Training","Stims/Figures/85-C-20-2.bmp","ma:ma:na","Down","38","7","14","9","S","C","110"
"","","approach-retreat","114","1126653","0.0-114.0","","","1-4","4253","37","0","Training","Stims/Figures/102-J-10-4.bmp","na:mana","Right","39","7","15","9","S","C","111"
"","","approach-retreat","115","1133200","0.0-115.0","","","1-4","4988","39","1","Training","Stims/Figures/71-C-30-1.bmp","vafasha","Left","39","7","16","9","C1","C","112"
"","","approach-retreat","116","1151115","0.0-116.0","","","1-4","16362","38","1","Training","Stims/Figures/102-J-10-4.bmp","na:mana","Up","38","8","1","9","S","C","113"
"","","approach-retreat","117","1161730","0.0-117.0","","","1-4","9066","39","1","Training","Stims/Figures/85-J-0-2.bmp","za:sa:ha","Right","39","8","2","9","C2","C","114"
"","","approach-retreat","118","1167430","0.0-118.0","","","1-4","4159","38","0","Training","Stims/Figures/94-J-0-2.bmp","sa:sa:ha","Down","40","8","3","9","C2","C","115"
"","","approach-retreat","119","1176654","0.0-119.0","","","1-4","7668","38","0","Training","Stims/Figures/86-C-30-1.bmp","tapa:ta","Up","40","8","4","9","P","C","116"
"","","approach-retreat","120","1189800","0.0-120.0","","","1-4","11605","37","1","Training","Stims/Figures/71-C-30-1.bmp","vafasha","Right","37","8","5","9","C1","C","117"
"","","approach-retreat","121","1198246","0.0-121.0","","","1-4","6893","39","0","Training","Stims/Figures/100-C-30-3.bmp","vasha:va","Right","37","8","6","9","C1","C","118"
"","","approach-retreat","122","1203442","0.0-122.0","","","1-4","3655","38","1","Training","Stims/Figures/85-C-20-2.bmp","ma:ma:na","Down","38","8","7","9","S","C","119"
"","","approach-retreat","123","1208672","0.0-123.0","","","1-4","3699","37","0","Training","Stims/Figures/44-C-30-3.bmp","ta:kata","Left","39","8","8","9","P","C","120"
"","","approach-retreat","124","1216234","0.0-124.0","","","1-4","6029","39","0","Training","Stims/Figures/44-J-10-3.bmp","zasaza","Left","37","8","9","9","C2","C","121"
"","","approach-retreat","125","1223295","0.0-125.0","","","1-4","5506","37","1","Training","Stims/Figures/100-J-10-3.bmp","zasa:ha","Left","37","8","10","9","C2","C","122"
"","","approach-retreat","126","1230562","0.0-126.0","","","1-4","5717","39","0","Training","Stims/Figures/102-C-20-4.bmp","ta:pa:ka","Right","37","8","11","9","P","C","123"
"","","approach-retreat","127","1238032","0.0-127.0","","","1-4","5929","38","0","Training","Stims/Figures/7-C-20-4.bmp","pakata","Up","40","8","12","9","P","C","124"
"","","approach-retreat","128","1245867","0.0-128.0","","","1-4","6300","38","0","Training","Stims/Figures/86-J-0-1.bmp","sa:saha","Down","40","8","13","9","C2","C","125"
"","","approach-retreat","129","1251501","0.0-129.0","","","1-4","4076","40","1","Training","Stims/Figures/71-J-0-1.bmp","fasha:sha","Down","40","8","14","9","C1","C","126"
"","","approach-retreat","130","1258169","0.0-130.0","","","1-4","5119","37","0","Training","Stims/Figures/94-C-20-2.bmp","zahaha","Left","39","8","15","9","C2","C","127"
"","","approach-retreat","131","1266774","0.0-131.0","","","1-4","7056","38","1","Training","Stims/Figures/7-J-10-4.bmp","pa:kaka","Up","38","8","16","9","P","C","128"
"","","approach-retreat","132","1274487","0.0-132.0","","","1-4","6158","40","1","Training","Stims/Figures/94-C-20-2.bmp","zahaha","Up","40","9","1","9","C2","C","129"
"","","approach-retreat","133","1280717","0.0-133.0","","","1-4","4691","38","1","Training","Stims/Figures/85-C-20-2.bmp","ma:ma:na","Down","38","9","2","9","S","C","130"
"","","approach-retreat","134","1292043","0.0-134.0","","","1-4","9775","37","1","Training","Stims/Figures/85-J-0-2.bmp","za:sa:ha","Left","37","9","3","9","C2","C","131"
"","","approach-retreat","135","1324770","0.0-135.0","","","1-4","31183","40","1","Training","Stims/Figures/7-J-10-4.bmp","pa:kaka","Down","40","9","4","9","P","C","132"
"","","approach-retreat","136","1330455","0.0-136.0","","","1-4","4128","38","0","Training","Stims/Figures/100-J-10-3.bmp","zasa:ha","Down","40","9","5","9","C2","C","133"
"","","approach-retreat","137","1340582","0.0-137.0","","","1-4","8582","37","0","Training","Stims/Figures/71-J-0-1.bmp","fasha:sha","Right","39","9","6","9","C1","C","134"
"","","approach-retreat","138","1353404","0.0-138.0","","","1-4","11292","38","1","Training","Stims/Figures/86-J-0-1.bmp","sa:saha","Up","38","9","7","9","C2","C","135"
"","","approach-retreat","139","1361973","0.0-139.0","","","1-4","7017","40","1","Training","Stims/Figures/86-C-30-1.bmp","tapa:ta","Up","40","9","8","9","P","C","136"
"","","approach-retreat","140","1367770","0.0-140.0","","","1-4","4242","37","0","Training","Stims/Figures/102-J-10-4.bmp","na:mana","Right","39","9","9","9","S","C","137"
"","","approach-retreat","141","1373931","0.0-141.0","","","1-4","4619","39","0","Training","Stims/Figures/94-J-0-2.bmp","sa:sa:ha","Left","37","9","10","9","C2","C","138"
"","","approach-retreat","142","1379911","0.0-142.0","","","1-4","4439","37","0","Training","Stims/Figures/7-C-20-4.bmp","pakata","Left","39","9","11","9","P","C","139"
"","","approach-retreat","143","1385952","0.0-143.0","","","1-4","4495","38","0","Training","Stims/Figures/44-C-30-3.bmp","ta:kata","Up","40","9","12","9","P","C","140"
"","","approach-retreat","144","1391632","0.0-144.0","","","1-4","4132","37","0","Training","Stims/Figures/100-C-30-3.bmp","vasha:va","Left","39","9","13","9","C1","C","141"
"","","approach-retreat","145","1397593","0.0-145.0","","","1-4","4416","37","1","Training","Stims/Figures/102-C-20-4.bmp","ta:pa:ka","Right","37","9","14","9","P","C","142"
"","","approach-retreat","146","1407612","0.0-146.0","","","1-4","8471","39","1","Training","Stims/Figures/44-J-10-3.bmp","zasaza","Right","39","9","15","9","C2","C","143"
"","","approach-retreat","147","1413787","0.0-147.0","","","1-4","4623","40","0","Training","Stims/Figures/71-C-30-1.bmp","vafasha","Down","38","9","16","9","C1","C","144"
"9716","","instructions","148","1423505","0.0-148.0","[{""page_index"":0,""viewing_time"":9715}]","","","","","","","","","","","","","","","",""
"","","approach-retreat","149","1429689","0.0-149.0","","","1-4","4646","37","0","Testing","Stims/Figures/100-J-10-3.bmp","zasa:ha","Right","39","1","1","9","C2","C","1"
"","","approach-retreat","150","1435854","0.0-150.0","","","1-4","4627","40","0","Testing","Stims/Figures/94-J-0-2.bmp","sa:sa:ha","Up","38","1","2","9","C2","C","2"
"","","approach-retreat","151","1442328","0.0-151.0","","","1-4","4937","39","0","Testing","Stims/Figures/74-J-10-4.bmp","zahaza","Left","37","1","3","9","C2","C","3"
"","","approach-retreat","152","1448857","0.0-152.0","","","1-4","4991","38","0","Testing","Stims/Figures/27-C-30-1.bmp","pa:ka:ta","Up","40","1","4","9","P","C","4"
"","","approach-retreat","153","1457026","0.0-153.0","","","1-4","6619","39","1","Testing","Stims/Figures/102-C-20-4.bmp","ta:pa:ka","Left","39","1","5","9","P","C","5"
"","","approach-retreat","154","1466276","0.0-154.0","","","1-4","7717","39","0","Testing","Stims/Figures/118-C-20-2.bmp","mala:la","Right","37","1","6","9","S","C","6"
"","","approach-retreat","155","1472149","0.0-155.0","","","1-4","4330","40","1","Testing","Stims/Figures/71-J-0-1.bmp","fasha:sha","Down","40","1","7","9","C1","C","7"
"","","approach-retreat","156","1480123","0.0-156.0","","","1-4","6435","39","1","Testing","Stims/Figures/100-C-30-3.bmp","vasha:va","Left","39","1","8","9","C1","C","8"
"","","approach-retreat","157","1498234","0.0-157.0","","","1-4","16575","40","0","Testing","Stims/Figures/74-C-20-4.bmp","fa:shasha","Down","38","1","9","9","C1","C","9"
"","","approach-retreat","158","1504671","0.0-158.0","","","1-4","4907","39","1","Testing","Stims/Figures/111-J-10-3.bmp","fa:fava","Right","39","1","10","9","C1","C","10"
"","","approach-retreat","159","1516372","0.0-159.0","","","1-4","10159","38","1","Testing","Stims/Figures/85-J-0-2.bmp","za:sa:ha","Up","38","1","11","9","C2","C","11"
"","","approach-retreat","160","1539444","0.0-160.0","","","1-4","21531","39","1","Testing","Stims/Figures/7-J-10-4.bmp","pa:kaka","Right","39","1","12","9","P","C","12"
"","","approach-retreat","161","1547804","0.0-161.0","","","1-4","6827","39","1","Testing","Stims/Figures/86-C-30-1.bmp","tapa:ta","Left","39","1","13","9","P","C","13"
"","","approach-retreat","162","1558341","0.0-162.0","","","1-4","8992","38","0","Testing","Stims/Figures/118-J-0-2.bmp","na:la:na","Down","40","1","14","9","S","C","14"
"","","approach-retreat","163","1565404","0.0-163.0","","","1-4","5521","40","0","Testing","Stims/Figures/7-C-20-4.bmp","pakata","Down","38","1","15","9","P","C","15"
"","","approach-retreat","164","1575108","0.0-164.0","","","1-4","8169","39","1","Testing","Stims/Figures/86-J-0-1.bmp","sa:saha","Right","39","1","16","9","C2","C","16"
"","","approach-retreat","165","1582183","0.0-165.0","","","1-4","5541","37","1","Testing","Stims/Figures/85-C-20-2.bmp","ma:ma:na","Right","37","1","17","9","S","C","17"
"","","approach-retreat","166","1588610","0.0-166.0","","","1-4","4902","38","1","Testing","Stims/Figures/44-J-10-3.bmp","zasaza","Up","38","1","18","9","C2","C","18"
"","","approach-retreat","167","1597461","0.0-167.0","","","1-4","7289","37","1","Testing","Stims/Figures/102-J-10-4.bmp","na:mana","Left","37","1","19","9","S","C","19"
"","","approach-retreat","168","1604243","0.0-168.0","","","1-4","5254","38","0","Testing","Stims/Figures/71-C-30-1.bmp","vafasha","Up","40","1","20","9","C1","C","20"
"","","approach-retreat","169","1610991","0.0-169.0","","","1-4","5208","40","0","Testing","Stims/Figures/94-C-20-2.bmp","zahaha","Down","38","1","21","9","C2","C","21"
"","","approach-retreat","170","1617866","0.0-170.0","","","1-4","5345","39","1","Testing","Stims/Figures/111-C-30-3.bmp","zasa:za","Left","39","1","22","9","C2","C","22"
"","","approach-retreat","171","1627085","0.0-171.0","","","1-4","7685","40","1","Testing","Stims/Figures/44-C-30-3.bmp","ta:kata","Up","40","1","23","9","P","C","23"
"","","approach-retreat","172","1632886","0.0-172.0","","","1-4","4262","40","1","Testing","Stims/Figures/27-J-0-1.bmp","za:haza","Down","40","1","24","9","C2","C","24"
"","","approach-retreat","173","1638866","0.0-173.0","","","1-4","4449","37","0","Testing","Stims/Figures/118-J-0-2.bmp","na:la:na","Right","39","2","1","9","S","C","25"
"","","approach-retreat","174","1645549","0.0-174.0","","","1-4","5140","39","1","Testing","Stims/Figures/100-C-30-3.bmp","vasha:va","Left","39","2","2","9","C1","C","26"
"","","approach-retreat","175","1652825","0.0-175.0","","","1-4","5746","38","0","Testing","Stims/Figures/102-J-10-4.bmp","na:mana","Down","40","2","3","9","S","C","27"
"","","approach-retreat","176","1659221","0.0-176.0","","","1-4","4861","39","1","Testing","Stims/Figures/44-J-10-3.bmp","zasaza","Right","39","2","4","9","C2","C","28"
"","","approach-retreat","177","1668997","0.0-177.0","","","1-4","8250","39","1","Testing","Stims/Figures/102-C-20-4.bmp","ta:pa:ka","Left","39","2","5","9","P","C","29"
"","","approach-retreat","178","1675493","0.0-178.0","","","1-4","4963","38","0","Testing","Stims/Figures/100-J-10-3.bmp","zasa:ha","Down","40","2","6","9","C2","C","30"
"","","approach-retreat","179","1681385","0.0-179.0","","","1-4","4362","39","1","Testing","Stims/Figures/111-C-30-3.bmp","zasa:za","Left","39","2","7","9","C2","C","31"
"","","approach-retreat","180","1690197","0.0-180.0","","","1-4","7258","40","1","Testing","Stims/Figures/85-C-20-2.bmp","ma:ma:na","Up","40","2","8","9","S","C","32"
"","","approach-retreat","181","1697573","0.0-181.0","","","1-4","5834","40","1","Testing","Stims/Figures/94-C-20-2.bmp","zahaha","Up","40","2","9","9","C2","C","33"
"","","approach-retreat","182","1704170","0.0-182.0","","","1-4","5057","37","0","Testing","Stims/Figures/85-J-0-2.bmp","za:sa:ha","Right","39","2","10","9","C2","C","34"
"","","approach-retreat","183","1711830","0.0-183.0","","","1-4","6111","38","0","Testing","Stims/Figures/71-C-30-1.bmp","vafasha","Up","40","2","11","9","C1","C","35"
"","","approach-retreat","184","1722119","0.0-184.0","","","1-4","8757","38","0","Testing","Stims/Figures/86-C-30-1.bmp","tapa:ta","Up","40","2","12","9","P","C","36"
"","","approach-retreat","185","1728755","0.0-185.0","","","1-4","5081","38","1","Testing","Stims/Figures/7-C-20-4.bmp","pakata","Down","38","2","13","9","P","C","37"
"","","approach-retreat","186","1735790","0.0-186.0","","","1-4","5483","38","0","Testing","Stims/Figures/27-J-0-1.bmp","za:haza","Down","40","2","14","9","C2","C","38"
"","","approach-retreat","187","1744127","0.0-187.0","","","1-4","6791","39","0","Testing","Stims/Figures/27-C-30-1.bmp","pa:ka:ta","Right","37","2","15","9","P","C","39"
"","","approach-retreat","188","1751773","0.0-188.0","","","1-4","6104","39","0","Testing","Stims/Figures/74-J-10-4.bmp","zahaza","Left","37","2","16","9","C2","C","40"
"","","approach-retreat","189","1761406","0.0-189.0","","","1-4","8080","38","1","Testing","Stims/Figures/74-C-20-4.bmp","fa:shasha","Down","38","2","17","9","C1","C","41"
"","","approach-retreat","190","1768400","0.0-190.0","","","1-4","5461","37","0","Testing","Stims/Figures/118-C-20-2.bmp","mala:la","Left","39","2","18","9","S","C","42"
"","","approach-retreat","191","1776266","0.0-191.0","","","1-4","6332","39","0","Testing","Stims/Figures/111-J-10-3.bmp","fa:fava","Left","37","2","19","9","C1","C","43"
"","","approach-retreat","192","1783193","0.0-192.0","","","1-4","5384","38","0","Testing","Stims/Figures/71-J-0-1.bmp","fasha:sha","Down","40","2","20","9","C1","C","44"
"","","approach-retreat","193","1790132","0.0-193.0","","","1-4","5393","39","1","Testing","Stims/Figures/7-J-10-4.bmp","pa:kaka","Right","39","2","21","9","P","C","45"
"","","approach-retreat","194","1796972","0.0-194.0","","","1-4","5302","37","1","Testing","Stims/Figures/44-C-30-3.bmp","ta:kata","Right","37","2","22","9","P","C","46"
"","","approach-retreat","195","1802965","0.0-195.0","","","1-4","4448","38","1","Testing","Stims/Figures/94-J-0-2.bmp","sa:sa:ha","Up","38","2","23","9","C2","C","47"
"","","approach-retreat","196","1810352","0.0-196.0","","","1-4","5856","38","1","Testing","Stims/Figures/86-J-0-1.bmp","sa:saha","Up","38","2","24","9","C2","C","48"
"","","approach-retreat","197","1816138","0.0-197.0","","","1-4","4239","37","0","Testing","Stims/Figures/85-C-20-2.bmp","ma:ma:na","Left","39","3","1","9","S","C","49"
"","","approach-retreat","198","1823747","0.0-198.0","","","1-4","6065","38","0","Testing","Stims/Figures/44-J-10-3.bmp","zasaza","Down","40","3","2","9","C2","C","50"
"","","approach-retreat","199","1830263","0.0-199.0","","","1-4","4983","39","0","Testing","Stims/Figures/74-C-20-4.bmp","fa:shasha","Right","37","3","3","9","C1","C","51"
"","","approach-retreat","200","1840997","0.0-200.0","","","1-4","9194","38","1","Testing","Stims/Figures/86-C-30-1.bmp","tapa:ta","Down","38","3","4","9","P","C","52"
"","","approach-retreat","201","1848846","0.0-201.0","","","1-4","6313","40","0","Testing","Stims/Figures/71-J-0-1.bmp","fasha:sha","Up","38","3","5","9","C1","C","53"
"","","approach-retreat","202","1855394","0.0-202.0","","","1-4","5003","38","1","Testing","Stims/Figures/7-C-20-4.bmp","pakata","Down","38","3","6","9","P","C","54"
"","","approach-retreat","203","1862444","0.0-203.0","","","1-4","5524","38","1","Testing","Stims/Figures/27-J-0-1.bmp","za:haza","Up","38","3","7","9","C2","C","55"
"","","approach-retreat","204","1873040","0.0-204.0","","","1-4","9062","37","0","Testing","Stims/Figures/71-C-30-1.bmp","vafasha","Left","39","3","8","9","C1","C","56"
"","","approach-retreat","205","1879698","0.0-205.0","","","1-4","5100","39","1","Testing","Stims/Figures/100-C-30-3.bmp","vasha:va","Left","39","3","9","9","C1","C","57"
"","","approach-retreat","206","1885780","0.0-206.0","","","1-4","4546","39","0","Testing","Stims/Figures/94-J-0-2.bmp","sa:sa:ha","Left","37","3","10","9","C2","C","58"
"","","approach-retreat","207","1894054","0.0-207.0","","","1-4","6745","37","1","Testing","Stims/Figures/94-C-20-2.bmp","zahaha","Right","37","3","11","9","C2","C","59"
"","","approach-retreat","208","1899657","0.0-208.0","","","1-4","4075","38","1","Testing","Stims/Figures/100-J-10-3.bmp","zasa:ha","Up","38","3","12","9","C2","C","60"
"","","approach-retreat","209","1906755","0.0-209.0","","","1-4","5556","39","0","Testing","Stims/Figures/111-J-10-3.bmp","fa:fava","Left","37","3","13","9","C1","C","61"
"","","approach-retreat","210","1923698","0.0-210.0","","","1-4","15407","38","0","Testing","Stims/Figures/74-J-10-4.bmp","zahaza","Down","40","3","14","9","C2","C","62"
"","","approach-retreat","211","1930092","0.0-211.0","","","1-4","4846","39","1","Testing","Stims/Figures/7-J-10-4.bmp","pa:kaka","Right","39","3","15","9","P","C","63"
"","","approach-retreat","212","1940015","0.0-212.0","","","1-4","8382","38","1","Testing","Stims/Figures/27-C-30-1.bmp","pa:ka:ta","Down","38","3","16","9","P","C","64"
"","","approach-retreat","213","1946042","0.0-213.0","","","1-4","4492","38","0","Testing","Stims/Figures/102-C-20-4.bmp","ta:pa:ka","Up","40","3","17","9","P","C","65"
"","","approach-retreat","214","1956634","0.0-214.0","","","1-4","9068","38","1","Testing","Stims/Figures/102-J-10-4.bmp","na:mana","Up","38","3","18","9","S","C","66"
"","","approach-retreat","215","1962839","0.0-215.0","","","1-4","4665","39","0","Testing","Stims/Figures/44-C-30-3.bmp","ta:kata","Right","37","3","19","9","P","C","67"
"","","approach-retreat","216","1969948","0.0-216.0","","","1-4","5565","40","1","Testing","Stims/Figures/85-J-0-2.bmp","za:sa:ha","Down","40","3","20","9","C2","C","68"
"","","approach-retreat","217","1984212","0.0-217.0","","","1-4","12726","37","1","Testing","Stims/Figures/118-C-20-2.bmp","mala:la","Right","37","3","21","9","S","C","69"
"","","approach-retreat","218","2005049","0.0-218.0","","","1-4","19301","38","0","Testing","Stims/Figures/111-C-30-3.bmp","zasa:za","Up","40","3","22","9","C2","C","70"
"","","approach-retreat","219","2013259","0.0-219.0","","","1-4","6677","39","1","Testing","Stims/Figures/86-J-0-1.bmp","sa:saha","Right","39","3","23","9","C2","C","71"
"","","approach-retreat","220","2020549","0.0-220.0","","","1-4","5762","37","1","Testing","Stims/Figures/118-J-0-2.bmp","na:la:na","Left","37","3","24","9","S","C","72"
"","","approach-retreat","221","2026797","0.0-221.0","","","1-4","4716","37","0","Testing","Stims/Figures/7-C-20-4.bmp","pakata","Left","39","4","1","9","P","C","73"
"","","approach-retreat","222","2033924","0.0-222.0","","","1-4","5589","40","0","Testing","Stims/Figures/86-C-30-1.bmp","tapa:ta","Down","38","4","2","9","P","C","74"
"","","approach-retreat","223","2041365","0.0-223.0","","","1-4","5886","37","1","Testing","Stims/Figures/7-J-10-4.bmp","pa:kaka","Left","37","4","3","9","P","C","75"
"","","approach-retreat","224","2052865","0.0-224.0","","","1-4","9963","40","0","Testing","Stims/Figures/27-J-0-1.bmp","za:haza","Up","38","4","4","9","C2","C","76"
"","","approach-retreat","225","2061427","0.0-225.0","","","1-4","7018","38","1","Testing","Stims/Figures/71-C-30-1.bmp","vafasha","Down","38","4","5","9","C1","C","77"
"","","approach-retreat","226","2068111","0.0-226.0","","","1-4","5146","38","0","Testing","Stims/Figures/27-C-30-1.bmp","pa:ka:ta","Up","40","4","6","9","P","C","78"
"","","approach-retreat","227","2079513","0.0-227.0","","","1-4","9861","39","0","Testing","Stims/Figures/74-C-20-4.bmp","fa:shasha","Right","37","4","7","9","C1","C","79"
"","","approach-retreat","228","2085749","0.0-228.0","","","1-4","4697","38","0","Testing","Stims/Figures/85-C-20-2.bmp","ma:ma:na","Up","40","4","8","9","S","C","80"
"","","approach-retreat","229","2092807","0.0-229.0","","","1-4","5521","39","1","Testing","Stims/Figures/44-J-10-3.bmp","zasaza","Right","39","4","9","9","C2","C","81"
"","","approach-retreat","230","2099598","0.0-230.0","","","1-4","5233","40","0","Testing","Stims/Figures/111-C-30-3.bmp","zasa:za","Down","38","4","10","9","C2","C","82"
"","","approach-retreat","231","2107502","0.0-231.0","","","1-4","6369","38","1","Testing","Stims/Figures/74-J-10-4.bmp","zahaza","Up","38","4","11","9","C2","C","83"
"","","approach-retreat","232","2113301","0.0-232.0","","","1-4","4274","37","1","Testing","Stims/Figures/111-J-10-3.bmp","fa:fava","Left","37","4","12","9","C1","C","84"
"","","approach-retreat","233","2120083","0.0-233.0","","","1-4","5252","40","1","Testing","Stims/Figures/85-J-0-2.bmp","za:sa:ha","Down","40","4","13","9","C2","C","85"
"","","approach-retreat","234","2127749","0.0-234.0","","","1-4","6130","38","1","Testing","Stims/Figures/100-C-30-3.bmp","vasha:va","Down","38","4","14","9","C1","C","86"
"","","approach-retreat","235","2134436","0.0-235.0","","","1-4","5143","39","1","Testing","Stims/Figures/102-J-10-4.bmp","na:mana","Right","39","4","15","9","S","C","87"
"","","approach-retreat","236","2140817","0.0-236.0","","","1-4","4832","38","0","Testing","Stims/Figures/94-C-20-2.bmp","zahaha","Up","40","4","16","9","C2","C","88"
"","","approach-retreat","237","2148196","0.0-237.0","","","1-4","5841","39","0","Testing","Stims/Figures/44-C-30-3.bmp","ta:kata","Right","37","4","17","9","P","C","89"
"","","approach-retreat","238","2154263","0.0-238.0","","","1-4","4523","37","1","Testing","Stims/Figures/100-J-10-3.bmp","zasa:ha","Left","37","4","18","9","C2","C","90"
"","","approach-retreat","239","2160877","0.0-239.0","","","1-4","5073","39","1","Testing","Stims/Figures/102-C-20-4.bmp","ta:pa:ka","Left","39","4","19","9","P","C","91"
"","","approach-retreat","240","2169856","0.0-240.0","","","1-4","7445","40","0","Testing","Stims/Figures/71-J-0-1.bmp","fasha:sha","Up","38","4","20","9","C1","C","92"
"","","approach-retreat","241","2179838","0.0-241.0","","","1-4","8440","39","0","Testing","Stims/Figures/118-C-20-2.bmp","mala:la","Right","37","4","21","9","S","C","93"
"","","approach-retreat","242","2185783","0.0-242.0","","","1-4","4415","39","1","Testing","Stims/Figures/94-J-0-2.bmp","sa:sa:ha","Right","39","4","22","9","C2","C","94"
"","","approach-retreat","243","2192236","0.0-243.0","","","1-4","4918","39","0","Testing","Stims/Figures/86-J-0-1.bmp","sa:saha","Left","37","4","23","9","C2","C","95"
"","","approach-retreat","244","2199306","0.0-244.0","","","1-4","5538","38","0","Testing","Stims/Figures/118-J-0-2.bmp","na:la:na","Down","40","4","24","9","S","C","96"
"22733","","survey-text","245","2222051","0.0-245.0","","{""Q0"":""2018/0115""}","","","","","","","","","","","","","","",""
