\"rt\",\"key_press\",\"trial_type\",\"trial_index\",\"time_elapsed\",\"internal_node_id\",\"view_history\",\"responses\",\"Id\",\"Rt\",\"ResKeyCode\",\"ResCorr\",\"TrialType2\",\"Image\",\"Label\",\"Location\",\"CorrectResponse\",\"Block\",\"BlockTrial\",\"Condition\",\"LabelType\",\"Subcondition\",\"trialNum\"
\"28322\",\"32\",\"text\",\"0\",\"28331\",\"0.0-0.0-0.0\",\"\",\"\",\"\",\"\",\"\",\"\",\"\",\"\",\"\",\"\",\"\",\"\",\"\",\"\",\"\",\"\",\"\"
\"67586\",\"\",\"instructions\",\"1\",\"95924\",\"0.0-1.0\",\"[{\"\"page_index\"\":0,\"\"viewing_time\"\":67583}]\",\"\",\"\",\"\",\"\",\"\",\"\",\"\",\"\",\"\",\"\",\"\",\"\",\"\",\"\",\"\",\"\"
\"22259\",\"\",\"survey-multi-choice\",\"2\",\"118279\",\"0.0-2.0\",\"\",\"{\"\"Q0\"\":\"\"Da\"\",\"\"Q1\"\":\"\"Da\"\",\"\"Q2\"\":\"\"Da\"\",\"\"Q3\"\":\"\"Da\"\",\"\"Q4\"\":\"\"Da\"\",\"\"Q5\"\":\"\"Da\"\"}\",\"\",\"\",\"\",\"\",\"\",\"\",\"\",\"\",\"\",\"\",\"\",\"\",\"\",\"\",\"\"
\"\",\"\",\"bio\",\"3\",\"125627\",\"0.0-3.0\",\"\",\"{\"\"age\"\":\"\"19\"\",\"\"gender\"\":\"\"f\"\",\"\"specify\"\":\"\"\"\"}\",\"\",\"\",\"\",\"\",\"\",\"\",\"\",\"\",\"\",\"\",\"\",\"\",\"\",\"\",\"\"
\"\",\"\",\"approach-retreat\",\"4\",\"135773\",\"0.0-4.0\",\"\",\"\",\"1-3\",\"8628\",\"38\",\"1\",\"Training\",\"Stims/Figures/84-C-20-2.bmp\",\"vafa:va\",\"Down\",\"38\",\"1\",\"1\",\"6B\",\"C1\",\"C\",\"1\"
\"\",\"\",\"approach-retreat\",\"5\",\"142816\",\"0.0-5.0\",\"\",\"\",\"1-3\",\"5493\",\"40\",\"1\",\"Training\",\"Stims/Figures/86-J-0-1.bmp\",\"saha:za\",\"Down\",\"40\",\"1\",\"2\",\"6B\",\"C2\",\"C\",\"2\"
\"\",\"\",\"approach-retreat\",\"6\",\"148393\",\"0.0-6.0\",\"\",\"\",\"1-3\",\"4060\",\"38\",\"1\",\"Training\",\"Stims/Figures/87-C-20-4.bmp\",\"vafasha\",\"Down\",\"38\",\"1\",\"3\",\"6B\",\"C1\",\"C\",\"3\"
\"\",\"\",\"approach-retreat\",\"7\",\"155506\",\"0.0-7.0\",\"\",\"\",\"1-3\",\"5581\",\"39\",\"1\",\"Training\",\"Stims/Figures/57-J-0-1.bmp\",\"zasaza\",\"Right\",\"39\",\"1\",\"4\",\"6B\",\"C2\",\"C\",\"4\"
\"\",\"\",\"approach-retreat\",\"8\",\"162000\",\"0.0-8.0\",\"\",\"\",\"1-3\",\"4963\",\"37\",\"0\",\"Training\",\"Stims/Figures/19-J-10-4.bmp\",\"sasaza\",\"Right\",\"39\",\"1\",\"5\",\"6B\",\"C2\",\"C\",\"5\"
\"\",\"\",\"approach-retreat\",\"9\",\"168474\",\"0.0-9.0\",\"\",\"\",\"1-3\",\"4937\",\"38\",\"1\",\"Training\",\"Stims/Figures/84-J-0-2.bmp\",\"zaha:za\",\"Up\",\"38\",\"1\",\"6\",\"6B\",\"C2\",\"C\",\"6\"
\"\",\"\",\"approach-retreat\",\"10\",\"174659\",\"0.0-10.0\",\"\",\"\",\"1-3\",\"4655\",\"37\",\"0\",\"Training\",\"Stims/Figures/86-C-30-1.bmp\",\"vafa:sha\",\"Left\",\"39\",\"1\",\"7\",\"6B\",\"C1\",\"C\",\"7\"
\"\",\"\",\"approach-retreat\",\"11\",\"180584\",\"0.0-11.0\",\"\",\"\",\"1-3\",\"4391\",\"39\",\"1\",\"Training\",\"Stims/Figures/94-C-20-2.bmp\",\"va:shasha\",\"Left\",\"39\",\"1\",\"8\",\"6B\",\"C1\",\"C\",\"8\"
\"\",\"\",\"approach-retreat\",\"12\",\"187178\",\"0.0-12.0\",\"\",\"\",\"1-3\",\"5069\",\"39\",\"0\",\"Training\",\"Stims/Figures/19-C-20-4.bmp\",\"va:sha:sha\",\"Right\",\"37\",\"1\",\"9\",\"6B\",\"C1\",\"C\",\"9\"
\"\",\"\",\"approach-retreat\",\"13\",\"192760\",\"0.0-13.0\",\"\",\"\",\"1-3\",\"4050\",\"37\",\"1\",\"Training\",\"Stims/Figures/94-J-0-2.bmp\",\"za:saha\",\"Left\",\"37\",\"1\",\"10\",\"6B\",\"C2\",\"C\",\"10\"
\"\",\"\",\"approach-retreat\",\"14\",\"199273\",\"0.0-14.0\",\"\",\"\",\"1-3\",\"4979\",\"38\",\"0\",\"Training\",\"Stims/Figures/111-C-30-3.bmp\",\"fa:sha:sha\",\"Up\",\"40\",\"1\",\"11\",\"6B\",\"C1\",\"C\",\"11\"
\"\",\"\",\"approach-retreat\",\"15\",\"205335\",\"0.0-15.0\",\"\",\"\",\"1-3\",\"4531\",\"38\",\"0\",\"Training\",\"Stims/Figures/57-C-30-1.bmp\",\"fa:fava\",\"Up\",\"40\",\"1\",\"12\",\"6B\",\"C1\",\"C\",\"12\"
\"\",\"\",\"approach-retreat\",\"16\",\"212043\",\"0.0-16.0\",\"\",\"\",\"1-3\",\"5176\",\"40\",\"1\",\"Training\",\"Stims/Figures/111-J-10-3.bmp\",\"za:sa:ha\",\"Down\",\"40\",\"1\",\"13\",\"6B\",\"C2\",\"C\",\"13\"
\"\",\"\",\"approach-retreat\",\"17\",\"218634\",\"0.0-17.0\",\"\",\"\",\"1-3\",\"5057\",\"40\",\"0\",\"Training\",\"Stims/Figures/87-J-10-4.bmp\",\"sahaza\",\"Up\",\"38\",\"1\",\"14\",\"6B\",\"C2\",\"C\",\"14\"
\"\",\"\",\"approach-retreat\",\"18\",\"224864\",\"0.0-18.0\",\"\",\"\",\"1-3\",\"4703\",\"39\",\"0\",\"Training\",\"Stims/Figures/128-C-30-3.bmp\",\"va:fa:va\",\"Right\",\"37\",\"1\",\"15\",\"6B\",\"C1\",\"C\",\"15\"
\"\",\"\",\"approach-retreat\",\"19\",\"230772\",\"0.0-19.0\",\"\",\"\",\"1-3\",\"4372\",\"37\",\"1\",\"Training\",\"Stims/Figures/128-J-10-3.bmp\",\"zasa:za\",\"Left\",\"37\",\"1\",\"16\",\"6B\",\"C2\",\"C\",\"16\"
\"\",\"\",\"approach-retreat\",\"20\",\"236795\",\"0.0-20.0\",\"\",\"\",\"1-3\",\"4489\",\"38\",\"1\",\"Training\",\"Stims/Figures/128-C-30-3.bmp\",\"va:fa:va\",\"Down\",\"38\",\"2\",\"1\",\"6B\",\"C1\",\"C\",\"17\"
\"\",\"\",\"approach-retreat\",\"21\",\"242617\",\"0.0-21.0\",\"\",\"\",\"1-3\",\"4290\",\"38\",\"0\",\"Training\",\"Stims/Figures/94-C-20-2.bmp\",\"va:shasha\",\"Up\",\"40\",\"2\",\"2\",\"6B\",\"C1\",\"C\",\"18\"
\"\",\"\",\"approach-retreat\",\"22\",\"250678\",\"0.0-22.0\",\"\",\"\",\"1-3\",\"6527\",\"38\",\"1\",\"Training\",\"Stims/Figures/86-C-30-1.bmp\",\"vafa:sha\",\"Down\",\"38\",\"2\",\"3\",\"6B\",\"C1\",\"C\",\"19\"
\"\",\"\",\"approach-retreat\",\"23\",\"258561\",\"0.0-23.0\",\"\",\"\",\"1-3\",\"6349\",\"38\",\"1\",\"Training\",\"Stims/Figures/128-J-10-3.bmp\",\"zasa:za\",\"Up\",\"38\",\"2\",\"4\",\"6B\",\"C2\",\"C\",\"20\"
\"\",\"\",\"approach-retreat\",\"24\",\"265565\",\"0.0-24.0\",\"\",\"\",\"1-3\",\"5470\",\"39\",\"1\",\"Training\",\"Stims/Figures/86-J-0-1.bmp\",\"saha:za\",\"Right\",\"39\",\"2\",\"5\",\"6B\",\"C2\",\"C\",\"21\"
\"\",\"\",\"approach-retreat\",\"25\",\"271242\",\"0.0-25.0\",\"\",\"\",\"1-3\",\"4144\",\"39\",\"1\",\"Training\",\"Stims/Figures/19-C-20-4.bmp\",\"va:sha:sha\",\"Left\",\"39\",\"2\",\"6\",\"6B\",\"C1\",\"C\",\"22\"
\"\",\"\",\"approach-retreat\",\"26\",\"277550\",\"0.0-26.0\",\"\",\"\",\"1-3\",\"4774\",\"40\",\"1\",\"Training\",\"Stims/Figures/87-C-20-4.bmp\",\"vafasha\",\"Up\",\"40\",\"2\",\"7\",\"6B\",\"C1\",\"C\",\"23\"
\"\",\"\",\"approach-retreat\",\"27\",\"283528\",\"0.0-27.0\",\"\",\"\",\"1-3\",\"4443\",\"39\",\"0\",\"Training\",\"Stims/Figures/57-J-0-1.bmp\",\"zasaza\",\"Left\",\"37\",\"2\",\"8\",\"6B\",\"C2\",\"C\",\"24\"
\"\",\"\",\"approach-retreat\",\"28\",\"289839\",\"0.0-28.0\",\"\",\"\",\"1-3\",\"4778\",\"39\",\"1\",\"Training\",\"Stims/Figures/84-J-0-2.bmp\",\"zaha:za\",\"Right\",\"39\",\"2\",\"9\",\"6B\",\"C2\",\"C\",\"25\"
\"\",\"\",\"approach-retreat\",\"29\",\"295794\",\"0.0-29.0\",\"\",\"\",\"1-3\",\"4421\",\"38\",\"0\",\"Training\",\"Stims/Figures/111-J-10-3.bmp\",\"za:sa:ha\",\"Down\",\"40\",\"2\",\"10\",\"6B\",\"C2\",\"C\",\"26\"
\"\",\"\",\"approach-retreat\",\"30\",\"301429\",\"0.0-30.0\",\"\",\"\",\"1-3\",\"4116\",\"37\",\"1\",\"Training\",\"Stims/Figures/84-C-20-2.bmp\",\"vafa:va\",\"Right\",\"37\",\"2\",\"11\",\"6B\",\"C1\",\"C\",\"27\"
\"\",\"\",\"approach-retreat\",\"31\",\"308279\",\"0.0-31.0\",\"\",\"\",\"1-3\",\"5318\",\"39\",\"0\",\"Training\",\"Stims/Figures/19-J-10-4.bmp\",\"sasaza\",\"Left\",\"37\",\"2\",\"12\",\"6B\",\"C2\",\"C\",\"28\"
\"\",\"\",\"approach-retreat\",\"32\",\"313987\",\"0.0-32.0\",\"\",\"\",\"1-3\",\"4175\",\"40\",\"1\",\"Training\",\"Stims/Figures/111-C-30-3.bmp\",\"fa:sha:sha\",\"Up\",\"40\",\"2\",\"13\",\"6B\",\"C1\",\"C\",\"29\"
\"\",\"\",\"approach-retreat\",\"33\",\"319889\",\"0.0-33.0\",\"\",\"\",\"1-3\",\"4366\",\"38\",\"0\",\"Training\",\"Stims/Figures/87-J-10-4.bmp\",\"sahaza\",\"Down\",\"40\",\"2\",\"14\",\"6B\",\"C2\",\"C\",\"30\"
\"\",\"\",\"approach-retreat\",\"34\",\"326249\",\"0.0-34.0\",\"\",\"\",\"1-3\",\"4825\",\"39\",\"1\",\"Training\",\"Stims/Figures/94-J-0-2.bmp\",\"za:saha\",\"Right\",\"39\",\"2\",\"15\",\"6B\",\"C2\",\"C\",\"31\"
\"\",\"\",\"approach-retreat\",\"35\",\"332088\",\"0.0-35.0\",\"\",\"\",\"1-3\",\"4306\",\"39\",\"1\",\"Training\",\"Stims/Figures/57-C-30-1.bmp\",\"fa:fava\",\"Left\",\"39\",\"2\",\"16\",\"6B\",\"C1\",\"C\",\"32\"
\"\",\"\",\"approach-retreat\",\"36\",\"339025\",\"0.0-36.0\",\"\",\"\",\"1-3\",\"5412\",\"39\",\"1\",\"Training\",\"Stims/Figures/94-J-0-2.bmp\",\"za:saha\",\"Right\",\"39\",\"3\",\"1\",\"6B\",\"C2\",\"C\",\"33\"
\"\",\"\",\"approach-retreat\",\"37\",\"344970\",\"0.0-37.0\",\"\",\"\",\"1-3\",\"4410\",\"40\",\"1\",\"Training\",\"Stims/Figures/57-C-30-1.bmp\",\"fa:fava\",\"Up\",\"40\",\"3\",\"2\",\"6B\",\"C1\",\"C\",\"34\"
\"\",\"\",\"approach-retreat\",\"38\",\"352125\",\"0.0-38.0\",\"\",\"\",\"1-3\",\"5619\",\"39\",\"0\",\"Training\",\"Stims/Figures/19-J-10-4.bmp\",\"sasaza\",\"Left\",\"37\",\"3\",\"3\",\"6B\",\"C2\",\"C\",\"35\"
\"\",\"\",\"approach-retreat\",\"39\",\"359033\",\"0.0-39.0\",\"\",\"\",\"1-3\",\"5375\",\"40\",\"1\",\"Training\",\"Stims/Figures/128-J-10-3.bmp\",\"zasa:za\",\"Down\",\"40\",\"3\",\"4\",\"6B\",\"C2\",\"C\",\"36\"
\"\",\"\",\"approach-retreat\",\"40\",\"367321\",\"0.0-40.0\",\"\",\"\",\"1-3\",\"6754\",\"40\",\"1\",\"Training\",\"Stims/Figures/86-C-30-1.bmp\",\"vafa:sha\",\"Up\",\"40\",\"3\",\"5\",\"6B\",\"C1\",\"C\",\"37\"
\"\",\"\",\"approach-retreat\",\"41\",\"373971\",\"0.0-41.0\",\"\",\"\",\"1-3\",\"5116\",\"39\",\"1\",\"Training\",\"Stims/Figures/128-C-30-3.bmp\",\"va:fa:va\",\"Left\",\"39\",\"3\",\"6\",\"6B\",\"C1\",\"C\",\"38\"
\"\",\"\",\"approach-retreat\",\"42\",\"379663\",\"0.0-42.0\",\"\",\"\",\"1-3\",\"4168\",\"39\",\"1\",\"Training\",\"Stims/Figures/94-C-20-2.bmp\",\"va:shasha\",\"Left\",\"39\",\"3\",\"7\",\"6B\",\"C1\",\"C\",\"39\"
\"\",\"\",\"approach-retreat\",\"43\",\"385702\",\"0.0-43.0\",\"\",\"\",\"1-3\",\"4510\",\"40\",\"1\",\"Training\",\"Stims/Figures/87-J-10-4.bmp\",\"sahaza\",\"Down\",\"40\",\"3\",\"8\",\"6B\",\"C2\",\"C\",\"40\"
\"\",\"\",\"approach-retreat\",\"44\",\"391783\",\"0.0-44.0\",\"\",\"\",\"1-3\",\"4553\",\"40\",\"1\",\"Training\",\"Stims/Figures/86-J-0-1.bmp\",\"saha:za\",\"Down\",\"40\",\"3\",\"9\",\"6B\",\"C2\",\"C\",\"41\"
\"\",\"\",\"approach-retreat\",\"45\",\"398807\",\"0.0-45.0\",\"\",\"\",\"1-3\",\"5490\",\"40\",\"1\",\"Training\",\"Stims/Figures/111-C-30-3.bmp\",\"fa:sha:sha\",\"Up\",\"40\",\"3\",\"10\",\"6B\",\"C1\",\"C\",\"42\"
\"\",\"\",\"approach-retreat\",\"46\",\"404802\",\"0.0-46.0\",\"\",\"\",\"1-3\",\"4483\",\"37\",\"1\",\"Training\",\"Stims/Figures/87-C-20-4.bmp\",\"vafasha\",\"Right\",\"37\",\"3\",\"11\",\"6B\",\"C1\",\"C\",\"43\"
\"\",\"\",\"approach-retreat\",\"47\",\"411808\",\"0.0-47.0\",\"\",\"\",\"1-3\",\"5472\",\"37\",\"1\",\"Training\",\"Stims/Figures/84-J-0-2.bmp\",\"zaha:za\",\"Left\",\"37\",\"3\",\"12\",\"6B\",\"C2\",\"C\",\"44\"
\"\",\"\",\"approach-retreat\",\"48\",\"420139\",\"0.0-48.0\",\"\",\"\",\"1-3\",\"6799\",\"39\",\"1\",\"Training\",\"Stims/Figures/111-J-10-3.bmp\",\"za:sa:ha\",\"Right\",\"39\",\"3\",\"13\",\"6B\",\"C2\",\"C\",\"45\"
\"\",\"\",\"approach-retreat\",\"49\",\"427489\",\"0.0-49.0\",\"\",\"\",\"1-3\",\"5818\",\"38\",\"1\",\"Training\",\"Stims/Figures/19-C-20-4.bmp\",\"va:sha:sha\",\"Down\",\"38\",\"3\",\"14\",\"6B\",\"C1\",\"C\",\"46\"
\"\",\"\",\"approach-retreat\",\"50\",\"433244\",\"0.0-50.0\",\"\",\"\",\"1-3\",\"4238\",\"37\",\"1\",\"Training\",\"Stims/Figures/84-C-20-2.bmp\",\"vafa:va\",\"Right\",\"37\",\"3\",\"15\",\"6B\",\"C1\",\"C\",\"47\"
\"\",\"\",\"approach-retreat\",\"51\",\"438905\",\"0.0-51.0\",\"\",\"\",\"1-3\",\"4135\",\"38\",\"1\",\"Training\",\"Stims/Figures/57-J-0-1.bmp\",\"zasaza\",\"Up\",\"38\",\"3\",\"16\",\"6B\",\"C2\",\"C\",\"48\"
\"\",\"\",\"approach-retreat\",\"52\",\"446235\",\"0.0-52.0\",\"\",\"\",\"1-3\",\"5797\",\"40\",\"1\",\"Training\",\"Stims/Figures/86-C-30-1.bmp\",\"vafa:sha\",\"Up\",\"40\",\"4\",\"1\",\"6B\",\"C1\",\"C\",\"49\"
\"\",\"\",\"approach-retreat\",\"53\",\"454319\",\"0.0-53.0\",\"\",\"\",\"1-3\",\"6557\",\"40\",\"0\",\"Training\",\"Stims/Figures/84-C-20-2.bmp\",\"vafa:va\",\"Down\",\"38\",\"4\",\"2\",\"6B\",\"C1\",\"C\",\"50\"
\"\",\"\",\"approach-retreat\",\"54\",\"460167\",\"0.0-54.0\",\"\",\"\",\"1-3\",\"4313\",\"40\",\"1\",\"Training\",\"Stims/Figures/111-J-10-3.bmp\",\"za:sa:ha\",\"Down\",\"40\",\"4\",\"3\",\"6B\",\"C2\",\"C\",\"51\"
\"\",\"\",\"approach-retreat\",\"55\",\"467214\",\"0.0-55.0\",\"\",\"\",\"1-3\",\"5524\",\"38\",\"1\",\"Training\",\"Stims/Figures/128-C-30-3.bmp\",\"va:fa:va\",\"Down\",\"38\",\"4\",\"4\",\"6B\",\"C1\",\"C\",\"52\"
\"\",\"\",\"approach-retreat\",\"56\",\"473701\",\"0.0-56.0\",\"\",\"\",\"1-3\",\"4955\",\"39\",\"1\",\"Training\",\"Stims/Figures/94-J-0-2.bmp\",\"za:saha\",\"Right\",\"39\",\"4\",\"5\",\"6B\",\"C2\",\"C\",\"53\"
\"\",\"\",\"approach-retreat\",\"57\",\"480840\",\"0.0-57.0\",\"\",\"\",\"1-3\",\"5614\",\"37\",\"1\",\"Training\",\"Stims/Figures/111-C-30-3.bmp\",\"fa:sha:sha\",\"Right\",\"37\",\"4\",\"6\",\"6B\",\"C1\",\"C\",\"54\"
\"\",\"\",\"approach-retreat\",\"58\",\"486785\",\"0.0-58.0\",\"\",\"\",\"1-3\",\"4411\",\"37\",\"1\",\"Training\",\"Stims/Figures/57-J-0-1.bmp\",\"zasaza\",\"Left\",\"37\",\"4\",\"7\",\"6B\",\"C2\",\"C\",\"55\"
\"\",\"\",\"approach-retreat\",\"59\",\"492542\",\"0.0-59.0\",\"\",\"\",\"1-3\",\"4226\",\"39\",\"0\",\"Training\",\"Stims/Figures/87-J-10-4.bmp\",\"sahaza\",\"Left\",\"37\",\"4\",\"8\",\"6B\",\"C2\",\"C\",\"56\"
\"\",\"\",\"approach-retreat\",\"60\",\"498414\",\"0.0-60.0\",\"\",\"\",\"1-3\",\"4357\",\"40\",\"0\",\"Training\",\"Stims/Figures/57-C-30-1.bmp\",\"fa:fava\",\"Down\",\"38\",\"4\",\"9\",\"6B\",\"C1\",\"C\",\"57\"
\"\",\"\",\"approach-retreat\",\"61\",\"504361\",\"0.0-61.0\",\"\",\"\",\"1-3\",\"4412\",\"39\",\"0\",\"Training\",\"Stims/Figures/19-C-20-4.bmp\",\"va:sha:sha\",\"Right\",\"37\",\"4\",\"10\",\"6B\",\"C1\",\"C\",\"58\"
\"\",\"\",\"approach-retreat\",\"62\",\"511167\",\"0.0-62.0\",\"\",\"\",\"1-3\",\"5270\",\"38\",\"1\",\"Training\",\"Stims/Figures/128-J-10-3.bmp\",\"zasa:za\",\"Up\",\"38\",\"4\",\"11\",\"6B\",\"C2\",\"C\",\"59\"
\"\",\"\",\"approach-retreat\",\"63\",\"517397\",\"0.0-63.0\",\"\",\"\",\"1-3\",\"4698\",\"39\",\"1\",\"Training\",\"Stims/Figures/94-C-20-2.bmp\",\"va:shasha\",\"Left\",\"39\",\"4\",\"12\",\"6B\",\"C1\",\"C\",\"60\"
\"\",\"\",\"approach-retreat\",\"64\",\"523815\",\"0.0-64.0\",\"\",\"\",\"1-3\",\"4886\",\"39\",\"1\",\"Training\",\"Stims/Figures/19-J-10-4.bmp\",\"sasaza\",\"Right\",\"39\",\"4\",\"13\",\"6B\",\"C2\",\"C\",\"61\"
\"\",\"\",\"approach-retreat\",\"65\",\"529643\",\"0.0-65.0\",\"\",\"\",\"1-3\",\"4294\",\"40\",\"1\",\"Training\",\"Stims/Figures/87-C-20-4.bmp\",\"vafasha\",\"Up\",\"40\",\"4\",\"14\",\"6B\",\"C1\",\"C\",\"62\"
\"\",\"\",\"approach-retreat\",\"66\",\"535841\",\"0.0-66.0\",\"\",\"\",\"1-3\",\"4665\",\"39\",\"0\",\"Training\",\"Stims/Figures/84-J-0-2.bmp\",\"zaha:za\",\"Left\",\"37\",\"4\",\"15\",\"6B\",\"C2\",\"C\",\"63\"
\"\",\"\",\"approach-retreat\",\"67\",\"542982\",\"0.0-67.0\",\"\",\"\",\"1-3\",\"5614\",\"38\",\"1\",\"Training\",\"Stims/Figures/86-J-0-1.bmp\",\"saha:za\",\"Up\",\"38\",\"4\",\"16\",\"6B\",\"C2\",\"C\",\"64\"
\"\",\"\",\"approach-retreat\",\"68\",\"549135\",\"0.0-68.0\",\"\",\"\",\"1-3\",\"4627\",\"40\",\"1\",\"Training\",\"Stims/Figures/87-C-20-4.bmp\",\"vafasha\",\"Up\",\"40\",\"5\",\"1\",\"6B\",\"C1\",\"C\",\"65\"
\"\",\"\",\"approach-retreat\",\"69\",\"555130\",\"0.0-69.0\",\"\",\"\",\"1-3\",\"4461\",\"39\",\"1\",\"Training\",\"Stims/Figures/84-C-20-2.bmp\",\"vafa:va\",\"Left\",\"39\",\"5\",\"2\",\"6B\",\"C1\",\"C\",\"66\"
\"\",\"\",\"approach-retreat\",\"70\",\"560764\",\"0.0-70.0\",\"\",\"\",\"1-3\",\"4105\",\"37\",\"1\",\"Training\",\"Stims/Figures/94-C-20-2.bmp\",\"va:shasha\",\"Right\",\"37\",\"5\",\"3\",\"6B\",\"C1\",\"C\",\"67\"
\"\",\"\",\"approach-retreat\",\"71\",\"566368\",\"0.0-71.0\",\"\",\"\",\"1-3\",\"4071\",\"39\",\"1\",\"Training\",\"Stims/Figures/19-C-20-4.bmp\",\"va:sha:sha\",\"Left\",\"39\",\"5\",\"4\",\"6B\",\"C1\",\"C\",\"68\"
\"\",\"\",\"approach-retreat\",\"72\",\"573866\",\"0.0-72.0\",\"\",\"\",\"1-3\",\"5966\",\"39\",\"0\",\"Training\",\"Stims/Figures/87-J-10-4.bmp\",\"sahaza\",\"Left\",\"37\",\"5\",\"5\",\"6B\",\"C2\",\"C\",\"69\"
\"\",\"\",\"approach-retreat\",\"73\",\"579458\",\"0.0-73.0\",\"\",\"\",\"1-3\",\"4058\",\"40\",\"1\",\"Training\",\"Stims/Figures/57-C-30-1.bmp\",\"fa:fava\",\"Up\",\"40\",\"5\",\"6\",\"6B\",\"C1\",\"C\",\"70\"
\"\",\"\",\"approach-retreat\",\"74\",\"585558\",\"0.0-74.0\",\"\",\"\",\"1-3\",\"4567\",\"40\",\"1\",\"Training\",\"Stims/Figures/84-J-0-2.bmp\",\"zaha:za\",\"Down\",\"40\",\"5\",\"7\",\"6B\",\"C2\",\"C\",\"71\"
\"\",\"\",\"approach-retreat\",\"75\",\"593095\",\"0.0-75.0\",\"\",\"\",\"1-3\",\"6004\",\"40\",\"1\",\"Training\",\"Stims/Figures/128-C-30-3.bmp\",\"va:fa:va\",\"Up\",\"40\",\"5\",\"8\",\"6B\",\"C1\",\"C\",\"72\"
\"\",\"\",\"approach-retreat\",\"76\",\"599203\",\"0.0-76.0\",\"\",\"\",\"1-3\",\"4595\",\"37\",\"0\",\"Training\",\"Stims/Figures/19-J-10-4.bmp\",\"sasaza\",\"Right\",\"39\",\"5\",\"9\",\"6B\",\"C2\",\"C\",\"73\"
\"\",\"\",\"approach-retreat\",\"77\",\"605165\",\"0.0-77.0\",\"\",\"\",\"1-3\",\"4430\",\"38\",\"1\",\"Training\",\"Stims/Figures/86-J-0-1.bmp\",\"saha:za\",\"Up\",\"38\",\"5\",\"10\",\"6B\",\"C2\",\"C\",\"74\"
\"\",\"\",\"approach-retreat\",\"78\",\"610897\",\"0.0-78.0\",\"\",\"\",\"1-3\",\"4200\",\"38\",\"1\",\"Training\",\"Stims/Figures/86-C-30-1.bmp\",\"vafa:sha\",\"Down\",\"38\",\"5\",\"11\",\"6B\",\"C1\",\"C\",\"75\"
\"\",\"\",\"approach-retreat\",\"79\",\"617525\",\"0.0-79.0\",\"\",\"\",\"1-3\",\"5094\",\"39\",\"1\",\"Training\",\"Stims/Figures/111-C-30-3.bmp\",\"fa:sha:sha\",\"Left\",\"39\",\"5\",\"12\",\"6B\",\"C1\",\"C\",\"76\"
\"\",\"\",\"approach-retreat\",\"80\",\"623606\",\"0.0-80.0\",\"\",\"\",\"1-3\",\"4549\",\"39\",\"1\",\"Training\",\"Stims/Figures/57-J-0-1.bmp\",\"zasaza\",\"Right\",\"39\",\"5\",\"13\",\"6B\",\"C2\",\"C\",\"77\"
\"\",\"\",\"approach-retreat\",\"81\",\"630072\",\"0.0-81.0\",\"\",\"\",\"1-3\",\"4931\",\"40\",\"1\",\"Training\",\"Stims/Figures/94-J-0-2.bmp\",\"za:saha\",\"Down\",\"40\",\"5\",\"14\",\"6B\",\"C2\",\"C\",\"78\"
\"\",\"\",\"approach-retreat\",\"82\",\"636611\",\"0.0-82.0\",\"\",\"\",\"1-3\",\"5009\",\"39\",\"1\",\"Training\",\"Stims/Figures/111-J-10-3.bmp\",\"za:sa:ha\",\"Right\",\"39\",\"5\",\"15\",\"6B\",\"C2\",\"C\",\"79\"
\"\",\"\",\"approach-retreat\",\"83\",\"642335\",\"0.0-83.0\",\"\",\"\",\"1-3\",\"4190\",\"40\",\"1\",\"Training\",\"Stims/Figures/128-J-10-3.bmp\",\"zasa:za\",\"Down\",\"40\",\"5\",\"16\",\"6B\",\"C2\",\"C\",\"80\"
\"\",\"\",\"approach-retreat\",\"84\",\"648011\",\"0.0-84.0\",\"\",\"\",\"1-3\",\"4143\",\"38\",\"1\",\"Training\",\"Stims/Figures/19-C-20-4.bmp\",\"va:sha:sha\",\"Down\",\"38\",\"6\",\"1\",\"6B\",\"C1\",\"C\",\"81\"
\"\",\"\",\"approach-retreat\",\"85\",\"655332\",\"0.0-85.0\",\"\",\"\",\"1-3\",\"5789\",\"37\",\"1\",\"Training\",\"Stims/Figures/19-J-10-4.bmp\",\"sasaza\",\"Left\",\"37\",\"6\",\"2\",\"6B\",\"C2\",\"C\",\"82\"
\"\",\"\",\"approach-retreat\",\"86\",\"661254\",\"0.0-86.0\",\"\",\"\",\"1-3\",\"4389\",\"40\",\"1\",\"Training\",\"Stims/Figures/111-J-10-3.bmp\",\"za:sa:ha\",\"Down\",\"40\",\"6\",\"3\",\"6B\",\"C2\",\"C\",\"83\"
\"\",\"\",\"approach-retreat\",\"87\",\"667060\",\"0.0-87.0\",\"\",\"\",\"1-3\",\"4272\",\"38\",\"0\",\"Training\",\"Stims/Figures/94-C-20-2.bmp\",\"va:shasha\",\"Up\",\"40\",\"6\",\"4\",\"6B\",\"C1\",\"C\",\"84\"
\"\",\"\",\"approach-retreat\",\"88\",\"673299\",\"0.0-88.0\",\"\",\"\",\"1-3\",\"4707\",\"40\",\"1\",\"Training\",\"Stims/Figures/57-J-0-1.bmp\",\"zasaza\",\"Down\",\"40\",\"6\",\"5\",\"6B\",\"C2\",\"C\",\"85\"
\"\",\"\",\"approach-retreat\",\"89\",\"680174\",\"0.0-89.0\",\"\",\"\",\"1-3\",\"5349\",\"38\",\"1\",\"Training\",\"Stims/Figures/87-J-10-4.bmp\",\"sahaza\",\"Up\",\"38\",\"6\",\"6\",\"6B\",\"C2\",\"C\",\"86\"
\"\",\"\",\"approach-retreat\",\"90\",\"685828\",\"0.0-90.0\",\"\",\"\",\"1-3\",\"4139\",\"37\",\"1\",\"Training\",\"Stims/Figures/111-C-30-3.bmp\",\"fa:sha:sha\",\"Right\",\"37\",\"6\",\"7\",\"6B\",\"C1\",\"C\",\"87\"
\"\",\"\",\"approach-retreat\",\"91\",\"691465\",\"0.0-91.0\",\"\",\"\",\"1-3\",\"4102\",\"40\",\"1\",\"Training\",\"Stims/Figures/57-C-30-1.bmp\",\"fa:fava\",\"Up\",\"40\",\"6\",\"8\",\"6B\",\"C1\",\"C\",\"88\"
\"\",\"\",\"approach-retreat\",\"92\",\"697177\",\"0.0-92.0\",\"\",\"\",\"1-3\",\"4177\",\"37\",\"1\",\"Training\",\"Stims/Figures/94-J-0-2.bmp\",\"za:saha\",\"Left\",\"37\",\"6\",\"9\",\"6B\",\"C2\",\"C\",\"89\"
\"\",\"\",\"approach-retreat\",\"93\",\"702897\",\"0.0-93.0\",\"\",\"\",\"1-3\",\"4190\",\"37\",\"1\",\"Training\",\"Stims/Figures/87-C-20-4.bmp\",\"vafasha\",\"Right\",\"37\",\"6\",\"10\",\"6B\",\"C1\",\"C\",\"90\"
\"\",\"\",\"approach-retreat\",\"94\",\"709171\",\"0.0-94.0\",\"\",\"\",\"1-3\",\"4739\",\"37\",\"1\",\"Training\",\"Stims/Figures/128-C-30-3.bmp\",\"va:fa:va\",\"Right\",\"37\",\"6\",\"11\",\"6B\",\"C1\",\"C\",\"91\"
\"\",\"\",\"approach-retreat\",\"95\",\"714797\",\"0.0-95.0\",\"\",\"\",\"1-3\",\"4094\",\"39\",\"1\",\"Training\",\"Stims/Figures/84-J-0-2.bmp\",\"zaha:za\",\"Right\",\"39\",\"6\",\"12\",\"6B\",\"C2\",\"C\",\"92\"
\"\",\"\",\"approach-retreat\",\"96\",\"720394\",\"0.0-96.0\",\"\",\"\",\"1-3\",\"4062\",\"38\",\"1\",\"Training\",\"Stims/Figures/86-J-0-1.bmp\",\"saha:za\",\"Up\",\"38\",\"6\",\"13\",\"6B\",\"C2\",\"C\",\"93\"
\"\",\"\",\"approach-retreat\",\"97\",\"726029\",\"0.0-97.0\",\"\",\"\",\"1-3\",\"4101\",\"37\",\"1\",\"Training\",\"Stims/Figures/128-J-10-3.bmp\",\"zasa:za\",\"Left\",\"37\",\"6\",\"14\",\"6B\",\"C2\",\"C\",\"94\"
\"\",\"\",\"approach-retreat\",\"98\",\"731642\",\"0.0-98.0\",\"\",\"\",\"1-3\",\"4098\",\"38\",\"1\",\"Training\",\"Stims/Figures/86-C-30-1.bmp\",\"vafa:sha\",\"Down\",\"38\",\"6\",\"15\",\"6B\",\"C1\",\"C\",\"95\"
\"\",\"\",\"approach-retreat\",\"99\",\"737670\",\"0.0-99.0\",\"\",\"\",\"1-3\",\"4497\",\"37\",\"0\",\"Training\",\"Stims/Figures/84-C-20-2.bmp\",\"vafa:va\",\"Left\",\"39\",\"6\",\"16\",\"6B\",\"C1\",\"C\",\"96\"
\"\",\"\",\"approach-retreat\",\"100\",\"743766\",\"0.0-100.0\",\"\",\"\",\"1-3\",\"4563\",\"38\",\"1\",\"Training\",\"Stims/Figures/19-J-10-4.bmp\",\"sasaza\",\"Up\",\"38\",\"7\",\"1\",\"6B\",\"C2\",\"C\",\"97\"
\"\",\"\",\"approach-retreat\",\"101\",\"749855\",\"0.0-101.0\",\"\",\"\",\"1-3\",\"4557\",\"40\",\"1\",\"Training\",\"Stims/Figures/111-J-10-3.bmp\",\"za:sa:ha\",\"Down\",\"40\",\"7\",\"2\",\"6B\",\"C2\",\"C\",\"98\"
\"\",\"\",\"approach-retreat\",\"102\",\"755950\",\"0.0-102.0\",\"\",\"\",\"1-3\",\"4564\",\"38\",\"1\",\"Training\",\"Stims/Figures/87-C-20-4.bmp\",\"vafasha\",\"Down\",\"38\",\"7\",\"3\",\"6B\",\"C1\",\"C\",\"99\"
\"\",\"\",\"approach-retreat\",\"103\",\"761716\",\"0.0-103.0\",\"\",\"\",\"1-3\",\"4234\",\"38\",\"1\",\"Training\",\"Stims/Figures/84-J-0-2.bmp\",\"zaha:za\",\"Up\",\"38\",\"7\",\"4\",\"6B\",\"C2\",\"C\",\"100\"
\"\",\"\",\"approach-retreat\",\"104\",\"767813\",\"0.0-104.0\",\"\",\"\",\"1-3\",\"4570\",\"39\",\"1\",\"Training\",\"Stims/Figures/128-C-30-3.bmp\",\"va:fa:va\",\"Left\",\"39\",\"7\",\"5\",\"6B\",\"C1\",\"C\",\"101\"
\"\",\"\",\"approach-retreat\",\"105\",\"773558\",\"0.0-105.0\",\"\",\"\",\"1-3\",\"4213\",\"38\",\"1\",\"Training\",\"Stims/Figures/57-C-30-1.bmp\",\"fa:fava\",\"Down\",\"38\",\"7\",\"6\",\"6B\",\"C1\",\"C\",\"102\"
\"\",\"\",\"approach-retreat\",\"106\",\"779996\",\"0.0-106.0\",\"\",\"\",\"1-3\",\"4906\",\"37\",\"1\",\"Training\",\"Stims/Figures/84-C-20-2.bmp\",\"vafa:va\",\"Right\",\"37\",\"7\",\"7\",\"6B\",\"C1\",\"C\",\"103\"
\"\",\"\",\"approach-retreat\",\"107\",\"786372\",\"0.0-107.0\",\"\",\"\",\"1-3\",\"4842\",\"39\",\"1\",\"Training\",\"Stims/Figures/111-C-30-3.bmp\",\"fa:sha:sha\",\"Left\",\"39\",\"7\",\"8\",\"6B\",\"C1\",\"C\",\"104\"
\"\",\"\",\"approach-retreat\",\"108\",\"793146\",\"0.0-108.0\",\"\",\"\",\"1-3\",\"5247\",\"37\",\"1\",\"Training\",\"Stims/Figures/19-C-20-4.bmp\",\"va:sha:sha\",\"Right\",\"37\",\"7\",\"9\",\"6B\",\"C1\",\"C\",\"105\"
\"\",\"\",\"approach-retreat\",\"109\",\"798946\",\"0.0-109.0\",\"\",\"\",\"1-3\",\"4266\",\"40\",\"1\",\"Training\",\"Stims/Figures/87-J-10-4.bmp\",\"sahaza\",\"Down\",\"40\",\"7\",\"10\",\"6B\",\"C2\",\"C\",\"106\"
\"\",\"\",\"approach-retreat\",\"110\",\"804851\",\"0.0-110.0\",\"\",\"\",\"1-3\",\"4372\",\"37\",\"1\",\"Training\",\"Stims/Figures/94-C-20-2.bmp\",\"va:shasha\",\"Right\",\"37\",\"7\",\"11\",\"6B\",\"C1\",\"C\",\"107\"
\"\",\"\",\"approach-retreat\",\"111\",\"810690\",\"0.0-111.0\",\"\",\"\",\"1-3\",\"4313\",\"40\",\"1\",\"Training\",\"Stims/Figures/86-C-30-1.bmp\",\"vafa:sha\",\"Up\",\"40\",\"7\",\"12\",\"6B\",\"C1\",\"C\",\"108\"
\"\",\"\",\"approach-retreat\",\"112\",\"816417\",\"0.0-112.0\",\"\",\"\",\"1-3\",\"4193\",\"37\",\"1\",\"Training\",\"Stims/Figures/86-J-0-1.bmp\",\"saha:za\",\"Left\",\"37\",\"7\",\"13\",\"6B\",\"C2\",\"C\",\"109\"
\"\",\"\",\"approach-retreat\",\"113\",\"822431\",\"0.0-113.0\",\"\",\"\",\"1-3\",\"4478\",\"37\",\"1\",\"Training\",\"Stims/Figures/94-J-0-2.bmp\",\"za:saha\",\"Left\",\"37\",\"7\",\"14\",\"6B\",\"C2\",\"C\",\"110\"
\"\",\"\",\"approach-retreat\",\"114\",\"828044\",\"0.0-114.0\",\"\",\"\",\"1-3\",\"4086\",\"38\",\"1\",\"Training\",\"Stims/Figures/128-J-10-3.bmp\",\"zasa:za\",\"Up\",\"38\",\"7\",\"15\",\"6B\",\"C2\",\"C\",\"111\"
\"\",\"\",\"approach-retreat\",\"115\",\"833693\",\"0.0-115.0\",\"\",\"\",\"1-3\",\"4122\",\"39\",\"1\",\"Training\",\"Stims/Figures/57-J-0-1.bmp\",\"zasaza\",\"Right\",\"39\",\"7\",\"16\",\"6B\",\"C2\",\"C\",\"112\"
\"\",\"\",\"approach-retreat\",\"116\",\"839850\",\"0.0-116.0\",\"\",\"\",\"1-3\",\"4623\",\"37\",\"1\",\"Training\",\"Stims/Figures/94-C-20-2.bmp\",\"va:shasha\",\"Right\",\"37\",\"8\",\"1\",\"6B\",\"C1\",\"C\",\"113\"
\"\",\"\",\"approach-retreat\",\"117\",\"845882\",\"0.0-117.0\",\"\",\"\",\"1-3\",\"4499\",\"37\",\"1\",\"Training\",\"Stims/Figures/86-C-30-1.bmp\",\"vafa:sha\",\"Right\",\"37\",\"8\",\"2\",\"6B\",\"C1\",\"C\",\"114\"
\"\",\"\",\"approach-retreat\",\"118\",\"851505\",\"0.0-118.0\",\"\",\"\",\"1-3\",\"4082\",\"38\",\"1\",\"Training\",\"Stims/Figures/86-J-0-1.bmp\",\"saha:za\",\"Up\",\"38\",\"8\",\"3\",\"6B\",\"C2\",\"C\",\"115\"
\"\",\"\",\"approach-retreat\",\"119\",\"857049\",\"0.0-119.0\",\"\",\"\",\"1-3\",\"4011\",\"37\",\"1\",\"Training\",\"Stims/Figures/19-J-10-4.bmp\",\"sasaza\",\"Left\",\"37\",\"8\",\"4\",\"6B\",\"C2\",\"C\",\"116\"
\"\",\"\",\"approach-retreat\",\"120\",\"862917\",\"0.0-120.0\",\"\",\"\",\"1-3\",\"4336\",\"40\",\"0\",\"Training\",\"Stims/Figures/19-C-20-4.bmp\",\"va:sha:sha\",\"Down\",\"38\",\"8\",\"5\",\"6B\",\"C1\",\"C\",\"117\"
\"\",\"\",\"approach-retreat\",\"121\",\"868635\",\"0.0-121.0\",\"\",\"\",\"1-3\",\"4185\",\"37\",\"0\",\"Training\",\"Stims/Figures/87-C-20-4.bmp\",\"vafasha\",\"Left\",\"39\",\"8\",\"6\",\"6B\",\"C1\",\"C\",\"118\"
\"\",\"\",\"approach-retreat\",\"122\",\"874244\",\"0.0-122.0\",\"\",\"\",\"1-3\",\"4073\",\"39\",\"1\",\"Training\",\"Stims/Figures/128-J-10-3.bmp\",\"zasa:za\",\"Right\",\"39\",\"8\",\"7\",\"6B\",\"C2\",\"C\",\"119\"
\"\",\"\",\"approach-retreat\",\"123\",\"879994\",\"0.0-123.0\",\"\",\"\",\"1-3\",\"4216\",\"37\",\"1\",\"Training\",\"Stims/Figures/128-C-30-3.bmp\",\"va:fa:va\",\"Right\",\"37\",\"8\",\"8\",\"6B\",\"C1\",\"C\",\"120\"
\"\",\"\",\"approach-retreat\",\"124\",\"885538\",\"0.0-124.0\",\"\",\"\",\"1-3\",\"4008\",\"37\",\"1\",\"Training\",\"Stims/Figures/87-J-10-4.bmp\",\"sahaza\",\"Left\",\"37\",\"8\",\"9\",\"6B\",\"C2\",\"C\",\"121\"
\"\",\"\",\"approach-retreat\",\"125\",\"891385\",\"0.0-125.0\",\"\",\"\",\"1-3\",\"4312\",\"40\",\"1\",\"Training\",\"Stims/Figures/57-J-0-1.bmp\",\"zasaza\",\"Down\",\"40\",\"8\",\"10\",\"6B\",\"C2\",\"C\",\"122\"
\"\",\"\",\"approach-retreat\",\"126\",\"897709\",\"0.0-126.0\",\"\",\"\",\"1-3\",\"4792\",\"40\",\"1\",\"Training\",\"Stims/Figures/111-J-10-3.bmp\",\"za:sa:ha\",\"Down\",\"40\",\"8\",\"11\",\"6B\",\"C2\",\"C\",\"123\"
\"\",\"\",\"approach-retreat\",\"127\",\"903867\",\"0.0-127.0\",\"\",\"\",\"1-3\",\"4648\",\"37\",\"1\",\"Training\",\"Stims/Figures/84-J-0-2.bmp\",\"zaha:za\",\"Left\",\"37\",\"8\",\"12\",\"6B\",\"C2\",\"C\",\"124\"
\"\",\"\",\"approach-retreat\",\"128\",\"909549\",\"0.0-128.0\",\"\",\"\",\"1-3\",\"4150\",\"40\",\"1\",\"Training\",\"Stims/Figures/111-C-30-3.bmp\",\"fa:sha:sha\",\"Up\",\"40\",\"8\",\"13\",\"6B\",\"C1\",\"C\",\"125\"
\"\",\"\",\"approach-retreat\",\"129\",\"915134\",\"0.0-129.0\",\"\",\"\",\"1-3\",\"4054\",\"38\",\"1\",\"Training\",\"Stims/Figures/57-C-30-1.bmp\",\"fa:fava\",\"Down\",\"38\",\"8\",\"14\",\"6B\",\"C1\",\"C\",\"126\"
\"\",\"\",\"approach-retreat\",\"130\",\"921393\",\"0.0-130.0\",\"\",\"\",\"1-3\",\"4726\",\"38\",\"1\",\"Training\",\"Stims/Figures/94-J-0-2.bmp\",\"za:saha\",\"Up\",\"38\",\"8\",\"15\",\"6B\",\"C2\",\"C\",\"127\"
\"\",\"\",\"approach-retreat\",\"131\",\"927372\",\"0.0-131.0\",\"\",\"\",\"1-3\",\"4444\",\"40\",\"1\",\"Training\",\"Stims/Figures/84-C-20-2.bmp\",\"vafa:va\",\"Up\",\"40\",\"8\",\"16\",\"6B\",\"C1\",\"C\",\"128\"
\"\",\"\",\"approach-retreat\",\"132\",\"933189\",\"0.0-132.0\",\"\",\"\",\"1-3\",\"4284\",\"39\",\"1\",\"Training\",\"Stims/Figures/87-J-10-4.bmp\",\"sahaza\",\"Right\",\"39\",\"9\",\"1\",\"6B\",\"C2\",\"C\",\"129\"
\"\",\"\",\"approach-retreat\",\"133\",\"938745\",\"0.0-133.0\",\"\",\"\",\"1-3\",\"4029\",\"37\",\"1\",\"Training\",\"Stims/Figures/84-C-20-2.bmp\",\"vafa:va\",\"Right\",\"37\",\"9\",\"2\",\"6B\",\"C1\",\"C\",\"130\"
\"\",\"\",\"approach-retreat\",\"134\",\"944505\",\"0.0-134.0\",\"\",\"\",\"1-3\",\"4230\",\"37\",\"0\",\"Training\",\"Stims/Figures/111-C-30-3.bmp\",\"fa:sha:sha\",\"Left\",\"39\",\"9\",\"3\",\"6B\",\"C1\",\"C\",\"131\"
\"\",\"\",\"approach-retreat\",\"135\",\"950280\",\"0.0-135.0\",\"\",\"\",\"1-3\",\"4242\",\"40\",\"1\",\"Training\",\"Stims/Figures/128-J-10-3.bmp\",\"zasa:za\",\"Down\",\"40\",\"9\",\"4\",\"6B\",\"C2\",\"C\",\"132\"
\"\",\"\",\"approach-retreat\",\"136\",\"955874\",\"0.0-136.0\",\"\",\"\",\"1-3\",\"4063\",\"38\",\"1\",\"Training\",\"Stims/Figures/111-J-10-3.bmp\",\"za:sa:ha\",\"Up\",\"38\",\"9\",\"5\",\"6B\",\"C2\",\"C\",\"133\"
\"\",\"\",\"approach-retreat\",\"137\",\"961544\",\"0.0-137.0\",\"\",\"\",\"1-3\",\"4138\",\"37\",\"1\",\"Training\",\"Stims/Figures/86-J-0-1.bmp\",\"saha:za\",\"Left\",\"37\",\"9\",\"6\",\"6B\",\"C2\",\"C\",\"134\"
\"\",\"\",\"approach-retreat\",\"138\",\"967945\",\"0.0-138.0\",\"\",\"\",\"1-3\",\"4869\",\"40\",\"1\",\"Training\",\"Stims/Figures/57-C-30-1.bmp\",\"fa:fava\",\"Up\",\"40\",\"9\",\"7\",\"6B\",\"C1\",\"C\",\"135\"
\"\",\"\",\"approach-retreat\",\"139\",\"973487\",\"0.0-139.0\",\"\",\"\",\"1-3\",\"4010\",\"38\",\"1\",\"Training\",\"Stims/Figures/94-J-0-2.bmp\",\"za:saha\",\"Up\",\"38\",\"9\",\"8\",\"6B\",\"C2\",\"C\",\"136\"
\"\",\"\",\"approach-retreat\",\"140\",\"979344\",\"0.0-140.0\",\"\",\"\",\"1-3\",\"4326\",\"40\",\"1\",\"Training\",\"Stims/Figures/57-J-0-1.bmp\",\"zasaza\",\"Down\",\"40\",\"9\",\"9\",\"6B\",\"C2\",\"C\",\"137\"
\"\",\"\",\"approach-retreat\",\"141\",\"984921\",\"0.0-141.0\",\"\",\"\",\"1-3\",\"4045\",\"39\",\"1\",\"Training\",\"Stims/Figures/86-C-30-1.bmp\",\"vafa:sha\",\"Left\",\"39\",\"9\",\"10\",\"6B\",\"C1\",\"C\",\"138\"
\"\",\"\",\"approach-retreat\",\"142\",\"991058\",\"0.0-142.0\",\"\",\"\",\"1-3\",\"4603\",\"38\",\"1\",\"Training\",\"Stims/Figures/84-J-0-2.bmp\",\"zaha:za\",\"Up\",\"38\",\"9\",\"11\",\"6B\",\"C2\",\"C\",\"139\"
\"\",\"\",\"approach-retreat\",\"143\",\"997310\",\"0.0-143.0\",\"\",\"\",\"1-3\",\"4719\",\"38\",\"1\",\"Training\",\"Stims/Figures/87-C-20-4.bmp\",\"vafasha\",\"Down\",\"38\",\"9\",\"12\",\"6B\",\"C1\",\"C\",\"140\"
\"\",\"\",\"approach-retreat\",\"144\",\"1002885\",\"0.0-144.0\",\"\",\"\",\"1-3\",\"4046\",\"37\",\"1\",\"Training\",\"Stims/Figures/94-C-20-2.bmp\",\"va:shasha\",\"Right\",\"37\",\"9\",\"13\",\"6B\",\"C1\",\"C\",\"141\"
\"\",\"\",\"approach-retreat\",\"145\",\"1008710\",\"0.0-145.0\",\"\",\"\",\"1-3\",\"4291\",\"40\",\"1\",\"Training\",\"Stims/Figures/19-J-10-4.bmp\",\"sasaza\",\"Down\",\"40\",\"9\",\"14\",\"6B\",\"C2\",\"C\",\"142\"
\"\",\"\",\"approach-retreat\",\"146\",\"1014273\",\"0.0-146.0\",\"\",\"\",\"1-3\",\"4026\",\"39\",\"1\",\"Training\",\"Stims/Figures/128-C-30-3.bmp\",\"va:fa:va\",\"Left\",\"39\",\"9\",\"15\",\"6B\",\"C1\",\"C\",\"143\"
\"\",\"\",\"approach-retreat\",\"147\",\"1019950\",\"0.0-147.0\",\"\",\"\",\"1-3\",\"4149\",\"37\",\"1\",\"Training\",\"Stims/Figures/19-C-20-4.bmp\",\"va:sha:sha\",\"Right\",\"37\",\"9\",\"16\",\"6B\",\"C1\",\"C\",\"144\"
\"12221\",\"\",\"instructions\",\"148\",\"1032172\",\"0.0-148.0\",\"[{\"\"page_index\"\":0,\"\"viewing_time\"\":12219}]\",\"\",\"\",\"\",\"\",\"\",\"\",\"\",\"\",\"\",\"\",\"\",\"\",\"\",\"\",\"\",\"\"
\"\",\"\",\"approach-retreat\",\"149\",\"1038563\",\"0.0-149.0\",\"\",\"\",\"1-3\",\"4869\",\"38\",\"1\",\"Testing\",\"Stims/Figures/85-J-0-2.bmp\",\"sa:saha\",\"Up\",\"38\",\"1\",\"1\",\"6B\",\"C2\",\"C\",\"1\"
\"\",\"\",\"approach-retreat\",\"150\",\"1044432\",\"0.0-150.0\",\"\",\"\",\"1-3\",\"4342\",\"40\",\"1\",\"Testing\",\"Stims/Figures/128-J-10-3.bmp\",\"zasa:za\",\"Down\",\"40\",\"1\",\"2\",\"6B\",\"C2\",\"C\",\"2\"
\"\",\"\",\"approach-retreat\",\"151\",\"1050000\",\"0.0-151.0\",\"\",\"\",\"1-3\",\"4043\",\"37\",\"1\",\"Testing\",\"Stims/Figures/19-C-20-4.bmp\",\"va:sha:sha\",\"Right\",\"37\",\"1\",\"3\",\"6B\",\"C1\",\"C\",\"3\"
\"\",\"\",\"approach-retreat\",\"152\",\"1055644\",\"0.0-152.0\",\"\",\"\",\"1-3\",\"4119\",\"40\",\"1\",\"Testing\",\"Stims/Figures/111-J-10-3.bmp\",\"za:sa:ha\",\"Down\",\"40\",\"1\",\"4\",\"6B\",\"C2\",\"C\",\"4\"
\"\",\"\",\"approach-retreat\",\"153\",\"1061446\",\"0.0-153.0\",\"\",\"\",\"1-3\",\"4275\",\"39\",\"1\",\"Testing\",\"Stims/Figures/71-C-30-1.bmp\",\"vashasha\",\"Left\",\"39\",\"1\",\"5\",\"6B\",\"C1\",\"C\",\"5\"
\"\",\"\",\"approach-retreat\",\"154\",\"1067499\",\"0.0-154.0\",\"\",\"\",\"1-3\",\"4528\",\"38\",\"1\",\"Testing\",\"Stims/Figures/44-J-10-3.bmp\",\"sa:haha\",\"Up\",\"38\",\"1\",\"6\",\"6B\",\"C2\",\"C\",\"6\"
\"\",\"\",\"approach-retreat\",\"155\",\"1073231\",\"0.0-155.0\",\"\",\"\",\"1-3\",\"4205\",\"39\",\"1\",\"Testing\",\"Stims/Figures/86-J-0-1.bmp\",\"saha:za\",\"Right\",\"39\",\"1\",\"7\",\"6B\",\"C2\",\"C\",\"7\"
\"\",\"\",\"approach-retreat\",\"156\",\"1078888\",\"0.0-156.0\",\"\",\"\",\"1-3\",\"4132\",\"38\",\"1\",\"Testing\",\"Stims/Figures/57-C-30-1.bmp\",\"fa:fava\",\"Down\",\"38\",\"1\",\"8\",\"6B\",\"C1\",\"C\",\"8\"
\"\",\"\",\"approach-retreat\",\"157\",\"1085025\",\"0.0-157.0\",\"\",\"\",\"1-3\",\"4610\",\"40\",\"1\",\"Testing\",\"Stims/Figures/19-J-10-4.bmp\",\"sasaza\",\"Down\",\"40\",\"1\",\"9\",\"6B\",\"C2\",\"C\",\"9\"
\"\",\"\",\"approach-retreat\",\"158\",\"1090719\",\"0.0-158.0\",\"\",\"\",\"1-3\",\"4169\",\"40\",\"1\",\"Testing\",\"Stims/Figures/86-C-30-1.bmp\",\"vafa:sha\",\"Up\",\"40\",\"1\",\"10\",\"6B\",\"C1\",\"C\",\"10\"
\"\",\"\",\"approach-retreat\",\"159\",\"1096710\",\"0.0-159.0\",\"\",\"\",\"1-3\",\"4465\",\"40\",\"0\",\"Testing\",\"Stims/Figures/85-C-20-2.bmp\",\"vasha:sha\",\"Down\",\"38\",\"1\",\"11\",\"6B\",\"C1\",\"C\",\"11\"
\"\",\"\",\"approach-retreat\",\"160\",\"1103143\",\"0.0-160.0\",\"\",\"\",\"1-3\",\"4908\",\"37\",\"1\",\"Testing\",\"Stims/Figures/71-J-0-1.bmp\",\"za:sa:za\",\"Left\",\"37\",\"1\",\"12\",\"6B\",\"C2\",\"C\",\"12\"
\"\",\"\",\"approach-retreat\",\"161\",\"1108728\",\"0.0-161.0\",\"\",\"\",\"1-3\",\"4057\",\"39\",\"0\",\"Testing\",\"Stims/Figures/44-C-30-3.bmp\",\"va:shava\",\"Right\",\"37\",\"1\",\"13\",\"6B\",\"C1\",\"C\",\"13\"
\"\",\"\",\"approach-retreat\",\"162\",\"1114281\",\"0.0-162.0\",\"\",\"\",\"1-3\",\"4027\",\"38\",\"1\",\"Testing\",\"Stims/Figures/111-C-30-3.bmp\",\"fa:sha:sha\",\"Down\",\"38\",\"1\",\"14\",\"6B\",\"C1\",\"C\",\"14\"
\"\",\"\",\"approach-retreat\",\"163\",\"1120106\",\"0.0-163.0\",\"\",\"\",\"1-3\",\"4299\",\"37\",\"1\",\"Testing\",\"Stims/Figures/57-J-0-1.bmp\",\"zasaza\",\"Left\",\"37\",\"1\",\"15\",\"6B\",\"C2\",\"C\",\"15\"
\"\",\"\",\"approach-retreat\",\"164\",\"1126645\",\"0.0-164.0\",\"\",\"\",\"1-3\",\"5013\",\"37\",\"1\",\"Testing\",\"Stims/Figures/128-C-30-3.bmp\",\"va:fa:va\",\"Right\",\"37\",\"1\",\"16\",\"6B\",\"C1\",\"C\",\"16\"
\"\",\"\",\"approach-retreat\",\"165\",\"1132448\",\"0.0-165.0\",\"\",\"\",\"1-3\",\"4268\",\"40\",\"1\",\"Testing\",\"Stims/Figures/84-C-20-2.bmp\",\"vafa:va\",\"Up\",\"40\",\"1\",\"17\",\"6B\",\"C1\",\"C\",\"17\"
\"\",\"\",\"approach-retreat\",\"166\",\"1139517\",\"0.0-166.0\",\"\",\"\",\"1-3\",\"5542\",\"40\",\"0\",\"Testing\",\"Stims/Figures/102-J-10-4.bmp\",\"zasa:ha\",\"Up\",\"38\",\"1\",\"18\",\"6B\",\"C2\",\"C\",\"18\"
\"\",\"\",\"approach-retreat\",\"167\",\"1145225\",\"0.0-167.0\",\"\",\"\",\"1-3\",\"4163\",\"39\",\"1\",\"Testing\",\"Stims/Figures/87-J-10-4.bmp\",\"sahaza\",\"Right\",\"39\",\"1\",\"19\",\"6B\",\"C2\",\"C\",\"19\"
\"\",\"\",\"approach-retreat\",\"168\",\"1151230\",\"0.0-168.0\",\"\",\"\",\"1-3\",\"4480\",\"39\",\"1\",\"Testing\",\"Stims/Figures/87-C-20-4.bmp\",\"vafasha\",\"Left\",\"39\",\"1\",\"20\",\"6B\",\"C1\",\"C\",\"20\"
\"\",\"\",\"approach-retreat\",\"169\",\"1156788\",\"0.0-169.0\",\"\",\"\",\"1-3\",\"4033\",\"39\",\"1\",\"Testing\",\"Stims/Figures/94-C-20-2.bmp\",\"va:shasha\",\"Left\",\"39\",\"1\",\"21\",\"6B\",\"C1\",\"C\",\"21\"
\"\",\"\",\"approach-retreat\",\"170\",\"1162557\",\"0.0-170.0\",\"\",\"\",\"1-3\",\"4246\",\"39\",\"1\",\"Testing\",\"Stims/Figures/94-J-0-2.bmp\",\"za:saha\",\"Right\",\"39\",\"1\",\"22\",\"6B\",\"C2\",\"C\",\"22\"
\"\",\"\",\"approach-retreat\",\"171\",\"1168347\",\"0.0-171.0\",\"\",\"\",\"1-3\",\"4265\",\"38\",\"1\",\"Testing\",\"Stims/Figures/84-J-0-2.bmp\",\"zaha:za\",\"Up\",\"38\",\"1\",\"23\",\"6B\",\"C2\",\"C\",\"23\"
\"\",\"\",\"approach-retreat\",\"172\",\"1174042\",\"0.0-172.0\",\"\",\"\",\"1-3\",\"4171\",\"39\",\"1\",\"Testing\",\"Stims/Figures/102-C-20-4.bmp\",\"vashava\",\"Left\",\"39\",\"1\",\"24\",\"6B\",\"C1\",\"C\",\"24\"
\"\",\"\",\"approach-retreat\",\"173\",\"1179595\",\"0.0-173.0\",\"\",\"\",\"1-3\",\"4027\",\"39\",\"1\",\"Testing\",\"Stims/Figures/84-J-0-2.bmp\",\"zaha:za\",\"Right\",\"39\",\"2\",\"1\",\"6B\",\"C2\",\"C\",\"25\"
\"\",\"\",\"approach-retreat\",\"174\",\"1185098\",\"0.0-174.0\",\"\",\"\",\"1-3\",\"3978\",\"39\",\"1\",\"Testing\",\"Stims/Figures/87-J-10-4.bmp\",\"sahaza\",\"Right\",\"39\",\"2\",\"2\",\"6B\",\"C2\",\"C\",\"26\"
\"\",\"\",\"approach-retreat\",\"175\",\"1190769\",\"0.0-175.0\",\"\",\"\",\"1-3\",\"4146\",\"40\",\"1\",\"Testing\",\"Stims/Figures/71-J-0-1.bmp\",\"za:sa:za\",\"Down\",\"40\",\"2\",\"3\",\"6B\",\"C2\",\"C\",\"27\"
\"\",\"\",\"approach-retreat\",\"176\",\"1196837\",\"0.0-176.0\",\"\",\"\",\"1-3\",\"4543\",\"38\",\"0\",\"Testing\",\"Stims/Figures/44-C-30-3.bmp\",\"va:shava\",\"Up\",\"40\",\"2\",\"4\",\"6B\",\"C1\",\"C\",\"28\"
\"\",\"\",\"approach-retreat\",\"177\",\"1203634\",\"0.0-177.0\",\"\",\"\",\"1-3\",\"5288\",\"38\",\"0\",\"Testing\",\"Stims/Figures/57-C-30-1.bmp\",\"fa:fava\",\"Up\",\"40\",\"2\",\"5\",\"6B\",\"C1\",\"C\",\"29\"
\"\",\"\",\"approach-retreat\",\"178\",\"1209496\",\"0.0-178.0\",\"\",\"\",\"1-3\",\"4338\",\"38\",\"1\",\"Testing\",\"Stims/Figures/44-J-10-3.bmp\",\"sa:haha\",\"Up\",\"38\",\"2\",\"6\",\"6B\",\"C2\",\"C\",\"30\"
\"\",\"\",\"approach-retreat\",\"179\",\"1215309\",\"0.0-179.0\",\"\",\"\",\"1-3\",\"4288\",\"39\",\"0\",\"Testing\",\"Stims/Figures/128-J-10-3.bmp\",\"zasa:za\",\"Left\",\"37\",\"2\",\"7\",\"6B\",\"C2\",\"C\",\"31\"
\"\",\"\",\"approach-retreat\",\"180\",\"1220934\",\"0.0-180.0\",\"\",\"\",\"1-3\",\"4099\",\"37\",\"1\",\"Testing\",\"Stims/Figures/19-C-20-4.bmp\",\"va:sha:sha\",\"Right\",\"37\",\"2\",\"8\",\"6B\",\"C1\",\"C\",\"32\"
\"\",\"\",\"approach-retreat\",\"181\",\"1226485\",\"0.0-181.0\",\"\",\"\",\"1-3\",\"4012\",\"38\",\"1\",\"Testing\",\"Stims/Figures/71-C-30-1.bmp\",\"vashasha\",\"Down\",\"38\",\"2\",\"9\",\"6B\",\"C1\",\"C\",\"33\"
\"\",\"\",\"approach-retreat\",\"182\",\"1232122\",\"0.0-182.0\",\"\",\"\",\"1-3\",\"4116\",\"37\",\"1\",\"Testing\",\"Stims/Figures/111-J-10-3.bmp\",\"za:sa:ha\",\"Left\",\"37\",\"2\",\"10\",\"6B\",\"C2\",\"C\",\"34\"
\"\",\"\",\"approach-retreat\",\"183\",\"1237685\",\"0.0-183.0\",\"\",\"\",\"1-3\",\"4038\",\"38\",\"1\",\"Testing\",\"Stims/Figures/86-C-30-1.bmp\",\"vafa:sha\",\"Down\",\"38\",\"2\",\"11\",\"6B\",\"C1\",\"C\",\"35\"
\"\",\"\",\"approach-retreat\",\"184\",\"1243273\",\"0.0-184.0\",\"\",\"\",\"1-3\",\"4060\",\"38\",\"1\",\"Testing\",\"Stims/Figures/87-C-20-4.bmp\",\"vafasha\",\"Down\",\"38\",\"2\",\"12\",\"6B\",\"C1\",\"C\",\"36\"
\"\",\"\",\"approach-retreat\",\"185\",\"1249141\",\"0.0-185.0\",\"\",\"\",\"1-3\",\"4343\",\"40\",\"0\",\"Testing\",\"Stims/Figures/102-J-10-4.bmp\",\"zasa:ha\",\"Up\",\"38\",\"2\",\"13\",\"6B\",\"C2\",\"C\",\"37\"
\"\",\"\",\"approach-retreat\",\"186\",\"1254898\",\"0.0-186.0\",\"\",\"\",\"1-3\",\"4231\",\"37\",\"1\",\"Testing\",\"Stims/Figures/84-C-20-2.bmp\",\"vafa:va\",\"Right\",\"37\",\"2\",\"14\",\"6B\",\"C1\",\"C\",\"38\"
\"\",\"\",\"approach-retreat\",\"187\",\"1260446\",\"0.0-187.0\",\"\",\"\",\"1-3\",\"4023\",\"38\",\"1\",\"Testing\",\"Stims/Figures/94-J-0-2.bmp\",\"za:saha\",\"Up\",\"38\",\"2\",\"15\",\"6B\",\"C2\",\"C\",\"39\"
\"\",\"\",\"approach-retreat\",\"188\",\"1266056\",\"0.0-188.0\",\"\",\"\",\"1-3\",\"4084\",\"37\",\"1\",\"Testing\",\"Stims/Figures/94-C-20-2.bmp\",\"va:shasha\",\"Right\",\"37\",\"2\",\"16\",\"6B\",\"C1\",\"C\",\"40\"
\"\",\"\",\"approach-retreat\",\"189\",\"1271697\",\"0.0-189.0\",\"\",\"\",\"1-3\",\"4116\",\"37\",\"0\",\"Testing\",\"Stims/Figures/85-C-20-2.bmp\",\"vasha:sha\",\"Left\",\"39\",\"2\",\"17\",\"6B\",\"C1\",\"C\",\"41\"
\"\",\"\",\"approach-retreat\",\"190\",\"1277797\",\"0.0-190.0\",\"\",\"\",\"1-3\",\"4575\",\"38\",\"1\",\"Testing\",\"Stims/Figures/111-C-30-3.bmp\",\"fa:sha:sha\",\"Down\",\"38\",\"2\",\"18\",\"6B\",\"C1\",\"C\",\"42\"
\"\",\"\",\"approach-retreat\",\"191\",\"1283571\",\"0.0-191.0\",\"\",\"\",\"1-3\",\"4247\",\"40\",\"1\",\"Testing\",\"Stims/Figures/57-J-0-1.bmp\",\"zasaza\",\"Down\",\"40\",\"2\",\"19\",\"6B\",\"C2\",\"C\",\"43\"
\"\",\"\",\"approach-retreat\",\"192\",\"1289240\",\"0.0-192.0\",\"\",\"\",\"1-3\",\"4142\",\"37\",\"1\",\"Testing\",\"Stims/Figures/86-J-0-1.bmp\",\"saha:za\",\"Left\",\"37\",\"2\",\"20\",\"6B\",\"C2\",\"C\",\"44\"
\"\",\"\",\"approach-retreat\",\"193\",\"1295859\",\"0.0-193.0\",\"\",\"\",\"1-3\",\"5094\",\"40\",\"1\",\"Testing\",\"Stims/Figures/102-C-20-4.bmp\",\"vashava\",\"Up\",\"40\",\"2\",\"21\",\"6B\",\"C1\",\"C\",\"45\"
\"\",\"\",\"approach-retreat\",\"194\",\"1301484\",\"0.0-194.0\",\"\",\"\",\"1-3\",\"4101\",\"37\",\"1\",\"Testing\",\"Stims/Figures/85-J-0-2.bmp\",\"sa:saha\",\"Left\",\"37\",\"2\",\"22\",\"6B\",\"C2\",\"C\",\"46\"
\"\",\"\",\"approach-retreat\",\"195\",\"1307714\",\"0.0-195.0\",\"\",\"\",\"1-3\",\"4705\",\"37\",\"1\",\"Testing\",\"Stims/Figures/128-C-30-3.bmp\",\"va:fa:va\",\"Right\",\"37\",\"2\",\"23\",\"6B\",\"C1\",\"C\",\"47\"
\"\",\"\",\"approach-retreat\",\"196\",\"1313263\",\"0.0-196.0\",\"\",\"\",\"1-3\",\"4023\",\"39\",\"0\",\"Testing\",\"Stims/Figures/19-J-10-4.bmp\",\"sasaza\",\"Left\",\"37\",\"2\",\"24\",\"6B\",\"C2\",\"C\",\"48\"
\"\",\"\",\"approach-retreat\",\"197\",\"1319393\",\"0.0-197.0\",\"\",\"\",\"1-3\",\"4605\",\"38\",\"1\",\"Testing\",\"Stims/Figures/128-C-30-3.bmp\",\"va:fa:va\",\"Down\",\"38\",\"3\",\"1\",\"6B\",\"C1\",\"C\",\"49\"
\"\",\"\",\"approach-retreat\",\"198\",\"1325079\",\"0.0-198.0\",\"\",\"\",\"1-3\",\"4163\",\"37\",\"1\",\"Testing\",\"Stims/Figures/128-J-10-3.bmp\",\"zasa:za\",\"Left\",\"37\",\"3\",\"2\",\"6B\",\"C2\",\"C\",\"50\"
\"\",\"\",\"approach-retreat\",\"199\",\"1330665\",\"0.0-199.0\",\"\",\"\",\"1-3\",\"4061\",\"39\",\"1\",\"Testing\",\"Stims/Figures/87-C-20-4.bmp\",\"vafasha\",\"Left\",\"39\",\"3\",\"3\",\"6B\",\"C1\",\"C\",\"51\"
\"\",\"\",\"approach-retreat\",\"200\",\"1336192\",\"0.0-200.0\",\"\",\"\",\"1-3\",\"4001\",\"37\",\"1\",\"Testing\",\"Stims/Figures/19-C-20-4.bmp\",\"va:sha:sha\",\"Right\",\"37\",\"3\",\"4\",\"6B\",\"C1\",\"C\",\"52\"
\"\",\"\",\"approach-retreat\",\"201\",\"1342265\",\"0.0-201.0\",\"\",\"\",\"1-3\",\"4548\",\"40\",\"0\",\"Testing\",\"Stims/Figures/44-C-30-3.bmp\",\"va:shava\",\"Down\",\"38\",\"3\",\"5\",\"6B\",\"C1\",\"C\",\"53\"
\"\",\"\",\"approach-retreat\",\"202\",\"1347914\",\"0.0-202.0\",\"\",\"\",\"1-3\",\"4123\",\"40\",\"1\",\"Testing\",\"Stims/Figures/19-J-10-4.bmp\",\"sasaza\",\"Down\",\"40\",\"3\",\"6\",\"6B\",\"C2\",\"C\",\"54\"
\"\",\"\",\"approach-retreat\",\"203\",\"1353537\",\"0.0-203.0\",\"\",\"\",\"1-3\",\"4096\",\"39\",\"1\",\"Testing\",\"Stims/Figures/85-J-0-2.bmp\",\"sa:saha\",\"Right\",\"39\",\"3\",\"7\",\"6B\",\"C2\",\"C\",\"55\"
\"\",\"\",\"approach-retreat\",\"204\",\"1359278\",\"0.0-204.0\",\"\",\"\",\"1-3\",\"4213\",\"38\",\"0\",\"Testing\",\"Stims/Figures/85-C-20-2.bmp\",\"vasha:sha\",\"Up\",\"40\",\"3\",\"8\",\"6B\",\"C1\",\"C\",\"56\"
\"\",\"\",\"approach-retreat\",\"205\",\"1364924\",\"0.0-205.0\",\"\",\"\",\"1-3\",\"4122\",\"40\",\"1\",\"Testing\",\"Stims/Figures/57-C-30-1.bmp\",\"fa:fava\",\"Up\",\"40\",\"3\",\"9\",\"6B\",\"C1\",\"C\",\"57\"
\"\",\"\",\"approach-retreat\",\"206\",\"1370797\",\"0.0-206.0\",\"\",\"\",\"1-3\",\"4347\",\"37\",\"1\",\"Testing\",\"Stims/Figures/94-J-0-2.bmp\",\"za:saha\",\"Left\",\"37\",\"3\",\"10\",\"6B\",\"C2\",\"C\",\"58\"
\"\",\"\",\"approach-retreat\",\"207\",\"1376342\",\"0.0-207.0\",\"\",\"\",\"1-3\",\"4018\",\"37\",\"1\",\"Testing\",\"Stims/Figures/84-C-20-2.bmp\",\"vafa:va\",\"Right\",\"37\",\"3\",\"11\",\"6B\",\"C1\",\"C\",\"59\"
\"\",\"\",\"approach-retreat\",\"208\",\"1381799\",\"0.0-208.0\",\"\",\"\",\"1-3\",\"3928\",\"37\",\"1\",\"Testing\",\"Stims/Figures/111-C-30-3.bmp\",\"fa:sha:sha\",\"Right\",\"37\",\"3\",\"12\",\"6B\",\"C1\",\"C\",\"60\"
\"\",\"\",\"approach-retreat\",\"209\",\"1387492\",\"0.0-209.0\",\"\",\"\",\"1-3\",\"4168\",\"38\",\"1\",\"Testing\",\"Stims/Figures/57-J-0-1.bmp\",\"zasaza\",\"Up\",\"38\",\"3\",\"13\",\"6B\",\"C2\",\"C\",\"61\"
\"\",\"\",\"approach-retreat\",\"210\",\"1393195\",\"0.0-210.0\",\"\",\"\",\"1-3\",\"4180\",\"40\",\"1\",\"Testing\",\"Stims/Figures/44-J-10-3.bmp\",\"sa:haha\",\"Down\",\"40\",\"3\",\"14\",\"6B\",\"C2\",\"C\",\"62\"
\"\",\"\",\"approach-retreat\",\"211\",\"1398857\",\"0.0-211.0\",\"\",\"\",\"1-3\",\"4136\",\"37\",\"1\",\"Testing\",\"Stims/Figures/86-J-0-1.bmp\",\"saha:za\",\"Left\",\"37\",\"3\",\"15\",\"6B\",\"C2\",\"C\",\"63\"
\"\",\"\",\"approach-retreat\",\"212\",\"1404416\",\"0.0-212.0\",\"\",\"\",\"1-3\",\"4033\",\"37\",\"1\",\"Testing\",\"Stims/Figures/71-J-0-1.bmp\",\"za:sa:za\",\"Left\",\"37\",\"3\",\"16\",\"6B\",\"C2\",\"C\",\"64\"
\"\",\"\",\"approach-retreat\",\"213\",\"1410282\",\"0.0-213.0\",\"\",\"\",\"1-3\",\"4339\",\"38\",\"1\",\"Testing\",\"Stims/Figures/87-J-10-4.bmp\",\"sahaza\",\"Up\",\"38\",\"3\",\"17\",\"6B\",\"C2\",\"C\",\"65\"
\"\",\"\",\"approach-retreat\",\"214\",\"1416227\",\"0.0-214.0\",\"\",\"\",\"1-3\",\"4420\",\"40\",\"0\",\"Testing\",\"Stims/Figures/94-C-20-2.bmp\",\"va:shasha\",\"Down\",\"38\",\"3\",\"18\",\"6B\",\"C1\",\"C\",\"66\"
\"\",\"\",\"approach-retreat\",\"215\",\"1422379\",\"0.0-215.0\",\"\",\"\",\"1-3\",\"4627\",\"40\",\"0\",\"Testing\",\"Stims/Figures/102-J-10-4.bmp\",\"zasa:ha\",\"Up\",\"38\",\"3\",\"19\",\"6B\",\"C2\",\"C\",\"67\"
\"\",\"\",\"approach-retreat\",\"216\",\"1427964\",\"0.0-216.0\",\"\",\"\",\"1-3\",\"4072\",\"38\",\"1\",\"Testing\",\"Stims/Figures/102-C-20-4.bmp\",\"vashava\",\"Down\",\"38\",\"3\",\"20\",\"6B\",\"C1\",\"C\",\"68\"
\"\",\"\",\"approach-retreat\",\"217\",\"1433845\",\"0.0-217.0\",\"\",\"\",\"1-3\",\"4356\",\"37\",\"1\",\"Testing\",\"Stims/Figures/86-C-30-1.bmp\",\"vafa:sha\",\"Right\",\"37\",\"3\",\"21\",\"6B\",\"C1\",\"C\",\"69\"
\"\",\"\",\"approach-retreat\",\"218\",\"1439368\",\"0.0-218.0\",\"\",\"\",\"1-3\",\"3997\",\"38\",\"1\",\"Testing\",\"Stims/Figures/84-J-0-2.bmp\",\"zaha:za\",\"Up\",\"38\",\"3\",\"22\",\"6B\",\"C2\",\"C\",\"70\"
\"\",\"\",\"approach-retreat\",\"219\",\"1445084\",\"0.0-219.0\",\"\",\"\",\"1-3\",\"4193\",\"37\",\"1\",\"Testing\",\"Stims/Figures/71-C-30-1.bmp\",\"vashasha\",\"Right\",\"37\",\"3\",\"23\",\"6B\",\"C1\",\"C\",\"71\"
\"\",\"\",\"approach-retreat\",\"220\",\"1450742\",\"0.0-220.0\",\"\",\"\",\"1-3\",\"4133\",\"37\",\"1\",\"Testing\",\"Stims/Figures/111-J-10-3.bmp\",\"za:sa:ha\",\"Left\",\"37\",\"3\",\"24\",\"6B\",\"C2\",\"C\",\"72\"
\"\",\"\",\"approach-retreat\",\"221\",\"1456634\",\"0.0-221.0\",\"\",\"\",\"1-3\",\"4366\",\"39\",\"0\",\"Testing\",\"Stims/Figures/19-C-20-4.bmp\",\"va:sha:sha\",\"Right\",\"37\",\"4\",\"1\",\"6B\",\"C1\",\"C\",\"73\"
\"\",\"\",\"approach-retreat\",\"222\",\"1462178\",\"0.0-222.0\",\"\",\"\",\"1-3\",\"4019\",\"39\",\"1\",\"Testing\",\"Stims/Figures/94-J-0-2.bmp\",\"za:saha\",\"Right\",\"39\",\"4\",\"2\",\"6B\",\"C2\",\"C\",\"74\"
\"\",\"\",\"approach-retreat\",\"223\",\"1468281\",\"0.0-223.0\",\"\",\"\",\"1-3\",\"4578\",\"40\",\"1\",\"Testing\",\"Stims/Figures/111-C-30-3.bmp\",\"fa:sha:sha\",\"Up\",\"40\",\"4\",\"3\",\"6B\",\"C1\",\"C\",\"75\"
\"\",\"\",\"approach-retreat\",\"224\",\"1474777\",\"0.0-224.0\",\"\",\"\",\"1-3\",\"4971\",\"40\",\"1\",\"Testing\",\"Stims/Figures/111-J-10-3.bmp\",\"za:sa:ha\",\"Down\",\"40\",\"4\",\"4\",\"6B\",\"C2\",\"C\",\"76\"
\"\",\"\",\"approach-retreat\",\"225\",\"1481550\",\"0.0-225.0\",\"\",\"\",\"1-3\",\"5247\",\"37\",\"1\",\"Testing\",\"Stims/Figures/84-J-0-2.bmp\",\"zaha:za\",\"Left\",\"37\",\"4\",\"5\",\"6B\",\"C2\",\"C\",\"77\"
\"\",\"\",\"approach-retreat\",\"226\",\"1487758\",\"0.0-226.0\",\"\",\"\",\"1-3\",\"4674\",\"39\",\"1\",\"Testing\",\"Stims/Figures/87-C-20-4.bmp\",\"vafasha\",\"Left\",\"39\",\"4\",\"6\",\"6B\",\"C1\",\"C\",\"78\"
\"\",\"\",\"approach-retreat\",\"227\",\"1493528\",\"0.0-227.0\",\"\",\"\",\"1-3\",\"4246\",\"40\",\"0\",\"Testing\",\"Stims/Figures/44-C-30-3.bmp\",\"va:shava\",\"Down\",\"38\",\"4\",\"7\",\"6B\",\"C1\",\"C\",\"79\"
\"\",\"\",\"approach-retreat\",\"228\",\"1499845\",\"0.0-228.0\",\"\",\"\",\"1-3\",\"4791\",\"39\",\"0\",\"Testing\",\"Stims/Figures/57-J-0-1.bmp\",\"zasaza\",\"Left\",\"37\",\"4\",\"8\",\"6B\",\"C2\",\"C\",\"80\"
\"\",\"\",\"approach-retreat\",\"229\",\"1506288\",\"0.0-229.0\",\"\",\"\",\"1-3\",\"4919\",\"39\",\"1\",\"Testing\",\"Stims/Figures/19-J-10-4.bmp\",\"sasaza\",\"Right\",\"39\",\"4\",\"9\",\"6B\",\"C2\",\"C\",\"81\"
\"\",\"\",\"approach-retreat\",\"230\",\"1512377\",\"0.0-230.0\",\"\",\"\",\"1-3\",\"4579\",\"38\",\"1\",\"Testing\",\"Stims/Figures/128-C-30-3.bmp\",\"va:fa:va\",\"Down\",\"38\",\"4\",\"10\",\"6B\",\"C1\",\"C\",\"82\"
\"\",\"\",\"approach-retreat\",\"231\",\"1518012\",\"0.0-231.0\",\"\",\"\",\"1-3\",\"4107\",\"37\",\"0\",\"Testing\",\"Stims/Figures/85-C-20-2.bmp\",\"vasha:sha\",\"Left\",\"39\",\"4\",\"11\",\"6B\",\"C1\",\"C\",\"83\"
\"\",\"\",\"approach-retreat\",\"232\",\"1524087\",\"0.0-232.0\",\"\",\"\",\"1-3\",\"4549\",\"37\",\"1\",\"Testing\",\"Stims/Figures/84-C-20-2.bmp\",\"vafa:va\",\"Right\",\"37\",\"4\",\"12\",\"6B\",\"C1\",\"C\",\"84\"
\"\",\"\",\"approach-retreat\",\"233\",\"1529751\",\"0.0-233.0\",\"\",\"\",\"1-3\",\"4139\",\"40\",\"1\",\"Testing\",\"Stims/Figures/86-C-30-1.bmp\",\"vafa:sha\",\"Up\",\"40\",\"4\",\"13\",\"6B\",\"C1\",\"C\",\"85\"
\"\",\"\",\"approach-retreat\",\"234\",\"1535758\",\"0.0-234.0\",\"\",\"\",\"1-3\",\"4483\",\"39\",\"1\",\"Testing\",\"Stims/Figures/86-J-0-1.bmp\",\"saha:za\",\"Right\",\"39\",\"4\",\"14\",\"6B\",\"C2\",\"C\",\"86\"
\"\",\"\",\"approach-retreat\",\"235\",\"1541830\",\"0.0-235.0\",\"\",\"\",\"1-3\",\"4547\",\"38\",\"0\",\"Testing\",\"Stims/Figures/94-C-20-2.bmp\",\"va:shasha\",\"Up\",\"40\",\"4\",\"15\",\"6B\",\"C1\",\"C\",\"87\"
\"\",\"\",\"approach-retreat\",\"236\",\"1549550\",\"0.0-236.0\",\"\",\"\",\"1-3\",\"6194\",\"38\",\"0\",\"Testing\",\"Stims/Figures/102-J-10-4.bmp\",\"zasa:ha\",\"Down\",\"40\",\"4\",\"16\",\"6B\",\"C2\",\"C\",\"88\"
\"\",\"\",\"approach-retreat\",\"237\",\"1555523\",\"0.0-237.0\",\"\",\"\",\"1-3\",\"4448\",\"38\",\"1\",\"Testing\",\"Stims/Figures/44-J-10-3.bmp\",\"sa:haha\",\"Up\",\"38\",\"4\",\"17\",\"6B\",\"C2\",\"C\",\"89\"
\"\",\"\",\"approach-retreat\",\"238\",\"1563228\",\"0.0-238.0\",\"\",\"\",\"1-3\",\"6179\",\"39\",\"1\",\"Testing\",\"Stims/Figures/102-C-20-4.bmp\",\"vashava\",\"Left\",\"39\",\"4\",\"18\",\"6B\",\"C1\",\"C\",\"90\"
\"\",\"\",\"approach-retreat\",\"239\",\"1568799\",\"0.0-239.0\",\"\",\"\",\"1-3\",\"4046\",\"40\",\"1\",\"Testing\",\"Stims/Figures/128-J-10-3.bmp\",\"zasa:za\",\"Down\",\"40\",\"4\",\"19\",\"6B\",\"C2\",\"C\",\"91\"
\"\",\"\",\"approach-retreat\",\"240\",\"1574459\",\"0.0-240.0\",\"\",\"\",\"1-3\",\"4134\",\"40\",\"0\",\"Testing\",\"Stims/Figures/71-C-30-1.bmp\",\"vashasha\",\"Down\",\"38\",\"4\",\"20\",\"6B\",\"C1\",\"C\",\"92\"
\"\",\"\",\"approach-retreat\",\"241\",\"1580189\",\"0.0-241.0\",\"\",\"\",\"1-3\",\"4203\",\"39\",\"1\",\"Testing\",\"Stims/Figures/71-J-0-1.bmp\",\"za:sa:za\",\"Right\",\"39\",\"4\",\"21\",\"6B\",\"C2\",\"C\",\"93\"
\"\",\"\",\"approach-retreat\",\"242\",\"1586889\",\"0.0-242.0\",\"\",\"\",\"1-3\",\"5188\",\"40\",\"1\",\"Testing\",\"Stims/Figures/57-C-30-1.bmp\",\"fa:fava\",\"Up\",\"40\",\"4\",\"22\",\"6B\",\"C1\",\"C\",\"94\"
\"\",\"\",\"approach-retreat\",\"243\",\"1592780\",\"0.0-243.0\",\"\",\"\",\"1-3\",\"4366\",\"37\",\"1\",\"Testing\",\"Stims/Figures/87-J-10-4.bmp\",\"sahaza\",\"Left\",\"37\",\"4\",\"23\",\"6B\",\"C2\",\"C\",\"95\"
\"\",\"\",\"approach-retreat\",\"244\",\"1598965\",\"0.0-244.0\",\"\",\"\",\"1-3\",\"4659\",\"38\",\"1\",\"Testing\",\"Stims/Figures/85-J-0-2.bmp\",\"sa:saha\",\"Up\",\"38\",\"4\",\"24\",\"6B\",\"C2\",\"C\",\"96\"
\"21125\",\"\",\"survey-text\",\"245\",\"1620106\",\"0.0-245.0\",\"\",\"{\"\"Q0\"\":\"\"PS170009\"\"}\",\"\",\"\",\"\",\"\",\"\",\"\",\"\",\"\",\"\",\"\",\"\",\"\",\"\",\"\",\"\"
