\"rt\",\"key_press\",\"trial_type\",\"trial_index\",\"time_elapsed\",\"internal_node_id\",\"view_history\",\"responses\",\"Id\",\"Rt\",\"ResKeyCode\",\"ResCorr\",\"TrialType2\",\"Image\",\"Label\",\"Location\",\"CorrectResponse\",\"Block\",\"BlockTrial\",\"Condition\",\"LabelType\",\"Subcondition\",\"trialNum\"
\"74104\",\"32\",\"text\",\"0\",\"74110\",\"0.0-0.0-0.0\",\"\",\"\",\"\",\"\",\"\",\"\",\"\",\"\",\"\",\"\",\"\",\"\",\"\",\"\",\"\",\"\",\"\"
\"84006\",\"\",\"instructions\",\"1\",\"158122\",\"0.0-1.0\",\"[{\"\"page_index\"\":0,\"\"viewing_time\"\":84006}]\",\"\",\"\",\"\",\"\",\"\",\"\",\"\",\"\",\"\",\"\",\"\",\"\",\"\",\"\",\"\",\"\"
\"21878\",\"\",\"survey-multi-choice\",\"2\",\"180042\",\"0.0-2.0\",\"\",\"{\"\"Q0\"\":\"\"Da\"\",\"\"Q1\"\":\"\"Da\"\",\"\"Q2\"\":\"\"Da\"\",\"\"Q3\"\":\"\"Da\"\",\"\"Q4\"\":\"\"Da\"\",\"\"Q5\"\":\"\"Da\"\"}\",\"\",\"\",\"\",\"\",\"\",\"\",\"\",\"\",\"\",\"\",\"\",\"\",\"\",\"\",\"\"
\"\",\"\",\"bio\",\"3\",\"191144\",\"0.0-3.0\",\"\",\"{\"\"age\"\":\"\"26\"\",\"\"gender\"\":\"\"f\"\",\"\"specify\"\":\"\"\"\"}\",\"\",\"\",\"\",\"\",\"\",\"\",\"\",\"\",\"\",\"\",\"\",\"\",\"\",\"\",\"\"
\"\",\"\",\"approach-retreat\",\"4\",\"205341\",\"0.0-4.0\",\"\",\"\",\"2-3\",\"12689\",\"40\",\"0\",\"Training\",\"Stims/Figures/87-J-10-4.bmp\",\"pakaka\",\"Up\",\"38\",\"1\",\"1\",\"1\",\"P\",\"C\",\"1\"
\"\",\"\",\"approach-retreat\",\"5\",\"214107\",\"0.0-5.0\",\"\",\"\",\"2-3\",\"7251\",\"40\",\"0\",\"Training\",\"Stims/Figures/144-J-10-3.bmp\",\"pakaka\",\"Up\",\"38\",\"1\",\"2\",\"1\",\"P\",\"C\",\"2\"
\"\",\"\",\"approach-retreat\",\"6\",\"230147\",\"0.0-6.0\",\"\",\"\",\"2-3\",\"14528\",\"37\",\"0\",\"Training\",\"Stims/Figures/94-J-0-2.bmp\",\"pakaka\",\"Right\",\"39\",\"1\",\"3\",\"1\",\"P\",\"C\",\"3\"
\"\",\"\",\"approach-retreat\",\"7\",\"237451\",\"0.0-7.0\",\"\",\"\",\"2-3\",\"5793\",\"37\",\"0\",\"Training\",\"Stims/Figures/86-J-0-1.bmp\",\"pakaka\",\"Right\",\"39\",\"1\",\"4\",\"1\",\"P\",\"C\",\"4\"
\"\",\"\",\"approach-retreat\",\"8\",\"256836\",\"0.0-8.0\",\"\",\"\",\"2-3\",\"17869\",\"40\",\"0\",\"Training\",\"Stims/Figures/87-C-20-4.bmp\",\"na:la:na\",\"Down\",\"38\",\"1\",\"5\",\"1\",\"S\",\"C\",\"5\"
\"\",\"\",\"approach-retreat\",\"9\",\"268001\",\"0.0-9.0\",\"\",\"\",\"2-3\",\"9654\",\"39\",\"1\",\"Training\",\"Stims/Figures/118-C-20-2.bmp\",\"na:la:na\",\"Left\",\"39\",\"1\",\"6\",\"1\",\"S\",\"C\",\"6\"
\"\",\"\",\"approach-retreat\",\"10\",\"277457\",\"0.0-10.0\",\"\",\"\",\"2-3\",\"7938\",\"37\",\"1\",\"Training\",\"Stims/Figures/94-C-20-2.bmp\",\"na:la:na\",\"Right\",\"37\",\"1\",\"7\",\"1\",\"S\",\"C\",\"7\"
\"\",\"\",\"approach-retreat\",\"11\",\"285363\",\"0.0-11.0\",\"\",\"\",\"2-3\",\"6395\",\"40\",\"1\",\"Training\",\"Stims/Figures/100-C-30-3.bmp\",\"na:la:na\",\"Up\",\"40\",\"1\",\"8\",\"1\",\"S\",\"C\",\"8\"
\"\",\"\",\"approach-retreat\",\"12\",\"293489\",\"0.0-12.0\",\"\",\"\",\"2-3\",\"6614\",\"40\",\"1\",\"Training\",\"Stims/Figures/93-J-0-1.bmp\",\"pakaka\",\"Down\",\"40\",\"1\",\"9\",\"1\",\"P\",\"C\",\"9\"
\"\",\"\",\"approach-retreat\",\"13\",\"299945\",\"0.0-13.0\",\"\",\"\",\"2-3\",\"4945\",\"38\",\"1\",\"Training\",\"Stims/Figures/19-J-10-4.bmp\",\"pakaka\",\"Up\",\"38\",\"1\",\"10\",\"1\",\"P\",\"C\",\"10\"
\"\",\"\",\"approach-retreat\",\"14\",\"306814\",\"0.0-14.0\",\"\",\"\",\"2-3\",\"5358\",\"38\",\"1\",\"Training\",\"Stims/Figures/93-C-30-1.bmp\",\"na:la:na\",\"Down\",\"38\",\"1\",\"11\",\"1\",\"S\",\"C\",\"11\"
\"\",\"\",\"approach-retreat\",\"15\",\"315100\",\"0.0-15.0\",\"\",\"\",\"2-3\",\"6774\",\"38\",\"1\",\"Training\",\"Stims/Figures/86-C-30-1.bmp\",\"na:la:na\",\"Down\",\"38\",\"1\",\"12\",\"1\",\"S\",\"C\",\"12\"
\"\",\"\",\"approach-retreat\",\"16\",\"322200\",\"0.0-16.0\",\"\",\"\",\"2-3\",\"5588\",\"39\",\"1\",\"Training\",\"Stims/Figures/144-C-30-3.bmp\",\"na:la:na\",\"Left\",\"39\",\"1\",\"13\",\"1\",\"S\",\"C\",\"13\"
\"\",\"\",\"approach-retreat\",\"17\",\"328626\",\"0.0-17.0\",\"\",\"\",\"2-3\",\"4916\",\"39\",\"1\",\"Training\",\"Stims/Figures/118-J-0-2.bmp\",\"pakaka\",\"Right\",\"39\",\"1\",\"14\",\"1\",\"P\",\"C\",\"14\"
\"\",\"\",\"approach-retreat\",\"18\",\"337945\",\"0.0-18.0\",\"\",\"\",\"2-3\",\"7807\",\"39\",\"1\",\"Training\",\"Stims/Figures/19-C-20-4.bmp\",\"na:la:na\",\"Left\",\"39\",\"1\",\"15\",\"1\",\"S\",\"C\",\"15\"
\"\",\"\",\"approach-retreat\",\"19\",\"344153\",\"0.0-19.0\",\"\",\"\",\"2-3\",\"4697\",\"37\",\"1\",\"Training\",\"Stims/Figures/100-J-10-3.bmp\",\"pakaka\",\"Left\",\"37\",\"1\",\"16\",\"1\",\"P\",\"C\",\"16\"
\"\",\"\",\"approach-retreat\",\"20\",\"350897\",\"0.0-20.0\",\"\",\"\",\"2-3\",\"5232\",\"39\",\"1\",\"Training\",\"Stims/Figures/100-J-10-3.bmp\",\"pakaka\",\"Right\",\"39\",\"2\",\"1\",\"1\",\"P\",\"C\",\"17\"
\"\",\"\",\"approach-retreat\",\"21\",\"357682\",\"0.0-21.0\",\"\",\"\",\"2-3\",\"5273\",\"38\",\"1\",\"Training\",\"Stims/Figures/144-J-10-3.bmp\",\"pakaka\",\"Up\",\"38\",\"2\",\"2\",\"1\",\"P\",\"C\",\"18\"
\"\",\"\",\"approach-retreat\",\"22\",\"366566\",\"0.0-22.0\",\"\",\"\",\"2-3\",\"7373\",\"39\",\"1\",\"Training\",\"Stims/Figures/118-C-20-2.bmp\",\"na:la:na\",\"Left\",\"39\",\"2\",\"3\",\"1\",\"S\",\"C\",\"19\"
\"\",\"\",\"approach-retreat\",\"23\",\"373538\",\"0.0-23.0\",\"\",\"\",\"2-3\",\"5460\",\"37\",\"1\",\"Training\",\"Stims/Figures/94-J-0-2.bmp\",\"pakaka\",\"Left\",\"37\",\"2\",\"4\",\"1\",\"P\",\"C\",\"20\"
\"\",\"\",\"approach-retreat\",\"24\",\"380218\",\"0.0-24.0\",\"\",\"\",\"2-3\",\"5168\",\"39\",\"1\",\"Training\",\"Stims/Figures/19-J-10-4.bmp\",\"pakaka\",\"Right\",\"39\",\"2\",\"5\",\"1\",\"P\",\"C\",\"21\"
\"\",\"\",\"approach-retreat\",\"25\",\"388459\",\"0.0-25.0\",\"\",\"\",\"2-3\",\"6729\",\"38\",\"1\",\"Training\",\"Stims/Figures/94-C-20-2.bmp\",\"na:la:na\",\"Down\",\"38\",\"2\",\"6\",\"1\",\"S\",\"C\",\"22\"
\"\",\"\",\"approach-retreat\",\"26\",\"395571\",\"0.0-26.0\",\"\",\"\",\"2-3\",\"5601\",\"40\",\"1\",\"Training\",\"Stims/Figures/93-C-30-1.bmp\",\"na:la:na\",\"Up\",\"40\",\"2\",\"7\",\"1\",\"S\",\"C\",\"23\"
\"\",\"\",\"approach-retreat\",\"27\",\"403133\",\"0.0-27.0\",\"\",\"\",\"2-3\",\"6050\",\"38\",\"1\",\"Training\",\"Stims/Figures/87-C-20-4.bmp\",\"na:la:na\",\"Down\",\"38\",\"2\",\"8\",\"1\",\"S\",\"C\",\"24\"
\"\",\"\",\"approach-retreat\",\"28\",\"409095\",\"0.0-28.0\",\"\",\"\",\"2-3\",\"4452\",\"39\",\"1\",\"Training\",\"Stims/Figures/87-J-10-4.bmp\",\"pakaka\",\"Right\",\"39\",\"2\",\"9\",\"1\",\"P\",\"C\",\"25\"
\"\",\"\",\"approach-retreat\",\"29\",\"415227\",\"0.0-29.0\",\"\",\"\",\"2-3\",\"4620\",\"39\",\"1\",\"Training\",\"Stims/Figures/100-C-30-3.bmp\",\"na:la:na\",\"Left\",\"39\",\"2\",\"10\",\"1\",\"S\",\"C\",\"26\"
\"\",\"\",\"approach-retreat\",\"30\",\"423125\",\"0.0-30.0\",\"\",\"\",\"2-3\",\"6387\",\"40\",\"1\",\"Training\",\"Stims/Figures/86-J-0-1.bmp\",\"pakaka\",\"Down\",\"40\",\"2\",\"11\",\"1\",\"P\",\"C\",\"27\"
\"\",\"\",\"approach-retreat\",\"31\",\"430357\",\"0.0-31.0\",\"\",\"\",\"2-3\",\"5721\",\"40\",\"1\",\"Training\",\"Stims/Figures/86-C-30-1.bmp\",\"na:la:na\",\"Up\",\"40\",\"2\",\"12\",\"1\",\"S\",\"C\",\"28\"
\"\",\"\",\"approach-retreat\",\"32\",\"436676\",\"0.0-32.0\",\"\",\"\",\"2-3\",\"4808\",\"37\",\"1\",\"Training\",\"Stims/Figures/144-C-30-3.bmp\",\"na:la:na\",\"Right\",\"37\",\"2\",\"13\",\"1\",\"S\",\"C\",\"29\"
\"\",\"\",\"approach-retreat\",\"33\",\"443726\",\"0.0-33.0\",\"\",\"\",\"2-3\",\"5539\",\"40\",\"1\",\"Training\",\"Stims/Figures/118-J-0-2.bmp\",\"pakaka\",\"Down\",\"40\",\"2\",\"14\",\"1\",\"P\",\"C\",\"30\"
\"\",\"\",\"approach-retreat\",\"34\",\"449617\",\"0.0-34.0\",\"\",\"\",\"2-3\",\"4379\",\"39\",\"0\",\"Training\",\"Stims/Figures/93-J-0-1.bmp\",\"pakaka\",\"Left\",\"37\",\"2\",\"15\",\"1\",\"P\",\"C\",\"31\"
\"\",\"\",\"approach-retreat\",\"35\",\"456562\",\"0.0-35.0\",\"\",\"\",\"2-3\",\"5435\",\"40\",\"1\",\"Training\",\"Stims/Figures/19-C-20-4.bmp\",\"na:la:na\",\"Up\",\"40\",\"2\",\"16\",\"1\",\"S\",\"C\",\"32\"
\"\",\"\",\"approach-retreat\",\"36\",\"462987\",\"0.0-36.0\",\"\",\"\",\"2-3\",\"4914\",\"39\",\"1\",\"Training\",\"Stims/Figures/100-J-10-3.bmp\",\"pakaka\",\"Right\",\"39\",\"3\",\"1\",\"1\",\"P\",\"C\",\"33\"
\"\",\"\",\"approach-retreat\",\"37\",\"469091\",\"0.0-37.0\",\"\",\"\",\"2-3\",\"4591\",\"38\",\"1\",\"Training\",\"Stims/Figures/94-J-0-2.bmp\",\"pakaka\",\"Up\",\"38\",\"3\",\"2\",\"1\",\"P\",\"C\",\"34\"
\"\",\"\",\"approach-retreat\",\"38\",\"476977\",\"0.0-38.0\",\"\",\"\",\"2-3\",\"6372\",\"40\",\"0\",\"Training\",\"Stims/Figures/87-C-20-4.bmp\",\"na:la:na\",\"Down\",\"38\",\"3\",\"3\",\"1\",\"S\",\"C\",\"35\"
\"\",\"\",\"approach-retreat\",\"39\",\"483573\",\"0.0-39.0\",\"\",\"\",\"2-3\",\"5080\",\"37\",\"1\",\"Training\",\"Stims/Figures/118-J-0-2.bmp\",\"pakaka\",\"Left\",\"37\",\"3\",\"4\",\"1\",\"P\",\"C\",\"36\"
\"\",\"\",\"approach-retreat\",\"40\",\"490131\",\"0.0-40.0\",\"\",\"\",\"2-3\",\"5046\",\"38\",\"1\",\"Training\",\"Stims/Figures/144-J-10-3.bmp\",\"pakaka\",\"Up\",\"38\",\"3\",\"5\",\"1\",\"P\",\"C\",\"37\"
\"\",\"\",\"approach-retreat\",\"41\",\"497197\",\"0.0-41.0\",\"\",\"\",\"2-3\",\"5556\",\"40\",\"1\",\"Training\",\"Stims/Figures/118-C-20-2.bmp\",\"na:la:na\",\"Up\",\"40\",\"3\",\"6\",\"1\",\"S\",\"C\",\"38\"
\"\",\"\",\"approach-retreat\",\"42\",\"504858\",\"0.0-42.0\",\"\",\"\",\"2-3\",\"6147\",\"38\",\"1\",\"Training\",\"Stims/Figures/100-C-30-3.bmp\",\"na:la:na\",\"Down\",\"38\",\"3\",\"7\",\"1\",\"S\",\"C\",\"39\"
\"\",\"\",\"approach-retreat\",\"43\",\"511912\",\"0.0-43.0\",\"\",\"\",\"2-3\",\"5542\",\"40\",\"1\",\"Training\",\"Stims/Figures/93-J-0-1.bmp\",\"pakaka\",\"Down\",\"40\",\"3\",\"8\",\"1\",\"P\",\"C\",\"40\"
\"\",\"\",\"approach-retreat\",\"44\",\"521244\",\"0.0-44.0\",\"\",\"\",\"2-3\",\"7820\",\"39\",\"1\",\"Training\",\"Stims/Figures/94-C-20-2.bmp\",\"na:la:na\",\"Left\",\"39\",\"3\",\"9\",\"1\",\"S\",\"C\",\"41\"
\"\",\"\",\"approach-retreat\",\"45\",\"528301\",\"0.0-45.0\",\"\",\"\",\"2-3\",\"5546\",\"39\",\"1\",\"Training\",\"Stims/Figures/19-J-10-4.bmp\",\"pakaka\",\"Right\",\"39\",\"3\",\"10\",\"1\",\"P\",\"C\",\"42\"
\"\",\"\",\"approach-retreat\",\"46\",\"536098\",\"0.0-46.0\",\"\",\"\",\"2-3\",\"6281\",\"37\",\"1\",\"Training\",\"Stims/Figures/86-C-30-1.bmp\",\"na:la:na\",\"Right\",\"37\",\"3\",\"11\",\"1\",\"S\",\"C\",\"43\"
\"\",\"\",\"approach-retreat\",\"47\",\"543127\",\"0.0-47.0\",\"\",\"\",\"2-3\",\"5518\",\"37\",\"1\",\"Training\",\"Stims/Figures/19-C-20-4.bmp\",\"na:la:na\",\"Right\",\"37\",\"3\",\"12\",\"1\",\"S\",\"C\",\"44\"
\"\",\"\",\"approach-retreat\",\"48\",\"549807\",\"0.0-48.0\",\"\",\"\",\"2-3\",\"5169\",\"39\",\"1\",\"Training\",\"Stims/Figures/144-C-30-3.bmp\",\"na:la:na\",\"Left\",\"39\",\"3\",\"13\",\"1\",\"S\",\"C\",\"45\"
\"\",\"\",\"approach-retreat\",\"49\",\"556193\",\"0.0-49.0\",\"\",\"\",\"2-3\",\"4873\",\"40\",\"1\",\"Training\",\"Stims/Figures/87-J-10-4.bmp\",\"pakaka\",\"Down\",\"40\",\"3\",\"14\",\"1\",\"P\",\"C\",\"46\"
\"\",\"\",\"approach-retreat\",\"50\",\"563026\",\"0.0-50.0\",\"\",\"\",\"2-3\",\"5322\",\"40\",\"1\",\"Training\",\"Stims/Figures/93-C-30-1.bmp\",\"na:la:na\",\"Up\",\"40\",\"3\",\"15\",\"1\",\"S\",\"C\",\"47\"
\"\",\"\",\"approach-retreat\",\"51\",\"570289\",\"0.0-51.0\",\"\",\"\",\"2-3\",\"5751\",\"37\",\"1\",\"Training\",\"Stims/Figures/86-J-0-1.bmp\",\"pakaka\",\"Left\",\"37\",\"3\",\"16\",\"1\",\"P\",\"C\",\"48\"
\"\",\"\",\"approach-retreat\",\"52\",\"577093\",\"0.0-52.0\",\"\",\"\",\"2-3\",\"5294\",\"37\",\"1\",\"Training\",\"Stims/Figures/93-C-30-1.bmp\",\"na:la:na\",\"Right\",\"37\",\"4\",\"1\",\"1\",\"S\",\"C\",\"49\"
\"\",\"\",\"approach-retreat\",\"53\",\"583943\",\"0.0-53.0\",\"\",\"\",\"2-3\",\"5338\",\"40\",\"1\",\"Training\",\"Stims/Figures/144-J-10-3.bmp\",\"pakaka\",\"Down\",\"40\",\"4\",\"2\",\"1\",\"P\",\"C\",\"50\"
\"\",\"\",\"approach-retreat\",\"54\",\"589699\",\"0.0-54.0\",\"\",\"\",\"2-3\",\"4243\",\"39\",\"1\",\"Training\",\"Stims/Figures/19-J-10-4.bmp\",\"pakaka\",\"Right\",\"39\",\"4\",\"3\",\"1\",\"P\",\"C\",\"51\"
\"\",\"\",\"approach-retreat\",\"55\",\"596519\",\"0.0-55.0\",\"\",\"\",\"2-3\",\"5308\",\"39\",\"1\",\"Training\",\"Stims/Figures/87-C-20-4.bmp\",\"na:la:na\",\"Left\",\"39\",\"4\",\"4\",\"1\",\"S\",\"C\",\"52\"
\"\",\"\",\"approach-retreat\",\"56\",\"602890\",\"0.0-56.0\",\"\",\"\",\"2-3\",\"4858\",\"40\",\"1\",\"Training\",\"Stims/Figures/94-J-0-2.bmp\",\"pakaka\",\"Down\",\"40\",\"4\",\"5\",\"1\",\"P\",\"C\",\"53\"
\"\",\"\",\"approach-retreat\",\"57\",\"609171\",\"0.0-57.0\",\"\",\"\",\"2-3\",\"4768\",\"38\",\"1\",\"Training\",\"Stims/Figures/86-J-0-1.bmp\",\"pakaka\",\"Up\",\"38\",\"4\",\"6\",\"1\",\"P\",\"C\",\"54\"
\"\",\"\",\"approach-retreat\",\"58\",\"616149\",\"0.0-58.0\",\"\",\"\",\"2-3\",\"5467\",\"38\",\"1\",\"Training\",\"Stims/Figures/118-J-0-2.bmp\",\"pakaka\",\"Up\",\"38\",\"4\",\"7\",\"1\",\"P\",\"C\",\"55\"
\"\",\"\",\"approach-retreat\",\"59\",\"622756\",\"0.0-59.0\",\"\",\"\",\"2-3\",\"5094\",\"39\",\"1\",\"Training\",\"Stims/Figures/118-C-20-2.bmp\",\"na:la:na\",\"Left\",\"39\",\"4\",\"8\",\"1\",\"S\",\"C\",\"56\"
\"\",\"\",\"approach-retreat\",\"60\",\"629295\",\"0.0-60.0\",\"\",\"\",\"2-3\",\"5028\",\"39\",\"1\",\"Training\",\"Stims/Figures/94-C-20-2.bmp\",\"na:la:na\",\"Left\",\"39\",\"4\",\"9\",\"1\",\"S\",\"C\",\"57\"
\"\",\"\",\"approach-retreat\",\"61\",\"635229\",\"0.0-61.0\",\"\",\"\",\"2-3\",\"4423\",\"40\",\"1\",\"Training\",\"Stims/Figures/100-C-30-3.bmp\",\"na:la:na\",\"Up\",\"40\",\"4\",\"10\",\"1\",\"S\",\"C\",\"58\"
\"\",\"\",\"approach-retreat\",\"62\",\"641272\",\"0.0-62.0\",\"\",\"\",\"2-3\",\"4531\",\"38\",\"1\",\"Training\",\"Stims/Figures/93-J-0-1.bmp\",\"pakaka\",\"Up\",\"38\",\"4\",\"11\",\"1\",\"P\",\"C\",\"59\"
\"\",\"\",\"approach-retreat\",\"63\",\"647583\",\"0.0-63.0\",\"\",\"\",\"2-3\",\"4800\",\"37\",\"1\",\"Training\",\"Stims/Figures/86-C-30-1.bmp\",\"na:la:na\",\"Right\",\"37\",\"4\",\"12\",\"1\",\"S\",\"C\",\"60\"
\"\",\"\",\"approach-retreat\",\"64\",\"653503\",\"0.0-64.0\",\"\",\"\",\"2-3\",\"4407\",\"37\",\"1\",\"Training\",\"Stims/Figures/87-J-10-4.bmp\",\"pakaka\",\"Left\",\"37\",\"4\",\"13\",\"1\",\"P\",\"C\",\"61\"
\"\",\"\",\"approach-retreat\",\"65\",\"659961\",\"0.0-65.0\",\"\",\"\",\"2-3\",\"4948\",\"37\",\"1\",\"Training\",\"Stims/Figures/19-C-20-4.bmp\",\"na:la:na\",\"Right\",\"37\",\"4\",\"14\",\"1\",\"S\",\"C\",\"62\"
\"\",\"\",\"approach-retreat\",\"66\",\"666572\",\"0.0-66.0\",\"\",\"\",\"2-3\",\"5101\",\"38\",\"1\",\"Training\",\"Stims/Figures/144-C-30-3.bmp\",\"na:la:na\",\"Down\",\"38\",\"4\",\"15\",\"1\",\"S\",\"C\",\"63\"
\"\",\"\",\"approach-retreat\",\"67\",\"672545\",\"0.0-67.0\",\"\",\"\",\"2-3\",\"4462\",\"40\",\"1\",\"Training\",\"Stims/Figures/100-J-10-3.bmp\",\"pakaka\",\"Down\",\"40\",\"4\",\"16\",\"1\",\"P\",\"C\",\"64\"
\"\",\"\",\"approach-retreat\",\"68\",\"679418\",\"0.0-68.0\",\"\",\"\",\"2-3\",\"5362\",\"39\",\"1\",\"Training\",\"Stims/Figures/19-C-20-4.bmp\",\"na:la:na\",\"Left\",\"39\",\"5\",\"1\",\"1\",\"S\",\"C\",\"65\"
\"\",\"\",\"approach-retreat\",\"69\",\"686118\",\"0.0-69.0\",\"\",\"\",\"2-3\",\"5187\",\"40\",\"1\",\"Training\",\"Stims/Figures/87-C-20-4.bmp\",\"na:la:na\",\"Up\",\"40\",\"5\",\"2\",\"1\",\"S\",\"C\",\"66\"
\"\",\"\",\"approach-retreat\",\"70\",\"693592\",\"0.0-70.0\",\"\",\"\",\"2-3\",\"5963\",\"37\",\"1\",\"Training\",\"Stims/Figures/86-J-0-1.bmp\",\"pakaka\",\"Left\",\"37\",\"5\",\"3\",\"1\",\"P\",\"C\",\"67\"
\"\",\"\",\"approach-retreat\",\"71\",\"700200\",\"0.0-71.0\",\"\",\"\",\"2-3\",\"5097\",\"39\",\"1\",\"Training\",\"Stims/Figures/93-C-30-1.bmp\",\"na:la:na\",\"Left\",\"39\",\"5\",\"4\",\"1\",\"S\",\"C\",\"68\"
\"\",\"\",\"approach-retreat\",\"72\",\"707229\",\"0.0-72.0\",\"\",\"\",\"2-3\",\"5517\",\"40\",\"1\",\"Training\",\"Stims/Figures/94-J-0-2.bmp\",\"pakaka\",\"Down\",\"40\",\"5\",\"5\",\"1\",\"P\",\"C\",\"69\"
\"\",\"\",\"approach-retreat\",\"73\",\"712734\",\"0.0-73.0\",\"\",\"\",\"2-3\",\"3995\",\"39\",\"1\",\"Training\",\"Stims/Figures/100-J-10-3.bmp\",\"pakaka\",\"Right\",\"39\",\"5\",\"6\",\"1\",\"P\",\"C\",\"70\"
\"\",\"\",\"approach-retreat\",\"74\",\"719740\",\"0.0-74.0\",\"\",\"\",\"2-3\",\"5492\",\"40\",\"1\",\"Training\",\"Stims/Figures/86-C-30-1.bmp\",\"na:la:na\",\"Up\",\"40\",\"5\",\"7\",\"1\",\"S\",\"C\",\"71\"
\"\",\"\",\"approach-retreat\",\"75\",\"727480\",\"0.0-75.0\",\"\",\"\",\"2-3\",\"6227\",\"37\",\"1\",\"Training\",\"Stims/Figures/118-C-20-2.bmp\",\"na:la:na\",\"Right\",\"37\",\"5\",\"8\",\"1\",\"S\",\"C\",\"72\"
\"\",\"\",\"approach-retreat\",\"76\",\"740197\",\"0.0-76.0\",\"\",\"\",\"2-3\",\"11206\",\"40\",\"1\",\"Training\",\"Stims/Figures/93-J-0-1.bmp\",\"pakaka\",\"Down\",\"40\",\"5\",\"9\",\"1\",\"P\",\"C\",\"73\"
\"\",\"\",\"approach-retreat\",\"77\",\"749097\",\"0.0-77.0\",\"\",\"\",\"2-3\",\"7389\",\"37\",\"1\",\"Training\",\"Stims/Figures/144-C-30-3.bmp\",\"na:la:na\",\"Right\",\"37\",\"5\",\"10\",\"1\",\"S\",\"C\",\"74\"
\"\",\"\",\"approach-retreat\",\"78\",\"756502\",\"0.0-78.0\",\"\",\"\",\"2-3\",\"5894\",\"37\",\"1\",\"Training\",\"Stims/Figures/94-C-20-2.bmp\",\"na:la:na\",\"Right\",\"37\",\"5\",\"11\",\"1\",\"S\",\"C\",\"75\"
\"\",\"\",\"approach-retreat\",\"79\",\"762602\",\"0.0-79.0\",\"\",\"\",\"2-3\",\"4589\",\"40\",\"1\",\"Training\",\"Stims/Figures/87-J-10-4.bmp\",\"pakaka\",\"Down\",\"40\",\"5\",\"12\",\"1\",\"P\",\"C\",\"76\"
\"\",\"\",\"approach-retreat\",\"80\",\"769461\",\"0.0-80.0\",\"\",\"\",\"2-3\",\"5348\",\"37\",\"1\",\"Training\",\"Stims/Figures/144-J-10-3.bmp\",\"pakaka\",\"Left\",\"37\",\"5\",\"13\",\"1\",\"P\",\"C\",\"77\"
\"\",\"\",\"approach-retreat\",\"81\",\"776057\",\"0.0-81.0\",\"\",\"\",\"2-3\",\"5083\",\"40\",\"1\",\"Training\",\"Stims/Figures/100-C-30-3.bmp\",\"na:la:na\",\"Up\",\"40\",\"5\",\"14\",\"1\",\"S\",\"C\",\"78\"
\"\",\"\",\"approach-retreat\",\"82\",\"781840\",\"0.0-82.0\",\"\",\"\",\"2-3\",\"4270\",\"38\",\"1\",\"Training\",\"Stims/Figures/19-J-10-4.bmp\",\"pakaka\",\"Up\",\"38\",\"5\",\"15\",\"1\",\"P\",\"C\",\"79\"
\"\",\"\",\"approach-retreat\",\"83\",\"787774\",\"0.0-83.0\",\"\",\"\",\"2-3\",\"4421\",\"40\",\"1\",\"Training\",\"Stims/Figures/118-J-0-2.bmp\",\"pakaka\",\"Down\",\"40\",\"5\",\"16\",\"1\",\"P\",\"C\",\"80\"
\"\",\"\",\"approach-retreat\",\"84\",\"793954\",\"0.0-84.0\",\"\",\"\",\"2-3\",\"4668\",\"37\",\"1\",\"Training\",\"Stims/Figures/118-C-20-2.bmp\",\"na:la:na\",\"Right\",\"37\",\"6\",\"1\",\"1\",\"S\",\"C\",\"81\"
\"\",\"\",\"approach-retreat\",\"85\",\"799668\",\"0.0-85.0\",\"\",\"\",\"2-3\",\"4204\",\"40\",\"1\",\"Training\",\"Stims/Figures/100-J-10-3.bmp\",\"pakaka\",\"Down\",\"40\",\"6\",\"2\",\"1\",\"P\",\"C\",\"82\"
\"\",\"\",\"approach-retreat\",\"86\",\"805179\",\"0.0-86.0\",\"\",\"\",\"2-3\",\"3999\",\"40\",\"1\",\"Training\",\"Stims/Figures/118-J-0-2.bmp\",\"pakaka\",\"Down\",\"40\",\"6\",\"3\",\"1\",\"P\",\"C\",\"83\"
\"\",\"\",\"approach-retreat\",\"87\",\"810762\",\"0.0-87.0\",\"\",\"\",\"2-3\",\"4073\",\"39\",\"1\",\"Training\",\"Stims/Figures/93-J-0-1.bmp\",\"pakaka\",\"Right\",\"39\",\"6\",\"4\",\"1\",\"P\",\"C\",\"84\"
\"\",\"\",\"approach-retreat\",\"88\",\"818377\",\"0.0-88.0\",\"\",\"\",\"2-3\",\"6104\",\"37\",\"1\",\"Training\",\"Stims/Figures/87-C-20-4.bmp\",\"na:la:na\",\"Right\",\"37\",\"6\",\"5\",\"1\",\"S\",\"C\",\"85\"
\"\",\"\",\"approach-retreat\",\"89\",\"825021\",\"0.0-89.0\",\"\",\"\",\"2-3\",\"5130\",\"38\",\"1\",\"Training\",\"Stims/Figures/94-C-20-2.bmp\",\"na:la:na\",\"Down\",\"38\",\"6\",\"6\",\"1\",\"S\",\"C\",\"86\"
\"\",\"\",\"approach-retreat\",\"90\",\"831199\",\"0.0-90.0\",\"\",\"\",\"2-3\",\"4668\",\"39\",\"1\",\"Training\",\"Stims/Figures/100-C-30-3.bmp\",\"na:la:na\",\"Left\",\"39\",\"6\",\"7\",\"1\",\"S\",\"C\",\"87\"
\"\",\"\",\"approach-retreat\",\"91\",\"837351\",\"0.0-91.0\",\"\",\"\",\"2-3\",\"4639\",\"39\",\"1\",\"Training\",\"Stims/Figures/86-C-30-1.bmp\",\"na:la:na\",\"Left\",\"39\",\"6\",\"8\",\"1\",\"S\",\"C\",\"88\"
\"\",\"\",\"approach-retreat\",\"92\",\"843080\",\"0.0-92.0\",\"\",\"\",\"2-3\",\"4212\",\"37\",\"1\",\"Training\",\"Stims/Figures/86-J-0-1.bmp\",\"pakaka\",\"Left\",\"37\",\"6\",\"9\",\"1\",\"P\",\"C\",\"89\"
\"\",\"\",\"approach-retreat\",\"93\",\"850236\",\"0.0-93.0\",\"\",\"\",\"2-3\",\"5640\",\"38\",\"1\",\"Training\",\"Stims/Figures/87-J-10-4.bmp\",\"pakaka\",\"Up\",\"38\",\"6\",\"10\",\"1\",\"P\",\"C\",\"90\"
\"\",\"\",\"approach-retreat\",\"94\",\"856818\",\"0.0-94.0\",\"\",\"\",\"2-3\",\"5072\",\"40\",\"1\",\"Training\",\"Stims/Figures/144-C-30-3.bmp\",\"na:la:na\",\"Up\",\"40\",\"6\",\"11\",\"1\",\"S\",\"C\",\"91\"
\"\",\"\",\"approach-retreat\",\"95\",\"868790\",\"0.0-95.0\",\"\",\"\",\"2-3\",\"10460\",\"38\",\"1\",\"Training\",\"Stims/Figures/94-J-0-2.bmp\",\"pakaka\",\"Up\",\"38\",\"6\",\"12\",\"1\",\"P\",\"C\",\"92\"
\"\",\"\",\"approach-retreat\",\"96\",\"879748\",\"0.0-96.0\",\"\",\"\",\"2-3\",\"9446\",\"39\",\"1\",\"Training\",\"Stims/Figures/144-J-10-3.bmp\",\"pakaka\",\"Right\",\"39\",\"6\",\"13\",\"1\",\"P\",\"C\",\"93\"
\"\",\"\",\"approach-retreat\",\"97\",\"891058\",\"0.0-97.0\",\"\",\"\",\"2-3\",\"9800\",\"37\",\"1\",\"Training\",\"Stims/Figures/19-J-10-4.bmp\",\"pakaka\",\"Left\",\"37\",\"6\",\"14\",\"1\",\"P\",\"C\",\"94\"
\"\",\"\",\"approach-retreat\",\"98\",\"897384\",\"0.0-98.0\",\"\",\"\",\"2-3\",\"4814\",\"38\",\"1\",\"Training\",\"Stims/Figures/93-C-30-1.bmp\",\"na:la:na\",\"Down\",\"38\",\"6\",\"15\",\"1\",\"S\",\"C\",\"95\"
\"\",\"\",\"approach-retreat\",\"99\",\"907877\",\"0.0-99.0\",\"\",\"\",\"2-3\",\"8979\",\"40\",\"1\",\"Training\",\"Stims/Figures/19-C-20-4.bmp\",\"na:la:na\",\"Up\",\"40\",\"6\",\"16\",\"1\",\"S\",\"C\",\"96\"
\"\",\"\",\"approach-retreat\",\"100\",\"923397\",\"0.0-100.0\",\"\",\"\",\"2-3\",\"14010\",\"38\",\"1\",\"Training\",\"Stims/Figures/19-J-10-4.bmp\",\"pakaka\",\"Up\",\"38\",\"7\",\"1\",\"1\",\"P\",\"C\",\"97\"
\"\",\"\",\"approach-retreat\",\"101\",\"931844\",\"0.0-101.0\",\"\",\"\",\"2-3\",\"6939\",\"40\",\"1\",\"Training\",\"Stims/Figures/144-J-10-3.bmp\",\"pakaka\",\"Down\",\"40\",\"7\",\"2\",\"1\",\"P\",\"C\",\"98\"
\"\",\"\",\"approach-retreat\",\"102\",\"939574\",\"0.0-102.0\",\"\",\"\",\"2-3\",\"6215\",\"39\",\"1\",\"Training\",\"Stims/Figures/93-C-30-1.bmp\",\"na:la:na\",\"Left\",\"39\",\"7\",\"3\",\"1\",\"S\",\"C\",\"99\"
\"\",\"\",\"approach-retreat\",\"103\",\"946140\",\"0.0-103.0\",\"\",\"\",\"2-3\",\"5054\",\"39\",\"1\",\"Training\",\"Stims/Figures/87-J-10-4.bmp\",\"pakaka\",\"Right\",\"39\",\"7\",\"4\",\"1\",\"P\",\"C\",\"100\"
\"\",\"\",\"approach-retreat\",\"104\",\"953409\",\"0.0-104.0\",\"\",\"\",\"2-3\",\"5763\",\"39\",\"1\",\"Training\",\"Stims/Figures/118-C-20-2.bmp\",\"na:la:na\",\"Left\",\"39\",\"7\",\"5\",\"1\",\"S\",\"C\",\"101\"
\"\",\"\",\"approach-retreat\",\"105\",\"962195\",\"0.0-105.0\",\"\",\"\",\"2-3\",\"7271\",\"39\",\"1\",\"Training\",\"Stims/Figures/87-C-20-4.bmp\",\"na:la:na\",\"Left\",\"39\",\"7\",\"6\",\"1\",\"S\",\"C\",\"102\"
\"\",\"\",\"approach-retreat\",\"106\",\"968527\",\"0.0-106.0\",\"\",\"\",\"2-3\",\"4820\",\"37\",\"1\",\"Training\",\"Stims/Figures/94-C-20-2.bmp\",\"na:la:na\",\"Right\",\"37\",\"7\",\"7\",\"1\",\"S\",\"C\",\"103\"
\"\",\"\",\"approach-retreat\",\"107\",\"975566\",\"0.0-107.0\",\"\",\"\",\"2-3\",\"5528\",\"38\",\"1\",\"Training\",\"Stims/Figures/100-C-30-3.bmp\",\"na:la:na\",\"Down\",\"38\",\"7\",\"8\",\"1\",\"S\",\"C\",\"104\"
\"\",\"\",\"approach-retreat\",\"108\",\"981413\",\"0.0-108.0\",\"\",\"\",\"2-3\",\"4335\",\"38\",\"1\",\"Training\",\"Stims/Figures/94-J-0-2.bmp\",\"pakaka\",\"Up\",\"38\",\"7\",\"9\",\"1\",\"P\",\"C\",\"105\"
\"\",\"\",\"approach-retreat\",\"109\",\"988682\",\"0.0-109.0\",\"\",\"\",\"2-3\",\"5757\",\"37\",\"1\",\"Training\",\"Stims/Figures/19-C-20-4.bmp\",\"na:la:na\",\"Right\",\"37\",\"7\",\"10\",\"1\",\"S\",\"C\",\"106\"
\"\",\"\",\"approach-retreat\",\"110\",\"994398\",\"0.0-110.0\",\"\",\"\",\"2-3\",\"4204\",\"37\",\"1\",\"Training\",\"Stims/Figures/86-J-0-1.bmp\",\"pakaka\",\"Left\",\"37\",\"7\",\"11\",\"1\",\"P\",\"C\",\"107\"
\"\",\"\",\"approach-retreat\",\"111\",\"999928\",\"0.0-111.0\",\"\",\"\",\"2-3\",\"4020\",\"39\",\"1\",\"Training\",\"Stims/Figures/93-J-0-1.bmp\",\"pakaka\",\"Right\",\"39\",\"7\",\"12\",\"1\",\"P\",\"C\",\"108\"
\"\",\"\",\"approach-retreat\",\"112\",\"1007371\",\"0.0-112.0\",\"\",\"\",\"2-3\",\"5933\",\"38\",\"1\",\"Training\",\"Stims/Figures/86-C-30-1.bmp\",\"na:la:na\",\"Down\",\"38\",\"7\",\"13\",\"1\",\"S\",\"C\",\"109\"
\"\",\"\",\"approach-retreat\",\"113\",\"1013701\",\"0.0-113.0\",\"\",\"\",\"2-3\",\"4817\",\"38\",\"1\",\"Training\",\"Stims/Figures/118-J-0-2.bmp\",\"pakaka\",\"Up\",\"38\",\"7\",\"14\",\"1\",\"P\",\"C\",\"110\"
\"\",\"\",\"approach-retreat\",\"114\",\"1020322\",\"0.0-114.0\",\"\",\"\",\"2-3\",\"5114\",\"38\",\"1\",\"Training\",\"Stims/Figures/144-C-30-3.bmp\",\"na:la:na\",\"Down\",\"38\",\"7\",\"15\",\"1\",\"S\",\"C\",\"111\"
\"\",\"\",\"approach-retreat\",\"115\",\"1026629\",\"0.0-115.0\",\"\",\"\",\"2-3\",\"4795\",\"38\",\"1\",\"Training\",\"Stims/Figures/100-J-10-3.bmp\",\"pakaka\",\"Up\",\"38\",\"7\",\"16\",\"1\",\"P\",\"C\",\"112\"
\"\",\"\",\"approach-retreat\",\"116\",\"1036108\",\"0.0-116.0\",\"\",\"\",\"2-3\",\"7968\",\"38\",\"1\",\"Training\",\"Stims/Figures/94-J-0-2.bmp\",\"pakaka\",\"Up\",\"38\",\"8\",\"1\",\"1\",\"P\",\"C\",\"113\"
\"\",\"\",\"approach-retreat\",\"117\",\"1042272\",\"0.0-117.0\",\"\",\"\",\"2-3\",\"4651\",\"39\",\"1\",\"Training\",\"Stims/Figures/86-J-0-1.bmp\",\"pakaka\",\"Right\",\"39\",\"8\",\"2\",\"1\",\"P\",\"C\",\"114\"
\"\",\"\",\"approach-retreat\",\"118\",\"1048902\",\"0.0-118.0\",\"\",\"\",\"2-3\",\"5118\",\"40\",\"1\",\"Training\",\"Stims/Figures/93-J-0-1.bmp\",\"pakaka\",\"Down\",\"40\",\"8\",\"3\",\"1\",\"P\",\"C\",\"115\"
\"\",\"\",\"approach-retreat\",\"119\",\"1055058\",\"0.0-119.0\",\"\",\"\",\"2-3\",\"4643\",\"39\",\"1\",\"Training\",\"Stims/Figures/93-C-30-1.bmp\",\"na:la:na\",\"Left\",\"39\",\"8\",\"4\",\"1\",\"S\",\"C\",\"116\"
\"\",\"\",\"approach-retreat\",\"120\",\"1060089\",\"0.0-120.0\",\"\",\"\",\"2-3\",\"3519\",\"38\",\"0\",\"Training\",\"Stims/Figures/87-C-20-4.bmp\",\"na:la:na\",\"Up\",\"40\",\"8\",\"5\",\"1\",\"S\",\"C\",\"117\"
\"\",\"\",\"approach-retreat\",\"121\",\"1066228\",\"0.0-121.0\",\"\",\"\",\"2-3\",\"4629\",\"39\",\"1\",\"Training\",\"Stims/Figures/118-J-0-2.bmp\",\"pakaka\",\"Right\",\"39\",\"8\",\"6\",\"1\",\"P\",\"C\",\"118\"
\"\",\"\",\"approach-retreat\",\"122\",\"1073399\",\"0.0-122.0\",\"\",\"\",\"2-3\",\"5657\",\"37\",\"1\",\"Training\",\"Stims/Figures/94-C-20-2.bmp\",\"na:la:na\",\"Right\",\"37\",\"8\",\"7\",\"1\",\"S\",\"C\",\"119\"
\"\",\"\",\"approach-retreat\",\"123\",\"1079721\",\"0.0-123.0\",\"\",\"\",\"2-3\",\"4813\",\"38\",\"1\",\"Training\",\"Stims/Figures/118-C-20-2.bmp\",\"na:la:na\",\"Down\",\"38\",\"8\",\"8\",\"1\",\"S\",\"C\",\"120\"
\"\",\"\",\"approach-retreat\",\"124\",\"1086035\",\"0.0-124.0\",\"\",\"\",\"2-3\",\"4803\",\"39\",\"1\",\"Training\",\"Stims/Figures/86-C-30-1.bmp\",\"na:la:na\",\"Left\",\"39\",\"8\",\"9\",\"1\",\"S\",\"C\",\"121\"
\"\",\"\",\"approach-retreat\",\"125\",\"1094337\",\"0.0-125.0\",\"\",\"\",\"2-3\",\"6791\",\"40\",\"1\",\"Training\",\"Stims/Figures/100-J-10-3.bmp\",\"pakaka\",\"Down\",\"40\",\"8\",\"10\",\"1\",\"P\",\"C\",\"122\"
\"\",\"\",\"approach-retreat\",\"126\",\"1100920\",\"0.0-126.0\",\"\",\"\",\"2-3\",\"5072\",\"39\",\"1\",\"Training\",\"Stims/Figures/19-C-20-4.bmp\",\"na:la:na\",\"Left\",\"39\",\"8\",\"11\",\"1\",\"S\",\"C\",\"123\"
\"\",\"\",\"approach-retreat\",\"127\",\"1107340\",\"0.0-127.0\",\"\",\"\",\"2-3\",\"4908\",\"40\",\"1\",\"Training\",\"Stims/Figures/100-C-30-3.bmp\",\"na:la:na\",\"Up\",\"40\",\"8\",\"12\",\"1\",\"S\",\"C\",\"124\"
\"\",\"\",\"approach-retreat\",\"128\",\"1114077\",\"0.0-128.0\",\"\",\"\",\"2-3\",\"5225\",\"38\",\"1\",\"Training\",\"Stims/Figures/19-J-10-4.bmp\",\"pakaka\",\"Up\",\"38\",\"8\",\"13\",\"1\",\"P\",\"C\",\"125\"
\"\",\"\",\"approach-retreat\",\"129\",\"1120595\",\"0.0-129.0\",\"\",\"\",\"2-3\",\"5007\",\"38\",\"1\",\"Training\",\"Stims/Figures/144-C-30-3.bmp\",\"na:la:na\",\"Down\",\"38\",\"8\",\"14\",\"1\",\"S\",\"C\",\"126\"
\"\",\"\",\"approach-retreat\",\"130\",\"1127600\",\"0.0-130.0\",\"\",\"\",\"2-3\",\"5494\",\"39\",\"1\",\"Training\",\"Stims/Figures/87-J-10-4.bmp\",\"pakaka\",\"Right\",\"39\",\"8\",\"15\",\"1\",\"P\",\"C\",\"127\"
\"\",\"\",\"approach-retreat\",\"131\",\"1134066\",\"0.0-131.0\",\"\",\"\",\"2-3\",\"4955\",\"37\",\"1\",\"Training\",\"Stims/Figures/144-J-10-3.bmp\",\"pakaka\",\"Left\",\"37\",\"8\",\"16\",\"1\",\"P\",\"C\",\"128\"
\"\",\"\",\"approach-retreat\",\"132\",\"1139853\",\"0.0-132.0\",\"\",\"\",\"2-3\",\"4277\",\"39\",\"1\",\"Training\",\"Stims/Figures/19-J-10-4.bmp\",\"pakaka\",\"Right\",\"39\",\"9\",\"1\",\"1\",\"P\",\"C\",\"129\"
\"\",\"\",\"approach-retreat\",\"133\",\"1146406\",\"0.0-133.0\",\"\",\"\",\"2-3\",\"5043\",\"40\",\"1\",\"Training\",\"Stims/Figures/87-C-20-4.bmp\",\"na:la:na\",\"Up\",\"40\",\"9\",\"2\",\"1\",\"S\",\"C\",\"130\"
\"\",\"\",\"approach-retreat\",\"134\",\"1152417\",\"0.0-134.0\",\"\",\"\",\"2-3\",\"4500\",\"40\",\"1\",\"Training\",\"Stims/Figures/100-J-10-3.bmp\",\"pakaka\",\"Down\",\"40\",\"9\",\"3\",\"1\",\"P\",\"C\",\"131\"
\"\",\"\",\"approach-retreat\",\"135\",\"1158480\",\"0.0-135.0\",\"\",\"\",\"2-3\",\"4551\",\"38\",\"1\",\"Training\",\"Stims/Figures/86-C-30-1.bmp\",\"na:la:na\",\"Down\",\"38\",\"9\",\"4\",\"1\",\"S\",\"C\",\"132\"
\"\",\"\",\"approach-retreat\",\"136\",\"1164327\",\"0.0-136.0\",\"\",\"\",\"2-3\",\"4335\",\"39\",\"1\",\"Training\",\"Stims/Figures/86-J-0-1.bmp\",\"pakaka\",\"Right\",\"39\",\"9\",\"5\",\"1\",\"P\",\"C\",\"133\"
\"\",\"\",\"approach-retreat\",\"137\",\"1171537\",\"0.0-137.0\",\"\",\"\",\"2-3\",\"5699\",\"40\",\"1\",\"Training\",\"Stims/Figures/94-C-20-2.bmp\",\"na:la:na\",\"Up\",\"40\",\"9\",\"6\",\"1\",\"S\",\"C\",\"134\"
\"\",\"\",\"approach-retreat\",\"138\",\"1177526\",\"0.0-138.0\",\"\",\"\",\"2-3\",\"4475\",\"40\",\"1\",\"Training\",\"Stims/Figures/118-J-0-2.bmp\",\"pakaka\",\"Down\",\"40\",\"9\",\"7\",\"1\",\"P\",\"C\",\"135\"
\"\",\"\",\"approach-retreat\",\"139\",\"1183837\",\"0.0-139.0\",\"\",\"\",\"2-3\",\"4800\",\"39\",\"1\",\"Training\",\"Stims/Figures/93-C-30-1.bmp\",\"na:la:na\",\"Left\",\"39\",\"9\",\"8\",\"1\",\"S\",\"C\",\"136\"
\"\",\"\",\"approach-retreat\",\"140\",\"1190888\",\"0.0-140.0\",\"\",\"\",\"2-3\",\"5539\",\"38\",\"1\",\"Training\",\"Stims/Figures/144-J-10-3.bmp\",\"pakaka\",\"Up\",\"38\",\"9\",\"9\",\"1\",\"P\",\"C\",\"137\"
\"\",\"\",\"approach-retreat\",\"141\",\"1196969\",\"0.0-141.0\",\"\",\"\",\"2-3\",\"4571\",\"39\",\"1\",\"Training\",\"Stims/Figures/144-C-30-3.bmp\",\"na:la:na\",\"Left\",\"39\",\"9\",\"10\",\"1\",\"S\",\"C\",\"138\"
\"\",\"\",\"approach-retreat\",\"142\",\"1203472\",\"0.0-142.0\",\"\",\"\",\"2-3\",\"4992\",\"37\",\"1\",\"Training\",\"Stims/Figures/93-J-0-1.bmp\",\"pakaka\",\"Left\",\"37\",\"9\",\"11\",\"1\",\"P\",\"C\",\"139\"
\"\",\"\",\"approach-retreat\",\"143\",\"1209413\",\"0.0-143.0\",\"\",\"\",\"2-3\",\"4430\",\"38\",\"1\",\"Training\",\"Stims/Figures/94-J-0-2.bmp\",\"pakaka\",\"Up\",\"38\",\"9\",\"12\",\"1\",\"P\",\"C\",\"140\"
\"\",\"\",\"approach-retreat\",\"144\",\"1215842\",\"0.0-144.0\",\"\",\"\",\"2-3\",\"4917\",\"37\",\"1\",\"Training\",\"Stims/Figures/100-C-30-3.bmp\",\"na:la:na\",\"Right\",\"37\",\"9\",\"13\",\"1\",\"S\",\"C\",\"141\"
\"\",\"\",\"approach-retreat\",\"145\",\"1222234\",\"0.0-145.0\",\"\",\"\",\"2-3\",\"4881\",\"39\",\"1\",\"Training\",\"Stims/Figures/87-J-10-4.bmp\",\"pakaka\",\"Right\",\"39\",\"9\",\"14\",\"1\",\"P\",\"C\",\"142\"
\"\",\"\",\"approach-retreat\",\"146\",\"1229017\",\"0.0-146.0\",\"\",\"\",\"2-3\",\"5272\",\"39\",\"1\",\"Training\",\"Stims/Figures/118-C-20-2.bmp\",\"na:la:na\",\"Left\",\"39\",\"9\",\"15\",\"1\",\"S\",\"C\",\"143\"
\"\",\"\",\"approach-retreat\",\"147\",\"1235882\",\"0.0-147.0\",\"\",\"\",\"2-3\",\"5352\",\"38\",\"1\",\"Training\",\"Stims/Figures/19-C-20-4.bmp\",\"na:la:na\",\"Down\",\"38\",\"9\",\"16\",\"1\",\"S\",\"C\",\"144\"
\"16615\",\"\",\"instructions\",\"148\",\"1252498\",\"0.0-148.0\",\"[{\"\"page_index\"\":0,\"\"viewing_time\"\":16614}]\",\"\",\"\",\"\",\"\",\"\",\"\",\"\",\"\",\"\",\"\",\"\",\"\",\"\",\"\",\"\",\"\"
\"\",\"\",\"approach-retreat\",\"149\",\"1266706\",\"0.0-149.0\",\"\",\"\",\"2-3\",\"12701\",\"37\",\"1\",\"Testing\",\"Stims/Figures/100-C-30-3.bmp\",\"na:la:na\",\"Right\",\"37\",\"1\",\"1\",\"1\",\"S\",\"C\",\"1\"
\"\",\"\",\"approach-retreat\",\"150\",\"1274008\",\"0.0-150.0\",\"\",\"\",\"2-3\",\"5791\",\"38\",\"1\",\"Testing\",\"Stims/Figures/94-C-20-2.bmp\",\"na:la:na\",\"Down\",\"38\",\"1\",\"2\",\"1\",\"S\",\"C\",\"2\"
\"\",\"\",\"approach-retreat\",\"151\",\"1279884\",\"0.0-151.0\",\"\",\"\",\"2-3\",\"4367\",\"38\",\"1\",\"Testing\",\"Stims/Figures/87-C-20-4.bmp\",\"na:la:na\",\"Down\",\"38\",\"1\",\"3\",\"1\",\"S\",\"C\",\"3\"
\"\",\"\",\"approach-retreat\",\"152\",\"1285483\",\"0.0-152.0\",\"\",\"\",\"2-3\",\"4089\",\"40\",\"1\",\"Testing\",\"Stims/Figures/57-J-0-1.bmp\",\"pakaka\",\"Down\",\"40\",\"1\",\"4\",\"1\",\"P\",\"C\",\"4\"
\"\",\"\",\"approach-retreat\",\"153\",\"1292028\",\"0.0-153.0\",\"\",\"\",\"2-3\",\"5041\",\"39\",\"1\",\"Testing\",\"Stims/Figures/74-J-10-4.bmp\",\"pakaka\",\"Right\",\"39\",\"1\",\"5\",\"1\",\"P\",\"C\",\"5\"
\"\",\"\",\"approach-retreat\",\"154\",\"1298773\",\"0.0-154.0\",\"\",\"\",\"2-3\",\"5234\",\"39\",\"1\",\"Testing\",\"Stims/Figures/84-C-20-2.bmp\",\"na:la:na\",\"Left\",\"39\",\"1\",\"6\",\"1\",\"S\",\"C\",\"6\"
\"\",\"\",\"approach-retreat\",\"155\",\"1304734\",\"0.0-155.0\",\"\",\"\",\"2-3\",\"4452\",\"40\",\"1\",\"Testing\",\"Stims/Figures/44-J-10-3.bmp\",\"pakaka\",\"Down\",\"40\",\"1\",\"7\",\"1\",\"P\",\"C\",\"7\"
\"\",\"\",\"approach-retreat\",\"156\",\"1311028\",\"0.0-156.0\",\"\",\"\",\"2-3\",\"4782\",\"40\",\"1\",\"Testing\",\"Stims/Figures/74-C-20-4.bmp\",\"na:la:na\",\"Up\",\"40\",\"1\",\"8\",\"1\",\"S\",\"C\",\"8\"
\"\",\"\",\"approach-retreat\",\"157\",\"1317726\",\"0.0-157.0\",\"\",\"\",\"2-3\",\"5189\",\"39\",\"1\",\"Testing\",\"Stims/Figures/19-C-20-4.bmp\",\"na:la:na\",\"Left\",\"39\",\"1\",\"9\",\"1\",\"S\",\"C\",\"9\"
\"\",\"\",\"approach-retreat\",\"158\",\"1323495\",\"0.0-158.0\",\"\",\"\",\"2-3\",\"4259\",\"40\",\"1\",\"Testing\",\"Stims/Figures/118-J-0-2.bmp\",\"pakaka\",\"Down\",\"40\",\"1\",\"10\",\"1\",\"P\",\"C\",\"10\"
\"\",\"\",\"approach-retreat\",\"159\",\"1329340\",\"0.0-159.0\",\"\",\"\",\"2-3\",\"4336\",\"39\",\"1\",\"Testing\",\"Stims/Figures/44-C-30-3.bmp\",\"na:la:na\",\"Left\",\"39\",\"1\",\"11\",\"1\",\"S\",\"C\",\"11\"
\"\",\"\",\"approach-retreat\",\"160\",\"1339173\",\"0.0-160.0\",\"\",\"\",\"2-3\",\"8324\",\"39\",\"1\",\"Testing\",\"Stims/Figures/144-J-10-3.bmp\",\"pakaka\",\"Right\",\"39\",\"1\",\"12\",\"1\",\"P\",\"C\",\"12\"
\"\",\"\",\"approach-retreat\",\"161\",\"1345433\",\"0.0-161.0\",\"\",\"\",\"2-3\",\"4750\",\"38\",\"1\",\"Testing\",\"Stims/Figures/100-J-10-3.bmp\",\"pakaka\",\"Up\",\"38\",\"1\",\"13\",\"1\",\"P\",\"C\",\"13\"
\"\",\"\",\"approach-retreat\",\"162\",\"1351344\",\"0.0-162.0\",\"\",\"\",\"2-3\",\"4401\",\"38\",\"1\",\"Testing\",\"Stims/Figures/94-J-0-2.bmp\",\"pakaka\",\"Up\",\"38\",\"1\",\"14\",\"1\",\"P\",\"C\",\"14\"
\"\",\"\",\"approach-retreat\",\"163\",\"1357147\",\"0.0-163.0\",\"\",\"\",\"2-3\",\"4293\",\"37\",\"1\",\"Testing\",\"Stims/Figures/57-C-30-1.bmp\",\"na:la:na\",\"Right\",\"37\",\"1\",\"15\",\"1\",\"S\",\"C\",\"15\"
\"\",\"\",\"approach-retreat\",\"164\",\"1363665\",\"0.0-164.0\",\"\",\"\",\"2-3\",\"5009\",\"40\",\"1\",\"Testing\",\"Stims/Figures/19-J-10-4.bmp\",\"pakaka\",\"Down\",\"40\",\"1\",\"16\",\"1\",\"P\",\"C\",\"16\"
\"\",\"\",\"approach-retreat\",\"165\",\"1369806\",\"0.0-165.0\",\"\",\"\",\"2-3\",\"4628\",\"39\",\"1\",\"Testing\",\"Stims/Figures/87-J-10-4.bmp\",\"pakaka\",\"Right\",\"39\",\"1\",\"17\",\"1\",\"P\",\"C\",\"17\"
\"\",\"\",\"approach-retreat\",\"166\",\"1375562\",\"0.0-166.0\",\"\",\"\",\"2-3\",\"4247\",\"38\",\"1\",\"Testing\",\"Stims/Figures/84-J-0-2.bmp\",\"pakaka\",\"Up\",\"38\",\"1\",\"18\",\"1\",\"P\",\"C\",\"18\"
\"\",\"\",\"approach-retreat\",\"167\",\"1381781\",\"0.0-167.0\",\"\",\"\",\"2-3\",\"4699\",\"37\",\"1\",\"Testing\",\"Stims/Figures/86-J-0-1.bmp\",\"pakaka\",\"Left\",\"37\",\"1\",\"19\",\"1\",\"P\",\"C\",\"19\"
\"\",\"\",\"approach-retreat\",\"168\",\"1387562\",\"0.0-168.0\",\"\",\"\",\"2-3\",\"4271\",\"40\",\"1\",\"Testing\",\"Stims/Figures/86-C-30-1.bmp\",\"na:la:na\",\"Up\",\"40\",\"1\",\"20\",\"1\",\"S\",\"C\",\"20\"
\"\",\"\",\"approach-retreat\",\"169\",\"1393793\",\"0.0-169.0\",\"\",\"\",\"2-3\",\"4722\",\"39\",\"1\",\"Testing\",\"Stims/Figures/93-C-30-1.bmp\",\"na:la:na\",\"Left\",\"39\",\"1\",\"21\",\"1\",\"S\",\"C\",\"21\"
\"\",\"\",\"approach-retreat\",\"170\",\"1399678\",\"0.0-170.0\",\"\",\"\",\"2-3\",\"4376\",\"38\",\"1\",\"Testing\",\"Stims/Figures/93-J-0-1.bmp\",\"pakaka\",\"Up\",\"38\",\"1\",\"22\",\"1\",\"P\",\"C\",\"22\"
\"\",\"\",\"approach-retreat\",\"171\",\"1408475\",\"0.0-171.0\",\"\",\"\",\"2-3\",\"7287\",\"37\",\"1\",\"Testing\",\"Stims/Figures/118-C-20-2.bmp\",\"na:la:na\",\"Right\",\"37\",\"1\",\"23\",\"1\",\"S\",\"C\",\"23\"
\"\",\"\",\"approach-retreat\",\"172\",\"1414245\",\"0.0-172.0\",\"\",\"\",\"2-3\",\"4261\",\"39\",\"1\",\"Testing\",\"Stims/Figures/144-C-30-3.bmp\",\"na:la:na\",\"Left\",\"39\",\"1\",\"24\",\"1\",\"S\",\"C\",\"24\"
\"\",\"\",\"approach-retreat\",\"173\",\"1422351\",\"0.0-173.0\",\"\",\"\",\"2-3\",\"6595\",\"40\",\"1\",\"Testing\",\"Stims/Figures/144-J-10-3.bmp\",\"pakaka\",\"Down\",\"40\",\"2\",\"1\",\"1\",\"P\",\"C\",\"25\"
\"\",\"\",\"approach-retreat\",\"174\",\"1428607\",\"0.0-174.0\",\"\",\"\",\"2-3\",\"4749\",\"39\",\"1\",\"Testing\",\"Stims/Figures/87-J-10-4.bmp\",\"pakaka\",\"Right\",\"39\",\"2\",\"2\",\"1\",\"P\",\"C\",\"26\"
\"\",\"\",\"approach-retreat\",\"175\",\"1435072\",\"0.0-175.0\",\"\",\"\",\"2-3\",\"4955\",\"38\",\"1\",\"Testing\",\"Stims/Figures/86-J-0-1.bmp\",\"pakaka\",\"Up\",\"38\",\"2\",\"3\",\"1\",\"P\",\"C\",\"27\"
\"\",\"\",\"approach-retreat\",\"176\",\"1441075\",\"0.0-176.0\",\"\",\"\",\"2-3\",\"4496\",\"38\",\"1\",\"Testing\",\"Stims/Figures/19-C-20-4.bmp\",\"na:la:na\",\"Down\",\"38\",\"2\",\"4\",\"1\",\"S\",\"C\",\"28\"
\"\",\"\",\"approach-retreat\",\"177\",\"1446772\",\"0.0-177.0\",\"\",\"\",\"2-3\",\"4187\",\"37\",\"1\",\"Testing\",\"Stims/Figures/100-C-30-3.bmp\",\"na:la:na\",\"Right\",\"37\",\"2\",\"5\",\"1\",\"S\",\"C\",\"29\"
\"\",\"\",\"approach-retreat\",\"178\",\"1452975\",\"0.0-178.0\",\"\",\"\",\"2-3\",\"4694\",\"39\",\"0\",\"Testing\",\"Stims/Figures/74-J-10-4.bmp\",\"pakaka\",\"Left\",\"37\",\"2\",\"6\",\"1\",\"P\",\"C\",\"30\"
\"\",\"\",\"approach-retreat\",\"179\",\"1458926\",\"0.0-179.0\",\"\",\"\",\"2-3\",\"4443\",\"40\",\"1\",\"Testing\",\"Stims/Figures/94-J-0-2.bmp\",\"pakaka\",\"Down\",\"40\",\"2\",\"7\",\"1\",\"P\",\"C\",\"31\"
\"\",\"\",\"approach-retreat\",\"180\",\"1465513\",\"0.0-180.0\",\"\",\"\",\"2-3\",\"5079\",\"40\",\"1\",\"Testing\",\"Stims/Figures/57-C-30-1.bmp\",\"na:la:na\",\"Up\",\"40\",\"2\",\"8\",\"1\",\"S\",\"C\",\"32\"
\"\",\"\",\"approach-retreat\",\"181\",\"1477343\",\"0.0-181.0\",\"\",\"\",\"2-3\",\"10323\",\"39\",\"1\",\"Testing\",\"Stims/Figures/94-C-20-2.bmp\",\"na:la:na\",\"Left\",\"39\",\"2\",\"9\",\"1\",\"S\",\"C\",\"33\"
\"\",\"\",\"approach-retreat\",\"182\",\"1484757\",\"0.0-182.0\",\"\",\"\",\"2-3\",\"5904\",\"38\",\"1\",\"Testing\",\"Stims/Figures/44-C-30-3.bmp\",\"na:la:na\",\"Down\",\"38\",\"2\",\"10\",\"1\",\"S\",\"C\",\"34\"
\"\",\"\",\"approach-retreat\",\"183\",\"1493865\",\"0.0-183.0\",\"\",\"\",\"2-3\",\"7599\",\"39\",\"1\",\"Testing\",\"Stims/Figures/84-C-20-2.bmp\",\"na:la:na\",\"Left\",\"39\",\"2\",\"11\",\"1\",\"S\",\"C\",\"35\"
\"\",\"\",\"approach-retreat\",\"184\",\"1500592\",\"0.0-184.0\",\"\",\"\",\"2-3\",\"5217\",\"37\",\"1\",\"Testing\",\"Stims/Figures/144-C-30-3.bmp\",\"na:la:na\",\"Right\",\"37\",\"2\",\"12\",\"1\",\"S\",\"C\",\"36\"
\"\",\"\",\"approach-retreat\",\"185\",\"1506825\",\"0.0-185.0\",\"\",\"\",\"2-3\",\"4724\",\"40\",\"1\",\"Testing\",\"Stims/Figures/84-J-0-2.bmp\",\"pakaka\",\"Down\",\"40\",\"2\",\"13\",\"1\",\"P\",\"C\",\"37\"
\"\",\"\",\"approach-retreat\",\"186\",\"1517715\",\"0.0-186.0\",\"\",\"\",\"2-3\",\"9380\",\"40\",\"1\",\"Testing\",\"Stims/Figures/93-C-30-1.bmp\",\"na:la:na\",\"Up\",\"40\",\"2\",\"14\",\"1\",\"S\",\"C\",\"38\"
\"\",\"\",\"approach-retreat\",\"187\",\"1523737\",\"0.0-187.0\",\"\",\"\",\"2-3\",\"4513\",\"38\",\"1\",\"Testing\",\"Stims/Figures/19-J-10-4.bmp\",\"pakaka\",\"Up\",\"38\",\"2\",\"15\",\"1\",\"P\",\"C\",\"39\"
\"\",\"\",\"approach-retreat\",\"188\",\"1532653\",\"0.0-188.0\",\"\",\"\",\"2-3\",\"7405\",\"37\",\"1\",\"Testing\",\"Stims/Figures/93-J-0-1.bmp\",\"pakaka\",\"Left\",\"37\",\"2\",\"16\",\"1\",\"P\",\"C\",\"40\"
\"\",\"\",\"approach-retreat\",\"189\",\"1538543\",\"0.0-189.0\",\"\",\"\",\"2-3\",\"4381\",\"39\",\"1\",\"Testing\",\"Stims/Figures/100-J-10-3.bmp\",\"pakaka\",\"Right\",\"39\",\"2\",\"17\",\"1\",\"P\",\"C\",\"41\"
\"\",\"\",\"approach-retreat\",\"190\",\"1545040\",\"0.0-190.0\",\"\",\"\",\"2-3\",\"4990\",\"37\",\"1\",\"Testing\",\"Stims/Figures/44-J-10-3.bmp\",\"pakaka\",\"Left\",\"37\",\"2\",\"18\",\"1\",\"P\",\"C\",\"42\"
\"\",\"\",\"approach-retreat\",\"191\",\"1552040\",\"0.0-191.0\",\"\",\"\",\"2-3\",\"5488\",\"37\",\"1\",\"Testing\",\"Stims/Figures/86-C-30-1.bmp\",\"na:la:na\",\"Right\",\"37\",\"2\",\"19\",\"1\",\"S\",\"C\",\"43\"
\"\",\"\",\"approach-retreat\",\"192\",\"1558447\",\"0.0-192.0\",\"\",\"\",\"2-3\",\"4897\",\"38\",\"1\",\"Testing\",\"Stims/Figures/57-J-0-1.bmp\",\"pakaka\",\"Up\",\"38\",\"2\",\"20\",\"1\",\"P\",\"C\",\"44\"
\"\",\"\",\"approach-retreat\",\"193\",\"1565769\",\"0.0-193.0\",\"\",\"\",\"2-3\",\"5814\",\"39\",\"1\",\"Testing\",\"Stims/Figures/87-C-20-4.bmp\",\"na:la:na\",\"Left\",\"39\",\"2\",\"21\",\"1\",\"S\",\"C\",\"45\"
\"\",\"\",\"approach-retreat\",\"194\",\"1573062\",\"0.0-194.0\",\"\",\"\",\"2-3\",\"5783\",\"37\",\"1\",\"Testing\",\"Stims/Figures/74-C-20-4.bmp\",\"na:la:na\",\"Right\",\"37\",\"2\",\"22\",\"1\",\"S\",\"C\",\"46\"
\"\",\"\",\"approach-retreat\",\"195\",\"1579839\",\"0.0-195.0\",\"\",\"\",\"2-3\",\"5268\",\"40\",\"1\",\"Testing\",\"Stims/Figures/118-C-20-2.bmp\",\"na:la:na\",\"Up\",\"40\",\"2\",\"23\",\"1\",\"S\",\"C\",\"47\"
\"\",\"\",\"approach-retreat\",\"196\",\"1585747\",\"0.0-196.0\",\"\",\"\",\"2-3\",\"4399\",\"40\",\"1\",\"Testing\",\"Stims/Figures/118-J-0-2.bmp\",\"pakaka\",\"Down\",\"40\",\"2\",\"24\",\"1\",\"P\",\"C\",\"48\"
\"\",\"\",\"approach-retreat\",\"197\",\"1591594\",\"0.0-197.0\",\"\",\"\",\"2-3\",\"4337\",\"38\",\"0\",\"Testing\",\"Stims/Figures/19-J-10-4.bmp\",\"pakaka\",\"Down\",\"40\",\"3\",\"1\",\"1\",\"P\",\"C\",\"49\"
\"\",\"\",\"approach-retreat\",\"198\",\"1597452\",\"0.0-198.0\",\"\",\"\",\"2-3\",\"4347\",\"39\",\"0\",\"Testing\",\"Stims/Figures/144-J-10-3.bmp\",\"pakaka\",\"Left\",\"37\",\"3\",\"2\",\"1\",\"P\",\"C\",\"50\"
\"\",\"\",\"approach-retreat\",\"199\",\"1605991\",\"0.0-199.0\",\"\",\"\",\"2-3\",\"7030\",\"38\",\"1\",\"Testing\",\"Stims/Figures/144-C-30-3.bmp\",\"na:la:na\",\"Down\",\"38\",\"3\",\"3\",\"1\",\"S\",\"C\",\"51\"
\"\",\"\",\"approach-retreat\",\"200\",\"1612292\",\"0.0-200.0\",\"\",\"\",\"2-3\",\"4792\",\"39\",\"1\",\"Testing\",\"Stims/Figures/118-J-0-2.bmp\",\"pakaka\",\"Right\",\"39\",\"3\",\"4\",\"1\",\"P\",\"C\",\"52\"
\"\",\"\",\"approach-retreat\",\"201\",\"1618929\",\"0.0-201.0\",\"\",\"\",\"2-3\",\"5132\",\"38\",\"1\",\"Testing\",\"Stims/Figures/57-J-0-1.bmp\",\"pakaka\",\"Up\",\"38\",\"3\",\"5\",\"1\",\"P\",\"C\",\"53\"
\"\",\"\",\"approach-retreat\",\"202\",\"1627764\",\"0.0-202.0\",\"\",\"\",\"2-3\",\"7328\",\"37\",\"1\",\"Testing\",\"Stims/Figures/19-C-20-4.bmp\",\"na:la:na\",\"Right\",\"37\",\"3\",\"6\",\"1\",\"S\",\"C\",\"54\"
\"\",\"\",\"approach-retreat\",\"203\",\"1637532\",\"0.0-203.0\",\"\",\"\",\"2-3\",\"8258\",\"38\",\"0\",\"Testing\",\"Stims/Figures/100-J-10-3.bmp\",\"pakaka\",\"Down\",\"40\",\"3\",\"7\",\"1\",\"P\",\"C\",\"55\"
\"\",\"\",\"approach-retreat\",\"204\",\"1643615\",\"0.0-204.0\",\"\",\"\",\"2-3\",\"4573\",\"37\",\"0\",\"Testing\",\"Stims/Figures/87-J-10-4.bmp\",\"pakaka\",\"Right\",\"39\",\"3\",\"8\",\"1\",\"P\",\"C\",\"56\"
\"\",\"\",\"approach-retreat\",\"205\",\"1649286\",\"0.0-205.0\",\"\",\"\",\"2-3\",\"4163\",\"37\",\"1\",\"Testing\",\"Stims/Figures/118-C-20-2.bmp\",\"na:la:na\",\"Right\",\"37\",\"3\",\"9\",\"1\",\"S\",\"C\",\"57\"
\"\",\"\",\"approach-retreat\",\"206\",\"1655810\",\"0.0-206.0\",\"\",\"\",\"2-3\",\"5016\",\"38\",\"1\",\"Testing\",\"Stims/Figures/44-J-10-3.bmp\",\"pakaka\",\"Up\",\"38\",\"3\",\"10\",\"1\",\"P\",\"C\",\"58\"
\"\",\"\",\"approach-retreat\",\"207\",\"1661244\",\"0.0-207.0\",\"\",\"\",\"2-3\",\"3925\",\"37\",\"1\",\"Testing\",\"Stims/Figures/44-C-30-3.bmp\",\"na:la:na\",\"Right\",\"37\",\"3\",\"11\",\"1\",\"S\",\"C\",\"59\"
\"\",\"\",\"approach-retreat\",\"208\",\"1666794\",\"0.0-208.0\",\"\",\"\",\"2-3\",\"4042\",\"39\",\"1\",\"Testing\",\"Stims/Figures/57-C-30-1.bmp\",\"na:la:na\",\"Left\",\"39\",\"3\",\"12\",\"1\",\"S\",\"C\",\"60\"
\"\",\"\",\"approach-retreat\",\"209\",\"1672856\",\"0.0-209.0\",\"\",\"\",\"2-3\",\"4554\",\"38\",\"1\",\"Testing\",\"Stims/Figures/86-C-30-1.bmp\",\"na:la:na\",\"Down\",\"38\",\"3\",\"13\",\"1\",\"S\",\"C\",\"61\"
\"\",\"\",\"approach-retreat\",\"210\",\"1678953\",\"0.0-210.0\",\"\",\"\",\"2-3\",\"4589\",\"39\",\"1\",\"Testing\",\"Stims/Figures/87-C-20-4.bmp\",\"na:la:na\",\"Left\",\"39\",\"3\",\"14\",\"1\",\"S\",\"C\",\"62\"
\"\",\"\",\"approach-retreat\",\"211\",\"1688620\",\"0.0-211.0\",\"\",\"\",\"2-3\",\"8156\",\"40\",\"1\",\"Testing\",\"Stims/Figures/94-J-0-2.bmp\",\"pakaka\",\"Down\",\"40\",\"3\",\"15\",\"1\",\"P\",\"C\",\"63\"
\"\",\"\",\"approach-retreat\",\"212\",\"1694568\",\"0.0-212.0\",\"\",\"\",\"2-3\",\"4439\",\"37\",\"1\",\"Testing\",\"Stims/Figures/84-C-20-2.bmp\",\"na:la:na\",\"Right\",\"37\",\"3\",\"16\",\"1\",\"S\",\"C\",\"64\"
\"\",\"\",\"approach-retreat\",\"213\",\"1702496\",\"0.0-213.0\",\"\",\"\",\"2-3\",\"6419\",\"38\",\"1\",\"Testing\",\"Stims/Figures/94-C-20-2.bmp\",\"na:la:na\",\"Down\",\"38\",\"3\",\"17\",\"1\",\"S\",\"C\",\"65\"
\"\",\"\",\"approach-retreat\",\"214\",\"1709039\",\"0.0-214.0\",\"\",\"\",\"2-3\",\"5034\",\"39\",\"0\",\"Testing\",\"Stims/Figures/93-J-0-1.bmp\",\"pakaka\",\"Left\",\"37\",\"3\",\"18\",\"1\",\"P\",\"C\",\"66\"
\"\",\"\",\"approach-retreat\",\"215\",\"1715497\",\"0.0-215.0\",\"\",\"\",\"2-3\",\"4952\",\"37\",\"1\",\"Testing\",\"Stims/Figures/74-J-10-4.bmp\",\"pakaka\",\"Left\",\"37\",\"3\",\"19\",\"1\",\"P\",\"C\",\"67\"
\"\",\"\",\"approach-retreat\",\"216\",\"1721302\",\"0.0-216.0\",\"\",\"\",\"2-3\",\"4298\",\"38\",\"1\",\"Testing\",\"Stims/Figures/86-J-0-1.bmp\",\"pakaka\",\"Up\",\"38\",\"3\",\"20\",\"1\",\"P\",\"C\",\"68\"
\"\",\"\",\"approach-retreat\",\"217\",\"1727007\",\"0.0-217.0\",\"\",\"\",\"2-3\",\"4196\",\"37\",\"1\",\"Testing\",\"Stims/Figures/84-J-0-2.bmp\",\"pakaka\",\"Left\",\"37\",\"3\",\"21\",\"1\",\"P\",\"C\",\"69\"
\"\",\"\",\"approach-retreat\",\"218\",\"1734072\",\"0.0-218.0\",\"\",\"\",\"2-3\",\"5554\",\"40\",\"1\",\"Testing\",\"Stims/Figures/93-C-30-1.bmp\",\"na:la:na\",\"Up\",\"40\",\"3\",\"22\",\"1\",\"S\",\"C\",\"70\"
\"\",\"\",\"approach-retreat\",\"219\",\"1740323\",\"0.0-219.0\",\"\",\"\",\"2-3\",\"4744\",\"40\",\"1\",\"Testing\",\"Stims/Figures/100-C-30-3.bmp\",\"na:la:na\",\"Up\",\"40\",\"3\",\"23\",\"1\",\"S\",\"C\",\"71\"
\"\",\"\",\"approach-retreat\",\"220\",\"1746900\",\"0.0-220.0\",\"\",\"\",\"2-3\",\"5067\",\"40\",\"1\",\"Testing\",\"Stims/Figures/74-C-20-4.bmp\",\"na:la:na\",\"Up\",\"40\",\"3\",\"24\",\"1\",\"S\",\"C\",\"72\"
\"\",\"\",\"approach-retreat\",\"221\",\"1753028\",\"0.0-221.0\",\"\",\"\",\"2-3\",\"4617\",\"39\",\"1\",\"Testing\",\"Stims/Figures/86-C-30-1.bmp\",\"na:la:na\",\"Left\",\"39\",\"4\",\"1\",\"1\",\"S\",\"C\",\"73\"
\"\",\"\",\"approach-retreat\",\"222\",\"1758931\",\"0.0-222.0\",\"\",\"\",\"2-3\",\"4394\",\"40\",\"1\",\"Testing\",\"Stims/Figures/57-C-30-1.bmp\",\"na:la:na\",\"Up\",\"40\",\"4\",\"2\",\"1\",\"S\",\"C\",\"74\"
\"\",\"\",\"approach-retreat\",\"223\",\"1764349\",\"0.0-223.0\",\"\",\"\",\"2-3\",\"3909\",\"40\",\"1\",\"Testing\",\"Stims/Figures/19-C-20-4.bmp\",\"na:la:na\",\"Up\",\"40\",\"4\",\"3\",\"1\",\"S\",\"C\",\"75\"
\"\",\"\",\"approach-retreat\",\"224\",\"1771178\",\"0.0-224.0\",\"\",\"\",\"2-3\",\"5321\",\"37\",\"1\",\"Testing\",\"Stims/Figures/94-C-20-2.bmp\",\"na:la:na\",\"Right\",\"37\",\"4\",\"4\",\"1\",\"S\",\"C\",\"76\"
\"\",\"\",\"approach-retreat\",\"225\",\"1778695\",\"0.0-225.0\",\"\",\"\",\"2-3\",\"6007\",\"37\",\"1\",\"Testing\",\"Stims/Figures/100-J-10-3.bmp\",\"pakaka\",\"Left\",\"37\",\"4\",\"5\",\"1\",\"P\",\"C\",\"77\"
\"\",\"\",\"approach-retreat\",\"226\",\"1784215\",\"0.0-226.0\",\"\",\"\",\"2-3\",\"4010\",\"38\",\"1\",\"Testing\",\"Stims/Figures/57-J-0-1.bmp\",\"pakaka\",\"Up\",\"38\",\"4\",\"6\",\"1\",\"P\",\"C\",\"78\"
\"\",\"\",\"approach-retreat\",\"227\",\"1792750\",\"0.0-227.0\",\"\",\"\",\"2-3\",\"7027\",\"38\",\"1\",\"Testing\",\"Stims/Figures/93-C-30-1.bmp\",\"na:la:na\",\"Down\",\"38\",\"4\",\"7\",\"1\",\"S\",\"C\",\"79\"
\"\",\"\",\"approach-retreat\",\"228\",\"1801642\",\"0.0-228.0\",\"\",\"\",\"2-3\",\"7385\",\"38\",\"1\",\"Testing\",\"Stims/Figures/74-J-10-4.bmp\",\"pakaka\",\"Up\",\"38\",\"4\",\"8\",\"1\",\"P\",\"C\",\"80\"
\"\",\"\",\"approach-retreat\",\"229\",\"1807443\",\"0.0-229.0\",\"\",\"\",\"2-3\",\"4293\",\"37\",\"1\",\"Testing\",\"Stims/Figures/84-C-20-2.bmp\",\"na:la:na\",\"Right\",\"37\",\"4\",\"9\",\"1\",\"S\",\"C\",\"81\"
\"\",\"\",\"approach-retreat\",\"230\",\"1813465\",\"0.0-230.0\",\"\",\"\",\"2-3\",\"4512\",\"37\",\"1\",\"Testing\",\"Stims/Figures/144-C-30-3.bmp\",\"na:la:na\",\"Right\",\"37\",\"4\",\"10\",\"1\",\"S\",\"C\",\"82\"
\"\",\"\",\"approach-retreat\",\"231\",\"1820362\",\"0.0-231.0\",\"\",\"\",\"2-3\",\"5389\",\"40\",\"1\",\"Testing\",\"Stims/Figures/87-J-10-4.bmp\",\"pakaka\",\"Down\",\"40\",\"4\",\"11\",\"1\",\"P\",\"C\",\"83\"
\"\",\"\",\"approach-retreat\",\"232\",\"1827469\",\"0.0-232.0\",\"\",\"\",\"2-3\",\"5597\",\"39\",\"1\",\"Testing\",\"Stims/Figures/118-J-0-2.bmp\",\"pakaka\",\"Right\",\"39\",\"4\",\"12\",\"1\",\"P\",\"C\",\"84\"
\"\",\"\",\"approach-retreat\",\"233\",\"1835258\",\"0.0-233.0\",\"\",\"\",\"2-3\",\"6281\",\"40\",\"1\",\"Testing\",\"Stims/Figures/118-C-20-2.bmp\",\"na:la:na\",\"Up\",\"40\",\"4\",\"13\",\"1\",\"S\",\"C\",\"85\"
\"\",\"\",\"approach-retreat\",\"234\",\"1842182\",\"0.0-234.0\",\"\",\"\",\"2-3\",\"5416\",\"37\",\"0\",\"Testing\",\"Stims/Figures/144-J-10-3.bmp\",\"pakaka\",\"Right\",\"39\",\"4\",\"14\",\"1\",\"P\",\"C\",\"86\"
\"\",\"\",\"approach-retreat\",\"235\",\"1847923\",\"0.0-235.0\",\"\",\"\",\"2-3\",\"4232\",\"40\",\"1\",\"Testing\",\"Stims/Figures/84-J-0-2.bmp\",\"pakaka\",\"Down\",\"40\",\"4\",\"15\",\"1\",\"P\",\"C\",\"87\"
\"\",\"\",\"approach-retreat\",\"236\",\"1857398\",\"0.0-236.0\",\"\",\"\",\"2-3\",\"7966\",\"40\",\"0\",\"Testing\",\"Stims/Figures/93-J-0-1.bmp\",\"pakaka\",\"Up\",\"38\",\"4\",\"16\",\"1\",\"P\",\"C\",\"88\"
\"\",\"\",\"approach-retreat\",\"237\",\"1863001\",\"0.0-237.0\",\"\",\"\",\"2-3\",\"4093\",\"39\",\"1\",\"Testing\",\"Stims/Figures/44-C-30-3.bmp\",\"na:la:na\",\"Left\",\"39\",\"4\",\"17\",\"1\",\"S\",\"C\",\"89\"
\"\",\"\",\"approach-retreat\",\"238\",\"1869404\",\"0.0-238.0\",\"\",\"\",\"2-3\",\"4893\",\"40\",\"1\",\"Testing\",\"Stims/Figures/86-J-0-1.bmp\",\"pakaka\",\"Down\",\"40\",\"4\",\"18\",\"1\",\"P\",\"C\",\"90\"
\"\",\"\",\"approach-retreat\",\"239\",\"1875494\",\"0.0-239.0\",\"\",\"\",\"2-3\",\"4580\",\"39\",\"1\",\"Testing\",\"Stims/Figures/94-J-0-2.bmp\",\"pakaka\",\"Right\",\"39\",\"4\",\"19\",\"1\",\"P\",\"C\",\"91\"
\"\",\"\",\"approach-retreat\",\"240\",\"1883698\",\"0.0-240.0\",\"\",\"\",\"2-3\",\"6696\",\"39\",\"1\",\"Testing\",\"Stims/Figures/74-C-20-4.bmp\",\"na:la:na\",\"Left\",\"39\",\"4\",\"20\",\"1\",\"S\",\"C\",\"92\"
\"\",\"\",\"approach-retreat\",\"241\",\"1893946\",\"0.0-241.0\",\"\",\"\",\"2-3\",\"8740\",\"37\",\"1\",\"Testing\",\"Stims/Figures/19-J-10-4.bmp\",\"pakaka\",\"Left\",\"37\",\"4\",\"21\",\"1\",\"P\",\"C\",\"93\"
\"\",\"\",\"approach-retreat\",\"242\",\"1899725\",\"0.0-242.0\",\"\",\"\",\"2-3\",\"4268\",\"40\",\"1\",\"Testing\",\"Stims/Figures/44-J-10-3.bmp\",\"pakaka\",\"Down\",\"40\",\"4\",\"22\",\"1\",\"P\",\"C\",\"94\"
\"\",\"\",\"approach-retreat\",\"243\",\"1906200\",\"0.0-243.0\",\"\",\"\",\"2-3\",\"4965\",\"38\",\"1\",\"Testing\",\"Stims/Figures/87-C-20-4.bmp\",\"na:la:na\",\"Down\",\"38\",\"4\",\"23\",\"1\",\"S\",\"C\",\"95\"
\"\",\"\",\"approach-retreat\",\"244\",\"1913181\",\"0.0-244.0\",\"\",\"\",\"2-3\",\"5470\",\"39\",\"1\",\"Testing\",\"Stims/Figures/100-C-30-3.bmp\",\"na:la:na\",\"Left\",\"39\",\"4\",\"24\",\"1\",\"S\",\"C\",\"96\"
\"19754\",\"\",\"survey-text\",\"245\",\"1932943\",\"0.0-245.0\",\"\",\"{\"\"Q0\"\":\"\"PS110060\"\"}\",\"\",\"\",\"\",\"\",\"\",\"\",\"\",\"\",\"\",\"\",\"\",\"\",\"\",\"\",\"\"
