\"rt\",\"key_press\",\"trial_type\",\"trial_index\",\"time_elapsed\",\"internal_node_id\",\"view_history\",\"responses\",\"Id\",\"Rt\",\"ResKeyCode\",\"ResCorr\",\"TrialType2\",\"Image\",\"Label\",\"Location\",\"CorrectResponse\",\"Block\",\"BlockTrial\",\"Condition\",\"LabelType\",\"Subcondition\",\"trialNum\"
\"68432\",\"32\",\"text\",\"0\",\"68435\",\"0.0-0.0-0.0\",\"\",\"\",\"\",\"\",\"\",\"\",\"\",\"\",\"\",\"\",\"\",\"\",\"\",\"\",\"\",\"\",\"\"
\"81032\",\"\",\"instructions\",\"1\",\"149469\",\"0.0-1.0\",\"[{\"\"page_index\"\":0,\"\"viewing_time\"\":81031}]\",\"\",\"\",\"\",\"\",\"\",\"\",\"\",\"\",\"\",\"\",\"\",\"\",\"\",\"\",\"\",\"\"
\"18287\",\"\",\"survey-multi-choice\",\"2\",\"167793\",\"0.0-2.0\",\"\",\"{\"\"Q0\"\":\"\"Da\"\",\"\"Q1\"\":\"\"Da\"\",\"\"Q2\"\":\"\"Da\"\",\"\"Q3\"\":\"\"Da\"\",\"\"Q4\"\":\"\"Da\"\",\"\"Q5\"\":\"\"Da\"\"}\",\"\",\"\",\"\",\"\",\"\",\"\",\"\",\"\",\"\",\"\",\"\",\"\",\"\",\"\",\"\"
\"\",\"\",\"bio\",\"3\",\"176996\",\"0.0-3.0\",\"\",\"{\"\"age\"\":\"\"21\"\",\"\"gender\"\":\"\"f\"\",\"\"specify\"\":\"\"\"\"}\",\"\",\"\",\"\",\"\",\"\",\"\",\"\",\"\",\"\",\"\",\"\",\"\",\"\",\"\",\"\"
\"\",\"\",\"approach-retreat\",\"4\",\"185740\",\"0.0-4.0\",\"\",\"\",\"2-3\",\"7237\",\"40\",\"1\",\"Training\",\"Stims/Figures/44-J-10-3.bmp\",\"fa:fava\",\"Down\",\"40\",\"1\",\"1\",\"6A\",\"C1\",\"C\",\"1\"
\"\",\"\",\"approach-retreat\",\"5\",\"196412\",\"0.0-5.0\",\"\",\"\",\"2-3\",\"9161\",\"37\",\"0\",\"Training\",\"Stims/Figures/74-J-10-4.bmp\",\"vafa:sha\",\"Right\",\"39\",\"1\",\"2\",\"6A\",\"C1\",\"C\",\"2\"
\"\",\"\",\"approach-retreat\",\"6\",\"202916\",\"0.0-6.0\",\"\",\"\",\"2-3\",\"4994\",\"40\",\"1\",\"Training\",\"Stims/Figures/100-C-30-3.bmp\",\"zaha:ha\",\"Up\",\"40\",\"1\",\"3\",\"6A\",\"C2\",\"C\",\"3\"
\"\",\"\",\"approach-retreat\",\"7\",\"237793\",\"0.0-7.0\",\"\",\"\",\"2-3\",\"33366\",\"39\",\"0\",\"Training\",\"Stims/Figures/93-C-30-1.bmp\",\"sa:saza\",\"Right\",\"37\",\"1\",\"4\",\"6A\",\"C2\",\"C\",\"4\"
\"\",\"\",\"approach-retreat\",\"8\",\"246905\",\"0.0-8.0\",\"\",\"\",\"2-3\",\"7606\",\"39\",\"1\",\"Training\",\"Stims/Figures/100-J-10-3.bmp\",\"fa:shasha\",\"Right\",\"39\",\"1\",\"5\",\"6A\",\"C1\",\"C\",\"5\"
\"\",\"\",\"approach-retreat\",\"9\",\"252911\",\"0.0-9.0\",\"\",\"\",\"2-3\",\"4498\",\"40\",\"1\",\"Training\",\"Stims/Figures/85-J-0-2.bmp\",\"fa:fa:sha\",\"Down\",\"40\",\"1\",\"6\",\"6A\",\"C1\",\"C\",\"6\"
\"\",\"\",\"approach-retreat\",\"10\",\"258784\",\"0.0-10.0\",\"\",\"\",\"2-3\",\"4368\",\"40\",\"1\",\"Training\",\"Stims/Figures/84-J-0-2.bmp\",\"va:sha:sha\",\"Down\",\"40\",\"1\",\"7\",\"6A\",\"C1\",\"C\",\"7\"
\"\",\"\",\"approach-retreat\",\"11\",\"265775\",\"0.0-11.0\",\"\",\"\",\"2-3\",\"5485\",\"38\",\"1\",\"Training\",\"Stims/Figures/102-J-10-4.bmp\",\"fafa:va\",\"Up\",\"38\",\"1\",\"8\",\"6A\",\"C1\",\"C\",\"8\"
\"\",\"\",\"approach-retreat\",\"12\",\"273866\",\"0.0-12.0\",\"\",\"\",\"2-3\",\"6580\",\"39\",\"1\",\"Training\",\"Stims/Figures/44-C-30-3.bmp\",\"sa:haha\",\"Left\",\"39\",\"1\",\"9\",\"6A\",\"C2\",\"C\",\"9\"
\"\",\"\",\"approach-retreat\",\"13\",\"279830\",\"0.0-13.0\",\"\",\"\",\"2-3\",\"4458\",\"39\",\"1\",\"Training\",\"Stims/Figures/74-C-20-4.bmp\",\"sa:ha:ha\",\"Left\",\"39\",\"1\",\"10\",\"6A\",\"C2\",\"C\",\"10\"
\"\",\"\",\"approach-retreat\",\"14\",\"290190\",\"0.0-14.0\",\"\",\"\",\"2-3\",\"8849\",\"39\",\"0\",\"Training\",\"Stims/Figures/93-J-0-1.bmp\",\"va:fa:va\",\"Left\",\"37\",\"1\",\"11\",\"6A\",\"C1\",\"C\",\"11\"
\"\",\"\",\"approach-retreat\",\"15\",\"304323\",\"0.0-15.0\",\"\",\"\",\"2-3\",\"12622\",\"38\",\"1\",\"Training\",\"Stims/Figures/84-C-20-2.bmp\",\"sa:sa:za\",\"Down\",\"38\",\"1\",\"12\",\"6A\",\"C2\",\"C\",\"12\"
\"\",\"\",\"approach-retreat\",\"16\",\"315193\",\"0.0-16.0\",\"\",\"\",\"2-3\",\"9359\",\"38\",\"0\",\"Training\",\"Stims/Figures/102-C-20-4.bmp\",\"za:saza\",\"Up\",\"40\",\"1\",\"13\",\"6A\",\"C2\",\"C\",\"13\"
\"\",\"\",\"approach-retreat\",\"17\",\"327386\",\"0.0-17.0\",\"\",\"\",\"2-3\",\"10686\",\"39\",\"1\",\"Training\",\"Stims/Figures/27-C-30-1.bmp\",\"za:sa:ha\",\"Left\",\"39\",\"1\",\"14\",\"6A\",\"C2\",\"C\",\"14\"
\"\",\"\",\"approach-retreat\",\"18\",\"337704\",\"0.0-18.0\",\"\",\"\",\"2-3\",\"8807\",\"37\",\"0\",\"Training\",\"Stims/Figures/27-J-0-1.bmp\",\"vafasha\",\"Right\",\"39\",\"1\",\"15\",\"6A\",\"C1\",\"C\",\"15\"
\"\",\"\",\"approach-retreat\",\"19\",\"350622\",\"0.0-19.0\",\"\",\"\",\"2-3\",\"11408\",\"40\",\"1\",\"Training\",\"Stims/Figures/85-C-20-2.bmp\",\"za:sa:za\",\"Up\",\"40\",\"1\",\"16\",\"6A\",\"C2\",\"C\",\"16\"
\"\",\"\",\"approach-retreat\",\"20\",\"358417\",\"0.0-20.0\",\"\",\"\",\"2-3\",\"6285\",\"39\",\"1\",\"Training\",\"Stims/Figures/84-C-20-2.bmp\",\"sa:sa:za\",\"Left\",\"39\",\"2\",\"1\",\"6A\",\"C2\",\"C\",\"17\"
\"\",\"\",\"approach-retreat\",\"21\",\"366852\",\"0.0-21.0\",\"\",\"\",\"2-3\",\"6924\",\"37\",\"1\",\"Training\",\"Stims/Figures/44-J-10-3.bmp\",\"fa:fava\",\"Left\",\"37\",\"2\",\"2\",\"6A\",\"C1\",\"C\",\"18\"
\"\",\"\",\"approach-retreat\",\"22\",\"374242\",\"0.0-22.0\",\"\",\"\",\"2-3\",\"5882\",\"37\",\"1\",\"Training\",\"Stims/Figures/102-J-10-4.bmp\",\"fafa:va\",\"Left\",\"37\",\"2\",\"3\",\"6A\",\"C1\",\"C\",\"19\"
\"\",\"\",\"approach-retreat\",\"23\",\"385428\",\"0.0-23.0\",\"\",\"\",\"2-3\",\"9675\",\"40\",\"0\",\"Training\",\"Stims/Figures/100-C-30-3.bmp\",\"zaha:ha\",\"Down\",\"38\",\"2\",\"4\",\"6A\",\"C2\",\"C\",\"20\"
\"\",\"\",\"approach-retreat\",\"24\",\"397694\",\"0.0-24.0\",\"\",\"\",\"2-3\",\"10761\",\"37\",\"1\",\"Training\",\"Stims/Figures/100-J-10-3.bmp\",\"fa:shasha\",\"Left\",\"37\",\"2\",\"5\",\"6A\",\"C1\",\"C\",\"21\"
\"\",\"\",\"approach-retreat\",\"25\",\"404143\",\"0.0-25.0\",\"\",\"\",\"2-3\",\"4939\",\"39\",\"1\",\"Training\",\"Stims/Figures/74-J-10-4.bmp\",\"vafa:sha\",\"Right\",\"39\",\"2\",\"6\",\"6A\",\"C1\",\"C\",\"22\"
\"\",\"\",\"approach-retreat\",\"26\",\"410261\",\"0.0-26.0\",\"\",\"\",\"2-3\",\"4606\",\"38\",\"0\",\"Training\",\"Stims/Figures/84-J-0-2.bmp\",\"va:sha:sha\",\"Down\",\"40\",\"2\",\"7\",\"6A\",\"C1\",\"C\",\"23\"
\"\",\"\",\"approach-retreat\",\"27\",\"432017\",\"0.0-27.0\",\"\",\"\",\"2-3\",\"20248\",\"37\",\"1\",\"Training\",\"Stims/Figures/44-C-30-3.bmp\",\"sa:haha\",\"Right\",\"37\",\"2\",\"8\",\"6A\",\"C2\",\"C\",\"24\"
\"\",\"\",\"approach-retreat\",\"28\",\"439470\",\"0.0-28.0\",\"\",\"\",\"2-3\",\"5942\",\"38\",\"1\",\"Training\",\"Stims/Figures/93-C-30-1.bmp\",\"sa:saza\",\"Down\",\"38\",\"2\",\"9\",\"6A\",\"C2\",\"C\",\"25\"
\"\",\"\",\"approach-retreat\",\"29\",\"450279\",\"0.0-29.0\",\"\",\"\",\"2-3\",\"9299\",\"38\",\"1\",\"Training\",\"Stims/Figures/85-J-0-2.bmp\",\"fa:fa:sha\",\"Up\",\"38\",\"2\",\"10\",\"6A\",\"C1\",\"C\",\"26\"
\"\",\"\",\"approach-retreat\",\"30\",\"456999\",\"0.0-30.0\",\"\",\"\",\"2-3\",\"5213\",\"40\",\"1\",\"Training\",\"Stims/Figures/102-C-20-4.bmp\",\"za:saza\",\"Up\",\"40\",\"2\",\"11\",\"6A\",\"C2\",\"C\",\"27\"
\"\",\"\",\"approach-retreat\",\"31\",\"463549\",\"0.0-31.0\",\"\",\"\",\"2-3\",\"5038\",\"40\",\"1\",\"Training\",\"Stims/Figures/27-J-0-1.bmp\",\"vafasha\",\"Down\",\"40\",\"2\",\"12\",\"6A\",\"C1\",\"C\",\"28\"
\"\",\"\",\"approach-retreat\",\"32\",\"471484\",\"0.0-32.0\",\"\",\"\",\"2-3\",\"6425\",\"37\",\"1\",\"Training\",\"Stims/Figures/85-C-20-2.bmp\",\"za:sa:za\",\"Right\",\"37\",\"2\",\"13\",\"6A\",\"C2\",\"C\",\"29\"
\"\",\"\",\"approach-retreat\",\"33\",\"480893\",\"0.0-33.0\",\"\",\"\",\"2-3\",\"7902\",\"40\",\"1\",\"Training\",\"Stims/Figures/27-C-30-1.bmp\",\"za:sa:ha\",\"Up\",\"40\",\"2\",\"14\",\"6A\",\"C2\",\"C\",\"30\"
\"\",\"\",\"approach-retreat\",\"34\",\"491035\",\"0.0-34.0\",\"\",\"\",\"2-3\",\"8631\",\"38\",\"1\",\"Training\",\"Stims/Figures/93-J-0-1.bmp\",\"va:fa:va\",\"Up\",\"38\",\"2\",\"15\",\"6A\",\"C1\",\"C\",\"31\"
\"\",\"\",\"approach-retreat\",\"35\",\"500222\",\"0.0-35.0\",\"\",\"\",\"2-3\",\"7678\",\"37\",\"1\",\"Training\",\"Stims/Figures/74-C-20-4.bmp\",\"sa:ha:ha\",\"Right\",\"37\",\"2\",\"16\",\"6A\",\"C2\",\"C\",\"32\"
\"\",\"\",\"approach-retreat\",\"36\",\"508337\",\"0.0-36.0\",\"\",\"\",\"2-3\",\"6606\",\"37\",\"1\",\"Training\",\"Stims/Figures/93-C-30-1.bmp\",\"sa:saza\",\"Right\",\"37\",\"3\",\"1\",\"6A\",\"C2\",\"C\",\"33\"
\"\",\"\",\"approach-retreat\",\"37\",\"515581\",\"0.0-37.0\",\"\",\"\",\"2-3\",\"5736\",\"40\",\"1\",\"Training\",\"Stims/Figures/27-C-30-1.bmp\",\"za:sa:ha\",\"Up\",\"40\",\"3\",\"2\",\"6A\",\"C2\",\"C\",\"34\"
\"\",\"\",\"approach-retreat\",\"38\",\"521597\",\"0.0-38.0\",\"\",\"\",\"2-3\",\"4505\",\"39\",\"1\",\"Training\",\"Stims/Figures/93-J-0-1.bmp\",\"va:fa:va\",\"Right\",\"39\",\"3\",\"3\",\"6A\",\"C1\",\"C\",\"35\"
\"\",\"\",\"approach-retreat\",\"39\",\"529989\",\"0.0-39.0\",\"\",\"\",\"2-3\",\"6883\",\"38\",\"1\",\"Training\",\"Stims/Figures/85-C-20-2.bmp\",\"za:sa:za\",\"Down\",\"38\",\"3\",\"4\",\"6A\",\"C2\",\"C\",\"36\"
\"\",\"\",\"approach-retreat\",\"40\",\"536257\",\"0.0-40.0\",\"\",\"\",\"2-3\",\"4760\",\"37\",\"1\",\"Training\",\"Stims/Figures/100-J-10-3.bmp\",\"fa:shasha\",\"Left\",\"37\",\"3\",\"5\",\"6A\",\"C1\",\"C\",\"37\"
\"\",\"\",\"approach-retreat\",\"41\",\"543247\",\"0.0-41.0\",\"\",\"\",\"2-3\",\"5480\",\"38\",\"1\",\"Training\",\"Stims/Figures/84-J-0-2.bmp\",\"va:sha:sha\",\"Up\",\"38\",\"3\",\"6\",\"6A\",\"C1\",\"C\",\"38\"
\"\",\"\",\"approach-retreat\",\"42\",\"553383\",\"0.0-42.0\",\"\",\"\",\"2-3\",\"8631\",\"40\",\"1\",\"Training\",\"Stims/Figures/85-J-0-2.bmp\",\"fa:fa:sha\",\"Down\",\"40\",\"3\",\"7\",\"6A\",\"C1\",\"C\",\"39\"
\"\",\"\",\"approach-retreat\",\"43\",\"560721\",\"0.0-43.0\",\"\",\"\",\"2-3\",\"5826\",\"37\",\"1\",\"Training\",\"Stims/Figures/74-C-20-4.bmp\",\"sa:ha:ha\",\"Right\",\"37\",\"3\",\"8\",\"6A\",\"C2\",\"C\",\"40\"
\"\",\"\",\"approach-retreat\",\"44\",\"567829\",\"0.0-44.0\",\"\",\"\",\"2-3\",\"5599\",\"40\",\"1\",\"Training\",\"Stims/Figures/102-C-20-4.bmp\",\"za:saza\",\"Up\",\"40\",\"3\",\"9\",\"6A\",\"C2\",\"C\",\"41\"
\"\",\"\",\"approach-retreat\",\"45\",\"574459\",\"0.0-45.0\",\"\",\"\",\"2-3\",\"5119\",\"37\",\"1\",\"Training\",\"Stims/Figures/102-J-10-4.bmp\",\"fafa:va\",\"Left\",\"37\",\"3\",\"10\",\"6A\",\"C1\",\"C\",\"42\"
\"\",\"\",\"approach-retreat\",\"46\",\"582842\",\"0.0-46.0\",\"\",\"\",\"2-3\",\"6875\",\"39\",\"1\",\"Training\",\"Stims/Figures/74-J-10-4.bmp\",\"vafa:sha\",\"Right\",\"39\",\"3\",\"11\",\"6A\",\"C1\",\"C\",\"43\"
\"\",\"\",\"approach-retreat\",\"47\",\"591663\",\"0.0-47.0\",\"\",\"\",\"2-3\",\"7314\",\"38\",\"1\",\"Training\",\"Stims/Figures/100-C-30-3.bmp\",\"zaha:ha\",\"Down\",\"38\",\"3\",\"12\",\"6A\",\"C2\",\"C\",\"44\"
\"\",\"\",\"approach-retreat\",\"48\",\"605018\",\"0.0-48.0\",\"\",\"\",\"2-3\",\"11845\",\"37\",\"1\",\"Training\",\"Stims/Figures/44-J-10-3.bmp\",\"fa:fava\",\"Left\",\"37\",\"3\",\"13\",\"6A\",\"C1\",\"C\",\"45\"
\"\",\"\",\"approach-retreat\",\"49\",\"613119\",\"0.0-49.0\",\"\",\"\",\"2-3\",\"6595\",\"39\",\"1\",\"Training\",\"Stims/Figures/44-C-30-3.bmp\",\"sa:haha\",\"Left\",\"39\",\"3\",\"14\",\"6A\",\"C2\",\"C\",\"46\"
\"\",\"\",\"approach-retreat\",\"50\",\"623477\",\"0.0-50.0\",\"\",\"\",\"2-3\",\"8848\",\"40\",\"1\",\"Training\",\"Stims/Figures/27-J-0-1.bmp\",\"vafasha\",\"Down\",\"40\",\"3\",\"15\",\"6A\",\"C1\",\"C\",\"47\"
\"\",\"\",\"approach-retreat\",\"51\",\"633035\",\"0.0-51.0\",\"\",\"\",\"2-3\",\"8048\",\"40\",\"1\",\"Training\",\"Stims/Figures/84-C-20-2.bmp\",\"sa:sa:za\",\"Up\",\"40\",\"3\",\"16\",\"6A\",\"C2\",\"C\",\"48\"
\"\",\"\",\"approach-retreat\",\"52\",\"640063\",\"0.0-52.0\",\"\",\"\",\"2-3\",\"5521\",\"39\",\"1\",\"Training\",\"Stims/Figures/44-J-10-3.bmp\",\"fa:fava\",\"Right\",\"39\",\"4\",\"1\",\"6A\",\"C1\",\"C\",\"49\"
\"\",\"\",\"approach-retreat\",\"53\",\"646359\",\"0.0-53.0\",\"\",\"\",\"2-3\",\"4788\",\"38\",\"1\",\"Training\",\"Stims/Figures/100-J-10-3.bmp\",\"fa:shasha\",\"Up\",\"38\",\"4\",\"2\",\"6A\",\"C1\",\"C\",\"50\"
\"\",\"\",\"approach-retreat\",\"54\",\"654686\",\"0.0-54.0\",\"\",\"\",\"2-3\",\"6822\",\"39\",\"1\",\"Training\",\"Stims/Figures/102-J-10-4.bmp\",\"fafa:va\",\"Right\",\"39\",\"4\",\"3\",\"6A\",\"C1\",\"C\",\"51\"
\"\",\"\",\"approach-retreat\",\"55\",\"661466\",\"0.0-55.0\",\"\",\"\",\"2-3\",\"5271\",\"37\",\"1\",\"Training\",\"Stims/Figures/100-C-30-3.bmp\",\"zaha:ha\",\"Right\",\"37\",\"4\",\"4\",\"6A\",\"C2\",\"C\",\"52\"
\"\",\"\",\"approach-retreat\",\"56\",\"670430\",\"0.0-56.0\",\"\",\"\",\"2-3\",\"7458\",\"37\",\"1\",\"Training\",\"Stims/Figures/74-J-10-4.bmp\",\"vafa:sha\",\"Left\",\"37\",\"4\",\"5\",\"6A\",\"C1\",\"C\",\"53\"
\"\",\"\",\"approach-retreat\",\"57\",\"680677\",\"0.0-57.0\",\"\",\"\",\"2-3\",\"8738\",\"38\",\"1\",\"Training\",\"Stims/Figures/84-C-20-2.bmp\",\"sa:sa:za\",\"Down\",\"38\",\"4\",\"6\",\"6A\",\"C2\",\"C\",\"54\"
\"\",\"\",\"approach-retreat\",\"58\",\"689395\",\"0.0-58.0\",\"\",\"\",\"2-3\",\"7208\",\"39\",\"1\",\"Training\",\"Stims/Figures/93-J-0-1.bmp\",\"va:fa:va\",\"Right\",\"39\",\"4\",\"7\",\"6A\",\"C1\",\"C\",\"55\"
\"\",\"\",\"approach-retreat\",\"59\",\"695585\",\"0.0-59.0\",\"\",\"\",\"2-3\",\"4680\",\"38\",\"1\",\"Training\",\"Stims/Figures/27-J-0-1.bmp\",\"vafasha\",\"Up\",\"38\",\"4\",\"8\",\"6A\",\"C1\",\"C\",\"56\"
\"\",\"\",\"approach-retreat\",\"60\",\"702077\",\"0.0-60.0\",\"\",\"\",\"2-3\",\"4982\",\"38\",\"1\",\"Training\",\"Stims/Figures/85-C-20-2.bmp\",\"za:sa:za\",\"Down\",\"38\",\"4\",\"9\",\"6A\",\"C2\",\"C\",\"57\"
\"\",\"\",\"approach-retreat\",\"61\",\"710725\",\"0.0-61.0\",\"\",\"\",\"2-3\",\"7144\",\"40\",\"1\",\"Training\",\"Stims/Figures/93-C-30-1.bmp\",\"sa:saza\",\"Up\",\"40\",\"4\",\"10\",\"6A\",\"C2\",\"C\",\"58\"
\"\",\"\",\"approach-retreat\",\"62\",\"716783\",\"0.0-62.0\",\"\",\"\",\"2-3\",\"4547\",\"38\",\"1\",\"Training\",\"Stims/Figures/102-C-20-4.bmp\",\"za:saza\",\"Down\",\"38\",\"4\",\"11\",\"6A\",\"C2\",\"C\",\"59\"
\"\",\"\",\"approach-retreat\",\"63\",\"722867\",\"0.0-63.0\",\"\",\"\",\"2-3\",\"4577\",\"37\",\"1\",\"Training\",\"Stims/Figures/84-J-0-2.bmp\",\"va:sha:sha\",\"Left\",\"37\",\"4\",\"12\",\"6A\",\"C1\",\"C\",\"60\"
\"\",\"\",\"approach-retreat\",\"64\",\"729743\",\"0.0-64.0\",\"\",\"\",\"2-3\",\"5366\",\"40\",\"1\",\"Training\",\"Stims/Figures/27-C-30-1.bmp\",\"za:sa:ha\",\"Up\",\"40\",\"4\",\"13\",\"6A\",\"C2\",\"C\",\"61\"
\"\",\"\",\"approach-retreat\",\"65\",\"736413\",\"0.0-65.0\",\"\",\"\",\"2-3\",\"5164\",\"38\",\"1\",\"Training\",\"Stims/Figures/74-C-20-4.bmp\",\"sa:ha:ha\",\"Down\",\"38\",\"4\",\"14\",\"6A\",\"C2\",\"C\",\"62\"
\"\",\"\",\"approach-retreat\",\"66\",\"743254\",\"0.0-66.0\",\"\",\"\",\"2-3\",\"5331\",\"37\",\"1\",\"Training\",\"Stims/Figures/85-J-0-2.bmp\",\"fa:fa:sha\",\"Left\",\"37\",\"4\",\"15\",\"6A\",\"C1\",\"C\",\"63\"
\"\",\"\",\"approach-retreat\",\"67\",\"750428\",\"0.0-67.0\",\"\",\"\",\"2-3\",\"5592\",\"39\",\"1\",\"Training\",\"Stims/Figures/44-C-30-3.bmp\",\"sa:haha\",\"Left\",\"39\",\"4\",\"16\",\"6A\",\"C2\",\"C\",\"64\"
\"\",\"\",\"approach-retreat\",\"68\",\"759423\",\"0.0-68.0\",\"\",\"\",\"2-3\",\"7487\",\"37\",\"1\",\"Training\",\"Stims/Figures/102-C-20-4.bmp\",\"za:saza\",\"Right\",\"37\",\"5\",\"1\",\"6A\",\"C2\",\"C\",\"65\"
\"\",\"\",\"approach-retreat\",\"69\",\"767080\",\"0.0-69.0\",\"\",\"\",\"2-3\",\"6148\",\"40\",\"1\",\"Training\",\"Stims/Figures/44-C-30-3.bmp\",\"sa:haha\",\"Up\",\"40\",\"5\",\"2\",\"6A\",\"C2\",\"C\",\"66\"
\"\",\"\",\"approach-retreat\",\"70\",\"773853\",\"0.0-70.0\",\"\",\"\",\"2-3\",\"5262\",\"39\",\"1\",\"Training\",\"Stims/Figures/84-J-0-2.bmp\",\"va:sha:sha\",\"Right\",\"39\",\"5\",\"3\",\"6A\",\"C1\",\"C\",\"67\"
\"\",\"\",\"approach-retreat\",\"71\",\"782281\",\"0.0-71.0\",\"\",\"\",\"2-3\",\"6921\",\"40\",\"1\",\"Training\",\"Stims/Figures/27-J-0-1.bmp\",\"vafasha\",\"Down\",\"40\",\"5\",\"4\",\"6A\",\"C1\",\"C\",\"68\"
\"\",\"\",\"approach-retreat\",\"72\",\"788986\",\"0.0-72.0\",\"\",\"\",\"2-3\",\"5194\",\"39\",\"1\",\"Training\",\"Stims/Figures/74-J-10-4.bmp\",\"vafa:sha\",\"Right\",\"39\",\"5\",\"5\",\"6A\",\"C1\",\"C\",\"69\"
\"\",\"\",\"approach-retreat\",\"73\",\"798925\",\"0.0-73.0\",\"\",\"\",\"2-3\",\"8429\",\"37\",\"1\",\"Training\",\"Stims/Figures/93-J-0-1.bmp\",\"va:fa:va\",\"Left\",\"37\",\"5\",\"6\",\"6A\",\"C1\",\"C\",\"70\"
\"\",\"\",\"approach-retreat\",\"74\",\"805117\",\"0.0-74.0\",\"\",\"\",\"2-3\",\"4681\",\"38\",\"1\",\"Training\",\"Stims/Figures/84-C-20-2.bmp\",\"sa:sa:za\",\"Down\",\"38\",\"5\",\"7\",\"6A\",\"C2\",\"C\",\"71\"
\"\",\"\",\"approach-retreat\",\"75\",\"813788\",\"0.0-75.0\",\"\",\"\",\"2-3\",\"7161\",\"37\",\"1\",\"Training\",\"Stims/Figures/85-J-0-2.bmp\",\"fa:fa:sha\",\"Left\",\"37\",\"5\",\"8\",\"6A\",\"C1\",\"C\",\"72\"
\"\",\"\",\"approach-retreat\",\"76\",\"821951\",\"0.0-76.0\",\"\",\"\",\"2-3\",\"6652\",\"37\",\"1\",\"Training\",\"Stims/Figures/44-J-10-3.bmp\",\"fa:fava\",\"Left\",\"37\",\"5\",\"9\",\"6A\",\"C1\",\"C\",\"73\"
\"\",\"\",\"approach-retreat\",\"77\",\"828194\",\"0.0-77.0\",\"\",\"\",\"2-3\",\"4735\",\"38\",\"1\",\"Training\",\"Stims/Figures/74-C-20-4.bmp\",\"sa:ha:ha\",\"Down\",\"38\",\"5\",\"10\",\"6A\",\"C2\",\"C\",\"74\"
\"\",\"\",\"approach-retreat\",\"78\",\"837930\",\"0.0-78.0\",\"\",\"\",\"2-3\",\"8230\",\"40\",\"1\",\"Training\",\"Stims/Figures/27-C-30-1.bmp\",\"za:sa:ha\",\"Up\",\"40\",\"5\",\"11\",\"6A\",\"C2\",\"C\",\"75\"
\"\",\"\",\"approach-retreat\",\"79\",\"849699\",\"0.0-79.0\",\"\",\"\",\"2-3\",\"10262\",\"38\",\"1\",\"Training\",\"Stims/Figures/85-C-20-2.bmp\",\"za:sa:za\",\"Down\",\"38\",\"5\",\"12\",\"6A\",\"C2\",\"C\",\"76\"
\"\",\"\",\"approach-retreat\",\"80\",\"858975\",\"0.0-80.0\",\"\",\"\",\"2-3\",\"7764\",\"38\",\"1\",\"Training\",\"Stims/Figures/100-J-10-3.bmp\",\"fa:shasha\",\"Up\",\"38\",\"5\",\"13\",\"6A\",\"C1\",\"C\",\"77\"
\"\",\"\",\"approach-retreat\",\"81\",\"869003\",\"0.0-81.0\",\"\",\"\",\"2-3\",\"8519\",\"37\",\"1\",\"Training\",\"Stims/Figures/100-C-30-3.bmp\",\"zaha:ha\",\"Right\",\"37\",\"5\",\"14\",\"6A\",\"C2\",\"C\",\"78\"
\"\",\"\",\"approach-retreat\",\"82\",\"880256\",\"0.0-82.0\",\"\",\"\",\"2-3\",\"9741\",\"39\",\"1\",\"Training\",\"Stims/Figures/93-C-30-1.bmp\",\"sa:saza\",\"Left\",\"39\",\"5\",\"15\",\"6A\",\"C2\",\"C\",\"79\"
\"\",\"\",\"approach-retreat\",\"83\",\"886789\",\"0.0-83.0\",\"\",\"\",\"2-3\",\"5025\",\"38\",\"1\",\"Training\",\"Stims/Figures/102-J-10-4.bmp\",\"fafa:va\",\"Up\",\"38\",\"5\",\"16\",\"6A\",\"C1\",\"C\",\"80\"
\"\",\"\",\"approach-retreat\",\"84\",\"892449\",\"0.0-84.0\",\"\",\"\",\"2-3\",\"4150\",\"38\",\"1\",\"Training\",\"Stims/Figures/100-J-10-3.bmp\",\"fa:shasha\",\"Up\",\"38\",\"6\",\"1\",\"6A\",\"C1\",\"C\",\"81\"
\"\",\"\",\"approach-retreat\",\"85\",\"900911\",\"0.0-85.0\",\"\",\"\",\"2-3\",\"6952\",\"40\",\"1\",\"Training\",\"Stims/Figures/84-J-0-2.bmp\",\"va:sha:sha\",\"Down\",\"40\",\"6\",\"2\",\"6A\",\"C1\",\"C\",\"82\"
\"\",\"\",\"approach-retreat\",\"86\",\"909728\",\"0.0-86.0\",\"\",\"\",\"2-3\",\"7312\",\"37\",\"1\",\"Training\",\"Stims/Figures/102-J-10-4.bmp\",\"fafa:va\",\"Left\",\"37\",\"6\",\"3\",\"6A\",\"C1\",\"C\",\"83\"
\"\",\"\",\"approach-retreat\",\"87\",\"919339\",\"0.0-87.0\",\"\",\"\",\"2-3\",\"8102\",\"37\",\"1\",\"Training\",\"Stims/Figures/74-J-10-4.bmp\",\"vafa:sha\",\"Left\",\"37\",\"6\",\"4\",\"6A\",\"C1\",\"C\",\"84\"
\"\",\"\",\"approach-retreat\",\"88\",\"929184\",\"0.0-88.0\",\"\",\"\",\"2-3\",\"8334\",\"39\",\"1\",\"Training\",\"Stims/Figures/100-C-30-3.bmp\",\"zaha:ha\",\"Left\",\"39\",\"6\",\"5\",\"6A\",\"C2\",\"C\",\"85\"
\"\",\"\",\"approach-retreat\",\"89\",\"937748\",\"0.0-89.0\",\"\",\"\",\"2-3\",\"7055\",\"38\",\"1\",\"Training\",\"Stims/Figures/93-J-0-1.bmp\",\"va:fa:va\",\"Up\",\"38\",\"6\",\"6\",\"6A\",\"C1\",\"C\",\"86\"
\"\",\"\",\"approach-retreat\",\"90\",\"947943\",\"0.0-90.0\",\"\",\"\",\"2-3\",\"8684\",\"39\",\"1\",\"Training\",\"Stims/Figures/44-J-10-3.bmp\",\"fa:fava\",\"Right\",\"39\",\"6\",\"7\",\"6A\",\"C1\",\"C\",\"87\"
\"\",\"\",\"approach-retreat\",\"91\",\"969815\",\"0.0-91.0\",\"\",\"\",\"2-3\",\"20365\",\"40\",\"0\",\"Training\",\"Stims/Figures/85-C-20-2.bmp\",\"za:sa:za\",\"Down\",\"38\",\"6\",\"8\",\"6A\",\"C2\",\"C\",\"88\"
\"\",\"\",\"approach-retreat\",\"92\",\"976460\",\"0.0-92.0\",\"\",\"\",\"2-3\",\"5134\",\"39\",\"1\",\"Training\",\"Stims/Figures/84-C-20-2.bmp\",\"sa:sa:za\",\"Left\",\"39\",\"6\",\"9\",\"6A\",\"C2\",\"C\",\"89\"
\"\",\"\",\"approach-retreat\",\"93\",\"984665\",\"0.0-93.0\",\"\",\"\",\"2-3\",\"6700\",\"39\",\"1\",\"Training\",\"Stims/Figures/27-J-0-1.bmp\",\"vafasha\",\"Right\",\"39\",\"6\",\"10\",\"6A\",\"C1\",\"C\",\"90\"
\"\",\"\",\"approach-retreat\",\"94\",\"991487\",\"0.0-94.0\",\"\",\"\",\"2-3\",\"5311\",\"40\",\"1\",\"Training\",\"Stims/Figures/44-C-30-3.bmp\",\"sa:haha\",\"Up\",\"40\",\"6\",\"11\",\"6A\",\"C2\",\"C\",\"91\"
\"\",\"\",\"approach-retreat\",\"95\",\"1001052\",\"0.0-95.0\",\"\",\"\",\"2-3\",\"8054\",\"38\",\"1\",\"Training\",\"Stims/Figures/102-C-20-4.bmp\",\"za:saza\",\"Down\",\"38\",\"6\",\"12\",\"6A\",\"C2\",\"C\",\"92\"
\"\",\"\",\"approach-retreat\",\"96\",\"1007245\",\"0.0-96.0\",\"\",\"\",\"2-3\",\"4683\",\"37\",\"1\",\"Training\",\"Stims/Figures/27-C-30-1.bmp\",\"za:sa:ha\",\"Right\",\"37\",\"6\",\"13\",\"6A\",\"C2\",\"C\",\"93\"
\"\",\"\",\"approach-retreat\",\"97\",\"1015063\",\"0.0-97.0\",\"\",\"\",\"2-3\",\"6310\",\"37\",\"1\",\"Training\",\"Stims/Figures/93-C-30-1.bmp\",\"sa:saza\",\"Right\",\"37\",\"6\",\"14\",\"6A\",\"C2\",\"C\",\"94\"
\"\",\"\",\"approach-retreat\",\"98\",\"1025639\",\"0.0-98.0\",\"\",\"\",\"2-3\",\"9070\",\"40\",\"1\",\"Training\",\"Stims/Figures/85-J-0-2.bmp\",\"fa:fa:sha\",\"Down\",\"40\",\"6\",\"15\",\"6A\",\"C1\",\"C\",\"95\"
\"\",\"\",\"approach-retreat\",\"99\",\"1034231\",\"0.0-99.0\",\"\",\"\",\"2-3\",\"7082\",\"40\",\"1\",\"Training\",\"Stims/Figures/74-C-20-4.bmp\",\"sa:ha:ha\",\"Up\",\"40\",\"6\",\"16\",\"6A\",\"C2\",\"C\",\"96\"
\"\",\"\",\"approach-retreat\",\"100\",\"1040628\",\"0.0-100.0\",\"\",\"\",\"2-3\",\"4887\",\"38\",\"1\",\"Training\",\"Stims/Figures/27-C-30-1.bmp\",\"za:sa:ha\",\"Down\",\"38\",\"7\",\"1\",\"6A\",\"C2\",\"C\",\"97\"
\"\",\"\",\"approach-retreat\",\"101\",\"1049476\",\"0.0-101.0\",\"\",\"\",\"2-3\",\"7342\",\"38\",\"1\",\"Training\",\"Stims/Figures/100-C-30-3.bmp\",\"zaha:ha\",\"Down\",\"38\",\"7\",\"2\",\"6A\",\"C2\",\"C\",\"98\"
\"\",\"\",\"approach-retreat\",\"102\",\"1055644\",\"0.0-102.0\",\"\",\"\",\"2-3\",\"4656\",\"39\",\"1\",\"Training\",\"Stims/Figures/84-C-20-2.bmp\",\"sa:sa:za\",\"Left\",\"39\",\"7\",\"3\",\"6A\",\"C2\",\"C\",\"99\"
\"\",\"\",\"approach-retreat\",\"103\",\"1062347\",\"0.0-103.0\",\"\",\"\",\"2-3\",\"5193\",\"40\",\"1\",\"Training\",\"Stims/Figures/44-C-30-3.bmp\",\"sa:haha\",\"Up\",\"40\",\"7\",\"4\",\"6A\",\"C2\",\"C\",\"100\"
\"\",\"\",\"approach-retreat\",\"104\",\"1068325\",\"0.0-104.0\",\"\",\"\",\"2-3\",\"4469\",\"39\",\"1\",\"Training\",\"Stims/Figures/85-C-20-2.bmp\",\"za:sa:za\",\"Left\",\"39\",\"7\",\"5\",\"6A\",\"C2\",\"C\",\"101\"
\"\",\"\",\"approach-retreat\",\"105\",\"1076337\",\"0.0-105.0\",\"\",\"\",\"2-3\",\"6499\",\"38\",\"1\",\"Training\",\"Stims/Figures/102-J-10-4.bmp\",\"fafa:va\",\"Up\",\"38\",\"7\",\"6\",\"6A\",\"C1\",\"C\",\"102\"
\"\",\"\",\"approach-retreat\",\"106\",\"1086224\",\"0.0-106.0\",\"\",\"\",\"2-3\",\"8380\",\"39\",\"1\",\"Training\",\"Stims/Figures/100-J-10-3.bmp\",\"fa:shasha\",\"Right\",\"39\",\"7\",\"7\",\"6A\",\"C1\",\"C\",\"103\"
\"\",\"\",\"approach-retreat\",\"107\",\"1094658\",\"0.0-107.0\",\"\",\"\",\"2-3\",\"6924\",\"37\",\"1\",\"Training\",\"Stims/Figures/85-J-0-2.bmp\",\"fa:fa:sha\",\"Left\",\"37\",\"7\",\"8\",\"6A\",\"C1\",\"C\",\"104\"
\"\",\"\",\"approach-retreat\",\"108\",\"1101840\",\"0.0-108.0\",\"\",\"\",\"2-3\",\"5675\",\"38\",\"1\",\"Training\",\"Stims/Figures/74-C-20-4.bmp\",\"sa:ha:ha\",\"Down\",\"38\",\"7\",\"9\",\"6A\",\"C2\",\"C\",\"105\"
\"\",\"\",\"approach-retreat\",\"109\",\"1109613\",\"0.0-109.0\",\"\",\"\",\"2-3\",\"6260\",\"38\",\"1\",\"Training\",\"Stims/Figures/93-J-0-1.bmp\",\"va:fa:va\",\"Up\",\"38\",\"7\",\"10\",\"6A\",\"C1\",\"C\",\"106\"
\"\",\"\",\"approach-retreat\",\"110\",\"1125036\",\"0.0-110.0\",\"\",\"\",\"2-3\",\"13912\",\"39\",\"1\",\"Training\",\"Stims/Figures/102-C-20-4.bmp\",\"za:saza\",\"Left\",\"39\",\"7\",\"11\",\"6A\",\"C2\",\"C\",\"107\"
\"\",\"\",\"approach-retreat\",\"111\",\"1131484\",\"0.0-111.0\",\"\",\"\",\"2-3\",\"4942\",\"39\",\"1\",\"Training\",\"Stims/Figures/74-J-10-4.bmp\",\"vafa:sha\",\"Right\",\"39\",\"7\",\"12\",\"6A\",\"C1\",\"C\",\"108\"
\"\",\"\",\"approach-retreat\",\"112\",\"1138121\",\"0.0-112.0\",\"\",\"\",\"2-3\",\"5127\",\"38\",\"1\",\"Training\",\"Stims/Figures/84-J-0-2.bmp\",\"va:sha:sha\",\"Up\",\"38\",\"7\",\"13\",\"6A\",\"C1\",\"C\",\"109\"
\"\",\"\",\"approach-retreat\",\"113\",\"1145045\",\"0.0-113.0\",\"\",\"\",\"2-3\",\"5412\",\"39\",\"1\",\"Training\",\"Stims/Figures/44-J-10-3.bmp\",\"fa:fava\",\"Right\",\"39\",\"7\",\"14\",\"6A\",\"C1\",\"C\",\"110\"
\"\",\"\",\"approach-retreat\",\"114\",\"1152707\",\"0.0-114.0\",\"\",\"\",\"2-3\",\"6156\",\"40\",\"1\",\"Training\",\"Stims/Figures/27-J-0-1.bmp\",\"vafasha\",\"Down\",\"40\",\"7\",\"15\",\"6A\",\"C1\",\"C\",\"111\"
\"\",\"\",\"approach-retreat\",\"115\",\"1160637\",\"0.0-115.0\",\"\",\"\",\"2-3\",\"6420\",\"37\",\"1\",\"Training\",\"Stims/Figures/93-C-30-1.bmp\",\"sa:saza\",\"Right\",\"37\",\"7\",\"16\",\"6A\",\"C2\",\"C\",\"112\"
\"\",\"\",\"approach-retreat\",\"116\",\"1166815\",\"0.0-116.0\",\"\",\"\",\"2-3\",\"4667\",\"38\",\"1\",\"Training\",\"Stims/Figures/84-J-0-2.bmp\",\"va:sha:sha\",\"Up\",\"38\",\"8\",\"1\",\"6A\",\"C1\",\"C\",\"113\"
\"\",\"\",\"approach-retreat\",\"117\",\"1173023\",\"0.0-117.0\",\"\",\"\",\"2-3\",\"4698\",\"39\",\"1\",\"Training\",\"Stims/Figures/100-C-30-3.bmp\",\"zaha:ha\",\"Left\",\"39\",\"8\",\"2\",\"6A\",\"C2\",\"C\",\"114\"
\"\",\"\",\"approach-retreat\",\"118\",\"1179229\",\"0.0-118.0\",\"\",\"\",\"2-3\",\"4696\",\"37\",\"1\",\"Training\",\"Stims/Figures/85-J-0-2.bmp\",\"fa:fa:sha\",\"Left\",\"37\",\"8\",\"3\",\"6A\",\"C1\",\"C\",\"115\"
\"\",\"\",\"approach-retreat\",\"119\",\"1187268\",\"0.0-119.0\",\"\",\"\",\"2-3\",\"6532\",\"40\",\"1\",\"Training\",\"Stims/Figures/44-J-10-3.bmp\",\"fa:fava\",\"Down\",\"40\",\"8\",\"4\",\"6A\",\"C1\",\"C\",\"116\"
\"\",\"\",\"approach-retreat\",\"120\",\"1197670\",\"0.0-120.0\",\"\",\"\",\"2-3\",\"8892\",\"39\",\"1\",\"Training\",\"Stims/Figures/27-J-0-1.bmp\",\"vafasha\",\"Right\",\"39\",\"8\",\"5\",\"6A\",\"C1\",\"C\",\"117\"
\"\",\"\",\"approach-retreat\",\"121\",\"1206431\",\"0.0-121.0\",\"\",\"\",\"2-3\",\"7255\",\"37\",\"1\",\"Training\",\"Stims/Figures/100-J-10-3.bmp\",\"fa:shasha\",\"Left\",\"37\",\"8\",\"6\",\"6A\",\"C1\",\"C\",\"118\"
\"\",\"\",\"approach-retreat\",\"122\",\"1212675\",\"0.0-122.0\",\"\",\"\",\"2-3\",\"4740\",\"40\",\"1\",\"Training\",\"Stims/Figures/44-C-30-3.bmp\",\"sa:haha\",\"Up\",\"40\",\"8\",\"7\",\"6A\",\"C2\",\"C\",\"119\"
\"\",\"\",\"approach-retreat\",\"123\",\"1218607\",\"0.0-123.0\",\"\",\"\",\"2-3\",\"4422\",\"39\",\"0\",\"Training\",\"Stims/Figures/27-C-30-1.bmp\",\"za:sa:ha\",\"Right\",\"37\",\"8\",\"8\",\"6A\",\"C2\",\"C\",\"120\"
\"\",\"\",\"approach-retreat\",\"124\",\"1224658\",\"0.0-124.0\",\"\",\"\",\"2-3\",\"4543\",\"39\",\"1\",\"Training\",\"Stims/Figures/102-J-10-4.bmp\",\"fafa:va\",\"Right\",\"39\",\"8\",\"9\",\"6A\",\"C1\",\"C\",\"121\"
\"\",\"\",\"approach-retreat\",\"125\",\"1233062\",\"0.0-125.0\",\"\",\"\",\"2-3\",\"6893\",\"37\",\"1\",\"Training\",\"Stims/Figures/74-C-20-4.bmp\",\"sa:ha:ha\",\"Right\",\"37\",\"8\",\"10\",\"6A\",\"C2\",\"C\",\"122\"
\"\",\"\",\"approach-retreat\",\"126\",\"1239421\",\"0.0-126.0\",\"\",\"\",\"2-3\",\"4851\",\"40\",\"1\",\"Training\",\"Stims/Figures/84-C-20-2.bmp\",\"sa:sa:za\",\"Up\",\"40\",\"8\",\"11\",\"6A\",\"C2\",\"C\",\"123\"
\"\",\"\",\"approach-retreat\",\"127\",\"1248935\",\"0.0-127.0\",\"\",\"\",\"2-3\",\"8004\",\"40\",\"1\",\"Training\",\"Stims/Figures/85-C-20-2.bmp\",\"za:sa:za\",\"Up\",\"40\",\"8\",\"12\",\"6A\",\"C2\",\"C\",\"124\"
\"\",\"\",\"approach-retreat\",\"128\",\"1255273\",\"0.0-128.0\",\"\",\"\",\"2-3\",\"4829\",\"40\",\"1\",\"Training\",\"Stims/Figures/93-J-0-1.bmp\",\"va:fa:va\",\"Down\",\"40\",\"8\",\"13\",\"6A\",\"C1\",\"C\",\"125\"
\"\",\"\",\"approach-retreat\",\"129\",\"1262330\",\"0.0-129.0\",\"\",\"\",\"2-3\",\"5546\",\"39\",\"1\",\"Training\",\"Stims/Figures/93-C-30-1.bmp\",\"sa:saza\",\"Left\",\"39\",\"8\",\"14\",\"6A\",\"C2\",\"C\",\"126\"
\"\",\"\",\"approach-retreat\",\"130\",\"1271073\",\"0.0-130.0\",\"\",\"\",\"2-3\",\"7236\",\"40\",\"1\",\"Training\",\"Stims/Figures/74-J-10-4.bmp\",\"vafa:sha\",\"Down\",\"40\",\"8\",\"15\",\"6A\",\"C1\",\"C\",\"127\"
\"\",\"\",\"approach-retreat\",\"131\",\"1279451\",\"0.0-131.0\",\"\",\"\",\"2-3\",\"6868\",\"38\",\"1\",\"Training\",\"Stims/Figures/102-C-20-4.bmp\",\"za:saza\",\"Down\",\"38\",\"8\",\"16\",\"6A\",\"C2\",\"C\",\"128\"
\"\",\"\",\"approach-retreat\",\"132\",\"1285865\",\"0.0-132.0\",\"\",\"\",\"2-3\",\"4904\",\"40\",\"1\",\"Training\",\"Stims/Figures/44-J-10-3.bmp\",\"fa:fava\",\"Down\",\"40\",\"9\",\"1\",\"6A\",\"C1\",\"C\",\"129\"
\"\",\"\",\"approach-retreat\",\"133\",\"1293011\",\"0.0-133.0\",\"\",\"\",\"2-3\",\"5634\",\"39\",\"1\",\"Training\",\"Stims/Figures/102-J-10-4.bmp\",\"fafa:va\",\"Right\",\"39\",\"9\",\"2\",\"6A\",\"C1\",\"C\",\"130\"
\"\",\"\",\"approach-retreat\",\"134\",\"1301663\",\"0.0-134.0\",\"\",\"\",\"2-3\",\"7145\",\"39\",\"1\",\"Training\",\"Stims/Figures/84-C-20-2.bmp\",\"sa:sa:za\",\"Left\",\"39\",\"9\",\"3\",\"6A\",\"C2\",\"C\",\"131\"
\"\",\"\",\"approach-retreat\",\"135\",\"1315304\",\"0.0-135.0\",\"\",\"\",\"2-3\",\"12131\",\"40\",\"1\",\"Training\",\"Stims/Figures/84-J-0-2.bmp\",\"va:sha:sha\",\"Down\",\"40\",\"9\",\"4\",\"6A\",\"C1\",\"C\",\"132\"
\"\",\"\",\"approach-retreat\",\"136\",\"1322415\",\"0.0-136.0\",\"\",\"\",\"2-3\",\"5602\",\"40\",\"1\",\"Training\",\"Stims/Figures/100-C-30-3.bmp\",\"zaha:ha\",\"Up\",\"40\",\"9\",\"5\",\"6A\",\"C2\",\"C\",\"133\"
\"\",\"\",\"approach-retreat\",\"137\",\"1332749\",\"0.0-137.0\",\"\",\"\",\"2-3\",\"8825\",\"40\",\"1\",\"Training\",\"Stims/Figures/100-J-10-3.bmp\",\"fa:shasha\",\"Down\",\"40\",\"9\",\"6\",\"6A\",\"C1\",\"C\",\"134\"
\"\",\"\",\"approach-retreat\",\"138\",\"1339138\",\"0.0-138.0\",\"\",\"\",\"2-3\",\"4880\",\"39\",\"1\",\"Training\",\"Stims/Figures/102-C-20-4.bmp\",\"za:saza\",\"Left\",\"39\",\"9\",\"7\",\"6A\",\"C2\",\"C\",\"135\"
\"\",\"\",\"approach-retreat\",\"139\",\"1347215\",\"0.0-139.0\",\"\",\"\",\"2-3\",\"6567\",\"39\",\"1\",\"Training\",\"Stims/Figures/27-J-0-1.bmp\",\"vafasha\",\"Right\",\"39\",\"9\",\"8\",\"6A\",\"C1\",\"C\",\"136\"
\"\",\"\",\"approach-retreat\",\"140\",\"1355548\",\"0.0-140.0\",\"\",\"\",\"2-3\",\"6823\",\"38\",\"1\",\"Training\",\"Stims/Figures/44-C-30-3.bmp\",\"sa:haha\",\"Down\",\"38\",\"9\",\"9\",\"6A\",\"C2\",\"C\",\"137\"
\"\",\"\",\"approach-retreat\",\"141\",\"1368269\",\"0.0-141.0\",\"\",\"\",\"2-3\",\"11212\",\"37\",\"1\",\"Training\",\"Stims/Figures/93-J-0-1.bmp\",\"va:fa:va\",\"Left\",\"37\",\"9\",\"10\",\"6A\",\"C1\",\"C\",\"138\"
\"\",\"\",\"approach-retreat\",\"142\",\"1374348\",\"0.0-142.0\",\"\",\"\",\"2-3\",\"4569\",\"38\",\"1\",\"Training\",\"Stims/Figures/85-J-0-2.bmp\",\"fa:fa:sha\",\"Up\",\"38\",\"9\",\"11\",\"6A\",\"C1\",\"C\",\"139\"
\"\",\"\",\"approach-retreat\",\"143\",\"1381834\",\"0.0-143.0\",\"\",\"\",\"2-3\",\"5975\",\"37\",\"1\",\"Training\",\"Stims/Figures/27-C-30-1.bmp\",\"za:sa:ha\",\"Right\",\"37\",\"9\",\"12\",\"6A\",\"C2\",\"C\",\"140\"
\"\",\"\",\"approach-retreat\",\"144\",\"1389810\",\"0.0-144.0\",\"\",\"\",\"2-3\",\"6469\",\"38\",\"1\",\"Training\",\"Stims/Figures/74-J-10-4.bmp\",\"vafa:sha\",\"Up\",\"38\",\"9\",\"13\",\"6A\",\"C1\",\"C\",\"141\"
\"\",\"\",\"approach-retreat\",\"145\",\"1396227\",\"0.0-145.0\",\"\",\"\",\"2-3\",\"4906\",\"39\",\"1\",\"Training\",\"Stims/Figures/93-C-30-1.bmp\",\"sa:saza\",\"Left\",\"39\",\"9\",\"14\",\"6A\",\"C2\",\"C\",\"142\"
\"\",\"\",\"approach-retreat\",\"146\",\"1435966\",\"0.0-146.0\",\"\",\"\",\"2-3\",\"38231\",\"40\",\"1\",\"Training\",\"Stims/Figures/74-C-20-4.bmp\",\"sa:ha:ha\",\"Up\",\"40\",\"9\",\"15\",\"6A\",\"C2\",\"C\",\"143\"
\"\",\"\",\"approach-retreat\",\"147\",\"1483919\",\"0.0-147.0\",\"\",\"\",\"2-3\",\"46445\",\"37\",\"1\",\"Training\",\"Stims/Figures/85-C-20-2.bmp\",\"za:sa:za\",\"Right\",\"37\",\"9\",\"16\",\"6A\",\"C2\",\"C\",\"144\"
\"12608\",\"\",\"instructions\",\"148\",\"1496527\",\"0.0-148.0\",\"[{\"\"page_index\"\":0,\"\"viewing_time\"\":12607}]\",\"\",\"\",\"\",\"\",\"\",\"\",\"\",\"\",\"\",\"\",\"\",\"\",\"\",\"\",\"\",\"\"
\"\",\"\",\"approach-retreat\",\"149\",\"1505155\",\"0.0-149.0\",\"\",\"\",\"2-3\",\"7119\",\"37\",\"1\",\"Testing\",\"Stims/Figures/84-J-0-2.bmp\",\"va:sha:sha\",\"Left\",\"37\",\"1\",\"1\",\"6A\",\"C1\",\"C\",\"1\"
\"\",\"\",\"approach-retreat\",\"150\",\"1511567\",\"0.0-150.0\",\"\",\"\",\"2-3\",\"4902\",\"38\",\"1\",\"Testing\",\"Stims/Figures/118-C-20-2.bmp\",\"sasa:ha\",\"Down\",\"38\",\"1\",\"2\",\"6A\",\"C2\",\"C\",\"2\"
\"\",\"\",\"approach-retreat\",\"151\",\"1518870\",\"0.0-151.0\",\"\",\"\",\"2-3\",\"5794\",\"39\",\"1\",\"Testing\",\"Stims/Figures/93-J-0-1.bmp\",\"va:fa:va\",\"Right\",\"39\",\"1\",\"3\",\"6A\",\"C1\",\"C\",\"3\"
\"\",\"\",\"approach-retreat\",\"152\",\"1532154\",\"0.0-152.0\",\"\",\"\",\"2-3\",\"11775\",\"40\",\"1\",\"Testing\",\"Stims/Figures/74-J-10-4.bmp\",\"vafa:sha\",\"Down\",\"40\",\"1\",\"4\",\"6A\",\"C1\",\"C\",\"4\"
\"\",\"\",\"approach-retreat\",\"153\",\"1541164\",\"0.0-153.0\",\"\",\"\",\"2-3\",\"7501\",\"40\",\"1\",\"Testing\",\"Stims/Figures/87-J-10-4.bmp\",\"va:sha:va\",\"Down\",\"40\",\"1\",\"5\",\"6A\",\"C1\",\"C\",\"5\"
\"\",\"\",\"approach-retreat\",\"154\",\"1547887\",\"0.0-154.0\",\"\",\"\",\"2-3\",\"5216\",\"38\",\"1\",\"Testing\",\"Stims/Figures/102-J-10-4.bmp\",\"fafa:va\",\"Up\",\"38\",\"1\",\"6\",\"6A\",\"C1\",\"C\",\"6\"
\"\",\"\",\"approach-retreat\",\"155\",\"1554095\",\"0.0-155.0\",\"\",\"\",\"2-3\",\"4699\",\"38\",\"1\",\"Testing\",\"Stims/Figures/71-C-30-1.bmp\",\"zasa:ha\",\"Down\",\"38\",\"1\",\"7\",\"6A\",\"C2\",\"C\",\"7\"
\"\",\"\",\"approach-retreat\",\"156\",\"1560226\",\"0.0-156.0\",\"\",\"\",\"2-3\",\"4622\",\"37\",\"1\",\"Testing\",\"Stims/Figures/27-J-0-1.bmp\",\"vafasha\",\"Left\",\"37\",\"1\",\"8\",\"6A\",\"C1\",\"C\",\"8\"
\"\",\"\",\"approach-retreat\",\"157\",\"1566248\",\"0.0-157.0\",\"\",\"\",\"2-3\",\"4512\",\"37\",\"1\",\"Testing\",\"Stims/Figures/85-C-20-2.bmp\",\"za:sa:za\",\"Right\",\"37\",\"1\",\"9\",\"6A\",\"C2\",\"C\",\"9\"
\"\",\"\",\"approach-retreat\",\"158\",\"1575233\",\"0.0-158.0\",\"\",\"\",\"2-3\",\"7475\",\"37\",\"0\",\"Testing\",\"Stims/Figures/44-J-10-3.bmp\",\"fa:fava\",\"Right\",\"39\",\"1\",\"10\",\"6A\",\"C1\",\"C\",\"10\"
\"\",\"\",\"approach-retreat\",\"159\",\"1583781\",\"0.0-159.0\",\"\",\"\",\"2-3\",\"7040\",\"39\",\"1\",\"Testing\",\"Stims/Figures/74-C-20-4.bmp\",\"sa:ha:ha\",\"Left\",\"39\",\"1\",\"11\",\"6A\",\"C2\",\"C\",\"11\"
\"\",\"\",\"approach-retreat\",\"160\",\"1590091\",\"0.0-160.0\",\"\",\"\",\"2-3\",\"4801\",\"39\",\"1\",\"Testing\",\"Stims/Figures/85-J-0-2.bmp\",\"fa:fa:sha\",\"Right\",\"39\",\"1\",\"12\",\"6A\",\"C1\",\"C\",\"12\"
\"\",\"\",\"approach-retreat\",\"161\",\"1601037\",\"0.0-161.0\",\"\",\"\",\"2-3\",\"9438\",\"37\",\"0\",\"Testing\",\"Stims/Figures/100-J-10-3.bmp\",\"fa:shasha\",\"Right\",\"39\",\"1\",\"13\",\"6A\",\"C1\",\"C\",\"13\"
\"\",\"\",\"approach-retreat\",\"162\",\"1607660\",\"0.0-162.0\",\"\",\"\",\"2-3\",\"5113\",\"40\",\"1\",\"Testing\",\"Stims/Figures/87-C-20-4.bmp\",\"za:haha\",\"Up\",\"40\",\"1\",\"14\",\"6A\",\"C2\",\"C\",\"14\"
\"\",\"\",\"approach-retreat\",\"163\",\"1615089\",\"0.0-163.0\",\"\",\"\",\"2-3\",\"5925\",\"38\",\"1\",\"Testing\",\"Stims/Figures/84-C-20-2.bmp\",\"sa:sa:za\",\"Down\",\"38\",\"1\",\"15\",\"6A\",\"C2\",\"C\",\"15\"
\"\",\"\",\"approach-retreat\",\"164\",\"1621343\",\"0.0-164.0\",\"\",\"\",\"2-3\",\"4744\",\"37\",\"1\",\"Testing\",\"Stims/Figures/118-J-0-2.bmp\",\"va:shava\",\"Left\",\"37\",\"1\",\"16\",\"6A\",\"C1\",\"C\",\"16\"
\"\",\"\",\"approach-retreat\",\"165\",\"1628256\",\"0.0-165.0\",\"\",\"\",\"2-3\",\"5401\",\"38\",\"1\",\"Testing\",\"Stims/Figures/71-J-0-1.bmp\",\"va:fasha\",\"Up\",\"38\",\"1\",\"17\",\"6A\",\"C1\",\"C\",\"17\"
\"\",\"\",\"approach-retreat\",\"166\",\"1634566\",\"0.0-166.0\",\"\",\"\",\"2-3\",\"4801\",\"40\",\"1\",\"Testing\",\"Stims/Figures/44-C-30-3.bmp\",\"sa:haha\",\"Up\",\"40\",\"1\",\"18\",\"6A\",\"C2\",\"C\",\"18\"
\"\",\"\",\"approach-retreat\",\"167\",\"1640263\",\"0.0-167.0\",\"\",\"\",\"2-3\",\"4185\",\"39\",\"1\",\"Testing\",\"Stims/Figures/102-C-20-4.bmp\",\"za:saza\",\"Left\",\"39\",\"1\",\"19\",\"6A\",\"C2\",\"C\",\"19\"
\"\",\"\",\"approach-retreat\",\"168\",\"1647748\",\"0.0-168.0\",\"\",\"\",\"2-3\",\"5975\",\"40\",\"1\",\"Testing\",\"Stims/Figures/128-C-30-3.bmp\",\"za:haza\",\"Up\",\"40\",\"1\",\"20\",\"6A\",\"C2\",\"C\",\"20\"
\"\",\"\",\"approach-retreat\",\"169\",\"1653773\",\"0.0-169.0\",\"\",\"\",\"2-3\",\"4516\",\"40\",\"1\",\"Testing\",\"Stims/Figures/100-C-30-3.bmp\",\"zaha:ha\",\"Up\",\"40\",\"1\",\"21\",\"6A\",\"C2\",\"C\",\"21\"
\"\",\"\",\"approach-retreat\",\"170\",\"1660001\",\"0.0-170.0\",\"\",\"\",\"2-3\",\"4724\",\"38\",\"1\",\"Testing\",\"Stims/Figures/27-C-30-1.bmp\",\"za:sa:ha\",\"Down\",\"38\",\"1\",\"22\",\"6A\",\"C2\",\"C\",\"22\"
\"\",\"\",\"approach-retreat\",\"171\",\"1665774\",\"0.0-171.0\",\"\",\"\",\"2-3\",\"4264\",\"37\",\"1\",\"Testing\",\"Stims/Figures/93-C-30-1.bmp\",\"sa:saza\",\"Right\",\"37\",\"1\",\"23\",\"6A\",\"C2\",\"C\",\"23\"
\"\",\"\",\"approach-retreat\",\"172\",\"1672386\",\"0.0-172.0\",\"\",\"\",\"2-3\",\"5102\",\"37\",\"1\",\"Testing\",\"Stims/Figures/128-J-10-3.bmp\",\"fa:sha:va\",\"Left\",\"37\",\"1\",\"24\",\"6A\",\"C1\",\"C\",\"24\"
\"\",\"\",\"approach-retreat\",\"173\",\"1678469\",\"0.0-173.0\",\"\",\"\",\"2-3\",\"4577\",\"40\",\"1\",\"Testing\",\"Stims/Figures/128-C-30-3.bmp\",\"za:haza\",\"Up\",\"40\",\"2\",\"1\",\"6A\",\"C2\",\"C\",\"25\"
\"\",\"\",\"approach-retreat\",\"174\",\"1685364\",\"0.0-174.0\",\"\",\"\",\"2-3\",\"5385\",\"37\",\"1\",\"Testing\",\"Stims/Figures/27-J-0-1.bmp\",\"vafasha\",\"Left\",\"37\",\"2\",\"2\",\"6A\",\"C1\",\"C\",\"26\"
\"\",\"\",\"approach-retreat\",\"175\",\"1693093\",\"0.0-175.0\",\"\",\"\",\"2-3\",\"6218\",\"37\",\"1\",\"Testing\",\"Stims/Figures/44-J-10-3.bmp\",\"fa:fava\",\"Left\",\"37\",\"2\",\"3\",\"6A\",\"C1\",\"C\",\"27\"
\"\",\"\",\"approach-retreat\",\"176\",\"1699592\",\"0.0-176.0\",\"\",\"\",\"2-3\",\"4988\",\"38\",\"1\",\"Testing\",\"Stims/Figures/85-J-0-2.bmp\",\"fa:fa:sha\",\"Up\",\"38\",\"2\",\"4\",\"6A\",\"C1\",\"C\",\"28\"
\"\",\"\",\"approach-retreat\",\"177\",\"1705686\",\"0.0-177.0\",\"\",\"\",\"2-3\",\"4583\",\"38\",\"1\",\"Testing\",\"Stims/Figures/84-C-20-2.bmp\",\"sa:sa:za\",\"Down\",\"38\",\"2\",\"5\",\"6A\",\"C2\",\"C\",\"29\"
\"\",\"\",\"approach-retreat\",\"178\",\"1713385\",\"0.0-178.0\",\"\",\"\",\"2-3\",\"6193\",\"39\",\"1\",\"Testing\",\"Stims/Figures/100-J-10-3.bmp\",\"fa:shasha\",\"Right\",\"39\",\"2\",\"6\",\"6A\",\"C1\",\"C\",\"30\"
\"\",\"\",\"approach-retreat\",\"179\",\"1720637\",\"0.0-179.0\",\"\",\"\",\"2-3\",\"5743\",\"37\",\"1\",\"Testing\",\"Stims/Figures/118-J-0-2.bmp\",\"va:shava\",\"Left\",\"37\",\"2\",\"7\",\"6A\",\"C1\",\"C\",\"31\"
\"\",\"\",\"approach-retreat\",\"180\",\"1726358\",\"0.0-180.0\",\"\",\"\",\"2-3\",\"4211\",\"39\",\"0\",\"Testing\",\"Stims/Figures/128-J-10-3.bmp\",\"fa:sha:va\",\"Left\",\"37\",\"2\",\"8\",\"6A\",\"C1\",\"C\",\"32\"
\"\",\"\",\"approach-retreat\",\"181\",\"1732452\",\"0.0-181.0\",\"\",\"\",\"2-3\",\"4584\",\"39\",\"1\",\"Testing\",\"Stims/Figures/44-C-30-3.bmp\",\"sa:haha\",\"Left\",\"39\",\"2\",\"9\",\"6A\",\"C2\",\"C\",\"33\"
\"\",\"\",\"approach-retreat\",\"182\",\"1738430\",\"0.0-182.0\",\"\",\"\",\"2-3\",\"4475\",\"40\",\"1\",\"Testing\",\"Stims/Figures/118-C-20-2.bmp\",\"sasa:ha\",\"Up\",\"40\",\"2\",\"10\",\"6A\",\"C2\",\"C\",\"34\"
\"\",\"\",\"approach-retreat\",\"183\",\"1744425\",\"0.0-183.0\",\"\",\"\",\"2-3\",\"4488\",\"38\",\"1\",\"Testing\",\"Stims/Figures/93-C-30-1.bmp\",\"sa:saza\",\"Down\",\"38\",\"2\",\"11\",\"6A\",\"C2\",\"C\",\"35\"
\"\",\"\",\"approach-retreat\",\"184\",\"1750591\",\"0.0-184.0\",\"\",\"\",\"2-3\",\"4662\",\"37\",\"1\",\"Testing\",\"Stims/Figures/85-C-20-2.bmp\",\"za:sa:za\",\"Right\",\"37\",\"2\",\"12\",\"6A\",\"C2\",\"C\",\"36\"
\"\",\"\",\"approach-retreat\",\"185\",\"1758509\",\"0.0-185.0\",\"\",\"\",\"2-3\",\"6408\",\"40\",\"1\",\"Testing\",\"Stims/Figures/102-C-20-4.bmp\",\"za:saza\",\"Up\",\"40\",\"2\",\"13\",\"6A\",\"C2\",\"C\",\"37\"
\"\",\"\",\"approach-retreat\",\"186\",\"1766340\",\"0.0-186.0\",\"\",\"\",\"2-3\",\"6322\",\"40\",\"1\",\"Testing\",\"Stims/Figures/102-J-10-4.bmp\",\"fafa:va\",\"Down\",\"40\",\"2\",\"14\",\"6A\",\"C1\",\"C\",\"38\"
\"\",\"\",\"approach-retreat\",\"187\",\"1773460\",\"0.0-187.0\",\"\",\"\",\"2-3\",\"5612\",\"39\",\"1\",\"Testing\",\"Stims/Figures/71-J-0-1.bmp\",\"va:fasha\",\"Right\",\"39\",\"2\",\"15\",\"6A\",\"C1\",\"C\",\"39\"
\"\",\"\",\"approach-retreat\",\"188\",\"1781333\",\"0.0-188.0\",\"\",\"\",\"2-3\",\"6363\",\"39\",\"0\",\"Testing\",\"Stims/Figures/87-J-10-4.bmp\",\"va:sha:va\",\"Left\",\"37\",\"2\",\"16\",\"6A\",\"C1\",\"C\",\"40\"
\"\",\"\",\"approach-retreat\",\"189\",\"1787244\",\"0.0-189.0\",\"\",\"\",\"2-3\",\"4402\",\"38\",\"1\",\"Testing\",\"Stims/Figures/87-C-20-4.bmp\",\"za:haha\",\"Down\",\"38\",\"2\",\"17\",\"6A\",\"C2\",\"C\",\"41\"
\"\",\"\",\"approach-retreat\",\"190\",\"1793400\",\"0.0-190.0\",\"\",\"\",\"2-3\",\"4647\",\"39\",\"1\",\"Testing\",\"Stims/Figures/84-J-0-2.bmp\",\"va:sha:sha\",\"Right\",\"39\",\"2\",\"18\",\"6A\",\"C1\",\"C\",\"42\"
\"\",\"\",\"approach-retreat\",\"191\",\"1799397\",\"0.0-191.0\",\"\",\"\",\"2-3\",\"4488\",\"37\",\"1\",\"Testing\",\"Stims/Figures/100-C-30-3.bmp\",\"zaha:ha\",\"Right\",\"37\",\"2\",\"19\",\"6A\",\"C2\",\"C\",\"43\"
\"\",\"\",\"approach-retreat\",\"192\",\"1809596\",\"0.0-192.0\",\"\",\"\",\"2-3\",\"8693\",\"38\",\"1\",\"Testing\",\"Stims/Figures/74-J-10-4.bmp\",\"vafa:sha\",\"Up\",\"38\",\"2\",\"20\",\"6A\",\"C1\",\"C\",\"44\"
\"\",\"\",\"approach-retreat\",\"193\",\"1815512\",\"0.0-193.0\",\"\",\"\",\"2-3\",\"4408\",\"40\",\"1\",\"Testing\",\"Stims/Figures/71-C-30-1.bmp\",\"zasa:ha\",\"Up\",\"40\",\"2\",\"21\",\"6A\",\"C2\",\"C\",\"45\"
\"\",\"\",\"approach-retreat\",\"194\",\"1821313\",\"0.0-194.0\",\"\",\"\",\"2-3\",\"4294\",\"39\",\"1\",\"Testing\",\"Stims/Figures/93-J-0-1.bmp\",\"va:fa:va\",\"Right\",\"39\",\"2\",\"22\",\"6A\",\"C1\",\"C\",\"46\"
\"\",\"\",\"approach-retreat\",\"195\",\"1829006\",\"0.0-195.0\",\"\",\"\",\"2-3\",\"6189\",\"38\",\"1\",\"Testing\",\"Stims/Figures/27-C-30-1.bmp\",\"za:sa:ha\",\"Down\",\"38\",\"2\",\"23\",\"6A\",\"C2\",\"C\",\"47\"
\"\",\"\",\"approach-retreat\",\"196\",\"1836151\",\"0.0-196.0\",\"\",\"\",\"2-3\",\"5640\",\"38\",\"1\",\"Testing\",\"Stims/Figures/74-C-20-4.bmp\",\"sa:ha:ha\",\"Down\",\"38\",\"2\",\"24\",\"6A\",\"C2\",\"C\",\"48\"
\"\",\"\",\"approach-retreat\",\"197\",\"1843570\",\"0.0-197.0\",\"\",\"\",\"2-3\",\"5911\",\"38\",\"1\",\"Testing\",\"Stims/Figures/87-C-20-4.bmp\",\"za:haha\",\"Down\",\"38\",\"3\",\"1\",\"6A\",\"C2\",\"C\",\"49\"
\"\",\"\",\"approach-retreat\",\"198\",\"1850734\",\"0.0-198.0\",\"\",\"\",\"2-3\",\"5654\",\"39\",\"1\",\"Testing\",\"Stims/Figures/27-C-30-1.bmp\",\"za:sa:ha\",\"Left\",\"39\",\"3\",\"2\",\"6A\",\"C2\",\"C\",\"50\"
\"\",\"\",\"approach-retreat\",\"199\",\"1856637\",\"0.0-199.0\",\"\",\"\",\"2-3\",\"4393\",\"38\",\"0\",\"Testing\",\"Stims/Figures/74-J-10-4.bmp\",\"vafa:sha\",\"Down\",\"40\",\"3\",\"3\",\"6A\",\"C1\",\"C\",\"51\"
\"\",\"\",\"approach-retreat\",\"200\",\"1862807\",\"0.0-200.0\",\"\",\"\",\"2-3\",\"4660\",\"40\",\"1\",\"Testing\",\"Stims/Figures/85-J-0-2.bmp\",\"fa:fa:sha\",\"Down\",\"40\",\"3\",\"4\",\"6A\",\"C1\",\"C\",\"52\"
\"\",\"\",\"approach-retreat\",\"201\",\"1868813\",\"0.0-201.0\",\"\",\"\",\"2-3\",\"4496\",\"38\",\"1\",\"Testing\",\"Stims/Figures/102-C-20-4.bmp\",\"za:saza\",\"Down\",\"38\",\"3\",\"5\",\"6A\",\"C2\",\"C\",\"53\"
\"\",\"\",\"approach-retreat\",\"202\",\"1874904\",\"0.0-202.0\",\"\",\"\",\"2-3\",\"4581\",\"37\",\"1\",\"Testing\",\"Stims/Figures/118-C-20-2.bmp\",\"sasa:ha\",\"Right\",\"37\",\"3\",\"6\",\"6A\",\"C2\",\"C\",\"54\"
\"\",\"\",\"approach-retreat\",\"203\",\"1883694\",\"0.0-203.0\",\"\",\"\",\"2-3\",\"7281\",\"40\",\"0\",\"Testing\",\"Stims/Figures/100-J-10-3.bmp\",\"fa:shasha\",\"Up\",\"38\",\"3\",\"7\",\"6A\",\"C1\",\"C\",\"55\"
\"\",\"\",\"approach-retreat\",\"204\",\"1889766\",\"0.0-204.0\",\"\",\"\",\"2-3\",\"4566\",\"38\",\"1\",\"Testing\",\"Stims/Figures/84-J-0-2.bmp\",\"va:sha:sha\",\"Up\",\"38\",\"3\",\"8\",\"6A\",\"C1\",\"C\",\"56\"
\"\",\"\",\"approach-retreat\",\"205\",\"1897129\",\"0.0-205.0\",\"\",\"\",\"2-3\",\"5852\",\"39\",\"1\",\"Testing\",\"Stims/Figures/118-J-0-2.bmp\",\"va:shava\",\"Right\",\"39\",\"3\",\"9\",\"6A\",\"C1\",\"C\",\"57\"
\"\",\"\",\"approach-retreat\",\"206\",\"1903152\",\"0.0-206.0\",\"\",\"\",\"2-3\",\"4514\",\"40\",\"1\",\"Testing\",\"Stims/Figures/128-C-30-3.bmp\",\"za:haza\",\"Up\",\"40\",\"3\",\"10\",\"6A\",\"C2\",\"C\",\"58\"
\"\",\"\",\"approach-retreat\",\"207\",\"1911953\",\"0.0-207.0\",\"\",\"\",\"2-3\",\"7291\",\"39\",\"0\",\"Testing\",\"Stims/Figures/128-J-10-3.bmp\",\"fa:sha:va\",\"Left\",\"37\",\"3\",\"11\",\"6A\",\"C1\",\"C\",\"59\"
\"\",\"\",\"approach-retreat\",\"208\",\"1919240\",\"0.0-208.0\",\"\",\"\",\"2-3\",\"5778\",\"37\",\"1\",\"Testing\",\"Stims/Figures/74-C-20-4.bmp\",\"sa:ha:ha\",\"Right\",\"37\",\"3\",\"12\",\"6A\",\"C2\",\"C\",\"60\"
\"\",\"\",\"approach-retreat\",\"209\",\"1925774\",\"0.0-209.0\",\"\",\"\",\"2-3\",\"5024\",\"38\",\"1\",\"Testing\",\"Stims/Figures/93-J-0-1.bmp\",\"va:fa:va\",\"Up\",\"38\",\"3\",\"13\",\"6A\",\"C1\",\"C\",\"61\"
\"\",\"\",\"approach-retreat\",\"210\",\"1931973\",\"0.0-210.0\",\"\",\"\",\"2-3\",\"4690\",\"38\",\"1\",\"Testing\",\"Stims/Figures/71-C-30-1.bmp\",\"zasa:ha\",\"Down\",\"38\",\"3\",\"14\",\"6A\",\"C2\",\"C\",\"62\"
\"\",\"\",\"approach-retreat\",\"211\",\"1938380\",\"0.0-211.0\",\"\",\"\",\"2-3\",\"4896\",\"39\",\"1\",\"Testing\",\"Stims/Figures/27-J-0-1.bmp\",\"vafasha\",\"Right\",\"39\",\"3\",\"15\",\"6A\",\"C1\",\"C\",\"63\"
\"\",\"\",\"approach-retreat\",\"212\",\"1950302\",\"0.0-212.0\",\"\",\"\",\"2-3\",\"10411\",\"39\",\"1\",\"Testing\",\"Stims/Figures/93-C-30-1.bmp\",\"sa:saza\",\"Left\",\"39\",\"3\",\"16\",\"6A\",\"C2\",\"C\",\"64\"
\"\",\"\",\"approach-retreat\",\"213\",\"1956476\",\"0.0-213.0\",\"\",\"\",\"2-3\",\"4667\",\"38\",\"1\",\"Testing\",\"Stims/Figures/85-C-20-2.bmp\",\"za:sa:za\",\"Down\",\"38\",\"3\",\"17\",\"6A\",\"C2\",\"C\",\"65\"
\"\",\"\",\"approach-retreat\",\"214\",\"1963028\",\"0.0-214.0\",\"\",\"\",\"2-3\",\"5046\",\"40\",\"0\",\"Testing\",\"Stims/Figures/87-J-10-4.bmp\",\"va:sha:va\",\"Up\",\"38\",\"3\",\"18\",\"6A\",\"C1\",\"C\",\"66\"
\"\",\"\",\"approach-retreat\",\"215\",\"1969370\",\"0.0-215.0\",\"\",\"\",\"2-3\",\"4832\",\"40\",\"1\",\"Testing\",\"Stims/Figures/84-C-20-2.bmp\",\"sa:sa:za\",\"Up\",\"40\",\"3\",\"19\",\"6A\",\"C2\",\"C\",\"67\"
\"\",\"\",\"approach-retreat\",\"216\",\"1976202\",\"0.0-216.0\",\"\",\"\",\"2-3\",\"5321\",\"39\",\"1\",\"Testing\",\"Stims/Figures/100-C-30-3.bmp\",\"zaha:ha\",\"Left\",\"39\",\"3\",\"20\",\"6A\",\"C2\",\"C\",\"68\"
\"\",\"\",\"approach-retreat\",\"217\",\"1982384\",\"0.0-217.0\",\"\",\"\",\"2-3\",\"4674\",\"39\",\"1\",\"Testing\",\"Stims/Figures/71-J-0-1.bmp\",\"va:fasha\",\"Right\",\"39\",\"3\",\"21\",\"6A\",\"C1\",\"C\",\"69\"
\"\",\"\",\"approach-retreat\",\"218\",\"1988460\",\"0.0-218.0\",\"\",\"\",\"2-3\",\"4572\",\"39\",\"0\",\"Testing\",\"Stims/Figures/44-J-10-3.bmp\",\"fa:fava\",\"Left\",\"37\",\"3\",\"22\",\"6A\",\"C1\",\"C\",\"70\"
\"\",\"\",\"approach-retreat\",\"219\",\"1994428\",\"0.0-219.0\",\"\",\"\",\"2-3\",\"4461\",\"37\",\"1\",\"Testing\",\"Stims/Figures/44-C-30-3.bmp\",\"sa:haha\",\"Right\",\"37\",\"3\",\"23\",\"6A\",\"C2\",\"C\",\"71\"
\"\",\"\",\"approach-retreat\",\"220\",\"2001113\",\"0.0-220.0\",\"\",\"\",\"2-3\",\"5176\",\"37\",\"1\",\"Testing\",\"Stims/Figures/102-J-10-4.bmp\",\"fafa:va\",\"Left\",\"37\",\"3\",\"24\",\"6A\",\"C1\",\"C\",\"72\"
\"\",\"\",\"approach-retreat\",\"221\",\"2006790\",\"0.0-221.0\",\"\",\"\",\"2-3\",\"4167\",\"39\",\"1\",\"Testing\",\"Stims/Figures/74-C-20-4.bmp\",\"sa:ha:ha\",\"Left\",\"39\",\"4\",\"1\",\"6A\",\"C2\",\"C\",\"73\"
\"\",\"\",\"approach-retreat\",\"222\",\"2018782\",\"0.0-222.0\",\"\",\"\",\"2-3\",\"10483\",\"38\",\"1\",\"Testing\",\"Stims/Figures/100-C-30-3.bmp\",\"zaha:ha\",\"Down\",\"38\",\"4\",\"2\",\"6A\",\"C2\",\"C\",\"74\"
\"\",\"\",\"approach-retreat\",\"223\",\"2024690\",\"0.0-223.0\",\"\",\"\",\"2-3\",\"4399\",\"40\",\"1\",\"Testing\",\"Stims/Figures/71-C-30-1.bmp\",\"zasa:ha\",\"Up\",\"40\",\"4\",\"3\",\"6A\",\"C2\",\"C\",\"75\"
\"\",\"\",\"approach-retreat\",\"224\",\"2031713\",\"0.0-224.0\",\"\",\"\",\"2-3\",\"5512\",\"38\",\"1\",\"Testing\",\"Stims/Figures/93-C-30-1.bmp\",\"sa:saza\",\"Down\",\"38\",\"4\",\"4\",\"6A\",\"C2\",\"C\",\"76\"
\"\",\"\",\"approach-retreat\",\"225\",\"2037992\",\"0.0-225.0\",\"\",\"\",\"2-3\",\"4771\",\"40\",\"0\",\"Testing\",\"Stims/Figures/128-J-10-3.bmp\",\"fa:sha:va\",\"Up\",\"38\",\"4\",\"5\",\"6A\",\"C1\",\"C\",\"77\"
\"\",\"\",\"approach-retreat\",\"226\",\"2043826\",\"0.0-226.0\",\"\",\"\",\"2-3\",\"4325\",\"37\",\"1\",\"Testing\",\"Stims/Figures/93-J-0-1.bmp\",\"va:fa:va\",\"Left\",\"37\",\"4\",\"6\",\"6A\",\"C1\",\"C\",\"78\"
\"\",\"\",\"approach-retreat\",\"227\",\"2050219\",\"0.0-227.0\",\"\",\"\",\"2-3\",\"4884\",\"38\",\"1\",\"Testing\",\"Stims/Figures/44-C-30-3.bmp\",\"sa:haha\",\"Down\",\"38\",\"4\",\"7\",\"6A\",\"C2\",\"C\",\"79\"
\"\",\"\",\"approach-retreat\",\"228\",\"2059104\",\"0.0-228.0\",\"\",\"\",\"2-3\",\"7376\",\"39\",\"1\",\"Testing\",\"Stims/Figures/44-J-10-3.bmp\",\"fa:fava\",\"Right\",\"39\",\"4\",\"8\",\"6A\",\"C1\",\"C\",\"80\"
\"\",\"\",\"approach-retreat\",\"229\",\"2065688\",\"0.0-229.0\",\"\",\"\",\"2-3\",\"5075\",\"37\",\"1\",\"Testing\",\"Stims/Figures/71-J-0-1.bmp\",\"va:fasha\",\"Left\",\"37\",\"4\",\"9\",\"6A\",\"C1\",\"C\",\"81\"
\"\",\"\",\"approach-retreat\",\"230\",\"2072610\",\"0.0-230.0\",\"\",\"\",\"2-3\",\"5413\",\"37\",\"1\",\"Testing\",\"Stims/Figures/87-C-20-4.bmp\",\"za:haha\",\"Right\",\"37\",\"4\",\"10\",\"6A\",\"C2\",\"C\",\"82\"
\"\",\"\",\"approach-retreat\",\"231\",\"2078693\",\"0.0-231.0\",\"\",\"\",\"2-3\",\"4574\",\"37\",\"1\",\"Testing\",\"Stims/Figures/102-J-10-4.bmp\",\"fafa:va\",\"Left\",\"37\",\"4\",\"11\",\"6A\",\"C1\",\"C\",\"83\"
\"\",\"\",\"approach-retreat\",\"232\",\"2085141\",\"0.0-232.0\",\"\",\"\",\"2-3\",\"4938\",\"38\",\"1\",\"Testing\",\"Stims/Figures/27-J-0-1.bmp\",\"vafasha\",\"Up\",\"38\",\"4\",\"12\",\"6A\",\"C1\",\"C\",\"84\"
\"\",\"\",\"approach-retreat\",\"233\",\"2091610\",\"0.0-233.0\",\"\",\"\",\"2-3\",\"4958\",\"38\",\"1\",\"Testing\",\"Stims/Figures/85-C-20-2.bmp\",\"za:sa:za\",\"Down\",\"38\",\"4\",\"13\",\"6A\",\"C2\",\"C\",\"85\"
\"\",\"\",\"approach-retreat\",\"234\",\"2100999\",\"0.0-234.0\",\"\",\"\",\"2-3\",\"7885\",\"39\",\"1\",\"Testing\",\"Stims/Figures/118-J-0-2.bmp\",\"va:shava\",\"Right\",\"39\",\"4\",\"14\",\"6A\",\"C1\",\"C\",\"86\"
\"\",\"\",\"approach-retreat\",\"235\",\"2115548\",\"0.0-235.0\",\"\",\"\",\"2-3\",\"13040\",\"39\",\"1\",\"Testing\",\"Stims/Figures/84-J-0-2.bmp\",\"va:sha:sha\",\"Right\",\"39\",\"4\",\"15\",\"6A\",\"C1\",\"C\",\"87\"
\"\",\"\",\"approach-retreat\",\"236\",\"2123345\",\"0.0-236.0\",\"\",\"\",\"2-3\",\"6286\",\"39\",\"1\",\"Testing\",\"Stims/Figures/128-C-30-3.bmp\",\"za:haza\",\"Left\",\"39\",\"4\",\"16\",\"6A\",\"C2\",\"C\",\"88\"
\"\",\"\",\"approach-retreat\",\"237\",\"2129139\",\"0.0-237.0\",\"\",\"\",\"2-3\",\"4285\",\"39\",\"1\",\"Testing\",\"Stims/Figures/84-C-20-2.bmp\",\"sa:sa:za\",\"Left\",\"39\",\"4\",\"17\",\"6A\",\"C2\",\"C\",\"89\"
\"\",\"\",\"approach-retreat\",\"238\",\"2134962\",\"0.0-238.0\",\"\",\"\",\"2-3\",\"4313\",\"40\",\"1\",\"Testing\",\"Stims/Figures/102-C-20-4.bmp\",\"za:saza\",\"Up\",\"40\",\"4\",\"18\",\"6A\",\"C2\",\"C\",\"90\"
\"\",\"\",\"approach-retreat\",\"239\",\"2142428\",\"0.0-239.0\",\"\",\"\",\"2-3\",\"5956\",\"40\",\"0\",\"Testing\",\"Stims/Figures/87-J-10-4.bmp\",\"va:sha:va\",\"Up\",\"38\",\"4\",\"19\",\"6A\",\"C1\",\"C\",\"91\"
\"\",\"\",\"approach-retreat\",\"240\",\"2148369\",\"0.0-240.0\",\"\",\"\",\"2-3\",\"4431\",\"38\",\"0\",\"Testing\",\"Stims/Figures/74-J-10-4.bmp\",\"vafa:sha\",\"Down\",\"40\",\"4\",\"20\",\"6A\",\"C1\",\"C\",\"92\"
\"\",\"\",\"approach-retreat\",\"241\",\"2154191\",\"0.0-241.0\",\"\",\"\",\"2-3\",\"4312\",\"37\",\"0\",\"Testing\",\"Stims/Figures/100-J-10-3.bmp\",\"fa:shasha\",\"Right\",\"39\",\"4\",\"21\",\"6A\",\"C1\",\"C\",\"93\"
\"\",\"\",\"approach-retreat\",\"242\",\"2161533\",\"0.0-242.0\",\"\",\"\",\"2-3\",\"5832\",\"40\",\"1\",\"Testing\",\"Stims/Figures/85-J-0-2.bmp\",\"fa:fa:sha\",\"Down\",\"40\",\"4\",\"22\",\"6A\",\"C1\",\"C\",\"94\"
\"\",\"\",\"approach-retreat\",\"243\",\"2169275\",\"0.0-243.0\",\"\",\"\",\"2-3\",\"6232\",\"40\",\"1\",\"Testing\",\"Stims/Figures/27-C-30-1.bmp\",\"za:sa:ha\",\"Up\",\"40\",\"4\",\"23\",\"6A\",\"C2\",\"C\",\"95\"
\"\",\"\",\"approach-retreat\",\"244\",\"2175400\",\"0.0-244.0\",\"\",\"\",\"2-3\",\"4615\",\"37\",\"1\",\"Testing\",\"Stims/Figures/118-C-20-2.bmp\",\"sasa:ha\",\"Right\",\"37\",\"4\",\"24\",\"6A\",\"C2\",\"C\",\"96\"
\"49323\",\"\",\"survey-text\",\"245\",\"2224727\",\"0.0-245.0\",\"\",\"{\"\"Q0\"\":\"\"1183/16\"\"}\",\"\",\"\",\"\",\"\",\"\",\"\",\"\",\"\",\"\",\"\",\"\",\"\",\"\",\"\",\"\"
