\"rt\",\"key_press\",\"trial_type\",\"trial_index\",\"time_elapsed\",\"internal_node_id\",\"view_history\",\"responses\",\"Id\",\"Rt\",\"ResKeyCode\",\"ResCorr\",\"TrialType2\",\"Image\",\"Label\",\"Location\",\"CorrectResponse\",\"Block\",\"BlockTrial\",\"Condition\",\"LabelType\",\"Subcondition\",\"trialNum\"
\"33857\",\"32\",\"text\",\"0\",\"33866\",\"0.0-0.0-0.0\",\"\",\"\",\"\",\"\",\"\",\"\",\"\",\"\",\"\",\"\",\"\",\"\",\"\",\"\",\"\",\"\",\"\"
\"103220\",\"\",\"instructions\",\"1\",\"137091\",\"0.0-1.0\",\"[{\"\"page_index\"\":0,\"\"viewing_time\"\":103218}]\",\"\",\"\",\"\",\"\",\"\",\"\",\"\",\"\",\"\",\"\",\"\",\"\",\"\",\"\",\"\",\"\"
\"24716\",\"\",\"survey-multi-choice\",\"2\",\"161867\",\"0.0-2.0\",\"\",\"{\"\"Q0\"\":\"\"Da\"\",\"\"Q1\"\":\"\"Da\"\",\"\"Q2\"\":\"\"Da\"\",\"\"Q3\"\":\"\"Da\"\",\"\"Q4\"\":\"\"Da\"\",\"\"Q5\"\":\"\"Da\"\"}\",\"\",\"\",\"\",\"\",\"\",\"\",\"\",\"\",\"\",\"\",\"\",\"\",\"\",\"\",\"\"
\"\",\"\",\"bio\",\"3\",\"171685\",\"0.0-3.0\",\"\",\"{\"\"age\"\":\"\"22\"\",\"\"gender\"\":\"\"f\"\",\"\"specify\"\":\"\"\"\"}\",\"\",\"\",\"\",\"\",\"\",\"\",\"\",\"\",\"\",\"\",\"\",\"\",\"\",\"\",\"\"
\"\",\"\",\"approach-retreat\",\"4\",\"179542\",\"0.0-4.0\",\"\",\"\",\"2-2\",\"6335\",\"39\",\"0\",\"Training\",\"Stims/Figures/102-C-20-4.bmp\",\"za:sa:za\",\"Right\",\"37\",\"1\",\"1\",\"8\",\"C2\",\"C\",\"1\"
\"\",\"\",\"approach-retreat\",\"5\",\"187594\",\"0.0-5.0\",\"\",\"\",\"2-2\",\"6538\",\"40\",\"1\",\"Training\",\"Stims/Figures/44-J-10-3.bmp\",\"sahaza\",\"Down\",\"40\",\"1\",\"2\",\"8\",\"C2\",\"C\",\"2\"
\"\",\"\",\"approach-retreat\",\"6\",\"194977\",\"0.0-6.0\",\"\",\"\",\"2-2\",\"5870\",\"38\",\"1\",\"Training\",\"Stims/Figures/139-J-0-2.bmp\",\"va:shava\",\"Up\",\"38\",\"1\",\"3\",\"8\",\"C1\",\"C\",\"3\"
\"\",\"\",\"approach-retreat\",\"7\",\"201362\",\"0.0-7.0\",\"\",\"\",\"2-2\",\"4870\",\"38\",\"0\",\"Training\",\"Stims/Figures/102-J-10-4.bmp\",\"sa:haza\",\"Down\",\"40\",\"1\",\"4\",\"8\",\"C2\",\"C\",\"4\"
\"\",\"\",\"approach-retreat\",\"8\",\"210375\",\"0.0-8.0\",\"\",\"\",\"2-2\",\"7498\",\"37\",\"0\",\"Training\",\"Stims/Figures/44-C-30-3.bmp\",\"saha:za\",\"Left\",\"39\",\"1\",\"5\",\"8\",\"C2\",\"C\",\"5\"
\"\",\"\",\"approach-retreat\",\"9\",\"217170\",\"0.0-9.0\",\"\",\"\",\"2-2\",\"5283\",\"37\",\"1\",\"Training\",\"Stims/Figures/144-C-30-3.bmp\",\"za:saza\",\"Right\",\"37\",\"1\",\"6\",\"8\",\"C2\",\"C\",\"6\"
\"\",\"\",\"approach-retreat\",\"10\",\"224274\",\"0.0-10.0\",\"\",\"\",\"2-2\",\"5589\",\"37\",\"0\",\"Training\",\"Stims/Figures/139-C-20-2.bmp\",\"va:sha:sha\",\"Left\",\"39\",\"1\",\"7\",\"8\",\"C1\",\"C\",\"7\"
\"\",\"\",\"approach-retreat\",\"11\",\"231380\",\"0.0-11.0\",\"\",\"\",\"2-2\",\"5588\",\"40\",\"1\",\"Training\",\"Stims/Figures/85-C-20-2.bmp\",\"vasha:va\",\"Up\",\"40\",\"1\",\"8\",\"8\",\"C1\",\"C\",\"8\"
\"\",\"\",\"approach-retreat\",\"12\",\"239115\",\"0.0-12.0\",\"\",\"\",\"2-2\",\"6224\",\"40\",\"1\",\"Training\",\"Stims/Figures/85-J-0-2.bmp\",\"vafasha\",\"Down\",\"40\",\"1\",\"9\",\"8\",\"C1\",\"C\",\"9\"
\"\",\"\",\"approach-retreat\",\"13\",\"245732\",\"0.0-13.0\",\"\",\"\",\"2-2\",\"5103\",\"37\",\"1\",\"Training\",\"Stims/Figures/93-J-0-1.bmp\",\"fafa:va\",\"Left\",\"37\",\"1\",\"10\",\"8\",\"C1\",\"C\",\"10\"
\"\",\"\",\"approach-retreat\",\"14\",\"251943\",\"0.0-14.0\",\"\",\"\",\"2-2\",\"4699\",\"38\",\"1\",\"Training\",\"Stims/Figures/93-C-30-1.bmp\",\"fa:sha:sha\",\"Down\",\"38\",\"1\",\"11\",\"8\",\"C1\",\"C\",\"11\"
\"\",\"\",\"approach-retreat\",\"15\",\"262834\",\"0.0-15.0\",\"\",\"\",\"2-2\",\"9376\",\"39\",\"1\",\"Training\",\"Stims/Figures/144-J-10-3.bmp\",\"sa:saza\",\"Right\",\"39\",\"1\",\"12\",\"8\",\"C2\",\"C\",\"12\"
\"\",\"\",\"approach-retreat\",\"16\",\"270287\",\"0.0-16.0\",\"\",\"\",\"2-2\",\"5939\",\"40\",\"1\",\"Training\",\"Stims/Figures/71-C-30-1.bmp\",\"vashasha\",\"Up\",\"40\",\"1\",\"13\",\"8\",\"C1\",\"C\",\"13\"
\"\",\"\",\"approach-retreat\",\"17\",\"281600\",\"0.0-17.0\",\"\",\"\",\"2-2\",\"9802\",\"39\",\"1\",\"Training\",\"Stims/Figures/7-J-10-4.bmp\",\"sasa:ha\",\"Right\",\"39\",\"1\",\"14\",\"8\",\"C2\",\"C\",\"14\"
\"\",\"\",\"approach-retreat\",\"18\",\"290766\",\"0.0-18.0\",\"\",\"\",\"2-2\",\"7652\",\"39\",\"1\",\"Training\",\"Stims/Figures/7-C-20-4.bmp\",\"sasa:za\",\"Left\",\"39\",\"1\",\"15\",\"8\",\"C2\",\"C\",\"15\"
\"\",\"\",\"approach-retreat\",\"19\",\"296679\",\"0.0-19.0\",\"\",\"\",\"2-2\",\"4398\",\"38\",\"1\",\"Training\",\"Stims/Figures/71-J-0-1.bmp\",\"fafava\",\"Up\",\"38\",\"1\",\"16\",\"8\",\"C1\",\"C\",\"16\"
\"\",\"\",\"approach-retreat\",\"20\",\"302577\",\"0.0-20.0\",\"\",\"\",\"2-2\",\"4384\",\"37\",\"1\",\"Training\",\"Stims/Figures/44-C-30-3.bmp\",\"saha:za\",\"Right\",\"37\",\"2\",\"1\",\"8\",\"C2\",\"C\",\"17\"
\"\",\"\",\"approach-retreat\",\"21\",\"309004\",\"0.0-21.0\",\"\",\"\",\"2-2\",\"4915\",\"37\",\"1\",\"Training\",\"Stims/Figures/7-C-20-4.bmp\",\"sasa:za\",\"Right\",\"37\",\"2\",\"2\",\"8\",\"C2\",\"C\",\"18\"
\"\",\"\",\"approach-retreat\",\"22\",\"314973\",\"0.0-22.0\",\"\",\"\",\"2-2\",\"4455\",\"37\",\"1\",\"Training\",\"Stims/Figures/144-J-10-3.bmp\",\"sa:saza\",\"Left\",\"37\",\"2\",\"3\",\"8\",\"C2\",\"C\",\"19\"
\"\",\"\",\"approach-retreat\",\"23\",\"321824\",\"0.0-23.0\",\"\",\"\",\"2-2\",\"5339\",\"38\",\"1\",\"Training\",\"Stims/Figures/144-C-30-3.bmp\",\"za:saza\",\"Down\",\"38\",\"2\",\"4\",\"8\",\"C2\",\"C\",\"20\"
\"\",\"\",\"approach-retreat\",\"24\",\"332543\",\"0.0-24.0\",\"\",\"\",\"2-2\",\"9205\",\"37\",\"1\",\"Training\",\"Stims/Figures/71-C-30-1.bmp\",\"vashasha\",\"Right\",\"37\",\"2\",\"5\",\"8\",\"C1\",\"C\",\"21\"
\"\",\"\",\"approach-retreat\",\"25\",\"340325\",\"0.0-25.0\",\"\",\"\",\"2-2\",\"6268\",\"40\",\"0\",\"Training\",\"Stims/Figures/139-C-20-2.bmp\",\"va:sha:sha\",\"Down\",\"38\",\"2\",\"6\",\"8\",\"C1\",\"C\",\"22\"
\"\",\"\",\"approach-retreat\",\"26\",\"346140\",\"0.0-26.0\",\"\",\"\",\"2-2\",\"4299\",\"39\",\"1\",\"Training\",\"Stims/Figures/85-C-20-2.bmp\",\"vasha:va\",\"Left\",\"39\",\"2\",\"7\",\"8\",\"C1\",\"C\",\"23\"
\"\",\"\",\"approach-retreat\",\"27\",\"352123\",\"0.0-27.0\",\"\",\"\",\"2-2\",\"4469\",\"37\",\"1\",\"Training\",\"Stims/Figures/7-J-10-4.bmp\",\"sasa:ha\",\"Left\",\"37\",\"2\",\"8\",\"8\",\"C2\",\"C\",\"24\"
\"\",\"\",\"approach-retreat\",\"28\",\"358792\",\"0.0-28.0\",\"\",\"\",\"2-2\",\"5155\",\"40\",\"1\",\"Training\",\"Stims/Figures/93-J-0-1.bmp\",\"fafa:va\",\"Down\",\"40\",\"2\",\"9\",\"8\",\"C1\",\"C\",\"25\"
\"\",\"\",\"approach-retreat\",\"29\",\"376763\",\"0.0-29.0\",\"\",\"\",\"2-2\",\"16455\",\"38\",\"0\",\"Training\",\"Stims/Figures/93-C-30-1.bmp\",\"fa:sha:sha\",\"Up\",\"40\",\"2\",\"10\",\"8\",\"C1\",\"C\",\"26\"
\"\",\"\",\"approach-retreat\",\"30\",\"383573\",\"0.0-30.0\",\"\",\"\",\"2-2\",\"5297\",\"37\",\"1\",\"Training\",\"Stims/Figures/139-J-0-2.bmp\",\"va:shava\",\"Left\",\"37\",\"2\",\"11\",\"8\",\"C1\",\"C\",\"27\"
\"\",\"\",\"approach-retreat\",\"31\",\"389477\",\"0.0-31.0\",\"\",\"\",\"2-2\",\"4391\",\"38\",\"1\",\"Training\",\"Stims/Figures/102-J-10-4.bmp\",\"sa:haza\",\"Up\",\"38\",\"2\",\"12\",\"8\",\"C2\",\"C\",\"28\"
\"\",\"\",\"approach-retreat\",\"32\",\"395391\",\"0.0-32.0\",\"\",\"\",\"2-2\",\"4402\",\"38\",\"1\",\"Training\",\"Stims/Figures/85-J-0-2.bmp\",\"vafasha\",\"Up\",\"38\",\"2\",\"13\",\"8\",\"C1\",\"C\",\"29\"
\"\",\"\",\"approach-retreat\",\"33\",\"401119\",\"0.0-33.0\",\"\",\"\",\"2-2\",\"4216\",\"38\",\"1\",\"Training\",\"Stims/Figures/71-J-0-1.bmp\",\"fafava\",\"Up\",\"38\",\"2\",\"14\",\"8\",\"C1\",\"C\",\"30\"
\"\",\"\",\"approach-retreat\",\"34\",\"407013\",\"0.0-34.0\",\"\",\"\",\"2-2\",\"4381\",\"38\",\"0\",\"Training\",\"Stims/Figures/44-J-10-3.bmp\",\"sahaza\",\"Down\",\"40\",\"2\",\"15\",\"8\",\"C2\",\"C\",\"31\"
\"\",\"\",\"approach-retreat\",\"35\",\"413617\",\"0.0-35.0\",\"\",\"\",\"2-2\",\"5091\",\"37\",\"1\",\"Training\",\"Stims/Figures/102-C-20-4.bmp\",\"za:sa:za\",\"Right\",\"37\",\"2\",\"16\",\"8\",\"C2\",\"C\",\"32\"
\"\",\"\",\"approach-retreat\",\"36\",\"419703\",\"0.0-36.0\",\"\",\"\",\"2-2\",\"4573\",\"38\",\"1\",\"Training\",\"Stims/Figures/144-C-30-3.bmp\",\"za:saza\",\"Down\",\"38\",\"3\",\"1\",\"8\",\"C2\",\"C\",\"33\"
\"\",\"\",\"approach-retreat\",\"37\",\"425329\",\"0.0-37.0\",\"\",\"\",\"2-2\",\"4113\",\"37\",\"1\",\"Training\",\"Stims/Figures/85-C-20-2.bmp\",\"vasha:va\",\"Right\",\"37\",\"3\",\"2\",\"8\",\"C1\",\"C\",\"34\"
\"\",\"\",\"approach-retreat\",\"38\",\"431273\",\"0.0-38.0\",\"\",\"\",\"2-2\",\"4428\",\"38\",\"1\",\"Training\",\"Stims/Figures/85-J-0-2.bmp\",\"vafasha\",\"Up\",\"38\",\"3\",\"3\",\"8\",\"C1\",\"C\",\"35\"
\"\",\"\",\"approach-retreat\",\"39\",\"437001\",\"0.0-39.0\",\"\",\"\",\"2-2\",\"4214\",\"37\",\"1\",\"Training\",\"Stims/Figures/102-J-10-4.bmp\",\"sa:haza\",\"Left\",\"37\",\"3\",\"4\",\"8\",\"C2\",\"C\",\"36\"
\"\",\"\",\"approach-retreat\",\"40\",\"442645\",\"0.0-40.0\",\"\",\"\",\"2-2\",\"4129\",\"37\",\"1\",\"Training\",\"Stims/Figures/71-C-30-1.bmp\",\"vashasha\",\"Right\",\"37\",\"3\",\"5\",\"8\",\"C1\",\"C\",\"37\"
\"\",\"\",\"approach-retreat\",\"41\",\"448542\",\"0.0-41.0\",\"\",\"\",\"2-2\",\"4385\",\"38\",\"1\",\"Training\",\"Stims/Figures/139-C-20-2.bmp\",\"va:sha:sha\",\"Down\",\"38\",\"3\",\"6\",\"8\",\"C1\",\"C\",\"38\"
\"\",\"\",\"approach-retreat\",\"42\",\"454901\",\"0.0-42.0\",\"\",\"\",\"2-2\",\"4846\",\"40\",\"1\",\"Training\",\"Stims/Figures/93-C-30-1.bmp\",\"fa:sha:sha\",\"Up\",\"40\",\"3\",\"7\",\"8\",\"C1\",\"C\",\"39\"
\"\",\"\",\"approach-retreat\",\"43\",\"460729\",\"0.0-43.0\",\"\",\"\",\"2-2\",\"4313\",\"40\",\"1\",\"Training\",\"Stims/Figures/7-C-20-4.bmp\",\"sasa:za\",\"Up\",\"40\",\"3\",\"8\",\"8\",\"C2\",\"C\",\"40\"
\"\",\"\",\"approach-retreat\",\"44\",\"467520\",\"0.0-44.0\",\"\",\"\",\"2-2\",\"5279\",\"37\",\"1\",\"Training\",\"Stims/Figures/144-J-10-3.bmp\",\"sa:saza\",\"Left\",\"37\",\"3\",\"9\",\"8\",\"C2\",\"C\",\"41\"
\"\",\"\",\"approach-retreat\",\"45\",\"473979\",\"0.0-45.0\",\"\",\"\",\"2-2\",\"4945\",\"37\",\"1\",\"Training\",\"Stims/Figures/44-J-10-3.bmp\",\"sahaza\",\"Left\",\"37\",\"3\",\"10\",\"8\",\"C2\",\"C\",\"42\"
\"\",\"\",\"approach-retreat\",\"46\",\"479644\",\"0.0-46.0\",\"\",\"\",\"2-2\",\"4150\",\"39\",\"1\",\"Training\",\"Stims/Figures/7-J-10-4.bmp\",\"sasa:ha\",\"Right\",\"39\",\"3\",\"11\",\"8\",\"C2\",\"C\",\"43\"
\"\",\"\",\"approach-retreat\",\"47\",\"485464\",\"0.0-47.0\",\"\",\"\",\"2-2\",\"4302\",\"40\",\"1\",\"Training\",\"Stims/Figures/71-J-0-1.bmp\",\"fafava\",\"Down\",\"40\",\"3\",\"12\",\"8\",\"C1\",\"C\",\"44\"
\"\",\"\",\"approach-retreat\",\"48\",\"491340\",\"0.0-48.0\",\"\",\"\",\"2-2\",\"4360\",\"38\",\"1\",\"Training\",\"Stims/Figures/44-C-30-3.bmp\",\"saha:za\",\"Down\",\"38\",\"3\",\"13\",\"8\",\"C2\",\"C\",\"45\"
\"\",\"\",\"approach-retreat\",\"49\",\"497453\",\"0.0-49.0\",\"\",\"\",\"2-2\",\"4599\",\"39\",\"1\",\"Training\",\"Stims/Figures/93-J-0-1.bmp\",\"fafa:va\",\"Right\",\"39\",\"3\",\"14\",\"8\",\"C1\",\"C\",\"46\"
\"\",\"\",\"approach-retreat\",\"50\",\"503288\",\"0.0-50.0\",\"\",\"\",\"2-2\",\"4321\",\"40\",\"1\",\"Training\",\"Stims/Figures/102-C-20-4.bmp\",\"za:sa:za\",\"Up\",\"40\",\"3\",\"15\",\"8\",\"C2\",\"C\",\"47\"
\"\",\"\",\"approach-retreat\",\"51\",\"509536\",\"0.0-51.0\",\"\",\"\",\"2-2\",\"4736\",\"37\",\"1\",\"Training\",\"Stims/Figures/139-J-0-2.bmp\",\"va:shava\",\"Left\",\"37\",\"3\",\"16\",\"8\",\"C1\",\"C\",\"48\"
\"\",\"\",\"approach-retreat\",\"52\",\"515705\",\"0.0-52.0\",\"\",\"\",\"2-2\",\"4656\",\"37\",\"1\",\"Training\",\"Stims/Figures/139-C-20-2.bmp\",\"va:sha:sha\",\"Right\",\"37\",\"4\",\"1\",\"8\",\"C1\",\"C\",\"49\"
\"\",\"\",\"approach-retreat\",\"53\",\"521712\",\"0.0-53.0\",\"\",\"\",\"2-2\",\"4493\",\"40\",\"1\",\"Training\",\"Stims/Figures/93-J-0-1.bmp\",\"fafa:va\",\"Down\",\"40\",\"4\",\"2\",\"8\",\"C1\",\"C\",\"50\"
\"\",\"\",\"approach-retreat\",\"54\",\"528141\",\"0.0-54.0\",\"\",\"\",\"2-2\",\"4914\",\"40\",\"1\",\"Training\",\"Stims/Figures/7-C-20-4.bmp\",\"sasa:za\",\"Up\",\"40\",\"4\",\"3\",\"8\",\"C2\",\"C\",\"51\"
\"\",\"\",\"approach-retreat\",\"55\",\"534728\",\"0.0-55.0\",\"\",\"\",\"2-2\",\"5071\",\"37\",\"1\",\"Training\",\"Stims/Figures/144-C-30-3.bmp\",\"za:saza\",\"Right\",\"37\",\"4\",\"4\",\"8\",\"C2\",\"C\",\"52\"
\"\",\"\",\"approach-retreat\",\"56\",\"540711\",\"0.0-56.0\",\"\",\"\",\"2-2\",\"4472\",\"38\",\"1\",\"Training\",\"Stims/Figures/102-C-20-4.bmp\",\"za:sa:za\",\"Down\",\"38\",\"4\",\"5\",\"8\",\"C2\",\"C\",\"53\"
\"\",\"\",\"approach-retreat\",\"57\",\"547186\",\"0.0-57.0\",\"\",\"\",\"2-2\",\"4962\",\"37\",\"1\",\"Training\",\"Stims/Figures/71-J-0-1.bmp\",\"fafava\",\"Left\",\"37\",\"4\",\"6\",\"8\",\"C1\",\"C\",\"54\"
\"\",\"\",\"approach-retreat\",\"58\",\"552824\",\"0.0-58.0\",\"\",\"\",\"2-2\",\"4118\",\"39\",\"1\",\"Training\",\"Stims/Figures/7-J-10-4.bmp\",\"sasa:ha\",\"Right\",\"39\",\"4\",\"7\",\"8\",\"C2\",\"C\",\"55\"
\"\",\"\",\"approach-retreat\",\"59\",\"559311\",\"0.0-59.0\",\"\",\"\",\"2-2\",\"4975\",\"37\",\"1\",\"Training\",\"Stims/Figures/71-C-30-1.bmp\",\"vashasha\",\"Right\",\"37\",\"4\",\"8\",\"8\",\"C1\",\"C\",\"56\"
\"\",\"\",\"approach-retreat\",\"60\",\"565477\",\"0.0-60.0\",\"\",\"\",\"2-2\",\"4652\",\"40\",\"1\",\"Training\",\"Stims/Figures/44-J-10-3.bmp\",\"sahaza\",\"Down\",\"40\",\"4\",\"9\",\"8\",\"C2\",\"C\",\"57\"
\"\",\"\",\"approach-retreat\",\"61\",\"571315\",\"0.0-61.0\",\"\",\"\",\"2-2\",\"4326\",\"38\",\"1\",\"Training\",\"Stims/Figures/102-J-10-4.bmp\",\"sa:haza\",\"Up\",\"38\",\"4\",\"10\",\"8\",\"C2\",\"C\",\"58\"
\"\",\"\",\"approach-retreat\",\"62\",\"577528\",\"0.0-62.0\",\"\",\"\",\"2-2\",\"4699\",\"40\",\"1\",\"Training\",\"Stims/Figures/44-C-30-3.bmp\",\"saha:za\",\"Up\",\"40\",\"4\",\"11\",\"8\",\"C2\",\"C\",\"59\"
\"\",\"\",\"approach-retreat\",\"63\",\"583379\",\"0.0-63.0\",\"\",\"\",\"2-2\",\"4339\",\"37\",\"1\",\"Training\",\"Stims/Figures/139-J-0-2.bmp\",\"va:shava\",\"Left\",\"37\",\"4\",\"12\",\"8\",\"C1\",\"C\",\"60\"
\"\",\"\",\"approach-retreat\",\"64\",\"589151\",\"0.0-64.0\",\"\",\"\",\"2-2\",\"4259\",\"38\",\"1\",\"Training\",\"Stims/Figures/85-J-0-2.bmp\",\"vafasha\",\"Up\",\"38\",\"4\",\"13\",\"8\",\"C1\",\"C\",\"61\"
\"\",\"\",\"approach-retreat\",\"65\",\"595370\",\"0.0-65.0\",\"\",\"\",\"2-2\",\"4706\",\"39\",\"1\",\"Training\",\"Stims/Figures/93-C-30-1.bmp\",\"fa:sha:sha\",\"Left\",\"39\",\"4\",\"14\",\"8\",\"C1\",\"C\",\"62\"
\"\",\"\",\"approach-retreat\",\"66\",\"601191\",\"0.0-66.0\",\"\",\"\",\"2-2\",\"4308\",\"37\",\"1\",\"Training\",\"Stims/Figures/144-J-10-3.bmp\",\"sa:saza\",\"Left\",\"37\",\"4\",\"15\",\"8\",\"C2\",\"C\",\"63\"
\"\",\"\",\"approach-retreat\",\"67\",\"607191\",\"0.0-67.0\",\"\",\"\",\"2-2\",\"4487\",\"38\",\"1\",\"Training\",\"Stims/Figures/85-C-20-2.bmp\",\"vasha:va\",\"Down\",\"38\",\"4\",\"16\",\"8\",\"C1\",\"C\",\"64\"
\"\",\"\",\"approach-retreat\",\"68\",\"613220\",\"0.0-68.0\",\"\",\"\",\"2-2\",\"4516\",\"39\",\"1\",\"Training\",\"Stims/Figures/139-J-0-2.bmp\",\"va:shava\",\"Right\",\"39\",\"5\",\"1\",\"8\",\"C1\",\"C\",\"65\"
\"\",\"\",\"approach-retreat\",\"69\",\"620440\",\"0.0-69.0\",\"\",\"\",\"2-2\",\"5707\",\"37\",\"1\",\"Training\",\"Stims/Figures/144-C-30-3.bmp\",\"za:saza\",\"Right\",\"37\",\"5\",\"2\",\"8\",\"C2\",\"C\",\"66\"
\"\",\"\",\"approach-retreat\",\"70\",\"626427\",\"0.0-70.0\",\"\",\"\",\"2-2\",\"4474\",\"37\",\"1\",\"Training\",\"Stims/Figures/7-J-10-4.bmp\",\"sasa:ha\",\"Left\",\"37\",\"5\",\"3\",\"8\",\"C2\",\"C\",\"67\"
\"\",\"\",\"approach-retreat\",\"71\",\"632035\",\"0.0-71.0\",\"\",\"\",\"2-2\",\"4089\",\"39\",\"1\",\"Training\",\"Stims/Figures/7-C-20-4.bmp\",\"sasa:za\",\"Left\",\"39\",\"5\",\"4\",\"8\",\"C2\",\"C\",\"68\"
\"\",\"\",\"approach-retreat\",\"72\",\"637487\",\"0.0-72.0\",\"\",\"\",\"2-2\",\"3939\",\"37\",\"1\",\"Training\",\"Stims/Figures/93-J-0-1.bmp\",\"fafa:va\",\"Left\",\"37\",\"5\",\"5\",\"8\",\"C1\",\"C\",\"69\"
\"\",\"\",\"approach-retreat\",\"73\",\"643542\",\"0.0-73.0\",\"\",\"\",\"2-2\",\"4542\",\"38\",\"1\",\"Training\",\"Stims/Figures/102-J-10-4.bmp\",\"sa:haza\",\"Up\",\"38\",\"5\",\"6\",\"8\",\"C2\",\"C\",\"70\"
\"\",\"\",\"approach-retreat\",\"74\",\"649303\",\"0.0-74.0\",\"\",\"\",\"2-2\",\"4247\",\"37\",\"1\",\"Training\",\"Stims/Figures/44-C-30-3.bmp\",\"saha:za\",\"Right\",\"37\",\"5\",\"7\",\"8\",\"C2\",\"C\",\"71\"
\"\",\"\",\"approach-retreat\",\"75\",\"656710\",\"0.0-75.0\",\"\",\"\",\"2-2\",\"5894\",\"40\",\"0\",\"Training\",\"Stims/Figures/102-C-20-4.bmp\",\"za:sa:za\",\"Down\",\"38\",\"5\",\"8\",\"8\",\"C2\",\"C\",\"72\"
\"\",\"\",\"approach-retreat\",\"76\",\"662763\",\"0.0-76.0\",\"\",\"\",\"2-2\",\"4541\",\"39\",\"1\",\"Training\",\"Stims/Figures/85-C-20-2.bmp\",\"vasha:va\",\"Left\",\"39\",\"5\",\"9\",\"8\",\"C1\",\"C\",\"73\"
\"\",\"\",\"approach-retreat\",\"77\",\"669261\",\"0.0-77.0\",\"\",\"\",\"2-2\",\"4983\",\"38\",\"1\",\"Training\",\"Stims/Figures/44-J-10-3.bmp\",\"sahaza\",\"Up\",\"38\",\"5\",\"10\",\"8\",\"C2\",\"C\",\"74\"
\"\",\"\",\"approach-retreat\",\"78\",\"675193\",\"0.0-78.0\",\"\",\"\",\"2-2\",\"4420\",\"38\",\"1\",\"Training\",\"Stims/Figures/93-C-30-1.bmp\",\"fa:sha:sha\",\"Down\",\"38\",\"5\",\"11\",\"8\",\"C1\",\"C\",\"75\"
\"\",\"\",\"approach-retreat\",\"79\",\"681376\",\"0.0-79.0\",\"\",\"\",\"2-2\",\"4670\",\"40\",\"1\",\"Training\",\"Stims/Figures/85-J-0-2.bmp\",\"vafasha\",\"Down\",\"40\",\"5\",\"12\",\"8\",\"C1\",\"C\",\"76\"
\"\",\"\",\"approach-retreat\",\"80\",\"687945\",\"0.0-80.0\",\"\",\"\",\"2-2\",\"5056\",\"37\",\"1\",\"Training\",\"Stims/Figures/139-C-20-2.bmp\",\"va:sha:sha\",\"Right\",\"37\",\"5\",\"13\",\"8\",\"C1\",\"C\",\"77\"
\"\",\"\",\"approach-retreat\",\"81\",\"695302\",\"0.0-81.0\",\"\",\"\",\"2-2\",\"5846\",\"38\",\"1\",\"Training\",\"Stims/Figures/144-J-10-3.bmp\",\"sa:saza\",\"Up\",\"38\",\"5\",\"14\",\"8\",\"C2\",\"C\",\"78\"
\"\",\"\",\"approach-retreat\",\"82\",\"701146\",\"0.0-82.0\",\"\",\"\",\"2-2\",\"4329\",\"38\",\"1\",\"Training\",\"Stims/Figures/71-C-30-1.bmp\",\"vashasha\",\"Down\",\"38\",\"5\",\"15\",\"8\",\"C1\",\"C\",\"79\"
\"\",\"\",\"approach-retreat\",\"83\",\"708804\",\"0.0-83.0\",\"\",\"\",\"2-2\",\"6146\",\"38\",\"1\",\"Training\",\"Stims/Figures/71-J-0-1.bmp\",\"fafava\",\"Up\",\"38\",\"5\",\"16\",\"8\",\"C1\",\"C\",\"80\"
\"\",\"\",\"approach-retreat\",\"84\",\"715122\",\"0.0-84.0\",\"\",\"\",\"2-2\",\"4806\",\"37\",\"1\",\"Training\",\"Stims/Figures/71-C-30-1.bmp\",\"vashasha\",\"Right\",\"37\",\"6\",\"1\",\"8\",\"C1\",\"C\",\"81\"
\"\",\"\",\"approach-retreat\",\"85\",\"721085\",\"0.0-85.0\",\"\",\"\",\"2-2\",\"4450\",\"40\",\"1\",\"Training\",\"Stims/Figures/93-C-30-1.bmp\",\"fa:sha:sha\",\"Up\",\"40\",\"6\",\"2\",\"8\",\"C1\",\"C\",\"82\"
\"\",\"\",\"approach-retreat\",\"86\",\"727520\",\"0.0-86.0\",\"\",\"\",\"2-2\",\"4922\",\"39\",\"1\",\"Training\",\"Stims/Figures/85-C-20-2.bmp\",\"vasha:va\",\"Left\",\"39\",\"6\",\"3\",\"8\",\"C1\",\"C\",\"83\"
\"\",\"\",\"approach-retreat\",\"87\",\"733277\",\"0.0-87.0\",\"\",\"\",\"2-2\",\"4244\",\"38\",\"1\",\"Training\",\"Stims/Figures/93-J-0-1.bmp\",\"fafa:va\",\"Up\",\"38\",\"6\",\"4\",\"8\",\"C1\",\"C\",\"84\"
\"\",\"\",\"approach-retreat\",\"88\",\"739677\",\"0.0-88.0\",\"\",\"\",\"2-2\",\"4887\",\"40\",\"1\",\"Training\",\"Stims/Figures/7-J-10-4.bmp\",\"sasa:ha\",\"Down\",\"40\",\"6\",\"5\",\"8\",\"C2\",\"C\",\"85\"
\"\",\"\",\"approach-retreat\",\"89\",\"745693\",\"0.0-89.0\",\"\",\"\",\"2-2\",\"4504\",\"38\",\"1\",\"Training\",\"Stims/Figures/139-C-20-2.bmp\",\"va:sha:sha\",\"Down\",\"38\",\"6\",\"6\",\"8\",\"C1\",\"C\",\"86\"
\"\",\"\",\"approach-retreat\",\"90\",\"751474\",\"0.0-90.0\",\"\",\"\",\"2-2\",\"4267\",\"39\",\"1\",\"Training\",\"Stims/Figures/44-J-10-3.bmp\",\"sahaza\",\"Right\",\"39\",\"6\",\"7\",\"8\",\"C2\",\"C\",\"87\"
\"\",\"\",\"approach-retreat\",\"91\",\"757310\",\"0.0-91.0\",\"\",\"\",\"2-2\",\"4323\",\"39\",\"1\",\"Training\",\"Stims/Figures/144-C-30-3.bmp\",\"za:saza\",\"Left\",\"39\",\"6\",\"8\",\"8\",\"C2\",\"C\",\"88\"
\"\",\"\",\"approach-retreat\",\"92\",\"763090\",\"0.0-92.0\",\"\",\"\",\"2-2\",\"4265\",\"37\",\"1\",\"Training\",\"Stims/Figures/85-J-0-2.bmp\",\"vafasha\",\"Left\",\"37\",\"6\",\"9\",\"8\",\"C1\",\"C\",\"89\"
\"\",\"\",\"approach-retreat\",\"93\",\"770393\",\"0.0-93.0\",\"\",\"\",\"2-2\",\"5791\",\"37\",\"1\",\"Training\",\"Stims/Figures/144-J-10-3.bmp\",\"sa:saza\",\"Left\",\"37\",\"6\",\"10\",\"8\",\"C2\",\"C\",\"90\"
\"\",\"\",\"approach-retreat\",\"94\",\"777413\",\"0.0-94.0\",\"\",\"\",\"2-2\",\"5501\",\"38\",\"1\",\"Training\",\"Stims/Figures/71-J-0-1.bmp\",\"fafava\",\"Up\",\"38\",\"6\",\"11\",\"8\",\"C1\",\"C\",\"91\"
\"\",\"\",\"approach-retreat\",\"95\",\"784250\",\"0.0-95.0\",\"\",\"\",\"2-2\",\"5324\",\"39\",\"1\",\"Training\",\"Stims/Figures/102-J-10-4.bmp\",\"sa:haza\",\"Right\",\"39\",\"6\",\"12\",\"8\",\"C2\",\"C\",\"92\"
\"\",\"\",\"approach-retreat\",\"96\",\"790112\",\"0.0-96.0\",\"\",\"\",\"2-2\",\"4346\",\"40\",\"1\",\"Training\",\"Stims/Figures/139-J-0-2.bmp\",\"va:shava\",\"Down\",\"40\",\"6\",\"13\",\"8\",\"C1\",\"C\",\"93\"
\"\",\"\",\"approach-retreat\",\"97\",\"796371\",\"0.0-97.0\",\"\",\"\",\"2-2\",\"4745\",\"40\",\"0\",\"Training\",\"Stims/Figures/102-C-20-4.bmp\",\"za:sa:za\",\"Down\",\"38\",\"6\",\"14\",\"8\",\"C2\",\"C\",\"94\"
\"\",\"\",\"approach-retreat\",\"98\",\"802195\",\"0.0-98.0\",\"\",\"\",\"2-2\",\"4312\",\"40\",\"1\",\"Training\",\"Stims/Figures/7-C-20-4.bmp\",\"sasa:za\",\"Up\",\"40\",\"6\",\"15\",\"8\",\"C2\",\"C\",\"95\"
\"\",\"\",\"approach-retreat\",\"99\",\"808313\",\"0.0-99.0\",\"\",\"\",\"2-2\",\"4604\",\"37\",\"1\",\"Training\",\"Stims/Figures/44-C-30-3.bmp\",\"saha:za\",\"Right\",\"37\",\"6\",\"16\",\"8\",\"C2\",\"C\",\"96\"
\"\",\"\",\"approach-retreat\",\"100\",\"814009\",\"0.0-100.0\",\"\",\"\",\"2-2\",\"4183\",\"40\",\"0\",\"Training\",\"Stims/Figures/7-J-10-4.bmp\",\"sasa:ha\",\"Up\",\"38\",\"7\",\"1\",\"8\",\"C2\",\"C\",\"97\"
\"\",\"\",\"approach-retreat\",\"101\",\"819782\",\"0.0-101.0\",\"\",\"\",\"2-2\",\"4260\",\"38\",\"1\",\"Training\",\"Stims/Figures/102-C-20-4.bmp\",\"za:sa:za\",\"Down\",\"38\",\"7\",\"2\",\"8\",\"C2\",\"C\",\"98\"
\"\",\"\",\"approach-retreat\",\"102\",\"825856\",\"0.0-102.0\",\"\",\"\",\"2-2\",\"4560\",\"38\",\"1\",\"Training\",\"Stims/Figures/139-J-0-2.bmp\",\"va:shava\",\"Up\",\"38\",\"7\",\"3\",\"8\",\"C1\",\"C\",\"99\"
\"\",\"\",\"approach-retreat\",\"103\",\"831904\",\"0.0-103.0\",\"\",\"\",\"2-2\",\"4537\",\"37\",\"1\",\"Training\",\"Stims/Figures/71-C-30-1.bmp\",\"vashasha\",\"Right\",\"37\",\"7\",\"4\",\"8\",\"C1\",\"C\",\"100\"
\"\",\"\",\"approach-retreat\",\"104\",\"837913\",\"0.0-104.0\",\"\",\"\",\"2-2\",\"4496\",\"40\",\"1\",\"Training\",\"Stims/Figures/71-J-0-1.bmp\",\"fafava\",\"Down\",\"40\",\"7\",\"5\",\"8\",\"C1\",\"C\",\"101\"
\"\",\"\",\"approach-retreat\",\"105\",\"843774\",\"0.0-105.0\",\"\",\"\",\"2-2\",\"4348\",\"38\",\"1\",\"Training\",\"Stims/Figures/93-C-30-1.bmp\",\"fa:sha:sha\",\"Down\",\"38\",\"7\",\"6\",\"8\",\"C1\",\"C\",\"102\"
\"\",\"\",\"approach-retreat\",\"106\",\"849553\",\"0.0-106.0\",\"\",\"\",\"2-2\",\"4266\",\"40\",\"1\",\"Training\",\"Stims/Figures/85-C-20-2.bmp\",\"vasha:va\",\"Up\",\"40\",\"7\",\"7\",\"8\",\"C1\",\"C\",\"103\"
\"\",\"\",\"approach-retreat\",\"107\",\"855179\",\"0.0-107.0\",\"\",\"\",\"2-2\",\"4114\",\"37\",\"1\",\"Training\",\"Stims/Figures/144-C-30-3.bmp\",\"za:saza\",\"Right\",\"37\",\"7\",\"8\",\"8\",\"C2\",\"C\",\"104\"
\"\",\"\",\"approach-retreat\",\"108\",\"861985\",\"0.0-108.0\",\"\",\"\",\"2-2\",\"5293\",\"39\",\"1\",\"Training\",\"Stims/Figures/44-J-10-3.bmp\",\"sahaza\",\"Right\",\"39\",\"7\",\"9\",\"8\",\"C2\",\"C\",\"105\"
\"\",\"\",\"approach-retreat\",\"109\",\"867559\",\"0.0-109.0\",\"\",\"\",\"2-2\",\"4060\",\"37\",\"0\",\"Training\",\"Stims/Figures/102-J-10-4.bmp\",\"sa:haza\",\"Right\",\"39\",\"7\",\"10\",\"8\",\"C2\",\"C\",\"106\"
\"\",\"\",\"approach-retreat\",\"110\",\"873396\",\"0.0-110.0\",\"\",\"\",\"2-2\",\"4322\",\"37\",\"1\",\"Training\",\"Stims/Figures/85-J-0-2.bmp\",\"vafasha\",\"Left\",\"37\",\"7\",\"11\",\"8\",\"C1\",\"C\",\"107\"
\"\",\"\",\"approach-retreat\",\"111\",\"879582\",\"0.0-111.0\",\"\",\"\",\"2-2\",\"4673\",\"40\",\"1\",\"Training\",\"Stims/Figures/44-C-30-3.bmp\",\"saha:za\",\"Up\",\"40\",\"7\",\"12\",\"8\",\"C2\",\"C\",\"108\"
\"\",\"\",\"approach-retreat\",\"112\",\"885836\",\"0.0-112.0\",\"\",\"\",\"2-2\",\"4742\",\"37\",\"1\",\"Training\",\"Stims/Figures/93-J-0-1.bmp\",\"fafa:va\",\"Left\",\"37\",\"7\",\"13\",\"8\",\"C1\",\"C\",\"109\"
\"\",\"\",\"approach-retreat\",\"113\",\"891465\",\"0.0-113.0\",\"\",\"\",\"2-2\",\"4116\",\"39\",\"1\",\"Training\",\"Stims/Figures/7-C-20-4.bmp\",\"sasa:za\",\"Left\",\"39\",\"7\",\"14\",\"8\",\"C2\",\"C\",\"110\"
\"\",\"\",\"approach-retreat\",\"114\",\"897165\",\"0.0-114.0\",\"\",\"\",\"2-2\",\"4188\",\"40\",\"1\",\"Training\",\"Stims/Figures/144-J-10-3.bmp\",\"sa:saza\",\"Down\",\"40\",\"7\",\"15\",\"8\",\"C2\",\"C\",\"111\"
\"\",\"\",\"approach-retreat\",\"115\",\"903329\",\"0.0-115.0\",\"\",\"\",\"2-2\",\"4651\",\"37\",\"0\",\"Training\",\"Stims/Figures/139-C-20-2.bmp\",\"va:sha:sha\",\"Left\",\"39\",\"7\",\"16\",\"8\",\"C1\",\"C\",\"112\"
\"\",\"\",\"approach-retreat\",\"116\",\"910376\",\"0.0-116.0\",\"\",\"\",\"2-2\",\"5535\",\"37\",\"1\",\"Training\",\"Stims/Figures/139-J-0-2.bmp\",\"va:shava\",\"Left\",\"37\",\"8\",\"1\",\"8\",\"C1\",\"C\",\"113\"
\"\",\"\",\"approach-retreat\",\"117\",\"917782\",\"0.0-117.0\",\"\",\"\",\"2-2\",\"5891\",\"39\",\"0\",\"Training\",\"Stims/Figures/93-J-0-1.bmp\",\"fafa:va\",\"Left\",\"37\",\"8\",\"2\",\"8\",\"C1\",\"C\",\"114\"
\"\",\"\",\"approach-retreat\",\"118\",\"923879\",\"0.0-118.0\",\"\",\"\",\"2-2\",\"4584\",\"39\",\"1\",\"Training\",\"Stims/Figures/44-C-30-3.bmp\",\"saha:za\",\"Left\",\"39\",\"8\",\"3\",\"8\",\"C2\",\"C\",\"115\"
\"\",\"\",\"approach-retreat\",\"119\",\"929734\",\"0.0-119.0\",\"\",\"\",\"2-2\",\"4344\",\"37\",\"1\",\"Training\",\"Stims/Figures/144-C-30-3.bmp\",\"za:saza\",\"Right\",\"37\",\"8\",\"4\",\"8\",\"C2\",\"C\",\"116\"
\"\",\"\",\"approach-retreat\",\"120\",\"935827\",\"0.0-120.0\",\"\",\"\",\"2-2\",\"4581\",\"37\",\"1\",\"Training\",\"Stims/Figures/93-C-30-1.bmp\",\"fa:sha:sha\",\"Right\",\"37\",\"8\",\"5\",\"8\",\"C1\",\"C\",\"117\"
\"\",\"\",\"approach-retreat\",\"121\",\"942420\",\"0.0-121.0\",\"\",\"\",\"2-2\",\"5080\",\"38\",\"1\",\"Training\",\"Stims/Figures/71-C-30-1.bmp\",\"vashasha\",\"Down\",\"38\",\"8\",\"6\",\"8\",\"C1\",\"C\",\"118\"
\"\",\"\",\"approach-retreat\",\"122\",\"948330\",\"0.0-122.0\",\"\",\"\",\"2-2\",\"4397\",\"39\",\"1\",\"Training\",\"Stims/Figures/7-C-20-4.bmp\",\"sasa:za\",\"Left\",\"39\",\"8\",\"7\",\"8\",\"C2\",\"C\",\"119\"
\"\",\"\",\"approach-retreat\",\"123\",\"954977\",\"0.0-123.0\",\"\",\"\",\"2-2\",\"5134\",\"38\",\"1\",\"Training\",\"Stims/Figures/102-C-20-4.bmp\",\"za:sa:za\",\"Down\",\"38\",\"8\",\"8\",\"8\",\"C2\",\"C\",\"120\"
\"\",\"\",\"approach-retreat\",\"124\",\"961375\",\"0.0-124.0\",\"\",\"\",\"2-2\",\"4884\",\"38\",\"1\",\"Training\",\"Stims/Figures/71-J-0-1.bmp\",\"fafava\",\"Up\",\"38\",\"8\",\"9\",\"8\",\"C1\",\"C\",\"121\"
\"\",\"\",\"approach-retreat\",\"125\",\"967321\",\"0.0-125.0\",\"\",\"\",\"2-2\",\"4433\",\"38\",\"1\",\"Training\",\"Stims/Figures/102-J-10-4.bmp\",\"sa:haza\",\"Up\",\"38\",\"8\",\"10\",\"8\",\"C2\",\"C\",\"122\"
\"\",\"\",\"approach-retreat\",\"126\",\"973014\",\"0.0-126.0\",\"\",\"\",\"2-2\",\"4179\",\"39\",\"1\",\"Training\",\"Stims/Figures/44-J-10-3.bmp\",\"sahaza\",\"Right\",\"39\",\"8\",\"11\",\"8\",\"C2\",\"C\",\"123\"
\"\",\"\",\"approach-retreat\",\"127\",\"979875\",\"0.0-127.0\",\"\",\"\",\"2-2\",\"5350\",\"39\",\"1\",\"Training\",\"Stims/Figures/85-J-0-2.bmp\",\"vafasha\",\"Right\",\"39\",\"8\",\"12\",\"8\",\"C1\",\"C\",\"124\"
\"\",\"\",\"approach-retreat\",\"128\",\"985790\",\"0.0-128.0\",\"\",\"\",\"2-2\",\"4402\",\"38\",\"1\",\"Training\",\"Stims/Figures/7-J-10-4.bmp\",\"sasa:ha\",\"Up\",\"38\",\"8\",\"13\",\"8\",\"C2\",\"C\",\"125\"
\"\",\"\",\"approach-retreat\",\"129\",\"991447\",\"0.0-129.0\",\"\",\"\",\"2-2\",\"4145\",\"38\",\"1\",\"Training\",\"Stims/Figures/144-J-10-3.bmp\",\"sa:saza\",\"Up\",\"38\",\"8\",\"14\",\"8\",\"C2\",\"C\",\"126\"
\"\",\"\",\"approach-retreat\",\"130\",\"997798\",\"0.0-130.0\",\"\",\"\",\"2-2\",\"4839\",\"38\",\"1\",\"Training\",\"Stims/Figures/85-C-20-2.bmp\",\"vasha:va\",\"Down\",\"38\",\"8\",\"15\",\"8\",\"C1\",\"C\",\"127\"
\"\",\"\",\"approach-retreat\",\"131\",\"1004044\",\"0.0-131.0\",\"\",\"\",\"2-2\",\"4733\",\"38\",\"1\",\"Training\",\"Stims/Figures/139-C-20-2.bmp\",\"va:sha:sha\",\"Down\",\"38\",\"8\",\"16\",\"8\",\"C1\",\"C\",\"128\"
\"\",\"\",\"approach-retreat\",\"132\",\"1010557\",\"0.0-132.0\",\"\",\"\",\"2-2\",\"4998\",\"38\",\"1\",\"Training\",\"Stims/Figures/144-J-10-3.bmp\",\"sa:saza\",\"Up\",\"38\",\"9\",\"1\",\"8\",\"C2\",\"C\",\"129\"
\"\",\"\",\"approach-retreat\",\"133\",\"1017184\",\"0.0-133.0\",\"\",\"\",\"2-2\",\"5115\",\"38\",\"1\",\"Training\",\"Stims/Figures/139-J-0-2.bmp\",\"va:shava\",\"Up\",\"38\",\"9\",\"2\",\"8\",\"C1\",\"C\",\"130\"
\"\",\"\",\"approach-retreat\",\"134\",\"1024019\",\"0.0-134.0\",\"\",\"\",\"2-2\",\"5321\",\"39\",\"1\",\"Training\",\"Stims/Figures/102-C-20-4.bmp\",\"za:sa:za\",\"Left\",\"39\",\"9\",\"3\",\"8\",\"C2\",\"C\",\"131\"
\"\",\"\",\"approach-retreat\",\"135\",\"1030073\",\"0.0-135.0\",\"\",\"\",\"2-2\",\"4541\",\"37\",\"1\",\"Training\",\"Stims/Figures/44-C-30-3.bmp\",\"saha:za\",\"Right\",\"37\",\"9\",\"4\",\"8\",\"C2\",\"C\",\"132\"
\"\",\"\",\"approach-retreat\",\"136\",\"1035975\",\"0.0-136.0\",\"\",\"\",\"2-2\",\"4390\",\"39\",\"1\",\"Training\",\"Stims/Figures/144-C-30-3.bmp\",\"za:saza\",\"Left\",\"39\",\"9\",\"5\",\"8\",\"C2\",\"C\",\"133\"
\"\",\"\",\"approach-retreat\",\"137\",\"1041563\",\"0.0-137.0\",\"\",\"\",\"2-2\",\"4076\",\"37\",\"1\",\"Training\",\"Stims/Figures/85-C-20-2.bmp\",\"vasha:va\",\"Right\",\"37\",\"9\",\"6\",\"8\",\"C1\",\"C\",\"134\"
\"\",\"\",\"approach-retreat\",\"138\",\"1048070\",\"0.0-138.0\",\"\",\"\",\"2-2\",\"4994\",\"37\",\"0\",\"Training\",\"Stims/Figures/93-J-0-1.bmp\",\"fafa:va\",\"Right\",\"39\",\"9\",\"7\",\"8\",\"C1\",\"C\",\"135\"
\"\",\"\",\"approach-retreat\",\"139\",\"1054088\",\"0.0-139.0\",\"\",\"\",\"2-2\",\"4504\",\"38\",\"1\",\"Training\",\"Stims/Figures/71-J-0-1.bmp\",\"fafava\",\"Up\",\"38\",\"9\",\"8\",\"8\",\"C1\",\"C\",\"136\"
\"\",\"\",\"approach-retreat\",\"140\",\"1061057\",\"0.0-140.0\",\"\",\"\",\"2-2\",\"5456\",\"39\",\"0\",\"Training\",\"Stims/Figures/7-J-10-4.bmp\",\"sasa:ha\",\"Left\",\"37\",\"9\",\"9\",\"8\",\"C2\",\"C\",\"137\"
\"\",\"\",\"approach-retreat\",\"141\",\"1067798\",\"0.0-141.0\",\"\",\"\",\"2-2\",\"5227\",\"38\",\"1\",\"Training\",\"Stims/Figures/44-J-10-3.bmp\",\"sahaza\",\"Up\",\"38\",\"9\",\"10\",\"8\",\"C2\",\"C\",\"138\"
\"\",\"\",\"approach-retreat\",\"142\",\"1073967\",\"0.0-142.0\",\"\",\"\",\"2-2\",\"4657\",\"38\",\"1\",\"Training\",\"Stims/Figures/139-C-20-2.bmp\",\"va:sha:sha\",\"Down\",\"38\",\"9\",\"11\",\"8\",\"C1\",\"C\",\"139\"
\"\",\"\",\"approach-retreat\",\"143\",\"1079626\",\"0.0-143.0\",\"\",\"\",\"2-2\",\"4144\",\"38\",\"1\",\"Training\",\"Stims/Figures/93-C-30-1.bmp\",\"fa:sha:sha\",\"Down\",\"38\",\"9\",\"12\",\"8\",\"C1\",\"C\",\"140\"
\"\",\"\",\"approach-retreat\",\"144\",\"1085435\",\"0.0-144.0\",\"\",\"\",\"2-2\",\"4296\",\"39\",\"1\",\"Training\",\"Stims/Figures/71-C-30-1.bmp\",\"vashasha\",\"Left\",\"39\",\"9\",\"13\",\"8\",\"C1\",\"C\",\"141\"
\"\",\"\",\"approach-retreat\",\"145\",\"1094780\",\"0.0-145.0\",\"\",\"\",\"2-2\",\"7833\",\"40\",\"1\",\"Training\",\"Stims/Figures/102-J-10-4.bmp\",\"sa:haza\",\"Down\",\"40\",\"9\",\"14\",\"8\",\"C2\",\"C\",\"142\"
\"\",\"\",\"approach-retreat\",\"146\",\"1100946\",\"0.0-146.0\",\"\",\"\",\"2-2\",\"4653\",\"40\",\"1\",\"Training\",\"Stims/Figures/85-J-0-2.bmp\",\"vafasha\",\"Down\",\"40\",\"9\",\"15\",\"8\",\"C1\",\"C\",\"143\"
\"\",\"\",\"approach-retreat\",\"147\",\"1106902\",\"0.0-147.0\",\"\",\"\",\"2-2\",\"4443\",\"37\",\"1\",\"Training\",\"Stims/Figures/7-C-20-4.bmp\",\"sasa:za\",\"Right\",\"37\",\"9\",\"16\",\"8\",\"C2\",\"C\",\"144\"
\"143670\",\"\",\"instructions\",\"148\",\"1250574\",\"0.0-148.0\",\"[{\"\"page_index\"\":0,\"\"viewing_time\"\":143669}]\",\"\",\"\",\"\",\"\",\"\",\"\",\"\",\"\",\"\",\"\",\"\",\"\",\"\",\"\",\"\",\"\"
\"\",\"\",\"approach-retreat\",\"149\",\"1257327\",\"0.0-149.0\",\"\",\"\",\"2-2\",\"5242\",\"40\",\"1\",\"Testing\",\"Stims/Figures/87-J-10-4.bmp\",\"sahaha\",\"Down\",\"40\",\"1\",\"1\",\"8\",\"C2\",\"C\",\"1\"
\"\",\"\",\"approach-retreat\",\"150\",\"1266102\",\"0.0-150.0\",\"\",\"\",\"2-2\",\"7264\",\"40\",\"1\",\"Testing\",\"Stims/Figures/85-J-0-2.bmp\",\"vafasha\",\"Down\",\"40\",\"1\",\"2\",\"8\",\"C1\",\"C\",\"2\"
\"\",\"\",\"approach-retreat\",\"151\",\"1272169\",\"0.0-151.0\",\"\",\"\",\"2-2\",\"4555\",\"40\",\"0\",\"Testing\",\"Stims/Figures/7-J-10-4.bmp\",\"sasa:ha\",\"Up\",\"38\",\"1\",\"3\",\"8\",\"C2\",\"C\",\"3\"
\"\",\"\",\"approach-retreat\",\"152\",\"1278296\",\"0.0-152.0\",\"\",\"\",\"2-2\",\"4615\",\"37\",\"1\",\"Testing\",\"Stims/Figures/118-C-20-2.bmp\",\"fa:sha:va\",\"Right\",\"37\",\"1\",\"4\",\"8\",\"C1\",\"C\",\"4\"
\"\",\"\",\"approach-retreat\",\"153\",\"1284736\",\"0.0-153.0\",\"\",\"\",\"2-2\",\"4929\",\"38\",\"1\",\"Testing\",\"Stims/Figures/86-J-0-1.bmp\",\"va:fa:va\",\"Up\",\"38\",\"1\",\"5\",\"8\",\"C1\",\"C\",\"5\"
\"\",\"\",\"approach-retreat\",\"154\",\"1290844\",\"0.0-154.0\",\"\",\"\",\"2-2\",\"4598\",\"37\",\"1\",\"Testing\",\"Stims/Figures/144-C-30-3.bmp\",\"za:saza\",\"Right\",\"37\",\"1\",\"6\",\"8\",\"C2\",\"C\",\"6\"
\"\",\"\",\"approach-retreat\",\"155\",\"1297474\",\"0.0-155.0\",\"\",\"\",\"2-2\",\"5120\",\"39\",\"1\",\"Testing\",\"Stims/Figures/44-C-30-3.bmp\",\"saha:za\",\"Left\",\"39\",\"1\",\"7\",\"8\",\"C2\",\"C\",\"7\"
\"\",\"\",\"approach-retreat\",\"156\",\"1303549\",\"0.0-156.0\",\"\",\"\",\"2-2\",\"4564\",\"38\",\"0\",\"Testing\",\"Stims/Figures/111-J-10-3.bmp\",\"sasaza\",\"Down\",\"40\",\"1\",\"8\",\"8\",\"C2\",\"C\",\"8\"
\"\",\"\",\"approach-retreat\",\"157\",\"1309727\",\"0.0-157.0\",\"\",\"\",\"2-2\",\"4668\",\"40\",\"1\",\"Testing\",\"Stims/Figures/86-C-30-1.bmp\",\"fasha:va\",\"Up\",\"40\",\"1\",\"9\",\"8\",\"C1\",\"C\",\"9\"
\"\",\"\",\"approach-retreat\",\"158\",\"1315771\",\"0.0-158.0\",\"\",\"\",\"2-2\",\"4534\",\"39\",\"1\",\"Testing\",\"Stims/Figures/7-C-20-4.bmp\",\"sasa:za\",\"Left\",\"39\",\"1\",\"10\",\"8\",\"C2\",\"C\",\"10\"
\"\",\"\",\"approach-retreat\",\"159\",\"1321666\",\"0.0-159.0\",\"\",\"\",\"2-2\",\"4383\",\"39\",\"1\",\"Testing\",\"Stims/Figures/144-J-10-3.bmp\",\"sa:saza\",\"Right\",\"39\",\"1\",\"11\",\"8\",\"C2\",\"C\",\"11\"
\"\",\"\",\"approach-retreat\",\"160\",\"1327439\",\"0.0-160.0\",\"\",\"\",\"2-2\",\"4264\",\"37\",\"1\",\"Testing\",\"Stims/Figures/118-J-0-2.bmp\",\"va:shasha\",\"Left\",\"37\",\"1\",\"12\",\"8\",\"C1\",\"C\",\"12\"
\"\",\"\",\"approach-retreat\",\"161\",\"1333883\",\"0.0-161.0\",\"\",\"\",\"2-2\",\"4933\",\"39\",\"1\",\"Testing\",\"Stims/Figures/93-C-30-1.bmp\",\"fa:sha:sha\",\"Left\",\"39\",\"1\",\"13\",\"8\",\"C1\",\"C\",\"13\"
\"\",\"\",\"approach-retreat\",\"162\",\"1340314\",\"0.0-162.0\",\"\",\"\",\"2-2\",\"4920\",\"40\",\"1\",\"Testing\",\"Stims/Figures/71-C-30-1.bmp\",\"vashasha\",\"Up\",\"40\",\"1\",\"14\",\"8\",\"C1\",\"C\",\"14\"
\"\",\"\",\"approach-retreat\",\"163\",\"1346675\",\"0.0-163.0\",\"\",\"\",\"2-2\",\"4851\",\"39\",\"1\",\"Testing\",\"Stims/Figures/85-C-20-2.bmp\",\"vasha:va\",\"Left\",\"39\",\"1\",\"15\",\"8\",\"C1\",\"C\",\"15\"
\"\",\"\",\"approach-retreat\",\"164\",\"1352421\",\"0.0-164.0\",\"\",\"\",\"2-2\",\"4234\",\"39\",\"1\",\"Testing\",\"Stims/Figures/139-J-0-2.bmp\",\"va:shava\",\"Right\",\"39\",\"1\",\"16\",\"8\",\"C1\",\"C\",\"16\"
\"\",\"\",\"approach-retreat\",\"165\",\"1358480\",\"0.0-165.0\",\"\",\"\",\"2-2\",\"4547\",\"40\",\"1\",\"Testing\",\"Stims/Figures/139-C-20-2.bmp\",\"va:sha:sha\",\"Up\",\"40\",\"1\",\"17\",\"8\",\"C1\",\"C\",\"17\"
\"\",\"\",\"approach-retreat\",\"166\",\"1365136\",\"0.0-166.0\",\"\",\"\",\"2-2\",\"5144\",\"38\",\"1\",\"Testing\",\"Stims/Figures/102-C-20-4.bmp\",\"za:sa:za\",\"Down\",\"38\",\"1\",\"18\",\"8\",\"C2\",\"C\",\"18\"
\"\",\"\",\"approach-retreat\",\"167\",\"1371438\",\"0.0-167.0\",\"\",\"\",\"2-2\",\"4781\",\"40\",\"1\",\"Testing\",\"Stims/Figures/71-J-0-1.bmp\",\"fafava\",\"Down\",\"40\",\"1\",\"19\",\"8\",\"C1\",\"C\",\"19\"
\"\",\"\",\"approach-retreat\",\"168\",\"1379600\",\"0.0-168.0\",\"\",\"\",\"2-2\",\"6651\",\"40\",\"0\",\"Testing\",\"Stims/Figures/44-J-10-3.bmp\",\"sahaza\",\"Up\",\"38\",\"1\",\"20\",\"8\",\"C2\",\"C\",\"20\"
\"\",\"\",\"approach-retreat\",\"169\",\"1385390\",\"0.0-169.0\",\"\",\"\",\"2-2\",\"4280\",\"38\",\"1\",\"Testing\",\"Stims/Figures/87-C-20-4.bmp\",\"za:sa:ha\",\"Down\",\"38\",\"1\",\"21\",\"8\",\"C2\",\"C\",\"21\"
\"\",\"\",\"approach-retreat\",\"170\",\"1391877\",\"0.0-170.0\",\"\",\"\",\"2-2\",\"4976\",\"39\",\"1\",\"Testing\",\"Stims/Figures/93-J-0-1.bmp\",\"fafa:va\",\"Right\",\"39\",\"1\",\"22\",\"8\",\"C1\",\"C\",\"22\"
\"\",\"\",\"approach-retreat\",\"171\",\"1398502\",\"0.0-171.0\",\"\",\"\",\"2-2\",\"5116\",\"39\",\"1\",\"Testing\",\"Stims/Figures/102-J-10-4.bmp\",\"sa:haza\",\"Right\",\"39\",\"1\",\"23\",\"8\",\"C2\",\"C\",\"23\"
\"\",\"\",\"approach-retreat\",\"172\",\"1404382\",\"0.0-172.0\",\"\",\"\",\"2-2\",\"4368\",\"39\",\"1\",\"Testing\",\"Stims/Figures/111-C-30-3.bmp\",\"sa:haha\",\"Left\",\"39\",\"1\",\"24\",\"8\",\"C2\",\"C\",\"24\"
\"\",\"\",\"approach-retreat\",\"173\",\"1409908\",\"0.0-173.0\",\"\",\"\",\"2-2\",\"4016\",\"39\",\"1\",\"Testing\",\"Stims/Figures/102-C-20-4.bmp\",\"za:sa:za\",\"Left\",\"39\",\"2\",\"1\",\"8\",\"C2\",\"C\",\"25\"
\"\",\"\",\"approach-retreat\",\"174\",\"1416260\",\"0.0-174.0\",\"\",\"\",\"2-2\",\"4840\",\"38\",\"1\",\"Testing\",\"Stims/Figures/118-J-0-2.bmp\",\"va:shasha\",\"Up\",\"38\",\"2\",\"2\",\"8\",\"C1\",\"C\",\"26\"
\"\",\"\",\"approach-retreat\",\"175\",\"1423158\",\"0.0-175.0\",\"\",\"\",\"2-2\",\"5387\",\"40\",\"1\",\"Testing\",\"Stims/Figures/102-J-10-4.bmp\",\"sa:haza\",\"Down\",\"40\",\"2\",\"3\",\"8\",\"C2\",\"C\",\"27\"
\"\",\"\",\"approach-retreat\",\"176\",\"1429254\",\"0.0-176.0\",\"\",\"\",\"2-2\",\"4586\",\"39\",\"1\",\"Testing\",\"Stims/Figures/85-J-0-2.bmp\",\"vafasha\",\"Right\",\"39\",\"2\",\"4\",\"8\",\"C1\",\"C\",\"28\"
\"\",\"\",\"approach-retreat\",\"177\",\"1435266\",\"0.0-177.0\",\"\",\"\",\"2-2\",\"4502\",\"37\",\"1\",\"Testing\",\"Stims/Figures/86-J-0-1.bmp\",\"va:fa:va\",\"Left\",\"37\",\"2\",\"5\",\"8\",\"C1\",\"C\",\"29\"
\"\",\"\",\"approach-retreat\",\"178\",\"1441340\",\"0.0-178.0\",\"\",\"\",\"2-2\",\"4565\",\"38\",\"1\",\"Testing\",\"Stims/Figures/7-J-10-4.bmp\",\"sasa:ha\",\"Up\",\"38\",\"2\",\"6\",\"8\",\"C2\",\"C\",\"30\"
\"\",\"\",\"approach-retreat\",\"179\",\"1450010\",\"0.0-179.0\",\"\",\"\",\"2-2\",\"7159\",\"38\",\"1\",\"Testing\",\"Stims/Figures/44-J-10-3.bmp\",\"sahaza\",\"Up\",\"38\",\"2\",\"7\",\"8\",\"C2\",\"C\",\"31\"
\"\",\"\",\"approach-retreat\",\"180\",\"1456631\",\"0.0-180.0\",\"\",\"\",\"2-2\",\"5112\",\"40\",\"1\",\"Testing\",\"Stims/Figures/139-C-20-2.bmp\",\"va:sha:sha\",\"Up\",\"40\",\"2\",\"8\",\"8\",\"C1\",\"C\",\"32\"
\"\",\"\",\"approach-retreat\",\"181\",\"1462598\",\"0.0-181.0\",\"\",\"\",\"2-2\",\"4452\",\"39\",\"1\",\"Testing\",\"Stims/Figures/111-C-30-3.bmp\",\"sa:haha\",\"Left\",\"39\",\"2\",\"9\",\"8\",\"C2\",\"C\",\"33\"
\"\",\"\",\"approach-retreat\",\"182\",\"1468466\",\"0.0-182.0\",\"\",\"\",\"2-2\",\"4357\",\"39\",\"1\",\"Testing\",\"Stims/Figures/44-C-30-3.bmp\",\"saha:za\",\"Left\",\"39\",\"2\",\"10\",\"8\",\"C2\",\"C\",\"34\"
\"\",\"\",\"approach-retreat\",\"183\",\"1474698\",\"0.0-183.0\",\"\",\"\",\"2-2\",\"4720\",\"37\",\"1\",\"Testing\",\"Stims/Figures/87-C-20-4.bmp\",\"za:sa:ha\",\"Right\",\"37\",\"2\",\"11\",\"8\",\"C2\",\"C\",\"35\"
\"\",\"\",\"approach-retreat\",\"184\",\"1481020\",\"0.0-184.0\",\"\",\"\",\"2-2\",\"4812\",\"39\",\"1\",\"Testing\",\"Stims/Figures/144-J-10-3.bmp\",\"sa:saza\",\"Right\",\"39\",\"2\",\"12\",\"8\",\"C2\",\"C\",\"36\"
\"\",\"\",\"approach-retreat\",\"185\",\"1487478\",\"0.0-185.0\",\"\",\"\",\"2-2\",\"4948\",\"37\",\"1\",\"Testing\",\"Stims/Figures/93-J-0-1.bmp\",\"fafa:va\",\"Left\",\"37\",\"2\",\"13\",\"8\",\"C1\",\"C\",\"37\"
\"\",\"\",\"approach-retreat\",\"186\",\"1493754\",\"0.0-186.0\",\"\",\"\",\"2-2\",\"4762\",\"37\",\"1\",\"Testing\",\"Stims/Figures/86-C-30-1.bmp\",\"fasha:va\",\"Right\",\"37\",\"2\",\"14\",\"8\",\"C1\",\"C\",\"38\"
\"\",\"\",\"approach-retreat\",\"187\",\"1499607\",\"0.0-187.0\",\"\",\"\",\"2-2\",\"4343\",\"40\",\"1\",\"Testing\",\"Stims/Figures/144-C-30-3.bmp\",\"za:saza\",\"Up\",\"40\",\"2\",\"15\",\"8\",\"C2\",\"C\",\"39\"
\"\",\"\",\"approach-retreat\",\"188\",\"1506025\",\"0.0-188.0\",\"\",\"\",\"2-2\",\"4908\",\"39\",\"1\",\"Testing\",\"Stims/Figures/85-C-20-2.bmp\",\"vasha:va\",\"Left\",\"39\",\"2\",\"16\",\"8\",\"C1\",\"C\",\"40\"
\"\",\"\",\"approach-retreat\",\"189\",\"1511900\",\"0.0-189.0\",\"\",\"\",\"2-2\",\"4365\",\"40\",\"1\",\"Testing\",\"Stims/Figures/139-J-0-2.bmp\",\"va:shava\",\"Down\",\"40\",\"2\",\"17\",\"8\",\"C1\",\"C\",\"41\"
\"\",\"\",\"approach-retreat\",\"190\",\"1517918\",\"0.0-190.0\",\"\",\"\",\"2-2\",\"4507\",\"40\",\"1\",\"Testing\",\"Stims/Figures/71-J-0-1.bmp\",\"fafava\",\"Down\",\"40\",\"2\",\"18\",\"8\",\"C1\",\"C\",\"42\"
\"\",\"\",\"approach-retreat\",\"191\",\"1524365\",\"0.0-191.0\",\"\",\"\",\"2-2\",\"4936\",\"37\",\"1\",\"Testing\",\"Stims/Figures/71-C-30-1.bmp\",\"vashasha\",\"Right\",\"37\",\"2\",\"19\",\"8\",\"C1\",\"C\",\"43\"
\"\",\"\",\"approach-retreat\",\"192\",\"1530066\",\"0.0-192.0\",\"\",\"\",\"2-2\",\"4189\",\"37\",\"1\",\"Testing\",\"Stims/Figures/7-C-20-4.bmp\",\"sasa:za\",\"Right\",\"37\",\"2\",\"20\",\"8\",\"C2\",\"C\",\"44\"
\"\",\"\",\"approach-retreat\",\"193\",\"1535765\",\"0.0-193.0\",\"\",\"\",\"2-2\",\"4187\",\"38\",\"1\",\"Testing\",\"Stims/Figures/93-C-30-1.bmp\",\"fa:sha:sha\",\"Down\",\"38\",\"2\",\"21\",\"8\",\"C1\",\"C\",\"45\"
\"\",\"\",\"approach-retreat\",\"194\",\"1542802\",\"0.0-194.0\",\"\",\"\",\"2-2\",\"5526\",\"40\",\"0\",\"Testing\",\"Stims/Figures/111-J-10-3.bmp\",\"sasaza\",\"Up\",\"38\",\"2\",\"22\",\"8\",\"C2\",\"C\",\"46\"
\"\",\"\",\"approach-retreat\",\"195\",\"1548655\",\"0.0-195.0\",\"\",\"\",\"2-2\",\"4343\",\"38\",\"1\",\"Testing\",\"Stims/Figures/118-C-20-2.bmp\",\"fa:sha:va\",\"Down\",\"38\",\"2\",\"23\",\"8\",\"C1\",\"C\",\"47\"
\"\",\"\",\"approach-retreat\",\"196\",\"1554367\",\"0.0-196.0\",\"\",\"\",\"2-2\",\"4200\",\"38\",\"0\",\"Testing\",\"Stims/Figures/87-J-10-4.bmp\",\"sahaha\",\"Down\",\"40\",\"2\",\"24\",\"8\",\"C2\",\"C\",\"48\"
\"\",\"\",\"approach-retreat\",\"197\",\"1560096\",\"0.0-197.0\",\"\",\"\",\"2-2\",\"4218\",\"38\",\"1\",\"Testing\",\"Stims/Figures/71-C-30-1.bmp\",\"vashasha\",\"Down\",\"38\",\"3\",\"1\",\"8\",\"C1\",\"C\",\"49\"
\"\",\"\",\"approach-retreat\",\"198\",\"1566100\",\"0.0-198.0\",\"\",\"\",\"2-2\",\"4495\",\"40\",\"0\",\"Testing\",\"Stims/Figures/144-J-10-3.bmp\",\"sa:saza\",\"Up\",\"38\",\"3\",\"2\",\"8\",\"C2\",\"C\",\"50\"
\"\",\"\",\"approach-retreat\",\"199\",\"1572522\",\"0.0-199.0\",\"\",\"\",\"2-2\",\"4910\",\"39\",\"1\",\"Testing\",\"Stims/Figures/102-J-10-4.bmp\",\"sa:haza\",\"Right\",\"39\",\"3\",\"3\",\"8\",\"C2\",\"C\",\"51\"
\"\",\"\",\"approach-retreat\",\"200\",\"1578481\",\"0.0-200.0\",\"\",\"\",\"2-2\",\"4449\",\"40\",\"1\",\"Testing\",\"Stims/Figures/7-J-10-4.bmp\",\"sasa:ha\",\"Down\",\"40\",\"3\",\"4\",\"8\",\"C2\",\"C\",\"52\"
\"\",\"\",\"approach-retreat\",\"201\",\"1584426\",\"0.0-201.0\",\"\",\"\",\"2-2\",\"4435\",\"38\",\"1\",\"Testing\",\"Stims/Figures/102-C-20-4.bmp\",\"za:sa:za\",\"Down\",\"38\",\"3\",\"5\",\"8\",\"C2\",\"C\",\"53\"
\"\",\"\",\"approach-retreat\",\"202\",\"1590450\",\"0.0-202.0\",\"\",\"\",\"2-2\",\"4513\",\"40\",\"1\",\"Testing\",\"Stims/Figures/111-C-30-3.bmp\",\"sa:haha\",\"Up\",\"40\",\"3\",\"6\",\"8\",\"C2\",\"C\",\"54\"
\"\",\"\",\"approach-retreat\",\"203\",\"1596287\",\"0.0-203.0\",\"\",\"\",\"2-2\",\"4328\",\"40\",\"1\",\"Testing\",\"Stims/Figures/93-C-30-1.bmp\",\"fa:sha:sha\",\"Up\",\"40\",\"3\",\"7\",\"8\",\"C1\",\"C\",\"55\"
\"\",\"\",\"approach-retreat\",\"204\",\"1602121\",\"0.0-204.0\",\"\",\"\",\"2-2\",\"4323\",\"39\",\"1\",\"Testing\",\"Stims/Figures/7-C-20-4.bmp\",\"sasa:za\",\"Left\",\"39\",\"3\",\"8\",\"8\",\"C2\",\"C\",\"56\"
\"\",\"\",\"approach-retreat\",\"205\",\"1608447\",\"0.0-205.0\",\"\",\"\",\"2-2\",\"4815\",\"38\",\"1\",\"Testing\",\"Stims/Figures/44-C-30-3.bmp\",\"saha:za\",\"Down\",\"38\",\"3\",\"9\",\"8\",\"C2\",\"C\",\"57\"
\"\",\"\",\"approach-retreat\",\"206\",\"1615255\",\"0.0-206.0\",\"\",\"\",\"2-2\",\"5296\",\"38\",\"1\",\"Testing\",\"Stims/Figures/87-J-10-4.bmp\",\"sahaha\",\"Up\",\"38\",\"3\",\"10\",\"8\",\"C2\",\"C\",\"58\"
\"\",\"\",\"approach-retreat\",\"207\",\"1621779\",\"0.0-207.0\",\"\",\"\",\"2-2\",\"5013\",\"40\",\"1\",\"Testing\",\"Stims/Figures/111-J-10-3.bmp\",\"sasaza\",\"Down\",\"40\",\"3\",\"11\",\"8\",\"C2\",\"C\",\"59\"
\"\",\"\",\"approach-retreat\",\"208\",\"1628108\",\"0.0-208.0\",\"\",\"\",\"2-2\",\"4818\",\"39\",\"1\",\"Testing\",\"Stims/Figures/85-C-20-2.bmp\",\"vasha:va\",\"Left\",\"39\",\"3\",\"12\",\"8\",\"C1\",\"C\",\"60\"
\"\",\"\",\"approach-retreat\",\"209\",\"1634478\",\"0.0-209.0\",\"\",\"\",\"2-2\",\"4860\",\"38\",\"1\",\"Testing\",\"Stims/Figures/86-C-30-1.bmp\",\"fasha:va\",\"Down\",\"38\",\"3\",\"13\",\"8\",\"C1\",\"C\",\"61\"
\"\",\"\",\"approach-retreat\",\"210\",\"1640627\",\"0.0-210.0\",\"\",\"\",\"2-2\",\"4639\",\"39\",\"1\",\"Testing\",\"Stims/Figures/118-J-0-2.bmp\",\"va:shasha\",\"Right\",\"39\",\"3\",\"14\",\"8\",\"C1\",\"C\",\"62\"
\"\",\"\",\"approach-retreat\",\"211\",\"1646535\",\"0.0-211.0\",\"\",\"\",\"2-2\",\"4397\",\"37\",\"1\",\"Testing\",\"Stims/Figures/86-J-0-1.bmp\",\"va:fa:va\",\"Left\",\"37\",\"3\",\"15\",\"8\",\"C1\",\"C\",\"63\"
\"\",\"\",\"approach-retreat\",\"212\",\"1653082\",\"0.0-212.0\",\"\",\"\",\"2-2\",\"5035\",\"38\",\"1\",\"Testing\",\"Stims/Figures/44-J-10-3.bmp\",\"sahaza\",\"Up\",\"38\",\"3\",\"16\",\"8\",\"C2\",\"C\",\"64\"
\"\",\"\",\"approach-retreat\",\"213\",\"1659950\",\"0.0-213.0\",\"\",\"\",\"2-2\",\"5358\",\"39\",\"1\",\"Testing\",\"Stims/Figures/118-C-20-2.bmp\",\"fa:sha:va\",\"Left\",\"39\",\"3\",\"17\",\"8\",\"C1\",\"C\",\"65\"
\"\",\"\",\"approach-retreat\",\"214\",\"1665867\",\"0.0-214.0\",\"\",\"\",\"2-2\",\"4406\",\"37\",\"1\",\"Testing\",\"Stims/Figures/85-J-0-2.bmp\",\"vafasha\",\"Left\",\"37\",\"3\",\"18\",\"8\",\"C1\",\"C\",\"66\"
\"\",\"\",\"approach-retreat\",\"215\",\"1671877\",\"0.0-215.0\",\"\",\"\",\"2-2\",\"4501\",\"39\",\"1\",\"Testing\",\"Stims/Figures/87-C-20-4.bmp\",\"za:sa:ha\",\"Left\",\"39\",\"3\",\"19\",\"8\",\"C2\",\"C\",\"67\"
\"\",\"\",\"approach-retreat\",\"216\",\"1677752\",\"0.0-216.0\",\"\",\"\",\"2-2\",\"4365\",\"39\",\"1\",\"Testing\",\"Stims/Figures/71-J-0-1.bmp\",\"fafava\",\"Right\",\"39\",\"3\",\"20\",\"8\",\"C1\",\"C\",\"68\"
\"\",\"\",\"approach-retreat\",\"217\",\"1683633\",\"0.0-217.0\",\"\",\"\",\"2-2\",\"4371\",\"39\",\"1\",\"Testing\",\"Stims/Figures/93-J-0-1.bmp\",\"fafa:va\",\"Right\",\"39\",\"3\",\"21\",\"8\",\"C1\",\"C\",\"69\"
\"\",\"\",\"approach-retreat\",\"218\",\"1689457\",\"0.0-218.0\",\"\",\"\",\"2-2\",\"4314\",\"39\",\"1\",\"Testing\",\"Stims/Figures/139-J-0-2.bmp\",\"va:shava\",\"Right\",\"39\",\"3\",\"22\",\"8\",\"C1\",\"C\",\"70\"
\"\",\"\",\"approach-retreat\",\"219\",\"1695466\",\"0.0-219.0\",\"\",\"\",\"2-2\",\"4500\",\"37\",\"1\",\"Testing\",\"Stims/Figures/139-C-20-2.bmp\",\"va:sha:sha\",\"Right\",\"37\",\"3\",\"23\",\"8\",\"C1\",\"C\",\"71\"
\"\",\"\",\"approach-retreat\",\"220\",\"1701553\",\"0.0-220.0\",\"\",\"\",\"2-2\",\"4577\",\"40\",\"1\",\"Testing\",\"Stims/Figures/144-C-30-3.bmp\",\"za:saza\",\"Up\",\"40\",\"3\",\"24\",\"8\",\"C2\",\"C\",\"72\"
\"\",\"\",\"approach-retreat\",\"221\",\"1707505\",\"0.0-221.0\",\"\",\"\",\"2-2\",\"4441\",\"40\",\"1\",\"Testing\",\"Stims/Figures/71-C-30-1.bmp\",\"vashasha\",\"Up\",\"40\",\"4\",\"1\",\"8\",\"C1\",\"C\",\"73\"
\"\",\"\",\"approach-retreat\",\"222\",\"1713247\",\"0.0-222.0\",\"\",\"\",\"2-2\",\"4230\",\"37\",\"1\",\"Testing\",\"Stims/Figures/85-J-0-2.bmp\",\"vafasha\",\"Left\",\"37\",\"4\",\"2\",\"8\",\"C1\",\"C\",\"74\"
\"\",\"\",\"approach-retreat\",\"223\",\"1719530\",\"0.0-223.0\",\"\",\"\",\"2-2\",\"4773\",\"40\",\"1\",\"Testing\",\"Stims/Figures/102-J-10-4.bmp\",\"sa:haza\",\"Down\",\"40\",\"4\",\"3\",\"8\",\"C2\",\"C\",\"75\"
\"\",\"\",\"approach-retreat\",\"224\",\"1725663\",\"0.0-224.0\",\"\",\"\",\"2-2\",\"4622\",\"38\",\"1\",\"Testing\",\"Stims/Figures/71-J-0-1.bmp\",\"fafava\",\"Up\",\"38\",\"4\",\"4\",\"8\",\"C1\",\"C\",\"76\"
\"\",\"\",\"approach-retreat\",\"225\",\"1732270\",\"0.0-225.0\",\"\",\"\",\"2-2\",\"5096\",\"40\",\"1\",\"Testing\",\"Stims/Figures/44-J-10-3.bmp\",\"sahaza\",\"Down\",\"40\",\"4\",\"5\",\"8\",\"C2\",\"C\",\"77\"
\"\",\"\",\"approach-retreat\",\"226\",\"1740214\",\"0.0-226.0\",\"\",\"\",\"2-2\",\"6432\",\"39\",\"1\",\"Testing\",\"Stims/Figures/7-J-10-4.bmp\",\"sasa:ha\",\"Right\",\"39\",\"4\",\"6\",\"8\",\"C2\",\"C\",\"78\"
\"\",\"\",\"approach-retreat\",\"227\",\"1746058\",\"0.0-227.0\",\"\",\"\",\"2-2\",\"4329\",\"39\",\"1\",\"Testing\",\"Stims/Figures/93-J-0-1.bmp\",\"fafa:va\",\"Right\",\"39\",\"4\",\"7\",\"8\",\"C1\",\"C\",\"79\"
\"\",\"\",\"approach-retreat\",\"228\",\"1752588\",\"0.0-228.0\",\"\",\"\",\"2-2\",\"5019\",\"40\",\"1\",\"Testing\",\"Stims/Figures/44-C-30-3.bmp\",\"saha:za\",\"Up\",\"40\",\"4\",\"8\",\"8\",\"C2\",\"C\",\"80\"
\"\",\"\",\"approach-retreat\",\"229\",\"1759160\",\"0.0-229.0\",\"\",\"\",\"2-2\",\"5061\",\"40\",\"1\",\"Testing\",\"Stims/Figures/86-C-30-1.bmp\",\"fasha:va\",\"Up\",\"40\",\"4\",\"9\",\"8\",\"C1\",\"C\",\"81\"
\"\",\"\",\"approach-retreat\",\"230\",\"1765309\",\"0.0-230.0\",\"\",\"\",\"2-2\",\"4639\",\"39\",\"1\",\"Testing\",\"Stims/Figures/93-C-30-1.bmp\",\"fa:sha:sha\",\"Left\",\"39\",\"4\",\"10\",\"8\",\"C1\",\"C\",\"82\"
\"\",\"\",\"approach-retreat\",\"231\",\"1771308\",\"0.0-231.0\",\"\",\"\",\"2-2\",\"4488\",\"39\",\"1\",\"Testing\",\"Stims/Figures/139-J-0-2.bmp\",\"va:shava\",\"Right\",\"39\",\"4\",\"11\",\"8\",\"C1\",\"C\",\"83\"
\"\",\"\",\"approach-retreat\",\"232\",\"1777425\",\"0.0-232.0\",\"\",\"\",\"2-2\",\"4606\",\"37\",\"1\",\"Testing\",\"Stims/Figures/7-C-20-4.bmp\",\"sasa:za\",\"Right\",\"37\",\"4\",\"12\",\"8\",\"C2\",\"C\",\"84\"
\"\",\"\",\"approach-retreat\",\"233\",\"1785730\",\"0.0-233.0\",\"\",\"\",\"2-2\",\"6790\",\"38\",\"1\",\"Testing\",\"Stims/Figures/102-C-20-4.bmp\",\"za:sa:za\",\"Down\",\"38\",\"4\",\"13\",\"8\",\"C2\",\"C\",\"85\"
\"\",\"\",\"approach-retreat\",\"234\",\"1791737\",\"0.0-234.0\",\"\",\"\",\"2-2\",\"4495\",\"38\",\"1\",\"Testing\",\"Stims/Figures/139-C-20-2.bmp\",\"va:sha:sha\",\"Down\",\"38\",\"4\",\"14\",\"8\",\"C1\",\"C\",\"86\"
\"\",\"\",\"approach-retreat\",\"235\",\"1797463\",\"0.0-235.0\",\"\",\"\",\"2-2\",\"4217\",\"40\",\"1\",\"Testing\",\"Stims/Figures/144-C-30-3.bmp\",\"za:saza\",\"Up\",\"40\",\"4\",\"15\",\"8\",\"C2\",\"C\",\"87\"
\"\",\"\",\"approach-retreat\",\"236\",\"1803504\",\"0.0-236.0\",\"\",\"\",\"2-2\",\"4530\",\"40\",\"1\",\"Testing\",\"Stims/Figures/111-J-10-3.bmp\",\"sasaza\",\"Down\",\"40\",\"4\",\"16\",\"8\",\"C2\",\"C\",\"88\"
\"\",\"\",\"approach-retreat\",\"237\",\"1809726\",\"0.0-237.0\",\"\",\"\",\"2-2\",\"4712\",\"39\",\"1\",\"Testing\",\"Stims/Figures/111-C-30-3.bmp\",\"sa:haha\",\"Left\",\"39\",\"4\",\"17\",\"8\",\"C2\",\"C\",\"89\"
\"\",\"\",\"approach-retreat\",\"238\",\"1815649\",\"0.0-238.0\",\"\",\"\",\"2-2\",\"4412\",\"39\",\"1\",\"Testing\",\"Stims/Figures/85-C-20-2.bmp\",\"vasha:va\",\"Left\",\"39\",\"4\",\"18\",\"8\",\"C1\",\"C\",\"90\"
\"\",\"\",\"approach-retreat\",\"239\",\"1822268\",\"0.0-239.0\",\"\",\"\",\"2-2\",\"5109\",\"40\",\"1\",\"Testing\",\"Stims/Figures/144-J-10-3.bmp\",\"sa:saza\",\"Down\",\"40\",\"4\",\"19\",\"8\",\"C2\",\"C\",\"91\"
\"\",\"\",\"approach-retreat\",\"240\",\"1828352\",\"0.0-240.0\",\"\",\"\",\"2-2\",\"4574\",\"38\",\"1\",\"Testing\",\"Stims/Figures/86-J-0-1.bmp\",\"va:fa:va\",\"Up\",\"38\",\"4\",\"20\",\"8\",\"C1\",\"C\",\"92\"
\"\",\"\",\"approach-retreat\",\"241\",\"1834128\",\"0.0-241.0\",\"\",\"\",\"2-2\",\"4264\",\"39\",\"1\",\"Testing\",\"Stims/Figures/118-J-0-2.bmp\",\"va:shasha\",\"Right\",\"39\",\"4\",\"21\",\"8\",\"C1\",\"C\",\"93\"
\"\",\"\",\"approach-retreat\",\"242\",\"1840275\",\"0.0-242.0\",\"\",\"\",\"2-2\",\"4638\",\"39\",\"0\",\"Testing\",\"Stims/Figures/87-J-10-4.bmp\",\"sahaha\",\"Left\",\"37\",\"4\",\"22\",\"8\",\"C2\",\"C\",\"94\"
\"\",\"\",\"approach-retreat\",\"243\",\"1845824\",\"0.0-243.0\",\"\",\"\",\"2-2\",\"4039\",\"39\",\"1\",\"Testing\",\"Stims/Figures/87-C-20-4.bmp\",\"za:sa:ha\",\"Left\",\"39\",\"4\",\"23\",\"8\",\"C2\",\"C\",\"95\"
\"\",\"\",\"approach-retreat\",\"244\",\"1852333\",\"0.0-244.0\",\"\",\"\",\"2-2\",\"4997\",\"37\",\"1\",\"Testing\",\"Stims/Figures/118-C-20-2.bmp\",\"fa:sha:va\",\"Right\",\"37\",\"4\",\"24\",\"8\",\"C1\",\"C\",\"96\"
\"31448\",\"\",\"survey-text\",\"245\",\"1883792\",\"0.0-245.0\",\"\",\"{\"\"Q0\"\":\"\"PS140046\"\"}\",\"\",\"\",\"\",\"\",\"\",\"\",\"\",\"\",\"\",\"\",\"\",\"\",\"\",\"\",\"\"
