\"rt\",\"key_press\",\"trial_type\",\"trial_index\",\"time_elapsed\",\"internal_node_id\",\"view_history\",\"responses\",\"Id\",\"Rt\",\"ResKeyCode\",\"ResCorr\",\"TrialType2\",\"Image\",\"Label\",\"Location\",\"CorrectResponse\",\"Block\",\"BlockTrial\",\"Condition\",\"LabelType\",\"Subcondition\",\"trialNum\"
\"38014\",\"32\",\"text\",\"0\",\"38024\",\"0.0-0.0-0.0\",\"\",\"\",\"\",\"\",\"\",\"\",\"\",\"\",\"\",\"\",\"\",\"\",\"\",\"\",\"\",\"\",\"\"
\"103242\",\"\",\"instructions\",\"1\",\"141270\",\"0.0-1.0\",\"[{\"\"page_index\"\":0,\"\"viewing_time\"\":103240}]\",\"\",\"\",\"\",\"\",\"\",\"\",\"\",\"\",\"\",\"\",\"\",\"\",\"\",\"\",\"\",\"\"
\"27122\",\"\",\"survey-multi-choice\",\"2\",\"168500\",\"0.0-2.0\",\"\",\"{\"\"Q0\"\":\"\"Da\"\",\"\"Q1\"\":\"\"Da\"\",\"\"Q2\"\":\"\"Da\"\",\"\"Q3\"\":\"\"Da\"\",\"\"Q4\"\":\"\"Da\"\",\"\"Q5\"\":\"\"Da\"\"}\",\"\",\"\",\"\",\"\",\"\",\"\",\"\",\"\",\"\",\"\",\"\",\"\",\"\",\"\",\"\"
\"\",\"\",\"bio\",\"3\",\"177662\",\"0.0-3.0\",\"\",\"{\"\"age\"\":\"\"20\"\",\"\"gender\"\":\"\"f\"\",\"\"specify\"\":\"\"\"\"}\",\"\",\"\",\"\",\"\",\"\",\"\",\"\",\"\",\"\",\"\",\"\",\"\",\"\",\"\",\"\"
\"\",\"\",\"approach-retreat\",\"4\",\"194846\",\"0.0-4.0\",\"\",\"\",\"3-1\",\"15654\",\"38\",\"0\",\"Training\",\"Stims/Figures/87-C-20-4.bmp\",\"zasa:ha\",\"Up\",\"40\",\"1\",\"1\",\"3A\",\"C2\",\"C\",\"1\"
\"\",\"\",\"approach-retreat\",\"5\",\"207672\",\"0.0-5.0\",\"\",\"\",\"3-1\",\"11304\",\"39\",\"1\",\"Training\",\"Stims/Figures/57-C-30-1.bmp\",\"zasa:ha\",\"Left\",\"39\",\"1\",\"2\",\"3A\",\"C2\",\"C\",\"2\"
\"\",\"\",\"approach-retreat\",\"6\",\"218766\",\"0.0-6.0\",\"\",\"\",\"3-1\",\"9572\",\"37\",\"1\",\"Training\",\"Stims/Figures/139-C-20-2.bmp\",\"zasa:ha\",\"Right\",\"37\",\"1\",\"3\",\"3A\",\"C2\",\"C\",\"3\"
\"\",\"\",\"approach-retreat\",\"7\",\"226546\",\"0.0-7.0\",\"\",\"\",\"3-1\",\"6250\",\"40\",\"1\",\"Training\",\"Stims/Figures/93-J-0-1.bmp\",\"fashava\",\"Down\",\"40\",\"1\",\"4\",\"3A\",\"C1\",\"C\",\"4\"
\"\",\"\",\"approach-retreat\",\"8\",\"232416\",\"0.0-8.0\",\"\",\"\",\"3-1\",\"4350\",\"40\",\"1\",\"Training\",\"Stims/Figures/128-J-10-3.bmp\",\"fashava\",\"Down\",\"40\",\"1\",\"5\",\"3A\",\"C1\",\"C\",\"5\"
\"\",\"\",\"approach-retreat\",\"9\",\"239838\",\"0.0-9.0\",\"\",\"\",\"3-1\",\"5900\",\"37\",\"1\",\"Training\",\"Stims/Figures/74-C-20-4.bmp\",\"zasa:ha\",\"Right\",\"37\",\"1\",\"6\",\"3A\",\"C2\",\"C\",\"6\"
\"\",\"\",\"approach-retreat\",\"10\",\"246580\",\"0.0-10.0\",\"\",\"\",\"3-1\",\"5218\",\"38\",\"1\",\"Training\",\"Stims/Figures/111-J-10-3.bmp\",\"fashava\",\"Up\",\"38\",\"1\",\"7\",\"3A\",\"C1\",\"C\",\"7\"
\"\",\"\",\"approach-retreat\",\"11\",\"253104\",\"0.0-11.0\",\"\",\"\",\"3-1\",\"5000\",\"37\",\"0\",\"Training\",\"Stims/Figures/128-C-30-3.bmp\",\"zasa:ha\",\"Left\",\"39\",\"1\",\"8\",\"3A\",\"C2\",\"C\",\"8\"
\"\",\"\",\"approach-retreat\",\"12\",\"258868\",\"0.0-12.0\",\"\",\"\",\"3-1\",\"4246\",\"37\",\"1\",\"Training\",\"Stims/Figures/87-J-10-4.bmp\",\"fashava\",\"Left\",\"37\",\"1\",\"9\",\"3A\",\"C1\",\"C\",\"9\"
\"\",\"\",\"approach-retreat\",\"13\",\"264856\",\"0.0-13.0\",\"\",\"\",\"3-1\",\"4462\",\"40\",\"1\",\"Training\",\"Stims/Figures/111-C-30-3.bmp\",\"zasa:ha\",\"Up\",\"40\",\"1\",\"10\",\"3A\",\"C2\",\"C\",\"10\"
\"\",\"\",\"approach-retreat\",\"14\",\"270882\",\"0.0-14.0\",\"\",\"\",\"3-1\",\"4502\",\"37\",\"1\",\"Training\",\"Stims/Figures/118-C-20-2.bmp\",\"zasa:ha\",\"Right\",\"37\",\"1\",\"11\",\"3A\",\"C2\",\"C\",\"11\"
\"\",\"\",\"approach-retreat\",\"15\",\"276520\",\"0.0-15.0\",\"\",\"\",\"3-1\",\"4120\",\"37\",\"1\",\"Training\",\"Stims/Figures/93-C-30-1.bmp\",\"zasa:ha\",\"Right\",\"37\",\"1\",\"12\",\"3A\",\"C2\",\"C\",\"12\"
\"\",\"\",\"approach-retreat\",\"16\",\"283352\",\"0.0-16.0\",\"\",\"\",\"3-1\",\"5314\",\"37\",\"1\",\"Training\",\"Stims/Figures/74-J-10-4.bmp\",\"fashava\",\"Left\",\"37\",\"1\",\"13\",\"3A\",\"C1\",\"C\",\"13\"
\"\",\"\",\"approach-retreat\",\"17\",\"289190\",\"0.0-17.0\",\"\",\"\",\"3-1\",\"4316\",\"38\",\"1\",\"Training\",\"Stims/Figures/118-J-0-2.bmp\",\"fashava\",\"Up\",\"38\",\"1\",\"14\",\"3A\",\"C1\",\"C\",\"14\"
\"\",\"\",\"approach-retreat\",\"18\",\"295070\",\"0.0-18.0\",\"\",\"\",\"3-1\",\"4358\",\"40\",\"1\",\"Training\",\"Stims/Figures/139-J-0-2.bmp\",\"fashava\",\"Down\",\"40\",\"1\",\"15\",\"3A\",\"C1\",\"C\",\"15\"
\"\",\"\",\"approach-retreat\",\"19\",\"300956\",\"0.0-19.0\",\"\",\"\",\"3-1\",\"4368\",\"40\",\"1\",\"Training\",\"Stims/Figures/57-J-0-1.bmp\",\"fashava\",\"Down\",\"40\",\"1\",\"16\",\"3A\",\"C1\",\"C\",\"16\"
\"\",\"\",\"approach-retreat\",\"20\",\"307032\",\"0.0-20.0\",\"\",\"\",\"3-1\",\"4560\",\"38\",\"0\",\"Training\",\"Stims/Figures/74-C-20-4.bmp\",\"zasa:ha\",\"Up\",\"40\",\"2\",\"1\",\"3A\",\"C2\",\"C\",\"17\"
\"\",\"\",\"approach-retreat\",\"21\",\"313016\",\"0.0-21.0\",\"\",\"\",\"3-1\",\"4464\",\"40\",\"1\",\"Training\",\"Stims/Figures/93-J-0-1.bmp\",\"fashava\",\"Down\",\"40\",\"2\",\"2\",\"3A\",\"C1\",\"C\",\"18\"
\"\",\"\",\"approach-retreat\",\"22\",\"318928\",\"0.0-22.0\",\"\",\"\",\"3-1\",\"4392\",\"38\",\"1\",\"Training\",\"Stims/Figures/128-J-10-3.bmp\",\"fashava\",\"Up\",\"38\",\"2\",\"3\",\"3A\",\"C1\",\"C\",\"19\"
\"\",\"\",\"approach-retreat\",\"23\",\"325402\",\"0.0-23.0\",\"\",\"\",\"3-1\",\"4958\",\"39\",\"1\",\"Training\",\"Stims/Figures/74-J-10-4.bmp\",\"fashava\",\"Right\",\"39\",\"2\",\"4\",\"3A\",\"C1\",\"C\",\"20\"
\"\",\"\",\"approach-retreat\",\"24\",\"331228\",\"0.0-24.0\",\"\",\"\",\"3-1\",\"4286\",\"37\",\"1\",\"Training\",\"Stims/Figures/87-J-10-4.bmp\",\"fashava\",\"Left\",\"37\",\"2\",\"5\",\"3A\",\"C1\",\"C\",\"21\"
\"\",\"\",\"approach-retreat\",\"25\",\"337040\",\"0.0-25.0\",\"\",\"\",\"3-1\",\"4294\",\"38\",\"1\",\"Training\",\"Stims/Figures/118-C-20-2.bmp\",\"zasa:ha\",\"Down\",\"38\",\"2\",\"6\",\"3A\",\"C2\",\"C\",\"22\"
\"\",\"\",\"approach-retreat\",\"26\",\"342692\",\"0.0-26.0\",\"\",\"\",\"3-1\",\"4132\",\"38\",\"1\",\"Training\",\"Stims/Figures/57-C-30-1.bmp\",\"zasa:ha\",\"Down\",\"38\",\"2\",\"7\",\"3A\",\"C2\",\"C\",\"23\"
\"\",\"\",\"approach-retreat\",\"27\",\"348332\",\"0.0-27.0\",\"\",\"\",\"3-1\",\"4118\",\"38\",\"1\",\"Training\",\"Stims/Figures/139-C-20-2.bmp\",\"zasa:ha\",\"Down\",\"38\",\"2\",\"8\",\"3A\",\"C2\",\"C\",\"24\"
\"\",\"\",\"approach-retreat\",\"28\",\"354514\",\"0.0-28.0\",\"\",\"\",\"3-1\",\"4668\",\"39\",\"1\",\"Training\",\"Stims/Figures/87-C-20-4.bmp\",\"zasa:ha\",\"Left\",\"39\",\"2\",\"9\",\"3A\",\"C2\",\"C\",\"25\"
\"\",\"\",\"approach-retreat\",\"29\",\"360532\",\"0.0-29.0\",\"\",\"\",\"3-1\",\"4502\",\"39\",\"1\",\"Training\",\"Stims/Figures/139-J-0-2.bmp\",\"fashava\",\"Right\",\"39\",\"2\",\"10\",\"3A\",\"C1\",\"C\",\"26\"
\"\",\"\",\"approach-retreat\",\"30\",\"366596\",\"0.0-30.0\",\"\",\"\",\"3-1\",\"4546\",\"37\",\"1\",\"Training\",\"Stims/Figures/111-C-30-3.bmp\",\"zasa:ha\",\"Right\",\"37\",\"2\",\"11\",\"3A\",\"C2\",\"C\",\"27\"
\"\",\"\",\"approach-retreat\",\"31\",\"372488\",\"0.0-31.0\",\"\",\"\",\"3-1\",\"4372\",\"37\",\"1\",\"Training\",\"Stims/Figures/111-J-10-3.bmp\",\"fashava\",\"Left\",\"37\",\"2\",\"12\",\"3A\",\"C1\",\"C\",\"28\"
\"\",\"\",\"approach-retreat\",\"32\",\"378322\",\"0.0-32.0\",\"\",\"\",\"3-1\",\"4316\",\"39\",\"1\",\"Training\",\"Stims/Figures/118-J-0-2.bmp\",\"fashava\",\"Right\",\"39\",\"2\",\"13\",\"3A\",\"C1\",\"C\",\"29\"
\"\",\"\",\"approach-retreat\",\"33\",\"385566\",\"0.0-33.0\",\"\",\"\",\"3-1\",\"5728\",\"40\",\"1\",\"Training\",\"Stims/Figures/128-C-30-3.bmp\",\"zasa:ha\",\"Up\",\"40\",\"2\",\"14\",\"3A\",\"C2\",\"C\",\"30\"
\"\",\"\",\"approach-retreat\",\"34\",\"391410\",\"0.0-34.0\",\"\",\"\",\"3-1\",\"4324\",\"38\",\"1\",\"Training\",\"Stims/Figures/57-J-0-1.bmp\",\"fashava\",\"Up\",\"38\",\"2\",\"15\",\"3A\",\"C1\",\"C\",\"31\"
\"\",\"\",\"approach-retreat\",\"35\",\"398030\",\"0.0-35.0\",\"\",\"\",\"3-1\",\"5106\",\"39\",\"1\",\"Training\",\"Stims/Figures/93-C-30-1.bmp\",\"zasa:ha\",\"Left\",\"39\",\"2\",\"16\",\"3A\",\"C2\",\"C\",\"32\"
\"\",\"\",\"approach-retreat\",\"36\",\"405792\",\"0.0-36.0\",\"\",\"\",\"3-1\",\"6244\",\"39\",\"1\",\"Training\",\"Stims/Figures/57-J-0-1.bmp\",\"fashava\",\"Right\",\"39\",\"3\",\"1\",\"3A\",\"C1\",\"C\",\"33\"
\"\",\"\",\"approach-retreat\",\"37\",\"411460\",\"0.0-37.0\",\"\",\"\",\"3-1\",\"4124\",\"38\",\"1\",\"Training\",\"Stims/Figures/118-J-0-2.bmp\",\"fashava\",\"Up\",\"38\",\"3\",\"2\",\"3A\",\"C1\",\"C\",\"34\"
\"\",\"\",\"approach-retreat\",\"38\",\"431438\",\"0.0-38.0\",\"\",\"\",\"3-1\",\"18462\",\"37\",\"1\",\"Training\",\"Stims/Figures/57-C-30-1.bmp\",\"zasa:ha\",\"Right\",\"37\",\"3\",\"3\",\"3A\",\"C2\",\"C\",\"35\"
\"\",\"\",\"approach-retreat\",\"39\",\"437112\",\"0.0-39.0\",\"\",\"\",\"3-1\",\"4158\",\"38\",\"0\",\"Training\",\"Stims/Figures/111-C-30-3.bmp\",\"zasa:ha\",\"Up\",\"40\",\"3\",\"4\",\"3A\",\"C2\",\"C\",\"36\"
\"\",\"\",\"approach-retreat\",\"40\",\"443154\",\"0.0-40.0\",\"\",\"\",\"3-1\",\"4524\",\"40\",\"1\",\"Training\",\"Stims/Figures/128-J-10-3.bmp\",\"fashava\",\"Down\",\"40\",\"3\",\"5\",\"3A\",\"C1\",\"C\",\"37\"
\"\",\"\",\"approach-retreat\",\"41\",\"449884\",\"0.0-41.0\",\"\",\"\",\"3-1\",\"5216\",\"40\",\"0\",\"Training\",\"Stims/Figures/139-J-0-2.bmp\",\"fashava\",\"Up\",\"38\",\"3\",\"6\",\"3A\",\"C1\",\"C\",\"38\"
\"\",\"\",\"approach-retreat\",\"42\",\"455968\",\"0.0-42.0\",\"\",\"\",\"3-1\",\"4566\",\"39\",\"1\",\"Training\",\"Stims/Figures/118-C-20-2.bmp\",\"zasa:ha\",\"Left\",\"39\",\"3\",\"7\",\"3A\",\"C2\",\"C\",\"39\"
\"\",\"\",\"approach-retreat\",\"43\",\"461970\",\"0.0-43.0\",\"\",\"\",\"3-1\",\"4486\",\"39\",\"1\",\"Training\",\"Stims/Figures/93-C-30-1.bmp\",\"zasa:ha\",\"Left\",\"39\",\"3\",\"8\",\"3A\",\"C2\",\"C\",\"40\"
\"\",\"\",\"approach-retreat\",\"44\",\"467738\",\"0.0-44.0\",\"\",\"\",\"3-1\",\"4250\",\"37\",\"1\",\"Training\",\"Stims/Figures/87-C-20-4.bmp\",\"zasa:ha\",\"Right\",\"37\",\"3\",\"9\",\"3A\",\"C2\",\"C\",\"41\"
\"\",\"\",\"approach-retreat\",\"45\",\"473496\",\"0.0-45.0\",\"\",\"\",\"3-1\",\"4234\",\"38\",\"0\",\"Training\",\"Stims/Figures/87-J-10-4.bmp\",\"fashava\",\"Down\",\"40\",\"3\",\"10\",\"3A\",\"C1\",\"C\",\"42\"
\"\",\"\",\"approach-retreat\",\"46\",\"479298\",\"0.0-46.0\",\"\",\"\",\"3-1\",\"4286\",\"38\",\"0\",\"Training\",\"Stims/Figures/93-J-0-1.bmp\",\"fashava\",\"Down\",\"40\",\"3\",\"11\",\"3A\",\"C1\",\"C\",\"43\"
\"\",\"\",\"approach-retreat\",\"47\",\"485550\",\"0.0-47.0\",\"\",\"\",\"3-1\",\"4736\",\"39\",\"1\",\"Training\",\"Stims/Figures/74-C-20-4.bmp\",\"zasa:ha\",\"Left\",\"39\",\"3\",\"12\",\"3A\",\"C2\",\"C\",\"44\"
\"\",\"\",\"approach-retreat\",\"48\",\"491728\",\"0.0-48.0\",\"\",\"\",\"3-1\",\"4662\",\"38\",\"0\",\"Training\",\"Stims/Figures/139-C-20-2.bmp\",\"zasa:ha\",\"Up\",\"40\",\"3\",\"13\",\"3A\",\"C2\",\"C\",\"45\"
\"\",\"\",\"approach-retreat\",\"49\",\"497466\",\"0.0-49.0\",\"\",\"\",\"3-1\",\"4218\",\"39\",\"0\",\"Training\",\"Stims/Figures/111-J-10-3.bmp\",\"fashava\",\"Left\",\"37\",\"3\",\"14\",\"3A\",\"C1\",\"C\",\"46\"
\"\",\"\",\"approach-retreat\",\"50\",\"503252\",\"0.0-50.0\",\"\",\"\",\"3-1\",\"4272\",\"38\",\"0\",\"Training\",\"Stims/Figures/74-J-10-4.bmp\",\"fashava\",\"Down\",\"40\",\"3\",\"15\",\"3A\",\"C1\",\"C\",\"47\"
\"\",\"\",\"approach-retreat\",\"51\",\"509562\",\"0.0-51.0\",\"\",\"\",\"3-1\",\"4792\",\"37\",\"1\",\"Training\",\"Stims/Figures/128-C-30-3.bmp\",\"zasa:ha\",\"Right\",\"37\",\"3\",\"16\",\"3A\",\"C2\",\"C\",\"48\"
\"\",\"\",\"approach-retreat\",\"52\",\"515616\",\"0.0-52.0\",\"\",\"\",\"3-1\",\"4532\",\"37\",\"1\",\"Training\",\"Stims/Figures/57-J-0-1.bmp\",\"fashava\",\"Left\",\"37\",\"4\",\"1\",\"3A\",\"C1\",\"C\",\"49\"
\"\",\"\",\"approach-retreat\",\"53\",\"521214\",\"0.0-53.0\",\"\",\"\",\"3-1\",\"4060\",\"37\",\"1\",\"Training\",\"Stims/Figures/87-C-20-4.bmp\",\"zasa:ha\",\"Right\",\"37\",\"4\",\"2\",\"3A\",\"C2\",\"C\",\"50\"
\"\",\"\",\"approach-retreat\",\"54\",\"528318\",\"0.0-54.0\",\"\",\"\",\"3-1\",\"5586\",\"40\",\"1\",\"Training\",\"Stims/Figures/118-J-0-2.bmp\",\"fashava\",\"Down\",\"40\",\"4\",\"3\",\"3A\",\"C1\",\"C\",\"51\"
\"\",\"\",\"approach-retreat\",\"55\",\"534144\",\"0.0-55.0\",\"\",\"\",\"3-1\",\"4310\",\"39\",\"0\",\"Training\",\"Stims/Figures/111-J-10-3.bmp\",\"fashava\",\"Left\",\"37\",\"4\",\"4\",\"3A\",\"C1\",\"C\",\"52\"
\"\",\"\",\"approach-retreat\",\"56\",\"539880\",\"0.0-56.0\",\"\",\"\",\"3-1\",\"4218\",\"37\",\"0\",\"Training\",\"Stims/Figures/118-C-20-2.bmp\",\"zasa:ha\",\"Left\",\"39\",\"4\",\"5\",\"3A\",\"C2\",\"C\",\"53\"
\"\",\"\",\"approach-retreat\",\"57\",\"545630\",\"0.0-57.0\",\"\",\"\",\"3-1\",\"4236\",\"37\",\"0\",\"Training\",\"Stims/Figures/87-J-10-4.bmp\",\"fashava\",\"Right\",\"39\",\"4\",\"6\",\"3A\",\"C1\",\"C\",\"54\"
\"\",\"\",\"approach-retreat\",\"58\",\"551416\",\"0.0-58.0\",\"\",\"\",\"3-1\",\"4270\",\"38\",\"0\",\"Training\",\"Stims/Figures/93-C-30-1.bmp\",\"zasa:ha\",\"Up\",\"40\",\"4\",\"7\",\"3A\",\"C2\",\"C\",\"55\"
\"\",\"\",\"approach-retreat\",\"59\",\"557370\",\"0.0-59.0\",\"\",\"\",\"3-1\",\"4440\",\"37\",\"0\",\"Training\",\"Stims/Figures/93-J-0-1.bmp\",\"fashava\",\"Right\",\"39\",\"4\",\"8\",\"3A\",\"C1\",\"C\",\"56\"
\"\",\"\",\"approach-retreat\",\"60\",\"563062\",\"0.0-60.0\",\"\",\"\",\"3-1\",\"4176\",\"38\",\"0\",\"Training\",\"Stims/Figures/111-C-30-3.bmp\",\"zasa:ha\",\"Up\",\"40\",\"4\",\"9\",\"3A\",\"C2\",\"C\",\"57\"
\"\",\"\",\"approach-retreat\",\"61\",\"568772\",\"0.0-61.0\",\"\",\"\",\"3-1\",\"4196\",\"37\",\"1\",\"Training\",\"Stims/Figures/74-J-10-4.bmp\",\"fashava\",\"Left\",\"37\",\"4\",\"10\",\"3A\",\"C1\",\"C\",\"58\"
\"\",\"\",\"approach-retreat\",\"62\",\"575192\",\"0.0-62.0\",\"\",\"\",\"3-1\",\"4904\",\"40\",\"1\",\"Training\",\"Stims/Figures/57-C-30-1.bmp\",\"zasa:ha\",\"Up\",\"40\",\"4\",\"11\",\"3A\",\"C2\",\"C\",\"59\"
\"\",\"\",\"approach-retreat\",\"63\",\"580860\",\"0.0-63.0\",\"\",\"\",\"3-1\",\"4146\",\"40\",\"0\",\"Training\",\"Stims/Figures/139-C-20-2.bmp\",\"zasa:ha\",\"Down\",\"38\",\"4\",\"12\",\"3A\",\"C2\",\"C\",\"60\"
\"\",\"\",\"approach-retreat\",\"64\",\"586452\",\"0.0-64.0\",\"\",\"\",\"3-1\",\"4078\",\"40\",\"0\",\"Training\",\"Stims/Figures/128-C-30-3.bmp\",\"zasa:ha\",\"Down\",\"38\",\"4\",\"13\",\"3A\",\"C2\",\"C\",\"61\"
\"\",\"\",\"approach-retreat\",\"65\",\"592716\",\"0.0-65.0\",\"\",\"\",\"3-1\",\"4750\",\"38\",\"1\",\"Training\",\"Stims/Figures/139-J-0-2.bmp\",\"fashava\",\"Up\",\"38\",\"4\",\"14\",\"3A\",\"C1\",\"C\",\"62\"
\"\",\"\",\"approach-retreat\",\"66\",\"598500\",\"0.0-66.0\",\"\",\"\",\"3-1\",\"4270\",\"37\",\"1\",\"Training\",\"Stims/Figures/74-C-20-4.bmp\",\"zasa:ha\",\"Right\",\"37\",\"4\",\"15\",\"3A\",\"C2\",\"C\",\"63\"
\"\",\"\",\"approach-retreat\",\"67\",\"604240\",\"0.0-67.0\",\"\",\"\",\"3-1\",\"4226\",\"38\",\"0\",\"Training\",\"Stims/Figures/128-J-10-3.bmp\",\"fashava\",\"Down\",\"40\",\"4\",\"16\",\"3A\",\"C1\",\"C\",\"64\"
\"\",\"\",\"approach-retreat\",\"68\",\"610122\",\"0.0-68.0\",\"\",\"\",\"3-1\",\"4366\",\"37\",\"0\",\"Training\",\"Stims/Figures/87-J-10-4.bmp\",\"fashava\",\"Right\",\"39\",\"5\",\"1\",\"3A\",\"C1\",\"C\",\"65\"
\"\",\"\",\"approach-retreat\",\"69\",\"615836\",\"0.0-69.0\",\"\",\"\",\"3-1\",\"4198\",\"38\",\"1\",\"Training\",\"Stims/Figures/57-C-30-1.bmp\",\"zasa:ha\",\"Down\",\"38\",\"5\",\"2\",\"3A\",\"C2\",\"C\",\"66\"
\"\",\"\",\"approach-retreat\",\"70\",\"621746\",\"0.0-70.0\",\"\",\"\",\"3-1\",\"4394\",\"39\",\"0\",\"Training\",\"Stims/Figures/111-J-10-3.bmp\",\"fashava\",\"Left\",\"37\",\"5\",\"3\",\"3A\",\"C1\",\"C\",\"67\"
\"\",\"\",\"approach-retreat\",\"71\",\"627280\",\"0.0-71.0\",\"\",\"\",\"3-1\",\"4018\",\"38\",\"1\",\"Training\",\"Stims/Figures/118-C-20-2.bmp\",\"zasa:ha\",\"Down\",\"38\",\"5\",\"4\",\"3A\",\"C2\",\"C\",\"68\"
\"\",\"\",\"approach-retreat\",\"72\",\"633630\",\"0.0-72.0\",\"\",\"\",\"3-1\",\"4826\",\"38\",\"1\",\"Training\",\"Stims/Figures/57-J-0-1.bmp\",\"fashava\",\"Up\",\"38\",\"5\",\"5\",\"3A\",\"C1\",\"C\",\"69\"
\"\",\"\",\"approach-retreat\",\"73\",\"639538\",\"0.0-73.0\",\"\",\"\",\"3-1\",\"4394\",\"39\",\"1\",\"Training\",\"Stims/Figures/93-J-0-1.bmp\",\"fashava\",\"Right\",\"39\",\"5\",\"6\",\"3A\",\"C1\",\"C\",\"70\"
\"\",\"\",\"approach-retreat\",\"74\",\"645588\",\"0.0-74.0\",\"\",\"\",\"3-1\",\"4536\",\"39\",\"0\",\"Training\",\"Stims/Figures/139-C-20-2.bmp\",\"zasa:ha\",\"Right\",\"37\",\"5\",\"7\",\"3A\",\"C2\",\"C\",\"71\"
\"\",\"\",\"approach-retreat\",\"75\",\"652350\",\"0.0-75.0\",\"\",\"\",\"3-1\",\"5246\",\"38\",\"1\",\"Training\",\"Stims/Figures/128-J-10-3.bmp\",\"fashava\",\"Up\",\"38\",\"5\",\"8\",\"3A\",\"C1\",\"C\",\"72\"
\"\",\"\",\"approach-retreat\",\"76\",\"658282\",\"0.0-76.0\",\"\",\"\",\"3-1\",\"4418\",\"39\",\"1\",\"Training\",\"Stims/Figures/128-C-30-3.bmp\",\"zasa:ha\",\"Left\",\"39\",\"5\",\"9\",\"3A\",\"C2\",\"C\",\"73\"
\"\",\"\",\"approach-retreat\",\"77\",\"664026\",\"0.0-77.0\",\"\",\"\",\"3-1\",\"4230\",\"39\",\"0\",\"Training\",\"Stims/Figures/118-J-0-2.bmp\",\"fashava\",\"Left\",\"37\",\"5\",\"10\",\"3A\",\"C1\",\"C\",\"74\"
\"\",\"\",\"approach-retreat\",\"78\",\"669962\",\"0.0-78.0\",\"\",\"\",\"3-1\",\"4422\",\"38\",\"1\",\"Training\",\"Stims/Figures/74-C-20-4.bmp\",\"zasa:ha\",\"Down\",\"38\",\"5\",\"11\",\"3A\",\"C2\",\"C\",\"75\"
\"\",\"\",\"approach-retreat\",\"79\",\"675832\",\"0.0-79.0\",\"\",\"\",\"3-1\",\"4352\",\"39\",\"1\",\"Training\",\"Stims/Figures/87-C-20-4.bmp\",\"zasa:ha\",\"Left\",\"39\",\"5\",\"12\",\"3A\",\"C2\",\"C\",\"76\"
\"\",\"\",\"approach-retreat\",\"80\",\"681340\",\"0.0-80.0\",\"\",\"\",\"3-1\",\"3994\",\"38\",\"1\",\"Training\",\"Stims/Figures/93-C-30-1.bmp\",\"zasa:ha\",\"Down\",\"38\",\"5\",\"13\",\"3A\",\"C2\",\"C\",\"77\"
\"\",\"\",\"approach-retreat\",\"81\",\"687874\",\"0.0-81.0\",\"\",\"\",\"3-1\",\"5016\",\"38\",\"0\",\"Training\",\"Stims/Figures/111-C-30-3.bmp\",\"zasa:ha\",\"Up\",\"40\",\"5\",\"14\",\"3A\",\"C2\",\"C\",\"78\"
\"\",\"\",\"approach-retreat\",\"82\",\"694566\",\"0.0-82.0\",\"\",\"\",\"3-1\",\"5178\",\"37\",\"0\",\"Training\",\"Stims/Figures/139-J-0-2.bmp\",\"fashava\",\"Right\",\"39\",\"5\",\"15\",\"3A\",\"C1\",\"C\",\"79\"
\"\",\"\",\"approach-retreat\",\"83\",\"700318\",\"0.0-83.0\",\"\",\"\",\"3-1\",\"4238\",\"40\",\"0\",\"Training\",\"Stims/Figures/74-J-10-4.bmp\",\"fashava\",\"Up\",\"38\",\"5\",\"16\",\"3A\",\"C1\",\"C\",\"80\"
\"\",\"\",\"approach-retreat\",\"84\",\"706244\",\"0.0-84.0\",\"\",\"\",\"3-1\",\"4410\",\"39\",\"1\",\"Training\",\"Stims/Figures/111-J-10-3.bmp\",\"fashava\",\"Right\",\"39\",\"6\",\"1\",\"3A\",\"C1\",\"C\",\"81\"
\"\",\"\",\"approach-retreat\",\"85\",\"712014\",\"0.0-85.0\",\"\",\"\",\"3-1\",\"4254\",\"38\",\"0\",\"Training\",\"Stims/Figures/128-J-10-3.bmp\",\"fashava\",\"Down\",\"40\",\"6\",\"2\",\"3A\",\"C1\",\"C\",\"82\"
\"\",\"\",\"approach-retreat\",\"86\",\"721472\",\"0.0-86.0\",\"\",\"\",\"3-1\",\"7944\",\"40\",\"1\",\"Training\",\"Stims/Figures/93-C-30-1.bmp\",\"zasa:ha\",\"Up\",\"40\",\"6\",\"3\",\"3A\",\"C2\",\"C\",\"83\"
\"\",\"\",\"approach-retreat\",\"87\",\"727198\",\"0.0-87.0\",\"\",\"\",\"3-1\",\"4188\",\"38\",\"1\",\"Training\",\"Stims/Figures/74-C-20-4.bmp\",\"zasa:ha\",\"Down\",\"38\",\"6\",\"4\",\"3A\",\"C2\",\"C\",\"84\"
\"\",\"\",\"approach-retreat\",\"88\",\"732946\",\"0.0-88.0\",\"\",\"\",\"3-1\",\"4234\",\"37\",\"1\",\"Training\",\"Stims/Figures/57-J-0-1.bmp\",\"fashava\",\"Left\",\"37\",\"6\",\"5\",\"3A\",\"C1\",\"C\",\"85\"
\"\",\"\",\"approach-retreat\",\"89\",\"738580\",\"0.0-89.0\",\"\",\"\",\"3-1\",\"4120\",\"37\",\"0\",\"Training\",\"Stims/Figures/57-C-30-1.bmp\",\"zasa:ha\",\"Left\",\"39\",\"6\",\"6\",\"3A\",\"C2\",\"C\",\"86\"
\"\",\"\",\"approach-retreat\",\"90\",\"745750\",\"0.0-90.0\",\"\",\"\",\"3-1\",\"5654\",\"37\",\"1\",\"Training\",\"Stims/Figures/111-C-30-3.bmp\",\"zasa:ha\",\"Right\",\"37\",\"6\",\"7\",\"3A\",\"C2\",\"C\",\"87\"
\"\",\"\",\"approach-retreat\",\"91\",\"751544\",\"0.0-91.0\",\"\",\"\",\"3-1\",\"4278\",\"39\",\"0\",\"Training\",\"Stims/Figures/74-J-10-4.bmp\",\"fashava\",\"Left\",\"37\",\"6\",\"8\",\"3A\",\"C1\",\"C\",\"88\"
\"\",\"\",\"approach-retreat\",\"92\",\"757222\",\"0.0-92.0\",\"\",\"\",\"3-1\",\"4162\",\"38\",\"0\",\"Training\",\"Stims/Figures/139-C-20-2.bmp\",\"zasa:ha\",\"Up\",\"40\",\"6\",\"9\",\"3A\",\"C2\",\"C\",\"89\"
\"\",\"\",\"approach-retreat\",\"93\",\"763046\",\"0.0-93.0\",\"\",\"\",\"3-1\",\"4308\",\"40\",\"1\",\"Training\",\"Stims/Figures/87-C-20-4.bmp\",\"zasa:ha\",\"Up\",\"40\",\"6\",\"10\",\"3A\",\"C2\",\"C\",\"90\"
\"\",\"\",\"approach-retreat\",\"94\",\"768790\",\"0.0-94.0\",\"\",\"\",\"3-1\",\"4228\",\"40\",\"1\",\"Training\",\"Stims/Figures/93-J-0-1.bmp\",\"fashava\",\"Down\",\"40\",\"6\",\"11\",\"3A\",\"C1\",\"C\",\"91\"
\"\",\"\",\"approach-retreat\",\"95\",\"776790\",\"0.0-95.0\",\"\",\"\",\"3-1\",\"6486\",\"37\",\"1\",\"Training\",\"Stims/Figures/118-J-0-2.bmp\",\"fashava\",\"Left\",\"37\",\"6\",\"12\",\"3A\",\"C1\",\"C\",\"92\"
\"\",\"\",\"approach-retreat\",\"96\",\"782322\",\"0.0-96.0\",\"\",\"\",\"3-1\",\"4018\",\"38\",\"0\",\"Training\",\"Stims/Figures/139-J-0-2.bmp\",\"fashava\",\"Down\",\"40\",\"6\",\"13\",\"3A\",\"C1\",\"C\",\"93\"
\"\",\"\",\"approach-retreat\",\"97\",\"788434\",\"0.0-97.0\",\"\",\"\",\"3-1\",\"4598\",\"39\",\"0\",\"Training\",\"Stims/Figures/128-C-30-3.bmp\",\"zasa:ha\",\"Right\",\"37\",\"6\",\"14\",\"3A\",\"C2\",\"C\",\"94\"
\"\",\"\",\"approach-retreat\",\"98\",\"794162\",\"0.0-98.0\",\"\",\"\",\"3-1\",\"4206\",\"37\",\"1\",\"Training\",\"Stims/Figures/118-C-20-2.bmp\",\"zasa:ha\",\"Right\",\"37\",\"6\",\"15\",\"3A\",\"C2\",\"C\",\"95\"
\"\",\"\",\"approach-retreat\",\"99\",\"799982\",\"0.0-99.0\",\"\",\"\",\"3-1\",\"4286\",\"40\",\"0\",\"Training\",\"Stims/Figures/87-J-10-4.bmp\",\"fashava\",\"Up\",\"38\",\"6\",\"16\",\"3A\",\"C1\",\"C\",\"96\"
\"\",\"\",\"approach-retreat\",\"100\",\"806114\",\"0.0-100.0\",\"\",\"\",\"3-1\",\"4616\",\"39\",\"0\",\"Training\",\"Stims/Figures/93-C-30-1.bmp\",\"zasa:ha\",\"Right\",\"37\",\"7\",\"1\",\"3A\",\"C2\",\"C\",\"97\"
\"\",\"\",\"approach-retreat\",\"101\",\"811766\",\"0.0-101.0\",\"\",\"\",\"3-1\",\"4138\",\"40\",\"1\",\"Training\",\"Stims/Figures/87-C-20-4.bmp\",\"zasa:ha\",\"Up\",\"40\",\"7\",\"2\",\"3A\",\"C2\",\"C\",\"98\"
\"\",\"\",\"approach-retreat\",\"102\",\"820204\",\"0.0-102.0\",\"\",\"\",\"3-1\",\"6922\",\"40\",\"1\",\"Training\",\"Stims/Figures/111-C-30-3.bmp\",\"zasa:ha\",\"Up\",\"40\",\"7\",\"3\",\"3A\",\"C2\",\"C\",\"99\"
\"\",\"\",\"approach-retreat\",\"103\",\"826044\",\"0.0-103.0\",\"\",\"\",\"3-1\",\"4322\",\"37\",\"0\",\"Training\",\"Stims/Figures/128-C-30-3.bmp\",\"zasa:ha\",\"Left\",\"39\",\"7\",\"4\",\"3A\",\"C2\",\"C\",\"100\"
\"\",\"\",\"approach-retreat\",\"104\",\"832146\",\"0.0-104.0\",\"\",\"\",\"3-1\",\"4588\",\"39\",\"0\",\"Training\",\"Stims/Figures/57-C-30-1.bmp\",\"zasa:ha\",\"Right\",\"37\",\"7\",\"5\",\"3A\",\"C2\",\"C\",\"101\"
\"\",\"\",\"approach-retreat\",\"105\",\"838796\",\"0.0-105.0\",\"\",\"\",\"3-1\",\"5136\",\"40\",\"0\",\"Training\",\"Stims/Figures/111-J-10-3.bmp\",\"fashava\",\"Up\",\"38\",\"7\",\"6\",\"3A\",\"C1\",\"C\",\"102\"
\"\",\"\",\"approach-retreat\",\"106\",\"844736\",\"0.0-106.0\",\"\",\"\",\"3-1\",\"4424\",\"38\",\"0\",\"Training\",\"Stims/Figures/139-J-0-2.bmp\",\"fashava\",\"Down\",\"40\",\"7\",\"7\",\"3A\",\"C1\",\"C\",\"103\"
\"\",\"\",\"approach-retreat\",\"107\",\"850780\",\"0.0-107.0\",\"\",\"\",\"3-1\",\"4528\",\"38\",\"1\",\"Training\",\"Stims/Figures/74-C-20-4.bmp\",\"zasa:ha\",\"Down\",\"38\",\"7\",\"8\",\"3A\",\"C2\",\"C\",\"104\"
\"\",\"\",\"approach-retreat\",\"108\",\"856432\",\"0.0-108.0\",\"\",\"\",\"3-1\",\"4136\",\"37\",\"0\",\"Training\",\"Stims/Figures/74-J-10-4.bmp\",\"fashava\",\"Right\",\"39\",\"7\",\"9\",\"3A\",\"C1\",\"C\",\"105\"
\"\",\"\",\"approach-retreat\",\"109\",\"862486\",\"0.0-109.0\",\"\",\"\",\"3-1\",\"4538\",\"38\",\"0\",\"Training\",\"Stims/Figures/118-J-0-2.bmp\",\"fashava\",\"Down\",\"40\",\"7\",\"10\",\"3A\",\"C1\",\"C\",\"106\"
\"\",\"\",\"approach-retreat\",\"110\",\"868388\",\"0.0-110.0\",\"\",\"\",\"3-1\",\"4388\",\"37\",\"1\",\"Training\",\"Stims/Figures/87-J-10-4.bmp\",\"fashava\",\"Left\",\"37\",\"7\",\"11\",\"3A\",\"C1\",\"C\",\"107\"
\"\",\"\",\"approach-retreat\",\"111\",\"874182\",\"0.0-111.0\",\"\",\"\",\"3-1\",\"4278\",\"40\",\"1\",\"Training\",\"Stims/Figures/57-J-0-1.bmp\",\"fashava\",\"Down\",\"40\",\"7\",\"12\",\"3A\",\"C1\",\"C\",\"108\"
\"\",\"\",\"approach-retreat\",\"112\",\"880228\",\"0.0-112.0\",\"\",\"\",\"3-1\",\"4532\",\"40\",\"1\",\"Training\",\"Stims/Figures/118-C-20-2.bmp\",\"zasa:ha\",\"Up\",\"40\",\"7\",\"13\",\"3A\",\"C2\",\"C\",\"109\"
\"\",\"\",\"approach-retreat\",\"113\",\"886124\",\"0.0-113.0\",\"\",\"\",\"3-1\",\"4380\",\"39\",\"1\",\"Training\",\"Stims/Figures/93-J-0-1.bmp\",\"fashava\",\"Right\",\"39\",\"7\",\"14\",\"3A\",\"C1\",\"C\",\"110\"
\"\",\"\",\"approach-retreat\",\"114\",\"891864\",\"0.0-114.0\",\"\",\"\",\"3-1\",\"4226\",\"39\",\"1\",\"Training\",\"Stims/Figures/139-C-20-2.bmp\",\"zasa:ha\",\"Left\",\"39\",\"7\",\"15\",\"3A\",\"C2\",\"C\",\"111\"
\"\",\"\",\"approach-retreat\",\"115\",\"900694\",\"0.0-115.0\",\"\",\"\",\"3-1\",\"7316\",\"39\",\"0\",\"Training\",\"Stims/Figures/128-J-10-3.bmp\",\"fashava\",\"Left\",\"37\",\"7\",\"16\",\"3A\",\"C1\",\"C\",\"112\"
\"\",\"\",\"approach-retreat\",\"116\",\"906398\",\"0.0-116.0\",\"\",\"\",\"3-1\",\"4190\",\"38\",\"0\",\"Training\",\"Stims/Figures/93-C-30-1.bmp\",\"zasa:ha\",\"Up\",\"40\",\"8\",\"1\",\"3A\",\"C2\",\"C\",\"113\"
\"\",\"\",\"approach-retreat\",\"117\",\"912004\",\"0.0-117.0\",\"\",\"\",\"3-1\",\"4092\",\"37\",\"1\",\"Training\",\"Stims/Figures/139-C-20-2.bmp\",\"zasa:ha\",\"Right\",\"37\",\"8\",\"2\",\"3A\",\"C2\",\"C\",\"114\"
\"\",\"\",\"approach-retreat\",\"118\",\"917696\",\"0.0-118.0\",\"\",\"\",\"3-1\",\"4176\",\"37\",\"0\",\"Training\",\"Stims/Figures/139-J-0-2.bmp\",\"fashava\",\"Right\",\"39\",\"8\",\"3\",\"3A\",\"C1\",\"C\",\"115\"
\"\",\"\",\"approach-retreat\",\"119\",\"923482\",\"0.0-119.0\",\"\",\"\",\"3-1\",\"4272\",\"40\",\"1\",\"Training\",\"Stims/Figures/118-J-0-2.bmp\",\"fashava\",\"Down\",\"40\",\"8\",\"4\",\"3A\",\"C1\",\"C\",\"116\"
\"\",\"\",\"approach-retreat\",\"120\",\"929304\",\"0.0-120.0\",\"\",\"\",\"3-1\",\"4306\",\"40\",\"1\",\"Training\",\"Stims/Figures/57-C-30-1.bmp\",\"zasa:ha\",\"Up\",\"40\",\"8\",\"5\",\"3A\",\"C2\",\"C\",\"117\"
\"\",\"\",\"approach-retreat\",\"121\",\"935012\",\"0.0-121.0\",\"\",\"\",\"3-1\",\"4190\",\"40\",\"0\",\"Training\",\"Stims/Figures/128-C-30-3.bmp\",\"zasa:ha\",\"Down\",\"38\",\"8\",\"6\",\"3A\",\"C2\",\"C\",\"118\"
\"\",\"\",\"approach-retreat\",\"122\",\"940770\",\"0.0-122.0\",\"\",\"\",\"3-1\",\"4218\",\"39\",\"0\",\"Training\",\"Stims/Figures/74-J-10-4.bmp\",\"fashava\",\"Left\",\"37\",\"8\",\"7\",\"3A\",\"C1\",\"C\",\"119\"
\"\",\"\",\"approach-retreat\",\"123\",\"946858\",\"0.0-123.0\",\"\",\"\",\"3-1\",\"4572\",\"38\",\"0\",\"Training\",\"Stims/Figures/87-J-10-4.bmp\",\"fashava\",\"Down\",\"40\",\"8\",\"8\",\"3A\",\"C1\",\"C\",\"120\"
\"\",\"\",\"approach-retreat\",\"124\",\"952536\",\"0.0-124.0\",\"\",\"\",\"3-1\",\"4164\",\"37\",\"1\",\"Training\",\"Stims/Figures/111-C-30-3.bmp\",\"zasa:ha\",\"Right\",\"37\",\"8\",\"9\",\"3A\",\"C2\",\"C\",\"121\"
\"\",\"\",\"approach-retreat\",\"125\",\"958390\",\"0.0-125.0\",\"\",\"\",\"3-1\",\"4340\",\"40\",\"0\",\"Training\",\"Stims/Figures/74-C-20-4.bmp\",\"zasa:ha\",\"Down\",\"38\",\"8\",\"10\",\"3A\",\"C2\",\"C\",\"122\"
\"\",\"\",\"approach-retreat\",\"126\",\"965436\",\"0.0-126.0\",\"\",\"\",\"3-1\",\"5530\",\"39\",\"0\",\"Training\",\"Stims/Figures/93-J-0-1.bmp\",\"fashava\",\"Left\",\"37\",\"8\",\"11\",\"3A\",\"C1\",\"C\",\"123\"
\"\",\"\",\"approach-retreat\",\"127\",\"973138\",\"0.0-127.0\",\"\",\"\",\"3-1\",\"6186\",\"40\",\"0\",\"Training\",\"Stims/Figures/111-J-10-3.bmp\",\"fashava\",\"Up\",\"38\",\"8\",\"12\",\"3A\",\"C1\",\"C\",\"124\"
\"\",\"\",\"approach-retreat\",\"128\",\"981506\",\"0.0-128.0\",\"\",\"\",\"3-1\",\"6854\",\"39\",\"0\",\"Training\",\"Stims/Figures/57-J-0-1.bmp\",\"fashava\",\"Left\",\"37\",\"8\",\"13\",\"3A\",\"C1\",\"C\",\"125\"
\"\",\"\",\"approach-retreat\",\"129\",\"987400\",\"0.0-129.0\",\"\",\"\",\"3-1\",\"4378\",\"37\",\"1\",\"Training\",\"Stims/Figures/87-C-20-4.bmp\",\"zasa:ha\",\"Right\",\"37\",\"8\",\"14\",\"3A\",\"C2\",\"C\",\"126\"
\"\",\"\",\"approach-retreat\",\"130\",\"993304\",\"0.0-130.0\",\"\",\"\",\"3-1\",\"4388\",\"39\",\"1\",\"Training\",\"Stims/Figures/118-C-20-2.bmp\",\"zasa:ha\",\"Left\",\"39\",\"8\",\"15\",\"3A\",\"C2\",\"C\",\"127\"
\"\",\"\",\"approach-retreat\",\"131\",\"1010208\",\"0.0-131.0\",\"\",\"\",\"3-1\",\"15388\",\"38\",\"1\",\"Training\",\"Stims/Figures/128-J-10-3.bmp\",\"fashava\",\"Up\",\"38\",\"8\",\"16\",\"3A\",\"C1\",\"C\",\"128\"
\"\",\"\",\"approach-retreat\",\"132\",\"1015962\",\"0.0-132.0\",\"\",\"\",\"3-1\",\"4214\",\"38\",\"1\",\"Training\",\"Stims/Figures/139-J-0-2.bmp\",\"fashava\",\"Up\",\"38\",\"9\",\"1\",\"3A\",\"C1\",\"C\",\"129\"
\"\",\"\",\"approach-retreat\",\"133\",\"1021958\",\"0.0-133.0\",\"\",\"\",\"3-1\",\"4470\",\"38\",\"1\",\"Training\",\"Stims/Figures/87-J-10-4.bmp\",\"fashava\",\"Up\",\"38\",\"9\",\"2\",\"3A\",\"C1\",\"C\",\"130\"
\"\",\"\",\"approach-retreat\",\"134\",\"1028460\",\"0.0-134.0\",\"\",\"\",\"3-1\",\"4976\",\"40\",\"1\",\"Training\",\"Stims/Figures/74-J-10-4.bmp\",\"fashava\",\"Down\",\"40\",\"9\",\"3\",\"3A\",\"C1\",\"C\",\"131\"
\"\",\"\",\"approach-retreat\",\"135\",\"1034500\",\"0.0-135.0\",\"\",\"\",\"3-1\",\"4510\",\"39\",\"1\",\"Training\",\"Stims/Figures/118-J-0-2.bmp\",\"fashava\",\"Right\",\"39\",\"9\",\"4\",\"3A\",\"C1\",\"C\",\"132\"
\"\",\"\",\"approach-retreat\",\"136\",\"1040404\",\"0.0-136.0\",\"\",\"\",\"3-1\",\"4386\",\"37\",\"1\",\"Training\",\"Stims/Figures/87-C-20-4.bmp\",\"zasa:ha\",\"Right\",\"37\",\"9\",\"5\",\"3A\",\"C2\",\"C\",\"133\"
\"\",\"\",\"approach-retreat\",\"137\",\"1046388\",\"0.0-137.0\",\"\",\"\",\"3-1\",\"4460\",\"37\",\"1\",\"Training\",\"Stims/Figures/128-J-10-3.bmp\",\"fashava\",\"Left\",\"37\",\"9\",\"6\",\"3A\",\"C1\",\"C\",\"134\"
\"\",\"\",\"approach-retreat\",\"138\",\"1055188\",\"0.0-138.0\",\"\",\"\",\"3-1\",\"7276\",\"38\",\"1\",\"Training\",\"Stims/Figures/118-C-20-2.bmp\",\"zasa:ha\",\"Down\",\"38\",\"9\",\"7\",\"3A\",\"C2\",\"C\",\"135\"
\"\",\"\",\"approach-retreat\",\"139\",\"1061028\",\"0.0-139.0\",\"\",\"\",\"3-1\",\"4320\",\"39\",\"1\",\"Training\",\"Stims/Figures/93-J-0-1.bmp\",\"fashava\",\"Right\",\"39\",\"9\",\"8\",\"3A\",\"C1\",\"C\",\"136\"
\"\",\"\",\"approach-retreat\",\"140\",\"1066834\",\"0.0-140.0\",\"\",\"\",\"3-1\",\"4288\",\"40\",\"1\",\"Training\",\"Stims/Figures/74-C-20-4.bmp\",\"zasa:ha\",\"Up\",\"40\",\"9\",\"9\",\"3A\",\"C2\",\"C\",\"137\"
\"\",\"\",\"approach-retreat\",\"141\",\"1073132\",\"0.0-141.0\",\"\",\"\",\"3-1\",\"4776\",\"37\",\"1\",\"Training\",\"Stims/Figures/57-J-0-1.bmp\",\"fashava\",\"Left\",\"37\",\"9\",\"10\",\"3A\",\"C1\",\"C\",\"138\"
\"\",\"\",\"approach-retreat\",\"142\",\"1079928\",\"0.0-142.0\",\"\",\"\",\"3-1\",\"5270\",\"39\",\"1\",\"Training\",\"Stims/Figures/128-C-30-3.bmp\",\"zasa:ha\",\"Left\",\"39\",\"9\",\"11\",\"3A\",\"C2\",\"C\",\"139\"
\"\",\"\",\"approach-retreat\",\"143\",\"1085790\",\"0.0-143.0\",\"\",\"\",\"3-1\",\"4344\",\"37\",\"1\",\"Training\",\"Stims/Figures/139-C-20-2.bmp\",\"zasa:ha\",\"Right\",\"37\",\"9\",\"12\",\"3A\",\"C2\",\"C\",\"140\"
\"\",\"\",\"approach-retreat\",\"144\",\"1091500\",\"0.0-144.0\",\"\",\"\",\"3-1\",\"4190\",\"38\",\"1\",\"Training\",\"Stims/Figures/93-C-30-1.bmp\",\"zasa:ha\",\"Down\",\"38\",\"9\",\"13\",\"3A\",\"C2\",\"C\",\"141\"
\"\",\"\",\"approach-retreat\",\"145\",\"1097300\",\"0.0-145.0\",\"\",\"\",\"3-1\",\"4282\",\"40\",\"1\",\"Training\",\"Stims/Figures/111-J-10-3.bmp\",\"fashava\",\"Down\",\"40\",\"9\",\"14\",\"3A\",\"C1\",\"C\",\"142\"
\"\",\"\",\"approach-retreat\",\"146\",\"1105326\",\"0.0-146.0\",\"\",\"\",\"3-1\",\"6504\",\"40\",\"1\",\"Training\",\"Stims/Figures/111-C-30-3.bmp\",\"zasa:ha\",\"Up\",\"40\",\"9\",\"15\",\"3A\",\"C2\",\"C\",\"143\"
\"\",\"\",\"approach-retreat\",\"147\",\"1110916\",\"0.0-147.0\",\"\",\"\",\"3-1\",\"4072\",\"39\",\"1\",\"Training\",\"Stims/Figures/57-C-30-1.bmp\",\"zasa:ha\",\"Left\",\"39\",\"9\",\"16\",\"3A\",\"C2\",\"C\",\"144\"
\"19852\",\"\",\"instructions\",\"148\",\"1130770\",\"0.0-148.0\",\"[{\"\"page_index\"\":0,\"\"viewing_time\"\":19850}]\",\"\",\"\",\"\",\"\",\"\",\"\",\"\",\"\",\"\",\"\",\"\",\"\",\"\",\"\",\"\",\"\"
\"\",\"\",\"approach-retreat\",\"149\",\"1142140\",\"0.0-149.0\",\"\",\"\",\"3-1\",\"9852\",\"39\",\"0\",\"Testing\",\"Stims/Figures/139-J-0-2.bmp\",\"fashava\",\"Left\",\"37\",\"1\",\"1\",\"3A\",\"C1\",\"C\",\"1\"
\"\",\"\",\"approach-retreat\",\"150\",\"1148340\",\"0.0-150.0\",\"\",\"\",\"3-1\",\"4684\",\"38\",\"1\",\"Testing\",\"Stims/Figures/74-J-10-4.bmp\",\"fashava\",\"Up\",\"38\",\"1\",\"2\",\"3A\",\"C1\",\"C\",\"2\"
\"\",\"\",\"approach-retreat\",\"151\",\"1154202\",\"0.0-151.0\",\"\",\"\",\"3-1\",\"4344\",\"40\",\"1\",\"Testing\",\"Stims/Figures/87-J-10-4.bmp\",\"fashava\",\"Down\",\"40\",\"1\",\"3\",\"3A\",\"C1\",\"C\",\"3\"
\"\",\"\",\"approach-retreat\",\"152\",\"1159856\",\"0.0-152.0\",\"\",\"\",\"3-1\",\"4132\",\"39\",\"1\",\"Testing\",\"Stims/Figures/57-C-30-1.bmp\",\"zasa:ha\",\"Left\",\"39\",\"1\",\"4\",\"3A\",\"C2\",\"C\",\"4\"
\"\",\"\",\"approach-retreat\",\"153\",\"1165922\",\"0.0-153.0\",\"\",\"\",\"3-1\",\"4546\",\"38\",\"0\",\"Testing\",\"Stims/Figures/128-J-10-3.bmp\",\"fashava\",\"Down\",\"40\",\"1\",\"5\",\"3A\",\"C1\",\"C\",\"5\"
\"\",\"\",\"approach-retreat\",\"154\",\"1171960\",\"0.0-154.0\",\"\",\"\",\"3-1\",\"4522\",\"39\",\"0\",\"Testing\",\"Stims/Figures/128-C-30-3.bmp\",\"zasa:ha\",\"Right\",\"37\",\"1\",\"6\",\"3A\",\"C2\",\"C\",\"6\"
\"\",\"\",\"approach-retreat\",\"155\",\"1180240\",\"0.0-155.0\",\"\",\"\",\"3-1\",\"6764\",\"38\",\"1\",\"Testing\",\"Stims/Figures/102-C-20-4.bmp\",\"zasa:ha\",\"Down\",\"38\",\"1\",\"7\",\"3A\",\"C2\",\"C\",\"7\"
\"\",\"\",\"approach-retreat\",\"156\",\"1186170\",\"0.0-156.0\",\"\",\"\",\"3-1\",\"4410\",\"37\",\"0\",\"Testing\",\"Stims/Figures/102-J-10-4.bmp\",\"fashava\",\"Right\",\"39\",\"1\",\"8\",\"3A\",\"C1\",\"C\",\"8\"
\"\",\"\",\"approach-retreat\",\"157\",\"1192686\",\"0.0-157.0\",\"\",\"\",\"3-1\",\"4998\",\"37\",\"0\",\"Testing\",\"Stims/Figures/86-J-0-1.bmp\",\"fashava\",\"Right\",\"39\",\"1\",\"9\",\"3A\",\"C1\",\"C\",\"9\"
\"\",\"\",\"approach-retreat\",\"158\",\"1199336\",\"0.0-158.0\",\"\",\"\",\"3-1\",\"5126\",\"37\",\"0\",\"Testing\",\"Stims/Figures/100-C-30-3.bmp\",\"zasa:ha\",\"Left\",\"39\",\"1\",\"10\",\"3A\",\"C2\",\"C\",\"10\"
\"\",\"\",\"approach-retreat\",\"159\",\"1205016\",\"0.0-159.0\",\"\",\"\",\"3-1\",\"4160\",\"37\",\"1\",\"Testing\",\"Stims/Figures/93-J-0-1.bmp\",\"fashava\",\"Left\",\"37\",\"1\",\"11\",\"3A\",\"C1\",\"C\",\"11\"
\"\",\"\",\"approach-retreat\",\"160\",\"1216286\",\"0.0-160.0\",\"\",\"\",\"3-1\",\"9756\",\"38\",\"1\",\"Testing\",\"Stims/Figures/57-J-0-1.bmp\",\"fashava\",\"Up\",\"38\",\"1\",\"12\",\"3A\",\"C1\",\"C\",\"12\"
\"\",\"\",\"approach-retreat\",\"161\",\"1224324\",\"0.0-161.0\",\"\",\"\",\"3-1\",\"6518\",\"38\",\"0\",\"Testing\",\"Stims/Figures/87-C-20-4.bmp\",\"zasa:ha\",\"Up\",\"40\",\"1\",\"13\",\"3A\",\"C2\",\"C\",\"13\"
\"\",\"\",\"approach-retreat\",\"162\",\"1231456\",\"0.0-162.0\",\"\",\"\",\"3-1\",\"5598\",\"38\",\"0\",\"Testing\",\"Stims/Figures/118-J-0-2.bmp\",\"fashava\",\"Down\",\"40\",\"1\",\"14\",\"3A\",\"C1\",\"C\",\"14\"
\"\",\"\",\"approach-retreat\",\"163\",\"1239586\",\"0.0-163.0\",\"\",\"\",\"3-1\",\"6614\",\"38\",\"1\",\"Testing\",\"Stims/Figures/111-J-10-3.bmp\",\"fashava\",\"Up\",\"38\",\"1\",\"15\",\"3A\",\"C1\",\"C\",\"15\"
\"\",\"\",\"approach-retreat\",\"164\",\"1249608\",\"0.0-164.0\",\"\",\"\",\"3-1\",\"8504\",\"37\",\"0\",\"Testing\",\"Stims/Figures/85-C-20-2.bmp\",\"zasa:ha\",\"Left\",\"39\",\"1\",\"16\",\"3A\",\"C2\",\"C\",\"16\"
\"\",\"\",\"approach-retreat\",\"165\",\"1257334\",\"0.0-165.0\",\"\",\"\",\"3-1\",\"6210\",\"38\",\"0\",\"Testing\",\"Stims/Figures/111-C-30-3.bmp\",\"zasa:ha\",\"Up\",\"40\",\"1\",\"17\",\"3A\",\"C2\",\"C\",\"17\"
\"\",\"\",\"approach-retreat\",\"166\",\"1267296\",\"0.0-166.0\",\"\",\"\",\"3-1\",\"8446\",\"39\",\"0\",\"Testing\",\"Stims/Figures/93-C-30-1.bmp\",\"zasa:ha\",\"Right\",\"37\",\"1\",\"18\",\"3A\",\"C2\",\"C\",\"18\"
\"\",\"\",\"approach-retreat\",\"167\",\"1281926\",\"0.0-167.0\",\"\",\"\",\"3-1\",\"13114\",\"40\",\"1\",\"Testing\",\"Stims/Figures/100-J-10-3.bmp\",\"fashava\",\"Down\",\"40\",\"1\",\"19\",\"3A\",\"C1\",\"C\",\"19\"
\"\",\"\",\"approach-retreat\",\"168\",\"1288122\",\"0.0-168.0\",\"\",\"\",\"3-1\",\"4680\",\"39\",\"0\",\"Testing\",\"Stims/Figures/74-C-20-4.bmp\",\"zasa:ha\",\"Right\",\"37\",\"1\",\"20\",\"3A\",\"C2\",\"C\",\"20\"
\"\",\"\",\"approach-retreat\",\"169\",\"1295446\",\"0.0-169.0\",\"\",\"\",\"3-1\",\"5804\",\"37\",\"1\",\"Testing\",\"Stims/Figures/85-J-0-2.bmp\",\"fashava\",\"Left\",\"37\",\"1\",\"21\",\"3A\",\"C1\",\"C\",\"21\"
\"\",\"\",\"approach-retreat\",\"170\",\"1301288\",\"0.0-170.0\",\"\",\"\",\"3-1\",\"4326\",\"40\",\"1\",\"Testing\",\"Stims/Figures/139-C-20-2.bmp\",\"zasa:ha\",\"Up\",\"40\",\"1\",\"22\",\"3A\",\"C2\",\"C\",\"22\"
\"\",\"\",\"approach-retreat\",\"171\",\"1310734\",\"0.0-171.0\",\"\",\"\",\"3-1\",\"7930\",\"40\",\"0\",\"Testing\",\"Stims/Figures/86-C-30-1.bmp\",\"zasa:ha\",\"Down\",\"38\",\"1\",\"23\",\"3A\",\"C2\",\"C\",\"23\"
\"\",\"\",\"approach-retreat\",\"172\",\"1318900\",\"0.0-172.0\",\"\",\"\",\"3-1\",\"6644\",\"37\",\"1\",\"Testing\",\"Stims/Figures/118-C-20-2.bmp\",\"zasa:ha\",\"Right\",\"37\",\"1\",\"24\",\"3A\",\"C2\",\"C\",\"24\"
\"\",\"\",\"approach-retreat\",\"173\",\"1326524\",\"0.0-173.0\",\"\",\"\",\"3-1\",\"6106\",\"37\",\"1\",\"Testing\",\"Stims/Figures/111-J-10-3.bmp\",\"fashava\",\"Left\",\"37\",\"2\",\"1\",\"3A\",\"C1\",\"C\",\"25\"
\"\",\"\",\"approach-retreat\",\"174\",\"1337610\",\"0.0-174.0\",\"\",\"\",\"3-1\",\"9568\",\"38\",\"1\",\"Testing\",\"Stims/Figures/85-C-20-2.bmp\",\"zasa:ha\",\"Down\",\"38\",\"2\",\"2\",\"3A\",\"C2\",\"C\",\"26\"
\"\",\"\",\"approach-retreat\",\"175\",\"1343564\",\"0.0-175.0\",\"\",\"\",\"3-1\",\"4438\",\"40\",\"1\",\"Testing\",\"Stims/Figures/128-C-30-3.bmp\",\"zasa:ha\",\"Up\",\"40\",\"2\",\"3\",\"3A\",\"C2\",\"C\",\"27\"
\"\",\"\",\"approach-retreat\",\"176\",\"1356180\",\"0.0-176.0\",\"\",\"\",\"3-1\",\"11102\",\"40\",\"0\",\"Testing\",\"Stims/Figures/102-J-10-4.bmp\",\"fashava\",\"Up\",\"38\",\"2\",\"4\",\"3A\",\"C1\",\"C\",\"28\"
\"\",\"\",\"approach-retreat\",\"177\",\"1362496\",\"0.0-177.0\",\"\",\"\",\"3-1\",\"4802\",\"39\",\"0\",\"Testing\",\"Stims/Figures/87-C-20-4.bmp\",\"zasa:ha\",\"Right\",\"37\",\"2\",\"5\",\"3A\",\"C2\",\"C\",\"29\"
\"\",\"\",\"approach-retreat\",\"178\",\"1368300\",\"0.0-178.0\",\"\",\"\",\"3-1\",\"4286\",\"38\",\"1\",\"Testing\",\"Stims/Figures/139-C-20-2.bmp\",\"zasa:ha\",\"Down\",\"38\",\"2\",\"6\",\"3A\",\"C2\",\"C\",\"30\"
\"\",\"\",\"approach-retreat\",\"179\",\"1374674\",\"0.0-179.0\",\"\",\"\",\"3-1\",\"4858\",\"38\",\"0\",\"Testing\",\"Stims/Figures/102-C-20-4.bmp\",\"zasa:ha\",\"Up\",\"40\",\"2\",\"7\",\"3A\",\"C2\",\"C\",\"31\"
\"\",\"\",\"approach-retreat\",\"180\",\"1380820\",\"0.0-180.0\",\"\",\"\",\"3-1\",\"4632\",\"39\",\"0\",\"Testing\",\"Stims/Figures/100-C-30-3.bmp\",\"zasa:ha\",\"Right\",\"37\",\"2\",\"8\",\"3A\",\"C2\",\"C\",\"32\"
\"\",\"\",\"approach-retreat\",\"181\",\"1386666\",\"0.0-181.0\",\"\",\"\",\"3-1\",\"4328\",\"37\",\"1\",\"Testing\",\"Stims/Figures/74-J-10-4.bmp\",\"fashava\",\"Left\",\"37\",\"2\",\"9\",\"3A\",\"C1\",\"C\",\"33\"
\"\",\"\",\"approach-retreat\",\"182\",\"1393972\",\"0.0-182.0\",\"\",\"\",\"3-1\",\"5766\",\"39\",\"0\",\"Testing\",\"Stims/Figures/74-C-20-4.bmp\",\"zasa:ha\",\"Right\",\"37\",\"2\",\"10\",\"3A\",\"C2\",\"C\",\"34\"
\"\",\"\",\"approach-retreat\",\"183\",\"1400710\",\"0.0-183.0\",\"\",\"\",\"3-1\",\"5218\",\"39\",\"1\",\"Testing\",\"Stims/Figures/57-C-30-1.bmp\",\"zasa:ha\",\"Left\",\"39\",\"2\",\"11\",\"3A\",\"C2\",\"C\",\"35\"
\"\",\"\",\"approach-retreat\",\"184\",\"1408058\",\"0.0-184.0\",\"\",\"\",\"3-1\",\"5834\",\"40\",\"0\",\"Testing\",\"Stims/Figures/118-C-20-2.bmp\",\"zasa:ha\",\"Down\",\"38\",\"2\",\"12\",\"3A\",\"C2\",\"C\",\"36\"
\"\",\"\",\"approach-retreat\",\"185\",\"1414116\",\"0.0-185.0\",\"\",\"\",\"3-1\",\"4538\",\"37\",\"0\",\"Testing\",\"Stims/Figures/139-J-0-2.bmp\",\"fashava\",\"Right\",\"39\",\"2\",\"13\",\"3A\",\"C1\",\"C\",\"37\"
\"\",\"\",\"approach-retreat\",\"186\",\"1422484\",\"0.0-186.0\",\"\",\"\",\"3-1\",\"6850\",\"39\",\"0\",\"Testing\",\"Stims/Figures/93-C-30-1.bmp\",\"zasa:ha\",\"Right\",\"37\",\"2\",\"14\",\"3A\",\"C2\",\"C\",\"38\"
\"\",\"\",\"approach-retreat\",\"187\",\"1428566\",\"0.0-187.0\",\"\",\"\",\"3-1\",\"4566\",\"38\",\"0\",\"Testing\",\"Stims/Figures/111-C-30-3.bmp\",\"zasa:ha\",\"Up\",\"40\",\"2\",\"15\",\"3A\",\"C2\",\"C\",\"39\"
\"\",\"\",\"approach-retreat\",\"188\",\"1434592\",\"0.0-188.0\",\"\",\"\",\"3-1\",\"4512\",\"38\",\"1\",\"Testing\",\"Stims/Figures/87-J-10-4.bmp\",\"fashava\",\"Up\",\"38\",\"2\",\"16\",\"3A\",\"C1\",\"C\",\"40\"
\"\",\"\",\"approach-retreat\",\"189\",\"1441076\",\"0.0-189.0\",\"\",\"\",\"3-1\",\"4970\",\"38\",\"0\",\"Testing\",\"Stims/Figures/57-J-0-1.bmp\",\"fashava\",\"Down\",\"40\",\"2\",\"17\",\"3A\",\"C1\",\"C\",\"41\"
\"\",\"\",\"approach-retreat\",\"190\",\"1447620\",\"0.0-190.0\",\"\",\"\",\"3-1\",\"5030\",\"38\",\"1\",\"Testing\",\"Stims/Figures/85-J-0-2.bmp\",\"fashava\",\"Up\",\"38\",\"2\",\"18\",\"3A\",\"C1\",\"C\",\"42\"
\"\",\"\",\"approach-retreat\",\"191\",\"1453844\",\"0.0-191.0\",\"\",\"\",\"3-1\",\"4708\",\"39\",\"1\",\"Testing\",\"Stims/Figures/128-J-10-3.bmp\",\"fashava\",\"Right\",\"39\",\"2\",\"19\",\"3A\",\"C1\",\"C\",\"43\"
\"\",\"\",\"approach-retreat\",\"192\",\"1460086\",\"0.0-192.0\",\"\",\"\",\"3-1\",\"4728\",\"38\",\"0\",\"Testing\",\"Stims/Figures/86-J-0-1.bmp\",\"fashava\",\"Down\",\"40\",\"2\",\"20\",\"3A\",\"C1\",\"C\",\"44\"
\"\",\"\",\"approach-retreat\",\"193\",\"1465998\",\"0.0-193.0\",\"\",\"\",\"3-1\",\"4394\",\"39\",\"1\",\"Testing\",\"Stims/Figures/86-C-30-1.bmp\",\"zasa:ha\",\"Left\",\"39\",\"2\",\"21\",\"3A\",\"C2\",\"C\",\"45\"
\"\",\"\",\"approach-retreat\",\"194\",\"1472246\",\"0.0-194.0\",\"\",\"\",\"3-1\",\"4734\",\"40\",\"1\",\"Testing\",\"Stims/Figures/93-J-0-1.bmp\",\"fashava\",\"Down\",\"40\",\"2\",\"22\",\"3A\",\"C1\",\"C\",\"46\"
\"\",\"\",\"approach-retreat\",\"195\",\"1481556\",\"0.0-195.0\",\"\",\"\",\"3-1\",\"7776\",\"37\",\"1\",\"Testing\",\"Stims/Figures/118-J-0-2.bmp\",\"fashava\",\"Left\",\"37\",\"2\",\"23\",\"3A\",\"C1\",\"C\",\"47\"
\"\",\"\",\"approach-retreat\",\"196\",\"1490436\",\"0.0-196.0\",\"\",\"\",\"3-1\",\"7366\",\"37\",\"1\",\"Testing\",\"Stims/Figures/100-J-10-3.bmp\",\"fashava\",\"Left\",\"37\",\"2\",\"24\",\"3A\",\"C1\",\"C\",\"48\"
\"\",\"\",\"approach-retreat\",\"197\",\"1496092\",\"0.0-197.0\",\"\",\"\",\"3-1\",\"4142\",\"38\",\"0\",\"Testing\",\"Stims/Figures/139-J-0-2.bmp\",\"fashava\",\"Down\",\"40\",\"3\",\"1\",\"3A\",\"C1\",\"C\",\"49\"
\"\",\"\",\"approach-retreat\",\"198\",\"1502050\",\"0.0-198.0\",\"\",\"\",\"3-1\",\"4444\",\"38\",\"0\",\"Testing\",\"Stims/Figures/93-C-30-1.bmp\",\"zasa:ha\",\"Up\",\"40\",\"3\",\"2\",\"3A\",\"C2\",\"C\",\"50\"
\"\",\"\",\"approach-retreat\",\"199\",\"1508090\",\"0.0-199.0\",\"\",\"\",\"3-1\",\"4526\",\"39\",\"1\",\"Testing\",\"Stims/Figures/85-J-0-2.bmp\",\"fashava\",\"Right\",\"39\",\"3\",\"3\",\"3A\",\"C1\",\"C\",\"51\"
\"\",\"\",\"approach-retreat\",\"200\",\"1513990\",\"0.0-200.0\",\"\",\"\",\"3-1\",\"4386\",\"37\",\"0\",\"Testing\",\"Stims/Figures/57-J-0-1.bmp\",\"fashava\",\"Right\",\"39\",\"3\",\"4\",\"3A\",\"C1\",\"C\",\"52\"
\"\",\"\",\"approach-retreat\",\"201\",\"1520180\",\"0.0-201.0\",\"\",\"\",\"3-1\",\"4676\",\"40\",\"0\",\"Testing\",\"Stims/Figures/118-C-20-2.bmp\",\"zasa:ha\",\"Down\",\"38\",\"3\",\"5\",\"3A\",\"C2\",\"C\",\"53\"
\"\",\"\",\"approach-retreat\",\"202\",\"1526104\",\"0.0-202.0\",\"\",\"\",\"3-1\",\"4408\",\"38\",\"0\",\"Testing\",\"Stims/Figures/128-C-30-3.bmp\",\"zasa:ha\",\"Up\",\"40\",\"3\",\"6\",\"3A\",\"C2\",\"C\",\"54\"
\"\",\"\",\"approach-retreat\",\"203\",\"1532290\",\"0.0-203.0\",\"\",\"\",\"3-1\",\"4670\",\"37\",\"1\",\"Testing\",\"Stims/Figures/100-J-10-3.bmp\",\"fashava\",\"Left\",\"37\",\"3\",\"7\",\"3A\",\"C1\",\"C\",\"55\"
\"\",\"\",\"approach-retreat\",\"204\",\"1538308\",\"0.0-204.0\",\"\",\"\",\"3-1\",\"4502\",\"38\",\"0\",\"Testing\",\"Stims/Figures/74-C-20-4.bmp\",\"zasa:ha\",\"Up\",\"40\",\"3\",\"8\",\"3A\",\"C2\",\"C\",\"56\"
\"\",\"\",\"approach-retreat\",\"205\",\"1544554\",\"0.0-205.0\",\"\",\"\",\"3-1\",\"4732\",\"39\",\"0\",\"Testing\",\"Stims/Figures/128-J-10-3.bmp\",\"fashava\",\"Left\",\"37\",\"3\",\"9\",\"3A\",\"C1\",\"C\",\"57\"
\"\",\"\",\"approach-retreat\",\"206\",\"1551300\",\"0.0-206.0\",\"\",\"\",\"3-1\",\"5230\",\"39\",\"1\",\"Testing\",\"Stims/Figures/118-J-0-2.bmp\",\"fashava\",\"Right\",\"39\",\"3\",\"10\",\"3A\",\"C1\",\"C\",\"58\"
\"\",\"\",\"approach-retreat\",\"207\",\"1557210\",\"0.0-207.0\",\"\",\"\",\"3-1\",\"4394\",\"40\",\"1\",\"Testing\",\"Stims/Figures/57-C-30-1.bmp\",\"zasa:ha\",\"Up\",\"40\",\"3\",\"11\",\"3A\",\"C2\",\"C\",\"59\"
\"\",\"\",\"approach-retreat\",\"208\",\"1563002\",\"0.0-208.0\",\"\",\"\",\"3-1\",\"4278\",\"37\",\"1\",\"Testing\",\"Stims/Figures/102-J-10-4.bmp\",\"fashava\",\"Left\",\"37\",\"3\",\"12\",\"3A\",\"C1\",\"C\",\"60\"
\"\",\"\",\"approach-retreat\",\"209\",\"1570368\",\"0.0-209.0\",\"\",\"\",\"3-1\",\"5852\",\"39\",\"0\",\"Testing\",\"Stims/Figures/85-C-20-2.bmp\",\"zasa:ha\",\"Right\",\"37\",\"3\",\"13\",\"3A\",\"C2\",\"C\",\"61\"
\"\",\"\",\"approach-retreat\",\"210\",\"1577772\",\"0.0-210.0\",\"\",\"\",\"3-1\",\"5890\",\"40\",\"1\",\"Testing\",\"Stims/Figures/74-J-10-4.bmp\",\"fashava\",\"Down\",\"40\",\"3\",\"14\",\"3A\",\"C1\",\"C\",\"62\"
\"\",\"\",\"approach-retreat\",\"211\",\"1584020\",\"0.0-211.0\",\"\",\"\",\"3-1\",\"4734\",\"40\",\"0\",\"Testing\",\"Stims/Figures/86-J-0-1.bmp\",\"fashava\",\"Up\",\"38\",\"3\",\"15\",\"3A\",\"C1\",\"C\",\"63\"
\"\",\"\",\"approach-retreat\",\"212\",\"1590162\",\"0.0-212.0\",\"\",\"\",\"3-1\",\"4628\",\"39\",\"1\",\"Testing\",\"Stims/Figures/139-C-20-2.bmp\",\"zasa:ha\",\"Left\",\"39\",\"3\",\"16\",\"3A\",\"C2\",\"C\",\"64\"
\"\",\"\",\"approach-retreat\",\"213\",\"1596240\",\"0.0-213.0\",\"\",\"\",\"3-1\",\"4564\",\"39\",\"0\",\"Testing\",\"Stims/Figures/87-C-20-4.bmp\",\"zasa:ha\",\"Right\",\"37\",\"3\",\"17\",\"3A\",\"C2\",\"C\",\"65\"
\"\",\"\",\"approach-retreat\",\"214\",\"1608062\",\"0.0-214.0\",\"\",\"\",\"3-1\",\"10308\",\"37\",\"1\",\"Testing\",\"Stims/Figures/93-J-0-1.bmp\",\"fashava\",\"Left\",\"37\",\"3\",\"18\",\"3A\",\"C1\",\"C\",\"66\"
\"\",\"\",\"approach-retreat\",\"215\",\"1615630\",\"0.0-215.0\",\"\",\"\",\"3-1\",\"6054\",\"40\",\"0\",\"Testing\",\"Stims/Figures/100-C-30-3.bmp\",\"zasa:ha\",\"Down\",\"38\",\"3\",\"19\",\"3A\",\"C2\",\"C\",\"67\"
\"\",\"\",\"approach-retreat\",\"216\",\"1625076\",\"0.0-216.0\",\"\",\"\",\"3-1\",\"7928\",\"39\",\"0\",\"Testing\",\"Stims/Figures/102-C-20-4.bmp\",\"zasa:ha\",\"Right\",\"37\",\"3\",\"20\",\"3A\",\"C2\",\"C\",\"68\"
\"\",\"\",\"approach-retreat\",\"217\",\"1631954\",\"0.0-217.0\",\"\",\"\",\"3-1\",\"5364\",\"38\",\"0\",\"Testing\",\"Stims/Figures/86-C-30-1.bmp\",\"zasa:ha\",\"Up\",\"40\",\"3\",\"21\",\"3A\",\"C2\",\"C\",\"69\"
\"\",\"\",\"approach-retreat\",\"218\",\"1639132\",\"0.0-218.0\",\"\",\"\",\"3-1\",\"5660\",\"37\",\"0\",\"Testing\",\"Stims/Figures/111-C-30-3.bmp\",\"zasa:ha\",\"Left\",\"39\",\"3\",\"22\",\"3A\",\"C2\",\"C\",\"70\"
\"\",\"\",\"approach-retreat\",\"219\",\"1646690\",\"0.0-219.0\",\"\",\"\",\"3-1\",\"6042\",\"40\",\"1\",\"Testing\",\"Stims/Figures/87-J-10-4.bmp\",\"fashava\",\"Down\",\"40\",\"3\",\"23\",\"3A\",\"C1\",\"C\",\"71\"
\"\",\"\",\"approach-retreat\",\"220\",\"1653314\",\"0.0-220.0\",\"\",\"\",\"3-1\",\"5108\",\"40\",\"1\",\"Testing\",\"Stims/Figures/111-J-10-3.bmp\",\"fashava\",\"Down\",\"40\",\"3\",\"24\",\"3A\",\"C1\",\"C\",\"72\"
\"\",\"\",\"approach-retreat\",\"221\",\"1659344\",\"0.0-221.0\",\"\",\"\",\"3-1\",\"4514\",\"40\",\"0\",\"Testing\",\"Stims/Figures/100-C-30-3.bmp\",\"zasa:ha\",\"Down\",\"38\",\"4\",\"1\",\"3A\",\"C2\",\"C\",\"73\"
\"\",\"\",\"approach-retreat\",\"222\",\"1665374\",\"0.0-222.0\",\"\",\"\",\"3-1\",\"4514\",\"40\",\"0\",\"Testing\",\"Stims/Figures/128-C-30-3.bmp\",\"zasa:ha\",\"Down\",\"38\",\"4\",\"2\",\"3A\",\"C2\",\"C\",\"74\"
\"\",\"\",\"approach-retreat\",\"223\",\"1672678\",\"0.0-223.0\",\"\",\"\",\"3-1\",\"5788\",\"38\",\"0\",\"Testing\",\"Stims/Figures/102-C-20-4.bmp\",\"zasa:ha\",\"Up\",\"40\",\"4\",\"3\",\"3A\",\"C2\",\"C\",\"75\"
\"\",\"\",\"approach-retreat\",\"224\",\"1678976\",\"0.0-224.0\",\"\",\"\",\"3-1\",\"4782\",\"38\",\"0\",\"Testing\",\"Stims/Figures/87-C-20-4.bmp\",\"zasa:ha\",\"Up\",\"40\",\"4\",\"4\",\"3A\",\"C2\",\"C\",\"76\"
\"\",\"\",\"approach-retreat\",\"225\",\"1686280\",\"0.0-225.0\",\"\",\"\",\"3-1\",\"5788\",\"39\",\"1\",\"Testing\",\"Stims/Figures/86-J-0-1.bmp\",\"fashava\",\"Right\",\"39\",\"4\",\"5\",\"3A\",\"C1\",\"C\",\"77\"
\"\",\"\",\"approach-retreat\",\"226\",\"1694172\",\"0.0-226.0\",\"\",\"\",\"3-1\",\"6378\",\"39\",\"0\",\"Testing\",\"Stims/Figures/128-J-10-3.bmp\",\"fashava\",\"Left\",\"37\",\"4\",\"6\",\"3A\",\"C1\",\"C\",\"78\"
\"\",\"\",\"approach-retreat\",\"227\",\"1702606\",\"0.0-227.0\",\"\",\"\",\"3-1\",\"6918\",\"38\",\"0\",\"Testing\",\"Stims/Figures/139-J-0-2.bmp\",\"fashava\",\"Down\",\"40\",\"4\",\"7\",\"3A\",\"C1\",\"C\",\"79\"
\"\",\"\",\"approach-retreat\",\"228\",\"1708648\",\"0.0-228.0\",\"\",\"\",\"3-1\",\"4528\",\"37\",\"0\",\"Testing\",\"Stims/Figures/111-C-30-3.bmp\",\"zasa:ha\",\"Left\",\"39\",\"4\",\"8\",\"3A\",\"C2\",\"C\",\"80\"
\"\",\"\",\"approach-retreat\",\"229\",\"1714314\",\"0.0-229.0\",\"\",\"\",\"3-1\",\"4146\",\"37\",\"1\",\"Testing\",\"Stims/Figures/85-J-0-2.bmp\",\"fashava\",\"Left\",\"37\",\"4\",\"9\",\"3A\",\"C1\",\"C\",\"81\"
\"\",\"\",\"approach-retreat\",\"230\",\"1720422\",\"0.0-230.0\",\"\",\"\",\"3-1\",\"4578\",\"37\",\"0\",\"Testing\",\"Stims/Figures/118-C-20-2.bmp\",\"zasa:ha\",\"Left\",\"39\",\"4\",\"10\",\"3A\",\"C2\",\"C\",\"82\"
\"\",\"\",\"approach-retreat\",\"231\",\"1726168\",\"0.0-231.0\",\"\",\"\",\"3-1\",\"4230\",\"39\",\"1\",\"Testing\",\"Stims/Figures/118-J-0-2.bmp\",\"fashava\",\"Right\",\"39\",\"4\",\"11\",\"3A\",\"C1\",\"C\",\"83\"
\"\",\"\",\"approach-retreat\",\"232\",\"1732734\",\"0.0-232.0\",\"\",\"\",\"3-1\",\"5046\",\"38\",\"1\",\"Testing\",\"Stims/Figures/87-J-10-4.bmp\",\"fashava\",\"Up\",\"38\",\"4\",\"12\",\"3A\",\"C1\",\"C\",\"84\"
\"\",\"\",\"approach-retreat\",\"233\",\"1739032\",\"0.0-233.0\",\"\",\"\",\"3-1\",\"4782\",\"38\",\"0\",\"Testing\",\"Stims/Figures/86-C-30-1.bmp\",\"zasa:ha\",\"Up\",\"40\",\"4\",\"13\",\"3A\",\"C2\",\"C\",\"85\"
\"\",\"\",\"approach-retreat\",\"234\",\"1744950\",\"0.0-234.0\",\"\",\"\",\"3-1\",\"4406\",\"38\",\"1\",\"Testing\",\"Stims/Figures/111-J-10-3.bmp\",\"fashava\",\"Up\",\"38\",\"4\",\"14\",\"3A\",\"C1\",\"C\",\"86\"
\"\",\"\",\"approach-retreat\",\"235\",\"1751150\",\"0.0-235.0\",\"\",\"\",\"3-1\",\"4684\",\"37\",\"0\",\"Testing\",\"Stims/Figures/85-C-20-2.bmp\",\"zasa:ha\",\"Left\",\"39\",\"4\",\"15\",\"3A\",\"C2\",\"C\",\"87\"
\"\",\"\",\"approach-retreat\",\"236\",\"1757100\",\"0.0-236.0\",\"\",\"\",\"3-1\",\"4436\",\"39\",\"0\",\"Testing\",\"Stims/Figures/93-C-30-1.bmp\",\"zasa:ha\",\"Right\",\"37\",\"4\",\"16\",\"3A\",\"C2\",\"C\",\"88\"
\"\",\"\",\"approach-retreat\",\"237\",\"1766402\",\"0.0-237.0\",\"\",\"\",\"3-1\",\"7788\",\"40\",\"1\",\"Testing\",\"Stims/Figures/102-J-10-4.bmp\",\"fashava\",\"Down\",\"40\",\"4\",\"17\",\"3A\",\"C1\",\"C\",\"89\"
\"\",\"\",\"approach-retreat\",\"238\",\"1772010\",\"0.0-238.0\",\"\",\"\",\"3-1\",\"4094\",\"37\",\"1\",\"Testing\",\"Stims/Figures/100-J-10-3.bmp\",\"fashava\",\"Left\",\"37\",\"4\",\"18\",\"3A\",\"C1\",\"C\",\"90\"
\"\",\"\",\"approach-retreat\",\"239\",\"1778304\",\"0.0-239.0\",\"\",\"\",\"3-1\",\"4778\",\"38\",\"1\",\"Testing\",\"Stims/Figures/74-J-10-4.bmp\",\"fashava\",\"Up\",\"38\",\"4\",\"19\",\"3A\",\"C1\",\"C\",\"91\"
\"\",\"\",\"approach-retreat\",\"240\",\"1785258\",\"0.0-240.0\",\"\",\"\",\"3-1\",\"5430\",\"38\",\"1\",\"Testing\",\"Stims/Figures/74-C-20-4.bmp\",\"zasa:ha\",\"Down\",\"38\",\"4\",\"20\",\"3A\",\"C2\",\"C\",\"92\"
\"\",\"\",\"approach-retreat\",\"241\",\"1790858\",\"0.0-241.0\",\"\",\"\",\"3-1\",\"4080\",\"37\",\"1\",\"Testing\",\"Stims/Figures/139-C-20-2.bmp\",\"zasa:ha\",\"Right\",\"37\",\"4\",\"21\",\"3A\",\"C2\",\"C\",\"93\"
\"\",\"\",\"approach-retreat\",\"242\",\"1796552\",\"0.0-242.0\",\"\",\"\",\"3-1\",\"4178\",\"39\",\"1\",\"Testing\",\"Stims/Figures/93-J-0-1.bmp\",\"fashava\",\"Right\",\"39\",\"4\",\"22\",\"3A\",\"C1\",\"C\",\"94\"
\"\",\"\",\"approach-retreat\",\"243\",\"1802406\",\"0.0-243.0\",\"\",\"\",\"3-1\",\"4338\",\"38\",\"1\",\"Testing\",\"Stims/Figures/57-C-30-1.bmp\",\"zasa:ha\",\"Down\",\"38\",\"4\",\"23\",\"3A\",\"C2\",\"C\",\"95\"
\"\",\"\",\"approach-retreat\",\"244\",\"1808072\",\"0.0-244.0\",\"\",\"\",\"3-1\",\"4152\",\"37\",\"0\",\"Testing\",\"Stims/Figures/57-J-0-1.bmp\",\"fashava\",\"Right\",\"39\",\"4\",\"24\",\"3A\",\"C1\",\"C\",\"96\"
\"60568\",\"\",\"survey-text\",\"245\",\"1868654\",\"0.0-245.0\",\"\",\"{\"\"Q0\"\":\"\"11922016\"\"}\",\"\",\"\",\"\",\"\",\"\",\"\",\"\",\"\",\"\",\"\",\"\",\"\",\"\",\"\",\"\"
