\"rt\",\"key_press\",\"trial_type\",\"trial_index\",\"time_elapsed\",\"internal_node_id\",\"view_history\",\"responses\",\"Id\",\"Rt\",\"ResKeyCode\",\"ResCorr\",\"TrialType2\",\"Image\",\"Label\",\"Location\",\"CorrectResponse\",\"Block\",\"BlockTrial\",\"Condition\",\"LabelType\",\"Subcondition\",\"trialNum\"
\"215728\",\"32\",\"text\",\"0\",\"215732\",\"0.0-0.0-0.0\",\"\",\"\",\"\",\"\",\"\",\"\",\"\",\"\",\"\",\"\",\"\",\"\",\"\",\"\",\"\",\"\",\"\"
\"37734\",\"\",\"instructions\",\"1\",\"253468\",\"0.0-1.0\",\"[{\"\"page_index\"\":0,\"\"viewing_time\"\":37733}]\",\"\",\"\",\"\",\"\",\"\",\"\",\"\",\"\",\"\",\"\",\"\",\"\",\"\",\"\",\"\",\"\"
\"16312\",\"\",\"survey-multi-choice\",\"2\",\"269807\",\"0.0-2.0\",\"\",\"{\"\"Q0\"\":\"\"Da\"\",\"\"Q1\"\":\"\"Da\"\",\"\"Q2\"\":\"\"Da\"\",\"\"Q3\"\":\"\"Da\"\",\"\"Q4\"\":\"\"Da\"\",\"\"Q5\"\":\"\"Da\"\"}\",\"\",\"\",\"\",\"\",\"\",\"\",\"\",\"\",\"\",\"\",\"\",\"\",\"\",\"\",\"\"
\"\",\"\",\"bio\",\"3\",\"277679\",\"0.0-3.0\",\"\",\"{\"\"age\"\":\"\"19\"\",\"\"gender\"\":\"\"f\"\",\"\"specify\"\":\"\"\"\"}\",\"\",\"\",\"\",\"\",\"\",\"\",\"\",\"\",\"\",\"\",\"\",\"\",\"\",\"\",\"\"
\"\",\"\",\"approach-retreat\",\"4\",\"287105\",\"0.0-4.0\",\"\",\"\",\"3-3\",\"7914\",\"38\",\"1\",\"Training\",\"Stims/Figures/86-C-30-1.bmp\",\"za:ha:za\",\"Down\",\"38\",\"1\",\"1\",\"6A\",\"C2\",\"C\",\"1\"
\"\",\"\",\"approach-retreat\",\"5\",\"295054\",\"0.0-5.0\",\"\",\"\",\"3-3\",\"6441\",\"39\",\"0\",\"Training\",\"Stims/Figures/84-J-0-2.bmp\",\"fasha:sha\",\"Left\",\"37\",\"1\",\"2\",\"6A\",\"C1\",\"C\",\"2\"
\"\",\"\",\"approach-retreat\",\"6\",\"301657\",\"0.0-6.0\",\"\",\"\",\"3-3\",\"5096\",\"40\",\"1\",\"Training\",\"Stims/Figures/57-C-30-1.bmp\",\"sa:haza\",\"Up\",\"40\",\"1\",\"3\",\"6A\",\"C2\",\"C\",\"3\"
\"\",\"\",\"approach-retreat\",\"7\",\"307380\",\"0.0-7.0\",\"\",\"\",\"3-3\",\"4215\",\"40\",\"1\",\"Training\",\"Stims/Figures/44-C-30-3.bmp\",\"za:haza\",\"Up\",\"40\",\"1\",\"4\",\"6A\",\"C2\",\"C\",\"4\"
\"\",\"\",\"approach-retreat\",\"8\",\"313422\",\"0.0-8.0\",\"\",\"\",\"3-3\",\"4535\",\"40\",\"0\",\"Training\",\"Stims/Figures/139-C-20-2.bmp\",\"sasa:za\",\"Down\",\"38\",\"1\",\"5\",\"6A\",\"C2\",\"C\",\"5\"
\"\",\"\",\"approach-retreat\",\"9\",\"320379\",\"0.0-9.0\",\"\",\"\",\"3-3\",\"5450\",\"39\",\"0\",\"Training\",\"Stims/Figures/144-J-10-3.bmp\",\"vafasha\",\"Left\",\"37\",\"1\",\"6\",\"6A\",\"C1\",\"C\",\"6\"
\"\",\"\",\"approach-retreat\",\"10\",\"326465\",\"0.0-10.0\",\"\",\"\",\"3-3\",\"4577\",\"39\",\"1\",\"Training\",\"Stims/Figures/139-J-0-2.bmp\",\"fa:shava\",\"Right\",\"39\",\"1\",\"7\",\"6A\",\"C1\",\"C\",\"7\"
\"\",\"\",\"approach-retreat\",\"11\",\"333151\",\"0.0-11.0\",\"\",\"\",\"3-3\",\"5178\",\"37\",\"1\",\"Training\",\"Stims/Figures/7-J-10-4.bmp\",\"va:fa:va\",\"Left\",\"37\",\"1\",\"8\",\"6A\",\"C1\",\"C\",\"8\"
\"\",\"\",\"approach-retreat\",\"12\",\"339864\",\"0.0-12.0\",\"\",\"\",\"3-3\",\"5207\",\"40\",\"1\",\"Training\",\"Stims/Figures/84-C-20-2.bmp\",\"za:sa:za\",\"Up\",\"40\",\"1\",\"9\",\"6A\",\"C2\",\"C\",\"9\"
\"\",\"\",\"approach-retreat\",\"13\",\"347244\",\"0.0-13.0\",\"\",\"\",\"3-3\",\"5873\",\"40\",\"1\",\"Training\",\"Stims/Figures/74-C-20-4.bmp\",\"zaha:za\",\"Up\",\"40\",\"1\",\"10\",\"6A\",\"C2\",\"C\",\"10\"
\"\",\"\",\"approach-retreat\",\"14\",\"353647\",\"0.0-14.0\",\"\",\"\",\"3-3\",\"4896\",\"38\",\"1\",\"Training\",\"Stims/Figures/144-C-30-3.bmp\",\"sahaha\",\"Down\",\"38\",\"1\",\"11\",\"6A\",\"C2\",\"C\",\"11\"
\"\",\"\",\"approach-retreat\",\"15\",\"362211\",\"0.0-15.0\",\"\",\"\",\"3-3\",\"7057\",\"39\",\"1\",\"Training\",\"Stims/Figures/86-J-0-1.bmp\",\"fa:fa:va\",\"Right\",\"39\",\"1\",\"12\",\"6A\",\"C1\",\"C\",\"12\"
\"\",\"\",\"approach-retreat\",\"16\",\"368127\",\"0.0-16.0\",\"\",\"\",\"3-3\",\"4407\",\"39\",\"1\",\"Training\",\"Stims/Figures/74-J-10-4.bmp\",\"fafa:sha\",\"Right\",\"39\",\"1\",\"13\",\"6A\",\"C1\",\"C\",\"13\"
\"\",\"\",\"approach-retreat\",\"17\",\"376651\",\"0.0-17.0\",\"\",\"\",\"3-3\",\"7017\",\"37\",\"1\",\"Training\",\"Stims/Figures/44-J-10-3.bmp\",\"fa:fa:sha\",\"Left\",\"37\",\"1\",\"14\",\"6A\",\"C1\",\"C\",\"14\"
\"\",\"\",\"approach-retreat\",\"18\",\"383825\",\"0.0-18.0\",\"\",\"\",\"3-3\",\"5666\",\"38\",\"1\",\"Training\",\"Stims/Figures/7-C-20-4.bmp\",\"zasaza\",\"Down\",\"38\",\"1\",\"15\",\"6A\",\"C2\",\"C\",\"15\"
\"\",\"\",\"approach-retreat\",\"19\",\"390678\",\"0.0-19.0\",\"\",\"\",\"3-3\",\"5346\",\"39\",\"1\",\"Training\",\"Stims/Figures/57-J-0-1.bmp\",\"vashasha\",\"Right\",\"39\",\"1\",\"16\",\"6A\",\"C1\",\"C\",\"16\"
\"\",\"\",\"approach-retreat\",\"20\",\"396874\",\"0.0-20.0\",\"\",\"\",\"3-3\",\"4688\",\"39\",\"1\",\"Training\",\"Stims/Figures/86-J-0-1.bmp\",\"fa:fa:va\",\"Right\",\"39\",\"2\",\"1\",\"6A\",\"C1\",\"C\",\"17\"
\"\",\"\",\"approach-retreat\",\"21\",\"402891\",\"0.0-21.0\",\"\",\"\",\"3-3\",\"4510\",\"39\",\"1\",\"Training\",\"Stims/Figures/144-C-30-3.bmp\",\"sahaha\",\"Left\",\"39\",\"2\",\"2\",\"6A\",\"C2\",\"C\",\"18\"
\"\",\"\",\"approach-retreat\",\"22\",\"409764\",\"0.0-22.0\",\"\",\"\",\"3-3\",\"5366\",\"37\",\"1\",\"Training\",\"Stims/Figures/144-J-10-3.bmp\",\"vafasha\",\"Left\",\"37\",\"2\",\"3\",\"6A\",\"C1\",\"C\",\"19\"
\"\",\"\",\"approach-retreat\",\"23\",\"415820\",\"0.0-23.0\",\"\",\"\",\"3-3\",\"4549\",\"40\",\"1\",\"Training\",\"Stims/Figures/74-J-10-4.bmp\",\"fafa:sha\",\"Down\",\"40\",\"2\",\"4\",\"6A\",\"C1\",\"C\",\"20\"
\"\",\"\",\"approach-retreat\",\"24\",\"422025\",\"0.0-24.0\",\"\",\"\",\"3-3\",\"4699\",\"37\",\"1\",\"Training\",\"Stims/Figures/84-C-20-2.bmp\",\"za:sa:za\",\"Right\",\"37\",\"2\",\"5\",\"6A\",\"C2\",\"C\",\"21\"
\"\",\"\",\"approach-retreat\",\"25\",\"428356\",\"0.0-25.0\",\"\",\"\",\"3-3\",\"4825\",\"38\",\"1\",\"Training\",\"Stims/Figures/139-J-0-2.bmp\",\"fa:shava\",\"Up\",\"38\",\"2\",\"6\",\"6A\",\"C1\",\"C\",\"22\"
\"\",\"\",\"approach-retreat\",\"26\",\"434861\",\"0.0-26.0\",\"\",\"\",\"3-3\",\"4999\",\"39\",\"1\",\"Training\",\"Stims/Figures/84-J-0-2.bmp\",\"fasha:sha\",\"Right\",\"39\",\"2\",\"7\",\"6A\",\"C1\",\"C\",\"23\"
\"\",\"\",\"approach-retreat\",\"27\",\"441340\",\"0.0-27.0\",\"\",\"\",\"3-3\",\"4973\",\"40\",\"1\",\"Training\",\"Stims/Figures/44-C-30-3.bmp\",\"za:haza\",\"Up\",\"40\",\"2\",\"8\",\"6A\",\"C2\",\"C\",\"24\"
\"\",\"\",\"approach-retreat\",\"28\",\"448127\",\"0.0-28.0\",\"\",\"\",\"3-3\",\"5280\",\"38\",\"1\",\"Training\",\"Stims/Figures/44-J-10-3.bmp\",\"fa:fa:sha\",\"Up\",\"38\",\"2\",\"9\",\"6A\",\"C1\",\"C\",\"25\"
\"\",\"\",\"approach-retreat\",\"29\",\"454812\",\"0.0-29.0\",\"\",\"\",\"3-3\",\"5179\",\"37\",\"1\",\"Training\",\"Stims/Figures/86-C-30-1.bmp\",\"za:ha:za\",\"Right\",\"37\",\"2\",\"10\",\"6A\",\"C2\",\"C\",\"26\"
\"\",\"\",\"approach-retreat\",\"30\",\"461023\",\"0.0-30.0\",\"\",\"\",\"3-3\",\"4705\",\"40\",\"1\",\"Training\",\"Stims/Figures/7-C-20-4.bmp\",\"zasaza\",\"Up\",\"40\",\"2\",\"11\",\"6A\",\"C2\",\"C\",\"27\"
\"\",\"\",\"approach-retreat\",\"31\",\"468017\",\"0.0-31.0\",\"\",\"\",\"3-3\",\"5488\",\"40\",\"1\",\"Training\",\"Stims/Figures/7-J-10-4.bmp\",\"va:fa:va\",\"Down\",\"40\",\"2\",\"12\",\"6A\",\"C1\",\"C\",\"28\"
\"\",\"\",\"approach-retreat\",\"32\",\"473774\",\"0.0-32.0\",\"\",\"\",\"3-3\",\"4253\",\"38\",\"1\",\"Training\",\"Stims/Figures/139-C-20-2.bmp\",\"sasa:za\",\"Down\",\"38\",\"2\",\"13\",\"6A\",\"C2\",\"C\",\"29\"
\"\",\"\",\"approach-retreat\",\"33\",\"480293\",\"0.0-33.0\",\"\",\"\",\"3-3\",\"5012\",\"38\",\"1\",\"Training\",\"Stims/Figures/57-C-30-1.bmp\",\"sa:haza\",\"Down\",\"38\",\"2\",\"14\",\"6A\",\"C2\",\"C\",\"30\"
\"\",\"\",\"approach-retreat\",\"34\",\"486926\",\"0.0-34.0\",\"\",\"\",\"3-3\",\"5126\",\"39\",\"1\",\"Training\",\"Stims/Figures/74-C-20-4.bmp\",\"zaha:za\",\"Left\",\"39\",\"2\",\"15\",\"6A\",\"C2\",\"C\",\"31\"
\"\",\"\",\"approach-retreat\",\"35\",\"493018\",\"0.0-35.0\",\"\",\"\",\"3-3\",\"4586\",\"37\",\"1\",\"Training\",\"Stims/Figures/57-J-0-1.bmp\",\"vashasha\",\"Left\",\"37\",\"2\",\"16\",\"6A\",\"C1\",\"C\",\"32\"
\"\",\"\",\"approach-retreat\",\"36\",\"499608\",\"0.0-36.0\",\"\",\"\",\"3-3\",\"5085\",\"39\",\"0\",\"Training\",\"Stims/Figures/86-J-0-1.bmp\",\"fa:fa:va\",\"Left\",\"37\",\"3\",\"1\",\"6A\",\"C1\",\"C\",\"33\"
\"\",\"\",\"approach-retreat\",\"37\",\"506204\",\"0.0-37.0\",\"\",\"\",\"3-3\",\"5089\",\"37\",\"1\",\"Training\",\"Stims/Figures/74-C-20-4.bmp\",\"zaha:za\",\"Right\",\"37\",\"3\",\"2\",\"6A\",\"C2\",\"C\",\"34\"
\"\",\"\",\"approach-retreat\",\"38\",\"512281\",\"0.0-38.0\",\"\",\"\",\"3-3\",\"4568\",\"37\",\"1\",\"Training\",\"Stims/Figures/7-J-10-4.bmp\",\"va:fa:va\",\"Left\",\"37\",\"3\",\"3\",\"6A\",\"C1\",\"C\",\"35\"
\"\",\"\",\"approach-retreat\",\"39\",\"520050\",\"0.0-39.0\",\"\",\"\",\"3-3\",\"6256\",\"38\",\"1\",\"Training\",\"Stims/Figures/44-J-10-3.bmp\",\"fa:fa:sha\",\"Up\",\"38\",\"3\",\"4\",\"6A\",\"C1\",\"C\",\"36\"
\"\",\"\",\"approach-retreat\",\"40\",\"526145\",\"0.0-40.0\",\"\",\"\",\"3-3\",\"4588\",\"38\",\"1\",\"Training\",\"Stims/Figures/44-C-30-3.bmp\",\"za:haza\",\"Down\",\"38\",\"3\",\"5\",\"6A\",\"C2\",\"C\",\"37\"
\"\",\"\",\"approach-retreat\",\"41\",\"532739\",\"0.0-41.0\",\"\",\"\",\"3-3\",\"5089\",\"37\",\"1\",\"Training\",\"Stims/Figures/57-J-0-1.bmp\",\"vashasha\",\"Left\",\"37\",\"3\",\"6\",\"6A\",\"C1\",\"C\",\"38\"
\"\",\"\",\"approach-retreat\",\"42\",\"538492\",\"0.0-42.0\",\"\",\"\",\"3-3\",\"4248\",\"39\",\"1\",\"Training\",\"Stims/Figures/139-C-20-2.bmp\",\"sasa:za\",\"Left\",\"39\",\"3\",\"7\",\"6A\",\"C2\",\"C\",\"39\"
\"\",\"\",\"approach-retreat\",\"43\",\"545452\",\"0.0-43.0\",\"\",\"\",\"3-3\",\"5453\",\"38\",\"1\",\"Training\",\"Stims/Figures/84-J-0-2.bmp\",\"fasha:sha\",\"Up\",\"38\",\"3\",\"8\",\"6A\",\"C1\",\"C\",\"40\"
\"\",\"\",\"approach-retreat\",\"44\",\"551946\",\"0.0-44.0\",\"\",\"\",\"3-3\",\"4987\",\"40\",\"1\",\"Training\",\"Stims/Figures/144-J-10-3.bmp\",\"vafasha\",\"Down\",\"40\",\"3\",\"9\",\"6A\",\"C1\",\"C\",\"41\"
\"\",\"\",\"approach-retreat\",\"45\",\"558607\",\"0.0-45.0\",\"\",\"\",\"3-3\",\"5153\",\"37\",\"1\",\"Training\",\"Stims/Figures/7-C-20-4.bmp\",\"zasaza\",\"Right\",\"37\",\"3\",\"10\",\"6A\",\"C2\",\"C\",\"42\"
\"\",\"\",\"approach-retreat\",\"46\",\"565349\",\"0.0-46.0\",\"\",\"\",\"3-3\",\"5236\",\"38\",\"1\",\"Training\",\"Stims/Figures/86-C-30-1.bmp\",\"za:ha:za\",\"Down\",\"38\",\"3\",\"11\",\"6A\",\"C2\",\"C\",\"43\"
\"\",\"\",\"approach-retreat\",\"47\",\"571556\",\"0.0-47.0\",\"\",\"\",\"3-3\",\"4701\",\"40\",\"1\",\"Training\",\"Stims/Figures/84-C-20-2.bmp\",\"za:sa:za\",\"Up\",\"40\",\"3\",\"12\",\"6A\",\"C2\",\"C\",\"44\"
\"\",\"\",\"approach-retreat\",\"48\",\"578688\",\"0.0-48.0\",\"\",\"\",\"3-3\",\"5626\",\"39\",\"1\",\"Training\",\"Stims/Figures/139-J-0-2.bmp\",\"fa:shava\",\"Right\",\"39\",\"3\",\"13\",\"6A\",\"C1\",\"C\",\"45\"
\"\",\"\",\"approach-retreat\",\"49\",\"584667\",\"0.0-49.0\",\"\",\"\",\"3-3\",\"4473\",\"38\",\"1\",\"Training\",\"Stims/Figures/144-C-30-3.bmp\",\"sahaha\",\"Down\",\"38\",\"3\",\"14\",\"6A\",\"C2\",\"C\",\"46\"
\"\",\"\",\"approach-retreat\",\"50\",\"590876\",\"0.0-50.0\",\"\",\"\",\"3-3\",\"4701\",\"39\",\"1\",\"Training\",\"Stims/Figures/74-J-10-4.bmp\",\"fafa:sha\",\"Right\",\"39\",\"3\",\"15\",\"6A\",\"C1\",\"C\",\"47\"
\"\",\"\",\"approach-retreat\",\"51\",\"597547\",\"0.0-51.0\",\"\",\"\",\"3-3\",\"5166\",\"40\",\"1\",\"Training\",\"Stims/Figures/57-C-30-1.bmp\",\"sa:haza\",\"Up\",\"40\",\"3\",\"16\",\"6A\",\"C2\",\"C\",\"48\"
\"\",\"\",\"approach-retreat\",\"52\",\"604063\",\"0.0-52.0\",\"\",\"\",\"3-3\",\"5010\",\"39\",\"1\",\"Training\",\"Stims/Figures/86-C-30-1.bmp\",\"za:ha:za\",\"Left\",\"39\",\"4\",\"1\",\"6A\",\"C2\",\"C\",\"49\"
\"\",\"\",\"approach-retreat\",\"53\",\"609829\",\"0.0-53.0\",\"\",\"\",\"3-3\",\"4260\",\"38\",\"1\",\"Training\",\"Stims/Figures/144-J-10-3.bmp\",\"vafasha\",\"Up\",\"38\",\"4\",\"2\",\"6A\",\"C1\",\"C\",\"50\"
\"\",\"\",\"approach-retreat\",\"54\",\"615629\",\"0.0-54.0\",\"\",\"\",\"3-3\",\"4294\",\"40\",\"1\",\"Training\",\"Stims/Figures/144-C-30-3.bmp\",\"sahaha\",\"Up\",\"40\",\"4\",\"3\",\"6A\",\"C2\",\"C\",\"51\"
\"\",\"\",\"approach-retreat\",\"55\",\"622007\",\"0.0-55.0\",\"\",\"\",\"3-3\",\"4872\",\"38\",\"1\",\"Training\",\"Stims/Figures/44-C-30-3.bmp\",\"za:haza\",\"Down\",\"38\",\"4\",\"4\",\"6A\",\"C2\",\"C\",\"52\"
\"\",\"\",\"approach-retreat\",\"56\",\"628182\",\"0.0-56.0\",\"\",\"\",\"3-3\",\"4667\",\"38\",\"1\",\"Training\",\"Stims/Figures/139-J-0-2.bmp\",\"fa:shava\",\"Up\",\"38\",\"4\",\"5\",\"6A\",\"C1\",\"C\",\"53\"
\"\",\"\",\"approach-retreat\",\"57\",\"633988\",\"0.0-57.0\",\"\",\"\",\"3-3\",\"4299\",\"39\",\"1\",\"Training\",\"Stims/Figures/86-J-0-1.bmp\",\"fa:fa:va\",\"Right\",\"39\",\"4\",\"6\",\"6A\",\"C1\",\"C\",\"54\"
\"\",\"\",\"approach-retreat\",\"58\",\"640055\",\"0.0-58.0\",\"\",\"\",\"3-3\",\"4561\",\"38\",\"1\",\"Training\",\"Stims/Figures/44-J-10-3.bmp\",\"fa:fa:sha\",\"Up\",\"38\",\"4\",\"7\",\"6A\",\"C1\",\"C\",\"55\"
\"\",\"\",\"approach-retreat\",\"59\",\"646154\",\"0.0-59.0\",\"\",\"\",\"3-3\",\"4593\",\"39\",\"1\",\"Training\",\"Stims/Figures/74-J-10-4.bmp\",\"fafa:sha\",\"Right\",\"39\",\"4\",\"8\",\"6A\",\"C1\",\"C\",\"56\"
\"\",\"\",\"approach-retreat\",\"60\",\"653298\",\"0.0-60.0\",\"\",\"\",\"3-3\",\"5636\",\"37\",\"1\",\"Training\",\"Stims/Figures/74-C-20-4.bmp\",\"zaha:za\",\"Right\",\"37\",\"4\",\"9\",\"6A\",\"C2\",\"C\",\"57\"
\"\",\"\",\"approach-retreat\",\"61\",\"662311\",\"0.0-61.0\",\"\",\"\",\"3-3\",\"7508\",\"39\",\"1\",\"Training\",\"Stims/Figures/57-C-30-1.bmp\",\"sa:haza\",\"Left\",\"39\",\"4\",\"10\",\"6A\",\"C2\",\"C\",\"58\"
\"\",\"\",\"approach-retreat\",\"62\",\"668345\",\"0.0-62.0\",\"\",\"\",\"3-3\",\"4529\",\"38\",\"1\",\"Training\",\"Stims/Figures/7-C-20-4.bmp\",\"zasaza\",\"Down\",\"38\",\"4\",\"11\",\"6A\",\"C2\",\"C\",\"59\"
\"\",\"\",\"approach-retreat\",\"63\",\"674482\",\"0.0-63.0\",\"\",\"\",\"3-3\",\"4627\",\"40\",\"1\",\"Training\",\"Stims/Figures/7-J-10-4.bmp\",\"va:fa:va\",\"Down\",\"40\",\"4\",\"12\",\"6A\",\"C1\",\"C\",\"60\"
\"\",\"\",\"approach-retreat\",\"64\",\"680890\",\"0.0-64.0\",\"\",\"\",\"3-3\",\"4903\",\"40\",\"1\",\"Training\",\"Stims/Figures/57-J-0-1.bmp\",\"vashasha\",\"Down\",\"40\",\"4\",\"13\",\"6A\",\"C1\",\"C\",\"61\"
\"\",\"\",\"approach-retreat\",\"65\",\"687130\",\"0.0-65.0\",\"\",\"\",\"3-3\",\"4731\",\"39\",\"1\",\"Training\",\"Stims/Figures/84-C-20-2.bmp\",\"za:sa:za\",\"Left\",\"39\",\"4\",\"14\",\"6A\",\"C2\",\"C\",\"62\"
\"\",\"\",\"approach-retreat\",\"66\",\"693158\",\"0.0-66.0\",\"\",\"\",\"3-3\",\"4522\",\"39\",\"1\",\"Training\",\"Stims/Figures/139-C-20-2.bmp\",\"sasa:za\",\"Left\",\"39\",\"4\",\"15\",\"6A\",\"C2\",\"C\",\"63\"
\"\",\"\",\"approach-retreat\",\"67\",\"699212\",\"0.0-67.0\",\"\",\"\",\"3-3\",\"4547\",\"39\",\"1\",\"Training\",\"Stims/Figures/84-J-0-2.bmp\",\"fasha:sha\",\"Right\",\"39\",\"4\",\"16\",\"6A\",\"C1\",\"C\",\"64\"
\"\",\"\",\"approach-retreat\",\"68\",\"706600\",\"0.0-68.0\",\"\",\"\",\"3-3\",\"5883\",\"37\",\"1\",\"Training\",\"Stims/Figures/44-C-30-3.bmp\",\"za:haza\",\"Right\",\"37\",\"5\",\"1\",\"6A\",\"C2\",\"C\",\"65\"
\"\",\"\",\"approach-retreat\",\"69\",\"712975\",\"0.0-69.0\",\"\",\"\",\"3-3\",\"4869\",\"37\",\"1\",\"Training\",\"Stims/Figures/86-J-0-1.bmp\",\"fa:fa:va\",\"Left\",\"37\",\"5\",\"2\",\"6A\",\"C1\",\"C\",\"66\"
\"\",\"\",\"approach-retreat\",\"70\",\"718793\",\"0.0-70.0\",\"\",\"\",\"3-3\",\"4310\",\"40\",\"1\",\"Training\",\"Stims/Figures/139-J-0-2.bmp\",\"fa:shava\",\"Down\",\"40\",\"5\",\"3\",\"6A\",\"C1\",\"C\",\"67\"
\"\",\"\",\"approach-retreat\",\"71\",\"725164\",\"0.0-71.0\",\"\",\"\",\"3-3\",\"4864\",\"38\",\"1\",\"Training\",\"Stims/Figures/74-C-20-4.bmp\",\"zaha:za\",\"Down\",\"38\",\"5\",\"4\",\"6A\",\"C2\",\"C\",\"68\"
\"\",\"\",\"approach-retreat\",\"72\",\"731174\",\"0.0-72.0\",\"\",\"\",\"3-3\",\"4503\",\"38\",\"1\",\"Training\",\"Stims/Figures/86-C-30-1.bmp\",\"za:ha:za\",\"Down\",\"38\",\"5\",\"5\",\"6A\",\"C2\",\"C\",\"69\"
\"\",\"\",\"approach-retreat\",\"73\",\"737684\",\"0.0-73.0\",\"\",\"\",\"3-3\",\"5005\",\"38\",\"1\",\"Training\",\"Stims/Figures/57-J-0-1.bmp\",\"vashasha\",\"Up\",\"38\",\"5\",\"6\",\"6A\",\"C1\",\"C\",\"70\"
\"\",\"\",\"approach-retreat\",\"74\",\"743837\",\"0.0-74.0\",\"\",\"\",\"3-3\",\"4646\",\"37\",\"1\",\"Training\",\"Stims/Figures/84-J-0-2.bmp\",\"fasha:sha\",\"Left\",\"37\",\"5\",\"7\",\"6A\",\"C1\",\"C\",\"71\"
\"\",\"\",\"approach-retreat\",\"75\",\"749811\",\"0.0-75.0\",\"\",\"\",\"3-3\",\"4467\",\"39\",\"1\",\"Training\",\"Stims/Figures/84-C-20-2.bmp\",\"za:sa:za\",\"Left\",\"39\",\"5\",\"8\",\"6A\",\"C2\",\"C\",\"72\"
\"\",\"\",\"approach-retreat\",\"76\",\"756322\",\"0.0-76.0\",\"\",\"\",\"3-3\",\"5005\",\"38\",\"1\",\"Training\",\"Stims/Figures/44-J-10-3.bmp\",\"fa:fa:sha\",\"Up\",\"38\",\"5\",\"9\",\"6A\",\"C1\",\"C\",\"73\"
\"\",\"\",\"approach-retreat\",\"77\",\"762197\",\"0.0-77.0\",\"\",\"\",\"3-3\",\"4367\",\"40\",\"1\",\"Training\",\"Stims/Figures/139-C-20-2.bmp\",\"sasa:za\",\"Up\",\"40\",\"5\",\"10\",\"6A\",\"C2\",\"C\",\"74\"
\"\",\"\",\"approach-retreat\",\"78\",\"768657\",\"0.0-78.0\",\"\",\"\",\"3-3\",\"4953\",\"37\",\"1\",\"Training\",\"Stims/Figures/144-C-30-3.bmp\",\"sahaha\",\"Right\",\"37\",\"5\",\"11\",\"6A\",\"C2\",\"C\",\"75\"
\"\",\"\",\"approach-retreat\",\"79\",\"775153\",\"0.0-79.0\",\"\",\"\",\"3-3\",\"4986\",\"38\",\"1\",\"Training\",\"Stims/Figures/144-J-10-3.bmp\",\"vafasha\",\"Up\",\"38\",\"5\",\"12\",\"6A\",\"C1\",\"C\",\"76\"
\"\",\"\",\"approach-retreat\",\"80\",\"780950\",\"0.0-80.0\",\"\",\"\",\"3-3\",\"4291\",\"37\",\"1\",\"Training\",\"Stims/Figures/74-J-10-4.bmp\",\"fafa:sha\",\"Left\",\"37\",\"5\",\"13\",\"6A\",\"C1\",\"C\",\"77\"
\"\",\"\",\"approach-retreat\",\"81\",\"787428\",\"0.0-81.0\",\"\",\"\",\"3-3\",\"4970\",\"37\",\"0\",\"Training\",\"Stims/Figures/7-J-10-4.bmp\",\"va:fa:va\",\"Right\",\"39\",\"5\",\"14\",\"6A\",\"C1\",\"C\",\"78\"
\"\",\"\",\"approach-retreat\",\"82\",\"793150\",\"0.0-82.0\",\"\",\"\",\"3-3\",\"4216\",\"37\",\"1\",\"Training\",\"Stims/Figures/57-C-30-1.bmp\",\"sa:haza\",\"Right\",\"37\",\"5\",\"15\",\"6A\",\"C2\",\"C\",\"79\"
\"\",\"\",\"approach-retreat\",\"83\",\"800654\",\"0.0-83.0\",\"\",\"\",\"3-3\",\"5999\",\"38\",\"1\",\"Training\",\"Stims/Figures/7-C-20-4.bmp\",\"zasaza\",\"Down\",\"38\",\"5\",\"16\",\"6A\",\"C2\",\"C\",\"80\"
\"\",\"\",\"approach-retreat\",\"84\",\"806584\",\"0.0-84.0\",\"\",\"\",\"3-3\",\"4423\",\"40\",\"1\",\"Training\",\"Stims/Figures/57-J-0-1.bmp\",\"vashasha\",\"Down\",\"40\",\"6\",\"1\",\"6A\",\"C1\",\"C\",\"81\"
\"\",\"\",\"approach-retreat\",\"85\",\"814300\",\"0.0-85.0\",\"\",\"\",\"3-3\",\"6209\",\"39\",\"1\",\"Training\",\"Stims/Figures/44-C-30-3.bmp\",\"za:haza\",\"Left\",\"39\",\"6\",\"2\",\"6A\",\"C2\",\"C\",\"82\"
\"\",\"\",\"approach-retreat\",\"86\",\"820002\",\"0.0-86.0\",\"\",\"\",\"3-3\",\"4194\",\"39\",\"1\",\"Training\",\"Stims/Figures/74-C-20-4.bmp\",\"zaha:za\",\"Left\",\"39\",\"6\",\"3\",\"6A\",\"C2\",\"C\",\"83\"
\"\",\"\",\"approach-retreat\",\"87\",\"826253\",\"0.0-87.0\",\"\",\"\",\"3-3\",\"4744\",\"37\",\"1\",\"Training\",\"Stims/Figures/144-C-30-3.bmp\",\"sahaha\",\"Right\",\"37\",\"6\",\"4\",\"6A\",\"C2\",\"C\",\"84\"
\"\",\"\",\"approach-retreat\",\"88\",\"832538\",\"0.0-88.0\",\"\",\"\",\"3-3\",\"4779\",\"40\",\"1\",\"Training\",\"Stims/Figures/44-J-10-3.bmp\",\"fa:fa:sha\",\"Down\",\"40\",\"6\",\"5\",\"6A\",\"C1\",\"C\",\"85\"
\"\",\"\",\"approach-retreat\",\"89\",\"838713\",\"0.0-89.0\",\"\",\"\",\"3-3\",\"4668\",\"39\",\"1\",\"Training\",\"Stims/Figures/84-J-0-2.bmp\",\"fasha:sha\",\"Right\",\"39\",\"6\",\"6\",\"6A\",\"C1\",\"C\",\"86\"
\"\",\"\",\"approach-retreat\",\"90\",\"845000\",\"0.0-90.0\",\"\",\"\",\"3-3\",\"4782\",\"38\",\"1\",\"Training\",\"Stims/Figures/7-J-10-4.bmp\",\"va:fa:va\",\"Up\",\"38\",\"6\",\"7\",\"6A\",\"C1\",\"C\",\"87\"
\"\",\"\",\"approach-retreat\",\"91\",\"850759\",\"0.0-91.0\",\"\",\"\",\"3-3\",\"4253\",\"37\",\"1\",\"Training\",\"Stims/Figures/139-J-0-2.bmp\",\"fa:shava\",\"Left\",\"37\",\"6\",\"8\",\"6A\",\"C1\",\"C\",\"88\"
\"\",\"\",\"approach-retreat\",\"92\",\"857380\",\"0.0-92.0\",\"\",\"\",\"3-3\",\"5112\",\"39\",\"1\",\"Training\",\"Stims/Figures/86-C-30-1.bmp\",\"za:ha:za\",\"Left\",\"39\",\"6\",\"9\",\"6A\",\"C2\",\"C\",\"89\"
\"\",\"\",\"approach-retreat\",\"93\",\"863467\",\"0.0-93.0\",\"\",\"\",\"3-3\",\"4579\",\"40\",\"1\",\"Training\",\"Stims/Figures/7-C-20-4.bmp\",\"zasaza\",\"Up\",\"40\",\"6\",\"10\",\"6A\",\"C2\",\"C\",\"90\"
\"\",\"\",\"approach-retreat\",\"94\",\"869357\",\"0.0-94.0\",\"\",\"\",\"3-3\",\"4384\",\"38\",\"1\",\"Training\",\"Stims/Figures/139-C-20-2.bmp\",\"sasa:za\",\"Down\",\"38\",\"6\",\"11\",\"6A\",\"C2\",\"C\",\"91\"
\"\",\"\",\"approach-retreat\",\"95\",\"876329\",\"0.0-95.0\",\"\",\"\",\"3-3\",\"5466\",\"38\",\"1\",\"Training\",\"Stims/Figures/144-J-10-3.bmp\",\"vafasha\",\"Up\",\"38\",\"6\",\"12\",\"6A\",\"C1\",\"C\",\"92\"
\"\",\"\",\"approach-retreat\",\"96\",\"882228\",\"0.0-96.0\",\"\",\"\",\"3-3\",\"4394\",\"37\",\"1\",\"Training\",\"Stims/Figures/84-C-20-2.bmp\",\"za:sa:za\",\"Right\",\"37\",\"6\",\"13\",\"6A\",\"C2\",\"C\",\"93\"
\"\",\"\",\"approach-retreat\",\"97\",\"888693\",\"0.0-97.0\",\"\",\"\",\"3-3\",\"4959\",\"40\",\"1\",\"Training\",\"Stims/Figures/86-J-0-1.bmp\",\"fa:fa:va\",\"Down\",\"40\",\"6\",\"14\",\"6A\",\"C1\",\"C\",\"94\"
\"\",\"\",\"approach-retreat\",\"98\",\"894362\",\"0.0-98.0\",\"\",\"\",\"3-3\",\"4162\",\"37\",\"1\",\"Training\",\"Stims/Figures/57-C-30-1.bmp\",\"sa:haza\",\"Right\",\"37\",\"6\",\"15\",\"6A\",\"C2\",\"C\",\"95\"
\"\",\"\",\"approach-retreat\",\"99\",\"900446\",\"0.0-99.0\",\"\",\"\",\"3-3\",\"4576\",\"38\",\"1\",\"Training\",\"Stims/Figures/74-J-10-4.bmp\",\"fafa:sha\",\"Up\",\"38\",\"6\",\"16\",\"6A\",\"C1\",\"C\",\"96\"
\"\",\"\",\"approach-retreat\",\"100\",\"906220\",\"0.0-100.0\",\"\",\"\",\"3-3\",\"4268\",\"38\",\"1\",\"Training\",\"Stims/Figures/139-J-0-2.bmp\",\"fa:shava\",\"Up\",\"38\",\"7\",\"1\",\"6A\",\"C1\",\"C\",\"97\"
\"\",\"\",\"approach-retreat\",\"101\",\"911889\",\"0.0-101.0\",\"\",\"\",\"3-3\",\"4163\",\"37\",\"1\",\"Training\",\"Stims/Figures/57-J-0-1.bmp\",\"vashasha\",\"Left\",\"37\",\"7\",\"2\",\"6A\",\"C1\",\"C\",\"98\"
\"\",\"\",\"approach-retreat\",\"102\",\"917849\",\"0.0-102.0\",\"\",\"\",\"3-3\",\"4454\",\"39\",\"1\",\"Training\",\"Stims/Figures/44-J-10-3.bmp\",\"fa:fa:sha\",\"Right\",\"39\",\"7\",\"3\",\"6A\",\"C1\",\"C\",\"99\"
\"\",\"\",\"approach-retreat\",\"103\",\"923667\",\"0.0-103.0\",\"\",\"\",\"3-3\",\"4311\",\"39\",\"1\",\"Training\",\"Stims/Figures/86-J-0-1.bmp\",\"fa:fa:va\",\"Right\",\"39\",\"7\",\"4\",\"6A\",\"C1\",\"C\",\"100\"
\"\",\"\",\"approach-retreat\",\"104\",\"929366\",\"0.0-104.0\",\"\",\"\",\"3-3\",\"4193\",\"40\",\"1\",\"Training\",\"Stims/Figures/144-J-10-3.bmp\",\"vafasha\",\"Down\",\"40\",\"7\",\"5\",\"6A\",\"C1\",\"C\",\"101\"
\"\",\"\",\"approach-retreat\",\"105\",\"935226\",\"0.0-105.0\",\"\",\"\",\"3-3\",\"4351\",\"38\",\"1\",\"Training\",\"Stims/Figures/74-J-10-4.bmp\",\"fafa:sha\",\"Up\",\"38\",\"7\",\"6\",\"6A\",\"C1\",\"C\",\"102\"
\"\",\"\",\"approach-retreat\",\"106\",\"940872\",\"0.0-106.0\",\"\",\"\",\"3-3\",\"4140\",\"37\",\"1\",\"Training\",\"Stims/Figures/7-C-20-4.bmp\",\"zasaza\",\"Right\",\"37\",\"7\",\"7\",\"6A\",\"C2\",\"C\",\"103\"
\"\",\"\",\"approach-retreat\",\"107\",\"946627\",\"0.0-107.0\",\"\",\"\",\"3-3\",\"4248\",\"39\",\"1\",\"Training\",\"Stims/Figures/84-C-20-2.bmp\",\"za:sa:za\",\"Left\",\"39\",\"7\",\"8\",\"6A\",\"C2\",\"C\",\"104\"
\"\",\"\",\"approach-retreat\",\"108\",\"952961\",\"0.0-108.0\",\"\",\"\",\"3-3\",\"4827\",\"39\",\"1\",\"Training\",\"Stims/Figures/84-J-0-2.bmp\",\"fasha:sha\",\"Right\",\"39\",\"7\",\"9\",\"6A\",\"C1\",\"C\",\"105\"
\"\",\"\",\"approach-retreat\",\"109\",\"960420\",\"0.0-109.0\",\"\",\"\",\"3-3\",\"5954\",\"38\",\"1\",\"Training\",\"Stims/Figures/144-C-30-3.bmp\",\"sahaha\",\"Down\",\"38\",\"7\",\"10\",\"6A\",\"C2\",\"C\",\"106\"
\"\",\"\",\"approach-retreat\",\"110\",\"966522\",\"0.0-110.0\",\"\",\"\",\"3-3\",\"4596\",\"40\",\"1\",\"Training\",\"Stims/Figures/139-C-20-2.bmp\",\"sasa:za\",\"Up\",\"40\",\"7\",\"11\",\"6A\",\"C2\",\"C\",\"107\"
\"\",\"\",\"approach-retreat\",\"111\",\"972510\",\"0.0-111.0\",\"\",\"\",\"3-3\",\"4482\",\"40\",\"1\",\"Training\",\"Stims/Figures/7-J-10-4.bmp\",\"va:fa:va\",\"Down\",\"40\",\"7\",\"12\",\"6A\",\"C1\",\"C\",\"108\"
\"\",\"\",\"approach-retreat\",\"112\",\"979087\",\"0.0-112.0\",\"\",\"\",\"3-3\",\"5071\",\"39\",\"1\",\"Training\",\"Stims/Figures/74-C-20-4.bmp\",\"zaha:za\",\"Left\",\"39\",\"7\",\"13\",\"6A\",\"C2\",\"C\",\"109\"
\"\",\"\",\"approach-retreat\",\"113\",\"984793\",\"0.0-113.0\",\"\",\"\",\"3-3\",\"4198\",\"40\",\"1\",\"Training\",\"Stims/Figures/44-C-30-3.bmp\",\"za:haza\",\"Up\",\"40\",\"7\",\"14\",\"6A\",\"C2\",\"C\",\"110\"
\"\",\"\",\"approach-retreat\",\"114\",\"990569\",\"0.0-114.0\",\"\",\"\",\"3-3\",\"4270\",\"39\",\"1\",\"Training\",\"Stims/Figures/57-C-30-1.bmp\",\"sa:haza\",\"Left\",\"39\",\"7\",\"15\",\"6A\",\"C2\",\"C\",\"111\"
\"\",\"\",\"approach-retreat\",\"115\",\"996501\",\"0.0-115.0\",\"\",\"\",\"3-3\",\"4423\",\"38\",\"1\",\"Training\",\"Stims/Figures/86-C-30-1.bmp\",\"za:ha:za\",\"Down\",\"38\",\"7\",\"16\",\"6A\",\"C2\",\"C\",\"112\"
\"\",\"\",\"approach-retreat\",\"116\",\"1002879\",\"0.0-116.0\",\"\",\"\",\"3-3\",\"4871\",\"38\",\"1\",\"Training\",\"Stims/Figures/86-C-30-1.bmp\",\"za:ha:za\",\"Down\",\"38\",\"8\",\"1\",\"6A\",\"C2\",\"C\",\"113\"
\"\",\"\",\"approach-retreat\",\"117\",\"1008776\",\"0.0-117.0\",\"\",\"\",\"3-3\",\"4390\",\"38\",\"0\",\"Training\",\"Stims/Figures/139-C-20-2.bmp\",\"sasa:za\",\"Up\",\"40\",\"8\",\"2\",\"6A\",\"C2\",\"C\",\"114\"
\"\",\"\",\"approach-retreat\",\"118\",\"1014932\",\"0.0-118.0\",\"\",\"\",\"3-3\",\"4648\",\"40\",\"1\",\"Training\",\"Stims/Figures/57-C-30-1.bmp\",\"sa:haza\",\"Up\",\"40\",\"8\",\"3\",\"6A\",\"C2\",\"C\",\"115\"
\"\",\"\",\"approach-retreat\",\"119\",\"1020783\",\"0.0-119.0\",\"\",\"\",\"3-3\",\"4344\",\"37\",\"1\",\"Training\",\"Stims/Figures/7-J-10-4.bmp\",\"va:fa:va\",\"Left\",\"37\",\"8\",\"4\",\"6A\",\"C1\",\"C\",\"116\"
\"\",\"\",\"approach-retreat\",\"120\",\"1027295\",\"0.0-120.0\",\"\",\"\",\"3-3\",\"5004\",\"40\",\"1\",\"Training\",\"Stims/Figures/44-C-30-3.bmp\",\"za:haza\",\"Up\",\"40\",\"8\",\"5\",\"6A\",\"C2\",\"C\",\"117\"
\"\",\"\",\"approach-retreat\",\"121\",\"1033419\",\"0.0-121.0\",\"\",\"\",\"3-3\",\"4614\",\"39\",\"1\",\"Training\",\"Stims/Figures/44-J-10-3.bmp\",\"fa:fa:sha\",\"Right\",\"39\",\"8\",\"6\",\"6A\",\"C1\",\"C\",\"118\"
\"\",\"\",\"approach-retreat\",\"122\",\"1041929\",\"0.0-122.0\",\"\",\"\",\"3-3\",\"7004\",\"40\",\"1\",\"Training\",\"Stims/Figures/57-J-0-1.bmp\",\"vashasha\",\"Down\",\"40\",\"8\",\"7\",\"6A\",\"C1\",\"C\",\"119\"
\"\",\"\",\"approach-retreat\",\"123\",\"1052396\",\"0.0-123.0\",\"\",\"\",\"3-3\",\"8959\",\"37\",\"1\",\"Training\",\"Stims/Figures/74-C-20-4.bmp\",\"zaha:za\",\"Right\",\"37\",\"8\",\"8\",\"6A\",\"C2\",\"C\",\"120\"
\"\",\"\",\"approach-retreat\",\"124\",\"1058521\",\"0.0-124.0\",\"\",\"\",\"3-3\",\"4619\",\"39\",\"1\",\"Training\",\"Stims/Figures/144-J-10-3.bmp\",\"vafasha\",\"Right\",\"39\",\"8\",\"9\",\"6A\",\"C1\",\"C\",\"121\"
\"\",\"\",\"approach-retreat\",\"125\",\"1064785\",\"0.0-125.0\",\"\",\"\",\"3-3\",\"4759\",\"39\",\"1\",\"Training\",\"Stims/Figures/144-C-30-3.bmp\",\"sahaha\",\"Left\",\"39\",\"8\",\"10\",\"6A\",\"C2\",\"C\",\"122\"
\"\",\"\",\"approach-retreat\",\"126\",\"1070495\",\"0.0-126.0\",\"\",\"\",\"3-3\",\"4204\",\"37\",\"1\",\"Training\",\"Stims/Figures/74-J-10-4.bmp\",\"fafa:sha\",\"Left\",\"37\",\"8\",\"11\",\"6A\",\"C1\",\"C\",\"123\"
\"\",\"\",\"approach-retreat\",\"127\",\"1076789\",\"0.0-127.0\",\"\",\"\",\"3-3\",\"4788\",\"40\",\"1\",\"Training\",\"Stims/Figures/84-J-0-2.bmp\",\"fasha:sha\",\"Down\",\"40\",\"8\",\"12\",\"6A\",\"C1\",\"C\",\"124\"
\"\",\"\",\"approach-retreat\",\"128\",\"1083901\",\"0.0-128.0\",\"\",\"\",\"3-3\",\"5606\",\"38\",\"1\",\"Training\",\"Stims/Figures/86-J-0-1.bmp\",\"fa:fa:va\",\"Up\",\"38\",\"8\",\"13\",\"6A\",\"C1\",\"C\",\"125\"
\"\",\"\",\"approach-retreat\",\"129\",\"1089888\",\"0.0-129.0\",\"\",\"\",\"3-3\",\"4480\",\"39\",\"1\",\"Training\",\"Stims/Figures/7-C-20-4.bmp\",\"zasaza\",\"Left\",\"39\",\"8\",\"14\",\"6A\",\"C2\",\"C\",\"126\"
\"\",\"\",\"approach-retreat\",\"130\",\"1096246\",\"0.0-130.0\",\"\",\"\",\"3-3\",\"4851\",\"37\",\"1\",\"Training\",\"Stims/Figures/84-C-20-2.bmp\",\"za:sa:za\",\"Right\",\"37\",\"8\",\"15\",\"6A\",\"C2\",\"C\",\"127\"
\"\",\"\",\"approach-retreat\",\"131\",\"1102137\",\"0.0-131.0\",\"\",\"\",\"3-3\",\"4384\",\"40\",\"1\",\"Training\",\"Stims/Figures/139-J-0-2.bmp\",\"fa:shava\",\"Down\",\"40\",\"8\",\"16\",\"6A\",\"C1\",\"C\",\"128\"
\"\",\"\",\"approach-retreat\",\"132\",\"1108320\",\"0.0-132.0\",\"\",\"\",\"3-3\",\"4679\",\"37\",\"1\",\"Training\",\"Stims/Figures/57-J-0-1.bmp\",\"vashasha\",\"Left\",\"37\",\"9\",\"1\",\"6A\",\"C1\",\"C\",\"129\"
\"\",\"\",\"approach-retreat\",\"133\",\"1114245\",\"0.0-133.0\",\"\",\"\",\"3-3\",\"4419\",\"40\",\"1\",\"Training\",\"Stims/Figures/74-C-20-4.bmp\",\"zaha:za\",\"Up\",\"40\",\"9\",\"2\",\"6A\",\"C2\",\"C\",\"130\"
\"\",\"\",\"approach-retreat\",\"134\",\"1120618\",\"0.0-134.0\",\"\",\"\",\"3-3\",\"4867\",\"40\",\"1\",\"Training\",\"Stims/Figures/84-J-0-2.bmp\",\"fasha:sha\",\"Down\",\"40\",\"9\",\"3\",\"6A\",\"C1\",\"C\",\"131\"
\"\",\"\",\"approach-retreat\",\"135\",\"1127011\",\"0.0-135.0\",\"\",\"\",\"3-3\",\"4885\",\"40\",\"1\",\"Training\",\"Stims/Figures/86-J-0-1.bmp\",\"fa:fa:va\",\"Down\",\"40\",\"9\",\"4\",\"6A\",\"C1\",\"C\",\"132\"
\"\",\"\",\"approach-retreat\",\"136\",\"1133197\",\"0.0-136.0\",\"\",\"\",\"3-3\",\"4680\",\"38\",\"1\",\"Training\",\"Stims/Figures/74-J-10-4.bmp\",\"fafa:sha\",\"Up\",\"38\",\"9\",\"5\",\"6A\",\"C1\",\"C\",\"133\"
\"\",\"\",\"approach-retreat\",\"137\",\"1138966\",\"0.0-137.0\",\"\",\"\",\"3-3\",\"4261\",\"40\",\"1\",\"Training\",\"Stims/Figures/139-J-0-2.bmp\",\"fa:shava\",\"Down\",\"40\",\"9\",\"6\",\"6A\",\"C1\",\"C\",\"134\"
\"\",\"\",\"approach-retreat\",\"138\",\"1144668\",\"0.0-138.0\",\"\",\"\",\"3-3\",\"4195\",\"37\",\"1\",\"Training\",\"Stims/Figures/139-C-20-2.bmp\",\"sasa:za\",\"Right\",\"37\",\"9\",\"7\",\"6A\",\"C2\",\"C\",\"135\"
\"\",\"\",\"approach-retreat\",\"139\",\"1150481\",\"0.0-139.0\",\"\",\"\",\"3-3\",\"4306\",\"38\",\"1\",\"Training\",\"Stims/Figures/144-C-30-3.bmp\",\"sahaha\",\"Down\",\"38\",\"9\",\"8\",\"6A\",\"C2\",\"C\",\"136\"
\"\",\"\",\"approach-retreat\",\"140\",\"1156331\",\"0.0-140.0\",\"\",\"\",\"3-3\",\"4344\",\"38\",\"1\",\"Training\",\"Stims/Figures/44-J-10-3.bmp\",\"fa:fa:sha\",\"Up\",\"38\",\"9\",\"9\",\"6A\",\"C1\",\"C\",\"137\"
\"\",\"\",\"approach-retreat\",\"141\",\"1162073\",\"0.0-141.0\",\"\",\"\",\"3-3\",\"4237\",\"37\",\"1\",\"Training\",\"Stims/Figures/7-C-20-4.bmp\",\"zasaza\",\"Right\",\"37\",\"9\",\"10\",\"6A\",\"C2\",\"C\",\"138\"
\"\",\"\",\"approach-retreat\",\"142\",\"1167781\",\"0.0-142.0\",\"\",\"\",\"3-3\",\"4202\",\"37\",\"0\",\"Training\",\"Stims/Figures/144-J-10-3.bmp\",\"vafasha\",\"Right\",\"39\",\"9\",\"11\",\"6A\",\"C1\",\"C\",\"139\"
\"\",\"\",\"approach-retreat\",\"143\",\"1173456\",\"0.0-143.0\",\"\",\"\",\"3-3\",\"4169\",\"37\",\"1\",\"Training\",\"Stims/Figures/57-C-30-1.bmp\",\"sa:haza\",\"Right\",\"37\",\"9\",\"12\",\"6A\",\"C2\",\"C\",\"140\"
\"\",\"\",\"approach-retreat\",\"144\",\"1180022\",\"0.0-144.0\",\"\",\"\",\"3-3\",\"5060\",\"37\",\"1\",\"Training\",\"Stims/Figures/7-J-10-4.bmp\",\"va:fa:va\",\"Left\",\"37\",\"9\",\"13\",\"6A\",\"C1\",\"C\",\"141\"
\"\",\"\",\"approach-retreat\",\"145\",\"1186209\",\"0.0-145.0\",\"\",\"\",\"3-3\",\"4680\",\"39\",\"1\",\"Training\",\"Stims/Figures/44-C-30-3.bmp\",\"za:haza\",\"Left\",\"39\",\"9\",\"14\",\"6A\",\"C2\",\"C\",\"142\"
\"\",\"\",\"approach-retreat\",\"146\",\"1192387\",\"0.0-146.0\",\"\",\"\",\"3-3\",\"4671\",\"39\",\"1\",\"Training\",\"Stims/Figures/86-C-30-1.bmp\",\"za:ha:za\",\"Left\",\"39\",\"9\",\"15\",\"6A\",\"C2\",\"C\",\"143\"
\"\",\"\",\"approach-retreat\",\"147\",\"1198240\",\"0.0-147.0\",\"\",\"\",\"3-3\",\"4343\",\"40\",\"1\",\"Training\",\"Stims/Figures/84-C-20-2.bmp\",\"za:sa:za\",\"Up\",\"40\",\"9\",\"16\",\"6A\",\"C2\",\"C\",\"144\"
\"22188\",\"\",\"instructions\",\"148\",\"1220428\",\"0.0-148.0\",\"[{\"\"page_index\"\":0,\"\"viewing_time\"\":22187}]\",\"\",\"\",\"\",\"\",\"\",\"\",\"\",\"\",\"\",\"\",\"\",\"\",\"\",\"\",\"\",\"\"
\"\",\"\",\"approach-retreat\",\"149\",\"1227485\",\"0.0-149.0\",\"\",\"\",\"3-3\",\"5553\",\"40\",\"1\",\"Testing\",\"Stims/Figures/74-C-20-4.bmp\",\"zaha:za\",\"Up\",\"40\",\"1\",\"1\",\"6A\",\"C2\",\"C\",\"1\"
\"\",\"\",\"approach-retreat\",\"150\",\"1233472\",\"0.0-150.0\",\"\",\"\",\"3-3\",\"4481\",\"37\",\"0\",\"Testing\",\"Stims/Figures/86-J-0-1.bmp\",\"fa:fa:va\",\"Right\",\"39\",\"1\",\"2\",\"6A\",\"C1\",\"C\",\"2\"
\"\",\"\",\"approach-retreat\",\"151\",\"1239163\",\"0.0-151.0\",\"\",\"\",\"3-3\",\"4184\",\"38\",\"1\",\"Testing\",\"Stims/Figures/71-J-0-1.bmp\",\"vashava\",\"Up\",\"38\",\"1\",\"3\",\"6A\",\"C1\",\"C\",\"3\"
\"\",\"\",\"approach-retreat\",\"152\",\"1245964\",\"0.0-152.0\",\"\",\"\",\"3-3\",\"5294\",\"40\",\"1\",\"Testing\",\"Stims/Figures/144-J-10-3.bmp\",\"vafasha\",\"Down\",\"40\",\"1\",\"4\",\"6A\",\"C1\",\"C\",\"4\"
\"\",\"\",\"approach-retreat\",\"153\",\"1251627\",\"0.0-153.0\",\"\",\"\",\"3-3\",\"4158\",\"37\",\"0\",\"Testing\",\"Stims/Figures/84-J-0-2.bmp\",\"fasha:sha\",\"Right\",\"39\",\"1\",\"5\",\"6A\",\"C1\",\"C\",\"5\"
\"\",\"\",\"approach-retreat\",\"154\",\"1257206\",\"0.0-154.0\",\"\",\"\",\"3-3\",\"4073\",\"37\",\"0\",\"Testing\",\"Stims/Figures/139-J-0-2.bmp\",\"fa:shava\",\"Right\",\"39\",\"1\",\"6\",\"6A\",\"C1\",\"C\",\"6\"
\"\",\"\",\"approach-retreat\",\"155\",\"1262836\",\"0.0-155.0\",\"\",\"\",\"3-3\",\"4124\",\"37\",\"0\",\"Testing\",\"Stims/Figures/118-J-0-2.bmp\",\"fa:sha:va\",\"Right\",\"39\",\"1\",\"7\",\"6A\",\"C1\",\"C\",\"7\"
\"\",\"\",\"approach-retreat\",\"156\",\"1268727\",\"0.0-156.0\",\"\",\"\",\"3-3\",\"4385\",\"39\",\"1\",\"Testing\",\"Stims/Figures/44-C-30-3.bmp\",\"za:haza\",\"Left\",\"39\",\"1\",\"8\",\"6A\",\"C2\",\"C\",\"8\"
\"\",\"\",\"approach-retreat\",\"157\",\"1274868\",\"0.0-157.0\",\"\",\"\",\"3-3\",\"4636\",\"40\",\"0\",\"Testing\",\"Stims/Figures/71-C-30-1.bmp\",\"sasaza\",\"Down\",\"38\",\"1\",\"9\",\"6A\",\"C2\",\"C\",\"9\"
\"\",\"\",\"approach-retreat\",\"158\",\"1280508\",\"0.0-158.0\",\"\",\"\",\"3-3\",\"4134\",\"39\",\"1\",\"Testing\",\"Stims/Figures/44-J-10-3.bmp\",\"fa:fa:sha\",\"Right\",\"39\",\"1\",\"10\",\"6A\",\"C1\",\"C\",\"10\"
\"\",\"\",\"approach-retreat\",\"159\",\"1286834\",\"0.0-159.0\",\"\",\"\",\"3-3\",\"4820\",\"40\",\"1\",\"Testing\",\"Stims/Figures/100-J-10-3.bmp\",\"vafa:sha\",\"Down\",\"40\",\"1\",\"11\",\"6A\",\"C1\",\"C\",\"11\"
\"\",\"\",\"approach-retreat\",\"160\",\"1292506\",\"0.0-160.0\",\"\",\"\",\"3-3\",\"4166\",\"37\",\"0\",\"Testing\",\"Stims/Figures/19-J-10-4.bmp\",\"va:shava\",\"Right\",\"39\",\"1\",\"12\",\"6A\",\"C1\",\"C\",\"12\"
\"\",\"\",\"approach-retreat\",\"161\",\"1298428\",\"0.0-161.0\",\"\",\"\",\"3-3\",\"4417\",\"39\",\"1\",\"Testing\",\"Stims/Figures/100-C-30-3.bmp\",\"sa:saha\",\"Left\",\"39\",\"1\",\"13\",\"6A\",\"C2\",\"C\",\"13\"
\"\",\"\",\"approach-retreat\",\"162\",\"1304329\",\"0.0-162.0\",\"\",\"\",\"3-3\",\"4395\",\"38\",\"1\",\"Testing\",\"Stims/Figures/86-C-30-1.bmp\",\"za:ha:za\",\"Down\",\"38\",\"1\",\"14\",\"6A\",\"C2\",\"C\",\"14\"
\"\",\"\",\"approach-retreat\",\"163\",\"1310098\",\"0.0-163.0\",\"\",\"\",\"3-3\",\"4264\",\"38\",\"0\",\"Testing\",\"Stims/Figures/118-C-20-2.bmp\",\"sahaza\",\"Up\",\"40\",\"1\",\"15\",\"6A\",\"C2\",\"C\",\"15\"
\"\",\"\",\"approach-retreat\",\"164\",\"1315937\",\"0.0-164.0\",\"\",\"\",\"3-3\",\"4332\",\"39\",\"1\",\"Testing\",\"Stims/Figures/19-C-20-4.bmp\",\"za:sa:ha\",\"Left\",\"39\",\"1\",\"16\",\"6A\",\"C2\",\"C\",\"16\"
\"\",\"\",\"approach-retreat\",\"165\",\"1321844\",\"0.0-165.0\",\"\",\"\",\"3-3\",\"4401\",\"37\",\"1\",\"Testing\",\"Stims/Figures/74-J-10-4.bmp\",\"fafa:sha\",\"Left\",\"37\",\"1\",\"17\",\"6A\",\"C1\",\"C\",\"17\"
\"\",\"\",\"approach-retreat\",\"166\",\"1328359\",\"0.0-166.0\",\"\",\"\",\"3-3\",\"5009\",\"39\",\"1\",\"Testing\",\"Stims/Figures/7-C-20-4.bmp\",\"zasaza\",\"Left\",\"39\",\"1\",\"18\",\"6A\",\"C2\",\"C\",\"18\"
\"\",\"\",\"approach-retreat\",\"167\",\"1334237\",\"0.0-167.0\",\"\",\"\",\"3-3\",\"4365\",\"40\",\"1\",\"Testing\",\"Stims/Figures/84-C-20-2.bmp\",\"za:sa:za\",\"Up\",\"40\",\"1\",\"19\",\"6A\",\"C2\",\"C\",\"19\"
\"\",\"\",\"approach-retreat\",\"168\",\"1341617\",\"0.0-168.0\",\"\",\"\",\"3-3\",\"5874\",\"40\",\"0\",\"Testing\",\"Stims/Figures/144-C-30-3.bmp\",\"sahaha\",\"Down\",\"38\",\"1\",\"20\",\"6A\",\"C2\",\"C\",\"20\"
\"\",\"\",\"approach-retreat\",\"169\",\"1347136\",\"0.0-169.0\",\"\",\"\",\"3-3\",\"4011\",\"37\",\"0\",\"Testing\",\"Stims/Figures/57-C-30-1.bmp\",\"sa:haza\",\"Left\",\"39\",\"1\",\"21\",\"6A\",\"C2\",\"C\",\"21\"
\"\",\"\",\"approach-retreat\",\"170\",\"1353094\",\"0.0-170.0\",\"\",\"\",\"3-3\",\"4453\",\"40\",\"0\",\"Testing\",\"Stims/Figures/57-J-0-1.bmp\",\"vashasha\",\"Up\",\"38\",\"1\",\"22\",\"6A\",\"C1\",\"C\",\"22\"
\"\",\"\",\"approach-retreat\",\"171\",\"1359098\",\"0.0-171.0\",\"\",\"\",\"3-3\",\"4499\",\"38\",\"0\",\"Testing\",\"Stims/Figures/7-J-10-4.bmp\",\"va:fa:va\",\"Down\",\"40\",\"1\",\"23\",\"6A\",\"C1\",\"C\",\"23\"
\"\",\"\",\"approach-retreat\",\"172\",\"1364696\",\"0.0-172.0\",\"\",\"\",\"3-3\",\"4093\",\"40\",\"1\",\"Testing\",\"Stims/Figures/139-C-20-2.bmp\",\"sasa:za\",\"Up\",\"40\",\"1\",\"24\",\"6A\",\"C2\",\"C\",\"24\"
\"\",\"\",\"approach-retreat\",\"173\",\"1370532\",\"0.0-173.0\",\"\",\"\",\"3-3\",\"4332\",\"38\",\"1\",\"Testing\",\"Stims/Figures/86-C-30-1.bmp\",\"za:ha:za\",\"Down\",\"38\",\"2\",\"1\",\"6A\",\"C2\",\"C\",\"25\"
\"\",\"\",\"approach-retreat\",\"174\",\"1376261\",\"0.0-174.0\",\"\",\"\",\"3-3\",\"4222\",\"39\",\"0\",\"Testing\",\"Stims/Figures/19-J-10-4.bmp\",\"va:shava\",\"Left\",\"37\",\"2\",\"2\",\"6A\",\"C1\",\"C\",\"26\"
\"\",\"\",\"approach-retreat\",\"175\",\"1381575\",\"0.0-175.0\",\"\",\"\",\"3-3\",\"3809\",\"39\",\"1\",\"Testing\",\"Stims/Figures/144-C-30-3.bmp\",\"sahaha\",\"Left\",\"39\",\"2\",\"3\",\"6A\",\"C2\",\"C\",\"27\"
\"\",\"\",\"approach-retreat\",\"176\",\"1388831\",\"0.0-176.0\",\"\",\"\",\"3-3\",\"5751\",\"40\",\"1\",\"Testing\",\"Stims/Figures/100-C-30-3.bmp\",\"sa:saha\",\"Up\",\"40\",\"2\",\"4\",\"6A\",\"C2\",\"C\",\"28\"
\"\",\"\",\"approach-retreat\",\"177\",\"1394715\",\"0.0-177.0\",\"\",\"\",\"3-3\",\"4377\",\"39\",\"0\",\"Testing\",\"Stims/Figures/84-C-20-2.bmp\",\"za:sa:za\",\"Right\",\"37\",\"2\",\"5\",\"6A\",\"C2\",\"C\",\"29\"
\"\",\"\",\"approach-retreat\",\"178\",\"1400550\",\"0.0-178.0\",\"\",\"\",\"3-3\",\"4329\",\"39\",\"1\",\"Testing\",\"Stims/Figures/139-C-20-2.bmp\",\"sasa:za\",\"Left\",\"39\",\"2\",\"6\",\"6A\",\"C2\",\"C\",\"30\"
\"\",\"\",\"approach-retreat\",\"179\",\"1406346\",\"0.0-179.0\",\"\",\"\",\"3-3\",\"4288\",\"38\",\"1\",\"Testing\",\"Stims/Figures/118-C-20-2.bmp\",\"sahaza\",\"Down\",\"38\",\"2\",\"7\",\"6A\",\"C2\",\"C\",\"31\"
\"\",\"\",\"approach-retreat\",\"180\",\"1412130\",\"0.0-180.0\",\"\",\"\",\"3-3\",\"4281\",\"39\",\"1\",\"Testing\",\"Stims/Figures/19-C-20-4.bmp\",\"za:sa:ha\",\"Left\",\"39\",\"2\",\"8\",\"6A\",\"C2\",\"C\",\"32\"
\"\",\"\",\"approach-retreat\",\"181\",\"1418255\",\"0.0-181.0\",\"\",\"\",\"3-3\",\"4620\",\"40\",\"0\",\"Testing\",\"Stims/Figures/71-J-0-1.bmp\",\"vashava\",\"Up\",\"38\",\"2\",\"9\",\"6A\",\"C1\",\"C\",\"33\"
\"\",\"\",\"approach-retreat\",\"182\",\"1424011\",\"0.0-182.0\",\"\",\"\",\"3-3\",\"4251\",\"37\",\"1\",\"Testing\",\"Stims/Figures/74-C-20-4.bmp\",\"zaha:za\",\"Right\",\"37\",\"2\",\"10\",\"6A\",\"C2\",\"C\",\"34\"
\"\",\"\",\"approach-retreat\",\"183\",\"1429717\",\"0.0-183.0\",\"\",\"\",\"3-3\",\"4202\",\"40\",\"0\",\"Testing\",\"Stims/Figures/7-J-10-4.bmp\",\"va:fa:va\",\"Up\",\"38\",\"2\",\"11\",\"6A\",\"C1\",\"C\",\"35\"
\"\",\"\",\"approach-retreat\",\"184\",\"1435478\",\"0.0-184.0\",\"\",\"\",\"3-3\",\"4255\",\"38\",\"1\",\"Testing\",\"Stims/Figures/57-J-0-1.bmp\",\"vashasha\",\"Up\",\"38\",\"2\",\"12\",\"6A\",\"C1\",\"C\",\"36\"
\"\",\"\",\"approach-retreat\",\"185\",\"1441116\",\"0.0-185.0\",\"\",\"\",\"3-3\",\"4134\",\"37\",\"0\",\"Testing\",\"Stims/Figures/74-J-10-4.bmp\",\"fafa:sha\",\"Right\",\"39\",\"2\",\"13\",\"6A\",\"C1\",\"C\",\"37\"
\"\",\"\",\"approach-retreat\",\"186\",\"1446806\",\"0.0-186.0\",\"\",\"\",\"3-3\",\"4183\",\"40\",\"1\",\"Testing\",\"Stims/Figures/118-J-0-2.bmp\",\"fa:sha:va\",\"Down\",\"40\",\"2\",\"14\",\"6A\",\"C1\",\"C\",\"38\"
\"\",\"\",\"approach-retreat\",\"187\",\"1452410\",\"0.0-187.0\",\"\",\"\",\"3-3\",\"4099\",\"37\",\"1\",\"Testing\",\"Stims/Figures/44-C-30-3.bmp\",\"za:haza\",\"Right\",\"37\",\"2\",\"15\",\"6A\",\"C2\",\"C\",\"39\"
\"\",\"\",\"approach-retreat\",\"188\",\"1458206\",\"0.0-188.0\",\"\",\"\",\"3-3\",\"4289\",\"40\",\"0\",\"Testing\",\"Stims/Figures/139-J-0-2.bmp\",\"fa:shava\",\"Up\",\"38\",\"2\",\"16\",\"6A\",\"C1\",\"C\",\"40\"
\"\",\"\",\"approach-retreat\",\"189\",\"1464012\",\"0.0-189.0\",\"\",\"\",\"3-3\",\"4299\",\"40\",\"0\",\"Testing\",\"Stims/Figures/144-J-10-3.bmp\",\"vafasha\",\"Up\",\"38\",\"2\",\"17\",\"6A\",\"C1\",\"C\",\"41\"
\"\",\"\",\"approach-retreat\",\"190\",\"1469810\",\"0.0-190.0\",\"\",\"\",\"3-3\",\"4293\",\"37\",\"0\",\"Testing\",\"Stims/Figures/86-J-0-1.bmp\",\"fa:fa:va\",\"Right\",\"39\",\"2\",\"18\",\"6A\",\"C1\",\"C\",\"42\"
\"\",\"\",\"approach-retreat\",\"191\",\"1475818\",\"0.0-191.0\",\"\",\"\",\"3-3\",\"4502\",\"39\",\"1\",\"Testing\",\"Stims/Figures/57-C-30-1.bmp\",\"sa:haza\",\"Left\",\"39\",\"2\",\"19\",\"6A\",\"C2\",\"C\",\"43\"
\"\",\"\",\"approach-retreat\",\"192\",\"1481525\",\"0.0-192.0\",\"\",\"\",\"3-3\",\"4200\",\"37\",\"0\",\"Testing\",\"Stims/Figures/100-J-10-3.bmp\",\"vafa:sha\",\"Right\",\"39\",\"2\",\"20\",\"6A\",\"C1\",\"C\",\"44\"
\"\",\"\",\"approach-retreat\",\"193\",\"1487548\",\"0.0-193.0\",\"\",\"\",\"3-3\",\"4518\",\"38\",\"0\",\"Testing\",\"Stims/Figures/44-J-10-3.bmp\",\"fa:fa:sha\",\"Down\",\"40\",\"2\",\"21\",\"6A\",\"C1\",\"C\",\"45\"
\"\",\"\",\"approach-retreat\",\"194\",\"1493811\",\"0.0-194.0\",\"\",\"\",\"3-3\",\"4759\",\"40\",\"0\",\"Testing\",\"Stims/Figures/71-C-30-1.bmp\",\"sasaza\",\"Down\",\"38\",\"2\",\"22\",\"6A\",\"C2\",\"C\",\"46\"
\"\",\"\",\"approach-retreat\",\"195\",\"1499646\",\"0.0-195.0\",\"\",\"\",\"3-3\",\"4328\",\"38\",\"0\",\"Testing\",\"Stims/Figures/84-J-0-2.bmp\",\"fasha:sha\",\"Down\",\"40\",\"2\",\"23\",\"6A\",\"C1\",\"C\",\"47\"
\"\",\"\",\"approach-retreat\",\"196\",\"1505774\",\"0.0-196.0\",\"\",\"\",\"3-3\",\"4623\",\"39\",\"1\",\"Testing\",\"Stims/Figures/7-C-20-4.bmp\",\"zasaza\",\"Left\",\"39\",\"2\",\"24\",\"6A\",\"C2\",\"C\",\"48\"
\"\",\"\",\"approach-retreat\",\"197\",\"1511439\",\"0.0-197.0\",\"\",\"\",\"3-3\",\"4159\",\"37\",\"1\",\"Testing\",\"Stims/Figures/139-C-20-2.bmp\",\"sasa:za\",\"Right\",\"37\",\"3\",\"1\",\"6A\",\"C2\",\"C\",\"49\"
\"\",\"\",\"approach-retreat\",\"198\",\"1517186\",\"0.0-198.0\",\"\",\"\",\"3-3\",\"4243\",\"40\",\"0\",\"Testing\",\"Stims/Figures/118-J-0-2.bmp\",\"fa:sha:va\",\"Up\",\"38\",\"3\",\"2\",\"6A\",\"C1\",\"C\",\"50\"
\"\",\"\",\"approach-retreat\",\"199\",\"1522925\",\"0.0-199.0\",\"\",\"\",\"3-3\",\"4235\",\"37\",\"0\",\"Testing\",\"Stims/Figures/7-C-20-4.bmp\",\"zasaza\",\"Left\",\"39\",\"3\",\"3\",\"6A\",\"C2\",\"C\",\"51\"
\"\",\"\",\"approach-retreat\",\"200\",\"1528904\",\"0.0-200.0\",\"\",\"\",\"3-3\",\"4475\",\"40\",\"0\",\"Testing\",\"Stims/Figures/86-J-0-1.bmp\",\"fa:fa:va\",\"Up\",\"38\",\"3\",\"4\",\"6A\",\"C1\",\"C\",\"52\"
\"\",\"\",\"approach-retreat\",\"201\",\"1534697\",\"0.0-201.0\",\"\",\"\",\"3-3\",\"4289\",\"40\",\"1\",\"Testing\",\"Stims/Figures/86-C-30-1.bmp\",\"za:ha:za\",\"Up\",\"40\",\"3\",\"5\",\"6A\",\"C2\",\"C\",\"53\"
\"\",\"\",\"approach-retreat\",\"202\",\"1540336\",\"0.0-202.0\",\"\",\"\",\"3-3\",\"4134\",\"37\",\"1\",\"Testing\",\"Stims/Figures/100-C-30-3.bmp\",\"sa:saha\",\"Right\",\"37\",\"3\",\"6\",\"6A\",\"C2\",\"C\",\"54\"
\"\",\"\",\"approach-retreat\",\"203\",\"1546049\",\"0.0-203.0\",\"\",\"\",\"3-3\",\"4208\",\"40\",\"1\",\"Testing\",\"Stims/Figures/84-J-0-2.bmp\",\"fasha:sha\",\"Down\",\"40\",\"3\",\"7\",\"6A\",\"C1\",\"C\",\"55\"
\"\",\"\",\"approach-retreat\",\"204\",\"1551797\",\"0.0-204.0\",\"\",\"\",\"3-3\",\"4243\",\"37\",\"1\",\"Testing\",\"Stims/Figures/71-J-0-1.bmp\",\"vashava\",\"Left\",\"37\",\"3\",\"8\",\"6A\",\"C1\",\"C\",\"56\"
\"\",\"\",\"approach-retreat\",\"205\",\"1557674\",\"0.0-205.0\",\"\",\"\",\"3-3\",\"4374\",\"39\",\"0\",\"Testing\",\"Stims/Figures/44-J-10-3.bmp\",\"fa:fa:sha\",\"Left\",\"37\",\"3\",\"9\",\"6A\",\"C1\",\"C\",\"57\"
\"\",\"\",\"approach-retreat\",\"206\",\"1563554\",\"0.0-206.0\",\"\",\"\",\"3-3\",\"4373\",\"38\",\"1\",\"Testing\",\"Stims/Figures/84-C-20-2.bmp\",\"za:sa:za\",\"Down\",\"38\",\"3\",\"10\",\"6A\",\"C2\",\"C\",\"58\"
\"\",\"\",\"approach-retreat\",\"207\",\"1569366\",\"0.0-207.0\",\"\",\"\",\"3-3\",\"4306\",\"37\",\"0\",\"Testing\",\"Stims/Figures/19-J-10-4.bmp\",\"va:shava\",\"Right\",\"39\",\"3\",\"11\",\"6A\",\"C1\",\"C\",\"59\"
\"\",\"\",\"approach-retreat\",\"208\",\"1575647\",\"0.0-208.0\",\"\",\"\",\"3-3\",\"4776\",\"37\",\"1\",\"Testing\",\"Stims/Figures/19-C-20-4.bmp\",\"za:sa:ha\",\"Right\",\"37\",\"3\",\"12\",\"6A\",\"C2\",\"C\",\"60\"
\"\",\"\",\"approach-retreat\",\"209\",\"1581625\",\"0.0-209.0\",\"\",\"\",\"3-3\",\"4473\",\"37\",\"0\",\"Testing\",\"Stims/Figures/57-C-30-1.bmp\",\"sa:haza\",\"Left\",\"39\",\"3\",\"13\",\"6A\",\"C2\",\"C\",\"61\"
\"\",\"\",\"approach-retreat\",\"210\",\"1587444\",\"0.0-210.0\",\"\",\"\",\"3-3\",\"4312\",\"38\",\"0\",\"Testing\",\"Stims/Figures/7-J-10-4.bmp\",\"va:fa:va\",\"Down\",\"40\",\"3\",\"14\",\"6A\",\"C1\",\"C\",\"62\"
\"\",\"\",\"approach-retreat\",\"211\",\"1593346\",\"0.0-211.0\",\"\",\"\",\"3-3\",\"4394\",\"38\",\"0\",\"Testing\",\"Stims/Figures/74-J-10-4.bmp\",\"fafa:sha\",\"Down\",\"40\",\"3\",\"15\",\"6A\",\"C1\",\"C\",\"63\"
\"\",\"\",\"approach-retreat\",\"212\",\"1598882\",\"0.0-212.0\",\"\",\"\",\"3-3\",\"4030\",\"37\",\"1\",\"Testing\",\"Stims/Figures/44-C-30-3.bmp\",\"za:haza\",\"Right\",\"37\",\"3\",\"16\",\"6A\",\"C2\",\"C\",\"64\"
\"\",\"\",\"approach-retreat\",\"213\",\"1604521\",\"0.0-213.0\",\"\",\"\",\"3-3\",\"4131\",\"40\",\"0\",\"Testing\",\"Stims/Figures/118-C-20-2.bmp\",\"sahaza\",\"Down\",\"38\",\"3\",\"17\",\"6A\",\"C2\",\"C\",\"65\"
\"\",\"\",\"approach-retreat\",\"214\",\"1610613\",\"0.0-214.0\",\"\",\"\",\"3-3\",\"4587\",\"39\",\"1\",\"Testing\",\"Stims/Figures/71-C-30-1.bmp\",\"sasaza\",\"Left\",\"39\",\"3\",\"18\",\"6A\",\"C2\",\"C\",\"66\"
\"\",\"\",\"approach-retreat\",\"215\",\"1616597\",\"0.0-215.0\",\"\",\"\",\"3-3\",\"4478\",\"40\",\"1\",\"Testing\",\"Stims/Figures/74-C-20-4.bmp\",\"zaha:za\",\"Up\",\"40\",\"3\",\"19\",\"6A\",\"C2\",\"C\",\"67\"
\"\",\"\",\"approach-retreat\",\"216\",\"1622400\",\"0.0-216.0\",\"\",\"\",\"3-3\",\"4298\",\"39\",\"0\",\"Testing\",\"Stims/Figures/144-J-10-3.bmp\",\"vafasha\",\"Left\",\"37\",\"3\",\"20\",\"6A\",\"C1\",\"C\",\"68\"
\"\",\"\",\"approach-retreat\",\"217\",\"1628561\",\"0.0-217.0\",\"\",\"\",\"3-3\",\"4656\",\"40\",\"1\",\"Testing\",\"Stims/Figures/144-C-30-3.bmp\",\"sahaha\",\"Up\",\"40\",\"3\",\"21\",\"6A\",\"C2\",\"C\",\"69\"
\"\",\"\",\"approach-retreat\",\"218\",\"1634686\",\"0.0-218.0\",\"\",\"\",\"3-3\",\"4620\",\"38\",\"0\",\"Testing\",\"Stims/Figures/57-J-0-1.bmp\",\"vashasha\",\"Down\",\"40\",\"3\",\"22\",\"6A\",\"C1\",\"C\",\"70\"
\"\",\"\",\"approach-retreat\",\"219\",\"1640675\",\"0.0-219.0\",\"\",\"\",\"3-3\",\"4484\",\"37\",\"0\",\"Testing\",\"Stims/Figures/100-J-10-3.bmp\",\"vafa:sha\",\"Right\",\"39\",\"3\",\"23\",\"6A\",\"C1\",\"C\",\"71\"
\"\",\"\",\"approach-retreat\",\"220\",\"1646551\",\"0.0-220.0\",\"\",\"\",\"3-3\",\"4371\",\"40\",\"0\",\"Testing\",\"Stims/Figures/139-J-0-2.bmp\",\"fa:shava\",\"Up\",\"38\",\"3\",\"24\",\"6A\",\"C1\",\"C\",\"72\"
\"\",\"\",\"approach-retreat\",\"221\",\"1652416\",\"0.0-221.0\",\"\",\"\",\"3-3\",\"4360\",\"39\",\"1\",\"Testing\",\"Stims/Figures/139-C-20-2.bmp\",\"sasa:za\",\"Left\",\"39\",\"4\",\"1\",\"6A\",\"C2\",\"C\",\"73\"
\"\",\"\",\"approach-retreat\",\"222\",\"1657995\",\"0.0-222.0\",\"\",\"\",\"3-3\",\"4076\",\"37\",\"0\",\"Testing\",\"Stims/Figures/84-J-0-2.bmp\",\"fasha:sha\",\"Right\",\"39\",\"4\",\"2\",\"6A\",\"C1\",\"C\",\"74\"
\"\",\"\",\"approach-retreat\",\"223\",\"1664161\",\"0.0-223.0\",\"\",\"\",\"3-3\",\"4658\",\"40\",\"1\",\"Testing\",\"Stims/Figures/144-J-10-3.bmp\",\"vafasha\",\"Down\",\"40\",\"4\",\"3\",\"6A\",\"C1\",\"C\",\"75\"
\"\",\"\",\"approach-retreat\",\"224\",\"1670117\",\"0.0-224.0\",\"\",\"\",\"3-3\",\"4452\",\"40\",\"1\",\"Testing\",\"Stims/Figures/86-C-30-1.bmp\",\"za:ha:za\",\"Up\",\"40\",\"4\",\"4\",\"6A\",\"C2\",\"C\",\"76\"
\"\",\"\",\"approach-retreat\",\"225\",\"1675771\",\"0.0-225.0\",\"\",\"\",\"3-3\",\"4145\",\"39\",\"1\",\"Testing\",\"Stims/Figures/84-C-20-2.bmp\",\"za:sa:za\",\"Left\",\"39\",\"4\",\"5\",\"6A\",\"C2\",\"C\",\"77\"
\"\",\"\",\"approach-retreat\",\"226\",\"1681470\",\"0.0-226.0\",\"\",\"\",\"3-3\",\"4194\",\"37\",\"0\",\"Testing\",\"Stims/Figures/86-J-0-1.bmp\",\"fa:fa:va\",\"Right\",\"39\",\"4\",\"6\",\"6A\",\"C1\",\"C\",\"78\"
\"\",\"\",\"approach-retreat\",\"227\",\"1686939\",\"0.0-227.0\",\"\",\"\",\"3-3\",\"3964\",\"37\",\"1\",\"Testing\",\"Stims/Figures/71-C-30-1.bmp\",\"sasaza\",\"Right\",\"37\",\"4\",\"7\",\"6A\",\"C2\",\"C\",\"79\"
\"\",\"\",\"approach-retreat\",\"228\",\"1692641\",\"0.0-228.0\",\"\",\"\",\"3-3\",\"4195\",\"38\",\"0\",\"Testing\",\"Stims/Figures/71-J-0-1.bmp\",\"vashava\",\"Down\",\"40\",\"4\",\"8\",\"6A\",\"C1\",\"C\",\"80\"
\"\",\"\",\"approach-retreat\",\"229\",\"1698485\",\"0.0-229.0\",\"\",\"\",\"3-3\",\"4339\",\"38\",\"0\",\"Testing\",\"Stims/Figures/7-J-10-4.bmp\",\"va:fa:va\",\"Down\",\"40\",\"4\",\"9\",\"6A\",\"C1\",\"C\",\"81\"
\"\",\"\",\"approach-retreat\",\"230\",\"1704429\",\"0.0-230.0\",\"\",\"\",\"3-3\",\"4440\",\"40\",\"0\",\"Testing\",\"Stims/Figures/139-J-0-2.bmp\",\"fa:shava\",\"Up\",\"38\",\"4\",\"10\",\"6A\",\"C1\",\"C\",\"82\"
\"\",\"\",\"approach-retreat\",\"231\",\"1710083\",\"0.0-231.0\",\"\",\"\",\"3-3\",\"4147\",\"40\",\"1\",\"Testing\",\"Stims/Figures/44-C-30-3.bmp\",\"za:haza\",\"Up\",\"40\",\"4\",\"11\",\"6A\",\"C2\",\"C\",\"83\"
\"\",\"\",\"approach-retreat\",\"232\",\"1715883\",\"0.0-232.0\",\"\",\"\",\"3-3\",\"4295\",\"39\",\"0\",\"Testing\",\"Stims/Figures/100-J-10-3.bmp\",\"vafa:sha\",\"Left\",\"37\",\"4\",\"12\",\"6A\",\"C1\",\"C\",\"84\"
\"\",\"\",\"approach-retreat\",\"233\",\"1721522\",\"0.0-233.0\",\"\",\"\",\"3-3\",\"4133\",\"37\",\"0\",\"Testing\",\"Stims/Figures/57-J-0-1.bmp\",\"vashasha\",\"Right\",\"39\",\"4\",\"13\",\"6A\",\"C1\",\"C\",\"85\"
\"\",\"\",\"approach-retreat\",\"234\",\"1727352\",\"0.0-234.0\",\"\",\"\",\"3-3\",\"4325\",\"39\",\"0\",\"Testing\",\"Stims/Figures/44-J-10-3.bmp\",\"fa:fa:sha\",\"Left\",\"37\",\"4\",\"14\",\"6A\",\"C1\",\"C\",\"86\"
\"\",\"\",\"approach-retreat\",\"235\",\"1733356\",\"0.0-235.0\",\"\",\"\",\"3-3\",\"4500\",\"38\",\"1\",\"Testing\",\"Stims/Figures/100-C-30-3.bmp\",\"sa:saha\",\"Down\",\"38\",\"4\",\"15\",\"6A\",\"C2\",\"C\",\"87\"
\"\",\"\",\"approach-retreat\",\"236\",\"1738907\",\"0.0-236.0\",\"\",\"\",\"3-3\",\"4046\",\"37\",\"1\",\"Testing\",\"Stims/Figures/118-C-20-2.bmp\",\"sahaza\",\"Right\",\"37\",\"4\",\"16\",\"6A\",\"C2\",\"C\",\"88\"
\"\",\"\",\"approach-retreat\",\"237\",\"1744495\",\"0.0-237.0\",\"\",\"\",\"3-3\",\"4081\",\"38\",\"0\",\"Testing\",\"Stims/Figures/74-C-20-4.bmp\",\"zaha:za\",\"Up\",\"40\",\"4\",\"17\",\"6A\",\"C2\",\"C\",\"89\"
\"\",\"\",\"approach-retreat\",\"238\",\"1750189\",\"0.0-238.0\",\"\",\"\",\"3-3\",\"4189\",\"39\",\"1\",\"Testing\",\"Stims/Figures/19-C-20-4.bmp\",\"za:sa:ha\",\"Left\",\"39\",\"4\",\"18\",\"6A\",\"C2\",\"C\",\"90\"
\"\",\"\",\"approach-retreat\",\"239\",\"1755735\",\"0.0-239.0\",\"\",\"\",\"3-3\",\"4041\",\"40\",\"0\",\"Testing\",\"Stims/Figures/19-J-10-4.bmp\",\"va:shava\",\"Up\",\"38\",\"4\",\"19\",\"6A\",\"C1\",\"C\",\"91\"
\"\",\"\",\"approach-retreat\",\"240\",\"1761619\",\"0.0-240.0\",\"\",\"\",\"3-3\",\"4379\",\"38\",\"0\",\"Testing\",\"Stims/Figures/118-J-0-2.bmp\",\"fa:sha:va\",\"Down\",\"40\",\"4\",\"20\",\"6A\",\"C1\",\"C\",\"92\"
\"\",\"\",\"approach-retreat\",\"241\",\"1767642\",\"0.0-241.0\",\"\",\"\",\"3-3\",\"4518\",\"37\",\"0\",\"Testing\",\"Stims/Figures/57-C-30-1.bmp\",\"sa:haza\",\"Left\",\"39\",\"4\",\"21\",\"6A\",\"C2\",\"C\",\"93\"
\"\",\"\",\"approach-retreat\",\"242\",\"1774110\",\"0.0-242.0\",\"\",\"\",\"3-3\",\"4963\",\"40\",\"0\",\"Testing\",\"Stims/Figures/74-J-10-4.bmp\",\"fafa:sha\",\"Up\",\"38\",\"4\",\"22\",\"6A\",\"C1\",\"C\",\"94\"
\"\",\"\",\"approach-retreat\",\"243\",\"1780359\",\"0.0-243.0\",\"\",\"\",\"3-3\",\"4745\",\"40\",\"0\",\"Testing\",\"Stims/Figures/7-C-20-4.bmp\",\"zasaza\",\"Down\",\"38\",\"4\",\"23\",\"6A\",\"C2\",\"C\",\"95\"
\"\",\"\",\"approach-retreat\",\"244\",\"1785811\",\"0.0-244.0\",\"\",\"\",\"3-3\",\"3945\",\"37\",\"1\",\"Testing\",\"Stims/Figures/144-C-30-3.bmp\",\"sahaha\",\"Right\",\"37\",\"4\",\"24\",\"6A\",\"C2\",\"C\",\"96\"
\"22355\",\"\",\"survey-text\",\"245\",\"1808171\",\"0.0-245.0\",\"\",\"{\"\"Q0\"\":\"\"PS170034\"\"}\",\"\",\"\",\"\",\"\",\"\",\"\",\"\",\"\",\"\",\"\",\"\",\"\",\"\",\"\",\"\"
