\"rt\",\"key_press\",\"trial_type\",\"trial_index\",\"time_elapsed\",\"internal_node_id\",\"view_history\",\"responses\",\"Id\",\"Rt\",\"ResKeyCode\",\"ResCorr\",\"TrialType2\",\"Image\",\"Label\",\"Location\",\"CorrectResponse\",\"Block\",\"BlockTrial\",\"Condition\",\"LabelType\",\"Subcondition\",\"trialNum\"
\"38411\",\"32\",\"text\",\"0\",\"38415\",\"0.0-0.0-0.0\",\"\",\"\",\"\",\"\",\"\",\"\",\"\",\"\",\"\",\"\",\"\",\"\",\"\",\"\",\"\",\"\",\"\"
\"80216\",\"\",\"instructions\",\"1\",\"118632\",\"0.0-1.0\",\"[{\"\"page_index\"\":0,\"\"viewing_time\"\":80216}]\",\"\",\"\",\"\",\"\",\"\",\"\",\"\",\"\",\"\",\"\",\"\",\"\",\"\",\"\",\"\",\"\"
\"21273\",\"\",\"survey-multi-choice\",\"2\",\"139932\",\"0.0-2.0\",\"\",\"{\"\"Q0\"\":\"\"Da\"\",\"\"Q1\"\":\"\"Da\"\",\"\"Q2\"\":\"\"Da\"\",\"\"Q3\"\":\"\"Da\"\",\"\"Q4\"\":\"\"Da\"\",\"\"Q5\"\":\"\"Da\"\"}\",\"\",\"\",\"\",\"\",\"\",\"\",\"\",\"\",\"\",\"\",\"\",\"\",\"\",\"\",\"\"
\"\",\"\",\"bio\",\"3\",\"147785\",\"0.0-3.0\",\"\",\"{\"\"age\"\":\"\"21\"\",\"\"gender\"\":\"\"f\"\",\"\"specify\"\":\"\"\"\"}\",\"\",\"\",\"\",\"\",\"\",\"\",\"\",\"\",\"\",\"\",\"\",\"\",\"\",\"\",\"\"
\"\",\"\",\"approach-retreat\",\"4\",\"158013\",\"0.0-4.0\",\"\",\"\",\"2-4\",\"8719\",\"38\",\"0\",\"Training\",\"Stims/Figures/7-C-20-4.bmp\",\"fa:fasha\",\"Down\",\"40\",\"1\",\"1\",\"3B\",\"C1\",\"J\",\"1\"
\"\",\"\",\"approach-retreat\",\"5\",\"164980\",\"0.0-5.0\",\"\",\"\",\"2-4\",\"5461\",\"39\",\"1\",\"Training\",\"Stims/Figures/57-C-30-1.bmp\",\"fa:fasha\",\"Right\",\"39\",\"1\",\"2\",\"3B\",\"C1\",\"J\",\"2\"
\"\",\"\",\"approach-retreat\",\"6\",\"173209\",\"0.0-6.0\",\"\",\"\",\"2-4\",\"6725\",\"38\",\"1\",\"Training\",\"Stims/Figures/93-C-30-1.bmp\",\"fa:fasha\",\"Up\",\"38\",\"1\",\"3\",\"3B\",\"C1\",\"J\",\"3\"
\"\",\"\",\"approach-retreat\",\"7\",\"179782\",\"0.0-7.0\",\"\",\"\",\"2-4\",\"5068\",\"39\",\"1\",\"Training\",\"Stims/Figures/118-C-20-2.bmp\",\"fa:fasha\",\"Right\",\"39\",\"1\",\"4\",\"3B\",\"C1\",\"J\",\"4\"
\"\",\"\",\"approach-retreat\",\"8\",\"190063\",\"0.0-8.0\",\"\",\"\",\"2-4\",\"8774\",\"38\",\"1\",\"Training\",\"Stims/Figures/118-J-0-2.bmp\",\"sasaza\",\"Down\",\"38\",\"1\",\"5\",\"3B\",\"C2\",\"J\",\"5\"
\"\",\"\",\"approach-retreat\",\"9\",\"196356\",\"0.0-9.0\",\"\",\"\",\"2-4\",\"4788\",\"39\",\"1\",\"Training\",\"Stims/Figures/93-J-0-1.bmp\",\"sasaza\",\"Left\",\"39\",\"1\",\"6\",\"3B\",\"C2\",\"J\",\"6\"
\"\",\"\",\"approach-retreat\",\"10\",\"203763\",\"0.0-10.0\",\"\",\"\",\"2-4\",\"5902\",\"37\",\"1\",\"Training\",\"Stims/Figures/128-C-30-3.bmp\",\"fa:fasha\",\"Left\",\"37\",\"1\",\"7\",\"3B\",\"C1\",\"J\",\"7\"
\"\",\"\",\"approach-retreat\",\"11\",\"210031\",\"0.0-11.0\",\"\",\"\",\"2-4\",\"4763\",\"37\",\"1\",\"Training\",\"Stims/Figures/100-J-10-3.bmp\",\"sasaza\",\"Right\",\"37\",\"1\",\"8\",\"3B\",\"C2\",\"J\",\"8\"
\"\",\"\",\"approach-retreat\",\"12\",\"215914\",\"0.0-12.0\",\"\",\"\",\"2-4\",\"4377\",\"37\",\"1\",\"Training\",\"Stims/Figures/128-J-10-3.bmp\",\"sasaza\",\"Right\",\"37\",\"1\",\"9\",\"3B\",\"C2\",\"J\",\"9\"
\"\",\"\",\"approach-retreat\",\"13\",\"222072\",\"0.0-13.0\",\"\",\"\",\"2-4\",\"4649\",\"40\",\"1\",\"Training\",\"Stims/Figures/19-J-10-4.bmp\",\"sasaza\",\"Up\",\"40\",\"1\",\"10\",\"3B\",\"C2\",\"J\",\"10\"
\"\",\"\",\"approach-retreat\",\"14\",\"232034\",\"0.0-14.0\",\"\",\"\",\"2-4\",\"8456\",\"40\",\"1\",\"Training\",\"Stims/Figures/100-C-30-3.bmp\",\"fa:fasha\",\"Down\",\"40\",\"1\",\"11\",\"3B\",\"C1\",\"J\",\"11\"
\"\",\"\",\"approach-retreat\",\"15\",\"241028\",\"0.0-15.0\",\"\",\"\",\"2-4\",\"7489\",\"40\",\"1\",\"Training\",\"Stims/Figures/84-J-0-2.bmp\",\"sasaza\",\"Up\",\"40\",\"1\",\"12\",\"3B\",\"C2\",\"J\",\"12\"
\"\",\"\",\"approach-retreat\",\"16\",\"247389\",\"0.0-16.0\",\"\",\"\",\"2-4\",\"4856\",\"37\",\"1\",\"Training\",\"Stims/Figures/19-C-20-4.bmp\",\"fa:fasha\",\"Left\",\"37\",\"1\",\"13\",\"3B\",\"C1\",\"J\",\"13\"
\"\",\"\",\"approach-retreat\",\"17\",\"254673\",\"0.0-17.0\",\"\",\"\",\"2-4\",\"5777\",\"38\",\"1\",\"Training\",\"Stims/Figures/57-J-0-1.bmp\",\"sasaza\",\"Down\",\"38\",\"1\",\"14\",\"3B\",\"C2\",\"J\",\"14\"
\"\",\"\",\"approach-retreat\",\"18\",\"263364\",\"0.0-18.0\",\"\",\"\",\"2-4\",\"7186\",\"37\",\"1\",\"Training\",\"Stims/Figures/84-C-20-2.bmp\",\"fa:fasha\",\"Left\",\"37\",\"1\",\"15\",\"3B\",\"C1\",\"J\",\"15\"
\"\",\"\",\"approach-retreat\",\"19\",\"271781\",\"0.0-19.0\",\"\",\"\",\"2-4\",\"6913\",\"40\",\"1\",\"Training\",\"Stims/Figures/7-J-10-4.bmp\",\"sasaza\",\"Up\",\"40\",\"1\",\"16\",\"3B\",\"C2\",\"J\",\"16\"
\"\",\"\",\"approach-retreat\",\"20\",\"277438\",\"0.0-20.0\",\"\",\"\",\"2-4\",\"4152\",\"40\",\"1\",\"Training\",\"Stims/Figures/7-J-10-4.bmp\",\"sasaza\",\"Up\",\"40\",\"2\",\"1\",\"3B\",\"C2\",\"J\",\"17\"
\"\",\"\",\"approach-retreat\",\"21\",\"283647\",\"0.0-21.0\",\"\",\"\",\"2-4\",\"4704\",\"37\",\"1\",\"Training\",\"Stims/Figures/57-C-30-1.bmp\",\"fa:fasha\",\"Left\",\"37\",\"2\",\"2\",\"3B\",\"C1\",\"J\",\"18\"
\"\",\"\",\"approach-retreat\",\"22\",\"291259\",\"0.0-22.0\",\"\",\"\",\"2-4\",\"6108\",\"38\",\"1\",\"Training\",\"Stims/Figures/118-J-0-2.bmp\",\"sasaza\",\"Down\",\"38\",\"2\",\"3\",\"3B\",\"C2\",\"J\",\"19\"
\"\",\"\",\"approach-retreat\",\"23\",\"299573\",\"0.0-23.0\",\"\",\"\",\"2-4\",\"6809\",\"39\",\"1\",\"Training\",\"Stims/Figures/7-C-20-4.bmp\",\"fa:fasha\",\"Right\",\"39\",\"2\",\"4\",\"3B\",\"C1\",\"J\",\"20\"
\"\",\"\",\"approach-retreat\",\"24\",\"305265\",\"0.0-24.0\",\"\",\"\",\"2-4\",\"4188\",\"38\",\"1\",\"Training\",\"Stims/Figures/100-J-10-3.bmp\",\"sasaza\",\"Down\",\"38\",\"2\",\"5\",\"3B\",\"C2\",\"J\",\"21\"
\"\",\"\",\"approach-retreat\",\"25\",\"311749\",\"0.0-25.0\",\"\",\"\",\"2-4\",\"4979\",\"39\",\"1\",\"Training\",\"Stims/Figures/84-J-0-2.bmp\",\"sasaza\",\"Left\",\"39\",\"2\",\"6\",\"3B\",\"C2\",\"J\",\"22\"
\"\",\"\",\"approach-retreat\",\"26\",\"317615\",\"0.0-26.0\",\"\",\"\",\"2-4\",\"4361\",\"38\",\"1\",\"Training\",\"Stims/Figures/57-J-0-1.bmp\",\"sasaza\",\"Down\",\"38\",\"2\",\"7\",\"3B\",\"C2\",\"J\",\"23\"
\"\",\"\",\"approach-retreat\",\"27\",\"323546\",\"0.0-27.0\",\"\",\"\",\"2-4\",\"4425\",\"39\",\"1\",\"Training\",\"Stims/Figures/19-J-10-4.bmp\",\"sasaza\",\"Left\",\"39\",\"2\",\"8\",\"3B\",\"C2\",\"J\",\"24\"
\"\",\"\",\"approach-retreat\",\"28\",\"330401\",\"0.0-28.0\",\"\",\"\",\"2-4\",\"5352\",\"37\",\"1\",\"Training\",\"Stims/Figures/128-J-10-3.bmp\",\"sasaza\",\"Right\",\"37\",\"2\",\"9\",\"3B\",\"C2\",\"J\",\"25\"
\"\",\"\",\"approach-retreat\",\"29\",\"337946\",\"0.0-29.0\",\"\",\"\",\"2-4\",\"6038\",\"39\",\"1\",\"Training\",\"Stims/Figures/19-C-20-4.bmp\",\"fa:fasha\",\"Right\",\"39\",\"2\",\"10\",\"3B\",\"C1\",\"J\",\"26\"
\"\",\"\",\"approach-retreat\",\"30\",\"344897\",\"0.0-30.0\",\"\",\"\",\"2-4\",\"5447\",\"37\",\"1\",\"Training\",\"Stims/Figures/118-C-20-2.bmp\",\"fa:fasha\",\"Left\",\"37\",\"2\",\"11\",\"3B\",\"C1\",\"J\",\"27\"
\"\",\"\",\"approach-retreat\",\"31\",\"352687\",\"0.0-31.0\",\"\",\"\",\"2-4\",\"6286\",\"38\",\"1\",\"Training\",\"Stims/Figures/84-C-20-2.bmp\",\"fa:fasha\",\"Up\",\"38\",\"2\",\"12\",\"3B\",\"C1\",\"J\",\"28\"
\"\",\"\",\"approach-retreat\",\"32\",\"358558\",\"0.0-32.0\",\"\",\"\",\"2-4\",\"4367\",\"38\",\"1\",\"Training\",\"Stims/Figures/100-C-30-3.bmp\",\"fa:fasha\",\"Up\",\"38\",\"2\",\"13\",\"3B\",\"C1\",\"J\",\"29\"
\"\",\"\",\"approach-retreat\",\"33\",\"364396\",\"0.0-33.0\",\"\",\"\",\"2-4\",\"4332\",\"39\",\"1\",\"Training\",\"Stims/Figures/93-C-30-1.bmp\",\"fa:fasha\",\"Right\",\"39\",\"2\",\"14\",\"3B\",\"C1\",\"J\",\"30\"
\"\",\"\",\"approach-retreat\",\"34\",\"370808\",\"0.0-34.0\",\"\",\"\",\"2-4\",\"4906\",\"40\",\"1\",\"Training\",\"Stims/Figures/128-C-30-3.bmp\",\"fa:fasha\",\"Down\",\"40\",\"2\",\"15\",\"3B\",\"C1\",\"J\",\"31\"
\"\",\"\",\"approach-retreat\",\"35\",\"377367\",\"0.0-35.0\",\"\",\"\",\"2-4\",\"5056\",\"40\",\"1\",\"Training\",\"Stims/Figures/93-J-0-1.bmp\",\"sasaza\",\"Up\",\"40\",\"2\",\"16\",\"3B\",\"C2\",\"J\",\"32\"
\"\",\"\",\"approach-retreat\",\"36\",\"387812\",\"0.0-36.0\",\"\",\"\",\"2-4\",\"8940\",\"40\",\"1\",\"Training\",\"Stims/Figures/19-C-20-4.bmp\",\"fa:fasha\",\"Down\",\"40\",\"3\",\"1\",\"3B\",\"C1\",\"J\",\"33\"
\"\",\"\",\"approach-retreat\",\"37\",\"394228\",\"0.0-37.0\",\"\",\"\",\"2-4\",\"4911\",\"39\",\"1\",\"Training\",\"Stims/Figures/93-C-30-1.bmp\",\"fa:fasha\",\"Right\",\"39\",\"3\",\"2\",\"3B\",\"C1\",\"J\",\"34\"
\"\",\"\",\"approach-retreat\",\"38\",\"399994\",\"0.0-38.0\",\"\",\"\",\"2-4\",\"4258\",\"38\",\"1\",\"Training\",\"Stims/Figures/100-J-10-3.bmp\",\"sasaza\",\"Down\",\"38\",\"3\",\"3\",\"3B\",\"C2\",\"J\",\"35\"
\"\",\"\",\"approach-retreat\",\"39\",\"406707\",\"0.0-39.0\",\"\",\"\",\"2-4\",\"5209\",\"39\",\"1\",\"Training\",\"Stims/Figures/84-C-20-2.bmp\",\"fa:fasha\",\"Right\",\"39\",\"3\",\"4\",\"3B\",\"C1\",\"J\",\"36\"
\"\",\"\",\"approach-retreat\",\"40\",\"412943\",\"0.0-40.0\",\"\",\"\",\"2-4\",\"4730\",\"37\",\"1\",\"Training\",\"Stims/Figures/118-J-0-2.bmp\",\"sasaza\",\"Right\",\"37\",\"3\",\"5\",\"3B\",\"C2\",\"J\",\"37\"
\"\",\"\",\"approach-retreat\",\"41\",\"419139\",\"0.0-41.0\",\"\",\"\",\"2-4\",\"4690\",\"37\",\"1\",\"Training\",\"Stims/Figures/7-J-10-4.bmp\",\"sasaza\",\"Right\",\"37\",\"3\",\"6\",\"3B\",\"C2\",\"J\",\"38\"
\"\",\"\",\"approach-retreat\",\"42\",\"425893\",\"0.0-42.0\",\"\",\"\",\"2-4\",\"5249\",\"37\",\"1\",\"Training\",\"Stims/Figures/57-C-30-1.bmp\",\"fa:fasha\",\"Left\",\"37\",\"3\",\"7\",\"3B\",\"C1\",\"J\",\"39\"
\"\",\"\",\"approach-retreat\",\"43\",\"432088\",\"0.0-43.0\",\"\",\"\",\"2-4\",\"4691\",\"40\",\"1\",\"Training\",\"Stims/Figures/93-J-0-1.bmp\",\"sasaza\",\"Up\",\"40\",\"3\",\"8\",\"3B\",\"C2\",\"J\",\"40\"
\"\",\"\",\"approach-retreat\",\"44\",\"439138\",\"0.0-44.0\",\"\",\"\",\"2-4\",\"5545\",\"38\",\"1\",\"Training\",\"Stims/Figures/128-J-10-3.bmp\",\"sasaza\",\"Down\",\"38\",\"3\",\"9\",\"3B\",\"C2\",\"J\",\"41\"
\"\",\"\",\"approach-retreat\",\"45\",\"445264\",\"0.0-45.0\",\"\",\"\",\"2-4\",\"4621\",\"38\",\"1\",\"Training\",\"Stims/Figures/100-C-30-3.bmp\",\"fa:fasha\",\"Up\",\"38\",\"3\",\"10\",\"3B\",\"C1\",\"J\",\"42\"
\"\",\"\",\"approach-retreat\",\"46\",\"452501\",\"0.0-46.0\",\"\",\"\",\"2-4\",\"5732\",\"38\",\"1\",\"Training\",\"Stims/Figures/128-C-30-3.bmp\",\"fa:fasha\",\"Up\",\"38\",\"3\",\"11\",\"3B\",\"C1\",\"J\",\"43\"
\"\",\"\",\"approach-retreat\",\"47\",\"458379\",\"0.0-47.0\",\"\",\"\",\"2-4\",\"4374\",\"39\",\"1\",\"Training\",\"Stims/Figures/57-J-0-1.bmp\",\"sasaza\",\"Left\",\"39\",\"3\",\"12\",\"3B\",\"C2\",\"J\",\"44\"
\"\",\"\",\"approach-retreat\",\"48\",\"464963\",\"0.0-48.0\",\"\",\"\",\"2-4\",\"5077\",\"37\",\"1\",\"Training\",\"Stims/Figures/7-C-20-4.bmp\",\"fa:fasha\",\"Left\",\"37\",\"3\",\"13\",\"3B\",\"C1\",\"J\",\"45\"
\"\",\"\",\"approach-retreat\",\"49\",\"470632\",\"0.0-49.0\",\"\",\"\",\"2-4\",\"4164\",\"39\",\"1\",\"Training\",\"Stims/Figures/19-J-10-4.bmp\",\"sasaza\",\"Left\",\"39\",\"3\",\"14\",\"3B\",\"C2\",\"J\",\"46\"
\"\",\"\",\"approach-retreat\",\"50\",\"476354\",\"0.0-50.0\",\"\",\"\",\"2-4\",\"4218\",\"40\",\"1\",\"Training\",\"Stims/Figures/118-C-20-2.bmp\",\"fa:fasha\",\"Down\",\"40\",\"3\",\"15\",\"3B\",\"C1\",\"J\",\"47\"
\"\",\"\",\"approach-retreat\",\"51\",\"482164\",\"0.0-51.0\",\"\",\"\",\"2-4\",\"4305\",\"40\",\"1\",\"Training\",\"Stims/Figures/84-J-0-2.bmp\",\"sasaza\",\"Up\",\"40\",\"3\",\"16\",\"3B\",\"C2\",\"J\",\"48\"
\"\",\"\",\"approach-retreat\",\"52\",\"488144\",\"0.0-52.0\",\"\",\"\",\"2-4\",\"4474\",\"39\",\"1\",\"Training\",\"Stims/Figures/7-J-10-4.bmp\",\"sasaza\",\"Left\",\"39\",\"4\",\"1\",\"3B\",\"C2\",\"J\",\"49\"
\"\",\"\",\"approach-retreat\",\"53\",\"493773\",\"0.0-53.0\",\"\",\"\",\"2-4\",\"4125\",\"39\",\"1\",\"Training\",\"Stims/Figures/128-J-10-3.bmp\",\"sasaza\",\"Left\",\"39\",\"4\",\"2\",\"3B\",\"C2\",\"J\",\"50\"
\"\",\"\",\"approach-retreat\",\"54\",\"500263\",\"0.0-54.0\",\"\",\"\",\"2-4\",\"4984\",\"38\",\"1\",\"Training\",\"Stims/Figures/118-C-20-2.bmp\",\"fa:fasha\",\"Up\",\"38\",\"4\",\"3\",\"3B\",\"C1\",\"J\",\"51\"
\"\",\"\",\"approach-retreat\",\"55\",\"506978\",\"0.0-55.0\",\"\",\"\",\"2-4\",\"5210\",\"39\",\"1\",\"Training\",\"Stims/Figures/100-J-10-3.bmp\",\"sasaza\",\"Left\",\"39\",\"4\",\"4\",\"3B\",\"C2\",\"J\",\"52\"
\"\",\"\",\"approach-retreat\",\"56\",\"512909\",\"0.0-56.0\",\"\",\"\",\"2-4\",\"4426\",\"40\",\"1\",\"Training\",\"Stims/Figures/57-C-30-1.bmp\",\"fa:fasha\",\"Down\",\"40\",\"4\",\"5\",\"3B\",\"C1\",\"J\",\"53\"
\"\",\"\",\"approach-retreat\",\"57\",\"519151\",\"0.0-57.0\",\"\",\"\",\"2-4\",\"4738\",\"39\",\"1\",\"Training\",\"Stims/Figures/84-C-20-2.bmp\",\"fa:fasha\",\"Right\",\"39\",\"4\",\"6\",\"3B\",\"C1\",\"J\",\"54\"
\"\",\"\",\"approach-retreat\",\"58\",\"524924\",\"0.0-58.0\",\"\",\"\",\"2-4\",\"4268\",\"38\",\"1\",\"Training\",\"Stims/Figures/84-J-0-2.bmp\",\"sasaza\",\"Down\",\"38\",\"4\",\"7\",\"3B\",\"C2\",\"J\",\"55\"
\"\",\"\",\"approach-retreat\",\"59\",\"530624\",\"0.0-59.0\",\"\",\"\",\"2-4\",\"4194\",\"40\",\"1\",\"Training\",\"Stims/Figures/57-J-0-1.bmp\",\"sasaza\",\"Up\",\"40\",\"4\",\"8\",\"3B\",\"C2\",\"J\",\"56\"
\"\",\"\",\"approach-retreat\",\"60\",\"536369\",\"0.0-60.0\",\"\",\"\",\"2-4\",\"4240\",\"40\",\"1\",\"Training\",\"Stims/Figures/100-C-30-3.bmp\",\"fa:fasha\",\"Down\",\"40\",\"4\",\"9\",\"3B\",\"C1\",\"J\",\"57\"
\"\",\"\",\"approach-retreat\",\"61\",\"542105\",\"0.0-61.0\",\"\",\"\",\"2-4\",\"4231\",\"37\",\"1\",\"Training\",\"Stims/Figures/93-C-30-1.bmp\",\"fa:fasha\",\"Left\",\"37\",\"4\",\"10\",\"3B\",\"C1\",\"J\",\"58\"
\"\",\"\",\"approach-retreat\",\"62\",\"547800\",\"0.0-62.0\",\"\",\"\",\"2-4\",\"4190\",\"38\",\"1\",\"Training\",\"Stims/Figures/19-J-10-4.bmp\",\"sasaza\",\"Down\",\"38\",\"4\",\"11\",\"3B\",\"C2\",\"J\",\"59\"
\"\",\"\",\"approach-retreat\",\"63\",\"553655\",\"0.0-63.0\",\"\",\"\",\"2-4\",\"4351\",\"37\",\"1\",\"Training\",\"Stims/Figures/118-J-0-2.bmp\",\"sasaza\",\"Right\",\"37\",\"4\",\"12\",\"3B\",\"C2\",\"J\",\"60\"
\"\",\"\",\"approach-retreat\",\"64\",\"559275\",\"0.0-64.0\",\"\",\"\",\"2-4\",\"4115\",\"37\",\"1\",\"Training\",\"Stims/Figures/93-J-0-1.bmp\",\"sasaza\",\"Right\",\"37\",\"4\",\"13\",\"3B\",\"C2\",\"J\",\"61\"
\"\",\"\",\"approach-retreat\",\"65\",\"565218\",\"0.0-65.0\",\"\",\"\",\"2-4\",\"4438\",\"38\",\"1\",\"Training\",\"Stims/Figures/19-C-20-4.bmp\",\"fa:fasha\",\"Up\",\"38\",\"4\",\"14\",\"3B\",\"C1\",\"J\",\"62\"
\"\",\"\",\"approach-retreat\",\"66\",\"570827\",\"0.0-66.0\",\"\",\"\",\"2-4\",\"4104\",\"38\",\"1\",\"Training\",\"Stims/Figures/128-C-30-3.bmp\",\"fa:fasha\",\"Up\",\"38\",\"4\",\"15\",\"3B\",\"C1\",\"J\",\"63\"
\"\",\"\",\"approach-retreat\",\"67\",\"576898\",\"0.0-67.0\",\"\",\"\",\"2-4\",\"4563\",\"39\",\"1\",\"Training\",\"Stims/Figures/7-C-20-4.bmp\",\"fa:fasha\",\"Right\",\"39\",\"4\",\"16\",\"3B\",\"C1\",\"J\",\"64\"
\"\",\"\",\"approach-retreat\",\"68\",\"582449\",\"0.0-68.0\",\"\",\"\",\"2-4\",\"4047\",\"39\",\"1\",\"Training\",\"Stims/Figures/100-C-30-3.bmp\",\"fa:fasha\",\"Right\",\"39\",\"5\",\"1\",\"3B\",\"C1\",\"J\",\"65\"
\"\",\"\",\"approach-retreat\",\"69\",\"588198\",\"0.0-69.0\",\"\",\"\",\"2-4\",\"4243\",\"40\",\"1\",\"Training\",\"Stims/Figures/19-C-20-4.bmp\",\"fa:fasha\",\"Down\",\"40\",\"5\",\"2\",\"3B\",\"C1\",\"J\",\"66\"
\"\",\"\",\"approach-retreat\",\"70\",\"593981\",\"0.0-70.0\",\"\",\"\",\"2-4\",\"4279\",\"38\",\"1\",\"Training\",\"Stims/Figures/7-J-10-4.bmp\",\"sasaza\",\"Down\",\"38\",\"5\",\"3\",\"3B\",\"C2\",\"J\",\"67\"
\"\",\"\",\"approach-retreat\",\"71\",\"599847\",\"0.0-71.0\",\"\",\"\",\"2-4\",\"4362\",\"40\",\"1\",\"Training\",\"Stims/Figures/100-J-10-3.bmp\",\"sasaza\",\"Up\",\"40\",\"5\",\"4\",\"3B\",\"C2\",\"J\",\"68\"
\"\",\"\",\"approach-retreat\",\"72\",\"605582\",\"0.0-72.0\",\"\",\"\",\"2-4\",\"4228\",\"39\",\"1\",\"Training\",\"Stims/Figures/93-J-0-1.bmp\",\"sasaza\",\"Left\",\"39\",\"5\",\"5\",\"3B\",\"C2\",\"J\",\"69\"
\"\",\"\",\"approach-retreat\",\"73\",\"611296\",\"0.0-73.0\",\"\",\"\",\"2-4\",\"4209\",\"38\",\"1\",\"Training\",\"Stims/Figures/7-C-20-4.bmp\",\"fa:fasha\",\"Up\",\"38\",\"5\",\"6\",\"3B\",\"C1\",\"J\",\"70\"
\"\",\"\",\"approach-retreat\",\"74\",\"616932\",\"0.0-74.0\",\"\",\"\",\"2-4\",\"4131\",\"37\",\"1\",\"Training\",\"Stims/Figures/118-C-20-2.bmp\",\"fa:fasha\",\"Left\",\"37\",\"5\",\"7\",\"3B\",\"C1\",\"J\",\"71\"
\"\",\"\",\"approach-retreat\",\"75\",\"623320\",\"0.0-75.0\",\"\",\"\",\"2-4\",\"4884\",\"37\",\"1\",\"Training\",\"Stims/Figures/84-C-20-2.bmp\",\"fa:fasha\",\"Left\",\"37\",\"5\",\"8\",\"3B\",\"C1\",\"J\",\"72\"
\"\",\"\",\"approach-retreat\",\"76\",\"629271\",\"0.0-76.0\",\"\",\"\",\"2-4\",\"4446\",\"37\",\"1\",\"Training\",\"Stims/Figures/118-J-0-2.bmp\",\"sasaza\",\"Right\",\"37\",\"5\",\"9\",\"3B\",\"C2\",\"J\",\"73\"
\"\",\"\",\"approach-retreat\",\"77\",\"634895\",\"0.0-77.0\",\"\",\"\",\"2-4\",\"4119\",\"37\",\"1\",\"Training\",\"Stims/Figures/128-J-10-3.bmp\",\"sasaza\",\"Right\",\"37\",\"5\",\"10\",\"3B\",\"C2\",\"J\",\"74\"
\"\",\"\",\"approach-retreat\",\"78\",\"640676\",\"0.0-78.0\",\"\",\"\",\"2-4\",\"4276\",\"38\",\"1\",\"Training\",\"Stims/Figures/84-J-0-2.bmp\",\"sasaza\",\"Down\",\"38\",\"5\",\"11\",\"3B\",\"C2\",\"J\",\"75\"
\"\",\"\",\"approach-retreat\",\"79\",\"646473\",\"0.0-79.0\",\"\",\"\",\"2-4\",\"4292\",\"37\",\"1\",\"Training\",\"Stims/Figures/93-C-30-1.bmp\",\"fa:fasha\",\"Left\",\"37\",\"5\",\"12\",\"3B\",\"C1\",\"J\",\"76\"
\"\",\"\",\"approach-retreat\",\"80\",\"652269\",\"0.0-80.0\",\"\",\"\",\"2-4\",\"4290\",\"38\",\"1\",\"Training\",\"Stims/Figures/19-J-10-4.bmp\",\"sasaza\",\"Down\",\"38\",\"5\",\"13\",\"3B\",\"C2\",\"J\",\"77\"
\"\",\"\",\"approach-retreat\",\"81\",\"658170\",\"0.0-81.0\",\"\",\"\",\"2-4\",\"4396\",\"39\",\"1\",\"Training\",\"Stims/Figures/128-C-30-3.bmp\",\"fa:fasha\",\"Right\",\"39\",\"5\",\"14\",\"3B\",\"C1\",\"J\",\"78\"
\"\",\"\",\"approach-retreat\",\"82\",\"663779\",\"0.0-82.0\",\"\",\"\",\"2-4\",\"4104\",\"40\",\"1\",\"Training\",\"Stims/Figures/57-J-0-1.bmp\",\"sasaza\",\"Up\",\"40\",\"5\",\"15\",\"3B\",\"C2\",\"J\",\"79\"
\"\",\"\",\"approach-retreat\",\"83\",\"669552\",\"0.0-83.0\",\"\",\"\",\"2-4\",\"4268\",\"38\",\"1\",\"Training\",\"Stims/Figures/57-C-30-1.bmp\",\"fa:fasha\",\"Up\",\"38\",\"5\",\"16\",\"3B\",\"C1\",\"J\",\"80\"
\"\",\"\",\"approach-retreat\",\"84\",\"675230\",\"0.0-84.0\",\"\",\"\",\"2-4\",\"4173\",\"40\",\"1\",\"Training\",\"Stims/Figures/118-J-0-2.bmp\",\"sasaza\",\"Up\",\"40\",\"6\",\"1\",\"3B\",\"C2\",\"J\",\"81\"
\"\",\"\",\"approach-retreat\",\"85\",\"681044\",\"0.0-85.0\",\"\",\"\",\"2-4\",\"4309\",\"40\",\"1\",\"Training\",\"Stims/Figures/7-C-20-4.bmp\",\"fa:fasha\",\"Down\",\"40\",\"6\",\"2\",\"3B\",\"C1\",\"J\",\"82\"
\"\",\"\",\"approach-retreat\",\"86\",\"686527\",\"0.0-86.0\",\"\",\"\",\"2-4\",\"3978\",\"37\",\"1\",\"Training\",\"Stims/Figures/100-J-10-3.bmp\",\"sasaza\",\"Right\",\"37\",\"6\",\"3\",\"3B\",\"C2\",\"J\",\"83\"
\"\",\"\",\"approach-retreat\",\"87\",\"692249\",\"0.0-87.0\",\"\",\"\",\"2-4\",\"4217\",\"37\",\"1\",\"Training\",\"Stims/Figures/57-C-30-1.bmp\",\"fa:fasha\",\"Left\",\"37\",\"6\",\"4\",\"3B\",\"C1\",\"J\",\"84\"
\"\",\"\",\"approach-retreat\",\"88\",\"700361\",\"0.0-88.0\",\"\",\"\",\"2-4\",\"6608\",\"37\",\"1\",\"Training\",\"Stims/Figures/128-C-30-3.bmp\",\"fa:fasha\",\"Left\",\"37\",\"6\",\"5\",\"3B\",\"C1\",\"J\",\"85\"
\"\",\"\",\"approach-retreat\",\"89\",\"706701\",\"0.0-89.0\",\"\",\"\",\"2-4\",\"4835\",\"38\",\"1\",\"Training\",\"Stims/Figures/93-C-30-1.bmp\",\"fa:fasha\",\"Up\",\"38\",\"6\",\"6\",\"3B\",\"C1\",\"J\",\"86\"
\"\",\"\",\"approach-retreat\",\"90\",\"712596\",\"0.0-90.0\",\"\",\"\",\"2-4\",\"4388\",\"39\",\"1\",\"Training\",\"Stims/Figures/19-C-20-4.bmp\",\"fa:fasha\",\"Right\",\"39\",\"6\",\"7\",\"3B\",\"C1\",\"J\",\"87\"
\"\",\"\",\"approach-retreat\",\"91\",\"718678\",\"0.0-91.0\",\"\",\"\",\"2-4\",\"4578\",\"40\",\"1\",\"Training\",\"Stims/Figures/57-J-0-1.bmp\",\"sasaza\",\"Up\",\"40\",\"6\",\"8\",\"3B\",\"C2\",\"J\",\"88\"
\"\",\"\",\"approach-retreat\",\"92\",\"724301\",\"0.0-92.0\",\"\",\"\",\"2-4\",\"4118\",\"39\",\"1\",\"Training\",\"Stims/Figures/118-C-20-2.bmp\",\"fa:fasha\",\"Right\",\"39\",\"6\",\"9\",\"3B\",\"C1\",\"J\",\"89\"
\"\",\"\",\"approach-retreat\",\"93\",\"729952\",\"0.0-93.0\",\"\",\"\",\"2-4\",\"4146\",\"38\",\"1\",\"Training\",\"Stims/Figures/128-J-10-3.bmp\",\"sasaza\",\"Down\",\"38\",\"6\",\"10\",\"3B\",\"C2\",\"J\",\"90\"
\"\",\"\",\"approach-retreat\",\"94\",\"735929\",\"0.0-94.0\",\"\",\"\",\"2-4\",\"4472\",\"39\",\"1\",\"Training\",\"Stims/Figures/93-J-0-1.bmp\",\"sasaza\",\"Left\",\"39\",\"6\",\"11\",\"3B\",\"C2\",\"J\",\"91\"
\"\",\"\",\"approach-retreat\",\"95\",\"741690\",\"0.0-95.0\",\"\",\"\",\"2-4\",\"4256\",\"40\",\"1\",\"Training\",\"Stims/Figures/19-J-10-4.bmp\",\"sasaza\",\"Up\",\"40\",\"6\",\"12\",\"3B\",\"C2\",\"J\",\"92\"
\"\",\"\",\"approach-retreat\",\"96\",\"747191\",\"0.0-96.0\",\"\",\"\",\"2-4\",\"3996\",\"39\",\"1\",\"Training\",\"Stims/Figures/84-J-0-2.bmp\",\"sasaza\",\"Left\",\"39\",\"6\",\"13\",\"3B\",\"C2\",\"J\",\"93\"
\"\",\"\",\"approach-retreat\",\"97\",\"752833\",\"0.0-97.0\",\"\",\"\",\"2-4\",\"4137\",\"37\",\"1\",\"Training\",\"Stims/Figures/7-J-10-4.bmp\",\"sasaza\",\"Right\",\"37\",\"6\",\"14\",\"3B\",\"C2\",\"J\",\"94\"
\"\",\"\",\"approach-retreat\",\"98\",\"758656\",\"0.0-98.0\",\"\",\"\",\"2-4\",\"4318\",\"40\",\"1\",\"Training\",\"Stims/Figures/84-C-20-2.bmp\",\"fa:fasha\",\"Down\",\"40\",\"6\",\"15\",\"3B\",\"C1\",\"J\",\"95\"
\"\",\"\",\"approach-retreat\",\"99\",\"764387\",\"0.0-99.0\",\"\",\"\",\"2-4\",\"4226\",\"40\",\"1\",\"Training\",\"Stims/Figures/100-C-30-3.bmp\",\"fa:fasha\",\"Down\",\"40\",\"6\",\"16\",\"3B\",\"C1\",\"J\",\"96\"
\"\",\"\",\"approach-retreat\",\"100\",\"770055\",\"0.0-100.0\",\"\",\"\",\"2-4\",\"4163\",\"37\",\"1\",\"Training\",\"Stims/Figures/57-C-30-1.bmp\",\"fa:fasha\",\"Left\",\"37\",\"7\",\"1\",\"3B\",\"C1\",\"J\",\"97\"
\"\",\"\",\"approach-retreat\",\"101\",\"775754\",\"0.0-101.0\",\"\",\"\",\"2-4\",\"4195\",\"37\",\"1\",\"Training\",\"Stims/Figures/7-J-10-4.bmp\",\"sasaza\",\"Right\",\"37\",\"7\",\"2\",\"3B\",\"C2\",\"J\",\"98\"
\"\",\"\",\"approach-retreat\",\"102\",\"782029\",\"0.0-102.0\",\"\",\"\",\"2-4\",\"4769\",\"40\",\"1\",\"Training\",\"Stims/Figures/128-C-30-3.bmp\",\"fa:fasha\",\"Down\",\"40\",\"7\",\"3\",\"3B\",\"C1\",\"J\",\"99\"
\"\",\"\",\"approach-retreat\",\"103\",\"787596\",\"0.0-103.0\",\"\",\"\",\"2-4\",\"4062\",\"39\",\"1\",\"Training\",\"Stims/Figures/100-J-10-3.bmp\",\"sasaza\",\"Left\",\"39\",\"7\",\"4\",\"3B\",\"C2\",\"J\",\"100\"
\"\",\"\",\"approach-retreat\",\"104\",\"793539\",\"0.0-104.0\",\"\",\"\",\"2-4\",\"4439\",\"40\",\"1\",\"Training\",\"Stims/Figures/84-J-0-2.bmp\",\"sasaza\",\"Up\",\"40\",\"7\",\"5\",\"3B\",\"C2\",\"J\",\"101\"
\"\",\"\",\"approach-retreat\",\"105\",\"799634\",\"0.0-105.0\",\"\",\"\",\"2-4\",\"4590\",\"38\",\"1\",\"Training\",\"Stims/Figures/118-J-0-2.bmp\",\"sasaza\",\"Down\",\"38\",\"7\",\"6\",\"3B\",\"C2\",\"J\",\"102\"
\"\",\"\",\"approach-retreat\",\"106\",\"805431\",\"0.0-106.0\",\"\",\"\",\"2-4\",\"4292\",\"38\",\"1\",\"Training\",\"Stims/Figures/19-J-10-4.bmp\",\"sasaza\",\"Down\",\"38\",\"7\",\"7\",\"3B\",\"C2\",\"J\",\"103\"
\"\",\"\",\"approach-retreat\",\"107\",\"811238\",\"0.0-107.0\",\"\",\"\",\"2-4\",\"4303\",\"38\",\"1\",\"Training\",\"Stims/Figures/100-C-30-3.bmp\",\"fa:fasha\",\"Up\",\"38\",\"7\",\"8\",\"3B\",\"C1\",\"J\",\"104\"
\"\",\"\",\"approach-retreat\",\"108\",\"817221\",\"0.0-108.0\",\"\",\"\",\"2-4\",\"4477\",\"39\",\"1\",\"Training\",\"Stims/Figures/7-C-20-4.bmp\",\"fa:fasha\",\"Right\",\"39\",\"7\",\"9\",\"3B\",\"C1\",\"J\",\"105\"
\"\",\"\",\"approach-retreat\",\"109\",\"822923\",\"0.0-109.0\",\"\",\"\",\"2-4\",\"4197\",\"37\",\"1\",\"Training\",\"Stims/Figures/19-C-20-4.bmp\",\"fa:fasha\",\"Left\",\"37\",\"7\",\"10\",\"3B\",\"C1\",\"J\",\"106\"
\"\",\"\",\"approach-retreat\",\"110\",\"828518\",\"0.0-110.0\",\"\",\"\",\"2-4\",\"4090\",\"38\",\"1\",\"Training\",\"Stims/Figures/84-C-20-2.bmp\",\"fa:fasha\",\"Up\",\"38\",\"7\",\"11\",\"3B\",\"C1\",\"J\",\"107\"
\"\",\"\",\"approach-retreat\",\"111\",\"834051\",\"0.0-111.0\",\"\",\"\",\"2-4\",\"4027\",\"37\",\"1\",\"Training\",\"Stims/Figures/57-J-0-1.bmp\",\"sasaza\",\"Right\",\"37\",\"7\",\"12\",\"3B\",\"C2\",\"J\",\"108\"
\"\",\"\",\"approach-retreat\",\"112\",\"839825\",\"0.0-112.0\",\"\",\"\",\"2-4\",\"4270\",\"37\",\"1\",\"Training\",\"Stims/Figures/93-C-30-1.bmp\",\"fa:fasha\",\"Left\",\"37\",\"7\",\"13\",\"3B\",\"C1\",\"J\",\"109\"
\"\",\"\",\"approach-retreat\",\"113\",\"845602\",\"0.0-113.0\",\"\",\"\",\"2-4\",\"4272\",\"39\",\"1\",\"Training\",\"Stims/Figures/118-C-20-2.bmp\",\"fa:fasha\",\"Right\",\"39\",\"7\",\"14\",\"3B\",\"C1\",\"J\",\"110\"
\"\",\"\",\"approach-retreat\",\"114\",\"851689\",\"0.0-114.0\",\"\",\"\",\"2-4\",\"4583\",\"38\",\"1\",\"Training\",\"Stims/Figures/128-J-10-3.bmp\",\"sasaza\",\"Down\",\"38\",\"7\",\"15\",\"3B\",\"C2\",\"J\",\"111\"
\"\",\"\",\"approach-retreat\",\"115\",\"857333\",\"0.0-115.0\",\"\",\"\",\"2-4\",\"4139\",\"40\",\"1\",\"Training\",\"Stims/Figures/93-J-0-1.bmp\",\"sasaza\",\"Up\",\"40\",\"7\",\"16\",\"3B\",\"C2\",\"J\",\"112\"
\"\",\"\",\"approach-retreat\",\"116\",\"863214\",\"0.0-116.0\",\"\",\"\",\"2-4\",\"4377\",\"38\",\"1\",\"Training\",\"Stims/Figures/57-J-0-1.bmp\",\"sasaza\",\"Down\",\"38\",\"8\",\"1\",\"3B\",\"C2\",\"J\",\"113\"
\"\",\"\",\"approach-retreat\",\"117\",\"869278\",\"0.0-117.0\",\"\",\"\",\"2-4\",\"4558\",\"38\",\"1\",\"Training\",\"Stims/Figures/118-C-20-2.bmp\",\"fa:fasha\",\"Up\",\"38\",\"8\",\"2\",\"3B\",\"C1\",\"J\",\"114\"
\"\",\"\",\"approach-retreat\",\"118\",\"874857\",\"0.0-118.0\",\"\",\"\",\"2-4\",\"4075\",\"38\",\"1\",\"Training\",\"Stims/Figures/84-C-20-2.bmp\",\"fa:fasha\",\"Up\",\"38\",\"8\",\"3\",\"3B\",\"C1\",\"J\",\"115\"
\"\",\"\",\"approach-retreat\",\"119\",\"880413\",\"0.0-119.0\",\"\",\"\",\"2-4\",\"4049\",\"38\",\"1\",\"Training\",\"Stims/Figures/57-C-30-1.bmp\",\"fa:fasha\",\"Up\",\"38\",\"8\",\"4\",\"3B\",\"C1\",\"J\",\"116\"
\"\",\"\",\"approach-retreat\",\"120\",\"886392\",\"0.0-120.0\",\"\",\"\",\"2-4\",\"4476\",\"39\",\"1\",\"Training\",\"Stims/Figures/100-J-10-3.bmp\",\"sasaza\",\"Left\",\"39\",\"8\",\"5\",\"3B\",\"C2\",\"J\",\"117\"
\"\",\"\",\"approach-retreat\",\"121\",\"892061\",\"0.0-121.0\",\"\",\"\",\"2-4\",\"4163\",\"40\",\"1\",\"Training\",\"Stims/Figures/93-C-30-1.bmp\",\"fa:fasha\",\"Down\",\"40\",\"8\",\"6\",\"3B\",\"C1\",\"J\",\"118\"
\"\",\"\",\"approach-retreat\",\"122\",\"898158\",\"0.0-122.0\",\"\",\"\",\"2-4\",\"4592\",\"40\",\"1\",\"Training\",\"Stims/Figures/93-J-0-1.bmp\",\"sasaza\",\"Up\",\"40\",\"8\",\"7\",\"3B\",\"C2\",\"J\",\"119\"
\"\",\"\",\"approach-retreat\",\"123\",\"903707\",\"0.0-123.0\",\"\",\"\",\"2-4\",\"4046\",\"39\",\"1\",\"Training\",\"Stims/Figures/7-C-20-4.bmp\",\"fa:fasha\",\"Right\",\"39\",\"8\",\"8\",\"3B\",\"C1\",\"J\",\"120\"
\"\",\"\",\"approach-retreat\",\"124\",\"909381\",\"0.0-124.0\",\"\",\"\",\"2-4\",\"4167\",\"39\",\"1\",\"Training\",\"Stims/Figures/19-J-10-4.bmp\",\"sasaza\",\"Left\",\"39\",\"8\",\"9\",\"3B\",\"C2\",\"J\",\"121\"
\"\",\"\",\"approach-retreat\",\"125\",\"914997\",\"0.0-125.0\",\"\",\"\",\"2-4\",\"4110\",\"39\",\"1\",\"Training\",\"Stims/Figures/128-C-30-3.bmp\",\"fa:fasha\",\"Right\",\"39\",\"8\",\"10\",\"3B\",\"C1\",\"J\",\"122\"
\"\",\"\",\"approach-retreat\",\"126\",\"920825\",\"0.0-126.0\",\"\",\"\",\"2-4\",\"4323\",\"37\",\"1\",\"Training\",\"Stims/Figures/84-J-0-2.bmp\",\"sasaza\",\"Right\",\"37\",\"8\",\"11\",\"3B\",\"C2\",\"J\",\"123\"
\"\",\"\",\"approach-retreat\",\"127\",\"926478\",\"0.0-127.0\",\"\",\"\",\"2-4\",\"4148\",\"39\",\"1\",\"Training\",\"Stims/Figures/7-J-10-4.bmp\",\"sasaza\",\"Left\",\"39\",\"8\",\"12\",\"3B\",\"C2\",\"J\",\"124\"
\"\",\"\",\"approach-retreat\",\"128\",\"932661\",\"0.0-128.0\",\"\",\"\",\"2-4\",\"4678\",\"40\",\"1\",\"Training\",\"Stims/Figures/19-C-20-4.bmp\",\"fa:fasha\",\"Down\",\"40\",\"8\",\"13\",\"3B\",\"C1\",\"J\",\"125\"
\"\",\"\",\"approach-retreat\",\"129\",\"938473\",\"0.0-129.0\",\"\",\"\",\"2-4\",\"4307\",\"37\",\"1\",\"Training\",\"Stims/Figures/100-C-30-3.bmp\",\"fa:fasha\",\"Left\",\"37\",\"8\",\"14\",\"3B\",\"C1\",\"J\",\"126\"
\"\",\"\",\"approach-retreat\",\"130\",\"944037\",\"0.0-130.0\",\"\",\"\",\"2-4\",\"4060\",\"37\",\"1\",\"Training\",\"Stims/Figures/118-J-0-2.bmp\",\"sasaza\",\"Right\",\"37\",\"8\",\"15\",\"3B\",\"C2\",\"J\",\"127\"
\"\",\"\",\"approach-retreat\",\"131\",\"949732\",\"0.0-131.0\",\"\",\"\",\"2-4\",\"4190\",\"38\",\"1\",\"Training\",\"Stims/Figures/128-J-10-3.bmp\",\"sasaza\",\"Down\",\"38\",\"8\",\"16\",\"3B\",\"C2\",\"J\",\"128\"
\"\",\"\",\"approach-retreat\",\"132\",\"955332\",\"0.0-132.0\",\"\",\"\",\"2-4\",\"4095\",\"39\",\"1\",\"Training\",\"Stims/Figures/7-C-20-4.bmp\",\"fa:fasha\",\"Right\",\"39\",\"9\",\"1\",\"3B\",\"C1\",\"J\",\"129\"
\"\",\"\",\"approach-retreat\",\"133\",\"960823\",\"0.0-133.0\",\"\",\"\",\"2-4\",\"3987\",\"37\",\"1\",\"Training\",\"Stims/Figures/19-J-10-4.bmp\",\"sasaza\",\"Right\",\"37\",\"9\",\"2\",\"3B\",\"C2\",\"J\",\"130\"
\"\",\"\",\"approach-retreat\",\"134\",\"966904\",\"0.0-134.0\",\"\",\"\",\"2-4\",\"4576\",\"39\",\"1\",\"Training\",\"Stims/Figures/118-C-20-2.bmp\",\"fa:fasha\",\"Right\",\"39\",\"9\",\"3\",\"3B\",\"C1\",\"J\",\"131\"
\"\",\"\",\"approach-retreat\",\"135\",\"972705\",\"0.0-135.0\",\"\",\"\",\"2-4\",\"4296\",\"40\",\"1\",\"Training\",\"Stims/Figures/93-C-30-1.bmp\",\"fa:fasha\",\"Down\",\"40\",\"9\",\"4\",\"3B\",\"C1\",\"J\",\"132\"
\"\",\"\",\"approach-retreat\",\"136\",\"978465\",\"0.0-136.0\",\"\",\"\",\"2-4\",\"4257\",\"39\",\"1\",\"Training\",\"Stims/Figures/100-J-10-3.bmp\",\"sasaza\",\"Left\",\"39\",\"9\",\"5\",\"3B\",\"C2\",\"J\",\"133\"
\"\",\"\",\"approach-retreat\",\"137\",\"984401\",\"0.0-137.0\",\"\",\"\",\"2-4\",\"4431\",\"40\",\"1\",\"Training\",\"Stims/Figures/19-C-20-4.bmp\",\"fa:fasha\",\"Down\",\"40\",\"9\",\"6\",\"3B\",\"C1\",\"J\",\"134\"
\"\",\"\",\"approach-retreat\",\"138\",\"989936\",\"0.0-138.0\",\"\",\"\",\"2-4\",\"4030\",\"39\",\"1\",\"Training\",\"Stims/Figures/93-J-0-1.bmp\",\"sasaza\",\"Left\",\"39\",\"9\",\"7\",\"3B\",\"C2\",\"J\",\"135\"
\"\",\"\",\"approach-retreat\",\"139\",\"995543\",\"0.0-139.0\",\"\",\"\",\"2-4\",\"4101\",\"37\",\"1\",\"Training\",\"Stims/Figures/128-C-30-3.bmp\",\"fa:fasha\",\"Left\",\"37\",\"9\",\"8\",\"3B\",\"C1\",\"J\",\"136\"
\"\",\"\",\"approach-retreat\",\"140\",\"1001164\",\"0.0-140.0\",\"\",\"\",\"2-4\",\"4117\",\"37\",\"1\",\"Training\",\"Stims/Figures/100-C-30-3.bmp\",\"fa:fasha\",\"Left\",\"37\",\"9\",\"9\",\"3B\",\"C1\",\"J\",\"137\"
\"\",\"\",\"approach-retreat\",\"141\",\"1006824\",\"0.0-141.0\",\"\",\"\",\"2-4\",\"4157\",\"40\",\"1\",\"Training\",\"Stims/Figures/57-J-0-1.bmp\",\"sasaza\",\"Up\",\"40\",\"9\",\"10\",\"3B\",\"C2\",\"J\",\"138\"
\"\",\"\",\"approach-retreat\",\"142\",\"1013105\",\"0.0-142.0\",\"\",\"\",\"2-4\",\"4775\",\"40\",\"1\",\"Training\",\"Stims/Figures/84-J-0-2.bmp\",\"sasaza\",\"Up\",\"40\",\"9\",\"11\",\"3B\",\"C2\",\"J\",\"139\"
\"\",\"\",\"approach-retreat\",\"143\",\"1018793\",\"0.0-143.0\",\"\",\"\",\"2-4\",\"4183\",\"38\",\"1\",\"Training\",\"Stims/Figures/128-J-10-3.bmp\",\"sasaza\",\"Down\",\"38\",\"9\",\"12\",\"3B\",\"C2\",\"J\",\"140\"
\"\",\"\",\"approach-retreat\",\"144\",\"1024450\",\"0.0-144.0\",\"\",\"\",\"2-4\",\"4152\",\"40\",\"1\",\"Training\",\"Stims/Figures/118-J-0-2.bmp\",\"sasaza\",\"Up\",\"40\",\"9\",\"13\",\"3B\",\"C2\",\"J\",\"141\"
\"\",\"\",\"approach-retreat\",\"145\",\"1030133\",\"0.0-145.0\",\"\",\"\",\"2-4\",\"4178\",\"39\",\"1\",\"Training\",\"Stims/Figures/84-C-20-2.bmp\",\"fa:fasha\",\"Right\",\"39\",\"9\",\"14\",\"3B\",\"C1\",\"J\",\"142\"
\"\",\"\",\"approach-retreat\",\"146\",\"1035771\",\"0.0-146.0\",\"\",\"\",\"2-4\",\"4134\",\"40\",\"1\",\"Training\",\"Stims/Figures/57-C-30-1.bmp\",\"fa:fasha\",\"Down\",\"40\",\"9\",\"15\",\"3B\",\"C1\",\"J\",\"143\"
\"\",\"\",\"approach-retreat\",\"147\",\"1041351\",\"0.0-147.0\",\"\",\"\",\"2-4\",\"4076\",\"40\",\"1\",\"Training\",\"Stims/Figures/7-J-10-4.bmp\",\"sasaza\",\"Up\",\"40\",\"9\",\"16\",\"3B\",\"C2\",\"J\",\"144\"
\"25571\",\"\",\"instructions\",\"148\",\"1066922\",\"0.0-148.0\",\"[{\"\"page_index\"\":0,\"\"viewing_time\"\":25571}]\",\"\",\"\",\"\",\"\",\"\",\"\",\"\",\"\",\"\",\"\",\"\",\"\",\"\",\"\",\"\",\"\"
\"\",\"\",\"approach-retreat\",\"149\",\"1076296\",\"0.0-149.0\",\"\",\"\",\"2-4\",\"7870\",\"39\",\"1\",\"Testing\",\"Stims/Figures/118-C-20-2.bmp\",\"fa:fasha\",\"Right\",\"39\",\"1\",\"1\",\"3B\",\"C1\",\"J\",\"1\"
\"\",\"\",\"approach-retreat\",\"150\",\"1082412\",\"0.0-150.0\",\"\",\"\",\"2-4\",\"4611\",\"40\",\"1\",\"Testing\",\"Stims/Figures/94-J-0-2.bmp\",\"sasaza\",\"Up\",\"40\",\"1\",\"2\",\"3B\",\"C2\",\"J\",\"2\"
\"\",\"\",\"approach-retreat\",\"151\",\"1088676\",\"0.0-151.0\",\"\",\"\",\"2-4\",\"4760\",\"38\",\"0\",\"Testing\",\"Stims/Figures/7-C-20-4.bmp\",\"fa:fasha\",\"Down\",\"40\",\"1\",\"3\",\"3B\",\"C1\",\"J\",\"3\"
\"\",\"\",\"approach-retreat\",\"152\",\"1094661\",\"0.0-152.0\",\"\",\"\",\"2-4\",\"4482\",\"40\",\"0\",\"Testing\",\"Stims/Figures/144-C-30-3.bmp\",\"fa:fasha\",\"Up\",\"38\",\"1\",\"4\",\"3B\",\"C1\",\"J\",\"4\"
\"\",\"\",\"approach-retreat\",\"153\",\"1100476\",\"0.0-153.0\",\"\",\"\",\"2-4\",\"4311\",\"38\",\"1\",\"Testing\",\"Stims/Figures/118-J-0-2.bmp\",\"sasaza\",\"Down\",\"38\",\"1\",\"5\",\"3B\",\"C2\",\"J\",\"5\"
\"\",\"\",\"approach-retreat\",\"154\",\"1106295\",\"0.0-154.0\",\"\",\"\",\"2-4\",\"4316\",\"40\",\"0\",\"Testing\",\"Stims/Figures/86-C-30-1.bmp\",\"fa:fasha\",\"Up\",\"38\",\"1\",\"6\",\"3B\",\"C1\",\"J\",\"6\"
\"\",\"\",\"approach-retreat\",\"155\",\"1112009\",\"0.0-155.0\",\"\",\"\",\"2-4\",\"4210\",\"40\",\"0\",\"Testing\",\"Stims/Figures/84-C-20-2.bmp\",\"fa:fasha\",\"Up\",\"38\",\"1\",\"7\",\"3B\",\"C1\",\"J\",\"7\"
\"\",\"\",\"approach-retreat\",\"156\",\"1117890\",\"0.0-156.0\",\"\",\"\",\"2-4\",\"4377\",\"37\",\"0\",\"Testing\",\"Stims/Figures/57-J-0-1.bmp\",\"sasaza\",\"Left\",\"39\",\"1\",\"8\",\"3B\",\"C2\",\"J\",\"8\"
\"\",\"\",\"approach-retreat\",\"157\",\"1123602\",\"0.0-157.0\",\"\",\"\",\"2-4\",\"4208\",\"37\",\"0\",\"Testing\",\"Stims/Figures/100-C-30-3.bmp\",\"fa:fasha\",\"Right\",\"39\",\"1\",\"9\",\"3B\",\"C1\",\"J\",\"9\"
\"\",\"\",\"approach-retreat\",\"158\",\"1129272\",\"0.0-158.0\",\"\",\"\",\"2-4\",\"4166\",\"40\",\"1\",\"Testing\",\"Stims/Figures/144-J-10-3.bmp\",\"sasaza\",\"Up\",\"40\",\"1\",\"10\",\"3B\",\"C2\",\"J\",\"10\"
\"\",\"\",\"approach-retreat\",\"159\",\"1134955\",\"0.0-159.0\",\"\",\"\",\"2-4\",\"4180\",\"39\",\"0\",\"Testing\",\"Stims/Figures/128-J-10-3.bmp\",\"sasaza\",\"Right\",\"37\",\"1\",\"11\",\"3B\",\"C2\",\"J\",\"11\"
\"\",\"\",\"approach-retreat\",\"160\",\"1140736\",\"0.0-160.0\",\"\",\"\",\"2-4\",\"4278\",\"37\",\"1\",\"Testing\",\"Stims/Figures/93-J-0-1.bmp\",\"sasaza\",\"Right\",\"37\",\"1\",\"12\",\"3B\",\"C2\",\"J\",\"12\"
\"\",\"\",\"approach-retreat\",\"161\",\"1147217\",\"0.0-161.0\",\"\",\"\",\"2-4\",\"4978\",\"37\",\"1\",\"Testing\",\"Stims/Figures/94-C-20-2.bmp\",\"fa:fasha\",\"Left\",\"37\",\"1\",\"13\",\"3B\",\"C1\",\"J\",\"13\"
\"\",\"\",\"approach-retreat\",\"162\",\"1153033\",\"0.0-162.0\",\"\",\"\",\"2-4\",\"4310\",\"39\",\"0\",\"Testing\",\"Stims/Figures/74-C-20-4.bmp\",\"fa:fasha\",\"Left\",\"37\",\"1\",\"14\",\"3B\",\"C1\",\"J\",\"14\"
\"\",\"\",\"approach-retreat\",\"163\",\"1159330\",\"0.0-163.0\",\"\",\"\",\"2-4\",\"4793\",\"37\",\"0\",\"Testing\",\"Stims/Figures/7-J-10-4.bmp\",\"sasaza\",\"Left\",\"39\",\"1\",\"15\",\"3B\",\"C2\",\"J\",\"15\"
\"\",\"\",\"approach-retreat\",\"164\",\"1165238\",\"0.0-164.0\",\"\",\"\",\"2-4\",\"4405\",\"40\",\"1\",\"Testing\",\"Stims/Figures/128-C-30-3.bmp\",\"fa:fasha\",\"Down\",\"40\",\"1\",\"16\",\"3B\",\"C1\",\"J\",\"16\"
\"\",\"\",\"approach-retreat\",\"165\",\"1171193\",\"0.0-165.0\",\"\",\"\",\"2-4\",\"4448\",\"40\",\"0\",\"Testing\",\"Stims/Figures/19-J-10-4.bmp\",\"sasaza\",\"Down\",\"38\",\"1\",\"17\",\"3B\",\"C2\",\"J\",\"17\"
\"\",\"\",\"approach-retreat\",\"166\",\"1177109\",\"0.0-166.0\",\"\",\"\",\"2-4\",\"4412\",\"40\",\"1\",\"Testing\",\"Stims/Figures/57-C-30-1.bmp\",\"fa:fasha\",\"Down\",\"40\",\"1\",\"18\",\"3B\",\"C1\",\"J\",\"18\"
\"\",\"\",\"approach-retreat\",\"167\",\"1183484\",\"0.0-167.0\",\"\",\"\",\"2-4\",\"4868\",\"37\",\"1\",\"Testing\",\"Stims/Figures/86-J-0-1.bmp\",\"sasaza\",\"Right\",\"37\",\"1\",\"19\",\"3B\",\"C2\",\"J\",\"19\"
\"\",\"\",\"approach-retreat\",\"168\",\"1189330\",\"0.0-168.0\",\"\",\"\",\"2-4\",\"4342\",\"37\",\"1\",\"Testing\",\"Stims/Figures/19-C-20-4.bmp\",\"fa:fasha\",\"Left\",\"37\",\"1\",\"20\",\"3B\",\"C1\",\"J\",\"20\"
\"\",\"\",\"approach-retreat\",\"169\",\"1194971\",\"0.0-169.0\",\"\",\"\",\"2-4\",\"4137\",\"40\",\"0\",\"Testing\",\"Stims/Figures/84-J-0-2.bmp\",\"sasaza\",\"Down\",\"38\",\"1\",\"21\",\"3B\",\"C2\",\"J\",\"21\"
\"\",\"\",\"approach-retreat\",\"170\",\"1200823\",\"0.0-170.0\",\"\",\"\",\"2-4\",\"4348\",\"39\",\"1\",\"Testing\",\"Stims/Figures/74-J-10-4.bmp\",\"sasaza\",\"Left\",\"39\",\"1\",\"22\",\"3B\",\"C2\",\"J\",\"22\"
\"\",\"\",\"approach-retreat\",\"171\",\"1206598\",\"0.0-171.0\",\"\",\"\",\"2-4\",\"4271\",\"40\",\"0\",\"Testing\",\"Stims/Figures/93-C-30-1.bmp\",\"fa:fasha\",\"Up\",\"38\",\"1\",\"23\",\"3B\",\"C1\",\"J\",\"23\"
\"\",\"\",\"approach-retreat\",\"172\",\"1212550\",\"0.0-172.0\",\"\",\"\",\"2-4\",\"4448\",\"39\",\"0\",\"Testing\",\"Stims/Figures/100-J-10-3.bmp\",\"sasaza\",\"Right\",\"37\",\"1\",\"24\",\"3B\",\"C2\",\"J\",\"24\"
\"\",\"\",\"approach-retreat\",\"173\",\"1219267\",\"0.0-173.0\",\"\",\"\",\"2-4\",\"5214\",\"39\",\"1\",\"Testing\",\"Stims/Figures/7-J-10-4.bmp\",\"sasaza\",\"Left\",\"39\",\"2\",\"1\",\"3B\",\"C2\",\"J\",\"25\"
\"\",\"\",\"approach-retreat\",\"174\",\"1226162\",\"0.0-174.0\",\"\",\"\",\"2-4\",\"5391\",\"39\",\"0\",\"Testing\",\"Stims/Figures/19-J-10-4.bmp\",\"sasaza\",\"Right\",\"37\",\"2\",\"2\",\"3B\",\"C2\",\"J\",\"26\"
\"\",\"\",\"approach-retreat\",\"175\",\"1232123\",\"0.0-175.0\",\"\",\"\",\"2-4\",\"4456\",\"40\",\"0\",\"Testing\",\"Stims/Figures/7-C-20-4.bmp\",\"fa:fasha\",\"Up\",\"38\",\"2\",\"3\",\"3B\",\"C1\",\"J\",\"27\"
\"\",\"\",\"approach-retreat\",\"176\",\"1237850\",\"0.0-176.0\",\"\",\"\",\"2-4\",\"4223\",\"39\",\"0\",\"Testing\",\"Stims/Figures/93-C-30-1.bmp\",\"fa:fasha\",\"Left\",\"37\",\"2\",\"4\",\"3B\",\"C1\",\"J\",\"28\"
\"\",\"\",\"approach-retreat\",\"177\",\"1244665\",\"0.0-177.0\",\"\",\"\",\"2-4\",\"5311\",\"39\",\"0\",\"Testing\",\"Stims/Figures/57-J-0-1.bmp\",\"sasaza\",\"Right\",\"37\",\"2\",\"5\",\"3B\",\"C2\",\"J\",\"29\"
\"\",\"\",\"approach-retreat\",\"178\",\"1250614\",\"0.0-178.0\",\"\",\"\",\"2-4\",\"4447\",\"37\",\"0\",\"Testing\",\"Stims/Figures/84-J-0-2.bmp\",\"sasaza\",\"Left\",\"39\",\"2\",\"6\",\"3B\",\"C2\",\"J\",\"30\"
\"\",\"\",\"approach-retreat\",\"179\",\"1256907\",\"0.0-179.0\",\"\",\"\",\"2-4\",\"4789\",\"37\",\"0\",\"Testing\",\"Stims/Figures/100-C-30-3.bmp\",\"fa:fasha\",\"Right\",\"39\",\"2\",\"7\",\"3B\",\"C1\",\"J\",\"31\"
\"\",\"\",\"approach-retreat\",\"180\",\"1262944\",\"0.0-180.0\",\"\",\"\",\"2-4\",\"4534\",\"39\",\"0\",\"Testing\",\"Stims/Figures/100-J-10-3.bmp\",\"sasaza\",\"Right\",\"37\",\"2\",\"8\",\"3B\",\"C2\",\"J\",\"32\"
\"\",\"\",\"approach-retreat\",\"181\",\"1269008\",\"0.0-181.0\",\"\",\"\",\"2-4\",\"4558\",\"39\",\"0\",\"Testing\",\"Stims/Figures/144-C-30-3.bmp\",\"fa:fasha\",\"Left\",\"37\",\"2\",\"9\",\"3B\",\"C1\",\"J\",\"33\"
\"\",\"\",\"approach-retreat\",\"182\",\"1274720\",\"0.0-182.0\",\"\",\"\",\"2-4\",\"4210\",\"40\",\"0\",\"Testing\",\"Stims/Figures/19-C-20-4.bmp\",\"fa:fasha\",\"Up\",\"38\",\"2\",\"10\",\"3B\",\"C1\",\"J\",\"34\"
\"\",\"\",\"approach-retreat\",\"183\",\"1280402\",\"0.0-183.0\",\"\",\"\",\"2-4\",\"4176\",\"37\",\"0\",\"Testing\",\"Stims/Figures/94-J-0-2.bmp\",\"sasaza\",\"Left\",\"39\",\"2\",\"11\",\"3B\",\"C2\",\"J\",\"35\"
\"\",\"\",\"approach-retreat\",\"184\",\"1286250\",\"0.0-184.0\",\"\",\"\",\"2-4\",\"4346\",\"40\",\"0\",\"Testing\",\"Stims/Figures/86-J-0-1.bmp\",\"sasaza\",\"Down\",\"38\",\"2\",\"12\",\"3B\",\"C2\",\"J\",\"36\"
\"\",\"\",\"approach-retreat\",\"185\",\"1293378\",\"0.0-185.0\",\"\",\"\",\"2-4\",\"5624\",\"38\",\"1\",\"Testing\",\"Stims/Figures/128-J-10-3.bmp\",\"sasaza\",\"Down\",\"38\",\"2\",\"13\",\"3B\",\"C2\",\"J\",\"37\"
\"\",\"\",\"approach-retreat\",\"186\",\"1299866\",\"0.0-186.0\",\"\",\"\",\"2-4\",\"4985\",\"40\",\"1\",\"Testing\",\"Stims/Figures/94-C-20-2.bmp\",\"fa:fasha\",\"Down\",\"40\",\"2\",\"14\",\"3B\",\"C1\",\"J\",\"38\"
\"\",\"\",\"approach-retreat\",\"187\",\"1305772\",\"0.0-187.0\",\"\",\"\",\"2-4\",\"4404\",\"38\",\"1\",\"Testing\",\"Stims/Figures/118-C-20-2.bmp\",\"fa:fasha\",\"Up\",\"38\",\"2\",\"15\",\"3B\",\"C1\",\"J\",\"39\"
\"\",\"\",\"approach-retreat\",\"188\",\"1311762\",\"0.0-188.0\",\"\",\"\",\"2-4\",\"4486\",\"39\",\"1\",\"Testing\",\"Stims/Figures/118-J-0-2.bmp\",\"sasaza\",\"Left\",\"39\",\"2\",\"16\",\"3B\",\"C2\",\"J\",\"40\"
\"\",\"\",\"approach-retreat\",\"189\",\"1317879\",\"0.0-189.0\",\"\",\"\",\"2-4\",\"4612\",\"40\",\"0\",\"Testing\",\"Stims/Figures/74-C-20-4.bmp\",\"fa:fasha\",\"Up\",\"38\",\"2\",\"17\",\"3B\",\"C1\",\"J\",\"41\"
\"\",\"\",\"approach-retreat\",\"190\",\"1323666\",\"0.0-190.0\",\"\",\"\",\"2-4\",\"4283\",\"38\",\"0\",\"Testing\",\"Stims/Figures/128-C-30-3.bmp\",\"fa:fasha\",\"Down\",\"40\",\"2\",\"18\",\"3B\",\"C1\",\"J\",\"42\"
\"\",\"\",\"approach-retreat\",\"191\",\"1329697\",\"0.0-191.0\",\"\",\"\",\"2-4\",\"4527\",\"39\",\"0\",\"Testing\",\"Stims/Figures/144-J-10-3.bmp\",\"sasaza\",\"Right\",\"37\",\"2\",\"19\",\"3B\",\"C2\",\"J\",\"43\"
\"\",\"\",\"approach-retreat\",\"192\",\"1335695\",\"0.0-192.0\",\"\",\"\",\"2-4\",\"4494\",\"40\",\"0\",\"Testing\",\"Stims/Figures/86-C-30-1.bmp\",\"fa:fasha\",\"Up\",\"38\",\"2\",\"20\",\"3B\",\"C1\",\"J\",\"44\"
\"\",\"\",\"approach-retreat\",\"193\",\"1341467\",\"0.0-193.0\",\"\",\"\",\"2-4\",\"4267\",\"37\",\"1\",\"Testing\",\"Stims/Figures/74-J-10-4.bmp\",\"sasaza\",\"Right\",\"37\",\"2\",\"21\",\"3B\",\"C2\",\"J\",\"45\"
\"\",\"\",\"approach-retreat\",\"194\",\"1348099\",\"0.0-194.0\",\"\",\"\",\"2-4\",\"5128\",\"40\",\"1\",\"Testing\",\"Stims/Figures/93-J-0-1.bmp\",\"sasaza\",\"Up\",\"40\",\"2\",\"22\",\"3B\",\"C2\",\"J\",\"46\"
\"\",\"\",\"approach-retreat\",\"195\",\"1353874\",\"0.0-195.0\",\"\",\"\",\"2-4\",\"4271\",\"38\",\"0\",\"Testing\",\"Stims/Figures/57-C-30-1.bmp\",\"fa:fasha\",\"Down\",\"40\",\"2\",\"23\",\"3B\",\"C1\",\"J\",\"47\"
\"\",\"\",\"approach-retreat\",\"196\",\"1360217\",\"0.0-196.0\",\"\",\"\",\"2-4\",\"4839\",\"38\",\"0\",\"Testing\",\"Stims/Figures/84-C-20-2.bmp\",\"fa:fasha\",\"Down\",\"40\",\"2\",\"24\",\"3B\",\"C1\",\"J\",\"48\"
\"\",\"\",\"approach-retreat\",\"197\",\"1365979\",\"0.0-197.0\",\"\",\"\",\"2-4\",\"4258\",\"37\",\"0\",\"Testing\",\"Stims/Figures/144-C-30-3.bmp\",\"fa:fasha\",\"Right\",\"39\",\"3\",\"1\",\"3B\",\"C1\",\"J\",\"49\"
\"\",\"\",\"approach-retreat\",\"198\",\"1371718\",\"0.0-198.0\",\"\",\"\",\"2-4\",\"4235\",\"40\",\"1\",\"Testing\",\"Stims/Figures/57-J-0-1.bmp\",\"sasaza\",\"Up\",\"40\",\"3\",\"2\",\"3B\",\"C2\",\"J\",\"50\"
\"\",\"\",\"approach-retreat\",\"199\",\"1377563\",\"0.0-199.0\",\"\",\"\",\"2-4\",\"4341\",\"38\",\"1\",\"Testing\",\"Stims/Figures/118-J-0-2.bmp\",\"sasaza\",\"Down\",\"38\",\"3\",\"3\",\"3B\",\"C2\",\"J\",\"51\"
\"\",\"\",\"approach-retreat\",\"200\",\"1383524\",\"0.0-200.0\",\"\",\"\",\"2-4\",\"4457\",\"38\",\"0\",\"Testing\",\"Stims/Figures/74-C-20-4.bmp\",\"fa:fasha\",\"Down\",\"40\",\"3\",\"4\",\"3B\",\"C1\",\"J\",\"52\"
\"\",\"\",\"approach-retreat\",\"201\",\"1389313\",\"0.0-201.0\",\"\",\"\",\"2-4\",\"4285\",\"40\",\"1\",\"Testing\",\"Stims/Figures/100-C-30-3.bmp\",\"fa:fasha\",\"Down\",\"40\",\"3\",\"5\",\"3B\",\"C1\",\"J\",\"53\"
\"\",\"\",\"approach-retreat\",\"202\",\"1395039\",\"0.0-202.0\",\"\",\"\",\"2-4\",\"4225\",\"37\",\"1\",\"Testing\",\"Stims/Figures/93-C-30-1.bmp\",\"fa:fasha\",\"Left\",\"37\",\"3\",\"6\",\"3B\",\"C1\",\"J\",\"54\"
\"\",\"\",\"approach-retreat\",\"203\",\"1400740\",\"0.0-203.0\",\"\",\"\",\"2-4\",\"4197\",\"40\",\"1\",\"Testing\",\"Stims/Figures/57-C-30-1.bmp\",\"fa:fasha\",\"Down\",\"40\",\"3\",\"7\",\"3B\",\"C1\",\"J\",\"55\"
\"\",\"\",\"approach-retreat\",\"204\",\"1406598\",\"0.0-204.0\",\"\",\"\",\"2-4\",\"4355\",\"40\",\"1\",\"Testing\",\"Stims/Figures/86-C-30-1.bmp\",\"fa:fasha\",\"Down\",\"40\",\"3\",\"8\",\"3B\",\"C1\",\"J\",\"56\"
\"\",\"\",\"approach-retreat\",\"205\",\"1412883\",\"0.0-205.0\",\"\",\"\",\"2-4\",\"4780\",\"38\",\"0\",\"Testing\",\"Stims/Figures/84-C-20-2.bmp\",\"fa:fasha\",\"Down\",\"40\",\"3\",\"9\",\"3B\",\"C1\",\"J\",\"57\"
\"\",\"\",\"approach-retreat\",\"206\",\"1419364\",\"0.0-206.0\",\"\",\"\",\"2-4\",\"4978\",\"40\",\"1\",\"Testing\",\"Stims/Figures/144-J-10-3.bmp\",\"sasaza\",\"Up\",\"40\",\"3\",\"10\",\"3B\",\"C2\",\"J\",\"58\"
\"\",\"\",\"approach-retreat\",\"207\",\"1425173\",\"0.0-207.0\",\"\",\"\",\"2-4\",\"4305\",\"39\",\"0\",\"Testing\",\"Stims/Figures/93-J-0-1.bmp\",\"sasaza\",\"Right\",\"37\",\"3\",\"11\",\"3B\",\"C2\",\"J\",\"59\"
\"\",\"\",\"approach-retreat\",\"208\",\"1430953\",\"0.0-208.0\",\"\",\"\",\"2-4\",\"4275\",\"37\",\"1\",\"Testing\",\"Stims/Figures/7-C-20-4.bmp\",\"fa:fasha\",\"Left\",\"37\",\"3\",\"12\",\"3B\",\"C1\",\"J\",\"60\"
\"\",\"\",\"approach-retreat\",\"209\",\"1436872\",\"0.0-209.0\",\"\",\"\",\"2-4\",\"4417\",\"37\",\"0\",\"Testing\",\"Stims/Figures/84-J-0-2.bmp\",\"sasaza\",\"Left\",\"39\",\"3\",\"13\",\"3B\",\"C2\",\"J\",\"61\"
\"\",\"\",\"approach-retreat\",\"210\",\"1442856\",\"0.0-210.0\",\"\",\"\",\"2-4\",\"4481\",\"40\",\"0\",\"Testing\",\"Stims/Figures/94-C-20-2.bmp\",\"fa:fasha\",\"Up\",\"38\",\"3\",\"14\",\"3B\",\"C1\",\"J\",\"62\"
\"\",\"\",\"approach-retreat\",\"211\",\"1448595\",\"0.0-211.0\",\"\",\"\",\"2-4\",\"4234\",\"39\",\"0\",\"Testing\",\"Stims/Figures/94-J-0-2.bmp\",\"sasaza\",\"Right\",\"37\",\"3\",\"15\",\"3B\",\"C2\",\"J\",\"63\"
\"\",\"\",\"approach-retreat\",\"212\",\"1454291\",\"0.0-212.0\",\"\",\"\",\"2-4\",\"4193\",\"37\",\"1\",\"Testing\",\"Stims/Figures/19-C-20-4.bmp\",\"fa:fasha\",\"Left\",\"37\",\"3\",\"16\",\"3B\",\"C1\",\"J\",\"64\"
\"\",\"\",\"approach-retreat\",\"213\",\"1459951\",\"0.0-213.0\",\"\",\"\",\"2-4\",\"4156\",\"37\",\"1\",\"Testing\",\"Stims/Figures/118-C-20-2.bmp\",\"fa:fasha\",\"Left\",\"37\",\"3\",\"17\",\"3B\",\"C1\",\"J\",\"65\"
\"\",\"\",\"approach-retreat\",\"214\",\"1465817\",\"0.0-214.0\",\"\",\"\",\"2-4\",\"4361\",\"39\",\"1\",\"Testing\",\"Stims/Figures/100-J-10-3.bmp\",\"sasaza\",\"Left\",\"39\",\"3\",\"18\",\"3B\",\"C2\",\"J\",\"66\"
\"\",\"\",\"approach-retreat\",\"215\",\"1471699\",\"0.0-215.0\",\"\",\"\",\"2-4\",\"4380\",\"37\",\"0\",\"Testing\",\"Stims/Figures/128-C-30-3.bmp\",\"fa:fasha\",\"Right\",\"39\",\"3\",\"19\",\"3B\",\"C1\",\"J\",\"67\"
\"\",\"\",\"approach-retreat\",\"216\",\"1477599\",\"0.0-216.0\",\"\",\"\",\"2-4\",\"4395\",\"37\",\"1\",\"Testing\",\"Stims/Figures/7-J-10-4.bmp\",\"sasaza\",\"Right\",\"37\",\"3\",\"20\",\"3B\",\"C2\",\"J\",\"68\"
\"\",\"\",\"approach-retreat\",\"217\",\"1485199\",\"0.0-217.0\",\"\",\"\",\"2-4\",\"6094\",\"37\",\"1\",\"Testing\",\"Stims/Figures/128-J-10-3.bmp\",\"sasaza\",\"Right\",\"37\",\"3\",\"21\",\"3B\",\"C2\",\"J\",\"69\"
\"\",\"\",\"approach-retreat\",\"218\",\"1491094\",\"0.0-218.0\",\"\",\"\",\"2-4\",\"4391\",\"38\",\"0\",\"Testing\",\"Stims/Figures/19-J-10-4.bmp\",\"sasaza\",\"Up\",\"40\",\"3\",\"22\",\"3B\",\"C2\",\"J\",\"70\"
\"\",\"\",\"approach-retreat\",\"219\",\"1497217\",\"0.0-219.0\",\"\",\"\",\"2-4\",\"4619\",\"40\",\"1\",\"Testing\",\"Stims/Figures/86-J-0-1.bmp\",\"sasaza\",\"Up\",\"40\",\"3\",\"23\",\"3B\",\"C2\",\"J\",\"71\"
\"\",\"\",\"approach-retreat\",\"220\",\"1502926\",\"0.0-220.0\",\"\",\"\",\"2-4\",\"4205\",\"40\",\"1\",\"Testing\",\"Stims/Figures/74-J-10-4.bmp\",\"sasaza\",\"Up\",\"40\",\"3\",\"24\",\"3B\",\"C2\",\"J\",\"72\"
\"\",\"\",\"approach-retreat\",\"221\",\"1508718\",\"0.0-221.0\",\"\",\"\",\"2-4\",\"4288\",\"37\",\"1\",\"Testing\",\"Stims/Figures/86-J-0-1.bmp\",\"sasaza\",\"Right\",\"37\",\"4\",\"1\",\"3B\",\"C2\",\"J\",\"73\"
\"\",\"\",\"approach-retreat\",\"222\",\"1514453\",\"0.0-222.0\",\"\",\"\",\"2-4\",\"4231\",\"39\",\"0\",\"Testing\",\"Stims/Figures/84-C-20-2.bmp\",\"fa:fasha\",\"Left\",\"37\",\"4\",\"2\",\"3B\",\"C1\",\"J\",\"74\"
\"\",\"\",\"approach-retreat\",\"223\",\"1520123\",\"0.0-223.0\",\"\",\"\",\"2-4\",\"4166\",\"39\",\"1\",\"Testing\",\"Stims/Figures/144-J-10-3.bmp\",\"sasaza\",\"Left\",\"39\",\"4\",\"3\",\"3B\",\"C2\",\"J\",\"75\"
\"\",\"\",\"approach-retreat\",\"224\",\"1526587\",\"0.0-224.0\",\"\",\"\",\"2-4\",\"4962\",\"38\",\"1\",\"Testing\",\"Stims/Figures/84-J-0-2.bmp\",\"sasaza\",\"Down\",\"38\",\"4\",\"4\",\"3B\",\"C2\",\"J\",\"76\"
\"\",\"\",\"approach-retreat\",\"225\",\"1532492\",\"0.0-225.0\",\"\",\"\",\"2-4\",\"4401\",\"38\",\"1\",\"Testing\",\"Stims/Figures/94-J-0-2.bmp\",\"sasaza\",\"Down\",\"38\",\"4\",\"5\",\"3B\",\"C2\",\"J\",\"77\"
\"\",\"\",\"approach-retreat\",\"226\",\"1539638\",\"0.0-226.0\",\"\",\"\",\"2-4\",\"5643\",\"40\",\"0\",\"Testing\",\"Stims/Figures/86-C-30-1.bmp\",\"fa:fasha\",\"Up\",\"38\",\"4\",\"6\",\"3B\",\"C1\",\"J\",\"78\"
\"\",\"\",\"approach-retreat\",\"227\",\"1545473\",\"0.0-227.0\",\"\",\"\",\"2-4\",\"4333\",\"39\",\"1\",\"Testing\",\"Stims/Figures/118-J-0-2.bmp\",\"sasaza\",\"Left\",\"39\",\"4\",\"7\",\"3B\",\"C2\",\"J\",\"79\"
\"\",\"\",\"approach-retreat\",\"228\",\"1551257\",\"0.0-228.0\",\"\",\"\",\"2-4\",\"4281\",\"40\",\"0\",\"Testing\",\"Stims/Figures/118-C-20-2.bmp\",\"fa:fasha\",\"Up\",\"38\",\"4\",\"8\",\"3B\",\"C1\",\"J\",\"80\"
\"\",\"\",\"approach-retreat\",\"229\",\"1557196\",\"0.0-229.0\",\"\",\"\",\"2-4\",\"4435\",\"37\",\"0\",\"Testing\",\"Stims/Figures/74-C-20-4.bmp\",\"fa:fasha\",\"Right\",\"39\",\"4\",\"9\",\"3B\",\"C1\",\"J\",\"81\"
\"\",\"\",\"approach-retreat\",\"230\",\"1563273\",\"0.0-230.0\",\"\",\"\",\"2-4\",\"4576\",\"39\",\"0\",\"Testing\",\"Stims/Figures/94-C-20-2.bmp\",\"fa:fasha\",\"Left\",\"37\",\"4\",\"10\",\"3B\",\"C1\",\"J\",\"82\"
\"\",\"\",\"approach-retreat\",\"231\",\"1569054\",\"0.0-231.0\",\"\",\"\",\"2-4\",\"4276\",\"37\",\"1\",\"Testing\",\"Stims/Figures/57-J-0-1.bmp\",\"sasaza\",\"Right\",\"37\",\"4\",\"11\",\"3B\",\"C2\",\"J\",\"83\"
\"\",\"\",\"approach-retreat\",\"232\",\"1575490\",\"0.0-232.0\",\"\",\"\",\"2-4\",\"4930\",\"37\",\"0\",\"Testing\",\"Stims/Figures/19-C-20-4.bmp\",\"fa:fasha\",\"Right\",\"39\",\"4\",\"12\",\"3B\",\"C1\",\"J\",\"84\"
\"\",\"\",\"approach-retreat\",\"233\",\"1581262\",\"0.0-233.0\",\"\",\"\",\"2-4\",\"4268\",\"37\",\"1\",\"Testing\",\"Stims/Figures/128-J-10-3.bmp\",\"sasaza\",\"Right\",\"37\",\"4\",\"13\",\"3B\",\"C2\",\"J\",\"85\"
\"\",\"\",\"approach-retreat\",\"234\",\"1586939\",\"0.0-234.0\",\"\",\"\",\"2-4\",\"4174\",\"40\",\"0\",\"Testing\",\"Stims/Figures/128-C-30-3.bmp\",\"fa:fasha\",\"Up\",\"38\",\"4\",\"14\",\"3B\",\"C1\",\"J\",\"86\"
\"\",\"\",\"approach-retreat\",\"235\",\"1592854\",\"0.0-235.0\",\"\",\"\",\"2-4\",\"4411\",\"38\",\"1\",\"Testing\",\"Stims/Figures/7-J-10-4.bmp\",\"sasaza\",\"Down\",\"38\",\"4\",\"15\",\"3B\",\"C2\",\"J\",\"87\"
\"\",\"\",\"approach-retreat\",\"236\",\"1599791\",\"0.0-236.0\",\"\",\"\",\"2-4\",\"5432\",\"40\",\"1\",\"Testing\",\"Stims/Figures/100-J-10-3.bmp\",\"sasaza\",\"Up\",\"40\",\"4\",\"16\",\"3B\",\"C2\",\"J\",\"88\"
\"\",\"\",\"approach-retreat\",\"237\",\"1606451\",\"0.0-237.0\",\"\",\"\",\"2-4\",\"5156\",\"38\",\"0\",\"Testing\",\"Stims/Figures/93-C-30-1.bmp\",\"fa:fasha\",\"Down\",\"40\",\"4\",\"17\",\"3B\",\"C1\",\"J\",\"89\"
\"\",\"\",\"approach-retreat\",\"238\",\"1612258\",\"0.0-238.0\",\"\",\"\",\"2-4\",\"4302\",\"40\",\"0\",\"Testing\",\"Stims/Figures/144-C-30-3.bmp\",\"fa:fasha\",\"Up\",\"38\",\"4\",\"18\",\"3B\",\"C1\",\"J\",\"90\"
\"\",\"\",\"approach-retreat\",\"239\",\"1618186\",\"0.0-239.0\",\"\",\"\",\"2-4\",\"4424\",\"38\",\"1\",\"Testing\",\"Stims/Figures/74-J-10-4.bmp\",\"sasaza\",\"Down\",\"38\",\"4\",\"19\",\"3B\",\"C2\",\"J\",\"91\"
\"\",\"\",\"approach-retreat\",\"240\",\"1624157\",\"0.0-240.0\",\"\",\"\",\"2-4\",\"4466\",\"40\",\"0\",\"Testing\",\"Stims/Figures/100-C-30-3.bmp\",\"fa:fasha\",\"Up\",\"38\",\"4\",\"20\",\"3B\",\"C1\",\"J\",\"92\"
\"\",\"\",\"approach-retreat\",\"241\",\"1630124\",\"0.0-241.0\",\"\",\"\",\"2-4\",\"4463\",\"37\",\"1\",\"Testing\",\"Stims/Figures/19-J-10-4.bmp\",\"sasaza\",\"Right\",\"37\",\"4\",\"21\",\"3B\",\"C2\",\"J\",\"93\"
\"\",\"\",\"approach-retreat\",\"242\",\"1635697\",\"0.0-242.0\",\"\",\"\",\"2-4\",\"4070\",\"38\",\"0\",\"Testing\",\"Stims/Figures/7-C-20-4.bmp\",\"fa:fasha\",\"Down\",\"40\",\"4\",\"22\",\"3B\",\"C1\",\"J\",\"94\"
\"\",\"\",\"approach-retreat\",\"243\",\"1641544\",\"0.0-243.0\",\"\",\"\",\"2-4\",\"4344\",\"39\",\"0\",\"Testing\",\"Stims/Figures/57-C-30-1.bmp\",\"fa:fasha\",\"Left\",\"37\",\"4\",\"23\",\"3B\",\"C1\",\"J\",\"95\"
\"\",\"\",\"approach-retreat\",\"244\",\"1647484\",\"0.0-244.0\",\"\",\"\",\"2-4\",\"4435\",\"37\",\"0\",\"Testing\",\"Stims/Figures/93-J-0-1.bmp\",\"sasaza\",\"Left\",\"39\",\"4\",\"24\",\"3B\",\"C2\",\"J\",\"96\"
\"32858\",\"\",\"survey-text\",\"245\",\"1680346\",\"0.0-245.0\",\"\",\"{\"\"Q0\"\":\"\"1255/2017\"\"}\",\"\",\"\",\"\",\"\",\"\",\"\",\"\",\"\",\"\",\"\",\"\",\"\",\"\",\"\",\"\"
