\"rt\",\"key_press\",\"trial_type\",\"trial_index\",\"time_elapsed\",\"internal_node_id\",\"view_history\",\"responses\",\"Id\",\"Rt\",\"ResKeyCode\",\"ResCorr\",\"TrialType2\",\"Image\",\"Label\",\"Location\",\"CorrectResponse\",\"Block\",\"BlockTrial\",\"Condition\",\"LabelType\",\"Subcondition\",\"trialNum\"
\"3767\",\"32\",\"text\",\"0\",\"3774\",\"0.0-0.0-0.0\",\"\",\"\",\"\",\"\",\"\",\"\",\"\",\"\",\"\",\"\",\"\",\"\",\"\",\"\",\"\",\"\",\"\"
\"2601\",\"\",\"instructions\",\"1\",\"6380\",\"0.0-1.0\",\"[{\"\"page_index\"\":0,\"\"viewing_time\"\":2600}]\",\"\",\"\",\"\",\"\",\"\",\"\",\"\",\"\",\"\",\"\",\"\",\"\",\"\",\"\",\"\",\"\"
\"6198\",\"\",\"survey-multi-choice\",\"2\",\"12628\",\"0.0-2.0\",\"\",\"{\"\"Q0\"\":\"\"Da\"\",\"\"Q1\"\":\"\"Da\"\",\"\"Q2\"\":\"\"Da\"\",\"\"Q3\"\":\"\"Da\"\",\"\"Q4\"\":\"\"Da\"\",\"\"Q5\"\":\"\"Da\"\"}\",\"\",\"\",\"\",\"\",\"\",\"\",\"\",\"\",\"\",\"\",\"\",\"\",\"\",\"\",\"\"
\"\",\"\",\"bio\",\"3\",\"18914\",\"0.0-3.0\",\"\",\"{\"\"age\"\":\"\"20\"\",\"\"gender\"\":\"\"f\"\",\"\"specify\"\":\"\"\"\"}\",\"\",\"\",\"\",\"\",\"\",\"\",\"\",\"\",\"\",\"\",\"\",\"\",\"\",\"\",\"\"
\"\",\"\",\"approach-retreat\",\"4\",\"25319\",\"0.0-4.0\",\"\",\"\",\"1-4\",\"4889\",\"39\",\"1\",\"Training\",\"Stims/Figures/44-J-10-3.bmp\",\"fafa:va\",\"Right\",\"39\",\"1\",\"1\",\"3A\",\"C1\",\"C\",\"1\"
\"\",\"\",\"approach-retreat\",\"5\",\"33429\",\"0.0-5.0\",\"\",\"\",\"1-4\",\"6600\",\"39\",\"1\",\"Training\",\"Stims/Figures/84-C-20-2.bmp\",\"za:sa:za\",\"Left\",\"39\",\"1\",\"2\",\"3A\",\"C2\",\"C\",\"2\"
\"\",\"\",\"approach-retreat\",\"6\",\"41668\",\"0.0-6.0\",\"\",\"\",\"1-4\",\"6730\",\"38\",\"1\",\"Training\",\"Stims/Figures/27-J-0-1.bmp\",\"fafa:va\",\"Up\",\"38\",\"1\",\"3\",\"3A\",\"C1\",\"C\",\"3\"
\"\",\"\",\"approach-retreat\",\"7\",\"48845\",\"0.0-7.0\",\"\",\"\",\"1-4\",\"5666\",\"40\",\"1\",\"Training\",\"Stims/Figures/27-C-30-1.bmp\",\"za:sa:za\",\"Up\",\"40\",\"1\",\"4\",\"3A\",\"C2\",\"C\",\"4\"
\"\",\"\",\"approach-retreat\",\"8\",\"55308\",\"0.0-8.0\",\"\",\"\",\"1-4\",\"4954\",\"38\",\"1\",\"Training\",\"Stims/Figures/19-C-20-4.bmp\",\"za:sa:za\",\"Down\",\"38\",\"1\",\"5\",\"3A\",\"C2\",\"C\",\"5\"
\"\",\"\",\"approach-retreat\",\"9\",\"62845\",\"0.0-9.0\",\"\",\"\",\"1-4\",\"6027\",\"37\",\"1\",\"Training\",\"Stims/Figures/44-C-30-3.bmp\",\"za:sa:za\",\"Right\",\"37\",\"1\",\"6\",\"3A\",\"C2\",\"C\",\"6\"
\"\",\"\",\"approach-retreat\",\"10\",\"69325\",\"0.0-10.0\",\"\",\"\",\"1-4\",\"4970\",\"37\",\"1\",\"Training\",\"Stims/Figures/84-J-0-2.bmp\",\"fafa:va\",\"Left\",\"37\",\"1\",\"7\",\"3A\",\"C1\",\"C\",\"7\"
\"\",\"\",\"approach-retreat\",\"11\",\"75508\",\"0.0-11.0\",\"\",\"\",\"1-4\",\"4674\",\"37\",\"1\",\"Training\",\"Stims/Figures/93-C-30-1.bmp\",\"za:sa:za\",\"Right\",\"37\",\"1\",\"8\",\"3A\",\"C2\",\"C\",\"8\"
\"\",\"\",\"approach-retreat\",\"12\",\"81651\",\"0.0-12.0\",\"\",\"\",\"1-4\",\"4634\",\"37\",\"1\",\"Training\",\"Stims/Figures/7-J-10-4.bmp\",\"fafa:va\",\"Left\",\"37\",\"1\",\"9\",\"3A\",\"C1\",\"C\",\"9\"
\"\",\"\",\"approach-retreat\",\"13\",\"87771\",\"0.0-13.0\",\"\",\"\",\"1-4\",\"4612\",\"40\",\"1\",\"Training\",\"Stims/Figures/118-C-20-2.bmp\",\"za:sa:za\",\"Up\",\"40\",\"1\",\"10\",\"3A\",\"C2\",\"C\",\"10\"
\"\",\"\",\"approach-retreat\",\"14\",\"96828\",\"0.0-14.0\",\"\",\"\",\"1-4\",\"7545\",\"39\",\"1\",\"Training\",\"Stims/Figures/118-J-0-2.bmp\",\"fafa:va\",\"Right\",\"39\",\"1\",\"11\",\"3A\",\"C1\",\"C\",\"11\"
\"\",\"\",\"approach-retreat\",\"15\",\"103363\",\"0.0-15.0\",\"\",\"\",\"1-4\",\"5026\",\"39\",\"1\",\"Training\",\"Stims/Figures/7-C-20-4.bmp\",\"za:sa:za\",\"Left\",\"39\",\"1\",\"12\",\"3A\",\"C2\",\"C\",\"12\"
\"\",\"\",\"approach-retreat\",\"16\",\"109356\",\"0.0-16.0\",\"\",\"\",\"1-4\",\"4484\",\"40\",\"1\",\"Training\",\"Stims/Figures/19-J-10-4.bmp\",\"fafa:va\",\"Down\",\"40\",\"1\",\"13\",\"3A\",\"C1\",\"C\",\"13\"
\"\",\"\",\"approach-retreat\",\"17\",\"115274\",\"0.0-17.0\",\"\",\"\",\"1-4\",\"4409\",\"40\",\"1\",\"Training\",\"Stims/Figures/93-J-0-1.bmp\",\"fafa:va\",\"Down\",\"40\",\"1\",\"14\",\"3A\",\"C1\",\"C\",\"14\"
\"\",\"\",\"approach-retreat\",\"18\",\"121067\",\"0.0-18.0\",\"\",\"\",\"1-4\",\"4286\",\"38\",\"1\",\"Training\",\"Stims/Figures/128-C-30-3.bmp\",\"za:sa:za\",\"Down\",\"38\",\"1\",\"15\",\"3A\",\"C2\",\"C\",\"15\"
\"\",\"\",\"approach-retreat\",\"19\",\"127274\",\"0.0-19.0\",\"\",\"\",\"1-4\",\"4698\",\"38\",\"1\",\"Training\",\"Stims/Figures/128-J-10-3.bmp\",\"fafa:va\",\"Up\",\"38\",\"1\",\"16\",\"3A\",\"C1\",\"C\",\"16\"
\"\",\"\",\"approach-retreat\",\"20\",\"133449\",\"0.0-20.0\",\"\",\"\",\"1-4\",\"4669\",\"39\",\"1\",\"Training\",\"Stims/Figures/84-J-0-2.bmp\",\"fafa:va\",\"Right\",\"39\",\"2\",\"1\",\"3A\",\"C1\",\"C\",\"17\"
\"\",\"\",\"approach-retreat\",\"21\",\"141305\",\"0.0-21.0\",\"\",\"\",\"1-4\",\"6346\",\"40\",\"1\",\"Training\",\"Stims/Figures/44-J-10-3.bmp\",\"fafa:va\",\"Down\",\"40\",\"2\",\"2\",\"3A\",\"C1\",\"C\",\"18\"
\"\",\"\",\"approach-retreat\",\"22\",\"147025\",\"0.0-22.0\",\"\",\"\",\"1-4\",\"4213\",\"38\",\"1\",\"Training\",\"Stims/Figures/19-J-10-4.bmp\",\"fafa:va\",\"Up\",\"38\",\"2\",\"3\",\"3A\",\"C1\",\"C\",\"19\"
\"\",\"\",\"approach-retreat\",\"23\",\"164897\",\"0.0-23.0\",\"\",\"\",\"1-4\",\"16366\",\"38\",\"1\",\"Training\",\"Stims/Figures/7-C-20-4.bmp\",\"za:sa:za\",\"Down\",\"38\",\"2\",\"4\",\"3A\",\"C2\",\"C\",\"20\"
\"\",\"\",\"approach-retreat\",\"24\",\"171065\",\"0.0-24.0\",\"\",\"\",\"1-4\",\"4654\",\"37\",\"1\",\"Training\",\"Stims/Figures/93-J-0-1.bmp\",\"fafa:va\",\"Left\",\"37\",\"2\",\"5\",\"3A\",\"C1\",\"C\",\"21\"
\"\",\"\",\"approach-retreat\",\"25\",\"177104\",\"0.0-25.0\",\"\",\"\",\"1-4\",\"4532\",\"38\",\"1\",\"Training\",\"Stims/Figures/128-C-30-3.bmp\",\"za:sa:za\",\"Down\",\"38\",\"2\",\"6\",\"3A\",\"C2\",\"C\",\"22\"
\"\",\"\",\"approach-retreat\",\"26\",\"191808\",\"0.0-26.0\",\"\",\"\",\"1-4\",\"13196\",\"40\",\"1\",\"Training\",\"Stims/Figures/84-C-20-2.bmp\",\"za:sa:za\",\"Up\",\"40\",\"2\",\"7\",\"3A\",\"C2\",\"C\",\"23\"
\"\",\"\",\"approach-retreat\",\"27\",\"198168\",\"0.0-27.0\",\"\",\"\",\"1-4\",\"4853\",\"39\",\"1\",\"Training\",\"Stims/Figures/44-C-30-3.bmp\",\"za:sa:za\",\"Left\",\"39\",\"2\",\"8\",\"3A\",\"C2\",\"C\",\"24\"
\"\",\"\",\"approach-retreat\",\"28\",\"210735\",\"0.0-28.0\",\"\",\"\",\"1-4\",\"11061\",\"39\",\"1\",\"Training\",\"Stims/Figures/118-J-0-2.bmp\",\"fafa:va\",\"Right\",\"39\",\"2\",\"9\",\"3A\",\"C1\",\"C\",\"25\"
\"\",\"\",\"approach-retreat\",\"29\",\"224823\",\"0.0-29.0\",\"\",\"\",\"1-4\",\"12582\",\"40\",\"1\",\"Training\",\"Stims/Figures/27-C-30-1.bmp\",\"za:sa:za\",\"Up\",\"40\",\"2\",\"10\",\"3A\",\"C2\",\"C\",\"26\"
\"\",\"\",\"approach-retreat\",\"30\",\"231247\",\"0.0-30.0\",\"\",\"\",\"1-4\",\"4917\",\"37\",\"1\",\"Training\",\"Stims/Figures/27-J-0-1.bmp\",\"fafa:va\",\"Left\",\"37\",\"2\",\"11\",\"3A\",\"C1\",\"C\",\"27\"
\"\",\"\",\"approach-retreat\",\"31\",\"238014\",\"0.0-31.0\",\"\",\"\",\"1-4\",\"5260\",\"40\",\"1\",\"Training\",\"Stims/Figures/128-J-10-3.bmp\",\"fafa:va\",\"Down\",\"40\",\"2\",\"12\",\"3A\",\"C1\",\"C\",\"28\"
\"\",\"\",\"approach-retreat\",\"32\",\"244191\",\"0.0-32.0\",\"\",\"\",\"1-4\",\"4668\",\"39\",\"1\",\"Training\",\"Stims/Figures/7-J-10-4.bmp\",\"fafa:va\",\"Right\",\"39\",\"2\",\"13\",\"3A\",\"C1\",\"C\",\"29\"
\"\",\"\",\"approach-retreat\",\"33\",\"249975\",\"0.0-33.0\",\"\",\"\",\"1-4\",\"4277\",\"37\",\"1\",\"Training\",\"Stims/Figures/93-C-30-1.bmp\",\"za:sa:za\",\"Right\",\"37\",\"2\",\"14\",\"3A\",\"C2\",\"C\",\"30\"
\"\",\"\",\"approach-retreat\",\"34\",\"255662\",\"0.0-34.0\",\"\",\"\",\"1-4\",\"4182\",\"39\",\"1\",\"Training\",\"Stims/Figures/118-C-20-2.bmp\",\"za:sa:za\",\"Left\",\"39\",\"2\",\"15\",\"3A\",\"C2\",\"C\",\"31\"
\"\",\"\",\"approach-retreat\",\"35\",\"261334\",\"0.0-35.0\",\"\",\"\",\"1-4\",\"4166\",\"40\",\"1\",\"Training\",\"Stims/Figures/19-C-20-4.bmp\",\"za:sa:za\",\"Up\",\"40\",\"2\",\"16\",\"3A\",\"C2\",\"C\",\"32\"
\"\",\"\",\"approach-retreat\",\"36\",\"266886\",\"0.0-36.0\",\"\",\"\",\"1-4\",\"4046\",\"38\",\"1\",\"Training\",\"Stims/Figures/19-C-20-4.bmp\",\"za:sa:za\",\"Down\",\"38\",\"3\",\"1\",\"3A\",\"C2\",\"C\",\"33\"
\"\",\"\",\"approach-retreat\",\"37\",\"272663\",\"0.0-37.0\",\"\",\"\",\"1-4\",\"4257\",\"37\",\"1\",\"Training\",\"Stims/Figures/128-C-30-3.bmp\",\"za:sa:za\",\"Right\",\"37\",\"3\",\"2\",\"3A\",\"C2\",\"C\",\"34\"
\"\",\"\",\"approach-retreat\",\"38\",\"278430\",\"0.0-38.0\",\"\",\"\",\"1-4\",\"4259\",\"37\",\"1\",\"Training\",\"Stims/Figures/93-J-0-1.bmp\",\"fafa:va\",\"Left\",\"37\",\"3\",\"3\",\"3A\",\"C1\",\"C\",\"35\"
\"\",\"\",\"approach-retreat\",\"39\",\"283942\",\"0.0-39.0\",\"\",\"\",\"1-4\",\"4005\",\"37\",\"0\",\"Training\",\"Stims/Figures/27-J-0-1.bmp\",\"fafa:va\",\"Right\",\"39\",\"3\",\"4\",\"3A\",\"C1\",\"C\",\"36\"
\"\",\"\",\"approach-retreat\",\"40\",\"289605\",\"0.0-40.0\",\"\",\"\",\"1-4\",\"4157\",\"40\",\"1\",\"Training\",\"Stims/Figures/84-J-0-2.bmp\",\"fafa:va\",\"Down\",\"40\",\"3\",\"5\",\"3A\",\"C1\",\"C\",\"37\"
\"\",\"\",\"approach-retreat\",\"41\",\"295277\",\"0.0-41.0\",\"\",\"\",\"1-4\",\"4165\",\"40\",\"1\",\"Training\",\"Stims/Figures/7-C-20-4.bmp\",\"za:sa:za\",\"Up\",\"40\",\"3\",\"6\",\"3A\",\"C2\",\"C\",\"38\"
\"\",\"\",\"approach-retreat\",\"42\",\"300846\",\"0.0-42.0\",\"\",\"\",\"1-4\",\"4061\",\"38\",\"1\",\"Training\",\"Stims/Figures/118-C-20-2.bmp\",\"za:sa:za\",\"Down\",\"38\",\"3\",\"7\",\"3A\",\"C2\",\"C\",\"39\"
\"\",\"\",\"approach-retreat\",\"43\",\"308837\",\"0.0-43.0\",\"\",\"\",\"1-4\",\"6485\",\"38\",\"1\",\"Training\",\"Stims/Figures/19-J-10-4.bmp\",\"fafa:va\",\"Up\",\"38\",\"3\",\"8\",\"3A\",\"C1\",\"C\",\"40\"
\"\",\"\",\"approach-retreat\",\"44\",\"314533\",\"0.0-44.0\",\"\",\"\",\"1-4\",\"4190\",\"40\",\"1\",\"Training\",\"Stims/Figures/27-C-30-1.bmp\",\"za:sa:za\",\"Up\",\"40\",\"3\",\"9\",\"3A\",\"C2\",\"C\",\"41\"
\"\",\"\",\"approach-retreat\",\"45\",\"320237\",\"0.0-45.0\",\"\",\"\",\"1-4\",\"4197\",\"39\",\"1\",\"Training\",\"Stims/Figures/128-J-10-3.bmp\",\"fafa:va\",\"Right\",\"39\",\"3\",\"10\",\"3A\",\"C1\",\"C\",\"42\"
\"\",\"\",\"approach-retreat\",\"46\",\"326189\",\"0.0-46.0\",\"\",\"\",\"1-4\",\"4444\",\"37\",\"1\",\"Training\",\"Stims/Figures/84-C-20-2.bmp\",\"za:sa:za\",\"Right\",\"37\",\"3\",\"11\",\"3A\",\"C2\",\"C\",\"43\"
\"\",\"\",\"approach-retreat\",\"47\",\"332309\",\"0.0-47.0\",\"\",\"\",\"1-4\",\"4614\",\"39\",\"1\",\"Training\",\"Stims/Figures/93-C-30-1.bmp\",\"za:sa:za\",\"Left\",\"39\",\"3\",\"12\",\"3A\",\"C2\",\"C\",\"44\"
\"\",\"\",\"approach-retreat\",\"48\",\"338397\",\"0.0-48.0\",\"\",\"\",\"1-4\",\"4581\",\"37\",\"1\",\"Training\",\"Stims/Figures/44-J-10-3.bmp\",\"fafa:va\",\"Left\",\"37\",\"3\",\"13\",\"3A\",\"C1\",\"C\",\"45\"
\"\",\"\",\"approach-retreat\",\"49\",\"344037\",\"0.0-49.0\",\"\",\"\",\"1-4\",\"4133\",\"40\",\"1\",\"Training\",\"Stims/Figures/44-C-30-3.bmp\",\"za:sa:za\",\"Up\",\"40\",\"3\",\"14\",\"3A\",\"C2\",\"C\",\"46\"
\"\",\"\",\"approach-retreat\",\"50\",\"349988\",\"0.0-50.0\",\"\",\"\",\"1-4\",\"4445\",\"37\",\"1\",\"Training\",\"Stims/Figures/7-J-10-4.bmp\",\"fafa:va\",\"Left\",\"37\",\"3\",\"15\",\"3A\",\"C1\",\"C\",\"47\"
\"\",\"\",\"approach-retreat\",\"51\",\"355524\",\"0.0-51.0\",\"\",\"\",\"1-4\",\"4030\",\"40\",\"1\",\"Training\",\"Stims/Figures/118-J-0-2.bmp\",\"fafa:va\",\"Down\",\"40\",\"3\",\"16\",\"3A\",\"C1\",\"C\",\"48\"
\"\",\"\",\"approach-retreat\",\"52\",\"361204\",\"0.0-52.0\",\"\",\"\",\"1-4\",\"4173\",\"40\",\"1\",\"Training\",\"Stims/Figures/84-C-20-2.bmp\",\"za:sa:za\",\"Up\",\"40\",\"4\",\"1\",\"3A\",\"C2\",\"C\",\"49\"
\"\",\"\",\"approach-retreat\",\"53\",\"366948\",\"0.0-53.0\",\"\",\"\",\"1-4\",\"4238\",\"39\",\"1\",\"Training\",\"Stims/Figures/19-C-20-4.bmp\",\"za:sa:za\",\"Left\",\"39\",\"4\",\"2\",\"3A\",\"C2\",\"C\",\"50\"
\"\",\"\",\"approach-retreat\",\"54\",\"372588\",\"0.0-54.0\",\"\",\"\",\"1-4\",\"4133\",\"38\",\"1\",\"Training\",\"Stims/Figures/7-C-20-4.bmp\",\"za:sa:za\",\"Down\",\"38\",\"4\",\"3\",\"3A\",\"C2\",\"C\",\"51\"
\"\",\"\",\"approach-retreat\",\"55\",\"378291\",\"0.0-55.0\",\"\",\"\",\"1-4\",\"4197\",\"39\",\"1\",\"Training\",\"Stims/Figures/7-J-10-4.bmp\",\"fafa:va\",\"Right\",\"39\",\"4\",\"4\",\"3A\",\"C1\",\"C\",\"52\"
\"\",\"\",\"approach-retreat\",\"56\",\"384267\",\"0.0-56.0\",\"\",\"\",\"1-4\",\"4470\",\"39\",\"1\",\"Training\",\"Stims/Figures/128-C-30-3.bmp\",\"za:sa:za\",\"Left\",\"39\",\"4\",\"5\",\"3A\",\"C2\",\"C\",\"53\"
\"\",\"\",\"approach-retreat\",\"57\",\"390452\",\"0.0-57.0\",\"\",\"\",\"1-4\",\"4678\",\"39\",\"1\",\"Training\",\"Stims/Figures/19-J-10-4.bmp\",\"fafa:va\",\"Right\",\"39\",\"4\",\"6\",\"3A\",\"C1\",\"C\",\"54\"
\"\",\"\",\"approach-retreat\",\"58\",\"396035\",\"0.0-58.0\",\"\",\"\",\"1-4\",\"4077\",\"40\",\"1\",\"Training\",\"Stims/Figures/128-J-10-3.bmp\",\"fafa:va\",\"Down\",\"40\",\"4\",\"7\",\"3A\",\"C1\",\"C\",\"55\"
\"\",\"\",\"approach-retreat\",\"59\",\"401939\",\"0.0-59.0\",\"\",\"\",\"1-4\",\"4374\",\"39\",\"1\",\"Training\",\"Stims/Figures/118-J-0-2.bmp\",\"fafa:va\",\"Right\",\"39\",\"4\",\"8\",\"3A\",\"C1\",\"C\",\"56\"
\"\",\"\",\"approach-retreat\",\"60\",\"407674\",\"0.0-60.0\",\"\",\"\",\"1-4\",\"4232\",\"39\",\"1\",\"Training\",\"Stims/Figures/93-C-30-1.bmp\",\"za:sa:za\",\"Left\",\"39\",\"4\",\"9\",\"3A\",\"C2\",\"C\",\"57\"
\"\",\"\",\"approach-retreat\",\"61\",\"413931\",\"0.0-61.0\",\"\",\"\",\"1-4\",\"4750\",\"40\",\"1\",\"Training\",\"Stims/Figures/93-J-0-1.bmp\",\"fafa:va\",\"Down\",\"40\",\"4\",\"10\",\"3A\",\"C1\",\"C\",\"58\"
\"\",\"\",\"approach-retreat\",\"62\",\"419603\",\"0.0-62.0\",\"\",\"\",\"1-4\",\"4165\",\"39\",\"1\",\"Training\",\"Stims/Figures/44-J-10-3.bmp\",\"fafa:va\",\"Right\",\"39\",\"4\",\"11\",\"3A\",\"C1\",\"C\",\"59\"
\"\",\"\",\"approach-retreat\",\"63\",\"425515\",\"0.0-63.0\",\"\",\"\",\"1-4\",\"4402\",\"40\",\"1\",\"Training\",\"Stims/Figures/84-J-0-2.bmp\",\"fafa:va\",\"Down\",\"40\",\"4\",\"12\",\"3A\",\"C1\",\"C\",\"60\"
\"\",\"\",\"approach-retreat\",\"64\",\"431236\",\"0.0-64.0\",\"\",\"\",\"1-4\",\"4212\",\"40\",\"1\",\"Training\",\"Stims/Figures/27-C-30-1.bmp\",\"za:sa:za\",\"Up\",\"40\",\"4\",\"13\",\"3A\",\"C2\",\"C\",\"61\"
\"\",\"\",\"approach-retreat\",\"65\",\"436899\",\"0.0-65.0\",\"\",\"\",\"1-4\",\"4158\",\"40\",\"1\",\"Training\",\"Stims/Figures/118-C-20-2.bmp\",\"za:sa:za\",\"Up\",\"40\",\"4\",\"14\",\"3A\",\"C2\",\"C\",\"62\"
\"\",\"\",\"approach-retreat\",\"66\",\"442619\",\"0.0-66.0\",\"\",\"\",\"1-4\",\"4214\",\"40\",\"1\",\"Training\",\"Stims/Figures/44-C-30-3.bmp\",\"za:sa:za\",\"Up\",\"40\",\"4\",\"15\",\"3A\",\"C2\",\"C\",\"63\"
\"\",\"\",\"approach-retreat\",\"67\",\"448562\",\"0.0-67.0\",\"\",\"\",\"1-4\",\"4438\",\"37\",\"1\",\"Training\",\"Stims/Figures/27-J-0-1.bmp\",\"fafa:va\",\"Left\",\"37\",\"4\",\"16\",\"3A\",\"C1\",\"C\",\"64\"
\"\",\"\",\"approach-retreat\",\"68\",\"454090\",\"0.0-68.0\",\"\",\"\",\"1-4\",\"4021\",\"40\",\"1\",\"Training\",\"Stims/Figures/27-C-30-1.bmp\",\"za:sa:za\",\"Up\",\"40\",\"5\",\"1\",\"3A\",\"C2\",\"C\",\"65\"
\"\",\"\",\"approach-retreat\",\"69\",\"459810\",\"0.0-69.0\",\"\",\"\",\"1-4\",\"4214\",\"39\",\"1\",\"Training\",\"Stims/Figures/118-J-0-2.bmp\",\"fafa:va\",\"Right\",\"39\",\"5\",\"2\",\"3A\",\"C1\",\"C\",\"66\"
\"\",\"\",\"approach-retreat\",\"70\",\"465426\",\"0.0-70.0\",\"\",\"\",\"1-4\",\"4109\",\"38\",\"1\",\"Training\",\"Stims/Figures/93-J-0-1.bmp\",\"fafa:va\",\"Up\",\"38\",\"5\",\"3\",\"3A\",\"C1\",\"C\",\"67\"
\"\",\"\",\"approach-retreat\",\"71\",\"471082\",\"0.0-71.0\",\"\",\"\",\"1-4\",\"4149\",\"37\",\"1\",\"Training\",\"Stims/Figures/7-C-20-4.bmp\",\"za:sa:za\",\"Right\",\"37\",\"5\",\"4\",\"3A\",\"C2\",\"C\",\"68\"
\"\",\"\",\"approach-retreat\",\"72\",\"476914\",\"0.0-72.0\",\"\",\"\",\"1-4\",\"4323\",\"40\",\"1\",\"Training\",\"Stims/Figures/128-J-10-3.bmp\",\"fafa:va\",\"Down\",\"40\",\"5\",\"5\",\"3A\",\"C1\",\"C\",\"69\"
\"\",\"\",\"approach-retreat\",\"73\",\"482682\",\"0.0-73.0\",\"\",\"\",\"1-4\",\"4260\",\"40\",\"1\",\"Training\",\"Stims/Figures/84-J-0-2.bmp\",\"fafa:va\",\"Down\",\"40\",\"5\",\"6\",\"3A\",\"C1\",\"C\",\"70\"
\"\",\"\",\"approach-retreat\",\"74\",\"488761\",\"0.0-74.0\",\"\",\"\",\"1-4\",\"4573\",\"37\",\"1\",\"Training\",\"Stims/Figures/19-J-10-4.bmp\",\"fafa:va\",\"Left\",\"37\",\"5\",\"7\",\"3A\",\"C1\",\"C\",\"71\"
\"\",\"\",\"approach-retreat\",\"75\",\"494489\",\"0.0-75.0\",\"\",\"\",\"1-4\",\"4222\",\"39\",\"1\",\"Training\",\"Stims/Figures/7-J-10-4.bmp\",\"fafa:va\",\"Right\",\"39\",\"5\",\"8\",\"3A\",\"C1\",\"C\",\"72\"
\"\",\"\",\"approach-retreat\",\"76\",\"500402\",\"0.0-76.0\",\"\",\"\",\"1-4\",\"4405\",\"39\",\"1\",\"Training\",\"Stims/Figures/44-C-30-3.bmp\",\"za:sa:za\",\"Left\",\"39\",\"5\",\"9\",\"3A\",\"C2\",\"C\",\"73\"
\"\",\"\",\"approach-retreat\",\"77\",\"505962\",\"0.0-77.0\",\"\",\"\",\"1-4\",\"4054\",\"40\",\"1\",\"Training\",\"Stims/Figures/44-J-10-3.bmp\",\"fafa:va\",\"Down\",\"40\",\"5\",\"10\",\"3A\",\"C1\",\"C\",\"74\"
\"\",\"\",\"approach-retreat\",\"78\",\"511961\",\"0.0-78.0\",\"\",\"\",\"1-4\",\"4493\",\"40\",\"1\",\"Training\",\"Stims/Figures/118-C-20-2.bmp\",\"za:sa:za\",\"Up\",\"40\",\"5\",\"11\",\"3A\",\"C2\",\"C\",\"75\"
\"\",\"\",\"approach-retreat\",\"79\",\"517641\",\"0.0-79.0\",\"\",\"\",\"1-4\",\"4174\",\"37\",\"1\",\"Training\",\"Stims/Figures/27-J-0-1.bmp\",\"fafa:va\",\"Left\",\"37\",\"5\",\"12\",\"3A\",\"C1\",\"C\",\"76\"
\"\",\"\",\"approach-retreat\",\"80\",\"523305\",\"0.0-80.0\",\"\",\"\",\"1-4\",\"4157\",\"38\",\"1\",\"Training\",\"Stims/Figures/93-C-30-1.bmp\",\"za:sa:za\",\"Down\",\"38\",\"5\",\"13\",\"3A\",\"C2\",\"C\",\"77\"
\"\",\"\",\"approach-retreat\",\"81\",\"528922\",\"0.0-81.0\",\"\",\"\",\"1-4\",\"4111\",\"37\",\"1\",\"Training\",\"Stims/Figures/84-C-20-2.bmp\",\"za:sa:za\",\"Right\",\"37\",\"5\",\"14\",\"3A\",\"C2\",\"C\",\"78\"
\"\",\"\",\"approach-retreat\",\"82\",\"534608\",\"0.0-82.0\",\"\",\"\",\"1-4\",\"4179\",\"39\",\"1\",\"Training\",\"Stims/Figures/128-C-30-3.bmp\",\"za:sa:za\",\"Left\",\"39\",\"5\",\"15\",\"3A\",\"C2\",\"C\",\"79\"
\"\",\"\",\"approach-retreat\",\"83\",\"540217\",\"0.0-83.0\",\"\",\"\",\"1-4\",\"4103\",\"40\",\"1\",\"Training\",\"Stims/Figures/19-C-20-4.bmp\",\"za:sa:za\",\"Up\",\"40\",\"5\",\"16\",\"3A\",\"C2\",\"C\",\"80\"
\"\",\"\",\"approach-retreat\",\"84\",\"545968\",\"0.0-84.0\",\"\",\"\",\"1-4\",\"4246\",\"40\",\"1\",\"Training\",\"Stims/Figures/93-J-0-1.bmp\",\"fafa:va\",\"Down\",\"40\",\"6\",\"1\",\"3A\",\"C1\",\"C\",\"81\"
\"\",\"\",\"approach-retreat\",\"85\",\"551536\",\"0.0-85.0\",\"\",\"\",\"1-4\",\"4062\",\"37\",\"1\",\"Training\",\"Stims/Figures/128-J-10-3.bmp\",\"fafa:va\",\"Left\",\"37\",\"6\",\"2\",\"3A\",\"C1\",\"C\",\"82\"
\"\",\"\",\"approach-retreat\",\"86\",\"557168\",\"0.0-86.0\",\"\",\"\",\"1-4\",\"4125\",\"40\",\"1\",\"Training\",\"Stims/Figures/118-J-0-2.bmp\",\"fafa:va\",\"Down\",\"40\",\"6\",\"3\",\"3A\",\"C1\",\"C\",\"83\"
\"\",\"\",\"approach-retreat\",\"87\",\"562752\",\"0.0-87.0\",\"\",\"\",\"1-4\",\"4077\",\"37\",\"1\",\"Training\",\"Stims/Figures/27-C-30-1.bmp\",\"za:sa:za\",\"Right\",\"37\",\"6\",\"4\",\"3A\",\"C2\",\"C\",\"84\"
\"\",\"\",\"approach-retreat\",\"88\",\"568288\",\"0.0-88.0\",\"\",\"\",\"1-4\",\"4021\",\"39\",\"1\",\"Training\",\"Stims/Figures/27-J-0-1.bmp\",\"fafa:va\",\"Right\",\"39\",\"6\",\"5\",\"3A\",\"C1\",\"C\",\"85\"
\"\",\"\",\"approach-retreat\",\"89\",\"574696\",\"0.0-89.0\",\"\",\"\",\"1-4\",\"4899\",\"38\",\"1\",\"Training\",\"Stims/Figures/84-J-0-2.bmp\",\"fafa:va\",\"Up\",\"38\",\"6\",\"6\",\"3A\",\"C1\",\"C\",\"86\"
\"\",\"\",\"approach-retreat\",\"90\",\"580319\",\"0.0-90.0\",\"\",\"\",\"1-4\",\"4116\",\"40\",\"1\",\"Training\",\"Stims/Figures/93-C-30-1.bmp\",\"za:sa:za\",\"Up\",\"40\",\"6\",\"7\",\"3A\",\"C2\",\"C\",\"87\"
\"\",\"\",\"approach-retreat\",\"91\",\"585912\",\"0.0-91.0\",\"\",\"\",\"1-4\",\"4082\",\"38\",\"1\",\"Training\",\"Stims/Figures/84-C-20-2.bmp\",\"za:sa:za\",\"Down\",\"38\",\"6\",\"8\",\"3A\",\"C2\",\"C\",\"88\"
\"\",\"\",\"approach-retreat\",\"92\",\"591543\",\"0.0-92.0\",\"\",\"\",\"1-4\",\"4124\",\"37\",\"1\",\"Training\",\"Stims/Figures/7-C-20-4.bmp\",\"za:sa:za\",\"Right\",\"37\",\"6\",\"9\",\"3A\",\"C2\",\"C\",\"89\"
\"\",\"\",\"approach-retreat\",\"93\",\"609007\",\"0.0-93.0\",\"\",\"\",\"1-4\",\"15958\",\"37\",\"1\",\"Training\",\"Stims/Figures/19-J-10-4.bmp\",\"fafa:va\",\"Left\",\"37\",\"6\",\"10\",\"3A\",\"C1\",\"C\",\"90\"
\"\",\"\",\"approach-retreat\",\"94\",\"614607\",\"0.0-94.0\",\"\",\"\",\"1-4\",\"4093\",\"37\",\"1\",\"Training\",\"Stims/Figures/118-C-20-2.bmp\",\"za:sa:za\",\"Right\",\"37\",\"6\",\"11\",\"3A\",\"C2\",\"C\",\"91\"
\"\",\"\",\"approach-retreat\",\"95\",\"620199\",\"0.0-95.0\",\"\",\"\",\"1-4\",\"4086\",\"38\",\"1\",\"Training\",\"Stims/Figures/44-C-30-3.bmp\",\"za:sa:za\",\"Down\",\"38\",\"6\",\"12\",\"3A\",\"C2\",\"C\",\"92\"
\"\",\"\",\"approach-retreat\",\"96\",\"625686\",\"0.0-96.0\",\"\",\"\",\"1-4\",\"3981\",\"37\",\"1\",\"Training\",\"Stims/Figures/44-J-10-3.bmp\",\"fafa:va\",\"Left\",\"37\",\"6\",\"13\",\"3A\",\"C1\",\"C\",\"93\"
\"\",\"\",\"approach-retreat\",\"97\",\"637358\",\"0.0-97.0\",\"\",\"\",\"1-4\",\"10166\",\"39\",\"1\",\"Training\",\"Stims/Figures/19-C-20-4.bmp\",\"za:sa:za\",\"Left\",\"39\",\"6\",\"14\",\"3A\",\"C2\",\"C\",\"94\"
\"\",\"\",\"approach-retreat\",\"98\",\"643199\",\"0.0-98.0\",\"\",\"\",\"1-4\",\"4333\",\"38\",\"1\",\"Training\",\"Stims/Figures/7-J-10-4.bmp\",\"fafa:va\",\"Up\",\"38\",\"6\",\"15\",\"3A\",\"C1\",\"C\",\"95\"
\"\",\"\",\"approach-retreat\",\"99\",\"649062\",\"0.0-99.0\",\"\",\"\",\"1-4\",\"4357\",\"40\",\"1\",\"Training\",\"Stims/Figures/128-C-30-3.bmp\",\"za:sa:za\",\"Up\",\"40\",\"6\",\"16\",\"3A\",\"C2\",\"C\",\"96\"
\"\",\"\",\"approach-retreat\",\"100\",\"654775\",\"0.0-100.0\",\"\",\"\",\"1-4\",\"4206\",\"39\",\"1\",\"Training\",\"Stims/Figures/7-C-20-4.bmp\",\"za:sa:za\",\"Left\",\"39\",\"7\",\"1\",\"3A\",\"C2\",\"C\",\"97\"
\"\",\"\",\"approach-retreat\",\"101\",\"660197\",\"0.0-101.0\",\"\",\"\",\"1-4\",\"3917\",\"37\",\"0\",\"Training\",\"Stims/Figures/7-J-10-4.bmp\",\"fafa:va\",\"Right\",\"39\",\"7\",\"2\",\"3A\",\"C1\",\"C\",\"98\"
\"\",\"\",\"approach-retreat\",\"102\",\"665701\",\"0.0-102.0\",\"\",\"\",\"1-4\",\"3998\",\"40\",\"1\",\"Training\",\"Stims/Figures/118-C-20-2.bmp\",\"za:sa:za\",\"Up\",\"40\",\"7\",\"3\",\"3A\",\"C2\",\"C\",\"99\"
\"\",\"\",\"approach-retreat\",\"103\",\"671302\",\"0.0-103.0\",\"\",\"\",\"1-4\",\"4094\",\"39\",\"1\",\"Training\",\"Stims/Figures/93-J-0-1.bmp\",\"fafa:va\",\"Right\",\"39\",\"7\",\"4\",\"3A\",\"C1\",\"C\",\"100\"
\"\",\"\",\"approach-retreat\",\"104\",\"676806\",\"0.0-104.0\",\"\",\"\",\"1-4\",\"3997\",\"38\",\"1\",\"Training\",\"Stims/Figures/44-C-30-3.bmp\",\"za:sa:za\",\"Down\",\"38\",\"7\",\"5\",\"3A\",\"C2\",\"C\",\"101\"
\"\",\"\",\"approach-retreat\",\"105\",\"683461\",\"0.0-105.0\",\"\",\"\",\"1-4\",\"5150\",\"37\",\"1\",\"Training\",\"Stims/Figures/19-J-10-4.bmp\",\"fafa:va\",\"Left\",\"37\",\"7\",\"6\",\"3A\",\"C1\",\"C\",\"102\"
\"\",\"\",\"approach-retreat\",\"106\",\"689053\",\"0.0-106.0\",\"\",\"\",\"1-4\",\"4086\",\"38\",\"1\",\"Training\",\"Stims/Figures/44-J-10-3.bmp\",\"fafa:va\",\"Up\",\"38\",\"7\",\"7\",\"3A\",\"C1\",\"C\",\"103\"
\"\",\"\",\"approach-retreat\",\"107\",\"694669\",\"0.0-107.0\",\"\",\"\",\"1-4\",\"4109\",\"37\",\"1\",\"Training\",\"Stims/Figures/84-C-20-2.bmp\",\"za:sa:za\",\"Right\",\"37\",\"7\",\"8\",\"3A\",\"C2\",\"C\",\"104\"
\"\",\"\",\"approach-retreat\",\"108\",\"700269\",\"0.0-108.0\",\"\",\"\",\"1-4\",\"4093\",\"38\",\"1\",\"Training\",\"Stims/Figures/128-C-30-3.bmp\",\"za:sa:za\",\"Down\",\"38\",\"7\",\"9\",\"3A\",\"C2\",\"C\",\"105\"
\"\",\"\",\"approach-retreat\",\"109\",\"705933\",\"0.0-109.0\",\"\",\"\",\"1-4\",\"4158\",\"40\",\"1\",\"Training\",\"Stims/Figures/93-C-30-1.bmp\",\"za:sa:za\",\"Up\",\"40\",\"7\",\"10\",\"3A\",\"C2\",\"C\",\"106\"
\"\",\"\",\"approach-retreat\",\"110\",\"711693\",\"0.0-110.0\",\"\",\"\",\"1-4\",\"4254\",\"40\",\"1\",\"Training\",\"Stims/Figures/84-J-0-2.bmp\",\"fafa:va\",\"Down\",\"40\",\"7\",\"11\",\"3A\",\"C1\",\"C\",\"107\"
\"\",\"\",\"approach-retreat\",\"111\",\"717340\",\"0.0-111.0\",\"\",\"\",\"1-4\",\"4142\",\"37\",\"1\",\"Training\",\"Stims/Figures/27-J-0-1.bmp\",\"fafa:va\",\"Left\",\"37\",\"7\",\"12\",\"3A\",\"C1\",\"C\",\"108\"
\"\",\"\",\"approach-retreat\",\"112\",\"722916\",\"0.0-112.0\",\"\",\"\",\"1-4\",\"4070\",\"39\",\"1\",\"Training\",\"Stims/Figures/19-C-20-4.bmp\",\"za:sa:za\",\"Left\",\"39\",\"7\",\"13\",\"3A\",\"C2\",\"C\",\"109\"
\"\",\"\",\"approach-retreat\",\"113\",\"728541\",\"0.0-113.0\",\"\",\"\",\"1-4\",\"4116\",\"40\",\"1\",\"Training\",\"Stims/Figures/27-C-30-1.bmp\",\"za:sa:za\",\"Up\",\"40\",\"7\",\"14\",\"3A\",\"C2\",\"C\",\"110\"
\"\",\"\",\"approach-retreat\",\"114\",\"734102\",\"0.0-114.0\",\"\",\"\",\"1-4\",\"4034\",\"40\",\"1\",\"Training\",\"Stims/Figures/128-J-10-3.bmp\",\"fafa:va\",\"Down\",\"40\",\"7\",\"15\",\"3A\",\"C1\",\"C\",\"111\"
\"\",\"\",\"approach-retreat\",\"115\",\"739652\",\"0.0-115.0\",\"\",\"\",\"1-4\",\"4044\",\"39\",\"1\",\"Training\",\"Stims/Figures/118-J-0-2.bmp\",\"fafa:va\",\"Right\",\"39\",\"7\",\"16\",\"3A\",\"C1\",\"C\",\"112\"
\"\",\"\",\"approach-retreat\",\"116\",\"745333\",\"0.0-116.0\",\"\",\"\",\"1-4\",\"4174\",\"37\",\"1\",\"Training\",\"Stims/Figures/44-C-30-3.bmp\",\"za:sa:za\",\"Right\",\"37\",\"8\",\"1\",\"3A\",\"C2\",\"C\",\"113\"
\"\",\"\",\"approach-retreat\",\"117\",\"751435\",\"0.0-117.0\",\"\",\"\",\"1-4\",\"4596\",\"38\",\"0\",\"Training\",\"Stims/Figures/44-J-10-3.bmp\",\"fafa:va\",\"Down\",\"40\",\"8\",\"2\",\"3A\",\"C1\",\"C\",\"114\"
\"\",\"\",\"approach-retreat\",\"118\",\"756996\",\"0.0-118.0\",\"\",\"\",\"1-4\",\"4054\",\"39\",\"1\",\"Training\",\"Stims/Figures/27-J-0-1.bmp\",\"fafa:va\",\"Right\",\"39\",\"8\",\"3\",\"3A\",\"C1\",\"C\",\"115\"
\"\",\"\",\"approach-retreat\",\"119\",\"762516\",\"0.0-119.0\",\"\",\"\",\"1-4\",\"4014\",\"38\",\"1\",\"Training\",\"Stims/Figures/118-C-20-2.bmp\",\"za:sa:za\",\"Down\",\"38\",\"8\",\"4\",\"3A\",\"C2\",\"C\",\"116\"
\"\",\"\",\"approach-retreat\",\"120\",\"768213\",\"0.0-120.0\",\"\",\"\",\"1-4\",\"4190\",\"39\",\"1\",\"Training\",\"Stims/Figures/7-C-20-4.bmp\",\"za:sa:za\",\"Left\",\"39\",\"8\",\"5\",\"3A\",\"C2\",\"C\",\"117\"
\"\",\"\",\"approach-retreat\",\"121\",\"774048\",\"0.0-121.0\",\"\",\"\",\"1-4\",\"4329\",\"38\",\"1\",\"Training\",\"Stims/Figures/7-J-10-4.bmp\",\"fafa:va\",\"Up\",\"38\",\"8\",\"6\",\"3A\",\"C1\",\"C\",\"118\"
\"\",\"\",\"approach-retreat\",\"122\",\"779779\",\"0.0-122.0\",\"\",\"\",\"1-4\",\"4221\",\"40\",\"1\",\"Training\",\"Stims/Figures/128-J-10-3.bmp\",\"fafa:va\",\"Down\",\"40\",\"8\",\"7\",\"3A\",\"C1\",\"C\",\"119\"
\"\",\"\",\"approach-retreat\",\"123\",\"786012\",\"0.0-123.0\",\"\",\"\",\"1-4\",\"4725\",\"39\",\"1\",\"Training\",\"Stims/Figures/93-J-0-1.bmp\",\"fafa:va\",\"Right\",\"39\",\"8\",\"8\",\"3A\",\"C1\",\"C\",\"120\"
\"\",\"\",\"approach-retreat\",\"124\",\"791667\",\"0.0-124.0\",\"\",\"\",\"1-4\",\"4148\",\"38\",\"1\",\"Training\",\"Stims/Figures/84-C-20-2.bmp\",\"za:sa:za\",\"Down\",\"38\",\"8\",\"9\",\"3A\",\"C2\",\"C\",\"121\"
\"\",\"\",\"approach-retreat\",\"125\",\"797563\",\"0.0-125.0\",\"\",\"\",\"1-4\",\"4389\",\"38\",\"1\",\"Training\",\"Stims/Figures/84-J-0-2.bmp\",\"fafa:va\",\"Up\",\"38\",\"8\",\"10\",\"3A\",\"C1\",\"C\",\"122\"
\"\",\"\",\"approach-retreat\",\"126\",\"807554\",\"0.0-126.0\",\"\",\"\",\"1-4\",\"8485\",\"38\",\"1\",\"Training\",\"Stims/Figures/19-J-10-4.bmp\",\"fafa:va\",\"Up\",\"38\",\"8\",\"11\",\"3A\",\"C1\",\"C\",\"123\"
\"\",\"\",\"approach-retreat\",\"127\",\"813979\",\"0.0-127.0\",\"\",\"\",\"1-4\",\"4918\",\"40\",\"1\",\"Training\",\"Stims/Figures/93-C-30-1.bmp\",\"za:sa:za\",\"Up\",\"40\",\"8\",\"12\",\"3A\",\"C2\",\"C\",\"124\"
\"\",\"\",\"approach-retreat\",\"128\",\"819755\",\"0.0-128.0\",\"\",\"\",\"1-4\",\"4269\",\"39\",\"1\",\"Training\",\"Stims/Figures/128-C-30-3.bmp\",\"za:sa:za\",\"Left\",\"39\",\"8\",\"13\",\"3A\",\"C2\",\"C\",\"125\"
\"\",\"\",\"approach-retreat\",\"129\",\"825306\",\"0.0-129.0\",\"\",\"\",\"1-4\",\"4045\",\"37\",\"1\",\"Training\",\"Stims/Figures/27-C-30-1.bmp\",\"za:sa:za\",\"Right\",\"37\",\"8\",\"14\",\"3A\",\"C2\",\"C\",\"126\"
\"\",\"\",\"approach-retreat\",\"130\",\"831122\",\"0.0-130.0\",\"\",\"\",\"1-4\",\"4310\",\"37\",\"1\",\"Training\",\"Stims/Figures/118-J-0-2.bmp\",\"fafa:va\",\"Left\",\"37\",\"8\",\"15\",\"3A\",\"C1\",\"C\",\"127\"
\"\",\"\",\"approach-retreat\",\"131\",\"837481\",\"0.0-131.0\",\"\",\"\",\"1-4\",\"4835\",\"39\",\"1\",\"Training\",\"Stims/Figures/19-C-20-4.bmp\",\"za:sa:za\",\"Left\",\"39\",\"8\",\"16\",\"3A\",\"C2\",\"C\",\"128\"
\"\",\"\",\"approach-retreat\",\"132\",\"843034\",\"0.0-132.0\",\"\",\"\",\"1-4\",\"4044\",\"39\",\"1\",\"Training\",\"Stims/Figures/93-C-30-1.bmp\",\"za:sa:za\",\"Left\",\"39\",\"9\",\"1\",\"3A\",\"C2\",\"C\",\"129\"
\"\",\"\",\"approach-retreat\",\"133\",\"848858\",\"0.0-133.0\",\"\",\"\",\"1-4\",\"4318\",\"39\",\"1\",\"Training\",\"Stims/Figures/19-J-10-4.bmp\",\"fafa:va\",\"Right\",\"39\",\"9\",\"2\",\"3A\",\"C1\",\"C\",\"130\"
\"\",\"\",\"approach-retreat\",\"134\",\"854817\",\"0.0-134.0\",\"\",\"\",\"1-4\",\"4453\",\"40\",\"1\",\"Training\",\"Stims/Figures/84-J-0-2.bmp\",\"fafa:va\",\"Down\",\"40\",\"9\",\"3\",\"3A\",\"C1\",\"C\",\"131\"
\"\",\"\",\"approach-retreat\",\"135\",\"860457\",\"0.0-135.0\",\"\",\"\",\"1-4\",\"4134\",\"37\",\"1\",\"Training\",\"Stims/Figures/27-C-30-1.bmp\",\"za:sa:za\",\"Right\",\"37\",\"9\",\"4\",\"3A\",\"C2\",\"C\",\"132\"
\"\",\"\",\"approach-retreat\",\"136\",\"865985\",\"0.0-136.0\",\"\",\"\",\"1-4\",\"4022\",\"37\",\"1\",\"Training\",\"Stims/Figures/44-J-10-3.bmp\",\"fafa:va\",\"Left\",\"37\",\"9\",\"5\",\"3A\",\"C1\",\"C\",\"133\"
\"\",\"\",\"approach-retreat\",\"137\",\"871570\",\"0.0-137.0\",\"\",\"\",\"1-4\",\"4077\",\"38\",\"0\",\"Training\",\"Stims/Figures/44-C-30-3.bmp\",\"za:sa:za\",\"Up\",\"40\",\"9\",\"6\",\"3A\",\"C2\",\"C\",\"134\"
\"\",\"\",\"approach-retreat\",\"138\",\"877289\",\"0.0-138.0\",\"\",\"\",\"1-4\",\"4213\",\"40\",\"1\",\"Training\",\"Stims/Figures/128-C-30-3.bmp\",\"za:sa:za\",\"Up\",\"40\",\"9\",\"7\",\"3A\",\"C2\",\"C\",\"135\"
\"\",\"\",\"approach-retreat\",\"139\",\"883146\",\"0.0-139.0\",\"\",\"\",\"1-4\",\"4339\",\"39\",\"1\",\"Training\",\"Stims/Figures/7-C-20-4.bmp\",\"za:sa:za\",\"Left\",\"39\",\"9\",\"8\",\"3A\",\"C2\",\"C\",\"136\"
\"\",\"\",\"approach-retreat\",\"140\",\"889097\",\"0.0-140.0\",\"\",\"\",\"1-4\",\"4438\",\"37\",\"1\",\"Training\",\"Stims/Figures/7-J-10-4.bmp\",\"fafa:va\",\"Left\",\"37\",\"9\",\"9\",\"3A\",\"C1\",\"C\",\"137\"
\"\",\"\",\"approach-retreat\",\"141\",\"896249\",\"0.0-141.0\",\"\",\"\",\"1-4\",\"5645\",\"39\",\"1\",\"Training\",\"Stims/Figures/27-J-0-1.bmp\",\"fafa:va\",\"Right\",\"39\",\"9\",\"10\",\"3A\",\"C1\",\"C\",\"138\"
\"\",\"\",\"approach-retreat\",\"142\",\"901921\",\"0.0-142.0\",\"\",\"\",\"1-4\",\"4166\",\"38\",\"1\",\"Training\",\"Stims/Figures/118-J-0-2.bmp\",\"fafa:va\",\"Up\",\"38\",\"9\",\"11\",\"3A\",\"C1\",\"C\",\"139\"
\"\",\"\",\"approach-retreat\",\"143\",\"907865\",\"0.0-143.0\",\"\",\"\",\"1-4\",\"4438\",\"40\",\"1\",\"Training\",\"Stims/Figures/93-J-0-1.bmp\",\"fafa:va\",\"Down\",\"40\",\"9\",\"12\",\"3A\",\"C1\",\"C\",\"140\"
\"\",\"\",\"approach-retreat\",\"144\",\"913593\",\"0.0-144.0\",\"\",\"\",\"1-4\",\"4221\",\"38\",\"1\",\"Training\",\"Stims/Figures/84-C-20-2.bmp\",\"za:sa:za\",\"Down\",\"38\",\"9\",\"13\",\"3A\",\"C2\",\"C\",\"141\"
\"\",\"\",\"approach-retreat\",\"145\",\"919512\",\"0.0-145.0\",\"\",\"\",\"1-4\",\"4413\",\"40\",\"1\",\"Training\",\"Stims/Figures/128-J-10-3.bmp\",\"fafa:va\",\"Down\",\"40\",\"9\",\"14\",\"3A\",\"C1\",\"C\",\"142\"
\"\",\"\",\"approach-retreat\",\"146\",\"925025\",\"0.0-146.0\",\"\",\"\",\"1-4\",\"4005\",\"40\",\"1\",\"Training\",\"Stims/Figures/118-C-20-2.bmp\",\"za:sa:za\",\"Up\",\"40\",\"9\",\"15\",\"3A\",\"C2\",\"C\",\"143\"
\"\",\"\",\"approach-retreat\",\"147\",\"930721\",\"0.0-147.0\",\"\",\"\",\"1-4\",\"4188\",\"37\",\"1\",\"Training\",\"Stims/Figures/19-C-20-4.bmp\",\"za:sa:za\",\"Right\",\"37\",\"9\",\"16\",\"3A\",\"C2\",\"C\",\"144\"
\"27908\",\"\",\"instructions\",\"148\",\"958629\",\"0.0-148.0\",\"[{\"\"page_index\"\":0,\"\"viewing_time\"\":27907}]\",\"\",\"\",\"\",\"\",\"\",\"\",\"\",\"\",\"\",\"\",\"\",\"\",\"\",\"\",\"\",\"\"
\"\",\"\",\"approach-retreat\",\"149\",\"964623\",\"0.0-149.0\",\"\",\"\",\"1-4\",\"4481\",\"39\",\"1\",\"Testing\",\"Stims/Figures/57-J-0-1.bmp\",\"fafa:va\",\"Right\",\"39\",\"1\",\"1\",\"3A\",\"C1\",\"C\",\"1\"
\"\",\"\",\"approach-retreat\",\"150\",\"970391\",\"0.0-150.0\",\"\",\"\",\"1-4\",\"4262\",\"37\",\"1\",\"Testing\",\"Stims/Figures/19-C-20-4.bmp\",\"za:sa:za\",\"Right\",\"37\",\"1\",\"2\",\"3A\",\"C2\",\"C\",\"2\"
\"\",\"\",\"approach-retreat\",\"151\",\"975942\",\"0.0-151.0\",\"\",\"\",\"1-4\",\"4045\",\"38\",\"1\",\"Testing\",\"Stims/Figures/44-J-10-3.bmp\",\"fafa:va\",\"Up\",\"38\",\"1\",\"3\",\"3A\",\"C1\",\"C\",\"3\"
\"\",\"\",\"approach-retreat\",\"152\",\"981567\",\"0.0-152.0\",\"\",\"\",\"1-4\",\"4118\",\"40\",\"1\",\"Testing\",\"Stims/Figures/27-J-0-1.bmp\",\"fafa:va\",\"Down\",\"40\",\"1\",\"4\",\"3A\",\"C1\",\"C\",\"4\"
\"\",\"\",\"approach-retreat\",\"153\",\"987423\",\"0.0-153.0\",\"\",\"\",\"1-4\",\"4349\",\"37\",\"1\",\"Testing\",\"Stims/Figures/139-J-0-2.bmp\",\"fafa:va\",\"Left\",\"37\",\"1\",\"5\",\"3A\",\"C1\",\"C\",\"5\"
\"\",\"\",\"approach-retreat\",\"154\",\"992958\",\"0.0-154.0\",\"\",\"\",\"1-4\",\"4028\",\"38\",\"1\",\"Testing\",\"Stims/Figures/111-C-30-3.bmp\",\"za:sa:za\",\"Down\",\"38\",\"1\",\"6\",\"3A\",\"C2\",\"C\",\"6\"
\"\",\"\",\"approach-retreat\",\"155\",\"998726\",\"0.0-155.0\",\"\",\"\",\"1-4\",\"4263\",\"40\",\"1\",\"Testing\",\"Stims/Figures/118-C-20-2.bmp\",\"za:sa:za\",\"Up\",\"40\",\"1\",\"7\",\"3A\",\"C2\",\"C\",\"7\"
\"\",\"\",\"approach-retreat\",\"156\",\"1004735\",\"0.0-156.0\",\"\",\"\",\"1-4\",\"4501\",\"40\",\"1\",\"Testing\",\"Stims/Figures/74-J-10-4.bmp\",\"fafa:va\",\"Down\",\"40\",\"1\",\"8\",\"3A\",\"C1\",\"C\",\"8\"
\"\",\"\",\"approach-retreat\",\"157\",\"1010453\",\"0.0-157.0\",\"\",\"\",\"1-4\",\"4213\",\"40\",\"1\",\"Testing\",\"Stims/Figures/7-C-20-4.bmp\",\"za:sa:za\",\"Up\",\"40\",\"1\",\"9\",\"3A\",\"C2\",\"C\",\"9\"
\"\",\"\",\"approach-retreat\",\"158\",\"1016061\",\"0.0-158.0\",\"\",\"\",\"1-4\",\"4105\",\"38\",\"1\",\"Testing\",\"Stims/Figures/128-C-30-3.bmp\",\"za:sa:za\",\"Down\",\"38\",\"1\",\"10\",\"3A\",\"C2\",\"C\",\"10\"
\"\",\"\",\"approach-retreat\",\"159\",\"1021934\",\"0.0-159.0\",\"\",\"\",\"1-4\",\"4366\",\"37\",\"1\",\"Testing\",\"Stims/Figures/93-C-30-1.bmp\",\"za:sa:za\",\"Right\",\"37\",\"1\",\"11\",\"3A\",\"C2\",\"C\",\"11\"
\"\",\"\",\"approach-retreat\",\"160\",\"1027733\",\"0.0-160.0\",\"\",\"\",\"1-4\",\"4291\",\"39\",\"1\",\"Testing\",\"Stims/Figures/93-J-0-1.bmp\",\"fafa:va\",\"Right\",\"39\",\"1\",\"12\",\"3A\",\"C1\",\"C\",\"12\"
\"\",\"\",\"approach-retreat\",\"161\",\"1033530\",\"0.0-161.0\",\"\",\"\",\"1-4\",\"4292\",\"40\",\"1\",\"Testing\",\"Stims/Figures/44-C-30-3.bmp\",\"za:sa:za\",\"Up\",\"40\",\"1\",\"13\",\"3A\",\"C2\",\"C\",\"13\"
\"\",\"\",\"approach-retreat\",\"162\",\"1039181\",\"0.0-162.0\",\"\",\"\",\"1-4\",\"4144\",\"40\",\"1\",\"Testing\",\"Stims/Figures/128-J-10-3.bmp\",\"fafa:va\",\"Down\",\"40\",\"1\",\"14\",\"3A\",\"C1\",\"C\",\"14\"
\"\",\"\",\"approach-retreat\",\"163\",\"1044734\",\"0.0-163.0\",\"\",\"\",\"1-4\",\"4050\",\"40\",\"1\",\"Testing\",\"Stims/Figures/27-C-30-1.bmp\",\"za:sa:za\",\"Up\",\"40\",\"1\",\"15\",\"3A\",\"C2\",\"C\",\"15\"
\"\",\"\",\"approach-retreat\",\"164\",\"1050757\",\"0.0-164.0\",\"\",\"\",\"1-4\",\"4517\",\"37\",\"1\",\"Testing\",\"Stims/Figures/84-J-0-2.bmp\",\"fafa:va\",\"Left\",\"37\",\"1\",\"16\",\"3A\",\"C1\",\"C\",\"16\"
\"\",\"\",\"approach-retreat\",\"165\",\"1056573\",\"0.0-165.0\",\"\",\"\",\"1-4\",\"4311\",\"39\",\"1\",\"Testing\",\"Stims/Figures/118-J-0-2.bmp\",\"fafa:va\",\"Right\",\"39\",\"1\",\"17\",\"3A\",\"C1\",\"C\",\"17\"
\"\",\"\",\"approach-retreat\",\"166\",\"1062445\",\"0.0-166.0\",\"\",\"\",\"1-4\",\"4366\",\"37\",\"1\",\"Testing\",\"Stims/Figures/7-J-10-4.bmp\",\"fafa:va\",\"Left\",\"37\",\"1\",\"18\",\"3A\",\"C1\",\"C\",\"18\"
\"\",\"\",\"approach-retreat\",\"167\",\"1068085\",\"0.0-167.0\",\"\",\"\",\"1-4\",\"4132\",\"39\",\"1\",\"Testing\",\"Stims/Figures/74-C-20-4.bmp\",\"za:sa:za\",\"Left\",\"39\",\"1\",\"19\",\"3A\",\"C2\",\"C\",\"19\"
\"\",\"\",\"approach-retreat\",\"168\",\"1073909\",\"0.0-168.0\",\"\",\"\",\"1-4\",\"4316\",\"37\",\"1\",\"Testing\",\"Stims/Figures/19-J-10-4.bmp\",\"fafa:va\",\"Left\",\"37\",\"1\",\"20\",\"3A\",\"C1\",\"C\",\"20\"
\"\",\"\",\"approach-retreat\",\"169\",\"1079588\",\"0.0-169.0\",\"\",\"\",\"1-4\",\"4173\",\"39\",\"1\",\"Testing\",\"Stims/Figures/84-C-20-2.bmp\",\"za:sa:za\",\"Left\",\"39\",\"1\",\"21\",\"3A\",\"C2\",\"C\",\"21\"
\"\",\"\",\"approach-retreat\",\"170\",\"1085252\",\"0.0-170.0\",\"\",\"\",\"1-4\",\"4157\",\"40\",\"1\",\"Testing\",\"Stims/Figures/57-C-30-1.bmp\",\"za:sa:za\",\"Up\",\"40\",\"1\",\"22\",\"3A\",\"C2\",\"C\",\"22\"
\"\",\"\",\"approach-retreat\",\"171\",\"1090957\",\"0.0-171.0\",\"\",\"\",\"1-4\",\"4197\",\"37\",\"1\",\"Testing\",\"Stims/Figures/139-C-20-2.bmp\",\"za:sa:za\",\"Right\",\"37\",\"1\",\"23\",\"3A\",\"C2\",\"C\",\"23\"
\"\",\"\",\"approach-retreat\",\"172\",\"1096606\",\"0.0-172.0\",\"\",\"\",\"1-4\",\"4115\",\"38\",\"0\",\"Testing\",\"Stims/Figures/111-J-10-3.bmp\",\"fafa:va\",\"Down\",\"40\",\"1\",\"24\",\"3A\",\"C1\",\"C\",\"24\"
\"\",\"\",\"approach-retreat\",\"173\",\"1102285\",\"0.0-173.0\",\"\",\"\",\"1-4\",\"4173\",\"39\",\"1\",\"Testing\",\"Stims/Figures/84-J-0-2.bmp\",\"fafa:va\",\"Right\",\"39\",\"2\",\"1\",\"3A\",\"C1\",\"C\",\"25\"
\"\",\"\",\"approach-retreat\",\"174\",\"1107900\",\"0.0-174.0\",\"\",\"\",\"1-4\",\"4110\",\"38\",\"1\",\"Testing\",\"Stims/Figures/84-C-20-2.bmp\",\"za:sa:za\",\"Down\",\"38\",\"2\",\"2\",\"3A\",\"C2\",\"C\",\"26\"
\"\",\"\",\"approach-retreat\",\"175\",\"1113604\",\"0.0-175.0\",\"\",\"\",\"1-4\",\"4198\",\"40\",\"1\",\"Testing\",\"Stims/Figures/27-C-30-1.bmp\",\"za:sa:za\",\"Up\",\"40\",\"2\",\"3\",\"3A\",\"C2\",\"C\",\"27\"
\"\",\"\",\"approach-retreat\",\"176\",\"1119204\",\"0.0-176.0\",\"\",\"\",\"1-4\",\"4094\",\"39\",\"1\",\"Testing\",\"Stims/Figures/19-J-10-4.bmp\",\"fafa:va\",\"Right\",\"39\",\"2\",\"4\",\"3A\",\"C1\",\"C\",\"28\"
\"\",\"\",\"approach-retreat\",\"177\",\"1124836\",\"0.0-177.0\",\"\",\"\",\"1-4\",\"4126\",\"39\",\"1\",\"Testing\",\"Stims/Figures/7-C-20-4.bmp\",\"za:sa:za\",\"Left\",\"39\",\"2\",\"5\",\"3A\",\"C2\",\"C\",\"29\"
\"\",\"\",\"approach-retreat\",\"178\",\"1130340\",\"0.0-178.0\",\"\",\"\",\"1-4\",\"3998\",\"40\",\"1\",\"Testing\",\"Stims/Figures/57-C-30-1.bmp\",\"za:sa:za\",\"Up\",\"40\",\"2\",\"6\",\"3A\",\"C2\",\"C\",\"30\"
\"\",\"\",\"approach-retreat\",\"179\",\"1135891\",\"0.0-179.0\",\"\",\"\",\"1-4\",\"4046\",\"37\",\"1\",\"Testing\",\"Stims/Figures/57-J-0-1.bmp\",\"fafa:va\",\"Left\",\"37\",\"2\",\"7\",\"3A\",\"C1\",\"C\",\"31\"
\"\",\"\",\"approach-retreat\",\"180\",\"1141651\",\"0.0-180.0\",\"\",\"\",\"1-4\",\"4255\",\"40\",\"1\",\"Testing\",\"Stims/Figures/44-C-30-3.bmp\",\"za:sa:za\",\"Up\",\"40\",\"2\",\"8\",\"3A\",\"C2\",\"C\",\"32\"
\"\",\"\",\"approach-retreat\",\"181\",\"1147490\",\"0.0-181.0\",\"\",\"\",\"1-4\",\"4261\",\"37\",\"1\",\"Testing\",\"Stims/Figures/93-J-0-1.bmp\",\"fafa:va\",\"Left\",\"37\",\"2\",\"9\",\"3A\",\"C1\",\"C\",\"33\"
\"\",\"\",\"approach-retreat\",\"182\",\"1153283\",\"0.0-182.0\",\"\",\"\",\"1-4\",\"4287\",\"37\",\"1\",\"Testing\",\"Stims/Figures/93-C-30-1.bmp\",\"za:sa:za\",\"Right\",\"37\",\"2\",\"10\",\"3A\",\"C2\",\"C\",\"34\"
\"\",\"\",\"approach-retreat\",\"183\",\"1159307\",\"0.0-183.0\",\"\",\"\",\"1-4\",\"4305\",\"38\",\"1\",\"Testing\",\"Stims/Figures/19-C-20-4.bmp\",\"za:sa:za\",\"Down\",\"38\",\"2\",\"11\",\"3A\",\"C2\",\"C\",\"35\"
\"\",\"\",\"approach-retreat\",\"184\",\"1165035\",\"0.0-184.0\",\"\",\"\",\"1-4\",\"4222\",\"40\",\"1\",\"Testing\",\"Stims/Figures/128-J-10-3.bmp\",\"fafa:va\",\"Down\",\"40\",\"2\",\"12\",\"3A\",\"C1\",\"C\",\"36\"
\"\",\"\",\"approach-retreat\",\"185\",\"1170674\",\"0.0-185.0\",\"\",\"\",\"1-4\",\"3916\",\"40\",\"1\",\"Testing\",\"Stims/Figures/74-C-20-4.bmp\",\"za:sa:za\",\"Up\",\"40\",\"2\",\"13\",\"3A\",\"C2\",\"C\",\"37\"
\"\",\"\",\"approach-retreat\",\"186\",\"1176323\",\"0.0-186.0\",\"\",\"\",\"1-4\",\"4141\",\"39\",\"1\",\"Testing\",\"Stims/Figures/44-J-10-3.bmp\",\"fafa:va\",\"Right\",\"39\",\"2\",\"14\",\"3A\",\"C1\",\"C\",\"38\"
\"\",\"\",\"approach-retreat\",\"187\",\"1181939\",\"0.0-187.0\",\"\",\"\",\"1-4\",\"4069\",\"40\",\"1\",\"Testing\",\"Stims/Figures/7-J-10-4.bmp\",\"fafa:va\",\"Down\",\"40\",\"2\",\"15\",\"3A\",\"C1\",\"C\",\"39\"
\"\",\"\",\"approach-retreat\",\"188\",\"1187563\",\"0.0-188.0\",\"\",\"\",\"1-4\",\"4117\",\"39\",\"1\",\"Testing\",\"Stims/Figures/111-C-30-3.bmp\",\"za:sa:za\",\"Left\",\"39\",\"2\",\"16\",\"3A\",\"C2\",\"C\",\"40\"
\"\",\"\",\"approach-retreat\",\"189\",\"1193114\",\"0.0-189.0\",\"\",\"\",\"1-4\",\"4046\",\"39\",\"1\",\"Testing\",\"Stims/Figures/139-C-20-2.bmp\",\"za:sa:za\",\"Left\",\"39\",\"2\",\"17\",\"3A\",\"C2\",\"C\",\"41\"
\"\",\"\",\"approach-retreat\",\"190\",\"1198786\",\"0.0-190.0\",\"\",\"\",\"1-4\",\"4167\",\"39\",\"1\",\"Testing\",\"Stims/Figures/74-J-10-4.bmp\",\"fafa:va\",\"Right\",\"39\",\"2\",\"18\",\"3A\",\"C1\",\"C\",\"42\"
\"\",\"\",\"approach-retreat\",\"191\",\"1204362\",\"0.0-191.0\",\"\",\"\",\"1-4\",\"4047\",\"37\",\"1\",\"Testing\",\"Stims/Figures/27-J-0-1.bmp\",\"fafa:va\",\"Left\",\"37\",\"2\",\"19\",\"3A\",\"C1\",\"C\",\"43\"
\"\",\"\",\"approach-retreat\",\"192\",\"1210050\",\"0.0-192.0\",\"\",\"\",\"1-4\",\"4184\",\"38\",\"1\",\"Testing\",\"Stims/Figures/118-C-20-2.bmp\",\"za:sa:za\",\"Down\",\"38\",\"2\",\"20\",\"3A\",\"C2\",\"C\",\"44\"
\"\",\"\",\"approach-retreat\",\"193\",\"1215834\",\"0.0-193.0\",\"\",\"\",\"1-4\",\"4278\",\"40\",\"1\",\"Testing\",\"Stims/Figures/111-J-10-3.bmp\",\"fafa:va\",\"Down\",\"40\",\"2\",\"21\",\"3A\",\"C1\",\"C\",\"45\"
\"\",\"\",\"approach-retreat\",\"194\",\"1221522\",\"0.0-194.0\",\"\",\"\",\"1-4\",\"4182\",\"40\",\"1\",\"Testing\",\"Stims/Figures/128-C-30-3.bmp\",\"za:sa:za\",\"Up\",\"40\",\"2\",\"22\",\"3A\",\"C2\",\"C\",\"46\"
\"\",\"\",\"approach-retreat\",\"195\",\"1227329\",\"0.0-195.0\",\"\",\"\",\"1-4\",\"4302\",\"38\",\"1\",\"Testing\",\"Stims/Figures/118-J-0-2.bmp\",\"fafa:va\",\"Up\",\"38\",\"2\",\"23\",\"3A\",\"C1\",\"C\",\"47\"
\"\",\"\",\"approach-retreat\",\"196\",\"1233057\",\"0.0-196.0\",\"\",\"\",\"1-4\",\"4209\",\"39\",\"1\",\"Testing\",\"Stims/Figures/139-J-0-2.bmp\",\"fafa:va\",\"Right\",\"39\",\"2\",\"24\",\"3A\",\"C1\",\"C\",\"48\"
\"\",\"\",\"approach-retreat\",\"197\",\"1238754\",\"0.0-197.0\",\"\",\"\",\"1-4\",\"4189\",\"39\",\"1\",\"Testing\",\"Stims/Figures/27-C-30-1.bmp\",\"za:sa:za\",\"Left\",\"39\",\"3\",\"1\",\"3A\",\"C2\",\"C\",\"49\"
\"\",\"\",\"approach-retreat\",\"198\",\"1244401\",\"0.0-198.0\",\"\",\"\",\"1-4\",\"4142\",\"40\",\"1\",\"Testing\",\"Stims/Figures/44-J-10-3.bmp\",\"fafa:va\",\"Down\",\"40\",\"3\",\"2\",\"3A\",\"C1\",\"C\",\"50\"
\"\",\"\",\"approach-retreat\",\"199\",\"1250057\",\"0.0-199.0\",\"\",\"\",\"1-4\",\"4150\",\"37\",\"1\",\"Testing\",\"Stims/Figures/93-C-30-1.bmp\",\"za:sa:za\",\"Right\",\"37\",\"3\",\"3\",\"3A\",\"C2\",\"C\",\"51\"
\"\",\"\",\"approach-retreat\",\"200\",\"1255688\",\"0.0-200.0\",\"\",\"\",\"1-4\",\"4126\",\"40\",\"1\",\"Testing\",\"Stims/Figures/118-C-20-2.bmp\",\"za:sa:za\",\"Up\",\"40\",\"3\",\"4\",\"3A\",\"C2\",\"C\",\"52\"
\"\",\"\",\"approach-retreat\",\"201\",\"1261304\",\"0.0-201.0\",\"\",\"\",\"1-4\",\"4111\",\"40\",\"1\",\"Testing\",\"Stims/Figures/84-C-20-2.bmp\",\"za:sa:za\",\"Up\",\"40\",\"3\",\"5\",\"3A\",\"C2\",\"C\",\"53\"
\"\",\"\",\"approach-retreat\",\"202\",\"1267153\",\"0.0-202.0\",\"\",\"\",\"1-4\",\"4309\",\"40\",\"1\",\"Testing\",\"Stims/Figures/139-J-0-2.bmp\",\"fafa:va\",\"Down\",\"40\",\"3\",\"6\",\"3A\",\"C1\",\"C\",\"54\"
\"\",\"\",\"approach-retreat\",\"203\",\"1273032\",\"0.0-203.0\",\"\",\"\",\"1-4\",\"4374\",\"39\",\"1\",\"Testing\",\"Stims/Figures/19-J-10-4.bmp\",\"fafa:va\",\"Right\",\"39\",\"3\",\"7\",\"3A\",\"C1\",\"C\",\"55\"
\"\",\"\",\"approach-retreat\",\"204\",\"1278944\",\"0.0-204.0\",\"\",\"\",\"1-4\",\"4407\",\"40\",\"1\",\"Testing\",\"Stims/Figures/111-J-10-3.bmp\",\"fafa:va\",\"Down\",\"40\",\"3\",\"8\",\"3A\",\"C1\",\"C\",\"56\"
\"\",\"\",\"approach-retreat\",\"205\",\"1284552\",\"0.0-205.0\",\"\",\"\",\"1-4\",\"4102\",\"40\",\"1\",\"Testing\",\"Stims/Figures/44-C-30-3.bmp\",\"za:sa:za\",\"Up\",\"40\",\"3\",\"9\",\"3A\",\"C2\",\"C\",\"57\"
\"\",\"\",\"approach-retreat\",\"206\",\"1290176\",\"0.0-206.0\",\"\",\"\",\"1-4\",\"4117\",\"39\",\"1\",\"Testing\",\"Stims/Figures/128-J-10-3.bmp\",\"fafa:va\",\"Right\",\"39\",\"3\",\"10\",\"3A\",\"C1\",\"C\",\"58\"
\"\",\"\",\"approach-retreat\",\"207\",\"1295912\",\"0.0-207.0\",\"\",\"\",\"1-4\",\"4178\",\"38\",\"1\",\"Testing\",\"Stims/Figures/74-C-20-4.bmp\",\"za:sa:za\",\"Down\",\"38\",\"3\",\"11\",\"3A\",\"C2\",\"C\",\"59\"
\"\",\"\",\"approach-retreat\",\"208\",\"1301512\",\"0.0-208.0\",\"\",\"\",\"1-4\",\"4014\",\"38\",\"1\",\"Testing\",\"Stims/Figures/118-J-0-2.bmp\",\"fafa:va\",\"Up\",\"38\",\"3\",\"12\",\"3A\",\"C1\",\"C\",\"60\"
\"\",\"\",\"approach-retreat\",\"209\",\"1306976\",\"0.0-209.0\",\"\",\"\",\"1-4\",\"3958\",\"39\",\"1\",\"Testing\",\"Stims/Figures/7-J-10-4.bmp\",\"fafa:va\",\"Right\",\"39\",\"3\",\"13\",\"3A\",\"C1\",\"C\",\"61\"
\"\",\"\",\"approach-retreat\",\"210\",\"1312866\",\"0.0-210.0\",\"\",\"\",\"1-4\",\"4087\",\"39\",\"1\",\"Testing\",\"Stims/Figures/139-C-20-2.bmp\",\"za:sa:za\",\"Left\",\"39\",\"3\",\"14\",\"3A\",\"C2\",\"C\",\"62\"
\"\",\"\",\"approach-retreat\",\"211\",\"1318647\",\"0.0-211.0\",\"\",\"\",\"1-4\",\"4270\",\"37\",\"1\",\"Testing\",\"Stims/Figures/84-J-0-2.bmp\",\"fafa:va\",\"Left\",\"37\",\"3\",\"15\",\"3A\",\"C1\",\"C\",\"63\"
\"\",\"\",\"approach-retreat\",\"212\",\"1324167\",\"0.0-212.0\",\"\",\"\",\"1-4\",\"4015\",\"38\",\"1\",\"Testing\",\"Stims/Figures/57-J-0-1.bmp\",\"fafa:va\",\"Up\",\"38\",\"3\",\"16\",\"3A\",\"C1\",\"C\",\"64\"
\"\",\"\",\"approach-retreat\",\"213\",\"1330240\",\"0.0-213.0\",\"\",\"\",\"1-4\",\"4567\",\"37\",\"1\",\"Testing\",\"Stims/Figures/128-C-30-3.bmp\",\"za:sa:za\",\"Right\",\"37\",\"3\",\"17\",\"3A\",\"C2\",\"C\",\"65\"
\"\",\"\",\"approach-retreat\",\"214\",\"1336031\",\"0.0-214.0\",\"\",\"\",\"1-4\",\"4286\",\"37\",\"1\",\"Testing\",\"Stims/Figures/7-C-20-4.bmp\",\"za:sa:za\",\"Right\",\"37\",\"3\",\"18\",\"3A\",\"C2\",\"C\",\"66\"
\"\",\"\",\"approach-retreat\",\"215\",\"1341520\",\"0.0-215.0\",\"\",\"\",\"1-4\",\"3909\",\"37\",\"1\",\"Testing\",\"Stims/Figures/93-J-0-1.bmp\",\"fafa:va\",\"Left\",\"37\",\"3\",\"19\",\"3A\",\"C1\",\"C\",\"67\"
\"\",\"\",\"approach-retreat\",\"216\",\"1346990\",\"0.0-216.0\",\"\",\"\",\"1-4\",\"3965\",\"38\",\"1\",\"Testing\",\"Stims/Figures/111-C-30-3.bmp\",\"za:sa:za\",\"Down\",\"38\",\"3\",\"20\",\"3A\",\"C2\",\"C\",\"68\"
\"\",\"\",\"approach-retreat\",\"217\",\"1352735\",\"0.0-217.0\",\"\",\"\",\"1-4\",\"4164\",\"37\",\"1\",\"Testing\",\"Stims/Figures/27-J-0-1.bmp\",\"fafa:va\",\"Left\",\"37\",\"3\",\"21\",\"3A\",\"C1\",\"C\",\"69\"
\"\",\"\",\"approach-retreat\",\"218\",\"1358135\",\"0.0-218.0\",\"\",\"\",\"1-4\",\"3894\",\"38\",\"1\",\"Testing\",\"Stims/Figures/19-C-20-4.bmp\",\"za:sa:za\",\"Down\",\"38\",\"3\",\"22\",\"3A\",\"C2\",\"C\",\"70\"
\"\",\"\",\"approach-retreat\",\"219\",\"1363782\",\"0.0-219.0\",\"\",\"\",\"1-4\",\"4142\",\"37\",\"1\",\"Testing\",\"Stims/Figures/74-J-10-4.bmp\",\"fafa:va\",\"Left\",\"37\",\"3\",\"23\",\"3A\",\"C1\",\"C\",\"71\"
\"\",\"\",\"approach-retreat\",\"220\",\"1369470\",\"0.0-220.0\",\"\",\"\",\"1-4\",\"4183\",\"40\",\"1\",\"Testing\",\"Stims/Figures/57-C-30-1.bmp\",\"za:sa:za\",\"Up\",\"40\",\"3\",\"24\",\"3A\",\"C2\",\"C\",\"72\"
\"\",\"\",\"approach-retreat\",\"221\",\"1375102\",\"0.0-221.0\",\"\",\"\",\"1-4\",\"4126\",\"39\",\"1\",\"Testing\",\"Stims/Figures/139-J-0-2.bmp\",\"fafa:va\",\"Right\",\"39\",\"4\",\"1\",\"3A\",\"C1\",\"C\",\"73\"
\"\",\"\",\"approach-retreat\",\"222\",\"1380623\",\"0.0-222.0\",\"\",\"\",\"1-4\",\"4014\",\"37\",\"1\",\"Testing\",\"Stims/Figures/7-J-10-4.bmp\",\"fafa:va\",\"Left\",\"37\",\"4\",\"2\",\"3A\",\"C1\",\"C\",\"74\"
\"\",\"\",\"approach-retreat\",\"223\",\"1386206\",\"0.0-223.0\",\"\",\"\",\"1-4\",\"4077\",\"40\",\"1\",\"Testing\",\"Stims/Figures/128-J-10-3.bmp\",\"fafa:va\",\"Down\",\"40\",\"4\",\"3\",\"3A\",\"C1\",\"C\",\"75\"
\"\",\"\",\"approach-retreat\",\"224\",\"1391878\",\"0.0-224.0\",\"\",\"\",\"1-4\",\"4096\",\"40\",\"1\",\"Testing\",\"Stims/Figures/93-C-30-1.bmp\",\"za:sa:za\",\"Up\",\"40\",\"4\",\"4\",\"3A\",\"C2\",\"C\",\"76\"
\"\",\"\",\"approach-retreat\",\"225\",\"1397542\",\"0.0-225.0\",\"\",\"\",\"1-4\",\"4157\",\"38\",\"1\",\"Testing\",\"Stims/Figures/57-J-0-1.bmp\",\"fafa:va\",\"Up\",\"38\",\"4\",\"5\",\"3A\",\"C1\",\"C\",\"77\"
\"\",\"\",\"approach-retreat\",\"226\",\"1403229\",\"0.0-226.0\",\"\",\"\",\"1-4\",\"4153\",\"38\",\"1\",\"Testing\",\"Stims/Figures/139-C-20-2.bmp\",\"za:sa:za\",\"Down\",\"38\",\"4\",\"6\",\"3A\",\"C2\",\"C\",\"78\"
\"\",\"\",\"approach-retreat\",\"227\",\"1408918\",\"0.0-227.0\",\"\",\"\",\"1-4\",\"4183\",\"37\",\"1\",\"Testing\",\"Stims/Figures/19-J-10-4.bmp\",\"fafa:va\",\"Left\",\"37\",\"4\",\"7\",\"3A\",\"C1\",\"C\",\"79\"
\"\",\"\",\"approach-retreat\",\"228\",\"1414726\",\"0.0-228.0\",\"\",\"\",\"1-4\",\"4227\",\"37\",\"1\",\"Testing\",\"Stims/Figures/57-C-30-1.bmp\",\"za:sa:za\",\"Right\",\"37\",\"4\",\"8\",\"3A\",\"C2\",\"C\",\"80\"
\"\",\"\",\"approach-retreat\",\"229\",\"1420493\",\"0.0-229.0\",\"\",\"\",\"1-4\",\"4262\",\"39\",\"1\",\"Testing\",\"Stims/Figures/44-C-30-3.bmp\",\"za:sa:za\",\"Left\",\"39\",\"4\",\"9\",\"3A\",\"C2\",\"C\",\"81\"
\"\",\"\",\"approach-retreat\",\"230\",\"1426333\",\"0.0-230.0\",\"\",\"\",\"1-4\",\"4335\",\"39\",\"1\",\"Testing\",\"Stims/Figures/84-J-0-2.bmp\",\"fafa:va\",\"Right\",\"39\",\"4\",\"10\",\"3A\",\"C1\",\"C\",\"82\"
\"\",\"\",\"approach-retreat\",\"231\",\"1432021\",\"0.0-231.0\",\"\",\"\",\"1-4\",\"4181\",\"40\",\"1\",\"Testing\",\"Stims/Figures/128-C-30-3.bmp\",\"za:sa:za\",\"Up\",\"40\",\"4\",\"11\",\"3A\",\"C2\",\"C\",\"83\"
\"\",\"\",\"approach-retreat\",\"232\",\"1437669\",\"0.0-232.0\",\"\",\"\",\"1-4\",\"4142\",\"38\",\"1\",\"Testing\",\"Stims/Figures/111-C-30-3.bmp\",\"za:sa:za\",\"Down\",\"38\",\"4\",\"12\",\"3A\",\"C2\",\"C\",\"84\"
\"\",\"\",\"approach-retreat\",\"233\",\"1443533\",\"0.0-233.0\",\"\",\"\",\"1-4\",\"4262\",\"40\",\"1\",\"Testing\",\"Stims/Figures/44-J-10-3.bmp\",\"fafa:va\",\"Down\",\"40\",\"4\",\"13\",\"3A\",\"C1\",\"C\",\"85\"
\"\",\"\",\"approach-retreat\",\"234\",\"1449221\",\"0.0-234.0\",\"\",\"\",\"1-4\",\"4182\",\"39\",\"1\",\"Testing\",\"Stims/Figures/74-J-10-4.bmp\",\"fafa:va\",\"Right\",\"39\",\"4\",\"14\",\"3A\",\"C1\",\"C\",\"86\"
\"\",\"\",\"approach-retreat\",\"235\",\"1454924\",\"0.0-235.0\",\"\",\"\",\"1-4\",\"4200\",\"37\",\"1\",\"Testing\",\"Stims/Figures/111-J-10-3.bmp\",\"fafa:va\",\"Left\",\"37\",\"4\",\"15\",\"3A\",\"C1\",\"C\",\"87\"
\"\",\"\",\"approach-retreat\",\"236\",\"1460540\",\"0.0-236.0\",\"\",\"\",\"1-4\",\"4033\",\"40\",\"1\",\"Testing\",\"Stims/Figures/19-C-20-4.bmp\",\"za:sa:za\",\"Up\",\"40\",\"4\",\"16\",\"3A\",\"C2\",\"C\",\"88\"
\"\",\"\",\"approach-retreat\",\"237\",\"1466157\",\"0.0-237.0\",\"\",\"\",\"1-4\",\"4111\",\"37\",\"1\",\"Testing\",\"Stims/Figures/27-C-30-1.bmp\",\"za:sa:za\",\"Right\",\"37\",\"4\",\"17\",\"3A\",\"C2\",\"C\",\"89\"
\"\",\"\",\"approach-retreat\",\"238\",\"1471812\",\"0.0-238.0\",\"\",\"\",\"1-4\",\"4150\",\"40\",\"1\",\"Testing\",\"Stims/Figures/84-C-20-2.bmp\",\"za:sa:za\",\"Up\",\"40\",\"4\",\"18\",\"3A\",\"C2\",\"C\",\"90\"
\"\",\"\",\"approach-retreat\",\"239\",\"1477612\",\"0.0-239.0\",\"\",\"\",\"1-4\",\"3999\",\"38\",\"1\",\"Testing\",\"Stims/Figures/118-C-20-2.bmp\",\"za:sa:za\",\"Down\",\"38\",\"4\",\"19\",\"3A\",\"C2\",\"C\",\"91\"
\"\",\"\",\"approach-retreat\",\"240\",\"1483353\",\"0.0-240.0\",\"\",\"\",\"1-4\",\"4237\",\"37\",\"1\",\"Testing\",\"Stims/Figures/74-C-20-4.bmp\",\"za:sa:za\",\"Right\",\"37\",\"4\",\"20\",\"3A\",\"C2\",\"C\",\"92\"
\"\",\"\",\"approach-retreat\",\"241\",\"1488931\",\"0.0-241.0\",\"\",\"\",\"1-4\",\"4073\",\"38\",\"1\",\"Testing\",\"Stims/Figures/93-J-0-1.bmp\",\"fafa:va\",\"Up\",\"38\",\"4\",\"21\",\"3A\",\"C1\",\"C\",\"93\"
\"\",\"\",\"approach-retreat\",\"242\",\"1494548\",\"0.0-242.0\",\"\",\"\",\"1-4\",\"4110\",\"37\",\"1\",\"Testing\",\"Stims/Figures/27-J-0-1.bmp\",\"fafa:va\",\"Left\",\"37\",\"4\",\"22\",\"3A\",\"C1\",\"C\",\"94\"
\"\",\"\",\"approach-retreat\",\"243\",\"1500252\",\"0.0-243.0\",\"\",\"\",\"1-4\",\"4198\",\"39\",\"1\",\"Testing\",\"Stims/Figures/7-C-20-4.bmp\",\"za:sa:za\",\"Left\",\"39\",\"4\",\"23\",\"3A\",\"C2\",\"C\",\"95\"
\"\",\"\",\"approach-retreat\",\"244\",\"1506171\",\"0.0-244.0\",\"\",\"\",\"1-4\",\"4414\",\"40\",\"1\",\"Testing\",\"Stims/Figures/118-J-0-2.bmp\",\"fafa:va\",\"Down\",\"40\",\"4\",\"24\",\"3A\",\"C1\",\"C\",\"96\"
\"37585\",\"\",\"survey-text\",\"245\",\"1544018\",\"0.0-245.0\",\"\",\"{\"\"Q0\"\":\"\"PS170003\"\"}\",\"\",\"\",\"\",\"\",\"\",\"\",\"\",\"\",\"\",\"\",\"\",\"\",\"\",\"\",\"\"
