\"rt\",\"key_press\",\"trial_type\",\"trial_index\",\"time_elapsed\",\"internal_node_id\",\"view_history\",\"responses\",\"Id\",\"Rt\",\"ResKeyCode\",\"ResCorr\",\"TrialType2\",\"Image\",\"Label\",\"Location\",\"CorrectResponse\",\"Block\",\"BlockTrial\",\"Condition\",\"LabelType\",\"Subcondition\",\"trialNum\"
\"7885\",\"32\",\"text\",\"0\",\"7890\",\"0.0-0.0-0.0\",\"\",\"\",\"\",\"\",\"\",\"\",\"\",\"\",\"\",\"\",\"\",\"\",\"\",\"\",\"\",\"\",\"\"
\"26603\",\"\",\"instructions\",\"1\",\"34494\",\"0.0-1.0\",\"[{\"\"page_index\"\":0,\"\"viewing_time\"\":26602}]\",\"\",\"\",\"\",\"\",\"\",\"\",\"\",\"\",\"\",\"\",\"\",\"\",\"\",\"\",\"\",\"\"
\"8825\",\"\",\"survey-multi-choice\",\"2\",\"43335\",\"0.0-2.0\",\"\",\"{\"\"Q0\"\":\"\"Da\"\",\"\"Q1\"\":\"\"Da\"\",\"\"Q2\"\":\"\"Da\"\",\"\"Q3\"\":\"\"Da\"\",\"\"Q4\"\":\"\"Da\"\",\"\"Q5\"\":\"\"Da\"\"}\",\"\",\"\",\"\",\"\",\"\",\"\",\"\",\"\",\"\",\"\",\"\",\"\",\"\",\"\",\"\"
\"\",\"\",\"bio\",\"3\",\"49667\",\"0.0-3.0\",\"\",\"{\"\"age\"\":\"\"24\"\",\"\"gender\"\":\"\"f\"\",\"\"specify\"\":\"\"\"\"}\",\"\",\"\",\"\",\"\",\"\",\"\",\"\",\"\",\"\",\"\",\"\",\"\",\"\",\"\",\"\"
\"\",\"\",\"approach-retreat\",\"4\",\"55859\",\"0.0-4.0\",\"\",\"\",\"2-4\",\"4677\",\"38\",\"1\",\"Training\",\"Stims/Figures/118-C-20-2.bmp\",\"mala:na\",\"Up\",\"38\",\"1\",\"1\",\"1\",\"S\",\"J\",\"1\"
\"\",\"\",\"approach-retreat\",\"5\",\"61960\",\"0.0-5.0\",\"\",\"\",\"2-4\",\"4589\",\"37\",\"1\",\"Training\",\"Stims/Figures/74-C-20-4.bmp\",\"mala:na\",\"Left\",\"37\",\"1\",\"2\",\"1\",\"S\",\"J\",\"2\"
\"\",\"\",\"approach-retreat\",\"6\",\"67928\",\"0.0-6.0\",\"\",\"\",\"2-4\",\"4457\",\"40\",\"1\",\"Training\",\"Stims/Figures/27-C-30-1.bmp\",\"mala:na\",\"Down\",\"40\",\"1\",\"3\",\"1\",\"S\",\"J\",\"3\"
\"\",\"\",\"approach-retreat\",\"7\",\"73560\",\"0.0-7.0\",\"\",\"\",\"2-4\",\"4120\",\"38\",\"1\",\"Training\",\"Stims/Figures/118-J-0-2.bmp\",\"tapa:ka\",\"Down\",\"38\",\"1\",\"4\",\"1\",\"P\",\"J\",\"4\"
\"\",\"\",\"approach-retreat\",\"8\",\"79473\",\"0.0-8.0\",\"\",\"\",\"2-4\",\"4402\",\"37\",\"1\",\"Training\",\"Stims/Figures/57-C-30-1.bmp\",\"mala:na\",\"Left\",\"37\",\"1\",\"5\",\"1\",\"S\",\"J\",\"5\"
\"\",\"\",\"approach-retreat\",\"9\",\"85965\",\"0.0-9.0\",\"\",\"\",\"2-4\",\"4980\",\"39\",\"1\",\"Training\",\"Stims/Figures/57-J-0-1.bmp\",\"tapa:ka\",\"Left\",\"39\",\"1\",\"6\",\"1\",\"P\",\"J\",\"6\"
\"\",\"\",\"approach-retreat\",\"10\",\"91608\",\"0.0-10.0\",\"\",\"\",\"2-4\",\"4132\",\"38\",\"1\",\"Training\",\"Stims/Figures/44-C-30-3.bmp\",\"mala:na\",\"Up\",\"38\",\"1\",\"7\",\"1\",\"S\",\"J\",\"7\"
\"\",\"\",\"approach-retreat\",\"11\",\"97715\",\"0.0-11.0\",\"\",\"\",\"2-4\",\"4555\",\"39\",\"1\",\"Training\",\"Stims/Figures/144-C-30-3.bmp\",\"mala:na\",\"Right\",\"39\",\"1\",\"8\",\"1\",\"S\",\"J\",\"8\"
\"\",\"\",\"approach-retreat\",\"12\",\"103731\",\"0.0-12.0\",\"\",\"\",\"2-4\",\"4505\",\"40\",\"1\",\"Training\",\"Stims/Figures/74-J-10-4.bmp\",\"tapa:ka\",\"Up\",\"40\",\"1\",\"9\",\"1\",\"P\",\"J\",\"9\"
\"\",\"\",\"approach-retreat\",\"13\",\"109967\",\"0.0-13.0\",\"\",\"\",\"2-4\",\"4725\",\"40\",\"1\",\"Training\",\"Stims/Figures/139-C-20-2.bmp\",\"mala:na\",\"Down\",\"40\",\"1\",\"10\",\"1\",\"S\",\"J\",\"10\"
\"\",\"\",\"approach-retreat\",\"14\",\"115863\",\"0.0-14.0\",\"\",\"\",\"2-4\",\"4384\",\"37\",\"1\",\"Training\",\"Stims/Figures/144-J-10-3.bmp\",\"tapa:ka\",\"Right\",\"37\",\"1\",\"11\",\"1\",\"P\",\"J\",\"11\"
\"\",\"\",\"approach-retreat\",\"15\",\"122230\",\"0.0-15.0\",\"\",\"\",\"2-4\",\"4853\",\"38\",\"1\",\"Training\",\"Stims/Figures/7-C-20-4.bmp\",\"mala:na\",\"Up\",\"38\",\"1\",\"12\",\"1\",\"S\",\"J\",\"12\"
\"\",\"\",\"approach-retreat\",\"16\",\"129940\",\"0.0-16.0\",\"\",\"\",\"2-4\",\"6199\",\"37\",\"1\",\"Training\",\"Stims/Figures/7-J-10-4.bmp\",\"tapa:ka\",\"Right\",\"37\",\"1\",\"13\",\"1\",\"P\",\"J\",\"13\"
\"\",\"\",\"approach-retreat\",\"17\",\"135934\",\"0.0-17.0\",\"\",\"\",\"2-4\",\"4441\",\"38\",\"1\",\"Training\",\"Stims/Figures/139-J-0-2.bmp\",\"tapa:ka\",\"Down\",\"38\",\"1\",\"14\",\"1\",\"P\",\"J\",\"14\"
\"\",\"\",\"approach-retreat\",\"18\",\"141792\",\"0.0-18.0\",\"\",\"\",\"2-4\",\"4348\",\"37\",\"1\",\"Training\",\"Stims/Figures/44-J-10-3.bmp\",\"tapa:ka\",\"Right\",\"37\",\"1\",\"15\",\"1\",\"P\",\"J\",\"15\"
\"\",\"\",\"approach-retreat\",\"19\",\"147574\",\"0.0-19.0\",\"\",\"\",\"2-4\",\"4270\",\"39\",\"1\",\"Training\",\"Stims/Figures/27-J-0-1.bmp\",\"tapa:ka\",\"Left\",\"39\",\"1\",\"16\",\"1\",\"P\",\"J\",\"16\"
\"\",\"\",\"approach-retreat\",\"20\",\"153729\",\"0.0-20.0\",\"\",\"\",\"2-4\",\"4644\",\"40\",\"1\",\"Training\",\"Stims/Figures/139-C-20-2.bmp\",\"mala:na\",\"Down\",\"40\",\"2\",\"1\",\"1\",\"S\",\"J\",\"17\"
\"\",\"\",\"approach-retreat\",\"21\",\"160429\",\"0.0-21.0\",\"\",\"\",\"2-4\",\"5189\",\"40\",\"1\",\"Training\",\"Stims/Figures/74-J-10-4.bmp\",\"tapa:ka\",\"Up\",\"40\",\"2\",\"2\",\"1\",\"P\",\"J\",\"18\"
\"\",\"\",\"approach-retreat\",\"22\",\"166977\",\"0.0-22.0\",\"\",\"\",\"2-4\",\"4981\",\"40\",\"1\",\"Training\",\"Stims/Figures/118-J-0-2.bmp\",\"tapa:ka\",\"Up\",\"40\",\"2\",\"3\",\"1\",\"P\",\"J\",\"19\"
\"\",\"\",\"approach-retreat\",\"23\",\"173428\",\"0.0-23.0\",\"\",\"\",\"2-4\",\"4940\",\"39\",\"1\",\"Training\",\"Stims/Figures/7-J-10-4.bmp\",\"tapa:ka\",\"Left\",\"39\",\"2\",\"4\",\"1\",\"P\",\"J\",\"20\"
\"\",\"\",\"approach-retreat\",\"24\",\"179100\",\"0.0-24.0\",\"\",\"\",\"2-4\",\"4160\",\"37\",\"1\",\"Training\",\"Stims/Figures/44-J-10-3.bmp\",\"tapa:ka\",\"Right\",\"37\",\"2\",\"5\",\"1\",\"P\",\"J\",\"21\"
\"\",\"\",\"approach-retreat\",\"25\",\"184829\",\"0.0-25.0\",\"\",\"\",\"2-4\",\"4217\",\"39\",\"1\",\"Training\",\"Stims/Figures/27-J-0-1.bmp\",\"tapa:ka\",\"Left\",\"39\",\"2\",\"6\",\"1\",\"P\",\"J\",\"22\"
\"\",\"\",\"approach-retreat\",\"26\",\"191187\",\"0.0-26.0\",\"\",\"\",\"2-4\",\"4847\",\"38\",\"1\",\"Training\",\"Stims/Figures/44-C-30-3.bmp\",\"mala:na\",\"Up\",\"38\",\"2\",\"7\",\"1\",\"S\",\"J\",\"23\"
\"\",\"\",\"approach-retreat\",\"27\",\"198243\",\"0.0-27.0\",\"\",\"\",\"2-4\",\"5543\",\"40\",\"1\",\"Training\",\"Stims/Figures/57-C-30-1.bmp\",\"mala:na\",\"Down\",\"40\",\"2\",\"8\",\"1\",\"S\",\"J\",\"24\"
\"\",\"\",\"approach-retreat\",\"28\",\"204884\",\"0.0-28.0\",\"\",\"\",\"2-4\",\"5130\",\"37\",\"1\",\"Training\",\"Stims/Figures/27-C-30-1.bmp\",\"mala:na\",\"Left\",\"37\",\"2\",\"9\",\"1\",\"S\",\"J\",\"25\"
\"\",\"\",\"approach-retreat\",\"29\",\"211577\",\"0.0-29.0\",\"\",\"\",\"2-4\",\"5183\",\"40\",\"1\",\"Training\",\"Stims/Figures/144-C-30-3.bmp\",\"mala:na\",\"Down\",\"40\",\"2\",\"10\",\"1\",\"S\",\"J\",\"26\"
\"\",\"\",\"approach-retreat\",\"30\",\"218248\",\"0.0-30.0\",\"\",\"\",\"2-4\",\"5159\",\"40\",\"1\",\"Training\",\"Stims/Figures/139-J-0-2.bmp\",\"tapa:ka\",\"Up\",\"40\",\"2\",\"11\",\"1\",\"P\",\"J\",\"27\"
\"\",\"\",\"approach-retreat\",\"31\",\"224297\",\"0.0-31.0\",\"\",\"\",\"2-4\",\"4479\",\"39\",\"1\",\"Training\",\"Stims/Figures/74-C-20-4.bmp\",\"mala:na\",\"Right\",\"39\",\"2\",\"12\",\"1\",\"S\",\"J\",\"28\"
\"\",\"\",\"approach-retreat\",\"32\",\"230252\",\"0.0-32.0\",\"\",\"\",\"2-4\",\"4444\",\"37\",\"1\",\"Training\",\"Stims/Figures/57-J-0-1.bmp\",\"tapa:ka\",\"Right\",\"37\",\"2\",\"13\",\"1\",\"P\",\"J\",\"29\"
\"\",\"\",\"approach-retreat\",\"33\",\"236882\",\"0.0-33.0\",\"\",\"\",\"2-4\",\"5117\",\"40\",\"1\",\"Training\",\"Stims/Figures/7-C-20-4.bmp\",\"mala:na\",\"Down\",\"40\",\"2\",\"14\",\"1\",\"S\",\"J\",\"30\"
\"\",\"\",\"approach-retreat\",\"34\",\"242627\",\"0.0-34.0\",\"\",\"\",\"2-4\",\"4235\",\"37\",\"1\",\"Training\",\"Stims/Figures/144-J-10-3.bmp\",\"tapa:ka\",\"Right\",\"37\",\"2\",\"15\",\"1\",\"P\",\"J\",\"31\"
\"\",\"\",\"approach-retreat\",\"35\",\"249193\",\"0.0-35.0\",\"\",\"\",\"2-4\",\"5054\",\"37\",\"1\",\"Training\",\"Stims/Figures/118-C-20-2.bmp\",\"mala:na\",\"Left\",\"37\",\"2\",\"16\",\"1\",\"S\",\"J\",\"32\"
\"\",\"\",\"approach-retreat\",\"36\",\"255207\",\"0.0-36.0\",\"\",\"\",\"2-4\",\"4474\",\"40\",\"1\",\"Training\",\"Stims/Figures/74-J-10-4.bmp\",\"tapa:ka\",\"Up\",\"40\",\"3\",\"1\",\"1\",\"P\",\"J\",\"33\"
\"\",\"\",\"approach-retreat\",\"37\",\"261050\",\"0.0-37.0\",\"\",\"\",\"2-4\",\"4330\",\"40\",\"1\",\"Training\",\"Stims/Figures/7-C-20-4.bmp\",\"mala:na\",\"Down\",\"40\",\"3\",\"2\",\"1\",\"S\",\"J\",\"34\"
\"\",\"\",\"approach-retreat\",\"38\",\"267737\",\"0.0-38.0\",\"\",\"\",\"2-4\",\"5176\",\"37\",\"1\",\"Training\",\"Stims/Figures/74-C-20-4.bmp\",\"mala:na\",\"Left\",\"37\",\"3\",\"3\",\"1\",\"S\",\"J\",\"35\"
\"\",\"\",\"approach-retreat\",\"39\",\"273688\",\"0.0-39.0\",\"\",\"\",\"2-4\",\"4441\",\"40\",\"1\",\"Training\",\"Stims/Figures/57-C-30-1.bmp\",\"mala:na\",\"Down\",\"40\",\"3\",\"4\",\"1\",\"S\",\"J\",\"36\"
\"\",\"\",\"approach-retreat\",\"40\",\"279398\",\"0.0-40.0\",\"\",\"\",\"2-4\",\"4197\",\"39\",\"1\",\"Training\",\"Stims/Figures/44-J-10-3.bmp\",\"tapa:ka\",\"Left\",\"39\",\"3\",\"5\",\"1\",\"P\",\"J\",\"37\"
\"\",\"\",\"approach-retreat\",\"41\",\"284928\",\"0.0-41.0\",\"\",\"\",\"2-4\",\"3992\",\"39\",\"1\",\"Training\",\"Stims/Figures/118-J-0-2.bmp\",\"tapa:ka\",\"Left\",\"39\",\"3\",\"6\",\"1\",\"P\",\"J\",\"38\"
\"\",\"\",\"approach-retreat\",\"42\",\"290663\",\"0.0-42.0\",\"\",\"\",\"2-4\",\"4224\",\"40\",\"1\",\"Training\",\"Stims/Figures/118-C-20-2.bmp\",\"mala:na\",\"Down\",\"40\",\"3\",\"7\",\"1\",\"S\",\"J\",\"39\"
\"\",\"\",\"approach-retreat\",\"43\",\"296129\",\"0.0-43.0\",\"\",\"\",\"2-4\",\"3953\",\"39\",\"1\",\"Training\",\"Stims/Figures/139-J-0-2.bmp\",\"tapa:ka\",\"Left\",\"39\",\"3\",\"8\",\"1\",\"P\",\"J\",\"40\"
\"\",\"\",\"approach-retreat\",\"44\",\"301985\",\"0.0-44.0\",\"\",\"\",\"2-4\",\"4345\",\"39\",\"1\",\"Training\",\"Stims/Figures/144-C-30-3.bmp\",\"mala:na\",\"Right\",\"39\",\"3\",\"9\",\"1\",\"S\",\"J\",\"41\"
\"\",\"\",\"approach-retreat\",\"45\",\"307481\",\"0.0-45.0\",\"\",\"\",\"2-4\",\"3984\",\"37\",\"1\",\"Training\",\"Stims/Figures/27-J-0-1.bmp\",\"tapa:ka\",\"Right\",\"37\",\"3\",\"10\",\"1\",\"P\",\"J\",\"42\"
\"\",\"\",\"approach-retreat\",\"46\",\"313353\",\"0.0-46.0\",\"\",\"\",\"2-4\",\"4360\",\"39\",\"1\",\"Training\",\"Stims/Figures/139-C-20-2.bmp\",\"mala:na\",\"Right\",\"39\",\"3\",\"11\",\"1\",\"S\",\"J\",\"43\"
\"\",\"\",\"approach-retreat\",\"47\",\"318854\",\"0.0-47.0\",\"\",\"\",\"2-4\",\"3961\",\"37\",\"1\",\"Training\",\"Stims/Figures/7-J-10-4.bmp\",\"tapa:ka\",\"Right\",\"37\",\"3\",\"12\",\"1\",\"P\",\"J\",\"44\"
\"\",\"\",\"approach-retreat\",\"48\",\"325100\",\"0.0-48.0\",\"\",\"\",\"2-4\",\"4734\",\"38\",\"1\",\"Training\",\"Stims/Figures/44-C-30-3.bmp\",\"mala:na\",\"Up\",\"38\",\"3\",\"13\",\"1\",\"S\",\"J\",\"45\"
\"\",\"\",\"approach-retreat\",\"49\",\"331210\",\"0.0-49.0\",\"\",\"\",\"2-4\",\"4601\",\"40\",\"1\",\"Training\",\"Stims/Figures/27-C-30-1.bmp\",\"mala:na\",\"Down\",\"40\",\"3\",\"14\",\"1\",\"S\",\"J\",\"46\"
\"\",\"\",\"approach-retreat\",\"50\",\"336960\",\"0.0-50.0\",\"\",\"\",\"2-4\",\"4238\",\"40\",\"1\",\"Training\",\"Stims/Figures/57-J-0-1.bmp\",\"tapa:ka\",\"Up\",\"40\",\"3\",\"15\",\"1\",\"P\",\"J\",\"47\"
\"\",\"\",\"approach-retreat\",\"51\",\"343178\",\"0.0-51.0\",\"\",\"\",\"2-4\",\"4587\",\"40\",\"1\",\"Training\",\"Stims/Figures/144-J-10-3.bmp\",\"tapa:ka\",\"Up\",\"40\",\"3\",\"16\",\"1\",\"P\",\"J\",\"48\"
\"\",\"\",\"approach-retreat\",\"52\",\"348972\",\"0.0-52.0\",\"\",\"\",\"2-4\",\"4282\",\"38\",\"1\",\"Training\",\"Stims/Figures/139-J-0-2.bmp\",\"tapa:ka\",\"Down\",\"38\",\"4\",\"1\",\"1\",\"P\",\"J\",\"49\"
\"\",\"\",\"approach-retreat\",\"53\",\"354901\",\"0.0-53.0\",\"\",\"\",\"2-4\",\"4418\",\"38\",\"1\",\"Training\",\"Stims/Figures/74-C-20-4.bmp\",\"mala:na\",\"Up\",\"38\",\"4\",\"2\",\"1\",\"S\",\"J\",\"50\"
\"\",\"\",\"approach-retreat\",\"54\",\"360933\",\"0.0-54.0\",\"\",\"\",\"2-4\",\"4521\",\"37\",\"1\",\"Training\",\"Stims/Figures/44-C-30-3.bmp\",\"mala:na\",\"Left\",\"37\",\"4\",\"3\",\"1\",\"S\",\"J\",\"51\"
\"\",\"\",\"approach-retreat\",\"55\",\"366439\",\"0.0-55.0\",\"\",\"\",\"2-4\",\"3994\",\"39\",\"1\",\"Training\",\"Stims/Figures/57-C-30-1.bmp\",\"mala:na\",\"Right\",\"39\",\"4\",\"4\",\"1\",\"S\",\"J\",\"52\"
\"\",\"\",\"approach-retreat\",\"56\",\"372059\",\"0.0-56.0\",\"\",\"\",\"2-4\",\"4109\",\"37\",\"1\",\"Training\",\"Stims/Figures/7-C-20-4.bmp\",\"mala:na\",\"Left\",\"37\",\"4\",\"5\",\"1\",\"S\",\"J\",\"53\"
\"\",\"\",\"approach-retreat\",\"57\",\"378454\",\"0.0-57.0\",\"\",\"\",\"2-4\",\"4804\",\"38\",\"1\",\"Training\",\"Stims/Figures/44-J-10-3.bmp\",\"tapa:ka\",\"Down\",\"38\",\"4\",\"6\",\"1\",\"P\",\"J\",\"54\"
\"\",\"\",\"approach-retreat\",\"58\",\"384037\",\"0.0-58.0\",\"\",\"\",\"2-4\",\"4073\",\"39\",\"1\",\"Training\",\"Stims/Figures/144-C-30-3.bmp\",\"mala:na\",\"Right\",\"39\",\"4\",\"7\",\"1\",\"S\",\"J\",\"55\"
\"\",\"\",\"approach-retreat\",\"59\",\"389829\",\"0.0-59.0\",\"\",\"\",\"2-4\",\"4279\",\"39\",\"1\",\"Training\",\"Stims/Figures/74-J-10-4.bmp\",\"tapa:ka\",\"Left\",\"39\",\"4\",\"8\",\"1\",\"P\",\"J\",\"56\"
\"\",\"\",\"approach-retreat\",\"60\",\"395817\",\"0.0-60.0\",\"\",\"\",\"2-4\",\"4477\",\"40\",\"1\",\"Training\",\"Stims/Figures/27-C-30-1.bmp\",\"mala:na\",\"Down\",\"40\",\"4\",\"9\",\"1\",\"S\",\"J\",\"57\"
\"\",\"\",\"approach-retreat\",\"61\",\"401835\",\"0.0-61.0\",\"\",\"\",\"2-4\",\"4507\",\"38\",\"1\",\"Training\",\"Stims/Figures/118-C-20-2.bmp\",\"mala:na\",\"Up\",\"38\",\"4\",\"10\",\"1\",\"S\",\"J\",\"58\"
\"\",\"\",\"approach-retreat\",\"62\",\"407905\",\"0.0-62.0\",\"\",\"\",\"2-4\",\"4558\",\"37\",\"1\",\"Training\",\"Stims/Figures/27-J-0-1.bmp\",\"tapa:ka\",\"Right\",\"37\",\"4\",\"11\",\"1\",\"P\",\"J\",\"59\"
\"\",\"\",\"approach-retreat\",\"63\",\"413824\",\"0.0-63.0\",\"\",\"\",\"2-4\",\"4407\",\"37\",\"1\",\"Training\",\"Stims/Figures/118-J-0-2.bmp\",\"tapa:ka\",\"Right\",\"37\",\"4\",\"12\",\"1\",\"P\",\"J\",\"60\"
\"\",\"\",\"approach-retreat\",\"64\",\"419850\",\"0.0-64.0\",\"\",\"\",\"2-4\",\"4514\",\"39\",\"1\",\"Training\",\"Stims/Figures/144-J-10-3.bmp\",\"tapa:ka\",\"Left\",\"39\",\"4\",\"13\",\"1\",\"P\",\"J\",\"61\"
\"\",\"\",\"approach-retreat\",\"65\",\"425842\",\"0.0-65.0\",\"\",\"\",\"2-4\",\"4481\",\"40\",\"1\",\"Training\",\"Stims/Figures/7-J-10-4.bmp\",\"tapa:ka\",\"Up\",\"40\",\"4\",\"14\",\"1\",\"P\",\"J\",\"62\"
\"\",\"\",\"approach-retreat\",\"66\",\"432115\",\"0.0-66.0\",\"\",\"\",\"2-4\",\"4704\",\"38\",\"1\",\"Training\",\"Stims/Figures/139-C-20-2.bmp\",\"mala:na\",\"Up\",\"38\",\"4\",\"15\",\"1\",\"S\",\"J\",\"63\"
\"\",\"\",\"approach-retreat\",\"67\",\"438872\",\"0.0-67.0\",\"\",\"\",\"2-4\",\"5247\",\"38\",\"1\",\"Training\",\"Stims/Figures/57-J-0-1.bmp\",\"tapa:ka\",\"Down\",\"38\",\"4\",\"16\",\"1\",\"P\",\"J\",\"64\"
\"\",\"\",\"approach-retreat\",\"68\",\"444946\",\"0.0-68.0\",\"\",\"\",\"2-4\",\"4564\",\"38\",\"1\",\"Training\",\"Stims/Figures/74-J-10-4.bmp\",\"tapa:ka\",\"Down\",\"38\",\"5\",\"1\",\"1\",\"P\",\"J\",\"65\"
\"\",\"\",\"approach-retreat\",\"69\",\"450672\",\"0.0-69.0\",\"\",\"\",\"2-4\",\"4215\",\"37\",\"1\",\"Training\",\"Stims/Figures/74-C-20-4.bmp\",\"mala:na\",\"Left\",\"37\",\"5\",\"2\",\"1\",\"S\",\"J\",\"66\"
\"\",\"\",\"approach-retreat\",\"70\",\"456404\",\"0.0-70.0\",\"\",\"\",\"2-4\",\"4220\",\"38\",\"1\",\"Training\",\"Stims/Figures/44-C-30-3.bmp\",\"mala:na\",\"Up\",\"38\",\"5\",\"3\",\"1\",\"S\",\"J\",\"67\"
\"\",\"\",\"approach-retreat\",\"71\",\"462140\",\"0.0-71.0\",\"\",\"\",\"2-4\",\"4224\",\"40\",\"1\",\"Training\",\"Stims/Figures/57-J-0-1.bmp\",\"tapa:ka\",\"Up\",\"40\",\"5\",\"4\",\"1\",\"P\",\"J\",\"68\"
\"\",\"\",\"approach-retreat\",\"72\",\"468900\",\"0.0-72.0\",\"\",\"\",\"2-4\",\"5248\",\"37\",\"1\",\"Training\",\"Stims/Figures/144-C-30-3.bmp\",\"mala:na\",\"Left\",\"37\",\"5\",\"5\",\"1\",\"S\",\"J\",\"69\"
\"\",\"\",\"approach-retreat\",\"73\",\"475071\",\"0.0-73.0\",\"\",\"\",\"2-4\",\"4659\",\"37\",\"1\",\"Training\",\"Stims/Figures/57-C-30-1.bmp\",\"mala:na\",\"Left\",\"37\",\"5\",\"6\",\"1\",\"S\",\"J\",\"70\"
\"\",\"\",\"approach-retreat\",\"74\",\"480928\",\"0.0-74.0\",\"\",\"\",\"2-4\",\"4347\",\"40\",\"1\",\"Training\",\"Stims/Figures/144-J-10-3.bmp\",\"tapa:ka\",\"Up\",\"40\",\"5\",\"7\",\"1\",\"P\",\"J\",\"71\"
\"\",\"\",\"approach-retreat\",\"75\",\"487016\",\"0.0-75.0\",\"\",\"\",\"2-4\",\"4529\",\"38\",\"1\",\"Training\",\"Stims/Figures/139-J-0-2.bmp\",\"tapa:ka\",\"Down\",\"38\",\"5\",\"8\",\"1\",\"P\",\"J\",\"72\"
\"\",\"\",\"approach-retreat\",\"76\",\"493216\",\"0.0-76.0\",\"\",\"\",\"2-4\",\"4688\",\"39\",\"1\",\"Training\",\"Stims/Figures/27-C-30-1.bmp\",\"mala:na\",\"Right\",\"39\",\"5\",\"9\",\"1\",\"S\",\"J\",\"73\"
\"\",\"\",\"approach-retreat\",\"77\",\"499079\",\"0.0-77.0\",\"\",\"\",\"2-4\",\"4353\",\"39\",\"1\",\"Training\",\"Stims/Figures/7-C-20-4.bmp\",\"mala:na\",\"Right\",\"39\",\"5\",\"10\",\"1\",\"S\",\"J\",\"74\"
\"\",\"\",\"approach-retreat\",\"78\",\"505752\",\"0.0-78.0\",\"\",\"\",\"2-4\",\"5162\",\"37\",\"1\",\"Training\",\"Stims/Figures/118-J-0-2.bmp\",\"tapa:ka\",\"Right\",\"37\",\"5\",\"11\",\"1\",\"P\",\"J\",\"75\"
\"\",\"\",\"approach-retreat\",\"79\",\"511739\",\"0.0-79.0\",\"\",\"\",\"2-4\",\"4476\",\"37\",\"1\",\"Training\",\"Stims/Figures/44-J-10-3.bmp\",\"tapa:ka\",\"Right\",\"37\",\"5\",\"12\",\"1\",\"P\",\"J\",\"76\"
\"\",\"\",\"approach-retreat\",\"80\",\"517703\",\"0.0-80.0\",\"\",\"\",\"2-4\",\"4453\",\"38\",\"1\",\"Training\",\"Stims/Figures/27-J-0-1.bmp\",\"tapa:ka\",\"Down\",\"38\",\"5\",\"13\",\"1\",\"P\",\"J\",\"77\"
\"\",\"\",\"approach-retreat\",\"81\",\"523499\",\"0.0-81.0\",\"\",\"\",\"2-4\",\"4285\",\"38\",\"1\",\"Training\",\"Stims/Figures/118-C-20-2.bmp\",\"mala:na\",\"Up\",\"38\",\"5\",\"14\",\"1\",\"S\",\"J\",\"78\"
\"\",\"\",\"approach-retreat\",\"82\",\"529011\",\"0.0-82.0\",\"\",\"\",\"2-4\",\"4000\",\"39\",\"1\",\"Training\",\"Stims/Figures/7-J-10-4.bmp\",\"tapa:ka\",\"Left\",\"39\",\"5\",\"15\",\"1\",\"P\",\"J\",\"79\"
\"\",\"\",\"approach-retreat\",\"83\",\"535191\",\"0.0-83.0\",\"\",\"\",\"2-4\",\"4668\",\"40\",\"1\",\"Training\",\"Stims/Figures/139-C-20-2.bmp\",\"mala:na\",\"Down\",\"40\",\"5\",\"16\",\"1\",\"S\",\"J\",\"80\"
\"\",\"\",\"approach-retreat\",\"84\",\"540775\",\"0.0-84.0\",\"\",\"\",\"2-4\",\"4074\",\"38\",\"1\",\"Training\",\"Stims/Figures/144-C-30-3.bmp\",\"mala:na\",\"Up\",\"38\",\"6\",\"1\",\"1\",\"S\",\"J\",\"81\"
\"\",\"\",\"approach-retreat\",\"85\",\"546816\",\"0.0-85.0\",\"\",\"\",\"2-4\",\"4528\",\"37\",\"1\",\"Training\",\"Stims/Figures/44-J-10-3.bmp\",\"tapa:ka\",\"Right\",\"37\",\"6\",\"2\",\"1\",\"P\",\"J\",\"82\"
\"\",\"\",\"approach-retreat\",\"86\",\"552765\",\"0.0-86.0\",\"\",\"\",\"2-4\",\"4398\",\"40\",\"1\",\"Training\",\"Stims/Figures/7-J-10-4.bmp\",\"tapa:ka\",\"Up\",\"40\",\"6\",\"3\",\"1\",\"P\",\"J\",\"83\"
\"\",\"\",\"approach-retreat\",\"87\",\"558402\",\"0.0-87.0\",\"\",\"\",\"2-4\",\"4127\",\"38\",\"1\",\"Training\",\"Stims/Figures/118-J-0-2.bmp\",\"tapa:ka\",\"Down\",\"38\",\"6\",\"4\",\"1\",\"P\",\"J\",\"84\"
\"\",\"\",\"approach-retreat\",\"88\",\"563956\",\"0.0-88.0\",\"\",\"\",\"2-4\",\"4041\",\"39\",\"1\",\"Training\",\"Stims/Figures/27-J-0-1.bmp\",\"tapa:ka\",\"Left\",\"39\",\"6\",\"5\",\"1\",\"P\",\"J\",\"85\"
\"\",\"\",\"approach-retreat\",\"89\",\"570246\",\"0.0-89.0\",\"\",\"\",\"2-4\",\"4780\",\"40\",\"1\",\"Training\",\"Stims/Figures/74-C-20-4.bmp\",\"mala:na\",\"Down\",\"40\",\"6\",\"6\",\"1\",\"S\",\"J\",\"86\"
\"\",\"\",\"approach-retreat\",\"90\",\"576481\",\"0.0-90.0\",\"\",\"\",\"2-4\",\"4722\",\"38\",\"1\",\"Training\",\"Stims/Figures/57-C-30-1.bmp\",\"mala:na\",\"Up\",\"38\",\"6\",\"7\",\"1\",\"S\",\"J\",\"87\"
\"\",\"\",\"approach-retreat\",\"91\",\"582414\",\"0.0-91.0\",\"\",\"\",\"2-4\",\"4423\",\"37\",\"1\",\"Training\",\"Stims/Figures/57-J-0-1.bmp\",\"tapa:ka\",\"Right\",\"37\",\"6\",\"8\",\"1\",\"P\",\"J\",\"88\"
\"\",\"\",\"approach-retreat\",\"92\",\"588251\",\"0.0-92.0\",\"\",\"\",\"2-4\",\"4326\",\"39\",\"1\",\"Training\",\"Stims/Figures/74-J-10-4.bmp\",\"tapa:ka\",\"Left\",\"39\",\"6\",\"9\",\"1\",\"P\",\"J\",\"89\"
\"\",\"\",\"approach-retreat\",\"93\",\"594054\",\"0.0-93.0\",\"\",\"\",\"2-4\",\"4292\",\"38\",\"1\",\"Training\",\"Stims/Figures/44-C-30-3.bmp\",\"mala:na\",\"Up\",\"38\",\"6\",\"10\",\"1\",\"S\",\"J\",\"90\"
\"\",\"\",\"approach-retreat\",\"94\",\"599601\",\"0.0-94.0\",\"\",\"\",\"2-4\",\"4037\",\"39\",\"1\",\"Training\",\"Stims/Figures/144-J-10-3.bmp\",\"tapa:ka\",\"Left\",\"39\",\"6\",\"11\",\"1\",\"P\",\"J\",\"91\"
\"\",\"\",\"approach-retreat\",\"95\",\"605629\",\"0.0-95.0\",\"\",\"\",\"2-4\",\"4517\",\"40\",\"1\",\"Training\",\"Stims/Figures/139-C-20-2.bmp\",\"mala:na\",\"Down\",\"40\",\"6\",\"12\",\"1\",\"S\",\"J\",\"92\"
\"\",\"\",\"approach-retreat\",\"96\",\"611531\",\"0.0-96.0\",\"\",\"\",\"2-4\",\"4389\",\"37\",\"1\",\"Training\",\"Stims/Figures/139-J-0-2.bmp\",\"tapa:ka\",\"Right\",\"37\",\"6\",\"13\",\"1\",\"P\",\"J\",\"93\"
\"\",\"\",\"approach-retreat\",\"97\",\"617599\",\"0.0-97.0\",\"\",\"\",\"2-4\",\"4557\",\"40\",\"1\",\"Training\",\"Stims/Figures/7-C-20-4.bmp\",\"mala:na\",\"Down\",\"40\",\"6\",\"14\",\"1\",\"S\",\"J\",\"94\"
\"\",\"\",\"approach-retreat\",\"98\",\"623571\",\"0.0-98.0\",\"\",\"\",\"2-4\",\"4406\",\"39\",\"1\",\"Training\",\"Stims/Figures/27-C-30-1.bmp\",\"mala:na\",\"Right\",\"39\",\"6\",\"15\",\"1\",\"S\",\"J\",\"95\"
\"\",\"\",\"approach-retreat\",\"99\",\"629233\",\"0.0-99.0\",\"\",\"\",\"2-4\",\"4151\",\"37\",\"1\",\"Training\",\"Stims/Figures/118-C-20-2.bmp\",\"mala:na\",\"Left\",\"37\",\"6\",\"16\",\"1\",\"S\",\"J\",\"96\"
\"\",\"\",\"approach-retreat\",\"100\",\"635079\",\"0.0-100.0\",\"\",\"\",\"2-4\",\"4335\",\"40\",\"1\",\"Training\",\"Stims/Figures/74-C-20-4.bmp\",\"mala:na\",\"Down\",\"40\",\"7\",\"1\",\"1\",\"S\",\"J\",\"97\"
\"\",\"\",\"approach-retreat\",\"101\",\"640720\",\"0.0-101.0\",\"\",\"\",\"2-4\",\"4129\",\"39\",\"1\",\"Training\",\"Stims/Figures/27-C-30-1.bmp\",\"mala:na\",\"Right\",\"39\",\"7\",\"2\",\"1\",\"S\",\"J\",\"98\"
\"\",\"\",\"approach-retreat\",\"102\",\"646240\",\"0.0-102.0\",\"\",\"\",\"2-4\",\"3962\",\"38\",\"1\",\"Training\",\"Stims/Figures/57-C-30-1.bmp\",\"mala:na\",\"Up\",\"38\",\"7\",\"3\",\"1\",\"S\",\"J\",\"99\"
\"\",\"\",\"approach-retreat\",\"103\",\"651808\",\"0.0-103.0\",\"\",\"\",\"2-4\",\"4057\",\"37\",\"1\",\"Training\",\"Stims/Figures/27-J-0-1.bmp\",\"tapa:ka\",\"Right\",\"37\",\"7\",\"4\",\"1\",\"P\",\"J\",\"100\"
\"\",\"\",\"approach-retreat\",\"104\",\"657981\",\"0.0-104.0\",\"\",\"\",\"2-4\",\"4662\",\"38\",\"1\",\"Training\",\"Stims/Figures/74-J-10-4.bmp\",\"tapa:ka\",\"Down\",\"38\",\"7\",\"5\",\"1\",\"P\",\"J\",\"101\"
\"\",\"\",\"approach-retreat\",\"105\",\"663494\",\"0.0-105.0\",\"\",\"\",\"2-4\",\"4002\",\"38\",\"1\",\"Training\",\"Stims/Figures/139-J-0-2.bmp\",\"tapa:ka\",\"Down\",\"38\",\"7\",\"6\",\"1\",\"P\",\"J\",\"102\"
\"\",\"\",\"approach-retreat\",\"106\",\"669366\",\"0.0-106.0\",\"\",\"\",\"2-4\",\"4360\",\"39\",\"1\",\"Training\",\"Stims/Figures/7-C-20-4.bmp\",\"mala:na\",\"Right\",\"39\",\"7\",\"7\",\"1\",\"S\",\"J\",\"103\"
\"\",\"\",\"approach-retreat\",\"107\",\"674965\",\"0.0-107.0\",\"\",\"\",\"2-4\",\"4041\",\"37\",\"1\",\"Training\",\"Stims/Figures/144-J-10-3.bmp\",\"tapa:ka\",\"Right\",\"37\",\"7\",\"8\",\"1\",\"P\",\"J\",\"104\"
\"\",\"\",\"approach-retreat\",\"108\",\"680508\",\"0.0-108.0\",\"\",\"\",\"2-4\",\"4035\",\"39\",\"0\",\"Training\",\"Stims/Figures/139-C-20-2.bmp\",\"mala:na\",\"Left\",\"37\",\"7\",\"9\",\"1\",\"S\",\"J\",\"105\"
\"\",\"\",\"approach-retreat\",\"109\",\"686241\",\"0.0-109.0\",\"\",\"\",\"2-4\",\"4221\",\"40\",\"1\",\"Training\",\"Stims/Figures/44-J-10-3.bmp\",\"tapa:ka\",\"Up\",\"40\",\"7\",\"10\",\"1\",\"P\",\"J\",\"106\"
\"\",\"\",\"approach-retreat\",\"110\",\"692166\",\"0.0-110.0\",\"\",\"\",\"2-4\",\"4414\",\"39\",\"1\",\"Training\",\"Stims/Figures/118-J-0-2.bmp\",\"tapa:ka\",\"Left\",\"39\",\"7\",\"11\",\"1\",\"P\",\"J\",\"107\"
\"\",\"\",\"approach-retreat\",\"111\",\"697823\",\"0.0-111.0\",\"\",\"\",\"2-4\",\"4147\",\"37\",\"1\",\"Training\",\"Stims/Figures/118-C-20-2.bmp\",\"mala:na\",\"Left\",\"37\",\"7\",\"12\",\"1\",\"S\",\"J\",\"108\"
\"\",\"\",\"approach-retreat\",\"112\",\"703895\",\"0.0-112.0\",\"\",\"\",\"2-4\",\"4561\",\"38\",\"1\",\"Training\",\"Stims/Figures/144-C-30-3.bmp\",\"mala:na\",\"Up\",\"38\",\"7\",\"13\",\"1\",\"S\",\"J\",\"109\"
\"\",\"\",\"approach-retreat\",\"113\",\"710288\",\"0.0-113.0\",\"\",\"\",\"2-4\",\"4836\",\"38\",\"1\",\"Training\",\"Stims/Figures/57-J-0-1.bmp\",\"tapa:ka\",\"Down\",\"38\",\"7\",\"14\",\"1\",\"P\",\"J\",\"110\"
\"\",\"\",\"approach-retreat\",\"114\",\"716077\",\"0.0-114.0\",\"\",\"\",\"2-4\",\"4279\",\"38\",\"1\",\"Training\",\"Stims/Figures/44-C-30-3.bmp\",\"mala:na\",\"Up\",\"38\",\"7\",\"15\",\"1\",\"S\",\"J\",\"111\"
\"\",\"\",\"approach-retreat\",\"115\",\"721889\",\"0.0-115.0\",\"\",\"\",\"2-4\",\"4302\",\"39\",\"1\",\"Training\",\"Stims/Figures/7-J-10-4.bmp\",\"tapa:ka\",\"Left\",\"39\",\"7\",\"16\",\"1\",\"P\",\"J\",\"112\"
\"\",\"\",\"approach-retreat\",\"116\",\"727549\",\"0.0-116.0\",\"\",\"\",\"2-4\",\"4149\",\"38\",\"1\",\"Training\",\"Stims/Figures/74-J-10-4.bmp\",\"tapa:ka\",\"Down\",\"38\",\"8\",\"1\",\"1\",\"P\",\"J\",\"113\"
\"\",\"\",\"approach-retreat\",\"117\",\"733152\",\"0.0-117.0\",\"\",\"\",\"2-4\",\"4092\",\"37\",\"1\",\"Training\",\"Stims/Figures/44-J-10-3.bmp\",\"tapa:ka\",\"Right\",\"37\",\"8\",\"2\",\"1\",\"P\",\"J\",\"114\"
\"\",\"\",\"approach-retreat\",\"118\",\"738815\",\"0.0-118.0\",\"\",\"\",\"2-4\",\"4152\",\"40\",\"1\",\"Training\",\"Stims/Figures/118-J-0-2.bmp\",\"tapa:ka\",\"Up\",\"40\",\"8\",\"3\",\"1\",\"P\",\"J\",\"115\"
\"\",\"\",\"approach-retreat\",\"119\",\"744681\",\"0.0-119.0\",\"\",\"\",\"2-4\",\"4324\",\"37\",\"1\",\"Training\",\"Stims/Figures/44-C-30-3.bmp\",\"mala:na\",\"Left\",\"37\",\"8\",\"4\",\"1\",\"S\",\"J\",\"116\"
\"\",\"\",\"approach-retreat\",\"120\",\"750927\",\"0.0-120.0\",\"\",\"\",\"2-4\",\"4733\",\"38\",\"1\",\"Training\",\"Stims/Figures/27-C-30-1.bmp\",\"mala:na\",\"Up\",\"38\",\"8\",\"5\",\"1\",\"S\",\"J\",\"117\"
\"\",\"\",\"approach-retreat\",\"121\",\"756736\",\"0.0-121.0\",\"\",\"\",\"2-4\",\"4297\",\"40\",\"1\",\"Training\",\"Stims/Figures/144-J-10-3.bmp\",\"tapa:ka\",\"Up\",\"40\",\"8\",\"6\",\"1\",\"P\",\"J\",\"118\"
\"\",\"\",\"approach-retreat\",\"122\",\"762564\",\"0.0-122.0\",\"\",\"\",\"2-4\",\"4318\",\"37\",\"1\",\"Training\",\"Stims/Figures/139-J-0-2.bmp\",\"tapa:ka\",\"Right\",\"37\",\"8\",\"7\",\"1\",\"P\",\"J\",\"119\"
\"\",\"\",\"approach-retreat\",\"123\",\"769632\",\"0.0-123.0\",\"\",\"\",\"2-4\",\"5557\",\"40\",\"1\",\"Training\",\"Stims/Figures/7-C-20-4.bmp\",\"mala:na\",\"Down\",\"40\",\"8\",\"8\",\"1\",\"S\",\"J\",\"120\"
\"\",\"\",\"approach-retreat\",\"124\",\"776125\",\"0.0-124.0\",\"\",\"\",\"2-4\",\"4981\",\"39\",\"1\",\"Training\",\"Stims/Figures/118-C-20-2.bmp\",\"mala:na\",\"Right\",\"39\",\"8\",\"9\",\"1\",\"S\",\"J\",\"121\"
\"\",\"\",\"approach-retreat\",\"125\",\"781819\",\"0.0-125.0\",\"\",\"\",\"2-4\",\"4183\",\"38\",\"1\",\"Training\",\"Stims/Figures/57-J-0-1.bmp\",\"tapa:ka\",\"Down\",\"38\",\"8\",\"10\",\"1\",\"P\",\"J\",\"122\"
\"\",\"\",\"approach-retreat\",\"126\",\"788351\",\"0.0-126.0\",\"\",\"\",\"2-4\",\"5019\",\"40\",\"1\",\"Training\",\"Stims/Figures/74-C-20-4.bmp\",\"mala:na\",\"Down\",\"40\",\"8\",\"11\",\"1\",\"S\",\"J\",\"123\"
\"\",\"\",\"approach-retreat\",\"127\",\"794110\",\"0.0-127.0\",\"\",\"\",\"2-4\",\"4247\",\"39\",\"1\",\"Training\",\"Stims/Figures/144-C-30-3.bmp\",\"mala:na\",\"Right\",\"39\",\"8\",\"12\",\"1\",\"S\",\"J\",\"124\"
\"\",\"\",\"approach-retreat\",\"128\",\"799825\",\"0.0-128.0\",\"\",\"\",\"2-4\",\"4202\",\"38\",\"1\",\"Training\",\"Stims/Figures/57-C-30-1.bmp\",\"mala:na\",\"Up\",\"38\",\"8\",\"13\",\"1\",\"S\",\"J\",\"125\"
\"\",\"\",\"approach-retreat\",\"129\",\"806033\",\"0.0-129.0\",\"\",\"\",\"2-4\",\"4696\",\"39\",\"1\",\"Training\",\"Stims/Figures/7-J-10-4.bmp\",\"tapa:ka\",\"Left\",\"39\",\"8\",\"14\",\"1\",\"P\",\"J\",\"126\"
\"\",\"\",\"approach-retreat\",\"130\",\"811720\",\"0.0-130.0\",\"\",\"\",\"2-4\",\"4175\",\"39\",\"1\",\"Training\",\"Stims/Figures/27-J-0-1.bmp\",\"tapa:ka\",\"Left\",\"39\",\"8\",\"15\",\"1\",\"P\",\"J\",\"127\"
\"\",\"\",\"approach-retreat\",\"131\",\"817346\",\"0.0-131.0\",\"\",\"\",\"2-4\",\"4114\",\"37\",\"1\",\"Training\",\"Stims/Figures/139-C-20-2.bmp\",\"mala:na\",\"Left\",\"37\",\"8\",\"16\",\"1\",\"S\",\"J\",\"128\"
\"\",\"\",\"approach-retreat\",\"132\",\"823087\",\"0.0-132.0\",\"\",\"\",\"2-4\",\"4230\",\"40\",\"1\",\"Training\",\"Stims/Figures/118-C-20-2.bmp\",\"mala:na\",\"Down\",\"40\",\"9\",\"1\",\"1\",\"S\",\"J\",\"129\"
\"\",\"\",\"approach-retreat\",\"133\",\"828782\",\"0.0-133.0\",\"\",\"\",\"2-4\",\"4125\",\"38\",\"1\",\"Training\",\"Stims/Figures/118-J-0-2.bmp\",\"tapa:ka\",\"Down\",\"38\",\"9\",\"2\",\"1\",\"P\",\"J\",\"130\"
\"\",\"\",\"approach-retreat\",\"134\",\"834297\",\"0.0-134.0\",\"\",\"\",\"2-4\",\"4005\",\"37\",\"1\",\"Training\",\"Stims/Figures/7-J-10-4.bmp\",\"tapa:ka\",\"Right\",\"37\",\"9\",\"3\",\"1\",\"P\",\"J\",\"131\"
\"\",\"\",\"approach-retreat\",\"135\",\"840181\",\"0.0-135.0\",\"\",\"\",\"2-4\",\"4373\",\"39\",\"1\",\"Training\",\"Stims/Figures/27-C-30-1.bmp\",\"mala:na\",\"Right\",\"39\",\"9\",\"4\",\"1\",\"S\",\"J\",\"132\"
\"\",\"\",\"approach-retreat\",\"136\",\"845724\",\"0.0-136.0\",\"\",\"\",\"2-4\",\"4031\",\"39\",\"1\",\"Training\",\"Stims/Figures/57-J-0-1.bmp\",\"tapa:ka\",\"Left\",\"39\",\"9\",\"5\",\"1\",\"P\",\"J\",\"133\"
\"\",\"\",\"approach-retreat\",\"137\",\"851234\",\"0.0-137.0\",\"\",\"\",\"2-4\",\"3999\",\"40\",\"0\",\"Training\",\"Stims/Figures/139-C-20-2.bmp\",\"mala:na\",\"Up\",\"38\",\"9\",\"6\",\"1\",\"S\",\"J\",\"134\"
\"\",\"\",\"approach-retreat\",\"138\",\"856894\",\"0.0-138.0\",\"\",\"\",\"2-4\",\"4147\",\"37\",\"1\",\"Training\",\"Stims/Figures/74-J-10-4.bmp\",\"tapa:ka\",\"Right\",\"37\",\"9\",\"7\",\"1\",\"P\",\"J\",\"135\"
\"\",\"\",\"approach-retreat\",\"139\",\"863007\",\"0.0-139.0\",\"\",\"\",\"2-4\",\"4602\",\"40\",\"1\",\"Training\",\"Stims/Figures/74-C-20-4.bmp\",\"mala:na\",\"Down\",\"40\",\"9\",\"8\",\"1\",\"S\",\"J\",\"136\"
\"\",\"\",\"approach-retreat\",\"140\",\"868839\",\"0.0-140.0\",\"\",\"\",\"2-4\",\"4321\",\"38\",\"1\",\"Training\",\"Stims/Figures/7-C-20-4.bmp\",\"mala:na\",\"Up\",\"38\",\"9\",\"9\",\"1\",\"S\",\"J\",\"137\"
\"\",\"\",\"approach-retreat\",\"141\",\"874690\",\"0.0-141.0\",\"\",\"\",\"2-4\",\"4340\",\"38\",\"1\",\"Training\",\"Stims/Figures/57-C-30-1.bmp\",\"mala:na\",\"Up\",\"38\",\"9\",\"10\",\"1\",\"S\",\"J\",\"138\"
\"\",\"\",\"approach-retreat\",\"142\",\"880574\",\"0.0-142.0\",\"\",\"\",\"2-4\",\"4374\",\"40\",\"1\",\"Training\",\"Stims/Figures/44-C-30-3.bmp\",\"mala:na\",\"Down\",\"40\",\"9\",\"11\",\"1\",\"S\",\"J\",\"139\"
\"\",\"\",\"approach-retreat\",\"143\",\"886191\",\"0.0-143.0\",\"\",\"\",\"2-4\",\"4106\",\"39\",\"1\",\"Training\",\"Stims/Figures/44-J-10-3.bmp\",\"tapa:ka\",\"Left\",\"39\",\"9\",\"12\",\"1\",\"P\",\"J\",\"140\"
\"\",\"\",\"approach-retreat\",\"144\",\"891871\",\"0.0-144.0\",\"\",\"\",\"2-4\",\"4168\",\"40\",\"1\",\"Training\",\"Stims/Figures/139-J-0-2.bmp\",\"tapa:ka\",\"Up\",\"40\",\"9\",\"13\",\"1\",\"P\",\"J\",\"141\"
\"\",\"\",\"approach-retreat\",\"145\",\"897328\",\"0.0-145.0\",\"\",\"\",\"2-4\",\"3946\",\"39\",\"1\",\"Training\",\"Stims/Figures/27-J-0-1.bmp\",\"tapa:ka\",\"Left\",\"39\",\"9\",\"14\",\"1\",\"P\",\"J\",\"142\"
\"\",\"\",\"approach-retreat\",\"146\",\"903504\",\"0.0-146.0\",\"\",\"\",\"2-4\",\"4665\",\"39\",\"1\",\"Training\",\"Stims/Figures/144-C-30-3.bmp\",\"mala:na\",\"Right\",\"39\",\"9\",\"15\",\"1\",\"S\",\"J\",\"143\"
\"\",\"\",\"approach-retreat\",\"147\",\"909034\",\"0.0-147.0\",\"\",\"\",\"2-4\",\"3977\",\"39\",\"1\",\"Training\",\"Stims/Figures/144-J-10-3.bmp\",\"tapa:ka\",\"Left\",\"39\",\"9\",\"16\",\"1\",\"P\",\"J\",\"144\"
\"8575\",\"\",\"instructions\",\"148\",\"917609\",\"0.0-148.0\",\"[{\"\"page_index\"\":0,\"\"viewing_time\"\":8574}]\",\"\",\"\",\"\",\"\",\"\",\"\",\"\",\"\",\"\",\"\",\"\",\"\",\"\",\"\",\"\",\"\"
\"\",\"\",\"approach-retreat\",\"149\",\"925358\",\"0.0-149.0\",\"\",\"\",\"2-4\",\"6240\",\"40\",\"0\",\"Testing\",\"Stims/Figures/111-J-10-3.bmp\",\"tapa:ka\",\"Down\",\"38\",\"1\",\"1\",\"1\",\"P\",\"J\",\"1\"
\"\",\"\",\"approach-retreat\",\"150\",\"932071\",\"0.0-150.0\",\"\",\"\",\"2-4\",\"5205\",\"40\",\"1\",\"Testing\",\"Stims/Figures/139-J-0-2.bmp\",\"tapa:ka\",\"Up\",\"40\",\"1\",\"2\",\"1\",\"P\",\"J\",\"2\"
\"\",\"\",\"approach-retreat\",\"151\",\"937769\",\"0.0-151.0\",\"\",\"\",\"2-4\",\"4189\",\"37\",\"1\",\"Testing\",\"Stims/Figures/27-J-0-1.bmp\",\"tapa:ka\",\"Right\",\"37\",\"1\",\"3\",\"1\",\"P\",\"J\",\"3\"
\"\",\"\",\"approach-retreat\",\"152\",\"943711\",\"0.0-152.0\",\"\",\"\",\"2-4\",\"4434\",\"38\",\"1\",\"Testing\",\"Stims/Figures/144-J-10-3.bmp\",\"tapa:ka\",\"Down\",\"38\",\"1\",\"4\",\"1\",\"P\",\"J\",\"4\"
\"\",\"\",\"approach-retreat\",\"153\",\"949681\",\"0.0-153.0\",\"\",\"\",\"2-4\",\"4460\",\"38\",\"1\",\"Testing\",\"Stims/Figures/94-C-20-2.bmp\",\"mala:na\",\"Up\",\"38\",\"1\",\"5\",\"1\",\"S\",\"J\",\"5\"
\"\",\"\",\"approach-retreat\",\"154\",\"956027\",\"0.0-154.0\",\"\",\"\",\"2-4\",\"4836\",\"40\",\"1\",\"Testing\",\"Stims/Figures/57-C-30-1.bmp\",\"mala:na\",\"Down\",\"40\",\"1\",\"6\",\"1\",\"S\",\"J\",\"6\"
\"\",\"\",\"approach-retreat\",\"155\",\"961990\",\"0.0-155.0\",\"\",\"\",\"2-4\",\"4454\",\"37\",\"1\",\"Testing\",\"Stims/Figures/7-C-20-4.bmp\",\"mala:na\",\"Left\",\"37\",\"1\",\"7\",\"1\",\"S\",\"J\",\"7\"
\"\",\"\",\"approach-retreat\",\"156\",\"967862\",\"0.0-156.0\",\"\",\"\",\"2-4\",\"4364\",\"37\",\"1\",\"Testing\",\"Stims/Figures/111-C-30-3.bmp\",\"mala:na\",\"Left\",\"37\",\"1\",\"8\",\"1\",\"S\",\"J\",\"8\"
\"\",\"\",\"approach-retreat\",\"157\",\"973583\",\"0.0-157.0\",\"\",\"\",\"2-4\",\"4213\",\"40\",\"1\",\"Testing\",\"Stims/Figures/94-J-0-2.bmp\",\"tapa:ka\",\"Up\",\"40\",\"1\",\"9\",\"1\",\"P\",\"J\",\"9\"
\"\",\"\",\"approach-retreat\",\"158\",\"979351\",\"0.0-158.0\",\"\",\"\",\"2-4\",\"4258\",\"40\",\"1\",\"Testing\",\"Stims/Figures/139-C-20-2.bmp\",\"mala:na\",\"Down\",\"40\",\"1\",\"10\",\"1\",\"S\",\"J\",\"10\"
\"\",\"\",\"approach-retreat\",\"159\",\"984975\",\"0.0-159.0\",\"\",\"\",\"2-4\",\"4116\",\"37\",\"1\",\"Testing\",\"Stims/Figures/86-J-0-1.bmp\",\"tapa:ka\",\"Right\",\"37\",\"1\",\"11\",\"1\",\"P\",\"J\",\"11\"
\"\",\"\",\"approach-retreat\",\"160\",\"990628\",\"0.0-160.0\",\"\",\"\",\"2-4\",\"4140\",\"37\",\"1\",\"Testing\",\"Stims/Figures/44-J-10-3.bmp\",\"tapa:ka\",\"Right\",\"37\",\"1\",\"12\",\"1\",\"P\",\"J\",\"12\"
\"\",\"\",\"approach-retreat\",\"161\",\"996385\",\"0.0-161.0\",\"\",\"\",\"2-4\",\"4249\",\"40\",\"1\",\"Testing\",\"Stims/Figures/44-C-30-3.bmp\",\"mala:na\",\"Down\",\"40\",\"1\",\"13\",\"1\",\"S\",\"J\",\"13\"
\"\",\"\",\"approach-retreat\",\"162\",\"1002044\",\"0.0-162.0\",\"\",\"\",\"2-4\",\"4150\",\"38\",\"1\",\"Testing\",\"Stims/Figures/86-C-30-1.bmp\",\"mala:na\",\"Up\",\"38\",\"1\",\"14\",\"1\",\"S\",\"J\",\"14\"
\"\",\"\",\"approach-retreat\",\"163\",\"1007517\",\"0.0-163.0\",\"\",\"\",\"2-4\",\"3963\",\"39\",\"1\",\"Testing\",\"Stims/Figures/7-J-10-4.bmp\",\"tapa:ka\",\"Left\",\"39\",\"1\",\"15\",\"1\",\"P\",\"J\",\"15\"
\"\",\"\",\"approach-retreat\",\"164\",\"1013405\",\"0.0-164.0\",\"\",\"\",\"2-4\",\"4379\",\"39\",\"1\",\"Testing\",\"Stims/Figures/19-J-10-4.bmp\",\"tapa:ka\",\"Left\",\"39\",\"1\",\"16\",\"1\",\"P\",\"J\",\"16\"
\"\",\"\",\"approach-retreat\",\"165\",\"1019054\",\"0.0-165.0\",\"\",\"\",\"2-4\",\"4140\",\"37\",\"1\",\"Testing\",\"Stims/Figures/144-C-30-3.bmp\",\"mala:na\",\"Left\",\"37\",\"1\",\"17\",\"1\",\"S\",\"J\",\"17\"
\"\",\"\",\"approach-retreat\",\"166\",\"1024823\",\"0.0-166.0\",\"\",\"\",\"2-4\",\"4260\",\"38\",\"1\",\"Testing\",\"Stims/Figures/118-C-20-2.bmp\",\"mala:na\",\"Up\",\"38\",\"1\",\"18\",\"1\",\"S\",\"J\",\"18\"
\"\",\"\",\"approach-retreat\",\"167\",\"1030847\",\"0.0-167.0\",\"\",\"\",\"2-4\",\"4514\",\"39\",\"1\",\"Testing\",\"Stims/Figures/74-C-20-4.bmp\",\"mala:na\",\"Right\",\"39\",\"1\",\"19\",\"1\",\"S\",\"J\",\"19\"
\"\",\"\",\"approach-retreat\",\"168\",\"1036466\",\"0.0-168.0\",\"\",\"\",\"2-4\",\"4111\",\"39\",\"1\",\"Testing\",\"Stims/Figures/57-J-0-1.bmp\",\"tapa:ka\",\"Left\",\"39\",\"1\",\"20\",\"1\",\"P\",\"J\",\"20\"
\"\",\"\",\"approach-retreat\",\"169\",\"1042415\",\"0.0-169.0\",\"\",\"\",\"2-4\",\"4439\",\"39\",\"1\",\"Testing\",\"Stims/Figures/27-C-30-1.bmp\",\"mala:na\",\"Right\",\"39\",\"1\",\"21\",\"1\",\"S\",\"J\",\"21\"
\"\",\"\",\"approach-retreat\",\"170\",\"1048235\",\"0.0-170.0\",\"\",\"\",\"2-4\",\"4310\",\"38\",\"1\",\"Testing\",\"Stims/Figures/19-C-20-4.bmp\",\"mala:na\",\"Up\",\"38\",\"1\",\"22\",\"1\",\"S\",\"J\",\"22\"
\"\",\"\",\"approach-retreat\",\"171\",\"1053840\",\"0.0-171.0\",\"\",\"\",\"2-4\",\"4097\",\"38\",\"1\",\"Testing\",\"Stims/Figures/118-J-0-2.bmp\",\"tapa:ka\",\"Down\",\"38\",\"1\",\"23\",\"1\",\"P\",\"J\",\"23\"
\"\",\"\",\"approach-retreat\",\"172\",\"1059319\",\"0.0-172.0\",\"\",\"\",\"2-4\",\"3970\",\"37\",\"1\",\"Testing\",\"Stims/Figures/74-J-10-4.bmp\",\"tapa:ka\",\"Right\",\"37\",\"1\",\"24\",\"1\",\"P\",\"J\",\"24\"
\"\",\"\",\"approach-retreat\",\"173\",\"1065037\",\"0.0-173.0\",\"\",\"\",\"2-4\",\"4209\",\"37\",\"1\",\"Testing\",\"Stims/Figures/139-J-0-2.bmp\",\"tapa:ka\",\"Right\",\"37\",\"2\",\"1\",\"1\",\"P\",\"J\",\"25\"
\"\",\"\",\"approach-retreat\",\"174\",\"1070809\",\"0.0-174.0\",\"\",\"\",\"2-4\",\"4264\",\"38\",\"1\",\"Testing\",\"Stims/Figures/74-J-10-4.bmp\",\"tapa:ka\",\"Down\",\"38\",\"2\",\"2\",\"1\",\"P\",\"J\",\"26\"
\"\",\"\",\"approach-retreat\",\"175\",\"1076302\",\"0.0-175.0\",\"\",\"\",\"2-4\",\"3983\",\"39\",\"1\",\"Testing\",\"Stims/Figures/57-J-0-1.bmp\",\"tapa:ka\",\"Left\",\"39\",\"2\",\"3\",\"1\",\"P\",\"J\",\"27\"
\"\",\"\",\"approach-retreat\",\"176\",\"1082378\",\"0.0-176.0\",\"\",\"\",\"2-4\",\"4566\",\"39\",\"1\",\"Testing\",\"Stims/Figures/111-J-10-3.bmp\",\"tapa:ka\",\"Left\",\"39\",\"2\",\"4\",\"1\",\"P\",\"J\",\"28\"
\"\",\"\",\"approach-retreat\",\"177\",\"1088059\",\"0.0-177.0\",\"\",\"\",\"2-4\",\"4173\",\"38\",\"1\",\"Testing\",\"Stims/Figures/57-C-30-1.bmp\",\"mala:na\",\"Up\",\"38\",\"2\",\"5\",\"1\",\"S\",\"J\",\"29\"
\"\",\"\",\"approach-retreat\",\"178\",\"1094231\",\"0.0-178.0\",\"\",\"\",\"2-4\",\"4663\",\"38\",\"1\",\"Testing\",\"Stims/Figures/7-C-20-4.bmp\",\"mala:na\",\"Up\",\"38\",\"2\",\"6\",\"1\",\"S\",\"J\",\"30\"
\"\",\"\",\"approach-retreat\",\"179\",\"1099819\",\"0.0-179.0\",\"\",\"\",\"2-4\",\"4080\",\"38\",\"1\",\"Testing\",\"Stims/Figures/19-C-20-4.bmp\",\"mala:na\",\"Up\",\"38\",\"2\",\"7\",\"1\",\"S\",\"J\",\"31\"
\"\",\"\",\"approach-retreat\",\"180\",\"1105415\",\"0.0-180.0\",\"\",\"\",\"2-4\",\"4085\",\"37\",\"1\",\"Testing\",\"Stims/Figures/27-C-30-1.bmp\",\"mala:na\",\"Left\",\"37\",\"2\",\"8\",\"1\",\"S\",\"J\",\"32\"
\"\",\"\",\"approach-retreat\",\"181\",\"1112584\",\"0.0-181.0\",\"\",\"\",\"2-4\",\"5661\",\"40\",\"1\",\"Testing\",\"Stims/Figures/44-C-30-3.bmp\",\"mala:na\",\"Down\",\"40\",\"2\",\"9\",\"1\",\"S\",\"J\",\"33\"
\"\",\"\",\"approach-retreat\",\"182\",\"1118182\",\"0.0-182.0\",\"\",\"\",\"2-4\",\"4088\",\"40\",\"1\",\"Testing\",\"Stims/Figures/44-J-10-3.bmp\",\"tapa:ka\",\"Up\",\"40\",\"2\",\"10\",\"1\",\"P\",\"J\",\"34\"
\"\",\"\",\"approach-retreat\",\"183\",\"1123977\",\"0.0-183.0\",\"\",\"\",\"2-4\",\"4287\",\"38\",\"1\",\"Testing\",\"Stims/Figures/27-J-0-1.bmp\",\"tapa:ka\",\"Down\",\"38\",\"2\",\"11\",\"1\",\"P\",\"J\",\"35\"
\"\",\"\",\"approach-retreat\",\"184\",\"1129583\",\"0.0-184.0\",\"\",\"\",\"2-4\",\"4088\",\"39\",\"0\",\"Testing\",\"Stims/Figures/7-J-10-4.bmp\",\"tapa:ka\",\"Right\",\"37\",\"2\",\"12\",\"1\",\"P\",\"J\",\"36\"
\"\",\"\",\"approach-retreat\",\"185\",\"1135337\",\"0.0-185.0\",\"\",\"\",\"2-4\",\"4235\",\"40\",\"1\",\"Testing\",\"Stims/Figures/144-C-30-3.bmp\",\"mala:na\",\"Down\",\"40\",\"2\",\"13\",\"1\",\"S\",\"J\",\"37\"
\"\",\"\",\"approach-retreat\",\"186\",\"1141019\",\"0.0-186.0\",\"\",\"\",\"2-4\",\"4174\",\"38\",\"1\",\"Testing\",\"Stims/Figures/94-J-0-2.bmp\",\"tapa:ka\",\"Down\",\"38\",\"2\",\"14\",\"1\",\"P\",\"J\",\"38\"
\"\",\"\",\"approach-retreat\",\"187\",\"1146610\",\"0.0-187.0\",\"\",\"\",\"2-4\",\"4081\",\"39\",\"1\",\"Testing\",\"Stims/Figures/111-C-30-3.bmp\",\"mala:na\",\"Right\",\"39\",\"2\",\"15\",\"1\",\"S\",\"J\",\"39\"
\"\",\"\",\"approach-retreat\",\"188\",\"1152509\",\"0.0-188.0\",\"\",\"\",\"2-4\",\"4391\",\"39\",\"1\",\"Testing\",\"Stims/Figures/144-J-10-3.bmp\",\"tapa:ka\",\"Left\",\"39\",\"2\",\"16\",\"1\",\"P\",\"J\",\"40\"
\"\",\"\",\"approach-retreat\",\"189\",\"1158135\",\"0.0-189.0\",\"\",\"\",\"2-4\",\"4116\",\"37\",\"1\",\"Testing\",\"Stims/Figures/94-C-20-2.bmp\",\"mala:na\",\"Left\",\"37\",\"2\",\"17\",\"1\",\"S\",\"J\",\"41\"
\"\",\"\",\"approach-retreat\",\"190\",\"1163795\",\"0.0-190.0\",\"\",\"\",\"2-4\",\"4150\",\"39\",\"1\",\"Testing\",\"Stims/Figures/74-C-20-4.bmp\",\"mala:na\",\"Right\",\"39\",\"2\",\"18\",\"1\",\"S\",\"J\",\"42\"
\"\",\"\",\"approach-retreat\",\"191\",\"1169632\",\"0.0-191.0\",\"\",\"\",\"2-4\",\"4328\",\"38\",\"1\",\"Testing\",\"Stims/Figures/86-C-30-1.bmp\",\"mala:na\",\"Up\",\"38\",\"2\",\"19\",\"1\",\"S\",\"J\",\"43\"
\"\",\"\",\"approach-retreat\",\"192\",\"1175399\",\"0.0-192.0\",\"\",\"\",\"2-4\",\"4258\",\"40\",\"1\",\"Testing\",\"Stims/Figures/118-C-20-2.bmp\",\"mala:na\",\"Down\",\"40\",\"2\",\"20\",\"1\",\"S\",\"J\",\"44\"
\"\",\"\",\"approach-retreat\",\"193\",\"1181190\",\"0.0-193.0\",\"\",\"\",\"2-4\",\"4282\",\"39\",\"1\",\"Testing\",\"Stims/Figures/139-C-20-2.bmp\",\"mala:na\",\"Right\",\"39\",\"2\",\"21\",\"1\",\"S\",\"J\",\"45\"
\"\",\"\",\"approach-retreat\",\"194\",\"1186739\",\"0.0-194.0\",\"\",\"\",\"2-4\",\"4039\",\"39\",\"1\",\"Testing\",\"Stims/Figures/86-J-0-1.bmp\",\"tapa:ka\",\"Left\",\"39\",\"2\",\"22\",\"1\",\"P\",\"J\",\"46\"
\"\",\"\",\"approach-retreat\",\"195\",\"1192888\",\"0.0-195.0\",\"\",\"\",\"2-4\",\"4640\",\"40\",\"1\",\"Testing\",\"Stims/Figures/19-J-10-4.bmp\",\"tapa:ka\",\"Up\",\"40\",\"2\",\"23\",\"1\",\"P\",\"J\",\"47\"
\"\",\"\",\"approach-retreat\",\"196\",\"1198470\",\"0.0-196.0\",\"\",\"\",\"2-4\",\"4073\",\"37\",\"1\",\"Testing\",\"Stims/Figures/118-J-0-2.bmp\",\"tapa:ka\",\"Right\",\"37\",\"2\",\"24\",\"1\",\"P\",\"J\",\"48\"
\"\",\"\",\"approach-retreat\",\"197\",\"1204022\",\"0.0-197.0\",\"\",\"\",\"2-4\",\"4043\",\"37\",\"1\",\"Testing\",\"Stims/Figures/44-J-10-3.bmp\",\"tapa:ka\",\"Right\",\"37\",\"3\",\"1\",\"1\",\"P\",\"J\",\"49\"
\"\",\"\",\"approach-retreat\",\"198\",\"1209715\",\"0.0-198.0\",\"\",\"\",\"2-4\",\"4184\",\"39\",\"1\",\"Testing\",\"Stims/Figures/144-C-30-3.bmp\",\"mala:na\",\"Right\",\"39\",\"3\",\"2\",\"1\",\"S\",\"J\",\"50\"
\"\",\"\",\"approach-retreat\",\"199\",\"1215947\",\"0.0-199.0\",\"\",\"\",\"2-4\",\"4723\",\"39\",\"1\",\"Testing\",\"Stims/Figures/74-C-20-4.bmp\",\"mala:na\",\"Right\",\"39\",\"3\",\"3\",\"1\",\"S\",\"J\",\"51\"
\"\",\"\",\"approach-retreat\",\"200\",\"1223214\",\"0.0-200.0\",\"\",\"\",\"2-4\",\"5758\",\"37\",\"1\",\"Testing\",\"Stims/Figures/7-C-20-4.bmp\",\"mala:na\",\"Left\",\"37\",\"3\",\"4\",\"1\",\"S\",\"J\",\"52\"
\"\",\"\",\"approach-retreat\",\"201\",\"1228825\",\"0.0-201.0\",\"\",\"\",\"2-4\",\"4101\",\"40\",\"1\",\"Testing\",\"Stims/Figures/57-J-0-1.bmp\",\"tapa:ka\",\"Up\",\"40\",\"3\",\"5\",\"1\",\"P\",\"J\",\"53\"
\"\",\"\",\"approach-retreat\",\"202\",\"1234326\",\"0.0-202.0\",\"\",\"\",\"2-4\",\"3993\",\"39\",\"1\",\"Testing\",\"Stims/Figures/27-J-0-1.bmp\",\"tapa:ka\",\"Left\",\"39\",\"3\",\"6\",\"1\",\"P\",\"J\",\"54\"
\"\",\"\",\"approach-retreat\",\"203\",\"1240000\",\"0.0-203.0\",\"\",\"\",\"2-4\",\"4166\",\"37\",\"1\",\"Testing\",\"Stims/Figures/118-C-20-2.bmp\",\"mala:na\",\"Left\",\"37\",\"3\",\"7\",\"1\",\"S\",\"J\",\"55\"
\"\",\"\",\"approach-retreat\",\"204\",\"1245737\",\"0.0-204.0\",\"\",\"\",\"2-4\",\"4229\",\"40\",\"1\",\"Testing\",\"Stims/Figures/57-C-30-1.bmp\",\"mala:na\",\"Down\",\"40\",\"3\",\"8\",\"1\",\"S\",\"J\",\"56\"
\"\",\"\",\"approach-retreat\",\"205\",\"1251421\",\"0.0-205.0\",\"\",\"\",\"2-4\",\"4112\",\"39\",\"1\",\"Testing\",\"Stims/Figures/139-C-20-2.bmp\",\"mala:na\",\"Right\",\"39\",\"3\",\"9\",\"1\",\"S\",\"J\",\"57\"
\"\",\"\",\"approach-retreat\",\"206\",\"1257378\",\"0.0-206.0\",\"\",\"\",\"2-4\",\"4447\",\"40\",\"1\",\"Testing\",\"Stims/Figures/111-J-10-3.bmp\",\"tapa:ka\",\"Up\",\"40\",\"3\",\"10\",\"1\",\"P\",\"J\",\"58\"
\"\",\"\",\"approach-retreat\",\"207\",\"1262914\",\"0.0-207.0\",\"\",\"\",\"2-4\",\"4027\",\"38\",\"1\",\"Testing\",\"Stims/Figures/7-J-10-4.bmp\",\"tapa:ka\",\"Down\",\"38\",\"3\",\"11\",\"1\",\"P\",\"J\",\"59\"
\"\",\"\",\"approach-retreat\",\"208\",\"1268630\",\"0.0-208.0\",\"\",\"\",\"2-4\",\"4207\",\"40\",\"1\",\"Testing\",\"Stims/Figures/19-J-10-4.bmp\",\"tapa:ka\",\"Up\",\"40\",\"3\",\"12\",\"1\",\"P\",\"J\",\"60\"
\"\",\"\",\"approach-retreat\",\"209\",\"1274263\",\"0.0-209.0\",\"\",\"\",\"2-4\",\"4095\",\"38\",\"1\",\"Testing\",\"Stims/Figures/94-J-0-2.bmp\",\"tapa:ka\",\"Down\",\"38\",\"3\",\"13\",\"1\",\"P\",\"J\",\"61\"
\"\",\"\",\"approach-retreat\",\"210\",\"1279993\",\"0.0-210.0\",\"\",\"\",\"2-4\",\"4221\",\"40\",\"1\",\"Testing\",\"Stims/Figures/139-J-0-2.bmp\",\"tapa:ka\",\"Up\",\"40\",\"3\",\"14\",\"1\",\"P\",\"J\",\"62\"
\"\",\"\",\"approach-retreat\",\"211\",\"1285579\",\"0.0-211.0\",\"\",\"\",\"2-4\",\"4079\",\"39\",\"0\",\"Testing\",\"Stims/Figures/19-C-20-4.bmp\",\"mala:na\",\"Left\",\"37\",\"3\",\"15\",\"1\",\"S\",\"J\",\"63\"
\"\",\"\",\"approach-retreat\",\"212\",\"1291534\",\"0.0-212.0\",\"\",\"\",\"2-4\",\"4447\",\"40\",\"1\",\"Testing\",\"Stims/Figures/86-C-30-1.bmp\",\"mala:na\",\"Down\",\"40\",\"3\",\"16\",\"1\",\"S\",\"J\",\"64\"
\"\",\"\",\"approach-retreat\",\"213\",\"1297289\",\"0.0-213.0\",\"\",\"\",\"2-4\",\"4245\",\"40\",\"1\",\"Testing\",\"Stims/Figures/94-C-20-2.bmp\",\"mala:na\",\"Down\",\"40\",\"3\",\"17\",\"1\",\"S\",\"J\",\"65\"
\"\",\"\",\"approach-retreat\",\"214\",\"1302895\",\"0.0-214.0\",\"\",\"\",\"2-4\",\"4056\",\"39\",\"1\",\"Testing\",\"Stims/Figures/118-J-0-2.bmp\",\"tapa:ka\",\"Left\",\"39\",\"3\",\"18\",\"1\",\"P\",\"J\",\"66\"
\"\",\"\",\"approach-retreat\",\"215\",\"1308394\",\"0.0-215.0\",\"\",\"\",\"2-4\",\"3990\",\"39\",\"1\",\"Testing\",\"Stims/Figures/111-C-30-3.bmp\",\"mala:na\",\"Right\",\"39\",\"3\",\"19\",\"1\",\"S\",\"J\",\"67\"
\"\",\"\",\"approach-retreat\",\"216\",\"1314068\",\"0.0-216.0\",\"\",\"\",\"2-4\",\"4165\",\"38\",\"1\",\"Testing\",\"Stims/Figures/27-C-30-1.bmp\",\"mala:na\",\"Up\",\"38\",\"3\",\"20\",\"1\",\"S\",\"J\",\"68\"
\"\",\"\",\"approach-retreat\",\"217\",\"1319886\",\"0.0-217.0\",\"\",\"\",\"2-4\",\"4309\",\"40\",\"1\",\"Testing\",\"Stims/Figures/44-C-30-3.bmp\",\"mala:na\",\"Down\",\"40\",\"3\",\"21\",\"1\",\"S\",\"J\",\"69\"
\"\",\"\",\"approach-retreat\",\"218\",\"1325432\",\"0.0-218.0\",\"\",\"\",\"2-4\",\"4037\",\"37\",\"1\",\"Testing\",\"Stims/Figures/144-J-10-3.bmp\",\"tapa:ka\",\"Right\",\"37\",\"3\",\"22\",\"1\",\"P\",\"J\",\"70\"
\"\",\"\",\"approach-retreat\",\"219\",\"1330823\",\"0.0-219.0\",\"\",\"\",\"2-4\",\"3882\",\"39\",\"1\",\"Testing\",\"Stims/Figures/86-J-0-1.bmp\",\"tapa:ka\",\"Left\",\"39\",\"3\",\"23\",\"1\",\"P\",\"J\",\"71\"
\"\",\"\",\"approach-retreat\",\"220\",\"1336658\",\"0.0-220.0\",\"\",\"\",\"2-4\",\"4325\",\"40\",\"1\",\"Testing\",\"Stims/Figures/74-J-10-4.bmp\",\"tapa:ka\",\"Up\",\"40\",\"3\",\"24\",\"1\",\"P\",\"J\",\"72\"
\"\",\"\",\"approach-retreat\",\"221\",\"1342296\",\"0.0-221.0\",\"\",\"\",\"2-4\",\"4130\",\"37\",\"1\",\"Testing\",\"Stims/Figures/144-J-10-3.bmp\",\"tapa:ka\",\"Right\",\"37\",\"4\",\"1\",\"1\",\"P\",\"J\",\"73\"
\"\",\"\",\"approach-retreat\",\"222\",\"1347820\",\"0.0-222.0\",\"\",\"\",\"2-4\",\"4015\",\"37\",\"1\",\"Testing\",\"Stims/Figures/27-J-0-1.bmp\",\"tapa:ka\",\"Right\",\"37\",\"4\",\"2\",\"1\",\"P\",\"J\",\"74\"
\"\",\"\",\"approach-retreat\",\"223\",\"1353320\",\"0.0-223.0\",\"\",\"\",\"2-4\",\"3992\",\"37\",\"1\",\"Testing\",\"Stims/Figures/139-J-0-2.bmp\",\"tapa:ka\",\"Right\",\"37\",\"4\",\"3\",\"1\",\"P\",\"J\",\"75\"
\"\",\"\",\"approach-retreat\",\"224\",\"1358983\",\"0.0-224.0\",\"\",\"\",\"2-4\",\"4119\",\"40\",\"1\",\"Testing\",\"Stims/Figures/94-J-0-2.bmp\",\"tapa:ka\",\"Up\",\"40\",\"4\",\"4\",\"1\",\"P\",\"J\",\"76\"
\"\",\"\",\"approach-retreat\",\"225\",\"1364706\",\"0.0-225.0\",\"\",\"\",\"2-4\",\"4213\",\"38\",\"0\",\"Testing\",\"Stims/Figures/111-J-10-3.bmp\",\"tapa:ka\",\"Up\",\"40\",\"4\",\"5\",\"1\",\"P\",\"J\",\"77\"
\"\",\"\",\"approach-retreat\",\"226\",\"1370616\",\"0.0-226.0\",\"\",\"\",\"2-4\",\"4402\",\"39\",\"1\",\"Testing\",\"Stims/Figures/19-C-20-4.bmp\",\"mala:na\",\"Right\",\"39\",\"4\",\"6\",\"1\",\"S\",\"J\",\"78\"
\"\",\"\",\"approach-retreat\",\"227\",\"1376150\",\"0.0-227.0\",\"\",\"\",\"2-4\",\"4025\",\"37\",\"1\",\"Testing\",\"Stims/Figures/86-C-30-1.bmp\",\"mala:na\",\"Left\",\"37\",\"4\",\"7\",\"1\",\"S\",\"J\",\"79\"
\"\",\"\",\"approach-retreat\",\"228\",\"1381748\",\"0.0-228.0\",\"\",\"\",\"2-4\",\"4089\",\"38\",\"1\",\"Testing\",\"Stims/Figures/44-J-10-3.bmp\",\"tapa:ka\",\"Down\",\"38\",\"4\",\"8\",\"1\",\"P\",\"J\",\"80\"
\"\",\"\",\"approach-retreat\",\"229\",\"1387150\",\"0.0-229.0\",\"\",\"\",\"2-4\",\"3892\",\"39\",\"1\",\"Testing\",\"Stims/Figures/57-J-0-1.bmp\",\"tapa:ka\",\"Left\",\"39\",\"4\",\"9\",\"1\",\"P\",\"J\",\"81\"
\"\",\"\",\"approach-retreat\",\"230\",\"1393047\",\"0.0-230.0\",\"\",\"\",\"2-4\",\"4372\",\"40\",\"1\",\"Testing\",\"Stims/Figures/74-C-20-4.bmp\",\"mala:na\",\"Down\",\"40\",\"4\",\"10\",\"1\",\"S\",\"J\",\"82\"
\"\",\"\",\"approach-retreat\",\"231\",\"1398536\",\"0.0-231.0\",\"\",\"\",\"2-4\",\"3980\",\"39\",\"1\",\"Testing\",\"Stims/Figures/74-J-10-4.bmp\",\"tapa:ka\",\"Left\",\"39\",\"4\",\"11\",\"1\",\"P\",\"J\",\"83\"
\"\",\"\",\"approach-retreat\",\"232\",\"1404137\",\"0.0-232.0\",\"\",\"\",\"2-4\",\"4091\",\"40\",\"1\",\"Testing\",\"Stims/Figures/27-C-30-1.bmp\",\"mala:na\",\"Down\",\"40\",\"4\",\"12\",\"1\",\"S\",\"J\",\"84\"
\"\",\"\",\"approach-retreat\",\"233\",\"1409621\",\"0.0-233.0\",\"\",\"\",\"2-4\",\"3975\",\"39\",\"1\",\"Testing\",\"Stims/Figures/44-C-30-3.bmp\",\"mala:na\",\"Right\",\"39\",\"4\",\"13\",\"1\",\"S\",\"J\",\"85\"
\"\",\"\",\"approach-retreat\",\"234\",\"1416257\",\"0.0-234.0\",\"\",\"\",\"2-4\",\"5128\",\"40\",\"1\",\"Testing\",\"Stims/Figures/118-C-20-2.bmp\",\"mala:na\",\"Down\",\"40\",\"4\",\"14\",\"1\",\"S\",\"J\",\"86\"
\"\",\"\",\"approach-retreat\",\"235\",\"1423071\",\"0.0-235.0\",\"\",\"\",\"2-4\",\"5303\",\"40\",\"1\",\"Testing\",\"Stims/Figures/57-C-30-1.bmp\",\"mala:na\",\"Down\",\"40\",\"4\",\"15\",\"1\",\"S\",\"J\",\"87\"
\"\",\"\",\"approach-retreat\",\"236\",\"1429269\",\"0.0-236.0\",\"\",\"\",\"2-4\",\"4687\",\"37\",\"1\",\"Testing\",\"Stims/Figures/118-J-0-2.bmp\",\"tapa:ka\",\"Right\",\"37\",\"4\",\"16\",\"1\",\"P\",\"J\",\"88\"
\"\",\"\",\"approach-retreat\",\"237\",\"1435922\",\"0.0-237.0\",\"\",\"\",\"2-4\",\"5143\",\"37\",\"0\",\"Testing\",\"Stims/Figures/7-J-10-4.bmp\",\"tapa:ka\",\"Left\",\"39\",\"4\",\"17\",\"1\",\"P\",\"J\",\"89\"
\"\",\"\",\"approach-retreat\",\"238\",\"1441808\",\"0.0-238.0\",\"\",\"\",\"2-4\",\"4378\",\"38\",\"1\",\"Testing\",\"Stims/Figures/94-C-20-2.bmp\",\"mala:na\",\"Up\",\"38\",\"4\",\"18\",\"1\",\"S\",\"J\",\"90\"
\"\",\"\",\"approach-retreat\",\"239\",\"1447673\",\"0.0-239.0\",\"\",\"\",\"2-4\",\"4355\",\"38\",\"1\",\"Testing\",\"Stims/Figures/144-C-30-3.bmp\",\"mala:na\",\"Up\",\"38\",\"4\",\"19\",\"1\",\"S\",\"J\",\"91\"
\"\",\"\",\"approach-retreat\",\"240\",\"1453263\",\"0.0-240.0\",\"\",\"\",\"2-4\",\"4080\",\"37\",\"1\",\"Testing\",\"Stims/Figures/139-C-20-2.bmp\",\"mala:na\",\"Left\",\"37\",\"4\",\"20\",\"1\",\"S\",\"J\",\"92\"
\"\",\"\",\"approach-retreat\",\"241\",\"1458964\",\"0.0-241.0\",\"\",\"\",\"2-4\",\"4192\",\"40\",\"1\",\"Testing\",\"Stims/Figures/19-J-10-4.bmp\",\"tapa:ka\",\"Up\",\"40\",\"4\",\"21\",\"1\",\"P\",\"J\",\"93\"
\"\",\"\",\"approach-retreat\",\"242\",\"1464527\",\"0.0-242.0\",\"\",\"\",\"2-4\",\"4054\",\"38\",\"1\",\"Testing\",\"Stims/Figures/7-C-20-4.bmp\",\"mala:na\",\"Up\",\"38\",\"4\",\"22\",\"1\",\"S\",\"J\",\"94\"
\"\",\"\",\"approach-retreat\",\"243\",\"1469977\",\"0.0-243.0\",\"\",\"\",\"2-4\",\"3941\",\"39\",\"1\",\"Testing\",\"Stims/Figures/86-J-0-1.bmp\",\"tapa:ka\",\"Left\",\"39\",\"4\",\"23\",\"1\",\"P\",\"J\",\"95\"
\"\",\"\",\"approach-retreat\",\"244\",\"1475786\",\"0.0-244.0\",\"\",\"\",\"2-4\",\"4300\",\"40\",\"1\",\"Testing\",\"Stims/Figures/111-C-30-3.bmp\",\"mala:na\",\"Down\",\"40\",\"4\",\"24\",\"1\",\"S\",\"J\",\"96\"
\"27835\",\"\",\"survey-text\",\"245\",\"1503626\",\"0.0-245.0\",\"\",\"{\"\"Q0\"\":\"\"PS110073\"\"}\",\"\",\"\",\"\",\"\",\"\",\"\",\"\",\"\",\"\",\"\",\"\",\"\",\"\",\"\",\"\"
