\"rt\",\"key_press\",\"trial_type\",\"trial_index\",\"time_elapsed\",\"internal_node_id\",\"view_history\",\"responses\",\"Id\",\"Rt\",\"ResKeyCode\",\"ResCorr\",\"TrialType2\",\"Image\",\"Label\",\"Location\",\"CorrectResponse\",\"Block\",\"BlockTrial\",\"Condition\",\"LabelType\",\"Subcondition\",\"trialNum\"
\"44064\",\"32\",\"text\",\"0\",\"44067\",\"0.0-0.0-0.0\",\"\",\"\",\"\",\"\",\"\",\"\",\"\",\"\",\"\",\"\",\"\",\"\",\"\",\"\",\"\",\"\",\"\"
\"106525\",\"\",\"instructions\",\"1\",\"150594\",\"0.0-1.0\",\"[{\"\"page_index\"\":0,\"\"viewing_time\"\":106525}]\",\"\",\"\",\"\",\"\",\"\",\"\",\"\",\"\",\"\",\"\",\"\",\"\",\"\",\"\",\"\",\"\"
\"21678\",\"\",\"survey-multi-choice\",\"2\",\"172292\",\"0.0-2.0\",\"\",\"{\"\"Q0\"\":\"\"Da\"\",\"\"Q1\"\":\"\"Da\"\",\"\"Q2\"\":\"\"Da\"\",\"\"Q3\"\":\"\"Da\"\",\"\"Q4\"\":\"\"Da\"\",\"\"Q5\"\":\"\"Da\"\"}\",\"\",\"\",\"\",\"\",\"\",\"\",\"\",\"\",\"\",\"\",\"\",\"\",\"\",\"\",\"\"
\"\",\"\",\"bio\",\"3\",\"178793\",\"0.0-3.0\",\"\",\"{\"\"age\"\":\"\"22\"\",\"\"gender\"\":\"\"f\"\",\"\"specify\"\":\"\"\"\"}\",\"\",\"\",\"\",\"\",\"\",\"\",\"\",\"\",\"\",\"\",\"\",\"\",\"\",\"\",\"\"
\"\",\"\",\"approach-retreat\",\"4\",\"186318\",\"0.0-4.0\",\"\",\"\",\"1-5\",\"6018\",\"38\",\"0\",\"Training\",\"Stims/Figures/44-C-30-3.bmp\",\"pa:ka:ka\",\"Down\",\"40\",\"1\",\"1\",\"5\",\"P\",\"J\",\"1\"
\"\",\"\",\"approach-retreat\",\"5\",\"192583\",\"0.0-5.0\",\"\",\"\",\"1-5\",\"4760\",\"40\",\"0\",\"Training\",\"Stims/Figures/71-J-0-1.bmp\",\"nalala\",\"Down\",\"38\",\"1\",\"2\",\"5\",\"S\",\"J\",\"2\"
\"\",\"\",\"approach-retreat\",\"6\",\"200132\",\"0.0-6.0\",\"\",\"\",\"1-5\",\"6045\",\"37\",\"0\",\"Training\",\"Stims/Figures/19-C-20-4.bmp\",\"ta:ka:ka\",\"Right\",\"39\",\"1\",\"3\",\"5\",\"P\",\"J\",\"3\"
\"\",\"\",\"approach-retreat\",\"7\",\"206571\",\"0.0-7.0\",\"\",\"\",\"1-5\",\"4934\",\"37\",\"1\",\"Training\",\"Stims/Figures/7-J-10-4.bmp\",\"na:mala\",\"Right\",\"37\",\"1\",\"4\",\"5\",\"S\",\"J\",\"4\"
\"\",\"\",\"approach-retreat\",\"8\",\"212913\",\"0.0-8.0\",\"\",\"\",\"1-5\",\"4838\",\"37\",\"1\",\"Training\",\"Stims/Figures/111-C-30-3.bmp\",\"pa:ka:ta\",\"Left\",\"37\",\"1\",\"5\",\"5\",\"P\",\"J\",\"5\"
\"\",\"\",\"approach-retreat\",\"9\",\"219229\",\"0.0-9.0\",\"\",\"\",\"1-5\",\"4809\",\"38\",\"1\",\"Training\",\"Stims/Figures/84-C-20-2.bmp\",\"tapaka\",\"Up\",\"38\",\"1\",\"6\",\"5\",\"P\",\"J\",\"6\"
\"\",\"\",\"approach-retreat\",\"10\",\"225864\",\"0.0-10.0\",\"\",\"\",\"1-5\",\"5131\",\"39\",\"0\",\"Training\",\"Stims/Figures/139-C-20-2.bmp\",\"ta:pa:ta\",\"Left\",\"37\",\"1\",\"7\",\"5\",\"P\",\"J\",\"7\"
\"\",\"\",\"approach-retreat\",\"11\",\"231531\",\"0.0-11.0\",\"\",\"\",\"1-5\",\"4162\",\"37\",\"1\",\"Training\",\"Stims/Figures/44-J-10-3.bmp\",\"nama:la\",\"Right\",\"37\",\"1\",\"8\",\"5\",\"S\",\"J\",\"8\"
\"\",\"\",\"approach-retreat\",\"12\",\"237544\",\"0.0-12.0\",\"\",\"\",\"1-5\",\"4507\",\"40\",\"1\",\"Training\",\"Stims/Figures/111-J-10-3.bmp\",\"nalana\",\"Up\",\"40\",\"1\",\"9\",\"5\",\"S\",\"J\",\"9\"
\"\",\"\",\"approach-retreat\",\"13\",\"243994\",\"0.0-13.0\",\"\",\"\",\"1-5\",\"4946\",\"40\",\"1\",\"Training\",\"Stims/Figures/86-C-30-1.bmp\",\"pakata\",\"Down\",\"40\",\"1\",\"10\",\"5\",\"P\",\"J\",\"10\"
\"\",\"\",\"approach-retreat\",\"14\",\"250508\",\"0.0-14.0\",\"\",\"\",\"1-5\",\"5006\",\"39\",\"1\",\"Training\",\"Stims/Figures/139-J-0-2.bmp\",\"namala\",\"Left\",\"39\",\"1\",\"11\",\"5\",\"S\",\"J\",\"11\"
\"\",\"\",\"approach-retreat\",\"15\",\"256401\",\"0.0-15.0\",\"\",\"\",\"1-5\",\"4391\",\"40\",\"1\",\"Training\",\"Stims/Figures/19-J-10-4.bmp\",\"malana\",\"Up\",\"40\",\"1\",\"12\",\"5\",\"S\",\"J\",\"12\"
\"\",\"\",\"approach-retreat\",\"16\",\"264366\",\"0.0-16.0\",\"\",\"\",\"1-5\",\"6459\",\"38\",\"1\",\"Training\",\"Stims/Figures/84-J-0-2.bmp\",\"na:lana\",\"Down\",\"38\",\"1\",\"13\",\"5\",\"S\",\"J\",\"13\"
\"\",\"\",\"approach-retreat\",\"17\",\"270442\",\"0.0-17.0\",\"\",\"\",\"1-5\",\"4570\",\"40\",\"0\",\"Training\",\"Stims/Figures/71-C-30-1.bmp\",\"ta:pata\",\"Up\",\"38\",\"1\",\"14\",\"5\",\"P\",\"J\",\"14\"
\"\",\"\",\"approach-retreat\",\"18\",\"276287\",\"0.0-18.0\",\"\",\"\",\"1-5\",\"4341\",\"37\",\"1\",\"Training\",\"Stims/Figures/7-C-20-4.bmp\",\"tapata\",\"Left\",\"37\",\"1\",\"15\",\"5\",\"P\",\"J\",\"15\"
\"\",\"\",\"approach-retreat\",\"19\",\"282432\",\"0.0-19.0\",\"\",\"\",\"1-5\",\"4640\",\"37\",\"1\",\"Training\",\"Stims/Figures/86-J-0-1.bmp\",\"ma:lala\",\"Right\",\"37\",\"1\",\"16\",\"5\",\"S\",\"J\",\"16\"
\"\",\"\",\"approach-retreat\",\"20\",\"288126\",\"0.0-20.0\",\"\",\"\",\"1-5\",\"4190\",\"37\",\"1\",\"Training\",\"Stims/Figures/7-C-20-4.bmp\",\"tapata\",\"Left\",\"37\",\"2\",\"1\",\"5\",\"P\",\"J\",\"17\"
\"\",\"\",\"approach-retreat\",\"21\",\"294366\",\"0.0-21.0\",\"\",\"\",\"1-5\",\"4735\",\"39\",\"1\",\"Training\",\"Stims/Figures/84-J-0-2.bmp\",\"na:lana\",\"Left\",\"39\",\"2\",\"2\",\"5\",\"S\",\"J\",\"18\"
\"\",\"\",\"approach-retreat\",\"22\",\"300565\",\"0.0-22.0\",\"\",\"\",\"1-5\",\"4694\",\"39\",\"1\",\"Training\",\"Stims/Figures/86-C-30-1.bmp\",\"pakata\",\"Right\",\"39\",\"2\",\"3\",\"5\",\"P\",\"J\",\"19\"
\"\",\"\",\"approach-retreat\",\"23\",\"306808\",\"0.0-23.0\",\"\",\"\",\"1-5\",\"4739\",\"39\",\"1\",\"Training\",\"Stims/Figures/19-J-10-4.bmp\",\"malana\",\"Left\",\"39\",\"2\",\"4\",\"5\",\"S\",\"J\",\"20\"
\"\",\"\",\"approach-retreat\",\"24\",\"312717\",\"0.0-24.0\",\"\",\"\",\"1-5\",\"4405\",\"37\",\"1\",\"Training\",\"Stims/Figures/111-J-10-3.bmp\",\"nalana\",\"Right\",\"37\",\"2\",\"5\",\"5\",\"S\",\"J\",\"21\"
\"\",\"\",\"approach-retreat\",\"25\",\"318572\",\"0.0-25.0\",\"\",\"\",\"1-5\",\"4350\",\"40\",\"1\",\"Training\",\"Stims/Figures/71-J-0-1.bmp\",\"nalala\",\"Up\",\"40\",\"2\",\"6\",\"5\",\"S\",\"J\",\"22\"
\"\",\"\",\"approach-retreat\",\"26\",\"324202\",\"0.0-26.0\",\"\",\"\",\"1-5\",\"4126\",\"37\",\"1\",\"Training\",\"Stims/Figures/44-J-10-3.bmp\",\"nama:la\",\"Right\",\"37\",\"2\",\"7\",\"5\",\"S\",\"J\",\"23\"
\"\",\"\",\"approach-retreat\",\"27\",\"329872\",\"0.0-27.0\",\"\",\"\",\"1-5\",\"4166\",\"37\",\"1\",\"Training\",\"Stims/Figures/139-J-0-2.bmp\",\"namala\",\"Right\",\"37\",\"2\",\"8\",\"5\",\"S\",\"J\",\"24\"
\"\",\"\",\"approach-retreat\",\"28\",\"335604\",\"0.0-28.0\",\"\",\"\",\"1-5\",\"4228\",\"40\",\"1\",\"Training\",\"Stims/Figures/7-J-10-4.bmp\",\"na:mala\",\"Up\",\"40\",\"2\",\"9\",\"5\",\"S\",\"J\",\"25\"
\"\",\"\",\"approach-retreat\",\"29\",\"341385\",\"0.0-29.0\",\"\",\"\",\"1-5\",\"4277\",\"38\",\"1\",\"Training\",\"Stims/Figures/19-C-20-4.bmp\",\"ta:ka:ka\",\"Up\",\"38\",\"2\",\"10\",\"5\",\"P\",\"J\",\"26\"
\"\",\"\",\"approach-retreat\",\"30\",\"347973\",\"0.0-30.0\",\"\",\"\",\"1-5\",\"5083\",\"40\",\"1\",\"Training\",\"Stims/Figures/44-C-30-3.bmp\",\"pa:ka:ka\",\"Down\",\"40\",\"2\",\"11\",\"5\",\"P\",\"J\",\"27\"
\"\",\"\",\"approach-retreat\",\"31\",\"353717\",\"0.0-31.0\",\"\",\"\",\"1-5\",\"4239\",\"40\",\"1\",\"Training\",\"Stims/Figures/71-C-30-1.bmp\",\"ta:pata\",\"Down\",\"40\",\"2\",\"12\",\"5\",\"P\",\"J\",\"28\"
\"\",\"\",\"approach-retreat\",\"32\",\"359410\",\"0.0-32.0\",\"\",\"\",\"1-5\",\"4189\",\"37\",\"1\",\"Training\",\"Stims/Figures/111-C-30-3.bmp\",\"pa:ka:ta\",\"Left\",\"37\",\"2\",\"13\",\"5\",\"P\",\"J\",\"29\"
\"\",\"\",\"approach-retreat\",\"33\",\"365343\",\"0.0-33.0\",\"\",\"\",\"1-5\",\"4429\",\"40\",\"1\",\"Training\",\"Stims/Figures/84-C-20-2.bmp\",\"tapaka\",\"Down\",\"40\",\"2\",\"14\",\"5\",\"P\",\"J\",\"30\"
\"\",\"\",\"approach-retreat\",\"34\",\"370916\",\"0.0-34.0\",\"\",\"\",\"1-5\",\"4068\",\"38\",\"1\",\"Training\",\"Stims/Figures/139-C-20-2.bmp\",\"ta:pa:ta\",\"Up\",\"38\",\"2\",\"15\",\"5\",\"P\",\"J\",\"31\"
\"\",\"\",\"approach-retreat\",\"35\",\"376887\",\"0.0-35.0\",\"\",\"\",\"1-5\",\"4467\",\"38\",\"1\",\"Training\",\"Stims/Figures/86-J-0-1.bmp\",\"ma:lala\",\"Down\",\"38\",\"2\",\"16\",\"5\",\"S\",\"J\",\"32\"
\"\",\"\",\"approach-retreat\",\"36\",\"382859\",\"0.0-36.0\",\"\",\"\",\"1-5\",\"4468\",\"39\",\"1\",\"Training\",\"Stims/Figures/71-C-30-1.bmp\",\"ta:pata\",\"Right\",\"39\",\"3\",\"1\",\"5\",\"P\",\"J\",\"33\"
\"\",\"\",\"approach-retreat\",\"37\",\"387896\",\"0.0-37.0\",\"\",\"\",\"1-5\",\"3532\",\"39\",\"1\",\"Training\",\"Stims/Figures/84-C-20-2.bmp\",\"tapaka\",\"Right\",\"39\",\"3\",\"2\",\"5\",\"P\",\"J\",\"34\"
\"\",\"\",\"approach-retreat\",\"38\",\"393550\",\"0.0-38.0\",\"\",\"\",\"1-5\",\"4148\",\"40\",\"1\",\"Training\",\"Stims/Figures/7-C-20-4.bmp\",\"tapata\",\"Down\",\"40\",\"3\",\"3\",\"5\",\"P\",\"J\",\"35\"
\"\",\"\",\"approach-retreat\",\"39\",\"399224\",\"0.0-39.0\",\"\",\"\",\"1-5\",\"4171\",\"37\",\"1\",\"Training\",\"Stims/Figures/139-C-20-2.bmp\",\"ta:pa:ta\",\"Left\",\"37\",\"3\",\"4\",\"5\",\"P\",\"J\",\"36\"
\"\",\"\",\"approach-retreat\",\"40\",\"404848\",\"0.0-40.0\",\"\",\"\",\"1-5\",\"4120\",\"37\",\"0\",\"Training\",\"Stims/Figures/86-J-0-1.bmp\",\"ma:lala\",\"Left\",\"39\",\"3\",\"5\",\"5\",\"S\",\"J\",\"37\"
\"\",\"\",\"approach-retreat\",\"41\",\"410438\",\"0.0-41.0\",\"\",\"\",\"1-5\",\"4086\",\"37\",\"1\",\"Training\",\"Stims/Figures/111-C-30-3.bmp\",\"pa:ka:ta\",\"Left\",\"37\",\"3\",\"6\",\"5\",\"P\",\"J\",\"38\"
\"\",\"\",\"approach-retreat\",\"42\",\"416273\",\"0.0-42.0\",\"\",\"\",\"1-5\",\"4330\",\"38\",\"1\",\"Training\",\"Stims/Figures/139-J-0-2.bmp\",\"namala\",\"Down\",\"38\",\"3\",\"7\",\"5\",\"S\",\"J\",\"39\"
\"\",\"\",\"approach-retreat\",\"43\",\"421877\",\"0.0-43.0\",\"\",\"\",\"1-5\",\"4099\",\"40\",\"1\",\"Training\",\"Stims/Figures/19-C-20-4.bmp\",\"ta:ka:ka\",\"Down\",\"40\",\"3\",\"8\",\"5\",\"P\",\"J\",\"40\"
\"\",\"\",\"approach-retreat\",\"44\",\"428082\",\"0.0-44.0\",\"\",\"\",\"1-5\",\"4702\",\"38\",\"0\",\"Training\",\"Stims/Figures/7-J-10-4.bmp\",\"na:mala\",\"Up\",\"40\",\"3\",\"9\",\"5\",\"S\",\"J\",\"41\"
\"\",\"\",\"approach-retreat\",\"45\",\"433775\",\"0.0-45.0\",\"\",\"\",\"1-5\",\"4189\",\"40\",\"1\",\"Training\",\"Stims/Figures/111-J-10-3.bmp\",\"nalana\",\"Up\",\"40\",\"3\",\"10\",\"5\",\"S\",\"J\",\"42\"
\"\",\"\",\"approach-retreat\",\"46\",\"439836\",\"0.0-46.0\",\"\",\"\",\"1-5\",\"4556\",\"38\",\"1\",\"Training\",\"Stims/Figures/71-J-0-1.bmp\",\"nalala\",\"Down\",\"38\",\"3\",\"11\",\"5\",\"S\",\"J\",\"43\"
\"\",\"\",\"approach-retreat\",\"47\",\"445734\",\"0.0-47.0\",\"\",\"\",\"1-5\",\"4394\",\"37\",\"1\",\"Training\",\"Stims/Figures/84-J-0-2.bmp\",\"na:lana\",\"Right\",\"37\",\"3\",\"12\",\"5\",\"S\",\"J\",\"44\"
\"\",\"\",\"approach-retreat\",\"48\",\"451688\",\"0.0-48.0\",\"\",\"\",\"1-5\",\"4448\",\"39\",\"1\",\"Training\",\"Stims/Figures/19-J-10-4.bmp\",\"malana\",\"Left\",\"39\",\"3\",\"13\",\"5\",\"S\",\"J\",\"45\"
\"\",\"\",\"approach-retreat\",\"49\",\"457873\",\"0.0-49.0\",\"\",\"\",\"1-5\",\"4680\",\"38\",\"1\",\"Training\",\"Stims/Figures/44-C-30-3.bmp\",\"pa:ka:ka\",\"Up\",\"38\",\"3\",\"14\",\"5\",\"P\",\"J\",\"46\"
\"\",\"\",\"approach-retreat\",\"50\",\"463627\",\"0.0-50.0\",\"\",\"\",\"1-5\",\"4251\",\"37\",\"1\",\"Training\",\"Stims/Figures/44-J-10-3.bmp\",\"nama:la\",\"Right\",\"37\",\"3\",\"15\",\"5\",\"S\",\"J\",\"47\"
\"\",\"\",\"approach-retreat\",\"51\",\"469374\",\"0.0-51.0\",\"\",\"\",\"1-5\",\"4241\",\"38\",\"1\",\"Training\",\"Stims/Figures/86-C-30-1.bmp\",\"pakata\",\"Up\",\"38\",\"3\",\"16\",\"5\",\"P\",\"J\",\"48\"
\"\",\"\",\"approach-retreat\",\"52\",\"475646\",\"0.0-52.0\",\"\",\"\",\"1-5\",\"4768\",\"39\",\"1\",\"Training\",\"Stims/Figures/71-J-0-1.bmp\",\"nalala\",\"Left\",\"39\",\"4\",\"1\",\"5\",\"S\",\"J\",\"49\"
\"\",\"\",\"approach-retreat\",\"53\",\"481375\",\"0.0-53.0\",\"\",\"\",\"1-5\",\"4224\",\"37\",\"1\",\"Training\",\"Stims/Figures/111-C-30-3.bmp\",\"pa:ka:ta\",\"Left\",\"37\",\"4\",\"2\",\"5\",\"P\",\"J\",\"50\"
\"\",\"\",\"approach-retreat\",\"54\",\"486945\",\"0.0-54.0\",\"\",\"\",\"1-5\",\"4065\",\"37\",\"1\",\"Training\",\"Stims/Figures/19-C-20-4.bmp\",\"ta:ka:ka\",\"Left\",\"37\",\"4\",\"3\",\"5\",\"P\",\"J\",\"51\"
\"\",\"\",\"approach-retreat\",\"55\",\"492939\",\"0.0-55.0\",\"\",\"\",\"1-5\",\"4490\",\"40\",\"1\",\"Training\",\"Stims/Figures/44-J-10-3.bmp\",\"nama:la\",\"Up\",\"40\",\"4\",\"4\",\"5\",\"S\",\"J\",\"52\"
\"\",\"\",\"approach-retreat\",\"56\",\"498938\",\"0.0-56.0\",\"\",\"\",\"1-5\",\"4494\",\"39\",\"1\",\"Training\",\"Stims/Figures/7-J-10-4.bmp\",\"na:mala\",\"Left\",\"39\",\"4\",\"5\",\"5\",\"S\",\"J\",\"53\"
\"\",\"\",\"approach-retreat\",\"57\",\"504566\",\"0.0-57.0\",\"\",\"\",\"1-5\",\"4123\",\"37\",\"1\",\"Training\",\"Stims/Figures/86-J-0-1.bmp\",\"ma:lala\",\"Right\",\"37\",\"4\",\"6\",\"5\",\"S\",\"J\",\"54\"
\"\",\"\",\"approach-retreat\",\"58\",\"510469\",\"0.0-58.0\",\"\",\"\",\"1-5\",\"4398\",\"40\",\"1\",\"Training\",\"Stims/Figures/71-C-30-1.bmp\",\"ta:pata\",\"Down\",\"40\",\"4\",\"7\",\"5\",\"P\",\"J\",\"55\"
\"\",\"\",\"approach-retreat\",\"59\",\"516515\",\"0.0-59.0\",\"\",\"\",\"1-5\",\"4540\",\"40\",\"1\",\"Training\",\"Stims/Figures/139-J-0-2.bmp\",\"namala\",\"Up\",\"40\",\"4\",\"8\",\"5\",\"S\",\"J\",\"56\"
\"\",\"\",\"approach-retreat\",\"60\",\"522580\",\"0.0-60.0\",\"\",\"\",\"1-5\",\"4562\",\"38\",\"1\",\"Training\",\"Stims/Figures/86-C-30-1.bmp\",\"pakata\",\"Up\",\"38\",\"4\",\"9\",\"5\",\"P\",\"J\",\"57\"
\"\",\"\",\"approach-retreat\",\"61\",\"528632\",\"0.0-61.0\",\"\",\"\",\"1-5\",\"4547\",\"40\",\"1\",\"Training\",\"Stims/Figures/139-C-20-2.bmp\",\"ta:pa:ta\",\"Down\",\"40\",\"4\",\"10\",\"5\",\"P\",\"J\",\"58\"
\"\",\"\",\"approach-retreat\",\"62\",\"534217\",\"0.0-62.0\",\"\",\"\",\"1-5\",\"4083\",\"37\",\"1\",\"Training\",\"Stims/Figures/111-J-10-3.bmp\",\"nalana\",\"Right\",\"37\",\"4\",\"11\",\"5\",\"S\",\"J\",\"59\"
\"\",\"\",\"approach-retreat\",\"63\",\"540014\",\"0.0-63.0\",\"\",\"\",\"1-5\",\"4292\",\"38\",\"1\",\"Training\",\"Stims/Figures/19-J-10-4.bmp\",\"malana\",\"Down\",\"38\",\"4\",\"12\",\"5\",\"S\",\"J\",\"60\"
\"\",\"\",\"approach-retreat\",\"64\",\"546111\",\"0.0-64.0\",\"\",\"\",\"1-5\",\"4593\",\"39\",\"1\",\"Training\",\"Stims/Figures/44-C-30-3.bmp\",\"pa:ka:ka\",\"Right\",\"39\",\"4\",\"13\",\"5\",\"P\",\"J\",\"61\"
\"\",\"\",\"approach-retreat\",\"65\",\"552030\",\"0.0-65.0\",\"\",\"\",\"1-5\",\"4413\",\"40\",\"1\",\"Training\",\"Stims/Figures/84-J-0-2.bmp\",\"na:lana\",\"Up\",\"40\",\"4\",\"14\",\"5\",\"S\",\"J\",\"62\"
\"\",\"\",\"approach-retreat\",\"66\",\"557680\",\"0.0-66.0\",\"\",\"\",\"1-5\",\"4146\",\"40\",\"1\",\"Training\",\"Stims/Figures/84-C-20-2.bmp\",\"tapaka\",\"Down\",\"40\",\"4\",\"15\",\"5\",\"P\",\"J\",\"63\"
\"\",\"\",\"approach-retreat\",\"67\",\"564007\",\"0.0-67.0\",\"\",\"\",\"1-5\",\"4824\",\"39\",\"1\",\"Training\",\"Stims/Figures/7-C-20-4.bmp\",\"tapata\",\"Right\",\"39\",\"4\",\"16\",\"5\",\"P\",\"J\",\"64\"
\"\",\"\",\"approach-retreat\",\"68\",\"569643\",\"0.0-68.0\",\"\",\"\",\"1-5\",\"4131\",\"38\",\"1\",\"Training\",\"Stims/Figures/139-J-0-2.bmp\",\"namala\",\"Down\",\"38\",\"5\",\"1\",\"5\",\"S\",\"J\",\"65\"
\"\",\"\",\"approach-retreat\",\"69\",\"575488\",\"0.0-69.0\",\"\",\"\",\"1-5\",\"4340\",\"40\",\"1\",\"Training\",\"Stims/Figures/86-J-0-1.bmp\",\"ma:lala\",\"Up\",\"40\",\"5\",\"2\",\"5\",\"S\",\"J\",\"66\"
\"\",\"\",\"approach-retreat\",\"70\",\"581373\",\"0.0-70.0\",\"\",\"\",\"1-5\",\"4380\",\"38\",\"1\",\"Training\",\"Stims/Figures/86-C-30-1.bmp\",\"pakata\",\"Up\",\"38\",\"5\",\"3\",\"5\",\"P\",\"J\",\"67\"
\"\",\"\",\"approach-retreat\",\"71\",\"587113\",\"0.0-71.0\",\"\",\"\",\"1-5\",\"4234\",\"39\",\"1\",\"Training\",\"Stims/Figures/139-C-20-2.bmp\",\"ta:pa:ta\",\"Right\",\"39\",\"5\",\"4\",\"5\",\"P\",\"J\",\"68\"
\"\",\"\",\"approach-retreat\",\"72\",\"592971\",\"0.0-72.0\",\"\",\"\",\"1-5\",\"4353\",\"39\",\"1\",\"Training\",\"Stims/Figures/44-J-10-3.bmp\",\"nama:la\",\"Left\",\"39\",\"5\",\"5\",\"5\",\"S\",\"J\",\"69\"
\"\",\"\",\"approach-retreat\",\"73\",\"598610\",\"0.0-73.0\",\"\",\"\",\"1-5\",\"4135\",\"40\",\"1\",\"Training\",\"Stims/Figures/84-C-20-2.bmp\",\"tapaka\",\"Down\",\"40\",\"5\",\"6\",\"5\",\"P\",\"J\",\"70\"
\"\",\"\",\"approach-retreat\",\"74\",\"604188\",\"0.0-74.0\",\"\",\"\",\"1-5\",\"4073\",\"40\",\"1\",\"Training\",\"Stims/Figures/84-J-0-2.bmp\",\"na:lana\",\"Up\",\"40\",\"5\",\"7\",\"5\",\"S\",\"J\",\"71\"
\"\",\"\",\"approach-retreat\",\"75\",\"609369\",\"0.0-75.0\",\"\",\"\",\"1-5\",\"3676\",\"38\",\"1\",\"Training\",\"Stims/Figures/7-C-20-4.bmp\",\"tapata\",\"Up\",\"38\",\"5\",\"8\",\"5\",\"P\",\"J\",\"72\"
\"\",\"\",\"approach-retreat\",\"76\",\"615023\",\"0.0-76.0\",\"\",\"\",\"1-5\",\"4147\",\"40\",\"1\",\"Training\",\"Stims/Figures/111-C-30-3.bmp\",\"pa:ka:ta\",\"Down\",\"40\",\"5\",\"9\",\"5\",\"P\",\"J\",\"73\"
\"\",\"\",\"approach-retreat\",\"77\",\"620523\",\"0.0-77.0\",\"\",\"\",\"1-5\",\"3995\",\"37\",\"1\",\"Training\",\"Stims/Figures/111-J-10-3.bmp\",\"nalana\",\"Right\",\"37\",\"5\",\"10\",\"5\",\"S\",\"J\",\"74\"
\"\",\"\",\"approach-retreat\",\"78\",\"626151\",\"0.0-78.0\",\"\",\"\",\"1-5\",\"4123\",\"40\",\"1\",\"Training\",\"Stims/Figures/19-C-20-4.bmp\",\"ta:ka:ka\",\"Down\",\"40\",\"5\",\"11\",\"5\",\"P\",\"J\",\"75\"
\"\",\"\",\"approach-retreat\",\"79\",\"631814\",\"0.0-79.0\",\"\",\"\",\"1-5\",\"4158\",\"37\",\"1\",\"Training\",\"Stims/Figures/44-C-30-3.bmp\",\"pa:ka:ka\",\"Left\",\"37\",\"5\",\"12\",\"5\",\"P\",\"J\",\"76\"
\"\",\"\",\"approach-retreat\",\"80\",\"637556\",\"0.0-80.0\",\"\",\"\",\"1-5\",\"4236\",\"39\",\"1\",\"Training\",\"Stims/Figures/7-J-10-4.bmp\",\"na:mala\",\"Left\",\"39\",\"5\",\"13\",\"5\",\"S\",\"J\",\"77\"
\"\",\"\",\"approach-retreat\",\"81\",\"642993\",\"0.0-81.0\",\"\",\"\",\"1-5\",\"3932\",\"37\",\"1\",\"Training\",\"Stims/Figures/71-C-30-1.bmp\",\"ta:pata\",\"Left\",\"37\",\"5\",\"14\",\"5\",\"P\",\"J\",\"78\"
\"\",\"\",\"approach-retreat\",\"82\",\"648860\",\"0.0-82.0\",\"\",\"\",\"1-5\",\"4363\",\"37\",\"1\",\"Training\",\"Stims/Figures/71-J-0-1.bmp\",\"nalala\",\"Right\",\"37\",\"5\",\"15\",\"5\",\"S\",\"J\",\"79\"
\"\",\"\",\"approach-retreat\",\"83\",\"654406\",\"0.0-83.0\",\"\",\"\",\"1-5\",\"4040\",\"37\",\"1\",\"Training\",\"Stims/Figures/19-J-10-4.bmp\",\"malana\",\"Right\",\"37\",\"5\",\"16\",\"5\",\"S\",\"J\",\"80\"
\"\",\"\",\"approach-retreat\",\"84\",\"659902\",\"0.0-84.0\",\"\",\"\",\"1-5\",\"3991\",\"37\",\"1\",\"Training\",\"Stims/Figures/111-C-30-3.bmp\",\"pa:ka:ta\",\"Left\",\"37\",\"6\",\"1\",\"5\",\"P\",\"J\",\"81\"
\"\",\"\",\"approach-retreat\",\"85\",\"665237\",\"0.0-85.0\",\"\",\"\",\"1-5\",\"3831\",\"37\",\"1\",\"Training\",\"Stims/Figures/71-C-30-1.bmp\",\"ta:pata\",\"Left\",\"37\",\"6\",\"2\",\"5\",\"P\",\"J\",\"82\"
\"\",\"\",\"approach-retreat\",\"86\",\"670961\",\"0.0-86.0\",\"\",\"\",\"1-5\",\"4220\",\"40\",\"1\",\"Training\",\"Stims/Figures/7-C-20-4.bmp\",\"tapata\",\"Down\",\"40\",\"6\",\"3\",\"5\",\"P\",\"J\",\"83\"
\"\",\"\",\"approach-retreat\",\"87\",\"676516\",\"0.0-87.0\",\"\",\"\",\"1-5\",\"4049\",\"38\",\"1\",\"Training\",\"Stims/Figures/19-C-20-4.bmp\",\"ta:ka:ka\",\"Up\",\"38\",\"6\",\"4\",\"5\",\"P\",\"J\",\"84\"
\"\",\"\",\"approach-retreat\",\"88\",\"682099\",\"0.0-88.0\",\"\",\"\",\"1-5\",\"4079\",\"39\",\"1\",\"Training\",\"Stims/Figures/111-J-10-3.bmp\",\"nalana\",\"Left\",\"39\",\"6\",\"5\",\"5\",\"S\",\"J\",\"85\"
\"\",\"\",\"approach-retreat\",\"89\",\"687725\",\"0.0-89.0\",\"\",\"\",\"1-5\",\"4121\",\"40\",\"1\",\"Training\",\"Stims/Figures/44-J-10-3.bmp\",\"nama:la\",\"Up\",\"40\",\"6\",\"6\",\"5\",\"S\",\"J\",\"86\"
\"\",\"\",\"approach-retreat\",\"90\",\"693355\",\"0.0-90.0\",\"\",\"\",\"1-5\",\"4126\",\"37\",\"1\",\"Training\",\"Stims/Figures/71-J-0-1.bmp\",\"nalala\",\"Right\",\"37\",\"6\",\"7\",\"5\",\"S\",\"J\",\"87\"
\"\",\"\",\"approach-retreat\",\"91\",\"699095\",\"0.0-91.0\",\"\",\"\",\"1-5\",\"4235\",\"39\",\"1\",\"Training\",\"Stims/Figures/84-C-20-2.bmp\",\"tapaka\",\"Right\",\"39\",\"6\",\"8\",\"5\",\"P\",\"J\",\"88\"
\"\",\"\",\"approach-retreat\",\"92\",\"704706\",\"0.0-92.0\",\"\",\"\",\"1-5\",\"4106\",\"38\",\"1\",\"Training\",\"Stims/Figures/44-C-30-3.bmp\",\"pa:ka:ka\",\"Up\",\"38\",\"6\",\"9\",\"5\",\"P\",\"J\",\"89\"
\"\",\"\",\"approach-retreat\",\"93\",\"710275\",\"0.0-93.0\",\"\",\"\",\"1-5\",\"4064\",\"40\",\"0\",\"Training\",\"Stims/Figures/19-J-10-4.bmp\",\"malana\",\"Down\",\"38\",\"6\",\"10\",\"5\",\"S\",\"J\",\"90\"
\"\",\"\",\"approach-retreat\",\"94\",\"716633\",\"0.0-94.0\",\"\",\"\",\"1-5\",\"4854\",\"38\",\"1\",\"Training\",\"Stims/Figures/84-J-0-2.bmp\",\"na:lana\",\"Down\",\"38\",\"6\",\"11\",\"5\",\"S\",\"J\",\"91\"
\"\",\"\",\"approach-retreat\",\"95\",\"722374\",\"0.0-95.0\",\"\",\"\",\"1-5\",\"4235\",\"38\",\"1\",\"Training\",\"Stims/Figures/86-J-0-1.bmp\",\"ma:lala\",\"Down\",\"38\",\"6\",\"12\",\"5\",\"S\",\"J\",\"92\"
\"\",\"\",\"approach-retreat\",\"96\",\"727980\",\"0.0-96.0\",\"\",\"\",\"1-5\",\"4103\",\"40\",\"1\",\"Training\",\"Stims/Figures/7-J-10-4.bmp\",\"na:mala\",\"Up\",\"40\",\"6\",\"13\",\"5\",\"S\",\"J\",\"93\"
\"\",\"\",\"approach-retreat\",\"97\",\"733548\",\"0.0-97.0\",\"\",\"\",\"1-5\",\"4062\",\"39\",\"1\",\"Training\",\"Stims/Figures/139-J-0-2.bmp\",\"namala\",\"Left\",\"39\",\"6\",\"14\",\"5\",\"S\",\"J\",\"94\"
\"\",\"\",\"approach-retreat\",\"98\",\"739180\",\"0.0-98.0\",\"\",\"\",\"1-5\",\"4129\",\"39\",\"1\",\"Training\",\"Stims/Figures/139-C-20-2.bmp\",\"ta:pa:ta\",\"Right\",\"39\",\"6\",\"15\",\"5\",\"P\",\"J\",\"95\"
\"\",\"\",\"approach-retreat\",\"99\",\"744848\",\"0.0-99.0\",\"\",\"\",\"1-5\",\"4163\",\"39\",\"1\",\"Training\",\"Stims/Figures/86-C-30-1.bmp\",\"pakata\",\"Right\",\"39\",\"6\",\"16\",\"5\",\"P\",\"J\",\"96\"
\"\",\"\",\"approach-retreat\",\"100\",\"750448\",\"0.0-100.0\",\"\",\"\",\"1-5\",\"4095\",\"39\",\"1\",\"Training\",\"Stims/Figures/111-J-10-3.bmp\",\"nalana\",\"Left\",\"39\",\"7\",\"1\",\"5\",\"S\",\"J\",\"97\"
\"\",\"\",\"approach-retreat\",\"101\",\"756221\",\"0.0-101.0\",\"\",\"\",\"1-5\",\"4267\",\"38\",\"1\",\"Training\",\"Stims/Figures/7-C-20-4.bmp\",\"tapata\",\"Up\",\"38\",\"7\",\"2\",\"5\",\"P\",\"J\",\"98\"
\"\",\"\",\"approach-retreat\",\"102\",\"761804\",\"0.0-102.0\",\"\",\"\",\"1-5\",\"4078\",\"40\",\"1\",\"Training\",\"Stims/Figures/84-J-0-2.bmp\",\"na:lana\",\"Up\",\"40\",\"7\",\"3\",\"5\",\"S\",\"J\",\"99\"
\"\",\"\",\"approach-retreat\",\"103\",\"767440\",\"0.0-103.0\",\"\",\"\",\"1-5\",\"4132\",\"40\",\"1\",\"Training\",\"Stims/Figures/71-C-30-1.bmp\",\"ta:pata\",\"Down\",\"40\",\"7\",\"4\",\"5\",\"P\",\"J\",\"100\"
\"\",\"\",\"approach-retreat\",\"104\",\"772991\",\"0.0-104.0\",\"\",\"\",\"1-5\",\"4048\",\"39\",\"0\",\"Training\",\"Stims/Figures/19-J-10-4.bmp\",\"malana\",\"Right\",\"37\",\"7\",\"5\",\"5\",\"S\",\"J\",\"101\"
\"\",\"\",\"approach-retreat\",\"105\",\"778607\",\"0.0-105.0\",\"\",\"\",\"1-5\",\"4112\",\"39\",\"1\",\"Training\",\"Stims/Figures/44-C-30-3.bmp\",\"pa:ka:ka\",\"Right\",\"39\",\"7\",\"6\",\"5\",\"P\",\"J\",\"102\"
\"\",\"\",\"approach-retreat\",\"106\",\"784392\",\"0.0-106.0\",\"\",\"\",\"1-5\",\"4280\",\"37\",\"1\",\"Training\",\"Stims/Figures/86-J-0-1.bmp\",\"ma:lala\",\"Right\",\"37\",\"7\",\"7\",\"5\",\"S\",\"J\",\"103\"
\"\",\"\",\"approach-retreat\",\"107\",\"789986\",\"0.0-107.0\",\"\",\"\",\"1-5\",\"4089\",\"39\",\"1\",\"Training\",\"Stims/Figures/44-J-10-3.bmp\",\"nama:la\",\"Left\",\"39\",\"7\",\"8\",\"5\",\"S\",\"J\",\"104\"
\"\",\"\",\"approach-retreat\",\"108\",\"797263\",\"0.0-108.0\",\"\",\"\",\"1-5\",\"5773\",\"38\",\"1\",\"Training\",\"Stims/Figures/19-C-20-4.bmp\",\"ta:ka:ka\",\"Up\",\"38\",\"7\",\"9\",\"5\",\"P\",\"J\",\"105\"
\"\",\"\",\"approach-retreat\",\"109\",\"802839\",\"0.0-109.0\",\"\",\"\",\"1-5\",\"4071\",\"40\",\"1\",\"Training\",\"Stims/Figures/86-C-30-1.bmp\",\"pakata\",\"Down\",\"40\",\"7\",\"10\",\"5\",\"P\",\"J\",\"106\"
\"\",\"\",\"approach-retreat\",\"110\",\"808629\",\"0.0-110.0\",\"\",\"\",\"1-5\",\"4286\",\"38\",\"1\",\"Training\",\"Stims/Figures/7-J-10-4.bmp\",\"na:mala\",\"Down\",\"38\",\"7\",\"11\",\"5\",\"S\",\"J\",\"107\"
\"\",\"\",\"approach-retreat\",\"111\",\"814130\",\"0.0-111.0\",\"\",\"\",\"1-5\",\"3997\",\"39\",\"1\",\"Training\",\"Stims/Figures/84-C-20-2.bmp\",\"tapaka\",\"Right\",\"39\",\"7\",\"12\",\"5\",\"P\",\"J\",\"108\"
\"\",\"\",\"approach-retreat\",\"112\",\"819610\",\"0.0-112.0\",\"\",\"\",\"1-5\",\"3975\",\"37\",\"1\",\"Training\",\"Stims/Figures/111-C-30-3.bmp\",\"pa:ka:ta\",\"Left\",\"37\",\"7\",\"13\",\"5\",\"P\",\"J\",\"109\"
\"\",\"\",\"approach-retreat\",\"113\",\"825985\",\"0.0-113.0\",\"\",\"\",\"1-5\",\"4870\",\"40\",\"0\",\"Training\",\"Stims/Figures/139-J-0-2.bmp\",\"namala\",\"Down\",\"38\",\"7\",\"14\",\"5\",\"S\",\"J\",\"110\"
\"\",\"\",\"approach-retreat\",\"114\",\"833015\",\"0.0-114.0\",\"\",\"\",\"1-5\",\"5526\",\"38\",\"1\",\"Training\",\"Stims/Figures/139-C-20-2.bmp\",\"ta:pa:ta\",\"Up\",\"38\",\"7\",\"15\",\"5\",\"P\",\"J\",\"111\"
\"\",\"\",\"approach-retreat\",\"115\",\"838627\",\"0.0-115.0\",\"\",\"\",\"1-5\",\"4106\",\"39\",\"1\",\"Training\",\"Stims/Figures/71-J-0-1.bmp\",\"nalala\",\"Left\",\"39\",\"7\",\"16\",\"5\",\"S\",\"J\",\"112\"
\"\",\"\",\"approach-retreat\",\"116\",\"844198\",\"0.0-116.0\",\"\",\"\",\"1-5\",\"4067\",\"38\",\"1\",\"Training\",\"Stims/Figures/7-C-20-4.bmp\",\"tapata\",\"Up\",\"38\",\"8\",\"1\",\"5\",\"P\",\"J\",\"113\"
\"\",\"\",\"approach-retreat\",\"117\",\"849766\",\"0.0-117.0\",\"\",\"\",\"1-5\",\"4063\",\"39\",\"1\",\"Training\",\"Stims/Figures/44-C-30-3.bmp\",\"pa:ka:ka\",\"Right\",\"39\",\"8\",\"2\",\"5\",\"P\",\"J\",\"114\"
\"\",\"\",\"approach-retreat\",\"118\",\"855134\",\"0.0-118.0\",\"\",\"\",\"1-5\",\"3864\",\"37\",\"1\",\"Training\",\"Stims/Figures/86-C-30-1.bmp\",\"pakata\",\"Left\",\"37\",\"8\",\"3\",\"5\",\"P\",\"J\",\"115\"
\"\",\"\",\"approach-retreat\",\"119\",\"860587\",\"0.0-119.0\",\"\",\"\",\"1-5\",\"3947\",\"39\",\"1\",\"Training\",\"Stims/Figures/139-C-20-2.bmp\",\"ta:pa:ta\",\"Right\",\"39\",\"8\",\"4\",\"5\",\"P\",\"J\",\"116\"
\"\",\"\",\"approach-retreat\",\"120\",\"866310\",\"0.0-120.0\",\"\",\"\",\"1-5\",\"4217\",\"37\",\"1\",\"Training\",\"Stims/Figures/71-J-0-1.bmp\",\"nalala\",\"Right\",\"37\",\"8\",\"5\",\"5\",\"S\",\"J\",\"117\"
\"\",\"\",\"approach-retreat\",\"121\",\"872136\",\"0.0-121.0\",\"\",\"\",\"1-5\",\"4322\",\"38\",\"1\",\"Training\",\"Stims/Figures/7-J-10-4.bmp\",\"na:mala\",\"Down\",\"38\",\"8\",\"6\",\"5\",\"S\",\"J\",\"118\"
\"\",\"\",\"approach-retreat\",\"122\",\"877798\",\"0.0-122.0\",\"\",\"\",\"1-5\",\"4155\",\"38\",\"1\",\"Training\",\"Stims/Figures/84-J-0-2.bmp\",\"na:lana\",\"Down\",\"38\",\"8\",\"7\",\"5\",\"S\",\"J\",\"119\"
\"\",\"\",\"approach-retreat\",\"123\",\"883274\",\"0.0-123.0\",\"\",\"\",\"1-5\",\"3971\",\"39\",\"1\",\"Training\",\"Stims/Figures/19-J-10-4.bmp\",\"malana\",\"Left\",\"39\",\"8\",\"8\",\"5\",\"S\",\"J\",\"120\"
\"\",\"\",\"approach-retreat\",\"124\",\"889054\",\"0.0-124.0\",\"\",\"\",\"1-5\",\"4276\",\"38\",\"1\",\"Training\",\"Stims/Figures/71-C-30-1.bmp\",\"ta:pata\",\"Up\",\"38\",\"8\",\"9\",\"5\",\"P\",\"J\",\"121\"
\"\",\"\",\"approach-retreat\",\"125\",\"894836\",\"0.0-125.0\",\"\",\"\",\"1-5\",\"4276\",\"40\",\"1\",\"Training\",\"Stims/Figures/111-J-10-3.bmp\",\"nalana\",\"Up\",\"40\",\"8\",\"10\",\"5\",\"S\",\"J\",\"122\"
\"\",\"\",\"approach-retreat\",\"126\",\"900181\",\"0.0-126.0\",\"\",\"\",\"1-5\",\"3839\",\"37\",\"1\",\"Training\",\"Stims/Figures/84-C-20-2.bmp\",\"tapaka\",\"Left\",\"37\",\"8\",\"11\",\"5\",\"P\",\"J\",\"123\"
\"\",\"\",\"approach-retreat\",\"127\",\"905787\",\"0.0-127.0\",\"\",\"\",\"1-5\",\"4101\",\"38\",\"0\",\"Training\",\"Stims/Figures/86-J-0-1.bmp\",\"ma:lala\",\"Up\",\"40\",\"8\",\"12\",\"5\",\"S\",\"J\",\"124\"
\"\",\"\",\"approach-retreat\",\"128\",\"911919\",\"0.0-128.0\",\"\",\"\",\"1-5\",\"4627\",\"39\",\"0\",\"Training\",\"Stims/Figures/139-J-0-2.bmp\",\"namala\",\"Right\",\"37\",\"8\",\"13\",\"5\",\"S\",\"J\",\"125\"
\"\",\"\",\"approach-retreat\",\"129\",\"917646\",\"0.0-129.0\",\"\",\"\",\"1-5\",\"4222\",\"37\",\"1\",\"Training\",\"Stims/Figures/111-C-30-3.bmp\",\"pa:ka:ta\",\"Left\",\"37\",\"8\",\"14\",\"5\",\"P\",\"J\",\"126\"
\"\",\"\",\"approach-retreat\",\"130\",\"923459\",\"0.0-130.0\",\"\",\"\",\"1-5\",\"4308\",\"40\",\"1\",\"Training\",\"Stims/Figures/19-C-20-4.bmp\",\"ta:ka:ka\",\"Down\",\"40\",\"8\",\"15\",\"5\",\"P\",\"J\",\"127\"
\"\",\"\",\"approach-retreat\",\"131\",\"929948\",\"0.0-131.0\",\"\",\"\",\"1-5\",\"4985\",\"38\",\"1\",\"Training\",\"Stims/Figures/44-J-10-3.bmp\",\"nama:la\",\"Down\",\"38\",\"8\",\"16\",\"5\",\"S\",\"J\",\"128\"
\"\",\"\",\"approach-retreat\",\"132\",\"935404\",\"0.0-132.0\",\"\",\"\",\"1-5\",\"3950\",\"39\",\"1\",\"Training\",\"Stims/Figures/44-C-30-3.bmp\",\"pa:ka:ka\",\"Right\",\"39\",\"9\",\"1\",\"5\",\"P\",\"J\",\"129\"
\"\",\"\",\"approach-retreat\",\"133\",\"941416\",\"0.0-133.0\",\"\",\"\",\"1-5\",\"4506\",\"38\",\"1\",\"Training\",\"Stims/Figures/84-C-20-2.bmp\",\"tapaka\",\"Up\",\"38\",\"9\",\"2\",\"5\",\"P\",\"J\",\"130\"
\"\",\"\",\"approach-retreat\",\"134\",\"947394\",\"0.0-134.0\",\"\",\"\",\"1-5\",\"4471\",\"40\",\"1\",\"Training\",\"Stims/Figures/86-C-30-1.bmp\",\"pakata\",\"Down\",\"40\",\"9\",\"3\",\"5\",\"P\",\"J\",\"131\"
\"\",\"\",\"approach-retreat\",\"135\",\"954022\",\"0.0-135.0\",\"\",\"\",\"1-5\",\"5124\",\"39\",\"1\",\"Training\",\"Stims/Figures/44-J-10-3.bmp\",\"nama:la\",\"Left\",\"39\",\"9\",\"4\",\"5\",\"S\",\"J\",\"132\"
\"\",\"\",\"approach-retreat\",\"136\",\"959660\",\"0.0-136.0\",\"\",\"\",\"1-5\",\"4133\",\"37\",\"1\",\"Training\",\"Stims/Figures/19-J-10-4.bmp\",\"malana\",\"Right\",\"37\",\"9\",\"5\",\"5\",\"S\",\"J\",\"133\"
\"\",\"\",\"approach-retreat\",\"137\",\"965757\",\"0.0-137.0\",\"\",\"\",\"1-5\",\"4592\",\"37\",\"1\",\"Training\",\"Stims/Figures/111-C-30-3.bmp\",\"pa:ka:ta\",\"Left\",\"37\",\"9\",\"6\",\"5\",\"P\",\"J\",\"134\"
\"\",\"\",\"approach-retreat\",\"138\",\"971953\",\"0.0-138.0\",\"\",\"\",\"1-5\",\"4691\",\"37\",\"1\",\"Training\",\"Stims/Figures/111-J-10-3.bmp\",\"nalana\",\"Right\",\"37\",\"9\",\"7\",\"5\",\"S\",\"J\",\"135\"
\"\",\"\",\"approach-retreat\",\"139\",\"977671\",\"0.0-139.0\",\"\",\"\",\"1-5\",\"4213\",\"38\",\"1\",\"Training\",\"Stims/Figures/7-C-20-4.bmp\",\"tapata\",\"Up\",\"38\",\"9\",\"8\",\"5\",\"P\",\"J\",\"136\"
\"\",\"\",\"approach-retreat\",\"140\",\"983439\",\"0.0-140.0\",\"\",\"\",\"1-5\",\"4263\",\"39\",\"1\",\"Training\",\"Stims/Figures/139-J-0-2.bmp\",\"namala\",\"Left\",\"39\",\"9\",\"9\",\"5\",\"S\",\"J\",\"137\"
\"\",\"\",\"approach-retreat\",\"141\",\"989388\",\"0.0-141.0\",\"\",\"\",\"1-5\",\"4445\",\"38\",\"1\",\"Training\",\"Stims/Figures/7-J-10-4.bmp\",\"na:mala\",\"Down\",\"38\",\"9\",\"10\",\"5\",\"S\",\"J\",\"138\"
\"\",\"\",\"approach-retreat\",\"142\",\"995379\",\"0.0-142.0\",\"\",\"\",\"1-5\",\"4486\",\"40\",\"1\",\"Training\",\"Stims/Figures/84-J-0-2.bmp\",\"na:lana\",\"Up\",\"40\",\"9\",\"11\",\"5\",\"S\",\"J\",\"139\"
\"\",\"\",\"approach-retreat\",\"143\",\"1001395\",\"0.0-143.0\",\"\",\"\",\"1-5\",\"4512\",\"40\",\"1\",\"Training\",\"Stims/Figures/86-J-0-1.bmp\",\"ma:lala\",\"Up\",\"40\",\"9\",\"12\",\"5\",\"S\",\"J\",\"140\"
\"\",\"\",\"approach-retreat\",\"144\",\"1008228\",\"0.0-144.0\",\"\",\"\",\"1-5\",\"5329\",\"40\",\"1\",\"Training\",\"Stims/Figures/139-C-20-2.bmp\",\"ta:pa:ta\",\"Down\",\"40\",\"9\",\"13\",\"5\",\"P\",\"J\",\"141\"
\"\",\"\",\"approach-retreat\",\"145\",\"1014372\",\"0.0-145.0\",\"\",\"\",\"1-5\",\"4639\",\"37\",\"1\",\"Training\",\"Stims/Figures/19-C-20-4.bmp\",\"ta:ka:ka\",\"Left\",\"37\",\"9\",\"14\",\"5\",\"P\",\"J\",\"142\"
\"\",\"\",\"approach-retreat\",\"146\",\"1020479\",\"0.0-146.0\",\"\",\"\",\"1-5\",\"4603\",\"40\",\"0\",\"Training\",\"Stims/Figures/71-J-0-1.bmp\",\"nalala\",\"Down\",\"38\",\"9\",\"15\",\"5\",\"S\",\"J\",\"143\"
\"\",\"\",\"approach-retreat\",\"147\",\"1027300\",\"0.0-147.0\",\"\",\"\",\"1-5\",\"5316\",\"39\",\"1\",\"Training\",\"Stims/Figures/71-C-30-1.bmp\",\"ta:pata\",\"Right\",\"39\",\"9\",\"16\",\"5\",\"P\",\"J\",\"144\"
\"95692\",\"\",\"instructions\",\"148\",\"1122992\",\"0.0-148.0\",\"[{\"\"page_index\"\":0,\"\"viewing_time\"\":95692}]\",\"\",\"\",\"\",\"\",\"\",\"\",\"\",\"\",\"\",\"\",\"\",\"\",\"\",\"\",\"\",\"\"
\"\",\"\",\"approach-retreat\",\"149\",\"1128699\",\"0.0-149.0\",\"\",\"\",\"1-5\",\"4203\",\"37\",\"1\",\"Testing\",\"Stims/Figures/111-C-30-3.bmp\",\"pa:ka:ta\",\"Left\",\"37\",\"1\",\"1\",\"5\",\"P\",\"J\",\"1\"
\"\",\"\",\"approach-retreat\",\"150\",\"1134279\",\"0.0-150.0\",\"\",\"\",\"1-5\",\"4076\",\"38\",\"1\",\"Testing\",\"Stims/Figures/86-C-30-1.bmp\",\"pakata\",\"Up\",\"38\",\"1\",\"2\",\"5\",\"P\",\"J\",\"2\"
\"\",\"\",\"approach-retreat\",\"151\",\"1139848\",\"0.0-151.0\",\"\",\"\",\"1-5\",\"4066\",\"39\",\"1\",\"Testing\",\"Stims/Figures/85-J-0-2.bmp\",\"mama:la\",\"Left\",\"39\",\"1\",\"3\",\"5\",\"S\",\"J\",\"3\"
\"\",\"\",\"approach-retreat\",\"152\",\"1145336\",\"0.0-152.0\",\"\",\"\",\"1-5\",\"3984\",\"37\",\"1\",\"Testing\",\"Stims/Figures/102-J-10-4.bmp\",\"mala:na\",\"Right\",\"37\",\"1\",\"4\",\"5\",\"S\",\"J\",\"4\"
\"\",\"\",\"approach-retreat\",\"153\",\"1151080\",\"0.0-153.0\",\"\",\"\",\"1-5\",\"4239\",\"38\",\"1\",\"Testing\",\"Stims/Figures/144-J-10-3.bmp\",\"ma:ma:na\",\"Down\",\"38\",\"1\",\"5\",\"5\",\"S\",\"J\",\"5\"
\"\",\"\",\"approach-retreat\",\"154\",\"1156586\",\"0.0-154.0\",\"\",\"\",\"1-5\",\"4002\",\"37\",\"0\",\"Testing\",\"Stims/Figures/102-C-20-4.bmp\",\"taka:ka\",\"Right\",\"39\",\"1\",\"6\",\"5\",\"P\",\"J\",\"6\"
\"\",\"\",\"approach-retreat\",\"155\",\"1162184\",\"0.0-155.0\",\"\",\"\",\"1-5\",\"4095\",\"39\",\"1\",\"Testing\",\"Stims/Figures/7-C-20-4.bmp\",\"tapata\",\"Right\",\"39\",\"1\",\"7\",\"5\",\"P\",\"J\",\"7\"
\"\",\"\",\"approach-retreat\",\"156\",\"1167867\",\"0.0-156.0\",\"\",\"\",\"1-5\",\"4178\",\"38\",\"1\",\"Testing\",\"Stims/Figures/44-J-10-3.bmp\",\"nama:la\",\"Down\",\"38\",\"1\",\"8\",\"5\",\"S\",\"J\",\"8\"
\"\",\"\",\"approach-retreat\",\"157\",\"1173306\",\"0.0-157.0\",\"\",\"\",\"1-5\",\"3932\",\"39\",\"1\",\"Testing\",\"Stims/Figures/84-J-0-2.bmp\",\"na:lana\",\"Left\",\"39\",\"1\",\"9\",\"5\",\"S\",\"J\",\"9\"
\"\",\"\",\"approach-retreat\",\"158\",\"1178707\",\"0.0-158.0\",\"\",\"\",\"1-5\",\"3899\",\"38\",\"1\",\"Testing\",\"Stims/Figures/27-J-0-1.bmp\",\"ma:la:la\",\"Down\",\"38\",\"1\",\"10\",\"5\",\"S\",\"J\",\"10\"
\"\",\"\",\"approach-retreat\",\"159\",\"1184453\",\"0.0-159.0\",\"\",\"\",\"1-5\",\"4241\",\"38\",\"1\",\"Testing\",\"Stims/Figures/84-C-20-2.bmp\",\"tapaka\",\"Up\",\"38\",\"1\",\"11\",\"5\",\"P\",\"J\",\"11\"
\"\",\"\",\"approach-retreat\",\"160\",\"1189936\",\"0.0-160.0\",\"\",\"\",\"1-5\",\"3979\",\"37\",\"1\",\"Testing\",\"Stims/Figures/27-C-30-1.bmp\",\"taka:ta\",\"Left\",\"37\",\"1\",\"12\",\"5\",\"P\",\"J\",\"12\"
\"\",\"\",\"approach-retreat\",\"161\",\"1195621\",\"0.0-161.0\",\"\",\"\",\"1-5\",\"4182\",\"37\",\"1\",\"Testing\",\"Stims/Figures/44-C-30-3.bmp\",\"pa:ka:ka\",\"Left\",\"37\",\"1\",\"13\",\"5\",\"P\",\"J\",\"13\"
\"\",\"\",\"approach-retreat\",\"162\",\"1201225\",\"0.0-162.0\",\"\",\"\",\"1-5\",\"4101\",\"39\",\"1\",\"Testing\",\"Stims/Figures/85-C-20-2.bmp\",\"paka:ka\",\"Right\",\"39\",\"1\",\"14\",\"5\",\"P\",\"J\",\"14\"
\"\",\"\",\"approach-retreat\",\"163\",\"1206765\",\"0.0-163.0\",\"\",\"\",\"1-5\",\"4037\",\"40\",\"1\",\"Testing\",\"Stims/Figures/86-J-0-1.bmp\",\"ma:lala\",\"Up\",\"40\",\"1\",\"15\",\"5\",\"S\",\"J\",\"15\"
\"\",\"\",\"approach-retreat\",\"164\",\"1212276\",\"0.0-164.0\",\"\",\"\",\"1-5\",\"4006\",\"38\",\"1\",\"Testing\",\"Stims/Figures/19-C-20-4.bmp\",\"ta:ka:ka\",\"Up\",\"38\",\"1\",\"16\",\"5\",\"P\",\"J\",\"16\"
\"\",\"\",\"approach-retreat\",\"165\",\"1217899\",\"0.0-165.0\",\"\",\"\",\"1-5\",\"4118\",\"40\",\"1\",\"Testing\",\"Stims/Figures/144-C-30-3.bmp\",\"pa:kaka\",\"Down\",\"40\",\"1\",\"17\",\"5\",\"P\",\"J\",\"17\"
\"\",\"\",\"approach-retreat\",\"166\",\"1223484\",\"0.0-166.0\",\"\",\"\",\"1-5\",\"4082\",\"39\",\"0\",\"Testing\",\"Stims/Figures/7-J-10-4.bmp\",\"na:mala\",\"Right\",\"37\",\"1\",\"18\",\"5\",\"S\",\"J\",\"18\"
\"\",\"\",\"approach-retreat\",\"167\",\"1229093\",\"0.0-167.0\",\"\",\"\",\"1-5\",\"4101\",\"38\",\"1\",\"Testing\",\"Stims/Figures/139-C-20-2.bmp\",\"ta:pa:ta\",\"Up\",\"38\",\"1\",\"19\",\"5\",\"P\",\"J\",\"19\"
\"\",\"\",\"approach-retreat\",\"168\",\"1234670\",\"0.0-168.0\",\"\",\"\",\"1-5\",\"4073\",\"39\",\"1\",\"Testing\",\"Stims/Figures/111-J-10-3.bmp\",\"nalana\",\"Left\",\"39\",\"1\",\"20\",\"5\",\"S\",\"J\",\"20\"
\"\",\"\",\"approach-retreat\",\"169\",\"1240188\",\"0.0-169.0\",\"\",\"\",\"1-5\",\"4014\",\"40\",\"1\",\"Testing\",\"Stims/Figures/71-C-30-1.bmp\",\"ta:pata\",\"Down\",\"40\",\"1\",\"21\",\"5\",\"P\",\"J\",\"21\"
\"\",\"\",\"approach-retreat\",\"170\",\"1245853\",\"0.0-170.0\",\"\",\"\",\"1-5\",\"4162\",\"37\",\"1\",\"Testing\",\"Stims/Figures/139-J-0-2.bmp\",\"namala\",\"Right\",\"37\",\"1\",\"22\",\"5\",\"S\",\"J\",\"22\"
\"\",\"\",\"approach-retreat\",\"171\",\"1251328\",\"0.0-171.0\",\"\",\"\",\"1-5\",\"3970\",\"38\",\"1\",\"Testing\",\"Stims/Figures/19-J-10-4.bmp\",\"malana\",\"Down\",\"38\",\"1\",\"23\",\"5\",\"S\",\"J\",\"23\"
\"\",\"\",\"approach-retreat\",\"172\",\"1256830\",\"0.0-172.0\",\"\",\"\",\"1-5\",\"3997\",\"40\",\"1\",\"Testing\",\"Stims/Figures/71-J-0-1.bmp\",\"nalala\",\"Up\",\"40\",\"1\",\"24\",\"5\",\"S\",\"J\",\"24\"
\"\",\"\",\"approach-retreat\",\"173\",\"1262213\",\"0.0-173.0\",\"\",\"\",\"1-5\",\"3881\",\"37\",\"1\",\"Testing\",\"Stims/Figures/144-J-10-3.bmp\",\"ma:ma:na\",\"Right\",\"37\",\"2\",\"1\",\"5\",\"S\",\"J\",\"25\"
\"\",\"\",\"approach-retreat\",\"174\",\"1267707\",\"0.0-174.0\",\"\",\"\",\"1-5\",\"3989\",\"39\",\"1\",\"Testing\",\"Stims/Figures/71-C-30-1.bmp\",\"ta:pata\",\"Right\",\"39\",\"2\",\"2\",\"5\",\"P\",\"J\",\"26\"
\"\",\"\",\"approach-retreat\",\"175\",\"1273235\",\"0.0-175.0\",\"\",\"\",\"1-5\",\"4024\",\"37\",\"1\",\"Testing\",\"Stims/Figures/19-J-10-4.bmp\",\"malana\",\"Right\",\"37\",\"2\",\"3\",\"5\",\"S\",\"J\",\"27\"
\"\",\"\",\"approach-retreat\",\"176\",\"1278782\",\"0.0-176.0\",\"\",\"\",\"1-5\",\"4043\",\"37\",\"1\",\"Testing\",\"Stims/Figures/19-C-20-4.bmp\",\"ta:ka:ka\",\"Left\",\"37\",\"2\",\"4\",\"5\",\"P\",\"J\",\"28\"
\"\",\"\",\"approach-retreat\",\"177\",\"1284164\",\"0.0-177.0\",\"\",\"\",\"1-5\",\"3877\",\"37\",\"1\",\"Testing\",\"Stims/Figures/111-C-30-3.bmp\",\"pa:ka:ta\",\"Left\",\"37\",\"2\",\"5\",\"5\",\"P\",\"J\",\"29\"
\"\",\"\",\"approach-retreat\",\"178\",\"1289685\",\"0.0-178.0\",\"\",\"\",\"1-5\",\"4017\",\"39\",\"1\",\"Testing\",\"Stims/Figures/44-J-10-3.bmp\",\"nama:la\",\"Left\",\"39\",\"2\",\"6\",\"5\",\"S\",\"J\",\"30\"
\"\",\"\",\"approach-retreat\",\"179\",\"1295085\",\"0.0-179.0\",\"\",\"\",\"1-5\",\"3896\",\"38\",\"1\",\"Testing\",\"Stims/Figures/139-C-20-2.bmp\",\"ta:pa:ta\",\"Up\",\"38\",\"2\",\"7\",\"5\",\"P\",\"J\",\"31\"
\"\",\"\",\"approach-retreat\",\"180\",\"1300611\",\"0.0-180.0\",\"\",\"\",\"1-5\",\"4022\",\"38\",\"1\",\"Testing\",\"Stims/Figures/71-J-0-1.bmp\",\"nalala\",\"Down\",\"38\",\"2\",\"8\",\"5\",\"S\",\"J\",\"32\"
\"\",\"\",\"approach-retreat\",\"181\",\"1305978\",\"0.0-181.0\",\"\",\"\",\"1-5\",\"3863\",\"37\",\"1\",\"Testing\",\"Stims/Figures/7-J-10-4.bmp\",\"na:mala\",\"Right\",\"37\",\"2\",\"9\",\"5\",\"S\",\"J\",\"33\"
\"\",\"\",\"approach-retreat\",\"182\",\"1311301\",\"0.0-182.0\",\"\",\"\",\"1-5\",\"3819\",\"37\",\"1\",\"Testing\",\"Stims/Figures/27-C-30-1.bmp\",\"taka:ta\",\"Left\",\"37\",\"2\",\"10\",\"5\",\"P\",\"J\",\"34\"
\"\",\"\",\"approach-retreat\",\"183\",\"1316865\",\"0.0-183.0\",\"\",\"\",\"1-5\",\"4060\",\"40\",\"1\",\"Testing\",\"Stims/Figures/111-J-10-3.bmp\",\"nalana\",\"Up\",\"40\",\"2\",\"11\",\"5\",\"S\",\"J\",\"35\"
\"\",\"\",\"approach-retreat\",\"184\",\"1322246\",\"0.0-184.0\",\"\",\"\",\"1-5\",\"3876\",\"37\",\"1\",\"Testing\",\"Stims/Figures/139-J-0-2.bmp\",\"namala\",\"Right\",\"37\",\"2\",\"12\",\"5\",\"S\",\"J\",\"36\"
\"\",\"\",\"approach-retreat\",\"185\",\"1327677\",\"0.0-185.0\",\"\",\"\",\"1-5\",\"3927\",\"38\",\"1\",\"Testing\",\"Stims/Figures/27-J-0-1.bmp\",\"ma:la:la\",\"Down\",\"38\",\"2\",\"13\",\"5\",\"S\",\"J\",\"37\"
\"\",\"\",\"approach-retreat\",\"186\",\"1333098\",\"0.0-186.0\",\"\",\"\",\"1-5\",\"3917\",\"37\",\"1\",\"Testing\",\"Stims/Figures/102-C-20-4.bmp\",\"taka:ka\",\"Left\",\"37\",\"2\",\"14\",\"5\",\"P\",\"J\",\"38\"
\"\",\"\",\"approach-retreat\",\"187\",\"1338647\",\"0.0-187.0\",\"\",\"\",\"1-5\",\"4045\",\"40\",\"1\",\"Testing\",\"Stims/Figures/84-J-0-2.bmp\",\"na:lana\",\"Up\",\"40\",\"2\",\"15\",\"5\",\"S\",\"J\",\"39\"
\"\",\"\",\"approach-retreat\",\"188\",\"1344420\",\"0.0-188.0\",\"\",\"\",\"1-5\",\"4269\",\"40\",\"1\",\"Testing\",\"Stims/Figures/86-C-30-1.bmp\",\"pakata\",\"Down\",\"40\",\"2\",\"16\",\"5\",\"P\",\"J\",\"40\"
\"\",\"\",\"approach-retreat\",\"189\",\"1349791\",\"0.0-189.0\",\"\",\"\",\"1-5\",\"3867\",\"38\",\"1\",\"Testing\",\"Stims/Figures/85-C-20-2.bmp\",\"paka:ka\",\"Up\",\"38\",\"2\",\"17\",\"5\",\"P\",\"J\",\"41\"
\"\",\"\",\"approach-retreat\",\"190\",\"1355307\",\"0.0-190.0\",\"\",\"\",\"1-5\",\"4013\",\"40\",\"1\",\"Testing\",\"Stims/Figures/84-C-20-2.bmp\",\"tapaka\",\"Down\",\"40\",\"2\",\"18\",\"5\",\"P\",\"J\",\"42\"
\"\",\"\",\"approach-retreat\",\"191\",\"1360873\",\"0.0-191.0\",\"\",\"\",\"1-5\",\"4061\",\"40\",\"1\",\"Testing\",\"Stims/Figures/44-C-30-3.bmp\",\"pa:ka:ka\",\"Down\",\"40\",\"2\",\"19\",\"5\",\"P\",\"J\",\"43\"
\"\",\"\",\"approach-retreat\",\"192\",\"1366347\",\"0.0-192.0\",\"\",\"\",\"1-5\",\"3971\",\"40\",\"1\",\"Testing\",\"Stims/Figures/86-J-0-1.bmp\",\"ma:lala\",\"Up\",\"40\",\"2\",\"20\",\"5\",\"S\",\"J\",\"44\"
\"\",\"\",\"approach-retreat\",\"193\",\"1371793\",\"0.0-193.0\",\"\",\"\",\"1-5\",\"3942\",\"39\",\"1\",\"Testing\",\"Stims/Figures/102-J-10-4.bmp\",\"mala:na\",\"Left\",\"39\",\"2\",\"21\",\"5\",\"S\",\"J\",\"45\"
\"\",\"\",\"approach-retreat\",\"194\",\"1377432\",\"0.0-194.0\",\"\",\"\",\"1-5\",\"4136\",\"40\",\"1\",\"Testing\",\"Stims/Figures/144-C-30-3.bmp\",\"pa:kaka\",\"Down\",\"40\",\"2\",\"22\",\"5\",\"P\",\"J\",\"46\"
\"\",\"\",\"approach-retreat\",\"195\",\"1383290\",\"0.0-195.0\",\"\",\"\",\"1-5\",\"4355\",\"38\",\"1\",\"Testing\",\"Stims/Figures/7-C-20-4.bmp\",\"tapata\",\"Up\",\"38\",\"2\",\"23\",\"5\",\"P\",\"J\",\"47\"
\"\",\"\",\"approach-retreat\",\"196\",\"1388722\",\"0.0-196.0\",\"\",\"\",\"1-5\",\"3929\",\"37\",\"1\",\"Testing\",\"Stims/Figures/85-J-0-2.bmp\",\"mama:la\",\"Right\",\"37\",\"2\",\"24\",\"5\",\"S\",\"J\",\"48\"
\"\",\"\",\"approach-retreat\",\"197\",\"1394192\",\"0.0-197.0\",\"\",\"\",\"1-5\",\"3967\",\"39\",\"1\",\"Testing\",\"Stims/Figures/144-J-10-3.bmp\",\"ma:ma:na\",\"Left\",\"39\",\"3\",\"1\",\"5\",\"S\",\"J\",\"49\"
\"\",\"\",\"approach-retreat\",\"198\",\"1399865\",\"0.0-198.0\",\"\",\"\",\"1-5\",\"4169\",\"39\",\"1\",\"Testing\",\"Stims/Figures/71-C-30-1.bmp\",\"ta:pata\",\"Right\",\"39\",\"3\",\"2\",\"5\",\"P\",\"J\",\"50\"
\"\",\"\",\"approach-retreat\",\"199\",\"1405424\",\"0.0-199.0\",\"\",\"\",\"1-5\",\"4056\",\"40\",\"1\",\"Testing\",\"Stims/Figures/85-C-20-2.bmp\",\"paka:ka\",\"Down\",\"40\",\"3\",\"3\",\"5\",\"P\",\"J\",\"51\"
\"\",\"\",\"approach-retreat\",\"200\",\"1410855\",\"0.0-200.0\",\"\",\"\",\"1-5\",\"3925\",\"39\",\"1\",\"Testing\",\"Stims/Figures/19-C-20-4.bmp\",\"ta:ka:ka\",\"Right\",\"39\",\"3\",\"4\",\"5\",\"P\",\"J\",\"52\"
\"\",\"\",\"approach-retreat\",\"201\",\"1416685\",\"0.0-201.0\",\"\",\"\",\"1-5\",\"4326\",\"40\",\"1\",\"Testing\",\"Stims/Figures/102-C-20-4.bmp\",\"taka:ka\",\"Down\",\"40\",\"3\",\"5\",\"5\",\"P\",\"J\",\"53\"
\"\",\"\",\"approach-retreat\",\"202\",\"1422276\",\"0.0-202.0\",\"\",\"\",\"1-5\",\"4087\",\"39\",\"1\",\"Testing\",\"Stims/Figures/44-C-30-3.bmp\",\"pa:ka:ka\",\"Right\",\"39\",\"3\",\"6\",\"5\",\"P\",\"J\",\"54\"
\"\",\"\",\"approach-retreat\",\"203\",\"1427808\",\"0.0-203.0\",\"\",\"\",\"1-5\",\"4027\",\"40\",\"1\",\"Testing\",\"Stims/Figures/84-C-20-2.bmp\",\"tapaka\",\"Down\",\"40\",\"3\",\"7\",\"5\",\"P\",\"J\",\"55\"
\"\",\"\",\"approach-retreat\",\"204\",\"1433236\",\"0.0-204.0\",\"\",\"\",\"1-5\",\"3923\",\"39\",\"1\",\"Testing\",\"Stims/Figures/86-C-30-1.bmp\",\"pakata\",\"Right\",\"39\",\"3\",\"8\",\"5\",\"P\",\"J\",\"56\"
\"\",\"\",\"approach-retreat\",\"205\",\"1438647\",\"0.0-205.0\",\"\",\"\",\"1-5\",\"3906\",\"37\",\"1\",\"Testing\",\"Stims/Figures/27-J-0-1.bmp\",\"ma:la:la\",\"Right\",\"37\",\"3\",\"9\",\"5\",\"S\",\"J\",\"57\"
\"\",\"\",\"approach-retreat\",\"206\",\"1444118\",\"0.0-206.0\",\"\",\"\",\"1-5\",\"3968\",\"39\",\"1\",\"Testing\",\"Stims/Figures/71-J-0-1.bmp\",\"nalala\",\"Left\",\"39\",\"3\",\"10\",\"5\",\"S\",\"J\",\"58\"
\"\",\"\",\"approach-retreat\",\"207\",\"1449569\",\"0.0-207.0\",\"\",\"\",\"1-5\",\"3948\",\"37\",\"1\",\"Testing\",\"Stims/Figures/7-J-10-4.bmp\",\"na:mala\",\"Right\",\"37\",\"3\",\"11\",\"5\",\"S\",\"J\",\"59\"
\"\",\"\",\"approach-retreat\",\"208\",\"1454977\",\"0.0-208.0\",\"\",\"\",\"1-5\",\"3904\",\"37\",\"1\",\"Testing\",\"Stims/Figures/7-C-20-4.bmp\",\"tapata\",\"Left\",\"37\",\"3\",\"12\",\"5\",\"P\",\"J\",\"60\"
\"\",\"\",\"approach-retreat\",\"209\",\"1460749\",\"0.0-209.0\",\"\",\"\",\"1-5\",\"4268\",\"40\",\"1\",\"Testing\",\"Stims/Figures/84-J-0-2.bmp\",\"na:lana\",\"Up\",\"40\",\"3\",\"13\",\"5\",\"S\",\"J\",\"61\"
\"\",\"\",\"approach-retreat\",\"210\",\"1466119\",\"0.0-210.0\",\"\",\"\",\"1-5\",\"3865\",\"38\",\"1\",\"Testing\",\"Stims/Figures/111-C-30-3.bmp\",\"pa:ka:ta\",\"Up\",\"38\",\"3\",\"14\",\"5\",\"P\",\"J\",\"62\"
\"\",\"\",\"approach-retreat\",\"211\",\"1471534\",\"0.0-211.0\",\"\",\"\",\"1-5\",\"3911\",\"38\",\"1\",\"Testing\",\"Stims/Figures/139-J-0-2.bmp\",\"namala\",\"Down\",\"38\",\"3\",\"15\",\"5\",\"S\",\"J\",\"63\"
\"\",\"\",\"approach-retreat\",\"212\",\"1476904\",\"0.0-212.0\",\"\",\"\",\"1-5\",\"3865\",\"37\",\"1\",\"Testing\",\"Stims/Figures/139-C-20-2.bmp\",\"ta:pa:ta\",\"Left\",\"37\",\"3\",\"16\",\"5\",\"P\",\"J\",\"64\"
\"\",\"\",\"approach-retreat\",\"213\",\"1482420\",\"0.0-213.0\",\"\",\"\",\"1-5\",\"4014\",\"40\",\"1\",\"Testing\",\"Stims/Figures/44-J-10-3.bmp\",\"nama:la\",\"Up\",\"40\",\"3\",\"17\",\"5\",\"S\",\"J\",\"65\"
\"\",\"\",\"approach-retreat\",\"214\",\"1487941\",\"0.0-214.0\",\"\",\"\",\"1-5\",\"4017\",\"39\",\"1\",\"Testing\",\"Stims/Figures/86-J-0-1.bmp\",\"ma:lala\",\"Left\",\"39\",\"3\",\"18\",\"5\",\"S\",\"J\",\"66\"
\"\",\"\",\"approach-retreat\",\"215\",\"1493435\",\"0.0-215.0\",\"\",\"\",\"1-5\",\"3989\",\"38\",\"1\",\"Testing\",\"Stims/Figures/85-J-0-2.bmp\",\"mama:la\",\"Down\",\"38\",\"3\",\"19\",\"5\",\"S\",\"J\",\"67\"
\"\",\"\",\"approach-retreat\",\"216\",\"1498881\",\"0.0-216.0\",\"\",\"\",\"1-5\",\"3942\",\"37\",\"1\",\"Testing\",\"Stims/Figures/27-C-30-1.bmp\",\"taka:ta\",\"Left\",\"37\",\"3\",\"20\",\"5\",\"P\",\"J\",\"68\"
\"\",\"\",\"approach-retreat\",\"217\",\"1504413\",\"0.0-217.0\",\"\",\"\",\"1-5\",\"4028\",\"40\",\"1\",\"Testing\",\"Stims/Figures/102-J-10-4.bmp\",\"mala:na\",\"Up\",\"40\",\"3\",\"21\",\"5\",\"S\",\"J\",\"69\"
\"\",\"\",\"approach-retreat\",\"218\",\"1509906\",\"0.0-218.0\",\"\",\"\",\"1-5\",\"3988\",\"40\",\"1\",\"Testing\",\"Stims/Figures/111-J-10-3.bmp\",\"nalana\",\"Up\",\"40\",\"3\",\"22\",\"5\",\"S\",\"J\",\"70\"
\"\",\"\",\"approach-retreat\",\"219\",\"1515360\",\"0.0-219.0\",\"\",\"\",\"1-5\",\"3950\",\"40\",\"1\",\"Testing\",\"Stims/Figures/19-J-10-4.bmp\",\"malana\",\"Up\",\"40\",\"3\",\"23\",\"5\",\"S\",\"J\",\"71\"
\"\",\"\",\"approach-retreat\",\"220\",\"1520827\",\"0.0-220.0\",\"\",\"\",\"1-5\",\"3962\",\"40\",\"1\",\"Testing\",\"Stims/Figures/144-C-30-3.bmp\",\"pa:kaka\",\"Down\",\"40\",\"3\",\"24\",\"5\",\"P\",\"J\",\"72\"
\"\",\"\",\"approach-retreat\",\"221\",\"1526239\",\"0.0-221.0\",\"\",\"\",\"1-5\",\"3908\",\"37\",\"1\",\"Testing\",\"Stims/Figures/71-C-30-1.bmp\",\"ta:pata\",\"Left\",\"37\",\"4\",\"1\",\"5\",\"P\",\"J\",\"73\"
\"\",\"\",\"approach-retreat\",\"222\",\"1531686\",\"0.0-222.0\",\"\",\"\",\"1-5\",\"3943\",\"38\",\"1\",\"Testing\",\"Stims/Figures/85-J-0-2.bmp\",\"mama:la\",\"Down\",\"38\",\"4\",\"2\",\"5\",\"S\",\"J\",\"74\"
\"\",\"\",\"approach-retreat\",\"223\",\"1537078\",\"0.0-223.0\",\"\",\"\",\"1-5\",\"3888\",\"37\",\"1\",\"Testing\",\"Stims/Figures/102-J-10-4.bmp\",\"mala:na\",\"Right\",\"37\",\"4\",\"3\",\"5\",\"S\",\"J\",\"75\"
\"\",\"\",\"approach-retreat\",\"224\",\"1542505\",\"0.0-224.0\",\"\",\"\",\"1-5\",\"3923\",\"37\",\"1\",\"Testing\",\"Stims/Figures/139-J-0-2.bmp\",\"namala\",\"Right\",\"37\",\"4\",\"4\",\"5\",\"S\",\"J\",\"76\"
\"\",\"\",\"approach-retreat\",\"225\",\"1548039\",\"0.0-225.0\",\"\",\"\",\"1-5\",\"4029\",\"40\",\"1\",\"Testing\",\"Stims/Figures/86-C-30-1.bmp\",\"pakata\",\"Down\",\"40\",\"4\",\"5\",\"5\",\"P\",\"J\",\"77\"
\"\",\"\",\"approach-retreat\",\"226\",\"1553858\",\"0.0-226.0\",\"\",\"\",\"1-5\",\"4313\",\"40\",\"0\",\"Testing\",\"Stims/Figures/102-C-20-4.bmp\",\"taka:ka\",\"Up\",\"38\",\"4\",\"6\",\"5\",\"P\",\"J\",\"78\"
\"\",\"\",\"approach-retreat\",\"227\",\"1559283\",\"0.0-227.0\",\"\",\"\",\"1-5\",\"3921\",\"37\",\"1\",\"Testing\",\"Stims/Figures/44-J-10-3.bmp\",\"nama:la\",\"Right\",\"37\",\"4\",\"7\",\"5\",\"S\",\"J\",\"79\"
\"\",\"\",\"approach-retreat\",\"228\",\"1564761\",\"0.0-228.0\",\"\",\"\",\"1-5\",\"3975\",\"38\",\"1\",\"Testing\",\"Stims/Figures/19-C-20-4.bmp\",\"ta:ka:ka\",\"Up\",\"38\",\"4\",\"8\",\"5\",\"P\",\"J\",\"80\"
\"\",\"\",\"approach-retreat\",\"229\",\"1570220\",\"0.0-229.0\",\"\",\"\",\"1-5\",\"3956\",\"39\",\"1\",\"Testing\",\"Stims/Figures/84-J-0-2.bmp\",\"na:lana\",\"Left\",\"39\",\"4\",\"9\",\"5\",\"S\",\"J\",\"81\"
\"\",\"\",\"approach-retreat\",\"230\",\"1575635\",\"0.0-230.0\",\"\",\"\",\"1-5\",\"3910\",\"38\",\"1\",\"Testing\",\"Stims/Figures/71-J-0-1.bmp\",\"nalala\",\"Down\",\"38\",\"4\",\"10\",\"5\",\"S\",\"J\",\"82\"
\"\",\"\",\"approach-retreat\",\"231\",\"1580993\",\"0.0-231.0\",\"\",\"\",\"1-5\",\"3854\",\"37\",\"1\",\"Testing\",\"Stims/Figures/27-C-30-1.bmp\",\"taka:ta\",\"Left\",\"37\",\"4\",\"11\",\"5\",\"P\",\"J\",\"83\"
\"\",\"\",\"approach-retreat\",\"232\",\"1586358\",\"0.0-232.0\",\"\",\"\",\"1-5\",\"3862\",\"38\",\"1\",\"Testing\",\"Stims/Figures/27-J-0-1.bmp\",\"ma:la:la\",\"Down\",\"38\",\"4\",\"12\",\"5\",\"S\",\"J\",\"84\"
\"\",\"\",\"approach-retreat\",\"233\",\"1591767\",\"0.0-233.0\",\"\",\"\",\"1-5\",\"3905\",\"39\",\"1\",\"Testing\",\"Stims/Figures/86-J-0-1.bmp\",\"ma:lala\",\"Left\",\"39\",\"4\",\"13\",\"5\",\"S\",\"J\",\"85\"
\"\",\"\",\"approach-retreat\",\"234\",\"1597123\",\"0.0-234.0\",\"\",\"\",\"1-5\",\"3851\",\"38\",\"1\",\"Testing\",\"Stims/Figures/84-C-20-2.bmp\",\"tapaka\",\"Up\",\"38\",\"4\",\"14\",\"5\",\"P\",\"J\",\"86\"
\"\",\"\",\"approach-retreat\",\"235\",\"1602471\",\"0.0-235.0\",\"\",\"\",\"1-5\",\"3843\",\"37\",\"1\",\"Testing\",\"Stims/Figures/144-C-30-3.bmp\",\"pa:kaka\",\"Left\",\"37\",\"4\",\"15\",\"5\",\"P\",\"J\",\"87\"
\"\",\"\",\"approach-retreat\",\"236\",\"1607966\",\"0.0-236.0\",\"\",\"\",\"1-5\",\"3991\",\"40\",\"1\",\"Testing\",\"Stims/Figures/44-C-30-3.bmp\",\"pa:ka:ka\",\"Down\",\"40\",\"4\",\"16\",\"5\",\"P\",\"J\",\"88\"
\"\",\"\",\"approach-retreat\",\"237\",\"1613583\",\"0.0-237.0\",\"\",\"\",\"1-5\",\"4113\",\"40\",\"1\",\"Testing\",\"Stims/Figures/19-J-10-4.bmp\",\"malana\",\"Up\",\"40\",\"4\",\"17\",\"5\",\"S\",\"J\",\"89\"
\"\",\"\",\"approach-retreat\",\"238\",\"1618944\",\"0.0-238.0\",\"\",\"\",\"1-5\",\"3857\",\"39\",\"1\",\"Testing\",\"Stims/Figures/144-J-10-3.bmp\",\"ma:ma:na\",\"Left\",\"39\",\"4\",\"18\",\"5\",\"S\",\"J\",\"90\"
\"\",\"\",\"approach-retreat\",\"239\",\"1624314\",\"0.0-239.0\",\"\",\"\",\"1-5\",\"3866\",\"37\",\"1\",\"Testing\",\"Stims/Figures/7-J-10-4.bmp\",\"na:mala\",\"Right\",\"37\",\"4\",\"19\",\"5\",\"S\",\"J\",\"91\"
\"\",\"\",\"approach-retreat\",\"240\",\"1629691\",\"0.0-240.0\",\"\",\"\",\"1-5\",\"3874\",\"38\",\"1\",\"Testing\",\"Stims/Figures/111-J-10-3.bmp\",\"nalana\",\"Down\",\"38\",\"4\",\"20\",\"5\",\"S\",\"J\",\"92\"
\"\",\"\",\"approach-retreat\",\"241\",\"1635242\",\"0.0-241.0\",\"\",\"\",\"1-5\",\"4046\",\"38\",\"1\",\"Testing\",\"Stims/Figures/139-C-20-2.bmp\",\"ta:pa:ta\",\"Up\",\"38\",\"4\",\"21\",\"5\",\"P\",\"J\",\"93\"
\"\",\"\",\"approach-retreat\",\"242\",\"1640652\",\"0.0-242.0\",\"\",\"\",\"1-5\",\"3906\",\"38\",\"1\",\"Testing\",\"Stims/Figures/85-C-20-2.bmp\",\"paka:ka\",\"Up\",\"38\",\"4\",\"22\",\"5\",\"P\",\"J\",\"94\"
\"\",\"\",\"approach-retreat\",\"243\",\"1645997\",\"0.0-243.0\",\"\",\"\",\"1-5\",\"3840\",\"39\",\"1\",\"Testing\",\"Stims/Figures/7-C-20-4.bmp\",\"tapata\",\"Right\",\"39\",\"4\",\"23\",\"5\",\"P\",\"J\",\"95\"
\"\",\"\",\"approach-retreat\",\"244\",\"1651338\",\"0.0-244.0\",\"\",\"\",\"1-5\",\"3838\",\"39\",\"1\",\"Testing\",\"Stims/Figures/111-C-30-3.bmp\",\"pa:ka:ta\",\"Right\",\"39\",\"4\",\"24\",\"5\",\"P\",\"J\",\"96\"
\"23922\",\"\",\"survey-text\",\"245\",\"1675264\",\"0.0-245.0\",\"\",\"{\"\"Q0\"\":\"\"PS160058\"\"}\",\"\",\"\",\"\",\"\",\"\",\"\",\"\",\"\",\"\",\"\",\"\",\"\",\"\",\"\",\"\"
