\"rt\",\"key_press\",\"trial_type\",\"trial_index\",\"time_elapsed\",\"internal_node_id\",\"view_history\",\"responses\",\"Id\",\"Rt\",\"ResKeyCode\",\"ResCorr\",\"TrialType2\",\"Image\",\"Label\",\"Location\",\"CorrectResponse\",\"Block\",\"BlockTrial\",\"Condition\",\"LabelType\",\"Subcondition\",\"trialNum\"
\"71033\",\"32\",\"text\",\"0\",\"71039\",\"0.0-0.0-0.0\",\"\",\"\",\"\",\"\",\"\",\"\",\"\",\"\",\"\",\"\",\"\",\"\",\"\",\"\",\"\",\"\",\"\"
\"62725\",\"\",\"instructions\",\"1\",\"133766\",\"0.0-1.0\",\"[{\"\"page_index\"\":0,\"\"viewing_time\"\":62724}]\",\"\",\"\",\"\",\"\",\"\",\"\",\"\",\"\",\"\",\"\",\"\",\"\",\"\",\"\",\"\",\"\"
\"13139\",\"\",\"survey-multi-choice\",\"2\",\"146945\",\"0.0-2.0\",\"\",\"{\"\"Q0\"\":\"\"Da\"\",\"\"Q1\"\":\"\"Da\"\",\"\"Q2\"\":\"\"Da\"\",\"\"Q3\"\":\"\"Da\"\",\"\"Q4\"\":\"\"Da\"\",\"\"Q5\"\":\"\"Da\"\"}\",\"\",\"\",\"\",\"\",\"\",\"\",\"\",\"\",\"\",\"\",\"\",\"\",\"\",\"\",\"\"
\"\",\"\",\"bio\",\"3\",\"153756\",\"0.0-3.0\",\"\",\"{\"\"age\"\":\"\"19\"\",\"\"gender\"\":\"\"f\"\",\"\"specify\"\":\"\"\"\"}\",\"\",\"\",\"\",\"\",\"\",\"\",\"\",\"\",\"\",\"\",\"\",\"\",\"\",\"\",\"\"
\"\",\"\",\"approach-retreat\",\"4\",\"162184\",\"0.0-4.0\",\"\",\"\",\"3-3\",\"6913\",\"38\",\"0\",\"Training\",\"Stims/Figures/44-J-10-3.bmp\",\"mama:na\",\"Down\",\"40\",\"1\",\"1\",\"7\",\"S\",\"C\",\"1\"
\"\",\"\",\"approach-retreat\",\"5\",\"170748\",\"0.0-5.0\",\"\",\"\",\"3-3\",\"7053\",\"39\",\"1\",\"Training\",\"Stims/Figures/139-C-20-2.bmp\",\"paka:ka\",\"Left\",\"39\",\"1\",\"2\",\"7\",\"P\",\"C\",\"2\"
\"\",\"\",\"approach-retreat\",\"6\",\"177307\",\"0.0-6.0\",\"\",\"\",\"3-3\",\"5039\",\"39\",\"0\",\"Training\",\"Stims/Figures/44-C-30-3.bmp\",\"mamana\",\"Right\",\"37\",\"1\",\"3\",\"7\",\"S\",\"C\",\"3\"
\"\",\"\",\"approach-retreat\",\"7\",\"183458\",\"0.0-7.0\",\"\",\"\",\"3-3\",\"4644\",\"40\",\"1\",\"Training\",\"Stims/Figures/57-J-0-1.bmp\",\"tapaka\",\"Down\",\"40\",\"1\",\"4\",\"7\",\"P\",\"C\",\"4\"
\"\",\"\",\"approach-retreat\",\"8\",\"191727\",\"0.0-8.0\",\"\",\"\",\"3-3\",\"6758\",\"38\",\"0\",\"Training\",\"Stims/Figures/57-C-30-1.bmp\",\"tapa:ka\",\"Up\",\"40\",\"1\",\"5\",\"7\",\"P\",\"C\",\"5\"
\"\",\"\",\"approach-retreat\",\"9\",\"198491\",\"0.0-9.0\",\"\",\"\",\"3-3\",\"5253\",\"39\",\"0\",\"Training\",\"Stims/Figures/87-C-20-4.bmp\",\"na:ma:na\",\"Right\",\"37\",\"1\",\"6\",\"7\",\"S\",\"C\",\"6\"
\"\",\"\",\"approach-retreat\",\"10\",\"206449\",\"0.0-10.0\",\"\",\"\",\"3-3\",\"6444\",\"37\",\"0\",\"Training\",\"Stims/Figures/84-C-20-2.bmp\",\"papata\",\"Left\",\"39\",\"1\",\"7\",\"7\",\"P\",\"C\",\"7\"
\"\",\"\",\"approach-retreat\",\"11\",\"212918\",\"0.0-11.0\",\"\",\"\",\"3-3\",\"4951\",\"40\",\"0\",\"Training\",\"Stims/Figures/74-J-10-4.bmp\",\"na:la:la\",\"Up\",\"38\",\"1\",\"8\",\"7\",\"S\",\"C\",\"8\"
\"\",\"\",\"approach-retreat\",\"12\",\"220261\",\"0.0-12.0\",\"\",\"\",\"3-3\",\"5827\",\"38\",\"1\",\"Training\",\"Stims/Figures/71-C-30-1.bmp\",\"pakata\",\"Down\",\"38\",\"1\",\"9\",\"7\",\"P\",\"C\",\"9\"
\"\",\"\",\"approach-retreat\",\"13\",\"227245\",\"0.0-13.0\",\"\",\"\",\"3-3\",\"5469\",\"40\",\"0\",\"Training\",\"Stims/Figures/87-J-10-4.bmp\",\"malana\",\"Up\",\"38\",\"1\",\"10\",\"7\",\"S\",\"C\",\"10\"
\"\",\"\",\"approach-retreat\",\"14\",\"235247\",\"0.0-14.0\",\"\",\"\",\"3-3\",\"6484\",\"37\",\"1\",\"Training\",\"Stims/Figures/71-J-0-1.bmp\",\"ta:kata\",\"Left\",\"37\",\"1\",\"11\",\"7\",\"P\",\"C\",\"11\"
\"\",\"\",\"approach-retreat\",\"15\",\"241663\",\"0.0-15.0\",\"\",\"\",\"3-3\",\"4899\",\"40\",\"1\",\"Training\",\"Stims/Figures/144-J-10-3.bmp\",\"na:la:na\",\"Down\",\"40\",\"1\",\"12\",\"7\",\"S\",\"C\",\"12\"
\"\",\"\",\"approach-retreat\",\"16\",\"249483\",\"0.0-16.0\",\"\",\"\",\"3-3\",\"6310\",\"39\",\"1\",\"Training\",\"Stims/Figures/74-C-20-4.bmp\",\"nala:na\",\"Left\",\"39\",\"1\",\"13\",\"7\",\"S\",\"C\",\"13\"
\"\",\"\",\"approach-retreat\",\"17\",\"257167\",\"0.0-17.0\",\"\",\"\",\"3-3\",\"6175\",\"38\",\"1\",\"Training\",\"Stims/Figures/84-J-0-2.bmp\",\"pa:kata\",\"Up\",\"38\",\"1\",\"14\",\"7\",\"P\",\"C\",\"14\"
\"\",\"\",\"approach-retreat\",\"18\",\"266797\",\"0.0-18.0\",\"\",\"\",\"3-3\",\"8115\",\"37\",\"1\",\"Training\",\"Stims/Figures/144-C-30-3.bmp\",\"ma:la:na\",\"Right\",\"37\",\"1\",\"15\",\"7\",\"S\",\"C\",\"15\"
\"\",\"\",\"approach-retreat\",\"19\",\"273946\",\"0.0-19.0\",\"\",\"\",\"3-3\",\"5637\",\"37\",\"0\",\"Training\",\"Stims/Figures/139-J-0-2.bmp\",\"pa:pa:ta\",\"Right\",\"39\",\"1\",\"16\",\"7\",\"P\",\"C\",\"16\"
\"\",\"\",\"approach-retreat\",\"20\",\"280133\",\"0.0-20.0\",\"\",\"\",\"3-3\",\"4672\",\"38\",\"0\",\"Training\",\"Stims/Figures/87-J-10-4.bmp\",\"malana\",\"Down\",\"40\",\"2\",\"1\",\"7\",\"S\",\"C\",\"17\"
\"\",\"\",\"approach-retreat\",\"21\",\"286597\",\"0.0-21.0\",\"\",\"\",\"3-3\",\"4943\",\"38\",\"0\",\"Training\",\"Stims/Figures/84-C-20-2.bmp\",\"papata\",\"Up\",\"40\",\"2\",\"2\",\"7\",\"P\",\"C\",\"18\"
\"\",\"\",\"approach-retreat\",\"22\",\"292518\",\"0.0-22.0\",\"\",\"\",\"3-3\",\"4404\",\"37\",\"1\",\"Training\",\"Stims/Figures/71-J-0-1.bmp\",\"ta:kata\",\"Left\",\"37\",\"2\",\"3\",\"7\",\"P\",\"C\",\"19\"
\"\",\"\",\"approach-retreat\",\"23\",\"299338\",\"0.0-23.0\",\"\",\"\",\"3-3\",\"5306\",\"37\",\"1\",\"Training\",\"Stims/Figures/74-J-10-4.bmp\",\"na:la:la\",\"Left\",\"37\",\"2\",\"4\",\"7\",\"S\",\"C\",\"20\"
\"\",\"\",\"approach-retreat\",\"24\",\"306677\",\"0.0-24.0\",\"\",\"\",\"3-3\",\"5828\",\"39\",\"1\",\"Training\",\"Stims/Figures/84-J-0-2.bmp\",\"pa:kata\",\"Right\",\"39\",\"2\",\"5\",\"7\",\"P\",\"C\",\"21\"
\"\",\"\",\"approach-retreat\",\"25\",\"312874\",\"0.0-25.0\",\"\",\"\",\"3-3\",\"4689\",\"37\",\"1\",\"Training\",\"Stims/Figures/144-J-10-3.bmp\",\"na:la:na\",\"Left\",\"37\",\"2\",\"6\",\"7\",\"S\",\"C\",\"22\"
\"\",\"\",\"approach-retreat\",\"26\",\"318883\",\"0.0-26.0\",\"\",\"\",\"3-3\",\"4498\",\"38\",\"0\",\"Training\",\"Stims/Figures/139-C-20-2.bmp\",\"paka:ka\",\"Up\",\"40\",\"2\",\"7\",\"7\",\"P\",\"C\",\"23\"
\"\",\"\",\"approach-retreat\",\"27\",\"325145\",\"0.0-27.0\",\"\",\"\",\"3-3\",\"4751\",\"38\",\"1\",\"Training\",\"Stims/Figures/44-C-30-3.bmp\",\"mamana\",\"Down\",\"38\",\"2\",\"8\",\"7\",\"S\",\"C\",\"24\"
\"\",\"\",\"approach-retreat\",\"28\",\"330828\",\"0.0-28.0\",\"\",\"\",\"3-3\",\"4167\",\"40\",\"1\",\"Training\",\"Stims/Figures/74-C-20-4.bmp\",\"nala:na\",\"Up\",\"40\",\"2\",\"9\",\"7\",\"S\",\"C\",\"25\"
\"\",\"\",\"approach-retreat\",\"29\",\"336585\",\"0.0-29.0\",\"\",\"\",\"3-3\",\"4246\",\"37\",\"1\",\"Training\",\"Stims/Figures/57-J-0-1.bmp\",\"tapaka\",\"Left\",\"37\",\"2\",\"10\",\"7\",\"P\",\"C\",\"26\"
\"\",\"\",\"approach-retreat\",\"30\",\"342640\",\"0.0-30.0\",\"\",\"\",\"3-3\",\"4541\",\"39\",\"0\",\"Training\",\"Stims/Figures/144-C-30-3.bmp\",\"ma:la:na\",\"Right\",\"37\",\"2\",\"11\",\"7\",\"S\",\"C\",\"27\"
\"\",\"\",\"approach-retreat\",\"31\",\"348457\",\"0.0-31.0\",\"\",\"\",\"3-3\",\"4302\",\"38\",\"1\",\"Training\",\"Stims/Figures/71-C-30-1.bmp\",\"pakata\",\"Down\",\"38\",\"2\",\"12\",\"7\",\"P\",\"C\",\"28\"
\"\",\"\",\"approach-retreat\",\"32\",\"354205\",\"0.0-32.0\",\"\",\"\",\"3-3\",\"4239\",\"37\",\"1\",\"Training\",\"Stims/Figures/57-C-30-1.bmp\",\"tapa:ka\",\"Right\",\"37\",\"2\",\"13\",\"7\",\"P\",\"C\",\"29\"
\"\",\"\",\"approach-retreat\",\"33\",\"359978\",\"0.0-33.0\",\"\",\"\",\"3-3\",\"4260\",\"40\",\"0\",\"Training\",\"Stims/Figures/44-J-10-3.bmp\",\"mama:na\",\"Up\",\"38\",\"2\",\"14\",\"7\",\"S\",\"C\",\"30\"
\"\",\"\",\"approach-retreat\",\"34\",\"365682\",\"0.0-34.0\",\"\",\"\",\"3-3\",\"4197\",\"39\",\"1\",\"Training\",\"Stims/Figures/139-J-0-2.bmp\",\"pa:pa:ta\",\"Right\",\"39\",\"2\",\"15\",\"7\",\"P\",\"C\",\"31\"
\"\",\"\",\"approach-retreat\",\"35\",\"372135\",\"0.0-35.0\",\"\",\"\",\"3-3\",\"4943\",\"38\",\"1\",\"Training\",\"Stims/Figures/87-C-20-4.bmp\",\"na:ma:na\",\"Down\",\"38\",\"2\",\"16\",\"7\",\"S\",\"C\",\"32\"
\"\",\"\",\"approach-retreat\",\"36\",\"377710\",\"0.0-36.0\",\"\",\"\",\"3-3\",\"4065\",\"39\",\"1\",\"Training\",\"Stims/Figures/71-C-30-1.bmp\",\"pakata\",\"Left\",\"39\",\"3\",\"1\",\"7\",\"P\",\"C\",\"33\"
\"\",\"\",\"approach-retreat\",\"37\",\"383625\",\"0.0-37.0\",\"\",\"\",\"3-3\",\"4405\",\"39\",\"1\",\"Training\",\"Stims/Figures/144-J-10-3.bmp\",\"na:la:na\",\"Right\",\"39\",\"3\",\"2\",\"7\",\"S\",\"C\",\"34\"
\"\",\"\",\"approach-retreat\",\"38\",\"390917\",\"0.0-38.0\",\"\",\"\",\"3-3\",\"5774\",\"40\",\"1\",\"Training\",\"Stims/Figures/87-C-20-4.bmp\",\"na:ma:na\",\"Up\",\"40\",\"3\",\"3\",\"7\",\"S\",\"C\",\"35\"
\"\",\"\",\"approach-retreat\",\"39\",\"396796\",\"0.0-39.0\",\"\",\"\",\"3-3\",\"4363\",\"38\",\"0\",\"Training\",\"Stims/Figures/84-J-0-2.bmp\",\"pa:kata\",\"Down\",\"40\",\"3\",\"4\",\"7\",\"P\",\"C\",\"36\"
\"\",\"\",\"approach-retreat\",\"40\",\"402412\",\"0.0-40.0\",\"\",\"\",\"3-3\",\"4101\",\"40\",\"1\",\"Training\",\"Stims/Figures/139-J-0-2.bmp\",\"pa:pa:ta\",\"Down\",\"40\",\"3\",\"5\",\"7\",\"P\",\"C\",\"37\"
\"\",\"\",\"approach-retreat\",\"41\",\"407738\",\"0.0-41.0\",\"\",\"\",\"3-3\",\"3812\",\"39\",\"0\",\"Training\",\"Stims/Figures/57-J-0-1.bmp\",\"tapaka\",\"Left\",\"37\",\"3\",\"6\",\"7\",\"P\",\"C\",\"38\"
\"\",\"\",\"approach-retreat\",\"42\",\"413720\",\"0.0-42.0\",\"\",\"\",\"3-3\",\"4472\",\"39\",\"1\",\"Training\",\"Stims/Figures/44-C-30-3.bmp\",\"mamana\",\"Left\",\"39\",\"3\",\"7\",\"7\",\"S\",\"C\",\"39\"
\"\",\"\",\"approach-retreat\",\"43\",\"420503\",\"0.0-43.0\",\"\",\"\",\"3-3\",\"5275\",\"40\",\"1\",\"Training\",\"Stims/Figures/139-C-20-2.bmp\",\"paka:ka\",\"Up\",\"40\",\"3\",\"8\",\"7\",\"P\",\"C\",\"40\"
\"\",\"\",\"approach-retreat\",\"44\",\"426144\",\"0.0-44.0\",\"\",\"\",\"3-3\",\"4130\",\"39\",\"1\",\"Training\",\"Stims/Figures/144-C-30-3.bmp\",\"ma:la:na\",\"Left\",\"39\",\"3\",\"9\",\"7\",\"S\",\"C\",\"41\"
\"\",\"\",\"approach-retreat\",\"45\",\"432266\",\"0.0-45.0\",\"\",\"\",\"3-3\",\"4613\",\"39\",\"1\",\"Training\",\"Stims/Figures/44-J-10-3.bmp\",\"mama:na\",\"Right\",\"39\",\"3\",\"10\",\"7\",\"S\",\"C\",\"42\"
\"\",\"\",\"approach-retreat\",\"46\",\"438559\",\"0.0-46.0\",\"\",\"\",\"3-3\",\"4785\",\"38\",\"1\",\"Training\",\"Stims/Figures/71-J-0-1.bmp\",\"ta:kata\",\"Up\",\"38\",\"3\",\"11\",\"7\",\"P\",\"C\",\"43\"
\"\",\"\",\"approach-retreat\",\"47\",\"444578\",\"0.0-47.0\",\"\",\"\",\"3-3\",\"4500\",\"40\",\"1\",\"Training\",\"Stims/Figures/87-J-10-4.bmp\",\"malana\",\"Down\",\"40\",\"3\",\"12\",\"7\",\"S\",\"C\",\"44\"
\"\",\"\",\"approach-retreat\",\"48\",\"451048\",\"0.0-48.0\",\"\",\"\",\"3-3\",\"4961\",\"37\",\"1\",\"Training\",\"Stims/Figures/74-C-20-4.bmp\",\"nala:na\",\"Right\",\"37\",\"3\",\"13\",\"7\",\"S\",\"C\",\"45\"
\"\",\"\",\"approach-retreat\",\"49\",\"457868\",\"0.0-49.0\",\"\",\"\",\"3-3\",\"5310\",\"38\",\"1\",\"Training\",\"Stims/Figures/84-C-20-2.bmp\",\"papata\",\"Down\",\"38\",\"3\",\"14\",\"7\",\"P\",\"C\",\"46\"
\"\",\"\",\"approach-retreat\",\"50\",\"463704\",\"0.0-50.0\",\"\",\"\",\"3-3\",\"4320\",\"37\",\"1\",\"Training\",\"Stims/Figures/57-C-30-1.bmp\",\"tapa:ka\",\"Right\",\"37\",\"3\",\"15\",\"7\",\"P\",\"C\",\"47\"
\"\",\"\",\"approach-retreat\",\"51\",\"469369\",\"0.0-51.0\",\"\",\"\",\"3-3\",\"4148\",\"40\",\"0\",\"Training\",\"Stims/Figures/74-J-10-4.bmp\",\"na:la:la\",\"Up\",\"38\",\"3\",\"16\",\"7\",\"S\",\"C\",\"48\"
\"\",\"\",\"approach-retreat\",\"52\",\"475276\",\"0.0-52.0\",\"\",\"\",\"3-3\",\"4399\",\"40\",\"1\",\"Training\",\"Stims/Figures/144-J-10-3.bmp\",\"na:la:na\",\"Down\",\"40\",\"4\",\"1\",\"7\",\"S\",\"C\",\"49\"
\"\",\"\",\"approach-retreat\",\"53\",\"481120\",\"0.0-53.0\",\"\",\"\",\"3-3\",\"4331\",\"38\",\"1\",\"Training\",\"Stims/Figures/144-C-30-3.bmp\",\"ma:la:na\",\"Down\",\"38\",\"4\",\"2\",\"7\",\"S\",\"C\",\"50\"
\"\",\"\",\"approach-retreat\",\"54\",\"486962\",\"0.0-54.0\",\"\",\"\",\"3-3\",\"4330\",\"39\",\"1\",\"Training\",\"Stims/Figures/139-J-0-2.bmp\",\"pa:pa:ta\",\"Right\",\"39\",\"4\",\"3\",\"7\",\"P\",\"C\",\"51\"
\"\",\"\",\"approach-retreat\",\"55\",\"492780\",\"0.0-55.0\",\"\",\"\",\"3-3\",\"4309\",\"38\",\"1\",\"Training\",\"Stims/Figures/74-J-10-4.bmp\",\"na:la:la\",\"Up\",\"38\",\"4\",\"4\",\"7\",\"S\",\"C\",\"52\"
\"\",\"\",\"approach-retreat\",\"56\",\"498538\",\"0.0-56.0\",\"\",\"\",\"3-3\",\"4249\",\"40\",\"1\",\"Training\",\"Stims/Figures/57-J-0-1.bmp\",\"tapaka\",\"Down\",\"40\",\"4\",\"5\",\"7\",\"P\",\"C\",\"53\"
\"\",\"\",\"approach-retreat\",\"57\",\"504241\",\"0.0-57.0\",\"\",\"\",\"3-3\",\"4187\",\"37\",\"1\",\"Training\",\"Stims/Figures/71-C-30-1.bmp\",\"pakata\",\"Right\",\"37\",\"4\",\"6\",\"7\",\"P\",\"C\",\"54\"
\"\",\"\",\"approach-retreat\",\"58\",\"510073\",\"0.0-58.0\",\"\",\"\",\"3-3\",\"4316\",\"38\",\"1\",\"Training\",\"Stims/Figures/71-J-0-1.bmp\",\"ta:kata\",\"Up\",\"38\",\"4\",\"7\",\"7\",\"P\",\"C\",\"55\"
\"\",\"\",\"approach-retreat\",\"59\",\"515734\",\"0.0-59.0\",\"\",\"\",\"3-3\",\"4153\",\"37\",\"0\",\"Training\",\"Stims/Figures/87-J-10-4.bmp\",\"malana\",\"Right\",\"39\",\"4\",\"8\",\"7\",\"S\",\"C\",\"56\"
\"\",\"\",\"approach-retreat\",\"60\",\"521724\",\"0.0-60.0\",\"\",\"\",\"3-3\",\"4481\",\"39\",\"1\",\"Training\",\"Stims/Figures/87-C-20-4.bmp\",\"na:ma:na\",\"Left\",\"39\",\"4\",\"9\",\"7\",\"S\",\"C\",\"57\"
\"\",\"\",\"approach-retreat\",\"61\",\"527635\",\"0.0-61.0\",\"\",\"\",\"3-3\",\"4402\",\"39\",\"1\",\"Training\",\"Stims/Figures/44-C-30-3.bmp\",\"mamana\",\"Left\",\"39\",\"4\",\"10\",\"7\",\"S\",\"C\",\"58\"
\"\",\"\",\"approach-retreat\",\"62\",\"533162\",\"0.0-62.0\",\"\",\"\",\"3-3\",\"4009\",\"39\",\"1\",\"Training\",\"Stims/Figures/139-C-20-2.bmp\",\"paka:ka\",\"Left\",\"39\",\"4\",\"11\",\"7\",\"P\",\"C\",\"59\"
\"\",\"\",\"approach-retreat\",\"63\",\"539219\",\"0.0-63.0\",\"\",\"\",\"3-3\",\"4545\",\"38\",\"1\",\"Training\",\"Stims/Figures/44-J-10-3.bmp\",\"mama:na\",\"Up\",\"38\",\"4\",\"12\",\"7\",\"S\",\"C\",\"60\"
\"\",\"\",\"approach-retreat\",\"64\",\"544868\",\"0.0-64.0\",\"\",\"\",\"3-3\",\"4138\",\"40\",\"1\",\"Training\",\"Stims/Figures/84-J-0-2.bmp\",\"pa:kata\",\"Down\",\"40\",\"4\",\"13\",\"7\",\"P\",\"C\",\"61\"
\"\",\"\",\"approach-retreat\",\"65\",\"550308\",\"0.0-65.0\",\"\",\"\",\"3-3\",\"3933\",\"39\",\"1\",\"Training\",\"Stims/Figures/84-C-20-2.bmp\",\"papata\",\"Left\",\"39\",\"4\",\"14\",\"7\",\"P\",\"C\",\"62\"
\"\",\"\",\"approach-retreat\",\"66\",\"556271\",\"0.0-66.0\",\"\",\"\",\"3-3\",\"4453\",\"37\",\"1\",\"Training\",\"Stims/Figures/74-C-20-4.bmp\",\"nala:na\",\"Right\",\"37\",\"4\",\"15\",\"7\",\"S\",\"C\",\"63\"
\"\",\"\",\"approach-retreat\",\"67\",\"561800\",\"0.0-67.0\",\"\",\"\",\"3-3\",\"4010\",\"40\",\"1\",\"Training\",\"Stims/Figures/57-C-30-1.bmp\",\"tapa:ka\",\"Up\",\"40\",\"4\",\"16\",\"7\",\"P\",\"C\",\"64\"
\"\",\"\",\"approach-retreat\",\"68\",\"567468\",\"0.0-68.0\",\"\",\"\",\"3-3\",\"4154\",\"39\",\"1\",\"Training\",\"Stims/Figures/44-C-30-3.bmp\",\"mamana\",\"Left\",\"39\",\"5\",\"1\",\"7\",\"S\",\"C\",\"65\"
\"\",\"\",\"approach-retreat\",\"69\",\"573189\",\"0.0-69.0\",\"\",\"\",\"3-3\",\"4202\",\"37\",\"1\",\"Training\",\"Stims/Figures/74-C-20-4.bmp\",\"nala:na\",\"Right\",\"37\",\"5\",\"2\",\"7\",\"S\",\"C\",\"66\"
\"\",\"\",\"approach-retreat\",\"70\",\"578688\",\"0.0-70.0\",\"\",\"\",\"3-3\",\"3985\",\"38\",\"1\",\"Training\",\"Stims/Figures/144-C-30-3.bmp\",\"ma:la:na\",\"Down\",\"38\",\"5\",\"3\",\"7\",\"S\",\"C\",\"67\"
\"\",\"\",\"approach-retreat\",\"71\",\"584299\",\"0.0-71.0\",\"\",\"\",\"3-3\",\"4095\",\"40\",\"1\",\"Training\",\"Stims/Figures/57-C-30-1.bmp\",\"tapa:ka\",\"Up\",\"40\",\"5\",\"4\",\"7\",\"P\",\"C\",\"68\"
\"\",\"\",\"approach-retreat\",\"72\",\"589956\",\"0.0-72.0\",\"\",\"\",\"3-3\",\"4140\",\"39\",\"0\",\"Training\",\"Stims/Figures/84-C-20-2.bmp\",\"papata\",\"Right\",\"37\",\"5\",\"5\",\"7\",\"P\",\"C\",\"69\"
\"\",\"\",\"approach-retreat\",\"73\",\"595589\",\"0.0-73.0\",\"\",\"\",\"3-3\",\"4122\",\"39\",\"0\",\"Training\",\"Stims/Figures/87-C-20-4.bmp\",\"na:ma:na\",\"Right\",\"37\",\"5\",\"6\",\"7\",\"S\",\"C\",\"70\"
\"\",\"\",\"approach-retreat\",\"74\",\"601411\",\"0.0-74.0\",\"\",\"\",\"3-3\",\"4309\",\"40\",\"1\",\"Training\",\"Stims/Figures/87-J-10-4.bmp\",\"malana\",\"Down\",\"40\",\"5\",\"7\",\"7\",\"S\",\"C\",\"71\"
\"\",\"\",\"approach-retreat\",\"75\",\"607167\",\"0.0-75.0\",\"\",\"\",\"3-3\",\"4245\",\"39\",\"1\",\"Training\",\"Stims/Figures/144-J-10-3.bmp\",\"na:la:na\",\"Right\",\"39\",\"5\",\"8\",\"7\",\"S\",\"C\",\"72\"
\"\",\"\",\"approach-retreat\",\"76\",\"612865\",\"0.0-76.0\",\"\",\"\",\"3-3\",\"4190\",\"38\",\"1\",\"Training\",\"Stims/Figures/74-J-10-4.bmp\",\"na:la:la\",\"Up\",\"38\",\"5\",\"9\",\"7\",\"S\",\"C\",\"73\"
\"\",\"\",\"approach-retreat\",\"77\",\"618551\",\"0.0-77.0\",\"\",\"\",\"3-3\",\"4176\",\"40\",\"1\",\"Training\",\"Stims/Figures/71-J-0-1.bmp\",\"ta:kata\",\"Down\",\"40\",\"5\",\"10\",\"7\",\"P\",\"C\",\"74\"
\"\",\"\",\"approach-retreat\",\"78\",\"624291\",\"0.0-78.0\",\"\",\"\",\"3-3\",\"4219\",\"40\",\"1\",\"Training\",\"Stims/Figures/139-C-20-2.bmp\",\"paka:ka\",\"Up\",\"40\",\"5\",\"11\",\"7\",\"P\",\"C\",\"75\"
\"\",\"\",\"approach-retreat\",\"79\",\"629863\",\"0.0-79.0\",\"\",\"\",\"3-3\",\"4063\",\"39\",\"1\",\"Training\",\"Stims/Figures/71-C-30-1.bmp\",\"pakata\",\"Left\",\"39\",\"5\",\"12\",\"7\",\"P\",\"C\",\"76\"
\"\",\"\",\"approach-retreat\",\"80\",\"635447\",\"0.0-80.0\",\"\",\"\",\"3-3\",\"4074\",\"37\",\"1\",\"Training\",\"Stims/Figures/44-J-10-3.bmp\",\"mama:na\",\"Left\",\"37\",\"5\",\"13\",\"7\",\"S\",\"C\",\"77\"
\"\",\"\",\"approach-retreat\",\"81\",\"641014\",\"0.0-81.0\",\"\",\"\",\"3-3\",\"4051\",\"37\",\"1\",\"Training\",\"Stims/Figures/84-J-0-2.bmp\",\"pa:kata\",\"Left\",\"37\",\"5\",\"14\",\"7\",\"P\",\"C\",\"78\"
\"\",\"\",\"approach-retreat\",\"82\",\"646674\",\"0.0-82.0\",\"\",\"\",\"3-3\",\"4150\",\"40\",\"1\",\"Training\",\"Stims/Figures/139-J-0-2.bmp\",\"pa:pa:ta\",\"Down\",\"40\",\"5\",\"15\",\"7\",\"P\",\"C\",\"79\"
\"\",\"\",\"approach-retreat\",\"83\",\"652828\",\"0.0-83.0\",\"\",\"\",\"3-3\",\"4628\",\"38\",\"1\",\"Training\",\"Stims/Figures/57-J-0-1.bmp\",\"tapaka\",\"Up\",\"38\",\"5\",\"16\",\"7\",\"P\",\"C\",\"80\"
\"\",\"\",\"approach-retreat\",\"84\",\"658286\",\"0.0-84.0\",\"\",\"\",\"3-3\",\"3950\",\"38\",\"0\",\"Training\",\"Stims/Figures/84-C-20-2.bmp\",\"papata\",\"Up\",\"40\",\"6\",\"1\",\"7\",\"P\",\"C\",\"81\"
\"\",\"\",\"approach-retreat\",\"85\",\"663904\",\"0.0-85.0\",\"\",\"\",\"3-3\",\"4108\",\"39\",\"1\",\"Training\",\"Stims/Figures/71-C-30-1.bmp\",\"pakata\",\"Left\",\"39\",\"6\",\"2\",\"7\",\"P\",\"C\",\"82\"
\"\",\"\",\"approach-retreat\",\"86\",\"669569\",\"0.0-86.0\",\"\",\"\",\"3-3\",\"4156\",\"38\",\"0\",\"Training\",\"Stims/Figures/74-C-20-4.bmp\",\"nala:na\",\"Up\",\"40\",\"6\",\"3\",\"7\",\"S\",\"C\",\"83\"
\"\",\"\",\"approach-retreat\",\"87\",\"675381\",\"0.0-87.0\",\"\",\"\",\"3-3\",\"4301\",\"40\",\"1\",\"Training\",\"Stims/Figures/44-J-10-3.bmp\",\"mama:na\",\"Down\",\"40\",\"6\",\"4\",\"7\",\"S\",\"C\",\"84\"
\"\",\"\",\"approach-retreat\",\"88\",\"681184\",\"0.0-88.0\",\"\",\"\",\"3-3\",\"4291\",\"40\",\"1\",\"Training\",\"Stims/Figures/87-C-20-4.bmp\",\"na:ma:na\",\"Up\",\"40\",\"6\",\"5\",\"7\",\"S\",\"C\",\"85\"
\"\",\"\",\"approach-retreat\",\"89\",\"686845\",\"0.0-89.0\",\"\",\"\",\"3-3\",\"4142\",\"37\",\"1\",\"Training\",\"Stims/Figures/57-C-30-1.bmp\",\"tapa:ka\",\"Right\",\"37\",\"6\",\"6\",\"7\",\"P\",\"C\",\"86\"
\"\",\"\",\"approach-retreat\",\"90\",\"692435\",\"0.0-90.0\",\"\",\"\",\"3-3\",\"4071\",\"40\",\"1\",\"Training\",\"Stims/Figures/139-J-0-2.bmp\",\"pa:pa:ta\",\"Down\",\"40\",\"6\",\"7\",\"7\",\"P\",\"C\",\"87\"
\"\",\"\",\"approach-retreat\",\"91\",\"698109\",\"0.0-91.0\",\"\",\"\",\"3-3\",\"4157\",\"39\",\"1\",\"Training\",\"Stims/Figures/84-J-0-2.bmp\",\"pa:kata\",\"Right\",\"39\",\"6\",\"8\",\"7\",\"P\",\"C\",\"88\"
\"\",\"\",\"approach-retreat\",\"92\",\"703683\",\"0.0-92.0\",\"\",\"\",\"3-3\",\"4059\",\"39\",\"1\",\"Training\",\"Stims/Figures/144-C-30-3.bmp\",\"ma:la:na\",\"Left\",\"39\",\"6\",\"9\",\"7\",\"S\",\"C\",\"89\"
\"\",\"\",\"approach-retreat\",\"93\",\"709517\",\"0.0-93.0\",\"\",\"\",\"3-3\",\"4304\",\"38\",\"1\",\"Training\",\"Stims/Figures/57-J-0-1.bmp\",\"tapaka\",\"Up\",\"38\",\"6\",\"10\",\"7\",\"P\",\"C\",\"90\"
\"\",\"\",\"approach-retreat\",\"94\",\"715247\",\"0.0-94.0\",\"\",\"\",\"3-3\",\"4214\",\"37\",\"1\",\"Training\",\"Stims/Figures/44-C-30-3.bmp\",\"mamana\",\"Right\",\"37\",\"6\",\"11\",\"7\",\"S\",\"C\",\"91\"
\"\",\"\",\"approach-retreat\",\"95\",\"720929\",\"0.0-95.0\",\"\",\"\",\"3-3\",\"4164\",\"37\",\"1\",\"Training\",\"Stims/Figures/87-J-10-4.bmp\",\"malana\",\"Left\",\"37\",\"6\",\"12\",\"7\",\"S\",\"C\",\"92\"
\"\",\"\",\"approach-retreat\",\"96\",\"726712\",\"0.0-96.0\",\"\",\"\",\"3-3\",\"4272\",\"39\",\"1\",\"Training\",\"Stims/Figures/144-J-10-3.bmp\",\"na:la:na\",\"Right\",\"39\",\"6\",\"13\",\"7\",\"S\",\"C\",\"93\"
\"\",\"\",\"approach-retreat\",\"97\",\"732464\",\"0.0-97.0\",\"\",\"\",\"3-3\",\"4242\",\"37\",\"1\",\"Training\",\"Stims/Figures/71-J-0-1.bmp\",\"ta:kata\",\"Left\",\"37\",\"6\",\"14\",\"7\",\"P\",\"C\",\"94\"
\"\",\"\",\"approach-retreat\",\"98\",\"738183\",\"0.0-98.0\",\"\",\"\",\"3-3\",\"4209\",\"38\",\"1\",\"Training\",\"Stims/Figures/139-C-20-2.bmp\",\"paka:ka\",\"Down\",\"38\",\"6\",\"15\",\"7\",\"P\",\"C\",\"95\"
\"\",\"\",\"approach-retreat\",\"99\",\"743610\",\"0.0-99.0\",\"\",\"\",\"3-3\",\"3913\",\"38\",\"0\",\"Training\",\"Stims/Figures/74-J-10-4.bmp\",\"na:la:la\",\"Down\",\"40\",\"6\",\"16\",\"7\",\"S\",\"C\",\"96\"
\"\",\"\",\"approach-retreat\",\"100\",\"749252\",\"0.0-100.0\",\"\",\"\",\"3-3\",\"4126\",\"39\",\"1\",\"Training\",\"Stims/Figures/71-J-0-1.bmp\",\"ta:kata\",\"Right\",\"39\",\"7\",\"1\",\"7\",\"P\",\"C\",\"97\"
\"\",\"\",\"approach-retreat\",\"101\",\"754855\",\"0.0-101.0\",\"\",\"\",\"3-3\",\"4094\",\"40\",\"1\",\"Training\",\"Stims/Figures/139-C-20-2.bmp\",\"paka:ka\",\"Up\",\"40\",\"7\",\"2\",\"7\",\"P\",\"C\",\"98\"
\"\",\"\",\"approach-retreat\",\"102\",\"760388\",\"0.0-102.0\",\"\",\"\",\"3-3\",\"4020\",\"38\",\"1\",\"Training\",\"Stims/Figures/144-C-30-3.bmp\",\"ma:la:na\",\"Down\",\"38\",\"7\",\"3\",\"7\",\"S\",\"C\",\"99\"
\"\",\"\",\"approach-retreat\",\"103\",\"765941\",\"0.0-103.0\",\"\",\"\",\"3-3\",\"4034\",\"40\",\"1\",\"Training\",\"Stims/Figures/74-J-10-4.bmp\",\"na:la:la\",\"Down\",\"40\",\"7\",\"4\",\"7\",\"S\",\"C\",\"100\"
\"\",\"\",\"approach-retreat\",\"104\",\"771559\",\"0.0-104.0\",\"\",\"\",\"3-3\",\"4103\",\"37\",\"1\",\"Training\",\"Stims/Figures/84-J-0-2.bmp\",\"pa:kata\",\"Left\",\"37\",\"7\",\"5\",\"7\",\"P\",\"C\",\"101\"
\"\",\"\",\"approach-retreat\",\"105\",\"777150\",\"0.0-105.0\",\"\",\"\",\"3-3\",\"4080\",\"37\",\"1\",\"Training\",\"Stims/Figures/84-C-20-2.bmp\",\"papata\",\"Right\",\"37\",\"7\",\"6\",\"7\",\"P\",\"C\",\"102\"
\"\",\"\",\"approach-retreat\",\"106\",\"782993\",\"0.0-106.0\",\"\",\"\",\"3-3\",\"4336\",\"40\",\"1\",\"Training\",\"Stims/Figures/139-J-0-2.bmp\",\"pa:pa:ta\",\"Down\",\"40\",\"7\",\"7\",\"7\",\"P\",\"C\",\"103\"
\"\",\"\",\"approach-retreat\",\"107\",\"788554\",\"0.0-107.0\",\"\",\"\",\"3-3\",\"4050\",\"37\",\"1\",\"Training\",\"Stims/Figures/87-J-10-4.bmp\",\"malana\",\"Left\",\"37\",\"7\",\"8\",\"7\",\"S\",\"C\",\"104\"
\"\",\"\",\"approach-retreat\",\"108\",\"794109\",\"0.0-108.0\",\"\",\"\",\"3-3\",\"4046\",\"40\",\"1\",\"Training\",\"Stims/Figures/57-C-30-1.bmp\",\"tapa:ka\",\"Up\",\"40\",\"7\",\"9\",\"7\",\"P\",\"C\",\"105\"
\"\",\"\",\"approach-retreat\",\"109\",\"799773\",\"0.0-109.0\",\"\",\"\",\"3-3\",\"4155\",\"40\",\"1\",\"Training\",\"Stims/Figures/44-J-10-3.bmp\",\"mama:na\",\"Down\",\"40\",\"7\",\"10\",\"7\",\"S\",\"C\",\"106\"
\"\",\"\",\"approach-retreat\",\"110\",\"805448\",\"0.0-110.0\",\"\",\"\",\"3-3\",\"4163\",\"37\",\"1\",\"Training\",\"Stims/Figures/87-C-20-4.bmp\",\"na:ma:na\",\"Right\",\"37\",\"7\",\"11\",\"7\",\"S\",\"C\",\"107\"
\"\",\"\",\"approach-retreat\",\"111\",\"811093\",\"0.0-111.0\",\"\",\"\",\"3-3\",\"4132\",\"37\",\"1\",\"Training\",\"Stims/Figures/144-J-10-3.bmp\",\"na:la:na\",\"Left\",\"37\",\"7\",\"12\",\"7\",\"S\",\"C\",\"108\"
\"\",\"\",\"approach-retreat\",\"112\",\"816658\",\"0.0-112.0\",\"\",\"\",\"3-3\",\"4046\",\"37\",\"1\",\"Training\",\"Stims/Figures/74-C-20-4.bmp\",\"nala:na\",\"Right\",\"37\",\"7\",\"13\",\"7\",\"S\",\"C\",\"109\"
\"\",\"\",\"approach-retreat\",\"113\",\"822226\",\"0.0-113.0\",\"\",\"\",\"3-3\",\"4050\",\"40\",\"1\",\"Training\",\"Stims/Figures/44-C-30-3.bmp\",\"mamana\",\"Up\",\"40\",\"7\",\"14\",\"7\",\"S\",\"C\",\"110\"
\"\",\"\",\"approach-retreat\",\"114\",\"827747\",\"0.0-114.0\",\"\",\"\",\"3-3\",\"4006\",\"37\",\"1\",\"Training\",\"Stims/Figures/57-J-0-1.bmp\",\"tapaka\",\"Left\",\"37\",\"7\",\"15\",\"7\",\"P\",\"C\",\"111\"
\"\",\"\",\"approach-retreat\",\"115\",\"833268\",\"0.0-115.0\",\"\",\"\",\"3-3\",\"4012\",\"40\",\"1\",\"Training\",\"Stims/Figures/71-C-30-1.bmp\",\"pakata\",\"Up\",\"40\",\"7\",\"16\",\"7\",\"P\",\"C\",\"112\"
\"\",\"\",\"approach-retreat\",\"116\",\"839031\",\"0.0-116.0\",\"\",\"\",\"3-3\",\"4247\",\"38\",\"1\",\"Training\",\"Stims/Figures/84-J-0-2.bmp\",\"pa:kata\",\"Up\",\"38\",\"8\",\"1\",\"7\",\"P\",\"C\",\"113\"
\"\",\"\",\"approach-retreat\",\"117\",\"844545\",\"0.0-117.0\",\"\",\"\",\"3-3\",\"4005\",\"40\",\"1\",\"Training\",\"Stims/Figures/71-J-0-1.bmp\",\"ta:kata\",\"Down\",\"40\",\"8\",\"2\",\"7\",\"P\",\"C\",\"114\"
\"\",\"\",\"approach-retreat\",\"118\",\"850355\",\"0.0-118.0\",\"\",\"\",\"3-3\",\"4301\",\"40\",\"1\",\"Training\",\"Stims/Figures/84-C-20-2.bmp\",\"papata\",\"Up\",\"40\",\"8\",\"3\",\"7\",\"P\",\"C\",\"115\"
\"\",\"\",\"approach-retreat\",\"119\",\"855894\",\"0.0-119.0\",\"\",\"\",\"3-3\",\"4031\",\"40\",\"1\",\"Training\",\"Stims/Figures/87-J-10-4.bmp\",\"malana\",\"Down\",\"40\",\"8\",\"4\",\"7\",\"S\",\"C\",\"116\"
\"\",\"\",\"approach-retreat\",\"120\",\"861491\",\"0.0-120.0\",\"\",\"\",\"3-3\",\"4084\",\"40\",\"1\",\"Training\",\"Stims/Figures/44-J-10-3.bmp\",\"mama:na\",\"Down\",\"40\",\"8\",\"5\",\"7\",\"S\",\"C\",\"117\"
\"\",\"\",\"approach-retreat\",\"121\",\"866958\",\"0.0-121.0\",\"\",\"\",\"3-3\",\"3953\",\"39\",\"1\",\"Training\",\"Stims/Figures/139-C-20-2.bmp\",\"paka:ka\",\"Left\",\"39\",\"8\",\"6\",\"7\",\"P\",\"C\",\"118\"
\"\",\"\",\"approach-retreat\",\"122\",\"872578\",\"0.0-122.0\",\"\",\"\",\"3-3\",\"4106\",\"37\",\"1\",\"Training\",\"Stims/Figures/44-C-30-3.bmp\",\"mamana\",\"Right\",\"37\",\"8\",\"7\",\"7\",\"S\",\"C\",\"119\"
\"\",\"\",\"approach-retreat\",\"123\",\"878391\",\"0.0-123.0\",\"\",\"\",\"3-3\",\"4299\",\"38\",\"1\",\"Training\",\"Stims/Figures/74-J-10-4.bmp\",\"na:la:la\",\"Up\",\"38\",\"8\",\"8\",\"7\",\"S\",\"C\",\"120\"
\"\",\"\",\"approach-retreat\",\"124\",\"884394\",\"0.0-124.0\",\"\",\"\",\"3-3\",\"4492\",\"37\",\"1\",\"Training\",\"Stims/Figures/74-C-20-4.bmp\",\"nala:na\",\"Right\",\"37\",\"8\",\"9\",\"7\",\"S\",\"C\",\"121\"
\"\",\"\",\"approach-retreat\",\"125\",\"889978\",\"0.0-125.0\",\"\",\"\",\"3-3\",\"4066\",\"40\",\"1\",\"Training\",\"Stims/Figures/71-C-30-1.bmp\",\"pakata\",\"Up\",\"40\",\"8\",\"10\",\"7\",\"P\",\"C\",\"122\"
\"\",\"\",\"approach-retreat\",\"126\",\"895633\",\"0.0-126.0\",\"\",\"\",\"3-3\",\"4138\",\"39\",\"1\",\"Training\",\"Stims/Figures/87-C-20-4.bmp\",\"na:ma:na\",\"Left\",\"39\",\"8\",\"11\",\"7\",\"S\",\"C\",\"123\"
\"\",\"\",\"approach-retreat\",\"127\",\"901140\",\"0.0-127.0\",\"\",\"\",\"3-3\",\"3998\",\"37\",\"1\",\"Training\",\"Stims/Figures/144-C-30-3.bmp\",\"ma:la:na\",\"Right\",\"37\",\"8\",\"12\",\"7\",\"S\",\"C\",\"124\"
\"\",\"\",\"approach-retreat\",\"128\",\"907206\",\"0.0-128.0\",\"\",\"\",\"3-3\",\"4557\",\"38\",\"1\",\"Training\",\"Stims/Figures/57-C-30-1.bmp\",\"tapa:ka\",\"Down\",\"38\",\"8\",\"13\",\"7\",\"P\",\"C\",\"125\"
\"\",\"\",\"approach-retreat\",\"129\",\"912930\",\"0.0-129.0\",\"\",\"\",\"3-3\",\"4215\",\"37\",\"1\",\"Training\",\"Stims/Figures/144-J-10-3.bmp\",\"na:la:na\",\"Left\",\"37\",\"8\",\"14\",\"7\",\"S\",\"C\",\"126\"
\"\",\"\",\"approach-retreat\",\"130\",\"918509\",\"0.0-130.0\",\"\",\"\",\"3-3\",\"4067\",\"39\",\"1\",\"Training\",\"Stims/Figures/57-J-0-1.bmp\",\"tapaka\",\"Right\",\"39\",\"8\",\"15\",\"7\",\"P\",\"C\",\"127\"
\"\",\"\",\"approach-retreat\",\"131\",\"924124\",\"0.0-131.0\",\"\",\"\",\"3-3\",\"4102\",\"37\",\"1\",\"Training\",\"Stims/Figures/139-J-0-2.bmp\",\"pa:pa:ta\",\"Left\",\"37\",\"8\",\"16\",\"7\",\"P\",\"C\",\"128\"
\"\",\"\",\"approach-retreat\",\"132\",\"930119\",\"0.0-132.0\",\"\",\"\",\"3-3\",\"4484\",\"38\",\"1\",\"Training\",\"Stims/Figures/144-J-10-3.bmp\",\"na:la:na\",\"Up\",\"38\",\"9\",\"1\",\"7\",\"S\",\"C\",\"129\"
\"\",\"\",\"approach-retreat\",\"133\",\"935710\",\"0.0-133.0\",\"\",\"\",\"3-3\",\"4066\",\"37\",\"1\",\"Training\",\"Stims/Figures/44-J-10-3.bmp\",\"mama:na\",\"Left\",\"37\",\"9\",\"2\",\"7\",\"S\",\"C\",\"130\"
\"\",\"\",\"approach-retreat\",\"134\",\"941262\",\"0.0-134.0\",\"\",\"\",\"3-3\",\"4039\",\"39\",\"1\",\"Training\",\"Stims/Figures/74-J-10-4.bmp\",\"na:la:la\",\"Right\",\"39\",\"9\",\"3\",\"7\",\"S\",\"C\",\"131\"
\"\",\"\",\"approach-retreat\",\"135\",\"947258\",\"0.0-135.0\",\"\",\"\",\"3-3\",\"4476\",\"39\",\"1\",\"Training\",\"Stims/Figures/74-C-20-4.bmp\",\"nala:na\",\"Left\",\"39\",\"9\",\"4\",\"7\",\"S\",\"C\",\"132\"
\"\",\"\",\"approach-retreat\",\"136\",\"952898\",\"0.0-136.0\",\"\",\"\",\"3-3\",\"4123\",\"38\",\"1\",\"Training\",\"Stims/Figures/57-J-0-1.bmp\",\"tapaka\",\"Up\",\"38\",\"9\",\"5\",\"7\",\"P\",\"C\",\"133\"
\"\",\"\",\"approach-retreat\",\"137\",\"958498\",\"0.0-137.0\",\"\",\"\",\"3-3\",\"4085\",\"40\",\"1\",\"Training\",\"Stims/Figures/71-C-30-1.bmp\",\"pakata\",\"Up\",\"40\",\"9\",\"6\",\"7\",\"P\",\"C\",\"134\"
\"\",\"\",\"approach-retreat\",\"138\",\"964104\",\"0.0-138.0\",\"\",\"\",\"3-3\",\"4096\",\"38\",\"1\",\"Training\",\"Stims/Figures/139-C-20-2.bmp\",\"paka:ka\",\"Down\",\"38\",\"9\",\"7\",\"7\",\"P\",\"C\",\"135\"
\"\",\"\",\"approach-retreat\",\"139\",\"969839\",\"0.0-139.0\",\"\",\"\",\"3-3\",\"4227\",\"37\",\"1\",\"Training\",\"Stims/Figures/87-J-10-4.bmp\",\"malana\",\"Left\",\"37\",\"9\",\"8\",\"7\",\"S\",\"C\",\"136\"
\"\",\"\",\"approach-retreat\",\"140\",\"975444\",\"0.0-140.0\",\"\",\"\",\"3-3\",\"4094\",\"39\",\"1\",\"Training\",\"Stims/Figures/71-J-0-1.bmp\",\"ta:kata\",\"Right\",\"39\",\"9\",\"9\",\"7\",\"P\",\"C\",\"137\"
\"\",\"\",\"approach-retreat\",\"141\",\"981228\",\"0.0-141.0\",\"\",\"\",\"3-3\",\"4265\",\"37\",\"1\",\"Training\",\"Stims/Figures/44-C-30-3.bmp\",\"mamana\",\"Right\",\"37\",\"9\",\"10\",\"7\",\"S\",\"C\",\"138\"
\"\",\"\",\"approach-retreat\",\"142\",\"986823\",\"0.0-142.0\",\"\",\"\",\"3-3\",\"4081\",\"39\",\"1\",\"Training\",\"Stims/Figures/57-C-30-1.bmp\",\"tapa:ka\",\"Left\",\"39\",\"9\",\"11\",\"7\",\"P\",\"C\",\"139\"
\"\",\"\",\"approach-retreat\",\"143\",\"992409\",\"0.0-143.0\",\"\",\"\",\"3-3\",\"4075\",\"38\",\"1\",\"Training\",\"Stims/Figures/87-C-20-4.bmp\",\"na:ma:na\",\"Down\",\"38\",\"9\",\"12\",\"7\",\"S\",\"C\",\"140\"
\"\",\"\",\"approach-retreat\",\"144\",\"997952\",\"0.0-144.0\",\"\",\"\",\"3-3\",\"4027\",\"39\",\"1\",\"Training\",\"Stims/Figures/84-J-0-2.bmp\",\"pa:kata\",\"Right\",\"39\",\"9\",\"13\",\"7\",\"P\",\"C\",\"141\"
\"\",\"\",\"approach-retreat\",\"145\",\"1003518\",\"0.0-145.0\",\"\",\"\",\"3-3\",\"4055\",\"40\",\"1\",\"Training\",\"Stims/Figures/139-J-0-2.bmp\",\"pa:pa:ta\",\"Down\",\"40\",\"9\",\"14\",\"7\",\"P\",\"C\",\"142\"
\"\",\"\",\"approach-retreat\",\"146\",\"1009764\",\"0.0-146.0\",\"\",\"\",\"3-3\",\"4736\",\"38\",\"0\",\"Training\",\"Stims/Figures/144-C-30-3.bmp\",\"ma:la:na\",\"Up\",\"40\",\"9\",\"15\",\"7\",\"S\",\"C\",\"143\"
\"\",\"\",\"approach-retreat\",\"147\",\"1015749\",\"0.0-147.0\",\"\",\"\",\"3-3\",\"4477\",\"38\",\"1\",\"Training\",\"Stims/Figures/84-C-20-2.bmp\",\"papata\",\"Down\",\"38\",\"9\",\"16\",\"7\",\"P\",\"C\",\"144\"
\"13279\",\"\",\"instructions\",\"148\",\"1029028\",\"0.0-148.0\",\"[{\"\"page_index\"\":0,\"\"viewing_time\"\":13278}]\",\"\",\"\",\"\",\"\",\"\",\"\",\"\",\"\",\"\",\"\",\"\",\"\",\"\",\"\",\"\",\"\"
\"\",\"\",\"approach-retreat\",\"149\",\"1034744\",\"0.0-149.0\",\"\",\"\",\"3-3\",\"4208\",\"37\",\"1\",\"Testing\",\"Stims/Figures/71-J-0-1.bmp\",\"ta:kata\",\"Left\",\"37\",\"1\",\"1\",\"7\",\"P\",\"C\",\"1\"
\"\",\"\",\"approach-retreat\",\"150\",\"1040361\",\"0.0-150.0\",\"\",\"\",\"3-3\",\"4109\",\"38\",\"1\",\"Testing\",\"Stims/Figures/85-C-20-2.bmp\",\"takata\",\"Down\",\"38\",\"1\",\"2\",\"7\",\"P\",\"C\",\"2\"
\"\",\"\",\"approach-retreat\",\"151\",\"1046029\",\"0.0-151.0\",\"\",\"\",\"3-3\",\"4157\",\"40\",\"1\",\"Testing\",\"Stims/Figures/19-C-20-4.bmp\",\"mala:la\",\"Up\",\"40\",\"1\",\"3\",\"7\",\"S\",\"C\",\"3\"
\"\",\"\",\"approach-retreat\",\"152\",\"1051739\",\"0.0-152.0\",\"\",\"\",\"3-3\",\"4195\",\"37\",\"1\",\"Testing\",\"Stims/Figures/139-C-20-2.bmp\",\"paka:ka\",\"Right\",\"37\",\"1\",\"4\",\"7\",\"P\",\"C\",\"4\"
\"\",\"\",\"approach-retreat\",\"153\",\"1057406\",\"0.0-153.0\",\"\",\"\",\"3-3\",\"4154\",\"39\",\"1\",\"Testing\",\"Stims/Figures/74-J-10-4.bmp\",\"na:la:la\",\"Right\",\"39\",\"1\",\"5\",\"7\",\"S\",\"C\",\"5\"
\"\",\"\",\"approach-retreat\",\"154\",\"1062928\",\"0.0-154.0\",\"\",\"\",\"3-3\",\"4010\",\"40\",\"1\",\"Testing\",\"Stims/Figures/44-J-10-3.bmp\",\"mama:na\",\"Down\",\"40\",\"1\",\"6\",\"7\",\"S\",\"C\",\"6\"
\"\",\"\",\"approach-retreat\",\"155\",\"1068526\",\"0.0-155.0\",\"\",\"\",\"3-3\",\"4088\",\"40\",\"1\",\"Testing\",\"Stims/Figures/84-J-0-2.bmp\",\"pa:kata\",\"Down\",\"40\",\"1\",\"7\",\"7\",\"P\",\"C\",\"7\"
\"\",\"\",\"approach-retreat\",\"156\",\"1074498\",\"0.0-156.0\",\"\",\"\",\"3-3\",\"4461\",\"39\",\"1\",\"Testing\",\"Stims/Figures/128-J-10-3.bmp\",\"na:mana\",\"Right\",\"39\",\"1\",\"8\",\"7\",\"S\",\"C\",\"8\"
\"\",\"\",\"approach-retreat\",\"157\",\"1080145\",\"0.0-157.0\",\"\",\"\",\"3-3\",\"4133\",\"38\",\"1\",\"Testing\",\"Stims/Figures/86-C-30-1.bmp\",\"takaka\",\"Down\",\"38\",\"1\",\"9\",\"7\",\"P\",\"C\",\"9\"
\"\",\"\",\"approach-retreat\",\"158\",\"1085625\",\"0.0-158.0\",\"\",\"\",\"3-3\",\"3975\",\"39\",\"1\",\"Testing\",\"Stims/Figures/74-C-20-4.bmp\",\"nala:na\",\"Left\",\"39\",\"1\",\"10\",\"7\",\"S\",\"C\",\"10\"
\"\",\"\",\"approach-retreat\",\"159\",\"1091672\",\"0.0-159.0\",\"\",\"\",\"3-3\",\"4539\",\"38\",\"1\",\"Testing\",\"Stims/Figures/144-J-10-3.bmp\",\"na:la:na\",\"Up\",\"38\",\"1\",\"11\",\"7\",\"S\",\"C\",\"11\"
\"\",\"\",\"approach-retreat\",\"160\",\"1097867\",\"0.0-160.0\",\"\",\"\",\"3-3\",\"4688\",\"40\",\"1\",\"Testing\",\"Stims/Figures/139-J-0-2.bmp\",\"pa:pa:ta\",\"Down\",\"40\",\"1\",\"12\",\"7\",\"P\",\"C\",\"12\"
\"\",\"\",\"approach-retreat\",\"161\",\"1103710\",\"0.0-161.0\",\"\",\"\",\"3-3\",\"4336\",\"38\",\"1\",\"Testing\",\"Stims/Figures/87-J-10-4.bmp\",\"malana\",\"Up\",\"38\",\"1\",\"13\",\"7\",\"S\",\"C\",\"13\"
\"\",\"\",\"approach-retreat\",\"162\",\"1109350\",\"0.0-162.0\",\"\",\"\",\"3-3\",\"4124\",\"39\",\"0\",\"Testing\",\"Stims/Figures/84-C-20-2.bmp\",\"papata\",\"Right\",\"37\",\"1\",\"14\",\"7\",\"P\",\"C\",\"14\"
\"\",\"\",\"approach-retreat\",\"163\",\"1115339\",\"0.0-163.0\",\"\",\"\",\"3-3\",\"4474\",\"39\",\"1\",\"Testing\",\"Stims/Figures/57-C-30-1.bmp\",\"tapa:ka\",\"Left\",\"39\",\"1\",\"15\",\"7\",\"P\",\"C\",\"15\"
\"\",\"\",\"approach-retreat\",\"164\",\"1121007\",\"0.0-164.0\",\"\",\"\",\"3-3\",\"4147\",\"40\",\"1\",\"Testing\",\"Stims/Figures/44-C-30-3.bmp\",\"mamana\",\"Up\",\"40\",\"1\",\"16\",\"7\",\"S\",\"C\",\"16\"
\"\",\"\",\"approach-retreat\",\"165\",\"1126457\",\"0.0-165.0\",\"\",\"\",\"3-3\",\"3932\",\"39\",\"1\",\"Testing\",\"Stims/Figures/144-C-30-3.bmp\",\"ma:la:na\",\"Left\",\"39\",\"1\",\"17\",\"7\",\"S\",\"C\",\"17\"
\"\",\"\",\"approach-retreat\",\"166\",\"1132238\",\"0.0-166.0\",\"\",\"\",\"3-3\",\"4269\",\"39\",\"1\",\"Testing\",\"Stims/Figures/57-J-0-1.bmp\",\"tapaka\",\"Right\",\"39\",\"1\",\"18\",\"7\",\"P\",\"C\",\"18\"
\"\",\"\",\"approach-retreat\",\"167\",\"1137964\",\"0.0-167.0\",\"\",\"\",\"3-3\",\"4206\",\"38\",\"1\",\"Testing\",\"Stims/Figures/19-J-10-4.bmp\",\"namana\",\"Up\",\"38\",\"1\",\"19\",\"7\",\"S\",\"C\",\"19\"
\"\",\"\",\"approach-retreat\",\"168\",\"1143611\",\"0.0-168.0\",\"\",\"\",\"3-3\",\"4140\",\"39\",\"1\",\"Testing\",\"Stims/Figures/87-C-20-4.bmp\",\"na:ma:na\",\"Left\",\"39\",\"1\",\"20\",\"7\",\"S\",\"C\",\"20\"
\"\",\"\",\"approach-retreat\",\"169\",\"1149000\",\"0.0-169.0\",\"\",\"\",\"3-3\",\"3882\",\"39\",\"1\",\"Testing\",\"Stims/Figures/71-C-30-1.bmp\",\"pakata\",\"Left\",\"39\",\"1\",\"21\",\"7\",\"P\",\"C\",\"21\"
\"\",\"\",\"approach-retreat\",\"170\",\"1155759\",\"0.0-170.0\",\"\",\"\",\"3-3\",\"5248\",\"37\",\"1\",\"Testing\",\"Stims/Figures/128-C-30-3.bmp\",\"ma:ma:la\",\"Right\",\"37\",\"1\",\"22\",\"7\",\"S\",\"C\",\"22\"
\"\",\"\",\"approach-retreat\",\"171\",\"1163887\",\"0.0-171.0\",\"\",\"\",\"3-3\",\"6621\",\"40\",\"1\",\"Testing\",\"Stims/Figures/86-J-0-1.bmp\",\"papa:ta\",\"Down\",\"40\",\"1\",\"23\",\"7\",\"P\",\"C\",\"23\"
\"\",\"\",\"approach-retreat\",\"172\",\"1170476\",\"0.0-172.0\",\"\",\"\",\"3-3\",\"5076\",\"38\",\"1\",\"Testing\",\"Stims/Figures/85-J-0-2.bmp\",\"ta:paka\",\"Up\",\"38\",\"1\",\"24\",\"7\",\"P\",\"C\",\"24\"
\"\",\"\",\"approach-retreat\",\"173\",\"1176788\",\"0.0-173.0\",\"\",\"\",\"3-3\",\"4800\",\"37\",\"1\",\"Testing\",\"Stims/Figures/19-C-20-4.bmp\",\"mala:la\",\"Right\",\"37\",\"2\",\"1\",\"7\",\"S\",\"C\",\"25\"
\"\",\"\",\"approach-retreat\",\"174\",\"1182520\",\"0.0-174.0\",\"\",\"\",\"3-3\",\"4222\",\"38\",\"1\",\"Testing\",\"Stims/Figures/85-C-20-2.bmp\",\"takata\",\"Down\",\"38\",\"2\",\"2\",\"7\",\"P\",\"C\",\"26\"
\"\",\"\",\"approach-retreat\",\"175\",\"1188924\",\"0.0-175.0\",\"\",\"\",\"3-3\",\"4892\",\"40\",\"1\",\"Testing\",\"Stims/Figures/87-J-10-4.bmp\",\"malana\",\"Down\",\"40\",\"2\",\"3\",\"7\",\"S\",\"C\",\"27\"
\"\",\"\",\"approach-retreat\",\"176\",\"1194669\",\"0.0-176.0\",\"\",\"\",\"3-3\",\"4228\",\"40\",\"1\",\"Testing\",\"Stims/Figures/84-C-20-2.bmp\",\"papata\",\"Up\",\"40\",\"2\",\"4\",\"7\",\"P\",\"C\",\"28\"
\"\",\"\",\"approach-retreat\",\"177\",\"1200521\",\"0.0-177.0\",\"\",\"\",\"3-3\",\"4338\",\"38\",\"1\",\"Testing\",\"Stims/Figures/44-C-30-3.bmp\",\"mamana\",\"Down\",\"38\",\"2\",\"5\",\"7\",\"S\",\"C\",\"29\"
\"\",\"\",\"approach-retreat\",\"178\",\"1206173\",\"0.0-178.0\",\"\",\"\",\"3-3\",\"4146\",\"37\",\"1\",\"Testing\",\"Stims/Figures/19-J-10-4.bmp\",\"namana\",\"Left\",\"37\",\"2\",\"6\",\"7\",\"S\",\"C\",\"30\"
\"\",\"\",\"approach-retreat\",\"179\",\"1211887\",\"0.0-179.0\",\"\",\"\",\"3-3\",\"4207\",\"40\",\"1\",\"Testing\",\"Stims/Figures/85-J-0-2.bmp\",\"ta:paka\",\"Down\",\"40\",\"2\",\"7\",\"7\",\"P\",\"C\",\"31\"
\"\",\"\",\"approach-retreat\",\"180\",\"1217497\",\"0.0-180.0\",\"\",\"\",\"3-3\",\"4102\",\"37\",\"1\",\"Testing\",\"Stims/Figures/139-J-0-2.bmp\",\"pa:pa:ta\",\"Left\",\"37\",\"2\",\"8\",\"7\",\"P\",\"C\",\"32\"
\"\",\"\",\"approach-retreat\",\"181\",\"1223138\",\"0.0-181.0\",\"\",\"\",\"3-3\",\"4129\",\"38\",\"1\",\"Testing\",\"Stims/Figures/86-C-30-1.bmp\",\"takaka\",\"Down\",\"38\",\"2\",\"9\",\"7\",\"P\",\"C\",\"33\"
\"\",\"\",\"approach-retreat\",\"182\",\"1229371\",\"0.0-182.0\",\"\",\"\",\"3-3\",\"4723\",\"37\",\"1\",\"Testing\",\"Stims/Figures/44-J-10-3.bmp\",\"mama:na\",\"Left\",\"37\",\"2\",\"10\",\"7\",\"S\",\"C\",\"34\"
\"\",\"\",\"approach-retreat\",\"183\",\"1235361\",\"0.0-183.0\",\"\",\"\",\"3-3\",\"4478\",\"40\",\"1\",\"Testing\",\"Stims/Figures/57-C-30-1.bmp\",\"tapa:ka\",\"Up\",\"40\",\"2\",\"11\",\"7\",\"P\",\"C\",\"35\"
\"\",\"\",\"approach-retreat\",\"184\",\"1240930\",\"0.0-184.0\",\"\",\"\",\"3-3\",\"4059\",\"39\",\"1\",\"Testing\",\"Stims/Figures/71-J-0-1.bmp\",\"ta:kata\",\"Right\",\"39\",\"2\",\"12\",\"7\",\"P\",\"C\",\"36\"
\"\",\"\",\"approach-retreat\",\"185\",\"1246528\",\"0.0-185.0\",\"\",\"\",\"3-3\",\"4086\",\"38\",\"1\",\"Testing\",\"Stims/Figures/128-C-30-3.bmp\",\"ma:ma:la\",\"Down\",\"38\",\"2\",\"13\",\"7\",\"S\",\"C\",\"37\"
\"\",\"\",\"approach-retreat\",\"186\",\"1253176\",\"0.0-186.0\",\"\",\"\",\"3-3\",\"5136\",\"38\",\"1\",\"Testing\",\"Stims/Figures/84-J-0-2.bmp\",\"pa:kata\",\"Up\",\"38\",\"2\",\"14\",\"7\",\"P\",\"C\",\"38\"
\"\",\"\",\"approach-retreat\",\"187\",\"1259759\",\"0.0-187.0\",\"\",\"\",\"3-3\",\"5070\",\"39\",\"1\",\"Testing\",\"Stims/Figures/57-J-0-1.bmp\",\"tapaka\",\"Right\",\"39\",\"2\",\"15\",\"7\",\"P\",\"C\",\"39\"
\"\",\"\",\"approach-retreat\",\"188\",\"1265405\",\"0.0-188.0\",\"\",\"\",\"3-3\",\"4138\",\"37\",\"1\",\"Testing\",\"Stims/Figures/74-J-10-4.bmp\",\"na:la:la\",\"Left\",\"37\",\"2\",\"16\",\"7\",\"S\",\"C\",\"40\"
\"\",\"\",\"approach-retreat\",\"189\",\"1270950\",\"0.0-189.0\",\"\",\"\",\"3-3\",\"4037\",\"37\",\"1\",\"Testing\",\"Stims/Figures/74-C-20-4.bmp\",\"nala:na\",\"Right\",\"37\",\"2\",\"17\",\"7\",\"S\",\"C\",\"41\"
\"\",\"\",\"approach-retreat\",\"190\",\"1276588\",\"0.0-190.0\",\"\",\"\",\"3-3\",\"4131\",\"37\",\"1\",\"Testing\",\"Stims/Figures/71-C-30-1.bmp\",\"pakata\",\"Right\",\"37\",\"2\",\"18\",\"7\",\"P\",\"C\",\"42\"
\"\",\"\",\"approach-retreat\",\"191\",\"1282203\",\"0.0-191.0\",\"\",\"\",\"3-3\",\"4102\",\"38\",\"1\",\"Testing\",\"Stims/Figures/144-J-10-3.bmp\",\"na:la:na\",\"Up\",\"38\",\"2\",\"19\",\"7\",\"S\",\"C\",\"43\"
\"\",\"\",\"approach-retreat\",\"192\",\"1287803\",\"0.0-192.0\",\"\",\"\",\"3-3\",\"4090\",\"39\",\"1\",\"Testing\",\"Stims/Figures/87-C-20-4.bmp\",\"na:ma:na\",\"Left\",\"39\",\"2\",\"20\",\"7\",\"S\",\"C\",\"44\"
\"\",\"\",\"approach-retreat\",\"193\",\"1293482\",\"0.0-193.0\",\"\",\"\",\"3-3\",\"4164\",\"37\",\"1\",\"Testing\",\"Stims/Figures/139-C-20-2.bmp\",\"paka:ka\",\"Right\",\"37\",\"2\",\"21\",\"7\",\"P\",\"C\",\"45\"
\"\",\"\",\"approach-retreat\",\"194\",\"1299069\",\"0.0-194.0\",\"\",\"\",\"3-3\",\"4075\",\"37\",\"1\",\"Testing\",\"Stims/Figures/86-J-0-1.bmp\",\"papa:ta\",\"Left\",\"37\",\"2\",\"22\",\"7\",\"P\",\"C\",\"46\"
\"\",\"\",\"approach-retreat\",\"195\",\"1304607\",\"0.0-195.0\",\"\",\"\",\"3-3\",\"4025\",\"40\",\"1\",\"Testing\",\"Stims/Figures/144-C-30-3.bmp\",\"ma:la:na\",\"Up\",\"40\",\"2\",\"23\",\"7\",\"S\",\"C\",\"47\"
\"\",\"\",\"approach-retreat\",\"196\",\"1310224\",\"0.0-196.0\",\"\",\"\",\"3-3\",\"4106\",\"40\",\"0\",\"Testing\",\"Stims/Figures/128-J-10-3.bmp\",\"na:mana\",\"Up\",\"38\",\"2\",\"24\",\"7\",\"S\",\"C\",\"48\"
\"\",\"\",\"approach-retreat\",\"197\",\"1315794\",\"0.0-197.0\",\"\",\"\",\"3-3\",\"4059\",\"37\",\"1\",\"Testing\",\"Stims/Figures/71-J-0-1.bmp\",\"ta:kata\",\"Left\",\"37\",\"3\",\"1\",\"7\",\"P\",\"C\",\"49\"
\"\",\"\",\"approach-retreat\",\"198\",\"1322434\",\"0.0-198.0\",\"\",\"\",\"3-3\",\"5131\",\"37\",\"1\",\"Testing\",\"Stims/Figures/84-C-20-2.bmp\",\"papata\",\"Right\",\"37\",\"3\",\"2\",\"7\",\"P\",\"C\",\"50\"
\"\",\"\",\"approach-retreat\",\"199\",\"1328055\",\"0.0-199.0\",\"\",\"\",\"3-3\",\"4113\",\"39\",\"1\",\"Testing\",\"Stims/Figures/57-J-0-1.bmp\",\"tapaka\",\"Right\",\"39\",\"3\",\"3\",\"7\",\"P\",\"C\",\"51\"
\"\",\"\",\"approach-retreat\",\"200\",\"1333763\",\"0.0-200.0\",\"\",\"\",\"3-3\",\"4200\",\"37\",\"1\",\"Testing\",\"Stims/Figures/87-C-20-4.bmp\",\"na:ma:na\",\"Right\",\"37\",\"3\",\"4\",\"7\",\"S\",\"C\",\"52\"
\"\",\"\",\"approach-retreat\",\"201\",\"1339489\",\"0.0-201.0\",\"\",\"\",\"3-3\",\"4219\",\"40\",\"1\",\"Testing\",\"Stims/Figures/85-J-0-2.bmp\",\"ta:paka\",\"Down\",\"40\",\"3\",\"5\",\"7\",\"P\",\"C\",\"53\"
\"\",\"\",\"approach-retreat\",\"202\",\"1345155\",\"0.0-202.0\",\"\",\"\",\"3-3\",\"4159\",\"38\",\"1\",\"Testing\",\"Stims/Figures/144-J-10-3.bmp\",\"na:la:na\",\"Up\",\"38\",\"3\",\"6\",\"7\",\"S\",\"C\",\"54\"
\"\",\"\",\"approach-retreat\",\"203\",\"1350785\",\"0.0-203.0\",\"\",\"\",\"3-3\",\"4118\",\"37\",\"1\",\"Testing\",\"Stims/Figures/57-C-30-1.bmp\",\"tapa:ka\",\"Right\",\"37\",\"3\",\"7\",\"7\",\"P\",\"C\",\"55\"
\"\",\"\",\"approach-retreat\",\"204\",\"1356528\",\"0.0-204.0\",\"\",\"\",\"3-3\",\"4232\",\"38\",\"1\",\"Testing\",\"Stims/Figures/86-C-30-1.bmp\",\"takaka\",\"Down\",\"38\",\"3\",\"8\",\"7\",\"P\",\"C\",\"56\"
\"\",\"\",\"approach-retreat\",\"205\",\"1362776\",\"0.0-205.0\",\"\",\"\",\"3-3\",\"4733\",\"38\",\"1\",\"Testing\",\"Stims/Figures/86-J-0-1.bmp\",\"papa:ta\",\"Up\",\"38\",\"3\",\"9\",\"7\",\"P\",\"C\",\"57\"
\"\",\"\",\"approach-retreat\",\"206\",\"1368378\",\"0.0-206.0\",\"\",\"\",\"3-3\",\"4088\",\"38\",\"1\",\"Testing\",\"Stims/Figures/139-C-20-2.bmp\",\"paka:ka\",\"Down\",\"38\",\"3\",\"10\",\"7\",\"P\",\"C\",\"58\"
\"\",\"\",\"approach-retreat\",\"207\",\"1373960\",\"0.0-207.0\",\"\",\"\",\"3-3\",\"4073\",\"39\",\"1\",\"Testing\",\"Stims/Figures/74-C-20-4.bmp\",\"nala:na\",\"Left\",\"39\",\"3\",\"11\",\"7\",\"S\",\"C\",\"59\"
\"\",\"\",\"approach-retreat\",\"208\",\"1379799\",\"0.0-208.0\",\"\",\"\",\"3-3\",\"4324\",\"38\",\"1\",\"Testing\",\"Stims/Figures/19-C-20-4.bmp\",\"mala:la\",\"Down\",\"38\",\"3\",\"12\",\"7\",\"S\",\"C\",\"60\"
\"\",\"\",\"approach-retreat\",\"209\",\"1385324\",\"0.0-209.0\",\"\",\"\",\"3-3\",\"4017\",\"39\",\"1\",\"Testing\",\"Stims/Figures/85-C-20-2.bmp\",\"takata\",\"Left\",\"39\",\"3\",\"13\",\"7\",\"P\",\"C\",\"61\"
\"\",\"\",\"approach-retreat\",\"210\",\"1390871\",\"0.0-210.0\",\"\",\"\",\"3-3\",\"4040\",\"37\",\"1\",\"Testing\",\"Stims/Figures/19-J-10-4.bmp\",\"namana\",\"Left\",\"37\",\"3\",\"14\",\"7\",\"S\",\"C\",\"62\"
\"\",\"\",\"approach-retreat\",\"211\",\"1396508\",\"0.0-211.0\",\"\",\"\",\"3-3\",\"4129\",\"37\",\"1\",\"Testing\",\"Stims/Figures/87-J-10-4.bmp\",\"malana\",\"Left\",\"37\",\"3\",\"15\",\"7\",\"S\",\"C\",\"63\"
\"\",\"\",\"approach-retreat\",\"212\",\"1402218\",\"0.0-212.0\",\"\",\"\",\"3-3\",\"4197\",\"38\",\"1\",\"Testing\",\"Stims/Figures/74-J-10-4.bmp\",\"na:la:la\",\"Up\",\"38\",\"3\",\"16\",\"7\",\"S\",\"C\",\"64\"
\"\",\"\",\"approach-retreat\",\"213\",\"1408079\",\"0.0-213.0\",\"\",\"\",\"3-3\",\"4347\",\"38\",\"1\",\"Testing\",\"Stims/Figures/128-J-10-3.bmp\",\"na:mana\",\"Up\",\"38\",\"3\",\"17\",\"7\",\"S\",\"C\",\"65\"
\"\",\"\",\"approach-retreat\",\"214\",\"1413876\",\"0.0-214.0\",\"\",\"\",\"3-3\",\"4283\",\"39\",\"1\",\"Testing\",\"Stims/Figures/44-J-10-3.bmp\",\"mama:na\",\"Right\",\"39\",\"3\",\"18\",\"7\",\"S\",\"C\",\"66\"
\"\",\"\",\"approach-retreat\",\"215\",\"1419551\",\"0.0-215.0\",\"\",\"\",\"3-3\",\"4162\",\"39\",\"1\",\"Testing\",\"Stims/Figures/84-J-0-2.bmp\",\"pa:kata\",\"Right\",\"39\",\"3\",\"19\",\"7\",\"P\",\"C\",\"67\"
\"\",\"\",\"approach-retreat\",\"216\",\"1425917\",\"0.0-216.0\",\"\",\"\",\"3-3\",\"4852\",\"40\",\"0\",\"Testing\",\"Stims/Figures/144-C-30-3.bmp\",\"ma:la:na\",\"Down\",\"38\",\"3\",\"20\",\"7\",\"S\",\"C\",\"68\"
\"\",\"\",\"approach-retreat\",\"217\",\"1431679\",\"0.0-217.0\",\"\",\"\",\"3-3\",\"4249\",\"40\",\"1\",\"Testing\",\"Stims/Figures/44-C-30-3.bmp\",\"mamana\",\"Up\",\"40\",\"3\",\"21\",\"7\",\"S\",\"C\",\"69\"
\"\",\"\",\"approach-retreat\",\"218\",\"1437324\",\"0.0-218.0\",\"\",\"\",\"3-3\",\"4130\",\"39\",\"1\",\"Testing\",\"Stims/Figures/128-C-30-3.bmp\",\"ma:ma:la\",\"Left\",\"39\",\"3\",\"22\",\"7\",\"S\",\"C\",\"70\"
\"\",\"\",\"approach-retreat\",\"219\",\"1442941\",\"0.0-219.0\",\"\",\"\",\"3-3\",\"4110\",\"40\",\"1\",\"Testing\",\"Stims/Figures/71-C-30-1.bmp\",\"pakata\",\"Up\",\"40\",\"3\",\"23\",\"7\",\"P\",\"C\",\"71\"
\"\",\"\",\"approach-retreat\",\"220\",\"1448649\",\"0.0-220.0\",\"\",\"\",\"3-3\",\"4201\",\"40\",\"1\",\"Testing\",\"Stims/Figures/139-J-0-2.bmp\",\"pa:pa:ta\",\"Down\",\"40\",\"3\",\"24\",\"7\",\"P\",\"C\",\"72\"
\"\",\"\",\"approach-retreat\",\"221\",\"1454336\",\"0.0-221.0\",\"\",\"\",\"3-3\",\"4181\",\"39\",\"1\",\"Testing\",\"Stims/Figures/84-C-20-2.bmp\",\"papata\",\"Left\",\"39\",\"4\",\"1\",\"7\",\"P\",\"C\",\"73\"
\"\",\"\",\"approach-retreat\",\"222\",\"1460716\",\"0.0-222.0\",\"\",\"\",\"3-3\",\"4869\",\"38\",\"1\",\"Testing\",\"Stims/Figures/84-J-0-2.bmp\",\"pa:kata\",\"Up\",\"38\",\"4\",\"2\",\"7\",\"P\",\"C\",\"74\"
\"\",\"\",\"approach-retreat\",\"223\",\"1466245\",\"0.0-223.0\",\"\",\"\",\"3-3\",\"4020\",\"39\",\"1\",\"Testing\",\"Stims/Figures/139-J-0-2.bmp\",\"pa:pa:ta\",\"Right\",\"39\",\"4\",\"3\",\"7\",\"P\",\"C\",\"75\"
\"\",\"\",\"approach-retreat\",\"224\",\"1471877\",\"0.0-224.0\",\"\",\"\",\"3-3\",\"4120\",\"39\",\"1\",\"Testing\",\"Stims/Figures/86-C-30-1.bmp\",\"takaka\",\"Left\",\"39\",\"4\",\"4\",\"7\",\"P\",\"C\",\"76\"
\"\",\"\",\"approach-retreat\",\"225\",\"1477642\",\"0.0-225.0\",\"\",\"\",\"3-3\",\"4253\",\"37\",\"1\",\"Testing\",\"Stims/Figures/85-J-0-2.bmp\",\"ta:paka\",\"Left\",\"37\",\"4\",\"5\",\"7\",\"P\",\"C\",\"77\"
\"\",\"\",\"approach-retreat\",\"226\",\"1483250\",\"0.0-226.0\",\"\",\"\",\"3-3\",\"4096\",\"39\",\"1\",\"Testing\",\"Stims/Figures/71-C-30-1.bmp\",\"pakata\",\"Left\",\"39\",\"4\",\"6\",\"7\",\"P\",\"C\",\"78\"
\"\",\"\",\"approach-retreat\",\"227\",\"1488977\",\"0.0-227.0\",\"\",\"\",\"3-3\",\"4214\",\"40\",\"1\",\"Testing\",\"Stims/Figures/71-J-0-1.bmp\",\"ta:kata\",\"Down\",\"40\",\"4\",\"7\",\"7\",\"P\",\"C\",\"79\"
\"\",\"\",\"approach-retreat\",\"228\",\"1494695\",\"0.0-228.0\",\"\",\"\",\"3-3\",\"4206\",\"37\",\"1\",\"Testing\",\"Stims/Figures/74-J-10-4.bmp\",\"na:la:la\",\"Left\",\"37\",\"4\",\"8\",\"7\",\"S\",\"C\",\"80\"
\"\",\"\",\"approach-retreat\",\"229\",\"1500315\",\"0.0-229.0\",\"\",\"\",\"3-3\",\"4113\",\"38\",\"1\",\"Testing\",\"Stims/Figures/44-C-30-3.bmp\",\"mamana\",\"Down\",\"38\",\"4\",\"9\",\"7\",\"S\",\"C\",\"81\"
\"\",\"\",\"approach-retreat\",\"230\",\"1505947\",\"0.0-230.0\",\"\",\"\",\"3-3\",\"4124\",\"38\",\"1\",\"Testing\",\"Stims/Figures/86-J-0-1.bmp\",\"papa:ta\",\"Up\",\"38\",\"4\",\"10\",\"7\",\"P\",\"C\",\"82\"
\"\",\"\",\"approach-retreat\",\"231\",\"1511618\",\"0.0-231.0\",\"\",\"\",\"3-3\",\"4164\",\"37\",\"1\",\"Testing\",\"Stims/Figures/57-J-0-1.bmp\",\"tapaka\",\"Left\",\"37\",\"4\",\"11\",\"7\",\"P\",\"C\",\"83\"
\"\",\"\",\"approach-retreat\",\"232\",\"1517367\",\"0.0-232.0\",\"\",\"\",\"3-3\",\"4241\",\"38\",\"1\",\"Testing\",\"Stims/Figures/144-C-30-3.bmp\",\"ma:la:na\",\"Down\",\"38\",\"4\",\"12\",\"7\",\"S\",\"C\",\"84\"
\"\",\"\",\"approach-retreat\",\"233\",\"1523659\",\"0.0-233.0\",\"\",\"\",\"3-3\",\"4771\",\"39\",\"1\",\"Testing\",\"Stims/Figures/144-J-10-3.bmp\",\"na:la:na\",\"Right\",\"39\",\"4\",\"13\",\"7\",\"S\",\"C\",\"85\"
\"\",\"\",\"approach-retreat\",\"234\",\"1529391\",\"0.0-234.0\",\"\",\"\",\"3-3\",\"4216\",\"38\",\"1\",\"Testing\",\"Stims/Figures/128-J-10-3.bmp\",\"na:mana\",\"Up\",\"38\",\"4\",\"14\",\"7\",\"S\",\"C\",\"86\"
\"\",\"\",\"approach-retreat\",\"235\",\"1535562\",\"0.0-235.0\",\"\",\"\",\"3-3\",\"4658\",\"38\",\"1\",\"Testing\",\"Stims/Figures/19-J-10-4.bmp\",\"namana\",\"Up\",\"38\",\"4\",\"15\",\"7\",\"S\",\"C\",\"87\"
\"\",\"\",\"approach-retreat\",\"236\",\"1541270\",\"0.0-236.0\",\"\",\"\",\"3-3\",\"4196\",\"37\",\"1\",\"Testing\",\"Stims/Figures/19-C-20-4.bmp\",\"mala:la\",\"Right\",\"37\",\"4\",\"16\",\"7\",\"S\",\"C\",\"88\"
\"\",\"\",\"approach-retreat\",\"237\",\"1546776\",\"0.0-237.0\",\"\",\"\",\"3-3\",\"3992\",\"37\",\"1\",\"Testing\",\"Stims/Figures/57-C-30-1.bmp\",\"tapa:ka\",\"Right\",\"37\",\"4\",\"17\",\"7\",\"P\",\"C\",\"89\"
\"\",\"\",\"approach-retreat\",\"238\",\"1552332\",\"0.0-238.0\",\"\",\"\",\"3-3\",\"4041\",\"38\",\"1\",\"Testing\",\"Stims/Figures/85-C-20-2.bmp\",\"takata\",\"Down\",\"38\",\"4\",\"18\",\"7\",\"P\",\"C\",\"90\"
\"\",\"\",\"approach-retreat\",\"239\",\"1557908\",\"0.0-239.0\",\"\",\"\",\"3-3\",\"4062\",\"37\",\"1\",\"Testing\",\"Stims/Figures/74-C-20-4.bmp\",\"nala:na\",\"Right\",\"37\",\"4\",\"19\",\"7\",\"S\",\"C\",\"91\"
\"\",\"\",\"approach-retreat\",\"240\",\"1563460\",\"0.0-240.0\",\"\",\"\",\"3-3\",\"4042\",\"38\",\"1\",\"Testing\",\"Stims/Figures/87-C-20-4.bmp\",\"na:ma:na\",\"Down\",\"38\",\"4\",\"20\",\"7\",\"S\",\"C\",\"92\"
\"\",\"\",\"approach-retreat\",\"241\",\"1569272\",\"0.0-241.0\",\"\",\"\",\"3-3\",\"4308\",\"38\",\"1\",\"Testing\",\"Stims/Figures/128-C-30-3.bmp\",\"ma:ma:la\",\"Down\",\"38\",\"4\",\"21\",\"7\",\"S\",\"C\",\"93\"
\"\",\"\",\"approach-retreat\",\"242\",\"1575107\",\"0.0-242.0\",\"\",\"\",\"3-3\",\"4326\",\"38\",\"1\",\"Testing\",\"Stims/Figures/87-J-10-4.bmp\",\"malana\",\"Up\",\"38\",\"4\",\"22\",\"7\",\"S\",\"C\",\"94\"
\"\",\"\",\"approach-retreat\",\"243\",\"1580588\",\"0.0-243.0\",\"\",\"\",\"3-3\",\"3972\",\"39\",\"1\",\"Testing\",\"Stims/Figures/44-J-10-3.bmp\",\"mama:na\",\"Right\",\"39\",\"4\",\"23\",\"7\",\"S\",\"C\",\"95\"
\"\",\"\",\"approach-retreat\",\"244\",\"1586299\",\"0.0-244.0\",\"\",\"\",\"3-3\",\"4200\",\"40\",\"1\",\"Testing\",\"Stims/Figures/139-C-20-2.bmp\",\"paka:ka\",\"Up\",\"40\",\"4\",\"24\",\"7\",\"P\",\"C\",\"96\"
\"15899\",\"\",\"survey-text\",\"245\",\"1602210\",\"0.0-245.0\",\"\",\"{\"\"Q0\"\":\"\"PS170030\"\"}\",\"\",\"\",\"\",\"\",\"\",\"\",\"\",\"\",\"\",\"\",\"\",\"\",\"\",\"\",\"\"
