\"rt\",\"key_press\",\"trial_type\",\"trial_index\",\"time_elapsed\",\"internal_node_id\",\"view_history\",\"responses\",\"Id\",\"Rt\",\"ResKeyCode\",\"ResCorr\",\"TrialType2\",\"Image\",\"Label\",\"Location\",\"CorrectResponse\",\"Block\",\"BlockTrial\",\"Condition\",\"LabelType\",\"Subcondition\",\"trialNum\"
\"172340\",\"32\",\"text\",\"0\",\"172671\",\"0.0-0.0-0.0\",\"\",\"\",\"\",\"\",\"\",\"\",\"\",\"\",\"\",\"\",\"\",\"\",\"\",\"\",\"\",\"\",\"\"
\"10058\",\"\",\"instructions\",\"1\",\"183524\",\"0.0-1.0\",\"[{\"\"page_index\"\":0,\"\"viewing_time\"\":9774}]\",\"\",\"\",\"\",\"\",\"\",\"\",\"\",\"\",\"\",\"\",\"\",\"\",\"\",\"\",\"\",\"\"
\"83313\",\"\",\"survey-multi-choice\",\"2\",\"277334\",\"0.0-2.0\",\"\",\"{\"\"Q0\"\":\"\"Da\"\",\"\"Q1\"\":\"\"Da\"\",\"\"Q2\"\":\"\"Da\"\",\"\"Q3\"\":\"\"Da\"\",\"\"Q4\"\":\"\"Da\"\",\"\"Q5\"\":\"\"Da\"\"}\",\"\",\"\",\"\",\"\",\"\",\"\",\"\",\"\",\"\",\"\",\"\",\"\",\"\",\"\",\"\"
\"\",\"\",\"bio\",\"3\",\"301848\",\"0.0-3.0\",\"\",\"{\"\"age\"\":\"\"19\"\",\"\"gender\"\":\"\"f\"\",\"\"specify\"\":\"\"\"\"}\",\"\",\"\",\"\",\"\",\"\",\"\",\"\",\"\",\"\",\"\",\"\",\"\",\"\",\"\",\"\"
\"\",\"\",\"approach-retreat\",\"4\",\"353340\",\"0.0-4.0\",\"\",\"\",\"3-2\",\"48437\",\"40\",\"0\",\"Training\",\"Stims/Figures/7-J-10-4.bmp\",\"va:fa:va\",\"Up\",\"38\",\"1\",\"1\",\"6A\",\"C1\",\"C\",\"1\"
\"\",\"\",\"approach-retreat\",\"5\",\"360975\",\"0.0-5.0\",\"\",\"\",\"3-2\",\"5727\",\"39\",\"0\",\"Training\",\"Stims/Figures/57-J-0-1.bmp\",\"vashasha\",\"Left\",\"37\",\"1\",\"2\",\"6A\",\"C1\",\"C\",\"2\"
\"\",\"\",\"approach-retreat\",\"6\",\"368937\",\"0.0-6.0\",\"\",\"\",\"3-2\",\"6434\",\"40\",\"1\",\"Training\",\"Stims/Figures/139-C-20-2.bmp\",\"sasa:za\",\"Up\",\"40\",\"1\",\"3\",\"6A\",\"C2\",\"C\",\"3\"
\"\",\"\",\"approach-retreat\",\"7\",\"375493\",\"0.0-7.0\",\"\",\"\",\"3-2\",\"5018\",\"37\",\"0\",\"Training\",\"Stims/Figures/74-J-10-4.bmp\",\"fafa:sha\",\"Right\",\"39\",\"1\",\"4\",\"6A\",\"C1\",\"C\",\"4\"
\"\",\"\",\"approach-retreat\",\"8\",\"382979\",\"0.0-8.0\",\"\",\"\",\"3-2\",\"5846\",\"39\",\"1\",\"Training\",\"Stims/Figures/7-C-20-4.bmp\",\"zasaza\",\"Left\",\"39\",\"1\",\"5\",\"6A\",\"C2\",\"C\",\"5\"
\"\",\"\",\"approach-retreat\",\"9\",\"389634\",\"0.0-9.0\",\"\",\"\",\"3-2\",\"5018\",\"40\",\"0\",\"Training\",\"Stims/Figures/86-C-30-1.bmp\",\"za:ha:za\",\"Down\",\"38\",\"1\",\"6\",\"6A\",\"C2\",\"C\",\"6\"
\"\",\"\",\"approach-retreat\",\"10\",\"396119\",\"0.0-10.0\",\"\",\"\",\"3-2\",\"4909\",\"37\",\"0\",\"Training\",\"Stims/Figures/44-J-10-3.bmp\",\"fa:fa:sha\",\"Right\",\"39\",\"1\",\"7\",\"6A\",\"C1\",\"C\",\"7\"
\"\",\"\",\"approach-retreat\",\"11\",\"404522\",\"0.0-11.0\",\"\",\"\",\"3-2\",\"5761\",\"37\",\"1\",\"Training\",\"Stims/Figures/144-J-10-3.bmp\",\"vafasha\",\"Left\",\"37\",\"1\",\"8\",\"6A\",\"C1\",\"C\",\"8\"
\"\",\"\",\"approach-retreat\",\"12\",\"413675\",\"0.0-12.0\",\"\",\"\",\"3-2\",\"7623\",\"37\",\"0\",\"Training\",\"Stims/Figures/86-J-0-1.bmp\",\"fa:fa:va\",\"Right\",\"39\",\"1\",\"9\",\"6A\",\"C1\",\"C\",\"9\"
\"\",\"\",\"approach-retreat\",\"13\",\"422019\",\"0.0-13.0\",\"\",\"\",\"3-2\",\"6466\",\"40\",\"1\",\"Training\",\"Stims/Figures/84-C-20-2.bmp\",\"za:sa:za\",\"Up\",\"40\",\"1\",\"10\",\"6A\",\"C2\",\"C\",\"10\"
\"\",\"\",\"approach-retreat\",\"14\",\"429820\",\"0.0-14.0\",\"\",\"\",\"3-2\",\"6283\",\"40\",\"1\",\"Training\",\"Stims/Figures/84-J-0-2.bmp\",\"fasha:sha\",\"Down\",\"40\",\"1\",\"11\",\"6A\",\"C1\",\"C\",\"11\"
\"\",\"\",\"approach-retreat\",\"15\",\"436702\",\"0.0-15.0\",\"\",\"\",\"3-2\",\"5364\",\"39\",\"0\",\"Training\",\"Stims/Figures/74-C-20-4.bmp\",\"zaha:za\",\"Right\",\"37\",\"1\",\"12\",\"6A\",\"C2\",\"C\",\"12\"
\"\",\"\",\"approach-retreat\",\"16\",\"455547\",\"0.0-16.0\",\"\",\"\",\"3-2\",\"17287\",\"40\",\"0\",\"Training\",\"Stims/Figures/57-C-30-1.bmp\",\"sa:haza\",\"Down\",\"38\",\"1\",\"13\",\"6A\",\"C2\",\"C\",\"13\"
\"\",\"\",\"approach-retreat\",\"17\",\"462981\",\"0.0-17.0\",\"\",\"\",\"3-2\",\"5769\",\"38\",\"1\",\"Training\",\"Stims/Figures/144-C-30-3.bmp\",\"sahaha\",\"Down\",\"38\",\"1\",\"14\",\"6A\",\"C2\",\"C\",\"14\"
\"\",\"\",\"approach-retreat\",\"18\",\"471299\",\"0.0-18.0\",\"\",\"\",\"3-2\",\"6792\",\"39\",\"0\",\"Training\",\"Stims/Figures/139-J-0-2.bmp\",\"fa:shava\",\"Left\",\"37\",\"1\",\"15\",\"6A\",\"C1\",\"C\",\"15\"
\"\",\"\",\"approach-retreat\",\"19\",\"484470\",\"0.0-19.0\",\"\",\"\",\"3-2\",\"11651\",\"38\",\"0\",\"Training\",\"Stims/Figures/44-C-30-3.bmp\",\"za:haza\",\"Up\",\"40\",\"1\",\"16\",\"6A\",\"C2\",\"C\",\"16\"
\"\",\"\",\"approach-retreat\",\"20\",\"493102\",\"0.0-20.0\",\"\",\"\",\"3-2\",\"7109\",\"39\",\"1\",\"Training\",\"Stims/Figures/74-C-20-4.bmp\",\"zaha:za\",\"Left\",\"39\",\"2\",\"1\",\"6A\",\"C2\",\"C\",\"17\"
\"\",\"\",\"approach-retreat\",\"21\",\"500160\",\"0.0-21.0\",\"\",\"\",\"3-2\",\"5531\",\"37\",\"1\",\"Training\",\"Stims/Figures/144-C-30-3.bmp\",\"sahaha\",\"Right\",\"37\",\"2\",\"2\",\"6A\",\"C2\",\"C\",\"18\"
\"\",\"\",\"approach-retreat\",\"22\",\"515207\",\"0.0-22.0\",\"\",\"\",\"3-2\",\"13446\",\"37\",\"1\",\"Training\",\"Stims/Figures/139-C-20-2.bmp\",\"sasa:za\",\"Right\",\"37\",\"2\",\"3\",\"6A\",\"C2\",\"C\",\"19\"
\"\",\"\",\"approach-retreat\",\"23\",\"523227\",\"0.0-23.0\",\"\",\"\",\"3-2\",\"6497\",\"40\",\"0\",\"Training\",\"Stims/Figures/7-C-20-4.bmp\",\"zasaza\",\"Down\",\"38\",\"2\",\"4\",\"6A\",\"C2\",\"C\",\"20\"
\"\",\"\",\"approach-retreat\",\"24\",\"529096\",\"0.0-24.0\",\"\",\"\",\"3-2\",\"4340\",\"37\",\"0\",\"Training\",\"Stims/Figures/139-J-0-2.bmp\",\"fa:shava\",\"Right\",\"39\",\"2\",\"5\",\"6A\",\"C1\",\"C\",\"21\"
\"\",\"\",\"approach-retreat\",\"25\",\"535250\",\"0.0-25.0\",\"\",\"\",\"3-2\",\"4634\",\"40\",\"0\",\"Training\",\"Stims/Figures/7-J-10-4.bmp\",\"va:fa:va\",\"Up\",\"38\",\"2\",\"6\",\"6A\",\"C1\",\"C\",\"22\"
\"\",\"\",\"approach-retreat\",\"26\",\"541587\",\"0.0-26.0\",\"\",\"\",\"3-2\",\"4814\",\"40\",\"1\",\"Training\",\"Stims/Figures/84-C-20-2.bmp\",\"za:sa:za\",\"Up\",\"40\",\"2\",\"7\",\"6A\",\"C2\",\"C\",\"23\"
\"\",\"\",\"approach-retreat\",\"27\",\"547825\",\"0.0-27.0\",\"\",\"\",\"3-2\",\"4711\",\"37\",\"0\",\"Training\",\"Stims/Figures/74-J-10-4.bmp\",\"fafa:sha\",\"Right\",\"39\",\"2\",\"8\",\"6A\",\"C1\",\"C\",\"24\"
\"\",\"\",\"approach-retreat\",\"28\",\"553532\",\"0.0-28.0\",\"\",\"\",\"3-2\",\"4184\",\"38\",\"0\",\"Training\",\"Stims/Figures/86-J-0-1.bmp\",\"fa:fa:va\",\"Down\",\"40\",\"2\",\"9\",\"6A\",\"C1\",\"C\",\"25\"
\"\",\"\",\"approach-retreat\",\"29\",\"559290\",\"0.0-29.0\",\"\",\"\",\"3-2\",\"4237\",\"39\",\"0\",\"Training\",\"Stims/Figures/144-J-10-3.bmp\",\"vafasha\",\"Left\",\"37\",\"2\",\"10\",\"6A\",\"C1\",\"C\",\"26\"
\"\",\"\",\"approach-retreat\",\"30\",\"565032\",\"0.0-30.0\",\"\",\"\",\"3-2\",\"4218\",\"38\",\"0\",\"Training\",\"Stims/Figures/57-C-30-1.bmp\",\"sa:haza\",\"Up\",\"40\",\"2\",\"11\",\"6A\",\"C2\",\"C\",\"27\"
\"\",\"\",\"approach-retreat\",\"31\",\"570724\",\"0.0-31.0\",\"\",\"\",\"3-2\",\"4166\",\"40\",\"1\",\"Training\",\"Stims/Figures/86-C-30-1.bmp\",\"za:ha:za\",\"Up\",\"40\",\"2\",\"12\",\"6A\",\"C2\",\"C\",\"28\"
\"\",\"\",\"approach-retreat\",\"32\",\"576517\",\"0.0-32.0\",\"\",\"\",\"3-2\",\"4258\",\"38\",\"0\",\"Training\",\"Stims/Figures/57-J-0-1.bmp\",\"vashasha\",\"Down\",\"40\",\"2\",\"13\",\"6A\",\"C1\",\"C\",\"29\"
\"\",\"\",\"approach-retreat\",\"33\",\"582276\",\"0.0-33.0\",\"\",\"\",\"3-2\",\"4242\",\"40\",\"0\",\"Training\",\"Stims/Figures/44-C-30-3.bmp\",\"za:haza\",\"Down\",\"38\",\"2\",\"14\",\"6A\",\"C2\",\"C\",\"30\"
\"\",\"\",\"approach-retreat\",\"34\",\"588146\",\"0.0-34.0\",\"\",\"\",\"3-2\",\"4353\",\"39\",\"0\",\"Training\",\"Stims/Figures/84-J-0-2.bmp\",\"fasha:sha\",\"Left\",\"37\",\"2\",\"15\",\"6A\",\"C1\",\"C\",\"31\"
\"\",\"\",\"approach-retreat\",\"35\",\"593725\",\"0.0-35.0\",\"\",\"\",\"3-2\",\"4060\",\"37\",\"1\",\"Training\",\"Stims/Figures/44-J-10-3.bmp\",\"fa:fa:sha\",\"Left\",\"37\",\"2\",\"16\",\"6A\",\"C1\",\"C\",\"32\"
\"\",\"\",\"approach-retreat\",\"36\",\"599471\",\"0.0-36.0\",\"\",\"\",\"3-2\",\"4218\",\"38\",\"1\",\"Training\",\"Stims/Figures/86-J-0-1.bmp\",\"fa:fa:va\",\"Up\",\"38\",\"3\",\"1\",\"6A\",\"C1\",\"C\",\"33\"
\"\",\"\",\"approach-retreat\",\"37\",\"604901\",\"0.0-37.0\",\"\",\"\",\"3-2\",\"3908\",\"38\",\"1\",\"Training\",\"Stims/Figures/44-J-10-3.bmp\",\"fa:fa:sha\",\"Up\",\"38\",\"3\",\"2\",\"6A\",\"C1\",\"C\",\"34\"
\"\",\"\",\"approach-retreat\",\"38\",\"610587\",\"0.0-38.0\",\"\",\"\",\"3-2\",\"4115\",\"38\",\"0\",\"Training\",\"Stims/Figures/86-C-30-1.bmp\",\"za:ha:za\",\"Up\",\"40\",\"3\",\"3\",\"6A\",\"C2\",\"C\",\"35\"
\"\",\"\",\"approach-retreat\",\"39\",\"616286\",\"0.0-39.0\",\"\",\"\",\"3-2\",\"4179\",\"37\",\"0\",\"Training\",\"Stims/Figures/144-J-10-3.bmp\",\"vafasha\",\"Right\",\"39\",\"3\",\"4\",\"6A\",\"C1\",\"C\",\"36\"
\"\",\"\",\"approach-retreat\",\"40\",\"623079\",\"0.0-40.0\",\"\",\"\",\"3-2\",\"5268\",\"37\",\"0\",\"Training\",\"Stims/Figures/74-J-10-4.bmp\",\"fafa:sha\",\"Right\",\"39\",\"3\",\"5\",\"6A\",\"C1\",\"C\",\"37\"
\"\",\"\",\"approach-retreat\",\"41\",\"629024\",\"0.0-41.0\",\"\",\"\",\"3-2\",\"4422\",\"40\",\"0\",\"Training\",\"Stims/Figures/84-C-20-2.bmp\",\"za:sa:za\",\"Down\",\"38\",\"3\",\"6\",\"6A\",\"C2\",\"C\",\"38\"
\"\",\"\",\"approach-retreat\",\"42\",\"635599\",\"0.0-42.0\",\"\",\"\",\"3-2\",\"5055\",\"39\",\"1\",\"Training\",\"Stims/Figures/139-C-20-2.bmp\",\"sasa:za\",\"Left\",\"39\",\"3\",\"7\",\"6A\",\"C2\",\"C\",\"39\"
\"\",\"\",\"approach-retreat\",\"43\",\"641243\",\"0.0-43.0\",\"\",\"\",\"3-2\",\"4118\",\"40\",\"1\",\"Training\",\"Stims/Figures/84-J-0-2.bmp\",\"fasha:sha\",\"Down\",\"40\",\"3\",\"8\",\"6A\",\"C1\",\"C\",\"40\"
\"\",\"\",\"approach-retreat\",\"44\",\"646872\",\"0.0-44.0\",\"\",\"\",\"3-2\",\"4102\",\"40\",\"1\",\"Training\",\"Stims/Figures/57-J-0-1.bmp\",\"vashasha\",\"Down\",\"40\",\"3\",\"9\",\"6A\",\"C1\",\"C\",\"41\"
\"\",\"\",\"approach-retreat\",\"45\",\"652446\",\"0.0-45.0\",\"\",\"\",\"3-2\",\"4048\",\"38\",\"0\",\"Training\",\"Stims/Figures/57-C-30-1.bmp\",\"sa:haza\",\"Up\",\"40\",\"3\",\"10\",\"6A\",\"C2\",\"C\",\"42\"
\"\",\"\",\"approach-retreat\",\"46\",\"658337\",\"0.0-46.0\",\"\",\"\",\"3-2\",\"4369\",\"37\",\"0\",\"Training\",\"Stims/Figures/7-J-10-4.bmp\",\"va:fa:va\",\"Right\",\"39\",\"3\",\"11\",\"6A\",\"C1\",\"C\",\"43\"
\"\",\"\",\"approach-retreat\",\"47\",\"664157\",\"0.0-47.0\",\"\",\"\",\"3-2\",\"4300\",\"38\",\"0\",\"Training\",\"Stims/Figures/139-J-0-2.bmp\",\"fa:shava\",\"Down\",\"40\",\"3\",\"12\",\"6A\",\"C1\",\"C\",\"44\"
\"\",\"\",\"approach-retreat\",\"48\",\"670935\",\"0.0-48.0\",\"\",\"\",\"3-2\",\"5256\",\"37\",\"0\",\"Training\",\"Stims/Figures/7-C-20-4.bmp\",\"zasaza\",\"Left\",\"39\",\"3\",\"13\",\"6A\",\"C2\",\"C\",\"45\"
\"\",\"\",\"approach-retreat\",\"49\",\"677319\",\"0.0-49.0\",\"\",\"\",\"3-2\",\"4862\",\"37\",\"1\",\"Training\",\"Stims/Figures/144-C-30-3.bmp\",\"sahaha\",\"Right\",\"37\",\"3\",\"14\",\"6A\",\"C2\",\"C\",\"46\"
\"\",\"\",\"approach-retreat\",\"50\",\"683036\",\"0.0-50.0\",\"\",\"\",\"3-2\",\"4194\",\"39\",\"1\",\"Training\",\"Stims/Figures/44-C-30-3.bmp\",\"za:haza\",\"Left\",\"39\",\"3\",\"15\",\"6A\",\"C2\",\"C\",\"47\"
\"\",\"\",\"approach-retreat\",\"51\",\"689710\",\"0.0-51.0\",\"\",\"\",\"3-2\",\"5149\",\"37\",\"0\",\"Training\",\"Stims/Figures/74-C-20-4.bmp\",\"zaha:za\",\"Left\",\"39\",\"3\",\"16\",\"6A\",\"C2\",\"C\",\"48\"
\"\",\"\",\"approach-retreat\",\"52\",\"695402\",\"0.0-52.0\",\"\",\"\",\"3-2\",\"4167\",\"38\",\"1\",\"Training\",\"Stims/Figures/74-C-20-4.bmp\",\"zaha:za\",\"Down\",\"38\",\"4\",\"1\",\"6A\",\"C2\",\"C\",\"49\"
\"\",\"\",\"approach-retreat\",\"53\",\"701077\",\"0.0-53.0\",\"\",\"\",\"3-2\",\"4152\",\"37\",\"0\",\"Training\",\"Stims/Figures/84-J-0-2.bmp\",\"fasha:sha\",\"Right\",\"39\",\"4\",\"2\",\"6A\",\"C1\",\"C\",\"50\"
\"\",\"\",\"approach-retreat\",\"54\",\"707293\",\"0.0-54.0\",\"\",\"\",\"3-2\",\"4693\",\"38\",\"1\",\"Training\",\"Stims/Figures/44-J-10-3.bmp\",\"fa:fa:sha\",\"Up\",\"38\",\"4\",\"3\",\"6A\",\"C1\",\"C\",\"51\"
\"\",\"\",\"approach-retreat\",\"55\",\"713464\",\"0.0-55.0\",\"\",\"\",\"3-2\",\"4646\",\"40\",\"0\",\"Training\",\"Stims/Figures/44-C-30-3.bmp\",\"za:haza\",\"Down\",\"38\",\"4\",\"4\",\"6A\",\"C2\",\"C\",\"52\"
\"\",\"\",\"approach-retreat\",\"56\",\"719454\",\"0.0-56.0\",\"\",\"\",\"3-2\",\"4467\",\"40\",\"1\",\"Training\",\"Stims/Figures/57-C-30-1.bmp\",\"sa:haza\",\"Up\",\"40\",\"4\",\"5\",\"6A\",\"C2\",\"C\",\"53\"
\"\",\"\",\"approach-retreat\",\"57\",\"725481\",\"0.0-57.0\",\"\",\"\",\"3-2\",\"4490\",\"40\",\"1\",\"Training\",\"Stims/Figures/144-C-30-3.bmp\",\"sahaha\",\"Up\",\"40\",\"4\",\"6\",\"6A\",\"C2\",\"C\",\"54\"
\"\",\"\",\"approach-retreat\",\"58\",\"731383\",\"0.0-58.0\",\"\",\"\",\"3-2\",\"4372\",\"38\",\"0\",\"Training\",\"Stims/Figures/57-J-0-1.bmp\",\"vashasha\",\"Down\",\"40\",\"4\",\"7\",\"6A\",\"C1\",\"C\",\"55\"
\"\",\"\",\"approach-retreat\",\"59\",\"737723\",\"0.0-59.0\",\"\",\"\",\"3-2\",\"4821\",\"37\",\"0\",\"Training\",\"Stims/Figures/86-C-30-1.bmp\",\"za:ha:za\",\"Left\",\"39\",\"4\",\"8\",\"6A\",\"C2\",\"C\",\"56\"
\"\",\"\",\"approach-retreat\",\"60\",\"744068\",\"0.0-60.0\",\"\",\"\",\"3-2\",\"4826\",\"39\",\"0\",\"Training\",\"Stims/Figures/86-J-0-1.bmp\",\"fa:fa:va\",\"Left\",\"37\",\"4\",\"9\",\"6A\",\"C1\",\"C\",\"57\"
\"\",\"\",\"approach-retreat\",\"61\",\"752321\",\"0.0-61.0\",\"\",\"\",\"3-2\",\"6732\",\"39\",\"1\",\"Training\",\"Stims/Figures/7-C-20-4.bmp\",\"zasaza\",\"Left\",\"39\",\"4\",\"10\",\"6A\",\"C2\",\"C\",\"58\"
\"\",\"\",\"approach-retreat\",\"62\",\"758347\",\"0.0-62.0\",\"\",\"\",\"3-2\",\"4505\",\"38\",\"1\",\"Training\",\"Stims/Figures/84-C-20-2.bmp\",\"za:sa:za\",\"Down\",\"38\",\"4\",\"11\",\"6A\",\"C2\",\"C\",\"59\"
\"\",\"\",\"approach-retreat\",\"63\",\"764812\",\"0.0-63.0\",\"\",\"\",\"3-2\",\"4941\",\"38\",\"1\",\"Training\",\"Stims/Figures/139-J-0-2.bmp\",\"fa:shava\",\"Up\",\"38\",\"4\",\"12\",\"6A\",\"C1\",\"C\",\"60\"
\"\",\"\",\"approach-retreat\",\"64\",\"770533\",\"0.0-64.0\",\"\",\"\",\"3-2\",\"4194\",\"39\",\"1\",\"Training\",\"Stims/Figures/144-J-10-3.bmp\",\"vafasha\",\"Right\",\"39\",\"4\",\"13\",\"6A\",\"C1\",\"C\",\"61\"
\"\",\"\",\"approach-retreat\",\"65\",\"778189\",\"0.0-65.0\",\"\",\"\",\"3-2\",\"6131\",\"39\",\"0\",\"Training\",\"Stims/Figures/139-C-20-2.bmp\",\"sasa:za\",\"Right\",\"37\",\"4\",\"14\",\"6A\",\"C2\",\"C\",\"62\"
\"\",\"\",\"approach-retreat\",\"66\",\"783762\",\"0.0-66.0\",\"\",\"\",\"3-2\",\"4043\",\"37\",\"0\",\"Training\",\"Stims/Figures/74-J-10-4.bmp\",\"fafa:sha\",\"Right\",\"39\",\"4\",\"15\",\"6A\",\"C1\",\"C\",\"63\"
\"\",\"\",\"approach-retreat\",\"67\",\"789574\",\"0.0-67.0\",\"\",\"\",\"3-2\",\"4290\",\"37\",\"1\",\"Training\",\"Stims/Figures/7-J-10-4.bmp\",\"va:fa:va\",\"Left\",\"37\",\"4\",\"16\",\"6A\",\"C1\",\"C\",\"64\"
\"\",\"\",\"approach-retreat\",\"68\",\"795312\",\"0.0-68.0\",\"\",\"\",\"3-2\",\"4215\",\"38\",\"0\",\"Training\",\"Stims/Figures/86-J-0-1.bmp\",\"fa:fa:va\",\"Down\",\"40\",\"5\",\"1\",\"6A\",\"C1\",\"C\",\"65\"
\"\",\"\",\"approach-retreat\",\"69\",\"802617\",\"0.0-69.0\",\"\",\"\",\"3-2\",\"5782\",\"39\",\"1\",\"Training\",\"Stims/Figures/84-J-0-2.bmp\",\"fasha:sha\",\"Right\",\"39\",\"5\",\"2\",\"6A\",\"C1\",\"C\",\"66\"
\"\",\"\",\"approach-retreat\",\"70\",\"809321\",\"0.0-70.0\",\"\",\"\",\"3-2\",\"5173\",\"37\",\"0\",\"Training\",\"Stims/Figures/7-C-20-4.bmp\",\"zasaza\",\"Left\",\"39\",\"5\",\"3\",\"6A\",\"C2\",\"C\",\"67\"
\"\",\"\",\"approach-retreat\",\"71\",\"818568\",\"0.0-71.0\",\"\",\"\",\"3-2\",\"7723\",\"39\",\"1\",\"Training\",\"Stims/Figures/74-J-10-4.bmp\",\"fafa:sha\",\"Right\",\"39\",\"5\",\"4\",\"6A\",\"C1\",\"C\",\"68\"
\"\",\"\",\"approach-retreat\",\"72\",\"824510\",\"0.0-72.0\",\"\",\"\",\"3-2\",\"4418\",\"40\",\"1\",\"Training\",\"Stims/Figures/144-J-10-3.bmp\",\"vafasha\",\"Down\",\"40\",\"5\",\"5\",\"6A\",\"C1\",\"C\",\"69\"
\"\",\"\",\"approach-retreat\",\"73\",\"832869\",\"0.0-73.0\",\"\",\"\",\"3-2\",\"6835\",\"38\",\"0\",\"Training\",\"Stims/Figures/44-J-10-3.bmp\",\"fa:fa:sha\",\"Down\",\"40\",\"5\",\"6\",\"6A\",\"C1\",\"C\",\"70\"
\"\",\"\",\"approach-retreat\",\"74\",\"839257\",\"0.0-74.0\",\"\",\"\",\"3-2\",\"4865\",\"40\",\"1\",\"Training\",\"Stims/Figures/139-C-20-2.bmp\",\"sasa:za\",\"Up\",\"40\",\"5\",\"7\",\"6A\",\"C2\",\"C\",\"71\"
\"\",\"\",\"approach-retreat\",\"75\",\"845246\",\"0.0-75.0\",\"\",\"\",\"3-2\",\"4471\",\"37\",\"0\",\"Training\",\"Stims/Figures/7-J-10-4.bmp\",\"va:fa:va\",\"Right\",\"39\",\"5\",\"8\",\"6A\",\"C1\",\"C\",\"72\"
\"\",\"\",\"approach-retreat\",\"76\",\"856394\",\"0.0-76.0\",\"\",\"\",\"3-2\",\"9622\",\"37\",\"0\",\"Training\",\"Stims/Figures/57-C-30-1.bmp\",\"sa:haza\",\"Left\",\"39\",\"5\",\"9\",\"6A\",\"C2\",\"C\",\"73\"
\"\",\"\",\"approach-retreat\",\"77\",\"862414\",\"0.0-77.0\",\"\",\"\",\"3-2\",\"4496\",\"37\",\"0\",\"Training\",\"Stims/Figures/86-C-30-1.bmp\",\"za:ha:za\",\"Left\",\"39\",\"5\",\"10\",\"6A\",\"C2\",\"C\",\"74\"
\"\",\"\",\"approach-retreat\",\"78\",\"871684\",\"0.0-78.0\",\"\",\"\",\"3-2\",\"7748\",\"40\",\"1\",\"Training\",\"Stims/Figures/44-C-30-3.bmp\",\"za:haza\",\"Up\",\"40\",\"5\",\"11\",\"6A\",\"C2\",\"C\",\"75\"
\"\",\"\",\"approach-retreat\",\"79\",\"877932\",\"0.0-79.0\",\"\",\"\",\"3-2\",\"4725\",\"40\",\"1\",\"Training\",\"Stims/Figures/139-J-0-2.bmp\",\"fa:shava\",\"Down\",\"40\",\"5\",\"12\",\"6A\",\"C1\",\"C\",\"76\"
\"\",\"\",\"approach-retreat\",\"80\",\"883775\",\"0.0-80.0\",\"\",\"\",\"3-2\",\"4318\",\"37\",\"1\",\"Training\",\"Stims/Figures/74-C-20-4.bmp\",\"zaha:za\",\"Right\",\"37\",\"5\",\"13\",\"6A\",\"C2\",\"C\",\"77\"
\"\",\"\",\"approach-retreat\",\"81\",\"890015\",\"0.0-81.0\",\"\",\"\",\"3-2\",\"4689\",\"40\",\"0\",\"Training\",\"Stims/Figures/57-J-0-1.bmp\",\"vashasha\",\"Up\",\"38\",\"5\",\"14\",\"6A\",\"C1\",\"C\",\"78\"
\"\",\"\",\"approach-retreat\",\"82\",\"897167\",\"0.0-82.0\",\"\",\"\",\"3-2\",\"5628\",\"37\",\"0\",\"Training\",\"Stims/Figures/144-C-30-3.bmp\",\"sahaha\",\"Left\",\"39\",\"5\",\"15\",\"6A\",\"C2\",\"C\",\"79\"
\"\",\"\",\"approach-retreat\",\"83\",\"903619\",\"0.0-83.0\",\"\",\"\",\"3-2\",\"4930\",\"40\",\"1\",\"Training\",\"Stims/Figures/84-C-20-2.bmp\",\"za:sa:za\",\"Up\",\"40\",\"5\",\"16\",\"6A\",\"C2\",\"C\",\"80\"
\"\",\"\",\"approach-retreat\",\"84\",\"909744\",\"0.0-84.0\",\"\",\"\",\"3-2\",\"4599\",\"37\",\"1\",\"Training\",\"Stims/Figures/86-J-0-1.bmp\",\"fa:fa:va\",\"Left\",\"37\",\"6\",\"1\",\"6A\",\"C1\",\"C\",\"81\"
\"\",\"\",\"approach-retreat\",\"85\",\"915963\",\"0.0-85.0\",\"\",\"\",\"3-2\",\"4692\",\"37\",\"0\",\"Training\",\"Stims/Figures/44-C-30-3.bmp\",\"za:haza\",\"Left\",\"39\",\"6\",\"2\",\"6A\",\"C2\",\"C\",\"82\"
\"\",\"\",\"approach-retreat\",\"86\",\"921966\",\"0.0-86.0\",\"\",\"\",\"3-2\",\"4476\",\"37\",\"0\",\"Training\",\"Stims/Figures/57-J-0-1.bmp\",\"vashasha\",\"Right\",\"39\",\"6\",\"3\",\"6A\",\"C1\",\"C\",\"83\"
\"\",\"\",\"approach-retreat\",\"87\",\"927913\",\"0.0-87.0\",\"\",\"\",\"3-2\",\"4420\",\"37\",\"0\",\"Training\",\"Stims/Figures/74-C-20-4.bmp\",\"zaha:za\",\"Left\",\"39\",\"6\",\"4\",\"6A\",\"C2\",\"C\",\"84\"
\"\",\"\",\"approach-retreat\",\"88\",\"933717\",\"0.0-88.0\",\"\",\"\",\"3-2\",\"4279\",\"40\",\"0\",\"Training\",\"Stims/Figures/139-C-20-2.bmp\",\"sasa:za\",\"Down\",\"38\",\"6\",\"5\",\"6A\",\"C2\",\"C\",\"85\"
\"\",\"\",\"approach-retreat\",\"89\",\"939667\",\"0.0-89.0\",\"\",\"\",\"3-2\",\"4422\",\"37\",\"0\",\"Training\",\"Stims/Figures/139-J-0-2.bmp\",\"fa:shava\",\"Right\",\"39\",\"6\",\"6\",\"6A\",\"C1\",\"C\",\"86\"
\"\",\"\",\"approach-retreat\",\"90\",\"945863\",\"0.0-90.0\",\"\",\"\",\"3-2\",\"4666\",\"38\",\"1\",\"Training\",\"Stims/Figures/84-C-20-2.bmp\",\"za:sa:za\",\"Down\",\"38\",\"6\",\"7\",\"6A\",\"C2\",\"C\",\"87\"
\"\",\"\",\"approach-retreat\",\"91\",\"952298\",\"0.0-91.0\",\"\",\"\",\"3-2\",\"4915\",\"40\",\"1\",\"Training\",\"Stims/Figures/57-C-30-1.bmp\",\"sa:haza\",\"Up\",\"40\",\"6\",\"8\",\"6A\",\"C2\",\"C\",\"88\"
\"\",\"\",\"approach-retreat\",\"92\",\"958266\",\"0.0-92.0\",\"\",\"\",\"3-2\",\"4440\",\"38\",\"0\",\"Training\",\"Stims/Figures/86-C-30-1.bmp\",\"za:ha:za\",\"Up\",\"40\",\"6\",\"9\",\"6A\",\"C2\",\"C\",\"89\"
\"\",\"\",\"approach-retreat\",\"93\",\"965469\",\"0.0-93.0\",\"\",\"\",\"3-2\",\"5682\",\"38\",\"0\",\"Training\",\"Stims/Figures/84-J-0-2.bmp\",\"fasha:sha\",\"Down\",\"40\",\"6\",\"10\",\"6A\",\"C1\",\"C\",\"90\"
\"\",\"\",\"approach-retreat\",\"94\",\"971753\",\"0.0-94.0\",\"\",\"\",\"3-2\",\"4757\",\"38\",\"1\",\"Training\",\"Stims/Figures/44-J-10-3.bmp\",\"fa:fa:sha\",\"Up\",\"38\",\"6\",\"11\",\"6A\",\"C1\",\"C\",\"91\"
\"\",\"\",\"approach-retreat\",\"95\",\"977784\",\"0.0-95.0\",\"\",\"\",\"3-2\",\"4509\",\"40\",\"0\",\"Training\",\"Stims/Figures/74-J-10-4.bmp\",\"fafa:sha\",\"Up\",\"38\",\"6\",\"12\",\"6A\",\"C1\",\"C\",\"92\"
\"\",\"\",\"approach-retreat\",\"96\",\"993181\",\"0.0-96.0\",\"\",\"\",\"3-2\",\"13874\",\"37\",\"0\",\"Training\",\"Stims/Figures/7-C-20-4.bmp\",\"zasaza\",\"Left\",\"39\",\"6\",\"13\",\"6A\",\"C2\",\"C\",\"93\"
\"\",\"\",\"approach-retreat\",\"97\",\"1001052\",\"0.0-97.0\",\"\",\"\",\"3-2\",\"6342\",\"37\",\"0\",\"Training\",\"Stims/Figures/7-J-10-4.bmp\",\"va:fa:va\",\"Right\",\"39\",\"6\",\"14\",\"6A\",\"C1\",\"C\",\"94\"
\"\",\"\",\"approach-retreat\",\"98\",\"1015824\",\"0.0-98.0\",\"\",\"\",\"3-2\",\"13249\",\"40\",\"0\",\"Training\",\"Stims/Figures/144-C-30-3.bmp\",\"sahaha\",\"Down\",\"38\",\"6\",\"15\",\"6A\",\"C2\",\"C\",\"95\"
\"\",\"\",\"approach-retreat\",\"99\",\"1067253\",\"0.0-99.0\",\"\",\"\",\"3-2\",\"49912\",\"37\",\"0\",\"Training\",\"Stims/Figures/144-J-10-3.bmp\",\"vafasha\",\"Right\",\"39\",\"6\",\"16\",\"6A\",\"C1\",\"C\",\"96\"
\"\",\"\",\"approach-retreat\",\"100\",\"1073124\",\"0.0-100.0\",\"\",\"\",\"3-2\",\"4351\",\"39\",\"1\",\"Training\",\"Stims/Figures/57-C-30-1.bmp\",\"sa:haza\",\"Left\",\"39\",\"7\",\"1\",\"6A\",\"C2\",\"C\",\"97\"
\"\",\"\",\"approach-retreat\",\"101\",\"1079066\",\"0.0-101.0\",\"\",\"\",\"3-2\",\"4417\",\"40\",\"0\",\"Training\",\"Stims/Figures/139-C-20-2.bmp\",\"sasa:za\",\"Down\",\"38\",\"7\",\"2\",\"6A\",\"C2\",\"C\",\"98\"
\"\",\"\",\"approach-retreat\",\"102\",\"1085693\",\"0.0-102.0\",\"\",\"\",\"3-2\",\"5104\",\"38\",\"1\",\"Training\",\"Stims/Figures/86-C-30-1.bmp\",\"za:ha:za\",\"Down\",\"38\",\"7\",\"3\",\"6A\",\"C2\",\"C\",\"99\"
\"\",\"\",\"approach-retreat\",\"103\",\"1110784\",\"0.0-103.0\",\"\",\"\",\"3-2\",\"23568\",\"40\",\"0\",\"Training\",\"Stims/Figures/74-C-20-4.bmp\",\"zaha:za\",\"Down\",\"38\",\"7\",\"4\",\"6A\",\"C2\",\"C\",\"100\"
\"\",\"\",\"approach-retreat\",\"104\",\"1121205\",\"0.0-104.0\",\"\",\"\",\"3-2\",\"8868\",\"39\",\"0\",\"Training\",\"Stims/Figures/144-J-10-3.bmp\",\"vafasha\",\"Left\",\"37\",\"7\",\"5\",\"6A\",\"C1\",\"C\",\"101\"
\"\",\"\",\"approach-retreat\",\"105\",\"1127371\",\"0.0-105.0\",\"\",\"\",\"3-2\",\"4640\",\"40\",\"0\",\"Training\",\"Stims/Figures/7-J-10-4.bmp\",\"va:fa:va\",\"Up\",\"38\",\"7\",\"6\",\"6A\",\"C1\",\"C\",\"102\"
\"\",\"\",\"approach-retreat\",\"106\",\"1154398\",\"0.0-106.0\",\"\",\"\",\"3-2\",\"25499\",\"40\",\"1\",\"Training\",\"Stims/Figures/7-C-20-4.bmp\",\"zasaza\",\"Up\",\"40\",\"7\",\"7\",\"6A\",\"C2\",\"C\",\"103\"
\"\",\"\",\"approach-retreat\",\"107\",\"1249367\",\"0.0-107.0\",\"\",\"\",\"3-2\",\"93432\",\"37\",\"0\",\"Training\",\"Stims/Figures/139-J-0-2.bmp\",\"fa:shava\",\"Right\",\"39\",\"7\",\"8\",\"6A\",\"C1\",\"C\",\"104\"
\"\",\"\",\"approach-retreat\",\"108\",\"1255306\",\"0.0-108.0\",\"\",\"\",\"3-2\",\"4415\",\"38\",\"0\",\"Training\",\"Stims/Figures/44-J-10-3.bmp\",\"fa:fa:sha\",\"Down\",\"40\",\"7\",\"9\",\"6A\",\"C1\",\"C\",\"105\"
\"\",\"\",\"approach-retreat\",\"109\",\"1265874\",\"0.0-109.0\",\"\",\"\",\"3-2\",\"9042\",\"39\",\"1\",\"Training\",\"Stims/Figures/144-C-30-3.bmp\",\"sahaha\",\"Left\",\"39\",\"7\",\"10\",\"6A\",\"C2\",\"C\",\"106\"
\"\",\"\",\"approach-retreat\",\"110\",\"1272574\",\"0.0-110.0\",\"\",\"\",\"3-2\",\"5171\",\"37\",\"1\",\"Training\",\"Stims/Figures/44-C-30-3.bmp\",\"za:haza\",\"Right\",\"37\",\"7\",\"11\",\"6A\",\"C2\",\"C\",\"107\"
\"\",\"\",\"approach-retreat\",\"111\",\"1295227\",\"0.0-111.0\",\"\",\"\",\"3-2\",\"21135\",\"37\",\"0\",\"Training\",\"Stims/Figures/84-J-0-2.bmp\",\"fasha:sha\",\"Right\",\"39\",\"7\",\"12\",\"6A\",\"C1\",\"C\",\"108\"
\"\",\"\",\"approach-retreat\",\"112\",\"1301088\",\"0.0-112.0\",\"\",\"\",\"3-2\",\"4335\",\"39\",\"0\",\"Training\",\"Stims/Figures/74-J-10-4.bmp\",\"fafa:sha\",\"Left\",\"37\",\"7\",\"13\",\"6A\",\"C1\",\"C\",\"109\"
\"\",\"\",\"approach-retreat\",\"113\",\"1310876\",\"0.0-113.0\",\"\",\"\",\"3-2\",\"8258\",\"37\",\"0\",\"Training\",\"Stims/Figures/57-J-0-1.bmp\",\"vashasha\",\"Right\",\"39\",\"7\",\"14\",\"6A\",\"C1\",\"C\",\"110\"
\"\",\"\",\"approach-retreat\",\"114\",\"1324299\",\"0.0-114.0\",\"\",\"\",\"3-2\",\"11847\",\"40\",\"0\",\"Training\",\"Stims/Figures/86-J-0-1.bmp\",\"fa:fa:va\",\"Up\",\"38\",\"7\",\"15\",\"6A\",\"C1\",\"C\",\"111\"
\"\",\"\",\"approach-retreat\",\"115\",\"1332576\",\"0.0-115.0\",\"\",\"\",\"3-2\",\"6748\",\"40\",\"1\",\"Training\",\"Stims/Figures/84-C-20-2.bmp\",\"za:sa:za\",\"Up\",\"40\",\"7\",\"16\",\"6A\",\"C2\",\"C\",\"112\"
\"\",\"\",\"approach-retreat\",\"116\",\"1338362\",\"0.0-116.0\",\"\",\"\",\"3-2\",\"4271\",\"40\",\"0\",\"Training\",\"Stims/Figures/44-C-30-3.bmp\",\"za:haza\",\"Down\",\"38\",\"8\",\"1\",\"6A\",\"C2\",\"C\",\"113\"
\"\",\"\",\"approach-retreat\",\"117\",\"1344510\",\"0.0-117.0\",\"\",\"\",\"3-2\",\"4622\",\"39\",\"0\",\"Training\",\"Stims/Figures/86-C-30-1.bmp\",\"za:ha:za\",\"Right\",\"37\",\"8\",\"2\",\"6A\",\"C2\",\"C\",\"114\"
\"\",\"\",\"approach-retreat\",\"118\",\"1350116\",\"0.0-118.0\",\"\",\"\",\"3-2\",\"4073\",\"37\",\"1\",\"Training\",\"Stims/Figures/86-J-0-1.bmp\",\"fa:fa:va\",\"Left\",\"37\",\"8\",\"3\",\"6A\",\"C1\",\"C\",\"115\"
\"\",\"\",\"approach-retreat\",\"119\",\"1360876\",\"0.0-119.0\",\"\",\"\",\"3-2\",\"9231\",\"37\",\"0\",\"Training\",\"Stims/Figures/57-J-0-1.bmp\",\"vashasha\",\"Right\",\"39\",\"8\",\"4\",\"6A\",\"C1\",\"C\",\"116\"
\"\",\"\",\"approach-retreat\",\"120\",\"1369512\",\"0.0-120.0\",\"\",\"\",\"3-2\",\"7113\",\"40\",\"0\",\"Training\",\"Stims/Figures/74-J-10-4.bmp\",\"fafa:sha\",\"Up\",\"38\",\"8\",\"5\",\"6A\",\"C1\",\"C\",\"117\"
\"\",\"\",\"approach-retreat\",\"121\",\"1375657\",\"0.0-121.0\",\"\",\"\",\"3-2\",\"4620\",\"38\",\"0\",\"Training\",\"Stims/Figures/84-C-20-2.bmp\",\"za:sa:za\",\"Up\",\"40\",\"8\",\"6\",\"6A\",\"C2\",\"C\",\"118\"
\"\",\"\",\"approach-retreat\",\"122\",\"1381355\",\"0.0-122.0\",\"\",\"\",\"3-2\",\"4182\",\"40\",\"0\",\"Training\",\"Stims/Figures/139-C-20-2.bmp\",\"sasa:za\",\"Down\",\"38\",\"8\",\"7\",\"6A\",\"C2\",\"C\",\"119\"
\"\",\"\",\"approach-retreat\",\"123\",\"1386815\",\"0.0-123.0\",\"\",\"\",\"3-2\",\"3935\",\"37\",\"0\",\"Training\",\"Stims/Figures/74-C-20-4.bmp\",\"zaha:za\",\"Left\",\"39\",\"8\",\"8\",\"6A\",\"C2\",\"C\",\"120\"
\"\",\"\",\"approach-retreat\",\"124\",\"1393801\",\"0.0-124.0\",\"\",\"\",\"3-2\",\"5464\",\"40\",\"1\",\"Training\",\"Stims/Figures/144-C-30-3.bmp\",\"sahaha\",\"Up\",\"40\",\"8\",\"9\",\"6A\",\"C2\",\"C\",\"121\"
\"\",\"\",\"approach-retreat\",\"125\",\"1400844\",\"0.0-125.0\",\"\",\"\",\"3-2\",\"5517\",\"40\",\"1\",\"Training\",\"Stims/Figures/139-J-0-2.bmp\",\"fa:shava\",\"Down\",\"40\",\"8\",\"10\",\"6A\",\"C1\",\"C\",\"122\"
\"\",\"\",\"approach-retreat\",\"126\",\"1406338\",\"0.0-126.0\",\"\",\"\",\"3-2\",\"3968\",\"37\",\"1\",\"Training\",\"Stims/Figures/84-J-0-2.bmp\",\"fasha:sha\",\"Left\",\"37\",\"8\",\"11\",\"6A\",\"C1\",\"C\",\"123\"
\"\",\"\",\"approach-retreat\",\"127\",\"1411657\",\"0.0-127.0\",\"\",\"\",\"3-2\",\"3799\",\"39\",\"1\",\"Training\",\"Stims/Figures/144-J-10-3.bmp\",\"vafasha\",\"Right\",\"39\",\"8\",\"12\",\"6A\",\"C1\",\"C\",\"124\"
\"\",\"\",\"approach-retreat\",\"128\",\"1455783\",\"0.0-128.0\",\"\",\"\",\"3-2\",\"42606\",\"37\",\"1\",\"Training\",\"Stims/Figures/57-C-30-1.bmp\",\"sa:haza\",\"Right\",\"37\",\"8\",\"13\",\"6A\",\"C2\",\"C\",\"125\"
\"\",\"\",\"approach-retreat\",\"129\",\"1461787\",\"0.0-129.0\",\"\",\"\",\"3-2\",\"4483\",\"40\",\"1\",\"Training\",\"Stims/Figures/7-C-20-4.bmp\",\"zasaza\",\"Up\",\"40\",\"8\",\"14\",\"6A\",\"C2\",\"C\",\"126\"
\"\",\"\",\"approach-retreat\",\"130\",\"1467488\",\"0.0-130.0\",\"\",\"\",\"3-2\",\"4181\",\"37\",\"1\",\"Training\",\"Stims/Figures/7-J-10-4.bmp\",\"va:fa:va\",\"Left\",\"37\",\"8\",\"15\",\"6A\",\"C1\",\"C\",\"127\"
\"\",\"\",\"approach-retreat\",\"131\",\"1473870\",\"0.0-131.0\",\"\",\"\",\"3-2\",\"4855\",\"40\",\"1\",\"Training\",\"Stims/Figures/44-J-10-3.bmp\",\"fa:fa:sha\",\"Down\",\"40\",\"8\",\"16\",\"6A\",\"C1\",\"C\",\"128\"
\"\",\"\",\"approach-retreat\",\"132\",\"1486297\",\"0.0-132.0\",\"\",\"\",\"3-2\",\"10906\",\"40\",\"0\",\"Training\",\"Stims/Figures/86-C-30-1.bmp\",\"za:ha:za\",\"Down\",\"38\",\"9\",\"1\",\"6A\",\"C2\",\"C\",\"129\"
\"\",\"\",\"approach-retreat\",\"133\",\"1492105\",\"0.0-133.0\",\"\",\"\",\"3-2\",\"4278\",\"39\",\"1\",\"Training\",\"Stims/Figures/144-J-10-3.bmp\",\"vafasha\",\"Right\",\"39\",\"9\",\"2\",\"6A\",\"C1\",\"C\",\"130\"
\"\",\"\",\"approach-retreat\",\"134\",\"1498773\",\"0.0-134.0\",\"\",\"\",\"3-2\",\"5134\",\"37\",\"1\",\"Training\",\"Stims/Figures/57-J-0-1.bmp\",\"vashasha\",\"Left\",\"37\",\"9\",\"3\",\"6A\",\"C1\",\"C\",\"131\"
\"\",\"\",\"approach-retreat\",\"135\",\"1549683\",\"0.0-135.0\",\"\",\"\",\"3-2\",\"49380\",\"40\",\"0\",\"Training\",\"Stims/Figures/57-C-30-1.bmp\",\"sa:haza\",\"Down\",\"38\",\"9\",\"4\",\"6A\",\"C2\",\"C\",\"132\"
\"\",\"\",\"approach-retreat\",\"136\",\"1555338\",\"0.0-136.0\",\"\",\"\",\"3-2\",\"4126\",\"39\",\"1\",\"Training\",\"Stims/Figures/144-C-30-3.bmp\",\"sahaha\",\"Left\",\"39\",\"9\",\"5\",\"6A\",\"C2\",\"C\",\"133\"
\"\",\"\",\"approach-retreat\",\"137\",\"1565857\",\"0.0-137.0\",\"\",\"\",\"3-2\",\"8990\",\"39\",\"0\",\"Training\",\"Stims/Figures/74-J-10-4.bmp\",\"fafa:sha\",\"Left\",\"37\",\"9\",\"6\",\"6A\",\"C1\",\"C\",\"134\"
\"\",\"\",\"approach-retreat\",\"138\",\"1571460\",\"0.0-138.0\",\"\",\"\",\"3-2\",\"4078\",\"37\",\"0\",\"Training\",\"Stims/Figures/86-J-0-1.bmp\",\"fa:fa:va\",\"Right\",\"39\",\"9\",\"7\",\"6A\",\"C1\",\"C\",\"135\"
\"\",\"\",\"approach-retreat\",\"139\",\"1577105\",\"0.0-139.0\",\"\",\"\",\"3-2\",\"4128\",\"40\",\"0\",\"Training\",\"Stims/Figures/44-C-30-3.bmp\",\"za:haza\",\"Down\",\"38\",\"9\",\"8\",\"6A\",\"C2\",\"C\",\"136\"
\"\",\"\",\"approach-retreat\",\"140\",\"1582599\",\"0.0-140.0\",\"\",\"\",\"3-2\",\"3966\",\"38\",\"0\",\"Training\",\"Stims/Figures/7-J-10-4.bmp\",\"va:fa:va\",\"Down\",\"40\",\"9\",\"9\",\"6A\",\"C1\",\"C\",\"137\"
\"\",\"\",\"approach-retreat\",\"141\",\"1588258\",\"0.0-141.0\",\"\",\"\",\"3-2\",\"4131\",\"40\",\"0\",\"Training\",\"Stims/Figures/139-J-0-2.bmp\",\"fa:shava\",\"Up\",\"38\",\"9\",\"10\",\"6A\",\"C1\",\"C\",\"138\"
\"\",\"\",\"approach-retreat\",\"142\",\"1593715\",\"0.0-142.0\",\"\",\"\",\"3-2\",\"3931\",\"37\",\"1\",\"Training\",\"Stims/Figures/139-C-20-2.bmp\",\"sasa:za\",\"Right\",\"37\",\"9\",\"11\",\"6A\",\"C2\",\"C\",\"139\"
\"\",\"\",\"approach-retreat\",\"143\",\"1599429\",\"0.0-143.0\",\"\",\"\",\"3-2\",\"4196\",\"40\",\"0\",\"Training\",\"Stims/Figures/44-J-10-3.bmp\",\"fa:fa:sha\",\"Up\",\"38\",\"9\",\"12\",\"6A\",\"C1\",\"C\",\"140\"
\"\",\"\",\"approach-retreat\",\"144\",\"1605231\",\"0.0-144.0\",\"\",\"\",\"3-2\",\"4275\",\"37\",\"1\",\"Training\",\"Stims/Figures/84-C-20-2.bmp\",\"za:sa:za\",\"Right\",\"37\",\"9\",\"13\",\"6A\",\"C2\",\"C\",\"141\"
\"\",\"\",\"approach-retreat\",\"145\",\"1611035\",\"0.0-145.0\",\"\",\"\",\"3-2\",\"4270\",\"40\",\"1\",\"Training\",\"Stims/Figures/74-C-20-4.bmp\",\"zaha:za\",\"Up\",\"40\",\"9\",\"14\",\"6A\",\"C2\",\"C\",\"142\"
\"\",\"\",\"approach-retreat\",\"146\",\"1616726\",\"0.0-146.0\",\"\",\"\",\"3-2\",\"4160\",\"40\",\"1\",\"Training\",\"Stims/Figures/7-C-20-4.bmp\",\"zasaza\",\"Up\",\"40\",\"9\",\"15\",\"6A\",\"C2\",\"C\",\"143\"
\"\",\"\",\"approach-retreat\",\"147\",\"1625199\",\"0.0-147.0\",\"\",\"\",\"3-2\",\"6938\",\"37\",\"1\",\"Training\",\"Stims/Figures/84-J-0-2.bmp\",\"fasha:sha\",\"Left\",\"37\",\"9\",\"16\",\"6A\",\"C1\",\"C\",\"144\"
\"23928\",\"\",\"instructions\",\"148\",\"1649127\",\"0.0-148.0\",\"[{\"\"page_index\"\":0,\"\"viewing_time\"\":23925}]\",\"\",\"\",\"\",\"\",\"\",\"\",\"\",\"\",\"\",\"\",\"\",\"\",\"\",\"\",\"\",\"\"
\"\",\"\",\"approach-retreat\",\"149\",\"1655724\",\"0.0-149.0\",\"\",\"\",\"3-2\",\"5079\",\"40\",\"0\",\"Testing\",\"Stims/Figures/71-J-0-1.bmp\",\"vashava\",\"Up\",\"38\",\"1\",\"1\",\"6A\",\"C1\",\"C\",\"1\"
\"\",\"\",\"approach-retreat\",\"150\",\"1661538\",\"0.0-150.0\",\"\",\"\",\"3-2\",\"4252\",\"40\",\"0\",\"Testing\",\"Stims/Figures/144-J-10-3.bmp\",\"vafasha\",\"Up\",\"38\",\"1\",\"2\",\"6A\",\"C1\",\"C\",\"2\"
\"\",\"\",\"approach-retreat\",\"151\",\"1668125\",\"0.0-151.0\",\"\",\"\",\"3-2\",\"5066\",\"38\",\"0\",\"Testing\",\"Stims/Figures/118-J-0-2.bmp\",\"fa:sha:va\",\"Down\",\"40\",\"1\",\"3\",\"6A\",\"C1\",\"C\",\"3\"
\"\",\"\",\"approach-retreat\",\"152\",\"1673796\",\"0.0-152.0\",\"\",\"\",\"3-2\",\"4154\",\"40\",\"0\",\"Testing\",\"Stims/Figures/84-J-0-2.bmp\",\"fasha:sha\",\"Up\",\"38\",\"1\",\"4\",\"6A\",\"C1\",\"C\",\"4\"
\"\",\"\",\"approach-retreat\",\"153\",\"1679373\",\"0.0-153.0\",\"\",\"\",\"3-2\",\"4056\",\"39\",\"0\",\"Testing\",\"Stims/Figures/100-J-10-3.bmp\",\"vafa:sha\",\"Left\",\"37\",\"1\",\"5\",\"6A\",\"C1\",\"C\",\"5\"
\"\",\"\",\"approach-retreat\",\"154\",\"1685378\",\"0.0-154.0\",\"\",\"\",\"3-2\",\"4487\",\"37\",\"1\",\"Testing\",\"Stims/Figures/19-J-10-4.bmp\",\"va:shava\",\"Left\",\"37\",\"1\",\"6\",\"6A\",\"C1\",\"C\",\"6\"
\"\",\"\",\"approach-retreat\",\"155\",\"1690969\",\"0.0-155.0\",\"\",\"\",\"3-2\",\"4074\",\"37\",\"0\",\"Testing\",\"Stims/Figures/84-C-20-2.bmp\",\"za:sa:za\",\"Left\",\"39\",\"1\",\"7\",\"6A\",\"C2\",\"C\",\"7\"
\"\",\"\",\"approach-retreat\",\"156\",\"1696803\",\"0.0-156.0\",\"\",\"\",\"3-2\",\"4316\",\"38\",\"0\",\"Testing\",\"Stims/Figures/86-J-0-1.bmp\",\"fa:fa:va\",\"Down\",\"40\",\"1\",\"8\",\"6A\",\"C1\",\"C\",\"8\"
\"\",\"\",\"approach-retreat\",\"157\",\"1702590\",\"0.0-157.0\",\"\",\"\",\"3-2\",\"4270\",\"38\",\"1\",\"Testing\",\"Stims/Figures/71-C-30-1.bmp\",\"sasaza\",\"Down\",\"38\",\"1\",\"9\",\"6A\",\"C2\",\"C\",\"9\"
\"\",\"\",\"approach-retreat\",\"158\",\"1708323\",\"0.0-158.0\",\"\",\"\",\"3-2\",\"4214\",\"37\",\"1\",\"Testing\",\"Stims/Figures/139-C-20-2.bmp\",\"sasa:za\",\"Right\",\"37\",\"1\",\"10\",\"6A\",\"C2\",\"C\",\"10\"
\"\",\"\",\"approach-retreat\",\"159\",\"1714266\",\"0.0-159.0\",\"\",\"\",\"3-2\",\"4426\",\"38\",\"1\",\"Testing\",\"Stims/Figures/57-J-0-1.bmp\",\"vashasha\",\"Up\",\"38\",\"1\",\"11\",\"6A\",\"C1\",\"C\",\"11\"
\"\",\"\",\"approach-retreat\",\"160\",\"1720013\",\"0.0-160.0\",\"\",\"\",\"3-2\",\"4231\",\"39\",\"0\",\"Testing\",\"Stims/Figures/86-C-30-1.bmp\",\"za:ha:za\",\"Right\",\"37\",\"1\",\"12\",\"6A\",\"C2\",\"C\",\"12\"
\"\",\"\",\"approach-retreat\",\"161\",\"1726127\",\"0.0-161.0\",\"\",\"\",\"3-2\",\"4595\",\"38\",\"1\",\"Testing\",\"Stims/Figures/139-J-0-2.bmp\",\"fa:shava\",\"Up\",\"38\",\"1\",\"13\",\"6A\",\"C1\",\"C\",\"13\"
\"\",\"\",\"approach-retreat\",\"162\",\"1738243\",\"0.0-162.0\",\"\",\"\",\"3-2\",\"10598\",\"39\",\"1\",\"Testing\",\"Stims/Figures/44-J-10-3.bmp\",\"fa:fa:sha\",\"Right\",\"39\",\"1\",\"14\",\"6A\",\"C1\",\"C\",\"14\"
\"\",\"\",\"approach-retreat\",\"163\",\"1745769\",\"0.0-163.0\",\"\",\"\",\"3-2\",\"6007\",\"38\",\"1\",\"Testing\",\"Stims/Figures/44-C-30-3.bmp\",\"za:haza\",\"Down\",\"38\",\"1\",\"15\",\"6A\",\"C2\",\"C\",\"15\"
\"\",\"\",\"approach-retreat\",\"164\",\"1754661\",\"0.0-164.0\",\"\",\"\",\"3-2\",\"7375\",\"37\",\"0\",\"Testing\",\"Stims/Figures/7-C-20-4.bmp\",\"zasaza\",\"Left\",\"39\",\"1\",\"16\",\"6A\",\"C2\",\"C\",\"16\"
\"\",\"\",\"approach-retreat\",\"165\",\"1762608\",\"0.0-165.0\",\"\",\"\",\"3-2\",\"6427\",\"40\",\"0\",\"Testing\",\"Stims/Figures/100-C-30-3.bmp\",\"sa:saha\",\"Down\",\"38\",\"1\",\"17\",\"6A\",\"C2\",\"C\",\"17\"
\"\",\"\",\"approach-retreat\",\"166\",\"1781324\",\"0.0-166.0\",\"\",\"\",\"3-2\",\"17199\",\"37\",\"0\",\"Testing\",\"Stims/Figures/74-C-20-4.bmp\",\"zaha:za\",\"Left\",\"39\",\"1\",\"18\",\"6A\",\"C2\",\"C\",\"18\"
\"\",\"\",\"approach-retreat\",\"167\",\"1787753\",\"0.0-167.0\",\"\",\"\",\"3-2\",\"4899\",\"37\",\"0\",\"Testing\",\"Stims/Figures/74-J-10-4.bmp\",\"fafa:sha\",\"Right\",\"39\",\"1\",\"19\",\"6A\",\"C1\",\"C\",\"19\"
\"\",\"\",\"approach-retreat\",\"168\",\"1794501\",\"0.0-168.0\",\"\",\"\",\"3-2\",\"5226\",\"37\",\"1\",\"Testing\",\"Stims/Figures/7-J-10-4.bmp\",\"va:fa:va\",\"Left\",\"37\",\"1\",\"20\",\"6A\",\"C1\",\"C\",\"20\"
\"\",\"\",\"approach-retreat\",\"169\",\"1800043\",\"0.0-169.0\",\"\",\"\",\"3-2\",\"4024\",\"40\",\"0\",\"Testing\",\"Stims/Figures/118-C-20-2.bmp\",\"sahaza\",\"Down\",\"38\",\"1\",\"21\",\"6A\",\"C2\",\"C\",\"21\"
\"\",\"\",\"approach-retreat\",\"170\",\"1806730\",\"0.0-170.0\",\"\",\"\",\"3-2\",\"5170\",\"40\",\"1\",\"Testing\",\"Stims/Figures/19-C-20-4.bmp\",\"za:sa:ha\",\"Up\",\"40\",\"1\",\"22\",\"6A\",\"C2\",\"C\",\"22\"
\"\",\"\",\"approach-retreat\",\"171\",\"1825505\",\"0.0-171.0\",\"\",\"\",\"3-2\",\"17258\",\"39\",\"0\",\"Testing\",\"Stims/Figures/144-C-30-3.bmp\",\"sahaha\",\"Right\",\"37\",\"1\",\"23\",\"6A\",\"C2\",\"C\",\"23\"
\"\",\"\",\"approach-retreat\",\"172\",\"1847144\",\"0.0-172.0\",\"\",\"\",\"3-2\",\"20121\",\"37\",\"1\",\"Testing\",\"Stims/Figures/57-C-30-1.bmp\",\"sa:haza\",\"Right\",\"37\",\"1\",\"24\",\"6A\",\"C2\",\"C\",\"24\"
\"\",\"\",\"approach-retreat\",\"173\",\"1893117\",\"0.0-173.0\",\"\",\"\",\"3-2\",\"44457\",\"38\",\"1\",\"Testing\",\"Stims/Figures/139-C-20-2.bmp\",\"sasa:za\",\"Down\",\"38\",\"2\",\"1\",\"6A\",\"C2\",\"C\",\"25\"
\"\",\"\",\"approach-retreat\",\"174\",\"1900617\",\"0.0-174.0\",\"\",\"\",\"3-2\",\"5982\",\"39\",\"0\",\"Testing\",\"Stims/Figures/74-C-20-4.bmp\",\"zaha:za\",\"Right\",\"37\",\"2\",\"2\",\"6A\",\"C2\",\"C\",\"26\"
\"\",\"\",\"approach-retreat\",\"175\",\"1912202\",\"0.0-175.0\",\"\",\"\",\"3-2\",\"10068\",\"39\",\"0\",\"Testing\",\"Stims/Figures/86-J-0-1.bmp\",\"fa:fa:va\",\"Left\",\"37\",\"2\",\"3\",\"6A\",\"C1\",\"C\",\"27\"
\"\",\"\",\"approach-retreat\",\"176\",\"1918353\",\"0.0-176.0\",\"\",\"\",\"3-2\",\"4632\",\"40\",\"1\",\"Testing\",\"Stims/Figures/44-C-30-3.bmp\",\"za:haza\",\"Up\",\"40\",\"2\",\"4\",\"6A\",\"C2\",\"C\",\"28\"
\"\",\"\",\"approach-retreat\",\"177\",\"1925266\",\"0.0-177.0\",\"\",\"\",\"3-2\",\"5397\",\"39\",\"0\",\"Testing\",\"Stims/Figures/19-J-10-4.bmp\",\"va:shava\",\"Left\",\"37\",\"2\",\"5\",\"6A\",\"C1\",\"C\",\"29\"
\"\",\"\",\"approach-retreat\",\"178\",\"1935084\",\"0.0-178.0\",\"\",\"\",\"3-2\",\"8300\",\"40\",\"1\",\"Testing\",\"Stims/Figures/86-C-30-1.bmp\",\"za:ha:za\",\"Up\",\"40\",\"2\",\"6\",\"6A\",\"C2\",\"C\",\"30\"
\"\",\"\",\"approach-retreat\",\"179\",\"1951731\",\"0.0-179.0\",\"\",\"\",\"3-2\",\"15131\",\"40\",\"0\",\"Testing\",\"Stims/Figures/7-C-20-4.bmp\",\"zasaza\",\"Down\",\"38\",\"2\",\"7\",\"6A\",\"C2\",\"C\",\"31\"
\"\",\"\",\"approach-retreat\",\"180\",\"1964320\",\"0.0-180.0\",\"\",\"\",\"3-2\",\"11072\",\"39\",\"1\",\"Testing\",\"Stims/Figures/118-C-20-2.bmp\",\"sahaza\",\"Left\",\"39\",\"2\",\"8\",\"6A\",\"C2\",\"C\",\"32\"
\"\",\"\",\"approach-retreat\",\"181\",\"1973661\",\"0.0-181.0\",\"\",\"\",\"3-2\",\"7825\",\"39\",\"1\",\"Testing\",\"Stims/Figures/57-C-30-1.bmp\",\"sa:haza\",\"Left\",\"39\",\"2\",\"9\",\"6A\",\"C2\",\"C\",\"33\"
\"\",\"\",\"approach-retreat\",\"182\",\"2068155\",\"0.0-182.0\",\"\",\"\",\"3-2\",\"92976\",\"40\",\"0\",\"Testing\",\"Stims/Figures/118-J-0-2.bmp\",\"fa:sha:va\",\"Up\",\"38\",\"2\",\"10\",\"6A\",\"C1\",\"C\",\"34\"
\"\",\"\",\"approach-retreat\",\"183\",\"2085455\",\"0.0-183.0\",\"\",\"\",\"3-2\",\"15781\",\"37\",\"0\",\"Testing\",\"Stims/Figures/71-J-0-1.bmp\",\"vashava\",\"Right\",\"39\",\"2\",\"11\",\"6A\",\"C1\",\"C\",\"35\"
\"\",\"\",\"approach-retreat\",\"184\",\"2092082\",\"0.0-184.0\",\"\",\"\",\"3-2\",\"5109\",\"40\",\"1\",\"Testing\",\"Stims/Figures/7-J-10-4.bmp\",\"va:fa:va\",\"Down\",\"40\",\"2\",\"12\",\"6A\",\"C1\",\"C\",\"36\"
\"\",\"\",\"approach-retreat\",\"185\",\"2102676\",\"0.0-185.0\",\"\",\"\",\"3-2\",\"9076\",\"40\",\"0\",\"Testing\",\"Stims/Figures/74-J-10-4.bmp\",\"fafa:sha\",\"Up\",\"38\",\"2\",\"13\",\"6A\",\"C1\",\"C\",\"37\"
\"\",\"\",\"approach-retreat\",\"186\",\"2108746\",\"0.0-186.0\",\"\",\"\",\"3-2\",\"4553\",\"38\",\"0\",\"Testing\",\"Stims/Figures/44-J-10-3.bmp\",\"fa:fa:sha\",\"Down\",\"40\",\"2\",\"14\",\"6A\",\"C1\",\"C\",\"38\"
\"\",\"\",\"approach-retreat\",\"187\",\"2130218\",\"0.0-187.0\",\"\",\"\",\"3-2\",\"19955\",\"40\",\"1\",\"Testing\",\"Stims/Figures/144-C-30-3.bmp\",\"sahaha\",\"Up\",\"40\",\"2\",\"15\",\"6A\",\"C2\",\"C\",\"39\"
\"\",\"\",\"approach-retreat\",\"188\",\"2146250\",\"0.0-188.0\",\"\",\"\",\"3-2\",\"14515\",\"39\",\"0\",\"Testing\",\"Stims/Figures/84-J-0-2.bmp\",\"fasha:sha\",\"Left\",\"37\",\"2\",\"16\",\"6A\",\"C1\",\"C\",\"40\"
\"\",\"\",\"approach-retreat\",\"189\",\"2152815\",\"0.0-189.0\",\"\",\"\",\"3-2\",\"5046\",\"40\",\"1\",\"Testing\",\"Stims/Figures/100-J-10-3.bmp\",\"vafa:sha\",\"Down\",\"40\",\"2\",\"17\",\"6A\",\"C1\",\"C\",\"41\"
\"\",\"\",\"approach-retreat\",\"190\",\"2158430\",\"0.0-190.0\",\"\",\"\",\"3-2\",\"4095\",\"40\",\"1\",\"Testing\",\"Stims/Figures/100-C-30-3.bmp\",\"sa:saha\",\"Up\",\"40\",\"2\",\"18\",\"6A\",\"C2\",\"C\",\"42\"
\"\",\"\",\"approach-retreat\",\"191\",\"2164241\",\"0.0-191.0\",\"\",\"\",\"3-2\",\"4294\",\"37\",\"0\",\"Testing\",\"Stims/Figures/139-J-0-2.bmp\",\"fa:shava\",\"Right\",\"39\",\"2\",\"19\",\"6A\",\"C1\",\"C\",\"43\"
\"\",\"\",\"approach-retreat\",\"192\",\"2170534\",\"0.0-192.0\",\"\",\"\",\"3-2\",\"4775\",\"37\",\"0\",\"Testing\",\"Stims/Figures/71-C-30-1.bmp\",\"sasaza\",\"Left\",\"39\",\"2\",\"20\",\"6A\",\"C2\",\"C\",\"44\"
\"\",\"\",\"approach-retreat\",\"193\",\"2182216\",\"0.0-193.0\",\"\",\"\",\"3-2\",\"10166\",\"39\",\"0\",\"Testing\",\"Stims/Figures/84-C-20-2.bmp\",\"za:sa:za\",\"Right\",\"37\",\"2\",\"21\",\"6A\",\"C2\",\"C\",\"45\"
\"\",\"\",\"approach-retreat\",\"194\",\"2188172\",\"0.0-194.0\",\"\",\"\",\"3-2\",\"4438\",\"37\",\"0\",\"Testing\",\"Stims/Figures/144-J-10-3.bmp\",\"vafasha\",\"Right\",\"39\",\"2\",\"22\",\"6A\",\"C1\",\"C\",\"46\"
\"\",\"\",\"approach-retreat\",\"195\",\"2194090\",\"0.0-195.0\",\"\",\"\",\"3-2\",\"4401\",\"40\",\"1\",\"Testing\",\"Stims/Figures/57-J-0-1.bmp\",\"vashasha\",\"Down\",\"40\",\"2\",\"23\",\"6A\",\"C1\",\"C\",\"47\"
\"\",\"\",\"approach-retreat\",\"196\",\"2199639\",\"0.0-196.0\",\"\",\"\",\"3-2\",\"4032\",\"37\",\"1\",\"Testing\",\"Stims/Figures/19-C-20-4.bmp\",\"za:sa:ha\",\"Right\",\"37\",\"2\",\"24\",\"6A\",\"C2\",\"C\",\"48\"
\"\",\"\",\"approach-retreat\",\"197\",\"2205491\",\"0.0-197.0\",\"\",\"\",\"3-2\",\"4336\",\"40\",\"1\",\"Testing\",\"Stims/Figures/86-J-0-1.bmp\",\"fa:fa:va\",\"Down\",\"40\",\"3\",\"1\",\"6A\",\"C1\",\"C\",\"49\"
\"\",\"\",\"approach-retreat\",\"198\",\"2211158\",\"0.0-198.0\",\"\",\"\",\"3-2\",\"4143\",\"40\",\"0\",\"Testing\",\"Stims/Figures/19-J-10-4.bmp\",\"va:shava\",\"Up\",\"38\",\"3\",\"2\",\"6A\",\"C1\",\"C\",\"50\"
\"\",\"\",\"approach-retreat\",\"199\",\"2216767\",\"0.0-199.0\",\"\",\"\",\"3-2\",\"4091\",\"37\",\"0\",\"Testing\",\"Stims/Figures/144-J-10-3.bmp\",\"vafasha\",\"Right\",\"39\",\"3\",\"3\",\"6A\",\"C1\",\"C\",\"51\"
\"\",\"\",\"approach-retreat\",\"200\",\"2226146\",\"0.0-200.0\",\"\",\"\",\"3-2\",\"7862\",\"37\",\"1\",\"Testing\",\"Stims/Figures/71-J-0-1.bmp\",\"vashava\",\"Left\",\"37\",\"3\",\"4\",\"6A\",\"C1\",\"C\",\"52\"
\"\",\"\",\"approach-retreat\",\"201\",\"2233158\",\"0.0-201.0\",\"\",\"\",\"3-2\",\"5494\",\"38\",\"0\",\"Testing\",\"Stims/Figures/100-C-30-3.bmp\",\"sa:saha\",\"Up\",\"40\",\"3\",\"5\",\"6A\",\"C2\",\"C\",\"53\"
\"\",\"\",\"approach-retreat\",\"202\",\"2239094\",\"0.0-202.0\",\"\",\"\",\"3-2\",\"4418\",\"37\",\"1\",\"Testing\",\"Stims/Figures/57-J-0-1.bmp\",\"vashasha\",\"Left\",\"37\",\"3\",\"6\",\"6A\",\"C1\",\"C\",\"54\"
\"\",\"\",\"approach-retreat\",\"203\",\"2267078\",\"0.0-203.0\",\"\",\"\",\"3-2\",\"26466\",\"40\",\"0\",\"Testing\",\"Stims/Figures/118-C-20-2.bmp\",\"sahaza\",\"Down\",\"38\",\"3\",\"7\",\"6A\",\"C2\",\"C\",\"55\"
\"\",\"\",\"approach-retreat\",\"204\",\"2272667\",\"0.0-204.0\",\"\",\"\",\"3-2\",\"4072\",\"37\",\"1\",\"Testing\",\"Stims/Figures/86-C-30-1.bmp\",\"za:ha:za\",\"Right\",\"37\",\"3\",\"8\",\"6A\",\"C2\",\"C\",\"56\"
\"\",\"\",\"approach-retreat\",\"205\",\"2278176\",\"0.0-205.0\",\"\",\"\",\"3-2\",\"3989\",\"37\",\"1\",\"Testing\",\"Stims/Figures/74-C-20-4.bmp\",\"zaha:za\",\"Right\",\"37\",\"3\",\"9\",\"6A\",\"C2\",\"C\",\"57\"
\"\",\"\",\"approach-retreat\",\"206\",\"2283980\",\"0.0-206.0\",\"\",\"\",\"3-2\",\"4286\",\"40\",\"0\",\"Testing\",\"Stims/Figures/44-J-10-3.bmp\",\"fa:fa:sha\",\"Up\",\"38\",\"3\",\"10\",\"6A\",\"C1\",\"C\",\"58\"
\"\",\"\",\"approach-retreat\",\"207\",\"2289511\",\"0.0-207.0\",\"\",\"\",\"3-2\",\"4012\",\"37\",\"0\",\"Testing\",\"Stims/Figures/100-J-10-3.bmp\",\"vafa:sha\",\"Right\",\"39\",\"3\",\"11\",\"6A\",\"C1\",\"C\",\"59\"
\"\",\"\",\"approach-retreat\",\"208\",\"2303647\",\"0.0-208.0\",\"\",\"\",\"3-2\",\"12618\",\"40\",\"1\",\"Testing\",\"Stims/Figures/84-C-20-2.bmp\",\"za:sa:za\",\"Up\",\"40\",\"3\",\"12\",\"6A\",\"C2\",\"C\",\"60\"
\"\",\"\",\"approach-retreat\",\"209\",\"2384473\",\"0.0-209.0\",\"\",\"\",\"3-2\",\"79308\",\"37\",\"0\",\"Testing\",\"Stims/Figures/44-C-30-3.bmp\",\"za:haza\",\"Left\",\"39\",\"3\",\"13\",\"6A\",\"C2\",\"C\",\"61\"
\"\",\"\",\"approach-retreat\",\"210\",\"2418867\",\"0.0-210.0\",\"\",\"\",\"3-2\",\"32878\",\"40\",\"0\",\"Testing\",\"Stims/Figures/144-C-30-3.bmp\",\"sahaha\",\"Down\",\"38\",\"3\",\"14\",\"6A\",\"C2\",\"C\",\"62\"
\"\",\"\",\"approach-retreat\",\"211\",\"2451910\",\"0.0-211.0\",\"\",\"\",\"3-2\",\"31525\",\"40\",\"1\",\"Testing\",\"Stims/Figures/84-J-0-2.bmp\",\"fasha:sha\",\"Down\",\"40\",\"3\",\"15\",\"6A\",\"C1\",\"C\",\"63\"
\"\",\"\",\"approach-retreat\",\"212\",\"2461419\",\"0.0-212.0\",\"\",\"\",\"3-2\",\"7991\",\"37\",\"0\",\"Testing\",\"Stims/Figures/7-J-10-4.bmp\",\"va:fa:va\",\"Right\",\"39\",\"3\",\"16\",\"6A\",\"C1\",\"C\",\"64\"
\"\",\"\",\"approach-retreat\",\"213\",\"2532911\",\"0.0-213.0\",\"\",\"\",\"3-2\",\"69974\",\"40\",\"1\",\"Testing\",\"Stims/Figures/57-C-30-1.bmp\",\"sa:haza\",\"Up\",\"40\",\"3\",\"17\",\"6A\",\"C2\",\"C\",\"65\"
\"\",\"\",\"approach-retreat\",\"214\",\"2572900\",\"0.0-214.0\",\"\",\"\",\"3-2\",\"38468\",\"37\",\"1\",\"Testing\",\"Stims/Figures/19-C-20-4.bmp\",\"za:sa:ha\",\"Right\",\"37\",\"3\",\"18\",\"6A\",\"C2\",\"C\",\"66\"
\"\",\"\",\"approach-retreat\",\"215\",\"2582097\",\"0.0-215.0\",\"\",\"\",\"3-2\",\"7680\",\"40\",\"1\",\"Testing\",\"Stims/Figures/74-J-10-4.bmp\",\"fafa:sha\",\"Down\",\"40\",\"3\",\"19\",\"6A\",\"C1\",\"C\",\"67\"
\"\",\"\",\"approach-retreat\",\"216\",\"2605343\",\"0.0-216.0\",\"\",\"\",\"3-2\",\"21730\",\"40\",\"1\",\"Testing\",\"Stims/Figures/118-J-0-2.bmp\",\"fa:sha:va\",\"Down\",\"40\",\"3\",\"20\",\"6A\",\"C1\",\"C\",\"68\"
\"\",\"\",\"approach-retreat\",\"217\",\"2612567\",\"0.0-217.0\",\"\",\"\",\"3-2\",\"5705\",\"39\",\"1\",\"Testing\",\"Stims/Figures/7-C-20-4.bmp\",\"zasaza\",\"Left\",\"39\",\"3\",\"21\",\"6A\",\"C2\",\"C\",\"69\"
\"\",\"\",\"approach-retreat\",\"218\",\"2625943\",\"0.0-218.0\",\"\",\"\",\"3-2\",\"11860\",\"40\",\"0\",\"Testing\",\"Stims/Figures/139-J-0-2.bmp\",\"fa:shava\",\"Up\",\"38\",\"3\",\"22\",\"6A\",\"C1\",\"C\",\"70\"
\"\",\"\",\"approach-retreat\",\"219\",\"2644329\",\"0.0-219.0\",\"\",\"\",\"3-2\",\"16868\",\"37\",\"0\",\"Testing\",\"Stims/Figures/139-C-20-2.bmp\",\"sasa:za\",\"Left\",\"39\",\"3\",\"23\",\"6A\",\"C2\",\"C\",\"71\"
\"\",\"\",\"approach-retreat\",\"220\",\"2660855\",\"0.0-220.0\",\"\",\"\",\"3-2\",\"15006\",\"39\",\"1\",\"Testing\",\"Stims/Figures/71-C-30-1.bmp\",\"sasaza\",\"Left\",\"39\",\"3\",\"24\",\"6A\",\"C2\",\"C\",\"72\"
\"\",\"\",\"approach-retreat\",\"221\",\"2752873\",\"0.0-221.0\",\"\",\"\",\"3-2\",\"90499\",\"40\",\"0\",\"Testing\",\"Stims/Figures/57-J-0-1.bmp\",\"vashasha\",\"Up\",\"38\",\"4\",\"1\",\"6A\",\"C1\",\"C\",\"73\"
\"\",\"\",\"approach-retreat\",\"222\",\"2789651\",\"0.0-222.0\",\"\",\"\",\"3-2\",\"35259\",\"39\",\"1\",\"Testing\",\"Stims/Figures/86-C-30-1.bmp\",\"za:ha:za\",\"Left\",\"39\",\"4\",\"2\",\"6A\",\"C2\",\"C\",\"74\"
\"\",\"\",\"approach-retreat\",\"223\",\"2842163\",\"0.0-223.0\",\"\",\"\",\"3-2\",\"50995\",\"40\",\"1\",\"Testing\",\"Stims/Figures/57-C-30-1.bmp\",\"sa:haza\",\"Up\",\"40\",\"4\",\"3\",\"6A\",\"C2\",\"C\",\"75\"
\"\",\"\",\"approach-retreat\",\"224\",\"2866151\",\"0.0-224.0\",\"\",\"\",\"3-2\",\"22470\",\"39\",\"1\",\"Testing\",\"Stims/Figures/84-C-20-2.bmp\",\"za:sa:za\",\"Left\",\"39\",\"4\",\"4\",\"6A\",\"C2\",\"C\",\"76\"
\"\",\"\",\"approach-retreat\",\"225\",\"2874083\",\"0.0-225.0\",\"\",\"\",\"3-2\",\"6414\",\"39\",\"0\",\"Testing\",\"Stims/Figures/144-C-30-3.bmp\",\"sahaha\",\"Right\",\"37\",\"4\",\"5\",\"6A\",\"C2\",\"C\",\"77\"
\"\",\"\",\"approach-retreat\",\"226\",\"2879765\",\"0.0-226.0\",\"\",\"\",\"3-2\",\"4164\",\"37\",\"0\",\"Testing\",\"Stims/Figures/71-J-0-1.bmp\",\"vashava\",\"Right\",\"39\",\"4\",\"6\",\"6A\",\"C1\",\"C\",\"78\"
\"\",\"\",\"approach-retreat\",\"227\",\"2894428\",\"0.0-227.0\",\"\",\"\",\"3-2\",\"13145\",\"40\",\"1\",\"Testing\",\"Stims/Figures/118-J-0-2.bmp\",\"fa:sha:va\",\"Down\",\"40\",\"4\",\"7\",\"6A\",\"C1\",\"C\",\"79\"
\"\",\"\",\"approach-retreat\",\"228\",\"2900238\",\"0.0-228.0\",\"\",\"\",\"3-2\",\"4290\",\"40\",\"0\",\"Testing\",\"Stims/Figures/74-C-20-4.bmp\",\"zaha:za\",\"Down\",\"38\",\"4\",\"8\",\"6A\",\"C2\",\"C\",\"80\"
\"\",\"\",\"approach-retreat\",\"229\",\"2906246\",\"0.0-229.0\",\"\",\"\",\"3-2\",\"4490\",\"37\",\"0\",\"Testing\",\"Stims/Figures/44-J-10-3.bmp\",\"fa:fa:sha\",\"Right\",\"39\",\"4\",\"9\",\"6A\",\"C1\",\"C\",\"81\"
\"\",\"\",\"approach-retreat\",\"230\",\"2911973\",\"0.0-230.0\",\"\",\"\",\"3-2\",\"4207\",\"37\",\"1\",\"Testing\",\"Stims/Figures/84-J-0-2.bmp\",\"fasha:sha\",\"Left\",\"37\",\"4\",\"10\",\"6A\",\"C1\",\"C\",\"82\"
\"\",\"\",\"approach-retreat\",\"231\",\"2917600\",\"0.0-231.0\",\"\",\"\",\"3-2\",\"4111\",\"40\",\"1\",\"Testing\",\"Stims/Figures/19-J-10-4.bmp\",\"va:shava\",\"Down\",\"40\",\"4\",\"11\",\"6A\",\"C1\",\"C\",\"83\"
\"\",\"\",\"approach-retreat\",\"232\",\"2923215\",\"0.0-232.0\",\"\",\"\",\"3-2\",\"4099\",\"40\",\"0\",\"Testing\",\"Stims/Figures/74-J-10-4.bmp\",\"fafa:sha\",\"Up\",\"38\",\"4\",\"12\",\"6A\",\"C1\",\"C\",\"84\"
\"\",\"\",\"approach-retreat\",\"233\",\"2928879\",\"0.0-233.0\",\"\",\"\",\"3-2\",\"4149\",\"40\",\"1\",\"Testing\",\"Stims/Figures/86-J-0-1.bmp\",\"fa:fa:va\",\"Down\",\"40\",\"4\",\"13\",\"6A\",\"C1\",\"C\",\"85\"
\"\",\"\",\"approach-retreat\",\"234\",\"2934422\",\"0.0-234.0\",\"\",\"\",\"3-2\",\"4024\",\"40\",\"1\",\"Testing\",\"Stims/Figures/139-C-20-2.bmp\",\"sasa:za\",\"Up\",\"40\",\"4\",\"14\",\"6A\",\"C2\",\"C\",\"86\"
\"\",\"\",\"approach-retreat\",\"235\",\"2940040\",\"0.0-235.0\",\"\",\"\",\"3-2\",\"4101\",\"37\",\"0\",\"Testing\",\"Stims/Figures/7-C-20-4.bmp\",\"zasaza\",\"Left\",\"39\",\"4\",\"15\",\"6A\",\"C2\",\"C\",\"87\"
\"\",\"\",\"approach-retreat\",\"236\",\"2945763\",\"0.0-236.0\",\"\",\"\",\"3-2\",\"4206\",\"40\",\"1\",\"Testing\",\"Stims/Figures/44-C-30-3.bmp\",\"za:haza\",\"Up\",\"40\",\"4\",\"16\",\"6A\",\"C2\",\"C\",\"88\"
\"\",\"\",\"approach-retreat\",\"237\",\"2951427\",\"0.0-237.0\",\"\",\"\",\"3-2\",\"4147\",\"40\",\"1\",\"Testing\",\"Stims/Figures/71-C-30-1.bmp\",\"sasaza\",\"Up\",\"40\",\"4\",\"17\",\"6A\",\"C2\",\"C\",\"89\"
\"\",\"\",\"approach-retreat\",\"238\",\"2957168\",\"0.0-238.0\",\"\",\"\",\"3-2\",\"4226\",\"37\",\"1\",\"Testing\",\"Stims/Figures/7-J-10-4.bmp\",\"va:fa:va\",\"Left\",\"37\",\"4\",\"18\",\"6A\",\"C1\",\"C\",\"90\"
\"\",\"\",\"approach-retreat\",\"239\",\"2962950\",\"0.0-239.0\",\"\",\"\",\"3-2\",\"4264\",\"37\",\"0\",\"Testing\",\"Stims/Figures/144-J-10-3.bmp\",\"vafasha\",\"Right\",\"39\",\"4\",\"19\",\"6A\",\"C1\",\"C\",\"91\"
\"\",\"\",\"approach-retreat\",\"240\",\"2969055\",\"0.0-240.0\",\"\",\"\",\"3-2\",\"4586\",\"37\",\"0\",\"Testing\",\"Stims/Figures/118-C-20-2.bmp\",\"sahaza\",\"Left\",\"39\",\"4\",\"20\",\"6A\",\"C2\",\"C\",\"92\"
\"\",\"\",\"approach-retreat\",\"241\",\"2977931\",\"0.0-241.0\",\"\",\"\",\"3-2\",\"7358\",\"40\",\"1\",\"Testing\",\"Stims/Figures/100-J-10-3.bmp\",\"vafa:sha\",\"Down\",\"40\",\"4\",\"21\",\"6A\",\"C1\",\"C\",\"93\"
\"\",\"\",\"approach-retreat\",\"242\",\"2984675\",\"0.0-242.0\",\"\",\"\",\"3-2\",\"5224\",\"39\",\"0\",\"Testing\",\"Stims/Figures/19-C-20-4.bmp\",\"za:sa:ha\",\"Right\",\"37\",\"4\",\"22\",\"6A\",\"C2\",\"C\",\"94\"
\"\",\"\",\"approach-retreat\",\"243\",\"2990401\",\"0.0-243.0\",\"\",\"\",\"3-2\",\"4209\",\"40\",\"0\",\"Testing\",\"Stims/Figures/100-C-30-3.bmp\",\"sa:saha\",\"Down\",\"38\",\"4\",\"23\",\"6A\",\"C2\",\"C\",\"95\"
\"\",\"\",\"approach-retreat\",\"244\",\"2996076\",\"0.0-244.0\",\"\",\"\",\"3-2\",\"4156\",\"39\",\"1\",\"Testing\",\"Stims/Figures/139-J-0-2.bmp\",\"fa:shava\",\"Right\",\"39\",\"4\",\"24\",\"6A\",\"C1\",\"C\",\"96\"
\"1233235\",\"\",\"survey-text\",\"245\",\"4230296\",\"0.0-245.0\",\"\",\"{\"\"Q0\"\":\"\"1271/2017\"\"}\",\"\",\"\",\"\",\"\",\"\",\"\",\"\",\"\",\"\",\"\",\"\",\"\",\"\",\"\",\"\"
