\"rt\",\"key_press\",\"trial_type\",\"trial_index\",\"time_elapsed\",\"internal_node_id\",\"view_history\",\"responses\",\"Id\",\"Rt\",\"ResKeyCode\",\"ResCorr\",\"TrialType2\",\"Image\",\"Label\",\"Location\",\"CorrectResponse\",\"Block\",\"BlockTrial\",\"Condition\",\"LabelType\",\"Subcondition\",\"trialNum\"
\"21277\",\"32\",\"text\",\"0\",\"21282\",\"0.0-0.0-0.0\",\"\",\"\",\"\",\"\",\"\",\"\",\"\",\"\",\"\",\"\",\"\",\"\",\"\",\"\",\"\",\"\",\"\"
\"302447\",\"\",\"instructions\",\"1\",\"323733\",\"0.0-1.0\",\"[{\"\"page_index\"\":0,\"\"viewing_time\"\":302445}]\",\"\",\"\",\"\",\"\",\"\",\"\",\"\",\"\",\"\",\"\",\"\",\"\",\"\",\"\",\"\",\"\"
\"60363\",\"\",\"survey-multi-choice\",\"2\",\"384144\",\"0.0-2.0\",\"\",\"{\"\"Q0\"\":\"\"Da\"\",\"\"Q1\"\":\"\"Da\"\",\"\"Q2\"\":\"\"Da\"\",\"\"Q3\"\":\"\"Da\"\",\"\"Q4\"\":\"\"Da\"\",\"\"Q5\"\":\"\"Da\"\"}\",\"\",\"\",\"\",\"\",\"\",\"\",\"\",\"\",\"\",\"\",\"\",\"\",\"\",\"\",\"\"
\"\",\"\",\"bio\",\"3\",\"390184\",\"0.0-3.0\",\"\",\"{\"\"age\"\":\"\"19\"\",\"\"gender\"\":\"\"f\"\",\"\"specify\"\":\"\"\"\"}\",\"\",\"\",\"\",\"\",\"\",\"\",\"\",\"\",\"\",\"\",\"\",\"\",\"\",\"\",\"\"
\"\",\"\",\"approach-retreat\",\"4\",\"399450\",\"0.0-4.0\",\"\",\"\",\"3-3\",\"7726\",\"38\",\"0\",\"Training\",\"Stims/Figures/118-C-20-2.bmp\",\"ta:pata\",\"Down\",\"40\",\"1\",\"1\",\"2\",\"P\",\"J\",\"1\"
\"\",\"\",\"approach-retreat\",\"5\",\"406028\",\"0.0-5.0\",\"\",\"\",\"3-3\",\"5071\",\"37\",\"1\",\"Training\",\"Stims/Figures/102-J-10-4.bmp\",\"nama:la\",\"Right\",\"37\",\"1\",\"2\",\"2\",\"S\",\"J\",\"2\"
\"\",\"\",\"approach-retreat\",\"6\",\"414072\",\"0.0-6.0\",\"\",\"\",\"3-3\",\"6528\",\"39\",\"0\",\"Training\",\"Stims/Figures/57-J-0-1.bmp\",\"nama:la\",\"Right\",\"37\",\"1\",\"3\",\"2\",\"S\",\"J\",\"3\"
\"\",\"\",\"approach-retreat\",\"7\",\"421280\",\"0.0-7.0\",\"\",\"\",\"3-3\",\"5699\",\"38\",\"1\",\"Training\",\"Stims/Figures/57-C-30-1.bmp\",\"ta:pata\",\"Up\",\"38\",\"1\",\"4\",\"2\",\"P\",\"J\",\"4\"
\"\",\"\",\"approach-retreat\",\"8\",\"427174\",\"0.0-8.0\",\"\",\"\",\"3-3\",\"4382\",\"38\",\"1\",\"Training\",\"Stims/Figures/111-J-10-3.bmp\",\"nama:la\",\"Down\",\"38\",\"1\",\"5\",\"2\",\"S\",\"J\",\"5\"
\"\",\"\",\"approach-retreat\",\"9\",\"433045\",\"0.0-9.0\",\"\",\"\",\"3-3\",\"4362\",\"39\",\"0\",\"Training\",\"Stims/Figures/19-C-20-4.bmp\",\"ta:pata\",\"Left\",\"37\",\"1\",\"6\",\"2\",\"P\",\"J\",\"6\"
\"\",\"\",\"approach-retreat\",\"10\",\"438823\",\"0.0-10.0\",\"\",\"\",\"3-3\",\"4269\",\"38\",\"0\",\"Training\",\"Stims/Figures/118-J-0-2.bmp\",\"nama:la\",\"Up\",\"40\",\"1\",\"7\",\"2\",\"S\",\"J\",\"7\"
\"\",\"\",\"approach-retreat\",\"11\",\"444512\",\"0.0-11.0\",\"\",\"\",\"3-3\",\"4182\",\"39\",\"0\",\"Training\",\"Stims/Figures/85-C-20-2.bmp\",\"ta:pata\",\"Left\",\"37\",\"1\",\"8\",\"2\",\"P\",\"J\",\"8\"
\"\",\"\",\"approach-retreat\",\"12\",\"451622\",\"0.0-12.0\",\"\",\"\",\"3-3\",\"5603\",\"40\",\"1\",\"Training\",\"Stims/Figures/93-C-30-1.bmp\",\"ta:pata\",\"Down\",\"40\",\"1\",\"9\",\"2\",\"P\",\"J\",\"9\"
\"\",\"\",\"approach-retreat\",\"13\",\"457377\",\"0.0-13.0\",\"\",\"\",\"3-3\",\"4238\",\"38\",\"0\",\"Training\",\"Stims/Figures/85-J-0-2.bmp\",\"nama:la\",\"Up\",\"40\",\"1\",\"10\",\"2\",\"S\",\"J\",\"10\"
\"\",\"\",\"approach-retreat\",\"14\",\"464366\",\"0.0-14.0\",\"\",\"\",\"3-3\",\"5474\",\"37\",\"0\",\"Training\",\"Stims/Figures/102-C-20-4.bmp\",\"ta:pata\",\"Right\",\"39\",\"1\",\"11\",\"2\",\"P\",\"J\",\"11\"
\"\",\"\",\"approach-retreat\",\"15\",\"470485\",\"0.0-15.0\",\"\",\"\",\"3-3\",\"4610\",\"38\",\"0\",\"Training\",\"Stims/Figures/19-J-10-4.bmp\",\"nama:la\",\"Up\",\"40\",\"1\",\"12\",\"2\",\"S\",\"J\",\"12\"
\"\",\"\",\"approach-retreat\",\"16\",\"477000\",\"0.0-16.0\",\"\",\"\",\"3-3\",\"5004\",\"39\",\"0\",\"Training\",\"Stims/Figures/100-C-30-3.bmp\",\"ta:pata\",\"Left\",\"37\",\"1\",\"13\",\"2\",\"P\",\"J\",\"13\"
\"\",\"\",\"approach-retreat\",\"17\",\"483002\",\"0.0-17.0\",\"\",\"\",\"3-3\",\"4495\",\"37\",\"1\",\"Training\",\"Stims/Figures/111-C-30-3.bmp\",\"ta:pata\",\"Left\",\"37\",\"1\",\"14\",\"2\",\"P\",\"J\",\"14\"
\"\",\"\",\"approach-retreat\",\"18\",\"489600\",\"0.0-18.0\",\"\",\"\",\"3-3\",\"5087\",\"39\",\"0\",\"Training\",\"Stims/Figures/93-J-0-1.bmp\",\"nama:la\",\"Right\",\"37\",\"1\",\"15\",\"2\",\"S\",\"J\",\"15\"
\"\",\"\",\"approach-retreat\",\"19\",\"497017\",\"0.0-19.0\",\"\",\"\",\"3-3\",\"5910\",\"38\",\"1\",\"Training\",\"Stims/Figures/100-J-10-3.bmp\",\"nama:la\",\"Down\",\"38\",\"1\",\"16\",\"2\",\"S\",\"J\",\"16\"
\"\",\"\",\"approach-retreat\",\"20\",\"502498\",\"0.0-20.0\",\"\",\"\",\"3-3\",\"3968\",\"39\",\"0\",\"Training\",\"Stims/Figures/118-C-20-2.bmp\",\"ta:pata\",\"Left\",\"37\",\"2\",\"1\",\"2\",\"P\",\"J\",\"17\"
\"\",\"\",\"approach-retreat\",\"21\",\"508311\",\"0.0-21.0\",\"\",\"\",\"3-3\",\"4303\",\"38\",\"1\",\"Training\",\"Stims/Figures/93-J-0-1.bmp\",\"nama:la\",\"Down\",\"38\",\"2\",\"2\",\"2\",\"S\",\"J\",\"18\"
\"\",\"\",\"approach-retreat\",\"22\",\"514097\",\"0.0-22.0\",\"\",\"\",\"3-3\",\"4279\",\"40\",\"1\",\"Training\",\"Stims/Figures/111-J-10-3.bmp\",\"nama:la\",\"Up\",\"40\",\"2\",\"3\",\"2\",\"S\",\"J\",\"19\"
\"\",\"\",\"approach-retreat\",\"23\",\"520130\",\"0.0-23.0\",\"\",\"\",\"3-3\",\"4528\",\"40\",\"1\",\"Training\",\"Stims/Figures/102-C-20-4.bmp\",\"ta:pata\",\"Down\",\"40\",\"2\",\"4\",\"2\",\"P\",\"J\",\"20\"
\"\",\"\",\"approach-retreat\",\"24\",\"526948\",\"0.0-24.0\",\"\",\"\",\"3-3\",\"5292\",\"40\",\"1\",\"Training\",\"Stims/Figures/93-C-30-1.bmp\",\"ta:pata\",\"Down\",\"40\",\"2\",\"5\",\"2\",\"P\",\"J\",\"21\"
\"\",\"\",\"approach-retreat\",\"25\",\"532611\",\"0.0-25.0\",\"\",\"\",\"3-3\",\"4159\",\"37\",\"1\",\"Training\",\"Stims/Figures/102-J-10-4.bmp\",\"nama:la\",\"Right\",\"37\",\"2\",\"6\",\"2\",\"S\",\"J\",\"22\"
\"\",\"\",\"approach-retreat\",\"26\",\"538470\",\"0.0-26.0\",\"\",\"\",\"3-3\",\"4353\",\"40\",\"1\",\"Training\",\"Stims/Figures/19-J-10-4.bmp\",\"nama:la\",\"Up\",\"40\",\"2\",\"7\",\"2\",\"S\",\"J\",\"23\"
\"\",\"\",\"approach-retreat\",\"27\",\"544350\",\"0.0-27.0\",\"\",\"\",\"3-3\",\"4369\",\"39\",\"0\",\"Training\",\"Stims/Figures/100-C-30-3.bmp\",\"ta:pata\",\"Left\",\"37\",\"2\",\"8\",\"2\",\"P\",\"J\",\"24\"
\"\",\"\",\"approach-retreat\",\"28\",\"550823\",\"0.0-28.0\",\"\",\"\",\"3-3\",\"4960\",\"39\",\"0\",\"Training\",\"Stims/Figures/85-C-20-2.bmp\",\"ta:pata\",\"Left\",\"37\",\"2\",\"9\",\"2\",\"P\",\"J\",\"25\"
\"\",\"\",\"approach-retreat\",\"29\",\"556910\",\"0.0-29.0\",\"\",\"\",\"3-3\",\"4578\",\"37\",\"0\",\"Training\",\"Stims/Figures/111-C-30-3.bmp\",\"ta:pata\",\"Right\",\"39\",\"2\",\"10\",\"2\",\"P\",\"J\",\"26\"
\"\",\"\",\"approach-retreat\",\"30\",\"562515\",\"0.0-30.0\",\"\",\"\",\"3-3\",\"4101\",\"40\",\"1\",\"Training\",\"Stims/Figures/57-C-30-1.bmp\",\"ta:pata\",\"Down\",\"40\",\"2\",\"11\",\"2\",\"P\",\"J\",\"27\"
\"\",\"\",\"approach-retreat\",\"31\",\"569044\",\"0.0-31.0\",\"\",\"\",\"3-3\",\"5022\",\"39\",\"1\",\"Training\",\"Stims/Figures/19-C-20-4.bmp\",\"ta:pata\",\"Right\",\"39\",\"2\",\"12\",\"2\",\"P\",\"J\",\"28\"
\"\",\"\",\"approach-retreat\",\"32\",\"574750\",\"0.0-32.0\",\"\",\"\",\"3-3\",\"4200\",\"40\",\"1\",\"Training\",\"Stims/Figures/100-J-10-3.bmp\",\"nama:la\",\"Up\",\"40\",\"2\",\"13\",\"2\",\"S\",\"J\",\"29\"
\"\",\"\",\"approach-retreat\",\"33\",\"581021\",\"0.0-33.0\",\"\",\"\",\"3-3\",\"4759\",\"37\",\"0\",\"Training\",\"Stims/Figures/118-J-0-2.bmp\",\"nama:la\",\"Left\",\"39\",\"2\",\"14\",\"2\",\"S\",\"J\",\"30\"
\"\",\"\",\"approach-retreat\",\"34\",\"587394\",\"0.0-34.0\",\"\",\"\",\"3-3\",\"4866\",\"39\",\"0\",\"Training\",\"Stims/Figures/57-J-0-1.bmp\",\"nama:la\",\"Right\",\"37\",\"2\",\"15\",\"2\",\"S\",\"J\",\"31\"
\"\",\"\",\"approach-retreat\",\"35\",\"596213\",\"0.0-35.0\",\"\",\"\",\"3-3\",\"7311\",\"38\",\"0\",\"Training\",\"Stims/Figures/85-J-0-2.bmp\",\"nama:la\",\"Up\",\"40\",\"2\",\"16\",\"2\",\"S\",\"J\",\"32\"
\"\",\"\",\"approach-retreat\",\"36\",\"603178\",\"0.0-36.0\",\"\",\"\",\"3-3\",\"5461\",\"37\",\"1\",\"Training\",\"Stims/Figures/19-C-20-4.bmp\",\"ta:pata\",\"Left\",\"37\",\"3\",\"1\",\"2\",\"P\",\"J\",\"33\"
\"\",\"\",\"approach-retreat\",\"37\",\"610280\",\"0.0-37.0\",\"\",\"\",\"3-3\",\"5571\",\"38\",\"0\",\"Training\",\"Stims/Figures/111-J-10-3.bmp\",\"nama:la\",\"Up\",\"40\",\"3\",\"2\",\"2\",\"S\",\"J\",\"34\"
\"\",\"\",\"approach-retreat\",\"38\",\"616714\",\"0.0-38.0\",\"\",\"\",\"3-3\",\"4930\",\"40\",\"0\",\"Training\",\"Stims/Figures/118-J-0-2.bmp\",\"nama:la\",\"Down\",\"38\",\"3\",\"3\",\"2\",\"S\",\"J\",\"35\"
\"\",\"\",\"approach-retreat\",\"39\",\"622530\",\"0.0-39.0\",\"\",\"\",\"3-3\",\"4305\",\"39\",\"0\",\"Training\",\"Stims/Figures/111-C-30-3.bmp\",\"ta:pata\",\"Left\",\"37\",\"3\",\"4\",\"2\",\"P\",\"J\",\"36\"
\"\",\"\",\"approach-retreat\",\"40\",\"628365\",\"0.0-40.0\",\"\",\"\",\"3-3\",\"4328\",\"38\",\"1\",\"Training\",\"Stims/Figures/93-C-30-1.bmp\",\"ta:pata\",\"Up\",\"38\",\"3\",\"5\",\"2\",\"P\",\"J\",\"37\"
\"\",\"\",\"approach-retreat\",\"41\",\"634200\",\"0.0-41.0\",\"\",\"\",\"3-3\",\"4322\",\"37\",\"0\",\"Training\",\"Stims/Figures/102-C-20-4.bmp\",\"ta:pata\",\"Right\",\"39\",\"3\",\"6\",\"2\",\"P\",\"J\",\"38\"
\"\",\"\",\"approach-retreat\",\"42\",\"644261\",\"0.0-42.0\",\"\",\"\",\"3-3\",\"8551\",\"40\",\"0\",\"Training\",\"Stims/Figures/102-J-10-4.bmp\",\"nama:la\",\"Down\",\"38\",\"3\",\"7\",\"2\",\"S\",\"J\",\"39\"
\"\",\"\",\"approach-retreat\",\"43\",\"651650\",\"0.0-43.0\",\"\",\"\",\"3-3\",\"5880\",\"37\",\"0\",\"Training\",\"Stims/Figures/118-C-20-2.bmp\",\"ta:pata\",\"Right\",\"39\",\"3\",\"8\",\"2\",\"P\",\"J\",\"40\"
\"\",\"\",\"approach-retreat\",\"44\",\"657666\",\"0.0-44.0\",\"\",\"\",\"3-3\",\"4509\",\"37\",\"0\",\"Training\",\"Stims/Figures/57-J-0-1.bmp\",\"nama:la\",\"Left\",\"39\",\"3\",\"9\",\"2\",\"S\",\"J\",\"41\"
\"\",\"\",\"approach-retreat\",\"45\",\"663642\",\"0.0-45.0\",\"\",\"\",\"3-3\",\"4470\",\"38\",\"0\",\"Training\",\"Stims/Figures/93-J-0-1.bmp\",\"nama:la\",\"Up\",\"40\",\"3\",\"10\",\"2\",\"S\",\"J\",\"42\"
\"\",\"\",\"approach-retreat\",\"46\",\"669642\",\"0.0-46.0\",\"\",\"\",\"3-3\",\"4496\",\"40\",\"1\",\"Training\",\"Stims/Figures/57-C-30-1.bmp\",\"ta:pata\",\"Down\",\"40\",\"3\",\"11\",\"2\",\"P\",\"J\",\"43\"
\"\",\"\",\"approach-retreat\",\"47\",\"676243\",\"0.0-47.0\",\"\",\"\",\"3-3\",\"5095\",\"39\",\"1\",\"Training\",\"Stims/Figures/100-C-30-3.bmp\",\"ta:pata\",\"Right\",\"39\",\"3\",\"12\",\"2\",\"P\",\"J\",\"44\"
\"\",\"\",\"approach-retreat\",\"48\",\"682587\",\"0.0-48.0\",\"\",\"\",\"3-3\",\"4841\",\"39\",\"1\",\"Training\",\"Stims/Figures/19-J-10-4.bmp\",\"nama:la\",\"Left\",\"39\",\"3\",\"13\",\"2\",\"S\",\"J\",\"45\"
\"\",\"\",\"approach-retreat\",\"49\",\"688805\",\"0.0-49.0\",\"\",\"\",\"3-3\",\"4714\",\"38\",\"1\",\"Training\",\"Stims/Figures/85-J-0-2.bmp\",\"nama:la\",\"Down\",\"38\",\"3\",\"14\",\"2\",\"S\",\"J\",\"46\"
\"\",\"\",\"approach-retreat\",\"50\",\"694759\",\"0.0-50.0\",\"\",\"\",\"3-3\",\"4449\",\"38\",\"1\",\"Training\",\"Stims/Figures/85-C-20-2.bmp\",\"ta:pata\",\"Up\",\"38\",\"3\",\"15\",\"2\",\"P\",\"J\",\"47\"
\"\",\"\",\"approach-retreat\",\"51\",\"700369\",\"0.0-51.0\",\"\",\"\",\"3-3\",\"4105\",\"37\",\"1\",\"Training\",\"Stims/Figures/100-J-10-3.bmp\",\"nama:la\",\"Right\",\"37\",\"3\",\"16\",\"2\",\"S\",\"J\",\"48\"
\"\",\"\",\"approach-retreat\",\"52\",\"706562\",\"0.0-52.0\",\"\",\"\",\"3-3\",\"4688\",\"38\",\"1\",\"Training\",\"Stims/Figures/100-C-30-3.bmp\",\"ta:pata\",\"Up\",\"38\",\"4\",\"1\",\"2\",\"P\",\"J\",\"49\"
\"\",\"\",\"approach-retreat\",\"53\",\"712205\",\"0.0-53.0\",\"\",\"\",\"3-3\",\"4136\",\"39\",\"1\",\"Training\",\"Stims/Figures/102-C-20-4.bmp\",\"ta:pata\",\"Right\",\"39\",\"4\",\"2\",\"2\",\"P\",\"J\",\"50\"
\"\",\"\",\"approach-retreat\",\"54\",\"718453\",\"0.0-54.0\",\"\",\"\",\"3-3\",\"4745\",\"37\",\"1\",\"Training\",\"Stims/Figures/100-J-10-3.bmp\",\"nama:la\",\"Right\",\"37\",\"4\",\"3\",\"2\",\"S\",\"J\",\"51\"
\"\",\"\",\"approach-retreat\",\"55\",\"725514\",\"0.0-55.0\",\"\",\"\",\"3-3\",\"5551\",\"40\",\"0\",\"Training\",\"Stims/Figures/118-J-0-2.bmp\",\"nama:la\",\"Down\",\"38\",\"4\",\"4\",\"2\",\"S\",\"J\",\"52\"
\"\",\"\",\"approach-retreat\",\"56\",\"731446\",\"0.0-56.0\",\"\",\"\",\"3-3\",\"4429\",\"38\",\"1\",\"Training\",\"Stims/Figures/111-C-30-3.bmp\",\"ta:pata\",\"Up\",\"38\",\"4\",\"5\",\"2\",\"P\",\"J\",\"53\"
\"\",\"\",\"approach-retreat\",\"57\",\"737217\",\"0.0-57.0\",\"\",\"\",\"3-3\",\"4265\",\"37\",\"1\",\"Training\",\"Stims/Figures/118-C-20-2.bmp\",\"ta:pata\",\"Left\",\"37\",\"4\",\"6\",\"2\",\"P\",\"J\",\"54\"
\"\",\"\",\"approach-retreat\",\"58\",\"742811\",\"0.0-58.0\",\"\",\"\",\"3-3\",\"4088\",\"37\",\"1\",\"Training\",\"Stims/Figures/102-J-10-4.bmp\",\"nama:la\",\"Right\",\"37\",\"4\",\"7\",\"2\",\"S\",\"J\",\"55\"
\"\",\"\",\"approach-retreat\",\"59\",\"748621\",\"0.0-59.0\",\"\",\"\",\"3-3\",\"4306\",\"38\",\"1\",\"Training\",\"Stims/Figures/85-J-0-2.bmp\",\"nama:la\",\"Down\",\"38\",\"4\",\"8\",\"2\",\"S\",\"J\",\"56\"
\"\",\"\",\"approach-retreat\",\"60\",\"754982\",\"0.0-60.0\",\"\",\"\",\"3-3\",\"4855\",\"38\",\"1\",\"Training\",\"Stims/Figures/57-C-30-1.bmp\",\"ta:pata\",\"Up\",\"38\",\"4\",\"9\",\"2\",\"P\",\"J\",\"57\"
\"\",\"\",\"approach-retreat\",\"61\",\"763425\",\"0.0-61.0\",\"\",\"\",\"3-3\",\"6939\",\"39\",\"1\",\"Training\",\"Stims/Figures/93-C-30-1.bmp\",\"ta:pata\",\"Right\",\"39\",\"4\",\"10\",\"2\",\"P\",\"J\",\"58\"
\"\",\"\",\"approach-retreat\",\"62\",\"769491\",\"0.0-62.0\",\"\",\"\",\"3-3\",\"4560\",\"40\",\"1\",\"Training\",\"Stims/Figures/93-J-0-1.bmp\",\"nama:la\",\"Up\",\"40\",\"4\",\"11\",\"2\",\"S\",\"J\",\"59\"
\"\",\"\",\"approach-retreat\",\"63\",\"776881\",\"0.0-63.0\",\"\",\"\",\"3-3\",\"5873\",\"40\",\"1\",\"Training\",\"Stims/Figures/85-C-20-2.bmp\",\"ta:pata\",\"Down\",\"40\",\"4\",\"12\",\"2\",\"P\",\"J\",\"60\"
\"\",\"\",\"approach-retreat\",\"64\",\"782644\",\"0.0-64.0\",\"\",\"\",\"3-3\",\"4255\",\"37\",\"1\",\"Training\",\"Stims/Figures/19-C-20-4.bmp\",\"ta:pata\",\"Left\",\"37\",\"4\",\"13\",\"2\",\"P\",\"J\",\"61\"
\"\",\"\",\"approach-retreat\",\"65\",\"789851\",\"0.0-65.0\",\"\",\"\",\"3-3\",\"5703\",\"38\",\"1\",\"Training\",\"Stims/Figures/57-J-0-1.bmp\",\"nama:la\",\"Down\",\"38\",\"4\",\"14\",\"2\",\"S\",\"J\",\"62\"
\"\",\"\",\"approach-retreat\",\"66\",\"795764\",\"0.0-66.0\",\"\",\"\",\"3-3\",\"4406\",\"39\",\"1\",\"Training\",\"Stims/Figures/19-J-10-4.bmp\",\"nama:la\",\"Left\",\"39\",\"4\",\"15\",\"2\",\"S\",\"J\",\"63\"
\"\",\"\",\"approach-retreat\",\"67\",\"801965\",\"0.0-67.0\",\"\",\"\",\"3-3\",\"4696\",\"39\",\"1\",\"Training\",\"Stims/Figures/111-J-10-3.bmp\",\"nama:la\",\"Left\",\"39\",\"4\",\"16\",\"2\",\"S\",\"J\",\"64\"
\"\",\"\",\"approach-retreat\",\"68\",\"807713\",\"0.0-68.0\",\"\",\"\",\"3-3\",\"4241\",\"40\",\"1\",\"Training\",\"Stims/Figures/93-J-0-1.bmp\",\"nama:la\",\"Up\",\"40\",\"5\",\"1\",\"2\",\"S\",\"J\",\"65\"
\"\",\"\",\"approach-retreat\",\"69\",\"813521\",\"0.0-69.0\",\"\",\"\",\"3-3\",\"4305\",\"38\",\"1\",\"Training\",\"Stims/Figures/85-J-0-2.bmp\",\"nama:la\",\"Down\",\"38\",\"5\",\"2\",\"2\",\"S\",\"J\",\"66\"
\"\",\"\",\"approach-retreat\",\"70\",\"821204\",\"0.0-70.0\",\"\",\"\",\"3-3\",\"6173\",\"38\",\"0\",\"Training\",\"Stims/Figures/111-C-30-3.bmp\",\"ta:pata\",\"Down\",\"40\",\"5\",\"3\",\"2\",\"P\",\"J\",\"67\"
\"\",\"\",\"approach-retreat\",\"71\",\"827057\",\"0.0-71.0\",\"\",\"\",\"3-3\",\"4348\",\"40\",\"1\",\"Training\",\"Stims/Figures/111-J-10-3.bmp\",\"nama:la\",\"Up\",\"40\",\"5\",\"4\",\"2\",\"S\",\"J\",\"68\"
\"\",\"\",\"approach-retreat\",\"72\",\"833083\",\"0.0-72.0\",\"\",\"\",\"3-3\",\"4512\",\"37\",\"1\",\"Training\",\"Stims/Figures/102-C-20-4.bmp\",\"ta:pata\",\"Left\",\"37\",\"5\",\"5\",\"2\",\"P\",\"J\",\"69\"
\"\",\"\",\"approach-retreat\",\"73\",\"842064\",\"0.0-73.0\",\"\",\"\",\"3-3\",\"7475\",\"37\",\"0\",\"Training\",\"Stims/Figures/57-C-30-1.bmp\",\"ta:pata\",\"Right\",\"39\",\"5\",\"6\",\"2\",\"P\",\"J\",\"70\"
\"\",\"\",\"approach-retreat\",\"74\",\"847615\",\"0.0-74.0\",\"\",\"\",\"3-3\",\"4048\",\"37\",\"1\",\"Training\",\"Stims/Figures/118-J-0-2.bmp\",\"nama:la\",\"Right\",\"37\",\"5\",\"7\",\"2\",\"S\",\"J\",\"71\"
\"\",\"\",\"approach-retreat\",\"75\",\"853499\",\"0.0-75.0\",\"\",\"\",\"3-3\",\"4379\",\"38\",\"1\",\"Training\",\"Stims/Figures/102-J-10-4.bmp\",\"nama:la\",\"Down\",\"38\",\"5\",\"8\",\"2\",\"S\",\"J\",\"72\"
\"\",\"\",\"approach-retreat\",\"76\",\"859610\",\"0.0-76.0\",\"\",\"\",\"3-3\",\"4606\",\"39\",\"1\",\"Training\",\"Stims/Figures/85-C-20-2.bmp\",\"ta:pata\",\"Right\",\"39\",\"5\",\"9\",\"2\",\"P\",\"J\",\"73\"
\"\",\"\",\"approach-retreat\",\"77\",\"865473\",\"0.0-77.0\",\"\",\"\",\"3-3\",\"4358\",\"37\",\"1\",\"Training\",\"Stims/Figures/118-C-20-2.bmp\",\"ta:pata\",\"Left\",\"37\",\"5\",\"10\",\"2\",\"P\",\"J\",\"74\"
\"\",\"\",\"approach-retreat\",\"78\",\"871127\",\"0.0-78.0\",\"\",\"\",\"3-3\",\"4150\",\"39\",\"1\",\"Training\",\"Stims/Figures/19-J-10-4.bmp\",\"nama:la\",\"Left\",\"39\",\"5\",\"11\",\"2\",\"S\",\"J\",\"75\"
\"\",\"\",\"approach-retreat\",\"79\",\"877535\",\"0.0-79.0\",\"\",\"\",\"3-3\",\"4904\",\"37\",\"1\",\"Training\",\"Stims/Figures/57-J-0-1.bmp\",\"nama:la\",\"Right\",\"37\",\"5\",\"12\",\"2\",\"S\",\"J\",\"76\"
\"\",\"\",\"approach-retreat\",\"80\",\"884128\",\"0.0-80.0\",\"\",\"\",\"3-3\",\"5088\",\"38\",\"1\",\"Training\",\"Stims/Figures/19-C-20-4.bmp\",\"ta:pata\",\"Up\",\"38\",\"5\",\"13\",\"2\",\"P\",\"J\",\"77\"
\"\",\"\",\"approach-retreat\",\"81\",\"890464\",\"0.0-81.0\",\"\",\"\",\"3-3\",\"4832\",\"40\",\"1\",\"Training\",\"Stims/Figures/100-C-30-3.bmp\",\"ta:pata\",\"Down\",\"40\",\"5\",\"14\",\"2\",\"P\",\"J\",\"78\"
\"\",\"\",\"approach-retreat\",\"82\",\"896914\",\"0.0-82.0\",\"\",\"\",\"3-3\",\"4945\",\"40\",\"1\",\"Training\",\"Stims/Figures/100-J-10-3.bmp\",\"nama:la\",\"Up\",\"40\",\"5\",\"15\",\"2\",\"S\",\"J\",\"79\"
\"\",\"\",\"approach-retreat\",\"83\",\"902967\",\"0.0-83.0\",\"\",\"\",\"3-3\",\"4545\",\"39\",\"0\",\"Training\",\"Stims/Figures/93-C-30-1.bmp\",\"ta:pata\",\"Left\",\"37\",\"5\",\"16\",\"2\",\"P\",\"J\",\"80\"
\"\",\"\",\"approach-retreat\",\"84\",\"910256\",\"0.0-84.0\",\"\",\"\",\"3-3\",\"5785\",\"40\",\"1\",\"Training\",\"Stims/Figures/111-J-10-3.bmp\",\"nama:la\",\"Up\",\"40\",\"6\",\"1\",\"2\",\"S\",\"J\",\"81\"
\"\",\"\",\"approach-retreat\",\"85\",\"916115\",\"0.0-85.0\",\"\",\"\",\"3-3\",\"4354\",\"40\",\"1\",\"Training\",\"Stims/Figures/93-J-0-1.bmp\",\"nama:la\",\"Up\",\"40\",\"6\",\"2\",\"2\",\"S\",\"J\",\"82\"
\"\",\"\",\"approach-retreat\",\"86\",\"923074\",\"0.0-86.0\",\"\",\"\",\"3-3\",\"5456\",\"38\",\"1\",\"Training\",\"Stims/Figures/57-J-0-1.bmp\",\"nama:la\",\"Down\",\"38\",\"6\",\"3\",\"2\",\"S\",\"J\",\"83\"
\"\",\"\",\"approach-retreat\",\"87\",\"930505\",\"0.0-87.0\",\"\",\"\",\"3-3\",\"5910\",\"40\",\"1\",\"Training\",\"Stims/Figures/102-C-20-4.bmp\",\"ta:pata\",\"Down\",\"40\",\"6\",\"4\",\"2\",\"P\",\"J\",\"84\"
\"\",\"\",\"approach-retreat\",\"88\",\"937856\",\"0.0-88.0\",\"\",\"\",\"3-3\",\"5844\",\"37\",\"1\",\"Training\",\"Stims/Figures/111-C-30-3.bmp\",\"ta:pata\",\"Left\",\"37\",\"6\",\"5\",\"2\",\"P\",\"J\",\"85\"
\"\",\"\",\"approach-retreat\",\"89\",\"945445\",\"0.0-89.0\",\"\",\"\",\"3-3\",\"6085\",\"40\",\"1\",\"Training\",\"Stims/Figures/19-J-10-4.bmp\",\"nama:la\",\"Up\",\"40\",\"6\",\"6\",\"2\",\"S\",\"J\",\"86\"
\"\",\"\",\"approach-retreat\",\"90\",\"951924\",\"0.0-90.0\",\"\",\"\",\"3-3\",\"4976\",\"38\",\"1\",\"Training\",\"Stims/Figures/118-J-0-2.bmp\",\"nama:la\",\"Down\",\"38\",\"6\",\"7\",\"2\",\"S\",\"J\",\"87\"
\"\",\"\",\"approach-retreat\",\"91\",\"957783\",\"0.0-91.0\",\"\",\"\",\"3-3\",\"4352\",\"39\",\"1\",\"Training\",\"Stims/Figures/100-C-30-3.bmp\",\"ta:pata\",\"Right\",\"39\",\"6\",\"8\",\"2\",\"P\",\"J\",\"88\"
\"\",\"\",\"approach-retreat\",\"92\",\"965150\",\"0.0-92.0\",\"\",\"\",\"3-3\",\"5864\",\"39\",\"1\",\"Training\",\"Stims/Figures/93-C-30-1.bmp\",\"ta:pata\",\"Right\",\"39\",\"6\",\"9\",\"2\",\"P\",\"J\",\"89\"
\"\",\"\",\"approach-retreat\",\"93\",\"971512\",\"0.0-93.0\",\"\",\"\",\"3-3\",\"4858\",\"37\",\"1\",\"Training\",\"Stims/Figures/57-C-30-1.bmp\",\"ta:pata\",\"Left\",\"37\",\"6\",\"10\",\"2\",\"P\",\"J\",\"90\"
\"\",\"\",\"approach-retreat\",\"94\",\"977632\",\"0.0-94.0\",\"\",\"\",\"3-3\",\"4615\",\"37\",\"1\",\"Training\",\"Stims/Figures/102-J-10-4.bmp\",\"nama:la\",\"Right\",\"37\",\"6\",\"11\",\"2\",\"S\",\"J\",\"91\"
\"\",\"\",\"approach-retreat\",\"95\",\"984121\",\"0.0-95.0\",\"\",\"\",\"3-3\",\"4983\",\"37\",\"1\",\"Training\",\"Stims/Figures/19-C-20-4.bmp\",\"ta:pata\",\"Left\",\"37\",\"6\",\"12\",\"2\",\"P\",\"J\",\"92\"
\"\",\"\",\"approach-retreat\",\"96\",\"990321\",\"0.0-96.0\",\"\",\"\",\"3-3\",\"4696\",\"37\",\"1\",\"Training\",\"Stims/Figures/85-J-0-2.bmp\",\"nama:la\",\"Right\",\"37\",\"6\",\"13\",\"2\",\"S\",\"J\",\"93\"
\"\",\"\",\"approach-retreat\",\"97\",\"996940\",\"0.0-97.0\",\"\",\"\",\"3-3\",\"5113\",\"38\",\"1\",\"Training\",\"Stims/Figures/85-C-20-2.bmp\",\"ta:pata\",\"Up\",\"38\",\"6\",\"14\",\"2\",\"P\",\"J\",\"94\"
\"\",\"\",\"approach-retreat\",\"98\",\"1004066\",\"0.0-98.0\",\"\",\"\",\"3-3\",\"5621\",\"39\",\"1\",\"Training\",\"Stims/Figures/100-J-10-3.bmp\",\"nama:la\",\"Left\",\"39\",\"6\",\"15\",\"2\",\"S\",\"J\",\"95\"
\"\",\"\",\"approach-retreat\",\"99\",\"1009937\",\"0.0-99.0\",\"\",\"\",\"3-3\",\"4368\",\"40\",\"1\",\"Training\",\"Stims/Figures/118-C-20-2.bmp\",\"ta:pata\",\"Down\",\"40\",\"6\",\"16\",\"2\",\"P\",\"J\",\"96\"
\"\",\"\",\"approach-retreat\",\"100\",\"1015804\",\"0.0-100.0\",\"\",\"\",\"3-3\",\"4354\",\"37\",\"0\",\"Training\",\"Stims/Figures/19-J-10-4.bmp\",\"nama:la\",\"Left\",\"39\",\"7\",\"1\",\"2\",\"S\",\"J\",\"97\"
\"\",\"\",\"approach-retreat\",\"101\",\"1021342\",\"0.0-101.0\",\"\",\"\",\"3-3\",\"4034\",\"37\",\"1\",\"Training\",\"Stims/Figures/100-C-30-3.bmp\",\"ta:pata\",\"Left\",\"37\",\"7\",\"2\",\"2\",\"P\",\"J\",\"98\"
\"\",\"\",\"approach-retreat\",\"102\",\"1027384\",\"0.0-102.0\",\"\",\"\",\"3-3\",\"4538\",\"39\",\"1\",\"Training\",\"Stims/Figures/118-J-0-2.bmp\",\"nama:la\",\"Left\",\"39\",\"7\",\"3\",\"2\",\"S\",\"J\",\"99\"
\"\",\"\",\"approach-retreat\",\"103\",\"1035604\",\"0.0-103.0\",\"\",\"\",\"3-3\",\"6716\",\"39\",\"1\",\"Training\",\"Stims/Figures/85-C-20-2.bmp\",\"ta:pata\",\"Right\",\"39\",\"7\",\"4\",\"2\",\"P\",\"J\",\"100\"
\"\",\"\",\"approach-retreat\",\"104\",\"1041957\",\"0.0-104.0\",\"\",\"\",\"3-3\",\"4847\",\"40\",\"1\",\"Training\",\"Stims/Figures/102-C-20-4.bmp\",\"ta:pata\",\"Down\",\"40\",\"7\",\"5\",\"2\",\"P\",\"J\",\"101\"
\"\",\"\",\"approach-retreat\",\"105\",\"1048102\",\"0.0-105.0\",\"\",\"\",\"3-3\",\"4641\",\"39\",\"1\",\"Training\",\"Stims/Figures/118-C-20-2.bmp\",\"ta:pata\",\"Right\",\"39\",\"7\",\"6\",\"2\",\"P\",\"J\",\"102\"
\"\",\"\",\"approach-retreat\",\"106\",\"1054240\",\"0.0-106.0\",\"\",\"\",\"3-3\",\"4632\",\"40\",\"1\",\"Training\",\"Stims/Figures/102-J-10-4.bmp\",\"nama:la\",\"Up\",\"40\",\"7\",\"7\",\"2\",\"S\",\"J\",\"103\"
\"\",\"\",\"approach-retreat\",\"107\",\"1059849\",\"0.0-107.0\",\"\",\"\",\"3-3\",\"4106\",\"40\",\"1\",\"Training\",\"Stims/Figures/93-J-0-1.bmp\",\"nama:la\",\"Up\",\"40\",\"7\",\"8\",\"2\",\"S\",\"J\",\"104\"
\"\",\"\",\"approach-retreat\",\"108\",\"1065637\",\"0.0-108.0\",\"\",\"\",\"3-3\",\"4281\",\"40\",\"1\",\"Training\",\"Stims/Figures/93-C-30-1.bmp\",\"ta:pata\",\"Down\",\"40\",\"7\",\"9\",\"2\",\"P\",\"J\",\"105\"
\"\",\"\",\"approach-retreat\",\"109\",\"1071765\",\"0.0-109.0\",\"\",\"\",\"3-3\",\"4626\",\"39\",\"1\",\"Training\",\"Stims/Figures/19-C-20-4.bmp\",\"ta:pata\",\"Right\",\"39\",\"7\",\"10\",\"2\",\"P\",\"J\",\"106\"
\"\",\"\",\"approach-retreat\",\"110\",\"1078405\",\"0.0-110.0\",\"\",\"\",\"3-3\",\"5135\",\"40\",\"1\",\"Training\",\"Stims/Figures/85-J-0-2.bmp\",\"nama:la\",\"Up\",\"40\",\"7\",\"11\",\"2\",\"S\",\"J\",\"107\"
\"\",\"\",\"approach-retreat\",\"111\",\"1088151\",\"0.0-111.0\",\"\",\"\",\"3-3\",\"8240\",\"37\",\"1\",\"Training\",\"Stims/Figures/100-J-10-3.bmp\",\"nama:la\",\"Right\",\"37\",\"7\",\"12\",\"2\",\"S\",\"J\",\"108\"
\"\",\"\",\"approach-retreat\",\"112\",\"1093865\",\"0.0-112.0\",\"\",\"\",\"3-3\",\"4209\",\"40\",\"1\",\"Training\",\"Stims/Figures/111-C-30-3.bmp\",\"ta:pata\",\"Down\",\"40\",\"7\",\"13\",\"2\",\"P\",\"J\",\"109\"
\"\",\"\",\"approach-retreat\",\"113\",\"1099994\",\"0.0-113.0\",\"\",\"\",\"3-3\",\"4624\",\"37\",\"1\",\"Training\",\"Stims/Figures/57-C-30-1.bmp\",\"ta:pata\",\"Left\",\"37\",\"7\",\"14\",\"2\",\"P\",\"J\",\"110\"
\"\",\"\",\"approach-retreat\",\"114\",\"1106562\",\"0.0-114.0\",\"\",\"\",\"3-3\",\"5065\",\"38\",\"1\",\"Training\",\"Stims/Figures/111-J-10-3.bmp\",\"nama:la\",\"Down\",\"38\",\"7\",\"15\",\"2\",\"S\",\"J\",\"111\"
\"\",\"\",\"approach-retreat\",\"115\",\"1112253\",\"0.0-115.0\",\"\",\"\",\"3-3\",\"4186\",\"40\",\"1\",\"Training\",\"Stims/Figures/57-J-0-1.bmp\",\"nama:la\",\"Up\",\"40\",\"7\",\"16\",\"2\",\"S\",\"J\",\"112\"
\"\",\"\",\"approach-retreat\",\"116\",\"1118071\",\"0.0-116.0\",\"\",\"\",\"3-3\",\"4314\",\"40\",\"1\",\"Training\",\"Stims/Figures/111-J-10-3.bmp\",\"nama:la\",\"Up\",\"40\",\"8\",\"1\",\"2\",\"S\",\"J\",\"113\"
\"\",\"\",\"approach-retreat\",\"117\",\"1123841\",\"0.0-117.0\",\"\",\"\",\"3-3\",\"4266\",\"40\",\"1\",\"Training\",\"Stims/Figures/102-J-10-4.bmp\",\"nama:la\",\"Up\",\"40\",\"8\",\"2\",\"2\",\"S\",\"J\",\"114\"
\"\",\"\",\"approach-retreat\",\"118\",\"1130536\",\"0.0-118.0\",\"\",\"\",\"3-3\",\"5189\",\"38\",\"1\",\"Training\",\"Stims/Figures/100-C-30-3.bmp\",\"ta:pata\",\"Up\",\"38\",\"8\",\"3\",\"2\",\"P\",\"J\",\"115\"
\"\",\"\",\"approach-retreat\",\"119\",\"1136442\",\"0.0-119.0\",\"\",\"\",\"3-3\",\"4402\",\"40\",\"1\",\"Training\",\"Stims/Figures/102-C-20-4.bmp\",\"ta:pata\",\"Down\",\"40\",\"8\",\"4\",\"2\",\"P\",\"J\",\"116\"
\"\",\"\",\"approach-retreat\",\"120\",\"1142515\",\"0.0-120.0\",\"\",\"\",\"3-3\",\"4569\",\"37\",\"1\",\"Training\",\"Stims/Figures/57-C-30-1.bmp\",\"ta:pata\",\"Left\",\"37\",\"8\",\"5\",\"2\",\"P\",\"J\",\"117\"
\"\",\"\",\"approach-retreat\",\"121\",\"1148293\",\"0.0-121.0\",\"\",\"\",\"3-3\",\"4274\",\"40\",\"1\",\"Training\",\"Stims/Figures/93-C-30-1.bmp\",\"ta:pata\",\"Down\",\"40\",\"8\",\"6\",\"2\",\"P\",\"J\",\"118\"
\"\",\"\",\"approach-retreat\",\"122\",\"1154120\",\"0.0-122.0\",\"\",\"\",\"3-3\",\"4300\",\"38\",\"1\",\"Training\",\"Stims/Figures/85-J-0-2.bmp\",\"nama:la\",\"Down\",\"38\",\"8\",\"7\",\"2\",\"S\",\"J\",\"119\"
\"\",\"\",\"approach-retreat\",\"123\",\"1160465\",\"0.0-123.0\",\"\",\"\",\"3-3\",\"4840\",\"39\",\"1\",\"Training\",\"Stims/Figures/19-J-10-4.bmp\",\"nama:la\",\"Left\",\"39\",\"8\",\"8\",\"2\",\"S\",\"J\",\"120\"
\"\",\"\",\"approach-retreat\",\"124\",\"1167145\",\"0.0-124.0\",\"\",\"\",\"3-3\",\"5175\",\"38\",\"1\",\"Training\",\"Stims/Figures/57-J-0-1.bmp\",\"nama:la\",\"Down\",\"38\",\"8\",\"9\",\"2\",\"S\",\"J\",\"121\"
\"\",\"\",\"approach-retreat\",\"125\",\"1173058\",\"0.0-125.0\",\"\",\"\",\"3-3\",\"4410\",\"37\",\"1\",\"Training\",\"Stims/Figures/19-C-20-4.bmp\",\"ta:pata\",\"Left\",\"37\",\"8\",\"10\",\"2\",\"P\",\"J\",\"122\"
\"\",\"\",\"approach-retreat\",\"126\",\"1178885\",\"0.0-126.0\",\"\",\"\",\"3-3\",\"4322\",\"37\",\"1\",\"Training\",\"Stims/Figures/100-J-10-3.bmp\",\"nama:la\",\"Right\",\"37\",\"8\",\"11\",\"2\",\"S\",\"J\",\"123\"
\"\",\"\",\"approach-retreat\",\"127\",\"1184615\",\"0.0-127.0\",\"\",\"\",\"3-3\",\"4227\",\"37\",\"1\",\"Training\",\"Stims/Figures/111-C-30-3.bmp\",\"ta:pata\",\"Left\",\"37\",\"8\",\"12\",\"2\",\"P\",\"J\",\"124\"
\"\",\"\",\"approach-retreat\",\"128\",\"1190602\",\"0.0-128.0\",\"\",\"\",\"3-3\",\"4481\",\"39\",\"1\",\"Training\",\"Stims/Figures/118-C-20-2.bmp\",\"ta:pata\",\"Right\",\"39\",\"8\",\"13\",\"2\",\"P\",\"J\",\"125\"
\"\",\"\",\"approach-retreat\",\"129\",\"1196590\",\"0.0-129.0\",\"\",\"\",\"3-3\",\"4481\",\"40\",\"1\",\"Training\",\"Stims/Figures/118-J-0-2.bmp\",\"nama:la\",\"Up\",\"40\",\"8\",\"14\",\"2\",\"S\",\"J\",\"126\"
\"\",\"\",\"approach-retreat\",\"130\",\"1203232\",\"0.0-130.0\",\"\",\"\",\"3-3\",\"5131\",\"39\",\"1\",\"Training\",\"Stims/Figures/85-C-20-2.bmp\",\"ta:pata\",\"Right\",\"39\",\"8\",\"15\",\"2\",\"P\",\"J\",\"127\"
\"\",\"\",\"approach-retreat\",\"131\",\"1209499\",\"0.0-131.0\",\"\",\"\",\"3-3\",\"4761\",\"37\",\"1\",\"Training\",\"Stims/Figures/93-J-0-1.bmp\",\"nama:la\",\"Right\",\"37\",\"8\",\"16\",\"2\",\"S\",\"J\",\"128\"
\"\",\"\",\"approach-retreat\",\"132\",\"1215302\",\"0.0-132.0\",\"\",\"\",\"3-3\",\"4298\",\"39\",\"1\",\"Training\",\"Stims/Figures/57-C-30-1.bmp\",\"ta:pata\",\"Right\",\"39\",\"9\",\"1\",\"2\",\"P\",\"J\",\"129\"
\"\",\"\",\"approach-retreat\",\"133\",\"1222493\",\"0.0-133.0\",\"\",\"\",\"3-3\",\"5685\",\"40\",\"1\",\"Training\",\"Stims/Figures/85-J-0-2.bmp\",\"nama:la\",\"Up\",\"40\",\"9\",\"2\",\"2\",\"S\",\"J\",\"130\"
\"\",\"\",\"approach-retreat\",\"134\",\"1228652\",\"0.0-134.0\",\"\",\"\",\"3-3\",\"4653\",\"37\",\"1\",\"Training\",\"Stims/Figures/118-J-0-2.bmp\",\"nama:la\",\"Right\",\"37\",\"9\",\"3\",\"2\",\"S\",\"J\",\"131\"
\"\",\"\",\"approach-retreat\",\"135\",\"1234439\",\"0.0-135.0\",\"\",\"\",\"3-3\",\"4282\",\"37\",\"1\",\"Training\",\"Stims/Figures/100-C-30-3.bmp\",\"ta:pata\",\"Left\",\"37\",\"9\",\"4\",\"2\",\"P\",\"J\",\"132\"
\"\",\"\",\"approach-retreat\",\"136\",\"1240417\",\"0.0-136.0\",\"\",\"\",\"3-3\",\"4465\",\"37\",\"1\",\"Training\",\"Stims/Figures/93-J-0-1.bmp\",\"nama:la\",\"Right\",\"37\",\"9\",\"5\",\"2\",\"S\",\"J\",\"133\"
\"\",\"\",\"approach-retreat\",\"137\",\"1246157\",\"0.0-137.0\",\"\",\"\",\"3-3\",\"4195\",\"40\",\"1\",\"Training\",\"Stims/Figures/93-C-30-1.bmp\",\"ta:pata\",\"Down\",\"40\",\"9\",\"6\",\"2\",\"P\",\"J\",\"134\"
\"\",\"\",\"approach-retreat\",\"138\",\"1251653\",\"0.0-138.0\",\"\",\"\",\"3-3\",\"3991\",\"39\",\"1\",\"Training\",\"Stims/Figures/100-J-10-3.bmp\",\"nama:la\",\"Left\",\"39\",\"9\",\"7\",\"2\",\"S\",\"J\",\"135\"
\"\",\"\",\"approach-retreat\",\"139\",\"1257814\",\"0.0-139.0\",\"\",\"\",\"3-3\",\"4656\",\"40\",\"1\",\"Training\",\"Stims/Figures/57-J-0-1.bmp\",\"nama:la\",\"Up\",\"40\",\"9\",\"8\",\"2\",\"S\",\"J\",\"136\"
\"\",\"\",\"approach-retreat\",\"140\",\"1263475\",\"0.0-140.0\",\"\",\"\",\"3-3\",\"4156\",\"40\",\"1\",\"Training\",\"Stims/Figures/111-C-30-3.bmp\",\"ta:pata\",\"Down\",\"40\",\"9\",\"9\",\"2\",\"P\",\"J\",\"137\"
\"\",\"\",\"approach-retreat\",\"141\",\"1269347\",\"0.0-141.0\",\"\",\"\",\"3-3\",\"4366\",\"38\",\"1\",\"Training\",\"Stims/Figures/19-C-20-4.bmp\",\"ta:pata\",\"Up\",\"38\",\"9\",\"10\",\"2\",\"P\",\"J\",\"138\"
\"\",\"\",\"approach-retreat\",\"142\",\"1275828\",\"0.0-142.0\",\"\",\"\",\"3-3\",\"4976\",\"39\",\"1\",\"Training\",\"Stims/Figures/85-C-20-2.bmp\",\"ta:pata\",\"Right\",\"39\",\"9\",\"11\",\"2\",\"P\",\"J\",\"139\"
\"\",\"\",\"approach-retreat\",\"143\",\"1282316\",\"0.0-143.0\",\"\",\"\",\"3-3\",\"4981\",\"40\",\"1\",\"Training\",\"Stims/Figures/118-C-20-2.bmp\",\"ta:pata\",\"Down\",\"40\",\"9\",\"12\",\"2\",\"P\",\"J\",\"140\"
\"\",\"\",\"approach-retreat\",\"144\",\"1288497\",\"0.0-144.0\",\"\",\"\",\"3-3\",\"4675\",\"39\",\"1\",\"Training\",\"Stims/Figures/19-J-10-4.bmp\",\"nama:la\",\"Left\",\"39\",\"9\",\"13\",\"2\",\"S\",\"J\",\"141\"
\"\",\"\",\"approach-retreat\",\"145\",\"1294287\",\"0.0-145.0\",\"\",\"\",\"3-3\",\"4284\",\"37\",\"1\",\"Training\",\"Stims/Figures/102-C-20-4.bmp\",\"ta:pata\",\"Left\",\"37\",\"9\",\"14\",\"2\",\"P\",\"J\",\"142\"
\"\",\"\",\"approach-retreat\",\"146\",\"1300273\",\"0.0-146.0\",\"\",\"\",\"3-3\",\"4482\",\"38\",\"1\",\"Training\",\"Stims/Figures/111-J-10-3.bmp\",\"nama:la\",\"Down\",\"38\",\"9\",\"15\",\"2\",\"S\",\"J\",\"143\"
\"\",\"\",\"approach-retreat\",\"147\",\"1305734\",\"0.0-147.0\",\"\",\"\",\"3-3\",\"3956\",\"40\",\"1\",\"Training\",\"Stims/Figures/102-J-10-4.bmp\",\"nama:la\",\"Up\",\"40\",\"9\",\"16\",\"2\",\"S\",\"J\",\"144\"
\"16359\",\"\",\"instructions\",\"148\",\"1322094\",\"0.0-148.0\",\"[{\"\"page_index\"\":0,\"\"viewing_time\"\":16359}]\",\"\",\"\",\"\",\"\",\"\",\"\",\"\",\"\",\"\",\"\",\"\",\"\",\"\",\"\",\"\",\"\"
\"\",\"\",\"approach-retreat\",\"149\",\"1329312\",\"0.0-149.0\",\"\",\"\",\"3-3\",\"5684\",\"40\",\"1\",\"Testing\",\"Stims/Figures/71-C-30-1.bmp\",\"ta:pata\",\"Down\",\"40\",\"1\",\"1\",\"2\",\"P\",\"J\",\"1\"
\"\",\"\",\"approach-retreat\",\"150\",\"1336906\",\"0.0-150.0\",\"\",\"\",\"3-3\",\"6083\",\"39\",\"0\",\"Testing\",\"Stims/Figures/93-J-0-1.bmp\",\"nama:la\",\"Right\",\"37\",\"1\",\"2\",\"2\",\"S\",\"J\",\"2\"
\"\",\"\",\"approach-retreat\",\"151\",\"1343217\",\"0.0-151.0\",\"\",\"\",\"3-3\",\"4800\",\"39\",\"0\",\"Testing\",\"Stims/Figures/102-J-10-4.bmp\",\"nama:la\",\"Right\",\"37\",\"1\",\"3\",\"2\",\"S\",\"J\",\"3\"
\"\",\"\",\"approach-retreat\",\"152\",\"1349285\",\"0.0-152.0\",\"\",\"\",\"3-3\",\"4561\",\"38\",\"1\",\"Testing\",\"Stims/Figures/84-C-20-2.bmp\",\"ta:pata\",\"Up\",\"38\",\"1\",\"4\",\"2\",\"P\",\"J\",\"4\"
\"\",\"\",\"approach-retreat\",\"153\",\"1356052\",\"0.0-153.0\",\"\",\"\",\"3-3\",\"5264\",\"38\",\"0\",\"Testing\",\"Stims/Figures/100-J-10-3.bmp\",\"nama:la\",\"Up\",\"40\",\"1\",\"5\",\"2\",\"S\",\"J\",\"5\"
\"\",\"\",\"approach-retreat\",\"154\",\"1361839\",\"0.0-154.0\",\"\",\"\",\"3-3\",\"4283\",\"39\",\"1\",\"Testing\",\"Stims/Figures/102-C-20-4.bmp\",\"ta:pata\",\"Right\",\"39\",\"1\",\"6\",\"2\",\"P\",\"J\",\"6\"
\"\",\"\",\"approach-retreat\",\"155\",\"1367627\",\"0.0-155.0\",\"\",\"\",\"3-3\",\"4281\",\"38\",\"0\",\"Testing\",\"Stims/Figures/118-C-20-2.bmp\",\"ta:pata\",\"Down\",\"40\",\"1\",\"7\",\"2\",\"P\",\"J\",\"7\"
\"\",\"\",\"approach-retreat\",\"156\",\"1373912\",\"0.0-156.0\",\"\",\"\",\"3-3\",\"4772\",\"37\",\"0\",\"Testing\",\"Stims/Figures/57-J-0-1.bmp\",\"nama:la\",\"Left\",\"39\",\"1\",\"8\",\"2\",\"S\",\"J\",\"8\"
\"\",\"\",\"approach-retreat\",\"157\",\"1379551\",\"0.0-157.0\",\"\",\"\",\"3-3\",\"4129\",\"37\",\"1\",\"Testing\",\"Stims/Figures/87-C-20-4.bmp\",\"ta:pata\",\"Left\",\"37\",\"1\",\"9\",\"2\",\"P\",\"J\",\"9\"
\"\",\"\",\"approach-retreat\",\"158\",\"1385194\",\"0.0-158.0\",\"\",\"\",\"3-3\",\"4133\",\"38\",\"0\",\"Testing\",\"Stims/Figures/128-J-10-3.bmp\",\"nama:la\",\"Up\",\"40\",\"1\",\"10\",\"2\",\"S\",\"J\",\"10\"
\"\",\"\",\"approach-retreat\",\"159\",\"1392141\",\"0.0-159.0\",\"\",\"\",\"3-3\",\"5424\",\"38\",\"0\",\"Testing\",\"Stims/Figures/87-J-10-4.bmp\",\"nama:la\",\"Up\",\"40\",\"1\",\"11\",\"2\",\"S\",\"J\",\"11\"
\"\",\"\",\"approach-retreat\",\"160\",\"1397894\",\"0.0-160.0\",\"\",\"\",\"3-3\",\"4240\",\"40\",\"1\",\"Testing\",\"Stims/Figures/128-C-30-3.bmp\",\"ta:pata\",\"Down\",\"40\",\"1\",\"12\",\"2\",\"P\",\"J\",\"12\"
\"\",\"\",\"approach-retreat\",\"161\",\"1403500\",\"0.0-161.0\",\"\",\"\",\"3-3\",\"4099\",\"40\",\"1\",\"Testing\",\"Stims/Figures/19-C-20-4.bmp\",\"ta:pata\",\"Down\",\"40\",\"1\",\"13\",\"2\",\"P\",\"J\",\"13\"
\"\",\"\",\"approach-retreat\",\"162\",\"1409327\",\"0.0-162.0\",\"\",\"\",\"3-3\",\"4320\",\"37\",\"0\",\"Testing\",\"Stims/Figures/19-J-10-4.bmp\",\"nama:la\",\"Left\",\"39\",\"1\",\"14\",\"2\",\"S\",\"J\",\"14\"
\"\",\"\",\"approach-retreat\",\"163\",\"1414943\",\"0.0-163.0\",\"\",\"\",\"3-3\",\"4110\",\"38\",\"1\",\"Testing\",\"Stims/Figures/111-J-10-3.bmp\",\"nama:la\",\"Down\",\"38\",\"1\",\"15\",\"2\",\"S\",\"J\",\"15\"
\"\",\"\",\"approach-retreat\",\"164\",\"1420704\",\"0.0-164.0\",\"\",\"\",\"3-3\",\"4255\",\"38\",\"0\",\"Testing\",\"Stims/Figures/111-C-30-3.bmp\",\"ta:pata\",\"Down\",\"40\",\"1\",\"16\",\"2\",\"P\",\"J\",\"16\"
\"\",\"\",\"approach-retreat\",\"165\",\"1426733\",\"0.0-165.0\",\"\",\"\",\"3-3\",\"4515\",\"37\",\"1\",\"Testing\",\"Stims/Figures/118-J-0-2.bmp\",\"nama:la\",\"Right\",\"37\",\"1\",\"17\",\"2\",\"S\",\"J\",\"17\"
\"\",\"\",\"approach-retreat\",\"166\",\"1434340\",\"0.0-166.0\",\"\",\"\",\"3-3\",\"6083\",\"39\",\"1\",\"Testing\",\"Stims/Figures/85-C-20-2.bmp\",\"ta:pata\",\"Right\",\"39\",\"1\",\"18\",\"2\",\"P\",\"J\",\"18\"
\"\",\"\",\"approach-retreat\",\"167\",\"1439771\",\"0.0-167.0\",\"\",\"\",\"3-3\",\"3925\",\"39\",\"1\",\"Testing\",\"Stims/Figures/71-J-0-1.bmp\",\"nama:la\",\"Left\",\"39\",\"1\",\"19\",\"2\",\"S\",\"J\",\"19\"
\"\",\"\",\"approach-retreat\",\"168\",\"1445287\",\"0.0-168.0\",\"\",\"\",\"3-3\",\"4008\",\"37\",\"0\",\"Testing\",\"Stims/Figures/84-J-0-2.bmp\",\"nama:la\",\"Left\",\"39\",\"1\",\"20\",\"2\",\"S\",\"J\",\"20\"
\"\",\"\",\"approach-retreat\",\"169\",\"1452466\",\"0.0-169.0\",\"\",\"\",\"3-3\",\"5668\",\"38\",\"1\",\"Testing\",\"Stims/Figures/100-C-30-3.bmp\",\"ta:pata\",\"Up\",\"38\",\"1\",\"21\",\"2\",\"P\",\"J\",\"21\"
\"\",\"\",\"approach-retreat\",\"170\",\"1458056\",\"0.0-170.0\",\"\",\"\",\"3-3\",\"4077\",\"37\",\"1\",\"Testing\",\"Stims/Figures/57-C-30-1.bmp\",\"ta:pata\",\"Left\",\"37\",\"1\",\"22\",\"2\",\"P\",\"J\",\"22\"
\"\",\"\",\"approach-retreat\",\"171\",\"1466330\",\"0.0-171.0\",\"\",\"\",\"3-3\",\"6764\",\"37\",\"1\",\"Testing\",\"Stims/Figures/85-J-0-2.bmp\",\"nama:la\",\"Right\",\"37\",\"1\",\"23\",\"2\",\"S\",\"J\",\"23\"
\"\",\"\",\"approach-retreat\",\"172\",\"1472355\",\"0.0-172.0\",\"\",\"\",\"3-3\",\"4503\",\"38\",\"1\",\"Testing\",\"Stims/Figures/93-C-30-1.bmp\",\"ta:pata\",\"Up\",\"38\",\"1\",\"24\",\"2\",\"P\",\"J\",\"24\"
\"\",\"\",\"approach-retreat\",\"173\",\"1478115\",\"0.0-173.0\",\"\",\"\",\"3-3\",\"4250\",\"38\",\"1\",\"Testing\",\"Stims/Figures/128-C-30-3.bmp\",\"ta:pata\",\"Up\",\"38\",\"2\",\"1\",\"2\",\"P\",\"J\",\"25\"
\"\",\"\",\"approach-retreat\",\"174\",\"1483893\",\"0.0-174.0\",\"\",\"\",\"3-3\",\"4271\",\"39\",\"0\",\"Testing\",\"Stims/Figures/100-J-10-3.bmp\",\"nama:la\",\"Right\",\"37\",\"2\",\"2\",\"2\",\"S\",\"J\",\"26\"
\"\",\"\",\"approach-retreat\",\"175\",\"1491517\",\"0.0-175.0\",\"\",\"\",\"3-3\",\"6113\",\"38\",\"0\",\"Testing\",\"Stims/Figures/102-C-20-4.bmp\",\"ta:pata\",\"Down\",\"40\",\"2\",\"3\",\"2\",\"P\",\"J\",\"27\"
\"\",\"\",\"approach-retreat\",\"176\",\"1497312\",\"0.0-176.0\",\"\",\"\",\"3-3\",\"4285\",\"38\",\"1\",\"Testing\",\"Stims/Figures/19-C-20-4.bmp\",\"ta:pata\",\"Up\",\"38\",\"2\",\"4\",\"2\",\"P\",\"J\",\"28\"
\"\",\"\",\"approach-retreat\",\"177\",\"1505301\",\"0.0-177.0\",\"\",\"\",\"3-3\",\"6461\",\"37\",\"1\",\"Testing\",\"Stims/Figures/111-C-30-3.bmp\",\"ta:pata\",\"Left\",\"37\",\"2\",\"5\",\"2\",\"P\",\"J\",\"29\"
\"\",\"\",\"approach-retreat\",\"178\",\"1511950\",\"0.0-178.0\",\"\",\"\",\"3-3\",\"5144\",\"39\",\"0\",\"Testing\",\"Stims/Figures/93-J-0-1.bmp\",\"nama:la\",\"Right\",\"37\",\"2\",\"6\",\"2\",\"S\",\"J\",\"30\"
\"\",\"\",\"approach-retreat\",\"179\",\"1518068\",\"0.0-179.0\",\"\",\"\",\"3-3\",\"4610\",\"37\",\"0\",\"Testing\",\"Stims/Figures/57-J-0-1.bmp\",\"nama:la\",\"Left\",\"39\",\"2\",\"7\",\"2\",\"S\",\"J\",\"31\"
\"\",\"\",\"approach-retreat\",\"180\",\"1523881\",\"0.0-180.0\",\"\",\"\",\"3-3\",\"4308\",\"39\",\"1\",\"Testing\",\"Stims/Figures/87-C-20-4.bmp\",\"ta:pata\",\"Right\",\"39\",\"2\",\"8\",\"2\",\"P\",\"J\",\"32\"
\"\",\"\",\"approach-retreat\",\"181\",\"1530302\",\"0.0-181.0\",\"\",\"\",\"3-3\",\"4905\",\"38\",\"0\",\"Testing\",\"Stims/Figures/100-C-30-3.bmp\",\"ta:pata\",\"Down\",\"40\",\"2\",\"9\",\"2\",\"P\",\"J\",\"33\"
\"\",\"\",\"approach-retreat\",\"182\",\"1535860\",\"0.0-182.0\",\"\",\"\",\"3-3\",\"4046\",\"39\",\"0\",\"Testing\",\"Stims/Figures/85-J-0-2.bmp\",\"nama:la\",\"Right\",\"37\",\"2\",\"10\",\"2\",\"S\",\"J\",\"34\"
\"\",\"\",\"approach-retreat\",\"183\",\"1542134\",\"0.0-183.0\",\"\",\"\",\"3-3\",\"4770\",\"40\",\"1\",\"Testing\",\"Stims/Figures/102-J-10-4.bmp\",\"nama:la\",\"Up\",\"40\",\"2\",\"11\",\"2\",\"S\",\"J\",\"35\"
\"\",\"\",\"approach-retreat\",\"184\",\"1548705\",\"0.0-184.0\",\"\",\"\",\"3-3\",\"5064\",\"39\",\"0\",\"Testing\",\"Stims/Figures/85-C-20-2.bmp\",\"ta:pata\",\"Left\",\"37\",\"2\",\"12\",\"2\",\"P\",\"J\",\"36\"
\"\",\"\",\"approach-retreat\",\"185\",\"1556332\",\"0.0-185.0\",\"\",\"\",\"3-3\",\"6096\",\"38\",\"0\",\"Testing\",\"Stims/Figures/87-J-10-4.bmp\",\"nama:la\",\"Up\",\"40\",\"2\",\"13\",\"2\",\"S\",\"J\",\"37\"
\"\",\"\",\"approach-retreat\",\"186\",\"1562335\",\"0.0-186.0\",\"\",\"\",\"3-3\",\"4494\",\"39\",\"0\",\"Testing\",\"Stims/Figures/128-J-10-3.bmp\",\"nama:la\",\"Right\",\"37\",\"2\",\"14\",\"2\",\"S\",\"J\",\"38\"
\"\",\"\",\"approach-retreat\",\"187\",\"1567977\",\"0.0-187.0\",\"\",\"\",\"3-3\",\"4136\",\"37\",\"1\",\"Testing\",\"Stims/Figures/71-C-30-1.bmp\",\"ta:pata\",\"Left\",\"37\",\"2\",\"15\",\"2\",\"P\",\"J\",\"39\"
\"\",\"\",\"approach-retreat\",\"188\",\"1573466\",\"0.0-188.0\",\"\",\"\",\"3-3\",\"3975\",\"38\",\"1\",\"Testing\",\"Stims/Figures/93-C-30-1.bmp\",\"ta:pata\",\"Up\",\"38\",\"2\",\"16\",\"2\",\"P\",\"J\",\"40\"
\"\",\"\",\"approach-retreat\",\"189\",\"1579682\",\"0.0-189.0\",\"\",\"\",\"3-3\",\"4706\",\"40\",\"0\",\"Testing\",\"Stims/Figures/19-J-10-4.bmp\",\"nama:la\",\"Down\",\"38\",\"2\",\"17\",\"2\",\"S\",\"J\",\"41\"
\"\",\"\",\"approach-retreat\",\"190\",\"1585809\",\"0.0-190.0\",\"\",\"\",\"3-3\",\"4618\",\"37\",\"1\",\"Testing\",\"Stims/Figures/57-C-30-1.bmp\",\"ta:pata\",\"Left\",\"37\",\"2\",\"18\",\"2\",\"P\",\"J\",\"42\"
\"\",\"\",\"approach-retreat\",\"191\",\"1592725\",\"0.0-191.0\",\"\",\"\",\"3-3\",\"5412\",\"37\",\"0\",\"Testing\",\"Stims/Figures/111-J-10-3.bmp\",\"nama:la\",\"Left\",\"39\",\"2\",\"19\",\"2\",\"S\",\"J\",\"43\"
\"\",\"\",\"approach-retreat\",\"192\",\"1598287\",\"0.0-192.0\",\"\",\"\",\"3-3\",\"4047\",\"38\",\"1\",\"Testing\",\"Stims/Figures/84-C-20-2.bmp\",\"ta:pata\",\"Up\",\"38\",\"2\",\"20\",\"2\",\"P\",\"J\",\"44\"
\"\",\"\",\"approach-retreat\",\"193\",\"1605134\",\"0.0-193.0\",\"\",\"\",\"3-3\",\"5345\",\"40\",\"1\",\"Testing\",\"Stims/Figures/118-C-20-2.bmp\",\"ta:pata\",\"Down\",\"40\",\"2\",\"21\",\"2\",\"P\",\"J\",\"45\"
\"\",\"\",\"approach-retreat\",\"194\",\"1610940\",\"0.0-194.0\",\"\",\"\",\"3-3\",\"4298\",\"40\",\"0\",\"Testing\",\"Stims/Figures/84-J-0-2.bmp\",\"nama:la\",\"Down\",\"38\",\"2\",\"22\",\"2\",\"S\",\"J\",\"46\"
\"\",\"\",\"approach-retreat\",\"195\",\"1618668\",\"0.0-195.0\",\"\",\"\",\"3-3\",\"6226\",\"40\",\"0\",\"Testing\",\"Stims/Figures/118-J-0-2.bmp\",\"nama:la\",\"Down\",\"38\",\"2\",\"23\",\"2\",\"S\",\"J\",\"47\"
\"\",\"\",\"approach-retreat\",\"196\",\"1624440\",\"0.0-196.0\",\"\",\"\",\"3-3\",\"4268\",\"39\",\"0\",\"Testing\",\"Stims/Figures/71-J-0-1.bmp\",\"nama:la\",\"Right\",\"37\",\"2\",\"24\",\"2\",\"S\",\"J\",\"48\"
\"\",\"\",\"approach-retreat\",\"197\",\"1630130\",\"0.0-197.0\",\"\",\"\",\"3-3\",\"4184\",\"38\",\"0\",\"Testing\",\"Stims/Figures/93-J-0-1.bmp\",\"nama:la\",\"Up\",\"40\",\"3\",\"1\",\"2\",\"S\",\"J\",\"49\"
\"\",\"\",\"approach-retreat\",\"198\",\"1635692\",\"0.0-198.0\",\"\",\"\",\"3-3\",\"4050\",\"37\",\"0\",\"Testing\",\"Stims/Figures/57-J-0-1.bmp\",\"nama:la\",\"Left\",\"39\",\"3\",\"2\",\"2\",\"S\",\"J\",\"50\"
\"\",\"\",\"approach-retreat\",\"199\",\"1641961\",\"0.0-199.0\",\"\",\"\",\"3-3\",\"4760\",\"37\",\"0\",\"Testing\",\"Stims/Figures/87-J-10-4.bmp\",\"nama:la\",\"Left\",\"39\",\"3\",\"3\",\"2\",\"S\",\"J\",\"51\"
\"\",\"\",\"approach-retreat\",\"200\",\"1647675\",\"0.0-200.0\",\"\",\"\",\"3-3\",\"4208\",\"39\",\"0\",\"Testing\",\"Stims/Figures/128-J-10-3.bmp\",\"nama:la\",\"Right\",\"37\",\"3\",\"4\",\"2\",\"S\",\"J\",\"52\"
\"\",\"\",\"approach-retreat\",\"201\",\"1653256\",\"0.0-201.0\",\"\",\"\",\"3-3\",\"4069\",\"39\",\"0\",\"Testing\",\"Stims/Figures/85-J-0-2.bmp\",\"nama:la\",\"Right\",\"37\",\"3\",\"5\",\"2\",\"S\",\"J\",\"53\"
\"\",\"\",\"approach-retreat\",\"202\",\"1658917\",\"0.0-202.0\",\"\",\"\",\"3-3\",\"4148\",\"40\",\"1\",\"Testing\",\"Stims/Figures/19-C-20-4.bmp\",\"ta:pata\",\"Down\",\"40\",\"3\",\"6\",\"2\",\"P\",\"J\",\"54\"
\"\",\"\",\"approach-retreat\",\"203\",\"1664497\",\"0.0-203.0\",\"\",\"\",\"3-3\",\"4064\",\"39\",\"0\",\"Testing\",\"Stims/Figures/85-C-20-2.bmp\",\"ta:pata\",\"Left\",\"37\",\"3\",\"7\",\"2\",\"P\",\"J\",\"55\"
\"\",\"\",\"approach-retreat\",\"204\",\"1670145\",\"0.0-204.0\",\"\",\"\",\"3-3\",\"4143\",\"37\",\"0\",\"Testing\",\"Stims/Figures/118-C-20-2.bmp\",\"ta:pata\",\"Right\",\"39\",\"3\",\"8\",\"2\",\"P\",\"J\",\"56\"
\"\",\"\",\"approach-retreat\",\"205\",\"1675720\",\"0.0-205.0\",\"\",\"\",\"3-3\",\"4067\",\"38\",\"0\",\"Testing\",\"Stims/Figures/100-C-30-3.bmp\",\"ta:pata\",\"Down\",\"40\",\"3\",\"9\",\"2\",\"P\",\"J\",\"57\"
\"\",\"\",\"approach-retreat\",\"206\",\"1681926\",\"0.0-206.0\",\"\",\"\",\"3-3\",\"4701\",\"38\",\"1\",\"Testing\",\"Stims/Figures/128-C-30-3.bmp\",\"ta:pata\",\"Up\",\"38\",\"3\",\"10\",\"2\",\"P\",\"J\",\"58\"
\"\",\"\",\"approach-retreat\",\"207\",\"1688709\",\"0.0-207.0\",\"\",\"\",\"3-3\",\"5271\",\"40\",\"0\",\"Testing\",\"Stims/Figures/111-C-30-3.bmp\",\"ta:pata\",\"Up\",\"38\",\"3\",\"11\",\"2\",\"P\",\"J\",\"59\"
\"\",\"\",\"approach-retreat\",\"208\",\"1694807\",\"0.0-208.0\",\"\",\"\",\"3-3\",\"4587\",\"38\",\"0\",\"Testing\",\"Stims/Figures/71-C-30-1.bmp\",\"ta:pata\",\"Down\",\"40\",\"3\",\"12\",\"2\",\"P\",\"J\",\"60\"
\"\",\"\",\"approach-retreat\",\"209\",\"1700951\",\"0.0-209.0\",\"\",\"\",\"3-3\",\"4640\",\"39\",\"1\",\"Testing\",\"Stims/Figures/57-C-30-1.bmp\",\"ta:pata\",\"Right\",\"39\",\"3\",\"13\",\"2\",\"P\",\"J\",\"61\"
\"\",\"\",\"approach-retreat\",\"210\",\"1712288\",\"0.0-210.0\",\"\",\"\",\"3-3\",\"9829\",\"39\",\"0\",\"Testing\",\"Stims/Figures/102-J-10-4.bmp\",\"nama:la\",\"Right\",\"37\",\"3\",\"14\",\"2\",\"S\",\"J\",\"62\"
\"\",\"\",\"approach-retreat\",\"211\",\"1717895\",\"0.0-211.0\",\"\",\"\",\"3-3\",\"4085\",\"37\",\"0\",\"Testing\",\"Stims/Figures/87-C-20-4.bmp\",\"ta:pata\",\"Right\",\"39\",\"3\",\"15\",\"2\",\"P\",\"J\",\"63\"
\"\",\"\",\"approach-retreat\",\"212\",\"1724194\",\"0.0-212.0\",\"\",\"\",\"3-3\",\"4793\",\"40\",\"0\",\"Testing\",\"Stims/Figures/100-J-10-3.bmp\",\"nama:la\",\"Down\",\"38\",\"3\",\"16\",\"2\",\"S\",\"J\",\"64\"
\"\",\"\",\"approach-retreat\",\"213\",\"1729787\",\"0.0-213.0\",\"\",\"\",\"3-3\",\"4068\",\"40\",\"0\",\"Testing\",\"Stims/Figures/102-C-20-4.bmp\",\"ta:pata\",\"Up\",\"38\",\"3\",\"17\",\"2\",\"P\",\"J\",\"65\"
\"\",\"\",\"approach-retreat\",\"214\",\"1738380\",\"0.0-214.0\",\"\",\"\",\"3-3\",\"7084\",\"40\",\"0\",\"Testing\",\"Stims/Figures/118-J-0-2.bmp\",\"nama:la\",\"Down\",\"38\",\"3\",\"18\",\"2\",\"S\",\"J\",\"66\"
\"\",\"\",\"approach-retreat\",\"215\",\"1746714\",\"0.0-215.0\",\"\",\"\",\"3-3\",\"6822\",\"39\",\"1\",\"Testing\",\"Stims/Figures/111-J-10-3.bmp\",\"nama:la\",\"Left\",\"39\",\"3\",\"19\",\"2\",\"S\",\"J\",\"67\"
\"\",\"\",\"approach-retreat\",\"216\",\"1752315\",\"0.0-216.0\",\"\",\"\",\"3-3\",\"4090\",\"40\",\"1\",\"Testing\",\"Stims/Figures/84-C-20-2.bmp\",\"ta:pata\",\"Down\",\"40\",\"3\",\"20\",\"2\",\"P\",\"J\",\"68\"
\"\",\"\",\"approach-retreat\",\"217\",\"1760177\",\"0.0-217.0\",\"\",\"\",\"3-3\",\"6356\",\"40\",\"0\",\"Testing\",\"Stims/Figures/93-C-30-1.bmp\",\"ta:pata\",\"Up\",\"38\",\"3\",\"21\",\"2\",\"P\",\"J\",\"69\"
\"\",\"\",\"approach-retreat\",\"218\",\"1767113\",\"0.0-218.0\",\"\",\"\",\"3-3\",\"5431\",\"37\",\"0\",\"Testing\",\"Stims/Figures/84-J-0-2.bmp\",\"nama:la\",\"Left\",\"39\",\"3\",\"22\",\"2\",\"S\",\"J\",\"70\"
\"\",\"\",\"approach-retreat\",\"219\",\"1773471\",\"0.0-219.0\",\"\",\"\",\"3-3\",\"4848\",\"37\",\"0\",\"Testing\",\"Stims/Figures/71-J-0-1.bmp\",\"nama:la\",\"Left\",\"39\",\"3\",\"23\",\"2\",\"S\",\"J\",\"71\"
\"\",\"\",\"approach-retreat\",\"220\",\"1780449\",\"0.0-220.0\",\"\",\"\",\"3-3\",\"5464\",\"38\",\"0\",\"Testing\",\"Stims/Figures/19-J-10-4.bmp\",\"nama:la\",\"Up\",\"40\",\"3\",\"24\",\"2\",\"S\",\"J\",\"72\"
\"\",\"\",\"approach-retreat\",\"221\",\"1788066\",\"0.0-221.0\",\"\",\"\",\"3-3\",\"6110\",\"39\",\"1\",\"Testing\",\"Stims/Figures/102-J-10-4.bmp\",\"nama:la\",\"Left\",\"39\",\"4\",\"1\",\"2\",\"S\",\"J\",\"73\"
\"\",\"\",\"approach-retreat\",\"222\",\"1793785\",\"0.0-222.0\",\"\",\"\",\"3-3\",\"4215\",\"40\",\"1\",\"Testing\",\"Stims/Figures/100-J-10-3.bmp\",\"nama:la\",\"Up\",\"40\",\"4\",\"2\",\"2\",\"S\",\"J\",\"74\"
\"\",\"\",\"approach-retreat\",\"223\",\"1799608\",\"0.0-223.0\",\"\",\"\",\"3-3\",\"4315\",\"40\",\"0\",\"Testing\",\"Stims/Figures/57-J-0-1.bmp\",\"nama:la\",\"Down\",\"38\",\"4\",\"3\",\"2\",\"S\",\"J\",\"75\"
\"\",\"\",\"approach-retreat\",\"224\",\"1808773\",\"0.0-224.0\",\"\",\"\",\"3-3\",\"7654\",\"39\",\"0\",\"Testing\",\"Stims/Figures/128-C-30-3.bmp\",\"ta:pata\",\"Left\",\"37\",\"4\",\"4\",\"2\",\"P\",\"J\",\"76\"
\"\",\"\",\"approach-retreat\",\"225\",\"1814368\",\"0.0-225.0\",\"\",\"\",\"3-3\",\"4085\",\"38\",\"1\",\"Testing\",\"Stims/Figures/19-C-20-4.bmp\",\"ta:pata\",\"Up\",\"38\",\"4\",\"5\",\"2\",\"P\",\"J\",\"77\"
\"\",\"\",\"approach-retreat\",\"226\",\"1821501\",\"0.0-226.0\",\"\",\"\",\"3-3\",\"5631\",\"39\",\"1\",\"Testing\",\"Stims/Figures/87-C-20-4.bmp\",\"ta:pata\",\"Right\",\"39\",\"4\",\"6\",\"2\",\"P\",\"J\",\"78\"
\"\",\"\",\"approach-retreat\",\"227\",\"1827401\",\"0.0-227.0\",\"\",\"\",\"3-3\",\"4396\",\"40\",\"0\",\"Testing\",\"Stims/Figures/93-C-30-1.bmp\",\"ta:pata\",\"Up\",\"38\",\"4\",\"7\",\"2\",\"P\",\"J\",\"79\"
\"\",\"\",\"approach-retreat\",\"228\",\"1833206\",\"0.0-228.0\",\"\",\"\",\"3-3\",\"4298\",\"39\",\"0\",\"Testing\",\"Stims/Figures/85-J-0-2.bmp\",\"nama:la\",\"Right\",\"37\",\"4\",\"8\",\"2\",\"S\",\"J\",\"80\"
\"\",\"\",\"approach-retreat\",\"229\",\"1842117\",\"0.0-229.0\",\"\",\"\",\"3-3\",\"7398\",\"40\",\"0\",\"Testing\",\"Stims/Figures/57-C-30-1.bmp\",\"ta:pata\",\"Up\",\"38\",\"4\",\"9\",\"2\",\"P\",\"J\",\"81\"
\"\",\"\",\"approach-retreat\",\"230\",\"1848316\",\"0.0-230.0\",\"\",\"\",\"3-3\",\"4690\",\"40\",\"0\",\"Testing\",\"Stims/Figures/93-J-0-1.bmp\",\"nama:la\",\"Down\",\"38\",\"4\",\"10\",\"2\",\"S\",\"J\",\"82\"
\"\",\"\",\"approach-retreat\",\"231\",\"1853665\",\"0.0-231.0\",\"\",\"\",\"3-3\",\"3839\",\"38\",\"1\",\"Testing\",\"Stims/Figures/87-J-10-4.bmp\",\"nama:la\",\"Down\",\"38\",\"4\",\"11\",\"2\",\"S\",\"J\",\"83\"
\"\",\"\",\"approach-retreat\",\"232\",\"1859573\",\"0.0-232.0\",\"\",\"\",\"3-3\",\"4401\",\"38\",\"0\",\"Testing\",\"Stims/Figures/102-C-20-4.bmp\",\"ta:pata\",\"Down\",\"40\",\"4\",\"12\",\"2\",\"P\",\"J\",\"84\"
\"\",\"\",\"approach-retreat\",\"233\",\"1866381\",\"0.0-233.0\",\"\",\"\",\"3-3\",\"5292\",\"40\",\"1\",\"Testing\",\"Stims/Figures/19-J-10-4.bmp\",\"nama:la\",\"Up\",\"40\",\"4\",\"13\",\"2\",\"S\",\"J\",\"85\"
\"\",\"\",\"approach-retreat\",\"234\",\"1872650\",\"0.0-234.0\",\"\",\"\",\"3-3\",\"4760\",\"38\",\"0\",\"Testing\",\"Stims/Figures/85-C-20-2.bmp\",\"ta:pata\",\"Down\",\"40\",\"4\",\"14\",\"2\",\"P\",\"J\",\"86\"
\"\",\"\",\"approach-retreat\",\"235\",\"1878422\",\"0.0-235.0\",\"\",\"\",\"3-3\",\"4246\",\"37\",\"1\",\"Testing\",\"Stims/Figures/111-J-10-3.bmp\",\"nama:la\",\"Right\",\"37\",\"4\",\"15\",\"2\",\"S\",\"J\",\"87\"
\"\",\"\",\"approach-retreat\",\"236\",\"1884005\",\"0.0-236.0\",\"\",\"\",\"3-3\",\"4074\",\"37\",\"0\",\"Testing\",\"Stims/Figures/111-C-30-3.bmp\",\"ta:pata\",\"Right\",\"39\",\"4\",\"16\",\"2\",\"P\",\"J\",\"88\"
\"\",\"\",\"approach-retreat\",\"237\",\"1890136\",\"0.0-237.0\",\"\",\"\",\"3-3\",\"4621\",\"37\",\"0\",\"Testing\",\"Stims/Figures/84-J-0-2.bmp\",\"nama:la\",\"Left\",\"39\",\"4\",\"17\",\"2\",\"S\",\"J\",\"89\"
\"\",\"\",\"approach-retreat\",\"238\",\"1897977\",\"0.0-238.0\",\"\",\"\",\"3-3\",\"6335\",\"37\",\"1\",\"Testing\",\"Stims/Figures/128-J-10-3.bmp\",\"nama:la\",\"Right\",\"37\",\"4\",\"18\",\"2\",\"S\",\"J\",\"90\"
\"\",\"\",\"approach-retreat\",\"239\",\"1903994\",\"0.0-239.0\",\"\",\"\",\"3-3\",\"4513\",\"37\",\"0\",\"Testing\",\"Stims/Figures/71-J-0-1.bmp\",\"nama:la\",\"Left\",\"39\",\"4\",\"19\",\"2\",\"S\",\"J\",\"91\"
\"\",\"\",\"approach-retreat\",\"240\",\"1909623\",\"0.0-240.0\",\"\",\"\",\"3-3\",\"4110\",\"38\",\"0\",\"Testing\",\"Stims/Figures/84-C-20-2.bmp\",\"ta:pata\",\"Down\",\"40\",\"4\",\"20\",\"2\",\"P\",\"J\",\"92\"
\"\",\"\",\"approach-retreat\",\"241\",\"1915222\",\"0.0-241.0\",\"\",\"\",\"3-3\",\"4088\",\"37\",\"0\",\"Testing\",\"Stims/Figures/100-C-30-3.bmp\",\"ta:pata\",\"Right\",\"39\",\"4\",\"21\",\"2\",\"P\",\"J\",\"93\"
\"\",\"\",\"approach-retreat\",\"242\",\"1921423\",\"0.0-242.0\",\"\",\"\",\"3-3\",\"4696\",\"39\",\"0\",\"Testing\",\"Stims/Figures/71-C-30-1.bmp\",\"ta:pata\",\"Left\",\"37\",\"4\",\"22\",\"2\",\"P\",\"J\",\"94\"
\"\",\"\",\"approach-retreat\",\"243\",\"1927000\",\"0.0-243.0\",\"\",\"\",\"3-3\",\"4056\",\"39\",\"0\",\"Testing\",\"Stims/Figures/118-C-20-2.bmp\",\"ta:pata\",\"Left\",\"37\",\"4\",\"23\",\"2\",\"P\",\"J\",\"95\"
\"\",\"\",\"approach-retreat\",\"244\",\"1932732\",\"0.0-244.0\",\"\",\"\",\"3-3\",\"4220\",\"38\",\"0\",\"Testing\",\"Stims/Figures/118-J-0-2.bmp\",\"nama:la\",\"Up\",\"40\",\"4\",\"24\",\"2\",\"S\",\"J\",\"96\"
\"23135\",\"\",\"survey-text\",\"245\",\"1956058\",\"0.0-245.0\",\"\",\"{\"\"Q0\"\":\"\"PS170044\"\"}\",\"\",\"\",\"\",\"\",\"\",\"\",\"\",\"\",\"\",\"\",\"\",\"\",\"\",\"\",\"\"
