\"rt\",\"key_press\",\"trial_type\",\"trial_index\",\"time_elapsed\",\"internal_node_id\",\"view_history\",\"responses\",\"Id\",\"Rt\",\"ResKeyCode\",\"ResCorr\",\"TrialType2\",\"Image\",\"Label\",\"Location\",\"CorrectResponse\",\"Block\",\"BlockTrial\",\"Condition\",\"LabelType\",\"Subcondition\",\"trialNum\"
\"126885\",\"32\",\"text\",\"0\",\"126900\",\"0.0-0.0-0.0\",\"\",\"\",\"\",\"\",\"\",\"\",\"\",\"\",\"\",\"\",\"\",\"\",\"\",\"\",\"\",\"\",\"\"
\"136786\",\"\",\"instructions\",\"1\",\"263699\",\"0.0-1.0\",\"[{\"\"page_index\"\":0,\"\"viewing_time\"\":136783}]\",\"\",\"\",\"\",\"\",\"\",\"\",\"\",\"\",\"\",\"\",\"\",\"\",\"\",\"\",\"\",\"\"
\"22534\",\"\",\"survey-multi-choice\",\"2\",\"286347\",\"0.0-2.0\",\"\",\"{\"\"Q0\"\":\"\"Da\"\",\"\"Q1\"\":\"\"Da\"\",\"\"Q2\"\":\"\"Da\"\",\"\"Q3\"\":\"\"Da\"\",\"\"Q4\"\":\"\"Da\"\",\"\"Q5\"\":\"\"Da\"\"}\",\"\",\"\",\"\",\"\",\"\",\"\",\"\",\"\",\"\",\"\",\"\",\"\",\"\",\"\",\"\"
\"\",\"\",\"bio\",\"3\",\"294310\",\"0.0-3.0\",\"\",\"{\"\"age\"\":\"\"19\"\",\"\"gender\"\":\"\"f\"\",\"\"specify\"\":\"\"\"\"}\",\"\",\"\",\"\",\"\",\"\",\"\",\"\",\"\",\"\",\"\",\"\",\"\",\"\",\"\",\"\"
\"\",\"\",\"approach-retreat\",\"4\",\"300453\",\"0.0-4.0\",\"\",\"\",\"2-5\",\"4610\",\"39\",\"1\",\"Training\",\"Stims/Figures/84-C-20-2.bmp\",\"pa:kata\",\"Right\",\"39\",\"1\",\"1\",\"5\",\"P\",\"J\",\"1\"
\"\",\"\",\"approach-retreat\",\"5\",\"306577\",\"0.0-5.0\",\"\",\"\",\"2-5\",\"4600\",\"39\",\"0\",\"Training\",\"Stims/Figures/139-J-0-2.bmp\",\"na:ma:na\",\"Right\",\"37\",\"1\",\"2\",\"5\",\"S\",\"J\",\"2\"
\"\",\"\",\"approach-retreat\",\"6\",\"313073\",\"0.0-6.0\",\"\",\"\",\"2-5\",\"4948\",\"37\",\"0\",\"Training\",\"Stims/Figures/84-J-0-2.bmp\",\"ma:mana\",\"Left\",\"39\",\"1\",\"3\",\"5\",\"S\",\"J\",\"3\"
\"\",\"\",\"approach-retreat\",\"7\",\"320011\",\"0.0-7.0\",\"\",\"\",\"2-5\",\"5389\",\"40\",\"0\",\"Training\",\"Stims/Figures/27-C-30-1.bmp\",\"pa:pa:ka\",\"Up\",\"38\",\"1\",\"4\",\"5\",\"P\",\"J\",\"4\"
\"\",\"\",\"approach-retreat\",\"8\",\"326502\",\"0.0-8.0\",\"\",\"\",\"2-5\",\"4950\",\"38\",\"1\",\"Training\",\"Stims/Figures/111-J-10-3.bmp\",\"nala:na\",\"Down\",\"38\",\"1\",\"5\",\"5\",\"S\",\"J\",\"5\"
\"\",\"\",\"approach-retreat\",\"9\",\"332341\",\"0.0-9.0\",\"\",\"\",\"2-5\",\"4299\",\"37\",\"1\",\"Training\",\"Stims/Figures/57-J-0-1.bmp\",\"namala\",\"Right\",\"37\",\"1\",\"6\",\"5\",\"S\",\"J\",\"6\"
\"\",\"\",\"approach-retreat\",\"10\",\"338561\",\"0.0-10.0\",\"\",\"\",\"2-5\",\"4677\",\"40\",\"1\",\"Training\",\"Stims/Figures/87-C-20-4.bmp\",\"papata\",\"Down\",\"40\",\"1\",\"7\",\"5\",\"P\",\"J\",\"7\"
\"\",\"\",\"approach-retreat\",\"11\",\"344876\",\"0.0-11.0\",\"\",\"\",\"2-5\",\"4771\",\"38\",\"1\",\"Training\",\"Stims/Figures/19-J-10-4.bmp\",\"na:mana\",\"Down\",\"38\",\"1\",\"8\",\"5\",\"S\",\"J\",\"8\"
\"\",\"\",\"approach-retreat\",\"12\",\"350969\",\"0.0-12.0\",\"\",\"\",\"2-5\",\"4551\",\"39\",\"1\",\"Training\",\"Stims/Figures/144-C-30-3.bmp\",\"takaka\",\"Right\",\"39\",\"1\",\"9\",\"5\",\"P\",\"J\",\"9\"
\"\",\"\",\"approach-retreat\",\"13\",\"357600\",\"0.0-13.0\",\"\",\"\",\"2-5\",\"5083\",\"37\",\"1\",\"Training\",\"Stims/Figures/19-C-20-4.bmp\",\"ta:ka:ta\",\"Left\",\"37\",\"1\",\"10\",\"5\",\"P\",\"J\",\"10\"
\"\",\"\",\"approach-retreat\",\"14\",\"363456\",\"0.0-14.0\",\"\",\"\",\"2-5\",\"4333\",\"37\",\"1\",\"Training\",\"Stims/Figures/139-C-20-2.bmp\",\"pa:kaka\",\"Left\",\"37\",\"1\",\"11\",\"5\",\"P\",\"J\",\"11\"
\"\",\"\",\"approach-retreat\",\"15\",\"369455\",\"0.0-15.0\",\"\",\"\",\"2-5\",\"4459\",\"40\",\"0\",\"Training\",\"Stims/Figures/57-C-30-1.bmp\",\"tapaka\",\"Up\",\"38\",\"1\",\"12\",\"5\",\"P\",\"J\",\"12\"
\"\",\"\",\"approach-retreat\",\"16\",\"375493\",\"0.0-16.0\",\"\",\"\",\"2-5\",\"4490\",\"38\",\"1\",\"Training\",\"Stims/Figures/111-C-30-3.bmp\",\"tapa:ta\",\"Up\",\"38\",\"1\",\"13\",\"5\",\"P\",\"J\",\"13\"
\"\",\"\",\"approach-retreat\",\"17\",\"381497\",\"0.0-17.0\",\"\",\"\",\"2-5\",\"4463\",\"39\",\"1\",\"Training\",\"Stims/Figures/144-J-10-3.bmp\",\"malala\",\"Left\",\"39\",\"1\",\"14\",\"5\",\"S\",\"J\",\"14\"
\"\",\"\",\"approach-retreat\",\"18\",\"387315\",\"0.0-18.0\",\"\",\"\",\"2-5\",\"4282\",\"38\",\"1\",\"Training\",\"Stims/Figures/87-J-10-4.bmp\",\"mama:la\",\"Down\",\"38\",\"1\",\"15\",\"5\",\"S\",\"J\",\"15\"
\"\",\"\",\"approach-retreat\",\"19\",\"393252\",\"0.0-19.0\",\"\",\"\",\"2-5\",\"4389\",\"40\",\"1\",\"Training\",\"Stims/Figures/27-J-0-1.bmp\",\"nalana\",\"Up\",\"40\",\"1\",\"16\",\"5\",\"S\",\"J\",\"16\"
\"\",\"\",\"approach-retreat\",\"20\",\"398937\",\"0.0-20.0\",\"\",\"\",\"2-5\",\"4135\",\"37\",\"1\",\"Training\",\"Stims/Figures/111-C-30-3.bmp\",\"tapa:ta\",\"Left\",\"37\",\"2\",\"1\",\"5\",\"P\",\"J\",\"17\"
\"\",\"\",\"approach-retreat\",\"21\",\"404607\",\"0.0-21.0\",\"\",\"\",\"2-5\",\"4130\",\"40\",\"1\",\"Training\",\"Stims/Figures/87-J-10-4.bmp\",\"mama:la\",\"Up\",\"40\",\"2\",\"2\",\"5\",\"S\",\"J\",\"18\"
\"\",\"\",\"approach-retreat\",\"22\",\"410337\",\"0.0-22.0\",\"\",\"\",\"2-5\",\"4211\",\"37\",\"1\",\"Training\",\"Stims/Figures/27-C-30-1.bmp\",\"pa:pa:ka\",\"Left\",\"37\",\"2\",\"3\",\"5\",\"P\",\"J\",\"19\"
\"\",\"\",\"approach-retreat\",\"23\",\"416229\",\"0.0-23.0\",\"\",\"\",\"2-5\",\"4367\",\"38\",\"1\",\"Training\",\"Stims/Figures/84-C-20-2.bmp\",\"pa:kata\",\"Up\",\"38\",\"2\",\"4\",\"5\",\"P\",\"J\",\"20\"
\"\",\"\",\"approach-retreat\",\"24\",\"422266\",\"0.0-24.0\",\"\",\"\",\"2-5\",\"4524\",\"38\",\"1\",\"Training\",\"Stims/Figures/27-J-0-1.bmp\",\"nalana\",\"Down\",\"38\",\"2\",\"5\",\"5\",\"S\",\"J\",\"21\"
\"\",\"\",\"approach-retreat\",\"25\",\"428005\",\"0.0-25.0\",\"\",\"\",\"2-5\",\"4226\",\"40\",\"1\",\"Training\",\"Stims/Figures/57-C-30-1.bmp\",\"tapaka\",\"Down\",\"40\",\"2\",\"6\",\"5\",\"P\",\"J\",\"22\"
\"\",\"\",\"approach-retreat\",\"26\",\"433753\",\"0.0-26.0\",\"\",\"\",\"2-5\",\"4207\",\"39\",\"1\",\"Training\",\"Stims/Figures/139-C-20-2.bmp\",\"pa:kaka\",\"Right\",\"39\",\"2\",\"7\",\"5\",\"P\",\"J\",\"23\"
\"\",\"\",\"approach-retreat\",\"27\",\"439373\",\"0.0-27.0\",\"\",\"\",\"2-5\",\"4070\",\"37\",\"1\",\"Training\",\"Stims/Figures/144-C-30-3.bmp\",\"takaka\",\"Left\",\"37\",\"2\",\"8\",\"5\",\"P\",\"J\",\"24\"
\"\",\"\",\"approach-retreat\",\"28\",\"445577\",\"0.0-28.0\",\"\",\"\",\"2-5\",\"4656\",\"40\",\"1\",\"Training\",\"Stims/Figures/144-J-10-3.bmp\",\"malala\",\"Up\",\"40\",\"2\",\"9\",\"5\",\"S\",\"J\",\"25\"
\"\",\"\",\"approach-retreat\",\"29\",\"451248\",\"0.0-29.0\",\"\",\"\",\"2-5\",\"4128\",\"37\",\"1\",\"Training\",\"Stims/Figures/111-J-10-3.bmp\",\"nala:na\",\"Right\",\"37\",\"2\",\"10\",\"5\",\"S\",\"J\",\"26\"
\"\",\"\",\"approach-retreat\",\"30\",\"457016\",\"0.0-30.0\",\"\",\"\",\"2-5\",\"4220\",\"40\",\"1\",\"Training\",\"Stims/Figures/84-J-0-2.bmp\",\"ma:mana\",\"Up\",\"40\",\"2\",\"11\",\"5\",\"S\",\"J\",\"27\"
\"\",\"\",\"approach-retreat\",\"31\",\"462502\",\"0.0-31.0\",\"\",\"\",\"2-5\",\"3943\",\"37\",\"1\",\"Training\",\"Stims/Figures/57-J-0-1.bmp\",\"namala\",\"Right\",\"37\",\"2\",\"12\",\"5\",\"S\",\"J\",\"28\"
\"\",\"\",\"approach-retreat\",\"32\",\"468404\",\"0.0-32.0\",\"\",\"\",\"2-5\",\"4378\",\"40\",\"1\",\"Training\",\"Stims/Figures/87-C-20-4.bmp\",\"papata\",\"Down\",\"40\",\"2\",\"13\",\"5\",\"P\",\"J\",\"29\"
\"\",\"\",\"approach-retreat\",\"33\",\"473891\",\"0.0-33.0\",\"\",\"\",\"2-5\",\"3958\",\"37\",\"1\",\"Training\",\"Stims/Figures/139-J-0-2.bmp\",\"na:ma:na\",\"Right\",\"37\",\"2\",\"14\",\"5\",\"S\",\"J\",\"30\"
\"\",\"\",\"approach-retreat\",\"34\",\"479527\",\"0.0-34.0\",\"\",\"\",\"2-5\",\"4088\",\"39\",\"1\",\"Training\",\"Stims/Figures/19-J-10-4.bmp\",\"na:mana\",\"Left\",\"39\",\"2\",\"15\",\"5\",\"S\",\"J\",\"31\"
\"\",\"\",\"approach-retreat\",\"35\",\"485297\",\"0.0-35.0\",\"\",\"\",\"2-5\",\"4222\",\"40\",\"1\",\"Training\",\"Stims/Figures/19-C-20-4.bmp\",\"ta:ka:ta\",\"Down\",\"40\",\"2\",\"16\",\"5\",\"P\",\"J\",\"32\"
\"\",\"\",\"approach-retreat\",\"36\",\"491032\",\"0.0-36.0\",\"\",\"\",\"2-5\",\"4192\",\"40\",\"1\",\"Training\",\"Stims/Figures/84-J-0-2.bmp\",\"ma:mana\",\"Up\",\"40\",\"3\",\"1\",\"5\",\"S\",\"J\",\"33\"
\"\",\"\",\"approach-retreat\",\"37\",\"496685\",\"0.0-37.0\",\"\",\"\",\"2-5\",\"4118\",\"39\",\"1\",\"Training\",\"Stims/Figures/139-J-0-2.bmp\",\"na:ma:na\",\"Left\",\"39\",\"3\",\"2\",\"5\",\"S\",\"J\",\"34\"
\"\",\"\",\"approach-retreat\",\"38\",\"502400\",\"0.0-38.0\",\"\",\"\",\"2-5\",\"4168\",\"40\",\"1\",\"Training\",\"Stims/Figures/19-C-20-4.bmp\",\"ta:ka:ta\",\"Down\",\"40\",\"3\",\"3\",\"5\",\"P\",\"J\",\"35\"
\"\",\"\",\"approach-retreat\",\"39\",\"508576\",\"0.0-39.0\",\"\",\"\",\"2-5\",\"4634\",\"38\",\"1\",\"Training\",\"Stims/Figures/144-C-30-3.bmp\",\"takaka\",\"Up\",\"38\",\"3\",\"4\",\"5\",\"P\",\"J\",\"36\"
\"\",\"\",\"approach-retreat\",\"40\",\"514284\",\"0.0-40.0\",\"\",\"\",\"2-5\",\"4171\",\"37\",\"1\",\"Training\",\"Stims/Figures/27-J-0-1.bmp\",\"nalana\",\"Right\",\"37\",\"3\",\"5\",\"5\",\"S\",\"J\",\"37\"
\"\",\"\",\"approach-retreat\",\"41\",\"520014\",\"0.0-41.0\",\"\",\"\",\"2-5\",\"4188\",\"38\",\"1\",\"Training\",\"Stims/Figures/87-J-10-4.bmp\",\"mama:la\",\"Down\",\"38\",\"3\",\"6\",\"5\",\"S\",\"J\",\"38\"
\"\",\"\",\"approach-retreat\",\"42\",\"525667\",\"0.0-42.0\",\"\",\"\",\"2-5\",\"4115\",\"39\",\"1\",\"Training\",\"Stims/Figures/27-C-30-1.bmp\",\"pa:pa:ka\",\"Right\",\"39\",\"3\",\"7\",\"5\",\"P\",\"J\",\"39\"
\"\",\"\",\"approach-retreat\",\"43\",\"531366\",\"0.0-43.0\",\"\",\"\",\"2-5\",\"4151\",\"37\",\"1\",\"Training\",\"Stims/Figures/84-C-20-2.bmp\",\"pa:kata\",\"Left\",\"37\",\"3\",\"8\",\"5\",\"P\",\"J\",\"40\"
\"\",\"\",\"approach-retreat\",\"44\",\"537071\",\"0.0-44.0\",\"\",\"\",\"2-5\",\"4195\",\"38\",\"1\",\"Training\",\"Stims/Figures/57-J-0-1.bmp\",\"namala\",\"Down\",\"38\",\"3\",\"9\",\"5\",\"S\",\"J\",\"41\"
\"\",\"\",\"approach-retreat\",\"45\",\"543041\",\"0.0-45.0\",\"\",\"\",\"2-5\",\"4441\",\"39\",\"1\",\"Training\",\"Stims/Figures/111-J-10-3.bmp\",\"nala:na\",\"Left\",\"39\",\"3\",\"10\",\"5\",\"S\",\"J\",\"42\"
\"\",\"\",\"approach-retreat\",\"46\",\"549659\",\"0.0-46.0\",\"\",\"\",\"2-5\",\"5094\",\"38\",\"1\",\"Training\",\"Stims/Figures/57-C-30-1.bmp\",\"tapaka\",\"Up\",\"38\",\"3\",\"11\",\"5\",\"P\",\"J\",\"43\"
\"\",\"\",\"approach-retreat\",\"47\",\"555396\",\"0.0-47.0\",\"\",\"\",\"2-5\",\"4198\",\"39\",\"1\",\"Training\",\"Stims/Figures/111-C-30-3.bmp\",\"tapa:ta\",\"Right\",\"39\",\"3\",\"12\",\"5\",\"P\",\"J\",\"44\"
\"\",\"\",\"approach-retreat\",\"48\",\"561601\",\"0.0-48.0\",\"\",\"\",\"2-5\",\"4654\",\"38\",\"1\",\"Training\",\"Stims/Figures/139-C-20-2.bmp\",\"pa:kaka\",\"Up\",\"38\",\"3\",\"13\",\"5\",\"P\",\"J\",\"45\"
\"\",\"\",\"approach-retreat\",\"49\",\"567820\",\"0.0-49.0\",\"\",\"\",\"2-5\",\"4677\",\"37\",\"1\",\"Training\",\"Stims/Figures/19-J-10-4.bmp\",\"na:mana\",\"Right\",\"37\",\"3\",\"14\",\"5\",\"S\",\"J\",\"46\"
\"\",\"\",\"approach-retreat\",\"50\",\"573555\",\"0.0-50.0\",\"\",\"\",\"2-5\",\"4185\",\"38\",\"1\",\"Training\",\"Stims/Figures/144-J-10-3.bmp\",\"malala\",\"Down\",\"38\",\"3\",\"15\",\"5\",\"S\",\"J\",\"47\"
\"\",\"\",\"approach-retreat\",\"51\",\"579208\",\"0.0-51.0\",\"\",\"\",\"2-5\",\"4110\",\"37\",\"1\",\"Training\",\"Stims/Figures/87-C-20-4.bmp\",\"papata\",\"Left\",\"37\",\"3\",\"16\",\"5\",\"P\",\"J\",\"48\"
\"\",\"\",\"approach-retreat\",\"52\",\"584960\",\"0.0-52.0\",\"\",\"\",\"2-5\",\"4198\",\"37\",\"1\",\"Training\",\"Stims/Figures/144-C-30-3.bmp\",\"takaka\",\"Left\",\"37\",\"4\",\"1\",\"5\",\"P\",\"J\",\"49\"
\"\",\"\",\"approach-retreat\",\"53\",\"590580\",\"0.0-53.0\",\"\",\"\",\"2-5\",\"4068\",\"37\",\"1\",\"Training\",\"Stims/Figures/111-C-30-3.bmp\",\"tapa:ta\",\"Left\",\"37\",\"4\",\"2\",\"5\",\"P\",\"J\",\"50\"
\"\",\"\",\"approach-retreat\",\"54\",\"596767\",\"0.0-54.0\",\"\",\"\",\"2-5\",\"4667\",\"37\",\"1\",\"Training\",\"Stims/Figures/144-J-10-3.bmp\",\"malala\",\"Right\",\"37\",\"4\",\"3\",\"5\",\"S\",\"J\",\"51\"
\"\",\"\",\"approach-retreat\",\"55\",\"602770\",\"0.0-55.0\",\"\",\"\",\"2-5\",\"4461\",\"39\",\"1\",\"Training\",\"Stims/Figures/27-C-30-1.bmp\",\"pa:pa:ka\",\"Right\",\"39\",\"4\",\"4\",\"5\",\"P\",\"J\",\"52\"
\"\",\"\",\"approach-retreat\",\"56\",\"608469\",\"0.0-56.0\",\"\",\"\",\"2-5\",\"4151\",\"38\",\"1\",\"Training\",\"Stims/Figures/139-C-20-2.bmp\",\"pa:kaka\",\"Up\",\"38\",\"4\",\"5\",\"5\",\"P\",\"J\",\"53\"
\"\",\"\",\"approach-retreat\",\"57\",\"614074\",\"0.0-57.0\",\"\",\"\",\"2-5\",\"4064\",\"38\",\"1\",\"Training\",\"Stims/Figures/19-C-20-4.bmp\",\"ta:ka:ta\",\"Up\",\"38\",\"4\",\"6\",\"5\",\"P\",\"J\",\"54\"
\"\",\"\",\"approach-retreat\",\"58\",\"619761\",\"0.0-58.0\",\"\",\"\",\"2-5\",\"4145\",\"38\",\"1\",\"Training\",\"Stims/Figures/19-J-10-4.bmp\",\"na:mana\",\"Down\",\"38\",\"4\",\"7\",\"5\",\"S\",\"J\",\"55\"
\"\",\"\",\"approach-retreat\",\"59\",\"625297\",\"0.0-59.0\",\"\",\"\",\"2-5\",\"3985\",\"39\",\"1\",\"Training\",\"Stims/Figures/57-C-30-1.bmp\",\"tapaka\",\"Right\",\"39\",\"4\",\"8\",\"5\",\"P\",\"J\",\"56\"
\"\",\"\",\"approach-retreat\",\"60\",\"631300\",\"0.0-60.0\",\"\",\"\",\"2-5\",\"4458\",\"38\",\"1\",\"Training\",\"Stims/Figures/57-J-0-1.bmp\",\"namala\",\"Down\",\"38\",\"4\",\"9\",\"5\",\"S\",\"J\",\"57\"
\"\",\"\",\"approach-retreat\",\"61\",\"637193\",\"0.0-61.0\",\"\",\"\",\"2-5\",\"4354\",\"39\",\"1\",\"Training\",\"Stims/Figures/84-J-0-2.bmp\",\"ma:mana\",\"Left\",\"39\",\"4\",\"10\",\"5\",\"S\",\"J\",\"58\"
\"\",\"\",\"approach-retreat\",\"62\",\"642946\",\"0.0-62.0\",\"\",\"\",\"2-5\",\"4214\",\"40\",\"1\",\"Training\",\"Stims/Figures/27-J-0-1.bmp\",\"nalana\",\"Up\",\"40\",\"4\",\"11\",\"5\",\"S\",\"J\",\"59\"
\"\",\"\",\"approach-retreat\",\"63\",\"648663\",\"0.0-63.0\",\"\",\"\",\"2-5\",\"4165\",\"39\",\"1\",\"Training\",\"Stims/Figures/87-J-10-4.bmp\",\"mama:la\",\"Left\",\"39\",\"4\",\"12\",\"5\",\"S\",\"J\",\"60\"
\"\",\"\",\"approach-retreat\",\"64\",\"654445\",\"0.0-64.0\",\"\",\"\",\"2-5\",\"4271\",\"40\",\"1\",\"Training\",\"Stims/Figures/84-C-20-2.bmp\",\"pa:kata\",\"Down\",\"40\",\"4\",\"13\",\"5\",\"P\",\"J\",\"61\"
\"\",\"\",\"approach-retreat\",\"65\",\"660035\",\"0.0-65.0\",\"\",\"\",\"2-5\",\"4068\",\"39\",\"1\",\"Training\",\"Stims/Figures/87-C-20-4.bmp\",\"papata\",\"Right\",\"39\",\"4\",\"14\",\"5\",\"P\",\"J\",\"62\"
\"\",\"\",\"approach-retreat\",\"66\",\"665678\",\"0.0-66.0\",\"\",\"\",\"2-5\",\"4130\",\"40\",\"1\",\"Training\",\"Stims/Figures/111-J-10-3.bmp\",\"nala:na\",\"Up\",\"40\",\"4\",\"15\",\"5\",\"S\",\"J\",\"63\"
\"\",\"\",\"approach-retreat\",\"67\",\"671425\",\"0.0-67.0\",\"\",\"\",\"2-5\",\"4202\",\"38\",\"1\",\"Training\",\"Stims/Figures/139-J-0-2.bmp\",\"na:ma:na\",\"Down\",\"38\",\"4\",\"16\",\"5\",\"S\",\"J\",\"64\"
\"\",\"\",\"approach-retreat\",\"68\",\"677110\",\"0.0-68.0\",\"\",\"\",\"2-5\",\"4139\",\"39\",\"1\",\"Training\",\"Stims/Figures/139-J-0-2.bmp\",\"na:ma:na\",\"Left\",\"39\",\"5\",\"1\",\"5\",\"S\",\"J\",\"65\"
\"\",\"\",\"approach-retreat\",\"69\",\"682729\",\"0.0-69.0\",\"\",\"\",\"2-5\",\"4080\",\"37\",\"1\",\"Training\",\"Stims/Figures/84-C-20-2.bmp\",\"pa:kata\",\"Left\",\"37\",\"5\",\"2\",\"5\",\"P\",\"J\",\"66\"
\"\",\"\",\"approach-retreat\",\"70\",\"688560\",\"0.0-70.0\",\"\",\"\",\"2-5\",\"4292\",\"40\",\"1\",\"Training\",\"Stims/Figures/144-C-30-3.bmp\",\"takaka\",\"Down\",\"40\",\"5\",\"3\",\"5\",\"P\",\"J\",\"67\"
\"\",\"\",\"approach-retreat\",\"71\",\"694143\",\"0.0-71.0\",\"\",\"\",\"2-5\",\"4062\",\"37\",\"1\",\"Training\",\"Stims/Figures/57-J-0-1.bmp\",\"namala\",\"Right\",\"37\",\"5\",\"4\",\"5\",\"S\",\"J\",\"68\"
\"\",\"\",\"approach-retreat\",\"72\",\"699682\",\"0.0-72.0\",\"\",\"\",\"2-5\",\"3993\",\"37\",\"1\",\"Training\",\"Stims/Figures/87-J-10-4.bmp\",\"mama:la\",\"Right\",\"37\",\"5\",\"5\",\"5\",\"S\",\"J\",\"69\"
\"\",\"\",\"approach-retreat\",\"73\",\"705243\",\"0.0-73.0\",\"\",\"\",\"2-5\",\"4024\",\"37\",\"1\",\"Training\",\"Stims/Figures/111-C-30-3.bmp\",\"tapa:ta\",\"Left\",\"37\",\"5\",\"6\",\"5\",\"P\",\"J\",\"70\"
\"\",\"\",\"approach-retreat\",\"74\",\"711111\",\"0.0-74.0\",\"\",\"\",\"2-5\",\"4316\",\"38\",\"0\",\"Training\",\"Stims/Figures/19-J-10-4.bmp\",\"na:mana\",\"Up\",\"40\",\"5\",\"7\",\"5\",\"S\",\"J\",\"71\"
\"\",\"\",\"approach-retreat\",\"75\",\"716879\",\"0.0-75.0\",\"\",\"\",\"2-5\",\"4229\",\"40\",\"1\",\"Training\",\"Stims/Figures/27-J-0-1.bmp\",\"nalana\",\"Up\",\"40\",\"5\",\"8\",\"5\",\"S\",\"J\",\"72\"
\"\",\"\",\"approach-retreat\",\"76\",\"723010\",\"0.0-76.0\",\"\",\"\",\"2-5\",\"4592\",\"40\",\"1\",\"Training\",\"Stims/Figures/139-C-20-2.bmp\",\"pa:kaka\",\"Down\",\"40\",\"5\",\"9\",\"5\",\"P\",\"J\",\"73\"
\"\",\"\",\"approach-retreat\",\"77\",\"729045\",\"0.0-77.0\",\"\",\"\",\"2-5\",\"4513\",\"40\",\"1\",\"Training\",\"Stims/Figures/84-J-0-2.bmp\",\"ma:mana\",\"Up\",\"40\",\"5\",\"10\",\"5\",\"S\",\"J\",\"74\"
\"\",\"\",\"approach-retreat\",\"78\",\"734816\",\"0.0-78.0\",\"\",\"\",\"2-5\",\"4226\",\"39\",\"1\",\"Training\",\"Stims/Figures/19-C-20-4.bmp\",\"ta:ka:ta\",\"Right\",\"39\",\"5\",\"11\",\"5\",\"P\",\"J\",\"75\"
\"\",\"\",\"approach-retreat\",\"79\",\"740351\",\"0.0-79.0\",\"\",\"\",\"2-5\",\"3995\",\"37\",\"1\",\"Training\",\"Stims/Figures/144-J-10-3.bmp\",\"malala\",\"Right\",\"37\",\"5\",\"12\",\"5\",\"S\",\"J\",\"76\"
\"\",\"\",\"approach-retreat\",\"80\",\"746176\",\"0.0-80.0\",\"\",\"\",\"2-5\",\"4280\",\"38\",\"1\",\"Training\",\"Stims/Figures/111-J-10-3.bmp\",\"nala:na\",\"Down\",\"38\",\"5\",\"13\",\"5\",\"S\",\"J\",\"77\"
\"\",\"\",\"approach-retreat\",\"81\",\"751929\",\"0.0-81.0\",\"\",\"\",\"2-5\",\"4209\",\"38\",\"0\",\"Training\",\"Stims/Figures/57-C-30-1.bmp\",\"tapaka\",\"Down\",\"40\",\"5\",\"14\",\"5\",\"P\",\"J\",\"78\"
\"\",\"\",\"approach-retreat\",\"82\",\"757743\",\"0.0-82.0\",\"\",\"\",\"2-5\",\"4272\",\"38\",\"1\",\"Training\",\"Stims/Figures/87-C-20-4.bmp\",\"papata\",\"Up\",\"38\",\"5\",\"15\",\"5\",\"P\",\"J\",\"79\"
\"\",\"\",\"approach-retreat\",\"83\",\"763455\",\"0.0-83.0\",\"\",\"\",\"2-5\",\"4164\",\"37\",\"1\",\"Training\",\"Stims/Figures/27-C-30-1.bmp\",\"pa:pa:ka\",\"Left\",\"37\",\"5\",\"16\",\"5\",\"P\",\"J\",\"80\"
\"\",\"\",\"approach-retreat\",\"84\",\"769034\",\"0.0-84.0\",\"\",\"\",\"2-5\",\"4035\",\"38\",\"1\",\"Training\",\"Stims/Figures/144-J-10-3.bmp\",\"malala\",\"Down\",\"38\",\"6\",\"1\",\"5\",\"S\",\"J\",\"81\"
\"\",\"\",\"approach-retreat\",\"85\",\"774702\",\"0.0-85.0\",\"\",\"\",\"2-5\",\"4150\",\"38\",\"1\",\"Training\",\"Stims/Figures/111-C-30-3.bmp\",\"tapa:ta\",\"Up\",\"38\",\"6\",\"2\",\"5\",\"P\",\"J\",\"82\"
\"\",\"\",\"approach-retreat\",\"86\",\"780251\",\"0.0-86.0\",\"\",\"\",\"2-5\",\"4037\",\"40\",\"1\",\"Training\",\"Stims/Figures/87-C-20-4.bmp\",\"papata\",\"Down\",\"40\",\"6\",\"3\",\"5\",\"P\",\"J\",\"83\"
\"\",\"\",\"approach-retreat\",\"87\",\"786159\",\"0.0-87.0\",\"\",\"\",\"2-5\",\"4390\",\"39\",\"1\",\"Training\",\"Stims/Figures/84-J-0-2.bmp\",\"ma:mana\",\"Left\",\"39\",\"6\",\"4\",\"5\",\"S\",\"J\",\"84\"
\"\",\"\",\"approach-retreat\",\"88\",\"791811\",\"0.0-88.0\",\"\",\"\",\"2-5\",\"4111\",\"37\",\"1\",\"Training\",\"Stims/Figures/19-C-20-4.bmp\",\"ta:ka:ta\",\"Left\",\"37\",\"6\",\"5\",\"5\",\"P\",\"J\",\"85\"
\"\",\"\",\"approach-retreat\",\"89\",\"797713\",\"0.0-89.0\",\"\",\"\",\"2-5\",\"4356\",\"39\",\"1\",\"Training\",\"Stims/Figures/57-C-30-1.bmp\",\"tapaka\",\"Right\",\"39\",\"6\",\"6\",\"5\",\"P\",\"J\",\"86\"
\"\",\"\",\"approach-retreat\",\"90\",\"803452\",\"0.0-90.0\",\"\",\"\",\"2-5\",\"4201\",\"37\",\"1\",\"Training\",\"Stims/Figures/19-J-10-4.bmp\",\"na:mana\",\"Right\",\"37\",\"6\",\"7\",\"5\",\"S\",\"J\",\"87\"
\"\",\"\",\"approach-retreat\",\"91\",\"809251\",\"0.0-91.0\",\"\",\"\",\"2-5\",\"4249\",\"40\",\"1\",\"Training\",\"Stims/Figures/139-J-0-2.bmp\",\"na:ma:na\",\"Up\",\"40\",\"6\",\"8\",\"5\",\"S\",\"J\",\"88\"
\"\",\"\",\"approach-retreat\",\"92\",\"814822\",\"0.0-92.0\",\"\",\"\",\"2-5\",\"4046\",\"37\",\"1\",\"Training\",\"Stims/Figures/87-J-10-4.bmp\",\"mama:la\",\"Right\",\"37\",\"6\",\"9\",\"5\",\"S\",\"J\",\"89\"
\"\",\"\",\"approach-retreat\",\"93\",\"821100\",\"0.0-93.0\",\"\",\"\",\"2-5\",\"4735\",\"38\",\"1\",\"Training\",\"Stims/Figures/57-J-0-1.bmp\",\"namala\",\"Down\",\"38\",\"6\",\"10\",\"5\",\"S\",\"J\",\"90\"
\"\",\"\",\"approach-retreat\",\"94\",\"826796\",\"0.0-94.0\",\"\",\"\",\"2-5\",\"4151\",\"38\",\"1\",\"Training\",\"Stims/Figures/139-C-20-2.bmp\",\"pa:kaka\",\"Up\",\"38\",\"6\",\"11\",\"5\",\"P\",\"J\",\"91\"
\"\",\"\",\"approach-retreat\",\"95\",\"832998\",\"0.0-95.0\",\"\",\"\",\"2-5\",\"4637\",\"37\",\"1\",\"Training\",\"Stims/Figures/84-C-20-2.bmp\",\"pa:kata\",\"Left\",\"37\",\"6\",\"12\",\"5\",\"P\",\"J\",\"92\"
\"\",\"\",\"approach-retreat\",\"96\",\"838578\",\"0.0-96.0\",\"\",\"\",\"2-5\",\"4047\",\"39\",\"1\",\"Training\",\"Stims/Figures/27-J-0-1.bmp\",\"nalana\",\"Left\",\"39\",\"6\",\"13\",\"5\",\"S\",\"J\",\"93\"
\"\",\"\",\"approach-retreat\",\"97\",\"844353\",\"0.0-97.0\",\"\",\"\",\"2-5\",\"4235\",\"40\",\"1\",\"Training\",\"Stims/Figures/27-C-30-1.bmp\",\"pa:pa:ka\",\"Down\",\"40\",\"6\",\"14\",\"5\",\"P\",\"J\",\"94\"
\"\",\"\",\"approach-retreat\",\"98\",\"849973\",\"0.0-98.0\",\"\",\"\",\"2-5\",\"4066\",\"38\",\"1\",\"Training\",\"Stims/Figures/144-C-30-3.bmp\",\"takaka\",\"Up\",\"38\",\"6\",\"15\",\"5\",\"P\",\"J\",\"95\"
\"\",\"\",\"approach-retreat\",\"99\",\"855574\",\"0.0-99.0\",\"\",\"\",\"2-5\",\"4063\",\"37\",\"1\",\"Training\",\"Stims/Figures/111-J-10-3.bmp\",\"nala:na\",\"Right\",\"37\",\"6\",\"16\",\"5\",\"S\",\"J\",\"96\"
\"\",\"\",\"approach-retreat\",\"100\",\"861162\",\"0.0-100.0\",\"\",\"\",\"2-5\",\"4049\",\"39\",\"1\",\"Training\",\"Stims/Figures/19-J-10-4.bmp\",\"na:mana\",\"Left\",\"39\",\"7\",\"1\",\"5\",\"S\",\"J\",\"97\"
\"\",\"\",\"approach-retreat\",\"101\",\"866647\",\"0.0-101.0\",\"\",\"\",\"2-5\",\"3946\",\"39\",\"1\",\"Training\",\"Stims/Figures/87-J-10-4.bmp\",\"mama:la\",\"Left\",\"39\",\"7\",\"2\",\"5\",\"S\",\"J\",\"98\"
\"\",\"\",\"approach-retreat\",\"102\",\"872417\",\"0.0-102.0\",\"\",\"\",\"2-5\",\"4231\",\"40\",\"1\",\"Training\",\"Stims/Figures/111-C-30-3.bmp\",\"tapa:ta\",\"Down\",\"40\",\"7\",\"3\",\"5\",\"P\",\"J\",\"99\"
\"\",\"\",\"approach-retreat\",\"103\",\"878311\",\"0.0-103.0\",\"\",\"\",\"2-5\",\"4342\",\"38\",\"0\",\"Training\",\"Stims/Figures/57-J-0-1.bmp\",\"namala\",\"Up\",\"40\",\"7\",\"4\",\"5\",\"S\",\"J\",\"100\"
\"\",\"\",\"approach-retreat\",\"104\",\"884187\",\"0.0-104.0\",\"\",\"\",\"2-5\",\"4330\",\"37\",\"1\",\"Training\",\"Stims/Figures/144-C-30-3.bmp\",\"takaka\",\"Left\",\"37\",\"7\",\"5\",\"5\",\"P\",\"J\",\"101\"
\"\",\"\",\"approach-retreat\",\"105\",\"889773\",\"0.0-105.0\",\"\",\"\",\"2-5\",\"4049\",\"38\",\"1\",\"Training\",\"Stims/Figures/57-C-30-1.bmp\",\"tapaka\",\"Up\",\"38\",\"7\",\"6\",\"5\",\"P\",\"J\",\"102\"
\"\",\"\",\"approach-retreat\",\"106\",\"895342\",\"0.0-106.0\",\"\",\"\",\"2-5\",\"4061\",\"40\",\"1\",\"Training\",\"Stims/Figures/87-C-20-4.bmp\",\"papata\",\"Down\",\"40\",\"7\",\"7\",\"5\",\"P\",\"J\",\"103\"
\"\",\"\",\"approach-retreat\",\"107\",\"901015\",\"0.0-107.0\",\"\",\"\",\"2-5\",\"4153\",\"40\",\"1\",\"Training\",\"Stims/Figures/139-J-0-2.bmp\",\"na:ma:na\",\"Up\",\"40\",\"7\",\"8\",\"5\",\"S\",\"J\",\"104\"
\"\",\"\",\"approach-retreat\",\"108\",\"906624\",\"0.0-108.0\",\"\",\"\",\"2-5\",\"4099\",\"37\",\"1\",\"Training\",\"Stims/Figures/27-J-0-1.bmp\",\"nalana\",\"Right\",\"37\",\"7\",\"9\",\"5\",\"S\",\"J\",\"105\"
\"\",\"\",\"approach-retreat\",\"109\",\"912168\",\"0.0-109.0\",\"\",\"\",\"2-5\",\"4002\",\"37\",\"1\",\"Training\",\"Stims/Figures/19-C-20-4.bmp\",\"ta:ka:ta\",\"Left\",\"37\",\"7\",\"10\",\"5\",\"P\",\"J\",\"106\"
\"\",\"\",\"approach-retreat\",\"110\",\"917727\",\"0.0-110.0\",\"\",\"\",\"2-5\",\"4020\",\"37\",\"1\",\"Training\",\"Stims/Figures/144-J-10-3.bmp\",\"malala\",\"Right\",\"37\",\"7\",\"11\",\"5\",\"S\",\"J\",\"107\"
\"\",\"\",\"approach-retreat\",\"111\",\"923489\",\"0.0-111.0\",\"\",\"\",\"2-5\",\"4216\",\"38\",\"1\",\"Training\",\"Stims/Figures/111-J-10-3.bmp\",\"nala:na\",\"Down\",\"38\",\"7\",\"12\",\"5\",\"S\",\"J\",\"108\"
\"\",\"\",\"approach-retreat\",\"112\",\"928990\",\"0.0-112.0\",\"\",\"\",\"2-5\",\"3959\",\"39\",\"1\",\"Training\",\"Stims/Figures/139-C-20-2.bmp\",\"pa:kaka\",\"Right\",\"39\",\"7\",\"13\",\"5\",\"P\",\"J\",\"109\"
\"\",\"\",\"approach-retreat\",\"113\",\"934712\",\"0.0-113.0\",\"\",\"\",\"2-5\",\"4208\",\"40\",\"1\",\"Training\",\"Stims/Figures/27-C-30-1.bmp\",\"pa:pa:ka\",\"Down\",\"40\",\"7\",\"14\",\"5\",\"P\",\"J\",\"110\"
\"\",\"\",\"approach-retreat\",\"114\",\"940383\",\"0.0-114.0\",\"\",\"\",\"2-5\",\"4133\",\"38\",\"1\",\"Training\",\"Stims/Figures/84-C-20-2.bmp\",\"pa:kata\",\"Up\",\"38\",\"7\",\"15\",\"5\",\"P\",\"J\",\"111\"
\"\",\"\",\"approach-retreat\",\"115\",\"945966\",\"0.0-115.0\",\"\",\"\",\"2-5\",\"4044\",\"37\",\"1\",\"Training\",\"Stims/Figures/84-J-0-2.bmp\",\"ma:mana\",\"Right\",\"37\",\"7\",\"16\",\"5\",\"S\",\"J\",\"112\"
\"\",\"\",\"approach-retreat\",\"116\",\"951540\",\"0.0-116.0\",\"\",\"\",\"2-5\",\"4027\",\"38\",\"1\",\"Training\",\"Stims/Figures/57-C-30-1.bmp\",\"tapaka\",\"Up\",\"38\",\"8\",\"1\",\"5\",\"P\",\"J\",\"113\"
\"\",\"\",\"approach-retreat\",\"117\",\"957061\",\"0.0-117.0\",\"\",\"\",\"2-5\",\"3985\",\"39\",\"1\",\"Training\",\"Stims/Figures/144-J-10-3.bmp\",\"malala\",\"Left\",\"39\",\"8\",\"2\",\"5\",\"S\",\"J\",\"114\"
\"\",\"\",\"approach-retreat\",\"118\",\"962578\",\"0.0-118.0\",\"\",\"\",\"2-5\",\"3972\",\"37\",\"1\",\"Training\",\"Stims/Figures/139-J-0-2.bmp\",\"na:ma:na\",\"Right\",\"37\",\"8\",\"3\",\"5\",\"S\",\"J\",\"115\"
\"\",\"\",\"approach-retreat\",\"119\",\"968571\",\"0.0-119.0\",\"\",\"\",\"2-5\",\"4453\",\"38\",\"1\",\"Training\",\"Stims/Figures/57-J-0-1.bmp\",\"namala\",\"Down\",\"38\",\"8\",\"4\",\"5\",\"S\",\"J\",\"116\"
\"\",\"\",\"approach-retreat\",\"120\",\"974349\",\"0.0-120.0\",\"\",\"\",\"2-5\",\"4231\",\"40\",\"1\",\"Training\",\"Stims/Figures/144-C-30-3.bmp\",\"takaka\",\"Down\",\"40\",\"8\",\"5\",\"5\",\"P\",\"J\",\"117\"
\"\",\"\",\"approach-retreat\",\"121\",\"979852\",\"0.0-121.0\",\"\",\"\",\"2-5\",\"3986\",\"37\",\"1\",\"Training\",\"Stims/Figures/19-C-20-4.bmp\",\"ta:ka:ta\",\"Left\",\"37\",\"8\",\"6\",\"5\",\"P\",\"J\",\"118\"
\"\",\"\",\"approach-retreat\",\"122\",\"985554\",\"0.0-122.0\",\"\",\"\",\"2-5\",\"4150\",\"38\",\"1\",\"Training\",\"Stims/Figures/87-C-20-4.bmp\",\"papata\",\"Up\",\"38\",\"8\",\"7\",\"5\",\"P\",\"J\",\"119\"
\"\",\"\",\"approach-retreat\",\"123\",\"991740\",\"0.0-123.0\",\"\",\"\",\"2-5\",\"4622\",\"39\",\"1\",\"Training\",\"Stims/Figures/111-J-10-3.bmp\",\"nala:na\",\"Left\",\"39\",\"8\",\"8\",\"5\",\"S\",\"J\",\"120\"
\"\",\"\",\"approach-retreat\",\"124\",\"997297\",\"0.0-124.0\",\"\",\"\",\"2-5\",\"4014\",\"37\",\"1\",\"Training\",\"Stims/Figures/84-J-0-2.bmp\",\"ma:mana\",\"Right\",\"37\",\"8\",\"9\",\"5\",\"S\",\"J\",\"121\"
\"\",\"\",\"approach-retreat\",\"125\",\"1003231\",\"0.0-125.0\",\"\",\"\",\"2-5\",\"4394\",\"37\",\"1\",\"Training\",\"Stims/Figures/87-J-10-4.bmp\",\"mama:la\",\"Right\",\"37\",\"8\",\"10\",\"5\",\"S\",\"J\",\"122\"
\"\",\"\",\"approach-retreat\",\"126\",\"1008927\",\"0.0-126.0\",\"\",\"\",\"2-5\",\"4155\",\"40\",\"1\",\"Training\",\"Stims/Figures/19-J-10-4.bmp\",\"na:mana\",\"Up\",\"40\",\"8\",\"11\",\"5\",\"S\",\"J\",\"123\"
\"\",\"\",\"approach-retreat\",\"127\",\"1014568\",\"0.0-127.0\",\"\",\"\",\"2-5\",\"4115\",\"40\",\"1\",\"Training\",\"Stims/Figures/111-C-30-3.bmp\",\"tapa:ta\",\"Down\",\"40\",\"8\",\"12\",\"5\",\"P\",\"J\",\"124\"
\"\",\"\",\"approach-retreat\",\"128\",\"1020188\",\"0.0-128.0\",\"\",\"\",\"2-5\",\"4105\",\"38\",\"1\",\"Training\",\"Stims/Figures/139-C-20-2.bmp\",\"pa:kaka\",\"Up\",\"38\",\"8\",\"13\",\"5\",\"P\",\"J\",\"125\"
\"\",\"\",\"approach-retreat\",\"129\",\"1025825\",\"0.0-129.0\",\"\",\"\",\"2-5\",\"4113\",\"39\",\"1\",\"Training\",\"Stims/Figures/27-J-0-1.bmp\",\"nalana\",\"Left\",\"39\",\"8\",\"14\",\"5\",\"S\",\"J\",\"126\"
\"\",\"\",\"approach-retreat\",\"130\",\"1031360\",\"0.0-130.0\",\"\",\"\",\"2-5\",\"3992\",\"39\",\"1\",\"Training\",\"Stims/Figures/84-C-20-2.bmp\",\"pa:kata\",\"Right\",\"39\",\"8\",\"15\",\"5\",\"P\",\"J\",\"127\"
\"\",\"\",\"approach-retreat\",\"131\",\"1037713\",\"0.0-131.0\",\"\",\"\",\"2-5\",\"4802\",\"40\",\"1\",\"Training\",\"Stims/Figures/27-C-30-1.bmp\",\"pa:pa:ka\",\"Down\",\"40\",\"8\",\"16\",\"5\",\"P\",\"J\",\"128\"
\"\",\"\",\"approach-retreat\",\"132\",\"1043436\",\"0.0-132.0\",\"\",\"\",\"2-5\",\"4185\",\"38\",\"1\",\"Training\",\"Stims/Figures/19-C-20-4.bmp\",\"ta:ka:ta\",\"Up\",\"38\",\"9\",\"1\",\"5\",\"P\",\"J\",\"129\"
\"\",\"\",\"approach-retreat\",\"133\",\"1049188\",\"0.0-133.0\",\"\",\"\",\"2-5\",\"4214\",\"40\",\"1\",\"Training\",\"Stims/Figures/84-J-0-2.bmp\",\"ma:mana\",\"Up\",\"40\",\"9\",\"2\",\"5\",\"S\",\"J\",\"130\"
\"\",\"\",\"approach-retreat\",\"134\",\"1054693\",\"0.0-134.0\",\"\",\"\",\"2-5\",\"3994\",\"38\",\"1\",\"Training\",\"Stims/Figures/87-C-20-4.bmp\",\"papata\",\"Up\",\"38\",\"9\",\"3\",\"5\",\"P\",\"J\",\"131\"
\"\",\"\",\"approach-retreat\",\"135\",\"1060578\",\"0.0-135.0\",\"\",\"\",\"2-5\",\"4351\",\"38\",\"1\",\"Training\",\"Stims/Figures/19-J-10-4.bmp\",\"na:mana\",\"Down\",\"38\",\"9\",\"4\",\"5\",\"S\",\"J\",\"132\"
\"\",\"\",\"approach-retreat\",\"136\",\"1066132\",\"0.0-136.0\",\"\",\"\",\"2-5\",\"4016\",\"39\",\"1\",\"Training\",\"Stims/Figures/57-C-30-1.bmp\",\"tapaka\",\"Right\",\"39\",\"9\",\"5\",\"5\",\"P\",\"J\",\"133\"
\"\",\"\",\"approach-retreat\",\"137\",\"1071763\",\"0.0-137.0\",\"\",\"\",\"2-5\",\"4094\",\"39\",\"1\",\"Training\",\"Stims/Figures/111-J-10-3.bmp\",\"nala:na\",\"Left\",\"39\",\"9\",\"6\",\"5\",\"S\",\"J\",\"134\"
\"\",\"\",\"approach-retreat\",\"138\",\"1077632\",\"0.0-138.0\",\"\",\"\",\"2-5\",\"4331\",\"39\",\"1\",\"Training\",\"Stims/Figures/57-J-0-1.bmp\",\"namala\",\"Left\",\"39\",\"9\",\"7\",\"5\",\"S\",\"J\",\"135\"
\"\",\"\",\"approach-retreat\",\"139\",\"1083835\",\"0.0-139.0\",\"\",\"\",\"2-5\",\"4661\",\"39\",\"1\",\"Training\",\"Stims/Figures/84-C-20-2.bmp\",\"pa:kata\",\"Right\",\"39\",\"9\",\"8\",\"5\",\"P\",\"J\",\"136\"
\"\",\"\",\"approach-retreat\",\"140\",\"1089622\",\"0.0-140.0\",\"\",\"\",\"2-5\",\"4241\",\"37\",\"1\",\"Training\",\"Stims/Figures/111-C-30-3.bmp\",\"tapa:ta\",\"Left\",\"37\",\"9\",\"9\",\"5\",\"P\",\"J\",\"137\"
\"\",\"\",\"approach-retreat\",\"141\",\"1095223\",\"0.0-141.0\",\"\",\"\",\"2-5\",\"4061\",\"38\",\"1\",\"Training\",\"Stims/Figures/139-J-0-2.bmp\",\"na:ma:na\",\"Down\",\"38\",\"9\",\"10\",\"5\",\"S\",\"J\",\"138\"
\"\",\"\",\"approach-retreat\",\"142\",\"1101177\",\"0.0-142.0\",\"\",\"\",\"2-5\",\"4416\",\"38\",\"1\",\"Training\",\"Stims/Figures/144-J-10-3.bmp\",\"malala\",\"Down\",\"38\",\"9\",\"11\",\"5\",\"S\",\"J\",\"139\"
\"\",\"\",\"approach-retreat\",\"143\",\"1106946\",\"0.0-143.0\",\"\",\"\",\"2-5\",\"4231\",\"38\",\"1\",\"Training\",\"Stims/Figures/139-C-20-2.bmp\",\"pa:kaka\",\"Up\",\"38\",\"9\",\"12\",\"5\",\"P\",\"J\",\"140\"
\"\",\"\",\"approach-retreat\",\"144\",\"1112582\",\"0.0-144.0\",\"\",\"\",\"2-5\",\"4092\",\"37\",\"1\",\"Training\",\"Stims/Figures/27-C-30-1.bmp\",\"pa:pa:ka\",\"Left\",\"37\",\"9\",\"13\",\"5\",\"P\",\"J\",\"141\"
\"\",\"\",\"approach-retreat\",\"145\",\"1118155\",\"0.0-145.0\",\"\",\"\",\"2-5\",\"4036\",\"37\",\"1\",\"Training\",\"Stims/Figures/27-J-0-1.bmp\",\"nalana\",\"Right\",\"37\",\"9\",\"14\",\"5\",\"S\",\"J\",\"142\"
\"\",\"\",\"approach-retreat\",\"146\",\"1124306\",\"0.0-146.0\",\"\",\"\",\"2-5\",\"4605\",\"40\",\"1\",\"Training\",\"Stims/Figures/144-C-30-3.bmp\",\"takaka\",\"Down\",\"40\",\"9\",\"15\",\"5\",\"P\",\"J\",\"143\"
\"\",\"\",\"approach-retreat\",\"147\",\"1129823\",\"0.0-147.0\",\"\",\"\",\"2-5\",\"3976\",\"37\",\"1\",\"Training\",\"Stims/Figures/87-J-10-4.bmp\",\"mama:la\",\"Right\",\"37\",\"9\",\"16\",\"5\",\"S\",\"J\",\"144\"
\"185533\",\"\",\"instructions\",\"148\",\"1315357\",\"0.0-148.0\",\"[{\"\"page_index\"\":0,\"\"viewing_time\"\":185531}]\",\"\",\"\",\"\",\"\",\"\",\"\",\"\",\"\",\"\",\"\",\"\",\"\",\"\",\"\",\"\",\"\"
\"\",\"\",\"approach-retreat\",\"149\",\"1321930\",\"0.0-149.0\",\"\",\"\",\"2-5\",\"5040\",\"37\",\"1\",\"Testing\",\"Stims/Figures/84-C-20-2.bmp\",\"pa:kata\",\"Left\",\"37\",\"1\",\"1\",\"5\",\"P\",\"J\",\"1\"
\"\",\"\",\"approach-retreat\",\"150\",\"1328354\",\"0.0-150.0\",\"\",\"\",\"2-5\",\"4889\",\"37\",\"1\",\"Testing\",\"Stims/Figures/144-C-30-3.bmp\",\"takaka\",\"Left\",\"37\",\"1\",\"2\",\"5\",\"P\",\"J\",\"2\"
\"\",\"\",\"approach-retreat\",\"151\",\"1334663\",\"0.0-151.0\",\"\",\"\",\"2-5\",\"4779\",\"38\",\"0\",\"Testing\",\"Stims/Figures/27-J-0-1.bmp\",\"nalana\",\"Up\",\"40\",\"1\",\"3\",\"5\",\"S\",\"J\",\"3\"
\"\",\"\",\"approach-retreat\",\"152\",\"1340318\",\"0.0-152.0\",\"\",\"\",\"2-5\",\"4135\",\"39\",\"1\",\"Testing\",\"Stims/Figures/85-C-20-2.bmp\",\"papa:ta\",\"Right\",\"39\",\"1\",\"4\",\"5\",\"P\",\"J\",\"4\"
\"\",\"\",\"approach-retreat\",\"153\",\"1346074\",\"0.0-153.0\",\"\",\"\",\"2-5\",\"4226\",\"38\",\"1\",\"Testing\",\"Stims/Figures/44-J-10-3.bmp\",\"ma:la:la\",\"Down\",\"38\",\"1\",\"5\",\"5\",\"S\",\"J\",\"5\"
\"\",\"\",\"approach-retreat\",\"154\",\"1351974\",\"0.0-154.0\",\"\",\"\",\"2-5\",\"4362\",\"40\",\"0\",\"Testing\",\"Stims/Figures/111-J-10-3.bmp\",\"nala:na\",\"Down\",\"38\",\"1\",\"6\",\"5\",\"S\",\"J\",\"6\"
\"\",\"\",\"approach-retreat\",\"155\",\"1357677\",\"0.0-155.0\",\"\",\"\",\"2-5\",\"4168\",\"38\",\"0\",\"Testing\",\"Stims/Figures/19-J-10-4.bmp\",\"na:mana\",\"Up\",\"40\",\"1\",\"7\",\"5\",\"S\",\"J\",\"7\"
\"\",\"\",\"approach-retreat\",\"156\",\"1363631\",\"0.0-156.0\",\"\",\"\",\"2-5\",\"4423\",\"38\",\"1\",\"Testing\",\"Stims/Figures/111-C-30-3.bmp\",\"tapa:ta\",\"Up\",\"38\",\"1\",\"8\",\"5\",\"P\",\"J\",\"8\"
\"\",\"\",\"approach-retreat\",\"157\",\"1369427\",\"0.0-157.0\",\"\",\"\",\"2-5\",\"4280\",\"39\",\"1\",\"Testing\",\"Stims/Figures/19-C-20-4.bmp\",\"ta:ka:ta\",\"Right\",\"39\",\"1\",\"9\",\"5\",\"P\",\"J\",\"9\"
\"\",\"\",\"approach-retreat\",\"158\",\"1375176\",\"0.0-158.0\",\"\",\"\",\"2-5\",\"4234\",\"37\",\"0\",\"Testing\",\"Stims/Figures/144-J-10-3.bmp\",\"malala\",\"Left\",\"39\",\"1\",\"10\",\"5\",\"S\",\"J\",\"10\"
\"\",\"\",\"approach-retreat\",\"159\",\"1380845\",\"0.0-159.0\",\"\",\"\",\"2-5\",\"4155\",\"38\",\"1\",\"Testing\",\"Stims/Figures/57-J-0-1.bmp\",\"namala\",\"Down\",\"38\",\"1\",\"11\",\"5\",\"S\",\"J\",\"11\"
\"\",\"\",\"approach-retreat\",\"160\",\"1386450\",\"0.0-160.0\",\"\",\"\",\"2-5\",\"4085\",\"39\",\"1\",\"Testing\",\"Stims/Figures/84-J-0-2.bmp\",\"ma:mana\",\"Left\",\"39\",\"1\",\"12\",\"5\",\"S\",\"J\",\"12\"
\"\",\"\",\"approach-retreat\",\"161\",\"1392895\",\"0.0-161.0\",\"\",\"\",\"2-5\",\"4915\",\"40\",\"1\",\"Testing\",\"Stims/Figures/87-J-10-4.bmp\",\"mama:la\",\"Up\",\"40\",\"1\",\"13\",\"5\",\"S\",\"J\",\"13\"
\"\",\"\",\"approach-retreat\",\"162\",\"1398506\",\"0.0-162.0\",\"\",\"\",\"2-5\",\"4069\",\"37\",\"1\",\"Testing\",\"Stims/Figures/27-C-30-1.bmp\",\"pa:pa:ka\",\"Left\",\"37\",\"1\",\"14\",\"5\",\"P\",\"J\",\"14\"
\"\",\"\",\"approach-retreat\",\"163\",\"1404191\",\"0.0-163.0\",\"\",\"\",\"2-5\",\"4142\",\"39\",\"1\",\"Testing\",\"Stims/Figures/71-C-30-1.bmp\",\"ta:pa:ta\",\"Right\",\"39\",\"1\",\"15\",\"5\",\"P\",\"J\",\"15\"
\"\",\"\",\"approach-retreat\",\"164\",\"1409727\",\"0.0-164.0\",\"\",\"\",\"2-5\",\"3997\",\"39\",\"1\",\"Testing\",\"Stims/Figures/139-C-20-2.bmp\",\"pa:kaka\",\"Right\",\"39\",\"1\",\"16\",\"5\",\"P\",\"J\",\"16\"
\"\",\"\",\"approach-retreat\",\"165\",\"1415497\",\"0.0-165.0\",\"\",\"\",\"2-5\",\"4238\",\"39\",\"1\",\"Testing\",\"Stims/Figures/7-C-20-4.bmp\",\"pa:pata\",\"Right\",\"39\",\"1\",\"17\",\"5\",\"P\",\"J\",\"17\"
\"\",\"\",\"approach-retreat\",\"166\",\"1422068\",\"0.0-166.0\",\"\",\"\",\"2-5\",\"5032\",\"38\",\"0\",\"Testing\",\"Stims/Figures/87-C-20-4.bmp\",\"papata\",\"Down\",\"40\",\"1\",\"18\",\"5\",\"P\",\"J\",\"18\"
\"\",\"\",\"approach-retreat\",\"167\",\"1427610\",\"0.0-167.0\",\"\",\"\",\"2-5\",\"3986\",\"37\",\"1\",\"Testing\",\"Stims/Figures/139-J-0-2.bmp\",\"na:ma:na\",\"Right\",\"37\",\"1\",\"19\",\"5\",\"S\",\"J\",\"19\"
\"\",\"\",\"approach-retreat\",\"168\",\"1433377\",\"0.0-168.0\",\"\",\"\",\"2-5\",\"4245\",\"40\",\"1\",\"Testing\",\"Stims/Figures/44-C-30-3.bmp\",\"taka:ta\",\"Down\",\"40\",\"1\",\"20\",\"5\",\"P\",\"J\",\"20\"
\"\",\"\",\"approach-retreat\",\"169\",\"1439183\",\"0.0-169.0\",\"\",\"\",\"2-5\",\"4285\",\"40\",\"1\",\"Testing\",\"Stims/Figures/7-J-10-4.bmp\",\"malana\",\"Up\",\"40\",\"1\",\"21\",\"5\",\"S\",\"J\",\"21\"
\"\",\"\",\"approach-retreat\",\"170\",\"1444743\",\"0.0-170.0\",\"\",\"\",\"2-5\",\"4033\",\"39\",\"1\",\"Testing\",\"Stims/Figures/85-J-0-2.bmp\",\"na:lala\",\"Left\",\"39\",\"1\",\"22\",\"5\",\"S\",\"J\",\"22\"
\"\",\"\",\"approach-retreat\",\"171\",\"1450879\",\"0.0-171.0\",\"\",\"\",\"2-5\",\"4608\",\"38\",\"1\",\"Testing\",\"Stims/Figures/71-J-0-1.bmp\",\"nama:na\",\"Down\",\"38\",\"1\",\"23\",\"5\",\"S\",\"J\",\"23\"
\"\",\"\",\"approach-retreat\",\"172\",\"1456509\",\"0.0-172.0\",\"\",\"\",\"2-5\",\"4100\",\"38\",\"1\",\"Testing\",\"Stims/Figures/57-C-30-1.bmp\",\"tapaka\",\"Up\",\"38\",\"1\",\"24\",\"5\",\"P\",\"J\",\"24\"
\"\",\"\",\"approach-retreat\",\"173\",\"1463258\",\"0.0-173.0\",\"\",\"\",\"2-5\",\"5215\",\"38\",\"1\",\"Testing\",\"Stims/Figures/44-J-10-3.bmp\",\"ma:la:la\",\"Down\",\"38\",\"2\",\"1\",\"5\",\"S\",\"J\",\"25\"
\"\",\"\",\"approach-retreat\",\"174\",\"1469730\",\"0.0-174.0\",\"\",\"\",\"2-5\",\"4940\",\"38\",\"1\",\"Testing\",\"Stims/Figures/84-C-20-2.bmp\",\"pa:kata\",\"Up\",\"38\",\"2\",\"2\",\"5\",\"P\",\"J\",\"26\"
\"\",\"\",\"approach-retreat\",\"175\",\"1475604\",\"0.0-175.0\",\"\",\"\",\"2-5\",\"4343\",\"40\",\"1\",\"Testing\",\"Stims/Figures/144-J-10-3.bmp\",\"malala\",\"Up\",\"40\",\"2\",\"3\",\"5\",\"S\",\"J\",\"27\"
\"\",\"\",\"approach-retreat\",\"176\",\"1481201\",\"0.0-176.0\",\"\",\"\",\"2-5\",\"4056\",\"39\",\"0\",\"Testing\",\"Stims/Figures/139-J-0-2.bmp\",\"na:ma:na\",\"Right\",\"37\",\"2\",\"4\",\"5\",\"S\",\"J\",\"28\"
\"\",\"\",\"approach-retreat\",\"177\",\"1486970\",\"0.0-177.0\",\"\",\"\",\"2-5\",\"4233\",\"38\",\"1\",\"Testing\",\"Stims/Figures/27-J-0-1.bmp\",\"nalana\",\"Down\",\"38\",\"2\",\"5\",\"5\",\"S\",\"J\",\"29\"
\"\",\"\",\"approach-retreat\",\"178\",\"1493255\",\"0.0-178.0\",\"\",\"\",\"2-5\",\"4755\",\"39\",\"1\",\"Testing\",\"Stims/Figures/7-J-10-4.bmp\",\"malana\",\"Left\",\"39\",\"2\",\"6\",\"5\",\"S\",\"J\",\"30\"
\"\",\"\",\"approach-retreat\",\"179\",\"1498886\",\"0.0-179.0\",\"\",\"\",\"2-5\",\"4102\",\"39\",\"1\",\"Testing\",\"Stims/Figures/57-C-30-1.bmp\",\"tapaka\",\"Right\",\"39\",\"2\",\"7\",\"5\",\"P\",\"J\",\"31\"
\"\",\"\",\"approach-retreat\",\"180\",\"1504741\",\"0.0-180.0\",\"\",\"\",\"2-5\",\"4345\",\"40\",\"1\",\"Testing\",\"Stims/Figures/27-C-30-1.bmp\",\"pa:pa:ka\",\"Down\",\"40\",\"2\",\"8\",\"5\",\"P\",\"J\",\"32\"
\"\",\"\",\"approach-retreat\",\"181\",\"1510528\",\"0.0-181.0\",\"\",\"\",\"2-5\",\"4245\",\"40\",\"1\",\"Testing\",\"Stims/Figures/85-C-20-2.bmp\",\"papa:ta\",\"Down\",\"40\",\"2\",\"9\",\"5\",\"P\",\"J\",\"33\"
\"\",\"\",\"approach-retreat\",\"182\",\"1516329\",\"0.0-182.0\",\"\",\"\",\"2-5\",\"4267\",\"40\",\"1\",\"Testing\",\"Stims/Figures/87-J-10-4.bmp\",\"mama:la\",\"Up\",\"40\",\"2\",\"10\",\"5\",\"S\",\"J\",\"34\"
\"\",\"\",\"approach-retreat\",\"183\",\"1521913\",\"0.0-183.0\",\"\",\"\",\"2-5\",\"4058\",\"38\",\"1\",\"Testing\",\"Stims/Figures/71-C-30-1.bmp\",\"ta:pa:ta\",\"Up\",\"38\",\"2\",\"11\",\"5\",\"P\",\"J\",\"35\"
\"\",\"\",\"approach-retreat\",\"184\",\"1528019\",\"0.0-184.0\",\"\",\"\",\"2-5\",\"4569\",\"39\",\"1\",\"Testing\",\"Stims/Figures/19-J-10-4.bmp\",\"na:mana\",\"Left\",\"39\",\"2\",\"12\",\"5\",\"S\",\"J\",\"36\"
\"\",\"\",\"approach-retreat\",\"185\",\"1534364\",\"0.0-185.0\",\"\",\"\",\"2-5\",\"4830\",\"40\",\"1\",\"Testing\",\"Stims/Figures/111-C-30-3.bmp\",\"tapa:ta\",\"Down\",\"40\",\"2\",\"13\",\"5\",\"P\",\"J\",\"37\"
\"\",\"\",\"approach-retreat\",\"186\",\"1540316\",\"0.0-186.0\",\"\",\"\",\"2-5\",\"4414\",\"40\",\"1\",\"Testing\",\"Stims/Figures/19-C-20-4.bmp\",\"ta:ka:ta\",\"Down\",\"40\",\"2\",\"14\",\"5\",\"P\",\"J\",\"38\"
\"\",\"\",\"approach-retreat\",\"187\",\"1545931\",\"0.0-187.0\",\"\",\"\",\"2-5\",\"4086\",\"37\",\"1\",\"Testing\",\"Stims/Figures/85-J-0-2.bmp\",\"na:lala\",\"Right\",\"37\",\"2\",\"15\",\"5\",\"S\",\"J\",\"39\"
\"\",\"\",\"approach-retreat\",\"188\",\"1551411\",\"0.0-188.0\",\"\",\"\",\"2-5\",\"3949\",\"39\",\"1\",\"Testing\",\"Stims/Figures/144-C-30-3.bmp\",\"takaka\",\"Right\",\"39\",\"2\",\"16\",\"5\",\"P\",\"J\",\"40\"
\"\",\"\",\"approach-retreat\",\"189\",\"1557366\",\"0.0-189.0\",\"\",\"\",\"2-5\",\"4416\",\"37\",\"1\",\"Testing\",\"Stims/Figures/87-C-20-4.bmp\",\"papata\",\"Left\",\"37\",\"2\",\"17\",\"5\",\"P\",\"J\",\"41\"
\"\",\"\",\"approach-retreat\",\"190\",\"1562973\",\"0.0-190.0\",\"\",\"\",\"2-5\",\"4071\",\"37\",\"1\",\"Testing\",\"Stims/Figures/57-J-0-1.bmp\",\"namala\",\"Right\",\"37\",\"2\",\"18\",\"5\",\"S\",\"J\",\"42\"
\"\",\"\",\"approach-retreat\",\"191\",\"1569054\",\"0.0-191.0\",\"\",\"\",\"2-5\",\"4546\",\"37\",\"1\",\"Testing\",\"Stims/Figures/111-J-10-3.bmp\",\"nala:na\",\"Right\",\"37\",\"2\",\"19\",\"5\",\"S\",\"J\",\"43\"
\"\",\"\",\"approach-retreat\",\"192\",\"1574693\",\"0.0-192.0\",\"\",\"\",\"2-5\",\"4116\",\"39\",\"1\",\"Testing\",\"Stims/Figures/84-J-0-2.bmp\",\"ma:mana\",\"Left\",\"39\",\"2\",\"20\",\"5\",\"S\",\"J\",\"44\"
\"\",\"\",\"approach-retreat\",\"193\",\"1580381\",\"0.0-193.0\",\"\",\"\",\"2-5\",\"4159\",\"39\",\"1\",\"Testing\",\"Stims/Figures/71-J-0-1.bmp\",\"nama:na\",\"Left\",\"39\",\"2\",\"21\",\"5\",\"S\",\"J\",\"45\"
\"\",\"\",\"approach-retreat\",\"194\",\"1586740\",\"0.0-194.0\",\"\",\"\",\"2-5\",\"4818\",\"38\",\"1\",\"Testing\",\"Stims/Figures/7-C-20-4.bmp\",\"pa:pata\",\"Up\",\"38\",\"2\",\"22\",\"5\",\"P\",\"J\",\"46\"
\"\",\"\",\"approach-retreat\",\"195\",\"1592418\",\"0.0-195.0\",\"\",\"\",\"2-5\",\"4140\",\"37\",\"1\",\"Testing\",\"Stims/Figures/139-C-20-2.bmp\",\"pa:kaka\",\"Left\",\"37\",\"2\",\"23\",\"5\",\"P\",\"J\",\"47\"
\"\",\"\",\"approach-retreat\",\"196\",\"1598439\",\"0.0-196.0\",\"\",\"\",\"2-5\",\"4487\",\"38\",\"1\",\"Testing\",\"Stims/Figures/44-C-30-3.bmp\",\"taka:ta\",\"Up\",\"38\",\"2\",\"24\",\"5\",\"P\",\"J\",\"48\"
\"\",\"\",\"approach-retreat\",\"197\",\"1603995\",\"0.0-197.0\",\"\",\"\",\"2-5\",\"4024\",\"37\",\"1\",\"Testing\",\"Stims/Figures/144-J-10-3.bmp\",\"malala\",\"Right\",\"37\",\"3\",\"1\",\"5\",\"S\",\"J\",\"49\"
\"\",\"\",\"approach-retreat\",\"198\",\"1610744\",\"0.0-198.0\",\"\",\"\",\"2-5\",\"5210\",\"37\",\"0\",\"Testing\",\"Stims/Figures/84-C-20-2.bmp\",\"pa:kata\",\"Right\",\"39\",\"3\",\"2\",\"5\",\"P\",\"J\",\"50\"
\"\",\"\",\"approach-retreat\",\"199\",\"1616261\",\"0.0-199.0\",\"\",\"\",\"2-5\",\"4008\",\"37\",\"1\",\"Testing\",\"Stims/Figures/87-C-20-4.bmp\",\"papata\",\"Left\",\"37\",\"3\",\"3\",\"5\",\"P\",\"J\",\"51\"
\"\",\"\",\"approach-retreat\",\"200\",\"1623688\",\"0.0-200.0\",\"\",\"\",\"2-5\",\"5908\",\"38\",\"1\",\"Testing\",\"Stims/Figures/7-C-20-4.bmp\",\"pa:pata\",\"Up\",\"38\",\"3\",\"4\",\"5\",\"P\",\"J\",\"52\"
\"\",\"\",\"approach-retreat\",\"201\",\"1629502\",\"0.0-201.0\",\"\",\"\",\"2-5\",\"4291\",\"37\",\"1\",\"Testing\",\"Stims/Figures/139-C-20-2.bmp\",\"pa:kaka\",\"Left\",\"37\",\"3\",\"5\",\"5\",\"P\",\"J\",\"53\"
\"\",\"\",\"approach-retreat\",\"202\",\"1635992\",\"0.0-202.0\",\"\",\"\",\"2-5\",\"4962\",\"38\",\"0\",\"Testing\",\"Stims/Figures/111-J-10-3.bmp\",\"nala:na\",\"Up\",\"40\",\"3\",\"6\",\"5\",\"S\",\"J\",\"54\"
\"\",\"\",\"approach-retreat\",\"203\",\"1641782\",\"0.0-203.0\",\"\",\"\",\"2-5\",\"4262\",\"38\",\"1\",\"Testing\",\"Stims/Figures/144-C-30-3.bmp\",\"takaka\",\"Up\",\"38\",\"3\",\"7\",\"5\",\"P\",\"J\",\"55\"
\"\",\"\",\"approach-retreat\",\"204\",\"1648267\",\"0.0-204.0\",\"\",\"\",\"2-5\",\"4948\",\"39\",\"1\",\"Testing\",\"Stims/Figures/85-C-20-2.bmp\",\"papa:ta\",\"Right\",\"39\",\"3\",\"8\",\"5\",\"P\",\"J\",\"56\"
\"\",\"\",\"approach-retreat\",\"205\",\"1654645\",\"0.0-205.0\",\"\",\"\",\"2-5\",\"4861\",\"37\",\"1\",\"Testing\",\"Stims/Figures/84-J-0-2.bmp\",\"ma:mana\",\"Right\",\"37\",\"3\",\"9\",\"5\",\"S\",\"J\",\"57\"
\"\",\"\",\"approach-retreat\",\"206\",\"1660539\",\"0.0-206.0\",\"\",\"\",\"2-5\",\"4355\",\"37\",\"0\",\"Testing\",\"Stims/Figures/139-J-0-2.bmp\",\"na:ma:na\",\"Left\",\"39\",\"3\",\"10\",\"5\",\"S\",\"J\",\"58\"
\"\",\"\",\"approach-retreat\",\"207\",\"1666226\",\"0.0-207.0\",\"\",\"\",\"2-5\",\"4155\",\"37\",\"1\",\"Testing\",\"Stims/Figures/44-C-30-3.bmp\",\"taka:ta\",\"Left\",\"37\",\"3\",\"11\",\"5\",\"P\",\"J\",\"59\"
\"\",\"\",\"approach-retreat\",\"208\",\"1671963\",\"0.0-208.0\",\"\",\"\",\"2-5\",\"4224\",\"37\",\"0\",\"Testing\",\"Stims/Figures/19-J-10-4.bmp\",\"na:mana\",\"Left\",\"39\",\"3\",\"12\",\"5\",\"S\",\"J\",\"60\"
\"\",\"\",\"approach-retreat\",\"209\",\"1677731\",\"0.0-209.0\",\"\",\"\",\"2-5\",\"4244\",\"38\",\"1\",\"Testing\",\"Stims/Figures/7-J-10-4.bmp\",\"malana\",\"Down\",\"38\",\"3\",\"13\",\"5\",\"S\",\"J\",\"61\"
\"\",\"\",\"approach-retreat\",\"210\",\"1684032\",\"0.0-210.0\",\"\",\"\",\"2-5\",\"4771\",\"39\",\"1\",\"Testing\",\"Stims/Figures/19-C-20-4.bmp\",\"ta:ka:ta\",\"Right\",\"39\",\"3\",\"14\",\"5\",\"P\",\"J\",\"62\"
\"\",\"\",\"approach-retreat\",\"211\",\"1689662\",\"0.0-211.0\",\"\",\"\",\"2-5\",\"4097\",\"39\",\"1\",\"Testing\",\"Stims/Figures/57-J-0-1.bmp\",\"namala\",\"Left\",\"39\",\"3\",\"15\",\"5\",\"S\",\"J\",\"63\"
\"\",\"\",\"approach-retreat\",\"212\",\"1695492\",\"0.0-212.0\",\"\",\"\",\"2-5\",\"4297\",\"37\",\"1\",\"Testing\",\"Stims/Figures/27-J-0-1.bmp\",\"nalana\",\"Right\",\"37\",\"3\",\"16\",\"5\",\"S\",\"J\",\"64\"
\"\",\"\",\"approach-retreat\",\"213\",\"1701838\",\"0.0-213.0\",\"\",\"\",\"2-5\",\"4818\",\"40\",\"1\",\"Testing\",\"Stims/Figures/111-C-30-3.bmp\",\"tapa:ta\",\"Down\",\"40\",\"3\",\"17\",\"5\",\"P\",\"J\",\"65\"
\"\",\"\",\"approach-retreat\",\"214\",\"1707547\",\"0.0-214.0\",\"\",\"\",\"2-5\",\"4169\",\"38\",\"1\",\"Testing\",\"Stims/Figures/87-J-10-4.bmp\",\"mama:la\",\"Down\",\"38\",\"3\",\"18\",\"5\",\"S\",\"J\",\"66\"
\"\",\"\",\"approach-retreat\",\"215\",\"1713182\",\"0.0-215.0\",\"\",\"\",\"2-5\",\"4096\",\"38\",\"1\",\"Testing\",\"Stims/Figures/71-C-30-1.bmp\",\"ta:pa:ta\",\"Up\",\"38\",\"3\",\"19\",\"5\",\"P\",\"J\",\"67\"
\"\",\"\",\"approach-retreat\",\"216\",\"1718823\",\"0.0-216.0\",\"\",\"\",\"2-5\",\"4112\",\"40\",\"1\",\"Testing\",\"Stims/Figures/57-C-30-1.bmp\",\"tapaka\",\"Down\",\"40\",\"3\",\"20\",\"5\",\"P\",\"J\",\"68\"
\"\",\"\",\"approach-retreat\",\"217\",\"1725430\",\"0.0-217.0\",\"\",\"\",\"2-5\",\"5077\",\"40\",\"1\",\"Testing\",\"Stims/Figures/27-C-30-1.bmp\",\"pa:pa:ka\",\"Down\",\"40\",\"3\",\"21\",\"5\",\"P\",\"J\",\"69\"
\"\",\"\",\"approach-retreat\",\"218\",\"1731374\",\"0.0-218.0\",\"\",\"\",\"2-5\",\"4411\",\"40\",\"1\",\"Testing\",\"Stims/Figures/85-J-0-2.bmp\",\"na:lala\",\"Up\",\"40\",\"3\",\"22\",\"5\",\"S\",\"J\",\"70\"
\"\",\"\",\"approach-retreat\",\"219\",\"1737010\",\"0.0-219.0\",\"\",\"\",\"2-5\",\"4129\",\"40\",\"0\",\"Testing\",\"Stims/Figures/71-J-0-1.bmp\",\"nama:na\",\"Down\",\"38\",\"3\",\"23\",\"5\",\"S\",\"J\",\"71\"
\"\",\"\",\"approach-retreat\",\"220\",\"1742663\",\"0.0-220.0\",\"\",\"\",\"2-5\",\"4127\",\"38\",\"0\",\"Testing\",\"Stims/Figures/44-J-10-3.bmp\",\"ma:la:la\",\"Up\",\"40\",\"3\",\"24\",\"5\",\"S\",\"J\",\"72\"
\"\",\"\",\"approach-retreat\",\"221\",\"1748351\",\"0.0-221.0\",\"\",\"\",\"2-5\",\"4171\",\"39\",\"1\",\"Testing\",\"Stims/Figures/57-C-30-1.bmp\",\"tapaka\",\"Right\",\"39\",\"4\",\"1\",\"5\",\"P\",\"J\",\"73\"
\"\",\"\",\"approach-retreat\",\"222\",\"1754095\",\"0.0-222.0\",\"\",\"\",\"2-5\",\"4204\",\"37\",\"1\",\"Testing\",\"Stims/Figures/144-C-30-3.bmp\",\"takaka\",\"Left\",\"37\",\"4\",\"2\",\"5\",\"P\",\"J\",\"74\"
\"\",\"\",\"approach-retreat\",\"223\",\"1759758\",\"0.0-223.0\",\"\",\"\",\"2-5\",\"4129\",\"39\",\"1\",\"Testing\",\"Stims/Figures/84-C-20-2.bmp\",\"pa:kata\",\"Right\",\"39\",\"4\",\"3\",\"5\",\"P\",\"J\",\"75\"
\"\",\"\",\"approach-retreat\",\"224\",\"1765317\",\"0.0-224.0\",\"\",\"\",\"2-5\",\"4019\",\"38\",\"1\",\"Testing\",\"Stims/Figures/144-J-10-3.bmp\",\"malala\",\"Down\",\"38\",\"4\",\"4\",\"5\",\"S\",\"J\",\"76\"
\"\",\"\",\"approach-retreat\",\"225\",\"1771320\",\"0.0-225.0\",\"\",\"\",\"2-5\",\"4469\",\"40\",\"1\",\"Testing\",\"Stims/Figures/27-C-30-1.bmp\",\"pa:pa:ka\",\"Down\",\"40\",\"4\",\"5\",\"5\",\"P\",\"J\",\"77\"
\"\",\"\",\"approach-retreat\",\"226\",\"1777589\",\"0.0-226.0\",\"\",\"\",\"2-5\",\"4733\",\"39\",\"1\",\"Testing\",\"Stims/Figures/84-J-0-2.bmp\",\"ma:mana\",\"Left\",\"39\",\"4\",\"6\",\"5\",\"S\",\"J\",\"78\"
\"\",\"\",\"approach-retreat\",\"227\",\"1783323\",\"0.0-227.0\",\"\",\"\",\"2-5\",\"4198\",\"40\",\"1\",\"Testing\",\"Stims/Figures/27-J-0-1.bmp\",\"nalana\",\"Up\",\"40\",\"4\",\"7\",\"5\",\"S\",\"J\",\"79\"
\"\",\"\",\"approach-retreat\",\"228\",\"1789094\",\"0.0-228.0\",\"\",\"\",\"2-5\",\"4242\",\"39\",\"1\",\"Testing\",\"Stims/Figures/71-J-0-1.bmp\",\"nama:na\",\"Left\",\"39\",\"4\",\"8\",\"5\",\"S\",\"J\",\"80\"
\"\",\"\",\"approach-retreat\",\"229\",\"1795199\",\"0.0-229.0\",\"\",\"\",\"2-5\",\"4594\",\"40\",\"1\",\"Testing\",\"Stims/Figures/139-C-20-2.bmp\",\"pa:kaka\",\"Down\",\"40\",\"4\",\"9\",\"5\",\"P\",\"J\",\"81\"
\"\",\"\",\"approach-retreat\",\"230\",\"1800850\",\"0.0-230.0\",\"\",\"\",\"2-5\",\"4119\",\"40\",\"1\",\"Testing\",\"Stims/Figures/87-J-10-4.bmp\",\"mama:la\",\"Up\",\"40\",\"4\",\"10\",\"5\",\"S\",\"J\",\"82\"
\"\",\"\",\"approach-retreat\",\"231\",\"1806518\",\"0.0-231.0\",\"\",\"\",\"2-5\",\"4135\",\"39\",\"1\",\"Testing\",\"Stims/Figures/44-C-30-3.bmp\",\"taka:ta\",\"Right\",\"39\",\"4\",\"11\",\"5\",\"P\",\"J\",\"83\"
\"\",\"\",\"approach-retreat\",\"232\",\"1812302\",\"0.0-232.0\",\"\",\"\",\"2-5\",\"4243\",\"39\",\"1\",\"Testing\",\"Stims/Figures/71-C-30-1.bmp\",\"ta:pa:ta\",\"Right\",\"39\",\"4\",\"12\",\"5\",\"P\",\"J\",\"84\"
\"\",\"\",\"approach-retreat\",\"233\",\"1817971\",\"0.0-233.0\",\"\",\"\",\"2-5\",\"4132\",\"37\",\"1\",\"Testing\",\"Stims/Figures/85-C-20-2.bmp\",\"papa:ta\",\"Left\",\"37\",\"4\",\"13\",\"5\",\"P\",\"J\",\"85\"
\"\",\"\",\"approach-retreat\",\"234\",\"1824238\",\"0.0-234.0\",\"\",\"\",\"2-5\",\"4731\",\"37\",\"0\",\"Testing\",\"Stims/Figures/19-J-10-4.bmp\",\"na:mana\",\"Left\",\"39\",\"4\",\"14\",\"5\",\"S\",\"J\",\"86\"
\"\",\"\",\"approach-retreat\",\"235\",\"1830277\",\"0.0-235.0\",\"\",\"\",\"2-5\",\"4506\",\"40\",\"0\",\"Testing\",\"Stims/Figures/7-C-20-4.bmp\",\"pa:pata\",\"Up\",\"38\",\"4\",\"15\",\"5\",\"P\",\"J\",\"87\"
\"\",\"\",\"approach-retreat\",\"236\",\"1836014\",\"0.0-236.0\",\"\",\"\",\"2-5\",\"4207\",\"38\",\"1\",\"Testing\",\"Stims/Figures/19-C-20-4.bmp\",\"ta:ka:ta\",\"Up\",\"38\",\"4\",\"16\",\"5\",\"P\",\"J\",\"88\"
\"\",\"\",\"approach-retreat\",\"237\",\"1842119\",\"0.0-237.0\",\"\",\"\",\"2-5\",\"4577\",\"39\",\"1\",\"Testing\",\"Stims/Figures/85-J-0-2.bmp\",\"na:lala\",\"Left\",\"39\",\"4\",\"17\",\"5\",\"S\",\"J\",\"89\"
\"\",\"\",\"approach-retreat\",\"238\",\"1848523\",\"0.0-238.0\",\"\",\"\",\"2-5\",\"4876\",\"40\",\"0\",\"Testing\",\"Stims/Figures/111-J-10-3.bmp\",\"nala:na\",\"Down\",\"38\",\"4\",\"18\",\"5\",\"S\",\"J\",\"90\"
\"\",\"\",\"approach-retreat\",\"239\",\"1854304\",\"0.0-239.0\",\"\",\"\",\"2-5\",\"4265\",\"38\",\"1\",\"Testing\",\"Stims/Figures/139-J-0-2.bmp\",\"na:ma:na\",\"Down\",\"38\",\"4\",\"19\",\"5\",\"S\",\"J\",\"91\"
\"\",\"\",\"approach-retreat\",\"240\",\"1859972\",\"0.0-240.0\",\"\",\"\",\"2-5\",\"4145\",\"40\",\"1\",\"Testing\",\"Stims/Figures/87-C-20-4.bmp\",\"papata\",\"Down\",\"40\",\"4\",\"20\",\"5\",\"P\",\"J\",\"92\"
\"\",\"\",\"approach-retreat\",\"241\",\"1865568\",\"0.0-241.0\",\"\",\"\",\"2-5\",\"4078\",\"37\",\"1\",\"Testing\",\"Stims/Figures/57-J-0-1.bmp\",\"namala\",\"Right\",\"37\",\"4\",\"21\",\"5\",\"S\",\"J\",\"93\"
\"\",\"\",\"approach-retreat\",\"242\",\"1871227\",\"0.0-242.0\",\"\",\"\",\"2-5\",\"4124\",\"37\",\"1\",\"Testing\",\"Stims/Figures/7-J-10-4.bmp\",\"malana\",\"Right\",\"37\",\"4\",\"22\",\"5\",\"S\",\"J\",\"94\"
\"\",\"\",\"approach-retreat\",\"243\",\"1877757\",\"0.0-243.0\",\"\",\"\",\"2-5\",\"4994\",\"38\",\"1\",\"Testing\",\"Stims/Figures/111-C-30-3.bmp\",\"tapa:ta\",\"Up\",\"38\",\"4\",\"23\",\"5\",\"P\",\"J\",\"95\"
\"\",\"\",\"approach-retreat\",\"244\",\"1883752\",\"0.0-244.0\",\"\",\"\",\"2-5\",\"4456\",\"40\",\"1\",\"Testing\",\"Stims/Figures/44-J-10-3.bmp\",\"ma:la:la\",\"Up\",\"40\",\"4\",\"24\",\"5\",\"S\",\"J\",\"96\"
\"23479\",\"\",\"survey-text\",\"245\",\"1907249\",\"0.0-245.0\",\"\",\"{\"\"Q0\"\":\"\"PS170058\"\"}\",\"\",\"\",\"\",\"\",\"\",\"\",\"\",\"\",\"\",\"\",\"\",\"\",\"\",\"\",\"\"
