\"rt\",\"key_press\",\"trial_type\",\"trial_index\",\"time_elapsed\",\"internal_node_id\",\"view_history\",\"responses\",\"Id\",\"Rt\",\"ResKeyCode\",\"ResCorr\",\"TrialType2\",\"Image\",\"Label\",\"Location\",\"CorrectResponse\",\"Block\",\"BlockTrial\",\"Condition\",\"LabelType\",\"Subcondition\",\"trialNum\"
\"25234\",\"32\",\"text\",\"0\",\"25238\",\"0.0-0.0-0.0\",\"\",\"\",\"\",\"\",\"\",\"\",\"\",\"\",\"\",\"\",\"\",\"\",\"\",\"\",\"\",\"\",\"\"
\"88273\",\"\",\"instructions\",\"1\",\"113514\",\"0.0-1.0\",\"[{\"\"page_index\"\":0,\"\"viewing_time\"\":88272}]\",\"\",\"\",\"\",\"\",\"\",\"\",\"\",\"\",\"\",\"\",\"\",\"\",\"\",\"\",\"\",\"\"
\"14095\",\"\",\"survey-multi-choice\",\"2\",\"127644\",\"0.0-2.0\",\"\",\"{\"\"Q0\"\":\"\"Da\"\",\"\"Q1\"\":\"\"Da\"\",\"\"Q2\"\":\"\"Da\"\",\"\"Q3\"\":\"\"Da\"\",\"\"Q4\"\":\"\"Da\"\",\"\"Q5\"\":\"\"Da\"\"}\",\"\",\"\",\"\",\"\",\"\",\"\",\"\",\"\",\"\",\"\",\"\",\"\",\"\",\"\",\"\"
\"\",\"\",\"bio\",\"3\",\"133085\",\"0.0-3.0\",\"\",\"{\"\"age\"\":\"\"20\"\",\"\"gender\"\":\"\"m\"\",\"\"specify\"\":\"\"\"\"}\",\"\",\"\",\"\",\"\",\"\",\"\",\"\",\"\",\"\",\"\",\"\",\"\",\"\",\"\",\"\"
\"\",\"\",\"approach-retreat\",\"4\",\"139040\",\"0.0-4.0\",\"\",\"\",\"1-4\",\"4438\",\"39\",\"0\",\"Training\",\"Stims/Figures/44-C-30-3.bmp\",\"fafasha\",\"Left\",\"37\",\"1\",\"1\",\"3B\",\"C1\",\"J\",\"1\"
\"\",\"\",\"approach-retreat\",\"5\",\"146488\",\"0.0-5.0\",\"\",\"\",\"1-4\",\"5939\",\"37\",\"0\",\"Training\",\"Stims/Figures/102-C-20-4.bmp\",\"fafasha\",\"Right\",\"39\",\"1\",\"2\",\"3B\",\"C1\",\"J\",\"2\"
\"\",\"\",\"approach-retreat\",\"6\",\"153147\",\"0.0-6.0\",\"\",\"\",\"1-4\",\"5152\",\"38\",\"1\",\"Training\",\"Stims/Figures/111-C-30-3.bmp\",\"fafasha\",\"Up\",\"38\",\"1\",\"3\",\"3B\",\"C1\",\"J\",\"3\"
\"\",\"\",\"approach-retreat\",\"7\",\"161928\",\"0.0-7.0\",\"\",\"\",\"1-4\",\"7273\",\"38\",\"1\",\"Training\",\"Stims/Figures/102-J-10-4.bmp\",\"za:sa:za\",\"Down\",\"38\",\"1\",\"4\",\"3B\",\"C2\",\"J\",\"4\"
\"\",\"\",\"approach-retreat\",\"8\",\"168150\",\"0.0-8.0\",\"\",\"\",\"1-4\",\"4716\",\"37\",\"1\",\"Training\",\"Stims/Figures/84-C-20-2.bmp\",\"fafasha\",\"Left\",\"37\",\"1\",\"5\",\"3B\",\"C1\",\"J\",\"5\"
\"\",\"\",\"approach-retreat\",\"9\",\"175806\",\"0.0-9.0\",\"\",\"\",\"1-4\",\"6146\",\"39\",\"0\",\"Training\",\"Stims/Figures/71-J-0-1.bmp\",\"za:sa:za\",\"Right\",\"37\",\"1\",\"6\",\"3B\",\"C2\",\"J\",\"6\"
\"\",\"\",\"approach-retreat\",\"10\",\"183593\",\"0.0-10.0\",\"\",\"\",\"1-4\",\"6276\",\"38\",\"0\",\"Training\",\"Stims/Figures/111-J-10-3.bmp\",\"za:sa:za\",\"Up\",\"40\",\"1\",\"7\",\"3B\",\"C2\",\"J\",\"7\"
\"\",\"\",\"approach-retreat\",\"11\",\"189898\",\"0.0-11.0\",\"\",\"\",\"1-4\",\"4795\",\"37\",\"1\",\"Training\",\"Stims/Figures/57-J-0-1.bmp\",\"za:sa:za\",\"Right\",\"37\",\"1\",\"8\",\"3B\",\"C2\",\"J\",\"8\"
\"\",\"\",\"approach-retreat\",\"12\",\"196458\",\"0.0-12.0\",\"\",\"\",\"1-4\",\"5051\",\"40\",\"1\",\"Training\",\"Stims/Figures/71-C-30-1.bmp\",\"fafasha\",\"Down\",\"40\",\"1\",\"9\",\"3B\",\"C1\",\"J\",\"9\"
\"\",\"\",\"approach-retreat\",\"13\",\"203906\",\"0.0-13.0\",\"\",\"\",\"1-4\",\"5940\",\"40\",\"1\",\"Training\",\"Stims/Figures/84-J-0-2.bmp\",\"za:sa:za\",\"Up\",\"40\",\"1\",\"10\",\"3B\",\"C2\",\"J\",\"10\"
\"\",\"\",\"approach-retreat\",\"14\",\"211791\",\"0.0-14.0\",\"\",\"\",\"1-4\",\"6376\",\"39\",\"1\",\"Training\",\"Stims/Figures/19-C-20-4.bmp\",\"fafasha\",\"Right\",\"39\",\"1\",\"11\",\"3B\",\"C1\",\"J\",\"11\"
\"\",\"\",\"approach-retreat\",\"15\",\"219103\",\"0.0-15.0\",\"\",\"\",\"1-4\",\"5805\",\"38\",\"1\",\"Training\",\"Stims/Figures/94-C-20-2.bmp\",\"fafasha\",\"Up\",\"38\",\"1\",\"12\",\"3B\",\"C1\",\"J\",\"12\"
\"\",\"\",\"approach-retreat\",\"16\",\"226358\",\"0.0-16.0\",\"\",\"\",\"1-4\",\"5748\",\"37\",\"0\",\"Training\",\"Stims/Figures/44-J-10-3.bmp\",\"za:sa:za\",\"Left\",\"39\",\"1\",\"13\",\"3B\",\"C2\",\"J\",\"13\"
\"\",\"\",\"approach-retreat\",\"17\",\"232104\",\"0.0-17.0\",\"\",\"\",\"1-4\",\"4236\",\"39\",\"1\",\"Training\",\"Stims/Figures/94-J-0-2.bmp\",\"za:sa:za\",\"Left\",\"39\",\"1\",\"14\",\"3B\",\"C2\",\"J\",\"14\"
\"\",\"\",\"approach-retreat\",\"18\",\"240886\",\"0.0-18.0\",\"\",\"\",\"1-4\",\"7273\",\"38\",\"0\",\"Training\",\"Stims/Figures/57-C-30-1.bmp\",\"fafasha\",\"Down\",\"40\",\"1\",\"15\",\"3B\",\"C1\",\"J\",\"15\"
\"\",\"\",\"approach-retreat\",\"19\",\"246624\",\"0.0-19.0\",\"\",\"\",\"1-4\",\"4229\",\"38\",\"1\",\"Training\",\"Stims/Figures/19-J-10-4.bmp\",\"za:sa:za\",\"Down\",\"38\",\"1\",\"16\",\"3B\",\"C2\",\"J\",\"16\"
\"\",\"\",\"approach-retreat\",\"20\",\"252964\",\"0.0-20.0\",\"\",\"\",\"1-4\",\"4834\",\"37\",\"1\",\"Training\",\"Stims/Figures/44-J-10-3.bmp\",\"za:sa:za\",\"Right\",\"37\",\"2\",\"1\",\"3B\",\"C2\",\"J\",\"17\"
\"\",\"\",\"approach-retreat\",\"21\",\"259629\",\"0.0-21.0\",\"\",\"\",\"1-4\",\"5158\",\"37\",\"1\",\"Training\",\"Stims/Figures/111-C-30-3.bmp\",\"fafasha\",\"Left\",\"37\",\"2\",\"2\",\"3B\",\"C1\",\"J\",\"18\"
\"\",\"\",\"approach-retreat\",\"22\",\"266412\",\"0.0-22.0\",\"\",\"\",\"1-4\",\"5278\",\"37\",\"1\",\"Training\",\"Stims/Figures/84-C-20-2.bmp\",\"fafasha\",\"Left\",\"37\",\"2\",\"3\",\"3B\",\"C1\",\"J\",\"19\"
\"\",\"\",\"approach-retreat\",\"23\",\"272215\",\"0.0-23.0\",\"\",\"\",\"1-4\",\"4296\",\"40\",\"1\",\"Training\",\"Stims/Figures/71-J-0-1.bmp\",\"za:sa:za\",\"Up\",\"40\",\"2\",\"4\",\"3B\",\"C2\",\"J\",\"20\"
\"\",\"\",\"approach-retreat\",\"24\",\"278189\",\"0.0-24.0\",\"\",\"\",\"1-4\",\"4466\",\"37\",\"1\",\"Training\",\"Stims/Figures/111-J-10-3.bmp\",\"za:sa:za\",\"Right\",\"37\",\"2\",\"5\",\"3B\",\"C2\",\"J\",\"21\"
\"\",\"\",\"approach-retreat\",\"25\",\"284874\",\"0.0-25.0\",\"\",\"\",\"1-4\",\"5175\",\"40\",\"0\",\"Training\",\"Stims/Figures/57-J-0-1.bmp\",\"za:sa:za\",\"Down\",\"38\",\"2\",\"6\",\"3B\",\"C2\",\"J\",\"22\"
\"\",\"\",\"approach-retreat\",\"26\",\"292265\",\"0.0-26.0\",\"\",\"\",\"1-4\",\"5884\",\"39\",\"1\",\"Training\",\"Stims/Figures/44-C-30-3.bmp\",\"fafasha\",\"Right\",\"39\",\"2\",\"7\",\"3B\",\"C1\",\"J\",\"23\"
\"\",\"\",\"approach-retreat\",\"27\",\"298032\",\"0.0-27.0\",\"\",\"\",\"1-4\",\"4259\",\"38\",\"1\",\"Training\",\"Stims/Figures/102-C-20-4.bmp\",\"fafasha\",\"Up\",\"38\",\"2\",\"8\",\"3B\",\"C1\",\"J\",\"24\"
\"\",\"\",\"approach-retreat\",\"28\",\"303886\",\"0.0-28.0\",\"\",\"\",\"1-4\",\"4346\",\"37\",\"1\",\"Training\",\"Stims/Figures/94-J-0-2.bmp\",\"za:sa:za\",\"Right\",\"37\",\"2\",\"9\",\"3B\",\"C2\",\"J\",\"25\"
\"\",\"\",\"approach-retreat\",\"29\",\"310734\",\"0.0-29.0\",\"\",\"\",\"1-4\",\"5340\",\"40\",\"1\",\"Training\",\"Stims/Figures/102-J-10-4.bmp\",\"za:sa:za\",\"Up\",\"40\",\"2\",\"10\",\"3B\",\"C2\",\"J\",\"26\"
\"\",\"\",\"approach-retreat\",\"30\",\"317310\",\"0.0-30.0\",\"\",\"\",\"1-4\",\"5069\",\"40\",\"1\",\"Training\",\"Stims/Figures/94-C-20-2.bmp\",\"fafasha\",\"Down\",\"40\",\"2\",\"11\",\"3B\",\"C1\",\"J\",\"27\"
\"\",\"\",\"approach-retreat\",\"31\",\"326286\",\"0.0-31.0\",\"\",\"\",\"1-4\",\"7467\",\"38\",\"1\",\"Training\",\"Stims/Figures/19-J-10-4.bmp\",\"za:sa:za\",\"Down\",\"38\",\"2\",\"12\",\"3B\",\"C2\",\"J\",\"28\"
\"\",\"\",\"approach-retreat\",\"32\",\"332454\",\"0.0-32.0\",\"\",\"\",\"1-4\",\"4661\",\"37\",\"0\",\"Training\",\"Stims/Figures/84-J-0-2.bmp\",\"za:sa:za\",\"Left\",\"39\",\"2\",\"13\",\"3B\",\"C2\",\"J\",\"29\"
\"\",\"\",\"approach-retreat\",\"33\",\"338891\",\"0.0-33.0\",\"\",\"\",\"1-4\",\"4928\",\"37\",\"1\",\"Training\",\"Stims/Figures/71-C-30-1.bmp\",\"fafasha\",\"Left\",\"37\",\"2\",\"14\",\"3B\",\"C1\",\"J\",\"30\"
\"\",\"\",\"approach-retreat\",\"34\",\"344439\",\"0.0-34.0\",\"\",\"\",\"1-4\",\"4040\",\"38\",\"0\",\"Training\",\"Stims/Figures/57-C-30-1.bmp\",\"fafasha\",\"Down\",\"40\",\"2\",\"15\",\"3B\",\"C1\",\"J\",\"31\"
\"\",\"\",\"approach-retreat\",\"35\",\"351311\",\"0.0-35.0\",\"\",\"\",\"1-4\",\"5366\",\"38\",\"1\",\"Training\",\"Stims/Figures/19-C-20-4.bmp\",\"fafasha\",\"Up\",\"38\",\"2\",\"16\",\"3B\",\"C1\",\"J\",\"32\"
\"\",\"\",\"approach-retreat\",\"36\",\"357044\",\"0.0-36.0\",\"\",\"\",\"1-4\",\"4217\",\"39\",\"0\",\"Training\",\"Stims/Figures/57-C-30-1.bmp\",\"fafasha\",\"Left\",\"37\",\"3\",\"1\",\"3B\",\"C1\",\"J\",\"33\"
\"\",\"\",\"approach-retreat\",\"37\",\"362857\",\"0.0-37.0\",\"\",\"\",\"1-4\",\"4304\",\"40\",\"1\",\"Training\",\"Stims/Figures/84-C-20-2.bmp\",\"fafasha\",\"Down\",\"40\",\"3\",\"2\",\"3B\",\"C1\",\"J\",\"34\"
\"\",\"\",\"approach-retreat\",\"38\",\"368642\",\"0.0-38.0\",\"\",\"\",\"1-4\",\"4276\",\"38\",\"1\",\"Training\",\"Stims/Figures/94-J-0-2.bmp\",\"za:sa:za\",\"Down\",\"38\",\"3\",\"3\",\"3B\",\"C2\",\"J\",\"35\"
\"\",\"\",\"approach-retreat\",\"39\",\"374810\",\"0.0-39.0\",\"\",\"\",\"1-4\",\"4660\",\"37\",\"1\",\"Training\",\"Stims/Figures/44-J-10-3.bmp\",\"za:sa:za\",\"Right\",\"37\",\"3\",\"4\",\"3B\",\"C2\",\"J\",\"36\"
\"\",\"\",\"approach-retreat\",\"40\",\"380717\",\"0.0-40.0\",\"\",\"\",\"1-4\",\"4399\",\"39\",\"0\",\"Training\",\"Stims/Figures/84-J-0-2.bmp\",\"za:sa:za\",\"Right\",\"37\",\"3\",\"5\",\"3B\",\"C2\",\"J\",\"37\"
\"\",\"\",\"approach-retreat\",\"41\",\"386591\",\"0.0-41.0\",\"\",\"\",\"1-4\",\"4366\",\"39\",\"1\",\"Training\",\"Stims/Figures/19-J-10-4.bmp\",\"za:sa:za\",\"Left\",\"39\",\"3\",\"6\",\"3B\",\"C2\",\"J\",\"38\"
\"\",\"\",\"approach-retreat\",\"42\",\"392666\",\"0.0-42.0\",\"\",\"\",\"1-4\",\"4568\",\"40\",\"1\",\"Training\",\"Stims/Figures/102-C-20-4.bmp\",\"fafasha\",\"Down\",\"40\",\"3\",\"7\",\"3B\",\"C1\",\"J\",\"39\"
\"\",\"\",\"approach-retreat\",\"43\",\"398273\",\"0.0-43.0\",\"\",\"\",\"1-4\",\"4098\",\"39\",\"1\",\"Training\",\"Stims/Figures/57-J-0-1.bmp\",\"za:sa:za\",\"Left\",\"39\",\"3\",\"8\",\"3B\",\"C2\",\"J\",\"40\"
\"\",\"\",\"approach-retreat\",\"44\",\"404199\",\"0.0-44.0\",\"\",\"\",\"1-4\",\"4420\",\"40\",\"1\",\"Training\",\"Stims/Figures/111-J-10-3.bmp\",\"za:sa:za\",\"Up\",\"40\",\"3\",\"9\",\"3B\",\"C2\",\"J\",\"41\"
\"\",\"\",\"approach-retreat\",\"45\",\"410070\",\"0.0-45.0\",\"\",\"\",\"1-4\",\"4364\",\"37\",\"1\",\"Training\",\"Stims/Figures/102-J-10-4.bmp\",\"za:sa:za\",\"Right\",\"37\",\"3\",\"10\",\"3B\",\"C2\",\"J\",\"42\"
\"\",\"\",\"approach-retreat\",\"46\",\"416436\",\"0.0-46.0\",\"\",\"\",\"1-4\",\"4858\",\"37\",\"1\",\"Training\",\"Stims/Figures/71-C-30-1.bmp\",\"fafasha\",\"Left\",\"37\",\"3\",\"11\",\"3B\",\"C1\",\"J\",\"43\"
\"\",\"\",\"approach-retreat\",\"47\",\"422319\",\"0.0-47.0\",\"\",\"\",\"1-4\",\"4376\",\"40\",\"1\",\"Training\",\"Stims/Figures/94-C-20-2.bmp\",\"fafasha\",\"Down\",\"40\",\"3\",\"12\",\"3B\",\"C1\",\"J\",\"44\"
\"\",\"\",\"approach-retreat\",\"48\",\"428721\",\"0.0-48.0\",\"\",\"\",\"1-4\",\"4894\",\"37\",\"1\",\"Training\",\"Stims/Figures/71-J-0-1.bmp\",\"za:sa:za\",\"Right\",\"37\",\"3\",\"13\",\"3B\",\"C2\",\"J\",\"45\"
\"\",\"\",\"approach-retreat\",\"49\",\"435421\",\"0.0-49.0\",\"\",\"\",\"1-4\",\"5190\",\"38\",\"1\",\"Training\",\"Stims/Figures/19-C-20-4.bmp\",\"fafasha\",\"Up\",\"38\",\"3\",\"14\",\"3B\",\"C1\",\"J\",\"46\"
\"\",\"\",\"approach-retreat\",\"50\",\"441424\",\"0.0-50.0\",\"\",\"\",\"1-4\",\"4495\",\"38\",\"1\",\"Training\",\"Stims/Figures/44-C-30-3.bmp\",\"fafasha\",\"Up\",\"38\",\"3\",\"15\",\"3B\",\"C1\",\"J\",\"47\"
\"\",\"\",\"approach-retreat\",\"51\",\"447667\",\"0.0-51.0\",\"\",\"\",\"1-4\",\"4735\",\"38\",\"1\",\"Training\",\"Stims/Figures/111-C-30-3.bmp\",\"fafasha\",\"Up\",\"38\",\"3\",\"16\",\"3B\",\"C1\",\"J\",\"48\"
\"\",\"\",\"approach-retreat\",\"52\",\"456130\",\"0.0-52.0\",\"\",\"\",\"1-4\",\"6953\",\"38\",\"1\",\"Training\",\"Stims/Figures/102-J-10-4.bmp\",\"za:sa:za\",\"Down\",\"38\",\"4\",\"1\",\"3B\",\"C2\",\"J\",\"49\"
\"\",\"\",\"approach-retreat\",\"53\",\"462840\",\"0.0-53.0\",\"\",\"\",\"1-4\",\"5201\",\"38\",\"0\",\"Training\",\"Stims/Figures/71-J-0-1.bmp\",\"za:sa:za\",\"Up\",\"40\",\"4\",\"2\",\"3B\",\"C2\",\"J\",\"50\"
\"\",\"\",\"approach-retreat\",\"54\",\"468997\",\"0.0-54.0\",\"\",\"\",\"1-4\",\"4653\",\"39\",\"1\",\"Training\",\"Stims/Figures/111-J-10-3.bmp\",\"za:sa:za\",\"Left\",\"39\",\"4\",\"3\",\"3B\",\"C2\",\"J\",\"51\"
\"\",\"\",\"approach-retreat\",\"55\",\"474913\",\"0.0-55.0\",\"\",\"\",\"1-4\",\"4408\",\"37\",\"1\",\"Training\",\"Stims/Figures/19-J-10-4.bmp\",\"za:sa:za\",\"Right\",\"37\",\"4\",\"4\",\"3B\",\"C2\",\"J\",\"52\"
\"\",\"\",\"approach-retreat\",\"56\",\"480573\",\"0.0-56.0\",\"\",\"\",\"1-4\",\"4152\",\"40\",\"1\",\"Training\",\"Stims/Figures/19-C-20-4.bmp\",\"fafasha\",\"Down\",\"40\",\"4\",\"5\",\"3B\",\"C1\",\"J\",\"53\"
\"\",\"\",\"approach-retreat\",\"57\",\"486861\",\"0.0-57.0\",\"\",\"\",\"1-4\",\"4780\",\"38\",\"1\",\"Training\",\"Stims/Figures/44-C-30-3.bmp\",\"fafasha\",\"Up\",\"38\",\"4\",\"6\",\"3B\",\"C1\",\"J\",\"54\"
\"\",\"\",\"approach-retreat\",\"58\",\"493334\",\"0.0-58.0\",\"\",\"\",\"1-4\",\"4967\",\"37\",\"1\",\"Training\",\"Stims/Figures/94-J-0-2.bmp\",\"za:sa:za\",\"Right\",\"37\",\"4\",\"7\",\"3B\",\"C2\",\"J\",\"55\"
\"\",\"\",\"approach-retreat\",\"59\",\"498897\",\"0.0-59.0\",\"\",\"\",\"1-4\",\"4055\",\"37\",\"1\",\"Training\",\"Stims/Figures/44-J-10-3.bmp\",\"za:sa:za\",\"Right\",\"37\",\"4\",\"8\",\"3B\",\"C2\",\"J\",\"56\"
\"\",\"\",\"approach-retreat\",\"60\",\"505685\",\"0.0-60.0\",\"\",\"\",\"1-4\",\"5280\",\"40\",\"1\",\"Training\",\"Stims/Figures/102-C-20-4.bmp\",\"fafasha\",\"Down\",\"40\",\"4\",\"9\",\"3B\",\"C1\",\"J\",\"57\"
\"\",\"\",\"approach-retreat\",\"61\",\"511306\",\"0.0-61.0\",\"\",\"\",\"1-4\",\"4115\",\"37\",\"1\",\"Training\",\"Stims/Figures/84-J-0-2.bmp\",\"za:sa:za\",\"Right\",\"37\",\"4\",\"10\",\"3B\",\"C2\",\"J\",\"58\"
\"\",\"\",\"approach-retreat\",\"62\",\"517233\",\"0.0-62.0\",\"\",\"\",\"1-4\",\"4418\",\"37\",\"1\",\"Training\",\"Stims/Figures/94-C-20-2.bmp\",\"fafasha\",\"Left\",\"37\",\"4\",\"11\",\"3B\",\"C1\",\"J\",\"59\"
\"\",\"\",\"approach-retreat\",\"63\",\"525688\",\"0.0-63.0\",\"\",\"\",\"1-4\",\"6947\",\"38\",\"1\",\"Training\",\"Stims/Figures/111-C-30-3.bmp\",\"fafasha\",\"Up\",\"38\",\"4\",\"12\",\"3B\",\"C1\",\"J\",\"60\"
\"\",\"\",\"approach-retreat\",\"64\",\"531773\",\"0.0-64.0\",\"\",\"\",\"1-4\",\"4578\",\"37\",\"0\",\"Training\",\"Stims/Figures/57-J-0-1.bmp\",\"za:sa:za\",\"Left\",\"39\",\"4\",\"13\",\"3B\",\"C2\",\"J\",\"61\"
\"\",\"\",\"approach-retreat\",\"65\",\"537346\",\"0.0-65.0\",\"\",\"\",\"1-4\",\"4065\",\"37\",\"1\",\"Training\",\"Stims/Figures/57-C-30-1.bmp\",\"fafasha\",\"Left\",\"37\",\"4\",\"14\",\"3B\",\"C1\",\"J\",\"62\"
\"\",\"\",\"approach-retreat\",\"66\",\"543227\",\"0.0-66.0\",\"\",\"\",\"1-4\",\"4372\",\"40\",\"1\",\"Training\",\"Stims/Figures/84-C-20-2.bmp\",\"fafasha\",\"Down\",\"40\",\"4\",\"15\",\"3B\",\"C1\",\"J\",\"63\"
\"\",\"\",\"approach-retreat\",\"67\",\"550240\",\"0.0-67.0\",\"\",\"\",\"1-4\",\"5506\",\"38\",\"1\",\"Training\",\"Stims/Figures/71-C-30-1.bmp\",\"fafasha\",\"Up\",\"38\",\"4\",\"16\",\"3B\",\"C1\",\"J\",\"64\"
\"\",\"\",\"approach-retreat\",\"68\",\"555970\",\"0.0-68.0\",\"\",\"\",\"1-4\",\"4221\",\"39\",\"1\",\"Training\",\"Stims/Figures/44-C-30-3.bmp\",\"fafasha\",\"Right\",\"39\",\"5\",\"1\",\"3B\",\"C1\",\"J\",\"65\"
\"\",\"\",\"approach-retreat\",\"69\",\"561647\",\"0.0-69.0\",\"\",\"\",\"1-4\",\"4169\",\"39\",\"1\",\"Training\",\"Stims/Figures/57-J-0-1.bmp\",\"za:sa:za\",\"Left\",\"39\",\"5\",\"2\",\"3B\",\"C2\",\"J\",\"66\"
\"\",\"\",\"approach-retreat\",\"70\",\"567543\",\"0.0-70.0\",\"\",\"\",\"1-4\",\"4389\",\"39\",\"1\",\"Training\",\"Stims/Figures/102-J-10-4.bmp\",\"za:sa:za\",\"Left\",\"39\",\"5\",\"3\",\"3B\",\"C2\",\"J\",\"67\"
\"\",\"\",\"approach-retreat\",\"71\",\"573231\",\"0.0-71.0\",\"\",\"\",\"1-4\",\"4179\",\"40\",\"1\",\"Training\",\"Stims/Figures/111-J-10-3.bmp\",\"za:sa:za\",\"Up\",\"40\",\"5\",\"4\",\"3B\",\"C2\",\"J\",\"68\"
\"\",\"\",\"approach-retreat\",\"72\",\"579002\",\"0.0-72.0\",\"\",\"\",\"1-4\",\"4264\",\"39\",\"1\",\"Training\",\"Stims/Figures/84-C-20-2.bmp\",\"fafasha\",\"Right\",\"39\",\"5\",\"5\",\"3B\",\"C1\",\"J\",\"69\"
\"\",\"\",\"approach-retreat\",\"73\",\"584888\",\"0.0-73.0\",\"\",\"\",\"1-4\",\"4378\",\"39\",\"1\",\"Training\",\"Stims/Figures/57-C-30-1.bmp\",\"fafasha\",\"Right\",\"39\",\"5\",\"6\",\"3B\",\"C1\",\"J\",\"70\"
\"\",\"\",\"approach-retreat\",\"74\",\"591033\",\"0.0-74.0\",\"\",\"\",\"1-4\",\"4636\",\"38\",\"1\",\"Training\",\"Stims/Figures/102-C-20-4.bmp\",\"fafasha\",\"Up\",\"38\",\"5\",\"7\",\"3B\",\"C1\",\"J\",\"71\"
\"\",\"\",\"approach-retreat\",\"75\",\"596689\",\"0.0-75.0\",\"\",\"\",\"1-4\",\"4148\",\"40\",\"1\",\"Training\",\"Stims/Figures/84-J-0-2.bmp\",\"za:sa:za\",\"Up\",\"40\",\"5\",\"8\",\"3B\",\"C2\",\"J\",\"72\"
\"\",\"\",\"approach-retreat\",\"76\",\"603157\",\"0.0-76.0\",\"\",\"\",\"1-4\",\"4959\",\"37\",\"1\",\"Training\",\"Stims/Figures/94-J-0-2.bmp\",\"za:sa:za\",\"Right\",\"37\",\"5\",\"9\",\"3B\",\"C2\",\"J\",\"73\"
\"\",\"\",\"approach-retreat\",\"77\",\"608784\",\"0.0-77.0\",\"\",\"\",\"1-4\",\"4117\",\"38\",\"1\",\"Training\",\"Stims/Figures/44-J-10-3.bmp\",\"za:sa:za\",\"Down\",\"38\",\"5\",\"10\",\"3B\",\"C2\",\"J\",\"74\"
\"\",\"\",\"approach-retreat\",\"78\",\"614900\",\"0.0-78.0\",\"\",\"\",\"1-4\",\"4605\",\"38\",\"1\",\"Training\",\"Stims/Figures/111-C-30-3.bmp\",\"fafasha\",\"Up\",\"38\",\"5\",\"11\",\"3B\",\"C1\",\"J\",\"75\"
\"\",\"\",\"approach-retreat\",\"79\",\"620499\",\"0.0-79.0\",\"\",\"\",\"1-4\",\"4096\",\"37\",\"1\",\"Training\",\"Stims/Figures/94-C-20-2.bmp\",\"fafasha\",\"Left\",\"37\",\"5\",\"12\",\"3B\",\"C1\",\"J\",\"76\"
\"\",\"\",\"approach-retreat\",\"80\",\"626013\",\"0.0-80.0\",\"\",\"\",\"1-4\",\"4001\",\"40\",\"1\",\"Training\",\"Stims/Figures/19-C-20-4.bmp\",\"fafasha\",\"Down\",\"40\",\"5\",\"13\",\"3B\",\"C1\",\"J\",\"77\"
\"\",\"\",\"approach-retreat\",\"81\",\"631644\",\"0.0-81.0\",\"\",\"\",\"1-4\",\"4123\",\"40\",\"1\",\"Training\",\"Stims/Figures/71-C-30-1.bmp\",\"fafasha\",\"Down\",\"40\",\"5\",\"14\",\"3B\",\"C1\",\"J\",\"78\"
\"\",\"\",\"approach-retreat\",\"82\",\"637406\",\"0.0-82.0\",\"\",\"\",\"1-4\",\"4252\",\"37\",\"0\",\"Training\",\"Stims/Figures/19-J-10-4.bmp\",\"za:sa:za\",\"Left\",\"39\",\"5\",\"15\",\"3B\",\"C2\",\"J\",\"79\"
\"\",\"\",\"approach-retreat\",\"83\",\"643740\",\"0.0-83.0\",\"\",\"\",\"1-4\",\"4827\",\"40\",\"0\",\"Training\",\"Stims/Figures/71-J-0-1.bmp\",\"za:sa:za\",\"Down\",\"38\",\"5\",\"16\",\"3B\",\"C2\",\"J\",\"80\"
\"\",\"\",\"approach-retreat\",\"84\",\"650313\",\"0.0-84.0\",\"\",\"\",\"1-4\",\"5065\",\"40\",\"1\",\"Training\",\"Stims/Figures/102-J-10-4.bmp\",\"za:sa:za\",\"Up\",\"40\",\"6\",\"1\",\"3B\",\"C2\",\"J\",\"81\"
\"\",\"\",\"approach-retreat\",\"85\",\"655962\",\"0.0-85.0\",\"\",\"\",\"1-4\",\"4143\",\"37\",\"1\",\"Training\",\"Stims/Figures/111-C-30-3.bmp\",\"fafasha\",\"Left\",\"37\",\"6\",\"2\",\"3B\",\"C1\",\"J\",\"82\"
\"\",\"\",\"approach-retreat\",\"86\",\"661898\",\"0.0-86.0\",\"\",\"\",\"1-4\",\"4427\",\"40\",\"1\",\"Training\",\"Stims/Figures/94-J-0-2.bmp\",\"za:sa:za\",\"Up\",\"40\",\"6\",\"3\",\"3B\",\"C2\",\"J\",\"83\"
\"\",\"\",\"approach-retreat\",\"87\",\"668466\",\"0.0-87.0\",\"\",\"\",\"1-4\",\"5061\",\"37\",\"1\",\"Training\",\"Stims/Figures/71-J-0-1.bmp\",\"za:sa:za\",\"Right\",\"37\",\"6\",\"4\",\"3B\",\"C2\",\"J\",\"84\"
\"\",\"\",\"approach-retreat\",\"88\",\"674144\",\"0.0-88.0\",\"\",\"\",\"1-4\",\"4170\",\"40\",\"1\",\"Training\",\"Stims/Figures/84-C-20-2.bmp\",\"fafasha\",\"Down\",\"40\",\"6\",\"5\",\"3B\",\"C1\",\"J\",\"85\"
\"\",\"\",\"approach-retreat\",\"89\",\"679920\",\"0.0-89.0\",\"\",\"\",\"1-4\",\"4268\",\"39\",\"1\",\"Training\",\"Stims/Figures/57-C-30-1.bmp\",\"fafasha\",\"Right\",\"39\",\"6\",\"6\",\"3B\",\"C1\",\"J\",\"86\"
\"\",\"\",\"approach-retreat\",\"90\",\"685403\",\"0.0-90.0\",\"\",\"\",\"1-4\",\"3974\",\"39\",\"1\",\"Training\",\"Stims/Figures/111-J-10-3.bmp\",\"za:sa:za\",\"Left\",\"39\",\"6\",\"7\",\"3B\",\"C2\",\"J\",\"87\"
\"\",\"\",\"approach-retreat\",\"91\",\"691395\",\"0.0-91.0\",\"\",\"\",\"1-4\",\"4482\",\"38\",\"1\",\"Training\",\"Stims/Figures/71-C-30-1.bmp\",\"fafasha\",\"Up\",\"38\",\"6\",\"8\",\"3B\",\"C1\",\"J\",\"88\"
\"\",\"\",\"approach-retreat\",\"92\",\"697098\",\"0.0-92.0\",\"\",\"\",\"1-4\",\"4196\",\"37\",\"1\",\"Training\",\"Stims/Figures/57-J-0-1.bmp\",\"za:sa:za\",\"Right\",\"37\",\"6\",\"9\",\"3B\",\"C2\",\"J\",\"89\"
\"\",\"\",\"approach-retreat\",\"93\",\"702815\",\"0.0-93.0\",\"\",\"\",\"1-4\",\"4208\",\"39\",\"1\",\"Training\",\"Stims/Figures/19-J-10-4.bmp\",\"za:sa:za\",\"Left\",\"39\",\"6\",\"10\",\"3B\",\"C2\",\"J\",\"90\"
\"\",\"\",\"approach-retreat\",\"94\",\"709327\",\"0.0-94.0\",\"\",\"\",\"1-4\",\"5004\",\"37\",\"1\",\"Training\",\"Stims/Figures/102-C-20-4.bmp\",\"fafasha\",\"Left\",\"37\",\"6\",\"11\",\"3B\",\"C1\",\"J\",\"91\"
\"\",\"\",\"approach-retreat\",\"95\",\"715258\",\"0.0-95.0\",\"\",\"\",\"1-4\",\"4424\",\"39\",\"1\",\"Training\",\"Stims/Figures/19-C-20-4.bmp\",\"fafasha\",\"Right\",\"39\",\"6\",\"12\",\"3B\",\"C1\",\"J\",\"92\"
\"\",\"\",\"approach-retreat\",\"96\",\"721487\",\"0.0-96.0\",\"\",\"\",\"1-4\",\"4713\",\"40\",\"0\",\"Training\",\"Stims/Figures/84-J-0-2.bmp\",\"za:sa:za\",\"Down\",\"38\",\"6\",\"13\",\"3B\",\"C2\",\"J\",\"93\"
\"\",\"\",\"approach-retreat\",\"97\",\"727828\",\"0.0-97.0\",\"\",\"\",\"1-4\",\"4832\",\"40\",\"1\",\"Training\",\"Stims/Figures/44-C-30-3.bmp\",\"fafasha\",\"Down\",\"40\",\"6\",\"14\",\"3B\",\"C1\",\"J\",\"94\"
\"\",\"\",\"approach-retreat\",\"98\",\"733976\",\"0.0-98.0\",\"\",\"\",\"1-4\",\"4640\",\"38\",\"1\",\"Training\",\"Stims/Figures/94-C-20-2.bmp\",\"fafasha\",\"Up\",\"38\",\"6\",\"15\",\"3B\",\"C1\",\"J\",\"95\"
\"\",\"\",\"approach-retreat\",\"99\",\"739926\",\"0.0-99.0\",\"\",\"\",\"1-4\",\"4440\",\"38\",\"1\",\"Training\",\"Stims/Figures/44-J-10-3.bmp\",\"za:sa:za\",\"Down\",\"38\",\"6\",\"16\",\"3B\",\"C2\",\"J\",\"96\"
\"\",\"\",\"approach-retreat\",\"100\",\"745616\",\"0.0-100.0\",\"\",\"\",\"1-4\",\"4183\",\"40\",\"1\",\"Training\",\"Stims/Figures/84-J-0-2.bmp\",\"za:sa:za\",\"Up\",\"40\",\"7\",\"1\",\"3B\",\"C2\",\"J\",\"97\"
\"\",\"\",\"approach-retreat\",\"101\",\"751289\",\"0.0-101.0\",\"\",\"\",\"1-4\",\"4163\",\"39\",\"1\",\"Training\",\"Stims/Figures/94-C-20-2.bmp\",\"fafasha\",\"Right\",\"39\",\"7\",\"2\",\"3B\",\"C1\",\"J\",\"98\"
\"\",\"\",\"approach-retreat\",\"102\",\"757738\",\"0.0-102.0\",\"\",\"\",\"1-4\",\"4943\",\"39\",\"1\",\"Training\",\"Stims/Figures/111-J-10-3.bmp\",\"za:sa:za\",\"Left\",\"39\",\"7\",\"3\",\"3B\",\"C2\",\"J\",\"99\"
\"\",\"\",\"approach-retreat\",\"103\",\"763254\",\"0.0-103.0\",\"\",\"\",\"1-4\",\"4010\",\"37\",\"1\",\"Training\",\"Stims/Figures/102-J-10-4.bmp\",\"za:sa:za\",\"Right\",\"37\",\"7\",\"4\",\"3B\",\"C2\",\"J\",\"100\"
\"\",\"\",\"approach-retreat\",\"104\",\"768977\",\"0.0-104.0\",\"\",\"\",\"1-4\",\"4215\",\"40\",\"1\",\"Training\",\"Stims/Figures/44-J-10-3.bmp\",\"za:sa:za\",\"Up\",\"40\",\"7\",\"5\",\"3B\",\"C2\",\"J\",\"101\"
\"\",\"\",\"approach-retreat\",\"105\",\"774592\",\"0.0-105.0\",\"\",\"\",\"1-4\",\"4108\",\"37\",\"1\",\"Training\",\"Stims/Figures/19-J-10-4.bmp\",\"za:sa:za\",\"Right\",\"37\",\"7\",\"6\",\"3B\",\"C2\",\"J\",\"102\"
\"\",\"\",\"approach-retreat\",\"106\",\"780780\",\"0.0-106.0\",\"\",\"\",\"1-4\",\"4671\",\"38\",\"1\",\"Training\",\"Stims/Figures/57-C-30-1.bmp\",\"fafasha\",\"Up\",\"38\",\"7\",\"7\",\"3B\",\"C1\",\"J\",\"103\"
\"\",\"\",\"approach-retreat\",\"107\",\"786840\",\"0.0-107.0\",\"\",\"\",\"1-4\",\"4551\",\"40\",\"1\",\"Training\",\"Stims/Figures/84-C-20-2.bmp\",\"fafasha\",\"Down\",\"40\",\"7\",\"8\",\"3B\",\"C1\",\"J\",\"104\"
\"\",\"\",\"approach-retreat\",\"108\",\"792440\",\"0.0-108.0\",\"\",\"\",\"1-4\",\"4090\",\"39\",\"1\",\"Training\",\"Stims/Figures/57-J-0-1.bmp\",\"za:sa:za\",\"Left\",\"39\",\"7\",\"9\",\"3B\",\"C2\",\"J\",\"105\"
\"\",\"\",\"approach-retreat\",\"109\",\"798282\",\"0.0-109.0\",\"\",\"\",\"1-4\",\"4335\",\"38\",\"1\",\"Training\",\"Stims/Figures/111-C-30-3.bmp\",\"fafasha\",\"Up\",\"38\",\"7\",\"10\",\"3B\",\"C1\",\"J\",\"106\"
\"\",\"\",\"approach-retreat\",\"110\",\"804142\",\"0.0-110.0\",\"\",\"\",\"1-4\",\"4354\",\"39\",\"1\",\"Training\",\"Stims/Figures/94-J-0-2.bmp\",\"za:sa:za\",\"Left\",\"39\",\"7\",\"11\",\"3B\",\"C2\",\"J\",\"107\"
\"\",\"\",\"approach-retreat\",\"111\",\"809786\",\"0.0-111.0\",\"\",\"\",\"1-4\",\"4135\",\"40\",\"1\",\"Training\",\"Stims/Figures/71-C-30-1.bmp\",\"fafasha\",\"Down\",\"40\",\"7\",\"12\",\"3B\",\"C1\",\"J\",\"108\"
\"\",\"\",\"approach-retreat\",\"112\",\"815388\",\"0.0-112.0\",\"\",\"\",\"1-4\",\"4095\",\"37\",\"1\",\"Training\",\"Stims/Figures/44-C-30-3.bmp\",\"fafasha\",\"Left\",\"37\",\"7\",\"13\",\"3B\",\"C1\",\"J\",\"109\"
\"\",\"\",\"approach-retreat\",\"113\",\"821155\",\"0.0-113.0\",\"\",\"\",\"1-4\",\"4260\",\"40\",\"1\",\"Training\",\"Stims/Figures/19-C-20-4.bmp\",\"fafasha\",\"Down\",\"40\",\"7\",\"14\",\"3B\",\"C1\",\"J\",\"110\"
\"\",\"\",\"approach-retreat\",\"114\",\"826932\",\"0.0-114.0\",\"\",\"\",\"1-4\",\"4270\",\"39\",\"1\",\"Training\",\"Stims/Figures/102-C-20-4.bmp\",\"fafasha\",\"Right\",\"39\",\"7\",\"15\",\"3B\",\"C1\",\"J\",\"111\"
\"\",\"\",\"approach-retreat\",\"115\",\"833205\",\"0.0-115.0\",\"\",\"\",\"1-4\",\"4767\",\"38\",\"1\",\"Training\",\"Stims/Figures/71-J-0-1.bmp\",\"za:sa:za\",\"Down\",\"38\",\"7\",\"16\",\"3B\",\"C2\",\"J\",\"112\"
\"\",\"\",\"approach-retreat\",\"116\",\"838947\",\"0.0-116.0\",\"\",\"\",\"1-4\",\"4235\",\"37\",\"1\",\"Training\",\"Stims/Figures/19-C-20-4.bmp\",\"fafasha\",\"Left\",\"37\",\"8\",\"1\",\"3B\",\"C1\",\"J\",\"113\"
\"\",\"\",\"approach-retreat\",\"117\",\"844622\",\"0.0-117.0\",\"\",\"\",\"1-4\",\"4167\",\"38\",\"1\",\"Training\",\"Stims/Figures/102-C-20-4.bmp\",\"fafasha\",\"Up\",\"38\",\"8\",\"2\",\"3B\",\"C1\",\"J\",\"114\"
\"\",\"\",\"approach-retreat\",\"118\",\"849972\",\"0.0-118.0\",\"\",\"\",\"1-4\",\"3841\",\"37\",\"1\",\"Training\",\"Stims/Figures/71-J-0-1.bmp\",\"za:sa:za\",\"Right\",\"37\",\"8\",\"3\",\"3B\",\"C2\",\"J\",\"115\"
\"\",\"\",\"approach-retreat\",\"119\",\"855287\",\"0.0-119.0\",\"\",\"\",\"1-4\",\"3808\",\"38\",\"1\",\"Training\",\"Stims/Figures/111-J-10-3.bmp\",\"za:sa:za\",\"Down\",\"38\",\"8\",\"4\",\"3B\",\"C2\",\"J\",\"116\"
\"\",\"\",\"approach-retreat\",\"120\",\"860602\",\"0.0-120.0\",\"\",\"\",\"1-4\",\"3805\",\"37\",\"1\",\"Training\",\"Stims/Figures/71-C-30-1.bmp\",\"fafasha\",\"Left\",\"37\",\"8\",\"5\",\"3B\",\"C1\",\"J\",\"117\"
\"\",\"\",\"approach-retreat\",\"121\",\"867343\",\"0.0-121.0\",\"\",\"\",\"1-4\",\"5234\",\"39\",\"1\",\"Training\",\"Stims/Figures/57-C-30-1.bmp\",\"fafasha\",\"Right\",\"39\",\"8\",\"6\",\"3B\",\"C1\",\"J\",\"118\"
\"\",\"\",\"approach-retreat\",\"122\",\"873897\",\"0.0-122.0\",\"\",\"\",\"1-4\",\"5045\",\"37\",\"1\",\"Training\",\"Stims/Figures/57-J-0-1.bmp\",\"za:sa:za\",\"Right\",\"37\",\"8\",\"7\",\"3B\",\"C2\",\"J\",\"119\"
\"\",\"\",\"approach-retreat\",\"123\",\"879612\",\"0.0-123.0\",\"\",\"\",\"1-4\",\"4206\",\"40\",\"1\",\"Training\",\"Stims/Figures/44-J-10-3.bmp\",\"za:sa:za\",\"Up\",\"40\",\"8\",\"8\",\"3B\",\"C2\",\"J\",\"120\"
\"\",\"\",\"approach-retreat\",\"124\",\"885293\",\"0.0-124.0\",\"\",\"\",\"1-4\",\"4175\",\"40\",\"1\",\"Training\",\"Stims/Figures/44-C-30-3.bmp\",\"fafasha\",\"Down\",\"40\",\"8\",\"9\",\"3B\",\"C1\",\"J\",\"121\"
\"\",\"\",\"approach-retreat\",\"125\",\"891006\",\"0.0-125.0\",\"\",\"\",\"1-4\",\"4204\",\"38\",\"1\",\"Training\",\"Stims/Figures/84-C-20-2.bmp\",\"fafasha\",\"Up\",\"38\",\"8\",\"10\",\"3B\",\"C1\",\"J\",\"122\"
\"\",\"\",\"approach-retreat\",\"126\",\"896793\",\"0.0-126.0\",\"\",\"\",\"1-4\",\"4278\",\"40\",\"0\",\"Training\",\"Stims/Figures/102-J-10-4.bmp\",\"za:sa:za\",\"Down\",\"38\",\"8\",\"11\",\"3B\",\"C2\",\"J\",\"123\"
\"\",\"\",\"approach-retreat\",\"127\",\"902664\",\"0.0-127.0\",\"\",\"\",\"1-4\",\"4362\",\"38\",\"1\",\"Training\",\"Stims/Figures/84-J-0-2.bmp\",\"za:sa:za\",\"Down\",\"38\",\"8\",\"12\",\"3B\",\"C2\",\"J\",\"124\"
\"\",\"\",\"approach-retreat\",\"128\",\"908481\",\"0.0-128.0\",\"\",\"\",\"1-4\",\"4311\",\"39\",\"1\",\"Training\",\"Stims/Figures/19-J-10-4.bmp\",\"za:sa:za\",\"Left\",\"39\",\"8\",\"13\",\"3B\",\"C2\",\"J\",\"125\"
\"\",\"\",\"approach-retreat\",\"129\",\"914635\",\"0.0-129.0\",\"\",\"\",\"1-4\",\"4644\",\"39\",\"1\",\"Training\",\"Stims/Figures/94-J-0-2.bmp\",\"za:sa:za\",\"Left\",\"39\",\"8\",\"14\",\"3B\",\"C2\",\"J\",\"126\"
\"\",\"\",\"approach-retreat\",\"130\",\"920689\",\"0.0-130.0\",\"\",\"\",\"1-4\",\"4548\",\"39\",\"1\",\"Training\",\"Stims/Figures/94-C-20-2.bmp\",\"fafasha\",\"Right\",\"39\",\"8\",\"15\",\"3B\",\"C1\",\"J\",\"127\"
\"\",\"\",\"approach-retreat\",\"131\",\"926618\",\"0.0-131.0\",\"\",\"\",\"1-4\",\"4421\",\"38\",\"1\",\"Training\",\"Stims/Figures/111-C-30-3.bmp\",\"fafasha\",\"Up\",\"38\",\"8\",\"16\",\"3B\",\"C1\",\"J\",\"128\"
\"\",\"\",\"approach-retreat\",\"132\",\"932264\",\"0.0-132.0\",\"\",\"\",\"1-4\",\"4137\",\"38\",\"1\",\"Training\",\"Stims/Figures/57-J-0-1.bmp\",\"za:sa:za\",\"Down\",\"38\",\"9\",\"1\",\"3B\",\"C2\",\"J\",\"129\"
\"\",\"\",\"approach-retreat\",\"133\",\"937886\",\"0.0-133.0\",\"\",\"\",\"1-4\",\"4116\",\"40\",\"1\",\"Training\",\"Stims/Figures/19-C-20-4.bmp\",\"fafasha\",\"Down\",\"40\",\"9\",\"2\",\"3B\",\"C1\",\"J\",\"130\"
\"\",\"\",\"approach-retreat\",\"134\",\"943533\",\"0.0-134.0\",\"\",\"\",\"1-4\",\"4136\",\"40\",\"1\",\"Training\",\"Stims/Figures/44-J-10-3.bmp\",\"za:sa:za\",\"Up\",\"40\",\"9\",\"3\",\"3B\",\"C2\",\"J\",\"131\"
\"\",\"\",\"approach-retreat\",\"135\",\"949670\",\"0.0-135.0\",\"\",\"\",\"1-4\",\"4628\",\"37\",\"1\",\"Training\",\"Stims/Figures/57-C-30-1.bmp\",\"fafasha\",\"Left\",\"37\",\"9\",\"4\",\"3B\",\"C1\",\"J\",\"132\"
\"\",\"\",\"approach-retreat\",\"136\",\"955627\",\"0.0-136.0\",\"\",\"\",\"1-4\",\"4449\",\"40\",\"1\",\"Training\",\"Stims/Figures/71-C-30-1.bmp\",\"fafasha\",\"Down\",\"40\",\"9\",\"5\",\"3B\",\"C1\",\"J\",\"133\"
\"\",\"\",\"approach-retreat\",\"137\",\"961259\",\"0.0-137.0\",\"\",\"\",\"1-4\",\"4117\",\"40\",\"1\",\"Training\",\"Stims/Figures/84-J-0-2.bmp\",\"za:sa:za\",\"Up\",\"40\",\"9\",\"6\",\"3B\",\"C2\",\"J\",\"134\"
\"\",\"\",\"approach-retreat\",\"138\",\"967025\",\"0.0-138.0\",\"\",\"\",\"1-4\",\"4256\",\"37\",\"1\",\"Training\",\"Stims/Figures/19-J-10-4.bmp\",\"za:sa:za\",\"Right\",\"37\",\"9\",\"7\",\"3B\",\"C2\",\"J\",\"135\"
\"\",\"\",\"approach-retreat\",\"139\",\"972777\",\"0.0-139.0\",\"\",\"\",\"1-4\",\"4244\",\"38\",\"1\",\"Training\",\"Stims/Figures/84-C-20-2.bmp\",\"fafasha\",\"Up\",\"38\",\"9\",\"8\",\"3B\",\"C1\",\"J\",\"136\"
\"\",\"\",\"approach-retreat\",\"140\",\"978506\",\"0.0-140.0\",\"\",\"\",\"1-4\",\"4222\",\"39\",\"0\",\"Training\",\"Stims/Figures/94-J-0-2.bmp\",\"za:sa:za\",\"Right\",\"37\",\"9\",\"9\",\"3B\",\"C2\",\"J\",\"137\"
\"\",\"\",\"approach-retreat\",\"141\",\"984023\",\"0.0-141.0\",\"\",\"\",\"1-4\",\"4010\",\"39\",\"1\",\"Training\",\"Stims/Figures/94-C-20-2.bmp\",\"fafasha\",\"Right\",\"39\",\"9\",\"10\",\"3B\",\"C1\",\"J\",\"138\"
\"\",\"\",\"approach-retreat\",\"142\",\"990105\",\"0.0-142.0\",\"\",\"\",\"1-4\",\"4575\",\"39\",\"1\",\"Training\",\"Stims/Figures/111-J-10-3.bmp\",\"za:sa:za\",\"Left\",\"39\",\"9\",\"11\",\"3B\",\"C2\",\"J\",\"139\"
\"\",\"\",\"approach-retreat\",\"143\",\"996532\",\"0.0-143.0\",\"\",\"\",\"1-4\",\"4920\",\"38\",\"1\",\"Training\",\"Stims/Figures/44-C-30-3.bmp\",\"fafasha\",\"Up\",\"38\",\"9\",\"12\",\"3B\",\"C1\",\"J\",\"140\"
\"\",\"\",\"approach-retreat\",\"144\",\"1002306\",\"0.0-144.0\",\"\",\"\",\"1-4\",\"4266\",\"39\",\"1\",\"Training\",\"Stims/Figures/71-J-0-1.bmp\",\"za:sa:za\",\"Left\",\"39\",\"9\",\"13\",\"3B\",\"C2\",\"J\",\"141\"
\"\",\"\",\"approach-retreat\",\"145\",\"1008637\",\"0.0-145.0\",\"\",\"\",\"1-4\",\"4822\",\"38\",\"1\",\"Training\",\"Stims/Figures/102-J-10-4.bmp\",\"za:sa:za\",\"Down\",\"38\",\"9\",\"14\",\"3B\",\"C2\",\"J\",\"142\"
\"\",\"\",\"approach-retreat\",\"146\",\"1014672\",\"0.0-146.0\",\"\",\"\",\"1-4\",\"4526\",\"37\",\"1\",\"Training\",\"Stims/Figures/111-C-30-3.bmp\",\"fafasha\",\"Left\",\"37\",\"9\",\"15\",\"3B\",\"C1\",\"J\",\"143\"
\"\",\"\",\"approach-retreat\",\"147\",\"1020933\",\"0.0-147.0\",\"\",\"\",\"1-4\",\"4754\",\"39\",\"1\",\"Training\",\"Stims/Figures/102-C-20-4.bmp\",\"fafasha\",\"Right\",\"39\",\"9\",\"16\",\"3B\",\"C1\",\"J\",\"144\"
\"16629\",\"\",\"instructions\",\"148\",\"1037563\",\"0.0-148.0\",\"[{\"\"page_index\"\":0,\"\"viewing_time\"\":16628}]\",\"\",\"\",\"\",\"\",\"\",\"\",\"\",\"\",\"\",\"\",\"\",\"\",\"\",\"\",\"\",\"\"
\"\",\"\",\"approach-retreat\",\"149\",\"1045131\",\"0.0-149.0\",\"\",\"\",\"1-4\",\"6063\",\"40\",\"0\",\"Testing\",\"Stims/Figures/100-J-10-3.bmp\",\"za:sa:za\",\"Down\",\"38\",\"1\",\"1\",\"3B\",\"C2\",\"J\",\"1\"
\"\",\"\",\"approach-retreat\",\"150\",\"1051046\",\"0.0-150.0\",\"\",\"\",\"1-4\",\"4405\",\"37\",\"0\",\"Testing\",\"Stims/Figures/44-C-30-3.bmp\",\"fafasha\",\"Right\",\"39\",\"1\",\"2\",\"3B\",\"C1\",\"J\",\"2\"
\"\",\"\",\"approach-retreat\",\"151\",\"1056871\",\"0.0-151.0\",\"\",\"\",\"1-4\",\"4319\",\"40\",\"0\",\"Testing\",\"Stims/Figures/71-J-0-1.bmp\",\"za:sa:za\",\"Down\",\"38\",\"1\",\"3\",\"3B\",\"C2\",\"J\",\"3\"
\"\",\"\",\"approach-retreat\",\"152\",\"1063414\",\"0.0-152.0\",\"\",\"\",\"1-4\",\"5037\",\"37\",\"1\",\"Testing\",\"Stims/Figures/57-J-0-1.bmp\",\"za:sa:za\",\"Right\",\"37\",\"1\",\"4\",\"3B\",\"C2\",\"J\",\"4\"
\"\",\"\",\"approach-retreat\",\"153\",\"1069138\",\"0.0-153.0\",\"\",\"\",\"1-4\",\"4218\",\"37\",\"1\",\"Testing\",\"Stims/Figures/94-J-0-2.bmp\",\"za:sa:za\",\"Right\",\"37\",\"1\",\"5\",\"3B\",\"C2\",\"J\",\"5\"
\"\",\"\",\"approach-retreat\",\"154\",\"1075085\",\"0.0-154.0\",\"\",\"\",\"1-4\",\"4440\",\"38\",\"1\",\"Testing\",\"Stims/Figures/19-J-10-4.bmp\",\"za:sa:za\",\"Down\",\"38\",\"1\",\"6\",\"3B\",\"C2\",\"J\",\"6\"
\"\",\"\",\"approach-retreat\",\"155\",\"1083608\",\"0.0-155.0\",\"\",\"\",\"1-4\",\"7017\",\"38\",\"0\",\"Testing\",\"Stims/Figures/86-C-30-1.bmp\",\"fafasha\",\"Down\",\"40\",\"1\",\"7\",\"3B\",\"C1\",\"J\",\"7\"
\"\",\"\",\"approach-retreat\",\"156\",\"1089944\",\"0.0-156.0\",\"\",\"\",\"1-4\",\"4828\",\"38\",\"0\",\"Testing\",\"Stims/Figures/87-J-10-4.bmp\",\"za:sa:za\",\"Up\",\"40\",\"1\",\"8\",\"3B\",\"C2\",\"J\",\"8\"
\"\",\"\",\"approach-retreat\",\"157\",\"1096314\",\"0.0-157.0\",\"\",\"\",\"1-4\",\"4864\",\"39\",\"0\",\"Testing\",\"Stims/Figures/102-C-20-4.bmp\",\"fafasha\",\"Left\",\"37\",\"1\",\"9\",\"3B\",\"C1\",\"J\",\"9\"
\"\",\"\",\"approach-retreat\",\"158\",\"1102226\",\"0.0-158.0\",\"\",\"\",\"1-4\",\"4407\",\"37\",\"1\",\"Testing\",\"Stims/Figures/19-C-20-4.bmp\",\"fafasha\",\"Left\",\"37\",\"1\",\"10\",\"3B\",\"C1\",\"J\",\"10\"
\"\",\"\",\"approach-retreat\",\"159\",\"1108702\",\"0.0-159.0\",\"\",\"\",\"1-4\",\"4969\",\"40\",\"0\",\"Testing\",\"Stims/Figures/84-C-20-2.bmp\",\"fafasha\",\"Up\",\"38\",\"1\",\"11\",\"3B\",\"C1\",\"J\",\"11\"
\"\",\"\",\"approach-retreat\",\"160\",\"1114396\",\"0.0-160.0\",\"\",\"\",\"1-4\",\"4187\",\"39\",\"1\",\"Testing\",\"Stims/Figures/102-J-10-4.bmp\",\"za:sa:za\",\"Left\",\"39\",\"1\",\"12\",\"3B\",\"C2\",\"J\",\"12\"
\"\",\"\",\"approach-retreat\",\"161\",\"1120330\",\"0.0-161.0\",\"\",\"\",\"1-4\",\"4427\",\"40\",\"1\",\"Testing\",\"Stims/Figures/100-C-30-3.bmp\",\"fafasha\",\"Down\",\"40\",\"1\",\"13\",\"3B\",\"C1\",\"J\",\"13\"
\"\",\"\",\"approach-retreat\",\"162\",\"1128182\",\"0.0-162.0\",\"\",\"\",\"1-4\",\"6344\",\"40\",\"0\",\"Testing\",\"Stims/Figures/85-C-20-2.bmp\",\"fafasha\",\"Up\",\"38\",\"1\",\"14\",\"3B\",\"C1\",\"J\",\"14\"
\"\",\"\",\"approach-retreat\",\"163\",\"1134253\",\"0.0-163.0\",\"\",\"\",\"1-4\",\"4565\",\"38\",\"1\",\"Testing\",\"Stims/Figures/71-C-30-1.bmp\",\"fafasha\",\"Up\",\"38\",\"1\",\"15\",\"3B\",\"C1\",\"J\",\"15\"
\"\",\"\",\"approach-retreat\",\"164\",\"1140848\",\"0.0-164.0\",\"\",\"\",\"1-4\",\"5088\",\"37\",\"1\",\"Testing\",\"Stims/Figures/87-C-20-4.bmp\",\"fafasha\",\"Left\",\"37\",\"1\",\"16\",\"3B\",\"C1\",\"J\",\"16\"
\"\",\"\",\"approach-retreat\",\"165\",\"1146555\",\"0.0-165.0\",\"\",\"\",\"1-4\",\"4201\",\"39\",\"0\",\"Testing\",\"Stims/Figures/57-C-30-1.bmp\",\"fafasha\",\"Left\",\"37\",\"1\",\"17\",\"3B\",\"C1\",\"J\",\"17\"
\"\",\"\",\"approach-retreat\",\"166\",\"1152182\",\"0.0-166.0\",\"\",\"\",\"1-4\",\"4121\",\"38\",\"1\",\"Testing\",\"Stims/Figures/86-J-0-1.bmp\",\"za:sa:za\",\"Down\",\"38\",\"1\",\"18\",\"3B\",\"C2\",\"J\",\"18\"
\"\",\"\",\"approach-retreat\",\"167\",\"1158181\",\"0.0-167.0\",\"\",\"\",\"1-4\",\"4492\",\"39\",\"0\",\"Testing\",\"Stims/Figures/85-J-0-2.bmp\",\"za:sa:za\",\"Right\",\"37\",\"1\",\"19\",\"3B\",\"C2\",\"J\",\"19\"
\"\",\"\",\"approach-retreat\",\"168\",\"1163844\",\"0.0-168.0\",\"\",\"\",\"1-4\",\"4156\",\"39\",\"1\",\"Testing\",\"Stims/Figures/111-J-10-3.bmp\",\"za:sa:za\",\"Left\",\"39\",\"1\",\"20\",\"3B\",\"C2\",\"J\",\"20\"
\"\",\"\",\"approach-retreat\",\"169\",\"1169777\",\"0.0-169.0\",\"\",\"\",\"1-4\",\"4427\",\"40\",\"1\",\"Testing\",\"Stims/Figures/84-J-0-2.bmp\",\"za:sa:za\",\"Up\",\"40\",\"1\",\"21\",\"3B\",\"C2\",\"J\",\"21\"
\"\",\"\",\"approach-retreat\",\"170\",\"1175472\",\"0.0-170.0\",\"\",\"\",\"1-4\",\"4190\",\"37\",\"0\",\"Testing\",\"Stims/Figures/111-C-30-3.bmp\",\"fafasha\",\"Right\",\"39\",\"1\",\"22\",\"3B\",\"C1\",\"J\",\"22\"
\"\",\"\",\"approach-retreat\",\"171\",\"1181765\",\"0.0-171.0\",\"\",\"\",\"1-4\",\"4787\",\"38\",\"1\",\"Testing\",\"Stims/Figures/94-C-20-2.bmp\",\"fafasha\",\"Up\",\"38\",\"1\",\"23\",\"3B\",\"C1\",\"J\",\"23\"
\"\",\"\",\"approach-retreat\",\"172\",\"1187556\",\"0.0-172.0\",\"\",\"\",\"1-4\",\"4285\",\"37\",\"1\",\"Testing\",\"Stims/Figures/44-J-10-3.bmp\",\"za:sa:za\",\"Right\",\"37\",\"1\",\"24\",\"3B\",\"C2\",\"J\",\"24\"
\"\",\"\",\"approach-retreat\",\"173\",\"1193102\",\"0.0-173.0\",\"\",\"\",\"1-4\",\"4040\",\"37\",\"1\",\"Testing\",\"Stims/Figures/111-J-10-3.bmp\",\"za:sa:za\",\"Right\",\"37\",\"2\",\"1\",\"3B\",\"C2\",\"J\",\"25\"
\"\",\"\",\"approach-retreat\",\"174\",\"1199108\",\"0.0-174.0\",\"\",\"\",\"1-4\",\"4499\",\"38\",\"0\",\"Testing\",\"Stims/Figures/19-C-20-4.bmp\",\"fafasha\",\"Down\",\"40\",\"2\",\"2\",\"3B\",\"C1\",\"J\",\"26\"
\"\",\"\",\"approach-retreat\",\"175\",\"1204824\",\"0.0-175.0\",\"\",\"\",\"1-4\",\"4209\",\"40\",\"0\",\"Testing\",\"Stims/Figures/84-J-0-2.bmp\",\"za:sa:za\",\"Down\",\"38\",\"2\",\"3\",\"3B\",\"C2\",\"J\",\"27\"
\"\",\"\",\"approach-retreat\",\"176\",\"1211454\",\"0.0-176.0\",\"\",\"\",\"1-4\",\"5124\",\"38\",\"0\",\"Testing\",\"Stims/Figures/85-J-0-2.bmp\",\"za:sa:za\",\"Up\",\"40\",\"2\",\"4\",\"3B\",\"C2\",\"J\",\"28\"
\"\",\"\",\"approach-retreat\",\"177\",\"1217119\",\"0.0-177.0\",\"\",\"\",\"1-4\",\"4158\",\"37\",\"0\",\"Testing\",\"Stims/Figures/84-C-20-2.bmp\",\"fafasha\",\"Right\",\"39\",\"2\",\"5\",\"3B\",\"C1\",\"J\",\"29\"
\"\",\"\",\"approach-retreat\",\"178\",\"1223787\",\"0.0-178.0\",\"\",\"\",\"1-4\",\"5162\",\"40\",\"0\",\"Testing\",\"Stims/Figures/87-C-20-4.bmp\",\"fafasha\",\"Up\",\"38\",\"2\",\"6\",\"3B\",\"C1\",\"J\",\"30\"
\"\",\"\",\"approach-retreat\",\"179\",\"1232388\",\"0.0-179.0\",\"\",\"\",\"1-4\",\"7096\",\"40\",\"0\",\"Testing\",\"Stims/Figures/102-C-20-4.bmp\",\"fafasha\",\"Up\",\"38\",\"2\",\"7\",\"3B\",\"C1\",\"J\",\"31\"
\"\",\"\",\"approach-retreat\",\"180\",\"1238196\",\"0.0-180.0\",\"\",\"\",\"1-4\",\"4301\",\"37\",\"0\",\"Testing\",\"Stims/Figures/71-J-0-1.bmp\",\"za:sa:za\",\"Left\",\"39\",\"2\",\"8\",\"3B\",\"C2\",\"J\",\"32\"
\"\",\"\",\"approach-retreat\",\"181\",\"1244052\",\"0.0-181.0\",\"\",\"\",\"1-4\",\"4348\",\"39\",\"0\",\"Testing\",\"Stims/Figures/111-C-30-3.bmp\",\"fafasha\",\"Left\",\"37\",\"2\",\"9\",\"3B\",\"C1\",\"J\",\"33\"
\"\",\"\",\"approach-retreat\",\"182\",\"1249620\",\"0.0-182.0\",\"\",\"\",\"1-4\",\"4063\",\"37\",\"1\",\"Testing\",\"Stims/Figures/94-J-0-2.bmp\",\"za:sa:za\",\"Right\",\"37\",\"2\",\"10\",\"3B\",\"C2\",\"J\",\"34\"
\"\",\"\",\"approach-retreat\",\"183\",\"1256139\",\"0.0-183.0\",\"\",\"\",\"1-4\",\"5010\",\"39\",\"1\",\"Testing\",\"Stims/Figures/102-J-10-4.bmp\",\"za:sa:za\",\"Left\",\"39\",\"2\",\"11\",\"3B\",\"C2\",\"J\",\"35\"
\"\",\"\",\"approach-retreat\",\"184\",\"1262443\",\"0.0-184.0\",\"\",\"\",\"1-4\",\"4798\",\"38\",\"1\",\"Testing\",\"Stims/Figures/85-C-20-2.bmp\",\"fafasha\",\"Up\",\"38\",\"2\",\"12\",\"3B\",\"C1\",\"J\",\"36\"
\"\",\"\",\"approach-retreat\",\"185\",\"1268205\",\"0.0-185.0\",\"\",\"\",\"1-4\",\"4260\",\"40\",\"0\",\"Testing\",\"Stims/Figures/100-J-10-3.bmp\",\"za:sa:za\",\"Down\",\"38\",\"2\",\"13\",\"3B\",\"C2\",\"J\",\"37\"
\"\",\"\",\"approach-retreat\",\"186\",\"1274356\",\"0.0-186.0\",\"\",\"\",\"1-4\",\"4645\",\"37\",\"0\",\"Testing\",\"Stims/Figures/57-C-30-1.bmp\",\"fafasha\",\"Right\",\"39\",\"2\",\"14\",\"3B\",\"C1\",\"J\",\"38\"
\"\",\"\",\"approach-retreat\",\"187\",\"1280127\",\"0.0-187.0\",\"\",\"\",\"1-4\",\"4264\",\"40\",\"0\",\"Testing\",\"Stims/Figures/87-J-10-4.bmp\",\"za:sa:za\",\"Down\",\"38\",\"2\",\"15\",\"3B\",\"C2\",\"J\",\"39\"
\"\",\"\",\"approach-retreat\",\"188\",\"1285755\",\"0.0-188.0\",\"\",\"\",\"1-4\",\"4122\",\"38\",\"0\",\"Testing\",\"Stims/Figures/94-C-20-2.bmp\",\"fafasha\",\"Down\",\"40\",\"2\",\"16\",\"3B\",\"C1\",\"J\",\"40\"
\"\",\"\",\"approach-retreat\",\"189\",\"1291439\",\"0.0-189.0\",\"\",\"\",\"1-4\",\"4176\",\"39\",\"1\",\"Testing\",\"Stims/Figures/86-C-30-1.bmp\",\"fafasha\",\"Right\",\"39\",\"2\",\"17\",\"3B\",\"C1\",\"J\",\"41\"
\"\",\"\",\"approach-retreat\",\"190\",\"1297103\",\"0.0-190.0\",\"\",\"\",\"1-4\",\"4158\",\"38\",\"0\",\"Testing\",\"Stims/Figures/71-C-30-1.bmp\",\"fafasha\",\"Down\",\"40\",\"2\",\"18\",\"3B\",\"C1\",\"J\",\"42\"
\"\",\"\",\"approach-retreat\",\"191\",\"1304052\",\"0.0-191.0\",\"\",\"\",\"1-4\",\"5443\",\"38\",\"0\",\"Testing\",\"Stims/Figures/86-J-0-1.bmp\",\"za:sa:za\",\"Up\",\"40\",\"2\",\"19\",\"3B\",\"C2\",\"J\",\"43\"
\"\",\"\",\"approach-retreat\",\"192\",\"1310396\",\"0.0-192.0\",\"\",\"\",\"1-4\",\"4838\",\"37\",\"1\",\"Testing\",\"Stims/Figures/100-C-30-3.bmp\",\"fafasha\",\"Left\",\"37\",\"2\",\"20\",\"3B\",\"C1\",\"J\",\"44\"
\"\",\"\",\"approach-retreat\",\"193\",\"1316149\",\"0.0-193.0\",\"\",\"\",\"1-4\",\"4245\",\"39\",\"1\",\"Testing\",\"Stims/Figures/19-J-10-4.bmp\",\"za:sa:za\",\"Left\",\"39\",\"2\",\"21\",\"3B\",\"C2\",\"J\",\"45\"
\"\",\"\",\"approach-retreat\",\"194\",\"1321936\",\"0.0-194.0\",\"\",\"\",\"1-4\",\"4280\",\"40\",\"1\",\"Testing\",\"Stims/Figures/44-J-10-3.bmp\",\"za:sa:za\",\"Up\",\"40\",\"2\",\"22\",\"3B\",\"C2\",\"J\",\"46\"
\"\",\"\",\"approach-retreat\",\"195\",\"1328156\",\"0.0-195.0\",\"\",\"\",\"1-4\",\"4713\",\"37\",\"1\",\"Testing\",\"Stims/Figures/57-J-0-1.bmp\",\"za:sa:za\",\"Right\",\"37\",\"2\",\"23\",\"3B\",\"C2\",\"J\",\"47\"
\"\",\"\",\"approach-retreat\",\"196\",\"1333814\",\"0.0-196.0\",\"\",\"\",\"1-4\",\"4152\",\"37\",\"1\",\"Testing\",\"Stims/Figures/44-C-30-3.bmp\",\"fafasha\",\"Left\",\"37\",\"2\",\"24\",\"3B\",\"C1\",\"J\",\"48\"
\"\",\"\",\"approach-retreat\",\"197\",\"1340031\",\"0.0-197.0\",\"\",\"\",\"1-4\",\"4710\",\"38\",\"1\",\"Testing\",\"Stims/Figures/84-J-0-2.bmp\",\"za:sa:za\",\"Down\",\"38\",\"3\",\"1\",\"3B\",\"C2\",\"J\",\"49\"
\"\",\"\",\"approach-retreat\",\"198\",\"1345845\",\"0.0-198.0\",\"\",\"\",\"1-4\",\"4307\",\"39\",\"0\",\"Testing\",\"Stims/Figures/44-C-30-3.bmp\",\"fafasha\",\"Left\",\"37\",\"3\",\"2\",\"3B\",\"C1\",\"J\",\"50\"
\"\",\"\",\"approach-retreat\",\"199\",\"1351694\",\"0.0-199.0\",\"\",\"\",\"1-4\",\"4342\",\"38\",\"0\",\"Testing\",\"Stims/Figures/94-C-20-2.bmp\",\"fafasha\",\"Down\",\"40\",\"3\",\"3\",\"3B\",\"C1\",\"J\",\"51\"
\"\",\"\",\"approach-retreat\",\"200\",\"1357716\",\"0.0-200.0\",\"\",\"\",\"1-4\",\"4516\",\"40\",\"0\",\"Testing\",\"Stims/Figures/19-C-20-4.bmp\",\"fafasha\",\"Up\",\"38\",\"3\",\"4\",\"3B\",\"C1\",\"J\",\"52\"
\"\",\"\",\"approach-retreat\",\"201\",\"1364164\",\"0.0-201.0\",\"\",\"\",\"1-4\",\"4942\",\"40\",\"1\",\"Testing\",\"Stims/Figures/57-C-30-1.bmp\",\"fafasha\",\"Down\",\"40\",\"3\",\"5\",\"3B\",\"C1\",\"J\",\"53\"
\"\",\"\",\"approach-retreat\",\"202\",\"1370589\",\"0.0-202.0\",\"\",\"\",\"1-4\",\"4919\",\"39\",\"1\",\"Testing\",\"Stims/Figures/44-J-10-3.bmp\",\"za:sa:za\",\"Left\",\"39\",\"3\",\"6\",\"3B\",\"C2\",\"J\",\"54\"
\"\",\"\",\"approach-retreat\",\"203\",\"1376514\",\"0.0-203.0\",\"\",\"\",\"1-4\",\"4417\",\"38\",\"0\",\"Testing\",\"Stims/Figures/71-C-30-1.bmp\",\"fafasha\",\"Down\",\"40\",\"3\",\"7\",\"3B\",\"C1\",\"J\",\"55\"
\"\",\"\",\"approach-retreat\",\"204\",\"1383310\",\"0.0-204.0\",\"\",\"\",\"1-4\",\"5291\",\"40\",\"1\",\"Testing\",\"Stims/Figures/57-J-0-1.bmp\",\"za:sa:za\",\"Up\",\"40\",\"3\",\"8\",\"3B\",\"C2\",\"J\",\"56\"
\"\",\"\",\"approach-retreat\",\"205\",\"1389056\",\"0.0-205.0\",\"\",\"\",\"1-4\",\"4239\",\"37\",\"0\",\"Testing\",\"Stims/Figures/111-C-30-3.bmp\",\"fafasha\",\"Right\",\"39\",\"3\",\"9\",\"3B\",\"C1\",\"J\",\"57\"
\"\",\"\",\"approach-retreat\",\"206\",\"1394782\",\"0.0-206.0\",\"\",\"\",\"1-4\",\"4220\",\"37\",\"1\",\"Testing\",\"Stims/Figures/100-J-10-3.bmp\",\"za:sa:za\",\"Right\",\"37\",\"3\",\"10\",\"3B\",\"C2\",\"J\",\"58\"
\"\",\"\",\"approach-retreat\",\"207\",\"1401295\",\"0.0-207.0\",\"\",\"\",\"1-4\",\"5007\",\"40\",\"1\",\"Testing\",\"Stims/Figures/86-J-0-1.bmp\",\"za:sa:za\",\"Up\",\"40\",\"3\",\"11\",\"3B\",\"C2\",\"J\",\"59\"
\"\",\"\",\"approach-retreat\",\"208\",\"1407627\",\"0.0-208.0\",\"\",\"\",\"1-4\",\"4824\",\"37\",\"0\",\"Testing\",\"Stims/Figures/102-C-20-4.bmp\",\"fafasha\",\"Right\",\"39\",\"3\",\"12\",\"3B\",\"C1\",\"J\",\"60\"
\"\",\"\",\"approach-retreat\",\"209\",\"1413600\",\"0.0-209.0\",\"\",\"\",\"1-4\",\"4467\",\"39\",\"0\",\"Testing\",\"Stims/Figures/84-C-20-2.bmp\",\"fafasha\",\"Left\",\"37\",\"3\",\"13\",\"3B\",\"C1\",\"J\",\"61\"
\"\",\"\",\"approach-retreat\",\"210\",\"1420115\",\"0.0-210.0\",\"\",\"\",\"1-4\",\"5007\",\"37\",\"0\",\"Testing\",\"Stims/Figures/85-C-20-2.bmp\",\"fafasha\",\"Right\",\"39\",\"3\",\"14\",\"3B\",\"C1\",\"J\",\"62\"
\"\",\"\",\"approach-retreat\",\"211\",\"1425729\",\"0.0-211.0\",\"\",\"\",\"1-4\",\"4108\",\"39\",\"1\",\"Testing\",\"Stims/Figures/102-J-10-4.bmp\",\"za:sa:za\",\"Left\",\"39\",\"3\",\"15\",\"3B\",\"C2\",\"J\",\"63\"
\"\",\"\",\"approach-retreat\",\"212\",\"1432009\",\"0.0-212.0\",\"\",\"\",\"1-4\",\"4776\",\"40\",\"0\",\"Testing\",\"Stims/Figures/71-J-0-1.bmp\",\"za:sa:za\",\"Down\",\"38\",\"3\",\"16\",\"3B\",\"C2\",\"J\",\"64\"
\"\",\"\",\"approach-retreat\",\"213\",\"1437666\",\"0.0-213.0\",\"\",\"\",\"1-4\",\"4150\",\"37\",\"1\",\"Testing\",\"Stims/Figures/94-J-0-2.bmp\",\"za:sa:za\",\"Right\",\"37\",\"3\",\"17\",\"3B\",\"C2\",\"J\",\"65\"
\"\",\"\",\"approach-retreat\",\"214\",\"1443912\",\"0.0-214.0\",\"\",\"\",\"1-4\",\"4740\",\"38\",\"1\",\"Testing\",\"Stims/Figures/86-C-30-1.bmp\",\"fafasha\",\"Up\",\"38\",\"3\",\"18\",\"3B\",\"C1\",\"J\",\"66\"
\"\",\"\",\"approach-retreat\",\"215\",\"1449680\",\"0.0-215.0\",\"\",\"\",\"1-4\",\"4265\",\"38\",\"1\",\"Testing\",\"Stims/Figures/85-J-0-2.bmp\",\"za:sa:za\",\"Down\",\"38\",\"3\",\"19\",\"3B\",\"C2\",\"J\",\"67\"
\"\",\"\",\"approach-retreat\",\"216\",\"1455469\",\"0.0-216.0\",\"\",\"\",\"1-4\",\"4281\",\"38\",\"1\",\"Testing\",\"Stims/Figures/100-C-30-3.bmp\",\"fafasha\",\"Up\",\"38\",\"3\",\"20\",\"3B\",\"C1\",\"J\",\"68\"
\"\",\"\",\"approach-retreat\",\"217\",\"1460904\",\"0.0-217.0\",\"\",\"\",\"1-4\",\"3928\",\"37\",\"0\",\"Testing\",\"Stims/Figures/87-C-20-4.bmp\",\"fafasha\",\"Right\",\"39\",\"3\",\"21\",\"3B\",\"C1\",\"J\",\"69\"
\"\",\"\",\"approach-retreat\",\"218\",\"1467374\",\"0.0-218.0\",\"\",\"\",\"1-4\",\"4962\",\"37\",\"0\",\"Testing\",\"Stims/Figures/87-J-10-4.bmp\",\"za:sa:za\",\"Left\",\"39\",\"3\",\"22\",\"3B\",\"C2\",\"J\",\"70\"
\"\",\"\",\"approach-retreat\",\"219\",\"1473162\",\"0.0-219.0\",\"\",\"\",\"1-4\",\"4280\",\"39\",\"1\",\"Testing\",\"Stims/Figures/111-J-10-3.bmp\",\"za:sa:za\",\"Left\",\"39\",\"3\",\"23\",\"3B\",\"C2\",\"J\",\"71\"
\"\",\"\",\"approach-retreat\",\"220\",\"1478795\",\"0.0-220.0\",\"\",\"\",\"1-4\",\"4127\",\"40\",\"1\",\"Testing\",\"Stims/Figures/19-J-10-4.bmp\",\"za:sa:za\",\"Up\",\"40\",\"3\",\"24\",\"3B\",\"C2\",\"J\",\"72\"
\"\",\"\",\"approach-retreat\",\"221\",\"1484685\",\"0.0-221.0\",\"\",\"\",\"1-4\",\"4382\",\"39\",\"1\",\"Testing\",\"Stims/Figures/85-J-0-2.bmp\",\"za:sa:za\",\"Left\",\"39\",\"4\",\"1\",\"3B\",\"C2\",\"J\",\"73\"
\"\",\"\",\"approach-retreat\",\"222\",\"1490155\",\"0.0-222.0\",\"\",\"\",\"1-4\",\"3966\",\"39\",\"0\",\"Testing\",\"Stims/Figures/44-C-30-3.bmp\",\"fafasha\",\"Left\",\"37\",\"4\",\"2\",\"3B\",\"C1\",\"J\",\"74\"
\"\",\"\",\"approach-retreat\",\"223\",\"1495619\",\"0.0-223.0\",\"\",\"\",\"1-4\",\"3958\",\"37\",\"1\",\"Testing\",\"Stims/Figures/87-J-10-4.bmp\",\"za:sa:za\",\"Right\",\"37\",\"4\",\"3\",\"3B\",\"C2\",\"J\",\"75\"
\"\",\"\",\"approach-retreat\",\"224\",\"1501361\",\"0.0-224.0\",\"\",\"\",\"1-4\",\"4236\",\"38\",\"1\",\"Testing\",\"Stims/Figures/87-C-20-4.bmp\",\"fafasha\",\"Up\",\"38\",\"4\",\"4\",\"3B\",\"C1\",\"J\",\"76\"
\"\",\"\",\"approach-retreat\",\"225\",\"1507723\",\"0.0-225.0\",\"\",\"\",\"1-4\",\"4856\",\"38\",\"0\",\"Testing\",\"Stims/Figures/86-C-30-1.bmp\",\"fafasha\",\"Down\",\"40\",\"4\",\"5\",\"3B\",\"C1\",\"J\",\"77\"
\"\",\"\",\"approach-retreat\",\"226\",\"1514355\",\"0.0-226.0\",\"\",\"\",\"1-4\",\"5121\",\"38\",\"1\",\"Testing\",\"Stims/Figures/111-J-10-3.bmp\",\"za:sa:za\",\"Down\",\"38\",\"4\",\"6\",\"3B\",\"C2\",\"J\",\"78\"
\"\",\"\",\"approach-retreat\",\"227\",\"1520516\",\"0.0-227.0\",\"\",\"\",\"1-4\",\"4655\",\"37\",\"0\",\"Testing\",\"Stims/Figures/84-C-20-2.bmp\",\"fafasha\",\"Right\",\"39\",\"4\",\"7\",\"3B\",\"C1\",\"J\",\"79\"
\"\",\"\",\"approach-retreat\",\"228\",\"1527223\",\"0.0-228.0\",\"\",\"\",\"1-4\",\"5191\",\"38\",\"1\",\"Testing\",\"Stims/Figures/100-C-30-3.bmp\",\"fafasha\",\"Up\",\"38\",\"4\",\"8\",\"3B\",\"C1\",\"J\",\"80\"
\"\",\"\",\"approach-retreat\",\"229\",\"1533563\",\"0.0-229.0\",\"\",\"\",\"1-4\",\"4835\",\"40\",\"0\",\"Testing\",\"Stims/Figures/71-J-0-1.bmp\",\"za:sa:za\",\"Down\",\"38\",\"4\",\"9\",\"3B\",\"C2\",\"J\",\"81\"
\"\",\"\",\"approach-retreat\",\"230\",\"1539189\",\"0.0-230.0\",\"\",\"\",\"1-4\",\"4121\",\"37\",\"0\",\"Testing\",\"Stims/Figures/86-J-0-1.bmp\",\"za:sa:za\",\"Left\",\"39\",\"4\",\"10\",\"3B\",\"C2\",\"J\",\"82\"
\"\",\"\",\"approach-retreat\",\"231\",\"1545166\",\"0.0-231.0\",\"\",\"\",\"1-4\",\"4468\",\"37\",\"0\",\"Testing\",\"Stims/Figures/94-C-20-2.bmp\",\"fafasha\",\"Right\",\"39\",\"4\",\"11\",\"3B\",\"C1\",\"J\",\"83\"
\"\",\"\",\"approach-retreat\",\"232\",\"1551382\",\"0.0-232.0\",\"\",\"\",\"1-4\",\"4711\",\"39\",\"0\",\"Testing\",\"Stims/Figures/57-C-30-1.bmp\",\"fafasha\",\"Left\",\"37\",\"4\",\"12\",\"3B\",\"C1\",\"J\",\"84\"
\"\",\"\",\"approach-retreat\",\"233\",\"1557580\",\"0.0-233.0\",\"\",\"\",\"1-4\",\"4692\",\"38\",\"0\",\"Testing\",\"Stims/Figures/57-J-0-1.bmp\",\"za:sa:za\",\"Up\",\"40\",\"4\",\"13\",\"3B\",\"C2\",\"J\",\"85\"
\"\",\"\",\"approach-retreat\",\"234\",\"1563685\",\"0.0-234.0\",\"\",\"\",\"1-4\",\"4600\",\"38\",\"1\",\"Testing\",\"Stims/Figures/94-J-0-2.bmp\",\"za:sa:za\",\"Down\",\"38\",\"4\",\"14\",\"3B\",\"C2\",\"J\",\"86\"
\"\",\"\",\"approach-retreat\",\"235\",\"1569470\",\"0.0-235.0\",\"\",\"\",\"1-4\",\"4279\",\"40\",\"0\",\"Testing\",\"Stims/Figures/111-C-30-3.bmp\",\"fafasha\",\"Up\",\"38\",\"4\",\"15\",\"3B\",\"C1\",\"J\",\"87\"
\"\",\"\",\"approach-retreat\",\"236\",\"1575129\",\"0.0-236.0\",\"\",\"\",\"1-4\",\"4153\",\"39\",\"1\",\"Testing\",\"Stims/Figures/44-J-10-3.bmp\",\"za:sa:za\",\"Left\",\"39\",\"4\",\"16\",\"3B\",\"C2\",\"J\",\"88\"
\"\",\"\",\"approach-retreat\",\"237\",\"1580654\",\"0.0-237.0\",\"\",\"\",\"1-4\",\"4019\",\"37\",\"1\",\"Testing\",\"Stims/Figures/19-J-10-4.bmp\",\"za:sa:za\",\"Right\",\"37\",\"4\",\"17\",\"3B\",\"C2\",\"J\",\"89\"
\"\",\"\",\"approach-retreat\",\"238\",\"1586256\",\"0.0-238.0\",\"\",\"\",\"1-4\",\"4097\",\"37\",\"1\",\"Testing\",\"Stims/Figures/100-J-10-3.bmp\",\"za:sa:za\",\"Right\",\"37\",\"4\",\"18\",\"3B\",\"C2\",\"J\",\"90\"
\"\",\"\",\"approach-retreat\",\"239\",\"1591663\",\"0.0-239.0\",\"\",\"\",\"1-4\",\"3901\",\"38\",\"0\",\"Testing\",\"Stims/Figures/102-C-20-4.bmp\",\"fafasha\",\"Down\",\"40\",\"4\",\"19\",\"3B\",\"C1\",\"J\",\"91\"
\"\",\"\",\"approach-retreat\",\"240\",\"1597294\",\"0.0-240.0\",\"\",\"\",\"1-4\",\"4127\",\"37\",\"0\",\"Testing\",\"Stims/Figures/71-C-30-1.bmp\",\"fafasha\",\"Right\",\"39\",\"4\",\"20\",\"3B\",\"C1\",\"J\",\"92\"
\"\",\"\",\"approach-retreat\",\"241\",\"1603003\",\"0.0-241.0\",\"\",\"\",\"1-4\",\"4202\",\"37\",\"0\",\"Testing\",\"Stims/Figures/102-J-10-4.bmp\",\"za:sa:za\",\"Left\",\"39\",\"4\",\"21\",\"3B\",\"C2\",\"J\",\"93\"
\"\",\"\",\"approach-retreat\",\"242\",\"1608821\",\"0.0-242.0\",\"\",\"\",\"1-4\",\"4310\",\"38\",\"1\",\"Testing\",\"Stims/Figures/19-C-20-4.bmp\",\"fafasha\",\"Up\",\"38\",\"4\",\"22\",\"3B\",\"C1\",\"J\",\"94\"
\"\",\"\",\"approach-retreat\",\"243\",\"1615469\",\"0.0-243.0\",\"\",\"\",\"1-4\",\"5144\",\"40\",\"1\",\"Testing\",\"Stims/Figures/84-J-0-2.bmp\",\"za:sa:za\",\"Up\",\"40\",\"4\",\"23\",\"3B\",\"C2\",\"J\",\"95\"
\"\",\"\",\"approach-retreat\",\"244\",\"1621419\",\"0.0-244.0\",\"\",\"\",\"1-4\",\"4442\",\"38\",\"0\",\"Testing\",\"Stims/Figures/85-C-20-2.bmp\",\"fafasha\",\"Down\",\"40\",\"4\",\"24\",\"3B\",\"C1\",\"J\",\"96\"
\"26337\",\"\",\"survey-text\",\"245\",\"1647762\",\"0.0-245.0\",\"\",\"{\"\"Q0\"\":\"\"PS170054\"\"}\",\"\",\"\",\"\",\"\",\"\",\"\",\"\",\"\",\"\",\"\",\"\",\"\",\"\",\"\",\"\"
