\"rt\",\"key_press\",\"trial_type\",\"trial_index\",\"time_elapsed\",\"internal_node_id\",\"view_history\",\"responses\",\"Id\",\"Rt\",\"ResKeyCode\",\"ResCorr\",\"TrialType2\",\"Image\",\"Label\",\"Location\",\"CorrectResponse\",\"Block\",\"BlockTrial\",\"Condition\",\"LabelType\",\"Subcondition\",\"trialNum\"
\"4640822\",\"32\",\"text\",\"0\",\"4640847\",\"0.0-0.0-0.0\",\"\",\"\",\"\",\"\",\"\",\"\",\"\",\"\",\"\",\"\",\"\",\"\",\"\",\"\",\"\",\"\",\"\"
\"40424\",\"\",\"instructions\",\"1\",\"4681276\",\"0.0-1.0\",\"[{\"\"page_index\"\":0,\"\"viewing_time\"\":40422}]\",\"\",\"\",\"\",\"\",\"\",\"\",\"\",\"\",\"\",\"\",\"\",\"\",\"\",\"\",\"\",\"\"
\"11417\",\"\",\"survey-multi-choice\",\"2\",\"4692756\",\"0.0-2.0\",\"\",\"{\"\"Q0\"\":\"\"Da\"\",\"\"Q1\"\":\"\"Da\"\",\"\"Q2\"\":\"\"Da\"\",\"\"Q3\"\":\"\"Da\"\",\"\"Q4\"\":\"\"Da\"\",\"\"Q5\"\":\"\"Da\"\"}\",\"\",\"\",\"\",\"\",\"\",\"\",\"\",\"\",\"\",\"\",\"\",\"\",\"\",\"\",\"\"
\"\",\"\",\"bio\",\"3\",\"4713876\",\"0.0-3.0\",\"\",\"{\"\"age\"\":\"\"19\"\",\"\"gender\"\":\"\"m\"\",\"\"specify\"\":\"\"\"\"}\",\"\",\"\",\"\",\"\",\"\",\"\",\"\",\"\",\"\",\"\",\"\",\"\",\"\",\"\",\"\"
\"\",\"\",\"approach-retreat\",\"4\",\"4727512\",\"0.0-4.0\",\"\",\"\",\"2-4\",\"12116\",\"38\",\"0\",\"Training\",\"Stims/Figures/84-J-0-2.bmp\",\"ta:pa:ta\",\"Down\",\"40\",\"1\",\"1\",\"7\",\"P\",\"C\",\"1\"
\"\",\"\",\"approach-retreat\",\"5\",\"4733850\",\"0.0-5.0\",\"\",\"\",\"2-4\",\"4822\",\"38\",\"1\",\"Training\",\"Stims/Figures/128-J-10-3.bmp\",\"na:ma:la\",\"Up\",\"38\",\"1\",\"2\",\"7\",\"S\",\"C\",\"2\"
\"\",\"\",\"approach-retreat\",\"6\",\"4739555\",\"0.0-6.0\",\"\",\"\",\"2-4\",\"4192\",\"38\",\"1\",\"Training\",\"Stims/Figures/19-J-10-4.bmp\",\"nalana\",\"Up\",\"38\",\"1\",\"3\",\"7\",\"S\",\"C\",\"3\"
\"\",\"\",\"approach-retreat\",\"7\",\"4748787\",\"0.0-7.0\",\"\",\"\",\"2-4\",\"7716\",\"37\",\"0\",\"Training\",\"Stims/Figures/7-C-20-4.bmp\",\"mama:na\",\"Left\",\"39\",\"1\",\"4\",\"7\",\"S\",\"C\",\"4\"
\"\",\"\",\"approach-retreat\",\"8\",\"4754926\",\"0.0-8.0\",\"\",\"\",\"2-4\",\"4625\",\"38\",\"0\",\"Training\",\"Stims/Figures/44-C-30-3.bmp\",\"mama:la\",\"Up\",\"40\",\"1\",\"5\",\"7\",\"S\",\"C\",\"5\"
\"\",\"\",\"approach-retreat\",\"9\",\"4760466\",\"0.0-9.0\",\"\",\"\",\"2-4\",\"4028\",\"40\",\"0\",\"Training\",\"Stims/Figures/118-C-20-2.bmp\",\"pa:pa:ka\",\"Down\",\"38\",\"1\",\"6\",\"7\",\"P\",\"C\",\"6\"
\"\",\"\",\"approach-retreat\",\"10\",\"4772007\",\"0.0-10.0\",\"\",\"\",\"2-4\",\"10024\",\"38\",\"0\",\"Training\",\"Stims/Figures/7-J-10-4.bmp\",\"na:lana\",\"Down\",\"40\",\"1\",\"7\",\"7\",\"S\",\"C\",\"7\"
\"\",\"\",\"approach-retreat\",\"11\",\"4778615\",\"0.0-11.0\",\"\",\"\",\"2-4\",\"5095\",\"37\",\"1\",\"Training\",\"Stims/Figures/84-C-20-2.bmp\",\"pa:pata\",\"Right\",\"37\",\"1\",\"8\",\"7\",\"P\",\"C\",\"8\"
\"\",\"\",\"approach-retreat\",\"12\",\"4785125\",\"0.0-12.0\",\"\",\"\",\"2-4\",\"4994\",\"37\",\"1\",\"Training\",\"Stims/Figures/44-J-10-3.bmp\",\"ma:ma:na\",\"Left\",\"37\",\"1\",\"9\",\"7\",\"S\",\"C\",\"9\"
\"\",\"\",\"approach-retreat\",\"13\",\"4790797\",\"0.0-13.0\",\"\",\"\",\"2-4\",\"4155\",\"37\",\"0\",\"Training\",\"Stims/Figures/128-C-30-3.bmp\",\"namala\",\"Left\",\"39\",\"1\",\"10\",\"7\",\"S\",\"C\",\"10\"
\"\",\"\",\"approach-retreat\",\"14\",\"4804679\",\"0.0-14.0\",\"\",\"\",\"2-4\",\"12370\",\"37\",\"0\",\"Training\",\"Stims/Figures/71-J-0-1.bmp\",\"takata\",\"Right\",\"39\",\"1\",\"11\",\"7\",\"P\",\"C\",\"11\"
\"\",\"\",\"approach-retreat\",\"15\",\"4819404\",\"0.0-15.0\",\"\",\"\",\"2-4\",\"13211\",\"37\",\"1\",\"Training\",\"Stims/Figures/19-C-20-4.bmp\",\"ma:ma:la\",\"Right\",\"37\",\"1\",\"12\",\"7\",\"S\",\"C\",\"12\"
\"\",\"\",\"approach-retreat\",\"16\",\"4825298\",\"0.0-16.0\",\"\",\"\",\"2-4\",\"4379\",\"37\",\"0\",\"Training\",\"Stims/Figures/71-C-30-1.bmp\",\"ta:ka:ta\",\"Left\",\"39\",\"1\",\"13\",\"7\",\"P\",\"C\",\"13\"
\"\",\"\",\"approach-retreat\",\"17\",\"4831208\",\"0.0-17.0\",\"\",\"\",\"2-4\",\"4396\",\"38\",\"0\",\"Training\",\"Stims/Figures/118-J-0-2.bmp\",\"pa:kata\",\"Down\",\"40\",\"1\",\"14\",\"7\",\"P\",\"C\",\"14\"
\"\",\"\",\"approach-retreat\",\"18\",\"4839588\",\"0.0-18.0\",\"\",\"\",\"2-4\",\"6870\",\"40\",\"1\",\"Training\",\"Stims/Figures/93-C-30-1.bmp\",\"paka:ka\",\"Up\",\"40\",\"1\",\"15\",\"7\",\"P\",\"C\",\"15\"
\"\",\"\",\"approach-retreat\",\"19\",\"4845338\",\"0.0-19.0\",\"\",\"\",\"2-4\",\"4237\",\"37\",\"0\",\"Training\",\"Stims/Figures/93-J-0-1.bmp\",\"tapa:ta\",\"Right\",\"39\",\"1\",\"16\",\"7\",\"P\",\"C\",\"16\"
\"\",\"\",\"approach-retreat\",\"20\",\"4851062\",\"0.0-20.0\",\"\",\"\",\"2-4\",\"4209\",\"38\",\"0\",\"Training\",\"Stims/Figures/93-C-30-1.bmp\",\"paka:ka\",\"Up\",\"40\",\"2\",\"1\",\"7\",\"P\",\"C\",\"17\"
\"\",\"\",\"approach-retreat\",\"21\",\"4856905\",\"0.0-21.0\",\"\",\"\",\"2-4\",\"4329\",\"37\",\"0\",\"Training\",\"Stims/Figures/19-C-20-4.bmp\",\"ma:ma:la\",\"Left\",\"39\",\"2\",\"2\",\"7\",\"S\",\"C\",\"18\"
\"\",\"\",\"approach-retreat\",\"22\",\"4863720\",\"0.0-22.0\",\"\",\"\",\"2-4\",\"5302\",\"37\",\"0\",\"Training\",\"Stims/Figures/128-C-30-3.bmp\",\"namala\",\"Left\",\"39\",\"2\",\"3\",\"7\",\"S\",\"C\",\"19\"
\"\",\"\",\"approach-retreat\",\"23\",\"4869580\",\"0.0-23.0\",\"\",\"\",\"2-4\",\"4345\",\"40\",\"1\",\"Training\",\"Stims/Figures/93-J-0-1.bmp\",\"tapa:ta\",\"Down\",\"40\",\"2\",\"4\",\"7\",\"P\",\"C\",\"20\"
\"\",\"\",\"approach-retreat\",\"24\",\"4875318\",\"0.0-24.0\",\"\",\"\",\"2-4\",\"4226\",\"37\",\"0\",\"Training\",\"Stims/Figures/118-C-20-2.bmp\",\"pa:pa:ka\",\"Left\",\"39\",\"2\",\"5\",\"7\",\"P\",\"C\",\"21\"
\"\",\"\",\"approach-retreat\",\"25\",\"4881106\",\"0.0-25.0\",\"\",\"\",\"2-4\",\"4275\",\"40\",\"0\",\"Training\",\"Stims/Figures/118-J-0-2.bmp\",\"pa:kata\",\"Up\",\"38\",\"2\",\"6\",\"7\",\"P\",\"C\",\"22\"
\"\",\"\",\"approach-retreat\",\"26\",\"4891640\",\"0.0-26.0\",\"\",\"\",\"2-4\",\"9020\",\"38\",\"0\",\"Training\",\"Stims/Figures/84-J-0-2.bmp\",\"ta:pa:ta\",\"Down\",\"40\",\"2\",\"7\",\"7\",\"P\",\"C\",\"23\"
\"\",\"\",\"approach-retreat\",\"27\",\"4898063\",\"0.0-27.0\",\"\",\"\",\"2-4\",\"4907\",\"37\",\"0\",\"Training\",\"Stims/Figures/19-J-10-4.bmp\",\"nalana\",\"Right\",\"39\",\"2\",\"8\",\"7\",\"S\",\"C\",\"24\"
\"\",\"\",\"approach-retreat\",\"28\",\"4903788\",\"0.0-28.0\",\"\",\"\",\"2-4\",\"4213\",\"37\",\"1\",\"Training\",\"Stims/Figures/84-C-20-2.bmp\",\"pa:pata\",\"Right\",\"37\",\"2\",\"9\",\"7\",\"P\",\"C\",\"25\"
\"\",\"\",\"approach-retreat\",\"29\",\"4912969\",\"0.0-29.0\",\"\",\"\",\"2-4\",\"7667\",\"38\",\"0\",\"Training\",\"Stims/Figures/7-C-20-4.bmp\",\"mama:na\",\"Up\",\"40\",\"2\",\"10\",\"7\",\"S\",\"C\",\"26\"
\"\",\"\",\"approach-retreat\",\"30\",\"4923039\",\"0.0-30.0\",\"\",\"\",\"2-4\",\"8555\",\"38\",\"0\",\"Training\",\"Stims/Figures/71-J-0-1.bmp\",\"takata\",\"Down\",\"40\",\"2\",\"11\",\"7\",\"P\",\"C\",\"27\"
\"\",\"\",\"approach-retreat\",\"31\",\"4928986\",\"0.0-31.0\",\"\",\"\",\"2-4\",\"4433\",\"40\",\"1\",\"Training\",\"Stims/Figures/128-J-10-3.bmp\",\"na:ma:la\",\"Down\",\"40\",\"2\",\"12\",\"7\",\"S\",\"C\",\"28\"
\"\",\"\",\"approach-retreat\",\"32\",\"4934544\",\"0.0-32.0\",\"\",\"\",\"2-4\",\"4045\",\"37\",\"1\",\"Training\",\"Stims/Figures/71-C-30-1.bmp\",\"ta:ka:ta\",\"Right\",\"37\",\"2\",\"13\",\"7\",\"P\",\"C\",\"29\"
\"\",\"\",\"approach-retreat\",\"33\",\"4940115\",\"0.0-33.0\",\"\",\"\",\"2-4\",\"4056\",\"40\",\"0\",\"Training\",\"Stims/Figures/7-J-10-4.bmp\",\"na:lana\",\"Up\",\"38\",\"2\",\"14\",\"7\",\"S\",\"C\",\"30\"
\"\",\"\",\"approach-retreat\",\"34\",\"4946489\",\"0.0-34.0\",\"\",\"\",\"2-4\",\"4861\",\"37\",\"1\",\"Training\",\"Stims/Figures/44-C-30-3.bmp\",\"mama:la\",\"Right\",\"37\",\"2\",\"15\",\"7\",\"S\",\"C\",\"31\"
\"\",\"\",\"approach-retreat\",\"35\",\"4953135\",\"0.0-35.0\",\"\",\"\",\"2-4\",\"5132\",\"37\",\"1\",\"Training\",\"Stims/Figures/44-J-10-3.bmp\",\"ma:ma:na\",\"Left\",\"37\",\"2\",\"16\",\"7\",\"S\",\"C\",\"32\"
\"\",\"\",\"approach-retreat\",\"36\",\"4959040\",\"0.0-36.0\",\"\",\"\",\"2-4\",\"4390\",\"40\",\"0\",\"Training\",\"Stims/Figures/19-C-20-4.bmp\",\"ma:ma:la\",\"Down\",\"38\",\"3\",\"1\",\"7\",\"S\",\"C\",\"33\"
\"\",\"\",\"approach-retreat\",\"37\",\"4965238\",\"0.0-37.0\",\"\",\"\",\"2-4\",\"4684\",\"37\",\"1\",\"Training\",\"Stims/Figures/44-J-10-3.bmp\",\"ma:ma:na\",\"Left\",\"37\",\"3\",\"2\",\"7\",\"S\",\"C\",\"34\"
\"\",\"\",\"approach-retreat\",\"38\",\"4971275\",\"0.0-38.0\",\"\",\"\",\"2-4\",\"4523\",\"37\",\"0\",\"Training\",\"Stims/Figures/118-C-20-2.bmp\",\"pa:pa:ka\",\"Left\",\"39\",\"3\",\"3\",\"7\",\"P\",\"C\",\"35\"
\"\",\"\",\"approach-retreat\",\"39\",\"4979544\",\"0.0-39.0\",\"\",\"\",\"2-4\",\"6754\",\"40\",\"0\",\"Training\",\"Stims/Figures/7-J-10-4.bmp\",\"na:lana\",\"Up\",\"38\",\"3\",\"4\",\"7\",\"S\",\"C\",\"36\"
\"\",\"\",\"approach-retreat\",\"40\",\"4985245\",\"0.0-40.0\",\"\",\"\",\"2-4\",\"4189\",\"40\",\"1\",\"Training\",\"Stims/Figures/71-J-0-1.bmp\",\"takata\",\"Down\",\"40\",\"3\",\"5\",\"7\",\"P\",\"C\",\"37\"
\"\",\"\",\"approach-retreat\",\"41\",\"4993336\",\"0.0-41.0\",\"\",\"\",\"2-4\",\"6577\",\"37\",\"1\",\"Training\",\"Stims/Figures/128-J-10-3.bmp\",\"na:ma:la\",\"Left\",\"37\",\"3\",\"6\",\"7\",\"S\",\"C\",\"38\"
\"\",\"\",\"approach-retreat\",\"42\",\"5000898\",\"0.0-42.0\",\"\",\"\",\"2-4\",\"6050\",\"37\",\"0\",\"Training\",\"Stims/Figures/118-J-0-2.bmp\",\"pa:kata\",\"Right\",\"39\",\"3\",\"7\",\"7\",\"P\",\"C\",\"39\"
\"\",\"\",\"approach-retreat\",\"43\",\"5008133\",\"0.0-43.0\",\"\",\"\",\"2-4\",\"5721\",\"37\",\"1\",\"Training\",\"Stims/Figures/93-C-30-1.bmp\",\"paka:ka\",\"Right\",\"37\",\"3\",\"8\",\"7\",\"P\",\"C\",\"40\"
\"\",\"\",\"approach-retreat\",\"44\",\"5016746\",\"0.0-44.0\",\"\",\"\",\"2-4\",\"7096\",\"37\",\"1\",\"Training\",\"Stims/Figures/84-J-0-2.bmp\",\"ta:pa:ta\",\"Left\",\"37\",\"3\",\"9\",\"7\",\"P\",\"C\",\"41\"
\"\",\"\",\"approach-retreat\",\"45\",\"5030335\",\"0.0-45.0\",\"\",\"\",\"2-4\",\"12074\",\"38\",\"1\",\"Training\",\"Stims/Figures/71-C-30-1.bmp\",\"ta:ka:ta\",\"Down\",\"38\",\"3\",\"10\",\"7\",\"P\",\"C\",\"42\"
\"\",\"\",\"approach-retreat\",\"46\",\"5057939\",\"0.0-46.0\",\"\",\"\",\"2-4\",\"26091\",\"40\",\"1\",\"Training\",\"Stims/Figures/44-C-30-3.bmp\",\"mama:la\",\"Up\",\"40\",\"3\",\"11\",\"7\",\"S\",\"C\",\"43\"
\"\",\"\",\"approach-retreat\",\"47\",\"5063457\",\"0.0-47.0\",\"\",\"\",\"2-4\",\"4003\",\"38\",\"1\",\"Training\",\"Stims/Figures/93-J-0-1.bmp\",\"tapa:ta\",\"Up\",\"38\",\"3\",\"12\",\"7\",\"P\",\"C\",\"44\"
\"\",\"\",\"approach-retreat\",\"48\",\"5069855\",\"0.0-48.0\",\"\",\"\",\"2-4\",\"4885\",\"37\",\"1\",\"Training\",\"Stims/Figures/84-C-20-2.bmp\",\"pa:pata\",\"Right\",\"37\",\"3\",\"13\",\"7\",\"P\",\"C\",\"45\"
\"\",\"\",\"approach-retreat\",\"49\",\"5076038\",\"0.0-49.0\",\"\",\"\",\"2-4\",\"4669\",\"38\",\"1\",\"Training\",\"Stims/Figures/128-C-30-3.bmp\",\"namala\",\"Down\",\"38\",\"3\",\"14\",\"7\",\"S\",\"C\",\"46\"
\"\",\"\",\"approach-retreat\",\"50\",\"5083043\",\"0.0-50.0\",\"\",\"\",\"2-4\",\"5492\",\"37\",\"1\",\"Training\",\"Stims/Figures/7-C-20-4.bmp\",\"mama:na\",\"Right\",\"37\",\"3\",\"15\",\"7\",\"S\",\"C\",\"47\"
\"\",\"\",\"approach-retreat\",\"51\",\"5090507\",\"0.0-51.0\",\"\",\"\",\"2-4\",\"5950\",\"40\",\"0\",\"Training\",\"Stims/Figures/19-J-10-4.bmp\",\"nalana\",\"Up\",\"38\",\"3\",\"16\",\"7\",\"S\",\"C\",\"48\"
\"\",\"\",\"approach-retreat\",\"52\",\"5097047\",\"0.0-52.0\",\"\",\"\",\"2-4\",\"5027\",\"37\",\"0\",\"Training\",\"Stims/Figures/19-C-20-4.bmp\",\"ma:ma:la\",\"Left\",\"39\",\"4\",\"1\",\"7\",\"S\",\"C\",\"49\"
\"\",\"\",\"approach-retreat\",\"53\",\"5103769\",\"0.0-53.0\",\"\",\"\",\"2-4\",\"5208\",\"40\",\"1\",\"Training\",\"Stims/Figures/7-J-10-4.bmp\",\"na:lana\",\"Down\",\"40\",\"4\",\"2\",\"7\",\"S\",\"C\",\"50\"
\"\",\"\",\"approach-retreat\",\"54\",\"5115375\",\"0.0-54.0\",\"\",\"\",\"2-4\",\"10091\",\"40\",\"1\",\"Training\",\"Stims/Figures/7-C-20-4.bmp\",\"mama:na\",\"Up\",\"40\",\"4\",\"3\",\"7\",\"S\",\"C\",\"51\"
\"\",\"\",\"approach-retreat\",\"55\",\"5122268\",\"0.0-55.0\",\"\",\"\",\"2-4\",\"5379\",\"37\",\"1\",\"Training\",\"Stims/Figures/128-C-30-3.bmp\",\"namala\",\"Right\",\"37\",\"4\",\"4\",\"7\",\"S\",\"C\",\"52\"
\"\",\"\",\"approach-retreat\",\"56\",\"5128578\",\"0.0-56.0\",\"\",\"\",\"2-4\",\"4789\",\"37\",\"0\",\"Training\",\"Stims/Figures/128-J-10-3.bmp\",\"na:ma:la\",\"Right\",\"39\",\"4\",\"5\",\"7\",\"S\",\"C\",\"53\"
\"\",\"\",\"approach-retreat\",\"57\",\"5143287\",\"0.0-57.0\",\"\",\"\",\"2-4\",\"13197\",\"38\",\"1\",\"Training\",\"Stims/Figures/84-C-20-2.bmp\",\"pa:pata\",\"Down\",\"38\",\"4\",\"6\",\"7\",\"P\",\"C\",\"54\"
\"\",\"\",\"approach-retreat\",\"58\",\"5154208\",\"0.0-58.0\",\"\",\"\",\"2-4\",\"9406\",\"37\",\"1\",\"Training\",\"Stims/Figures/118-C-20-2.bmp\",\"pa:pa:ka\",\"Right\",\"37\",\"4\",\"7\",\"7\",\"P\",\"C\",\"55\"
\"\",\"\",\"approach-retreat\",\"59\",\"5160376\",\"0.0-59.0\",\"\",\"\",\"2-4\",\"4654\",\"40\",\"0\",\"Training\",\"Stims/Figures/44-J-10-3.bmp\",\"ma:ma:na\",\"Up\",\"38\",\"4\",\"8\",\"7\",\"S\",\"C\",\"56\"
\"\",\"\",\"approach-retreat\",\"60\",\"5173000\",\"0.0-60.0\",\"\",\"\",\"2-4\",\"11110\",\"37\",\"0\",\"Training\",\"Stims/Figures/71-C-30-1.bmp\",\"ta:ka:ta\",\"Left\",\"39\",\"4\",\"9\",\"7\",\"P\",\"C\",\"57\"
\"\",\"\",\"approach-retreat\",\"61\",\"5178814\",\"0.0-61.0\",\"\",\"\",\"2-4\",\"4303\",\"37\",\"0\",\"Training\",\"Stims/Figures/93-C-30-1.bmp\",\"paka:ka\",\"Left\",\"39\",\"4\",\"10\",\"7\",\"P\",\"C\",\"58\"
\"\",\"\",\"approach-retreat\",\"62\",\"5184741\",\"0.0-62.0\",\"\",\"\",\"2-4\",\"4406\",\"37\",\"1\",\"Training\",\"Stims/Figures/84-J-0-2.bmp\",\"ta:pa:ta\",\"Left\",\"37\",\"4\",\"11\",\"7\",\"P\",\"C\",\"59\"
\"\",\"\",\"approach-retreat\",\"63\",\"5192712\",\"0.0-63.0\",\"\",\"\",\"2-4\",\"6459\",\"37\",\"1\",\"Training\",\"Stims/Figures/44-C-30-3.bmp\",\"mama:la\",\"Right\",\"37\",\"4\",\"12\",\"7\",\"S\",\"C\",\"60\"
\"\",\"\",\"approach-retreat\",\"64\",\"5198589\",\"0.0-64.0\",\"\",\"\",\"2-4\",\"4364\",\"40\",\"1\",\"Training\",\"Stims/Figures/71-J-0-1.bmp\",\"takata\",\"Down\",\"40\",\"4\",\"13\",\"7\",\"P\",\"C\",\"61\"
\"\",\"\",\"approach-retreat\",\"65\",\"5204717\",\"0.0-65.0\",\"\",\"\",\"2-4\",\"4615\",\"38\",\"0\",\"Training\",\"Stims/Figures/118-J-0-2.bmp\",\"pa:kata\",\"Down\",\"40\",\"4\",\"14\",\"7\",\"P\",\"C\",\"62\"
\"\",\"\",\"approach-retreat\",\"66\",\"5212575\",\"0.0-66.0\",\"\",\"\",\"2-4\",\"6348\",\"40\",\"0\",\"Training\",\"Stims/Figures/19-J-10-4.bmp\",\"nalana\",\"Up\",\"38\",\"4\",\"15\",\"7\",\"S\",\"C\",\"63\"
\"\",\"\",\"approach-retreat\",\"67\",\"5218786\",\"0.0-67.0\",\"\",\"\",\"2-4\",\"4697\",\"38\",\"1\",\"Training\",\"Stims/Figures/93-J-0-1.bmp\",\"tapa:ta\",\"Up\",\"38\",\"4\",\"16\",\"7\",\"P\",\"C\",\"64\"
\"\",\"\",\"approach-retreat\",\"68\",\"5224770\",\"0.0-68.0\",\"\",\"\",\"2-4\",\"4470\",\"40\",\"0\",\"Training\",\"Stims/Figures/7-C-20-4.bmp\",\"mama:na\",\"Down\",\"38\",\"5\",\"1\",\"7\",\"S\",\"C\",\"65\"
\"\",\"\",\"approach-retreat\",\"69\",\"5231031\",\"0.0-69.0\",\"\",\"\",\"2-4\",\"4748\",\"40\",\"1\",\"Training\",\"Stims/Figures/118-C-20-2.bmp\",\"pa:pa:ka\",\"Up\",\"40\",\"5\",\"2\",\"7\",\"P\",\"C\",\"66\"
\"\",\"\",\"approach-retreat\",\"70\",\"5239339\",\"0.0-70.0\",\"\",\"\",\"2-4\",\"6794\",\"40\",\"1\",\"Training\",\"Stims/Figures/118-J-0-2.bmp\",\"pa:kata\",\"Down\",\"40\",\"5\",\"3\",\"7\",\"P\",\"C\",\"67\"
\"\",\"\",\"approach-retreat\",\"71\",\"5245692\",\"0.0-71.0\",\"\",\"\",\"2-4\",\"4841\",\"37\",\"0\",\"Training\",\"Stims/Figures/71-J-0-1.bmp\",\"takata\",\"Right\",\"39\",\"5\",\"4\",\"7\",\"P\",\"C\",\"68\"
\"\",\"\",\"approach-retreat\",\"72\",\"5252544\",\"0.0-72.0\",\"\",\"\",\"2-4\",\"5338\",\"38\",\"0\",\"Training\",\"Stims/Figures/7-J-10-4.bmp\",\"na:lana\",\"Down\",\"40\",\"5\",\"5\",\"7\",\"S\",\"C\",\"69\"
\"\",\"\",\"approach-retreat\",\"73\",\"5261805\",\"0.0-73.0\",\"\",\"\",\"2-4\",\"7747\",\"37\",\"0\",\"Training\",\"Stims/Figures/84-C-20-2.bmp\",\"pa:pata\",\"Left\",\"39\",\"5\",\"6\",\"7\",\"P\",\"C\",\"70\"
\"\",\"\",\"approach-retreat\",\"74\",\"5267853\",\"0.0-74.0\",\"\",\"\",\"2-4\",\"4534\",\"37\",\"0\",\"Training\",\"Stims/Figures/84-J-0-2.bmp\",\"ta:pa:ta\",\"Right\",\"39\",\"5\",\"7\",\"7\",\"P\",\"C\",\"71\"
\"\",\"\",\"approach-retreat\",\"75\",\"5273859\",\"0.0-75.0\",\"\",\"\",\"2-4\",\"4492\",\"37\",\"1\",\"Training\",\"Stims/Figures/19-J-10-4.bmp\",\"nalana\",\"Left\",\"37\",\"5\",\"8\",\"7\",\"S\",\"C\",\"72\"
\"\",\"\",\"approach-retreat\",\"76\",\"5281537\",\"0.0-76.0\",\"\",\"\",\"2-4\",\"6161\",\"40\",\"0\",\"Training\",\"Stims/Figures/44-C-30-3.bmp\",\"mama:la\",\"Down\",\"38\",\"5\",\"9\",\"7\",\"S\",\"C\",\"73\"
\"\",\"\",\"approach-retreat\",\"77\",\"5295690\",\"0.0-77.0\",\"\",\"\",\"2-4\",\"12641\",\"38\",\"1\",\"Training\",\"Stims/Figures/128-J-10-3.bmp\",\"na:ma:la\",\"Up\",\"38\",\"5\",\"10\",\"7\",\"S\",\"C\",\"74\"
\"\",\"\",\"approach-retreat\",\"78\",\"5317231\",\"0.0-78.0\",\"\",\"\",\"2-4\",\"20026\",\"37\",\"1\",\"Training\",\"Stims/Figures/128-C-30-3.bmp\",\"namala\",\"Right\",\"37\",\"5\",\"11\",\"7\",\"S\",\"C\",\"75\"
\"\",\"\",\"approach-retreat\",\"79\",\"5335723\",\"0.0-79.0\",\"\",\"\",\"2-4\",\"16978\",\"37\",\"1\",\"Training\",\"Stims/Figures/44-J-10-3.bmp\",\"ma:ma:na\",\"Left\",\"37\",\"5\",\"12\",\"7\",\"S\",\"C\",\"76\"
\"\",\"\",\"approach-retreat\",\"80\",\"5362591\",\"0.0-80.0\",\"\",\"\",\"2-4\",\"25354\",\"40\",\"1\",\"Training\",\"Stims/Figures/93-C-30-1.bmp\",\"paka:ka\",\"Up\",\"40\",\"5\",\"13\",\"7\",\"P\",\"C\",\"77\"
\"\",\"\",\"approach-retreat\",\"81\",\"5368491\",\"0.0-81.0\",\"\",\"\",\"2-4\",\"4385\",\"37\",\"1\",\"Training\",\"Stims/Figures/93-J-0-1.bmp\",\"tapa:ta\",\"Left\",\"37\",\"5\",\"14\",\"7\",\"P\",\"C\",\"78\"
\"\",\"\",\"approach-retreat\",\"82\",\"5376936\",\"0.0-82.0\",\"\",\"\",\"2-4\",\"6932\",\"37\",\"1\",\"Training\",\"Stims/Figures/71-C-30-1.bmp\",\"ta:ka:ta\",\"Right\",\"37\",\"5\",\"15\",\"7\",\"P\",\"C\",\"79\"
\"\",\"\",\"approach-retreat\",\"83\",\"5395815\",\"0.0-83.0\",\"\",\"\",\"2-4\",\"17364\",\"40\",\"1\",\"Training\",\"Stims/Figures/19-C-20-4.bmp\",\"ma:ma:la\",\"Up\",\"40\",\"5\",\"16\",\"7\",\"S\",\"C\",\"80\"
\"\",\"\",\"approach-retreat\",\"84\",\"5402123\",\"0.0-84.0\",\"\",\"\",\"2-4\",\"4795\",\"40\",\"1\",\"Training\",\"Stims/Figures/128-C-30-3.bmp\",\"namala\",\"Up\",\"40\",\"6\",\"1\",\"7\",\"S\",\"C\",\"81\"
\"\",\"\",\"approach-retreat\",\"85\",\"5411047\",\"0.0-85.0\",\"\",\"\",\"2-4\",\"7406\",\"40\",\"0\",\"Training\",\"Stims/Figures/93-C-30-1.bmp\",\"paka:ka\",\"Down\",\"38\",\"6\",\"2\",\"7\",\"P\",\"C\",\"82\"
\"\",\"\",\"approach-retreat\",\"86\",\"5416901\",\"0.0-86.0\",\"\",\"\",\"2-4\",\"4339\",\"40\",\"0\",\"Training\",\"Stims/Figures/7-C-20-4.bmp\",\"mama:na\",\"Down\",\"38\",\"6\",\"3\",\"7\",\"S\",\"C\",\"83\"
\"\",\"\",\"approach-retreat\",\"87\",\"5423242\",\"0.0-87.0\",\"\",\"\",\"2-4\",\"4817\",\"37\",\"0\",\"Training\",\"Stims/Figures/71-J-0-1.bmp\",\"takata\",\"Right\",\"39\",\"6\",\"4\",\"7\",\"P\",\"C\",\"84\"
\"\",\"\",\"approach-retreat\",\"88\",\"5434084\",\"0.0-88.0\",\"\",\"\",\"2-4\",\"9307\",\"38\",\"1\",\"Training\",\"Stims/Figures/19-J-10-4.bmp\",\"nalana\",\"Up\",\"38\",\"6\",\"5\",\"7\",\"S\",\"C\",\"85\"
\"\",\"\",\"approach-retreat\",\"89\",\"5449070\",\"0.0-89.0\",\"\",\"\",\"2-4\",\"13475\",\"40\",\"1\",\"Training\",\"Stims/Figures/7-J-10-4.bmp\",\"na:lana\",\"Down\",\"40\",\"6\",\"6\",\"7\",\"S\",\"C\",\"86\"
\"\",\"\",\"approach-retreat\",\"90\",\"5455989\",\"0.0-90.0\",\"\",\"\",\"2-4\",\"5379\",\"37\",\"1\",\"Training\",\"Stims/Figures/19-C-20-4.bmp\",\"ma:ma:la\",\"Right\",\"37\",\"6\",\"7\",\"7\",\"S\",\"C\",\"87\"
\"\",\"\",\"approach-retreat\",\"91\",\"5469481\",\"0.0-91.0\",\"\",\"\",\"2-4\",\"11980\",\"40\",\"0\",\"Training\",\"Stims/Figures/93-J-0-1.bmp\",\"tapa:ta\",\"Up\",\"38\",\"6\",\"8\",\"7\",\"P\",\"C\",\"88\"
\"\",\"\",\"approach-retreat\",\"92\",\"5475485\",\"0.0-92.0\",\"\",\"\",\"2-4\",\"4490\",\"37\",\"0\",\"Training\",\"Stims/Figures/71-C-30-1.bmp\",\"ta:ka:ta\",\"Left\",\"39\",\"6\",\"9\",\"7\",\"P\",\"C\",\"89\"
\"\",\"\",\"approach-retreat\",\"93\",\"5489790\",\"0.0-93.0\",\"\",\"\",\"2-4\",\"12796\",\"37\",\"0\",\"Training\",\"Stims/Figures/128-J-10-3.bmp\",\"na:ma:la\",\"Right\",\"39\",\"6\",\"10\",\"7\",\"S\",\"C\",\"90\"
\"\",\"\",\"approach-retreat\",\"94\",\"5496259\",\"0.0-94.0\",\"\",\"\",\"2-4\",\"4955\",\"37\",\"1\",\"Training\",\"Stims/Figures/44-J-10-3.bmp\",\"ma:ma:na\",\"Left\",\"37\",\"6\",\"11\",\"7\",\"S\",\"C\",\"91\"
\"\",\"\",\"approach-retreat\",\"95\",\"5503877\",\"0.0-95.0\",\"\",\"\",\"2-4\",\"6105\",\"40\",\"1\",\"Training\",\"Stims/Figures/118-J-0-2.bmp\",\"pa:kata\",\"Down\",\"40\",\"6\",\"12\",\"7\",\"P\",\"C\",\"92\"
\"\",\"\",\"approach-retreat\",\"96\",\"5513721\",\"0.0-96.0\",\"\",\"\",\"2-4\",\"8333\",\"40\",\"1\",\"Training\",\"Stims/Figures/84-C-20-2.bmp\",\"pa:pata\",\"Up\",\"40\",\"6\",\"13\",\"7\",\"P\",\"C\",\"93\"
\"\",\"\",\"approach-retreat\",\"97\",\"5519559\",\"0.0-97.0\",\"\",\"\",\"2-4\",\"4309\",\"37\",\"1\",\"Training\",\"Stims/Figures/44-C-30-3.bmp\",\"mama:la\",\"Right\",\"37\",\"6\",\"14\",\"7\",\"S\",\"C\",\"94\"
\"\",\"\",\"approach-retreat\",\"98\",\"5560210\",\"0.0-98.0\",\"\",\"\",\"2-4\",\"39139\",\"37\",\"1\",\"Training\",\"Stims/Figures/84-J-0-2.bmp\",\"ta:pa:ta\",\"Left\",\"37\",\"6\",\"15\",\"7\",\"P\",\"C\",\"95\"
\"\",\"\",\"approach-retreat\",\"99\",\"5566339\",\"0.0-99.0\",\"\",\"\",\"2-4\",\"4615\",\"37\",\"0\",\"Training\",\"Stims/Figures/118-C-20-2.bmp\",\"pa:pa:ka\",\"Left\",\"39\",\"6\",\"16\",\"7\",\"P\",\"C\",\"96\"
\"\",\"\",\"approach-retreat\",\"100\",\"5572697\",\"0.0-100.0\",\"\",\"\",\"2-4\",\"4846\",\"40\",\"0\",\"Training\",\"Stims/Figures/7-C-20-4.bmp\",\"mama:na\",\"Down\",\"38\",\"7\",\"1\",\"7\",\"S\",\"C\",\"97\"
\"\",\"\",\"approach-retreat\",\"101\",\"5579075\",\"0.0-101.0\",\"\",\"\",\"2-4\",\"4865\",\"37\",\"0\",\"Training\",\"Stims/Figures/19-J-10-4.bmp\",\"nalana\",\"Right\",\"39\",\"7\",\"2\",\"7\",\"S\",\"C\",\"98\"
\"\",\"\",\"approach-retreat\",\"102\",\"5584929\",\"0.0-102.0\",\"\",\"\",\"2-4\",\"4345\",\"37\",\"0\",\"Training\",\"Stims/Figures/128-J-10-3.bmp\",\"na:ma:la\",\"Right\",\"39\",\"7\",\"3\",\"7\",\"S\",\"C\",\"99\"
\"\",\"\",\"approach-retreat\",\"103\",\"5591008\",\"0.0-103.0\",\"\",\"\",\"2-4\",\"4563\",\"38\",\"0\",\"Training\",\"Stims/Figures/7-J-10-4.bmp\",\"na:lana\",\"Down\",\"40\",\"7\",\"4\",\"7\",\"S\",\"C\",\"100\"
\"\",\"\",\"approach-retreat\",\"104\",\"5597506\",\"0.0-104.0\",\"\",\"\",\"2-4\",\"4986\",\"40\",\"0\",\"Training\",\"Stims/Figures/44-C-30-3.bmp\",\"mama:la\",\"Down\",\"38\",\"7\",\"5\",\"7\",\"S\",\"C\",\"101\"
\"\",\"\",\"approach-retreat\",\"105\",\"5604800\",\"0.0-105.0\",\"\",\"\",\"2-4\",\"5776\",\"37\",\"1\",\"Training\",\"Stims/Figures/44-J-10-3.bmp\",\"ma:ma:na\",\"Left\",\"37\",\"7\",\"6\",\"7\",\"S\",\"C\",\"102\"
\"\",\"\",\"approach-retreat\",\"106\",\"5610714\",\"0.0-106.0\",\"\",\"\",\"2-4\",\"4401\",\"38\",\"1\",\"Training\",\"Stims/Figures/118-J-0-2.bmp\",\"pa:kata\",\"Up\",\"38\",\"7\",\"7\",\"7\",\"P\",\"C\",\"103\"
\"\",\"\",\"approach-retreat\",\"107\",\"5616512\",\"0.0-107.0\",\"\",\"\",\"2-4\",\"4285\",\"37\",\"1\",\"Training\",\"Stims/Figures/71-J-0-1.bmp\",\"takata\",\"Left\",\"37\",\"7\",\"8\",\"7\",\"P\",\"C\",\"104\"
\"\",\"\",\"approach-retreat\",\"108\",\"5622343\",\"0.0-108.0\",\"\",\"\",\"2-4\",\"4312\",\"38\",\"0\",\"Training\",\"Stims/Figures/84-C-20-2.bmp\",\"pa:pata\",\"Up\",\"40\",\"7\",\"9\",\"7\",\"P\",\"C\",\"105\"
\"\",\"\",\"approach-retreat\",\"109\",\"5629035\",\"0.0-109.0\",\"\",\"\",\"2-4\",\"5177\",\"37\",\"1\",\"Training\",\"Stims/Figures/118-C-20-2.bmp\",\"pa:pa:ka\",\"Right\",\"37\",\"7\",\"10\",\"7\",\"P\",\"C\",\"106\"
\"\",\"\",\"approach-retreat\",\"110\",\"5635921\",\"0.0-110.0\",\"\",\"\",\"2-4\",\"5375\",\"40\",\"0\",\"Training\",\"Stims/Figures/71-C-30-1.bmp\",\"ta:ka:ta\",\"Down\",\"38\",\"7\",\"11\",\"7\",\"P\",\"C\",\"107\"
\"\",\"\",\"approach-retreat\",\"111\",\"5645034\",\"0.0-111.0\",\"\",\"\",\"2-4\",\"7599\",\"37\",\"0\",\"Training\",\"Stims/Figures/128-C-30-3.bmp\",\"namala\",\"Left\",\"39\",\"7\",\"12\",\"7\",\"S\",\"C\",\"108\"
\"\",\"\",\"approach-retreat\",\"112\",\"5650684\",\"0.0-112.0\",\"\",\"\",\"2-4\",\"4136\",\"40\",\"1\",\"Training\",\"Stims/Figures/93-C-30-1.bmp\",\"paka:ka\",\"Up\",\"40\",\"7\",\"13\",\"7\",\"P\",\"C\",\"109\"
\"\",\"\",\"approach-retreat\",\"113\",\"5663269\",\"0.0-113.0\",\"\",\"\",\"2-4\",\"11069\",\"40\",\"0\",\"Training\",\"Stims/Figures/93-J-0-1.bmp\",\"tapa:ta\",\"Up\",\"38\",\"7\",\"14\",\"7\",\"P\",\"C\",\"110\"
\"\",\"\",\"approach-retreat\",\"114\",\"5669457\",\"0.0-114.0\",\"\",\"\",\"2-4\",\"4674\",\"37\",\"0\",\"Training\",\"Stims/Figures/84-J-0-2.bmp\",\"ta:pa:ta\",\"Right\",\"39\",\"7\",\"15\",\"7\",\"P\",\"C\",\"111\"
\"\",\"\",\"approach-retreat\",\"115\",\"5675085\",\"0.0-115.0\",\"\",\"\",\"2-4\",\"4110\",\"37\",\"0\",\"Training\",\"Stims/Figures/19-C-20-4.bmp\",\"ma:ma:la\",\"Left\",\"39\",\"7\",\"16\",\"7\",\"S\",\"C\",\"112\"
\"\",\"\",\"approach-retreat\",\"116\",\"5681420\",\"0.0-116.0\",\"\",\"\",\"2-4\",\"4822\",\"37\",\"0\",\"Training\",\"Stims/Figures/44-C-30-3.bmp\",\"mama:la\",\"Left\",\"39\",\"8\",\"1\",\"7\",\"S\",\"C\",\"113\"
\"\",\"\",\"approach-retreat\",\"117\",\"5687265\",\"0.0-117.0\",\"\",\"\",\"2-4\",\"4332\",\"40\",\"0\",\"Training\",\"Stims/Figures/84-C-20-2.bmp\",\"pa:pata\",\"Down\",\"38\",\"8\",\"2\",\"7\",\"P\",\"C\",\"114\"
\"\",\"\",\"approach-retreat\",\"118\",\"5693767\",\"0.0-118.0\",\"\",\"\",\"2-4\",\"4987\",\"40\",\"1\",\"Training\",\"Stims/Figures/19-C-20-4.bmp\",\"ma:ma:la\",\"Up\",\"40\",\"8\",\"3\",\"7\",\"S\",\"C\",\"115\"
\"\",\"\",\"approach-retreat\",\"119\",\"5699847\",\"0.0-119.0\",\"\",\"\",\"2-4\",\"4567\",\"40\",\"0\",\"Training\",\"Stims/Figures/118-C-20-2.bmp\",\"pa:pa:ka\",\"Down\",\"38\",\"8\",\"4\",\"7\",\"P\",\"C\",\"116\"
\"\",\"\",\"approach-retreat\",\"120\",\"5706981\",\"0.0-120.0\",\"\",\"\",\"2-4\",\"5620\",\"40\",\"0\",\"Training\",\"Stims/Figures/84-J-0-2.bmp\",\"ta:pa:ta\",\"Up\",\"38\",\"8\",\"5\",\"7\",\"P\",\"C\",\"117\"
\"\",\"\",\"approach-retreat\",\"121\",\"5713130\",\"0.0-121.0\",\"\",\"\",\"2-4\",\"4640\",\"37\",\"0\",\"Training\",\"Stims/Figures/19-J-10-4.bmp\",\"nalana\",\"Right\",\"39\",\"8\",\"6\",\"7\",\"S\",\"C\",\"118\"
\"\",\"\",\"approach-retreat\",\"122\",\"5718781\",\"0.0-122.0\",\"\",\"\",\"2-4\",\"4138\",\"40\",\"0\",\"Training\",\"Stims/Figures/71-J-0-1.bmp\",\"takata\",\"Up\",\"38\",\"8\",\"7\",\"7\",\"P\",\"C\",\"119\"
\"\",\"\",\"approach-retreat\",\"123\",\"5724756\",\"0.0-123.0\",\"\",\"\",\"2-4\",\"4460\",\"37\",\"1\",\"Training\",\"Stims/Figures/44-J-10-3.bmp\",\"ma:ma:na\",\"Left\",\"37\",\"8\",\"8\",\"7\",\"S\",\"C\",\"120\"
\"\",\"\",\"approach-retreat\",\"124\",\"5730904\",\"0.0-124.0\",\"\",\"\",\"2-4\",\"4635\",\"40\",\"1\",\"Training\",\"Stims/Figures/128-J-10-3.bmp\",\"na:ma:la\",\"Down\",\"40\",\"8\",\"9\",\"7\",\"S\",\"C\",\"121\"
\"\",\"\",\"approach-retreat\",\"125\",\"5736531\",\"0.0-125.0\",\"\",\"\",\"2-4\",\"4115\",\"40\",\"1\",\"Training\",\"Stims/Figures/93-J-0-1.bmp\",\"tapa:ta\",\"Down\",\"40\",\"8\",\"10\",\"7\",\"P\",\"C\",\"122\"
\"\",\"\",\"approach-retreat\",\"126\",\"5742203\",\"0.0-126.0\",\"\",\"\",\"2-4\",\"4156\",\"37\",\"1\",\"Training\",\"Stims/Figures/7-J-10-4.bmp\",\"na:lana\",\"Left\",\"37\",\"8\",\"11\",\"7\",\"S\",\"C\",\"123\"
\"\",\"\",\"approach-retreat\",\"127\",\"5749156\",\"0.0-127.0\",\"\",\"\",\"2-4\",\"5439\",\"37\",\"1\",\"Training\",\"Stims/Figures/118-J-0-2.bmp\",\"pa:kata\",\"Left\",\"37\",\"8\",\"12\",\"7\",\"P\",\"C\",\"124\"
\"\",\"\",\"approach-retreat\",\"128\",\"5755422\",\"0.0-128.0\",\"\",\"\",\"2-4\",\"4752\",\"37\",\"1\",\"Training\",\"Stims/Figures/71-C-30-1.bmp\",\"ta:ka:ta\",\"Right\",\"37\",\"8\",\"13\",\"7\",\"P\",\"C\",\"125\"
\"\",\"\",\"approach-retreat\",\"129\",\"5761195\",\"0.0-129.0\",\"\",\"\",\"2-4\",\"4257\",\"37\",\"1\",\"Training\",\"Stims/Figures/93-C-30-1.bmp\",\"paka:ka\",\"Right\",\"37\",\"8\",\"14\",\"7\",\"P\",\"C\",\"126\"
\"\",\"\",\"approach-retreat\",\"130\",\"5767499\",\"0.0-130.0\",\"\",\"\",\"2-4\",\"4789\",\"40\",\"1\",\"Training\",\"Stims/Figures/128-C-30-3.bmp\",\"namala\",\"Up\",\"40\",\"8\",\"15\",\"7\",\"S\",\"C\",\"127\"
\"\",\"\",\"approach-retreat\",\"131\",\"5773301\",\"0.0-131.0\",\"\",\"\",\"2-4\",\"4288\",\"37\",\"1\",\"Training\",\"Stims/Figures/7-C-20-4.bmp\",\"mama:na\",\"Right\",\"37\",\"8\",\"16\",\"7\",\"S\",\"C\",\"128\"
\"\",\"\",\"approach-retreat\",\"132\",\"5779233\",\"0.0-132.0\",\"\",\"\",\"2-4\",\"4419\",\"40\",\"0\",\"Training\",\"Stims/Figures/7-C-20-4.bmp\",\"mama:na\",\"Down\",\"38\",\"9\",\"1\",\"7\",\"S\",\"C\",\"129\"
\"\",\"\",\"approach-retreat\",\"133\",\"5785482\",\"0.0-133.0\",\"\",\"\",\"2-4\",\"4736\",\"37\",\"0\",\"Training\",\"Stims/Figures/93-C-30-1.bmp\",\"paka:ka\",\"Left\",\"39\",\"9\",\"2\",\"7\",\"P\",\"C\",\"130\"
\"\",\"\",\"approach-retreat\",\"134\",\"5791046\",\"0.0-134.0\",\"\",\"\",\"2-4\",\"4052\",\"37\",\"1\",\"Training\",\"Stims/Figures/84-C-20-2.bmp\",\"pa:pata\",\"Right\",\"37\",\"9\",\"3\",\"7\",\"P\",\"C\",\"131\"
\"\",\"\",\"approach-retreat\",\"135\",\"5796754\",\"0.0-135.0\",\"\",\"\",\"2-4\",\"4190\",\"38\",\"1\",\"Training\",\"Stims/Figures/93-J-0-1.bmp\",\"tapa:ta\",\"Up\",\"38\",\"9\",\"4\",\"7\",\"P\",\"C\",\"132\"
\"\",\"\",\"approach-retreat\",\"136\",\"5806037\",\"0.0-136.0\",\"\",\"\",\"2-4\",\"7768\",\"40\",\"0\",\"Training\",\"Stims/Figures/118-J-0-2.bmp\",\"pa:kata\",\"Up\",\"38\",\"9\",\"5\",\"7\",\"P\",\"C\",\"133\"
\"\",\"\",\"approach-retreat\",\"137\",\"5817234\",\"0.0-137.0\",\"\",\"\",\"2-4\",\"9684\",\"38\",\"1\",\"Training\",\"Stims/Figures/128-C-30-3.bmp\",\"namala\",\"Down\",\"38\",\"9\",\"6\",\"7\",\"S\",\"C\",\"134\"
\"\",\"\",\"approach-retreat\",\"138\",\"5829134\",\"0.0-138.0\",\"\",\"\",\"2-4\",\"10386\",\"37\",\"0\",\"Training\",\"Stims/Figures/128-J-10-3.bmp\",\"na:ma:la\",\"Right\",\"39\",\"9\",\"7\",\"7\",\"S\",\"C\",\"135\"
\"\",\"\",\"approach-retreat\",\"139\",\"5837318\",\"0.0-139.0\",\"\",\"\",\"2-4\",\"6670\",\"37\",\"0\",\"Training\",\"Stims/Figures/19-C-20-4.bmp\",\"ma:ma:la\",\"Left\",\"39\",\"9\",\"8\",\"7\",\"S\",\"C\",\"136\"
\"\",\"\",\"approach-retreat\",\"140\",\"5863505\",\"0.0-140.0\",\"\",\"\",\"2-4\",\"24675\",\"40\",\"1\",\"Training\",\"Stims/Figures/19-J-10-4.bmp\",\"nalana\",\"Down\",\"40\",\"9\",\"9\",\"7\",\"S\",\"C\",\"137\"
\"\",\"\",\"approach-retreat\",\"141\",\"5870745\",\"0.0-141.0\",\"\",\"\",\"2-4\",\"5724\",\"38\",\"0\",\"Training\",\"Stims/Figures/118-C-20-2.bmp\",\"pa:pa:ka\",\"Up\",\"40\",\"9\",\"10\",\"7\",\"P\",\"C\",\"138\"
\"\",\"\",\"approach-retreat\",\"142\",\"5880141\",\"0.0-142.0\",\"\",\"\",\"2-4\",\"7882\",\"37\",\"0\",\"Training\",\"Stims/Figures/44-C-30-3.bmp\",\"mama:la\",\"Left\",\"39\",\"9\",\"11\",\"7\",\"S\",\"C\",\"139\"
\"\",\"\",\"approach-retreat\",\"143\",\"5890184\",\"0.0-143.0\",\"\",\"\",\"2-4\",\"8532\",\"40\",\"0\",\"Training\",\"Stims/Figures/71-C-30-1.bmp\",\"ta:ka:ta\",\"Down\",\"38\",\"9\",\"12\",\"7\",\"P\",\"C\",\"140\"
\"\",\"\",\"approach-retreat\",\"144\",\"5896193\",\"0.0-144.0\",\"\",\"\",\"2-4\",\"4496\",\"37\",\"0\",\"Training\",\"Stims/Figures/7-J-10-4.bmp\",\"na:lana\",\"Right\",\"39\",\"9\",\"13\",\"7\",\"S\",\"C\",\"141\"
\"\",\"\",\"approach-retreat\",\"145\",\"5902149\",\"0.0-145.0\",\"\",\"\",\"2-4\",\"4442\",\"40\",\"0\",\"Training\",\"Stims/Figures/71-J-0-1.bmp\",\"takata\",\"Up\",\"38\",\"9\",\"14\",\"7\",\"P\",\"C\",\"142\"
\"\",\"\",\"approach-retreat\",\"146\",\"5950720\",\"0.0-146.0\",\"\",\"\",\"2-4\",\"47040\",\"37\",\"1\",\"Training\",\"Stims/Figures/44-J-10-3.bmp\",\"ma:ma:na\",\"Left\",\"37\",\"9\",\"15\",\"7\",\"S\",\"C\",\"143\"
\"\",\"\",\"approach-retreat\",\"147\",\"5957357\",\"0.0-147.0\",\"\",\"\",\"2-4\",\"5121\",\"37\",\"0\",\"Training\",\"Stims/Figures/84-J-0-2.bmp\",\"ta:pa:ta\",\"Right\",\"39\",\"9\",\"16\",\"7\",\"P\",\"C\",\"144\"
\"12371\",\"\",\"instructions\",\"148\",\"5969728\",\"0.0-148.0\",\"[{\"\"page_index\"\":0,\"\"viewing_time\"\":12370}]\",\"\",\"\",\"\",\"\",\"\",\"\",\"\",\"\",\"\",\"\",\"\",\"\",\"\",\"\",\"\",\"\"
\"\",\"\",\"approach-retreat\",\"149\",\"5975298\",\"0.0-149.0\",\"\",\"\",\"2-4\",\"4062\",\"40\",\"1\",\"Testing\",\"Stims/Figures/93-C-30-1.bmp\",\"paka:ka\",\"Up\",\"40\",\"1\",\"1\",\"7\",\"P\",\"C\",\"1\"
\"\",\"\",\"approach-retreat\",\"150\",\"5981186\",\"0.0-150.0\",\"\",\"\",\"2-4\",\"4375\",\"37\",\"1\",\"Testing\",\"Stims/Figures/57-J-0-1.bmp\",\"ta:kaka\",\"Left\",\"37\",\"1\",\"2\",\"7\",\"P\",\"C\",\"2\"
\"\",\"\",\"approach-retreat\",\"151\",\"5988056\",\"0.0-151.0\",\"\",\"\",\"2-4\",\"5358\",\"37\",\"0\",\"Testing\",\"Stims/Figures/44-C-30-3.bmp\",\"mama:la\",\"Left\",\"39\",\"1\",\"3\",\"7\",\"S\",\"C\",\"3\"
\"\",\"\",\"approach-retreat\",\"152\",\"5999133\",\"0.0-152.0\",\"\",\"\",\"2-4\",\"9567\",\"40\",\"0\",\"Testing\",\"Stims/Figures/93-J-0-1.bmp\",\"tapa:ta\",\"Up\",\"38\",\"1\",\"4\",\"7\",\"P\",\"C\",\"4\"
\"\",\"\",\"approach-retreat\",\"153\",\"6004677\",\"0.0-153.0\",\"\",\"\",\"2-4\",\"4035\",\"37\",\"0\",\"Testing\",\"Stims/Figures/85-C-20-2.bmp\",\"ta:ka:ka\",\"Left\",\"39\",\"1\",\"5\",\"7\",\"P\",\"C\",\"5\"
\"\",\"\",\"approach-retreat\",\"154\",\"6009777\",\"0.0-154.0\",\"\",\"\",\"2-4\",\"3590\",\"40\",\"0\",\"Testing\",\"Stims/Figures/100-C-30-3.bmp\",\"na:la:la\",\"Down\",\"38\",\"1\",\"6\",\"7\",\"S\",\"C\",\"6\"
\"\",\"\",\"approach-retreat\",\"155\",\"6015518\",\"0.0-155.0\",\"\",\"\",\"2-4\",\"4232\",\"37\",\"0\",\"Testing\",\"Stims/Figures/19-J-10-4.bmp\",\"nalana\",\"Right\",\"39\",\"1\",\"7\",\"7\",\"S\",\"C\",\"7\"
\"\",\"\",\"approach-retreat\",\"156\",\"6028841\",\"0.0-156.0\",\"\",\"\",\"2-4\",\"11812\",\"37\",\"0\",\"Testing\",\"Stims/Figures/71-J-0-1.bmp\",\"takata\",\"Right\",\"39\",\"1\",\"8\",\"7\",\"P\",\"C\",\"8\"
\"\",\"\",\"approach-retreat\",\"157\",\"6034895\",\"0.0-157.0\",\"\",\"\",\"2-4\",\"4543\",\"38\",\"0\",\"Testing\",\"Stims/Figures/84-J-0-2.bmp\",\"ta:pa:ta\",\"Down\",\"40\",\"1\",\"9\",\"7\",\"P\",\"C\",\"9\"
\"\",\"\",\"approach-retreat\",\"158\",\"6048080\",\"0.0-158.0\",\"\",\"\",\"2-4\",\"11675\",\"38\",\"0\",\"Testing\",\"Stims/Figures/128-C-30-3.bmp\",\"namala\",\"Up\",\"40\",\"1\",\"10\",\"7\",\"S\",\"C\",\"10\"
\"\",\"\",\"approach-retreat\",\"159\",\"6073719\",\"0.0-159.0\",\"\",\"\",\"2-4\",\"24132\",\"38\",\"1\",\"Testing\",\"Stims/Figures/71-C-30-1.bmp\",\"ta:ka:ta\",\"Down\",\"38\",\"1\",\"11\",\"7\",\"P\",\"C\",\"11\"
\"\",\"\",\"approach-retreat\",\"160\",\"6129690\",\"0.0-160.0\",\"\",\"\",\"2-4\",\"54464\",\"40\",\"0\",\"Testing\",\"Stims/Figures/118-C-20-2.bmp\",\"pa:pa:ka\",\"Down\",\"38\",\"1\",\"12\",\"7\",\"P\",\"C\",\"12\"
\"\",\"\",\"approach-retreat\",\"161\",\"6144041\",\"0.0-161.0\",\"\",\"\",\"2-4\",\"12840\",\"40\",\"1\",\"Testing\",\"Stims/Figures/85-J-0-2.bmp\",\"ta:pata\",\"Down\",\"40\",\"1\",\"13\",\"7\",\"P\",\"C\",\"13\"
\"\",\"\",\"approach-retreat\",\"162\",\"6149310\",\"0.0-162.0\",\"\",\"\",\"2-4\",\"3741\",\"40\",\"0\",\"Testing\",\"Stims/Figures/100-J-10-3.bmp\",\"mala:la\",\"Up\",\"38\",\"1\",\"14\",\"7\",\"S\",\"C\",\"14\"
\"\",\"\",\"approach-retreat\",\"163\",\"6164176\",\"0.0-163.0\",\"\",\"\",\"2-4\",\"13359\",\"37\",\"0\",\"Testing\",\"Stims/Figures/57-C-30-1.bmp\",\"taka:ta\",\"Left\",\"39\",\"1\",\"15\",\"7\",\"P\",\"C\",\"15\"
\"\",\"\",\"approach-retreat\",\"164\",\"6174089\",\"0.0-164.0\",\"\",\"\",\"2-4\",\"8404\",\"40\",\"0\",\"Testing\",\"Stims/Figures/118-J-0-2.bmp\",\"pa:kata\",\"Up\",\"38\",\"1\",\"16\",\"7\",\"P\",\"C\",\"16\"
\"\",\"\",\"approach-retreat\",\"165\",\"6196470\",\"0.0-165.0\",\"\",\"\",\"2-4\",\"20867\",\"37\",\"1\",\"Testing\",\"Stims/Figures/19-C-20-4.bmp\",\"ma:ma:la\",\"Right\",\"37\",\"1\",\"17\",\"7\",\"S\",\"C\",\"17\"
\"\",\"\",\"approach-retreat\",\"166\",\"6213973\",\"0.0-166.0\",\"\",\"\",\"2-4\",\"15978\",\"37\",\"0\",\"Testing\",\"Stims/Figures/128-J-10-3.bmp\",\"na:ma:la\",\"Right\",\"39\",\"1\",\"18\",\"7\",\"S\",\"C\",\"18\"
\"\",\"\",\"approach-retreat\",\"167\",\"6224184\",\"0.0-167.0\",\"\",\"\",\"2-4\",\"8697\",\"38\",\"0\",\"Testing\",\"Stims/Figures/7-C-20-4.bmp\",\"mama:na\",\"Up\",\"40\",\"1\",\"19\",\"7\",\"S\",\"C\",\"19\"
\"\",\"\",\"approach-retreat\",\"168\",\"6246414\",\"0.0-168.0\",\"\",\"\",\"2-4\",\"20719\",\"40\",\"1\",\"Testing\",\"Stims/Figures/44-J-10-3.bmp\",\"ma:ma:na\",\"Down\",\"40\",\"1\",\"20\",\"7\",\"S\",\"C\",\"20\"
\"\",\"\",\"approach-retreat\",\"169\",\"6253400\",\"0.0-169.0\",\"\",\"\",\"2-4\",\"5476\",\"37\",\"1\",\"Testing\",\"Stims/Figures/84-C-20-2.bmp\",\"pa:pata\",\"Right\",\"37\",\"1\",\"21\",\"7\",\"P\",\"C\",\"21\"
\"\",\"\",\"approach-retreat\",\"170\",\"6265301\",\"0.0-170.0\",\"\",\"\",\"2-4\",\"10391\",\"37\",\"0\",\"Testing\",\"Stims/Figures/102-C-20-4.bmp\",\"nama:la\",\"Left\",\"39\",\"1\",\"22\",\"7\",\"S\",\"C\",\"22\"
\"\",\"\",\"approach-retreat\",\"171\",\"6271324\",\"0.0-171.0\",\"\",\"\",\"2-4\",\"4512\",\"37\",\"1\",\"Testing\",\"Stims/Figures/102-J-10-4.bmp\",\"na:mana\",\"Left\",\"37\",\"1\",\"23\",\"7\",\"S\",\"C\",\"23\"
\"\",\"\",\"approach-retreat\",\"172\",\"6278097\",\"0.0-172.0\",\"\",\"\",\"2-4\",\"5262\",\"37\",\"0\",\"Testing\",\"Stims/Figures/7-J-10-4.bmp\",\"na:lana\",\"Right\",\"39\",\"1\",\"24\",\"7\",\"S\",\"C\",\"24\"
\"\",\"\",\"approach-retreat\",\"173\",\"6304862\",\"0.0-173.0\",\"\",\"\",\"2-4\",\"25258\",\"40\",\"0\",\"Testing\",\"Stims/Figures/118-C-20-2.bmp\",\"pa:pa:ka\",\"Down\",\"38\",\"2\",\"1\",\"7\",\"P\",\"C\",\"25\"
\"\",\"\",\"approach-retreat\",\"174\",\"6323497\",\"0.0-174.0\",\"\",\"\",\"2-4\",\"17125\",\"40\",\"1\",\"Testing\",\"Stims/Figures/44-C-30-3.bmp\",\"mama:la\",\"Up\",\"40\",\"2\",\"2\",\"7\",\"S\",\"C\",\"26\"
\"\",\"\",\"approach-retreat\",\"175\",\"6329084\",\"0.0-175.0\",\"\",\"\",\"2-4\",\"4077\",\"40\",\"0\",\"Testing\",\"Stims/Figures/85-C-20-2.bmp\",\"ta:ka:ka\",\"Down\",\"38\",\"2\",\"3\",\"7\",\"P\",\"C\",\"27\"
\"\",\"\",\"approach-retreat\",\"176\",\"6347909\",\"0.0-176.0\",\"\",\"\",\"2-4\",\"17312\",\"37\",\"0\",\"Testing\",\"Stims/Figures/100-C-30-3.bmp\",\"na:la:la\",\"Left\",\"39\",\"2\",\"4\",\"7\",\"S\",\"C\",\"28\"
\"\",\"\",\"approach-retreat\",\"177\",\"6363800\",\"0.0-177.0\",\"\",\"\",\"2-4\",\"14377\",\"40\",\"1\",\"Testing\",\"Stims/Figures/19-C-20-4.bmp\",\"ma:ma:la\",\"Up\",\"40\",\"2\",\"5\",\"7\",\"S\",\"C\",\"29\"
\"\",\"\",\"approach-retreat\",\"178\",\"6411632\",\"0.0-178.0\",\"\",\"\",\"2-4\",\"46322\",\"38\",\"0\",\"Testing\",\"Stims/Figures/7-C-20-4.bmp\",\"mama:na\",\"Up\",\"40\",\"2\",\"6\",\"7\",\"S\",\"C\",\"30\"
\"\",\"\",\"approach-retreat\",\"179\",\"6431488\",\"0.0-179.0\",\"\",\"\",\"2-4\",\"18346\",\"37\",\"0\",\"Testing\",\"Stims/Figures/85-J-0-2.bmp\",\"ta:pata\",\"Right\",\"39\",\"2\",\"7\",\"7\",\"P\",\"C\",\"31\"
\"\",\"\",\"approach-retreat\",\"180\",\"6436609\",\"0.0-180.0\",\"\",\"\",\"2-4\",\"3609\",\"37\",\"1\",\"Testing\",\"Stims/Figures/118-J-0-2.bmp\",\"pa:kata\",\"Left\",\"37\",\"2\",\"8\",\"7\",\"P\",\"C\",\"32\"
\"\",\"\",\"approach-retreat\",\"181\",\"6442997\",\"0.0-181.0\",\"\",\"\",\"2-4\",\"4877\",\"37\",\"0\",\"Testing\",\"Stims/Figures/44-J-10-3.bmp\",\"ma:ma:na\",\"Right\",\"39\",\"2\",\"9\",\"7\",\"S\",\"C\",\"33\"
\"\",\"\",\"approach-retreat\",\"182\",\"6462453\",\"0.0-182.0\",\"\",\"\",\"2-4\",\"17947\",\"37\",\"0\",\"Testing\",\"Stims/Figures/128-J-10-3.bmp\",\"na:ma:la\",\"Right\",\"39\",\"2\",\"10\",\"7\",\"S\",\"C\",\"34\"
\"\",\"\",\"approach-retreat\",\"183\",\"6468478\",\"0.0-183.0\",\"\",\"\",\"2-4\",\"4514\",\"37\",\"1\",\"Testing\",\"Stims/Figures/93-J-0-1.bmp\",\"tapa:ta\",\"Left\",\"37\",\"2\",\"11\",\"7\",\"P\",\"C\",\"35\"
\"\",\"\",\"approach-retreat\",\"184\",\"6493111\",\"0.0-184.0\",\"\",\"\",\"2-4\",\"23120\",\"40\",\"1\",\"Testing\",\"Stims/Figures/84-C-20-2.bmp\",\"pa:pata\",\"Up\",\"40\",\"2\",\"12\",\"7\",\"P\",\"C\",\"36\"
\"\",\"\",\"approach-retreat\",\"185\",\"6499305\",\"0.0-185.0\",\"\",\"\",\"2-4\",\"4685\",\"37\",\"1\",\"Testing\",\"Stims/Figures/102-C-20-4.bmp\",\"nama:la\",\"Right\",\"37\",\"2\",\"13\",\"7\",\"S\",\"C\",\"37\"
\"\",\"\",\"approach-retreat\",\"186\",\"6519347\",\"0.0-186.0\",\"\",\"\",\"2-4\",\"18530\",\"40\",\"0\",\"Testing\",\"Stims/Figures/57-C-30-1.bmp\",\"taka:ta\",\"Down\",\"38\",\"2\",\"14\",\"7\",\"P\",\"C\",\"38\"
\"\",\"\",\"approach-retreat\",\"187\",\"6524449\",\"0.0-187.0\",\"\",\"\",\"2-4\",\"3591\",\"37\",\"1\",\"Testing\",\"Stims/Figures/19-J-10-4.bmp\",\"nalana\",\"Left\",\"37\",\"2\",\"15\",\"7\",\"S\",\"C\",\"39\"
\"\",\"\",\"approach-retreat\",\"188\",\"6530991\",\"0.0-188.0\",\"\",\"\",\"2-4\",\"5033\",\"40\",\"1\",\"Testing\",\"Stims/Figures/71-C-30-1.bmp\",\"ta:ka:ta\",\"Up\",\"40\",\"2\",\"16\",\"7\",\"P\",\"C\",\"40\"
\"\",\"\",\"approach-retreat\",\"189\",\"6537245\",\"0.0-189.0\",\"\",\"\",\"2-4\",\"4744\",\"37\",\"1\",\"Testing\",\"Stims/Figures/84-J-0-2.bmp\",\"ta:pa:ta\",\"Left\",\"37\",\"2\",\"17\",\"7\",\"P\",\"C\",\"41\"
\"\",\"\",\"approach-retreat\",\"190\",\"6543216\",\"0.0-190.0\",\"\",\"\",\"2-4\",\"4460\",\"38\",\"0\",\"Testing\",\"Stims/Figures/102-J-10-4.bmp\",\"na:mana\",\"Down\",\"40\",\"2\",\"18\",\"7\",\"S\",\"C\",\"42\"
\"\",\"\",\"approach-retreat\",\"191\",\"6550259\",\"0.0-191.0\",\"\",\"\",\"2-4\",\"5533\",\"37\",\"1\",\"Testing\",\"Stims/Figures/93-C-30-1.bmp\",\"paka:ka\",\"Right\",\"37\",\"2\",\"19\",\"7\",\"P\",\"C\",\"43\"
\"\",\"\",\"approach-retreat\",\"192\",\"6555788\",\"0.0-192.0\",\"\",\"\",\"2-4\",\"4021\",\"40\",\"0\",\"Testing\",\"Stims/Figures/71-J-0-1.bmp\",\"takata\",\"Up\",\"38\",\"2\",\"20\",\"7\",\"P\",\"C\",\"44\"
\"\",\"\",\"approach-retreat\",\"193\",\"6570481\",\"0.0-193.0\",\"\",\"\",\"2-4\",\"13183\",\"37\",\"0\",\"Testing\",\"Stims/Figures/7-J-10-4.bmp\",\"na:lana\",\"Right\",\"39\",\"2\",\"21\",\"7\",\"S\",\"C\",\"45\"
\"\",\"\",\"approach-retreat\",\"194\",\"6577172\",\"0.0-194.0\",\"\",\"\",\"2-4\",\"5180\",\"37\",\"0\",\"Testing\",\"Stims/Figures/128-C-30-3.bmp\",\"namala\",\"Left\",\"39\",\"2\",\"22\",\"7\",\"S\",\"C\",\"46\"
\"\",\"\",\"approach-retreat\",\"195\",\"6597137\",\"0.0-195.0\",\"\",\"\",\"2-4\",\"18453\",\"40\",\"1\",\"Testing\",\"Stims/Figures/57-J-0-1.bmp\",\"ta:kaka\",\"Down\",\"40\",\"2\",\"23\",\"7\",\"P\",\"C\",\"47\"
\"\",\"\",\"approach-retreat\",\"196\",\"6608794\",\"0.0-196.0\",\"\",\"\",\"2-4\",\"10147\",\"40\",\"1\",\"Testing\",\"Stims/Figures/100-J-10-3.bmp\",\"mala:la\",\"Down\",\"40\",\"2\",\"24\",\"7\",\"S\",\"C\",\"48\"
\"\",\"\",\"approach-retreat\",\"197\",\"6618869\",\"0.0-197.0\",\"\",\"\",\"2-4\",\"8565\",\"37\",\"0\",\"Testing\",\"Stims/Figures/85-C-20-2.bmp\",\"ta:ka:ka\",\"Left\",\"39\",\"3\",\"1\",\"7\",\"P\",\"C\",\"49\"
\"\",\"\",\"approach-retreat\",\"198\",\"6630793\",\"0.0-198.0\",\"\",\"\",\"2-4\",\"10415\",\"40\",\"1\",\"Testing\",\"Stims/Figures/71-J-0-1.bmp\",\"takata\",\"Down\",\"40\",\"3\",\"2\",\"7\",\"P\",\"C\",\"50\"
\"\",\"\",\"approach-retreat\",\"199\",\"6641942\",\"0.0-199.0\",\"\",\"\",\"2-4\",\"9639\",\"37\",\"0\",\"Testing\",\"Stims/Figures/100-J-10-3.bmp\",\"mala:la\",\"Right\",\"39\",\"3\",\"3\",\"7\",\"S\",\"C\",\"51\"
\"\",\"\",\"approach-retreat\",\"200\",\"6648035\",\"0.0-200.0\",\"\",\"\",\"2-4\",\"4584\",\"37\",\"0\",\"Testing\",\"Stims/Figures/44-J-10-3.bmp\",\"ma:ma:na\",\"Right\",\"39\",\"3\",\"4\",\"7\",\"S\",\"C\",\"52\"
\"\",\"\",\"approach-retreat\",\"201\",\"6712309\",\"0.0-201.0\",\"\",\"\",\"2-4\",\"62764\",\"38\",\"1\",\"Testing\",\"Stims/Figures/7-C-20-4.bmp\",\"mama:na\",\"Down\",\"38\",\"3\",\"5\",\"7\",\"S\",\"C\",\"53\"
\"\",\"\",\"approach-retreat\",\"202\",\"6759675\",\"0.0-202.0\",\"\",\"\",\"2-4\",\"45855\",\"38\",\"1\",\"Testing\",\"Stims/Figures/85-J-0-2.bmp\",\"ta:pata\",\"Up\",\"38\",\"3\",\"6\",\"7\",\"P\",\"C\",\"54\"
\"\",\"\",\"approach-retreat\",\"203\",\"6765822\",\"0.0-203.0\",\"\",\"\",\"2-4\",\"4638\",\"40\",\"0\",\"Testing\",\"Stims/Figures/57-C-30-1.bmp\",\"taka:ta\",\"Down\",\"38\",\"3\",\"7\",\"7\",\"P\",\"C\",\"55\"
\"\",\"\",\"approach-retreat\",\"204\",\"6773607\",\"0.0-204.0\",\"\",\"\",\"2-4\",\"6274\",\"37\",\"1\",\"Testing\",\"Stims/Figures/19-J-10-4.bmp\",\"nalana\",\"Left\",\"37\",\"3\",\"8\",\"7\",\"S\",\"C\",\"56\"
\"\",\"\",\"approach-retreat\",\"205\",\"6794562\",\"0.0-205.0\",\"\",\"\",\"2-4\",\"19447\",\"38\",\"0\",\"Testing\",\"Stims/Figures/93-C-30-1.bmp\",\"paka:ka\",\"Up\",\"40\",\"3\",\"9\",\"7\",\"P\",\"C\",\"57\"
\"\",\"\",\"approach-retreat\",\"206\",\"6820293\",\"0.0-206.0\",\"\",\"\",\"2-4\",\"24220\",\"37\",\"0\",\"Testing\",\"Stims/Figures/102-C-20-4.bmp\",\"nama:la\",\"Left\",\"39\",\"3\",\"10\",\"7\",\"S\",\"C\",\"58\"
\"\",\"\",\"approach-retreat\",\"207\",\"6837754\",\"0.0-207.0\",\"\",\"\",\"2-4\",\"15951\",\"40\",\"0\",\"Testing\",\"Stims/Figures/118-C-20-2.bmp\",\"pa:pa:ka\",\"Down\",\"38\",\"3\",\"11\",\"7\",\"P\",\"C\",\"59\"
\"\",\"\",\"approach-retreat\",\"208\",\"6871487\",\"0.0-208.0\",\"\",\"\",\"2-4\",\"32222\",\"37\",\"1\",\"Testing\",\"Stims/Figures/57-J-0-1.bmp\",\"ta:kaka\",\"Left\",\"37\",\"3\",\"12\",\"7\",\"P\",\"C\",\"60\"
\"\",\"\",\"approach-retreat\",\"209\",\"6897533\",\"0.0-209.0\",\"\",\"\",\"2-4\",\"24536\",\"37\",\"1\",\"Testing\",\"Stims/Figures/128-C-30-3.bmp\",\"namala\",\"Right\",\"37\",\"3\",\"13\",\"7\",\"S\",\"C\",\"61\"
\"\",\"\",\"approach-retreat\",\"210\",\"6906745\",\"0.0-210.0\",\"\",\"\",\"2-4\",\"7703\",\"37\",\"1\",\"Testing\",\"Stims/Figures/84-C-20-2.bmp\",\"pa:pata\",\"Right\",\"37\",\"3\",\"14\",\"7\",\"P\",\"C\",\"62\"
\"\",\"\",\"approach-retreat\",\"211\",\"6928136\",\"0.0-211.0\",\"\",\"\",\"2-4\",\"19879\",\"40\",\"1\",\"Testing\",\"Stims/Figures/44-C-30-3.bmp\",\"mama:la\",\"Up\",\"40\",\"3\",\"15\",\"7\",\"S\",\"C\",\"63\"
\"\",\"\",\"approach-retreat\",\"212\",\"6950698\",\"0.0-212.0\",\"\",\"\",\"2-4\",\"21052\",\"40\",\"1\",\"Testing\",\"Stims/Figures/100-C-30-3.bmp\",\"na:la:la\",\"Up\",\"40\",\"3\",\"16\",\"7\",\"S\",\"C\",\"64\"
\"\",\"\",\"approach-retreat\",\"213\",\"6957935\",\"0.0-213.0\",\"\",\"\",\"2-4\",\"5726\",\"37\",\"1\",\"Testing\",\"Stims/Figures/118-J-0-2.bmp\",\"pa:kata\",\"Left\",\"37\",\"3\",\"17\",\"7\",\"P\",\"C\",\"65\"
\"\",\"\",\"approach-retreat\",\"214\",\"6963845\",\"0.0-214.0\",\"\",\"\",\"2-4\",\"4399\",\"37\",\"0\",\"Testing\",\"Stims/Figures/128-J-10-3.bmp\",\"na:ma:la\",\"Right\",\"39\",\"3\",\"18\",\"7\",\"S\",\"C\",\"66\"
\"\",\"\",\"approach-retreat\",\"215\",\"6969935\",\"0.0-215.0\",\"\",\"\",\"2-4\",\"4580\",\"40\",\"0\",\"Testing\",\"Stims/Figures/84-J-0-2.bmp\",\"ta:pa:ta\",\"Up\",\"38\",\"3\",\"19\",\"7\",\"P\",\"C\",\"67\"
\"\",\"\",\"approach-retreat\",\"216\",\"6979608\",\"0.0-216.0\",\"\",\"\",\"2-4\",\"8162\",\"38\",\"0\",\"Testing\",\"Stims/Figures/93-J-0-1.bmp\",\"tapa:ta\",\"Down\",\"40\",\"3\",\"20\",\"7\",\"P\",\"C\",\"68\"
\"\",\"\",\"approach-retreat\",\"217\",\"6986047\",\"0.0-217.0\",\"\",\"\",\"2-4\",\"4929\",\"37\",\"1\",\"Testing\",\"Stims/Figures/19-C-20-4.bmp\",\"ma:ma:la\",\"Right\",\"37\",\"3\",\"21\",\"7\",\"S\",\"C\",\"69\"
\"\",\"\",\"approach-retreat\",\"218\",\"6992474\",\"0.0-218.0\",\"\",\"\",\"2-4\",\"4915\",\"38\",\"1\",\"Testing\",\"Stims/Figures/102-J-10-4.bmp\",\"na:mana\",\"Up\",\"38\",\"3\",\"22\",\"7\",\"S\",\"C\",\"70\"
\"\",\"\",\"approach-retreat\",\"219\",\"7004355\",\"0.0-219.0\",\"\",\"\",\"2-4\",\"10368\",\"38\",\"0\",\"Testing\",\"Stims/Figures/7-J-10-4.bmp\",\"na:lana\",\"Down\",\"40\",\"3\",\"23\",\"7\",\"S\",\"C\",\"71\"
\"\",\"\",\"approach-retreat\",\"220\",\"7010416\",\"0.0-220.0\",\"\",\"\",\"2-4\",\"4551\",\"37\",\"0\",\"Testing\",\"Stims/Figures/71-C-30-1.bmp\",\"ta:ka:ta\",\"Left\",\"39\",\"3\",\"24\",\"7\",\"P\",\"C\",\"72\"
\"\",\"\",\"approach-retreat\",\"221\",\"7016006\",\"0.0-221.0\",\"\",\"\",\"2-4\",\"4080\",\"37\",\"0\",\"Testing\",\"Stims/Figures/71-J-0-1.bmp\",\"takata\",\"Right\",\"39\",\"4\",\"1\",\"7\",\"P\",\"C\",\"73\"
\"\",\"\",\"approach-retreat\",\"222\",\"7021694\",\"0.0-222.0\",\"\",\"\",\"2-4\",\"4182\",\"37\",\"1\",\"Testing\",\"Stims/Figures/85-J-0-2.bmp\",\"ta:pata\",\"Left\",\"37\",\"4\",\"2\",\"7\",\"P\",\"C\",\"74\"
\"\",\"\",\"approach-retreat\",\"223\",\"7027548\",\"0.0-223.0\",\"\",\"\",\"2-4\",\"4343\",\"37\",\"0\",\"Testing\",\"Stims/Figures/71-C-30-1.bmp\",\"ta:ka:ta\",\"Left\",\"39\",\"4\",\"3\",\"7\",\"P\",\"C\",\"75\"
\"\",\"\",\"approach-retreat\",\"224\",\"7034194\",\"0.0-224.0\",\"\",\"\",\"2-4\",\"5135\",\"37\",\"1\",\"Testing\",\"Stims/Figures/128-J-10-3.bmp\",\"na:ma:la\",\"Left\",\"37\",\"4\",\"4\",\"7\",\"S\",\"C\",\"76\"
\"\",\"\",\"approach-retreat\",\"225\",\"7039222\",\"0.0-225.0\",\"\",\"\",\"2-4\",\"3519\",\"38\",\"1\",\"Testing\",\"Stims/Figures/93-C-30-1.bmp\",\"paka:ka\",\"Down\",\"38\",\"4\",\"5\",\"7\",\"P\",\"C\",\"77\"
\"\",\"\",\"approach-retreat\",\"226\",\"7044468\",\"0.0-226.0\",\"\",\"\",\"2-4\",\"3736\",\"38\",\"1\",\"Testing\",\"Stims/Figures/19-J-10-4.bmp\",\"nalana\",\"Up\",\"38\",\"4\",\"6\",\"7\",\"S\",\"C\",\"78\"
\"\",\"\",\"approach-retreat\",\"227\",\"7049783\",\"0.0-227.0\",\"\",\"\",\"2-4\",\"3804\",\"40\",\"1\",\"Testing\",\"Stims/Figures/7-C-20-4.bmp\",\"mama:na\",\"Up\",\"40\",\"4\",\"7\",\"7\",\"S\",\"C\",\"79\"
\"\",\"\",\"approach-retreat\",\"228\",\"7054972\",\"0.0-228.0\",\"\",\"\",\"2-4\",\"3680\",\"38\",\"0\",\"Testing\",\"Stims/Figures/57-C-30-1.bmp\",\"taka:ta\",\"Up\",\"40\",\"4\",\"8\",\"7\",\"P\",\"C\",\"80\"
\"\",\"\",\"approach-retreat\",\"229\",\"7060383\",\"0.0-229.0\",\"\",\"\",\"2-4\",\"3899\",\"40\",\"1\",\"Testing\",\"Stims/Figures/44-C-30-3.bmp\",\"mama:la\",\"Up\",\"40\",\"4\",\"9\",\"7\",\"S\",\"C\",\"81\"
\"\",\"\",\"approach-retreat\",\"230\",\"7100184\",\"0.0-230.0\",\"\",\"\",\"2-4\",\"38291\",\"37\",\"0\",\"Testing\",\"Stims/Figures/44-J-10-3.bmp\",\"ma:ma:na\",\"Right\",\"39\",\"4\",\"10\",\"7\",\"S\",\"C\",\"82\"
\"\",\"\",\"approach-retreat\",\"231\",\"7111422\",\"0.0-231.0\",\"\",\"\",\"2-4\",\"9726\",\"40\",\"1\",\"Testing\",\"Stims/Figures/102-J-10-4.bmp\",\"na:mana\",\"Down\",\"40\",\"4\",\"11\",\"7\",\"S\",\"C\",\"83\"
\"\",\"\",\"approach-retreat\",\"232\",\"7117178\",\"0.0-232.0\",\"\",\"\",\"2-4\",\"4244\",\"37\",\"0\",\"Testing\",\"Stims/Figures/84-J-0-2.bmp\",\"ta:pa:ta\",\"Right\",\"39\",\"4\",\"12\",\"7\",\"P\",\"C\",\"84\"
\"\",\"\",\"approach-retreat\",\"233\",\"7125917\",\"0.0-233.0\",\"\",\"\",\"2-4\",\"7227\",\"38\",\"0\",\"Testing\",\"Stims/Figures/85-C-20-2.bmp\",\"ta:ka:ka\",\"Up\",\"40\",\"4\",\"13\",\"7\",\"P\",\"C\",\"85\"
\"\",\"\",\"approach-retreat\",\"234\",\"7135346\",\"0.0-234.0\",\"\",\"\",\"2-4\",\"7918\",\"37\",\"1\",\"Testing\",\"Stims/Figures/102-C-20-4.bmp\",\"nama:la\",\"Right\",\"37\",\"4\",\"14\",\"7\",\"S\",\"C\",\"86\"
\"\",\"\",\"approach-retreat\",\"235\",\"7141022\",\"0.0-235.0\",\"\",\"\",\"2-4\",\"4163\",\"37\",\"0\",\"Testing\",\"Stims/Figures/93-J-0-1.bmp\",\"tapa:ta\",\"Right\",\"39\",\"4\",\"15\",\"7\",\"P\",\"C\",\"87\"
\"\",\"\",\"approach-retreat\",\"236\",\"7147217\",\"0.0-236.0\",\"\",\"\",\"2-4\",\"4684\",\"37\",\"0\",\"Testing\",\"Stims/Figures/128-C-30-3.bmp\",\"namala\",\"Left\",\"39\",\"4\",\"16\",\"7\",\"S\",\"C\",\"88\"
\"\",\"\",\"approach-retreat\",\"237\",\"7153346\",\"0.0-237.0\",\"\",\"\",\"2-4\",\"4618\",\"37\",\"1\",\"Testing\",\"Stims/Figures/118-J-0-2.bmp\",\"pa:kata\",\"Left\",\"37\",\"4\",\"17\",\"7\",\"P\",\"C\",\"89\"
\"\",\"\",\"approach-retreat\",\"238\",\"7158847\",\"0.0-238.0\",\"\",\"\",\"2-4\",\"3989\",\"40\",\"0\",\"Testing\",\"Stims/Figures/118-C-20-2.bmp\",\"pa:pa:ka\",\"Down\",\"38\",\"4\",\"18\",\"7\",\"P\",\"C\",\"90\"
\"\",\"\",\"approach-retreat\",\"239\",\"7167504\",\"0.0-239.0\",\"\",\"\",\"2-4\",\"7146\",\"40\",\"1\",\"Testing\",\"Stims/Figures/100-C-30-3.bmp\",\"na:la:la\",\"Up\",\"40\",\"4\",\"19\",\"7\",\"S\",\"C\",\"91\"
\"\",\"\",\"approach-retreat\",\"240\",\"7173052\",\"0.0-240.0\",\"\",\"\",\"2-4\",\"4039\",\"40\",\"0\",\"Testing\",\"Stims/Figures/19-C-20-4.bmp\",\"ma:ma:la\",\"Down\",\"38\",\"4\",\"20\",\"7\",\"S\",\"C\",\"92\"
\"\",\"\",\"approach-retreat\",\"241\",\"7178592\",\"0.0-241.0\",\"\",\"\",\"2-4\",\"4029\",\"38\",\"0\",\"Testing\",\"Stims/Figures/7-J-10-4.bmp\",\"na:lana\",\"Down\",\"40\",\"4\",\"21\",\"7\",\"S\",\"C\",\"93\"
\"\",\"\",\"approach-retreat\",\"242\",\"7184078\",\"0.0-242.0\",\"\",\"\",\"2-4\",\"3975\",\"37\",\"0\",\"Testing\",\"Stims/Figures/100-J-10-3.bmp\",\"mala:la\",\"Right\",\"39\",\"4\",\"22\",\"7\",\"S\",\"C\",\"94\"
\"\",\"\",\"approach-retreat\",\"243\",\"7189775\",\"0.0-243.0\",\"\",\"\",\"2-4\",\"4188\",\"37\",\"1\",\"Testing\",\"Stims/Figures/57-J-0-1.bmp\",\"ta:kaka\",\"Left\",\"37\",\"4\",\"23\",\"7\",\"P\",\"C\",\"95\"
\"\",\"\",\"approach-retreat\",\"244\",\"7196194\",\"0.0-244.0\",\"\",\"\",\"2-4\",\"4908\",\"38\",\"1\",\"Testing\",\"Stims/Figures/84-C-20-2.bmp\",\"pa:pata\",\"Down\",\"38\",\"4\",\"24\",\"7\",\"P\",\"C\",\"96\"
\"27824\",\"\",\"survey-text\",\"245\",\"7224029\",\"0.0-245.0\",\"\",\"{\"\"Q0\"\":\"\"PS170069\"\"}\",\"\",\"\",\"\",\"\",\"\",\"\",\"\",\"\",\"\",\"\",\"\",\"\",\"\",\"\",\"\"
