\"rt\",\"key_press\",\"trial_type\",\"trial_index\",\"time_elapsed\",\"internal_node_id\",\"view_history\",\"responses\",\"Id\",\"Rt\",\"ResKeyCode\",\"ResCorr\",\"TrialType2\",\"Image\",\"Label\",\"Location\",\"CorrectResponse\",\"Block\",\"BlockTrial\",\"Condition\",\"LabelType\",\"Subcondition\",\"trialNum\"
\"9049\",\"32\",\"text\",\"0\",\"9053\",\"0.0-0.0-0.0\",\"\",\"\",\"\",\"\",\"\",\"\",\"\",\"\",\"\",\"\",\"\",\"\",\"\",\"\",\"\",\"\",\"\"
\"77476\",\"\",\"instructions\",\"1\",\"86531\",\"0.0-1.0\",\"[{\"\"page_index\"\":0,\"\"viewing_time\"\":77475}]\",\"\",\"\",\"\",\"\",\"\",\"\",\"\",\"\",\"\",\"\",\"\",\"\",\"\",\"\",\"\",\"\"
\"18960\",\"\",\"survey-multi-choice\",\"2\",\"105531\",\"0.0-2.0\",\"\",\"{\"\"Q0\"\":\"\"Da\"\",\"\"Q1\"\":\"\"Da\"\",\"\"Q2\"\":\"\"Da\"\",\"\"Q3\"\":\"\"Da\"\",\"\"Q4\"\":\"\"Da\"\",\"\"Q5\"\":\"\"Da\"\"}\",\"\",\"\",\"\",\"\",\"\",\"\",\"\",\"\",\"\",\"\",\"\",\"\",\"\",\"\",\"\"
\"\",\"\",\"bio\",\"3\",\"111695\",\"0.0-3.0\",\"\",\"{\"\"age\"\":\"\"19\"\",\"\"gender\"\":\"\"f\"\",\"\"specify\"\":\"\"\"\"}\",\"\",\"\",\"\",\"\",\"\",\"\",\"\",\"\",\"\",\"\",\"\",\"\",\"\",\"\",\"\"
\"\",\"\",\"approach-retreat\",\"4\",\"119828\",\"0.0-4.0\",\"\",\"\",\"3-3\",\"6623\",\"38\",\"1\",\"Training\",\"Stims/Figures/57-C-30-1.bmp\",\"tapa:ka\",\"Down\",\"38\",\"1\",\"1\",\"5\",\"P\",\"C\",\"1\"
\"\",\"\",\"approach-retreat\",\"5\",\"126949\",\"0.0-5.0\",\"\",\"\",\"3-3\",\"5614\",\"39\",\"1\",\"Training\",\"Stims/Figures/44-J-10-3.bmp\",\"ma:la:na\",\"Right\",\"39\",\"1\",\"2\",\"5\",\"S\",\"C\",\"2\"
\"\",\"\",\"approach-retreat\",\"6\",\"133543\",\"0.0-6.0\",\"\",\"\",\"3-3\",\"5086\",\"38\",\"1\",\"Training\",\"Stims/Figures/7-J-10-4.bmp\",\"na:la:na\",\"Up\",\"38\",\"1\",\"3\",\"5\",\"S\",\"C\",\"3\"
\"\",\"\",\"approach-retreat\",\"7\",\"139905\",\"0.0-7.0\",\"\",\"\",\"3-3\",\"4855\",\"38\",\"0\",\"Training\",\"Stims/Figures/102-J-10-4.bmp\",\"na:lala\",\"Down\",\"40\",\"1\",\"4\",\"5\",\"S\",\"C\",\"4\"
\"\",\"\",\"approach-retreat\",\"8\",\"146988\",\"0.0-8.0\",\"\",\"\",\"3-3\",\"5574\",\"38\",\"1\",\"Training\",\"Stims/Figures/100-J-10-3.bmp\",\"ma:ma:la\",\"Up\",\"38\",\"1\",\"5\",\"5\",\"S\",\"C\",\"5\"
\"\",\"\",\"approach-retreat\",\"9\",\"154060\",\"0.0-9.0\",\"\",\"\",\"3-3\",\"5560\",\"37\",\"0\",\"Training\",\"Stims/Figures/118-J-0-2.bmp\",\"nama:la\",\"Right\",\"39\",\"1\",\"6\",\"5\",\"S\",\"C\",\"6\"
\"\",\"\",\"approach-retreat\",\"10\",\"160563\",\"0.0-10.0\",\"\",\"\",\"3-3\",\"4992\",\"38\",\"0\",\"Training\",\"Stims/Figures/100-C-30-3.bmp\",\"pakata\",\"Up\",\"40\",\"1\",\"7\",\"5\",\"P\",\"C\",\"7\"
\"\",\"\",\"approach-retreat\",\"11\",\"167942\",\"0.0-11.0\",\"\",\"\",\"3-3\",\"5868\",\"39\",\"1\",\"Training\",\"Stims/Figures/139-J-0-2.bmp\",\"na:la:la\",\"Right\",\"39\",\"1\",\"8\",\"5\",\"S\",\"C\",\"8\"
\"\",\"\",\"approach-retreat\",\"12\",\"176315\",\"0.0-12.0\",\"\",\"\",\"3-3\",\"6866\",\"38\",\"1\",\"Training\",\"Stims/Figures/102-C-20-4.bmp\",\"taka:ta\",\"Down\",\"38\",\"1\",\"9\",\"5\",\"P\",\"C\",\"9\"
\"\",\"\",\"approach-retreat\",\"13\",\"183506\",\"0.0-13.0\",\"\",\"\",\"3-3\",\"5683\",\"37\",\"0\",\"Training\",\"Stims/Figures/44-C-30-3.bmp\",\"taka:ka\",\"Left\",\"39\",\"1\",\"10\",\"5\",\"P\",\"C\",\"10\"
\"\",\"\",\"approach-retreat\",\"14\",\"190897\",\"0.0-14.0\",\"\",\"\",\"3-3\",\"5882\",\"37\",\"0\",\"Training\",\"Stims/Figures/7-C-20-4.bmp\",\"paka:ta\",\"Left\",\"39\",\"1\",\"11\",\"5\",\"P\",\"C\",\"11\"
\"\",\"\",\"approach-retreat\",\"15\",\"197082\",\"0.0-15.0\",\"\",\"\",\"3-3\",\"4677\",\"40\",\"0\",\"Training\",\"Stims/Figures/27-C-30-1.bmp\",\"pa:ka:ta\",\"Down\",\"38\",\"1\",\"12\",\"5\",\"P\",\"C\",\"12\"
\"\",\"\",\"approach-retreat\",\"16\",\"203913\",\"0.0-16.0\",\"\",\"\",\"3-3\",\"5320\",\"37\",\"1\",\"Training\",\"Stims/Figures/118-C-20-2.bmp\",\"papa:ta\",\"Right\",\"37\",\"1\",\"13\",\"5\",\"P\",\"C\",\"13\"
\"\",\"\",\"approach-retreat\",\"17\",\"212926\",\"0.0-17.0\",\"\",\"\",\"3-3\",\"7504\",\"37\",\"0\",\"Training\",\"Stims/Figures/139-C-20-2.bmp\",\"takata\",\"Left\",\"39\",\"1\",\"14\",\"5\",\"P\",\"C\",\"14\"
\"\",\"\",\"approach-retreat\",\"18\",\"220079\",\"0.0-18.0\",\"\",\"\",\"3-3\",\"5643\",\"38\",\"1\",\"Training\",\"Stims/Figures/57-J-0-1.bmp\",\"na:ma:la\",\"Up\",\"38\",\"1\",\"15\",\"5\",\"S\",\"C\",\"15\"
\"\",\"\",\"approach-retreat\",\"19\",\"227751\",\"0.0-19.0\",\"\",\"\",\"3-3\",\"6164\",\"37\",\"1\",\"Training\",\"Stims/Figures/27-J-0-1.bmp\",\"mama:la\",\"Left\",\"37\",\"1\",\"16\",\"5\",\"S\",\"C\",\"16\"
\"\",\"\",\"approach-retreat\",\"20\",\"235363\",\"0.0-20.0\",\"\",\"\",\"3-3\",\"6106\",\"38\",\"1\",\"Training\",\"Stims/Figures/57-J-0-1.bmp\",\"na:ma:la\",\"Up\",\"38\",\"2\",\"1\",\"5\",\"S\",\"C\",\"17\"
\"\",\"\",\"approach-retreat\",\"21\",\"243568\",\"0.0-21.0\",\"\",\"\",\"3-3\",\"6695\",\"38\",\"1\",\"Training\",\"Stims/Figures/57-C-30-1.bmp\",\"tapa:ka\",\"Down\",\"38\",\"2\",\"2\",\"5\",\"P\",\"C\",\"18\"
\"\",\"\",\"approach-retreat\",\"22\",\"249990\",\"0.0-22.0\",\"\",\"\",\"3-3\",\"4913\",\"37\",\"1\",\"Training\",\"Stims/Figures/27-C-30-1.bmp\",\"pa:ka:ta\",\"Right\",\"37\",\"2\",\"3\",\"5\",\"P\",\"C\",\"19\"
\"\",\"\",\"approach-retreat\",\"23\",\"256067\",\"0.0-23.0\",\"\",\"\",\"3-3\",\"4568\",\"38\",\"1\",\"Training\",\"Stims/Figures/7-C-20-4.bmp\",\"paka:ta\",\"Down\",\"38\",\"2\",\"4\",\"5\",\"P\",\"C\",\"20\"
\"\",\"\",\"approach-retreat\",\"24\",\"262151\",\"0.0-24.0\",\"\",\"\",\"3-3\",\"4574\",\"40\",\"1\",\"Training\",\"Stims/Figures/100-C-30-3.bmp\",\"pakata\",\"Up\",\"40\",\"2\",\"5\",\"5\",\"P\",\"C\",\"21\"
\"\",\"\",\"approach-retreat\",\"25\",\"268639\",\"0.0-25.0\",\"\",\"\",\"3-3\",\"4979\",\"39\",\"1\",\"Training\",\"Stims/Figures/100-J-10-3.bmp\",\"ma:ma:la\",\"Right\",\"39\",\"2\",\"6\",\"5\",\"S\",\"C\",\"22\"
\"\",\"\",\"approach-retreat\",\"26\",\"274960\",\"0.0-26.0\",\"\",\"\",\"3-3\",\"4810\",\"37\",\"1\",\"Training\",\"Stims/Figures/139-J-0-2.bmp\",\"na:la:la\",\"Left\",\"37\",\"2\",\"7\",\"5\",\"S\",\"C\",\"23\"
\"\",\"\",\"approach-retreat\",\"27\",\"280933\",\"0.0-27.0\",\"\",\"\",\"3-3\",\"4461\",\"37\",\"1\",\"Training\",\"Stims/Figures/7-J-10-4.bmp\",\"na:la:na\",\"Left\",\"37\",\"2\",\"8\",\"5\",\"S\",\"C\",\"24\"
\"\",\"\",\"approach-retreat\",\"28\",\"287991\",\"0.0-28.0\",\"\",\"\",\"3-3\",\"5549\",\"37\",\"1\",\"Training\",\"Stims/Figures/44-C-30-3.bmp\",\"taka:ka\",\"Right\",\"37\",\"2\",\"9\",\"5\",\"P\",\"C\",\"25\"
\"\",\"\",\"approach-retreat\",\"29\",\"293999\",\"0.0-29.0\",\"\",\"\",\"3-3\",\"4500\",\"40\",\"1\",\"Training\",\"Stims/Figures/118-C-20-2.bmp\",\"papa:ta\",\"Up\",\"40\",\"2\",\"10\",\"5\",\"P\",\"C\",\"26\"
\"\",\"\",\"approach-retreat\",\"30\",\"300561\",\"0.0-30.0\",\"\",\"\",\"3-3\",\"5054\",\"38\",\"1\",\"Training\",\"Stims/Figures/27-J-0-1.bmp\",\"mama:la\",\"Up\",\"38\",\"2\",\"11\",\"5\",\"S\",\"C\",\"27\"
\"\",\"\",\"approach-retreat\",\"31\",\"307892\",\"0.0-31.0\",\"\",\"\",\"3-3\",\"5823\",\"40\",\"1\",\"Training\",\"Stims/Figures/44-J-10-3.bmp\",\"ma:la:na\",\"Down\",\"40\",\"2\",\"12\",\"5\",\"S\",\"C\",\"28\"
\"\",\"\",\"approach-retreat\",\"32\",\"313833\",\"0.0-32.0\",\"\",\"\",\"3-3\",\"4430\",\"37\",\"1\",\"Training\",\"Stims/Figures/118-J-0-2.bmp\",\"nama:la\",\"Left\",\"37\",\"2\",\"13\",\"5\",\"S\",\"C\",\"29\"
\"\",\"\",\"approach-retreat\",\"33\",\"319759\",\"0.0-33.0\",\"\",\"\",\"3-3\",\"4417\",\"40\",\"1\",\"Training\",\"Stims/Figures/102-J-10-4.bmp\",\"na:lala\",\"Down\",\"40\",\"2\",\"14\",\"5\",\"S\",\"C\",\"30\"
\"\",\"\",\"approach-retreat\",\"34\",\"325767\",\"0.0-34.0\",\"\",\"\",\"3-3\",\"4499\",\"37\",\"1\",\"Training\",\"Stims/Figures/139-C-20-2.bmp\",\"takata\",\"Right\",\"37\",\"2\",\"15\",\"5\",\"P\",\"C\",\"31\"
\"\",\"\",\"approach-retreat\",\"35\",\"331536\",\"0.0-35.0\",\"\",\"\",\"3-3\",\"4259\",\"39\",\"1\",\"Training\",\"Stims/Figures/102-C-20-4.bmp\",\"taka:ta\",\"Left\",\"39\",\"2\",\"16\",\"5\",\"P\",\"C\",\"32\"
\"\",\"\",\"approach-retreat\",\"36\",\"337466\",\"0.0-36.0\",\"\",\"\",\"3-3\",\"4421\",\"37\",\"1\",\"Training\",\"Stims/Figures/44-J-10-3.bmp\",\"ma:la:na\",\"Left\",\"37\",\"3\",\"1\",\"5\",\"S\",\"C\",\"33\"
\"\",\"\",\"approach-retreat\",\"37\",\"343181\",\"0.0-37.0\",\"\",\"\",\"3-3\",\"4205\",\"37\",\"1\",\"Training\",\"Stims/Figures/100-C-30-3.bmp\",\"pakata\",\"Right\",\"37\",\"3\",\"2\",\"5\",\"P\",\"C\",\"34\"
\"\",\"\",\"approach-retreat\",\"38\",\"348834\",\"0.0-38.0\",\"\",\"\",\"3-3\",\"4142\",\"39\",\"1\",\"Training\",\"Stims/Figures/118-C-20-2.bmp\",\"papa:ta\",\"Left\",\"39\",\"3\",\"3\",\"5\",\"P\",\"C\",\"35\"
\"\",\"\",\"approach-retreat\",\"39\",\"354586\",\"0.0-39.0\",\"\",\"\",\"3-3\",\"4246\",\"40\",\"1\",\"Training\",\"Stims/Figures/102-C-20-4.bmp\",\"taka:ta\",\"Up\",\"40\",\"3\",\"4\",\"5\",\"P\",\"C\",\"36\"
\"\",\"\",\"approach-retreat\",\"40\",\"360613\",\"0.0-40.0\",\"\",\"\",\"3-3\",\"4522\",\"38\",\"1\",\"Training\",\"Stims/Figures/44-C-30-3.bmp\",\"taka:ka\",\"Down\",\"38\",\"3\",\"5\",\"5\",\"P\",\"C\",\"37\"
\"\",\"\",\"approach-retreat\",\"41\",\"366391\",\"0.0-41.0\",\"\",\"\",\"3-3\",\"4269\",\"37\",\"0\",\"Training\",\"Stims/Figures/7-J-10-4.bmp\",\"na:la:na\",\"Right\",\"39\",\"3\",\"6\",\"5\",\"S\",\"C\",\"38\"
\"\",\"\",\"approach-retreat\",\"42\",\"372536\",\"0.0-42.0\",\"\",\"\",\"3-3\",\"4635\",\"37\",\"1\",\"Training\",\"Stims/Figures/118-J-0-2.bmp\",\"nama:la\",\"Left\",\"37\",\"3\",\"7\",\"5\",\"S\",\"C\",\"39\"
\"\",\"\",\"approach-retreat\",\"43\",\"378644\",\"0.0-43.0\",\"\",\"\",\"3-3\",\"4598\",\"39\",\"1\",\"Training\",\"Stims/Figures/100-J-10-3.bmp\",\"ma:ma:la\",\"Right\",\"39\",\"3\",\"8\",\"5\",\"S\",\"C\",\"40\"
\"\",\"\",\"approach-retreat\",\"44\",\"384432\",\"0.0-44.0\",\"\",\"\",\"3-3\",\"4280\",\"37\",\"1\",\"Training\",\"Stims/Figures/7-C-20-4.bmp\",\"paka:ta\",\"Right\",\"37\",\"3\",\"9\",\"5\",\"P\",\"C\",\"41\"
\"\",\"\",\"approach-retreat\",\"45\",\"390562\",\"0.0-45.0\",\"\",\"\",\"3-3\",\"4620\",\"40\",\"1\",\"Training\",\"Stims/Figures/27-J-0-1.bmp\",\"mama:la\",\"Down\",\"40\",\"3\",\"10\",\"5\",\"S\",\"C\",\"42\"
\"\",\"\",\"approach-retreat\",\"46\",\"396342\",\"0.0-46.0\",\"\",\"\",\"3-3\",\"4272\",\"38\",\"1\",\"Training\",\"Stims/Figures/139-C-20-2.bmp\",\"takata\",\"Down\",\"38\",\"3\",\"11\",\"5\",\"P\",\"C\",\"43\"
\"\",\"\",\"approach-retreat\",\"47\",\"402395\",\"0.0-47.0\",\"\",\"\",\"3-3\",\"4548\",\"38\",\"0\",\"Training\",\"Stims/Figures/102-J-10-4.bmp\",\"na:lala\",\"Down\",\"40\",\"3\",\"12\",\"5\",\"S\",\"C\",\"44\"
\"\",\"\",\"approach-retreat\",\"48\",\"408464\",\"0.0-48.0\",\"\",\"\",\"3-3\",\"4563\",\"40\",\"0\",\"Training\",\"Stims/Figures/57-J-0-1.bmp\",\"na:ma:la\",\"Up\",\"38\",\"3\",\"13\",\"5\",\"S\",\"C\",\"45\"
\"\",\"\",\"approach-retreat\",\"49\",\"415028\",\"0.0-49.0\",\"\",\"\",\"3-3\",\"5056\",\"40\",\"1\",\"Training\",\"Stims/Figures/27-C-30-1.bmp\",\"pa:ka:ta\",\"Up\",\"40\",\"3\",\"14\",\"5\",\"P\",\"C\",\"46\"
\"\",\"\",\"approach-retreat\",\"50\",\"421519\",\"0.0-50.0\",\"\",\"\",\"3-3\",\"4984\",\"37\",\"1\",\"Training\",\"Stims/Figures/139-J-0-2.bmp\",\"na:la:la\",\"Left\",\"37\",\"3\",\"15\",\"5\",\"S\",\"C\",\"47\"
\"\",\"\",\"approach-retreat\",\"51\",\"427294\",\"0.0-51.0\",\"\",\"\",\"3-3\",\"4264\",\"40\",\"1\",\"Training\",\"Stims/Figures/57-C-30-1.bmp\",\"tapa:ka\",\"Up\",\"40\",\"3\",\"16\",\"5\",\"P\",\"C\",\"48\"
\"\",\"\",\"approach-retreat\",\"52\",\"433786\",\"0.0-52.0\",\"\",\"\",\"3-3\",\"4983\",\"38\",\"1\",\"Training\",\"Stims/Figures/139-C-20-2.bmp\",\"takata\",\"Down\",\"38\",\"4\",\"1\",\"5\",\"P\",\"C\",\"49\"
\"\",\"\",\"approach-retreat\",\"53\",\"440169\",\"0.0-53.0\",\"\",\"\",\"3-3\",\"4867\",\"37\",\"0\",\"Training\",\"Stims/Figures/102-C-20-4.bmp\",\"taka:ta\",\"Left\",\"39\",\"4\",\"2\",\"5\",\"P\",\"C\",\"50\"
\"\",\"\",\"approach-retreat\",\"54\",\"446689\",\"0.0-54.0\",\"\",\"\",\"3-3\",\"5009\",\"38\",\"1\",\"Training\",\"Stims/Figures/139-J-0-2.bmp\",\"na:la:la\",\"Up\",\"38\",\"4\",\"3\",\"5\",\"S\",\"C\",\"51\"
\"\",\"\",\"approach-retreat\",\"55\",\"452212\",\"0.0-55.0\",\"\",\"\",\"3-3\",\"4013\",\"39\",\"1\",\"Training\",\"Stims/Figures/27-C-30-1.bmp\",\"pa:ka:ta\",\"Left\",\"39\",\"4\",\"4\",\"5\",\"P\",\"C\",\"52\"
\"\",\"\",\"approach-retreat\",\"56\",\"457867\",\"0.0-56.0\",\"\",\"\",\"3-3\",\"4145\",\"39\",\"1\",\"Training\",\"Stims/Figures/57-J-0-1.bmp\",\"na:ma:la\",\"Right\",\"39\",\"4\",\"5\",\"5\",\"S\",\"C\",\"53\"
\"\",\"\",\"approach-retreat\",\"57\",\"464231\",\"0.0-57.0\",\"\",\"\",\"3-3\",\"4856\",\"38\",\"1\",\"Training\",\"Stims/Figures/118-C-20-2.bmp\",\"papa:ta\",\"Down\",\"38\",\"4\",\"6\",\"5\",\"P\",\"C\",\"54\"
\"\",\"\",\"approach-retreat\",\"58\",\"469806\",\"0.0-58.0\",\"\",\"\",\"3-3\",\"4060\",\"39\",\"1\",\"Training\",\"Stims/Figures/118-J-0-2.bmp\",\"nama:la\",\"Right\",\"39\",\"4\",\"7\",\"5\",\"S\",\"C\",\"55\"
\"\",\"\",\"approach-retreat\",\"59\",\"475305\",\"0.0-59.0\",\"\",\"\",\"3-3\",\"3993\",\"37\",\"1\",\"Training\",\"Stims/Figures/100-J-10-3.bmp\",\"ma:ma:la\",\"Left\",\"37\",\"4\",\"8\",\"5\",\"S\",\"C\",\"56\"
\"\",\"\",\"approach-retreat\",\"60\",\"481504\",\"0.0-60.0\",\"\",\"\",\"3-3\",\"4690\",\"40\",\"0\",\"Training\",\"Stims/Figures/7-C-20-4.bmp\",\"paka:ta\",\"Down\",\"38\",\"4\",\"9\",\"5\",\"P\",\"C\",\"57\"
\"\",\"\",\"approach-retreat\",\"61\",\"488173\",\"0.0-61.0\",\"\",\"\",\"3-3\",\"5160\",\"37\",\"0\",\"Training\",\"Stims/Figures/7-J-10-4.bmp\",\"na:la:na\",\"Right\",\"39\",\"4\",\"10\",\"5\",\"S\",\"C\",\"58\"
\"\",\"\",\"approach-retreat\",\"62\",\"494560\",\"0.0-62.0\",\"\",\"\",\"3-3\",\"4878\",\"39\",\"1\",\"Training\",\"Stims/Figures/102-J-10-4.bmp\",\"na:lala\",\"Right\",\"39\",\"4\",\"11\",\"5\",\"S\",\"C\",\"59\"
\"\",\"\",\"approach-retreat\",\"63\",\"499945\",\"0.0-63.0\",\"\",\"\",\"3-3\",\"3874\",\"38\",\"0\",\"Training\",\"Stims/Figures/44-C-30-3.bmp\",\"taka:ka\",\"Up\",\"40\",\"4\",\"12\",\"5\",\"P\",\"C\",\"60\"
\"\",\"\",\"approach-retreat\",\"64\",\"507476\",\"0.0-64.0\",\"\",\"\",\"3-3\",\"6024\",\"40\",\"1\",\"Training\",\"Stims/Figures/57-C-30-1.bmp\",\"tapa:ka\",\"Up\",\"40\",\"4\",\"13\",\"5\",\"P\",\"C\",\"61\"
\"\",\"\",\"approach-retreat\",\"65\",\"513163\",\"0.0-65.0\",\"\",\"\",\"3-3\",\"4178\",\"40\",\"1\",\"Training\",\"Stims/Figures/100-C-30-3.bmp\",\"pakata\",\"Up\",\"40\",\"4\",\"14\",\"5\",\"P\",\"C\",\"62\"
\"\",\"\",\"approach-retreat\",\"66\",\"518723\",\"0.0-66.0\",\"\",\"\",\"3-3\",\"4049\",\"40\",\"1\",\"Training\",\"Stims/Figures/44-J-10-3.bmp\",\"ma:la:na\",\"Down\",\"40\",\"4\",\"15\",\"5\",\"S\",\"C\",\"63\"
\"\",\"\",\"approach-retreat\",\"67\",\"524107\",\"0.0-67.0\",\"\",\"\",\"3-3\",\"3873\",\"37\",\"1\",\"Training\",\"Stims/Figures/27-J-0-1.bmp\",\"mama:la\",\"Left\",\"37\",\"4\",\"16\",\"5\",\"S\",\"C\",\"64\"
\"\",\"\",\"approach-retreat\",\"68\",\"529513\",\"0.0-68.0\",\"\",\"\",\"3-3\",\"3896\",\"39\",\"1\",\"Training\",\"Stims/Figures/102-J-10-4.bmp\",\"na:lala\",\"Right\",\"39\",\"5\",\"1\",\"5\",\"S\",\"C\",\"65\"
\"\",\"\",\"approach-retreat\",\"69\",\"534860\",\"0.0-69.0\",\"\",\"\",\"3-3\",\"3841\",\"38\",\"1\",\"Training\",\"Stims/Figures/57-J-0-1.bmp\",\"na:ma:la\",\"Up\",\"38\",\"5\",\"2\",\"5\",\"S\",\"C\",\"66\"
\"\",\"\",\"approach-retreat\",\"70\",\"540616\",\"0.0-70.0\",\"\",\"\",\"3-3\",\"4246\",\"40\",\"1\",\"Training\",\"Stims/Figures/102-C-20-4.bmp\",\"taka:ta\",\"Up\",\"40\",\"5\",\"3\",\"5\",\"P\",\"C\",\"67\"
\"\",\"\",\"approach-retreat\",\"71\",\"546205\",\"0.0-71.0\",\"\",\"\",\"3-3\",\"4079\",\"40\",\"1\",\"Training\",\"Stims/Figures/27-J-0-1.bmp\",\"mama:la\",\"Down\",\"40\",\"5\",\"4\",\"5\",\"S\",\"C\",\"68\"
\"\",\"\",\"approach-retreat\",\"72\",\"552137\",\"0.0-72.0\",\"\",\"\",\"3-3\",\"4423\",\"37\",\"1\",\"Training\",\"Stims/Figures/139-C-20-2.bmp\",\"takata\",\"Right\",\"37\",\"5\",\"5\",\"5\",\"P\",\"C\",\"69\"
\"\",\"\",\"approach-retreat\",\"73\",\"558217\",\"0.0-73.0\",\"\",\"\",\"3-3\",\"4569\",\"37\",\"1\",\"Training\",\"Stims/Figures/139-J-0-2.bmp\",\"na:la:la\",\"Left\",\"37\",\"5\",\"6\",\"5\",\"S\",\"C\",\"70\"
\"\",\"\",\"approach-retreat\",\"74\",\"564762\",\"0.0-74.0\",\"\",\"\",\"3-3\",\"5032\",\"37\",\"0\",\"Training\",\"Stims/Figures/7-J-10-4.bmp\",\"na:la:na\",\"Right\",\"39\",\"5\",\"7\",\"5\",\"S\",\"C\",\"71\"
\"\",\"\",\"approach-retreat\",\"75\",\"572192\",\"0.0-75.0\",\"\",\"\",\"3-3\",\"5918\",\"39\",\"1\",\"Training\",\"Stims/Figures/27-C-30-1.bmp\",\"pa:ka:ta\",\"Left\",\"39\",\"5\",\"8\",\"5\",\"P\",\"C\",\"72\"
\"\",\"\",\"approach-retreat\",\"76\",\"578339\",\"0.0-76.0\",\"\",\"\",\"3-3\",\"4637\",\"38\",\"0\",\"Training\",\"Stims/Figures/57-C-30-1.bmp\",\"tapa:ka\",\"Up\",\"40\",\"5\",\"9\",\"5\",\"P\",\"C\",\"73\"
\"\",\"\",\"approach-retreat\",\"77\",\"586573\",\"0.0-77.0\",\"\",\"\",\"3-3\",\"6726\",\"38\",\"1\",\"Training\",\"Stims/Figures/118-C-20-2.bmp\",\"papa:ta\",\"Down\",\"38\",\"5\",\"10\",\"5\",\"P\",\"C\",\"74\"
\"\",\"\",\"approach-retreat\",\"78\",\"595186\",\"0.0-78.0\",\"\",\"\",\"3-3\",\"7107\",\"37\",\"1\",\"Training\",\"Stims/Figures/44-J-10-3.bmp\",\"ma:la:na\",\"Left\",\"37\",\"5\",\"11\",\"5\",\"S\",\"C\",\"75\"
\"\",\"\",\"approach-retreat\",\"79\",\"600635\",\"0.0-79.0\",\"\",\"\",\"3-3\",\"3937\",\"39\",\"1\",\"Training\",\"Stims/Figures/100-J-10-3.bmp\",\"ma:ma:la\",\"Right\",\"39\",\"5\",\"12\",\"5\",\"S\",\"C\",\"76\"
\"\",\"\",\"approach-retreat\",\"80\",\"607196\",\"0.0-80.0\",\"\",\"\",\"3-3\",\"5047\",\"38\",\"1\",\"Training\",\"Stims/Figures/100-C-30-3.bmp\",\"pakata\",\"Down\",\"38\",\"5\",\"13\",\"5\",\"P\",\"C\",\"77\"
\"\",\"\",\"approach-retreat\",\"81\",\"612764\",\"0.0-81.0\",\"\",\"\",\"3-3\",\"4060\",\"39\",\"1\",\"Training\",\"Stims/Figures/7-C-20-4.bmp\",\"paka:ta\",\"Left\",\"39\",\"5\",\"14\",\"5\",\"P\",\"C\",\"78\"
\"\",\"\",\"approach-retreat\",\"82\",\"618238\",\"0.0-82.0\",\"\",\"\",\"3-3\",\"3962\",\"40\",\"1\",\"Training\",\"Stims/Figures/118-J-0-2.bmp\",\"nama:la\",\"Down\",\"40\",\"5\",\"15\",\"5\",\"S\",\"C\",\"79\"
\"\",\"\",\"approach-retreat\",\"83\",\"625254\",\"0.0-83.0\",\"\",\"\",\"3-3\",\"5503\",\"40\",\"1\",\"Training\",\"Stims/Figures/44-C-30-3.bmp\",\"taka:ka\",\"Up\",\"40\",\"5\",\"16\",\"5\",\"P\",\"C\",\"80\"
\"\",\"\",\"approach-retreat\",\"84\",\"631394\",\"0.0-84.0\",\"\",\"\",\"3-3\",\"4627\",\"37\",\"1\",\"Training\",\"Stims/Figures/44-C-30-3.bmp\",\"taka:ka\",\"Right\",\"37\",\"6\",\"1\",\"5\",\"P\",\"C\",\"81\"
\"\",\"\",\"approach-retreat\",\"85\",\"636984\",\"0.0-85.0\",\"\",\"\",\"3-3\",\"4077\",\"38\",\"1\",\"Training\",\"Stims/Figures/102-J-10-4.bmp\",\"na:lala\",\"Up\",\"38\",\"6\",\"2\",\"5\",\"S\",\"C\",\"82\"
\"\",\"\",\"approach-retreat\",\"86\",\"642695\",\"0.0-86.0\",\"\",\"\",\"3-3\",\"4202\",\"39\",\"0\",\"Training\",\"Stims/Figures/139-C-20-2.bmp\",\"takata\",\"Right\",\"37\",\"6\",\"3\",\"5\",\"P\",\"C\",\"83\"
\"\",\"\",\"approach-retreat\",\"87\",\"649630\",\"0.0-87.0\",\"\",\"\",\"3-3\",\"5427\",\"40\",\"1\",\"Training\",\"Stims/Figures/57-J-0-1.bmp\",\"na:ma:la\",\"Down\",\"40\",\"6\",\"4\",\"5\",\"S\",\"C\",\"84\"
\"\",\"\",\"approach-retreat\",\"88\",\"655145\",\"0.0-88.0\",\"\",\"\",\"3-3\",\"4008\",\"40\",\"1\",\"Training\",\"Stims/Figures/27-J-0-1.bmp\",\"mama:la\",\"Down\",\"40\",\"6\",\"5\",\"5\",\"S\",\"C\",\"85\"
\"\",\"\",\"approach-retreat\",\"89\",\"661522\",\"0.0-89.0\",\"\",\"\",\"3-3\",\"4868\",\"37\",\"1\",\"Training\",\"Stims/Figures/7-J-10-4.bmp\",\"na:la:na\",\"Left\",\"37\",\"6\",\"6\",\"5\",\"S\",\"C\",\"86\"
\"\",\"\",\"approach-retreat\",\"90\",\"667016\",\"0.0-90.0\",\"\",\"\",\"3-3\",\"3988\",\"40\",\"1\",\"Training\",\"Stims/Figures/139-J-0-2.bmp\",\"na:la:la\",\"Down\",\"40\",\"6\",\"7\",\"5\",\"S\",\"C\",\"87\"
\"\",\"\",\"approach-retreat\",\"91\",\"673066\",\"0.0-91.0\",\"\",\"\",\"3-3\",\"4540\",\"40\",\"1\",\"Training\",\"Stims/Figures/102-C-20-4.bmp\",\"taka:ta\",\"Up\",\"40\",\"6\",\"8\",\"5\",\"P\",\"C\",\"88\"
\"\",\"\",\"approach-retreat\",\"92\",\"678503\",\"0.0-92.0\",\"\",\"\",\"3-3\",\"3927\",\"40\",\"1\",\"Training\",\"Stims/Figures/118-C-20-2.bmp\",\"papa:ta\",\"Up\",\"40\",\"6\",\"9\",\"5\",\"P\",\"C\",\"89\"
\"\",\"\",\"approach-retreat\",\"93\",\"683986\",\"0.0-93.0\",\"\",\"\",\"3-3\",\"3973\",\"38\",\"1\",\"Training\",\"Stims/Figures/57-C-30-1.bmp\",\"tapa:ka\",\"Down\",\"38\",\"6\",\"10\",\"5\",\"P\",\"C\",\"90\"
\"\",\"\",\"approach-retreat\",\"94\",\"689446\",\"0.0-94.0\",\"\",\"\",\"3-3\",\"3950\",\"37\",\"1\",\"Training\",\"Stims/Figures/44-J-10-3.bmp\",\"ma:la:na\",\"Left\",\"37\",\"6\",\"11\",\"5\",\"S\",\"C\",\"91\"
\"\",\"\",\"approach-retreat\",\"95\",\"694863\",\"0.0-95.0\",\"\",\"\",\"3-3\",\"3908\",\"37\",\"1\",\"Training\",\"Stims/Figures/118-J-0-2.bmp\",\"nama:la\",\"Left\",\"37\",\"6\",\"12\",\"5\",\"S\",\"C\",\"92\"
\"\",\"\",\"approach-retreat\",\"96\",\"700820\",\"0.0-96.0\",\"\",\"\",\"3-3\",\"4446\",\"40\",\"1\",\"Training\",\"Stims/Figures/100-C-30-3.bmp\",\"pakata\",\"Up\",\"40\",\"6\",\"13\",\"5\",\"P\",\"C\",\"93\"
\"\",\"\",\"approach-retreat\",\"97\",\"708656\",\"0.0-97.0\",\"\",\"\",\"3-3\",\"6327\",\"37\",\"1\",\"Training\",\"Stims/Figures/100-J-10-3.bmp\",\"ma:ma:la\",\"Left\",\"37\",\"6\",\"14\",\"5\",\"S\",\"C\",\"94\"
\"\",\"\",\"approach-retreat\",\"98\",\"714402\",\"0.0-98.0\",\"\",\"\",\"3-3\",\"4239\",\"37\",\"1\",\"Training\",\"Stims/Figures/7-C-20-4.bmp\",\"paka:ta\",\"Right\",\"37\",\"6\",\"15\",\"5\",\"P\",\"C\",\"95\"
\"\",\"\",\"approach-retreat\",\"99\",\"720725\",\"0.0-99.0\",\"\",\"\",\"3-3\",\"4818\",\"37\",\"1\",\"Training\",\"Stims/Figures/27-C-30-1.bmp\",\"pa:ka:ta\",\"Right\",\"37\",\"6\",\"16\",\"5\",\"P\",\"C\",\"96\"
\"\",\"\",\"approach-retreat\",\"100\",\"726732\",\"0.0-100.0\",\"\",\"\",\"3-3\",\"4496\",\"38\",\"1\",\"Training\",\"Stims/Figures/7-C-20-4.bmp\",\"paka:ta\",\"Down\",\"38\",\"7\",\"1\",\"5\",\"P\",\"C\",\"97\"
\"\",\"\",\"approach-retreat\",\"101\",\"732265\",\"0.0-101.0\",\"\",\"\",\"3-3\",\"4023\",\"38\",\"1\",\"Training\",\"Stims/Figures/44-J-10-3.bmp\",\"ma:la:na\",\"Up\",\"38\",\"7\",\"2\",\"5\",\"S\",\"C\",\"98\"
\"\",\"\",\"approach-retreat\",\"102\",\"737781\",\"0.0-102.0\",\"\",\"\",\"3-3\",\"4004\",\"38\",\"1\",\"Training\",\"Stims/Figures/100-C-30-3.bmp\",\"pakata\",\"Down\",\"38\",\"7\",\"3\",\"5\",\"P\",\"C\",\"99\"
\"\",\"\",\"approach-retreat\",\"103\",\"743812\",\"0.0-103.0\",\"\",\"\",\"3-3\",\"4518\",\"38\",\"1\",\"Training\",\"Stims/Figures/27-C-30-1.bmp\",\"pa:ka:ta\",\"Down\",\"38\",\"7\",\"4\",\"5\",\"P\",\"C\",\"100\"
\"\",\"\",\"approach-retreat\",\"104\",\"749504\",\"0.0-104.0\",\"\",\"\",\"3-3\",\"4181\",\"39\",\"1\",\"Training\",\"Stims/Figures/139-J-0-2.bmp\",\"na:la:la\",\"Right\",\"39\",\"7\",\"5\",\"5\",\"S\",\"C\",\"101\"
\"\",\"\",\"approach-retreat\",\"105\",\"755161\",\"0.0-105.0\",\"\",\"\",\"3-3\",\"4148\",\"40\",\"1\",\"Training\",\"Stims/Figures/44-C-30-3.bmp\",\"taka:ka\",\"Up\",\"40\",\"7\",\"6\",\"5\",\"P\",\"C\",\"102\"
\"\",\"\",\"approach-retreat\",\"106\",\"760952\",\"0.0-106.0\",\"\",\"\",\"3-3\",\"4281\",\"39\",\"1\",\"Training\",\"Stims/Figures/118-C-20-2.bmp\",\"papa:ta\",\"Left\",\"39\",\"7\",\"7\",\"5\",\"P\",\"C\",\"103\"
\"\",\"\",\"approach-retreat\",\"107\",\"767367\",\"0.0-107.0\",\"\",\"\",\"3-3\",\"4903\",\"38\",\"1\",\"Training\",\"Stims/Figures/102-J-10-4.bmp\",\"na:lala\",\"Up\",\"38\",\"7\",\"8\",\"5\",\"S\",\"C\",\"104\"
\"\",\"\",\"approach-retreat\",\"108\",\"773456\",\"0.0-108.0\",\"\",\"\",\"3-3\",\"4582\",\"37\",\"1\",\"Training\",\"Stims/Figures/118-J-0-2.bmp\",\"nama:la\",\"Left\",\"37\",\"7\",\"9\",\"5\",\"S\",\"C\",\"105\"
\"\",\"\",\"approach-retreat\",\"109\",\"779699\",\"0.0-109.0\",\"\",\"\",\"3-3\",\"4735\",\"39\",\"1\",\"Training\",\"Stims/Figures/57-J-0-1.bmp\",\"na:ma:la\",\"Right\",\"39\",\"7\",\"10\",\"5\",\"S\",\"C\",\"106\"
\"\",\"\",\"approach-retreat\",\"110\",\"785753\",\"0.0-110.0\",\"\",\"\",\"3-3\",\"4544\",\"38\",\"0\",\"Training\",\"Stims/Figures/57-C-30-1.bmp\",\"tapa:ka\",\"Up\",\"40\",\"7\",\"11\",\"5\",\"P\",\"C\",\"107\"
\"\",\"\",\"approach-retreat\",\"111\",\"791252\",\"0.0-111.0\",\"\",\"\",\"3-3\",\"3985\",\"39\",\"0\",\"Training\",\"Stims/Figures/102-C-20-4.bmp\",\"taka:ta\",\"Right\",\"37\",\"7\",\"12\",\"5\",\"P\",\"C\",\"108\"
\"\",\"\",\"approach-retreat\",\"112\",\"797049\",\"0.0-112.0\",\"\",\"\",\"3-3\",\"4288\",\"39\",\"1\",\"Training\",\"Stims/Figures/139-C-20-2.bmp\",\"takata\",\"Left\",\"39\",\"7\",\"13\",\"5\",\"P\",\"C\",\"109\"
\"\",\"\",\"approach-retreat\",\"113\",\"803226\",\"0.0-113.0\",\"\",\"\",\"3-3\",\"4665\",\"39\",\"1\",\"Training\",\"Stims/Figures/100-J-10-3.bmp\",\"ma:ma:la\",\"Right\",\"39\",\"7\",\"14\",\"5\",\"S\",\"C\",\"110\"
\"\",\"\",\"approach-retreat\",\"114\",\"809598\",\"0.0-114.0\",\"\",\"\",\"3-3\",\"4862\",\"37\",\"1\",\"Training\",\"Stims/Figures/27-J-0-1.bmp\",\"mama:la\",\"Left\",\"37\",\"7\",\"15\",\"5\",\"S\",\"C\",\"111\"
\"\",\"\",\"approach-retreat\",\"115\",\"815820\",\"0.0-115.0\",\"\",\"\",\"3-3\",\"4709\",\"38\",\"0\",\"Training\",\"Stims/Figures/7-J-10-4.bmp\",\"na:la:na\",\"Down\",\"40\",\"7\",\"16\",\"5\",\"S\",\"C\",\"112\"
\"\",\"\",\"approach-retreat\",\"116\",\"821518\",\"0.0-116.0\",\"\",\"\",\"3-3\",\"4188\",\"40\",\"1\",\"Training\",\"Stims/Figures/139-J-0-2.bmp\",\"na:la:la\",\"Down\",\"40\",\"8\",\"1\",\"5\",\"S\",\"C\",\"113\"
\"\",\"\",\"approach-retreat\",\"117\",\"827300\",\"0.0-117.0\",\"\",\"\",\"3-3\",\"4272\",\"40\",\"1\",\"Training\",\"Stims/Figures/57-J-0-1.bmp\",\"na:ma:la\",\"Down\",\"40\",\"8\",\"2\",\"5\",\"S\",\"C\",\"114\"
\"\",\"\",\"approach-retreat\",\"118\",\"832746\",\"0.0-118.0\",\"\",\"\",\"3-3\",\"3938\",\"39\",\"1\",\"Training\",\"Stims/Figures/118-J-0-2.bmp\",\"nama:la\",\"Right\",\"39\",\"8\",\"3\",\"5\",\"S\",\"C\",\"115\"
\"\",\"\",\"approach-retreat\",\"119\",\"839232\",\"0.0-119.0\",\"\",\"\",\"3-3\",\"4980\",\"37\",\"1\",\"Training\",\"Stims/Figures/7-J-10-4.bmp\",\"na:la:na\",\"Left\",\"37\",\"8\",\"4\",\"5\",\"S\",\"C\",\"116\"
\"\",\"\",\"approach-retreat\",\"120\",\"846058\",\"0.0-120.0\",\"\",\"\",\"3-3\",\"5314\",\"38\",\"0\",\"Training\",\"Stims/Figures/44-C-30-3.bmp\",\"taka:ka\",\"Up\",\"40\",\"8\",\"5\",\"5\",\"P\",\"C\",\"117\"
\"\",\"\",\"approach-retreat\",\"121\",\"853121\",\"0.0-121.0\",\"\",\"\",\"3-3\",\"5553\",\"40\",\"1\",\"Training\",\"Stims/Figures/27-J-0-1.bmp\",\"mama:la\",\"Down\",\"40\",\"8\",\"6\",\"5\",\"S\",\"C\",\"118\"
\"\",\"\",\"approach-retreat\",\"122\",\"859732\",\"0.0-122.0\",\"\",\"\",\"3-3\",\"5100\",\"39\",\"0\",\"Training\",\"Stims/Figures/102-C-20-4.bmp\",\"taka:ta\",\"Right\",\"37\",\"8\",\"7\",\"5\",\"P\",\"C\",\"119\"
\"\",\"\",\"approach-retreat\",\"123\",\"865543\",\"0.0-123.0\",\"\",\"\",\"3-3\",\"4301\",\"40\",\"1\",\"Training\",\"Stims/Figures/100-J-10-3.bmp\",\"ma:ma:la\",\"Down\",\"40\",\"8\",\"8\",\"5\",\"S\",\"C\",\"120\"
\"\",\"\",\"approach-retreat\",\"124\",\"871191\",\"0.0-124.0\",\"\",\"\",\"3-3\",\"4112\",\"39\",\"0\",\"Training\",\"Stims/Figures/44-J-10-3.bmp\",\"ma:la:na\",\"Left\",\"37\",\"8\",\"9\",\"5\",\"S\",\"C\",\"121\"
\"\",\"\",\"approach-retreat\",\"125\",\"877921\",\"0.0-125.0\",\"\",\"\",\"3-3\",\"5218\",\"40\",\"1\",\"Training\",\"Stims/Figures/57-C-30-1.bmp\",\"tapa:ka\",\"Up\",\"40\",\"8\",\"10\",\"5\",\"P\",\"C\",\"122\"
\"\",\"\",\"approach-retreat\",\"126\",\"885062\",\"0.0-126.0\",\"\",\"\",\"3-3\",\"5621\",\"37\",\"1\",\"Training\",\"Stims/Figures/139-C-20-2.bmp\",\"takata\",\"Right\",\"37\",\"8\",\"11\",\"5\",\"P\",\"C\",\"123\"
\"\",\"\",\"approach-retreat\",\"127\",\"891838\",\"0.0-127.0\",\"\",\"\",\"3-3\",\"5265\",\"37\",\"1\",\"Training\",\"Stims/Figures/27-C-30-1.bmp\",\"pa:ka:ta\",\"Right\",\"37\",\"8\",\"12\",\"5\",\"P\",\"C\",\"124\"
\"\",\"\",\"approach-retreat\",\"128\",\"897619\",\"0.0-128.0\",\"\",\"\",\"3-3\",\"4275\",\"38\",\"0\",\"Training\",\"Stims/Figures/118-C-20-2.bmp\",\"papa:ta\",\"Up\",\"40\",\"8\",\"13\",\"5\",\"P\",\"C\",\"125\"
\"\",\"\",\"approach-retreat\",\"129\",\"904040\",\"0.0-129.0\",\"\",\"\",\"3-3\",\"4908\",\"37\",\"1\",\"Training\",\"Stims/Figures/102-J-10-4.bmp\",\"na:lala\",\"Left\",\"37\",\"8\",\"14\",\"5\",\"S\",\"C\",\"126\"
\"\",\"\",\"approach-retreat\",\"130\",\"909542\",\"0.0-130.0\",\"\",\"\",\"3-3\",\"3984\",\"40\",\"1\",\"Training\",\"Stims/Figures/100-C-30-3.bmp\",\"pakata\",\"Up\",\"40\",\"8\",\"15\",\"5\",\"P\",\"C\",\"127\"
\"\",\"\",\"approach-retreat\",\"131\",\"915429\",\"0.0-131.0\",\"\",\"\",\"3-3\",\"4363\",\"39\",\"1\",\"Training\",\"Stims/Figures/7-C-20-4.bmp\",\"paka:ta\",\"Left\",\"39\",\"8\",\"16\",\"5\",\"P\",\"C\",\"128\"
\"\",\"\",\"approach-retreat\",\"132\",\"922645\",\"0.0-132.0\",\"\",\"\",\"3-3\",\"5704\",\"39\",\"1\",\"Training\",\"Stims/Figures/118-J-0-2.bmp\",\"nama:la\",\"Right\",\"39\",\"9\",\"1\",\"5\",\"S\",\"C\",\"129\"
\"\",\"\",\"approach-retreat\",\"133\",\"928924\",\"0.0-133.0\",\"\",\"\",\"3-3\",\"4763\",\"37\",\"1\",\"Training\",\"Stims/Figures/139-C-20-2.bmp\",\"takata\",\"Right\",\"37\",\"9\",\"2\",\"5\",\"P\",\"C\",\"130\"
\"\",\"\",\"approach-retreat\",\"134\",\"935344\",\"0.0-134.0\",\"\",\"\",\"3-3\",\"4909\",\"38\",\"1\",\"Training\",\"Stims/Figures/57-C-30-1.bmp\",\"tapa:ka\",\"Down\",\"38\",\"9\",\"3\",\"5\",\"P\",\"C\",\"131\"
\"\",\"\",\"approach-retreat\",\"135\",\"941099\",\"0.0-135.0\",\"\",\"\",\"3-3\",\"4241\",\"40\",\"0\",\"Training\",\"Stims/Figures/27-J-0-1.bmp\",\"mama:la\",\"Up\",\"38\",\"9\",\"4\",\"5\",\"S\",\"C\",\"132\"
\"\",\"\",\"approach-retreat\",\"136\",\"947676\",\"0.0-136.0\",\"\",\"\",\"3-3\",\"5063\",\"37\",\"0\",\"Training\",\"Stims/Figures/102-J-10-4.bmp\",\"na:lala\",\"Right\",\"39\",\"9\",\"5\",\"5\",\"S\",\"C\",\"133\"
\"\",\"\",\"approach-retreat\",\"137\",\"954218\",\"0.0-137.0\",\"\",\"\",\"3-3\",\"5035\",\"37\",\"1\",\"Training\",\"Stims/Figures/44-J-10-3.bmp\",\"ma:la:na\",\"Left\",\"37\",\"9\",\"6\",\"5\",\"S\",\"C\",\"134\"
\"\",\"\",\"approach-retreat\",\"138\",\"960336\",\"0.0-138.0\",\"\",\"\",\"3-3\",\"4609\",\"37\",\"1\",\"Training\",\"Stims/Figures/139-J-0-2.bmp\",\"na:la:la\",\"Left\",\"37\",\"9\",\"7\",\"5\",\"S\",\"C\",\"135\"
\"\",\"\",\"approach-retreat\",\"139\",\"967694\",\"0.0-139.0\",\"\",\"\",\"3-3\",\"5849\",\"38\",\"1\",\"Training\",\"Stims/Figures/100-J-10-3.bmp\",\"ma:ma:la\",\"Up\",\"38\",\"9\",\"8\",\"5\",\"S\",\"C\",\"136\"
\"\",\"\",\"approach-retreat\",\"140\",\"973800\",\"0.0-140.0\",\"\",\"\",\"3-3\",\"4596\",\"38\",\"1\",\"Training\",\"Stims/Figures/44-C-30-3.bmp\",\"taka:ka\",\"Down\",\"38\",\"9\",\"9\",\"5\",\"P\",\"C\",\"137\"
\"\",\"\",\"approach-retreat\",\"141\",\"979424\",\"0.0-141.0\",\"\",\"\",\"3-3\",\"4114\",\"40\",\"1\",\"Training\",\"Stims/Figures/118-C-20-2.bmp\",\"papa:ta\",\"Up\",\"40\",\"9\",\"10\",\"5\",\"P\",\"C\",\"138\"
\"\",\"\",\"approach-retreat\",\"142\",\"986902\",\"0.0-142.0\",\"\",\"\",\"3-3\",\"5962\",\"40\",\"1\",\"Training\",\"Stims/Figures/7-J-10-4.bmp\",\"na:la:na\",\"Down\",\"40\",\"9\",\"11\",\"5\",\"S\",\"C\",\"139\"
\"\",\"\",\"approach-retreat\",\"143\",\"993255\",\"0.0-143.0\",\"\",\"\",\"3-3\",\"4832\",\"37\",\"1\",\"Training\",\"Stims/Figures/102-C-20-4.bmp\",\"taka:ta\",\"Right\",\"37\",\"9\",\"12\",\"5\",\"P\",\"C\",\"140\"
\"\",\"\",\"approach-retreat\",\"144\",\"999045\",\"0.0-144.0\",\"\",\"\",\"3-3\",\"4279\",\"38\",\"1\",\"Training\",\"Stims/Figures/27-C-30-1.bmp\",\"pa:ka:ta\",\"Down\",\"38\",\"9\",\"13\",\"5\",\"P\",\"C\",\"141\"
\"\",\"\",\"approach-retreat\",\"145\",\"1005343\",\"0.0-145.0\",\"\",\"\",\"3-3\",\"4785\",\"40\",\"1\",\"Training\",\"Stims/Figures/7-C-20-4.bmp\",\"paka:ta\",\"Up\",\"40\",\"9\",\"14\",\"5\",\"P\",\"C\",\"142\"
\"\",\"\",\"approach-retreat\",\"146\",\"1011094\",\"0.0-146.0\",\"\",\"\",\"3-3\",\"4245\",\"39\",\"1\",\"Training\",\"Stims/Figures/100-C-30-3.bmp\",\"pakata\",\"Left\",\"39\",\"9\",\"15\",\"5\",\"P\",\"C\",\"143\"
\"\",\"\",\"approach-retreat\",\"147\",\"1017146\",\"0.0-147.0\",\"\",\"\",\"3-3\",\"4542\",\"37\",\"1\",\"Training\",\"Stims/Figures/57-J-0-1.bmp\",\"na:ma:la\",\"Left\",\"37\",\"9\",\"16\",\"5\",\"S\",\"C\",\"144\"
\"36710\",\"\",\"instructions\",\"148\",\"1053856\",\"0.0-148.0\",\"[{\"\"page_index\"\":0,\"\"viewing_time\"\":36709}]\",\"\",\"\",\"\",\"\",\"\",\"\",\"\",\"\",\"\",\"\",\"\",\"\",\"\",\"\",\"\",\"\"
\"\",\"\",\"approach-retreat\",\"149\",\"1062672\",\"0.0-149.0\",\"\",\"\",\"3-3\",\"7310\",\"38\",\"1\",\"Testing\",\"Stims/Figures/7-J-10-4.bmp\",\"na:la:na\",\"Up\",\"38\",\"1\",\"1\",\"5\",\"S\",\"C\",\"1\"
\"\",\"\",\"approach-retreat\",\"150\",\"1068993\",\"0.0-150.0\",\"\",\"\",\"3-3\",\"4811\",\"37\",\"1\",\"Testing\",\"Stims/Figures/84-J-0-2.bmp\",\"nala:la\",\"Left\",\"37\",\"1\",\"2\",\"5\",\"S\",\"C\",\"2\"
\"\",\"\",\"approach-retreat\",\"151\",\"1074798\",\"0.0-151.0\",\"\",\"\",\"3-3\",\"4289\",\"39\",\"0\",\"Testing\",\"Stims/Figures/19-J-10-4.bmp\",\"mamala\",\"Left\",\"37\",\"1\",\"3\",\"5\",\"S\",\"C\",\"3\"
\"\",\"\",\"approach-retreat\",\"152\",\"1080489\",\"0.0-152.0\",\"\",\"\",\"3-3\",\"4187\",\"37\",\"1\",\"Testing\",\"Stims/Figures/44-J-10-3.bmp\",\"ma:la:na\",\"Left\",\"37\",\"1\",\"4\",\"5\",\"S\",\"C\",\"4\"
\"\",\"\",\"approach-retreat\",\"153\",\"1086275\",\"0.0-153.0\",\"\",\"\",\"3-3\",\"4278\",\"39\",\"1\",\"Testing\",\"Stims/Figures/84-C-20-2.bmp\",\"pa:pa:ka\",\"Left\",\"39\",\"1\",\"5\",\"5\",\"P\",\"C\",\"5\"
\"\",\"\",\"approach-retreat\",\"154\",\"1091918\",\"0.0-154.0\",\"\",\"\",\"3-3\",\"4135\",\"38\",\"1\",\"Testing\",\"Stims/Figures/71-C-30-1.bmp\",\"papata\",\"Down\",\"38\",\"1\",\"6\",\"5\",\"P\",\"C\",\"6\"
\"\",\"\",\"approach-retreat\",\"155\",\"1097509\",\"0.0-155.0\",\"\",\"\",\"3-3\",\"4085\",\"39\",\"1\",\"Testing\",\"Stims/Figures/118-J-0-2.bmp\",\"nama:la\",\"Right\",\"39\",\"1\",\"7\",\"5\",\"S\",\"C\",\"7\"
\"\",\"\",\"approach-retreat\",\"156\",\"1103545\",\"0.0-156.0\",\"\",\"\",\"3-3\",\"4529\",\"37\",\"1\",\"Testing\",\"Stims/Figures/57-C-30-1.bmp\",\"tapa:ka\",\"Right\",\"37\",\"1\",\"8\",\"5\",\"P\",\"C\",\"8\"
\"\",\"\",\"approach-retreat\",\"157\",\"1109573\",\"0.0-157.0\",\"\",\"\",\"3-3\",\"4521\",\"40\",\"0\",\"Testing\",\"Stims/Figures/7-C-20-4.bmp\",\"paka:ta\",\"Down\",\"38\",\"1\",\"9\",\"5\",\"P\",\"C\",\"9\"
\"\",\"\",\"approach-retreat\",\"158\",\"1115210\",\"0.0-158.0\",\"\",\"\",\"3-3\",\"4131\",\"39\",\"1\",\"Testing\",\"Stims/Figures/71-J-0-1.bmp\",\"malala\",\"Right\",\"39\",\"1\",\"10\",\"5\",\"S\",\"C\",\"10\"
\"\",\"\",\"approach-retreat\",\"159\",\"1121510\",\"0.0-159.0\",\"\",\"\",\"3-3\",\"4792\",\"37\",\"1\",\"Testing\",\"Stims/Figures/19-C-20-4.bmp\",\"tapata\",\"Right\",\"37\",\"1\",\"11\",\"5\",\"P\",\"C\",\"11\"
\"\",\"\",\"approach-retreat\",\"160\",\"1127791\",\"0.0-160.0\",\"\",\"\",\"3-3\",\"4775\",\"38\",\"0\",\"Testing\",\"Stims/Figures/44-C-30-3.bmp\",\"taka:ka\",\"Up\",\"40\",\"1\",\"12\",\"5\",\"P\",\"C\",\"12\"
\"\",\"\",\"approach-retreat\",\"161\",\"1133616\",\"0.0-161.0\",\"\",\"\",\"3-3\",\"4320\",\"39\",\"1\",\"Testing\",\"Stims/Figures/139-J-0-2.bmp\",\"na:la:la\",\"Right\",\"39\",\"1\",\"13\",\"5\",\"S\",\"C\",\"13\"
\"\",\"\",\"approach-retreat\",\"162\",\"1139287\",\"0.0-162.0\",\"\",\"\",\"3-3\",\"4166\",\"37\",\"1\",\"Testing\",\"Stims/Figures/139-C-20-2.bmp\",\"takata\",\"Right\",\"37\",\"1\",\"14\",\"5\",\"P\",\"C\",\"14\"
\"\",\"\",\"approach-retreat\",\"163\",\"1145454\",\"0.0-163.0\",\"\",\"\",\"3-3\",\"4660\",\"40\",\"1\",\"Testing\",\"Stims/Figures/27-J-0-1.bmp\",\"mama:la\",\"Down\",\"40\",\"1\",\"15\",\"5\",\"S\",\"C\",\"15\"
\"\",\"\",\"approach-retreat\",\"164\",\"1151673\",\"0.0-164.0\",\"\",\"\",\"3-3\",\"4712\",\"40\",\"0\",\"Testing\",\"Stims/Figures/128-J-10-3.bmp\",\"mama:na\",\"Up\",\"38\",\"1\",\"16\",\"5\",\"S\",\"C\",\"16\"
\"\",\"\",\"approach-retreat\",\"165\",\"1157713\",\"0.0-165.0\",\"\",\"\",\"3-3\",\"4531\",\"40\",\"1\",\"Testing\",\"Stims/Figures/118-C-20-2.bmp\",\"papa:ta\",\"Up\",\"40\",\"1\",\"17\",\"5\",\"P\",\"C\",\"17\"
\"\",\"\",\"approach-retreat\",\"166\",\"1163776\",\"0.0-166.0\",\"\",\"\",\"3-3\",\"4555\",\"37\",\"1\",\"Testing\",\"Stims/Figures/57-J-0-1.bmp\",\"na:ma:la\",\"Left\",\"37\",\"1\",\"18\",\"5\",\"S\",\"C\",\"18\"
\"\",\"\",\"approach-retreat\",\"167\",\"1169557\",\"0.0-167.0\",\"\",\"\",\"3-3\",\"4252\",\"38\",\"1\",\"Testing\",\"Stims/Figures/128-C-30-3.bmp\",\"papa:ka\",\"Down\",\"38\",\"1\",\"19\",\"5\",\"P\",\"C\",\"19\"
\"\",\"\",\"approach-retreat\",\"168\",\"1175715\",\"0.0-168.0\",\"\",\"\",\"3-3\",\"4651\",\"40\",\"1\",\"Testing\",\"Stims/Figures/27-C-30-1.bmp\",\"pa:ka:ta\",\"Up\",\"40\",\"1\",\"20\",\"5\",\"P\",\"C\",\"20\"
\"\",\"\",\"approach-retreat\",\"169\",\"1181885\",\"0.0-169.0\",\"\",\"\",\"3-3\",\"4663\",\"39\",\"1\",\"Testing\",\"Stims/Figures/102-C-20-4.bmp\",\"taka:ta\",\"Left\",\"39\",\"1\",\"21\",\"5\",\"P\",\"C\",\"21\"
\"\",\"\",\"approach-retreat\",\"170\",\"1188368\",\"0.0-170.0\",\"\",\"\",\"3-3\",\"4977\",\"40\",\"0\",\"Testing\",\"Stims/Figures/100-C-30-3.bmp\",\"pakata\",\"Down\",\"38\",\"1\",\"22\",\"5\",\"P\",\"C\",\"22\"
\"\",\"\",\"approach-retreat\",\"171\",\"1195387\",\"0.0-171.0\",\"\",\"\",\"3-3\",\"5515\",\"38\",\"1\",\"Testing\",\"Stims/Figures/100-J-10-3.bmp\",\"ma:ma:la\",\"Up\",\"38\",\"1\",\"23\",\"5\",\"S\",\"C\",\"23\"
\"\",\"\",\"approach-retreat\",\"172\",\"1201122\",\"0.0-172.0\",\"\",\"\",\"3-3\",\"4224\",\"38\",\"0\",\"Testing\",\"Stims/Figures/102-J-10-4.bmp\",\"na:lala\",\"Down\",\"40\",\"1\",\"24\",\"5\",\"S\",\"C\",\"24\"
\"\",\"\",\"approach-retreat\",\"173\",\"1206958\",\"0.0-173.0\",\"\",\"\",\"3-3\",\"4328\",\"37\",\"1\",\"Testing\",\"Stims/Figures/57-J-0-1.bmp\",\"na:ma:la\",\"Left\",\"37\",\"2\",\"1\",\"5\",\"S\",\"C\",\"25\"
\"\",\"\",\"approach-retreat\",\"174\",\"1212982\",\"0.0-174.0\",\"\",\"\",\"3-3\",\"4518\",\"37\",\"1\",\"Testing\",\"Stims/Figures/57-C-30-1.bmp\",\"tapa:ka\",\"Right\",\"37\",\"2\",\"2\",\"5\",\"P\",\"C\",\"26\"
\"\",\"\",\"approach-retreat\",\"175\",\"1219791\",\"0.0-175.0\",\"\",\"\",\"3-3\",\"5302\",\"38\",\"1\",\"Testing\",\"Stims/Figures/118-J-0-2.bmp\",\"nama:la\",\"Up\",\"38\",\"2\",\"3\",\"5\",\"S\",\"C\",\"27\"
\"\",\"\",\"approach-retreat\",\"176\",\"1225912\",\"0.0-176.0\",\"\",\"\",\"3-3\",\"4614\",\"40\",\"1\",\"Testing\",\"Stims/Figures/100-C-30-3.bmp\",\"pakata\",\"Up\",\"40\",\"2\",\"4\",\"5\",\"P\",\"C\",\"28\"
\"\",\"\",\"approach-retreat\",\"177\",\"1231577\",\"0.0-177.0\",\"\",\"\",\"3-3\",\"4159\",\"38\",\"0\",\"Testing\",\"Stims/Figures/84-C-20-2.bmp\",\"pa:pa:ka\",\"Up\",\"40\",\"2\",\"5\",\"5\",\"P\",\"C\",\"29\"
\"\",\"\",\"approach-retreat\",\"178\",\"1237439\",\"0.0-178.0\",\"\",\"\",\"3-3\",\"4357\",\"40\",\"1\",\"Testing\",\"Stims/Figures/44-J-10-3.bmp\",\"ma:la:na\",\"Down\",\"40\",\"2\",\"6\",\"5\",\"S\",\"C\",\"30\"
\"\",\"\",\"approach-retreat\",\"179\",\"1243216\",\"0.0-179.0\",\"\",\"\",\"3-3\",\"4268\",\"40\",\"1\",\"Testing\",\"Stims/Figures/139-C-20-2.bmp\",\"takata\",\"Up\",\"40\",\"2\",\"7\",\"5\",\"P\",\"C\",\"31\"
\"\",\"\",\"approach-retreat\",\"180\",\"1249493\",\"0.0-180.0\",\"\",\"\",\"3-3\",\"4769\",\"40\",\"1\",\"Testing\",\"Stims/Figures/84-J-0-2.bmp\",\"nala:la\",\"Down\",\"40\",\"2\",\"8\",\"5\",\"S\",\"C\",\"32\"
\"\",\"\",\"approach-retreat\",\"181\",\"1256865\",\"0.0-181.0\",\"\",\"\",\"3-3\",\"5866\",\"37\",\"1\",\"Testing\",\"Stims/Figures/128-C-30-3.bmp\",\"papa:ka\",\"Right\",\"37\",\"2\",\"9\",\"5\",\"P\",\"C\",\"33\"
\"\",\"\",\"approach-retreat\",\"182\",\"1262301\",\"0.0-182.0\",\"\",\"\",\"3-3\",\"3929\",\"37\",\"1\",\"Testing\",\"Stims/Figures/100-J-10-3.bmp\",\"ma:ma:la\",\"Left\",\"37\",\"2\",\"10\",\"5\",\"S\",\"C\",\"34\"
\"\",\"\",\"approach-retreat\",\"183\",\"1267687\",\"0.0-183.0\",\"\",\"\",\"3-3\",\"3879\",\"39\",\"1\",\"Testing\",\"Stims/Figures/7-J-10-4.bmp\",\"na:la:na\",\"Right\",\"39\",\"2\",\"11\",\"5\",\"S\",\"C\",\"35\"
\"\",\"\",\"approach-retreat\",\"184\",\"1273095\",\"0.0-184.0\",\"\",\"\",\"3-3\",\"3900\",\"40\",\"1\",\"Testing\",\"Stims/Figures/139-J-0-2.bmp\",\"na:la:la\",\"Down\",\"40\",\"2\",\"12\",\"5\",\"S\",\"C\",\"36\"
\"\",\"\",\"approach-retreat\",\"185\",\"1278584\",\"0.0-185.0\",\"\",\"\",\"3-3\",\"3980\",\"37\",\"1\",\"Testing\",\"Stims/Figures/71-J-0-1.bmp\",\"malala\",\"Left\",\"37\",\"2\",\"13\",\"5\",\"S\",\"C\",\"37\"
\"\",\"\",\"approach-retreat\",\"186\",\"1284265\",\"0.0-186.0\",\"\",\"\",\"3-3\",\"4175\",\"39\",\"1\",\"Testing\",\"Stims/Figures/7-C-20-4.bmp\",\"paka:ta\",\"Left\",\"39\",\"2\",\"14\",\"5\",\"P\",\"C\",\"38\"
\"\",\"\",\"approach-retreat\",\"187\",\"1290006\",\"0.0-187.0\",\"\",\"\",\"3-3\",\"4234\",\"38\",\"0\",\"Testing\",\"Stims/Figures/44-C-30-3.bmp\",\"taka:ka\",\"Up\",\"40\",\"2\",\"15\",\"5\",\"P\",\"C\",\"39\"
\"\",\"\",\"approach-retreat\",\"188\",\"1295902\",\"0.0-188.0\",\"\",\"\",\"3-3\",\"4387\",\"38\",\"1\",\"Testing\",\"Stims/Figures/118-C-20-2.bmp\",\"papa:ta\",\"Down\",\"38\",\"2\",\"16\",\"5\",\"P\",\"C\",\"40\"
\"\",\"\",\"approach-retreat\",\"189\",\"1302561\",\"0.0-189.0\",\"\",\"\",\"3-3\",\"5152\",\"37\",\"1\",\"Testing\",\"Stims/Figures/27-C-30-1.bmp\",\"pa:ka:ta\",\"Right\",\"37\",\"2\",\"17\",\"5\",\"P\",\"C\",\"41\"
\"\",\"\",\"approach-retreat\",\"190\",\"1308099\",\"0.0-190.0\",\"\",\"\",\"3-3\",\"4032\",\"37\",\"1\",\"Testing\",\"Stims/Figures/19-J-10-4.bmp\",\"mamala\",\"Left\",\"37\",\"2\",\"18\",\"5\",\"S\",\"C\",\"42\"
\"\",\"\",\"approach-retreat\",\"191\",\"1313462\",\"0.0-191.0\",\"\",\"\",\"3-3\",\"3857\",\"39\",\"1\",\"Testing\",\"Stims/Figures/102-J-10-4.bmp\",\"na:lala\",\"Right\",\"39\",\"2\",\"19\",\"5\",\"S\",\"C\",\"43\"
\"\",\"\",\"approach-retreat\",\"192\",\"1320025\",\"0.0-192.0\",\"\",\"\",\"3-3\",\"5059\",\"40\",\"1\",\"Testing\",\"Stims/Figures/128-J-10-3.bmp\",\"mama:na\",\"Down\",\"40\",\"2\",\"20\",\"5\",\"S\",\"C\",\"44\"
\"\",\"\",\"approach-retreat\",\"193\",\"1326123\",\"0.0-193.0\",\"\",\"\",\"3-3\",\"4589\",\"38\",\"1\",\"Testing\",\"Stims/Figures/102-C-20-4.bmp\",\"taka:ta\",\"Down\",\"38\",\"2\",\"21\",\"5\",\"P\",\"C\",\"45\"
\"\",\"\",\"approach-retreat\",\"194\",\"1331893\",\"0.0-194.0\",\"\",\"\",\"3-3\",\"4262\",\"40\",\"1\",\"Testing\",\"Stims/Figures/71-C-30-1.bmp\",\"papata\",\"Up\",\"40\",\"2\",\"22\",\"5\",\"P\",\"C\",\"46\"
\"\",\"\",\"approach-retreat\",\"195\",\"1338533\",\"0.0-195.0\",\"\",\"\",\"3-3\",\"5130\",\"39\",\"1\",\"Testing\",\"Stims/Figures/19-C-20-4.bmp\",\"tapata\",\"Left\",\"39\",\"2\",\"23\",\"5\",\"P\",\"C\",\"47\"
\"\",\"\",\"approach-retreat\",\"196\",\"1344033\",\"0.0-196.0\",\"\",\"\",\"3-3\",\"3993\",\"39\",\"1\",\"Testing\",\"Stims/Figures/27-J-0-1.bmp\",\"mama:la\",\"Right\",\"39\",\"2\",\"24\",\"5\",\"S\",\"C\",\"48\"
\"\",\"\",\"approach-retreat\",\"197\",\"1349711\",\"0.0-197.0\",\"\",\"\",\"3-3\",\"4171\",\"38\",\"1\",\"Testing\",\"Stims/Figures/118-J-0-2.bmp\",\"nama:la\",\"Up\",\"38\",\"3\",\"1\",\"5\",\"S\",\"C\",\"49\"
\"\",\"\",\"approach-retreat\",\"198\",\"1356081\",\"0.0-198.0\",\"\",\"\",\"3-3\",\"4863\",\"37\",\"1\",\"Testing\",\"Stims/Figures/102-J-10-4.bmp\",\"na:lala\",\"Left\",\"37\",\"3\",\"2\",\"5\",\"S\",\"C\",\"50\"
\"\",\"\",\"approach-retreat\",\"199\",\"1362750\",\"0.0-199.0\",\"\",\"\",\"3-3\",\"5160\",\"39\",\"1\",\"Testing\",\"Stims/Figures/44-C-30-3.bmp\",\"taka:ka\",\"Left\",\"39\",\"3\",\"3\",\"5\",\"P\",\"C\",\"51\"
\"\",\"\",\"approach-retreat\",\"200\",\"1369393\",\"0.0-200.0\",\"\",\"\",\"3-3\",\"5139\",\"37\",\"1\",\"Testing\",\"Stims/Figures/27-C-30-1.bmp\",\"pa:ka:ta\",\"Right\",\"37\",\"3\",\"4\",\"5\",\"P\",\"C\",\"52\"
\"\",\"\",\"approach-retreat\",\"201\",\"1375997\",\"0.0-201.0\",\"\",\"\",\"3-3\",\"5100\",\"40\",\"1\",\"Testing\",\"Stims/Figures/84-C-20-2.bmp\",\"pa:pa:ka\",\"Up\",\"40\",\"3\",\"5\",\"5\",\"P\",\"C\",\"53\"
\"\",\"\",\"approach-retreat\",\"202\",\"1381670\",\"0.0-202.0\",\"\",\"\",\"3-3\",\"4166\",\"38\",\"1\",\"Testing\",\"Stims/Figures/19-J-10-4.bmp\",\"mamala\",\"Up\",\"38\",\"3\",\"6\",\"5\",\"S\",\"C\",\"54\"
\"\",\"\",\"approach-retreat\",\"203\",\"1387538\",\"0.0-203.0\",\"\",\"\",\"3-3\",\"4361\",\"37\",\"1\",\"Testing\",\"Stims/Figures/7-C-20-4.bmp\",\"paka:ta\",\"Right\",\"37\",\"3\",\"7\",\"5\",\"P\",\"C\",\"55\"
\"\",\"\",\"approach-retreat\",\"204\",\"1392983\",\"0.0-204.0\",\"\",\"\",\"3-3\",\"3935\",\"40\",\"1\",\"Testing\",\"Stims/Figures/71-J-0-1.bmp\",\"malala\",\"Down\",\"40\",\"3\",\"8\",\"5\",\"S\",\"C\",\"56\"
\"\",\"\",\"approach-retreat\",\"205\",\"1398606\",\"0.0-205.0\",\"\",\"\",\"3-3\",\"4117\",\"38\",\"1\",\"Testing\",\"Stims/Figures/102-C-20-4.bmp\",\"taka:ta\",\"Down\",\"38\",\"3\",\"9\",\"5\",\"P\",\"C\",\"57\"
\"\",\"\",\"approach-retreat\",\"206\",\"1403998\",\"0.0-206.0\",\"\",\"\",\"3-3\",\"3885\",\"39\",\"1\",\"Testing\",\"Stims/Figures/27-J-0-1.bmp\",\"mama:la\",\"Right\",\"39\",\"3\",\"10\",\"5\",\"S\",\"C\",\"58\"
\"\",\"\",\"approach-retreat\",\"207\",\"1409680\",\"0.0-207.0\",\"\",\"\",\"3-3\",\"4176\",\"38\",\"1\",\"Testing\",\"Stims/Figures/7-J-10-4.bmp\",\"na:la:na\",\"Up\",\"38\",\"3\",\"11\",\"5\",\"S\",\"C\",\"59\"
\"\",\"\",\"approach-retreat\",\"208\",\"1415244\",\"0.0-208.0\",\"\",\"\",\"3-3\",\"4057\",\"37\",\"1\",\"Testing\",\"Stims/Figures/84-J-0-2.bmp\",\"nala:la\",\"Left\",\"37\",\"3\",\"12\",\"5\",\"S\",\"C\",\"60\"
\"\",\"\",\"approach-retreat\",\"209\",\"1420818\",\"0.0-209.0\",\"\",\"\",\"3-3\",\"4068\",\"37\",\"0\",\"Testing\",\"Stims/Figures/118-C-20-2.bmp\",\"papa:ta\",\"Left\",\"39\",\"3\",\"13\",\"5\",\"P\",\"C\",\"61\"
\"\",\"\",\"approach-retreat\",\"210\",\"1426663\",\"0.0-210.0\",\"\",\"\",\"3-3\",\"4338\",\"40\",\"1\",\"Testing\",\"Stims/Figures/57-C-30-1.bmp\",\"tapa:ka\",\"Up\",\"40\",\"3\",\"14\",\"5\",\"P\",\"C\",\"62\"
\"\",\"\",\"approach-retreat\",\"211\",\"1432331\",\"0.0-211.0\",\"\",\"\",\"3-3\",\"4164\",\"40\",\"1\",\"Testing\",\"Stims/Figures/71-C-30-1.bmp\",\"papata\",\"Up\",\"40\",\"3\",\"15\",\"5\",\"P\",\"C\",\"63\"
\"\",\"\",\"approach-retreat\",\"212\",\"1437969\",\"0.0-212.0\",\"\",\"\",\"3-3\",\"4133\",\"37\",\"1\",\"Testing\",\"Stims/Figures/139-J-0-2.bmp\",\"na:la:la\",\"Left\",\"37\",\"3\",\"16\",\"5\",\"S\",\"C\",\"64\"
\"\",\"\",\"approach-retreat\",\"213\",\"1443863\",\"0.0-213.0\",\"\",\"\",\"3-3\",\"4387\",\"38\",\"1\",\"Testing\",\"Stims/Figures/128-C-30-3.bmp\",\"papa:ka\",\"Down\",\"38\",\"3\",\"17\",\"5\",\"P\",\"C\",\"65\"
\"\",\"\",\"approach-retreat\",\"214\",\"1449326\",\"0.0-214.0\",\"\",\"\",\"3-3\",\"3955\",\"39\",\"1\",\"Testing\",\"Stims/Figures/57-J-0-1.bmp\",\"na:ma:la\",\"Right\",\"39\",\"3\",\"18\",\"5\",\"S\",\"C\",\"66\"
\"\",\"\",\"approach-retreat\",\"215\",\"1454984\",\"0.0-215.0\",\"\",\"\",\"3-3\",\"4147\",\"40\",\"1\",\"Testing\",\"Stims/Figures/100-J-10-3.bmp\",\"ma:ma:la\",\"Down\",\"40\",\"3\",\"19\",\"5\",\"S\",\"C\",\"67\"
\"\",\"\",\"approach-retreat\",\"216\",\"1460642\",\"0.0-216.0\",\"\",\"\",\"3-3\",\"4151\",\"37\",\"0\",\"Testing\",\"Stims/Figures/19-C-20-4.bmp\",\"tapata\",\"Left\",\"39\",\"3\",\"20\",\"5\",\"P\",\"C\",\"68\"
\"\",\"\",\"approach-retreat\",\"217\",\"1466192\",\"0.0-217.0\",\"\",\"\",\"3-3\",\"4041\",\"40\",\"1\",\"Testing\",\"Stims/Figures/128-J-10-3.bmp\",\"mama:na\",\"Down\",\"40\",\"3\",\"21\",\"5\",\"S\",\"C\",\"69\"
\"\",\"\",\"approach-retreat\",\"218\",\"1472659\",\"0.0-218.0\",\"\",\"\",\"3-3\",\"4958\",\"39\",\"0\",\"Testing\",\"Stims/Figures/139-C-20-2.bmp\",\"takata\",\"Right\",\"37\",\"3\",\"22\",\"5\",\"P\",\"C\",\"70\"
\"\",\"\",\"approach-retreat\",\"219\",\"1478672\",\"0.0-219.0\",\"\",\"\",\"3-3\",\"4505\",\"38\",\"1\",\"Testing\",\"Stims/Figures/100-C-30-3.bmp\",\"pakata\",\"Down\",\"38\",\"3\",\"23\",\"5\",\"P\",\"C\",\"71\"
\"\",\"\",\"approach-retreat\",\"220\",\"1484682\",\"0.0-220.0\",\"\",\"\",\"3-3\",\"4503\",\"39\",\"1\",\"Testing\",\"Stims/Figures/44-J-10-3.bmp\",\"ma:la:na\",\"Right\",\"39\",\"3\",\"24\",\"5\",\"S\",\"C\",\"72\"
\"\",\"\",\"approach-retreat\",\"221\",\"1490486\",\"0.0-221.0\",\"\",\"\",\"3-3\",\"4300\",\"40\",\"1\",\"Testing\",\"Stims/Figures/19-J-10-4.bmp\",\"mamala\",\"Down\",\"40\",\"4\",\"1\",\"5\",\"S\",\"C\",\"73\"
\"\",\"\",\"approach-retreat\",\"222\",\"1496308\",\"0.0-222.0\",\"\",\"\",\"3-3\",\"4316\",\"40\",\"1\",\"Testing\",\"Stims/Figures/139-J-0-2.bmp\",\"na:la:la\",\"Down\",\"40\",\"4\",\"2\",\"5\",\"S\",\"C\",\"74\"
\"\",\"\",\"approach-retreat\",\"223\",\"1502145\",\"0.0-223.0\",\"\",\"\",\"3-3\",\"4331\",\"39\",\"1\",\"Testing\",\"Stims/Figures/57-C-30-1.bmp\",\"tapa:ka\",\"Left\",\"39\",\"4\",\"3\",\"5\",\"P\",\"C\",\"75\"
\"\",\"\",\"approach-retreat\",\"224\",\"1507796\",\"0.0-224.0\",\"\",\"\",\"3-3\",\"4148\",\"38\",\"1\",\"Testing\",\"Stims/Figures/57-J-0-1.bmp\",\"na:ma:la\",\"Up\",\"38\",\"4\",\"4\",\"5\",\"S\",\"C\",\"76\"
\"\",\"\",\"approach-retreat\",\"225\",\"1515910\",\"0.0-225.0\",\"\",\"\",\"3-3\",\"6606\",\"40\",\"0\",\"Testing\",\"Stims/Figures/139-C-20-2.bmp\",\"takata\",\"Down\",\"38\",\"4\",\"5\",\"5\",\"P\",\"C\",\"77\"
\"\",\"\",\"approach-retreat\",\"226\",\"1521453\",\"0.0-226.0\",\"\",\"\",\"3-3\",\"4037\",\"37\",\"1\",\"Testing\",\"Stims/Figures/44-C-30-3.bmp\",\"taka:ka\",\"Right\",\"37\",\"4\",\"6\",\"5\",\"P\",\"C\",\"78\"
\"\",\"\",\"approach-retreat\",\"227\",\"1526975\",\"0.0-227.0\",\"\",\"\",\"3-3\",\"4012\",\"40\",\"1\",\"Testing\",\"Stims/Figures/27-C-30-1.bmp\",\"pa:ka:ta\",\"Up\",\"40\",\"4\",\"7\",\"5\",\"P\",\"C\",\"79\"
\"\",\"\",\"approach-retreat\",\"228\",\"1532380\",\"0.0-228.0\",\"\",\"\",\"3-3\",\"3896\",\"39\",\"1\",\"Testing\",\"Stims/Figures/84-J-0-2.bmp\",\"nala:la\",\"Right\",\"39\",\"4\",\"8\",\"5\",\"S\",\"C\",\"80\"
\"\",\"\",\"approach-retreat\",\"229\",\"1538145\",\"0.0-229.0\",\"\",\"\",\"3-3\",\"4254\",\"40\",\"1\",\"Testing\",\"Stims/Figures/118-C-20-2.bmp\",\"papa:ta\",\"Up\",\"40\",\"4\",\"9\",\"5\",\"P\",\"C\",\"81\"
\"\",\"\",\"approach-retreat\",\"230\",\"1544322\",\"0.0-230.0\",\"\",\"\",\"3-3\",\"4668\",\"37\",\"1\",\"Testing\",\"Stims/Figures/100-C-30-3.bmp\",\"pakata\",\"Right\",\"37\",\"4\",\"10\",\"5\",\"P\",\"C\",\"82\"
\"\",\"\",\"approach-retreat\",\"231\",\"1550427\",\"0.0-231.0\",\"\",\"\",\"3-3\",\"4600\",\"39\",\"1\",\"Testing\",\"Stims/Figures/7-C-20-4.bmp\",\"paka:ta\",\"Left\",\"39\",\"4\",\"11\",\"5\",\"P\",\"C\",\"83\"
\"\",\"\",\"approach-retreat\",\"232\",\"1556092\",\"0.0-232.0\",\"\",\"\",\"3-3\",\"4159\",\"37\",\"1\",\"Testing\",\"Stims/Figures/118-J-0-2.bmp\",\"nama:la\",\"Left\",\"37\",\"4\",\"12\",\"5\",\"S\",\"C\",\"84\"
\"\",\"\",\"approach-retreat\",\"233\",\"1561750\",\"0.0-233.0\",\"\",\"\",\"3-3\",\"4152\",\"39\",\"1\",\"Testing\",\"Stims/Figures/128-J-10-3.bmp\",\"mama:na\",\"Right\",\"39\",\"4\",\"13\",\"5\",\"S\",\"C\",\"85\"
\"\",\"\",\"approach-retreat\",\"234\",\"1567821\",\"0.0-234.0\",\"\",\"\",\"3-3\",\"4564\",\"40\",\"1\",\"Testing\",\"Stims/Figures/100-J-10-3.bmp\",\"ma:ma:la\",\"Down\",\"40\",\"4\",\"14\",\"5\",\"S\",\"C\",\"86\"
\"\",\"\",\"approach-retreat\",\"235\",\"1574219\",\"0.0-235.0\",\"\",\"\",\"3-3\",\"4889\",\"37\",\"1\",\"Testing\",\"Stims/Figures/102-C-20-4.bmp\",\"taka:ta\",\"Right\",\"37\",\"4\",\"15\",\"5\",\"P\",\"C\",\"87\"
\"\",\"\",\"approach-retreat\",\"236\",\"1579741\",\"0.0-236.0\",\"\",\"\",\"3-3\",\"4016\",\"38\",\"1\",\"Testing\",\"Stims/Figures/27-J-0-1.bmp\",\"mama:la\",\"Up\",\"38\",\"4\",\"16\",\"5\",\"S\",\"C\",\"88\"
\"\",\"\",\"approach-retreat\",\"237\",\"1585341\",\"0.0-237.0\",\"\",\"\",\"3-3\",\"4093\",\"40\",\"1\",\"Testing\",\"Stims/Figures/7-J-10-4.bmp\",\"na:la:na\",\"Down\",\"40\",\"4\",\"17\",\"5\",\"S\",\"C\",\"89\"
\"\",\"\",\"approach-retreat\",\"238\",\"1590929\",\"0.0-238.0\",\"\",\"\",\"3-3\",\"4079\",\"37\",\"1\",\"Testing\",\"Stims/Figures/102-J-10-4.bmp\",\"na:lala\",\"Left\",\"37\",\"4\",\"18\",\"5\",\"S\",\"C\",\"90\"
\"\",\"\",\"approach-retreat\",\"239\",\"1597178\",\"0.0-239.0\",\"\",\"\",\"3-3\",\"4741\",\"37\",\"1\",\"Testing\",\"Stims/Figures/84-C-20-2.bmp\",\"pa:pa:ka\",\"Right\",\"37\",\"4\",\"19\",\"5\",\"P\",\"C\",\"91\"
\"\",\"\",\"approach-retreat\",\"240\",\"1602624\",\"0.0-240.0\",\"\",\"\",\"3-3\",\"3938\",\"38\",\"1\",\"Testing\",\"Stims/Figures/71-J-0-1.bmp\",\"malala\",\"Up\",\"38\",\"4\",\"20\",\"5\",\"S\",\"C\",\"92\"
\"\",\"\",\"approach-retreat\",\"241\",\"1609311\",\"0.0-241.0\",\"\",\"\",\"3-3\",\"5179\",\"38\",\"1\",\"Testing\",\"Stims/Figures/44-J-10-3.bmp\",\"ma:la:na\",\"Up\",\"38\",\"4\",\"21\",\"5\",\"S\",\"C\",\"93\"
\"\",\"\",\"approach-retreat\",\"242\",\"1615181\",\"0.0-242.0\",\"\",\"\",\"3-3\",\"4365\",\"38\",\"1\",\"Testing\",\"Stims/Figures/128-C-30-3.bmp\",\"papa:ka\",\"Down\",\"38\",\"4\",\"22\",\"5\",\"P\",\"C\",\"94\"
\"\",\"\",\"approach-retreat\",\"243\",\"1620908\",\"0.0-243.0\",\"\",\"\",\"3-3\",\"4220\",\"37\",\"0\",\"Testing\",\"Stims/Figures/19-C-20-4.bmp\",\"tapata\",\"Left\",\"39\",\"4\",\"23\",\"5\",\"P\",\"C\",\"95\"
\"\",\"\",\"approach-retreat\",\"244\",\"1626602\",\"0.0-244.0\",\"\",\"\",\"3-3\",\"4186\",\"39\",\"1\",\"Testing\",\"Stims/Figures/71-C-30-1.bmp\",\"papata\",\"Left\",\"39\",\"4\",\"24\",\"5\",\"P\",\"C\",\"96\"
\"14085\",\"\",\"survey-text\",\"245\",\"1640693\",\"0.0-245.0\",\"\",\"{\"\"Q0\"\":\"\"PS170077\"\"}\",\"\",\"\",\"\",\"\",\"\",\"\",\"\",\"\",\"\",\"\",\"\",\"\",\"\",\"\",\"\"
