\"rt\",\"key_press\",\"trial_type\",\"trial_index\",\"time_elapsed\",\"internal_node_id\",\"view_history\",\"responses\",\"Id\",\"Rt\",\"ResKeyCode\",\"ResCorr\",\"TrialType2\",\"Image\",\"Label\",\"Location\",\"CorrectResponse\",\"Block\",\"BlockTrial\",\"Condition\",\"LabelType\",\"Subcondition\",\"trialNum\"
\"45748\",\"32\",\"text\",\"0\",\"45753\",\"0.0-0.0-0.0\",\"\",\"\",\"\",\"\",\"\",\"\",\"\",\"\",\"\",\"\",\"\",\"\",\"\",\"\",\"\",\"\",\"\"
\"48720\",\"\",\"instructions\",\"1\",\"94477\",\"0.0-1.0\",\"[{\"\"page_index\"\":0,\"\"viewing_time\"\":48718}]\",\"\",\"\",\"\",\"\",\"\",\"\",\"\",\"\",\"\",\"\",\"\",\"\",\"\",\"\",\"\",\"\"
\"30073\",\"\",\"survey-multi-choice\",\"2\",\"124593\",\"0.0-2.0\",\"\",\"{\"\"Q0\"\":\"\"Da\"\",\"\"Q1\"\":\"\"Da\"\",\"\"Q2\"\":\"\"Da\"\",\"\"Q3\"\":\"\"Da\"\",\"\"Q4\"\":\"\"Da\"\",\"\"Q5\"\":\"\"Da\"\"}\",\"\",\"\",\"\",\"\",\"\",\"\",\"\",\"\",\"\",\"\",\"\",\"\",\"\",\"\",\"\"
\"\",\"\",\"bio\",\"3\",\"134916\",\"0.0-3.0\",\"\",\"{\"\"age\"\":\"\"21\"\",\"\"gender\"\":\"\"f\"\",\"\"specify\"\":\"\"\"\"}\",\"\",\"\",\"\",\"\",\"\",\"\",\"\",\"\",\"\",\"\",\"\",\"\",\"\",\"\",\"\"
\"\",\"\",\"approach-retreat\",\"4\",\"142445\",\"0.0-4.0\",\"\",\"\",\"2-4\",\"6014\",\"40\",\"0\",\"Training\",\"Stims/Figures/71-C-30-1.bmp\",\"tapa:ka\",\"Down\",\"38\",\"1\",\"1\",\"5\",\"P\",\"C\",\"1\"
\"\",\"\",\"approach-retreat\",\"5\",\"149302\",\"0.0-5.0\",\"\",\"\",\"2-4\",\"5342\",\"37\",\"1\",\"Training\",\"Stims/Figures/93-C-30-1.bmp\",\"taka:ka\",\"Right\",\"37\",\"1\",\"2\",\"5\",\"P\",\"C\",\"2\"
\"\",\"\",\"approach-retreat\",\"6\",\"157366\",\"0.0-6.0\",\"\",\"\",\"2-4\",\"6547\",\"40\",\"1\",\"Training\",\"Stims/Figures/85-J-0-2.bmp\",\"nala:na\",\"Down\",\"40\",\"1\",\"3\",\"5\",\"S\",\"C\",\"3\"
\"\",\"\",\"approach-retreat\",\"7\",\"163660\",\"0.0-7.0\",\"\",\"\",\"2-4\",\"4774\",\"39\",\"0\",\"Training\",\"Stims/Figures/44-J-10-3.bmp\",\"mama:na\",\"Left\",\"37\",\"1\",\"4\",\"5\",\"S\",\"C\",\"4\"
\"\",\"\",\"approach-retreat\",\"8\",\"170040\",\"0.0-8.0\",\"\",\"\",\"2-4\",\"4861\",\"38\",\"1\",\"Training\",\"Stims/Figures/111-C-30-3.bmp\",\"papata\",\"Down\",\"38\",\"1\",\"5\",\"5\",\"P\",\"C\",\"5\"
\"\",\"\",\"approach-retreat\",\"9\",\"176982\",\"0.0-9.0\",\"\",\"\",\"2-4\",\"5430\",\"37\",\"0\",\"Training\",\"Stims/Figures/102-J-10-4.bmp\",\"nalana\",\"Right\",\"39\",\"1\",\"6\",\"5\",\"S\",\"C\",\"6\"
\"\",\"\",\"approach-retreat\",\"10\",\"183578\",\"0.0-10.0\",\"\",\"\",\"2-4\",\"5073\",\"37\",\"0\",\"Training\",\"Stims/Figures/111-J-10-3.bmp\",\"na:la:la\",\"Right\",\"39\",\"1\",\"7\",\"5\",\"S\",\"C\",\"7\"
\"\",\"\",\"approach-retreat\",\"11\",\"190344\",\"0.0-11.0\",\"\",\"\",\"2-4\",\"5244\",\"37\",\"1\",\"Training\",\"Stims/Figures/118-J-0-2.bmp\",\"ma:mana\",\"Left\",\"37\",\"1\",\"8\",\"5\",\"S\",\"C\",\"8\"
\"\",\"\",\"approach-retreat\",\"12\",\"196271\",\"0.0-12.0\",\"\",\"\",\"2-4\",\"4405\",\"37\",\"0\",\"Training\",\"Stims/Figures/44-C-30-3.bmp\",\"pa:pa:ka\",\"Left\",\"39\",\"1\",\"9\",\"5\",\"P\",\"C\",\"9\"
\"\",\"\",\"approach-retreat\",\"13\",\"202938\",\"0.0-13.0\",\"\",\"\",\"2-4\",\"5143\",\"38\",\"1\",\"Training\",\"Stims/Figures/74-J-10-4.bmp\",\"nalala\",\"Up\",\"38\",\"1\",\"10\",\"5\",\"S\",\"C\",\"10\"
\"\",\"\",\"approach-retreat\",\"14\",\"209644\",\"0.0-14.0\",\"\",\"\",\"2-4\",\"5192\",\"38\",\"0\",\"Training\",\"Stims/Figures/118-C-20-2.bmp\",\"pa:ka:ka\",\"Up\",\"40\",\"1\",\"11\",\"5\",\"P\",\"C\",\"11\"
\"\",\"\",\"approach-retreat\",\"15\",\"215433\",\"0.0-15.0\",\"\",\"\",\"2-4\",\"4276\",\"37\",\"1\",\"Training\",\"Stims/Figures/71-J-0-1.bmp\",\"ma:lana\",\"Left\",\"37\",\"1\",\"12\",\"5\",\"S\",\"C\",\"12\"
\"\",\"\",\"approach-retreat\",\"16\",\"221301\",\"0.0-16.0\",\"\",\"\",\"2-4\",\"4353\",\"40\",\"1\",\"Training\",\"Stims/Figures/85-C-20-2.bmp\",\"tapa:ta\",\"Up\",\"40\",\"1\",\"13\",\"5\",\"P\",\"C\",\"13\"
\"\",\"\",\"approach-retreat\",\"17\",\"227572\",\"0.0-17.0\",\"\",\"\",\"2-4\",\"4761\",\"40\",\"0\",\"Training\",\"Stims/Figures/102-C-20-4.bmp\",\"tapata\",\"Down\",\"38\",\"1\",\"14\",\"5\",\"P\",\"C\",\"14\"
\"\",\"\",\"approach-retreat\",\"18\",\"233767\",\"0.0-18.0\",\"\",\"\",\"2-4\",\"4681\",\"39\",\"0\",\"Training\",\"Stims/Figures/74-C-20-4.bmp\",\"ta:kata\",\"Right\",\"37\",\"1\",\"15\",\"5\",\"P\",\"C\",\"15\"
\"\",\"\",\"approach-retreat\",\"19\",\"239937\",\"0.0-19.0\",\"\",\"\",\"2-4\",\"4654\",\"38\",\"1\",\"Training\",\"Stims/Figures/93-J-0-1.bmp\",\"na:mana\",\"Up\",\"38\",\"1\",\"16\",\"5\",\"S\",\"C\",\"16\"
\"\",\"\",\"approach-retreat\",\"20\",\"245671\",\"0.0-20.0\",\"\",\"\",\"2-4\",\"4218\",\"40\",\"0\",\"Training\",\"Stims/Figures/74-C-20-4.bmp\",\"ta:kata\",\"Down\",\"38\",\"2\",\"1\",\"5\",\"P\",\"C\",\"17\"
\"\",\"\",\"approach-retreat\",\"21\",\"251414\",\"0.0-21.0\",\"\",\"\",\"2-4\",\"4220\",\"37\",\"1\",\"Training\",\"Stims/Figures/74-J-10-4.bmp\",\"nalala\",\"Left\",\"37\",\"2\",\"2\",\"5\",\"S\",\"C\",\"18\"
\"\",\"\",\"approach-retreat\",\"22\",\"257097\",\"0.0-22.0\",\"\",\"\",\"2-4\",\"4163\",\"40\",\"1\",\"Training\",\"Stims/Figures/93-J-0-1.bmp\",\"na:mana\",\"Down\",\"40\",\"2\",\"3\",\"5\",\"S\",\"C\",\"19\"
\"\",\"\",\"approach-retreat\",\"23\",\"263427\",\"0.0-23.0\",\"\",\"\",\"2-4\",\"4815\",\"40\",\"0\",\"Training\",\"Stims/Figures/93-C-30-1.bmp\",\"taka:ka\",\"Down\",\"38\",\"2\",\"4\",\"5\",\"P\",\"C\",\"20\"
\"\",\"\",\"approach-retreat\",\"24\",\"269973\",\"0.0-24.0\",\"\",\"\",\"2-4\",\"5030\",\"37\",\"1\",\"Training\",\"Stims/Figures/118-C-20-2.bmp\",\"pa:ka:ka\",\"Right\",\"37\",\"2\",\"5\",\"5\",\"P\",\"C\",\"21\"
\"\",\"\",\"approach-retreat\",\"25\",\"275706\",\"0.0-25.0\",\"\",\"\",\"2-4\",\"4207\",\"38\",\"1\",\"Training\",\"Stims/Figures/85-J-0-2.bmp\",\"nala:na\",\"Up\",\"38\",\"2\",\"6\",\"5\",\"S\",\"C\",\"22\"
\"\",\"\",\"approach-retreat\",\"26\",\"281504\",\"0.0-26.0\",\"\",\"\",\"2-4\",\"4284\",\"38\",\"0\",\"Training\",\"Stims/Figures/44-C-30-3.bmp\",\"pa:pa:ka\",\"Up\",\"40\",\"2\",\"7\",\"5\",\"P\",\"C\",\"23\"
\"\",\"\",\"approach-retreat\",\"27\",\"287238\",\"0.0-27.0\",\"\",\"\",\"2-4\",\"4208\",\"38\",\"0\",\"Training\",\"Stims/Figures/111-C-30-3.bmp\",\"papata\",\"Up\",\"40\",\"2\",\"8\",\"5\",\"P\",\"C\",\"24\"
\"\",\"\",\"approach-retreat\",\"28\",\"293889\",\"0.0-28.0\",\"\",\"\",\"2-4\",\"5126\",\"39\",\"1\",\"Training\",\"Stims/Figures/102-J-10-4.bmp\",\"nalana\",\"Right\",\"39\",\"2\",\"9\",\"5\",\"S\",\"C\",\"25\"
\"\",\"\",\"approach-retreat\",\"29\",\"299505\",\"0.0-29.0\",\"\",\"\",\"2-4\",\"4097\",\"38\",\"0\",\"Training\",\"Stims/Figures/71-C-30-1.bmp\",\"tapa:ka\",\"Up\",\"40\",\"2\",\"10\",\"5\",\"P\",\"C\",\"26\"
\"\",\"\",\"approach-retreat\",\"30\",\"305240\",\"0.0-30.0\",\"\",\"\",\"2-4\",\"4216\",\"39\",\"1\",\"Training\",\"Stims/Figures/118-J-0-2.bmp\",\"ma:mana\",\"Right\",\"39\",\"2\",\"11\",\"5\",\"S\",\"C\",\"27\"
\"\",\"\",\"approach-retreat\",\"31\",\"311022\",\"0.0-31.0\",\"\",\"\",\"2-4\",\"4266\",\"37\",\"1\",\"Training\",\"Stims/Figures/44-J-10-3.bmp\",\"mama:na\",\"Left\",\"37\",\"2\",\"12\",\"5\",\"S\",\"C\",\"28\"
\"\",\"\",\"approach-retreat\",\"32\",\"317072\",\"0.0-32.0\",\"\",\"\",\"2-4\",\"4534\",\"37\",\"1\",\"Training\",\"Stims/Figures/85-C-20-2.bmp\",\"tapa:ta\",\"Right\",\"37\",\"2\",\"13\",\"5\",\"P\",\"C\",\"29\"
\"\",\"\",\"approach-retreat\",\"33\",\"322768\",\"0.0-33.0\",\"\",\"\",\"2-4\",\"4179\",\"40\",\"1\",\"Training\",\"Stims/Figures/111-J-10-3.bmp\",\"na:la:la\",\"Down\",\"40\",\"2\",\"14\",\"5\",\"S\",\"C\",\"30\"
\"\",\"\",\"approach-retreat\",\"34\",\"328577\",\"0.0-34.0\",\"\",\"\",\"2-4\",\"4293\",\"37\",\"1\",\"Training\",\"Stims/Figures/71-J-0-1.bmp\",\"ma:lana\",\"Left\",\"37\",\"2\",\"15\",\"5\",\"S\",\"C\",\"31\"
\"\",\"\",\"approach-retreat\",\"35\",\"334458\",\"0.0-35.0\",\"\",\"\",\"2-4\",\"4356\",\"39\",\"1\",\"Training\",\"Stims/Figures/102-C-20-4.bmp\",\"tapata\",\"Left\",\"39\",\"2\",\"16\",\"5\",\"P\",\"C\",\"32\"
\"\",\"\",\"approach-retreat\",\"36\",\"339983\",\"0.0-36.0\",\"\",\"\",\"2-4\",\"4009\",\"39\",\"1\",\"Training\",\"Stims/Figures/74-C-20-4.bmp\",\"ta:kata\",\"Left\",\"39\",\"3\",\"1\",\"5\",\"P\",\"C\",\"33\"
\"\",\"\",\"approach-retreat\",\"37\",\"345538\",\"0.0-37.0\",\"\",\"\",\"2-4\",\"4041\",\"37\",\"0\",\"Training\",\"Stims/Figures/118-C-20-2.bmp\",\"pa:ka:ka\",\"Left\",\"39\",\"3\",\"2\",\"5\",\"P\",\"C\",\"34\"
\"\",\"\",\"approach-retreat\",\"38\",\"352054\",\"0.0-38.0\",\"\",\"\",\"2-4\",\"5001\",\"38\",\"1\",\"Training\",\"Stims/Figures/102-J-10-4.bmp\",\"nalana\",\"Up\",\"38\",\"3\",\"3\",\"5\",\"S\",\"C\",\"35\"
\"\",\"\",\"approach-retreat\",\"39\",\"358015\",\"0.0-39.0\",\"\",\"\",\"2-4\",\"4436\",\"39\",\"0\",\"Training\",\"Stims/Figures/93-C-30-1.bmp\",\"taka:ka\",\"Right\",\"37\",\"3\",\"4\",\"5\",\"P\",\"C\",\"36\"
\"\",\"\",\"approach-retreat\",\"40\",\"363470\",\"0.0-40.0\",\"\",\"\",\"2-4\",\"3935\",\"40\",\"1\",\"Training\",\"Stims/Figures/111-C-30-3.bmp\",\"papata\",\"Up\",\"40\",\"3\",\"5\",\"5\",\"P\",\"C\",\"37\"
\"\",\"\",\"approach-retreat\",\"41\",\"369111\",\"0.0-41.0\",\"\",\"\",\"2-4\",\"4120\",\"40\",\"1\",\"Training\",\"Stims/Figures/93-J-0-1.bmp\",\"na:mana\",\"Down\",\"40\",\"3\",\"6\",\"5\",\"S\",\"C\",\"38\"
\"\",\"\",\"approach-retreat\",\"42\",\"374914\",\"0.0-42.0\",\"\",\"\",\"2-4\",\"4292\",\"39\",\"0\",\"Training\",\"Stims/Figures/111-J-10-3.bmp\",\"na:la:la\",\"Left\",\"37\",\"3\",\"7\",\"5\",\"S\",\"C\",\"39\"
\"\",\"\",\"approach-retreat\",\"43\",\"380594\",\"0.0-43.0\",\"\",\"\",\"2-4\",\"4155\",\"40\",\"0\",\"Training\",\"Stims/Figures/102-C-20-4.bmp\",\"tapata\",\"Down\",\"38\",\"3\",\"8\",\"5\",\"P\",\"C\",\"40\"
\"\",\"\",\"approach-retreat\",\"44\",\"386307\",\"0.0-44.0\",\"\",\"\",\"2-4\",\"4188\",\"40\",\"1\",\"Training\",\"Stims/Figures/85-C-20-2.bmp\",\"tapa:ta\",\"Up\",\"40\",\"3\",\"9\",\"5\",\"P\",\"C\",\"41\"
\"\",\"\",\"approach-retreat\",\"45\",\"392691\",\"0.0-45.0\",\"\",\"\",\"2-4\",\"4863\",\"38\",\"1\",\"Training\",\"Stims/Figures/44-J-10-3.bmp\",\"mama:na\",\"Up\",\"38\",\"3\",\"10\",\"5\",\"S\",\"C\",\"42\"
\"\",\"\",\"approach-retreat\",\"46\",\"398561\",\"0.0-46.0\",\"\",\"\",\"2-4\",\"4343\",\"37\",\"1\",\"Training\",\"Stims/Figures/44-C-30-3.bmp\",\"pa:pa:ka\",\"Right\",\"37\",\"3\",\"11\",\"5\",\"P\",\"C\",\"43\"
\"\",\"\",\"approach-retreat\",\"47\",\"404237\",\"0.0-47.0\",\"\",\"\",\"2-4\",\"4153\",\"37\",\"0\",\"Training\",\"Stims/Figures/71-C-30-1.bmp\",\"tapa:ka\",\"Left\",\"39\",\"3\",\"12\",\"5\",\"P\",\"C\",\"44\"
\"\",\"\",\"approach-retreat\",\"48\",\"410085\",\"0.0-48.0\",\"\",\"\",\"2-4\",\"4324\",\"40\",\"1\",\"Training\",\"Stims/Figures/71-J-0-1.bmp\",\"ma:lana\",\"Down\",\"40\",\"3\",\"13\",\"5\",\"S\",\"C\",\"45\"
\"\",\"\",\"approach-retreat\",\"49\",\"416228\",\"0.0-49.0\",\"\",\"\",\"2-4\",\"4618\",\"40\",\"1\",\"Training\",\"Stims/Figures/118-J-0-2.bmp\",\"ma:mana\",\"Down\",\"40\",\"3\",\"14\",\"5\",\"S\",\"C\",\"46\"
\"\",\"\",\"approach-retreat\",\"50\",\"423341\",\"0.0-50.0\",\"\",\"\",\"2-4\",\"5597\",\"37\",\"0\",\"Training\",\"Stims/Figures/74-J-10-4.bmp\",\"nalala\",\"Right\",\"39\",\"3\",\"15\",\"5\",\"S\",\"C\",\"47\"
\"\",\"\",\"approach-retreat\",\"51\",\"429923\",\"0.0-51.0\",\"\",\"\",\"2-4\",\"5064\",\"39\",\"1\",\"Training\",\"Stims/Figures/85-J-0-2.bmp\",\"nala:na\",\"Right\",\"39\",\"3\",\"16\",\"5\",\"S\",\"C\",\"48\"
\"\",\"\",\"approach-retreat\",\"52\",\"437109\",\"0.0-52.0\",\"\",\"\",\"2-4\",\"5672\",\"38\",\"0\",\"Training\",\"Stims/Figures/118-J-0-2.bmp\",\"ma:mana\",\"Down\",\"40\",\"4\",\"1\",\"5\",\"S\",\"C\",\"49\"
\"\",\"\",\"approach-retreat\",\"53\",\"443595\",\"0.0-53.0\",\"\",\"\",\"2-4\",\"4968\",\"39\",\"0\",\"Training\",\"Stims/Figures/102-C-20-4.bmp\",\"tapata\",\"Right\",\"37\",\"4\",\"2\",\"5\",\"P\",\"C\",\"50\"
\"\",\"\",\"approach-retreat\",\"54\",\"449239\",\"0.0-54.0\",\"\",\"\",\"2-4\",\"4123\",\"40\",\"1\",\"Training\",\"Stims/Figures/93-J-0-1.bmp\",\"na:mana\",\"Down\",\"40\",\"4\",\"3\",\"5\",\"S\",\"C\",\"51\"
\"\",\"\",\"approach-retreat\",\"55\",\"454922\",\"0.0-55.0\",\"\",\"\",\"2-4\",\"4170\",\"37\",\"1\",\"Training\",\"Stims/Figures/71-J-0-1.bmp\",\"ma:lana\",\"Left\",\"37\",\"4\",\"4\",\"5\",\"S\",\"C\",\"52\"
\"\",\"\",\"approach-retreat\",\"56\",\"460854\",\"0.0-56.0\",\"\",\"\",\"2-4\",\"4419\",\"40\",\"0\",\"Training\",\"Stims/Figures/102-J-10-4.bmp\",\"nalana\",\"Up\",\"38\",\"4\",\"5\",\"5\",\"S\",\"C\",\"53\"
\"\",\"\",\"approach-retreat\",\"57\",\"466679\",\"0.0-57.0\",\"\",\"\",\"2-4\",\"4311\",\"37\",\"1\",\"Training\",\"Stims/Figures/74-C-20-4.bmp\",\"ta:kata\",\"Right\",\"37\",\"4\",\"6\",\"5\",\"P\",\"C\",\"54\"
\"\",\"\",\"approach-retreat\",\"58\",\"472450\",\"0.0-58.0\",\"\",\"\",\"2-4\",\"4258\",\"38\",\"1\",\"Training\",\"Stims/Figures/44-J-10-3.bmp\",\"mama:na\",\"Up\",\"38\",\"4\",\"7\",\"5\",\"S\",\"C\",\"55\"
\"\",\"\",\"approach-retreat\",\"59\",\"478153\",\"0.0-59.0\",\"\",\"\",\"2-4\",\"4185\",\"37\",\"1\",\"Training\",\"Stims/Figures/118-C-20-2.bmp\",\"pa:ka:ka\",\"Right\",\"37\",\"4\",\"8\",\"5\",\"P\",\"C\",\"56\"
\"\",\"\",\"approach-retreat\",\"60\",\"483817\",\"0.0-60.0\",\"\",\"\",\"2-4\",\"4140\",\"40\",\"0\",\"Training\",\"Stims/Figures/93-C-30-1.bmp\",\"taka:ka\",\"Down\",\"38\",\"4\",\"9\",\"5\",\"P\",\"C\",\"57\"
\"\",\"\",\"approach-retreat\",\"61\",\"489744\",\"0.0-61.0\",\"\",\"\",\"2-4\",\"4403\",\"39\",\"0\",\"Training\",\"Stims/Figures/85-C-20-2.bmp\",\"tapa:ta\",\"Right\",\"37\",\"4\",\"10\",\"5\",\"P\",\"C\",\"58\"
\"\",\"\",\"approach-retreat\",\"62\",\"495714\",\"0.0-62.0\",\"\",\"\",\"2-4\",\"4449\",\"38\",\"1\",\"Training\",\"Stims/Figures/111-J-10-3.bmp\",\"na:la:la\",\"Up\",\"38\",\"4\",\"11\",\"5\",\"S\",\"C\",\"59\"
\"\",\"\",\"approach-retreat\",\"63\",\"501331\",\"0.0-63.0\",\"\",\"\",\"2-4\",\"4101\",\"40\",\"1\",\"Training\",\"Stims/Figures/111-C-30-3.bmp\",\"papata\",\"Up\",\"40\",\"4\",\"12\",\"5\",\"P\",\"C\",\"60\"
\"\",\"\",\"approach-retreat\",\"64\",\"507204\",\"0.0-64.0\",\"\",\"\",\"2-4\",\"4343\",\"37\",\"1\",\"Training\",\"Stims/Figures/85-J-0-2.bmp\",\"nala:na\",\"Left\",\"37\",\"4\",\"13\",\"5\",\"S\",\"C\",\"61\"
\"\",\"\",\"approach-retreat\",\"65\",\"513067\",\"0.0-65.0\",\"\",\"\",\"2-4\",\"4337\",\"40\",\"1\",\"Training\",\"Stims/Figures/74-J-10-4.bmp\",\"nalala\",\"Down\",\"40\",\"4\",\"14\",\"5\",\"S\",\"C\",\"62\"
\"\",\"\",\"approach-retreat\",\"66\",\"518719\",\"0.0-66.0\",\"\",\"\",\"2-4\",\"4127\",\"37\",\"0\",\"Training\",\"Stims/Figures/71-C-30-1.bmp\",\"tapa:ka\",\"Left\",\"39\",\"4\",\"15\",\"5\",\"P\",\"C\",\"63\"
\"\",\"\",\"approach-retreat\",\"67\",\"524273\",\"0.0-67.0\",\"\",\"\",\"2-4\",\"4039\",\"37\",\"0\",\"Training\",\"Stims/Figures/44-C-30-3.bmp\",\"pa:pa:ka\",\"Left\",\"39\",\"4\",\"16\",\"5\",\"P\",\"C\",\"64\"
\"\",\"\",\"approach-retreat\",\"68\",\"530224\",\"0.0-68.0\",\"\",\"\",\"2-4\",\"4432\",\"40\",\"0\",\"Training\",\"Stims/Figures/118-J-0-2.bmp\",\"ma:mana\",\"Up\",\"38\",\"5\",\"1\",\"5\",\"S\",\"C\",\"65\"
\"\",\"\",\"approach-retreat\",\"69\",\"536273\",\"0.0-69.0\",\"\",\"\",\"2-4\",\"4524\",\"37\",\"0\",\"Training\",\"Stims/Figures/44-C-30-3.bmp\",\"pa:pa:ka\",\"Left\",\"39\",\"5\",\"2\",\"5\",\"P\",\"C\",\"66\"
\"\",\"\",\"approach-retreat\",\"70\",\"542223\",\"0.0-70.0\",\"\",\"\",\"2-4\",\"4433\",\"37\",\"1\",\"Training\",\"Stims/Figures/111-J-10-3.bmp\",\"na:la:la\",\"Left\",\"37\",\"5\",\"3\",\"5\",\"S\",\"C\",\"67\"
\"\",\"\",\"approach-retreat\",\"71\",\"547937\",\"0.0-71.0\",\"\",\"\",\"2-4\",\"4195\",\"38\",\"0\",\"Training\",\"Stims/Figures/71-C-30-1.bmp\",\"tapa:ka\",\"Up\",\"40\",\"5\",\"4\",\"5\",\"P\",\"C\",\"68\"
\"\",\"\",\"approach-retreat\",\"72\",\"553590\",\"0.0-72.0\",\"\",\"\",\"2-4\",\"4127\",\"37\",\"0\",\"Training\",\"Stims/Figures/44-J-10-3.bmp\",\"mama:na\",\"Right\",\"39\",\"5\",\"5\",\"5\",\"S\",\"C\",\"69\"
\"\",\"\",\"approach-retreat\",\"73\",\"559392\",\"0.0-73.0\",\"\",\"\",\"2-4\",\"4289\",\"39\",\"0\",\"Training\",\"Stims/Figures/111-C-30-3.bmp\",\"papata\",\"Right\",\"37\",\"5\",\"6\",\"5\",\"P\",\"C\",\"70\"
\"\",\"\",\"approach-retreat\",\"74\",\"565409\",\"0.0-74.0\",\"\",\"\",\"2-4\",\"4504\",\"38\",\"0\",\"Training\",\"Stims/Figures/85-C-20-2.bmp\",\"tapa:ta\",\"Up\",\"40\",\"5\",\"7\",\"5\",\"P\",\"C\",\"71\"
\"\",\"\",\"approach-retreat\",\"75\",\"571958\",\"0.0-75.0\",\"\",\"\",\"2-4\",\"5035\",\"40\",\"1\",\"Training\",\"Stims/Figures/71-J-0-1.bmp\",\"ma:lana\",\"Down\",\"40\",\"5\",\"8\",\"5\",\"S\",\"C\",\"72\"
\"\",\"\",\"approach-retreat\",\"76\",\"577606\",\"0.0-76.0\",\"\",\"\",\"2-4\",\"4132\",\"38\",\"1\",\"Training\",\"Stims/Figures/102-C-20-4.bmp\",\"tapata\",\"Down\",\"38\",\"5\",\"9\",\"5\",\"P\",\"C\",\"73\"
\"\",\"\",\"approach-retreat\",\"77\",\"583201\",\"0.0-77.0\",\"\",\"\",\"2-4\",\"4083\",\"39\",\"1\",\"Training\",\"Stims/Figures/85-J-0-2.bmp\",\"nala:na\",\"Right\",\"39\",\"5\",\"10\",\"5\",\"S\",\"C\",\"74\"
\"\",\"\",\"approach-retreat\",\"78\",\"588916\",\"0.0-78.0\",\"\",\"\",\"2-4\",\"4194\",\"39\",\"1\",\"Training\",\"Stims/Figures/93-C-30-1.bmp\",\"taka:ka\",\"Left\",\"39\",\"5\",\"11\",\"5\",\"P\",\"C\",\"75\"
\"\",\"\",\"approach-retreat\",\"79\",\"594620\",\"0.0-79.0\",\"\",\"\",\"2-4\",\"4191\",\"39\",\"1\",\"Training\",\"Stims/Figures/74-C-20-4.bmp\",\"ta:kata\",\"Left\",\"39\",\"5\",\"12\",\"5\",\"P\",\"C\",\"76\"
\"\",\"\",\"approach-retreat\",\"80\",\"601051\",\"0.0-80.0\",\"\",\"\",\"2-4\",\"4909\",\"39\",\"0\",\"Training\",\"Stims/Figures/118-C-20-2.bmp\",\"pa:ka:ka\",\"Right\",\"37\",\"5\",\"13\",\"5\",\"P\",\"C\",\"77\"
\"\",\"\",\"approach-retreat\",\"81\",\"606924\",\"0.0-81.0\",\"\",\"\",\"2-4\",\"4350\",\"40\",\"0\",\"Training\",\"Stims/Figures/93-J-0-1.bmp\",\"na:mana\",\"Up\",\"38\",\"5\",\"14\",\"5\",\"S\",\"C\",\"78\"
\"\",\"\",\"approach-retreat\",\"82\",\"612606\",\"0.0-82.0\",\"\",\"\",\"2-4\",\"4159\",\"38\",\"0\",\"Training\",\"Stims/Figures/74-J-10-4.bmp\",\"nalala\",\"Down\",\"40\",\"5\",\"15\",\"5\",\"S\",\"C\",\"79\"
\"\",\"\",\"approach-retreat\",\"83\",\"618210\",\"0.0-83.0\",\"\",\"\",\"2-4\",\"4079\",\"38\",\"0\",\"Training\",\"Stims/Figures/102-J-10-4.bmp\",\"nalana\",\"Down\",\"40\",\"5\",\"16\",\"5\",\"S\",\"C\",\"80\"
\"\",\"\",\"approach-retreat\",\"84\",\"623788\",\"0.0-84.0\",\"\",\"\",\"2-4\",\"4056\",\"40\",\"1\",\"Training\",\"Stims/Figures/102-J-10-4.bmp\",\"nalana\",\"Down\",\"40\",\"6\",\"1\",\"5\",\"S\",\"C\",\"81\"
\"\",\"\",\"approach-retreat\",\"85\",\"629470\",\"0.0-85.0\",\"\",\"\",\"2-4\",\"4159\",\"38\",\"1\",\"Training\",\"Stims/Figures/118-J-0-2.bmp\",\"ma:mana\",\"Up\",\"38\",\"6\",\"2\",\"5\",\"S\",\"C\",\"82\"
\"\",\"\",\"approach-retreat\",\"86\",\"635192\",\"0.0-86.0\",\"\",\"\",\"2-4\",\"4205\",\"40\",\"0\",\"Training\",\"Stims/Figures/74-J-10-4.bmp\",\"nalala\",\"Up\",\"38\",\"6\",\"3\",\"5\",\"S\",\"C\",\"83\"
\"\",\"\",\"approach-retreat\",\"87\",\"641095\",\"0.0-87.0\",\"\",\"\",\"2-4\",\"4383\",\"39\",\"0\",\"Training\",\"Stims/Figures/102-C-20-4.bmp\",\"tapata\",\"Right\",\"37\",\"6\",\"4\",\"5\",\"P\",\"C\",\"84\"
\"\",\"\",\"approach-retreat\",\"88\",\"647295\",\"0.0-88.0\",\"\",\"\",\"2-4\",\"4675\",\"37\",\"0\",\"Training\",\"Stims/Figures/74-C-20-4.bmp\",\"ta:kata\",\"Left\",\"39\",\"6\",\"5\",\"5\",\"P\",\"C\",\"85\"
\"\",\"\",\"approach-retreat\",\"89\",\"653085\",\"0.0-89.0\",\"\",\"\",\"2-4\",\"4279\",\"37\",\"1\",\"Training\",\"Stims/Figures/71-C-30-1.bmp\",\"tapa:ka\",\"Right\",\"37\",\"6\",\"6\",\"5\",\"P\",\"C\",\"86\"
\"\",\"\",\"approach-retreat\",\"90\",\"658808\",\"0.0-90.0\",\"\",\"\",\"2-4\",\"4206\",\"37\",\"0\",\"Training\",\"Stims/Figures/111-C-30-3.bmp\",\"papata\",\"Left\",\"39\",\"6\",\"7\",\"5\",\"P\",\"C\",\"87\"
\"\",\"\",\"approach-retreat\",\"91\",\"664377\",\"0.0-91.0\",\"\",\"\",\"2-4\",\"4051\",\"40\",\"1\",\"Training\",\"Stims/Figures/118-C-20-2.bmp\",\"pa:ka:ka\",\"Up\",\"40\",\"6\",\"8\",\"5\",\"P\",\"C\",\"88\"
\"\",\"\",\"approach-retreat\",\"92\",\"670092\",\"0.0-92.0\",\"\",\"\",\"2-4\",\"4201\",\"38\",\"1\",\"Training\",\"Stims/Figures/71-J-0-1.bmp\",\"ma:lana\",\"Up\",\"38\",\"6\",\"9\",\"5\",\"S\",\"C\",\"89\"
\"\",\"\",\"approach-retreat\",\"93\",\"675658\",\"0.0-93.0\",\"\",\"\",\"2-4\",\"4051\",\"37\",\"0\",\"Training\",\"Stims/Figures/85-J-0-2.bmp\",\"nala:na\",\"Right\",\"39\",\"6\",\"10\",\"5\",\"S\",\"C\",\"90\"
\"\",\"\",\"approach-retreat\",\"94\",\"681836\",\"0.0-94.0\",\"\",\"\",\"2-4\",\"4652\",\"38\",\"0\",\"Training\",\"Stims/Figures/44-J-10-3.bmp\",\"mama:na\",\"Down\",\"40\",\"6\",\"11\",\"5\",\"S\",\"C\",\"91\"
\"\",\"\",\"approach-retreat\",\"95\",\"687667\",\"0.0-95.0\",\"\",\"\",\"2-4\",\"4315\",\"39\",\"1\",\"Training\",\"Stims/Figures/85-C-20-2.bmp\",\"tapa:ta\",\"Left\",\"39\",\"6\",\"12\",\"5\",\"P\",\"C\",\"92\"
\"\",\"\",\"approach-retreat\",\"96\",\"693361\",\"0.0-96.0\",\"\",\"\",\"2-4\",\"4179\",\"40\",\"1\",\"Training\",\"Stims/Figures/93-J-0-1.bmp\",\"na:mana\",\"Down\",\"40\",\"6\",\"13\",\"5\",\"S\",\"C\",\"93\"
\"\",\"\",\"approach-retreat\",\"97\",\"699038\",\"0.0-97.0\",\"\",\"\",\"2-4\",\"4161\",\"37\",\"1\",\"Training\",\"Stims/Figures/44-C-30-3.bmp\",\"pa:pa:ka\",\"Right\",\"37\",\"6\",\"14\",\"5\",\"P\",\"C\",\"94\"
\"\",\"\",\"approach-retreat\",\"98\",\"704608\",\"0.0-98.0\",\"\",\"\",\"2-4\",\"4053\",\"38\",\"1\",\"Training\",\"Stims/Figures/93-C-30-1.bmp\",\"taka:ka\",\"Down\",\"38\",\"6\",\"15\",\"5\",\"P\",\"C\",\"95\"
\"\",\"\",\"approach-retreat\",\"99\",\"710556\",\"0.0-99.0\",\"\",\"\",\"2-4\",\"4427\",\"39\",\"0\",\"Training\",\"Stims/Figures/111-J-10-3.bmp\",\"na:la:la\",\"Left\",\"37\",\"6\",\"16\",\"5\",\"S\",\"C\",\"96\"
\"\",\"\",\"approach-retreat\",\"100\",\"716539\",\"0.0-100.0\",\"\",\"\",\"2-4\",\"4461\",\"39\",\"0\",\"Training\",\"Stims/Figures/118-C-20-2.bmp\",\"pa:ka:ka\",\"Right\",\"37\",\"7\",\"1\",\"5\",\"P\",\"C\",\"97\"
\"\",\"\",\"approach-retreat\",\"101\",\"722152\",\"0.0-101.0\",\"\",\"\",\"2-4\",\"4099\",\"40\",\"0\",\"Training\",\"Stims/Figures/111-C-30-3.bmp\",\"papata\",\"Down\",\"38\",\"7\",\"2\",\"5\",\"P\",\"C\",\"98\"
\"\",\"\",\"approach-retreat\",\"102\",\"728739\",\"0.0-102.0\",\"\",\"\",\"2-4\",\"5075\",\"38\",\"1\",\"Training\",\"Stims/Figures/85-C-20-2.bmp\",\"tapa:ta\",\"Down\",\"38\",\"7\",\"3\",\"5\",\"P\",\"C\",\"99\"
\"\",\"\",\"approach-retreat\",\"103\",\"734333\",\"0.0-103.0\",\"\",\"\",\"2-4\",\"4074\",\"38\",\"1\",\"Training\",\"Stims/Figures/102-C-20-4.bmp\",\"tapata\",\"Down\",\"38\",\"7\",\"4\",\"5\",\"P\",\"C\",\"100\"
\"\",\"\",\"approach-retreat\",\"104\",\"740114\",\"0.0-104.0\",\"\",\"\",\"2-4\",\"4261\",\"39\",\"1\",\"Training\",\"Stims/Figures/44-C-30-3.bmp\",\"pa:pa:ka\",\"Left\",\"39\",\"7\",\"5\",\"5\",\"P\",\"C\",\"101\"
\"\",\"\",\"approach-retreat\",\"105\",\"745620\",\"0.0-105.0\",\"\",\"\",\"2-4\",\"3988\",\"39\",\"0\",\"Training\",\"Stims/Figures/74-J-10-4.bmp\",\"nalala\",\"Left\",\"37\",\"7\",\"6\",\"5\",\"S\",\"C\",\"102\"
\"\",\"\",\"approach-retreat\",\"106\",\"752544\",\"0.0-106.0\",\"\",\"\",\"2-4\",\"5404\",\"40\",\"0\",\"Training\",\"Stims/Figures/44-J-10-3.bmp\",\"mama:na\",\"Up\",\"38\",\"7\",\"7\",\"5\",\"S\",\"C\",\"103\"
\"\",\"\",\"approach-retreat\",\"107\",\"758199\",\"0.0-107.0\",\"\",\"\",\"2-4\",\"4134\",\"37\",\"1\",\"Training\",\"Stims/Figures/118-J-0-2.bmp\",\"ma:mana\",\"Left\",\"37\",\"7\",\"8\",\"5\",\"S\",\"C\",\"104\"
\"\",\"\",\"approach-retreat\",\"108\",\"763856\",\"0.0-108.0\",\"\",\"\",\"2-4\",\"4130\",\"40\",\"0\",\"Training\",\"Stims/Figures/111-J-10-3.bmp\",\"na:la:la\",\"Up\",\"38\",\"7\",\"9\",\"5\",\"S\",\"C\",\"105\"
\"\",\"\",\"approach-retreat\",\"109\",\"770704\",\"0.0-109.0\",\"\",\"\",\"2-4\",\"5338\",\"38\",\"0\",\"Training\",\"Stims/Figures/71-C-30-1.bmp\",\"tapa:ka\",\"Up\",\"40\",\"7\",\"10\",\"5\",\"P\",\"C\",\"106\"
\"\",\"\",\"approach-retreat\",\"110\",\"776756\",\"0.0-110.0\",\"\",\"\",\"2-4\",\"4531\",\"37\",\"0\",\"Training\",\"Stims/Figures/71-J-0-1.bmp\",\"ma:lana\",\"Right\",\"39\",\"7\",\"11\",\"5\",\"S\",\"C\",\"107\"
\"\",\"\",\"approach-retreat\",\"111\",\"782400\",\"0.0-111.0\",\"\",\"\",\"2-4\",\"4121\",\"38\",\"1\",\"Training\",\"Stims/Figures/93-C-30-1.bmp\",\"taka:ka\",\"Down\",\"38\",\"7\",\"12\",\"5\",\"P\",\"C\",\"108\"
\"\",\"\",\"approach-retreat\",\"112\",\"788106\",\"0.0-112.0\",\"\",\"\",\"2-4\",\"4185\",\"37\",\"1\",\"Training\",\"Stims/Figures/74-C-20-4.bmp\",\"ta:kata\",\"Right\",\"37\",\"7\",\"13\",\"5\",\"P\",\"C\",\"109\"
\"\",\"\",\"approach-retreat\",\"113\",\"793814\",\"0.0-113.0\",\"\",\"\",\"2-4\",\"4196\",\"37\",\"1\",\"Training\",\"Stims/Figures/102-J-10-4.bmp\",\"nalana\",\"Left\",\"37\",\"7\",\"14\",\"5\",\"S\",\"C\",\"110\"
\"\",\"\",\"approach-retreat\",\"114\",\"801179\",\"0.0-114.0\",\"\",\"\",\"2-4\",\"5850\",\"38\",\"1\",\"Training\",\"Stims/Figures/85-J-0-2.bmp\",\"nala:na\",\"Up\",\"38\",\"7\",\"15\",\"5\",\"S\",\"C\",\"111\"
\"\",\"\",\"approach-retreat\",\"115\",\"807045\",\"0.0-115.0\",\"\",\"\",\"2-4\",\"4351\",\"39\",\"1\",\"Training\",\"Stims/Figures/93-J-0-1.bmp\",\"na:mana\",\"Right\",\"39\",\"7\",\"16\",\"5\",\"S\",\"C\",\"112\"
\"\",\"\",\"approach-retreat\",\"116\",\"812784\",\"0.0-116.0\",\"\",\"\",\"2-4\",\"4226\",\"39\",\"0\",\"Training\",\"Stims/Figures/71-C-30-1.bmp\",\"tapa:ka\",\"Right\",\"37\",\"8\",\"1\",\"5\",\"P\",\"C\",\"113\"
\"\",\"\",\"approach-retreat\",\"117\",\"818620\",\"0.0-117.0\",\"\",\"\",\"2-4\",\"4323\",\"39\",\"1\",\"Training\",\"Stims/Figures/44-C-30-3.bmp\",\"pa:pa:ka\",\"Left\",\"39\",\"8\",\"2\",\"5\",\"P\",\"C\",\"114\"
\"\",\"\",\"approach-retreat\",\"118\",\"824278\",\"0.0-118.0\",\"\",\"\",\"2-4\",\"4140\",\"39\",\"0\",\"Training\",\"Stims/Figures/85-J-0-2.bmp\",\"nala:na\",\"Left\",\"37\",\"8\",\"3\",\"5\",\"S\",\"C\",\"115\"
\"\",\"\",\"approach-retreat\",\"119\",\"829982\",\"0.0-119.0\",\"\",\"\",\"2-4\",\"4183\",\"38\",\"0\",\"Training\",\"Stims/Figures/118-C-20-2.bmp\",\"pa:ka:ka\",\"Up\",\"40\",\"8\",\"4\",\"5\",\"P\",\"C\",\"116\"
\"\",\"\",\"approach-retreat\",\"120\",\"835833\",\"0.0-120.0\",\"\",\"\",\"2-4\",\"4339\",\"40\",\"1\",\"Training\",\"Stims/Figures/44-J-10-3.bmp\",\"mama:na\",\"Down\",\"40\",\"8\",\"5\",\"5\",\"S\",\"C\",\"117\"
\"\",\"\",\"approach-retreat\",\"121\",\"841502\",\"0.0-121.0\",\"\",\"\",\"2-4\",\"4151\",\"40\",\"0\",\"Training\",\"Stims/Figures/111-C-30-3.bmp\",\"papata\",\"Down\",\"38\",\"8\",\"6\",\"5\",\"P\",\"C\",\"118\"
\"\",\"\",\"approach-retreat\",\"122\",\"847921\",\"0.0-122.0\",\"\",\"\",\"2-4\",\"4899\",\"39\",\"1\",\"Training\",\"Stims/Figures/71-J-0-1.bmp\",\"ma:lana\",\"Right\",\"39\",\"8\",\"7\",\"5\",\"S\",\"C\",\"119\"
\"\",\"\",\"approach-retreat\",\"123\",\"853605\",\"0.0-123.0\",\"\",\"\",\"2-4\",\"4159\",\"39\",\"0\",\"Training\",\"Stims/Figures/74-J-10-4.bmp\",\"nalala\",\"Left\",\"37\",\"8\",\"8\",\"5\",\"S\",\"C\",\"120\"
\"\",\"\",\"approach-retreat\",\"124\",\"861449\",\"0.0-124.0\",\"\",\"\",\"2-4\",\"6325\",\"39\",\"1\",\"Training\",\"Stims/Figures/102-C-20-4.bmp\",\"tapata\",\"Left\",\"39\",\"8\",\"9\",\"5\",\"P\",\"C\",\"121\"
\"\",\"\",\"approach-retreat\",\"125\",\"867031\",\"0.0-125.0\",\"\",\"\",\"2-4\",\"4058\",\"40\",\"1\",\"Training\",\"Stims/Figures/102-J-10-4.bmp\",\"nalana\",\"Down\",\"40\",\"8\",\"10\",\"5\",\"S\",\"C\",\"122\"
\"\",\"\",\"approach-retreat\",\"126\",\"875104\",\"0.0-126.0\",\"\",\"\",\"2-4\",\"6552\",\"38\",\"1\",\"Training\",\"Stims/Figures/118-J-0-2.bmp\",\"ma:mana\",\"Up\",\"38\",\"8\",\"11\",\"5\",\"S\",\"C\",\"123\"
\"\",\"\",\"approach-retreat\",\"127\",\"880711\",\"0.0-127.0\",\"\",\"\",\"2-4\",\"4093\",\"40\",\"1\",\"Training\",\"Stims/Figures/93-J-0-1.bmp\",\"na:mana\",\"Down\",\"40\",\"8\",\"12\",\"5\",\"S\",\"C\",\"124\"
\"\",\"\",\"approach-retreat\",\"128\",\"886557\",\"0.0-128.0\",\"\",\"\",\"2-4\",\"4320\",\"39\",\"0\",\"Training\",\"Stims/Figures/93-C-30-1.bmp\",\"taka:ka\",\"Right\",\"37\",\"8\",\"13\",\"5\",\"P\",\"C\",\"125\"
\"\",\"\",\"approach-retreat\",\"129\",\"894662\",\"0.0-129.0\",\"\",\"\",\"2-4\",\"6584\",\"40\",\"1\",\"Training\",\"Stims/Figures/85-C-20-2.bmp\",\"tapa:ta\",\"Up\",\"40\",\"8\",\"14\",\"5\",\"P\",\"C\",\"126\"
\"\",\"\",\"approach-retreat\",\"130\",\"900416\",\"0.0-130.0\",\"\",\"\",\"2-4\",\"4227\",\"37\",\"0\",\"Training\",\"Stims/Figures/111-J-10-3.bmp\",\"na:la:la\",\"Right\",\"39\",\"8\",\"15\",\"5\",\"S\",\"C\",\"127\"
\"\",\"\",\"approach-retreat\",\"131\",\"906097\",\"0.0-131.0\",\"\",\"\",\"2-4\",\"4159\",\"40\",\"1\",\"Training\",\"Stims/Figures/74-C-20-4.bmp\",\"ta:kata\",\"Up\",\"40\",\"8\",\"16\",\"5\",\"P\",\"C\",\"128\"
\"\",\"\",\"approach-retreat\",\"132\",\"911690\",\"0.0-132.0\",\"\",\"\",\"2-4\",\"4069\",\"40\",\"1\",\"Training\",\"Stims/Figures/102-J-10-4.bmp\",\"nalana\",\"Down\",\"40\",\"9\",\"1\",\"5\",\"S\",\"C\",\"129\"
\"\",\"\",\"approach-retreat\",\"133\",\"917346\",\"0.0-133.0\",\"\",\"\",\"2-4\",\"4144\",\"37\",\"1\",\"Training\",\"Stims/Figures/93-C-30-1.bmp\",\"taka:ka\",\"Right\",\"37\",\"9\",\"2\",\"5\",\"P\",\"C\",\"130\"
\"\",\"\",\"approach-retreat\",\"134\",\"922888\",\"0.0-134.0\",\"\",\"\",\"2-4\",\"4027\",\"37\",\"1\",\"Training\",\"Stims/Figures/111-C-30-3.bmp\",\"papata\",\"Right\",\"37\",\"9\",\"3\",\"5\",\"P\",\"C\",\"131\"
\"\",\"\",\"approach-retreat\",\"135\",\"928423\",\"0.0-135.0\",\"\",\"\",\"2-4\",\"4021\",\"37\",\"1\",\"Training\",\"Stims/Figures/85-C-20-2.bmp\",\"tapa:ta\",\"Right\",\"37\",\"9\",\"4\",\"5\",\"P\",\"C\",\"132\"
\"\",\"\",\"approach-retreat\",\"136\",\"934211\",\"0.0-136.0\",\"\",\"\",\"2-4\",\"4264\",\"37\",\"1\",\"Training\",\"Stims/Figures/44-J-10-3.bmp\",\"mama:na\",\"Left\",\"37\",\"9\",\"5\",\"5\",\"S\",\"C\",\"133\"
\"\",\"\",\"approach-retreat\",\"137\",\"939862\",\"0.0-137.0\",\"\",\"\",\"2-4\",\"4131\",\"39\",\"1\",\"Training\",\"Stims/Figures/44-C-30-3.bmp\",\"pa:pa:ka\",\"Left\",\"39\",\"9\",\"6\",\"5\",\"P\",\"C\",\"134\"
\"\",\"\",\"approach-retreat\",\"138\",\"945599\",\"0.0-138.0\",\"\",\"\",\"2-4\",\"4217\",\"37\",\"1\",\"Training\",\"Stims/Figures/118-J-0-2.bmp\",\"ma:mana\",\"Left\",\"37\",\"9\",\"7\",\"5\",\"S\",\"C\",\"135\"
\"\",\"\",\"approach-retreat\",\"139\",\"951253\",\"0.0-139.0\",\"\",\"\",\"2-4\",\"4126\",\"40\",\"1\",\"Training\",\"Stims/Figures/71-J-0-1.bmp\",\"ma:lana\",\"Down\",\"40\",\"9\",\"8\",\"5\",\"S\",\"C\",\"136\"
\"\",\"\",\"approach-retreat\",\"140\",\"956884\",\"0.0-140.0\",\"\",\"\",\"2-4\",\"4104\",\"38\",\"1\",\"Training\",\"Stims/Figures/74-J-10-4.bmp\",\"nalala\",\"Up\",\"38\",\"9\",\"9\",\"5\",\"S\",\"C\",\"137\"
\"\",\"\",\"approach-retreat\",\"141\",\"962472\",\"0.0-141.0\",\"\",\"\",\"2-4\",\"4075\",\"37\",\"1\",\"Training\",\"Stims/Figures/71-C-30-1.bmp\",\"tapa:ka\",\"Right\",\"37\",\"9\",\"10\",\"5\",\"P\",\"C\",\"138\"
\"\",\"\",\"approach-retreat\",\"142\",\"968011\",\"0.0-142.0\",\"\",\"\",\"2-4\",\"4027\",\"38\",\"1\",\"Training\",\"Stims/Figures/85-J-0-2.bmp\",\"nala:na\",\"Up\",\"38\",\"9\",\"11\",\"5\",\"S\",\"C\",\"139\"
\"\",\"\",\"approach-retreat\",\"143\",\"973602\",\"0.0-143.0\",\"\",\"\",\"2-4\",\"4070\",\"38\",\"1\",\"Training\",\"Stims/Figures/93-J-0-1.bmp\",\"na:mana\",\"Up\",\"38\",\"9\",\"12\",\"5\",\"S\",\"C\",\"140\"
\"\",\"\",\"approach-retreat\",\"144\",\"980269\",\"0.0-144.0\",\"\",\"\",\"2-4\",\"5149\",\"38\",\"1\",\"Training\",\"Stims/Figures/102-C-20-4.bmp\",\"tapata\",\"Down\",\"38\",\"9\",\"13\",\"5\",\"P\",\"C\",\"141\"
\"\",\"\",\"approach-retreat\",\"145\",\"985883\",\"0.0-145.0\",\"\",\"\",\"2-4\",\"4091\",\"40\",\"1\",\"Training\",\"Stims/Figures/74-C-20-4.bmp\",\"ta:kata\",\"Up\",\"40\",\"9\",\"14\",\"5\",\"P\",\"C\",\"142\"
\"\",\"\",\"approach-retreat\",\"146\",\"991447\",\"0.0-146.0\",\"\",\"\",\"2-4\",\"4052\",\"39\",\"1\",\"Training\",\"Stims/Figures/118-C-20-2.bmp\",\"pa:ka:ka\",\"Left\",\"39\",\"9\",\"15\",\"5\",\"P\",\"C\",\"143\"
\"\",\"\",\"approach-retreat\",\"147\",\"997049\",\"0.0-147.0\",\"\",\"\",\"2-4\",\"4080\",\"40\",\"1\",\"Training\",\"Stims/Figures/111-J-10-3.bmp\",\"na:la:la\",\"Down\",\"40\",\"9\",\"16\",\"5\",\"S\",\"C\",\"144\"
\"13233\",\"\",\"instructions\",\"148\",\"1010282\",\"0.0-148.0\",\"[{\"\"page_index\"\":0,\"\"viewing_time\"\":13232}]\",\"\",\"\",\"\",\"\",\"\",\"\",\"\",\"\",\"\",\"\",\"\",\"\",\"\",\"\",\"\",\"\"
\"\",\"\",\"approach-retreat\",\"149\",\"1016993\",\"0.0-149.0\",\"\",\"\",\"2-4\",\"5195\",\"40\",\"1\",\"Testing\",\"Stims/Figures/111-C-30-3.bmp\",\"papata\",\"Up\",\"40\",\"1\",\"1\",\"5\",\"P\",\"C\",\"1\"
\"\",\"\",\"approach-retreat\",\"150\",\"1022736\",\"0.0-150.0\",\"\",\"\",\"2-4\",\"4228\",\"37\",\"1\",\"Testing\",\"Stims/Figures/93-J-0-1.bmp\",\"na:mana\",\"Left\",\"37\",\"1\",\"2\",\"5\",\"S\",\"C\",\"2\"
\"\",\"\",\"approach-retreat\",\"151\",\"1029181\",\"0.0-151.0\",\"\",\"\",\"2-4\",\"4928\",\"39\",\"0\",\"Testing\",\"Stims/Figures/118-C-20-2.bmp\",\"pa:ka:ka\",\"Right\",\"37\",\"1\",\"3\",\"5\",\"P\",\"C\",\"3\"
\"\",\"\",\"approach-retreat\",\"152\",\"1035010\",\"0.0-152.0\",\"\",\"\",\"2-4\",\"4313\",\"40\",\"0\",\"Testing\",\"Stims/Figures/85-C-20-2.bmp\",\"tapa:ta\",\"Down\",\"38\",\"1\",\"4\",\"5\",\"P\",\"C\",\"4\"
\"\",\"\",\"approach-retreat\",\"153\",\"1040531\",\"0.0-153.0\",\"\",\"\",\"2-4\",\"4009\",\"40\",\"1\",\"Testing\",\"Stims/Figures/74-J-10-4.bmp\",\"nalala\",\"Down\",\"40\",\"1\",\"5\",\"5\",\"S\",\"C\",\"5\"
\"\",\"\",\"approach-retreat\",\"154\",\"1046502\",\"0.0-154.0\",\"\",\"\",\"2-4\",\"4451\",\"39\",\"1\",\"Testing\",\"Stims/Figures/44-J-10-3.bmp\",\"mama:na\",\"Right\",\"39\",\"1\",\"6\",\"5\",\"S\",\"C\",\"6\"
\"\",\"\",\"approach-retreat\",\"155\",\"1053606\",\"0.0-155.0\",\"\",\"\",\"2-4\",\"5586\",\"37\",\"1\",\"Testing\",\"Stims/Figures/128-J-10-3.bmp\",\"mamana\",\"Left\",\"37\",\"1\",\"7\",\"5\",\"S\",\"C\",\"7\"
\"\",\"\",\"approach-retreat\",\"156\",\"1059401\",\"0.0-156.0\",\"\",\"\",\"2-4\",\"4271\",\"39\",\"1\",\"Testing\",\"Stims/Figures/128-C-30-3.bmp\",\"papa:ta\",\"Left\",\"39\",\"1\",\"8\",\"5\",\"P\",\"C\",\"8\"
\"\",\"\",\"approach-retreat\",\"157\",\"1065062\",\"0.0-157.0\",\"\",\"\",\"2-4\",\"4151\",\"38\",\"1\",\"Testing\",\"Stims/Figures/27-C-30-1.bmp\",\"pa:kaka\",\"Down\",\"38\",\"1\",\"9\",\"5\",\"P\",\"C\",\"9\"
\"\",\"\",\"approach-retreat\",\"158\",\"1071122\",\"0.0-158.0\",\"\",\"\",\"2-4\",\"4546\",\"39\",\"1\",\"Testing\",\"Stims/Figures/71-J-0-1.bmp\",\"ma:lana\",\"Right\",\"39\",\"1\",\"10\",\"5\",\"S\",\"C\",\"10\"
\"\",\"\",\"approach-retreat\",\"159\",\"1076984\",\"0.0-159.0\",\"\",\"\",\"2-4\",\"4344\",\"40\",\"1\",\"Testing\",\"Stims/Figures/85-J-0-2.bmp\",\"nala:na\",\"Down\",\"40\",\"1\",\"11\",\"5\",\"S\",\"C\",\"11\"
\"\",\"\",\"approach-retreat\",\"160\",\"1082889\",\"0.0-160.0\",\"\",\"\",\"2-4\",\"4381\",\"37\",\"1\",\"Testing\",\"Stims/Figures/102-C-20-4.bmp\",\"tapata\",\"Right\",\"37\",\"1\",\"12\",\"5\",\"P\",\"C\",\"12\"
\"\",\"\",\"approach-retreat\",\"161\",\"1088847\",\"0.0-161.0\",\"\",\"\",\"2-4\",\"4442\",\"37\",\"1\",\"Testing\",\"Stims/Figures/71-C-30-1.bmp\",\"tapa:ka\",\"Right\",\"37\",\"1\",\"13\",\"5\",\"P\",\"C\",\"13\"
\"\",\"\",\"approach-retreat\",\"162\",\"1094804\",\"0.0-162.0\",\"\",\"\",\"2-4\",\"4453\",\"40\",\"1\",\"Testing\",\"Stims/Figures/139-C-20-2.bmp\",\"ta:pata\",\"Up\",\"40\",\"1\",\"14\",\"5\",\"P\",\"C\",\"14\"
\"\",\"\",\"approach-retreat\",\"163\",\"1100475\",\"0.0-163.0\",\"\",\"\",\"2-4\",\"4159\",\"38\",\"1\",\"Testing\",\"Stims/Figures/118-J-0-2.bmp\",\"ma:mana\",\"Up\",\"38\",\"1\",\"15\",\"5\",\"S\",\"C\",\"15\"
\"\",\"\",\"approach-retreat\",\"164\",\"1109548\",\"0.0-164.0\",\"\",\"\",\"2-4\",\"7548\",\"39\",\"0\",\"Testing\",\"Stims/Figures/44-C-30-3.bmp\",\"pa:pa:ka\",\"Right\",\"37\",\"1\",\"16\",\"5\",\"P\",\"C\",\"16\"
\"\",\"\",\"approach-retreat\",\"165\",\"1115225\",\"0.0-165.0\",\"\",\"\",\"2-4\",\"4161\",\"37\",\"1\",\"Testing\",\"Stims/Figures/87-J-10-4.bmp\",\"nama:na\",\"Left\",\"37\",\"1\",\"17\",\"5\",\"S\",\"C\",\"17\"
\"\",\"\",\"approach-retreat\",\"166\",\"1120889\",\"0.0-166.0\",\"\",\"\",\"2-4\",\"4149\",\"37\",\"1\",\"Testing\",\"Stims/Figures/139-J-0-2.bmp\",\"nama:la\",\"Left\",\"37\",\"1\",\"18\",\"5\",\"S\",\"C\",\"18\"
\"\",\"\",\"approach-retreat\",\"167\",\"1126554\",\"0.0-167.0\",\"\",\"\",\"2-4\",\"4141\",\"40\",\"1\",\"Testing\",\"Stims/Figures/93-C-30-1.bmp\",\"taka:ka\",\"Up\",\"40\",\"1\",\"19\",\"5\",\"P\",\"C\",\"19\"
\"\",\"\",\"approach-retreat\",\"168\",\"1132103\",\"0.0-168.0\",\"\",\"\",\"2-4\",\"4036\",\"37\",\"1\",\"Testing\",\"Stims/Figures/27-J-0-1.bmp\",\"malana\",\"Left\",\"37\",\"1\",\"20\",\"5\",\"S\",\"C\",\"20\"
\"\",\"\",\"approach-retreat\",\"169\",\"1137749\",\"0.0-169.0\",\"\",\"\",\"2-4\",\"4130\",\"40\",\"1\",\"Testing\",\"Stims/Figures/111-J-10-3.bmp\",\"na:la:la\",\"Down\",\"40\",\"1\",\"21\",\"5\",\"S\",\"C\",\"21\"
\"\",\"\",\"approach-retreat\",\"170\",\"1143958\",\"0.0-170.0\",\"\",\"\",\"2-4\",\"4693\",\"38\",\"0\",\"Testing\",\"Stims/Figures/74-C-20-4.bmp\",\"ta:kata\",\"Up\",\"40\",\"1\",\"22\",\"5\",\"P\",\"C\",\"22\"
\"\",\"\",\"approach-retreat\",\"171\",\"1149716\",\"0.0-171.0\",\"\",\"\",\"2-4\",\"4235\",\"38\",\"1\",\"Testing\",\"Stims/Figures/87-C-20-4.bmp\",\"pakata\",\"Down\",\"38\",\"1\",\"23\",\"5\",\"P\",\"C\",\"23\"
\"\",\"\",\"approach-retreat\",\"172\",\"1155256\",\"0.0-172.0\",\"\",\"\",\"2-4\",\"4030\",\"38\",\"1\",\"Testing\",\"Stims/Figures/102-J-10-4.bmp\",\"nalana\",\"Up\",\"38\",\"1\",\"24\",\"5\",\"S\",\"C\",\"24\"
\"\",\"\",\"approach-retreat\",\"173\",\"1160794\",\"0.0-173.0\",\"\",\"\",\"2-4\",\"4018\",\"38\",\"1\",\"Testing\",\"Stims/Figures/74-J-10-4.bmp\",\"nalala\",\"Up\",\"38\",\"2\",\"1\",\"5\",\"S\",\"C\",\"25\"
\"\",\"\",\"approach-retreat\",\"174\",\"1166722\",\"0.0-174.0\",\"\",\"\",\"2-4\",\"4418\",\"39\",\"1\",\"Testing\",\"Stims/Figures/27-J-0-1.bmp\",\"malana\",\"Right\",\"39\",\"2\",\"2\",\"5\",\"S\",\"C\",\"26\"
\"\",\"\",\"approach-retreat\",\"175\",\"1172368\",\"0.0-175.0\",\"\",\"\",\"2-4\",\"4126\",\"40\",\"1\",\"Testing\",\"Stims/Figures/118-J-0-2.bmp\",\"ma:mana\",\"Down\",\"40\",\"2\",\"3\",\"5\",\"S\",\"C\",\"27\"
\"\",\"\",\"approach-retreat\",\"176\",\"1178137\",\"0.0-176.0\",\"\",\"\",\"2-4\",\"4250\",\"39\",\"1\",\"Testing\",\"Stims/Figures/87-J-10-4.bmp\",\"nama:na\",\"Right\",\"39\",\"2\",\"4\",\"5\",\"S\",\"C\",\"28\"
\"\",\"\",\"approach-retreat\",\"177\",\"1183735\",\"0.0-177.0\",\"\",\"\",\"2-4\",\"4092\",\"39\",\"1\",\"Testing\",\"Stims/Figures/71-C-30-1.bmp\",\"tapa:ka\",\"Left\",\"39\",\"2\",\"5\",\"5\",\"P\",\"C\",\"29\"
\"\",\"\",\"approach-retreat\",\"178\",\"1189423\",\"0.0-178.0\",\"\",\"\",\"2-4\",\"4165\",\"39\",\"1\",\"Testing\",\"Stims/Figures/44-J-10-3.bmp\",\"mama:na\",\"Right\",\"39\",\"2\",\"6\",\"5\",\"S\",\"C\",\"30\"
\"\",\"\",\"approach-retreat\",\"179\",\"1195060\",\"0.0-179.0\",\"\",\"\",\"2-4\",\"4119\",\"40\",\"1\",\"Testing\",\"Stims/Figures/44-C-30-3.bmp\",\"pa:pa:ka\",\"Up\",\"40\",\"2\",\"7\",\"5\",\"P\",\"C\",\"31\"
\"\",\"\",\"approach-retreat\",\"180\",\"1200967\",\"0.0-180.0\",\"\",\"\",\"2-4\",\"4391\",\"40\",\"0\",\"Testing\",\"Stims/Figures/85-C-20-2.bmp\",\"tapa:ta\",\"Down\",\"38\",\"2\",\"8\",\"5\",\"P\",\"C\",\"32\"
\"\",\"\",\"approach-retreat\",\"181\",\"1208508\",\"0.0-181.0\",\"\",\"\",\"2-4\",\"6015\",\"38\",\"0\",\"Testing\",\"Stims/Figures/87-C-20-4.bmp\",\"pakata\",\"Up\",\"40\",\"2\",\"9\",\"5\",\"P\",\"C\",\"33\"
\"\",\"\",\"approach-retreat\",\"182\",\"1214088\",\"0.0-182.0\",\"\",\"\",\"2-4\",\"4069\",\"37\",\"1\",\"Testing\",\"Stims/Figures/102-J-10-4.bmp\",\"nalana\",\"Left\",\"37\",\"2\",\"10\",\"5\",\"S\",\"C\",\"34\"
\"\",\"\",\"approach-retreat\",\"183\",\"1219619\",\"0.0-183.0\",\"\",\"\",\"2-4\",\"4016\",\"37\",\"1\",\"Testing\",\"Stims/Figures/139-J-0-2.bmp\",\"nama:la\",\"Left\",\"37\",\"2\",\"11\",\"5\",\"S\",\"C\",\"35\"
\"\",\"\",\"approach-retreat\",\"184\",\"1225684\",\"0.0-184.0\",\"\",\"\",\"2-4\",\"4543\",\"38\",\"1\",\"Testing\",\"Stims/Figures/139-C-20-2.bmp\",\"ta:pata\",\"Down\",\"38\",\"2\",\"12\",\"5\",\"P\",\"C\",\"36\"
\"\",\"\",\"approach-retreat\",\"185\",\"1231425\",\"0.0-185.0\",\"\",\"\",\"2-4\",\"4220\",\"37\",\"1\",\"Testing\",\"Stims/Figures/93-C-30-1.bmp\",\"taka:ka\",\"Right\",\"37\",\"2\",\"13\",\"5\",\"P\",\"C\",\"37\"
\"\",\"\",\"approach-retreat\",\"186\",\"1237436\",\"0.0-186.0\",\"\",\"\",\"2-4\",\"4494\",\"40\",\"1\",\"Testing\",\"Stims/Figures/85-J-0-2.bmp\",\"nala:na\",\"Down\",\"40\",\"2\",\"14\",\"5\",\"S\",\"C\",\"38\"
\"\",\"\",\"approach-retreat\",\"187\",\"1243078\",\"0.0-187.0\",\"\",\"\",\"2-4\",\"4129\",\"37\",\"1\",\"Testing\",\"Stims/Figures/118-C-20-2.bmp\",\"pa:ka:ka\",\"Right\",\"37\",\"2\",\"15\",\"5\",\"P\",\"C\",\"39\"
\"\",\"\",\"approach-retreat\",\"188\",\"1248714\",\"0.0-188.0\",\"\",\"\",\"2-4\",\"4118\",\"40\",\"1\",\"Testing\",\"Stims/Figures/93-J-0-1.bmp\",\"na:mana\",\"Down\",\"40\",\"2\",\"16\",\"5\",\"S\",\"C\",\"40\"
\"\",\"\",\"approach-retreat\",\"189\",\"1254411\",\"0.0-189.0\",\"\",\"\",\"2-4\",\"4188\",\"37\",\"1\",\"Testing\",\"Stims/Figures/128-J-10-3.bmp\",\"mamana\",\"Left\",\"37\",\"2\",\"17\",\"5\",\"S\",\"C\",\"41\"
\"\",\"\",\"approach-retreat\",\"190\",\"1260442\",\"0.0-190.0\",\"\",\"\",\"2-4\",\"4513\",\"40\",\"1\",\"Testing\",\"Stims/Figures/128-C-30-3.bmp\",\"papa:ta\",\"Up\",\"40\",\"2\",\"18\",\"5\",\"P\",\"C\",\"42\"
\"\",\"\",\"approach-retreat\",\"191\",\"1266404\",\"0.0-191.0\",\"\",\"\",\"2-4\",\"4440\",\"39\",\"1\",\"Testing\",\"Stims/Figures/74-C-20-4.bmp\",\"ta:kata\",\"Left\",\"39\",\"2\",\"19\",\"5\",\"P\",\"C\",\"43\"
\"\",\"\",\"approach-retreat\",\"192\",\"1272168\",\"0.0-192.0\",\"\",\"\",\"2-4\",\"4244\",\"39\",\"0\",\"Testing\",\"Stims/Figures/102-C-20-4.bmp\",\"tapata\",\"Right\",\"37\",\"2\",\"20\",\"5\",\"P\",\"C\",\"44\"
\"\",\"\",\"approach-retreat\",\"193\",\"1277863\",\"0.0-193.0\",\"\",\"\",\"2-4\",\"4186\",\"37\",\"0\",\"Testing\",\"Stims/Figures/111-C-30-3.bmp\",\"papata\",\"Left\",\"39\",\"2\",\"21\",\"5\",\"P\",\"C\",\"45\"
\"\",\"\",\"approach-retreat\",\"194\",\"1283535\",\"0.0-194.0\",\"\",\"\",\"2-4\",\"4154\",\"40\",\"1\",\"Testing\",\"Stims/Figures/71-J-0-1.bmp\",\"ma:lana\",\"Down\",\"40\",\"2\",\"22\",\"5\",\"S\",\"C\",\"46\"
\"\",\"\",\"approach-retreat\",\"195\",\"1289619\",\"0.0-195.0\",\"\",\"\",\"2-4\",\"4572\",\"38\",\"1\",\"Testing\",\"Stims/Figures/111-J-10-3.bmp\",\"na:la:la\",\"Up\",\"38\",\"2\",\"23\",\"5\",\"S\",\"C\",\"47\"
\"\",\"\",\"approach-retreat\",\"196\",\"1295338\",\"0.0-196.0\",\"\",\"\",\"2-4\",\"4205\",\"40\",\"1\",\"Testing\",\"Stims/Figures/27-C-30-1.bmp\",\"pa:kaka\",\"Up\",\"40\",\"2\",\"24\",\"5\",\"P\",\"C\",\"48\"
\"\",\"\",\"approach-retreat\",\"197\",\"1300981\",\"0.0-197.0\",\"\",\"\",\"2-4\",\"4127\",\"39\",\"1\",\"Testing\",\"Stims/Figures/74-C-20-4.bmp\",\"ta:kata\",\"Left\",\"39\",\"3\",\"1\",\"5\",\"P\",\"C\",\"49\"
\"\",\"\",\"approach-retreat\",\"198\",\"1306593\",\"0.0-198.0\",\"\",\"\",\"2-4\",\"4093\",\"40\",\"1\",\"Testing\",\"Stims/Figures/87-C-20-4.bmp\",\"pakata\",\"Up\",\"40\",\"3\",\"2\",\"5\",\"P\",\"C\",\"50\"
\"\",\"\",\"approach-retreat\",\"199\",\"1312296\",\"0.0-199.0\",\"\",\"\",\"2-4\",\"4186\",\"37\",\"1\",\"Testing\",\"Stims/Figures/44-J-10-3.bmp\",\"mama:na\",\"Left\",\"37\",\"3\",\"3\",\"5\",\"S\",\"C\",\"51\"
\"\",\"\",\"approach-retreat\",\"200\",\"1317938\",\"0.0-200.0\",\"\",\"\",\"2-4\",\"4129\",\"39\",\"1\",\"Testing\",\"Stims/Figures/74-J-10-4.bmp\",\"nalala\",\"Right\",\"39\",\"3\",\"4\",\"5\",\"S\",\"C\",\"52\"
\"\",\"\",\"approach-retreat\",\"201\",\"1323507\",\"0.0-201.0\",\"\",\"\",\"2-4\",\"4055\",\"40\",\"1\",\"Testing\",\"Stims/Figures/111-C-30-3.bmp\",\"papata\",\"Up\",\"40\",\"3\",\"5\",\"5\",\"P\",\"C\",\"53\"
\"\",\"\",\"approach-retreat\",\"202\",\"1329490\",\"0.0-202.0\",\"\",\"\",\"2-4\",\"4467\",\"37\",\"0\",\"Testing\",\"Stims/Figures/118-C-20-2.bmp\",\"pa:ka:ka\",\"Left\",\"39\",\"3\",\"6\",\"5\",\"P\",\"C\",\"54\"
\"\",\"\",\"approach-retreat\",\"203\",\"1335169\",\"0.0-203.0\",\"\",\"\",\"2-4\",\"4162\",\"39\",\"1\",\"Testing\",\"Stims/Figures/102-J-10-4.bmp\",\"nalana\",\"Right\",\"39\",\"3\",\"7\",\"5\",\"S\",\"C\",\"55\"
\"\",\"\",\"approach-retreat\",\"204\",\"1340844\",\"0.0-204.0\",\"\",\"\",\"2-4\",\"4154\",\"40\",\"1\",\"Testing\",\"Stims/Figures/71-J-0-1.bmp\",\"ma:lana\",\"Down\",\"40\",\"3\",\"8\",\"5\",\"S\",\"C\",\"56\"
\"\",\"\",\"approach-retreat\",\"205\",\"1346435\",\"0.0-205.0\",\"\",\"\",\"2-4\",\"4081\",\"38\",\"0\",\"Testing\",\"Stims/Figures/85-C-20-2.bmp\",\"tapa:ta\",\"Up\",\"40\",\"3\",\"9\",\"5\",\"P\",\"C\",\"57\"
\"\",\"\",\"approach-retreat\",\"206\",\"1352028\",\"0.0-206.0\",\"\",\"\",\"2-4\",\"4082\",\"38\",\"1\",\"Testing\",\"Stims/Figures/27-C-30-1.bmp\",\"pa:kaka\",\"Down\",\"38\",\"3\",\"10\",\"5\",\"P\",\"C\",\"58\"
\"\",\"\",\"approach-retreat\",\"207\",\"1357716\",\"0.0-207.0\",\"\",\"\",\"2-4\",\"4176\",\"40\",\"1\",\"Testing\",\"Stims/Figures/118-J-0-2.bmp\",\"ma:mana\",\"Down\",\"40\",\"3\",\"11\",\"5\",\"S\",\"C\",\"59\"
\"\",\"\",\"approach-retreat\",\"208\",\"1363372\",\"0.0-208.0\",\"\",\"\",\"2-4\",\"4138\",\"40\",\"1\",\"Testing\",\"Stims/Figures/128-C-30-3.bmp\",\"papa:ta\",\"Up\",\"40\",\"3\",\"12\",\"5\",\"P\",\"C\",\"60\"
\"\",\"\",\"approach-retreat\",\"209\",\"1369028\",\"0.0-209.0\",\"\",\"\",\"2-4\",\"4132\",\"39\",\"1\",\"Testing\",\"Stims/Figures/44-C-30-3.bmp\",\"pa:pa:ka\",\"Left\",\"39\",\"3\",\"13\",\"5\",\"P\",\"C\",\"61\"
\"\",\"\",\"approach-retreat\",\"210\",\"1374671\",\"0.0-210.0\",\"\",\"\",\"2-4\",\"4129\",\"39\",\"1\",\"Testing\",\"Stims/Figures/139-J-0-2.bmp\",\"nama:la\",\"Right\",\"39\",\"3\",\"14\",\"5\",\"S\",\"C\",\"62\"
\"\",\"\",\"approach-retreat\",\"211\",\"1383225\",\"0.0-211.0\",\"\",\"\",\"2-4\",\"7044\",\"37\",\"1\",\"Testing\",\"Stims/Figures/93-C-30-1.bmp\",\"taka:ka\",\"Right\",\"37\",\"3\",\"15\",\"5\",\"P\",\"C\",\"63\"
\"\",\"\",\"approach-retreat\",\"212\",\"1389042\",\"0.0-212.0\",\"\",\"\",\"2-4\",\"4304\",\"40\",\"1\",\"Testing\",\"Stims/Figures/93-J-0-1.bmp\",\"na:mana\",\"Down\",\"40\",\"3\",\"16\",\"5\",\"S\",\"C\",\"64\"
\"\",\"\",\"approach-retreat\",\"213\",\"1394620\",\"0.0-213.0\",\"\",\"\",\"2-4\",\"4063\",\"38\",\"1\",\"Testing\",\"Stims/Figures/27-J-0-1.bmp\",\"malana\",\"Up\",\"38\",\"3\",\"17\",\"5\",\"S\",\"C\",\"65\"
\"\",\"\",\"approach-retreat\",\"214\",\"1401323\",\"0.0-214.0\",\"\",\"\",\"2-4\",\"5187\",\"39\",\"1\",\"Testing\",\"Stims/Figures/87-J-10-4.bmp\",\"nama:na\",\"Right\",\"39\",\"3\",\"18\",\"5\",\"S\",\"C\",\"66\"
\"\",\"\",\"approach-retreat\",\"215\",\"1407219\",\"0.0-215.0\",\"\",\"\",\"2-4\",\"4385\",\"38\",\"1\",\"Testing\",\"Stims/Figures/128-J-10-3.bmp\",\"mamana\",\"Up\",\"38\",\"3\",\"19\",\"5\",\"S\",\"C\",\"67\"
\"\",\"\",\"approach-retreat\",\"216\",\"1413339\",\"0.0-216.0\",\"\",\"\",\"2-4\",\"4610\",\"38\",\"1\",\"Testing\",\"Stims/Figures/71-C-30-1.bmp\",\"tapa:ka\",\"Down\",\"38\",\"3\",\"20\",\"5\",\"P\",\"C\",\"68\"
\"\",\"\",\"approach-retreat\",\"217\",\"1419193\",\"0.0-217.0\",\"\",\"\",\"2-4\",\"4341\",\"39\",\"1\",\"Testing\",\"Stims/Figures/139-C-20-2.bmp\",\"ta:pata\",\"Left\",\"39\",\"3\",\"21\",\"5\",\"P\",\"C\",\"69\"
\"\",\"\",\"approach-retreat\",\"218\",\"1424976\",\"0.0-218.0\",\"\",\"\",\"2-4\",\"4261\",\"39\",\"1\",\"Testing\",\"Stims/Figures/102-C-20-4.bmp\",\"tapata\",\"Left\",\"39\",\"3\",\"22\",\"5\",\"P\",\"C\",\"70\"
\"\",\"\",\"approach-retreat\",\"219\",\"1430855\",\"0.0-219.0\",\"\",\"\",\"2-4\",\"4365\",\"40\",\"1\",\"Testing\",\"Stims/Figures/111-J-10-3.bmp\",\"na:la:la\",\"Down\",\"40\",\"3\",\"23\",\"5\",\"S\",\"C\",\"71\"
\"\",\"\",\"approach-retreat\",\"220\",\"1436492\",\"0.0-220.0\",\"\",\"\",\"2-4\",\"4125\",\"39\",\"1\",\"Testing\",\"Stims/Figures/85-J-0-2.bmp\",\"nala:na\",\"Right\",\"39\",\"3\",\"24\",\"5\",\"S\",\"C\",\"72\"
\"\",\"\",\"approach-retreat\",\"221\",\"1442444\",\"0.0-221.0\",\"\",\"\",\"2-4\",\"4435\",\"38\",\"1\",\"Testing\",\"Stims/Figures/74-J-10-4.bmp\",\"nalala\",\"Up\",\"38\",\"4\",\"1\",\"5\",\"S\",\"C\",\"73\"
\"\",\"\",\"approach-retreat\",\"222\",\"1448671\",\"0.0-222.0\",\"\",\"\",\"2-4\",\"4707\",\"39\",\"1\",\"Testing\",\"Stims/Figures/71-C-30-1.bmp\",\"tapa:ka\",\"Left\",\"39\",\"4\",\"2\",\"5\",\"P\",\"C\",\"74\"
\"\",\"\",\"approach-retreat\",\"223\",\"1454543\",\"0.0-223.0\",\"\",\"\",\"2-4\",\"4360\",\"38\",\"1\",\"Testing\",\"Stims/Figures/85-J-0-2.bmp\",\"nala:na\",\"Up\",\"38\",\"4\",\"3\",\"5\",\"S\",\"C\",\"75\"
\"\",\"\",\"approach-retreat\",\"224\",\"1460419\",\"0.0-224.0\",\"\",\"\",\"2-4\",\"4362\",\"37\",\"1\",\"Testing\",\"Stims/Figures/139-J-0-2.bmp\",\"nama:la\",\"Left\",\"37\",\"4\",\"4\",\"5\",\"S\",\"C\",\"76\"
\"\",\"\",\"approach-retreat\",\"225\",\"1467168\",\"0.0-225.0\",\"\",\"\",\"2-4\",\"5223\",\"40\",\"1\",\"Testing\",\"Stims/Figures/71-J-0-1.bmp\",\"ma:lana\",\"Down\",\"40\",\"4\",\"5\",\"5\",\"S\",\"C\",\"77\"
\"\",\"\",\"approach-retreat\",\"226\",\"1473034\",\"0.0-226.0\",\"\",\"\",\"2-4\",\"4355\",\"37\",\"1\",\"Testing\",\"Stims/Figures/102-C-20-4.bmp\",\"tapata\",\"Right\",\"37\",\"4\",\"6\",\"5\",\"P\",\"C\",\"78\"
\"\",\"\",\"approach-retreat\",\"227\",\"1478588\",\"0.0-227.0\",\"\",\"\",\"2-4\",\"4045\",\"38\",\"1\",\"Testing\",\"Stims/Figures/44-C-30-3.bmp\",\"pa:pa:ka\",\"Down\",\"38\",\"4\",\"7\",\"5\",\"P\",\"C\",\"79\"
\"\",\"\",\"approach-retreat\",\"228\",\"1484131\",\"0.0-228.0\",\"\",\"\",\"2-4\",\"4031\",\"37\",\"1\",\"Testing\",\"Stims/Figures/111-J-10-3.bmp\",\"na:la:la\",\"Left\",\"37\",\"4\",\"8\",\"5\",\"S\",\"C\",\"80\"
\"\",\"\",\"approach-retreat\",\"229\",\"1489792\",\"0.0-229.0\",\"\",\"\",\"2-4\",\"4150\",\"38\",\"1\",\"Testing\",\"Stims/Figures/139-C-20-2.bmp\",\"ta:pata\",\"Down\",\"38\",\"4\",\"9\",\"5\",\"P\",\"C\",\"81\"
\"\",\"\",\"approach-retreat\",\"230\",\"1495663\",\"0.0-230.0\",\"\",\"\",\"2-4\",\"4351\",\"37\",\"1\",\"Testing\",\"Stims/Figures/111-C-30-3.bmp\",\"papata\",\"Right\",\"37\",\"4\",\"10\",\"5\",\"P\",\"C\",\"82\"
\"\",\"\",\"approach-retreat\",\"231\",\"1501570\",\"0.0-231.0\",\"\",\"\",\"2-4\",\"4397\",\"38\",\"1\",\"Testing\",\"Stims/Figures/44-J-10-3.bmp\",\"mama:na\",\"Up\",\"38\",\"4\",\"11\",\"5\",\"S\",\"C\",\"83\"
\"\",\"\",\"approach-retreat\",\"232\",\"1507764\",\"0.0-232.0\",\"\",\"\",\"2-4\",\"4678\",\"38\",\"1\",\"Testing\",\"Stims/Figures/102-J-10-4.bmp\",\"nalana\",\"Up\",\"38\",\"4\",\"12\",\"5\",\"S\",\"C\",\"84\"
\"\",\"\",\"approach-retreat\",\"233\",\"1514004\",\"0.0-233.0\",\"\",\"\",\"2-4\",\"4715\",\"37\",\"0\",\"Testing\",\"Stims/Figures/87-J-10-4.bmp\",\"nama:na\",\"Right\",\"39\",\"4\",\"13\",\"5\",\"S\",\"C\",\"85\"
\"\",\"\",\"approach-retreat\",\"234\",\"1519984\",\"0.0-234.0\",\"\",\"\",\"2-4\",\"4469\",\"39\",\"1\",\"Testing\",\"Stims/Figures/74-C-20-4.bmp\",\"ta:kata\",\"Left\",\"39\",\"4\",\"14\",\"5\",\"P\",\"C\",\"86\"
\"\",\"\",\"approach-retreat\",\"235\",\"1527520\",\"0.0-235.0\",\"\",\"\",\"2-4\",\"6027\",\"38\",\"0\",\"Testing\",\"Stims/Figures/118-C-20-2.bmp\",\"pa:ka:ka\",\"Up\",\"40\",\"4\",\"15\",\"5\",\"P\",\"C\",\"87\"
\"\",\"\",\"approach-retreat\",\"236\",\"1533753\",\"0.0-236.0\",\"\",\"\",\"2-4\",\"4712\",\"38\",\"1\",\"Testing\",\"Stims/Figures/93-C-30-1.bmp\",\"taka:ka\",\"Down\",\"38\",\"4\",\"16\",\"5\",\"P\",\"C\",\"88\"
\"\",\"\",\"approach-retreat\",\"237\",\"1539958\",\"0.0-237.0\",\"\",\"\",\"2-4\",\"4683\",\"39\",\"1\",\"Testing\",\"Stims/Figures/27-C-30-1.bmp\",\"pa:kaka\",\"Left\",\"39\",\"4\",\"17\",\"5\",\"P\",\"C\",\"89\"
\"\",\"\",\"approach-retreat\",\"238\",\"1546496\",\"0.0-238.0\",\"\",\"\",\"2-4\",\"5028\",\"40\",\"1\",\"Testing\",\"Stims/Figures/118-J-0-2.bmp\",\"ma:mana\",\"Down\",\"40\",\"4\",\"18\",\"5\",\"S\",\"C\",\"90\"
\"\",\"\",\"approach-retreat\",\"239\",\"1552440\",\"0.0-239.0\",\"\",\"\",\"2-4\",\"4431\",\"40\",\"1\",\"Testing\",\"Stims/Figures/93-J-0-1.bmp\",\"na:mana\",\"Down\",\"40\",\"4\",\"19\",\"5\",\"S\",\"C\",\"91\"
\"\",\"\",\"approach-retreat\",\"240\",\"1559695\",\"0.0-240.0\",\"\",\"\",\"2-4\",\"5731\",\"37\",\"1\",\"Testing\",\"Stims/Figures/85-C-20-2.bmp\",\"tapa:ta\",\"Right\",\"37\",\"4\",\"20\",\"5\",\"P\",\"C\",\"92\"
\"\",\"\",\"approach-retreat\",\"241\",\"1565613\",\"0.0-241.0\",\"\",\"\",\"2-4\",\"4404\",\"38\",\"1\",\"Testing\",\"Stims/Figures/27-J-0-1.bmp\",\"malana\",\"Up\",\"38\",\"4\",\"21\",\"5\",\"S\",\"C\",\"93\"
\"\",\"\",\"approach-retreat\",\"242\",\"1571406\",\"0.0-242.0\",\"\",\"\",\"2-4\",\"4271\",\"37\",\"1\",\"Testing\",\"Stims/Figures/128-C-30-3.bmp\",\"papa:ta\",\"Right\",\"37\",\"4\",\"22\",\"5\",\"P\",\"C\",\"94\"
\"\",\"\",\"approach-retreat\",\"243\",\"1578475\",\"0.0-243.0\",\"\",\"\",\"2-4\",\"5554\",\"37\",\"1\",\"Testing\",\"Stims/Figures/87-C-20-4.bmp\",\"pakata\",\"Right\",\"37\",\"4\",\"23\",\"5\",\"P\",\"C\",\"95\"
\"\",\"\",\"approach-retreat\",\"244\",\"1584123\",\"0.0-244.0\",\"\",\"\",\"2-4\",\"4121\",\"37\",\"1\",\"Testing\",\"Stims/Figures/128-J-10-3.bmp\",\"mamana\",\"Left\",\"37\",\"4\",\"24\",\"5\",\"S\",\"C\",\"96\"
\"17754\",\"\",\"survey-text\",\"245\",\"1601883\",\"0.0-245.0\",\"\",\"{\"\"Q0\"\":\"\"PS160061\"\"}\",\"\",\"\",\"\",\"\",\"\",\"\",\"\",\"\",\"\",\"\",\"\",\"\",\"\",\"\",\"\"
