\"rt\",\"key_press\",\"trial_type\",\"trial_index\",\"time_elapsed\",\"internal_node_id\",\"view_history\",\"responses\",\"Id\",\"Rt\",\"ResKeyCode\",\"ResCorr\",\"TrialType2\",\"Image\",\"Label\",\"Location\",\"CorrectResponse\",\"Block\",\"BlockTrial\",\"Condition\",\"LabelType\",\"Subcondition\",\"trialNum\"
\"663265\",\"32\",\"text\",\"0\",\"663269\",\"0.0-0.0-0.0\",\"\",\"\",\"\",\"\",\"\",\"\",\"\",\"\",\"\",\"\",\"\",\"\",\"\",\"\",\"\",\"\",\"\"
\"105077\",\"\",\"instructions\",\"1\",\"768347\",\"0.0-1.0\",\"[{\"\"page_index\"\":0,\"\"viewing_time\"\":105075}]\",\"\",\"\",\"\",\"\",\"\",\"\",\"\",\"\",\"\",\"\",\"\",\"\",\"\",\"\",\"\",\"\"
\"26371\",\"\",\"survey-multi-choice\",\"2\",\"794817\",\"0.0-2.0\",\"\",\"{\"\"Q0\"\":\"\"Da\"\",\"\"Q1\"\":\"\"Da\"\",\"\"Q2\"\":\"\"Da\"\",\"\"Q3\"\":\"\"Da\"\",\"\"Q4\"\":\"\"Da\"\",\"\"Q5\"\":\"\"Da\"\"}\",\"\",\"\",\"\",\"\",\"\",\"\",\"\",\"\",\"\",\"\",\"\",\"\",\"\",\"\",\"\"
\"\",\"\",\"bio\",\"3\",\"802423\",\"0.0-3.0\",\"\",\"{\"\"age\"\":\"\"19\"\",\"\"gender\"\":\"\"f\"\",\"\"specify\"\":\"\"\"\"}\",\"\",\"\",\"\",\"\",\"\",\"\",\"\",\"\",\"\",\"\",\"\",\"\",\"\",\"\",\"\"
\"\",\"\",\"approach-retreat\",\"4\",\"809533\",\"0.0-4.0\",\"\",\"\",\"1-1\",\"5590\",\"39\",\"1\",\"Training\",\"Stims/Figures/57-J-0-1.bmp\",\"za:sa:za\",\"Left\",\"39\",\"1\",\"1\",\"3B\",\"C2\",\"J\",\"1\"
\"\",\"\",\"approach-retreat\",\"5\",\"818725\",\"0.0-5.0\",\"\",\"\",\"1-1\",\"7678\",\"40\",\"1\",\"Training\",\"Stims/Figures/71-J-0-1.bmp\",\"za:sa:za\",\"Up\",\"40\",\"1\",\"2\",\"3B\",\"C2\",\"J\",\"2\"
\"\",\"\",\"approach-retreat\",\"6\",\"825024\",\"0.0-6.0\",\"\",\"\",\"1-1\",\"4788\",\"37\",\"0\",\"Training\",\"Stims/Figures/84-C-20-2.bmp\",\"fafasha\",\"Right\",\"39\",\"1\",\"3\",\"3B\",\"C1\",\"J\",\"3\"
\"\",\"\",\"approach-retreat\",\"7\",\"832857\",\"0.0-7.0\",\"\",\"\",\"1-1\",\"6320\",\"37\",\"1\",\"Training\",\"Stims/Figures/57-C-30-1.bmp\",\"fafasha\",\"Left\",\"37\",\"1\",\"4\",\"3B\",\"C1\",\"J\",\"4\"
\"\",\"\",\"approach-retreat\",\"8\",\"839444\",\"0.0-8.0\",\"\",\"\",\"1-1\",\"5075\",\"37\",\"1\",\"Training\",\"Stims/Figures/111-C-30-3.bmp\",\"fafasha\",\"Left\",\"37\",\"1\",\"5\",\"3B\",\"C1\",\"J\",\"5\"
\"\",\"\",\"approach-retreat\",\"9\",\"845486\",\"0.0-9.0\",\"\",\"\",\"1-1\",\"4530\",\"40\",\"1\",\"Training\",\"Stims/Figures/19-C-20-4.bmp\",\"fafasha\",\"Down\",\"40\",\"1\",\"6\",\"3B\",\"C1\",\"J\",\"6\"
\"\",\"\",\"approach-retreat\",\"10\",\"851395\",\"0.0-10.0\",\"\",\"\",\"1-1\",\"4395\",\"40\",\"1\",\"Training\",\"Stims/Figures/94-J-0-2.bmp\",\"za:sa:za\",\"Up\",\"40\",\"1\",\"7\",\"3B\",\"C2\",\"J\",\"7\"
\"\",\"\",\"approach-retreat\",\"11\",\"857503\",\"0.0-11.0\",\"\",\"\",\"1-1\",\"4596\",\"38\",\"1\",\"Training\",\"Stims/Figures/44-J-10-3.bmp\",\"za:sa:za\",\"Down\",\"38\",\"1\",\"8\",\"3B\",\"C2\",\"J\",\"8\"
\"\",\"\",\"approach-retreat\",\"12\",\"865246\",\"0.0-12.0\",\"\",\"\",\"1-1\",\"6229\",\"40\",\"1\",\"Training\",\"Stims/Figures/94-C-20-2.bmp\",\"fafasha\",\"Down\",\"40\",\"1\",\"9\",\"3B\",\"C1\",\"J\",\"9\"
\"\",\"\",\"approach-retreat\",\"13\",\"871452\",\"0.0-13.0\",\"\",\"\",\"1-1\",\"4695\",\"38\",\"1\",\"Training\",\"Stims/Figures/102-C-20-4.bmp\",\"fafasha\",\"Up\",\"38\",\"1\",\"10\",\"3B\",\"C1\",\"J\",\"10\"
\"\",\"\",\"approach-retreat\",\"14\",\"877500\",\"0.0-14.0\",\"\",\"\",\"1-1\",\"4533\",\"38\",\"1\",\"Training\",\"Stims/Figures/71-C-30-1.bmp\",\"fafasha\",\"Up\",\"38\",\"1\",\"11\",\"3B\",\"C1\",\"J\",\"11\"
\"\",\"\",\"approach-retreat\",\"15\",\"883429\",\"0.0-15.0\",\"\",\"\",\"1-1\",\"4417\",\"37\",\"1\",\"Training\",\"Stims/Figures/84-J-0-2.bmp\",\"za:sa:za\",\"Right\",\"37\",\"1\",\"12\",\"3B\",\"C2\",\"J\",\"12\"
\"\",\"\",\"approach-retreat\",\"16\",\"889169\",\"0.0-16.0\",\"\",\"\",\"1-1\",\"4229\",\"37\",\"1\",\"Training\",\"Stims/Figures/111-J-10-3.bmp\",\"za:sa:za\",\"Right\",\"37\",\"1\",\"13\",\"3B\",\"C2\",\"J\",\"13\"
\"\",\"\",\"approach-retreat\",\"17\",\"895731\",\"0.0-17.0\",\"\",\"\",\"1-1\",\"5049\",\"39\",\"1\",\"Training\",\"Stims/Figures/19-J-10-4.bmp\",\"za:sa:za\",\"Left\",\"39\",\"1\",\"14\",\"3B\",\"C2\",\"J\",\"14\"
\"\",\"\",\"approach-retreat\",\"18\",\"901652\",\"0.0-18.0\",\"\",\"\",\"1-1\",\"4409\",\"39\",\"1\",\"Training\",\"Stims/Figures/44-C-30-3.bmp\",\"fafasha\",\"Right\",\"39\",\"1\",\"15\",\"3B\",\"C1\",\"J\",\"15\"
\"\",\"\",\"approach-retreat\",\"19\",\"908055\",\"0.0-19.0\",\"\",\"\",\"1-1\",\"4893\",\"38\",\"1\",\"Training\",\"Stims/Figures/102-J-10-4.bmp\",\"za:sa:za\",\"Down\",\"38\",\"1\",\"16\",\"3B\",\"C2\",\"J\",\"16\"
\"\",\"\",\"approach-retreat\",\"20\",\"913790\",\"0.0-20.0\",\"\",\"\",\"1-1\",\"4222\",\"38\",\"1\",\"Training\",\"Stims/Figures/84-C-20-2.bmp\",\"fafasha\",\"Up\",\"38\",\"2\",\"1\",\"3B\",\"C1\",\"J\",\"17\"
\"\",\"\",\"approach-retreat\",\"21\",\"919318\",\"0.0-21.0\",\"\",\"\",\"1-1\",\"4016\",\"40\",\"0\",\"Training\",\"Stims/Figures/44-C-30-3.bmp\",\"fafasha\",\"Up\",\"38\",\"2\",\"2\",\"3B\",\"C1\",\"J\",\"18\"
\"\",\"\",\"approach-retreat\",\"22\",\"925445\",\"0.0-22.0\",\"\",\"\",\"1-1\",\"4616\",\"38\",\"1\",\"Training\",\"Stims/Figures/19-J-10-4.bmp\",\"za:sa:za\",\"Down\",\"38\",\"2\",\"3\",\"3B\",\"C2\",\"J\",\"19\"
\"\",\"\",\"approach-retreat\",\"23\",\"931209\",\"0.0-23.0\",\"\",\"\",\"1-1\",\"4247\",\"38\",\"1\",\"Training\",\"Stims/Figures/102-J-10-4.bmp\",\"za:sa:za\",\"Down\",\"38\",\"2\",\"4\",\"3B\",\"C2\",\"J\",\"20\"
\"\",\"\",\"approach-retreat\",\"24\",\"937441\",\"0.0-24.0\",\"\",\"\",\"1-1\",\"4720\",\"38\",\"1\",\"Training\",\"Stims/Figures/111-C-30-3.bmp\",\"fafasha\",\"Up\",\"38\",\"2\",\"5\",\"3B\",\"C1\",\"J\",\"21\"
\"\",\"\",\"approach-retreat\",\"25\",\"943379\",\"0.0-25.0\",\"\",\"\",\"1-1\",\"4426\",\"37\",\"1\",\"Training\",\"Stims/Figures/102-C-20-4.bmp\",\"fafasha\",\"Left\",\"37\",\"2\",\"6\",\"3B\",\"C1\",\"J\",\"22\"
\"\",\"\",\"approach-retreat\",\"26\",\"949118\",\"0.0-26.0\",\"\",\"\",\"1-1\",\"4226\",\"37\",\"1\",\"Training\",\"Stims/Figures/94-C-20-2.bmp\",\"fafasha\",\"Left\",\"37\",\"2\",\"7\",\"3B\",\"C1\",\"J\",\"23\"
\"\",\"\",\"approach-retreat\",\"27\",\"954908\",\"0.0-27.0\",\"\",\"\",\"1-1\",\"4279\",\"40\",\"0\",\"Training\",\"Stims/Figures/71-J-0-1.bmp\",\"za:sa:za\",\"Down\",\"38\",\"2\",\"8\",\"3B\",\"C2\",\"J\",\"24\"
\"\",\"\",\"approach-retreat\",\"28\",\"960666\",\"0.0-28.0\",\"\",\"\",\"1-1\",\"4247\",\"40\",\"1\",\"Training\",\"Stims/Figures/71-C-30-1.bmp\",\"fafasha\",\"Down\",\"40\",\"2\",\"9\",\"3B\",\"C1\",\"J\",\"25\"
\"\",\"\",\"approach-retreat\",\"29\",\"966415\",\"0.0-29.0\",\"\",\"\",\"1-1\",\"4236\",\"37\",\"1\",\"Training\",\"Stims/Figures/57-C-30-1.bmp\",\"fafasha\",\"Left\",\"37\",\"2\",\"10\",\"3B\",\"C1\",\"J\",\"26\"
\"\",\"\",\"approach-retreat\",\"30\",\"972538\",\"0.0-30.0\",\"\",\"\",\"1-1\",\"4614\",\"39\",\"1\",\"Training\",\"Stims/Figures/44-J-10-3.bmp\",\"za:sa:za\",\"Left\",\"39\",\"2\",\"11\",\"3B\",\"C2\",\"J\",\"27\"
\"\",\"\",\"approach-retreat\",\"31\",\"979298\",\"0.0-31.0\",\"\",\"\",\"1-1\",\"5249\",\"37\",\"1\",\"Training\",\"Stims/Figures/111-J-10-3.bmp\",\"za:sa:za\",\"Right\",\"37\",\"2\",\"12\",\"3B\",\"C2\",\"J\",\"28\"
\"\",\"\",\"approach-retreat\",\"32\",\"985074\",\"0.0-32.0\",\"\",\"\",\"1-1\",\"4265\",\"40\",\"1\",\"Training\",\"Stims/Figures/84-J-0-2.bmp\",\"za:sa:za\",\"Up\",\"40\",\"2\",\"13\",\"3B\",\"C2\",\"J\",\"29\"
\"\",\"\",\"approach-retreat\",\"33\",\"990712\",\"0.0-33.0\",\"\",\"\",\"1-1\",\"4128\",\"37\",\"1\",\"Training\",\"Stims/Figures/94-J-0-2.bmp\",\"za:sa:za\",\"Right\",\"37\",\"2\",\"14\",\"3B\",\"C2\",\"J\",\"30\"
\"\",\"\",\"approach-retreat\",\"34\",\"996405\",\"0.0-34.0\",\"\",\"\",\"1-1\",\"4180\",\"39\",\"1\",\"Training\",\"Stims/Figures/19-C-20-4.bmp\",\"fafasha\",\"Right\",\"39\",\"2\",\"15\",\"3B\",\"C1\",\"J\",\"31\"
\"\",\"\",\"approach-retreat\",\"35\",\"1001989\",\"0.0-35.0\",\"\",\"\",\"1-1\",\"4074\",\"37\",\"1\",\"Training\",\"Stims/Figures/57-J-0-1.bmp\",\"za:sa:za\",\"Right\",\"37\",\"2\",\"16\",\"3B\",\"C2\",\"J\",\"32\"
\"\",\"\",\"approach-retreat\",\"36\",\"1007696\",\"0.0-36.0\",\"\",\"\",\"1-1\",\"4197\",\"40\",\"1\",\"Training\",\"Stims/Figures/44-C-30-3.bmp\",\"fafasha\",\"Down\",\"40\",\"3\",\"1\",\"3B\",\"C1\",\"J\",\"33\"
\"\",\"\",\"approach-retreat\",\"37\",\"1013565\",\"0.0-37.0\",\"\",\"\",\"1-1\",\"4357\",\"38\",\"1\",\"Training\",\"Stims/Figures/71-J-0-1.bmp\",\"za:sa:za\",\"Down\",\"38\",\"3\",\"2\",\"3B\",\"C2\",\"J\",\"34\"
\"\",\"\",\"approach-retreat\",\"38\",\"1019361\",\"0.0-38.0\",\"\",\"\",\"1-1\",\"4283\",\"38\",\"1\",\"Training\",\"Stims/Figures/71-C-30-1.bmp\",\"fafasha\",\"Up\",\"38\",\"3\",\"3\",\"3B\",\"C1\",\"J\",\"35\"
\"\",\"\",\"approach-retreat\",\"39\",\"1025701\",\"0.0-39.0\",\"\",\"\",\"1-1\",\"4827\",\"37\",\"1\",\"Training\",\"Stims/Figures/102-J-10-4.bmp\",\"za:sa:za\",\"Right\",\"37\",\"3\",\"4\",\"3B\",\"C2\",\"J\",\"36\"
\"\",\"\",\"approach-retreat\",\"40\",\"1031409\",\"0.0-40.0\",\"\",\"\",\"1-1\",\"4196\",\"40\",\"1\",\"Training\",\"Stims/Figures/111-J-10-3.bmp\",\"za:sa:za\",\"Up\",\"40\",\"3\",\"5\",\"3B\",\"C2\",\"J\",\"37\"
\"\",\"\",\"approach-retreat\",\"41\",\"1037110\",\"0.0-41.0\",\"\",\"\",\"1-1\",\"4187\",\"39\",\"1\",\"Training\",\"Stims/Figures/84-J-0-2.bmp\",\"za:sa:za\",\"Left\",\"39\",\"3\",\"6\",\"3B\",\"C2\",\"J\",\"38\"
\"\",\"\",\"approach-retreat\",\"42\",\"1043012\",\"0.0-42.0\",\"\",\"\",\"1-1\",\"4390\",\"37\",\"1\",\"Training\",\"Stims/Figures/111-C-30-3.bmp\",\"fafasha\",\"Left\",\"37\",\"3\",\"7\",\"3B\",\"C1\",\"J\",\"39\"
\"\",\"\",\"approach-retreat\",\"43\",\"1048552\",\"0.0-43.0\",\"\",\"\",\"1-1\",\"4029\",\"37\",\"1\",\"Training\",\"Stims/Figures/102-C-20-4.bmp\",\"fafasha\",\"Left\",\"37\",\"3\",\"8\",\"3B\",\"C1\",\"J\",\"40\"
\"\",\"\",\"approach-retreat\",\"44\",\"1054347\",\"0.0-44.0\",\"\",\"\",\"1-1\",\"4283\",\"37\",\"1\",\"Training\",\"Stims/Figures/57-C-30-1.bmp\",\"fafasha\",\"Left\",\"37\",\"3\",\"9\",\"3B\",\"C1\",\"J\",\"41\"
\"\",\"\",\"approach-retreat\",\"45\",\"1060059\",\"0.0-45.0\",\"\",\"\",\"1-1\",\"4199\",\"40\",\"1\",\"Training\",\"Stims/Figures/44-J-10-3.bmp\",\"za:sa:za\",\"Up\",\"40\",\"3\",\"10\",\"3B\",\"C2\",\"J\",\"42\"
\"\",\"\",\"approach-retreat\",\"46\",\"1066344\",\"0.0-46.0\",\"\",\"\",\"1-1\",\"4773\",\"40\",\"1\",\"Training\",\"Stims/Figures/84-C-20-2.bmp\",\"fafasha\",\"Down\",\"40\",\"3\",\"11\",\"3B\",\"C1\",\"J\",\"43\"
\"\",\"\",\"approach-retreat\",\"47\",\"1072593\",\"0.0-47.0\",\"\",\"\",\"1-1\",\"4736\",\"39\",\"1\",\"Training\",\"Stims/Figures/19-C-20-4.bmp\",\"fafasha\",\"Right\",\"39\",\"3\",\"12\",\"3B\",\"C1\",\"J\",\"44\"
\"\",\"\",\"approach-retreat\",\"48\",\"1078359\",\"0.0-48.0\",\"\",\"\",\"1-1\",\"4254\",\"40\",\"1\",\"Training\",\"Stims/Figures/19-J-10-4.bmp\",\"za:sa:za\",\"Up\",\"40\",\"3\",\"13\",\"3B\",\"C2\",\"J\",\"45\"
\"\",\"\",\"approach-retreat\",\"49\",\"1085595\",\"0.0-49.0\",\"\",\"\",\"1-1\",\"5725\",\"39\",\"1\",\"Training\",\"Stims/Figures/94-C-20-2.bmp\",\"fafasha\",\"Right\",\"39\",\"3\",\"14\",\"3B\",\"C1\",\"J\",\"46\"
\"\",\"\",\"approach-retreat\",\"50\",\"1091428\",\"0.0-50.0\",\"\",\"\",\"1-1\",\"4320\",\"37\",\"1\",\"Training\",\"Stims/Figures/94-J-0-2.bmp\",\"za:sa:za\",\"Right\",\"37\",\"3\",\"15\",\"3B\",\"C2\",\"J\",\"47\"
\"\",\"\",\"approach-retreat\",\"51\",\"1097723\",\"0.0-51.0\",\"\",\"\",\"1-1\",\"4785\",\"38\",\"1\",\"Training\",\"Stims/Figures/57-J-0-1.bmp\",\"za:sa:za\",\"Down\",\"38\",\"3\",\"16\",\"3B\",\"C2\",\"J\",\"48\"
\"\",\"\",\"approach-retreat\",\"52\",\"1103901\",\"0.0-52.0\",\"\",\"\",\"1-1\",\"4667\",\"37\",\"1\",\"Training\",\"Stims/Figures/19-J-10-4.bmp\",\"za:sa:za\",\"Right\",\"37\",\"4\",\"1\",\"3B\",\"C2\",\"J\",\"49\"
\"\",\"\",\"approach-retreat\",\"53\",\"1109751\",\"0.0-53.0\",\"\",\"\",\"1-1\",\"4338\",\"40\",\"0\",\"Training\",\"Stims/Figures/44-C-30-3.bmp\",\"fafasha\",\"Up\",\"38\",\"4\",\"2\",\"3B\",\"C1\",\"J\",\"50\"
\"\",\"\",\"approach-retreat\",\"54\",\"1115530\",\"0.0-54.0\",\"\",\"\",\"1-1\",\"4269\",\"38\",\"1\",\"Training\",\"Stims/Figures/44-J-10-3.bmp\",\"za:sa:za\",\"Down\",\"38\",\"4\",\"3\",\"3B\",\"C2\",\"J\",\"51\"
\"\",\"\",\"approach-retreat\",\"55\",\"1121682\",\"0.0-55.0\",\"\",\"\",\"1-1\",\"4641\",\"37\",\"1\",\"Training\",\"Stims/Figures/94-C-20-2.bmp\",\"fafasha\",\"Left\",\"37\",\"4\",\"4\",\"3B\",\"C1\",\"J\",\"52\"
\"\",\"\",\"approach-retreat\",\"56\",\"1127692\",\"0.0-56.0\",\"\",\"\",\"1-1\",\"4499\",\"38\",\"1\",\"Training\",\"Stims/Figures/84-J-0-2.bmp\",\"za:sa:za\",\"Down\",\"38\",\"4\",\"5\",\"3B\",\"C2\",\"J\",\"53\"
\"\",\"\",\"approach-retreat\",\"57\",\"1138727\",\"0.0-57.0\",\"\",\"\",\"1-1\",\"9525\",\"40\",\"1\",\"Training\",\"Stims/Figures/57-J-0-1.bmp\",\"za:sa:za\",\"Up\",\"40\",\"4\",\"6\",\"3B\",\"C2\",\"J\",\"54\"
\"\",\"\",\"approach-retreat\",\"58\",\"1144878\",\"0.0-58.0\",\"\",\"\",\"1-1\",\"4638\",\"38\",\"1\",\"Training\",\"Stims/Figures/71-C-30-1.bmp\",\"fafasha\",\"Up\",\"38\",\"4\",\"7\",\"3B\",\"C1\",\"J\",\"55\"
\"\",\"\",\"approach-retreat\",\"59\",\"1150546\",\"0.0-59.0\",\"\",\"\",\"1-1\",\"4155\",\"38\",\"1\",\"Training\",\"Stims/Figures/102-C-20-4.bmp\",\"fafasha\",\"Up\",\"38\",\"4\",\"8\",\"3B\",\"C1\",\"J\",\"56\"
\"\",\"\",\"approach-retreat\",\"60\",\"1156965\",\"0.0-60.0\",\"\",\"\",\"1-1\",\"4907\",\"39\",\"1\",\"Training\",\"Stims/Figures/102-J-10-4.bmp\",\"za:sa:za\",\"Left\",\"39\",\"4\",\"9\",\"3B\",\"C2\",\"J\",\"57\"
\"\",\"\",\"approach-retreat\",\"61\",\"1163104\",\"0.0-61.0\",\"\",\"\",\"1-1\",\"4627\",\"37\",\"1\",\"Training\",\"Stims/Figures/111-J-10-3.bmp\",\"za:sa:za\",\"Right\",\"37\",\"4\",\"10\",\"3B\",\"C2\",\"J\",\"58\"
\"\",\"\",\"approach-retreat\",\"62\",\"1168828\",\"0.0-62.0\",\"\",\"\",\"1-1\",\"4212\",\"37\",\"1\",\"Training\",\"Stims/Figures/84-C-20-2.bmp\",\"fafasha\",\"Left\",\"37\",\"4\",\"11\",\"3B\",\"C1\",\"J\",\"59\"
\"\",\"\",\"approach-retreat\",\"63\",\"1174735\",\"0.0-63.0\",\"\",\"\",\"1-1\",\"4395\",\"40\",\"1\",\"Training\",\"Stims/Figures/111-C-30-3.bmp\",\"fafasha\",\"Down\",\"40\",\"4\",\"12\",\"3B\",\"C1\",\"J\",\"60\"
\"\",\"\",\"approach-retreat\",\"64\",\"1180600\",\"0.0-64.0\",\"\",\"\",\"1-1\",\"4352\",\"40\",\"1\",\"Training\",\"Stims/Figures/57-C-30-1.bmp\",\"fafasha\",\"Down\",\"40\",\"4\",\"13\",\"3B\",\"C1\",\"J\",\"61\"
\"\",\"\",\"approach-retreat\",\"65\",\"1186176\",\"0.0-65.0\",\"\",\"\",\"1-1\",\"4065\",\"37\",\"1\",\"Training\",\"Stims/Figures/94-J-0-2.bmp\",\"za:sa:za\",\"Right\",\"37\",\"4\",\"14\",\"3B\",\"C2\",\"J\",\"62\"
\"\",\"\",\"approach-retreat\",\"66\",\"1191758\",\"0.0-66.0\",\"\",\"\",\"1-1\",\"4069\",\"37\",\"1\",\"Training\",\"Stims/Figures/71-J-0-1.bmp\",\"za:sa:za\",\"Right\",\"37\",\"4\",\"15\",\"3B\",\"C2\",\"J\",\"63\"
\"\",\"\",\"approach-retreat\",\"67\",\"1197336\",\"0.0-67.0\",\"\",\"\",\"1-1\",\"4066\",\"37\",\"1\",\"Training\",\"Stims/Figures/19-C-20-4.bmp\",\"fafasha\",\"Left\",\"37\",\"4\",\"16\",\"3B\",\"C1\",\"J\",\"64\"
\"\",\"\",\"approach-retreat\",\"68\",\"1202883\",\"0.0-68.0\",\"\",\"\",\"1-1\",\"4035\",\"40\",\"1\",\"Training\",\"Stims/Figures/111-C-30-3.bmp\",\"fafasha\",\"Down\",\"40\",\"5\",\"1\",\"3B\",\"C1\",\"J\",\"65\"
\"\",\"\",\"approach-retreat\",\"69\",\"1208467\",\"0.0-69.0\",\"\",\"\",\"1-1\",\"4072\",\"40\",\"1\",\"Training\",\"Stims/Figures/84-J-0-2.bmp\",\"za:sa:za\",\"Up\",\"40\",\"5\",\"2\",\"3B\",\"C2\",\"J\",\"66\"
\"\",\"\",\"approach-retreat\",\"70\",\"1214287\",\"0.0-70.0\",\"\",\"\",\"1-1\",\"4309\",\"39\",\"1\",\"Training\",\"Stims/Figures/57-J-0-1.bmp\",\"za:sa:za\",\"Left\",\"39\",\"5\",\"3\",\"3B\",\"C2\",\"J\",\"67\"
\"\",\"\",\"approach-retreat\",\"71\",\"1220270\",\"0.0-71.0\",\"\",\"\",\"1-1\",\"4471\",\"38\",\"1\",\"Training\",\"Stims/Figures/71-J-0-1.bmp\",\"za:sa:za\",\"Down\",\"38\",\"5\",\"4\",\"3B\",\"C2\",\"J\",\"68\"
\"\",\"\",\"approach-retreat\",\"72\",\"1226236\",\"0.0-72.0\",\"\",\"\",\"1-1\",\"4454\",\"39\",\"1\",\"Training\",\"Stims/Figures/44-C-30-3.bmp\",\"fafasha\",\"Right\",\"39\",\"5\",\"5\",\"3B\",\"C1\",\"J\",\"69\"
\"\",\"\",\"approach-retreat\",\"73\",\"1231982\",\"0.0-73.0\",\"\",\"\",\"1-1\",\"4234\",\"38\",\"1\",\"Training\",\"Stims/Figures/84-C-20-2.bmp\",\"fafasha\",\"Up\",\"38\",\"5\",\"6\",\"3B\",\"C1\",\"J\",\"70\"
\"\",\"\",\"approach-retreat\",\"74\",\"1238076\",\"0.0-74.0\",\"\",\"\",\"1-1\",\"4584\",\"39\",\"1\",\"Training\",\"Stims/Figures/94-J-0-2.bmp\",\"za:sa:za\",\"Left\",\"39\",\"5\",\"7\",\"3B\",\"C2\",\"J\",\"71\"
\"\",\"\",\"approach-retreat\",\"75\",\"1244231\",\"0.0-75.0\",\"\",\"\",\"1-1\",\"4650\",\"40\",\"1\",\"Training\",\"Stims/Figures/102-C-20-4.bmp\",\"fafasha\",\"Down\",\"40\",\"5\",\"8\",\"3B\",\"C1\",\"J\",\"72\"
\"\",\"\",\"approach-retreat\",\"76\",\"1250064\",\"0.0-76.0\",\"\",\"\",\"1-1\",\"4321\",\"37\",\"1\",\"Training\",\"Stims/Figures/19-J-10-4.bmp\",\"za:sa:za\",\"Right\",\"37\",\"5\",\"9\",\"3B\",\"C2\",\"J\",\"73\"
\"\",\"\",\"approach-retreat\",\"77\",\"1256006\",\"0.0-77.0\",\"\",\"\",\"1-1\",\"4430\",\"39\",\"1\",\"Training\",\"Stims/Figures/71-C-30-1.bmp\",\"fafasha\",\"Right\",\"39\",\"5\",\"10\",\"3B\",\"C1\",\"J\",\"74\"
\"\",\"\",\"approach-retreat\",\"78\",\"1261973\",\"0.0-78.0\",\"\",\"\",\"1-1\",\"4458\",\"38\",\"1\",\"Training\",\"Stims/Figures/94-C-20-2.bmp\",\"fafasha\",\"Up\",\"38\",\"5\",\"11\",\"3B\",\"C1\",\"J\",\"75\"
\"\",\"\",\"approach-retreat\",\"79\",\"1267808\",\"0.0-79.0\",\"\",\"\",\"1-1\",\"4322\",\"38\",\"1\",\"Training\",\"Stims/Figures/102-J-10-4.bmp\",\"za:sa:za\",\"Down\",\"38\",\"5\",\"12\",\"3B\",\"C2\",\"J\",\"76\"
\"\",\"\",\"approach-retreat\",\"80\",\"1273739\",\"0.0-80.0\",\"\",\"\",\"1-1\",\"4419\",\"40\",\"1\",\"Training\",\"Stims/Figures/111-J-10-3.bmp\",\"za:sa:za\",\"Up\",\"40\",\"5\",\"13\",\"3B\",\"C2\",\"J\",\"77\"
\"\",\"\",\"approach-retreat\",\"81\",\"1281084\",\"0.0-81.0\",\"\",\"\",\"1-1\",\"5838\",\"37\",\"1\",\"Training\",\"Stims/Figures/19-C-20-4.bmp\",\"fafasha\",\"Left\",\"37\",\"5\",\"14\",\"3B\",\"C1\",\"J\",\"78\"
\"\",\"\",\"approach-retreat\",\"82\",\"1286995\",\"0.0-82.0\",\"\",\"\",\"1-1\",\"4400\",\"37\",\"1\",\"Training\",\"Stims/Figures/44-J-10-3.bmp\",\"za:sa:za\",\"Right\",\"37\",\"5\",\"15\",\"3B\",\"C2\",\"J\",\"79\"
\"\",\"\",\"approach-retreat\",\"83\",\"1292596\",\"0.0-83.0\",\"\",\"\",\"1-1\",\"4090\",\"37\",\"1\",\"Training\",\"Stims/Figures/57-C-30-1.bmp\",\"fafasha\",\"Left\",\"37\",\"5\",\"16\",\"3B\",\"C1\",\"J\",\"80\"
\"\",\"\",\"approach-retreat\",\"84\",\"1298613\",\"0.0-84.0\",\"\",\"\",\"1-1\",\"4505\",\"39\",\"1\",\"Training\",\"Stims/Figures/102-C-20-4.bmp\",\"fafasha\",\"Right\",\"39\",\"6\",\"1\",\"3B\",\"C1\",\"J\",\"81\"
\"\",\"\",\"approach-retreat\",\"85\",\"1304593\",\"0.0-85.0\",\"\",\"\",\"1-1\",\"4468\",\"37\",\"1\",\"Training\",\"Stims/Figures/44-J-10-3.bmp\",\"za:sa:za\",\"Right\",\"37\",\"6\",\"2\",\"3B\",\"C2\",\"J\",\"82\"
\"\",\"\",\"approach-retreat\",\"86\",\"1310399\",\"0.0-86.0\",\"\",\"\",\"1-1\",\"4294\",\"39\",\"1\",\"Training\",\"Stims/Figures/84-C-20-2.bmp\",\"fafasha\",\"Right\",\"39\",\"6\",\"3\",\"3B\",\"C1\",\"J\",\"83\"
\"\",\"\",\"approach-retreat\",\"87\",\"1316133\",\"0.0-87.0\",\"\",\"\",\"1-1\",\"4222\",\"37\",\"0\",\"Training\",\"Stims/Figures/84-J-0-2.bmp\",\"za:sa:za\",\"Left\",\"39\",\"6\",\"4\",\"3B\",\"C2\",\"J\",\"84\"
\"\",\"\",\"approach-retreat\",\"88\",\"1322439\",\"0.0-88.0\",\"\",\"\",\"1-1\",\"4797\",\"38\",\"1\",\"Training\",\"Stims/Figures/19-J-10-4.bmp\",\"za:sa:za\",\"Down\",\"38\",\"6\",\"5\",\"3B\",\"C2\",\"J\",\"85\"
\"\",\"\",\"approach-retreat\",\"89\",\"1328165\",\"0.0-89.0\",\"\",\"\",\"1-1\",\"4215\",\"40\",\"1\",\"Training\",\"Stims/Figures/19-C-20-4.bmp\",\"fafasha\",\"Down\",\"40\",\"6\",\"6\",\"3B\",\"C1\",\"J\",\"86\"
\"\",\"\",\"approach-retreat\",\"90\",\"1333993\",\"0.0-90.0\",\"\",\"\",\"1-1\",\"4315\",\"38\",\"1\",\"Training\",\"Stims/Figures/102-J-10-4.bmp\",\"za:sa:za\",\"Down\",\"38\",\"6\",\"7\",\"3B\",\"C2\",\"J\",\"87\"
\"\",\"\",\"approach-retreat\",\"91\",\"1340335\",\"0.0-91.0\",\"\",\"\",\"1-1\",\"4829\",\"38\",\"1\",\"Training\",\"Stims/Figures/57-C-30-1.bmp\",\"fafasha\",\"Up\",\"38\",\"6\",\"8\",\"3B\",\"C1\",\"J\",\"88\"
\"\",\"\",\"approach-retreat\",\"92\",\"1346116\",\"0.0-92.0\",\"\",\"\",\"1-1\",\"4267\",\"38\",\"1\",\"Training\",\"Stims/Figures/94-J-0-2.bmp\",\"za:sa:za\",\"Down\",\"38\",\"6\",\"9\",\"3B\",\"C2\",\"J\",\"89\"
\"\",\"\",\"approach-retreat\",\"93\",\"1351876\",\"0.0-93.0\",\"\",\"\",\"1-1\",\"4248\",\"38\",\"1\",\"Training\",\"Stims/Figures/94-C-20-2.bmp\",\"fafasha\",\"Up\",\"38\",\"6\",\"10\",\"3B\",\"C1\",\"J\",\"90\"
\"\",\"\",\"approach-retreat\",\"94\",\"1358245\",\"0.0-94.0\",\"\",\"\",\"1-1\",\"4858\",\"39\",\"1\",\"Training\",\"Stims/Figures/44-C-30-3.bmp\",\"fafasha\",\"Right\",\"39\",\"6\",\"11\",\"3B\",\"C1\",\"J\",\"91\"
\"\",\"\",\"approach-retreat\",\"95\",\"1365622\",\"0.0-95.0\",\"\",\"\",\"1-1\",\"5865\",\"40\",\"1\",\"Training\",\"Stims/Figures/57-J-0-1.bmp\",\"za:sa:za\",\"Up\",\"40\",\"6\",\"12\",\"3B\",\"C2\",\"J\",\"92\"
\"\",\"\",\"approach-retreat\",\"96\",\"1371847\",\"0.0-96.0\",\"\",\"\",\"1-1\",\"4713\",\"39\",\"1\",\"Training\",\"Stims/Figures/111-J-10-3.bmp\",\"za:sa:za\",\"Left\",\"39\",\"6\",\"13\",\"3B\",\"C2\",\"J\",\"93\"
\"\",\"\",\"approach-retreat\",\"97\",\"1378147\",\"0.0-97.0\",\"\",\"\",\"1-1\",\"4788\",\"38\",\"1\",\"Training\",\"Stims/Figures/71-C-30-1.bmp\",\"fafasha\",\"Up\",\"38\",\"6\",\"14\",\"3B\",\"C1\",\"J\",\"94\"
\"\",\"\",\"approach-retreat\",\"98\",\"1384220\",\"0.0-98.0\",\"\",\"\",\"1-1\",\"4560\",\"39\",\"1\",\"Training\",\"Stims/Figures/71-J-0-1.bmp\",\"za:sa:za\",\"Left\",\"39\",\"6\",\"15\",\"3B\",\"C2\",\"J\",\"95\"
\"\",\"\",\"approach-retreat\",\"99\",\"1390052\",\"0.0-99.0\",\"\",\"\",\"1-1\",\"4322\",\"37\",\"1\",\"Training\",\"Stims/Figures/111-C-30-3.bmp\",\"fafasha\",\"Left\",\"37\",\"6\",\"16\",\"3B\",\"C1\",\"J\",\"96\"
\"\",\"\",\"approach-retreat\",\"100\",\"1395778\",\"0.0-100.0\",\"\",\"\",\"1-1\",\"4213\",\"38\",\"1\",\"Training\",\"Stims/Figures/102-J-10-4.bmp\",\"za:sa:za\",\"Down\",\"38\",\"7\",\"1\",\"3B\",\"C2\",\"J\",\"97\"
\"\",\"\",\"approach-retreat\",\"101\",\"1401484\",\"0.0-101.0\",\"\",\"\",\"1-1\",\"4193\",\"39\",\"1\",\"Training\",\"Stims/Figures/44-J-10-3.bmp\",\"za:sa:za\",\"Left\",\"39\",\"7\",\"2\",\"3B\",\"C2\",\"J\",\"98\"
\"\",\"\",\"approach-retreat\",\"102\",\"1408060\",\"0.0-102.0\",\"\",\"\",\"1-1\",\"5066\",\"40\",\"1\",\"Training\",\"Stims/Figures/71-J-0-1.bmp\",\"za:sa:za\",\"Up\",\"40\",\"7\",\"3\",\"3B\",\"C2\",\"J\",\"99\"
\"\",\"\",\"approach-retreat\",\"103\",\"1413784\",\"0.0-103.0\",\"\",\"\",\"1-1\",\"4212\",\"38\",\"1\",\"Training\",\"Stims/Figures/94-J-0-2.bmp\",\"za:sa:za\",\"Down\",\"38\",\"7\",\"4\",\"3B\",\"C2\",\"J\",\"100\"
\"\",\"\",\"approach-retreat\",\"104\",\"1419724\",\"0.0-104.0\",\"\",\"\",\"1-1\",\"4429\",\"40\",\"1\",\"Training\",\"Stims/Figures/111-J-10-3.bmp\",\"za:sa:za\",\"Up\",\"40\",\"7\",\"5\",\"3B\",\"C2\",\"J\",\"101\"
\"\",\"\",\"approach-retreat\",\"105\",\"1425773\",\"0.0-105.0\",\"\",\"\",\"1-1\",\"4536\",\"40\",\"1\",\"Training\",\"Stims/Figures/19-C-20-4.bmp\",\"fafasha\",\"Down\",\"40\",\"7\",\"6\",\"3B\",\"C1\",\"J\",\"102\"
\"\",\"\",\"approach-retreat\",\"106\",\"1431500\",\"0.0-106.0\",\"\",\"\",\"1-1\",\"4215\",\"39\",\"1\",\"Training\",\"Stims/Figures/19-J-10-4.bmp\",\"za:sa:za\",\"Left\",\"39\",\"7\",\"7\",\"3B\",\"C2\",\"J\",\"103\"
\"\",\"\",\"approach-retreat\",\"107\",\"1437195\",\"0.0-107.0\",\"\",\"\",\"1-1\",\"4185\",\"38\",\"1\",\"Training\",\"Stims/Figures/57-C-30-1.bmp\",\"fafasha\",\"Up\",\"38\",\"7\",\"8\",\"3B\",\"C1\",\"J\",\"104\"
\"\",\"\",\"approach-retreat\",\"108\",\"1443549\",\"0.0-108.0\",\"\",\"\",\"1-1\",\"4842\",\"39\",\"1\",\"Training\",\"Stims/Figures/84-C-20-2.bmp\",\"fafasha\",\"Right\",\"39\",\"7\",\"9\",\"3B\",\"C1\",\"J\",\"105\"
\"\",\"\",\"approach-retreat\",\"109\",\"1449245\",\"0.0-109.0\",\"\",\"\",\"1-1\",\"4186\",\"37\",\"1\",\"Training\",\"Stims/Figures/84-J-0-2.bmp\",\"za:sa:za\",\"Right\",\"37\",\"7\",\"10\",\"3B\",\"C2\",\"J\",\"106\"
\"\",\"\",\"approach-retreat\",\"110\",\"1455158\",\"0.0-110.0\",\"\",\"\",\"1-1\",\"4402\",\"39\",\"1\",\"Training\",\"Stims/Figures/71-C-30-1.bmp\",\"fafasha\",\"Right\",\"39\",\"7\",\"11\",\"3B\",\"C1\",\"J\",\"107\"
\"\",\"\",\"approach-retreat\",\"111\",\"1460964\",\"0.0-111.0\",\"\",\"\",\"1-1\",\"4294\",\"38\",\"1\",\"Training\",\"Stims/Figures/57-J-0-1.bmp\",\"za:sa:za\",\"Down\",\"38\",\"7\",\"12\",\"3B\",\"C2\",\"J\",\"108\"
\"\",\"\",\"approach-retreat\",\"112\",\"1466798\",\"0.0-112.0\",\"\",\"\",\"1-1\",\"4324\",\"39\",\"1\",\"Training\",\"Stims/Figures/44-C-30-3.bmp\",\"fafasha\",\"Right\",\"39\",\"7\",\"13\",\"3B\",\"C1\",\"J\",\"109\"
\"\",\"\",\"approach-retreat\",\"113\",\"1472789\",\"0.0-113.0\",\"\",\"\",\"1-1\",\"4478\",\"38\",\"1\",\"Training\",\"Stims/Figures/111-C-30-3.bmp\",\"fafasha\",\"Up\",\"38\",\"7\",\"14\",\"3B\",\"C1\",\"J\",\"110\"
\"\",\"\",\"approach-retreat\",\"114\",\"1479214\",\"0.0-114.0\",\"\",\"\",\"1-1\",\"4913\",\"37\",\"1\",\"Training\",\"Stims/Figures/94-C-20-2.bmp\",\"fafasha\",\"Left\",\"37\",\"7\",\"15\",\"3B\",\"C1\",\"J\",\"111\"
\"\",\"\",\"approach-retreat\",\"115\",\"1484962\",\"0.0-115.0\",\"\",\"\",\"1-1\",\"4236\",\"37\",\"1\",\"Training\",\"Stims/Figures/102-C-20-4.bmp\",\"fafasha\",\"Left\",\"37\",\"7\",\"16\",\"3B\",\"C1\",\"J\",\"112\"
\"\",\"\",\"approach-retreat\",\"116\",\"1491801\",\"0.0-116.0\",\"\",\"\",\"1-1\",\"5328\",\"40\",\"1\",\"Training\",\"Stims/Figures/71-J-0-1.bmp\",\"za:sa:za\",\"Up\",\"40\",\"8\",\"1\",\"3B\",\"C2\",\"J\",\"113\"
\"\",\"\",\"approach-retreat\",\"117\",\"1498242\",\"0.0-117.0\",\"\",\"\",\"1-1\",\"4929\",\"40\",\"1\",\"Training\",\"Stims/Figures/19-C-20-4.bmp\",\"fafasha\",\"Down\",\"40\",\"8\",\"2\",\"3B\",\"C1\",\"J\",\"114\"
\"\",\"\",\"approach-retreat\",\"118\",\"1503978\",\"0.0-118.0\",\"\",\"\",\"1-1\",\"4224\",\"37\",\"1\",\"Training\",\"Stims/Figures/102-J-10-4.bmp\",\"za:sa:za\",\"Right\",\"37\",\"8\",\"3\",\"3B\",\"C2\",\"J\",\"115\"
\"\",\"\",\"approach-retreat\",\"119\",\"1510135\",\"0.0-119.0\",\"\",\"\",\"1-1\",\"4645\",\"38\",\"1\",\"Training\",\"Stims/Figures/19-J-10-4.bmp\",\"za:sa:za\",\"Down\",\"38\",\"8\",\"4\",\"3B\",\"C2\",\"J\",\"116\"
\"\",\"\",\"approach-retreat\",\"120\",\"1515950\",\"0.0-120.0\",\"\",\"\",\"1-1\",\"4304\",\"38\",\"1\",\"Training\",\"Stims/Figures/71-C-30-1.bmp\",\"fafasha\",\"Up\",\"38\",\"8\",\"5\",\"3B\",\"C1\",\"J\",\"117\"
\"\",\"\",\"approach-retreat\",\"121\",\"1521656\",\"0.0-121.0\",\"\",\"\",\"1-1\",\"4195\",\"37\",\"1\",\"Training\",\"Stims/Figures/44-C-30-3.bmp\",\"fafasha\",\"Left\",\"37\",\"8\",\"6\",\"3B\",\"C1\",\"J\",\"118\"
\"\",\"\",\"approach-retreat\",\"122\",\"1527379\",\"0.0-122.0\",\"\",\"\",\"1-1\",\"4211\",\"40\",\"1\",\"Training\",\"Stims/Figures/102-C-20-4.bmp\",\"fafasha\",\"Down\",\"40\",\"8\",\"7\",\"3B\",\"C1\",\"J\",\"119\"
\"\",\"\",\"approach-retreat\",\"123\",\"1533572\",\"0.0-123.0\",\"\",\"\",\"1-1\",\"4683\",\"39\",\"1\",\"Training\",\"Stims/Figures/57-C-30-1.bmp\",\"fafasha\",\"Right\",\"39\",\"8\",\"8\",\"3B\",\"C1\",\"J\",\"120\"
\"\",\"\",\"approach-retreat\",\"124\",\"1539951\",\"0.0-124.0\",\"\",\"\",\"1-1\",\"4867\",\"40\",\"1\",\"Training\",\"Stims/Figures/57-J-0-1.bmp\",\"za:sa:za\",\"Up\",\"40\",\"8\",\"9\",\"3B\",\"C2\",\"J\",\"121\"
\"\",\"\",\"approach-retreat\",\"125\",\"1545782\",\"0.0-125.0\",\"\",\"\",\"1-1\",\"4316\",\"39\",\"1\",\"Training\",\"Stims/Figures/84-J-0-2.bmp\",\"za:sa:za\",\"Left\",\"39\",\"8\",\"10\",\"3B\",\"C2\",\"J\",\"122\"
\"\",\"\",\"approach-retreat\",\"126\",\"1551476\",\"0.0-126.0\",\"\",\"\",\"1-1\",\"4182\",\"37\",\"1\",\"Training\",\"Stims/Figures/44-J-10-3.bmp\",\"za:sa:za\",\"Right\",\"37\",\"8\",\"11\",\"3B\",\"C2\",\"J\",\"123\"
\"\",\"\",\"approach-retreat\",\"127\",\"1557092\",\"0.0-127.0\",\"\",\"\",\"1-1\",\"4105\",\"40\",\"1\",\"Training\",\"Stims/Figures/94-J-0-2.bmp\",\"za:sa:za\",\"Up\",\"40\",\"8\",\"12\",\"3B\",\"C2\",\"J\",\"124\"
\"\",\"\",\"approach-retreat\",\"128\",\"1563003\",\"0.0-128.0\",\"\",\"\",\"1-1\",\"4400\",\"37\",\"1\",\"Training\",\"Stims/Figures/111-J-10-3.bmp\",\"za:sa:za\",\"Right\",\"37\",\"8\",\"13\",\"3B\",\"C2\",\"J\",\"125\"
\"\",\"\",\"approach-retreat\",\"129\",\"1568526\",\"0.0-129.0\",\"\",\"\",\"1-1\",\"4012\",\"37\",\"1\",\"Training\",\"Stims/Figures/111-C-30-3.bmp\",\"fafasha\",\"Left\",\"37\",\"8\",\"14\",\"3B\",\"C1\",\"J\",\"126\"
\"\",\"\",\"approach-retreat\",\"130\",\"1574214\",\"0.0-130.0\",\"\",\"\",\"1-1\",\"4176\",\"37\",\"1\",\"Training\",\"Stims/Figures/84-C-20-2.bmp\",\"fafasha\",\"Left\",\"37\",\"8\",\"15\",\"3B\",\"C1\",\"J\",\"127\"
\"\",\"\",\"approach-retreat\",\"131\",\"1580089\",\"0.0-131.0\",\"\",\"\",\"1-1\",\"4361\",\"40\",\"1\",\"Training\",\"Stims/Figures/94-C-20-2.bmp\",\"fafasha\",\"Down\",\"40\",\"8\",\"16\",\"3B\",\"C1\",\"J\",\"128\"
\"\",\"\",\"approach-retreat\",\"132\",\"1585831\",\"0.0-132.0\",\"\",\"\",\"1-1\",\"4230\",\"37\",\"1\",\"Training\",\"Stims/Figures/71-C-30-1.bmp\",\"fafasha\",\"Left\",\"37\",\"9\",\"1\",\"3B\",\"C1\",\"J\",\"129\"
\"\",\"\",\"approach-retreat\",\"133\",\"1591623\",\"0.0-133.0\",\"\",\"\",\"1-1\",\"4280\",\"39\",\"1\",\"Training\",\"Stims/Figures/84-J-0-2.bmp\",\"za:sa:za\",\"Left\",\"39\",\"9\",\"2\",\"3B\",\"C2\",\"J\",\"130\"
\"\",\"\",\"approach-retreat\",\"134\",\"1597823\",\"0.0-134.0\",\"\",\"\",\"1-1\",\"4686\",\"40\",\"1\",\"Training\",\"Stims/Figures/19-C-20-4.bmp\",\"fafasha\",\"Down\",\"40\",\"9\",\"3\",\"3B\",\"C1\",\"J\",\"131\"
\"\",\"\",\"approach-retreat\",\"135\",\"1603500\",\"0.0-135.0\",\"\",\"\",\"1-1\",\"4168\",\"39\",\"1\",\"Training\",\"Stims/Figures/71-J-0-1.bmp\",\"za:sa:za\",\"Left\",\"39\",\"9\",\"4\",\"3B\",\"C2\",\"J\",\"132\"
\"\",\"\",\"approach-retreat\",\"136\",\"1609164\",\"0.0-136.0\",\"\",\"\",\"1-1\",\"4152\",\"37\",\"1\",\"Training\",\"Stims/Figures/111-J-10-3.bmp\",\"za:sa:za\",\"Right\",\"37\",\"9\",\"5\",\"3B\",\"C2\",\"J\",\"133\"
\"\",\"\",\"approach-retreat\",\"137\",\"1614889\",\"0.0-137.0\",\"\",\"\",\"1-1\",\"4213\",\"38\",\"1\",\"Training\",\"Stims/Figures/94-J-0-2.bmp\",\"za:sa:za\",\"Down\",\"38\",\"9\",\"6\",\"3B\",\"C2\",\"J\",\"134\"
\"\",\"\",\"approach-retreat\",\"138\",\"1620635\",\"0.0-138.0\",\"\",\"\",\"1-1\",\"4234\",\"40\",\"0\",\"Training\",\"Stims/Figures/44-C-30-3.bmp\",\"fafasha\",\"Up\",\"38\",\"9\",\"7\",\"3B\",\"C1\",\"J\",\"135\"
\"\",\"\",\"approach-retreat\",\"139\",\"1626375\",\"0.0-139.0\",\"\",\"\",\"1-1\",\"4228\",\"39\",\"1\",\"Training\",\"Stims/Figures/102-C-20-4.bmp\",\"fafasha\",\"Right\",\"39\",\"9\",\"8\",\"3B\",\"C1\",\"J\",\"136\"
\"\",\"\",\"approach-retreat\",\"140\",\"1632200\",\"0.0-140.0\",\"\",\"\",\"1-1\",\"4314\",\"39\",\"1\",\"Training\",\"Stims/Figures/19-J-10-4.bmp\",\"za:sa:za\",\"Left\",\"39\",\"9\",\"9\",\"3B\",\"C2\",\"J\",\"137\"
\"\",\"\",\"approach-retreat\",\"141\",\"1638024\",\"0.0-141.0\",\"\",\"\",\"1-1\",\"4310\",\"40\",\"1\",\"Training\",\"Stims/Figures/44-J-10-3.bmp\",\"za:sa:za\",\"Up\",\"40\",\"9\",\"10\",\"3B\",\"C2\",\"J\",\"138\"
\"\",\"\",\"approach-retreat\",\"142\",\"1643794\",\"0.0-142.0\",\"\",\"\",\"1-1\",\"4258\",\"38\",\"1\",\"Training\",\"Stims/Figures/57-J-0-1.bmp\",\"za:sa:za\",\"Down\",\"38\",\"9\",\"11\",\"3B\",\"C2\",\"J\",\"139\"
\"\",\"\",\"approach-retreat\",\"143\",\"1649887\",\"0.0-143.0\",\"\",\"\",\"1-1\",\"4581\",\"39\",\"1\",\"Training\",\"Stims/Figures/94-C-20-2.bmp\",\"fafasha\",\"Right\",\"39\",\"9\",\"12\",\"3B\",\"C1\",\"J\",\"140\"
\"\",\"\",\"approach-retreat\",\"144\",\"1655492\",\"0.0-144.0\",\"\",\"\",\"1-1\",\"4094\",\"38\",\"1\",\"Training\",\"Stims/Figures/57-C-30-1.bmp\",\"fafasha\",\"Up\",\"38\",\"9\",\"13\",\"3B\",\"C1\",\"J\",\"141\"
\"\",\"\",\"approach-retreat\",\"145\",\"1661265\",\"0.0-145.0\",\"\",\"\",\"1-1\",\"4261\",\"40\",\"1\",\"Training\",\"Stims/Figures/111-C-30-3.bmp\",\"fafasha\",\"Down\",\"40\",\"9\",\"14\",\"3B\",\"C1\",\"J\",\"142\"
\"\",\"\",\"approach-retreat\",\"146\",\"1667526\",\"0.0-146.0\",\"\",\"\",\"1-1\",\"4748\",\"37\",\"1\",\"Training\",\"Stims/Figures/102-J-10-4.bmp\",\"za:sa:za\",\"Right\",\"37\",\"9\",\"15\",\"3B\",\"C2\",\"J\",\"143\"
\"\",\"\",\"approach-retreat\",\"147\",\"1673771\",\"0.0-147.0\",\"\",\"\",\"1-1\",\"4733\",\"38\",\"1\",\"Training\",\"Stims/Figures/84-C-20-2.bmp\",\"fafasha\",\"Up\",\"38\",\"9\",\"16\",\"3B\",\"C1\",\"J\",\"144\"
\"21261\",\"\",\"instructions\",\"148\",\"1695033\",\"0.0-148.0\",\"[{\"\"page_index\"\":0,\"\"viewing_time\"\":21260}]\",\"\",\"\",\"\",\"\",\"\",\"\",\"\",\"\",\"\",\"\",\"\",\"\",\"\",\"\",\"\",\"\"
\"\",\"\",\"approach-retreat\",\"149\",\"1703812\",\"0.0-149.0\",\"\",\"\",\"1-1\",\"7270\",\"37\",\"1\",\"Testing\",\"Stims/Figures/85-C-20-2.bmp\",\"fafasha\",\"Left\",\"37\",\"1\",\"1\",\"3B\",\"C1\",\"J\",\"1\"
\"\",\"\",\"approach-retreat\",\"150\",\"1709504\",\"0.0-150.0\",\"\",\"\",\"1-1\",\"4183\",\"37\",\"1\",\"Testing\",\"Stims/Figures/102-C-20-4.bmp\",\"fafasha\",\"Left\",\"37\",\"1\",\"2\",\"3B\",\"C1\",\"J\",\"2\"
\"\",\"\",\"approach-retreat\",\"151\",\"1715181\",\"0.0-151.0\",\"\",\"\",\"1-1\",\"4168\",\"37\",\"1\",\"Testing\",\"Stims/Figures/87-C-20-4.bmp\",\"fafasha\",\"Left\",\"37\",\"1\",\"3\",\"3B\",\"C1\",\"J\",\"3\"
\"\",\"\",\"approach-retreat\",\"152\",\"1721359\",\"0.0-152.0\",\"\",\"\",\"1-1\",\"4669\",\"38\",\"1\",\"Testing\",\"Stims/Figures/44-J-10-3.bmp\",\"za:sa:za\",\"Down\",\"38\",\"1\",\"4\",\"3B\",\"C2\",\"J\",\"4\"
\"\",\"\",\"approach-retreat\",\"153\",\"1727857\",\"0.0-153.0\",\"\",\"\",\"1-1\",\"4986\",\"37\",\"0\",\"Testing\",\"Stims/Figures/19-C-20-4.bmp\",\"fafasha\",\"Right\",\"39\",\"1\",\"5\",\"3B\",\"C1\",\"J\",\"5\"
\"\",\"\",\"approach-retreat\",\"154\",\"1733944\",\"0.0-154.0\",\"\",\"\",\"1-1\",\"4578\",\"40\",\"1\",\"Testing\",\"Stims/Figures/71-J-0-1.bmp\",\"za:sa:za\",\"Up\",\"40\",\"1\",\"6\",\"3B\",\"C2\",\"J\",\"6\"
\"\",\"\",\"approach-retreat\",\"155\",\"1739855\",\"0.0-155.0\",\"\",\"\",\"1-1\",\"4400\",\"37\",\"1\",\"Testing\",\"Stims/Figures/71-C-30-1.bmp\",\"fafasha\",\"Left\",\"37\",\"1\",\"7\",\"3B\",\"C1\",\"J\",\"7\"
\"\",\"\",\"approach-retreat\",\"156\",\"1745571\",\"0.0-156.0\",\"\",\"\",\"1-1\",\"4207\",\"38\",\"1\",\"Testing\",\"Stims/Figures/94-J-0-2.bmp\",\"za:sa:za\",\"Down\",\"38\",\"1\",\"8\",\"3B\",\"C2\",\"J\",\"8\"
\"\",\"\",\"approach-retreat\",\"157\",\"1751453\",\"0.0-157.0\",\"\",\"\",\"1-1\",\"4373\",\"40\",\"1\",\"Testing\",\"Stims/Figures/57-J-0-1.bmp\",\"za:sa:za\",\"Up\",\"40\",\"1\",\"9\",\"3B\",\"C2\",\"J\",\"9\"
\"\",\"\",\"approach-retreat\",\"158\",\"1757216\",\"0.0-158.0\",\"\",\"\",\"1-1\",\"4254\",\"38\",\"1\",\"Testing\",\"Stims/Figures/44-C-30-3.bmp\",\"fafasha\",\"Up\",\"38\",\"1\",\"10\",\"3B\",\"C1\",\"J\",\"10\"
\"\",\"\",\"approach-retreat\",\"159\",\"1762894\",\"0.0-159.0\",\"\",\"\",\"1-1\",\"4169\",\"38\",\"1\",\"Testing\",\"Stims/Figures/85-J-0-2.bmp\",\"za:sa:za\",\"Down\",\"38\",\"1\",\"11\",\"3B\",\"C2\",\"J\",\"11\"
\"\",\"\",\"approach-retreat\",\"160\",\"1768631\",\"0.0-160.0\",\"\",\"\",\"1-1\",\"4227\",\"40\",\"1\",\"Testing\",\"Stims/Figures/57-C-30-1.bmp\",\"fafasha\",\"Down\",\"40\",\"1\",\"12\",\"3B\",\"C1\",\"J\",\"12\"
\"\",\"\",\"approach-retreat\",\"161\",\"1774440\",\"0.0-161.0\",\"\",\"\",\"1-1\",\"4298\",\"39\",\"1\",\"Testing\",\"Stims/Figures/84-J-0-2.bmp\",\"za:sa:za\",\"Left\",\"39\",\"1\",\"13\",\"3B\",\"C2\",\"J\",\"13\"
\"\",\"\",\"approach-retreat\",\"162\",\"1780339\",\"0.0-162.0\",\"\",\"\",\"1-1\",\"4390\",\"39\",\"1\",\"Testing\",\"Stims/Figures/86-C-30-1.bmp\",\"fafasha\",\"Right\",\"39\",\"1\",\"14\",\"3B\",\"C1\",\"J\",\"14\"
\"\",\"\",\"approach-retreat\",\"163\",\"1786373\",\"0.0-163.0\",\"\",\"\",\"1-1\",\"4524\",\"38\",\"1\",\"Testing\",\"Stims/Figures/111-C-30-3.bmp\",\"fafasha\",\"Up\",\"38\",\"1\",\"15\",\"3B\",\"C1\",\"J\",\"15\"
\"\",\"\",\"approach-retreat\",\"164\",\"1792396\",\"0.0-164.0\",\"\",\"\",\"1-1\",\"4513\",\"37\",\"1\",\"Testing\",\"Stims/Figures/94-C-20-2.bmp\",\"fafasha\",\"Left\",\"37\",\"1\",\"16\",\"3B\",\"C1\",\"J\",\"16\"
\"\",\"\",\"approach-retreat\",\"165\",\"1798045\",\"0.0-165.0\",\"\",\"\",\"1-1\",\"4137\",\"37\",\"1\",\"Testing\",\"Stims/Figures/86-J-0-1.bmp\",\"za:sa:za\",\"Right\",\"37\",\"1\",\"17\",\"3B\",\"C2\",\"J\",\"17\"
\"\",\"\",\"approach-retreat\",\"166\",\"1804135\",\"0.0-166.0\",\"\",\"\",\"1-1\",\"4581\",\"38\",\"1\",\"Testing\",\"Stims/Figures/102-J-10-4.bmp\",\"za:sa:za\",\"Down\",\"38\",\"1\",\"18\",\"3B\",\"C2\",\"J\",\"18\"
\"\",\"\",\"approach-retreat\",\"167\",\"1809780\",\"0.0-167.0\",\"\",\"\",\"1-1\",\"4127\",\"37\",\"1\",\"Testing\",\"Stims/Figures/19-J-10-4.bmp\",\"za:sa:za\",\"Right\",\"37\",\"1\",\"19\",\"3B\",\"C2\",\"J\",\"19\"
\"\",\"\",\"approach-retreat\",\"168\",\"1815525\",\"0.0-168.0\",\"\",\"\",\"1-1\",\"4237\",\"38\",\"1\",\"Testing\",\"Stims/Figures/87-J-10-4.bmp\",\"za:sa:za\",\"Down\",\"38\",\"1\",\"20\",\"3B\",\"C2\",\"J\",\"20\"
\"\",\"\",\"approach-retreat\",\"169\",\"1821274\",\"0.0-169.0\",\"\",\"\",\"1-1\",\"4239\",\"40\",\"1\",\"Testing\",\"Stims/Figures/111-J-10-3.bmp\",\"za:sa:za\",\"Up\",\"40\",\"1\",\"21\",\"3B\",\"C2\",\"J\",\"21\"
\"\",\"\",\"approach-retreat\",\"170\",\"1827145\",\"0.0-170.0\",\"\",\"\",\"1-1\",\"4362\",\"37\",\"0\",\"Testing\",\"Stims/Figures/84-C-20-2.bmp\",\"fafasha\",\"Right\",\"39\",\"1\",\"22\",\"3B\",\"C1\",\"J\",\"22\"
\"\",\"\",\"approach-retreat\",\"171\",\"1832673\",\"0.0-171.0\",\"\",\"\",\"1-1\",\"4018\",\"40\",\"1\",\"Testing\",\"Stims/Figures/100-J-10-3.bmp\",\"za:sa:za\",\"Up\",\"40\",\"1\",\"23\",\"3B\",\"C2\",\"J\",\"23\"
\"\",\"\",\"approach-retreat\",\"172\",\"1838570\",\"0.0-172.0\",\"\",\"\",\"1-1\",\"4388\",\"39\",\"1\",\"Testing\",\"Stims/Figures/100-C-30-3.bmp\",\"fafasha\",\"Right\",\"39\",\"1\",\"24\",\"3B\",\"C1\",\"J\",\"24\"
\"\",\"\",\"approach-retreat\",\"173\",\"1844761\",\"0.0-173.0\",\"\",\"\",\"1-1\",\"4683\",\"38\",\"1\",\"Testing\",\"Stims/Figures/86-J-0-1.bmp\",\"za:sa:za\",\"Down\",\"38\",\"2\",\"1\",\"3B\",\"C2\",\"J\",\"25\"
\"\",\"\",\"approach-retreat\",\"174\",\"1850377\",\"0.0-174.0\",\"\",\"\",\"1-1\",\"4104\",\"38\",\"0\",\"Testing\",\"Stims/Figures/19-C-20-4.bmp\",\"fafasha\",\"Down\",\"40\",\"2\",\"2\",\"3B\",\"C1\",\"J\",\"26\"
\"\",\"\",\"approach-retreat\",\"175\",\"1856144\",\"0.0-175.0\",\"\",\"\",\"1-1\",\"4259\",\"40\",\"1\",\"Testing\",\"Stims/Figures/19-J-10-4.bmp\",\"za:sa:za\",\"Up\",\"40\",\"2\",\"3\",\"3B\",\"C2\",\"J\",\"27\"
\"\",\"\",\"approach-retreat\",\"176\",\"1861879\",\"0.0-176.0\",\"\",\"\",\"1-1\",\"4226\",\"38\",\"1\",\"Testing\",\"Stims/Figures/57-J-0-1.bmp\",\"za:sa:za\",\"Down\",\"38\",\"2\",\"4\",\"3B\",\"C2\",\"J\",\"28\"
\"\",\"\",\"approach-retreat\",\"177\",\"1867565\",\"0.0-177.0\",\"\",\"\",\"1-1\",\"4177\",\"39\",\"1\",\"Testing\",\"Stims/Figures/71-J-0-1.bmp\",\"za:sa:za\",\"Left\",\"39\",\"2\",\"5\",\"3B\",\"C2\",\"J\",\"29\"
\"\",\"\",\"approach-retreat\",\"178\",\"1873526\",\"0.0-178.0\",\"\",\"\",\"1-1\",\"4452\",\"40\",\"1\",\"Testing\",\"Stims/Figures/85-C-20-2.bmp\",\"fafasha\",\"Down\",\"40\",\"2\",\"6\",\"3B\",\"C1\",\"J\",\"30\"
\"\",\"\",\"approach-retreat\",\"179\",\"1879393\",\"0.0-179.0\",\"\",\"\",\"1-1\",\"4359\",\"37\",\"1\",\"Testing\",\"Stims/Figures/100-C-30-3.bmp\",\"fafasha\",\"Left\",\"37\",\"2\",\"7\",\"3B\",\"C1\",\"J\",\"31\"
\"\",\"\",\"approach-retreat\",\"180\",\"1885023\",\"0.0-180.0\",\"\",\"\",\"1-1\",\"4119\",\"38\",\"1\",\"Testing\",\"Stims/Figures/111-J-10-3.bmp\",\"za:sa:za\",\"Down\",\"38\",\"2\",\"8\",\"3B\",\"C2\",\"J\",\"32\"
\"\",\"\",\"approach-retreat\",\"181\",\"1891707\",\"0.0-181.0\",\"\",\"\",\"1-1\",\"5175\",\"37\",\"0\",\"Testing\",\"Stims/Figures/102-C-20-4.bmp\",\"fafasha\",\"Right\",\"39\",\"2\",\"9\",\"3B\",\"C1\",\"J\",\"33\"
\"\",\"\",\"approach-retreat\",\"182\",\"1897449\",\"0.0-182.0\",\"\",\"\",\"1-1\",\"4232\",\"40\",\"1\",\"Testing\",\"Stims/Figures/84-J-0-2.bmp\",\"za:sa:za\",\"Up\",\"40\",\"2\",\"10\",\"3B\",\"C2\",\"J\",\"34\"
\"\",\"\",\"approach-retreat\",\"183\",\"1904090\",\"0.0-183.0\",\"\",\"\",\"1-1\",\"5131\",\"40\",\"1\",\"Testing\",\"Stims/Figures/57-C-30-1.bmp\",\"fafasha\",\"Down\",\"40\",\"2\",\"11\",\"3B\",\"C1\",\"J\",\"35\"
\"\",\"\",\"approach-retreat\",\"184\",\"1910300\",\"0.0-184.0\",\"\",\"\",\"1-1\",\"4701\",\"38\",\"1\",\"Testing\",\"Stims/Figures/87-C-20-4.bmp\",\"fafasha\",\"Up\",\"38\",\"2\",\"12\",\"3B\",\"C1\",\"J\",\"36\"
\"\",\"\",\"approach-retreat\",\"185\",\"1916544\",\"0.0-185.0\",\"\",\"\",\"1-1\",\"4734\",\"39\",\"1\",\"Testing\",\"Stims/Figures/94-J-0-2.bmp\",\"za:sa:za\",\"Left\",\"39\",\"2\",\"13\",\"3B\",\"C2\",\"J\",\"37\"
\"\",\"\",\"approach-retreat\",\"186\",\"1922924\",\"0.0-186.0\",\"\",\"\",\"1-1\",\"4865\",\"39\",\"1\",\"Testing\",\"Stims/Figures/111-C-30-3.bmp\",\"fafasha\",\"Right\",\"39\",\"2\",\"14\",\"3B\",\"C1\",\"J\",\"38\"
\"\",\"\",\"approach-retreat\",\"187\",\"1928713\",\"0.0-187.0\",\"\",\"\",\"1-1\",\"4279\",\"39\",\"1\",\"Testing\",\"Stims/Figures/102-J-10-4.bmp\",\"za:sa:za\",\"Left\",\"39\",\"2\",\"15\",\"3B\",\"C2\",\"J\",\"39\"
\"\",\"\",\"approach-retreat\",\"188\",\"1934422\",\"0.0-188.0\",\"\",\"\",\"1-1\",\"4200\",\"37\",\"1\",\"Testing\",\"Stims/Figures/86-C-30-1.bmp\",\"fafasha\",\"Left\",\"37\",\"2\",\"16\",\"3B\",\"C1\",\"J\",\"40\"
\"\",\"\",\"approach-retreat\",\"189\",\"1940057\",\"0.0-189.0\",\"\",\"\",\"1-1\",\"4124\",\"37\",\"1\",\"Testing\",\"Stims/Figures/100-J-10-3.bmp\",\"za:sa:za\",\"Right\",\"37\",\"2\",\"17\",\"3B\",\"C2\",\"J\",\"41\"
\"\",\"\",\"approach-retreat\",\"190\",\"1945683\",\"0.0-190.0\",\"\",\"\",\"1-1\",\"4118\",\"37\",\"1\",\"Testing\",\"Stims/Figures/85-J-0-2.bmp\",\"za:sa:za\",\"Right\",\"37\",\"2\",\"18\",\"3B\",\"C2\",\"J\",\"42\"
\"\",\"\",\"approach-retreat\",\"191\",\"1952368\",\"0.0-191.0\",\"\",\"\",\"1-1\",\"5175\",\"38\",\"1\",\"Testing\",\"Stims/Figures/94-C-20-2.bmp\",\"fafasha\",\"Up\",\"38\",\"2\",\"19\",\"3B\",\"C1\",\"J\",\"43\"
\"\",\"\",\"approach-retreat\",\"192\",\"1960599\",\"0.0-192.0\",\"\",\"\",\"1-1\",\"6722\",\"40\",\"0\",\"Testing\",\"Stims/Figures/44-C-30-3.bmp\",\"fafasha\",\"Up\",\"38\",\"2\",\"20\",\"3B\",\"C1\",\"J\",\"44\"
\"\",\"\",\"approach-retreat\",\"193\",\"1966228\",\"0.0-193.0\",\"\",\"\",\"1-1\",\"4119\",\"37\",\"0\",\"Testing\",\"Stims/Figures/84-C-20-2.bmp\",\"fafasha\",\"Right\",\"39\",\"2\",\"21\",\"3B\",\"C1\",\"J\",\"45\"
\"\",\"\",\"approach-retreat\",\"194\",\"1971788\",\"0.0-194.0\",\"\",\"\",\"1-1\",\"4049\",\"40\",\"1\",\"Testing\",\"Stims/Figures/44-J-10-3.bmp\",\"za:sa:za\",\"Up\",\"40\",\"2\",\"22\",\"3B\",\"C2\",\"J\",\"46\"
\"\",\"\",\"approach-retreat\",\"195\",\"1977307\",\"0.0-195.0\",\"\",\"\",\"1-1\",\"4009\",\"37\",\"1\",\"Testing\",\"Stims/Figures/87-J-10-4.bmp\",\"za:sa:za\",\"Right\",\"37\",\"2\",\"23\",\"3B\",\"C2\",\"J\",\"47\"
\"\",\"\",\"approach-retreat\",\"196\",\"1983942\",\"0.0-196.0\",\"\",\"\",\"1-1\",\"5125\",\"37\",\"1\",\"Testing\",\"Stims/Figures/71-C-30-1.bmp\",\"fafasha\",\"Left\",\"37\",\"2\",\"24\",\"3B\",\"C1\",\"J\",\"48\"
\"\",\"\",\"approach-retreat\",\"197\",\"1989838\",\"0.0-197.0\",\"\",\"\",\"1-1\",\"4389\",\"38\",\"1\",\"Testing\",\"Stims/Figures/19-J-10-4.bmp\",\"za:sa:za\",\"Down\",\"38\",\"3\",\"1\",\"3B\",\"C2\",\"J\",\"49\"
\"\",\"\",\"approach-retreat\",\"198\",\"1995852\",\"0.0-198.0\",\"\",\"\",\"1-1\",\"4504\",\"39\",\"1\",\"Testing\",\"Stims/Figures/102-J-10-4.bmp\",\"za:sa:za\",\"Left\",\"39\",\"3\",\"2\",\"3B\",\"C2\",\"J\",\"50\"
\"\",\"\",\"approach-retreat\",\"199\",\"2003179\",\"0.0-199.0\",\"\",\"\",\"1-1\",\"5818\",\"37\",\"1\",\"Testing\",\"Stims/Figures/19-C-20-4.bmp\",\"fafasha\",\"Left\",\"37\",\"3\",\"3\",\"3B\",\"C1\",\"J\",\"51\"
\"\",\"\",\"approach-retreat\",\"200\",\"2009177\",\"0.0-200.0\",\"\",\"\",\"1-1\",\"4490\",\"38\",\"1\",\"Testing\",\"Stims/Figures/100-C-30-3.bmp\",\"fafasha\",\"Up\",\"38\",\"3\",\"4\",\"3B\",\"C1\",\"J\",\"52\"
\"\",\"\",\"approach-retreat\",\"201\",\"2014990\",\"0.0-201.0\",\"\",\"\",\"1-1\",\"4303\",\"38\",\"1\",\"Testing\",\"Stims/Figures/87-J-10-4.bmp\",\"za:sa:za\",\"Down\",\"38\",\"3\",\"5\",\"3B\",\"C2\",\"J\",\"53\"
\"\",\"\",\"approach-retreat\",\"202\",\"2021605\",\"0.0-202.0\",\"\",\"\",\"1-1\",\"5106\",\"37\",\"1\",\"Testing\",\"Stims/Figures/71-C-30-1.bmp\",\"fafasha\",\"Left\",\"37\",\"3\",\"6\",\"3B\",\"C1\",\"J\",\"54\"
\"\",\"\",\"approach-retreat\",\"203\",\"2027394\",\"0.0-203.0\",\"\",\"\",\"1-1\",\"4282\",\"38\",\"1\",\"Testing\",\"Stims/Figures/57-J-0-1.bmp\",\"za:sa:za\",\"Down\",\"38\",\"3\",\"7\",\"3B\",\"C2\",\"J\",\"55\"
\"\",\"\",\"approach-retreat\",\"204\",\"2034168\",\"0.0-204.0\",\"\",\"\",\"1-1\",\"5266\",\"39\",\"0\",\"Testing\",\"Stims/Figures/84-C-20-2.bmp\",\"fafasha\",\"Left\",\"37\",\"3\",\"8\",\"3B\",\"C1\",\"J\",\"56\"
\"\",\"\",\"approach-retreat\",\"205\",\"2041119\",\"0.0-205.0\",\"\",\"\",\"1-1\",\"5441\",\"38\",\"1\",\"Testing\",\"Stims/Figures/87-C-20-4.bmp\",\"fafasha\",\"Up\",\"38\",\"3\",\"9\",\"3B\",\"C1\",\"J\",\"57\"
\"\",\"\",\"approach-retreat\",\"206\",\"2048078\",\"0.0-206.0\",\"\",\"\",\"1-1\",\"5451\",\"38\",\"1\",\"Testing\",\"Stims/Figures/85-C-20-2.bmp\",\"fafasha\",\"Up\",\"38\",\"3\",\"10\",\"3B\",\"C1\",\"J\",\"58\"
\"\",\"\",\"approach-retreat\",\"207\",\"2054804\",\"0.0-207.0\",\"\",\"\",\"1-1\",\"5217\",\"38\",\"0\",\"Testing\",\"Stims/Figures/102-C-20-4.bmp\",\"fafasha\",\"Down\",\"40\",\"3\",\"11\",\"3B\",\"C1\",\"J\",\"59\"
\"\",\"\",\"approach-retreat\",\"208\",\"2060590\",\"0.0-208.0\",\"\",\"\",\"1-1\",\"4275\",\"38\",\"1\",\"Testing\",\"Stims/Figures/100-J-10-3.bmp\",\"za:sa:za\",\"Down\",\"38\",\"3\",\"12\",\"3B\",\"C2\",\"J\",\"60\"
\"\",\"\",\"approach-retreat\",\"209\",\"2066507\",\"0.0-209.0\",\"\",\"\",\"1-1\",\"4408\",\"39\",\"1\",\"Testing\",\"Stims/Figures/111-J-10-3.bmp\",\"za:sa:za\",\"Left\",\"39\",\"3\",\"13\",\"3B\",\"C2\",\"J\",\"61\"
\"\",\"\",\"approach-retreat\",\"210\",\"2072292\",\"0.0-210.0\",\"\",\"\",\"1-1\",\"4276\",\"38\",\"1\",\"Testing\",\"Stims/Figures/44-J-10-3.bmp\",\"za:sa:za\",\"Down\",\"38\",\"3\",\"14\",\"3B\",\"C2\",\"J\",\"62\"
\"\",\"\",\"approach-retreat\",\"211\",\"2079019\",\"0.0-211.0\",\"\",\"\",\"1-1\",\"5218\",\"39\",\"1\",\"Testing\",\"Stims/Figures/111-C-30-3.bmp\",\"fafasha\",\"Right\",\"39\",\"3\",\"15\",\"3B\",\"C1\",\"J\",\"63\"
\"\",\"\",\"approach-retreat\",\"212\",\"2086436\",\"0.0-212.0\",\"\",\"\",\"1-1\",\"5907\",\"39\",\"1\",\"Testing\",\"Stims/Figures/44-C-30-3.bmp\",\"fafasha\",\"Right\",\"39\",\"3\",\"16\",\"3B\",\"C1\",\"J\",\"64\"
\"\",\"\",\"approach-retreat\",\"213\",\"2092701\",\"0.0-213.0\",\"\",\"\",\"1-1\",\"4754\",\"39\",\"1\",\"Testing\",\"Stims/Figures/85-J-0-2.bmp\",\"za:sa:za\",\"Left\",\"39\",\"3\",\"17\",\"3B\",\"C2\",\"J\",\"65\"
\"\",\"\",\"approach-retreat\",\"214\",\"2098690\",\"0.0-214.0\",\"\",\"\",\"1-1\",\"4479\",\"38\",\"1\",\"Testing\",\"Stims/Figures/57-C-30-1.bmp\",\"fafasha\",\"Up\",\"38\",\"3\",\"18\",\"3B\",\"C1\",\"J\",\"66\"
\"\",\"\",\"approach-retreat\",\"215\",\"2104680\",\"0.0-215.0\",\"\",\"\",\"1-1\",\"4481\",\"37\",\"1\",\"Testing\",\"Stims/Figures/84-J-0-2.bmp\",\"za:sa:za\",\"Right\",\"37\",\"3\",\"19\",\"3B\",\"C2\",\"J\",\"67\"
\"\",\"\",\"approach-retreat\",\"216\",\"2111130\",\"0.0-216.0\",\"\",\"\",\"1-1\",\"4941\",\"38\",\"1\",\"Testing\",\"Stims/Figures/94-C-20-2.bmp\",\"fafasha\",\"Up\",\"38\",\"3\",\"20\",\"3B\",\"C1\",\"J\",\"68\"
\"\",\"\",\"approach-retreat\",\"217\",\"2116977\",\"0.0-217.0\",\"\",\"\",\"1-1\",\"4337\",\"40\",\"1\",\"Testing\",\"Stims/Figures/86-J-0-1.bmp\",\"za:sa:za\",\"Up\",\"40\",\"3\",\"21\",\"3B\",\"C2\",\"J\",\"69\"
\"\",\"\",\"approach-retreat\",\"218\",\"2124405\",\"0.0-218.0\",\"\",\"\",\"1-1\",\"5919\",\"39\",\"1\",\"Testing\",\"Stims/Figures/86-C-30-1.bmp\",\"fafasha\",\"Right\",\"39\",\"3\",\"22\",\"3B\",\"C1\",\"J\",\"70\"
\"\",\"\",\"approach-retreat\",\"219\",\"2130072\",\"0.0-219.0\",\"\",\"\",\"1-1\",\"4158\",\"37\",\"1\",\"Testing\",\"Stims/Figures/71-J-0-1.bmp\",\"za:sa:za\",\"Right\",\"37\",\"3\",\"23\",\"3B\",\"C2\",\"J\",\"71\"
\"\",\"\",\"approach-retreat\",\"220\",\"2135632\",\"0.0-220.0\",\"\",\"\",\"1-1\",\"4051\",\"37\",\"1\",\"Testing\",\"Stims/Figures/94-J-0-2.bmp\",\"za:sa:za\",\"Right\",\"37\",\"3\",\"24\",\"3B\",\"C2\",\"J\",\"72\"
\"\",\"\",\"approach-retreat\",\"221\",\"2141250\",\"0.0-221.0\",\"\",\"\",\"1-1\",\"4109\",\"37\",\"1\",\"Testing\",\"Stims/Figures/85-J-0-2.bmp\",\"za:sa:za\",\"Right\",\"37\",\"4\",\"1\",\"3B\",\"C2\",\"J\",\"73\"
\"\",\"\",\"approach-retreat\",\"222\",\"2147153\",\"0.0-222.0\",\"\",\"\",\"1-1\",\"4399\",\"37\",\"1\",\"Testing\",\"Stims/Figures/44-J-10-3.bmp\",\"za:sa:za\",\"Right\",\"37\",\"4\",\"2\",\"3B\",\"C2\",\"J\",\"74\"
\"\",\"\",\"approach-retreat\",\"223\",\"2152977\",\"0.0-223.0\",\"\",\"\",\"1-1\",\"4313\",\"40\",\"1\",\"Testing\",\"Stims/Figures/84-J-0-2.bmp\",\"za:sa:za\",\"Up\",\"40\",\"4\",\"3\",\"3B\",\"C2\",\"J\",\"75\"
\"\",\"\",\"approach-retreat\",\"224\",\"2158541\",\"0.0-224.0\",\"\",\"\",\"1-1\",\"4053\",\"40\",\"1\",\"Testing\",\"Stims/Figures/71-J-0-1.bmp\",\"za:sa:za\",\"Up\",\"40\",\"4\",\"4\",\"3B\",\"C2\",\"J\",\"76\"
\"\",\"\",\"approach-retreat\",\"225\",\"2164203\",\"0.0-225.0\",\"\",\"\",\"1-1\",\"4153\",\"38\",\"1\",\"Testing\",\"Stims/Figures/44-C-30-3.bmp\",\"fafasha\",\"Up\",\"38\",\"4\",\"5\",\"3B\",\"C1\",\"J\",\"77\"
\"\",\"\",\"approach-retreat\",\"226\",\"2170204\",\"0.0-226.0\",\"\",\"\",\"1-1\",\"4489\",\"40\",\"1\",\"Testing\",\"Stims/Figures/71-C-30-1.bmp\",\"fafasha\",\"Down\",\"40\",\"4\",\"6\",\"3B\",\"C1\",\"J\",\"78\"
\"\",\"\",\"approach-retreat\",\"227\",\"2175897\",\"0.0-227.0\",\"\",\"\",\"1-1\",\"4184\",\"37\",\"1\",\"Testing\",\"Stims/Figures/57-C-30-1.bmp\",\"fafasha\",\"Left\",\"37\",\"4\",\"7\",\"3B\",\"C1\",\"J\",\"79\"
\"\",\"\",\"approach-retreat\",\"228\",\"2181571\",\"0.0-228.0\",\"\",\"\",\"1-1\",\"4164\",\"38\",\"1\",\"Testing\",\"Stims/Figures/19-C-20-4.bmp\",\"fafasha\",\"Up\",\"38\",\"4\",\"8\",\"3B\",\"C1\",\"J\",\"80\"
\"\",\"\",\"approach-retreat\",\"229\",\"2187286\",\"0.0-229.0\",\"\",\"\",\"1-1\",\"4205\",\"40\",\"1\",\"Testing\",\"Stims/Figures/94-C-20-2.bmp\",\"fafasha\",\"Down\",\"40\",\"4\",\"9\",\"3B\",\"C1\",\"J\",\"81\"
\"\",\"\",\"approach-retreat\",\"230\",\"2193043\",\"0.0-230.0\",\"\",\"\",\"1-1\",\"4248\",\"40\",\"1\",\"Testing\",\"Stims/Figures/100-C-30-3.bmp\",\"fafasha\",\"Down\",\"40\",\"4\",\"10\",\"3B\",\"C1\",\"J\",\"82\"
\"\",\"\",\"approach-retreat\",\"231\",\"2198785\",\"0.0-231.0\",\"\",\"\",\"1-1\",\"4233\",\"37\",\"1\",\"Testing\",\"Stims/Figures/57-J-0-1.bmp\",\"za:sa:za\",\"Right\",\"37\",\"4\",\"11\",\"3B\",\"C2\",\"J\",\"83\"
\"\",\"\",\"approach-retreat\",\"232\",\"2205092\",\"0.0-232.0\",\"\",\"\",\"1-1\",\"4795\",\"39\",\"0\",\"Testing\",\"Stims/Figures/84-C-20-2.bmp\",\"fafasha\",\"Left\",\"37\",\"4\",\"12\",\"3B\",\"C1\",\"J\",\"84\"
\"\",\"\",\"approach-retreat\",\"233\",\"2210845\",\"0.0-233.0\",\"\",\"\",\"1-1\",\"4244\",\"37\",\"1\",\"Testing\",\"Stims/Figures/102-J-10-4.bmp\",\"za:sa:za\",\"Right\",\"37\",\"4\",\"13\",\"3B\",\"C2\",\"J\",\"85\"
\"\",\"\",\"approach-retreat\",\"234\",\"2216520\",\"0.0-234.0\",\"\",\"\",\"1-1\",\"4165\",\"38\",\"1\",\"Testing\",\"Stims/Figures/87-C-20-4.bmp\",\"fafasha\",\"Up\",\"38\",\"4\",\"14\",\"3B\",\"C1\",\"J\",\"86\"
\"\",\"\",\"approach-retreat\",\"235\",\"2222671\",\"0.0-235.0\",\"\",\"\",\"1-1\",\"4640\",\"39\",\"1\",\"Testing\",\"Stims/Figures/86-J-0-1.bmp\",\"za:sa:za\",\"Left\",\"39\",\"4\",\"15\",\"3B\",\"C2\",\"J\",\"87\"
\"\",\"\",\"approach-retreat\",\"236\",\"2228443\",\"0.0-236.0\",\"\",\"\",\"1-1\",\"4263\",\"38\",\"1\",\"Testing\",\"Stims/Figures/87-J-10-4.bmp\",\"za:sa:za\",\"Down\",\"38\",\"4\",\"16\",\"3B\",\"C2\",\"J\",\"88\"
\"\",\"\",\"approach-retreat\",\"237\",\"2234310\",\"0.0-237.0\",\"\",\"\",\"1-1\",\"4358\",\"39\",\"1\",\"Testing\",\"Stims/Figures/100-J-10-3.bmp\",\"za:sa:za\",\"Left\",\"39\",\"4\",\"17\",\"3B\",\"C2\",\"J\",\"89\"
\"\",\"\",\"approach-retreat\",\"238\",\"2241176\",\"0.0-238.0\",\"\",\"\",\"1-1\",\"5357\",\"38\",\"1\",\"Testing\",\"Stims/Figures/111-C-30-3.bmp\",\"fafasha\",\"Up\",\"38\",\"4\",\"18\",\"3B\",\"C1\",\"J\",\"90\"
\"\",\"\",\"approach-retreat\",\"239\",\"2247599\",\"0.0-239.0\",\"\",\"\",\"1-1\",\"4912\",\"38\",\"0\",\"Testing\",\"Stims/Figures/102-C-20-4.bmp\",\"fafasha\",\"Down\",\"40\",\"4\",\"19\",\"3B\",\"C1\",\"J\",\"91\"
\"\",\"\",\"approach-retreat\",\"240\",\"2253551\",\"0.0-240.0\",\"\",\"\",\"1-1\",\"4443\",\"37\",\"1\",\"Testing\",\"Stims/Figures/86-C-30-1.bmp\",\"fafasha\",\"Left\",\"37\",\"4\",\"20\",\"3B\",\"C1\",\"J\",\"92\"
\"\",\"\",\"approach-retreat\",\"241\",\"2259112\",\"0.0-241.0\",\"\",\"\",\"1-1\",\"4052\",\"37\",\"1\",\"Testing\",\"Stims/Figures/19-J-10-4.bmp\",\"za:sa:za\",\"Right\",\"37\",\"4\",\"21\",\"3B\",\"C2\",\"J\",\"93\"
\"\",\"\",\"approach-retreat\",\"242\",\"2264593\",\"0.0-242.0\",\"\",\"\",\"1-1\",\"3970\",\"37\",\"1\",\"Testing\",\"Stims/Figures/85-C-20-2.bmp\",\"fafasha\",\"Left\",\"37\",\"4\",\"22\",\"3B\",\"C1\",\"J\",\"94\"
\"\",\"\",\"approach-retreat\",\"243\",\"2270436\",\"0.0-243.0\",\"\",\"\",\"1-1\",\"4335\",\"38\",\"1\",\"Testing\",\"Stims/Figures/94-J-0-2.bmp\",\"za:sa:za\",\"Down\",\"38\",\"4\",\"23\",\"3B\",\"C2\",\"J\",\"95\"
\"\",\"\",\"approach-retreat\",\"244\",\"2276088\",\"0.0-244.0\",\"\",\"\",\"1-1\",\"4142\",\"37\",\"1\",\"Testing\",\"Stims/Figures/111-J-10-3.bmp\",\"za:sa:za\",\"Right\",\"37\",\"4\",\"24\",\"3B\",\"C2\",\"J\",\"96\"
\"18336\",\"\",\"survey-text\",\"245\",\"2294434\",\"0.0-245.0\",\"\",\"{\"\"Q0\"\":\"\"PS170072\"\"}\",\"\",\"\",\"\",\"\",\"\",\"\",\"\",\"\",\"\",\"\",\"\",\"\",\"\",\"\",\"\"
