\"rt\",\"key_press\",\"trial_type\",\"trial_index\",\"time_elapsed\",\"internal_node_id\",\"view_history\",\"responses\",\"Id\",\"Rt\",\"ResKeyCode\",\"ResCorr\",\"TrialType2\",\"Image\",\"Label\",\"Location\",\"CorrectResponse\",\"Block\",\"BlockTrial\",\"Condition\",\"LabelType\",\"Subcondition\",\"trialNum\"
\"72607\",\"32\",\"text\",\"0\",\"72775\",\"0.0-0.0-0.0\",\"\",\"\",\"\",\"\",\"\",\"\",\"\",\"\",\"\",\"\",\"\",\"\",\"\",\"\",\"\",\"\",\"\"
\"163845\",\"\",\"instructions\",\"1\",\"236647\",\"0.0-1.0\",\"[{\"\"page_index\"\":0,\"\"viewing_time\"\":163841}]\",\"\",\"\",\"\",\"\",\"\",\"\",\"\",\"\",\"\",\"\",\"\",\"\",\"\",\"\",\"\",\"\"
\"22838\",\"\",\"survey-multi-choice\",\"2\",\"259740\",\"0.0-2.0\",\"\",\"{\"\"Q0\"\":\"\"Da\"\",\"\"Q1\"\":\"\"Da\"\",\"\"Q2\"\":\"\"Da\"\",\"\"Q3\"\":\"\"Da\"\",\"\"Q4\"\":\"\"Da\"\",\"\"Q5\"\":\"\"Da\"\"}\",\"\",\"\",\"\",\"\",\"\",\"\",\"\",\"\",\"\",\"\",\"\",\"\",\"\",\"\",\"\"
\"\",\"\",\"bio\",\"3\",\"271256\",\"0.0-3.0\",\"\",\"{\"\"age\"\":\"\"20\"\",\"\"gender\"\":\"\"f\"\",\"\"specify\"\":\"\"\"\"}\",\"\",\"\",\"\",\"\",\"\",\"\",\"\",\"\",\"\",\"\",\"\",\"\",\"\",\"\",\"\"
\"\",\"\",\"approach-retreat\",\"4\",\"280407\",\"0.0-4.0\",\"\",\"\",\"2-4\",\"7562\",\"40\",\"1\",\"Training\",\"Stims/Figures/118-J-0-2.bmp\",\"za:haha\",\"Down\",\"40\",\"1\",\"1\",\"6B\",\"C2\",\"C\",\"1\"
\"\",\"\",\"approach-retreat\",\"5\",\"288074\",\"0.0-5.0\",\"\",\"\",\"2-4\",\"6086\",\"38\",\"1\",\"Training\",\"Stims/Figures/27-J-0-1.bmp\",\"za:ha:ha\",\"Up\",\"38\",\"1\",\"2\",\"6B\",\"C2\",\"C\",\"2\"
\"\",\"\",\"approach-retreat\",\"6\",\"295485\",\"0.0-6.0\",\"\",\"\",\"2-4\",\"5872\",\"39\",\"0\",\"Training\",\"Stims/Figures/84-C-20-2.bmp\",\"vafava\",\"Right\",\"37\",\"1\",\"3\",\"6B\",\"C1\",\"C\",\"3\"
\"\",\"\",\"approach-retreat\",\"7\",\"305077\",\"0.0-7.0\",\"\",\"\",\"2-4\",\"8052\",\"39\",\"1\",\"Training\",\"Stims/Figures/27-C-30-1.bmp\",\"vasha:sha\",\"Left\",\"39\",\"1\",\"4\",\"6B\",\"C1\",\"C\",\"4\"
\"\",\"\",\"approach-retreat\",\"8\",\"311529\",\"0.0-8.0\",\"\",\"\",\"2-4\",\"4915\",\"40\",\"1\",\"Training\",\"Stims/Figures/144-J-10-3.bmp\",\"zasaza\",\"Down\",\"40\",\"1\",\"5\",\"6B\",\"C2\",\"C\",\"5\"
\"\",\"\",\"approach-retreat\",\"9\",\"318330\",\"0.0-9.0\",\"\",\"\",\"2-4\",\"5261\",\"39\",\"1\",\"Training\",\"Stims/Figures/19-J-10-4.bmp\",\"zahaza\",\"Right\",\"39\",\"1\",\"6\",\"6B\",\"C2\",\"C\",\"6\"
\"\",\"\",\"approach-retreat\",\"10\",\"325058\",\"0.0-10.0\",\"\",\"\",\"2-4\",\"5184\",\"38\",\"0\",\"Training\",\"Stims/Figures/44-J-10-3.bmp\",\"zasaha\",\"Down\",\"40\",\"1\",\"7\",\"6B\",\"C2\",\"C\",\"7\"
\"\",\"\",\"approach-retreat\",\"11\",\"333135\",\"0.0-11.0\",\"\",\"\",\"2-4\",\"6536\",\"39\",\"1\",\"Training\",\"Stims/Figures/7-J-10-4.bmp\",\"za:saha\",\"Right\",\"39\",\"1\",\"8\",\"6B\",\"C2\",\"C\",\"8\"
\"\",\"\",\"approach-retreat\",\"12\",\"339207\",\"0.0-12.0\",\"\",\"\",\"2-4\",\"4531\",\"37\",\"1\",\"Training\",\"Stims/Figures/118-C-20-2.bmp\",\"fa:shava\",\"Right\",\"37\",\"1\",\"9\",\"6B\",\"C1\",\"C\",\"9\"
\"\",\"\",\"approach-retreat\",\"13\",\"345774\",\"0.0-13.0\",\"\",\"\",\"2-4\",\"5026\",\"38\",\"1\",\"Training\",\"Stims/Figures/84-J-0-2.bmp\",\"zasa:za\",\"Up\",\"38\",\"1\",\"10\",\"6B\",\"C2\",\"C\",\"10\"
\"\",\"\",\"approach-retreat\",\"14\",\"352322\",\"0.0-14.0\",\"\",\"\",\"2-4\",\"5009\",\"39\",\"1\",\"Training\",\"Stims/Figures/144-C-30-3.bmp\",\"va:sha:sha\",\"Left\",\"39\",\"1\",\"11\",\"6B\",\"C1\",\"C\",\"11\"
\"\",\"\",\"approach-retreat\",\"15\",\"358343\",\"0.0-15.0\",\"\",\"\",\"2-4\",\"4474\",\"39\",\"1\",\"Training\",\"Stims/Figures/19-C-20-4.bmp\",\"fafasha\",\"Left\",\"39\",\"1\",\"12\",\"6B\",\"C1\",\"C\",\"12\"
\"\",\"\",\"approach-retreat\",\"16\",\"364189\",\"0.0-16.0\",\"\",\"\",\"2-4\",\"4317\",\"38\",\"1\",\"Training\",\"Stims/Figures/44-C-30-3.bmp\",\"va:fava\",\"Down\",\"38\",\"1\",\"13\",\"6B\",\"C1\",\"C\",\"13\"
\"\",\"\",\"approach-retreat\",\"17\",\"370787\",\"0.0-17.0\",\"\",\"\",\"2-4\",\"5061\",\"40\",\"1\",\"Training\",\"Stims/Figures/93-C-30-1.bmp\",\"vafa:va\",\"Up\",\"40\",\"1\",\"14\",\"6B\",\"C1\",\"C\",\"14\"
\"\",\"\",\"approach-retreat\",\"18\",\"377200\",\"0.0-18.0\",\"\",\"\",\"2-4\",\"4883\",\"38\",\"1\",\"Training\",\"Stims/Figures/93-J-0-1.bmp\",\"za:haza\",\"Up\",\"38\",\"1\",\"15\",\"6B\",\"C2\",\"C\",\"15\"
\"\",\"\",\"approach-retreat\",\"19\",\"384627\",\"0.0-19.0\",\"\",\"\",\"2-4\",\"5886\",\"39\",\"1\",\"Training\",\"Stims/Figures/7-C-20-4.bmp\",\"vafa:sha\",\"Left\",\"39\",\"1\",\"16\",\"6B\",\"C1\",\"C\",\"16\"
\"\",\"\",\"approach-retreat\",\"20\",\"391108\",\"0.0-20.0\",\"\",\"\",\"2-4\",\"4943\",\"37\",\"1\",\"Training\",\"Stims/Figures/144-C-30-3.bmp\",\"va:sha:sha\",\"Right\",\"37\",\"2\",\"1\",\"6B\",\"C1\",\"C\",\"17\"
\"\",\"\",\"approach-retreat\",\"21\",\"397065\",\"0.0-21.0\",\"\",\"\",\"2-4\",\"4420\",\"39\",\"1\",\"Training\",\"Stims/Figures/118-C-20-2.bmp\",\"fa:shava\",\"Left\",\"39\",\"2\",\"2\",\"6B\",\"C1\",\"C\",\"18\"
\"\",\"\",\"approach-retreat\",\"22\",\"402999\",\"0.0-22.0\",\"\",\"\",\"2-4\",\"4393\",\"37\",\"1\",\"Training\",\"Stims/Figures/84-J-0-2.bmp\",\"zasa:za\",\"Left\",\"37\",\"2\",\"3\",\"6B\",\"C2\",\"C\",\"19\"
\"\",\"\",\"approach-retreat\",\"23\",\"409044\",\"0.0-23.0\",\"\",\"\",\"2-4\",\"4507\",\"38\",\"1\",\"Training\",\"Stims/Figures/93-J-0-1.bmp\",\"za:haza\",\"Up\",\"38\",\"2\",\"4\",\"6B\",\"C2\",\"C\",\"20\"
\"\",\"\",\"approach-retreat\",\"24\",\"415256\",\"0.0-24.0\",\"\",\"\",\"2-4\",\"4676\",\"40\",\"1\",\"Training\",\"Stims/Figures/7-C-20-4.bmp\",\"vafa:sha\",\"Up\",\"40\",\"2\",\"5\",\"6B\",\"C1\",\"C\",\"21\"
\"\",\"\",\"approach-retreat\",\"25\",\"421246\",\"0.0-25.0\",\"\",\"\",\"2-4\",\"4451\",\"39\",\"1\",\"Training\",\"Stims/Figures/19-C-20-4.bmp\",\"fafasha\",\"Left\",\"39\",\"2\",\"6\",\"6B\",\"C1\",\"C\",\"22\"
\"\",\"\",\"approach-retreat\",\"26\",\"427215\",\"0.0-26.0\",\"\",\"\",\"2-4\",\"4431\",\"38\",\"1\",\"Training\",\"Stims/Figures/84-C-20-2.bmp\",\"vafava\",\"Down\",\"38\",\"2\",\"7\",\"6B\",\"C1\",\"C\",\"23\"
\"\",\"\",\"approach-retreat\",\"27\",\"433540\",\"0.0-27.0\",\"\",\"\",\"2-4\",\"4785\",\"40\",\"0\",\"Training\",\"Stims/Figures/44-J-10-3.bmp\",\"zasaha\",\"Up\",\"38\",\"2\",\"8\",\"6B\",\"C2\",\"C\",\"24\"
\"\",\"\",\"approach-retreat\",\"28\",\"439991\",\"0.0-28.0\",\"\",\"\",\"2-4\",\"4913\",\"40\",\"1\",\"Training\",\"Stims/Figures/144-J-10-3.bmp\",\"zasaza\",\"Down\",\"40\",\"2\",\"9\",\"6B\",\"C2\",\"C\",\"25\"
\"\",\"\",\"approach-retreat\",\"29\",\"445827\",\"0.0-29.0\",\"\",\"\",\"2-4\",\"4297\",\"39\",\"1\",\"Training\",\"Stims/Figures/27-J-0-1.bmp\",\"za:ha:ha\",\"Right\",\"39\",\"2\",\"10\",\"6B\",\"C2\",\"C\",\"26\"
\"\",\"\",\"approach-retreat\",\"30\",\"451675\",\"0.0-30.0\",\"\",\"\",\"2-4\",\"4310\",\"37\",\"1\",\"Training\",\"Stims/Figures/93-C-30-1.bmp\",\"vafa:va\",\"Right\",\"37\",\"2\",\"11\",\"6B\",\"C1\",\"C\",\"27\"
\"\",\"\",\"approach-retreat\",\"31\",\"457616\",\"0.0-31.0\",\"\",\"\",\"2-4\",\"4404\",\"37\",\"1\",\"Training\",\"Stims/Figures/19-J-10-4.bmp\",\"zahaza\",\"Left\",\"37\",\"2\",\"12\",\"6B\",\"C2\",\"C\",\"28\"
\"\",\"\",\"approach-retreat\",\"32\",\"463815\",\"0.0-32.0\",\"\",\"\",\"2-4\",\"4662\",\"39\",\"1\",\"Training\",\"Stims/Figures/118-J-0-2.bmp\",\"za:haha\",\"Right\",\"39\",\"2\",\"13\",\"6B\",\"C2\",\"C\",\"29\"
\"\",\"\",\"approach-retreat\",\"33\",\"470007\",\"0.0-33.0\",\"\",\"\",\"2-4\",\"4655\",\"40\",\"0\",\"Training\",\"Stims/Figures/27-C-30-1.bmp\",\"vasha:sha\",\"Down\",\"38\",\"2\",\"14\",\"6B\",\"C1\",\"C\",\"30\"
\"\",\"\",\"approach-retreat\",\"34\",\"476079\",\"0.0-34.0\",\"\",\"\",\"2-4\",\"4533\",\"40\",\"1\",\"Training\",\"Stims/Figures/7-J-10-4.bmp\",\"za:saha\",\"Down\",\"40\",\"2\",\"15\",\"6B\",\"C2\",\"C\",\"31\"
\"\",\"\",\"approach-retreat\",\"35\",\"482102\",\"0.0-35.0\",\"\",\"\",\"2-4\",\"4483\",\"40\",\"1\",\"Training\",\"Stims/Figures/44-C-30-3.bmp\",\"va:fava\",\"Up\",\"40\",\"2\",\"16\",\"6B\",\"C1\",\"C\",\"32\"
\"\",\"\",\"approach-retreat\",\"36\",\"488919\",\"0.0-36.0\",\"\",\"\",\"2-4\",\"5279\",\"40\",\"1\",\"Training\",\"Stims/Figures/144-J-10-3.bmp\",\"zasaza\",\"Down\",\"40\",\"3\",\"1\",\"6B\",\"C2\",\"C\",\"33\"
\"\",\"\",\"approach-retreat\",\"37\",\"495098\",\"0.0-37.0\",\"\",\"\",\"2-4\",\"4641\",\"39\",\"1\",\"Training\",\"Stims/Figures/27-J-0-1.bmp\",\"za:ha:ha\",\"Right\",\"39\",\"3\",\"2\",\"6B\",\"C2\",\"C\",\"34\"
\"\",\"\",\"approach-retreat\",\"38\",\"501046\",\"0.0-38.0\",\"\",\"\",\"2-4\",\"4401\",\"39\",\"1\",\"Training\",\"Stims/Figures/84-J-0-2.bmp\",\"zasa:za\",\"Right\",\"39\",\"3\",\"3\",\"6B\",\"C2\",\"C\",\"35\"
\"\",\"\",\"approach-retreat\",\"39\",\"507042\",\"0.0-39.0\",\"\",\"\",\"2-4\",\"4454\",\"40\",\"1\",\"Training\",\"Stims/Figures/84-C-20-2.bmp\",\"vafava\",\"Up\",\"40\",\"3\",\"4\",\"6B\",\"C1\",\"C\",\"36\"
\"\",\"\",\"approach-retreat\",\"40\",\"512884\",\"0.0-40.0\",\"\",\"\",\"2-4\",\"4304\",\"40\",\"1\",\"Training\",\"Stims/Figures/19-J-10-4.bmp\",\"zahaza\",\"Down\",\"40\",\"3\",\"5\",\"6B\",\"C2\",\"C\",\"37\"
\"\",\"\",\"approach-retreat\",\"41\",\"518843\",\"0.0-41.0\",\"\",\"\",\"2-4\",\"4418\",\"38\",\"1\",\"Training\",\"Stims/Figures/118-C-20-2.bmp\",\"fa:shava\",\"Down\",\"38\",\"3\",\"6\",\"6B\",\"C1\",\"C\",\"38\"
\"\",\"\",\"approach-retreat\",\"42\",\"524589\",\"0.0-42.0\",\"\",\"\",\"2-4\",\"4212\",\"39\",\"1\",\"Training\",\"Stims/Figures/118-J-0-2.bmp\",\"za:haha\",\"Right\",\"39\",\"3\",\"7\",\"6B\",\"C2\",\"C\",\"39\"
\"\",\"\",\"approach-retreat\",\"43\",\"530294\",\"0.0-43.0\",\"\",\"\",\"2-4\",\"4166\",\"39\",\"1\",\"Training\",\"Stims/Figures/7-C-20-4.bmp\",\"vafa:sha\",\"Left\",\"39\",\"3\",\"8\",\"6B\",\"C1\",\"C\",\"40\"
\"\",\"\",\"approach-retreat\",\"44\",\"536965\",\"0.0-44.0\",\"\",\"\",\"2-4\",\"5133\",\"38\",\"1\",\"Training\",\"Stims/Figures/7-J-10-4.bmp\",\"za:saha\",\"Up\",\"38\",\"3\",\"9\",\"6B\",\"C2\",\"C\",\"41\"
\"\",\"\",\"approach-retreat\",\"45\",\"543042\",\"0.0-45.0\",\"\",\"\",\"2-4\",\"4540\",\"37\",\"1\",\"Training\",\"Stims/Figures/93-J-0-1.bmp\",\"za:haza\",\"Left\",\"37\",\"3\",\"10\",\"6B\",\"C2\",\"C\",\"42\"
\"\",\"\",\"approach-retreat\",\"46\",\"549594\",\"0.0-46.0\",\"\",\"\",\"2-4\",\"5012\",\"40\",\"1\",\"Training\",\"Stims/Figures/19-C-20-4.bmp\",\"fafasha\",\"Up\",\"40\",\"3\",\"11\",\"6B\",\"C1\",\"C\",\"43\"
\"\",\"\",\"approach-retreat\",\"47\",\"555369\",\"0.0-47.0\",\"\",\"\",\"2-4\",\"4252\",\"39\",\"1\",\"Training\",\"Stims/Figures/44-C-30-3.bmp\",\"va:fava\",\"Left\",\"39\",\"3\",\"12\",\"6B\",\"C1\",\"C\",\"44\"
\"\",\"\",\"approach-retreat\",\"48\",\"561168\",\"0.0-48.0\",\"\",\"\",\"2-4\",\"4258\",\"40\",\"1\",\"Training\",\"Stims/Figures/93-C-30-1.bmp\",\"vafa:va\",\"Up\",\"40\",\"3\",\"13\",\"6B\",\"C1\",\"C\",\"45\"
\"\",\"\",\"approach-retreat\",\"49\",\"566953\",\"0.0-49.0\",\"\",\"\",\"2-4\",\"4248\",\"39\",\"1\",\"Training\",\"Stims/Figures/44-J-10-3.bmp\",\"zasaha\",\"Right\",\"39\",\"3\",\"14\",\"6B\",\"C2\",\"C\",\"46\"
\"\",\"\",\"approach-retreat\",\"50\",\"572827\",\"0.0-50.0\",\"\",\"\",\"2-4\",\"4336\",\"38\",\"1\",\"Training\",\"Stims/Figures/144-C-30-3.bmp\",\"va:sha:sha\",\"Down\",\"38\",\"3\",\"15\",\"6B\",\"C1\",\"C\",\"47\"
\"\",\"\",\"approach-retreat\",\"51\",\"578874\",\"0.0-51.0\",\"\",\"\",\"2-4\",\"4530\",\"39\",\"1\",\"Training\",\"Stims/Figures/27-C-30-1.bmp\",\"vasha:sha\",\"Left\",\"39\",\"3\",\"16\",\"6B\",\"C1\",\"C\",\"48\"
\"\",\"\",\"approach-retreat\",\"52\",\"584571\",\"0.0-52.0\",\"\",\"\",\"2-4\",\"4157\",\"38\",\"1\",\"Training\",\"Stims/Figures/93-C-30-1.bmp\",\"vafa:va\",\"Down\",\"38\",\"4\",\"1\",\"6B\",\"C1\",\"C\",\"49\"
\"\",\"\",\"approach-retreat\",\"53\",\"590705\",\"0.0-53.0\",\"\",\"\",\"2-4\",\"4594\",\"40\",\"1\",\"Training\",\"Stims/Figures/7-J-10-4.bmp\",\"za:saha\",\"Down\",\"40\",\"4\",\"2\",\"6B\",\"C2\",\"C\",\"50\"
\"\",\"\",\"approach-retreat\",\"54\",\"596587\",\"0.0-54.0\",\"\",\"\",\"2-4\",\"4345\",\"40\",\"1\",\"Training\",\"Stims/Figures/93-J-0-1.bmp\",\"za:haza\",\"Down\",\"40\",\"4\",\"3\",\"6B\",\"C2\",\"C\",\"51\"
\"\",\"\",\"approach-retreat\",\"55\",\"602699\",\"0.0-55.0\",\"\",\"\",\"2-4\",\"4573\",\"37\",\"1\",\"Training\",\"Stims/Figures/27-C-30-1.bmp\",\"vasha:sha\",\"Right\",\"37\",\"4\",\"4\",\"6B\",\"C1\",\"C\",\"52\"
\"\",\"\",\"approach-retreat\",\"56\",\"608516\",\"0.0-56.0\",\"\",\"\",\"2-4\",\"4280\",\"38\",\"1\",\"Training\",\"Stims/Figures/84-J-0-2.bmp\",\"zasa:za\",\"Up\",\"38\",\"4\",\"5\",\"6B\",\"C2\",\"C\",\"53\"
\"\",\"\",\"approach-retreat\",\"57\",\"614609\",\"0.0-57.0\",\"\",\"\",\"2-4\",\"4559\",\"38\",\"1\",\"Training\",\"Stims/Figures/144-J-10-3.bmp\",\"zasaza\",\"Up\",\"38\",\"4\",\"6\",\"6B\",\"C2\",\"C\",\"54\"
\"\",\"\",\"approach-retreat\",\"58\",\"620960\",\"0.0-58.0\",\"\",\"\",\"2-4\",\"4809\",\"39\",\"1\",\"Training\",\"Stims/Figures/44-C-30-3.bmp\",\"va:fava\",\"Left\",\"39\",\"4\",\"7\",\"6B\",\"C1\",\"C\",\"55\"
\"\",\"\",\"approach-retreat\",\"59\",\"626789\",\"0.0-59.0\",\"\",\"\",\"2-4\",\"4292\",\"39\",\"1\",\"Training\",\"Stims/Figures/118-C-20-2.bmp\",\"fa:shava\",\"Left\",\"39\",\"4\",\"8\",\"6B\",\"C1\",\"C\",\"56\"
\"\",\"\",\"approach-retreat\",\"60\",\"632618\",\"0.0-60.0\",\"\",\"\",\"2-4\",\"4294\",\"40\",\"1\",\"Training\",\"Stims/Figures/7-C-20-4.bmp\",\"vafa:sha\",\"Up\",\"40\",\"4\",\"9\",\"6B\",\"C1\",\"C\",\"57\"
\"\",\"\",\"approach-retreat\",\"61\",\"638719\",\"0.0-61.0\",\"\",\"\",\"2-4\",\"4565\",\"38\",\"1\",\"Training\",\"Stims/Figures/44-J-10-3.bmp\",\"zasaha\",\"Up\",\"38\",\"4\",\"10\",\"6B\",\"C2\",\"C\",\"58\"
\"\",\"\",\"approach-retreat\",\"62\",\"644608\",\"0.0-62.0\",\"\",\"\",\"2-4\",\"4352\",\"39\",\"1\",\"Training\",\"Stims/Figures/19-J-10-4.bmp\",\"zahaza\",\"Right\",\"39\",\"4\",\"11\",\"6B\",\"C2\",\"C\",\"59\"
\"\",\"\",\"approach-retreat\",\"63\",\"650311\",\"0.0-63.0\",\"\",\"\",\"2-4\",\"4165\",\"39\",\"1\",\"Training\",\"Stims/Figures/19-C-20-4.bmp\",\"fafasha\",\"Left\",\"39\",\"4\",\"12\",\"6B\",\"C1\",\"C\",\"60\"
\"\",\"\",\"approach-retreat\",\"64\",\"656120\",\"0.0-64.0\",\"\",\"\",\"2-4\",\"4269\",\"40\",\"1\",\"Training\",\"Stims/Figures/118-J-0-2.bmp\",\"za:haha\",\"Down\",\"40\",\"4\",\"13\",\"6B\",\"C2\",\"C\",\"61\"
\"\",\"\",\"approach-retreat\",\"65\",\"661964\",\"0.0-65.0\",\"\",\"\",\"2-4\",\"4301\",\"37\",\"1\",\"Training\",\"Stims/Figures/27-J-0-1.bmp\",\"za:ha:ha\",\"Left\",\"37\",\"4\",\"14\",\"6B\",\"C2\",\"C\",\"62\"
\"\",\"\",\"approach-retreat\",\"66\",\"667638\",\"0.0-66.0\",\"\",\"\",\"2-4\",\"4138\",\"37\",\"1\",\"Training\",\"Stims/Figures/84-C-20-2.bmp\",\"vafava\",\"Right\",\"37\",\"4\",\"15\",\"6B\",\"C1\",\"C\",\"63\"
\"\",\"\",\"approach-retreat\",\"67\",\"673393\",\"0.0-67.0\",\"\",\"\",\"2-4\",\"4215\",\"37\",\"1\",\"Training\",\"Stims/Figures/144-C-30-3.bmp\",\"va:sha:sha\",\"Right\",\"37\",\"4\",\"16\",\"6B\",\"C1\",\"C\",\"64\"
\"\",\"\",\"approach-retreat\",\"68\",\"679094\",\"0.0-68.0\",\"\",\"\",\"2-4\",\"4162\",\"37\",\"1\",\"Training\",\"Stims/Figures/84-C-20-2.bmp\",\"vafava\",\"Right\",\"37\",\"5\",\"1\",\"6B\",\"C1\",\"C\",\"65\"
\"\",\"\",\"approach-retreat\",\"69\",\"685098\",\"0.0-69.0\",\"\",\"\",\"2-4\",\"4463\",\"39\",\"1\",\"Training\",\"Stims/Figures/93-C-30-1.bmp\",\"vafa:va\",\"Left\",\"39\",\"5\",\"2\",\"6B\",\"C1\",\"C\",\"66\"
\"\",\"\",\"approach-retreat\",\"70\",\"691317\",\"0.0-70.0\",\"\",\"\",\"2-4\",\"4681\",\"38\",\"1\",\"Training\",\"Stims/Figures/144-J-10-3.bmp\",\"zasaza\",\"Up\",\"38\",\"5\",\"3\",\"6B\",\"C2\",\"C\",\"67\"
\"\",\"\",\"approach-retreat\",\"71\",\"697949\",\"0.0-71.0\",\"\",\"\",\"2-4\",\"5093\",\"40\",\"1\",\"Training\",\"Stims/Figures/93-J-0-1.bmp\",\"za:haza\",\"Down\",\"40\",\"5\",\"4\",\"6B\",\"C2\",\"C\",\"68\"
\"\",\"\",\"approach-retreat\",\"72\",\"703881\",\"0.0-72.0\",\"\",\"\",\"2-4\",\"4398\",\"38\",\"0\",\"Training\",\"Stims/Figures/27-C-30-1.bmp\",\"vasha:sha\",\"Up\",\"40\",\"5\",\"5\",\"6B\",\"C1\",\"C\",\"69\"
\"\",\"\",\"approach-retreat\",\"73\",\"710119\",\"0.0-73.0\",\"\",\"\",\"2-4\",\"4699\",\"40\",\"1\",\"Training\",\"Stims/Figures/27-J-0-1.bmp\",\"za:ha:ha\",\"Down\",\"40\",\"5\",\"6\",\"6B\",\"C2\",\"C\",\"70\"
\"\",\"\",\"approach-retreat\",\"74\",\"715919\",\"0.0-74.0\",\"\",\"\",\"2-4\",\"4278\",\"39\",\"1\",\"Training\",\"Stims/Figures/7-C-20-4.bmp\",\"vafa:sha\",\"Left\",\"39\",\"5\",\"7\",\"6B\",\"C1\",\"C\",\"71\"
\"\",\"\",\"approach-retreat\",\"75\",\"722086\",\"0.0-75.0\",\"\",\"\",\"2-4\",\"4627\",\"38\",\"1\",\"Training\",\"Stims/Figures/44-J-10-3.bmp\",\"zasaha\",\"Up\",\"38\",\"5\",\"8\",\"6B\",\"C2\",\"C\",\"72\"
\"\",\"\",\"approach-retreat\",\"76\",\"728393\",\"0.0-76.0\",\"\",\"\",\"2-4\",\"4769\",\"39\",\"1\",\"Training\",\"Stims/Figures/19-J-10-4.bmp\",\"zahaza\",\"Right\",\"39\",\"5\",\"9\",\"6B\",\"C2\",\"C\",\"73\"
\"\",\"\",\"approach-retreat\",\"77\",\"734230\",\"0.0-77.0\",\"\",\"\",\"2-4\",\"4303\",\"37\",\"1\",\"Training\",\"Stims/Figures/144-C-30-3.bmp\",\"va:sha:sha\",\"Right\",\"37\",\"5\",\"10\",\"6B\",\"C1\",\"C\",\"74\"
\"\",\"\",\"approach-retreat\",\"78\",\"739953\",\"0.0-78.0\",\"\",\"\",\"2-4\",\"4182\",\"39\",\"1\",\"Training\",\"Stims/Figures/118-C-20-2.bmp\",\"fa:shava\",\"Left\",\"39\",\"5\",\"11\",\"6B\",\"C1\",\"C\",\"75\"
\"\",\"\",\"approach-retreat\",\"79\",\"746111\",\"0.0-79.0\",\"\",\"\",\"2-4\",\"4626\",\"38\",\"1\",\"Training\",\"Stims/Figures/84-J-0-2.bmp\",\"zasa:za\",\"Up\",\"38\",\"5\",\"12\",\"6B\",\"C2\",\"C\",\"76\"
\"\",\"\",\"approach-retreat\",\"80\",\"752046\",\"0.0-80.0\",\"\",\"\",\"2-4\",\"4392\",\"40\",\"1\",\"Training\",\"Stims/Figures/7-J-10-4.bmp\",\"za:saha\",\"Down\",\"40\",\"5\",\"13\",\"6B\",\"C2\",\"C\",\"77\"
\"\",\"\",\"approach-retreat\",\"81\",\"758003\",\"0.0-81.0\",\"\",\"\",\"2-4\",\"4410\",\"38\",\"1\",\"Training\",\"Stims/Figures/44-C-30-3.bmp\",\"va:fava\",\"Down\",\"38\",\"5\",\"14\",\"6B\",\"C1\",\"C\",\"78\"
\"\",\"\",\"approach-retreat\",\"82\",\"763792\",\"0.0-82.0\",\"\",\"\",\"2-4\",\"4252\",\"39\",\"1\",\"Training\",\"Stims/Figures/118-J-0-2.bmp\",\"za:haha\",\"Right\",\"39\",\"5\",\"15\",\"6B\",\"C2\",\"C\",\"79\"
\"\",\"\",\"approach-retreat\",\"83\",\"769452\",\"0.0-83.0\",\"\",\"\",\"2-4\",\"4121\",\"39\",\"1\",\"Training\",\"Stims/Figures/19-C-20-4.bmp\",\"fafasha\",\"Left\",\"39\",\"5\",\"16\",\"6B\",\"C1\",\"C\",\"80\"
\"\",\"\",\"approach-retreat\",\"84\",\"775220\",\"0.0-84.0\",\"\",\"\",\"2-4\",\"4226\",\"37\",\"1\",\"Training\",\"Stims/Figures/144-C-30-3.bmp\",\"va:sha:sha\",\"Right\",\"37\",\"6\",\"1\",\"6B\",\"C1\",\"C\",\"81\"
\"\",\"\",\"approach-retreat\",\"85\",\"781046\",\"0.0-85.0\",\"\",\"\",\"2-4\",\"4289\",\"40\",\"1\",\"Training\",\"Stims/Figures/118-C-20-2.bmp\",\"fa:shava\",\"Up\",\"40\",\"6\",\"2\",\"6B\",\"C1\",\"C\",\"82\"
\"\",\"\",\"approach-retreat\",\"86\",\"786848\",\"0.0-86.0\",\"\",\"\",\"2-4\",\"4263\",\"39\",\"1\",\"Training\",\"Stims/Figures/84-C-20-2.bmp\",\"vafava\",\"Left\",\"39\",\"6\",\"3\",\"6B\",\"C1\",\"C\",\"83\"
\"\",\"\",\"approach-retreat\",\"87\",\"792516\",\"0.0-87.0\",\"\",\"\",\"2-4\",\"4130\",\"40\",\"1\",\"Training\",\"Stims/Figures/19-C-20-4.bmp\",\"fafasha\",\"Up\",\"40\",\"6\",\"4\",\"6B\",\"C1\",\"C\",\"84\"
\"\",\"\",\"approach-retreat\",\"88\",\"798790\",\"0.0-88.0\",\"\",\"\",\"2-4\",\"4734\",\"40\",\"1\",\"Training\",\"Stims/Figures/84-J-0-2.bmp\",\"zasa:za\",\"Down\",\"40\",\"6\",\"5\",\"6B\",\"C2\",\"C\",\"85\"
\"\",\"\",\"approach-retreat\",\"89\",\"804657\",\"0.0-89.0\",\"\",\"\",\"2-4\",\"4325\",\"37\",\"1\",\"Training\",\"Stims/Figures/44-J-10-3.bmp\",\"zasaha\",\"Left\",\"37\",\"6\",\"6\",\"6B\",\"C2\",\"C\",\"86\"
\"\",\"\",\"approach-retreat\",\"90\",\"810282\",\"0.0-90.0\",\"\",\"\",\"2-4\",\"4090\",\"37\",\"1\",\"Training\",\"Stims/Figures/93-C-30-1.bmp\",\"vafa:va\",\"Right\",\"37\",\"6\",\"7\",\"6B\",\"C1\",\"C\",\"87\"
\"\",\"\",\"approach-retreat\",\"91\",\"816030\",\"0.0-91.0\",\"\",\"\",\"2-4\",\"4213\",\"37\",\"1\",\"Training\",\"Stims/Figures/118-J-0-2.bmp\",\"za:haha\",\"Left\",\"37\",\"6\",\"8\",\"6B\",\"C2\",\"C\",\"88\"
\"\",\"\",\"approach-retreat\",\"92\",\"821787\",\"0.0-92.0\",\"\",\"\",\"2-4\",\"4218\",\"40\",\"1\",\"Training\",\"Stims/Figures/44-C-30-3.bmp\",\"va:fava\",\"Up\",\"40\",\"6\",\"9\",\"6B\",\"C1\",\"C\",\"89\"
\"\",\"\",\"approach-retreat\",\"93\",\"827578\",\"0.0-93.0\",\"\",\"\",\"2-4\",\"4259\",\"40\",\"1\",\"Training\",\"Stims/Figures/144-J-10-3.bmp\",\"zasaza\",\"Down\",\"40\",\"6\",\"10\",\"6B\",\"C2\",\"C\",\"90\"
\"\",\"\",\"approach-retreat\",\"94\",\"833757\",\"0.0-94.0\",\"\",\"\",\"2-4\",\"4643\",\"37\",\"0\",\"Training\",\"Stims/Figures/27-C-30-1.bmp\",\"vasha:sha\",\"Left\",\"39\",\"6\",\"11\",\"6B\",\"C1\",\"C\",\"91\"
\"\",\"\",\"approach-retreat\",\"95\",\"839543\",\"0.0-95.0\",\"\",\"\",\"2-4\",\"4246\",\"38\",\"1\",\"Training\",\"Stims/Figures/7-C-20-4.bmp\",\"vafa:sha\",\"Down\",\"38\",\"6\",\"12\",\"6B\",\"C1\",\"C\",\"92\"
\"\",\"\",\"approach-retreat\",\"96\",\"845364\",\"0.0-96.0\",\"\",\"\",\"2-4\",\"4287\",\"39\",\"1\",\"Training\",\"Stims/Figures/19-J-10-4.bmp\",\"zahaza\",\"Right\",\"39\",\"6\",\"13\",\"6B\",\"C2\",\"C\",\"93\"
\"\",\"\",\"approach-retreat\",\"97\",\"851291\",\"0.0-97.0\",\"\",\"\",\"2-4\",\"4390\",\"40\",\"1\",\"Training\",\"Stims/Figures/7-J-10-4.bmp\",\"za:saha\",\"Down\",\"40\",\"6\",\"14\",\"6B\",\"C2\",\"C\",\"94\"
\"\",\"\",\"approach-retreat\",\"98\",\"857346\",\"0.0-98.0\",\"\",\"\",\"2-4\",\"4517\",\"38\",\"1\",\"Training\",\"Stims/Figures/27-J-0-1.bmp\",\"za:ha:ha\",\"Up\",\"38\",\"6\",\"15\",\"6B\",\"C2\",\"C\",\"95\"
\"\",\"\",\"approach-retreat\",\"99\",\"863621\",\"0.0-99.0\",\"\",\"\",\"2-4\",\"4739\",\"39\",\"1\",\"Training\",\"Stims/Figures/93-J-0-1.bmp\",\"za:haza\",\"Right\",\"39\",\"6\",\"16\",\"6B\",\"C2\",\"C\",\"96\"
\"\",\"\",\"approach-retreat\",\"100\",\"869614\",\"0.0-100.0\",\"\",\"\",\"2-4\",\"4457\",\"40\",\"1\",\"Training\",\"Stims/Figures/93-J-0-1.bmp\",\"za:haza\",\"Down\",\"40\",\"7\",\"1\",\"6B\",\"C2\",\"C\",\"97\"
\"\",\"\",\"approach-retreat\",\"101\",\"875527\",\"0.0-101.0\",\"\",\"\",\"2-4\",\"4374\",\"39\",\"1\",\"Training\",\"Stims/Figures/118-J-0-2.bmp\",\"za:haha\",\"Right\",\"39\",\"7\",\"2\",\"6B\",\"C2\",\"C\",\"98\"
\"\",\"\",\"approach-retreat\",\"102\",\"881299\",\"0.0-102.0\",\"\",\"\",\"2-4\",\"4234\",\"37\",\"1\",\"Training\",\"Stims/Figures/44-C-30-3.bmp\",\"va:fava\",\"Right\",\"37\",\"7\",\"3\",\"6B\",\"C1\",\"C\",\"99\"
\"\",\"\",\"approach-retreat\",\"103\",\"887274\",\"0.0-103.0\",\"\",\"\",\"2-4\",\"4437\",\"40\",\"1\",\"Training\",\"Stims/Figures/118-C-20-2.bmp\",\"fa:shava\",\"Up\",\"40\",\"7\",\"4\",\"6B\",\"C1\",\"C\",\"100\"
\"\",\"\",\"approach-retreat\",\"104\",\"893065\",\"0.0-104.0\",\"\",\"\",\"2-4\",\"4256\",\"38\",\"1\",\"Training\",\"Stims/Figures/27-C-30-1.bmp\",\"vasha:sha\",\"Down\",\"38\",\"7\",\"5\",\"6B\",\"C1\",\"C\",\"101\"
\"\",\"\",\"approach-retreat\",\"105\",\"899436\",\"0.0-105.0\",\"\",\"\",\"2-4\",\"4830\",\"39\",\"1\",\"Training\",\"Stims/Figures/7-J-10-4.bmp\",\"za:saha\",\"Right\",\"39\",\"7\",\"6\",\"6B\",\"C2\",\"C\",\"102\"
\"\",\"\",\"approach-retreat\",\"106\",\"905218\",\"0.0-106.0\",\"\",\"\",\"2-4\",\"4244\",\"40\",\"1\",\"Training\",\"Stims/Figures/7-C-20-4.bmp\",\"vafa:sha\",\"Up\",\"40\",\"7\",\"7\",\"6B\",\"C1\",\"C\",\"103\"
\"\",\"\",\"approach-retreat\",\"107\",\"910977\",\"0.0-107.0\",\"\",\"\",\"2-4\",\"4224\",\"38\",\"1\",\"Training\",\"Stims/Figures/44-J-10-3.bmp\",\"zasaha\",\"Up\",\"38\",\"7\",\"8\",\"6B\",\"C2\",\"C\",\"104\"
\"\",\"\",\"approach-retreat\",\"108\",\"916872\",\"0.0-108.0\",\"\",\"\",\"2-4\",\"4357\",\"39\",\"1\",\"Training\",\"Stims/Figures/84-C-20-2.bmp\",\"vafava\",\"Left\",\"39\",\"7\",\"9\",\"6B\",\"C1\",\"C\",\"105\"
\"\",\"\",\"approach-retreat\",\"109\",\"922914\",\"0.0-109.0\",\"\",\"\",\"2-4\",\"4502\",\"37\",\"1\",\"Training\",\"Stims/Figures/144-J-10-3.bmp\",\"zasaza\",\"Left\",\"37\",\"7\",\"10\",\"6B\",\"C2\",\"C\",\"106\"
\"\",\"\",\"approach-retreat\",\"110\",\"928930\",\"0.0-110.0\",\"\",\"\",\"2-4\",\"4483\",\"38\",\"1\",\"Training\",\"Stims/Figures/144-C-30-3.bmp\",\"va:sha:sha\",\"Down\",\"38\",\"7\",\"11\",\"6B\",\"C1\",\"C\",\"107\"
\"\",\"\",\"approach-retreat\",\"111\",\"934564\",\"0.0-111.0\",\"\",\"\",\"2-4\",\"4096\",\"39\",\"1\",\"Training\",\"Stims/Figures/19-C-20-4.bmp\",\"fafasha\",\"Left\",\"39\",\"7\",\"12\",\"6B\",\"C1\",\"C\",\"108\"
\"\",\"\",\"approach-retreat\",\"112\",\"940544\",\"0.0-112.0\",\"\",\"\",\"2-4\",\"4442\",\"40\",\"1\",\"Training\",\"Stims/Figures/84-J-0-2.bmp\",\"zasa:za\",\"Down\",\"40\",\"7\",\"13\",\"6B\",\"C2\",\"C\",\"109\"
\"\",\"\",\"approach-retreat\",\"113\",\"946513\",\"0.0-113.0\",\"\",\"\",\"2-4\",\"4429\",\"37\",\"1\",\"Training\",\"Stims/Figures/27-J-0-1.bmp\",\"za:ha:ha\",\"Left\",\"37\",\"7\",\"14\",\"6B\",\"C2\",\"C\",\"110\"
\"\",\"\",\"approach-retreat\",\"114\",\"952713\",\"0.0-114.0\",\"\",\"\",\"2-4\",\"4661\",\"40\",\"1\",\"Training\",\"Stims/Figures/93-C-30-1.bmp\",\"vafa:va\",\"Up\",\"40\",\"7\",\"15\",\"6B\",\"C1\",\"C\",\"111\"
\"\",\"\",\"approach-retreat\",\"115\",\"959049\",\"0.0-115.0\",\"\",\"\",\"2-4\",\"4796\",\"37\",\"0\",\"Training\",\"Stims/Figures/19-J-10-4.bmp\",\"zahaza\",\"Right\",\"39\",\"7\",\"16\",\"6B\",\"C2\",\"C\",\"112\"
\"\",\"\",\"approach-retreat\",\"116\",\"964993\",\"0.0-116.0\",\"\",\"\",\"2-4\",\"4406\",\"39\",\"1\",\"Training\",\"Stims/Figures/144-C-30-3.bmp\",\"va:sha:sha\",\"Left\",\"39\",\"8\",\"1\",\"6B\",\"C1\",\"C\",\"113\"
\"\",\"\",\"approach-retreat\",\"117\",\"970713\",\"0.0-117.0\",\"\",\"\",\"2-4\",\"4182\",\"40\",\"1\",\"Training\",\"Stims/Figures/7-C-20-4.bmp\",\"vafa:sha\",\"Up\",\"40\",\"8\",\"2\",\"6B\",\"C1\",\"C\",\"114\"
\"\",\"\",\"approach-retreat\",\"118\",\"976497\",\"0.0-118.0\",\"\",\"\",\"2-4\",\"4241\",\"38\",\"1\",\"Training\",\"Stims/Figures/27-C-30-1.bmp\",\"vasha:sha\",\"Down\",\"38\",\"8\",\"3\",\"6B\",\"C1\",\"C\",\"115\"
\"\",\"\",\"approach-retreat\",\"119\",\"982276\",\"0.0-119.0\",\"\",\"\",\"2-4\",\"4242\",\"40\",\"1\",\"Training\",\"Stims/Figures/144-J-10-3.bmp\",\"zasaza\",\"Down\",\"40\",\"8\",\"4\",\"6B\",\"C2\",\"C\",\"116\"
\"\",\"\",\"approach-retreat\",\"120\",\"988206\",\"0.0-120.0\",\"\",\"\",\"2-4\",\"4392\",\"40\",\"1\",\"Training\",\"Stims/Figures/19-C-20-4.bmp\",\"fafasha\",\"Up\",\"40\",\"8\",\"5\",\"6B\",\"C1\",\"C\",\"117\"
\"\",\"\",\"approach-retreat\",\"121\",\"993909\",\"0.0-121.0\",\"\",\"\",\"2-4\",\"4161\",\"40\",\"1\",\"Training\",\"Stims/Figures/118-C-20-2.bmp\",\"fa:shava\",\"Up\",\"40\",\"8\",\"6\",\"6B\",\"C1\",\"C\",\"118\"
\"\",\"\",\"approach-retreat\",\"122\",\"999620\",\"0.0-122.0\",\"\",\"\",\"2-4\",\"4177\",\"40\",\"0\",\"Training\",\"Stims/Figures/19-J-10-4.bmp\",\"zahaza\",\"Up\",\"38\",\"8\",\"7\",\"6B\",\"C2\",\"C\",\"119\"
\"\",\"\",\"approach-retreat\",\"123\",\"1005306\",\"0.0-123.0\",\"\",\"\",\"2-4\",\"4150\",\"39\",\"1\",\"Training\",\"Stims/Figures/118-J-0-2.bmp\",\"za:haha\",\"Right\",\"39\",\"8\",\"8\",\"6B\",\"C2\",\"C\",\"120\"
\"\",\"\",\"approach-retreat\",\"124\",\"1011511\",\"0.0-124.0\",\"\",\"\",\"2-4\",\"4666\",\"37\",\"1\",\"Training\",\"Stims/Figures/84-C-20-2.bmp\",\"vafava\",\"Right\",\"37\",\"8\",\"9\",\"6B\",\"C1\",\"C\",\"121\"
\"\",\"\",\"approach-retreat\",\"125\",\"1017289\",\"0.0-125.0\",\"\",\"\",\"2-4\",\"4239\",\"37\",\"1\",\"Training\",\"Stims/Figures/84-J-0-2.bmp\",\"zasa:za\",\"Left\",\"37\",\"8\",\"10\",\"6B\",\"C2\",\"C\",\"122\"
\"\",\"\",\"approach-retreat\",\"126\",\"1022926\",\"0.0-126.0\",\"\",\"\",\"2-4\",\"4100\",\"37\",\"1\",\"Training\",\"Stims/Figures/44-J-10-3.bmp\",\"zasaha\",\"Left\",\"37\",\"8\",\"11\",\"6B\",\"C2\",\"C\",\"123\"
\"\",\"\",\"approach-retreat\",\"127\",\"1029289\",\"0.0-127.0\",\"\",\"\",\"2-4\",\"4825\",\"38\",\"1\",\"Training\",\"Stims/Figures/93-C-30-1.bmp\",\"vafa:va\",\"Down\",\"38\",\"8\",\"12\",\"6B\",\"C1\",\"C\",\"124\"
\"\",\"\",\"approach-retreat\",\"128\",\"1034948\",\"0.0-128.0\",\"\",\"\",\"2-4\",\"4122\",\"40\",\"1\",\"Training\",\"Stims/Figures/7-J-10-4.bmp\",\"za:saha\",\"Down\",\"40\",\"8\",\"13\",\"6B\",\"C2\",\"C\",\"125\"
\"\",\"\",\"approach-retreat\",\"129\",\"1040791\",\"0.0-129.0\",\"\",\"\",\"2-4\",\"4304\",\"37\",\"1\",\"Training\",\"Stims/Figures/44-C-30-3.bmp\",\"va:fava\",\"Right\",\"37\",\"8\",\"14\",\"6B\",\"C1\",\"C\",\"126\"
\"\",\"\",\"approach-retreat\",\"130\",\"1047019\",\"0.0-130.0\",\"\",\"\",\"2-4\",\"4696\",\"37\",\"1\",\"Training\",\"Stims/Figures/93-J-0-1.bmp\",\"za:haza\",\"Left\",\"37\",\"8\",\"15\",\"6B\",\"C2\",\"C\",\"127\"
\"\",\"\",\"approach-retreat\",\"131\",\"1052688\",\"0.0-131.0\",\"\",\"\",\"2-4\",\"4133\",\"39\",\"1\",\"Training\",\"Stims/Figures/27-J-0-1.bmp\",\"za:ha:ha\",\"Right\",\"39\",\"8\",\"16\",\"6B\",\"C2\",\"C\",\"128\"
\"\",\"\",\"approach-retreat\",\"132\",\"1058832\",\"0.0-132.0\",\"\",\"\",\"2-4\",\"4606\",\"39\",\"1\",\"Training\",\"Stims/Figures/144-C-30-3.bmp\",\"va:sha:sha\",\"Left\",\"39\",\"9\",\"1\",\"6B\",\"C1\",\"C\",\"129\"
\"\",\"\",\"approach-retreat\",\"133\",\"1064390\",\"0.0-133.0\",\"\",\"\",\"2-4\",\"4019\",\"39\",\"1\",\"Training\",\"Stims/Figures/84-C-20-2.bmp\",\"vafava\",\"Left\",\"39\",\"9\",\"2\",\"6B\",\"C1\",\"C\",\"130\"
\"\",\"\",\"approach-retreat\",\"134\",\"1070240\",\"0.0-134.0\",\"\",\"\",\"2-4\",\"4311\",\"40\",\"1\",\"Training\",\"Stims/Figures/27-C-30-1.bmp\",\"vasha:sha\",\"Up\",\"40\",\"9\",\"3\",\"6B\",\"C1\",\"C\",\"131\"
\"\",\"\",\"approach-retreat\",\"135\",\"1076225\",\"0.0-135.0\",\"\",\"\",\"2-4\",\"4447\",\"40\",\"1\",\"Training\",\"Stims/Figures/27-J-0-1.bmp\",\"za:ha:ha\",\"Down\",\"40\",\"9\",\"4\",\"6B\",\"C2\",\"C\",\"132\"
\"\",\"\",\"approach-retreat\",\"136\",\"1082283\",\"0.0-136.0\",\"\",\"\",\"2-4\",\"4522\",\"40\",\"1\",\"Training\",\"Stims/Figures/93-J-0-1.bmp\",\"za:haza\",\"Down\",\"40\",\"9\",\"5\",\"6B\",\"C2\",\"C\",\"133\"
\"\",\"\",\"approach-retreat\",\"137\",\"1087817\",\"0.0-137.0\",\"\",\"\",\"2-4\",\"3991\",\"37\",\"1\",\"Training\",\"Stims/Figures/44-C-30-3.bmp\",\"va:fava\",\"Right\",\"37\",\"9\",\"6\",\"6B\",\"C1\",\"C\",\"134\"
\"\",\"\",\"approach-retreat\",\"138\",\"1093558\",\"0.0-138.0\",\"\",\"\",\"2-4\",\"4203\",\"40\",\"1\",\"Training\",\"Stims/Figures/118-J-0-2.bmp\",\"za:haha\",\"Down\",\"40\",\"9\",\"7\",\"6B\",\"C2\",\"C\",\"135\"
\"\",\"\",\"approach-retreat\",\"139\",\"1099227\",\"0.0-139.0\",\"\",\"\",\"2-4\",\"4131\",\"37\",\"1\",\"Training\",\"Stims/Figures/19-C-20-4.bmp\",\"fafasha\",\"Right\",\"37\",\"9\",\"8\",\"6B\",\"C1\",\"C\",\"136\"
\"\",\"\",\"approach-retreat\",\"140\",\"1104908\",\"0.0-140.0\",\"\",\"\",\"2-4\",\"4143\",\"37\",\"1\",\"Training\",\"Stims/Figures/118-C-20-2.bmp\",\"fa:shava\",\"Right\",\"37\",\"9\",\"9\",\"6B\",\"C1\",\"C\",\"137\"
\"\",\"\",\"approach-retreat\",\"141\",\"1111107\",\"0.0-141.0\",\"\",\"\",\"2-4\",\"4662\",\"40\",\"1\",\"Training\",\"Stims/Figures/93-C-30-1.bmp\",\"vafa:va\",\"Up\",\"40\",\"9\",\"10\",\"6B\",\"C1\",\"C\",\"138\"
\"\",\"\",\"approach-retreat\",\"142\",\"1117160\",\"0.0-142.0\",\"\",\"\",\"2-4\",\"4514\",\"38\",\"1\",\"Training\",\"Stims/Figures/44-J-10-3.bmp\",\"zasaha\",\"Up\",\"38\",\"9\",\"11\",\"6B\",\"C2\",\"C\",\"139\"
\"\",\"\",\"approach-retreat\",\"143\",\"1122840\",\"0.0-143.0\",\"\",\"\",\"2-4\",\"4143\",\"37\",\"1\",\"Training\",\"Stims/Figures/144-J-10-3.bmp\",\"zasaza\",\"Left\",\"37\",\"9\",\"12\",\"6B\",\"C2\",\"C\",\"140\"
\"\",\"\",\"approach-retreat\",\"144\",\"1128454\",\"0.0-144.0\",\"\",\"\",\"2-4\",\"4078\",\"37\",\"1\",\"Training\",\"Stims/Figures/19-J-10-4.bmp\",\"zahaza\",\"Left\",\"37\",\"9\",\"13\",\"6B\",\"C2\",\"C\",\"141\"
\"\",\"\",\"approach-retreat\",\"145\",\"1134247\",\"0.0-145.0\",\"\",\"\",\"2-4\",\"4252\",\"39\",\"1\",\"Training\",\"Stims/Figures/7-J-10-4.bmp\",\"za:saha\",\"Right\",\"39\",\"9\",\"14\",\"6B\",\"C2\",\"C\",\"142\"
\"\",\"\",\"approach-retreat\",\"146\",\"1140379\",\"0.0-146.0\",\"\",\"\",\"2-4\",\"4594\",\"38\",\"1\",\"Training\",\"Stims/Figures/7-C-20-4.bmp\",\"vafa:sha\",\"Down\",\"38\",\"9\",\"15\",\"6B\",\"C1\",\"C\",\"143\"
\"\",\"\",\"approach-retreat\",\"147\",\"1147055\",\"0.0-147.0\",\"\",\"\",\"2-4\",\"5136\",\"38\",\"1\",\"Training\",\"Stims/Figures/84-J-0-2.bmp\",\"zasa:za\",\"Up\",\"38\",\"9\",\"16\",\"6B\",\"C2\",\"C\",\"144\"
\"18011\",\"\",\"instructions\",\"148\",\"1165067\",\"0.0-148.0\",\"[{\"\"page_index\"\":0,\"\"viewing_time\"\":18009}]\",\"\",\"\",\"\",\"\",\"\",\"\",\"\",\"\",\"\",\"\",\"\",\"\",\"\",\"\",\"\",\"\"
\"\",\"\",\"approach-retreat\",\"149\",\"1171051\",\"0.0-149.0\",\"\",\"\",\"2-4\",\"4460\",\"40\",\"1\",\"Testing\",\"Stims/Figures/19-J-10-4.bmp\",\"zahaza\",\"Down\",\"40\",\"1\",\"1\",\"6B\",\"C2\",\"C\",\"1\"
\"\",\"\",\"approach-retreat\",\"150\",\"1176877\",\"0.0-150.0\",\"\",\"\",\"2-4\",\"4256\",\"39\",\"1\",\"Testing\",\"Stims/Figures/93-C-30-1.bmp\",\"vafa:va\",\"Left\",\"39\",\"1\",\"2\",\"6B\",\"C1\",\"C\",\"2\"
\"\",\"\",\"approach-retreat\",\"151\",\"1182665\",\"0.0-151.0\",\"\",\"\",\"2-4\",\"4257\",\"38\",\"1\",\"Testing\",\"Stims/Figures/118-C-20-2.bmp\",\"fa:shava\",\"Down\",\"38\",\"1\",\"3\",\"6B\",\"C1\",\"C\",\"3\"
\"\",\"\",\"approach-retreat\",\"152\",\"1188480\",\"0.0-152.0\",\"\",\"\",\"2-4\",\"4286\",\"40\",\"1\",\"Testing\",\"Stims/Figures/118-J-0-2.bmp\",\"za:haha\",\"Down\",\"40\",\"1\",\"4\",\"6B\",\"C2\",\"C\",\"4\"
\"\",\"\",\"approach-retreat\",\"153\",\"1194258\",\"0.0-153.0\",\"\",\"\",\"2-4\",\"4248\",\"37\",\"1\",\"Testing\",\"Stims/Figures/7-J-10-4.bmp\",\"za:saha\",\"Left\",\"37\",\"1\",\"5\",\"6B\",\"C2\",\"C\",\"5\"
\"\",\"\",\"approach-retreat\",\"154\",\"1200007\",\"0.0-154.0\",\"\",\"\",\"2-4\",\"4218\",\"39\",\"1\",\"Testing\",\"Stims/Figures/7-C-20-4.bmp\",\"vafa:sha\",\"Left\",\"39\",\"1\",\"6\",\"6B\",\"C1\",\"C\",\"6\"
\"\",\"\",\"approach-retreat\",\"155\",\"1205916\",\"0.0-155.0\",\"\",\"\",\"2-4\",\"4382\",\"39\",\"1\",\"Testing\",\"Stims/Figures/86-C-30-1.bmp\",\"fa:sha:va\",\"Left\",\"39\",\"1\",\"7\",\"6B\",\"C1\",\"C\",\"7\"
\"\",\"\",\"approach-retreat\",\"156\",\"1211727\",\"0.0-156.0\",\"\",\"\",\"2-4\",\"4277\",\"40\",\"1\",\"Testing\",\"Stims/Figures/85-J-0-2.bmp\",\"zahaha\",\"Down\",\"40\",\"1\",\"8\",\"6B\",\"C2\",\"C\",\"8\"
\"\",\"\",\"approach-retreat\",\"157\",\"1217453\",\"0.0-157.0\",\"\",\"\",\"2-4\",\"4197\",\"40\",\"1\",\"Testing\",\"Stims/Figures/86-J-0-1.bmp\",\"za:saza\",\"Down\",\"40\",\"1\",\"9\",\"6B\",\"C2\",\"C\",\"9\"
\"\",\"\",\"approach-retreat\",\"158\",\"1223175\",\"0.0-158.0\",\"\",\"\",\"2-4\",\"4194\",\"37\",\"1\",\"Testing\",\"Stims/Figures/19-C-20-4.bmp\",\"fafasha\",\"Right\",\"37\",\"1\",\"10\",\"6B\",\"C1\",\"C\",\"10\"
\"\",\"\",\"approach-retreat\",\"159\",\"1228830\",\"0.0-159.0\",\"\",\"\",\"2-4\",\"4128\",\"37\",\"1\",\"Testing\",\"Stims/Figures/84-C-20-2.bmp\",\"vafava\",\"Right\",\"37\",\"1\",\"11\",\"6B\",\"C1\",\"C\",\"11\"
\"\",\"\",\"approach-retreat\",\"160\",\"1234503\",\"0.0-160.0\",\"\",\"\",\"2-4\",\"4144\",\"39\",\"1\",\"Testing\",\"Stims/Figures/44-C-30-3.bmp\",\"va:fava\",\"Left\",\"39\",\"1\",\"12\",\"6B\",\"C1\",\"C\",\"12\"
\"\",\"\",\"approach-retreat\",\"161\",\"1240304\",\"0.0-161.0\",\"\",\"\",\"2-4\",\"4272\",\"38\",\"1\",\"Testing\",\"Stims/Figures/128-C-30-3.bmp\",\"fa:fasha\",\"Down\",\"38\",\"1\",\"13\",\"6B\",\"C1\",\"C\",\"13\"
\"\",\"\",\"approach-retreat\",\"162\",\"1246086\",\"0.0-162.0\",\"\",\"\",\"2-4\",\"4253\",\"39\",\"1\",\"Testing\",\"Stims/Figures/93-J-0-1.bmp\",\"za:haza\",\"Right\",\"39\",\"1\",\"14\",\"6B\",\"C2\",\"C\",\"14\"
\"\",\"\",\"approach-retreat\",\"163\",\"1252090\",\"0.0-163.0\",\"\",\"\",\"2-4\",\"4476\",\"38\",\"1\",\"Testing\",\"Stims/Figures/44-J-10-3.bmp\",\"zasaha\",\"Up\",\"38\",\"1\",\"15\",\"6B\",\"C2\",\"C\",\"15\"
\"\",\"\",\"approach-retreat\",\"164\",\"1257985\",\"0.0-164.0\",\"\",\"\",\"2-4\",\"4365\",\"38\",\"1\",\"Testing\",\"Stims/Figures/74-J-10-4.bmp\",\"sasa:ha\",\"Up\",\"38\",\"1\",\"16\",\"6B\",\"C2\",\"C\",\"16\"
\"\",\"\",\"approach-retreat\",\"165\",\"1263744\",\"0.0-165.0\",\"\",\"\",\"2-4\",\"4226\",\"37\",\"1\",\"Testing\",\"Stims/Figures/144-C-30-3.bmp\",\"va:sha:sha\",\"Right\",\"37\",\"1\",\"17\",\"6B\",\"C1\",\"C\",\"17\"
\"\",\"\",\"approach-retreat\",\"166\",\"1269715\",\"0.0-166.0\",\"\",\"\",\"2-4\",\"4440\",\"38\",\"1\",\"Testing\",\"Stims/Figures/144-J-10-3.bmp\",\"zasaza\",\"Up\",\"38\",\"1\",\"18\",\"6B\",\"C2\",\"C\",\"18\"
\"\",\"\",\"approach-retreat\",\"167\",\"1275361\",\"0.0-167.0\",\"\",\"\",\"2-4\",\"4101\",\"37\",\"1\",\"Testing\",\"Stims/Figures/128-J-10-3.bmp\",\"sa:ha:za\",\"Left\",\"37\",\"1\",\"19\",\"6B\",\"C2\",\"C\",\"19\"
\"\",\"\",\"approach-retreat\",\"168\",\"1281238\",\"0.0-168.0\",\"\",\"\",\"2-4\",\"4349\",\"37\",\"1\",\"Testing\",\"Stims/Figures/74-C-20-4.bmp\",\"fa:shasha\",\"Right\",\"37\",\"1\",\"20\",\"6B\",\"C1\",\"C\",\"20\"
\"\",\"\",\"approach-retreat\",\"169\",\"1287161\",\"0.0-169.0\",\"\",\"\",\"2-4\",\"4394\",\"38\",\"1\",\"Testing\",\"Stims/Figures/84-J-0-2.bmp\",\"zasa:za\",\"Up\",\"38\",\"1\",\"21\",\"6B\",\"C2\",\"C\",\"21\"
\"\",\"\",\"approach-retreat\",\"170\",\"1292814\",\"0.0-170.0\",\"\",\"\",\"2-4\",\"4125\",\"39\",\"1\",\"Testing\",\"Stims/Figures/27-J-0-1.bmp\",\"za:ha:ha\",\"Right\",\"39\",\"1\",\"22\",\"6B\",\"C2\",\"C\",\"22\"
\"\",\"\",\"approach-retreat\",\"171\",\"1298640\",\"0.0-171.0\",\"\",\"\",\"2-4\",\"4297\",\"40\",\"1\",\"Testing\",\"Stims/Figures/85-C-20-2.bmp\",\"fafa:sha\",\"Up\",\"40\",\"1\",\"23\",\"6B\",\"C1\",\"C\",\"23\"
\"\",\"\",\"approach-retreat\",\"172\",\"1304444\",\"0.0-172.0\",\"\",\"\",\"2-4\",\"4276\",\"40\",\"1\",\"Testing\",\"Stims/Figures/27-C-30-1.bmp\",\"vasha:sha\",\"Up\",\"40\",\"1\",\"24\",\"6B\",\"C1\",\"C\",\"24\"
\"\",\"\",\"approach-retreat\",\"173\",\"1310276\",\"0.0-173.0\",\"\",\"\",\"2-4\",\"4301\",\"40\",\"1\",\"Testing\",\"Stims/Figures/128-J-10-3.bmp\",\"sa:ha:za\",\"Down\",\"40\",\"2\",\"1\",\"6B\",\"C2\",\"C\",\"25\"
\"\",\"\",\"approach-retreat\",\"174\",\"1315983\",\"0.0-174.0\",\"\",\"\",\"2-4\",\"4180\",\"39\",\"1\",\"Testing\",\"Stims/Figures/44-J-10-3.bmp\",\"zasaha\",\"Right\",\"39\",\"2\",\"2\",\"6B\",\"C2\",\"C\",\"26\"
\"\",\"\",\"approach-retreat\",\"175\",\"1322545\",\"0.0-175.0\",\"\",\"\",\"2-4\",\"5031\",\"38\",\"1\",\"Testing\",\"Stims/Figures/85-J-0-2.bmp\",\"zahaha\",\"Up\",\"38\",\"2\",\"3\",\"6B\",\"C2\",\"C\",\"27\"
\"\",\"\",\"approach-retreat\",\"176\",\"1328648\",\"0.0-176.0\",\"\",\"\",\"2-4\",\"4574\",\"38\",\"1\",\"Testing\",\"Stims/Figures/44-C-30-3.bmp\",\"va:fava\",\"Down\",\"38\",\"2\",\"4\",\"6B\",\"C1\",\"C\",\"28\"
\"\",\"\",\"approach-retreat\",\"177\",\"1334501\",\"0.0-177.0\",\"\",\"\",\"2-4\",\"4322\",\"40\",\"1\",\"Testing\",\"Stims/Figures/93-C-30-1.bmp\",\"vafa:va\",\"Up\",\"40\",\"2\",\"5\",\"6B\",\"C1\",\"C\",\"29\"
\"\",\"\",\"approach-retreat\",\"178\",\"1340128\",\"0.0-178.0\",\"\",\"\",\"2-4\",\"4099\",\"39\",\"1\",\"Testing\",\"Stims/Figures/144-J-10-3.bmp\",\"zasaza\",\"Right\",\"39\",\"2\",\"6\",\"6B\",\"C2\",\"C\",\"30\"
\"\",\"\",\"approach-retreat\",\"179\",\"1345907\",\"0.0-179.0\",\"\",\"\",\"2-4\",\"4252\",\"39\",\"1\",\"Testing\",\"Stims/Figures/27-C-30-1.bmp\",\"vasha:sha\",\"Left\",\"39\",\"2\",\"7\",\"6B\",\"C1\",\"C\",\"31\"
\"\",\"\",\"approach-retreat\",\"180\",\"1351651\",\"0.0-180.0\",\"\",\"\",\"2-4\",\"4215\",\"39\",\"1\",\"Testing\",\"Stims/Figures/128-C-30-3.bmp\",\"fa:fasha\",\"Left\",\"39\",\"2\",\"8\",\"6B\",\"C1\",\"C\",\"32\"
\"\",\"\",\"approach-retreat\",\"181\",\"1357615\",\"0.0-181.0\",\"\",\"\",\"2-4\",\"4436\",\"38\",\"1\",\"Testing\",\"Stims/Figures/7-J-10-4.bmp\",\"za:saha\",\"Up\",\"38\",\"2\",\"9\",\"6B\",\"C2\",\"C\",\"33\"
\"\",\"\",\"approach-retreat\",\"182\",\"1363382\",\"0.0-182.0\",\"\",\"\",\"2-4\",\"4239\",\"38\",\"1\",\"Testing\",\"Stims/Figures/19-J-10-4.bmp\",\"zahaza\",\"Up\",\"38\",\"2\",\"10\",\"6B\",\"C2\",\"C\",\"34\"
\"\",\"\",\"approach-retreat\",\"183\",\"1369220\",\"0.0-183.0\",\"\",\"\",\"2-4\",\"4310\",\"40\",\"1\",\"Testing\",\"Stims/Figures/74-J-10-4.bmp\",\"sasa:ha\",\"Down\",\"40\",\"2\",\"11\",\"6B\",\"C2\",\"C\",\"35\"
\"\",\"\",\"approach-retreat\",\"184\",\"1375002\",\"0.0-184.0\",\"\",\"\",\"2-4\",\"4252\",\"38\",\"1\",\"Testing\",\"Stims/Figures/118-J-0-2.bmp\",\"za:haha\",\"Up\",\"38\",\"2\",\"12\",\"6B\",\"C2\",\"C\",\"36\"
\"\",\"\",\"approach-retreat\",\"185\",\"1380959\",\"0.0-185.0\",\"\",\"\",\"2-4\",\"4428\",\"37\",\"1\",\"Testing\",\"Stims/Figures/27-J-0-1.bmp\",\"za:ha:ha\",\"Left\",\"37\",\"2\",\"13\",\"6B\",\"C2\",\"C\",\"37\"
\"\",\"\",\"approach-retreat\",\"186\",\"1386656\",\"0.0-186.0\",\"\",\"\",\"2-4\",\"4168\",\"37\",\"1\",\"Testing\",\"Stims/Figures/86-C-30-1.bmp\",\"fa:sha:va\",\"Right\",\"37\",\"2\",\"14\",\"6B\",\"C1\",\"C\",\"38\"
\"\",\"\",\"approach-retreat\",\"187\",\"1392600\",\"0.0-187.0\",\"\",\"\",\"2-4\",\"4413\",\"39\",\"1\",\"Testing\",\"Stims/Figures/93-J-0-1.bmp\",\"za:haza\",\"Right\",\"39\",\"2\",\"15\",\"6B\",\"C2\",\"C\",\"39\"
\"\",\"\",\"approach-retreat\",\"188\",\"1398280\",\"0.0-188.0\",\"\",\"\",\"2-4\",\"4153\",\"37\",\"1\",\"Testing\",\"Stims/Figures/19-C-20-4.bmp\",\"fafasha\",\"Right\",\"37\",\"2\",\"16\",\"6B\",\"C1\",\"C\",\"40\"
\"\",\"\",\"approach-retreat\",\"189\",\"1404048\",\"0.0-189.0\",\"\",\"\",\"2-4\",\"4237\",\"39\",\"1\",\"Testing\",\"Stims/Figures/7-C-20-4.bmp\",\"vafa:sha\",\"Left\",\"39\",\"2\",\"17\",\"6B\",\"C1\",\"C\",\"41\"
\"\",\"\",\"approach-retreat\",\"190\",\"1409802\",\"0.0-190.0\",\"\",\"\",\"2-4\",\"4223\",\"39\",\"1\",\"Testing\",\"Stims/Figures/84-C-20-2.bmp\",\"vafava\",\"Left\",\"39\",\"2\",\"18\",\"6B\",\"C1\",\"C\",\"42\"
\"\",\"\",\"approach-retreat\",\"191\",\"1415671\",\"0.0-191.0\",\"\",\"\",\"2-4\",\"4340\",\"37\",\"1\",\"Testing\",\"Stims/Figures/144-C-30-3.bmp\",\"va:sha:sha\",\"Right\",\"37\",\"2\",\"19\",\"6B\",\"C1\",\"C\",\"43\"
\"\",\"\",\"approach-retreat\",\"192\",\"1421428\",\"0.0-192.0\",\"\",\"\",\"2-4\",\"4229\",\"37\",\"1\",\"Testing\",\"Stims/Figures/86-J-0-1.bmp\",\"za:saza\",\"Left\",\"37\",\"2\",\"20\",\"6B\",\"C2\",\"C\",\"44\"
\"\",\"\",\"approach-retreat\",\"193\",\"1427492\",\"0.0-193.0\",\"\",\"\",\"2-4\",\"4538\",\"38\",\"1\",\"Testing\",\"Stims/Figures/74-C-20-4.bmp\",\"fa:shasha\",\"Down\",\"38\",\"2\",\"21\",\"6B\",\"C1\",\"C\",\"45\"
\"\",\"\",\"approach-retreat\",\"194\",\"1433329\",\"0.0-194.0\",\"\",\"\",\"2-4\",\"4308\",\"40\",\"1\",\"Testing\",\"Stims/Figures/85-C-20-2.bmp\",\"fafa:sha\",\"Up\",\"40\",\"2\",\"22\",\"6B\",\"C1\",\"C\",\"46\"
\"\",\"\",\"approach-retreat\",\"195\",\"1439288\",\"0.0-195.0\",\"\",\"\",\"2-4\",\"4428\",\"40\",\"1\",\"Testing\",\"Stims/Figures/84-J-0-2.bmp\",\"zasa:za\",\"Down\",\"40\",\"2\",\"23\",\"6B\",\"C2\",\"C\",\"47\"
\"\",\"\",\"approach-retreat\",\"196\",\"1445023\",\"0.0-196.0\",\"\",\"\",\"2-4\",\"4206\",\"38\",\"1\",\"Testing\",\"Stims/Figures/118-C-20-2.bmp\",\"fa:shava\",\"Down\",\"38\",\"2\",\"24\",\"6B\",\"C1\",\"C\",\"48\"
\"\",\"\",\"approach-retreat\",\"197\",\"1450740\",\"0.0-197.0\",\"\",\"\",\"2-4\",\"4186\",\"39\",\"1\",\"Testing\",\"Stims/Figures/84-J-0-2.bmp\",\"zasa:za\",\"Right\",\"39\",\"3\",\"1\",\"6B\",\"C2\",\"C\",\"49\"
\"\",\"\",\"approach-retreat\",\"198\",\"1456464\",\"0.0-198.0\",\"\",\"\",\"2-4\",\"4193\",\"38\",\"1\",\"Testing\",\"Stims/Figures/86-C-30-1.bmp\",\"fa:sha:va\",\"Down\",\"38\",\"3\",\"2\",\"6B\",\"C1\",\"C\",\"50\"
\"\",\"\",\"approach-retreat\",\"199\",\"1462083\",\"0.0-199.0\",\"\",\"\",\"2-4\",\"4091\",\"37\",\"1\",\"Testing\",\"Stims/Figures/144-C-30-3.bmp\",\"va:sha:sha\",\"Right\",\"37\",\"3\",\"3\",\"6B\",\"C1\",\"C\",\"51\"
\"\",\"\",\"approach-retreat\",\"200\",\"1467714\",\"0.0-200.0\",\"\",\"\",\"2-4\",\"4103\",\"37\",\"1\",\"Testing\",\"Stims/Figures/118-J-0-2.bmp\",\"za:haha\",\"Left\",\"37\",\"3\",\"4\",\"6B\",\"C2\",\"C\",\"52\"
\"\",\"\",\"approach-retreat\",\"201\",\"1473387\",\"0.0-201.0\",\"\",\"\",\"2-4\",\"4144\",\"38\",\"1\",\"Testing\",\"Stims/Figures/118-C-20-2.bmp\",\"fa:shava\",\"Down\",\"38\",\"3\",\"5\",\"6B\",\"C1\",\"C\",\"53\"
\"\",\"\",\"approach-retreat\",\"202\",\"1479321\",\"0.0-202.0\",\"\",\"\",\"2-4\",\"4424\",\"38\",\"1\",\"Testing\",\"Stims/Figures/128-C-30-3.bmp\",\"fa:fasha\",\"Down\",\"38\",\"3\",\"6\",\"6B\",\"C1\",\"C\",\"54\"
\"\",\"\",\"approach-retreat\",\"203\",\"1485438\",\"0.0-203.0\",\"\",\"\",\"2-4\",\"4587\",\"40\",\"1\",\"Testing\",\"Stims/Figures/27-C-30-1.bmp\",\"vasha:sha\",\"Up\",\"40\",\"3\",\"7\",\"6B\",\"C1\",\"C\",\"55\"
\"\",\"\",\"approach-retreat\",\"204\",\"1491949\",\"0.0-204.0\",\"\",\"\",\"2-4\",\"4984\",\"40\",\"1\",\"Testing\",\"Stims/Figures/7-C-20-4.bmp\",\"vafa:sha\",\"Up\",\"40\",\"3\",\"8\",\"6B\",\"C1\",\"C\",\"56\"
\"\",\"\",\"approach-retreat\",\"205\",\"1497781\",\"0.0-205.0\",\"\",\"\",\"2-4\",\"4300\",\"38\",\"1\",\"Testing\",\"Stims/Figures/93-J-0-1.bmp\",\"za:haza\",\"Up\",\"38\",\"3\",\"9\",\"6B\",\"C2\",\"C\",\"57\"
\"\",\"\",\"approach-retreat\",\"206\",\"1503818\",\"0.0-206.0\",\"\",\"\",\"2-4\",\"4508\",\"40\",\"1\",\"Testing\",\"Stims/Figures/19-C-20-4.bmp\",\"fafasha\",\"Up\",\"40\",\"3\",\"10\",\"6B\",\"C1\",\"C\",\"58\"
\"\",\"\",\"approach-retreat\",\"207\",\"1509577\",\"0.0-207.0\",\"\",\"\",\"2-4\",\"4229\",\"40\",\"1\",\"Testing\",\"Stims/Figures/85-J-0-2.bmp\",\"zahaha\",\"Down\",\"40\",\"3\",\"11\",\"6B\",\"C2\",\"C\",\"59\"
\"\",\"\",\"approach-retreat\",\"208\",\"1515269\",\"0.0-208.0\",\"\",\"\",\"2-4\",\"4165\",\"39\",\"1\",\"Testing\",\"Stims/Figures/27-J-0-1.bmp\",\"za:ha:ha\",\"Right\",\"39\",\"3\",\"12\",\"6B\",\"C2\",\"C\",\"60\"
\"\",\"\",\"approach-retreat\",\"209\",\"1520856\",\"0.0-209.0\",\"\",\"\",\"2-4\",\"4057\",\"39\",\"1\",\"Testing\",\"Stims/Figures/74-J-10-4.bmp\",\"sasa:ha\",\"Right\",\"39\",\"3\",\"13\",\"6B\",\"C2\",\"C\",\"61\"
\"\",\"\",\"approach-retreat\",\"210\",\"1526449\",\"0.0-210.0\",\"\",\"\",\"2-4\",\"4081\",\"37\",\"1\",\"Testing\",\"Stims/Figures/7-J-10-4.bmp\",\"za:saha\",\"Left\",\"37\",\"3\",\"14\",\"6B\",\"C2\",\"C\",\"62\"
\"\",\"\",\"approach-retreat\",\"211\",\"1532381\",\"0.0-211.0\",\"\",\"\",\"2-4\",\"4402\",\"37\",\"1\",\"Testing\",\"Stims/Figures/144-J-10-3.bmp\",\"zasaza\",\"Left\",\"37\",\"3\",\"15\",\"6B\",\"C2\",\"C\",\"63\"
\"\",\"\",\"approach-retreat\",\"212\",\"1538116\",\"0.0-212.0\",\"\",\"\",\"2-4\",\"4205\",\"39\",\"1\",\"Testing\",\"Stims/Figures/44-C-30-3.bmp\",\"va:fava\",\"Left\",\"39\",\"3\",\"16\",\"6B\",\"C1\",\"C\",\"64\"
\"\",\"\",\"approach-retreat\",\"213\",\"1543962\",\"0.0-213.0\",\"\",\"\",\"2-4\",\"4318\",\"40\",\"1\",\"Testing\",\"Stims/Figures/84-C-20-2.bmp\",\"vafava\",\"Up\",\"40\",\"3\",\"17\",\"6B\",\"C1\",\"C\",\"65\"
\"\",\"\",\"approach-retreat\",\"214\",\"1549707\",\"0.0-214.0\",\"\",\"\",\"2-4\",\"4217\",\"37\",\"1\",\"Testing\",\"Stims/Figures/93-C-30-1.bmp\",\"vafa:va\",\"Right\",\"37\",\"3\",\"18\",\"6B\",\"C1\",\"C\",\"66\"
\"\",\"\",\"approach-retreat\",\"215\",\"1555391\",\"0.0-215.0\",\"\",\"\",\"2-4\",\"4155\",\"37\",\"1\",\"Testing\",\"Stims/Figures/128-J-10-3.bmp\",\"sa:ha:za\",\"Left\",\"37\",\"3\",\"19\",\"6B\",\"C2\",\"C\",\"67\"
\"\",\"\",\"approach-retreat\",\"216\",\"1561142\",\"0.0-216.0\",\"\",\"\",\"2-4\",\"4223\",\"40\",\"1\",\"Testing\",\"Stims/Figures/44-J-10-3.bmp\",\"zasaha\",\"Down\",\"40\",\"3\",\"20\",\"6B\",\"C2\",\"C\",\"68\"
\"\",\"\",\"approach-retreat\",\"217\",\"1566945\",\"0.0-217.0\",\"\",\"\",\"2-4\",\"4273\",\"37\",\"1\",\"Testing\",\"Stims/Figures/74-C-20-4.bmp\",\"fa:shasha\",\"Right\",\"37\",\"3\",\"21\",\"6B\",\"C1\",\"C\",\"69\"
\"\",\"\",\"approach-retreat\",\"218\",\"1572689\",\"0.0-218.0\",\"\",\"\",\"2-4\",\"4215\",\"38\",\"1\",\"Testing\",\"Stims/Figures/86-J-0-1.bmp\",\"za:saza\",\"Up\",\"38\",\"3\",\"22\",\"6B\",\"C2\",\"C\",\"70\"
\"\",\"\",\"approach-retreat\",\"219\",\"1578483\",\"0.0-219.0\",\"\",\"\",\"2-4\",\"4265\",\"37\",\"1\",\"Testing\",\"Stims/Figures/19-J-10-4.bmp\",\"zahaza\",\"Left\",\"37\",\"3\",\"23\",\"6B\",\"C2\",\"C\",\"71\"
\"\",\"\",\"approach-retreat\",\"220\",\"1584178\",\"0.0-220.0\",\"\",\"\",\"2-4\",\"4164\",\"38\",\"1\",\"Testing\",\"Stims/Figures/85-C-20-2.bmp\",\"fafa:sha\",\"Down\",\"38\",\"3\",\"24\",\"6B\",\"C1\",\"C\",\"72\"
\"\",\"\",\"approach-retreat\",\"221\",\"1589780\",\"0.0-221.0\",\"\",\"\",\"2-4\",\"4072\",\"37\",\"1\",\"Testing\",\"Stims/Figures/44-J-10-3.bmp\",\"zasaha\",\"Left\",\"37\",\"4\",\"1\",\"6B\",\"C2\",\"C\",\"73\"
\"\",\"\",\"approach-retreat\",\"222\",\"1595411\",\"0.0-222.0\",\"\",\"\",\"2-4\",\"4103\",\"37\",\"1\",\"Testing\",\"Stims/Figures/128-C-30-3.bmp\",\"fa:fasha\",\"Right\",\"37\",\"4\",\"2\",\"6B\",\"C1\",\"C\",\"74\"
\"\",\"\",\"approach-retreat\",\"223\",\"1601072\",\"0.0-223.0\",\"\",\"\",\"2-4\",\"4133\",\"37\",\"1\",\"Testing\",\"Stims/Figures/84-C-20-2.bmp\",\"vafava\",\"Right\",\"37\",\"4\",\"3\",\"6B\",\"C1\",\"C\",\"75\"
\"\",\"\",\"approach-retreat\",\"224\",\"1606986\",\"0.0-224.0\",\"\",\"\",\"2-4\",\"4386\",\"38\",\"1\",\"Testing\",\"Stims/Figures/74-J-10-4.bmp\",\"sasa:ha\",\"Up\",\"38\",\"4\",\"4\",\"6B\",\"C2\",\"C\",\"76\"
\"\",\"\",\"approach-retreat\",\"225\",\"1612836\",\"0.0-225.0\",\"\",\"\",\"2-4\",\"4321\",\"40\",\"1\",\"Testing\",\"Stims/Figures/7-J-10-4.bmp\",\"za:saha\",\"Down\",\"40\",\"4\",\"5\",\"6B\",\"C2\",\"C\",\"77\"
\"\",\"\",\"approach-retreat\",\"226\",\"1618643\",\"0.0-226.0\",\"\",\"\",\"2-4\",\"4278\",\"39\",\"1\",\"Testing\",\"Stims/Figures/85-J-0-2.bmp\",\"zahaha\",\"Right\",\"39\",\"4\",\"6\",\"6B\",\"C2\",\"C\",\"78\"
\"\",\"\",\"approach-retreat\",\"227\",\"1624411\",\"0.0-227.0\",\"\",\"\",\"2-4\",\"4239\",\"38\",\"1\",\"Testing\",\"Stims/Figures/144-J-10-3.bmp\",\"zasaza\",\"Up\",\"38\",\"4\",\"7\",\"6B\",\"C2\",\"C\",\"79\"
\"\",\"\",\"approach-retreat\",\"228\",\"1630101\",\"0.0-228.0\",\"\",\"\",\"2-4\",\"4162\",\"38\",\"1\",\"Testing\",\"Stims/Figures/27-C-30-1.bmp\",\"vasha:sha\",\"Down\",\"38\",\"4\",\"8\",\"6B\",\"C1\",\"C\",\"80\"
\"\",\"\",\"approach-retreat\",\"229\",\"1635968\",\"0.0-229.0\",\"\",\"\",\"2-4\",\"4338\",\"38\",\"1\",\"Testing\",\"Stims/Figures/19-C-20-4.bmp\",\"fafasha\",\"Down\",\"38\",\"4\",\"9\",\"6B\",\"C1\",\"C\",\"81\"
\"\",\"\",\"approach-retreat\",\"230\",\"1641774\",\"0.0-230.0\",\"\",\"\",\"2-4\",\"4275\",\"38\",\"1\",\"Testing\",\"Stims/Figures/128-J-10-3.bmp\",\"sa:ha:za\",\"Up\",\"38\",\"4\",\"10\",\"6B\",\"C2\",\"C\",\"82\"
\"\",\"\",\"approach-retreat\",\"231\",\"1647494\",\"0.0-231.0\",\"\",\"\",\"2-4\",\"4196\",\"37\",\"1\",\"Testing\",\"Stims/Figures/19-J-10-4.bmp\",\"zahaza\",\"Left\",\"37\",\"4\",\"11\",\"6B\",\"C2\",\"C\",\"83\"
\"\",\"\",\"approach-retreat\",\"232\",\"1653297\",\"0.0-232.0\",\"\",\"\",\"2-4\",\"4275\",\"40\",\"1\",\"Testing\",\"Stims/Figures/118-J-0-2.bmp\",\"za:haha\",\"Down\",\"40\",\"4\",\"12\",\"6B\",\"C2\",\"C\",\"84\"
\"\",\"\",\"approach-retreat\",\"233\",\"1659125\",\"0.0-233.0\",\"\",\"\",\"2-4\",\"4299\",\"40\",\"1\",\"Testing\",\"Stims/Figures/85-C-20-2.bmp\",\"fafa:sha\",\"Up\",\"40\",\"4\",\"13\",\"6B\",\"C1\",\"C\",\"85\"
\"\",\"\",\"approach-retreat\",\"234\",\"1664747\",\"0.0-234.0\",\"\",\"\",\"2-4\",\"4092\",\"37\",\"1\",\"Testing\",\"Stims/Figures/144-C-30-3.bmp\",\"va:sha:sha\",\"Right\",\"37\",\"4\",\"14\",\"6B\",\"C1\",\"C\",\"86\"
\"\",\"\",\"approach-retreat\",\"235\",\"1670990\",\"0.0-235.0\",\"\",\"\",\"2-4\",\"4712\",\"37\",\"1\",\"Testing\",\"Stims/Figures/93-C-30-1.bmp\",\"vafa:va\",\"Right\",\"37\",\"4\",\"15\",\"6B\",\"C1\",\"C\",\"87\"
\"\",\"\",\"approach-retreat\",\"236\",\"1676809\",\"0.0-236.0\",\"\",\"\",\"2-4\",\"4292\",\"38\",\"1\",\"Testing\",\"Stims/Figures/93-J-0-1.bmp\",\"za:haza\",\"Up\",\"38\",\"4\",\"16\",\"6B\",\"C2\",\"C\",\"88\"
\"\",\"\",\"approach-retreat\",\"237\",\"1682461\",\"0.0-237.0\",\"\",\"\",\"2-4\",\"4124\",\"38\",\"1\",\"Testing\",\"Stims/Figures/118-C-20-2.bmp\",\"fa:shava\",\"Down\",\"38\",\"4\",\"17\",\"6B\",\"C1\",\"C\",\"89\"
\"\",\"\",\"approach-retreat\",\"238\",\"1689143\",\"0.0-238.0\",\"\",\"\",\"2-4\",\"5156\",\"40\",\"1\",\"Testing\",\"Stims/Figures/74-C-20-4.bmp\",\"fa:shasha\",\"Up\",\"40\",\"4\",\"18\",\"6B\",\"C1\",\"C\",\"90\"
\"\",\"\",\"approach-retreat\",\"239\",\"1694847\",\"0.0-239.0\",\"\",\"\",\"2-4\",\"4173\",\"37\",\"1\",\"Testing\",\"Stims/Figures/84-J-0-2.bmp\",\"zasa:za\",\"Left\",\"37\",\"4\",\"19\",\"6B\",\"C2\",\"C\",\"91\"
\"\",\"\",\"approach-retreat\",\"240\",\"1700533\",\"0.0-240.0\",\"\",\"\",\"2-4\",\"4156\",\"38\",\"1\",\"Testing\",\"Stims/Figures/7-C-20-4.bmp\",\"vafa:sha\",\"Down\",\"38\",\"4\",\"20\",\"6B\",\"C1\",\"C\",\"92\"
\"\",\"\",\"approach-retreat\",\"241\",\"1706157\",\"0.0-241.0\",\"\",\"\",\"2-4\",\"4095\",\"39\",\"1\",\"Testing\",\"Stims/Figures/86-C-30-1.bmp\",\"fa:sha:va\",\"Left\",\"39\",\"4\",\"21\",\"6B\",\"C1\",\"C\",\"93\"
\"\",\"\",\"approach-retreat\",\"242\",\"1711903\",\"0.0-242.0\",\"\",\"\",\"2-4\",\"4217\",\"37\",\"1\",\"Testing\",\"Stims/Figures/27-J-0-1.bmp\",\"za:ha:ha\",\"Left\",\"37\",\"4\",\"22\",\"6B\",\"C2\",\"C\",\"94\"
\"\",\"\",\"approach-retreat\",\"243\",\"1717776\",\"0.0-243.0\",\"\",\"\",\"2-4\",\"4345\",\"37\",\"1\",\"Testing\",\"Stims/Figures/86-J-0-1.bmp\",\"za:saza\",\"Left\",\"37\",\"4\",\"23\",\"6B\",\"C2\",\"C\",\"95\"
\"\",\"\",\"approach-retreat\",\"244\",\"1723415\",\"0.0-244.0\",\"\",\"\",\"2-4\",\"4110\",\"37\",\"1\",\"Testing\",\"Stims/Figures/44-C-30-3.bmp\",\"va:fava\",\"Right\",\"37\",\"4\",\"24\",\"6B\",\"C1\",\"C\",\"96\"
\"35825\",\"\",\"survey-text\",\"245\",\"1759257\",\"0.0-245.0\",\"\",\"{\"\"Q0\"\":\"\"PS170082\"\"}\",\"\",\"\",\"\",\"\",\"\",\"\",\"\",\"\",\"\",\"\",\"\",\"\",\"\",\"\",\"\"
