\"rt\",\"key_press\",\"trial_type\",\"trial_index\",\"time_elapsed\",\"internal_node_id\",\"view_history\",\"responses\",\"Id\",\"Rt\",\"ResKeyCode\",\"ResCorr\",\"TrialType2\",\"Image\",\"Label\",\"Location\",\"CorrectResponse\",\"Block\",\"BlockTrial\",\"Condition\",\"LabelType\",\"Subcondition\",\"trialNum\"
\"57061\",\"32\",\"text\",\"0\",\"57064\",\"0.0-0.0-0.0\",\"\",\"\",\"\",\"\",\"\",\"\",\"\",\"\",\"\",\"\",\"\",\"\",\"\",\"\",\"\",\"\",\"\"
\"86102\",\"\",\"instructions\",\"1\",\"143166\",\"0.0-1.0\",\"[{\"\"page_index\"\":0,\"\"viewing_time\"\":86102}]\",\"\",\"\",\"\",\"\",\"\",\"\",\"\",\"\",\"\",\"\",\"\",\"\",\"\",\"\",\"\",\"\"
\"55238\",\"\",\"survey-multi-choice\",\"2\",\"198476\",\"0.0-2.0\",\"\",\"{\"\"Q0\"\":\"\"Da\"\",\"\"Q1\"\":\"\"Da\"\",\"\"Q2\"\":\"\"Da\"\",\"\"Q3\"\":\"\"Da\"\",\"\"Q4\"\":\"\"Da\"\",\"\"Q5\"\":\"\"Da\"\"}\",\"\",\"\",\"\",\"\",\"\",\"\",\"\",\"\",\"\",\"\",\"\",\"\",\"\",\"\",\"\"
\"\",\"\",\"bio\",\"3\",\"207522\",\"0.0-3.0\",\"\",\"{\"\"age\"\":\"\"21\"\",\"\"gender\"\":\"\"m\"\",\"\"specify\"\":\"\"\"\"}\",\"\",\"\",\"\",\"\",\"\",\"\",\"\",\"\",\"\",\"\",\"\",\"\",\"\",\"\",\"\"
\"\",\"\",\"approach-retreat\",\"4\",\"221918\",\"0.0-4.0\",\"\",\"\",\"1-2\",\"12873\",\"37\",\"0\",\"Training\",\"Stims/Figures/44-J-10-3.bmp\",\"fashasha\",\"Left\",\"39\",\"1\",\"1\",\"6A\",\"C1\",\"J\",\"1\"
\"\",\"\",\"approach-retreat\",\"5\",\"229708\",\"0.0-5.0\",\"\",\"\",\"1-2\",\"6278\",\"39\",\"1\",\"Training\",\"Stims/Figures/44-C-30-3.bmp\",\"za:ha:ha\",\"Right\",\"39\",\"1\",\"2\",\"6A\",\"C2\",\"J\",\"2\"
\"\",\"\",\"approach-retreat\",\"6\",\"237072\",\"0.0-6.0\",\"\",\"\",\"1-2\",\"5852\",\"40\",\"1\",\"Training\",\"Stims/Figures/128-C-30-3.bmp\",\"sa:sa:za\",\"Down\",\"40\",\"1\",\"3\",\"6A\",\"C2\",\"J\",\"3\"
\"\",\"\",\"approach-retreat\",\"7\",\"243646\",\"0.0-7.0\",\"\",\"\",\"1-2\",\"5066\",\"40\",\"0\",\"Training\",\"Stims/Figures/19-C-20-4.bmp\",\"sasa:ha\",\"Up\",\"38\",\"1\",\"4\",\"6A\",\"C2\",\"J\",\"4\"
\"\",\"\",\"approach-retreat\",\"8\",\"250673\",\"0.0-8.0\",\"\",\"\",\"1-2\",\"5516\",\"37\",\"0\",\"Training\",\"Stims/Figures/93-C-30-1.bmp\",\"za:ha:za\",\"Right\",\"39\",\"1\",\"5\",\"6A\",\"C2\",\"J\",\"5\"
\"\",\"\",\"approach-retreat\",\"9\",\"257299\",\"0.0-9.0\",\"\",\"\",\"1-2\",\"5118\",\"38\",\"1\",\"Training\",\"Stims/Figures/7-J-10-4.bmp\",\"va:fa:va\",\"Down\",\"38\",\"1\",\"6\",\"6A\",\"C1\",\"J\",\"6\"
\"\",\"\",\"approach-retreat\",\"10\",\"264093\",\"0.0-10.0\",\"\",\"\",\"1-2\",\"5284\",\"40\",\"1\",\"Training\",\"Stims/Figures/19-J-10-4.bmp\",\"vafa:sha\",\"Up\",\"40\",\"1\",\"7\",\"6A\",\"C1\",\"J\",\"7\"
\"\",\"\",\"approach-retreat\",\"11\",\"271099\",\"0.0-11.0\",\"\",\"\",\"1-2\",\"5496\",\"38\",\"1\",\"Training\",\"Stims/Figures/57-C-30-1.bmp\",\"za:saha\",\"Up\",\"38\",\"1\",\"8\",\"6A\",\"C2\",\"J\",\"8\"
\"\",\"\",\"approach-retreat\",\"12\",\"277691\",\"0.0-12.0\",\"\",\"\",\"1-2\",\"5084\",\"39\",\"0\",\"Training\",\"Stims/Figures/139-C-20-2.bmp\",\"sahaha\",\"Left\",\"37\",\"1\",\"9\",\"6A\",\"C2\",\"J\",\"9\"
\"\",\"\",\"approach-retreat\",\"13\",\"284674\",\"0.0-13.0\",\"\",\"\",\"1-2\",\"5454\",\"38\",\"1\",\"Training\",\"Stims/Figures/128-J-10-3.bmp\",\"va:sha:va\",\"Down\",\"38\",\"1\",\"10\",\"6A\",\"C1\",\"J\",\"10\"
\"\",\"\",\"approach-retreat\",\"14\",\"291855\",\"0.0-14.0\",\"\",\"\",\"1-2\",\"5625\",\"40\",\"1\",\"Training\",\"Stims/Figures/7-C-20-4.bmp\",\"za:saza\",\"Down\",\"40\",\"1\",\"11\",\"6A\",\"C2\",\"J\",\"11\"
\"\",\"\",\"approach-retreat\",\"15\",\"297895\",\"0.0-15.0\",\"\",\"\",\"1-2\",\"4525\",\"37\",\"0\",\"Training\",\"Stims/Figures/118-C-20-2.bmp\",\"zahaza\",\"Right\",\"39\",\"1\",\"12\",\"6A\",\"C2\",\"J\",\"12\"
\"\",\"\",\"approach-retreat\",\"16\",\"304891\",\"0.0-16.0\",\"\",\"\",\"1-2\",\"5486\",\"40\",\"1\",\"Training\",\"Stims/Figures/139-J-0-2.bmp\",\"fafa:sha\",\"Up\",\"40\",\"1\",\"13\",\"6A\",\"C1\",\"J\",\"13\"
\"\",\"\",\"approach-retreat\",\"17\",\"311545\",\"0.0-17.0\",\"\",\"\",\"1-2\",\"5144\",\"39\",\"1\",\"Training\",\"Stims/Figures/57-J-0-1.bmp\",\"fa:fa:va\",\"Left\",\"39\",\"1\",\"14\",\"6A\",\"C1\",\"J\",\"14\"
\"\",\"\",\"approach-retreat\",\"18\",\"318850\",\"0.0-18.0\",\"\",\"\",\"1-2\",\"5793\",\"37\",\"1\",\"Training\",\"Stims/Figures/118-J-0-2.bmp\",\"va:fasha\",\"Right\",\"37\",\"1\",\"15\",\"6A\",\"C1\",\"J\",\"15\"
\"\",\"\",\"approach-retreat\",\"19\",\"325174\",\"0.0-19.0\",\"\",\"\",\"1-2\",\"4812\",\"39\",\"1\",\"Training\",\"Stims/Figures/93-J-0-1.bmp\",\"vasha:sha\",\"Left\",\"39\",\"1\",\"16\",\"6A\",\"C1\",\"J\",\"16\"
\"\",\"\",\"approach-retreat\",\"20\",\"332868\",\"0.0-20.0\",\"\",\"\",\"1-2\",\"6184\",\"38\",\"1\",\"Training\",\"Stims/Figures/93-J-0-1.bmp\",\"vasha:sha\",\"Down\",\"38\",\"2\",\"1\",\"6A\",\"C1\",\"J\",\"17\"
\"\",\"\",\"approach-retreat\",\"21\",\"339116\",\"0.0-21.0\",\"\",\"\",\"1-2\",\"4737\",\"37\",\"1\",\"Training\",\"Stims/Figures/57-J-0-1.bmp\",\"fa:fa:va\",\"Right\",\"37\",\"2\",\"2\",\"6A\",\"C1\",\"J\",\"18\"
\"\",\"\",\"approach-retreat\",\"22\",\"345092\",\"0.0-22.0\",\"\",\"\",\"1-2\",\"4466\",\"39\",\"1\",\"Training\",\"Stims/Figures/19-J-10-4.bmp\",\"vafa:sha\",\"Left\",\"39\",\"2\",\"3\",\"6A\",\"C1\",\"J\",\"19\"
\"\",\"\",\"approach-retreat\",\"23\",\"351618\",\"0.0-23.0\",\"\",\"\",\"1-2\",\"5017\",\"38\",\"1\",\"Training\",\"Stims/Figures/93-C-30-1.bmp\",\"za:ha:za\",\"Up\",\"38\",\"2\",\"4\",\"6A\",\"C2\",\"J\",\"20\"
\"\",\"\",\"approach-retreat\",\"24\",\"358067\",\"0.0-24.0\",\"\",\"\",\"1-2\",\"4935\",\"39\",\"1\",\"Training\",\"Stims/Figures/19-C-20-4.bmp\",\"sasa:ha\",\"Right\",\"39\",\"2\",\"5\",\"6A\",\"C2\",\"J\",\"21\"
\"\",\"\",\"approach-retreat\",\"25\",\"364866\",\"0.0-25.0\",\"\",\"\",\"1-2\",\"5288\",\"38\",\"1\",\"Training\",\"Stims/Figures/139-J-0-2.bmp\",\"fafa:sha\",\"Down\",\"38\",\"2\",\"6\",\"6A\",\"C1\",\"J\",\"22\"
\"\",\"\",\"approach-retreat\",\"26\",\"371310\",\"0.0-26.0\",\"\",\"\",\"1-2\",\"4934\",\"40\",\"1\",\"Training\",\"Stims/Figures/118-C-20-2.bmp\",\"zahaza\",\"Down\",\"40\",\"2\",\"7\",\"6A\",\"C2\",\"J\",\"23\"
\"\",\"\",\"approach-retreat\",\"27\",\"377748\",\"0.0-27.0\",\"\",\"\",\"1-2\",\"4924\",\"37\",\"1\",\"Training\",\"Stims/Figures/57-C-30-1.bmp\",\"za:saha\",\"Left\",\"37\",\"2\",\"8\",\"6A\",\"C2\",\"J\",\"24\"
\"\",\"\",\"approach-retreat\",\"28\",\"384565\",\"0.0-28.0\",\"\",\"\",\"1-2\",\"5307\",\"40\",\"1\",\"Training\",\"Stims/Figures/128-C-30-3.bmp\",\"sa:sa:za\",\"Down\",\"40\",\"2\",\"9\",\"6A\",\"C2\",\"J\",\"25\"
\"\",\"\",\"approach-retreat\",\"29\",\"390666\",\"0.0-29.0\",\"\",\"\",\"1-2\",\"4588\",\"39\",\"1\",\"Training\",\"Stims/Figures/118-J-0-2.bmp\",\"va:fasha\",\"Left\",\"39\",\"2\",\"10\",\"6A\",\"C1\",\"J\",\"26\"
\"\",\"\",\"approach-retreat\",\"30\",\"396789\",\"0.0-30.0\",\"\",\"\",\"1-2\",\"4612\",\"38\",\"1\",\"Training\",\"Stims/Figures/139-C-20-2.bmp\",\"sahaha\",\"Up\",\"38\",\"2\",\"11\",\"6A\",\"C2\",\"J\",\"27\"
\"\",\"\",\"approach-retreat\",\"31\",\"403458\",\"0.0-31.0\",\"\",\"\",\"1-2\",\"5157\",\"40\",\"1\",\"Training\",\"Stims/Figures/7-J-10-4.bmp\",\"va:fa:va\",\"Up\",\"40\",\"2\",\"12\",\"6A\",\"C1\",\"J\",\"28\"
\"\",\"\",\"approach-retreat\",\"32\",\"409562\",\"0.0-32.0\",\"\",\"\",\"1-2\",\"4592\",\"39\",\"1\",\"Training\",\"Stims/Figures/128-J-10-3.bmp\",\"va:sha:va\",\"Left\",\"39\",\"2\",\"13\",\"6A\",\"C1\",\"J\",\"29\"
\"\",\"\",\"approach-retreat\",\"33\",\"415847\",\"0.0-33.0\",\"\",\"\",\"1-2\",\"4772\",\"40\",\"1\",\"Training\",\"Stims/Figures/44-J-10-3.bmp\",\"fashasha\",\"Up\",\"40\",\"2\",\"14\",\"6A\",\"C1\",\"J\",\"30\"
\"\",\"\",\"approach-retreat\",\"34\",\"422650\",\"0.0-34.0\",\"\",\"\",\"1-2\",\"5290\",\"39\",\"1\",\"Training\",\"Stims/Figures/44-C-30-3.bmp\",\"za:ha:ha\",\"Right\",\"39\",\"2\",\"15\",\"6A\",\"C2\",\"J\",\"31\"
\"\",\"\",\"approach-retreat\",\"35\",\"429283\",\"0.0-35.0\",\"\",\"\",\"1-2\",\"5123\",\"39\",\"1\",\"Training\",\"Stims/Figures/7-C-20-4.bmp\",\"za:saza\",\"Right\",\"39\",\"2\",\"16\",\"6A\",\"C2\",\"J\",\"32\"
\"\",\"\",\"approach-retreat\",\"36\",\"435547\",\"0.0-36.0\",\"\",\"\",\"1-2\",\"4753\",\"39\",\"1\",\"Training\",\"Stims/Figures/118-C-20-2.bmp\",\"zahaza\",\"Right\",\"39\",\"3\",\"1\",\"6A\",\"C2\",\"J\",\"33\"
\"\",\"\",\"approach-retreat\",\"37\",\"441686\",\"0.0-37.0\",\"\",\"\",\"1-2\",\"4629\",\"37\",\"1\",\"Training\",\"Stims/Figures/7-C-20-4.bmp\",\"za:saza\",\"Left\",\"37\",\"3\",\"2\",\"6A\",\"C2\",\"J\",\"34\"
\"\",\"\",\"approach-retreat\",\"38\",\"447828\",\"0.0-38.0\",\"\",\"\",\"1-2\",\"4619\",\"38\",\"1\",\"Training\",\"Stims/Figures/19-C-20-4.bmp\",\"sasa:ha\",\"Up\",\"38\",\"3\",\"3\",\"6A\",\"C2\",\"J\",\"35\"
\"\",\"\",\"approach-retreat\",\"39\",\"454529\",\"0.0-39.0\",\"\",\"\",\"1-2\",\"5187\",\"39\",\"1\",\"Training\",\"Stims/Figures/139-C-20-2.bmp\",\"sahaha\",\"Right\",\"39\",\"3\",\"4\",\"6A\",\"C2\",\"J\",\"36\"
\"\",\"\",\"approach-retreat\",\"40\",\"461023\",\"0.0-40.0\",\"\",\"\",\"1-2\",\"4981\",\"37\",\"1\",\"Training\",\"Stims/Figures/93-C-30-1.bmp\",\"za:ha:za\",\"Left\",\"37\",\"3\",\"5\",\"6A\",\"C2\",\"J\",\"37\"
\"\",\"\",\"approach-retreat\",\"41\",\"467074\",\"0.0-41.0\",\"\",\"\",\"1-2\",\"4539\",\"38\",\"1\",\"Training\",\"Stims/Figures/57-J-0-1.bmp\",\"fa:fa:va\",\"Down\",\"38\",\"3\",\"6\",\"6A\",\"C1\",\"J\",\"38\"
\"\",\"\",\"approach-retreat\",\"42\",\"473107\",\"0.0-42.0\",\"\",\"\",\"1-2\",\"4522\",\"40\",\"1\",\"Training\",\"Stims/Figures/118-J-0-2.bmp\",\"va:fasha\",\"Up\",\"40\",\"3\",\"7\",\"6A\",\"C1\",\"J\",\"39\"
\"\",\"\",\"approach-retreat\",\"43\",\"479405\",\"0.0-43.0\",\"\",\"\",\"1-2\",\"4786\",\"40\",\"1\",\"Training\",\"Stims/Figures/139-J-0-2.bmp\",\"fafa:sha\",\"Up\",\"40\",\"3\",\"8\",\"6A\",\"C1\",\"J\",\"40\"
\"\",\"\",\"approach-retreat\",\"44\",\"485557\",\"0.0-44.0\",\"\",\"\",\"1-2\",\"4641\",\"39\",\"1\",\"Training\",\"Stims/Figures/128-C-30-3.bmp\",\"sa:sa:za\",\"Right\",\"39\",\"3\",\"9\",\"6A\",\"C2\",\"J\",\"41\"
\"\",\"\",\"approach-retreat\",\"45\",\"491734\",\"0.0-45.0\",\"\",\"\",\"1-2\",\"4669\",\"38\",\"1\",\"Training\",\"Stims/Figures/57-C-30-1.bmp\",\"za:saha\",\"Up\",\"38\",\"3\",\"10\",\"6A\",\"C2\",\"J\",\"42\"
\"\",\"\",\"approach-retreat\",\"46\",\"498005\",\"0.0-46.0\",\"\",\"\",\"1-2\",\"4756\",\"39\",\"1\",\"Training\",\"Stims/Figures/93-J-0-1.bmp\",\"vasha:sha\",\"Left\",\"39\",\"3\",\"11\",\"6A\",\"C1\",\"J\",\"43\"
\"\",\"\",\"approach-retreat\",\"47\",\"504275\",\"0.0-47.0\",\"\",\"\",\"1-2\",\"4757\",\"38\",\"1\",\"Training\",\"Stims/Figures/19-J-10-4.bmp\",\"vafa:sha\",\"Down\",\"38\",\"3\",\"12\",\"6A\",\"C1\",\"J\",\"44\"
\"\",\"\",\"approach-retreat\",\"48\",\"510421\",\"0.0-48.0\",\"\",\"\",\"1-2\",\"4636\",\"39\",\"1\",\"Training\",\"Stims/Figures/7-J-10-4.bmp\",\"va:fa:va\",\"Left\",\"39\",\"3\",\"13\",\"6A\",\"C1\",\"J\",\"45\"
\"\",\"\",\"approach-retreat\",\"49\",\"516388\",\"0.0-49.0\",\"\",\"\",\"1-2\",\"4453\",\"38\",\"1\",\"Training\",\"Stims/Figures/128-J-10-3.bmp\",\"va:sha:va\",\"Down\",\"38\",\"3\",\"14\",\"6A\",\"C1\",\"J\",\"46\"
\"\",\"\",\"approach-retreat\",\"50\",\"522584\",\"0.0-50.0\",\"\",\"\",\"1-2\",\"4688\",\"38\",\"1\",\"Training\",\"Stims/Figures/44-J-10-3.bmp\",\"fashasha\",\"Down\",\"38\",\"3\",\"15\",\"6A\",\"C1\",\"J\",\"47\"
\"\",\"\",\"approach-retreat\",\"51\",\"529307\",\"0.0-51.0\",\"\",\"\",\"1-2\",\"5213\",\"39\",\"1\",\"Training\",\"Stims/Figures/44-C-30-3.bmp\",\"za:ha:ha\",\"Right\",\"39\",\"3\",\"16\",\"6A\",\"C2\",\"J\",\"48\"
\"\",\"\",\"approach-retreat\",\"52\",\"536307\",\"0.0-52.0\",\"\",\"\",\"1-2\",\"5489\",\"40\",\"1\",\"Training\",\"Stims/Figures/128-J-10-3.bmp\",\"va:sha:va\",\"Up\",\"40\",\"4\",\"1\",\"6A\",\"C1\",\"J\",\"49\"
\"\",\"\",\"approach-retreat\",\"53\",\"542559\",\"0.0-53.0\",\"\",\"\",\"1-2\",\"4740\",\"39\",\"1\",\"Training\",\"Stims/Figures/57-J-0-1.bmp\",\"fa:fa:va\",\"Left\",\"39\",\"4\",\"2\",\"6A\",\"C1\",\"J\",\"50\"
\"\",\"\",\"approach-retreat\",\"54\",\"548675\",\"0.0-54.0\",\"\",\"\",\"1-2\",\"4606\",\"39\",\"1\",\"Training\",\"Stims/Figures/7-J-10-4.bmp\",\"va:fa:va\",\"Left\",\"39\",\"4\",\"3\",\"6A\",\"C1\",\"J\",\"51\"
\"\",\"\",\"approach-retreat\",\"55\",\"554921\",\"0.0-55.0\",\"\",\"\",\"1-2\",\"4735\",\"38\",\"1\",\"Training\",\"Stims/Figures/7-C-20-4.bmp\",\"za:saza\",\"Up\",\"38\",\"4\",\"4\",\"6A\",\"C2\",\"J\",\"52\"
\"\",\"\",\"approach-retreat\",\"56\",\"561224\",\"0.0-56.0\",\"\",\"\",\"1-2\",\"4795\",\"40\",\"1\",\"Training\",\"Stims/Figures/19-C-20-4.bmp\",\"sasa:ha\",\"Down\",\"40\",\"4\",\"5\",\"6A\",\"C2\",\"J\",\"53\"
\"\",\"\",\"approach-retreat\",\"57\",\"567681\",\"0.0-57.0\",\"\",\"\",\"1-2\",\"4946\",\"40\",\"1\",\"Training\",\"Stims/Figures/93-C-30-1.bmp\",\"za:ha:za\",\"Down\",\"40\",\"4\",\"6\",\"6A\",\"C2\",\"J\",\"54\"
\"\",\"\",\"approach-retreat\",\"58\",\"574041\",\"0.0-58.0\",\"\",\"\",\"1-2\",\"4847\",\"39\",\"1\",\"Training\",\"Stims/Figures/93-J-0-1.bmp\",\"vasha:sha\",\"Left\",\"39\",\"4\",\"7\",\"6A\",\"C1\",\"J\",\"55\"
\"\",\"\",\"approach-retreat\",\"59\",\"580291\",\"0.0-59.0\",\"\",\"\",\"1-2\",\"4738\",\"40\",\"1\",\"Training\",\"Stims/Figures/44-C-30-3.bmp\",\"za:ha:ha\",\"Down\",\"40\",\"4\",\"8\",\"6A\",\"C2\",\"J\",\"56\"
\"\",\"\",\"approach-retreat\",\"60\",\"586239\",\"0.0-60.0\",\"\",\"\",\"1-2\",\"4439\",\"39\",\"1\",\"Training\",\"Stims/Figures/139-C-20-2.bmp\",\"sahaha\",\"Right\",\"39\",\"4\",\"9\",\"6A\",\"C2\",\"J\",\"57\"
\"\",\"\",\"approach-retreat\",\"61\",\"592969\",\"0.0-61.0\",\"\",\"\",\"1-2\",\"5216\",\"40\",\"1\",\"Training\",\"Stims/Figures/139-J-0-2.bmp\",\"fafa:sha\",\"Up\",\"40\",\"4\",\"10\",\"6A\",\"C1\",\"J\",\"58\"
\"\",\"\",\"approach-retreat\",\"62\",\"599031\",\"0.0-62.0\",\"\",\"\",\"1-2\",\"4553\",\"37\",\"1\",\"Training\",\"Stims/Figures/19-J-10-4.bmp\",\"vafa:sha\",\"Right\",\"37\",\"4\",\"11\",\"6A\",\"C1\",\"J\",\"59\"
\"\",\"\",\"approach-retreat\",\"63\",\"605065\",\"0.0-63.0\",\"\",\"\",\"1-2\",\"4523\",\"39\",\"1\",\"Training\",\"Stims/Figures/128-C-30-3.bmp\",\"sa:sa:za\",\"Right\",\"39\",\"4\",\"12\",\"6A\",\"C2\",\"J\",\"60\"
\"\",\"\",\"approach-retreat\",\"64\",\"611152\",\"0.0-64.0\",\"\",\"\",\"1-2\",\"4578\",\"40\",\"1\",\"Training\",\"Stims/Figures/57-C-30-1.bmp\",\"za:saha\",\"Down\",\"40\",\"4\",\"13\",\"6A\",\"C2\",\"J\",\"61\"
\"\",\"\",\"approach-retreat\",\"65\",\"617559\",\"0.0-65.0\",\"\",\"\",\"1-2\",\"4895\",\"40\",\"1\",\"Training\",\"Stims/Figures/118-J-0-2.bmp\",\"va:fasha\",\"Up\",\"40\",\"4\",\"14\",\"6A\",\"C1\",\"J\",\"62\"
\"\",\"\",\"approach-retreat\",\"66\",\"623789\",\"0.0-66.0\",\"\",\"\",\"1-2\",\"4720\",\"37\",\"1\",\"Training\",\"Stims/Figures/118-C-20-2.bmp\",\"zahaza\",\"Left\",\"37\",\"4\",\"15\",\"6A\",\"C2\",\"J\",\"63\"
\"\",\"\",\"approach-retreat\",\"67\",\"629886\",\"0.0-67.0\",\"\",\"\",\"1-2\",\"4584\",\"37\",\"1\",\"Training\",\"Stims/Figures/44-J-10-3.bmp\",\"fashasha\",\"Right\",\"37\",\"4\",\"16\",\"6A\",\"C1\",\"J\",\"64\"
\"\",\"\",\"approach-retreat\",\"68\",\"636054\",\"0.0-68.0\",\"\",\"\",\"1-2\",\"4658\",\"37\",\"1\",\"Training\",\"Stims/Figures/128-C-30-3.bmp\",\"sa:sa:za\",\"Left\",\"37\",\"5\",\"1\",\"6A\",\"C2\",\"J\",\"65\"
\"\",\"\",\"approach-retreat\",\"69\",\"642385\",\"0.0-69.0\",\"\",\"\",\"1-2\",\"4820\",\"40\",\"1\",\"Training\",\"Stims/Figures/19-J-10-4.bmp\",\"vafa:sha\",\"Up\",\"40\",\"5\",\"2\",\"6A\",\"C1\",\"J\",\"66\"
\"\",\"\",\"approach-retreat\",\"70\",\"648601\",\"0.0-70.0\",\"\",\"\",\"1-2\",\"4702\",\"40\",\"1\",\"Training\",\"Stims/Figures/118-C-20-2.bmp\",\"zahaza\",\"Down\",\"40\",\"5\",\"3\",\"6A\",\"C2\",\"J\",\"67\"
\"\",\"\",\"approach-retreat\",\"71\",\"654832\",\"0.0-71.0\",\"\",\"\",\"1-2\",\"4719\",\"38\",\"1\",\"Training\",\"Stims/Figures/7-J-10-4.bmp\",\"va:fa:va\",\"Down\",\"38\",\"5\",\"4\",\"6A\",\"C1\",\"J\",\"68\"
\"\",\"\",\"approach-retreat\",\"72\",\"660926\",\"0.0-72.0\",\"\",\"\",\"1-2\",\"4583\",\"40\",\"1\",\"Training\",\"Stims/Figures/118-J-0-2.bmp\",\"va:fasha\",\"Up\",\"40\",\"5\",\"5\",\"6A\",\"C1\",\"J\",\"69\"
\"\",\"\",\"approach-retreat\",\"73\",\"667401\",\"0.0-73.0\",\"\",\"\",\"1-2\",\"4957\",\"40\",\"1\",\"Training\",\"Stims/Figures/57-J-0-1.bmp\",\"fa:fa:va\",\"Up\",\"40\",\"5\",\"6\",\"6A\",\"C1\",\"J\",\"70\"
\"\",\"\",\"approach-retreat\",\"74\",\"673311\",\"0.0-74.0\",\"\",\"\",\"1-2\",\"4399\",\"39\",\"1\",\"Training\",\"Stims/Figures/93-C-30-1.bmp\",\"za:ha:za\",\"Right\",\"39\",\"5\",\"7\",\"6A\",\"C2\",\"J\",\"71\"
\"\",\"\",\"approach-retreat\",\"75\",\"679486\",\"0.0-75.0\",\"\",\"\",\"1-2\",\"4663\",\"39\",\"1\",\"Training\",\"Stims/Figures/57-C-30-1.bmp\",\"za:saha\",\"Right\",\"39\",\"5\",\"8\",\"6A\",\"C2\",\"J\",\"72\"
\"\",\"\",\"approach-retreat\",\"76\",\"685595\",\"0.0-76.0\",\"\",\"\",\"1-2\",\"4596\",\"38\",\"1\",\"Training\",\"Stims/Figures/19-C-20-4.bmp\",\"sasa:ha\",\"Up\",\"38\",\"5\",\"9\",\"6A\",\"C2\",\"J\",\"73\"
\"\",\"\",\"approach-retreat\",\"77\",\"691512\",\"0.0-77.0\",\"\",\"\",\"1-2\",\"4409\",\"39\",\"1\",\"Training\",\"Stims/Figures/7-C-20-4.bmp\",\"za:saza\",\"Right\",\"39\",\"5\",\"10\",\"6A\",\"C2\",\"J\",\"74\"
\"\",\"\",\"approach-retreat\",\"78\",\"697635\",\"0.0-78.0\",\"\",\"\",\"1-2\",\"4612\",\"39\",\"1\",\"Training\",\"Stims/Figures/139-J-0-2.bmp\",\"fafa:sha\",\"Left\",\"39\",\"5\",\"11\",\"6A\",\"C1\",\"J\",\"75\"
\"\",\"\",\"approach-retreat\",\"79\",\"703398\",\"0.0-79.0\",\"\",\"\",\"1-2\",\"4252\",\"39\",\"1\",\"Training\",\"Stims/Figures/44-J-10-3.bmp\",\"fashasha\",\"Left\",\"39\",\"5\",\"12\",\"6A\",\"C1\",\"J\",\"76\"
\"\",\"\",\"approach-retreat\",\"80\",\"709354\",\"0.0-80.0\",\"\",\"\",\"1-2\",\"4440\",\"38\",\"1\",\"Training\",\"Stims/Figures/93-J-0-1.bmp\",\"vasha:sha\",\"Down\",\"38\",\"5\",\"13\",\"6A\",\"C1\",\"J\",\"77\"
\"\",\"\",\"approach-retreat\",\"81\",\"715383\",\"0.0-81.0\",\"\",\"\",\"1-2\",\"4517\",\"37\",\"1\",\"Training\",\"Stims/Figures/128-J-10-3.bmp\",\"va:sha:va\",\"Right\",\"37\",\"5\",\"14\",\"6A\",\"C1\",\"J\",\"78\"
\"\",\"\",\"approach-retreat\",\"82\",\"721451\",\"0.0-82.0\",\"\",\"\",\"1-2\",\"4559\",\"40\",\"1\",\"Training\",\"Stims/Figures/44-C-30-3.bmp\",\"za:ha:ha\",\"Down\",\"40\",\"5\",\"15\",\"6A\",\"C2\",\"J\",\"79\"
\"\",\"\",\"approach-retreat\",\"83\",\"727335\",\"0.0-83.0\",\"\",\"\",\"1-2\",\"4374\",\"37\",\"1\",\"Training\",\"Stims/Figures/139-C-20-2.bmp\",\"sahaha\",\"Left\",\"37\",\"5\",\"16\",\"6A\",\"C2\",\"J\",\"80\"
\"\",\"\",\"approach-retreat\",\"84\",\"733263\",\"0.0-84.0\",\"\",\"\",\"1-2\",\"4418\",\"38\",\"1\",\"Training\",\"Stims/Figures/19-C-20-4.bmp\",\"sasa:ha\",\"Up\",\"38\",\"6\",\"1\",\"6A\",\"C2\",\"J\",\"81\"
\"\",\"\",\"approach-retreat\",\"85\",\"739214\",\"0.0-85.0\",\"\",\"\",\"1-2\",\"4438\",\"37\",\"1\",\"Training\",\"Stims/Figures/19-J-10-4.bmp\",\"vafa:sha\",\"Right\",\"37\",\"6\",\"2\",\"6A\",\"C1\",\"J\",\"82\"
\"\",\"\",\"approach-retreat\",\"86\",\"745844\",\"0.0-86.0\",\"\",\"\",\"1-2\",\"5120\",\"40\",\"1\",\"Training\",\"Stims/Figures/93-J-0-1.bmp\",\"vasha:sha\",\"Up\",\"40\",\"6\",\"3\",\"6A\",\"C1\",\"J\",\"83\"
\"\",\"\",\"approach-retreat\",\"87\",\"751691\",\"0.0-87.0\",\"\",\"\",\"1-2\",\"4336\",\"37\",\"1\",\"Training\",\"Stims/Figures/7-C-20-4.bmp\",\"za:saza\",\"Left\",\"37\",\"6\",\"4\",\"6A\",\"C2\",\"J\",\"84\"
\"\",\"\",\"approach-retreat\",\"88\",\"757861\",\"0.0-88.0\",\"\",\"\",\"1-2\",\"4658\",\"37\",\"1\",\"Training\",\"Stims/Figures/128-J-10-3.bmp\",\"va:sha:va\",\"Right\",\"37\",\"6\",\"5\",\"6A\",\"C1\",\"J\",\"85\"
\"\",\"\",\"approach-retreat\",\"89\",\"763899\",\"0.0-89.0\",\"\",\"\",\"1-2\",\"4526\",\"40\",\"1\",\"Training\",\"Stims/Figures/7-J-10-4.bmp\",\"va:fa:va\",\"Up\",\"40\",\"6\",\"6\",\"6A\",\"C1\",\"J\",\"86\"
\"\",\"\",\"approach-retreat\",\"90\",\"770617\",\"0.0-90.0\",\"\",\"\",\"1-2\",\"5209\",\"40\",\"1\",\"Training\",\"Stims/Figures/44-C-30-3.bmp\",\"za:ha:ha\",\"Down\",\"40\",\"6\",\"7\",\"6A\",\"C2\",\"J\",\"87\"
\"\",\"\",\"approach-retreat\",\"91\",\"776458\",\"0.0-91.0\",\"\",\"\",\"1-2\",\"4323\",\"39\",\"1\",\"Training\",\"Stims/Figures/118-J-0-2.bmp\",\"va:fasha\",\"Left\",\"39\",\"6\",\"8\",\"6A\",\"C1\",\"J\",\"88\"
\"\",\"\",\"approach-retreat\",\"92\",\"782512\",\"0.0-92.0\",\"\",\"\",\"1-2\",\"4544\",\"40\",\"1\",\"Training\",\"Stims/Figures/93-C-30-1.bmp\",\"za:ha:za\",\"Down\",\"40\",\"6\",\"9\",\"6A\",\"C2\",\"J\",\"89\"
\"\",\"\",\"approach-retreat\",\"93\",\"788392\",\"0.0-93.0\",\"\",\"\",\"1-2\",\"4370\",\"39\",\"1\",\"Training\",\"Stims/Figures/139-J-0-2.bmp\",\"fafa:sha\",\"Left\",\"39\",\"6\",\"10\",\"6A\",\"C1\",\"J\",\"90\"
\"\",\"\",\"approach-retreat\",\"94\",\"794912\",\"0.0-94.0\",\"\",\"\",\"1-2\",\"5005\",\"37\",\"1\",\"Training\",\"Stims/Figures/118-C-20-2.bmp\",\"zahaza\",\"Left\",\"37\",\"6\",\"11\",\"6A\",\"C2\",\"J\",\"91\"
\"\",\"\",\"approach-retreat\",\"95\",\"801177\",\"0.0-95.0\",\"\",\"\",\"1-2\",\"4754\",\"37\",\"1\",\"Training\",\"Stims/Figures/44-J-10-3.bmp\",\"fashasha\",\"Right\",\"37\",\"6\",\"12\",\"6A\",\"C1\",\"J\",\"92\"
\"\",\"\",\"approach-retreat\",\"96\",\"807196\",\"0.0-96.0\",\"\",\"\",\"1-2\",\"4508\",\"38\",\"1\",\"Training\",\"Stims/Figures/139-C-20-2.bmp\",\"sahaha\",\"Up\",\"38\",\"6\",\"13\",\"6A\",\"C2\",\"J\",\"93\"
\"\",\"\",\"approach-retreat\",\"97\",\"813589\",\"0.0-97.0\",\"\",\"\",\"1-2\",\"4879\",\"38\",\"1\",\"Training\",\"Stims/Figures/57-J-0-1.bmp\",\"fa:fa:va\",\"Down\",\"38\",\"6\",\"14\",\"6A\",\"C1\",\"J\",\"94\"
\"\",\"\",\"approach-retreat\",\"98\",\"819843\",\"0.0-98.0\",\"\",\"\",\"1-2\",\"4744\",\"40\",\"1\",\"Training\",\"Stims/Figures/128-C-30-3.bmp\",\"sa:sa:za\",\"Down\",\"40\",\"6\",\"15\",\"6A\",\"C2\",\"J\",\"95\"
\"\",\"\",\"approach-retreat\",\"99\",\"825706\",\"0.0-99.0\",\"\",\"\",\"1-2\",\"4353\",\"39\",\"1\",\"Training\",\"Stims/Figures/57-C-30-1.bmp\",\"za:saha\",\"Right\",\"39\",\"6\",\"16\",\"6A\",\"C2\",\"J\",\"96\"
\"\",\"\",\"approach-retreat\",\"100\",\"831658\",\"0.0-100.0\",\"\",\"\",\"1-2\",\"4441\",\"38\",\"1\",\"Training\",\"Stims/Figures/57-J-0-1.bmp\",\"fa:fa:va\",\"Down\",\"38\",\"7\",\"1\",\"6A\",\"C1\",\"J\",\"97\"
\"\",\"\",\"approach-retreat\",\"101\",\"837690\",\"0.0-101.0\",\"\",\"\",\"1-2\",\"4521\",\"37\",\"1\",\"Training\",\"Stims/Figures/139-J-0-2.bmp\",\"fafa:sha\",\"Right\",\"37\",\"7\",\"2\",\"6A\",\"C1\",\"J\",\"98\"
\"\",\"\",\"approach-retreat\",\"102\",\"843541\",\"0.0-102.0\",\"\",\"\",\"1-2\",\"4339\",\"40\",\"1\",\"Training\",\"Stims/Figures/118-J-0-2.bmp\",\"va:fasha\",\"Up\",\"40\",\"7\",\"3\",\"6A\",\"C1\",\"J\",\"99\"
\"\",\"\",\"approach-retreat\",\"103\",\"849421\",\"0.0-103.0\",\"\",\"\",\"1-2\",\"4369\",\"38\",\"1\",\"Training\",\"Stims/Figures/93-J-0-1.bmp\",\"vasha:sha\",\"Down\",\"38\",\"7\",\"4\",\"6A\",\"C1\",\"J\",\"100\"
\"\",\"\",\"approach-retreat\",\"104\",\"855322\",\"0.0-104.0\",\"\",\"\",\"1-2\",\"4391\",\"38\",\"1\",\"Training\",\"Stims/Figures/128-J-10-3.bmp\",\"va:sha:va\",\"Down\",\"38\",\"7\",\"5\",\"6A\",\"C1\",\"J\",\"101\"
\"\",\"\",\"approach-retreat\",\"105\",\"861185\",\"0.0-105.0\",\"\",\"\",\"1-2\",\"4348\",\"38\",\"1\",\"Training\",\"Stims/Figures/7-J-10-4.bmp\",\"va:fa:va\",\"Down\",\"38\",\"7\",\"6\",\"6A\",\"C1\",\"J\",\"102\"
\"\",\"\",\"approach-retreat\",\"106\",\"867475\",\"0.0-106.0\",\"\",\"\",\"1-2\",\"4772\",\"39\",\"1\",\"Training\",\"Stims/Figures/44-C-30-3.bmp\",\"za:ha:ha\",\"Right\",\"39\",\"7\",\"7\",\"6A\",\"C2\",\"J\",\"103\"
\"\",\"\",\"approach-retreat\",\"107\",\"873465\",\"0.0-107.0\",\"\",\"\",\"1-2\",\"4481\",\"37\",\"1\",\"Training\",\"Stims/Figures/7-C-20-4.bmp\",\"za:saza\",\"Left\",\"37\",\"7\",\"8\",\"6A\",\"C2\",\"J\",\"104\"
\"\",\"\",\"approach-retreat\",\"108\",\"879388\",\"0.0-108.0\",\"\",\"\",\"1-2\",\"4414\",\"37\",\"1\",\"Training\",\"Stims/Figures/118-C-20-2.bmp\",\"zahaza\",\"Left\",\"37\",\"7\",\"9\",\"6A\",\"C2\",\"J\",\"105\"
\"\",\"\",\"approach-retreat\",\"109\",\"885592\",\"0.0-109.0\",\"\",\"\",\"1-2\",\"4694\",\"38\",\"1\",\"Training\",\"Stims/Figures/57-C-30-1.bmp\",\"za:saha\",\"Up\",\"38\",\"7\",\"10\",\"6A\",\"C2\",\"J\",\"106\"
\"\",\"\",\"approach-retreat\",\"110\",\"891428\",\"0.0-110.0\",\"\",\"\",\"1-2\",\"4326\",\"37\",\"1\",\"Training\",\"Stims/Figures/128-C-30-3.bmp\",\"sa:sa:za\",\"Left\",\"37\",\"7\",\"11\",\"6A\",\"C2\",\"J\",\"107\"
\"\",\"\",\"approach-retreat\",\"111\",\"897392\",\"0.0-111.0\",\"\",\"\",\"1-2\",\"4457\",\"40\",\"1\",\"Training\",\"Stims/Figures/44-J-10-3.bmp\",\"fashasha\",\"Up\",\"40\",\"7\",\"12\",\"6A\",\"C1\",\"J\",\"108\"
\"\",\"\",\"approach-retreat\",\"112\",\"903425\",\"0.0-112.0\",\"\",\"\",\"1-2\",\"4522\",\"39\",\"1\",\"Training\",\"Stims/Figures/93-C-30-1.bmp\",\"za:ha:za\",\"Right\",\"39\",\"7\",\"13\",\"6A\",\"C2\",\"J\",\"109\"
\"\",\"\",\"approach-retreat\",\"113\",\"909440\",\"0.0-113.0\",\"\",\"\",\"1-2\",\"4503\",\"37\",\"1\",\"Training\",\"Stims/Figures/19-J-10-4.bmp\",\"vafa:sha\",\"Right\",\"37\",\"7\",\"14\",\"6A\",\"C1\",\"J\",\"110\"
\"\",\"\",\"approach-retreat\",\"114\",\"915194\",\"0.0-114.0\",\"\",\"\",\"1-2\",\"4244\",\"38\",\"1\",\"Training\",\"Stims/Figures/19-C-20-4.bmp\",\"sasa:ha\",\"Up\",\"38\",\"7\",\"15\",\"6A\",\"C2\",\"J\",\"111\"
\"\",\"\",\"approach-retreat\",\"115\",\"921018\",\"0.0-115.0\",\"\",\"\",\"1-2\",\"4313\",\"37\",\"1\",\"Training\",\"Stims/Figures/139-C-20-2.bmp\",\"sahaha\",\"Left\",\"37\",\"7\",\"16\",\"6A\",\"C2\",\"J\",\"112\"
\"\",\"\",\"approach-retreat\",\"116\",\"927068\",\"0.0-116.0\",\"\",\"\",\"1-2\",\"4537\",\"37\",\"1\",\"Training\",\"Stims/Figures/139-J-0-2.bmp\",\"fafa:sha\",\"Right\",\"37\",\"8\",\"1\",\"6A\",\"C1\",\"J\",\"113\"
\"\",\"\",\"approach-retreat\",\"117\",\"932977\",\"0.0-117.0\",\"\",\"\",\"1-2\",\"4396\",\"37\",\"1\",\"Training\",\"Stims/Figures/118-C-20-2.bmp\",\"zahaza\",\"Left\",\"37\",\"8\",\"2\",\"6A\",\"C2\",\"J\",\"114\"
\"\",\"\",\"approach-retreat\",\"118\",\"939836\",\"0.0-118.0\",\"\",\"\",\"1-2\",\"5347\",\"40\",\"1\",\"Training\",\"Stims/Figures/57-J-0-1.bmp\",\"fa:fa:va\",\"Up\",\"40\",\"8\",\"3\",\"6A\",\"C1\",\"J\",\"115\"
\"\",\"\",\"approach-retreat\",\"119\",\"946096\",\"0.0-119.0\",\"\",\"\",\"1-2\",\"4750\",\"38\",\"1\",\"Training\",\"Stims/Figures/118-J-0-2.bmp\",\"va:fasha\",\"Down\",\"38\",\"8\",\"4\",\"6A\",\"C1\",\"J\",\"116\"
\"\",\"\",\"approach-retreat\",\"120\",\"952331\",\"0.0-120.0\",\"\",\"\",\"1-2\",\"4725\",\"38\",\"1\",\"Training\",\"Stims/Figures/7-C-20-4.bmp\",\"za:saza\",\"Up\",\"38\",\"8\",\"5\",\"6A\",\"C2\",\"J\",\"117\"
\"\",\"\",\"approach-retreat\",\"121\",\"958904\",\"0.0-121.0\",\"\",\"\",\"1-2\",\"5064\",\"37\",\"1\",\"Training\",\"Stims/Figures/139-C-20-2.bmp\",\"sahaha\",\"Left\",\"37\",\"8\",\"6\",\"6A\",\"C2\",\"J\",\"118\"
\"\",\"\",\"approach-retreat\",\"122\",\"965008\",\"0.0-122.0\",\"\",\"\",\"1-2\",\"4588\",\"39\",\"1\",\"Training\",\"Stims/Figures/19-J-10-4.bmp\",\"vafa:sha\",\"Left\",\"39\",\"8\",\"7\",\"6A\",\"C1\",\"J\",\"119\"
\"\",\"\",\"approach-retreat\",\"123\",\"971234\",\"0.0-123.0\",\"\",\"\",\"1-2\",\"4716\",\"39\",\"1\",\"Training\",\"Stims/Figures/128-C-30-3.bmp\",\"sa:sa:za\",\"Right\",\"39\",\"8\",\"8\",\"6A\",\"C2\",\"J\",\"120\"
\"\",\"\",\"approach-retreat\",\"124\",\"977356\",\"0.0-124.0\",\"\",\"\",\"1-2\",\"4609\",\"39\",\"1\",\"Training\",\"Stims/Figures/19-C-20-4.bmp\",\"sasa:ha\",\"Right\",\"39\",\"8\",\"9\",\"6A\",\"C2\",\"J\",\"121\"
\"\",\"\",\"approach-retreat\",\"125\",\"983468\",\"0.0-125.0\",\"\",\"\",\"1-2\",\"4600\",\"38\",\"1\",\"Training\",\"Stims/Figures/7-J-10-4.bmp\",\"va:fa:va\",\"Down\",\"38\",\"8\",\"10\",\"6A\",\"C1\",\"J\",\"122\"
\"\",\"\",\"approach-retreat\",\"126\",\"990576\",\"0.0-126.0\",\"\",\"\",\"1-2\",\"5597\",\"38\",\"1\",\"Training\",\"Stims/Figures/44-C-30-3.bmp\",\"za:ha:ha\",\"Up\",\"38\",\"8\",\"11\",\"6A\",\"C2\",\"J\",\"123\"
\"\",\"\",\"approach-retreat\",\"127\",\"996299\",\"0.0-127.0\",\"\",\"\",\"1-2\",\"4211\",\"39\",\"1\",\"Training\",\"Stims/Figures/44-J-10-3.bmp\",\"fashasha\",\"Left\",\"39\",\"8\",\"12\",\"6A\",\"C1\",\"J\",\"124\"
\"\",\"\",\"approach-retreat\",\"128\",\"1002308\",\"0.0-128.0\",\"\",\"\",\"1-2\",\"4497\",\"40\",\"1\",\"Training\",\"Stims/Figures/93-J-0-1.bmp\",\"vasha:sha\",\"Up\",\"40\",\"8\",\"13\",\"6A\",\"C1\",\"J\",\"125\"
\"\",\"\",\"approach-retreat\",\"129\",\"1008192\",\"0.0-129.0\",\"\",\"\",\"1-2\",\"4374\",\"38\",\"1\",\"Training\",\"Stims/Figures/128-J-10-3.bmp\",\"va:sha:va\",\"Down\",\"38\",\"8\",\"14\",\"6A\",\"C1\",\"J\",\"126\"
\"\",\"\",\"approach-retreat\",\"130\",\"1014240\",\"0.0-130.0\",\"\",\"\",\"1-2\",\"4538\",\"40\",\"1\",\"Training\",\"Stims/Figures/93-C-30-1.bmp\",\"za:ha:za\",\"Down\",\"40\",\"8\",\"15\",\"6A\",\"C2\",\"J\",\"127\"
\"\",\"\",\"approach-retreat\",\"131\",\"1020142\",\"0.0-131.0\",\"\",\"\",\"1-2\",\"4390\",\"39\",\"1\",\"Training\",\"Stims/Figures/57-C-30-1.bmp\",\"za:saha\",\"Right\",\"39\",\"8\",\"16\",\"6A\",\"C2\",\"J\",\"128\"
\"\",\"\",\"approach-retreat\",\"132\",\"1026100\",\"0.0-132.0\",\"\",\"\",\"1-2\",\"4447\",\"40\",\"1\",\"Training\",\"Stims/Figures/139-C-20-2.bmp\",\"sahaha\",\"Down\",\"40\",\"9\",\"1\",\"6A\",\"C2\",\"J\",\"129\"
\"\",\"\",\"approach-retreat\",\"133\",\"1032445\",\"0.0-133.0\",\"\",\"\",\"1-2\",\"4834\",\"38\",\"1\",\"Training\",\"Stims/Figures/57-C-30-1.bmp\",\"za:saha\",\"Up\",\"38\",\"9\",\"2\",\"6A\",\"C2\",\"J\",\"130\"
\"\",\"\",\"approach-retreat\",\"134\",\"1038418\",\"0.0-134.0\",\"\",\"\",\"1-2\",\"4464\",\"40\",\"1\",\"Training\",\"Stims/Figures/57-J-0-1.bmp\",\"fa:fa:va\",\"Up\",\"40\",\"9\",\"3\",\"6A\",\"C1\",\"J\",\"131\"
\"\",\"\",\"approach-retreat\",\"135\",\"1044257\",\"0.0-135.0\",\"\",\"\",\"1-2\",\"4328\",\"37\",\"1\",\"Training\",\"Stims/Figures/44-J-10-3.bmp\",\"fashasha\",\"Right\",\"37\",\"9\",\"4\",\"6A\",\"C1\",\"J\",\"132\"
\"\",\"\",\"approach-retreat\",\"136\",\"1050372\",\"0.0-136.0\",\"\",\"\",\"1-2\",\"4606\",\"37\",\"1\",\"Training\",\"Stims/Figures/118-C-20-2.bmp\",\"zahaza\",\"Left\",\"37\",\"9\",\"5\",\"6A\",\"C2\",\"J\",\"133\"
\"\",\"\",\"approach-retreat\",\"137\",\"1056781\",\"0.0-137.0\",\"\",\"\",\"1-2\",\"4899\",\"37\",\"1\",\"Training\",\"Stims/Figures/128-J-10-3.bmp\",\"va:sha:va\",\"Right\",\"37\",\"9\",\"6\",\"6A\",\"C1\",\"J\",\"134\"
\"\",\"\",\"approach-retreat\",\"138\",\"1063296\",\"0.0-138.0\",\"\",\"\",\"1-2\",\"5006\",\"40\",\"1\",\"Training\",\"Stims/Figures/7-J-10-4.bmp\",\"va:fa:va\",\"Up\",\"40\",\"9\",\"7\",\"6A\",\"C1\",\"J\",\"135\"
\"\",\"\",\"approach-retreat\",\"139\",\"1069252\",\"0.0-139.0\",\"\",\"\",\"1-2\",\"4445\",\"38\",\"1\",\"Training\",\"Stims/Figures/19-J-10-4.bmp\",\"vafa:sha\",\"Down\",\"38\",\"9\",\"8\",\"6A\",\"C1\",\"J\",\"136\"
\"\",\"\",\"approach-retreat\",\"140\",\"1075020\",\"0.0-140.0\",\"\",\"\",\"1-2\",\"4258\",\"37\",\"1\",\"Training\",\"Stims/Figures/44-C-30-3.bmp\",\"za:ha:ha\",\"Left\",\"37\",\"9\",\"9\",\"6A\",\"C2\",\"J\",\"137\"
\"\",\"\",\"approach-retreat\",\"141\",\"1081303\",\"0.0-141.0\",\"\",\"\",\"1-2\",\"4773\",\"40\",\"1\",\"Training\",\"Stims/Figures/128-C-30-3.bmp\",\"sa:sa:za\",\"Down\",\"40\",\"9\",\"10\",\"6A\",\"C2\",\"J\",\"138\"
\"\",\"\",\"approach-retreat\",\"142\",\"1087168\",\"0.0-142.0\",\"\",\"\",\"1-2\",\"4355\",\"39\",\"1\",\"Training\",\"Stims/Figures/139-J-0-2.bmp\",\"fafa:sha\",\"Left\",\"39\",\"9\",\"11\",\"6A\",\"C1\",\"J\",\"139\"
\"\",\"\",\"approach-retreat\",\"143\",\"1093239\",\"0.0-143.0\",\"\",\"\",\"1-2\",\"4557\",\"40\",\"1\",\"Training\",\"Stims/Figures/19-C-20-4.bmp\",\"sasa:ha\",\"Down\",\"40\",\"9\",\"12\",\"6A\",\"C2\",\"J\",\"140\"
\"\",\"\",\"approach-retreat\",\"144\",\"1099406\",\"0.0-144.0\",\"\",\"\",\"1-2\",\"4658\",\"37\",\"1\",\"Training\",\"Stims/Figures/7-C-20-4.bmp\",\"za:saza\",\"Left\",\"37\",\"9\",\"13\",\"6A\",\"C2\",\"J\",\"141\"
\"\",\"\",\"approach-retreat\",\"145\",\"1105221\",\"0.0-145.0\",\"\",\"\",\"1-2\",\"4305\",\"37\",\"1\",\"Training\",\"Stims/Figures/118-J-0-2.bmp\",\"va:fasha\",\"Right\",\"37\",\"9\",\"14\",\"6A\",\"C1\",\"J\",\"142\"
\"\",\"\",\"approach-retreat\",\"146\",\"1111880\",\"0.0-146.0\",\"\",\"\",\"1-2\",\"5150\",\"40\",\"1\",\"Training\",\"Stims/Figures/93-J-0-1.bmp\",\"vasha:sha\",\"Up\",\"40\",\"9\",\"15\",\"6A\",\"C1\",\"J\",\"143\"
\"\",\"\",\"approach-retreat\",\"147\",\"1117980\",\"0.0-147.0\",\"\",\"\",\"1-2\",\"4589\",\"39\",\"1\",\"Training\",\"Stims/Figures/93-C-30-1.bmp\",\"za:ha:za\",\"Right\",\"39\",\"9\",\"16\",\"6A\",\"C2\",\"J\",\"144\"
\"17011\",\"\",\"instructions\",\"148\",\"1134991\",\"0.0-148.0\",\"[{\"\"page_index\"\":0,\"\"viewing_time\"\":17010}]\",\"\",\"\",\"\",\"\",\"\",\"\",\"\",\"\",\"\",\"\",\"\",\"\",\"\",\"\",\"\",\"\"
\"\",\"\",\"approach-retreat\",\"149\",\"1142057\",\"0.0-149.0\",\"\",\"\",\"1-2\",\"5558\",\"39\",\"1\",\"Testing\",\"Stims/Figures/128-C-30-3.bmp\",\"sa:sa:za\",\"Right\",\"39\",\"1\",\"1\",\"6A\",\"C2\",\"J\",\"1\"
\"\",\"\",\"approach-retreat\",\"150\",\"1148886\",\"0.0-150.0\",\"\",\"\",\"1-2\",\"5322\",\"39\",\"0\",\"Testing\",\"Stims/Figures/93-C-30-1.bmp\",\"za:ha:za\",\"Left\",\"37\",\"1\",\"2\",\"6A\",\"C2\",\"J\",\"2\"
\"\",\"\",\"approach-retreat\",\"151\",\"1154969\",\"0.0-151.0\",\"\",\"\",\"1-2\",\"4576\",\"40\",\"1\",\"Testing\",\"Stims/Figures/57-J-0-1.bmp\",\"fa:fa:va\",\"Up\",\"40\",\"1\",\"3\",\"6A\",\"C1\",\"J\",\"3\"
\"\",\"\",\"approach-retreat\",\"152\",\"1161914\",\"0.0-152.0\",\"\",\"\",\"1-2\",\"5439\",\"38\",\"0\",\"Testing\",\"Stims/Figures/111-C-30-3.bmp\",\"zasa:za\",\"Down\",\"40\",\"1\",\"4\",\"6A\",\"C2\",\"J\",\"4\"
\"\",\"\",\"approach-retreat\",\"153\",\"1168535\",\"0.0-153.0\",\"\",\"\",\"1-2\",\"5113\",\"38\",\"1\",\"Testing\",\"Stims/Figures/57-C-30-1.bmp\",\"za:saha\",\"Up\",\"38\",\"1\",\"5\",\"6A\",\"C2\",\"J\",\"5\"
\"\",\"\",\"approach-retreat\",\"154\",\"1174596\",\"0.0-154.0\",\"\",\"\",\"1-2\",\"4553\",\"38\",\"0\",\"Testing\",\"Stims/Figures/139-J-0-2.bmp\",\"fafa:sha\",\"Up\",\"40\",\"1\",\"6\",\"6A\",\"C1\",\"J\",\"6\"
\"\",\"\",\"approach-retreat\",\"155\",\"1181319\",\"0.0-155.0\",\"\",\"\",\"1-2\",\"5216\",\"38\",\"0\",\"Testing\",\"Stims/Figures/139-C-20-2.bmp\",\"sahaha\",\"Down\",\"40\",\"1\",\"7\",\"6A\",\"C2\",\"J\",\"7\"
\"\",\"\",\"approach-retreat\",\"156\",\"1188286\",\"0.0-156.0\",\"\",\"\",\"1-2\",\"5459\",\"38\",\"0\",\"Testing\",\"Stims/Figures/102-C-20-4.bmp\",\"sasaza\",\"Down\",\"40\",\"1\",\"8\",\"6A\",\"C2\",\"J\",\"8\"
\"\",\"\",\"approach-retreat\",\"157\",\"1194303\",\"0.0-157.0\",\"\",\"\",\"1-2\",\"4508\",\"37\",\"1\",\"Testing\",\"Stims/Figures/19-C-20-4.bmp\",\"sasa:ha\",\"Left\",\"37\",\"1\",\"9\",\"6A\",\"C2\",\"J\",\"9\"
\"\",\"\",\"approach-retreat\",\"158\",\"1200904\",\"0.0-158.0\",\"\",\"\",\"1-2\",\"5094\",\"40\",\"1\",\"Testing\",\"Stims/Figures/44-J-10-3.bmp\",\"fashasha\",\"Up\",\"40\",\"1\",\"10\",\"6A\",\"C1\",\"J\",\"10\"
\"\",\"\",\"approach-retreat\",\"159\",\"1207008\",\"0.0-159.0\",\"\",\"\",\"1-2\",\"4596\",\"40\",\"1\",\"Testing\",\"Stims/Figures/27-C-30-1.bmp\",\"sa:ha:ha\",\"Down\",\"40\",\"1\",\"11\",\"6A\",\"C2\",\"J\",\"11\"
\"\",\"\",\"approach-retreat\",\"160\",\"1213572\",\"0.0-160.0\",\"\",\"\",\"1-2\",\"5056\",\"39\",\"1\",\"Testing\",\"Stims/Figures/93-J-0-1.bmp\",\"vasha:sha\",\"Left\",\"39\",\"1\",\"12\",\"6A\",\"C1\",\"J\",\"12\"
\"\",\"\",\"approach-retreat\",\"161\",\"1220210\",\"0.0-161.0\",\"\",\"\",\"1-2\",\"5130\",\"37\",\"1\",\"Testing\",\"Stims/Figures/102-J-10-4.bmp\",\"va:shava\",\"Right\",\"37\",\"1\",\"13\",\"6A\",\"C1\",\"J\",\"13\"
\"\",\"\",\"approach-retreat\",\"162\",\"1226626\",\"0.0-162.0\",\"\",\"\",\"1-2\",\"4908\",\"37\",\"0\",\"Testing\",\"Stims/Figures/118-C-20-2.bmp\",\"zahaza\",\"Right\",\"39\",\"1\",\"14\",\"6A\",\"C2\",\"J\",\"14\"
\"\",\"\",\"approach-retreat\",\"163\",\"1232911\",\"0.0-163.0\",\"\",\"\",\"1-2\",\"4778\",\"40\",\"0\",\"Testing\",\"Stims/Figures/19-J-10-4.bmp\",\"vafa:sha\",\"Down\",\"38\",\"1\",\"15\",\"6A\",\"C1\",\"J\",\"15\"
\"\",\"\",\"approach-retreat\",\"164\",\"1239755\",\"0.0-164.0\",\"\",\"\",\"1-2\",\"5336\",\"37\",\"0\",\"Testing\",\"Stims/Figures/128-J-10-3.bmp\",\"va:sha:va\",\"Left\",\"39\",\"1\",\"16\",\"6A\",\"C1\",\"J\",\"16\"
\"\",\"\",\"approach-retreat\",\"165\",\"1245695\",\"0.0-165.0\",\"\",\"\",\"1-2\",\"4427\",\"37\",\"0\",\"Testing\",\"Stims/Figures/94-C-20-2.bmp\",\"zaha:za\",\"Right\",\"39\",\"1\",\"17\",\"6A\",\"C2\",\"J\",\"17\"
\"\",\"\",\"approach-retreat\",\"166\",\"1252492\",\"0.0-166.0\",\"\",\"\",\"1-2\",\"5291\",\"37\",\"1\",\"Testing\",\"Stims/Figures/118-J-0-2.bmp\",\"va:fasha\",\"Right\",\"37\",\"1\",\"18\",\"6A\",\"C1\",\"J\",\"18\"
\"\",\"\",\"approach-retreat\",\"167\",\"1258649\",\"0.0-167.0\",\"\",\"\",\"1-2\",\"4613\",\"38\",\"0\",\"Testing\",\"Stims/Figures/27-J-0-1.bmp\",\"fa:fasha\",\"Up\",\"40\",\"1\",\"19\",\"6A\",\"C1\",\"J\",\"19\"
\"\",\"\",\"approach-retreat\",\"168\",\"1265344\",\"0.0-168.0\",\"\",\"\",\"1-2\",\"5187\",\"37\",\"1\",\"Testing\",\"Stims/Figures/7-C-20-4.bmp\",\"za:saza\",\"Left\",\"37\",\"1\",\"20\",\"6A\",\"C2\",\"J\",\"20\"
\"\",\"\",\"approach-retreat\",\"169\",\"1272142\",\"0.0-169.0\",\"\",\"\",\"1-2\",\"5293\",\"38\",\"1\",\"Testing\",\"Stims/Figures/7-J-10-4.bmp\",\"va:fa:va\",\"Down\",\"38\",\"1\",\"21\",\"6A\",\"C1\",\"J\",\"21\"
\"\",\"\",\"approach-retreat\",\"170\",\"1277957\",\"0.0-170.0\",\"\",\"\",\"1-2\",\"4309\",\"37\",\"1\",\"Testing\",\"Stims/Figures/111-J-10-3.bmp\",\"fafasha\",\"Right\",\"37\",\"1\",\"22\",\"6A\",\"C1\",\"J\",\"22\"
\"\",\"\",\"approach-retreat\",\"171\",\"1284451\",\"0.0-171.0\",\"\",\"\",\"1-2\",\"4986\",\"38\",\"0\",\"Testing\",\"Stims/Figures/94-J-0-2.bmp\",\"fa:sha:sha\",\"Up\",\"40\",\"1\",\"23\",\"6A\",\"C1\",\"J\",\"23\"
\"\",\"\",\"approach-retreat\",\"172\",\"1290308\",\"0.0-172.0\",\"\",\"\",\"1-2\",\"4349\",\"39\",\"0\",\"Testing\",\"Stims/Figures/44-C-30-3.bmp\",\"za:ha:ha\",\"Left\",\"37\",\"1\",\"24\",\"6A\",\"C2\",\"J\",\"24\"
\"\",\"\",\"approach-retreat\",\"173\",\"1296971\",\"0.0-173.0\",\"\",\"\",\"1-2\",\"5156\",\"37\",\"1\",\"Testing\",\"Stims/Figures/7-C-20-4.bmp\",\"za:saza\",\"Left\",\"37\",\"2\",\"1\",\"6A\",\"C2\",\"J\",\"25\"
\"\",\"\",\"approach-retreat\",\"174\",\"1302967\",\"0.0-174.0\",\"\",\"\",\"1-2\",\"4491\",\"37\",\"0\",\"Testing\",\"Stims/Figures/94-C-20-2.bmp\",\"zaha:za\",\"Right\",\"39\",\"2\",\"2\",\"6A\",\"C2\",\"J\",\"26\"
\"\",\"\",\"approach-retreat\",\"175\",\"1308955\",\"0.0-175.0\",\"\",\"\",\"1-2\",\"4481\",\"39\",\"1\",\"Testing\",\"Stims/Figures/19-C-20-4.bmp\",\"sasa:ha\",\"Right\",\"39\",\"2\",\"3\",\"6A\",\"C2\",\"J\",\"27\"
\"\",\"\",\"approach-retreat\",\"176\",\"1315057\",\"0.0-176.0\",\"\",\"\",\"1-2\",\"4595\",\"40\",\"0\",\"Testing\",\"Stims/Figures/27-C-30-1.bmp\",\"sa:ha:ha\",\"Up\",\"38\",\"2\",\"4\",\"6A\",\"C2\",\"J\",\"28\"
\"\",\"\",\"approach-retreat\",\"177\",\"1321789\",\"0.0-177.0\",\"\",\"\",\"1-2\",\"5225\",\"40\",\"0\",\"Testing\",\"Stims/Figures/19-J-10-4.bmp\",\"vafa:sha\",\"Down\",\"38\",\"2\",\"5\",\"6A\",\"C1\",\"J\",\"29\"
\"\",\"\",\"approach-retreat\",\"178\",\"1327600\",\"0.0-178.0\",\"\",\"\",\"1-2\",\"4303\",\"39\",\"0\",\"Testing\",\"Stims/Figures/111-C-30-3.bmp\",\"zasa:za\",\"Left\",\"37\",\"2\",\"6\",\"6A\",\"C2\",\"J\",\"30\"
\"\",\"\",\"approach-retreat\",\"179\",\"1334278\",\"0.0-179.0\",\"\",\"\",\"1-2\",\"5170\",\"37\",\"1\",\"Testing\",\"Stims/Figures/128-C-30-3.bmp\",\"sa:sa:za\",\"Left\",\"37\",\"2\",\"7\",\"6A\",\"C2\",\"J\",\"31\"
\"\",\"\",\"approach-retreat\",\"180\",\"1341199\",\"0.0-180.0\",\"\",\"\",\"1-2\",\"5414\",\"38\",\"1\",\"Testing\",\"Stims/Figures/118-J-0-2.bmp\",\"va:fasha\",\"Down\",\"38\",\"2\",\"8\",\"6A\",\"C1\",\"J\",\"32\"
\"\",\"\",\"approach-retreat\",\"181\",\"1347671\",\"0.0-181.0\",\"\",\"\",\"1-2\",\"4964\",\"39\",\"1\",\"Testing\",\"Stims/Figures/57-J-0-1.bmp\",\"fa:fa:va\",\"Left\",\"39\",\"2\",\"9\",\"6A\",\"C1\",\"J\",\"33\"
\"\",\"\",\"approach-retreat\",\"182\",\"1355152\",\"0.0-182.0\",\"\",\"\",\"1-2\",\"5973\",\"38\",\"0\",\"Testing\",\"Stims/Figures/128-J-10-3.bmp\",\"va:sha:va\",\"Up\",\"40\",\"2\",\"10\",\"6A\",\"C1\",\"J\",\"34\"
\"\",\"\",\"approach-retreat\",\"183\",\"1361151\",\"0.0-183.0\",\"\",\"\",\"1-2\",\"4492\",\"38\",\"0\",\"Testing\",\"Stims/Figures/44-C-30-3.bmp\",\"za:ha:ha\",\"Down\",\"40\",\"2\",\"11\",\"6A\",\"C2\",\"J\",\"35\"
\"\",\"\",\"approach-retreat\",\"184\",\"1368460\",\"0.0-184.0\",\"\",\"\",\"1-2\",\"5800\",\"40\",\"0\",\"Testing\",\"Stims/Figures/139-C-20-2.bmp\",\"sahaha\",\"Up\",\"38\",\"2\",\"12\",\"6A\",\"C2\",\"J\",\"36\"
\"\",\"\",\"approach-retreat\",\"185\",\"1374284\",\"0.0-185.0\",\"\",\"\",\"1-2\",\"4316\",\"37\",\"0\",\"Testing\",\"Stims/Figures/139-J-0-2.bmp\",\"fafa:sha\",\"Left\",\"39\",\"2\",\"13\",\"6A\",\"C1\",\"J\",\"37\"
\"\",\"\",\"approach-retreat\",\"186\",\"1380190\",\"0.0-186.0\",\"\",\"\",\"1-2\",\"4399\",\"40\",\"1\",\"Testing\",\"Stims/Figures/111-J-10-3.bmp\",\"fafasha\",\"Up\",\"40\",\"2\",\"14\",\"6A\",\"C1\",\"J\",\"38\"
\"\",\"\",\"approach-retreat\",\"187\",\"1386308\",\"0.0-187.0\",\"\",\"\",\"1-2\",\"4609\",\"39\",\"1\",\"Testing\",\"Stims/Figures/7-J-10-4.bmp\",\"va:fa:va\",\"Left\",\"39\",\"2\",\"15\",\"6A\",\"C1\",\"J\",\"39\"
\"\",\"\",\"approach-retreat\",\"188\",\"1393418\",\"0.0-188.0\",\"\",\"\",\"1-2\",\"5606\",\"38\",\"1\",\"Testing\",\"Stims/Figures/102-J-10-4.bmp\",\"va:shava\",\"Down\",\"38\",\"2\",\"16\",\"6A\",\"C1\",\"J\",\"40\"
\"\",\"\",\"approach-retreat\",\"189\",\"1399976\",\"0.0-189.0\",\"\",\"\",\"1-2\",\"5052\",\"37\",\"0\",\"Testing\",\"Stims/Figures/102-C-20-4.bmp\",\"sasaza\",\"Right\",\"39\",\"2\",\"17\",\"6A\",\"C2\",\"J\",\"41\"
\"\",\"\",\"approach-retreat\",\"190\",\"1406013\",\"0.0-190.0\",\"\",\"\",\"1-2\",\"4528\",\"40\",\"0\",\"Testing\",\"Stims/Figures/94-J-0-2.bmp\",\"fa:sha:sha\",\"Down\",\"38\",\"2\",\"18\",\"6A\",\"C1\",\"J\",\"42\"
\"\",\"\",\"approach-retreat\",\"191\",\"1412215\",\"0.0-191.0\",\"\",\"\",\"1-2\",\"4692\",\"40\",\"1\",\"Testing\",\"Stims/Figures/44-J-10-3.bmp\",\"fashasha\",\"Up\",\"40\",\"2\",\"19\",\"6A\",\"C1\",\"J\",\"43\"
\"\",\"\",\"approach-retreat\",\"192\",\"1418102\",\"0.0-192.0\",\"\",\"\",\"1-2\",\"4379\",\"39\",\"1\",\"Testing\",\"Stims/Figures/118-C-20-2.bmp\",\"zahaza\",\"Right\",\"39\",\"2\",\"20\",\"6A\",\"C2\",\"J\",\"44\"
\"\",\"\",\"approach-retreat\",\"193\",\"1423887\",\"0.0-193.0\",\"\",\"\",\"1-2\",\"4277\",\"38\",\"1\",\"Testing\",\"Stims/Figures/27-J-0-1.bmp\",\"fa:fasha\",\"Down\",\"38\",\"2\",\"21\",\"6A\",\"C1\",\"J\",\"45\"
\"\",\"\",\"approach-retreat\",\"194\",\"1430024\",\"0.0-194.0\",\"\",\"\",\"1-2\",\"4630\",\"39\",\"1\",\"Testing\",\"Stims/Figures/93-C-30-1.bmp\",\"za:ha:za\",\"Right\",\"39\",\"2\",\"22\",\"6A\",\"C2\",\"J\",\"46\"
\"\",\"\",\"approach-retreat\",\"195\",\"1436488\",\"0.0-195.0\",\"\",\"\",\"1-2\",\"4956\",\"37\",\"0\",\"Testing\",\"Stims/Figures/57-C-30-1.bmp\",\"za:saha\",\"Right\",\"39\",\"2\",\"23\",\"6A\",\"C2\",\"J\",\"47\"
\"\",\"\",\"approach-retreat\",\"196\",\"1443124\",\"0.0-196.0\",\"\",\"\",\"1-2\",\"5129\",\"40\",\"1\",\"Testing\",\"Stims/Figures/93-J-0-1.bmp\",\"vasha:sha\",\"Up\",\"40\",\"2\",\"24\",\"6A\",\"C1\",\"J\",\"48\"
\"\",\"\",\"approach-retreat\",\"197\",\"1449572\",\"0.0-197.0\",\"\",\"\",\"1-2\",\"4938\",\"40\",\"1\",\"Testing\",\"Stims/Figures/93-J-0-1.bmp\",\"vasha:sha\",\"Up\",\"40\",\"3\",\"1\",\"6A\",\"C1\",\"J\",\"49\"
\"\",\"\",\"approach-retreat\",\"198\",\"1456505\",\"0.0-198.0\",\"\",\"\",\"1-2\",\"5425\",\"40\",\"1\",\"Testing\",\"Stims/Figures/139-C-20-2.bmp\",\"sahaha\",\"Down\",\"40\",\"3\",\"2\",\"6A\",\"C2\",\"J\",\"50\"
\"\",\"\",\"approach-retreat\",\"199\",\"1462852\",\"0.0-199.0\",\"\",\"\",\"1-2\",\"4840\",\"38\",\"0\",\"Testing\",\"Stims/Figures/57-C-30-1.bmp\",\"za:saha\",\"Down\",\"40\",\"3\",\"3\",\"6A\",\"C2\",\"J\",\"51\"
\"\",\"\",\"approach-retreat\",\"200\",\"1468743\",\"0.0-200.0\",\"\",\"\",\"1-2\",\"4385\",\"37\",\"1\",\"Testing\",\"Stims/Figures/102-J-10-4.bmp\",\"va:shava\",\"Right\",\"37\",\"3\",\"4\",\"6A\",\"C1\",\"J\",\"52\"
\"\",\"\",\"approach-retreat\",\"201\",\"1474627\",\"0.0-201.0\",\"\",\"\",\"1-2\",\"4376\",\"39\",\"0\",\"Testing\",\"Stims/Figures/102-C-20-4.bmp\",\"sasaza\",\"Left\",\"37\",\"3\",\"5\",\"6A\",\"C2\",\"J\",\"53\"
\"\",\"\",\"approach-retreat\",\"202\",\"1480376\",\"0.0-202.0\",\"\",\"\",\"1-2\",\"4243\",\"38\",\"1\",\"Testing\",\"Stims/Figures/44-J-10-3.bmp\",\"fashasha\",\"Down\",\"38\",\"3\",\"6\",\"6A\",\"C1\",\"J\",\"54\"
\"\",\"\",\"approach-retreat\",\"203\",\"1486427\",\"0.0-203.0\",\"\",\"\",\"1-2\",\"4543\",\"38\",\"0\",\"Testing\",\"Stims/Figures/139-J-0-2.bmp\",\"fafa:sha\",\"Up\",\"40\",\"3\",\"7\",\"6A\",\"C1\",\"J\",\"55\"
\"\",\"\",\"approach-retreat\",\"204\",\"1492278\",\"0.0-204.0\",\"\",\"\",\"1-2\",\"4346\",\"39\",\"1\",\"Testing\",\"Stims/Figures/111-J-10-3.bmp\",\"fafasha\",\"Left\",\"39\",\"3\",\"8\",\"6A\",\"C1\",\"J\",\"56\"
\"\",\"\",\"approach-retreat\",\"205\",\"1498737\",\"0.0-205.0\",\"\",\"\",\"1-2\",\"4954\",\"37\",\"0\",\"Testing\",\"Stims/Figures/19-C-20-4.bmp\",\"sasa:ha\",\"Right\",\"39\",\"3\",\"9\",\"6A\",\"C2\",\"J\",\"57\"
\"\",\"\",\"approach-retreat\",\"206\",\"1506354\",\"0.0-206.0\",\"\",\"\",\"1-2\",\"6109\",\"37\",\"0\",\"Testing\",\"Stims/Figures/19-J-10-4.bmp\",\"vafa:sha\",\"Left\",\"39\",\"3\",\"10\",\"6A\",\"C1\",\"J\",\"58\"
\"\",\"\",\"approach-retreat\",\"207\",\"1512239\",\"0.0-207.0\",\"\",\"\",\"1-2\",\"4378\",\"39\",\"1\",\"Testing\",\"Stims/Figures/128-C-30-3.bmp\",\"sa:sa:za\",\"Right\",\"39\",\"3\",\"11\",\"6A\",\"C2\",\"J\",\"59\"
\"\",\"\",\"approach-retreat\",\"208\",\"1518286\",\"0.0-208.0\",\"\",\"\",\"1-2\",\"4538\",\"37\",\"1\",\"Testing\",\"Stims/Figures/7-C-20-4.bmp\",\"za:saza\",\"Left\",\"37\",\"3\",\"12\",\"6A\",\"C2\",\"J\",\"60\"
\"\",\"\",\"approach-retreat\",\"209\",\"1524024\",\"0.0-209.0\",\"\",\"\",\"1-2\",\"4230\",\"39\",\"0\",\"Testing\",\"Stims/Figures/118-J-0-2.bmp\",\"va:fasha\",\"Right\",\"37\",\"3\",\"13\",\"6A\",\"C1\",\"J\",\"61\"
\"\",\"\",\"approach-retreat\",\"210\",\"1530468\",\"0.0-210.0\",\"\",\"\",\"1-2\",\"4936\",\"40\",\"0\",\"Testing\",\"Stims/Figures/27-C-30-1.bmp\",\"sa:ha:ha\",\"Up\",\"38\",\"3\",\"14\",\"6A\",\"C2\",\"J\",\"62\"
\"\",\"\",\"approach-retreat\",\"211\",\"1537208\",\"0.0-211.0\",\"\",\"\",\"1-2\",\"5231\",\"38\",\"0\",\"Testing\",\"Stims/Figures/118-C-20-2.bmp\",\"zahaza\",\"Down\",\"40\",\"3\",\"15\",\"6A\",\"C2\",\"J\",\"63\"
\"\",\"\",\"approach-retreat\",\"212\",\"1543611\",\"0.0-212.0\",\"\",\"\",\"1-2\",\"4895\",\"37\",\"1\",\"Testing\",\"Stims/Figures/27-J-0-1.bmp\",\"fa:fasha\",\"Right\",\"37\",\"3\",\"16\",\"6A\",\"C1\",\"J\",\"64\"
\"\",\"\",\"approach-retreat\",\"213\",\"1550287\",\"0.0-213.0\",\"\",\"\",\"1-2\",\"5169\",\"39\",\"0\",\"Testing\",\"Stims/Figures/57-J-0-1.bmp\",\"fa:fa:va\",\"Right\",\"37\",\"3\",\"17\",\"6A\",\"C1\",\"J\",\"65\"
\"\",\"\",\"approach-retreat\",\"214\",\"1556950\",\"0.0-214.0\",\"\",\"\",\"1-2\",\"5158\",\"40\",\"0\",\"Testing\",\"Stims/Figures/7-J-10-4.bmp\",\"va:fa:va\",\"Down\",\"38\",\"3\",\"18\",\"6A\",\"C1\",\"J\",\"66\"
\"\",\"\",\"approach-retreat\",\"215\",\"1563255\",\"0.0-215.0\",\"\",\"\",\"1-2\",\"4797\",\"40\",\"0\",\"Testing\",\"Stims/Figures/111-C-30-3.bmp\",\"zasa:za\",\"Up\",\"38\",\"3\",\"19\",\"6A\",\"C2\",\"J\",\"67\"
\"\",\"\",\"approach-retreat\",\"216\",\"1569766\",\"0.0-216.0\",\"\",\"\",\"1-2\",\"5005\",\"38\",\"0\",\"Testing\",\"Stims/Figures/128-J-10-3.bmp\",\"va:sha:va\",\"Up\",\"40\",\"3\",\"20\",\"6A\",\"C1\",\"J\",\"68\"
\"\",\"\",\"approach-retreat\",\"217\",\"1576450\",\"0.0-217.0\",\"\",\"\",\"1-2\",\"5176\",\"38\",\"1\",\"Testing\",\"Stims/Figures/94-J-0-2.bmp\",\"fa:sha:sha\",\"Down\",\"38\",\"3\",\"21\",\"6A\",\"C1\",\"J\",\"69\"
\"\",\"\",\"approach-retreat\",\"218\",\"1582344\",\"0.0-218.0\",\"\",\"\",\"1-2\",\"4385\",\"37\",\"1\",\"Testing\",\"Stims/Figures/93-C-30-1.bmp\",\"za:ha:za\",\"Left\",\"37\",\"3\",\"22\",\"6A\",\"C2\",\"J\",\"70\"
\"\",\"\",\"approach-retreat\",\"219\",\"1588216\",\"0.0-219.0\",\"\",\"\",\"1-2\",\"4366\",\"40\",\"0\",\"Testing\",\"Stims/Figures/94-C-20-2.bmp\",\"zaha:za\",\"Up\",\"38\",\"3\",\"23\",\"6A\",\"C2\",\"J\",\"71\"
\"\",\"\",\"approach-retreat\",\"220\",\"1593906\",\"0.0-220.0\",\"\",\"\",\"1-2\",\"4183\",\"39\",\"0\",\"Testing\",\"Stims/Figures/44-C-30-3.bmp\",\"za:ha:ha\",\"Left\",\"37\",\"3\",\"24\",\"6A\",\"C2\",\"J\",\"72\"
\"\",\"\",\"approach-retreat\",\"221\",\"1599994\",\"0.0-221.0\",\"\",\"\",\"1-2\",\"4579\",\"39\",\"0\",\"Testing\",\"Stims/Figures/19-J-10-4.bmp\",\"vafa:sha\",\"Right\",\"37\",\"4\",\"1\",\"6A\",\"C1\",\"J\",\"73\"
\"\",\"\",\"approach-retreat\",\"222\",\"1606158\",\"0.0-222.0\",\"\",\"\",\"1-2\",\"4656\",\"40\",\"0\",\"Testing\",\"Stims/Figures/57-J-0-1.bmp\",\"fa:fa:va\",\"Down\",\"38\",\"4\",\"2\",\"6A\",\"C1\",\"J\",\"74\"
\"\",\"\",\"approach-retreat\",\"223\",\"1612030\",\"0.0-223.0\",\"\",\"\",\"1-2\",\"4364\",\"40\",\"0\",\"Testing\",\"Stims/Figures/44-C-30-3.bmp\",\"za:ha:ha\",\"Up\",\"38\",\"4\",\"3\",\"6A\",\"C2\",\"J\",\"75\"
\"\",\"\",\"approach-retreat\",\"224\",\"1619138\",\"0.0-224.0\",\"\",\"\",\"1-2\",\"5601\",\"38\",\"1\",\"Testing\",\"Stims/Figures/7-J-10-4.bmp\",\"va:fa:va\",\"Down\",\"38\",\"4\",\"4\",\"6A\",\"C1\",\"J\",\"76\"
\"\",\"\",\"approach-retreat\",\"225\",\"1624934\",\"0.0-225.0\",\"\",\"\",\"1-2\",\"4288\",\"37\",\"0\",\"Testing\",\"Stims/Figures/102-C-20-4.bmp\",\"sasaza\",\"Right\",\"39\",\"4\",\"5\",\"6A\",\"C2\",\"J\",\"77\"
\"\",\"\",\"approach-retreat\",\"226\",\"1630824\",\"0.0-226.0\",\"\",\"\",\"1-2\",\"4381\",\"39\",\"1\",\"Testing\",\"Stims/Figures/102-J-10-4.bmp\",\"va:shava\",\"Left\",\"39\",\"4\",\"6\",\"6A\",\"C1\",\"J\",\"78\"
\"\",\"\",\"approach-retreat\",\"227\",\"1638850\",\"0.0-227.0\",\"\",\"\",\"1-2\",\"6514\",\"40\",\"0\",\"Testing\",\"Stims/Figures/128-J-10-3.bmp\",\"va:sha:va\",\"Down\",\"38\",\"4\",\"7\",\"6A\",\"C1\",\"J\",\"79\"
\"\",\"\",\"approach-retreat\",\"228\",\"1645204\",\"0.0-228.0\",\"\",\"\",\"1-2\",\"4846\",\"39\",\"1\",\"Testing\",\"Stims/Figures/139-C-20-2.bmp\",\"sahaha\",\"Right\",\"39\",\"4\",\"8\",\"6A\",\"C2\",\"J\",\"80\"
\"\",\"\",\"approach-retreat\",\"229\",\"1651642\",\"0.0-229.0\",\"\",\"\",\"1-2\",\"4933\",\"37\",\"1\",\"Testing\",\"Stims/Figures/7-C-20-4.bmp\",\"za:saza\",\"Left\",\"37\",\"4\",\"9\",\"6A\",\"C2\",\"J\",\"81\"
\"\",\"\",\"approach-retreat\",\"230\",\"1657724\",\"0.0-230.0\",\"\",\"\",\"1-2\",\"4574\",\"39\",\"0\",\"Testing\",\"Stims/Figures/94-C-20-2.bmp\",\"zaha:za\",\"Left\",\"37\",\"4\",\"10\",\"6A\",\"C2\",\"J\",\"82\"
\"\",\"\",\"approach-retreat\",\"231\",\"1663505\",\"0.0-231.0\",\"\",\"\",\"1-2\",\"4273\",\"39\",\"1\",\"Testing\",\"Stims/Figures/111-J-10-3.bmp\",\"fafasha\",\"Left\",\"39\",\"4\",\"11\",\"6A\",\"C1\",\"J\",\"83\"
\"\",\"\",\"approach-retreat\",\"232\",\"1669894\",\"0.0-232.0\",\"\",\"\",\"1-2\",\"4883\",\"38\",\"1\",\"Testing\",\"Stims/Figures/118-C-20-2.bmp\",\"zahaza\",\"Up\",\"38\",\"4\",\"12\",\"6A\",\"C2\",\"J\",\"84\"
\"\",\"\",\"approach-retreat\",\"233\",\"1675585\",\"0.0-233.0\",\"\",\"\",\"1-2\",\"4184\",\"37\",\"1\",\"Testing\",\"Stims/Figures/44-J-10-3.bmp\",\"fashasha\",\"Right\",\"37\",\"4\",\"13\",\"6A\",\"C1\",\"J\",\"85\"
\"\",\"\",\"approach-retreat\",\"234\",\"1681980\",\"0.0-234.0\",\"\",\"\",\"1-2\",\"4888\",\"40\",\"0\",\"Testing\",\"Stims/Figures/93-J-0-1.bmp\",\"vasha:sha\",\"Down\",\"38\",\"4\",\"14\",\"6A\",\"C1\",\"J\",\"86\"
\"\",\"\",\"approach-retreat\",\"235\",\"1687650\",\"0.0-235.0\",\"\",\"\",\"1-2\",\"4163\",\"37\",\"1\",\"Testing\",\"Stims/Figures/94-J-0-2.bmp\",\"fa:sha:sha\",\"Right\",\"37\",\"4\",\"15\",\"6A\",\"C1\",\"J\",\"87\"
\"\",\"\",\"approach-retreat\",\"236\",\"1693618\",\"0.0-236.0\",\"\",\"\",\"1-2\",\"4462\",\"37\",\"0\",\"Testing\",\"Stims/Figures/27-J-0-1.bmp\",\"fa:fasha\",\"Left\",\"39\",\"4\",\"16\",\"6A\",\"C1\",\"J\",\"88\"
\"\",\"\",\"approach-retreat\",\"237\",\"1701140\",\"0.0-237.0\",\"\",\"\",\"1-2\",\"6013\",\"40\",\"0\",\"Testing\",\"Stims/Figures/111-C-30-3.bmp\",\"zasa:za\",\"Up\",\"38\",\"4\",\"17\",\"6A\",\"C2\",\"J\",\"89\"
\"\",\"\",\"approach-retreat\",\"238\",\"1707038\",\"0.0-238.0\",\"\",\"\",\"1-2\",\"4392\",\"38\",\"1\",\"Testing\",\"Stims/Figures/57-C-30-1.bmp\",\"za:saha\",\"Up\",\"38\",\"4\",\"18\",\"6A\",\"C2\",\"J\",\"90\"
\"\",\"\",\"approach-retreat\",\"239\",\"1713449\",\"0.0-239.0\",\"\",\"\",\"1-2\",\"4904\",\"40\",\"1\",\"Testing\",\"Stims/Figures/93-C-30-1.bmp\",\"za:ha:za\",\"Down\",\"40\",\"4\",\"19\",\"6A\",\"C2\",\"J\",\"91\"
\"\",\"\",\"approach-retreat\",\"240\",\"1719824\",\"0.0-240.0\",\"\",\"\",\"1-2\",\"4868\",\"39\",\"0\",\"Testing\",\"Stims/Figures/139-J-0-2.bmp\",\"fafa:sha\",\"Right\",\"37\",\"4\",\"20\",\"6A\",\"C1\",\"J\",\"92\"
\"\",\"\",\"approach-retreat\",\"241\",\"1726259\",\"0.0-241.0\",\"\",\"\",\"1-2\",\"4927\",\"38\",\"1\",\"Testing\",\"Stims/Figures/128-C-30-3.bmp\",\"sa:sa:za\",\"Up\",\"38\",\"4\",\"21\",\"6A\",\"C2\",\"J\",\"93\"
\"\",\"\",\"approach-retreat\",\"242\",\"1732261\",\"0.0-242.0\",\"\",\"\",\"1-2\",\"4493\",\"40\",\"1\",\"Testing\",\"Stims/Figures/118-J-0-2.bmp\",\"va:fasha\",\"Up\",\"40\",\"4\",\"22\",\"6A\",\"C1\",\"J\",\"94\"
\"\",\"\",\"approach-retreat\",\"243\",\"1738190\",\"0.0-243.0\",\"\",\"\",\"1-2\",\"4422\",\"39\",\"0\",\"Testing\",\"Stims/Figures/27-C-30-1.bmp\",\"sa:ha:ha\",\"Left\",\"37\",\"4\",\"23\",\"6A\",\"C2\",\"J\",\"95\"
\"\",\"\",\"approach-retreat\",\"244\",\"1744801\",\"0.0-244.0\",\"\",\"\",\"1-2\",\"5103\",\"40\",\"1\",\"Testing\",\"Stims/Figures/19-C-20-4.bmp\",\"sasa:ha\",\"Down\",\"40\",\"4\",\"24\",\"6A\",\"C2\",\"J\",\"96\"
\"46562\",\"\",\"survey-text\",\"245\",\"1791370\",\"0.0-245.0\",\"\",\"{\"\"Q0\"\":\"\"PS170006\"\"}\",\"\",\"\",\"\",\"\",\"\",\"\",\"\",\"\",\"\",\"\",\"\",\"\",\"\",\"\",\"\"
