\"rt\",\"key_press\",\"trial_type\",\"trial_index\",\"time_elapsed\",\"internal_node_id\",\"view_history\",\"responses\",\"Id\",\"Rt\",\"ResKeyCode\",\"ResCorr\",\"TrialType2\",\"Image\",\"Label\",\"Location\",\"CorrectResponse\",\"Block\",\"BlockTrial\",\"Condition\",\"LabelType\",\"Subcondition\",\"trialNum\"
\"57893\",\"32\",\"text\",\"0\",\"57895\",\"0.0-0.0-0.0\",\"\",\"\",\"\",\"\",\"\",\"\",\"\",\"\",\"\",\"\",\"\",\"\",\"\",\"\",\"\",\"\",\"\"
\"73919\",\"\",\"instructions\",\"1\",\"131815\",\"0.0-1.0\",\"[{\"\"page_index\"\":0,\"\"viewing_time\"\":73918}]\",\"\",\"\",\"\",\"\",\"\",\"\",\"\",\"\",\"\",\"\",\"\",\"\",\"\",\"\",\"\",\"\"
\"26929\",\"\",\"survey-multi-choice\",\"2\",\"158757\",\"0.0-2.0\",\"\",\"{\"\"Q0\"\":\"\"Da\"\",\"\"Q1\"\":\"\"Da\"\",\"\"Q2\"\":\"\"Da\"\",\"\"Q3\"\":\"\"Da\"\",\"\"Q4\"\":\"\"Da\"\",\"\"Q5\"\":\"\"Da\"\"}\",\"\",\"\",\"\",\"\",\"\",\"\",\"\",\"\",\"\",\"\",\"\",\"\",\"\",\"\",\"\"
\"\",\"\",\"bio\",\"3\",\"169137\",\"0.0-3.0\",\"\",\"{\"\"age\"\":\"\"21\"\",\"\"gender\"\":\"\"f\"\",\"\"specify\"\":\"\"\"\"}\",\"\",\"\",\"\",\"\",\"\",\"\",\"\",\"\",\"\",\"\",\"\",\"\",\"\",\"\",\"\"
\"\",\"\",\"approach-retreat\",\"4\",\"175762\",\"0.0-4.0\",\"\",\"\",\"1-2\",\"5116\",\"38\",\"0\",\"Training\",\"Stims/Figures/84-C-20-2.bmp\",\"za:sa:za\",\"Up\",\"40\",\"1\",\"1\",\"3A\",\"C2\",\"C\",\"1\"
\"\",\"\",\"approach-retreat\",\"5\",\"181976\",\"0.0-5.0\",\"\",\"\",\"1-2\",\"4708\",\"38\",\"0\",\"Training\",\"Stims/Figures/19-J-10-4.bmp\",\"fafa:va\",\"Down\",\"40\",\"1\",\"2\",\"3A\",\"C1\",\"C\",\"2\"
\"\",\"\",\"approach-retreat\",\"6\",\"191137\",\"0.0-6.0\",\"\",\"\",\"1-2\",\"7654\",\"37\",\"0\",\"Training\",\"Stims/Figures/27-C-30-1.bmp\",\"za:sa:za\",\"Left\",\"39\",\"1\",\"3\",\"3A\",\"C2\",\"C\",\"3\"
\"\",\"\",\"approach-retreat\",\"7\",\"197311\",\"0.0-7.0\",\"\",\"\",\"1-2\",\"4639\",\"37\",\"1\",\"Training\",\"Stims/Figures/44-C-30-3.bmp\",\"za:sa:za\",\"Right\",\"37\",\"1\",\"4\",\"3A\",\"C2\",\"C\",\"4\"
\"\",\"\",\"approach-retreat\",\"8\",\"206687\",\"0.0-8.0\",\"\",\"\",\"1-2\",\"7843\",\"37\",\"0\",\"Training\",\"Stims/Figures/128-J-10-3.bmp\",\"fafa:va\",\"Right\",\"39\",\"1\",\"5\",\"3A\",\"C1\",\"C\",\"5\"
\"\",\"\",\"approach-retreat\",\"9\",\"212645\",\"0.0-9.0\",\"\",\"\",\"1-2\",\"4426\",\"38\",\"0\",\"Training\",\"Stims/Figures/44-J-10-3.bmp\",\"fafa:va\",\"Down\",\"40\",\"1\",\"6\",\"3A\",\"C1\",\"C\",\"6\"
\"\",\"\",\"approach-retreat\",\"10\",\"220022\",\"0.0-10.0\",\"\",\"\",\"1-2\",\"5869\",\"39\",\"0\",\"Training\",\"Stims/Figures/7-J-10-4.bmp\",\"fafa:va\",\"Left\",\"37\",\"1\",\"7\",\"3A\",\"C1\",\"C\",\"7\"
\"\",\"\",\"approach-retreat\",\"11\",\"227464\",\"0.0-11.0\",\"\",\"\",\"1-2\",\"5936\",\"38\",\"0\",\"Training\",\"Stims/Figures/128-C-30-3.bmp\",\"za:sa:za\",\"Up\",\"40\",\"1\",\"8\",\"3A\",\"C2\",\"C\",\"8\"
\"\",\"\",\"approach-retreat\",\"12\",\"234500\",\"0.0-12.0\",\"\",\"\",\"1-2\",\"5530\",\"40\",\"1\",\"Training\",\"Stims/Figures/93-C-30-1.bmp\",\"za:sa:za\",\"Up\",\"40\",\"1\",\"9\",\"3A\",\"C2\",\"C\",\"9\"
\"\",\"\",\"approach-retreat\",\"13\",\"244521\",\"0.0-13.0\",\"\",\"\",\"1-2\",\"8485\",\"37\",\"0\",\"Training\",\"Stims/Figures/118-J-0-2.bmp\",\"fafa:va\",\"Right\",\"39\",\"1\",\"10\",\"3A\",\"C1\",\"C\",\"10\"
\"\",\"\",\"approach-retreat\",\"14\",\"250563\",\"0.0-14.0\",\"\",\"\",\"1-2\",\"4535\",\"37\",\"1\",\"Training\",\"Stims/Figures/27-J-0-1.bmp\",\"fafa:va\",\"Left\",\"37\",\"1\",\"11\",\"3A\",\"C1\",\"C\",\"11\"
\"\",\"\",\"approach-retreat\",\"15\",\"260102\",\"0.0-15.0\",\"\",\"\",\"1-2\",\"8003\",\"40\",\"0\",\"Training\",\"Stims/Figures/19-C-20-4.bmp\",\"za:sa:za\",\"Down\",\"38\",\"1\",\"12\",\"3A\",\"C2\",\"C\",\"12\"
\"\",\"\",\"approach-retreat\",\"16\",\"266804\",\"0.0-16.0\",\"\",\"\",\"1-2\",\"5194\",\"39\",\"1\",\"Training\",\"Stims/Figures/7-C-20-4.bmp\",\"za:sa:za\",\"Left\",\"39\",\"1\",\"13\",\"3A\",\"C2\",\"C\",\"13\"
\"\",\"\",\"approach-retreat\",\"17\",\"275149\",\"0.0-17.0\",\"\",\"\",\"1-2\",\"6811\",\"38\",\"1\",\"Training\",\"Stims/Figures/118-C-20-2.bmp\",\"za:sa:za\",\"Down\",\"38\",\"1\",\"14\",\"3A\",\"C2\",\"C\",\"14\"
\"\",\"\",\"approach-retreat\",\"18\",\"282177\",\"0.0-18.0\",\"\",\"\",\"1-2\",\"5492\",\"38\",\"1\",\"Training\",\"Stims/Figures/93-J-0-1.bmp\",\"fafa:va\",\"Up\",\"38\",\"1\",\"15\",\"3A\",\"C1\",\"C\",\"15\"
\"\",\"\",\"approach-retreat\",\"19\",\"288580\",\"0.0-19.0\",\"\",\"\",\"1-2\",\"4867\",\"39\",\"1\",\"Training\",\"Stims/Figures/84-J-0-2.bmp\",\"fafa:va\",\"Right\",\"39\",\"1\",\"16\",\"3A\",\"C1\",\"C\",\"16\"
\"\",\"\",\"approach-retreat\",\"20\",\"296781\",\"0.0-20.0\",\"\",\"\",\"1-2\",\"6663\",\"40\",\"1\",\"Training\",\"Stims/Figures/19-J-10-4.bmp\",\"fafa:va\",\"Down\",\"40\",\"2\",\"1\",\"3A\",\"C1\",\"C\",\"17\"
\"\",\"\",\"approach-retreat\",\"21\",\"304998\",\"0.0-21.0\",\"\",\"\",\"1-2\",\"6682\",\"39\",\"1\",\"Training\",\"Stims/Figures/44-C-30-3.bmp\",\"za:sa:za\",\"Left\",\"39\",\"2\",\"2\",\"3A\",\"C2\",\"C\",\"18\"
\"\",\"\",\"approach-retreat\",\"22\",\"313747\",\"0.0-22.0\",\"\",\"\",\"1-2\",\"7214\",\"40\",\"1\",\"Training\",\"Stims/Figures/27-C-30-1.bmp\",\"za:sa:za\",\"Up\",\"40\",\"2\",\"3\",\"3A\",\"C2\",\"C\",\"19\"
\"\",\"\",\"approach-retreat\",\"23\",\"323272\",\"0.0-23.0\",\"\",\"\",\"1-2\",\"7991\",\"39\",\"1\",\"Training\",\"Stims/Figures/118-C-20-2.bmp\",\"za:sa:za\",\"Left\",\"39\",\"2\",\"4\",\"3A\",\"C2\",\"C\",\"20\"
\"\",\"\",\"approach-retreat\",\"24\",\"331343\",\"0.0-24.0\",\"\",\"\",\"1-2\",\"6538\",\"40\",\"1\",\"Training\",\"Stims/Figures/19-C-20-4.bmp\",\"za:sa:za\",\"Up\",\"40\",\"2\",\"5\",\"3A\",\"C2\",\"C\",\"21\"
\"\",\"\",\"approach-retreat\",\"25\",\"338436\",\"0.0-25.0\",\"\",\"\",\"1-2\",\"5561\",\"40\",\"1\",\"Training\",\"Stims/Figures/7-J-10-4.bmp\",\"fafa:va\",\"Down\",\"40\",\"2\",\"6\",\"3A\",\"C1\",\"C\",\"22\"
\"\",\"\",\"approach-retreat\",\"26\",\"349558\",\"0.0-26.0\",\"\",\"\",\"1-2\",\"9589\",\"37\",\"1\",\"Training\",\"Stims/Figures/27-J-0-1.bmp\",\"fafa:va\",\"Left\",\"37\",\"2\",\"7\",\"3A\",\"C1\",\"C\",\"23\"
\"\",\"\",\"approach-retreat\",\"27\",\"357508\",\"0.0-27.0\",\"\",\"\",\"1-2\",\"6415\",\"40\",\"0\",\"Training\",\"Stims/Figures/44-J-10-3.bmp\",\"fafa:va\",\"Up\",\"38\",\"2\",\"8\",\"3A\",\"C1\",\"C\",\"24\"
\"\",\"\",\"approach-retreat\",\"28\",\"365226\",\"0.0-28.0\",\"\",\"\",\"1-2\",\"6213\",\"37\",\"1\",\"Training\",\"Stims/Figures/128-C-30-3.bmp\",\"za:sa:za\",\"Right\",\"37\",\"2\",\"9\",\"3A\",\"C2\",\"C\",\"25\"
\"\",\"\",\"approach-retreat\",\"29\",\"372395\",\"0.0-29.0\",\"\",\"\",\"1-2\",\"5634\",\"40\",\"1\",\"Training\",\"Stims/Figures/118-J-0-2.bmp\",\"fafa:va\",\"Down\",\"40\",\"2\",\"10\",\"3A\",\"C1\",\"C\",\"26\"
\"\",\"\",\"approach-retreat\",\"30\",\"378174\",\"0.0-30.0\",\"\",\"\",\"1-2\",\"4244\",\"39\",\"1\",\"Training\",\"Stims/Figures/7-C-20-4.bmp\",\"za:sa:za\",\"Left\",\"39\",\"2\",\"11\",\"3A\",\"C2\",\"C\",\"27\"
\"\",\"\",\"approach-retreat\",\"31\",\"386388\",\"0.0-31.0\",\"\",\"\",\"1-2\",\"6679\",\"38\",\"1\",\"Training\",\"Stims/Figures/84-C-20-2.bmp\",\"za:sa:za\",\"Down\",\"38\",\"2\",\"12\",\"3A\",\"C2\",\"C\",\"28\"
\"\",\"\",\"approach-retreat\",\"32\",\"393751\",\"0.0-32.0\",\"\",\"\",\"1-2\",\"5826\",\"38\",\"1\",\"Training\",\"Stims/Figures/84-J-0-2.bmp\",\"fafa:va\",\"Up\",\"38\",\"2\",\"13\",\"3A\",\"C1\",\"C\",\"29\"
\"\",\"\",\"approach-retreat\",\"33\",\"400797\",\"0.0-33.0\",\"\",\"\",\"1-2\",\"5509\",\"39\",\"1\",\"Training\",\"Stims/Figures/93-J-0-1.bmp\",\"fafa:va\",\"Right\",\"39\",\"2\",\"14\",\"3A\",\"C1\",\"C\",\"30\"
\"\",\"\",\"approach-retreat\",\"34\",\"406664\",\"0.0-34.0\",\"\",\"\",\"1-2\",\"4330\",\"39\",\"1\",\"Training\",\"Stims/Figures/128-J-10-3.bmp\",\"fafa:va\",\"Right\",\"39\",\"2\",\"15\",\"3A\",\"C1\",\"C\",\"31\"
\"\",\"\",\"approach-retreat\",\"35\",\"414523\",\"0.0-35.0\",\"\",\"\",\"1-2\",\"6327\",\"37\",\"1\",\"Training\",\"Stims/Figures/93-C-30-1.bmp\",\"za:sa:za\",\"Right\",\"37\",\"2\",\"16\",\"3A\",\"C2\",\"C\",\"32\"
\"\",\"\",\"approach-retreat\",\"36\",\"420332\",\"0.0-36.0\",\"\",\"\",\"1-2\",\"4275\",\"40\",\"1\",\"Training\",\"Stims/Figures/118-C-20-2.bmp\",\"za:sa:za\",\"Up\",\"40\",\"3\",\"1\",\"3A\",\"C2\",\"C\",\"33\"
\"\",\"\",\"approach-retreat\",\"37\",\"428710\",\"0.0-37.0\",\"\",\"\",\"1-2\",\"6844\",\"40\",\"1\",\"Training\",\"Stims/Figures/93-J-0-1.bmp\",\"fafa:va\",\"Down\",\"40\",\"3\",\"2\",\"3A\",\"C1\",\"C\",\"34\"
\"\",\"\",\"approach-retreat\",\"38\",\"436107\",\"0.0-38.0\",\"\",\"\",\"1-2\",\"5765\",\"37\",\"1\",\"Training\",\"Stims/Figures/118-J-0-2.bmp\",\"fafa:va\",\"Left\",\"37\",\"3\",\"3\",\"3A\",\"C1\",\"C\",\"35\"
\"\",\"\",\"approach-retreat\",\"39\",\"441846\",\"0.0-39.0\",\"\",\"\",\"1-2\",\"4204\",\"38\",\"1\",\"Training\",\"Stims/Figures/19-J-10-4.bmp\",\"fafa:va\",\"Up\",\"38\",\"3\",\"4\",\"3A\",\"C1\",\"C\",\"36\"
\"\",\"\",\"approach-retreat\",\"40\",\"448411\",\"0.0-40.0\",\"\",\"\",\"1-2\",\"5030\",\"37\",\"1\",\"Training\",\"Stims/Figures/44-C-30-3.bmp\",\"za:sa:za\",\"Right\",\"37\",\"3\",\"5\",\"3A\",\"C2\",\"C\",\"37\"
\"\",\"\",\"approach-retreat\",\"41\",\"453963\",\"0.0-41.0\",\"\",\"\",\"1-2\",\"4018\",\"40\",\"1\",\"Training\",\"Stims/Figures/84-C-20-2.bmp\",\"za:sa:za\",\"Up\",\"40\",\"3\",\"6\",\"3A\",\"C2\",\"C\",\"38\"
\"\",\"\",\"approach-retreat\",\"42\",\"460243\",\"0.0-42.0\",\"\",\"\",\"1-2\",\"4743\",\"40\",\"1\",\"Training\",\"Stims/Figures/44-J-10-3.bmp\",\"fafa:va\",\"Down\",\"40\",\"3\",\"7\",\"3A\",\"C1\",\"C\",\"39\"
\"\",\"\",\"approach-retreat\",\"43\",\"466169\",\"0.0-43.0\",\"\",\"\",\"1-2\",\"4388\",\"39\",\"1\",\"Training\",\"Stims/Figures/7-J-10-4.bmp\",\"fafa:va\",\"Right\",\"39\",\"3\",\"8\",\"3A\",\"C1\",\"C\",\"40\"
\"\",\"\",\"approach-retreat\",\"44\",\"473238\",\"0.0-44.0\",\"\",\"\",\"1-2\",\"5536\",\"40\",\"1\",\"Training\",\"Stims/Figures/27-C-30-1.bmp\",\"za:sa:za\",\"Up\",\"40\",\"3\",\"9\",\"3A\",\"C2\",\"C\",\"41\"
\"\",\"\",\"approach-retreat\",\"45\",\"478997\",\"0.0-45.0\",\"\",\"\",\"1-2\",\"4224\",\"37\",\"1\",\"Training\",\"Stims/Figures/84-J-0-2.bmp\",\"fafa:va\",\"Left\",\"37\",\"3\",\"10\",\"3A\",\"C1\",\"C\",\"42\"
\"\",\"\",\"approach-retreat\",\"46\",\"484702\",\"0.0-46.0\",\"\",\"\",\"1-2\",\"4174\",\"37\",\"1\",\"Training\",\"Stims/Figures/128-J-10-3.bmp\",\"fafa:va\",\"Left\",\"37\",\"3\",\"11\",\"3A\",\"C1\",\"C\",\"43\"
\"\",\"\",\"approach-retreat\",\"47\",\"492159\",\"0.0-47.0\",\"\",\"\",\"1-2\",\"5923\",\"38\",\"1\",\"Training\",\"Stims/Figures/93-C-30-1.bmp\",\"za:sa:za\",\"Down\",\"38\",\"3\",\"12\",\"3A\",\"C2\",\"C\",\"44\"
\"\",\"\",\"approach-retreat\",\"48\",\"498558\",\"0.0-48.0\",\"\",\"\",\"1-2\",\"4866\",\"37\",\"1\",\"Training\",\"Stims/Figures/128-C-30-3.bmp\",\"za:sa:za\",\"Right\",\"37\",\"3\",\"13\",\"3A\",\"C2\",\"C\",\"45\"
\"\",\"\",\"approach-retreat\",\"49\",\"504607\",\"0.0-49.0\",\"\",\"\",\"1-2\",\"4514\",\"37\",\"1\",\"Training\",\"Stims/Figures/7-C-20-4.bmp\",\"za:sa:za\",\"Right\",\"37\",\"3\",\"14\",\"3A\",\"C2\",\"C\",\"46\"
\"\",\"\",\"approach-retreat\",\"50\",\"510240\",\"0.0-50.0\",\"\",\"\",\"1-2\",\"4100\",\"38\",\"1\",\"Training\",\"Stims/Figures/19-C-20-4.bmp\",\"za:sa:za\",\"Down\",\"38\",\"3\",\"15\",\"3A\",\"C2\",\"C\",\"47\"
\"\",\"\",\"approach-retreat\",\"51\",\"517623\",\"0.0-51.0\",\"\",\"\",\"1-2\",\"5848\",\"37\",\"1\",\"Training\",\"Stims/Figures/27-J-0-1.bmp\",\"fafa:va\",\"Left\",\"37\",\"3\",\"16\",\"3A\",\"C1\",\"C\",\"48\"
\"\",\"\",\"approach-retreat\",\"52\",\"524256\",\"0.0-52.0\",\"\",\"\",\"1-2\",\"5098\",\"37\",\"1\",\"Training\",\"Stims/Figures/84-C-20-2.bmp\",\"za:sa:za\",\"Right\",\"37\",\"4\",\"1\",\"3A\",\"C2\",\"C\",\"49\"
\"\",\"\",\"approach-retreat\",\"53\",\"531048\",\"0.0-53.0\",\"\",\"\",\"1-2\",\"5255\",\"39\",\"1\",\"Training\",\"Stims/Figures/7-C-20-4.bmp\",\"za:sa:za\",\"Left\",\"39\",\"4\",\"2\",\"3A\",\"C2\",\"C\",\"50\"
\"\",\"\",\"approach-retreat\",\"54\",\"536794\",\"0.0-54.0\",\"\",\"\",\"1-2\",\"4209\",\"38\",\"1\",\"Training\",\"Stims/Figures/93-J-0-1.bmp\",\"fafa:va\",\"Up\",\"38\",\"4\",\"3\",\"3A\",\"C1\",\"C\",\"51\"
\"\",\"\",\"approach-retreat\",\"55\",\"545145\",\"0.0-55.0\",\"\",\"\",\"1-2\",\"6815\",\"39\",\"1\",\"Training\",\"Stims/Figures/7-J-10-4.bmp\",\"fafa:va\",\"Right\",\"39\",\"4\",\"4\",\"3A\",\"C1\",\"C\",\"52\"
\"\",\"\",\"approach-retreat\",\"56\",\"551125\",\"0.0-56.0\",\"\",\"\",\"1-2\",\"4443\",\"37\",\"1\",\"Training\",\"Stims/Figures/128-J-10-3.bmp\",\"fafa:va\",\"Left\",\"37\",\"4\",\"5\",\"3A\",\"C1\",\"C\",\"53\"
\"\",\"\",\"approach-retreat\",\"57\",\"557206\",\"0.0-57.0\",\"\",\"\",\"1-2\",\"4549\",\"38\",\"1\",\"Training\",\"Stims/Figures/84-J-0-2.bmp\",\"fafa:va\",\"Up\",\"38\",\"4\",\"6\",\"3A\",\"C1\",\"C\",\"54\"
\"\",\"\",\"approach-retreat\",\"58\",\"563927\",\"0.0-58.0\",\"\",\"\",\"1-2\",\"5185\",\"38\",\"1\",\"Training\",\"Stims/Figures/27-C-30-1.bmp\",\"za:sa:za\",\"Down\",\"38\",\"4\",\"7\",\"3A\",\"C2\",\"C\",\"55\"
\"\",\"\",\"approach-retreat\",\"59\",\"570705\",\"0.0-59.0\",\"\",\"\",\"1-2\",\"5242\",\"39\",\"1\",\"Training\",\"Stims/Figures/44-C-30-3.bmp\",\"za:sa:za\",\"Left\",\"39\",\"4\",\"8\",\"3A\",\"C2\",\"C\",\"56\"
\"\",\"\",\"approach-retreat\",\"60\",\"588625\",\"0.0-60.0\",\"\",\"\",\"1-2\",\"16385\",\"38\",\"1\",\"Training\",\"Stims/Figures/128-C-30-3.bmp\",\"za:sa:za\",\"Down\",\"38\",\"4\",\"9\",\"3A\",\"C2\",\"C\",\"57\"
\"\",\"\",\"approach-retreat\",\"61\",\"597726\",\"0.0-61.0\",\"\",\"\",\"1-2\",\"7567\",\"37\",\"1\",\"Training\",\"Stims/Figures/118-C-20-2.bmp\",\"za:sa:za\",\"Right\",\"37\",\"4\",\"10\",\"3A\",\"C2\",\"C\",\"58\"
\"\",\"\",\"approach-retreat\",\"62\",\"603309\",\"0.0-62.0\",\"\",\"\",\"1-2\",\"4046\",\"39\",\"1\",\"Training\",\"Stims/Figures/19-C-20-4.bmp\",\"za:sa:za\",\"Left\",\"39\",\"4\",\"11\",\"3A\",\"C2\",\"C\",\"59\"
\"\",\"\",\"approach-retreat\",\"63\",\"609036\",\"0.0-63.0\",\"\",\"\",\"1-2\",\"4191\",\"40\",\"1\",\"Training\",\"Stims/Figures/44-J-10-3.bmp\",\"fafa:va\",\"Down\",\"40\",\"4\",\"12\",\"3A\",\"C1\",\"C\",\"60\"
\"\",\"\",\"approach-retreat\",\"64\",\"616247\",\"0.0-64.0\",\"\",\"\",\"1-2\",\"5677\",\"38\",\"1\",\"Training\",\"Stims/Figures/27-J-0-1.bmp\",\"fafa:va\",\"Up\",\"38\",\"4\",\"13\",\"3A\",\"C1\",\"C\",\"61\"
\"\",\"\",\"approach-retreat\",\"65\",\"622428\",\"0.0-65.0\",\"\",\"\",\"1-2\",\"4645\",\"39\",\"1\",\"Training\",\"Stims/Figures/118-J-0-2.bmp\",\"fafa:va\",\"Right\",\"39\",\"4\",\"14\",\"3A\",\"C1\",\"C\",\"62\"
\"\",\"\",\"approach-retreat\",\"66\",\"628201\",\"0.0-66.0\",\"\",\"\",\"1-2\",\"4237\",\"40\",\"1\",\"Training\",\"Stims/Figures/19-J-10-4.bmp\",\"fafa:va\",\"Down\",\"40\",\"4\",\"15\",\"3A\",\"C1\",\"C\",\"63\"
\"\",\"\",\"approach-retreat\",\"67\",\"634250\",\"0.0-67.0\",\"\",\"\",\"1-2\",\"4516\",\"40\",\"1\",\"Training\",\"Stims/Figures/93-C-30-1.bmp\",\"za:sa:za\",\"Up\",\"40\",\"4\",\"16\",\"3A\",\"C2\",\"C\",\"64\"
\"\",\"\",\"approach-retreat\",\"68\",\"640483\",\"0.0-68.0\",\"\",\"\",\"1-2\",\"4697\",\"37\",\"0\",\"Training\",\"Stims/Figures/19-J-10-4.bmp\",\"fafa:va\",\"Right\",\"39\",\"5\",\"1\",\"3A\",\"C1\",\"C\",\"65\"
\"\",\"\",\"approach-retreat\",\"69\",\"646165\",\"0.0-69.0\",\"\",\"\",\"1-2\",\"4175\",\"37\",\"1\",\"Training\",\"Stims/Figures/84-C-20-2.bmp\",\"za:sa:za\",\"Right\",\"37\",\"5\",\"2\",\"3A\",\"C2\",\"C\",\"66\"
\"\",\"\",\"approach-retreat\",\"70\",\"651989\",\"0.0-70.0\",\"\",\"\",\"1-2\",\"4290\",\"38\",\"1\",\"Training\",\"Stims/Figures/27-C-30-1.bmp\",\"za:sa:za\",\"Down\",\"38\",\"5\",\"3\",\"3A\",\"C2\",\"C\",\"67\"
\"\",\"\",\"approach-retreat\",\"71\",\"659939\",\"0.0-71.0\",\"\",\"\",\"1-2\",\"6415\",\"37\",\"1\",\"Training\",\"Stims/Figures/44-C-30-3.bmp\",\"za:sa:za\",\"Right\",\"37\",\"5\",\"4\",\"3A\",\"C2\",\"C\",\"68\"
\"\",\"\",\"approach-retreat\",\"72\",\"665660\",\"0.0-72.0\",\"\",\"\",\"1-2\",\"4185\",\"39\",\"1\",\"Training\",\"Stims/Figures/93-C-30-1.bmp\",\"za:sa:za\",\"Left\",\"39\",\"5\",\"5\",\"3A\",\"C2\",\"C\",\"69\"
\"\",\"\",\"approach-retreat\",\"73\",\"671218\",\"0.0-73.0\",\"\",\"\",\"1-2\",\"4025\",\"38\",\"1\",\"Training\",\"Stims/Figures/118-C-20-2.bmp\",\"za:sa:za\",\"Down\",\"38\",\"5\",\"6\",\"3A\",\"C2\",\"C\",\"70\"
\"\",\"\",\"approach-retreat\",\"74\",\"676862\",\"0.0-74.0\",\"\",\"\",\"1-2\",\"4111\",\"38\",\"1\",\"Training\",\"Stims/Figures/44-J-10-3.bmp\",\"fafa:va\",\"Up\",\"38\",\"5\",\"7\",\"3A\",\"C1\",\"C\",\"71\"
\"\",\"\",\"approach-retreat\",\"75\",\"682648\",\"0.0-75.0\",\"\",\"\",\"1-2\",\"4254\",\"37\",\"1\",\"Training\",\"Stims/Figures/7-J-10-4.bmp\",\"fafa:va\",\"Left\",\"37\",\"5\",\"8\",\"3A\",\"C1\",\"C\",\"72\"
\"\",\"\",\"approach-retreat\",\"76\",\"689984\",\"0.0-76.0\",\"\",\"\",\"1-2\",\"5802\",\"37\",\"1\",\"Training\",\"Stims/Figures/128-C-30-3.bmp\",\"za:sa:za\",\"Right\",\"37\",\"5\",\"9\",\"3A\",\"C2\",\"C\",\"73\"
\"\",\"\",\"approach-retreat\",\"77\",\"695502\",\"0.0-77.0\",\"\",\"\",\"1-2\",\"3982\",\"38\",\"1\",\"Training\",\"Stims/Figures/27-J-0-1.bmp\",\"fafa:va\",\"Up\",\"38\",\"5\",\"10\",\"3A\",\"C1\",\"C\",\"74\"
\"\",\"\",\"approach-retreat\",\"78\",\"701303\",\"0.0-78.0\",\"\",\"\",\"1-2\",\"4266\",\"38\",\"0\",\"Training\",\"Stims/Figures/19-C-20-4.bmp\",\"za:sa:za\",\"Up\",\"40\",\"5\",\"11\",\"3A\",\"C2\",\"C\",\"75\"
\"\",\"\",\"approach-retreat\",\"79\",\"707020\",\"0.0-79.0\",\"\",\"\",\"1-2\",\"4209\",\"37\",\"1\",\"Training\",\"Stims/Figures/93-J-0-1.bmp\",\"fafa:va\",\"Left\",\"37\",\"5\",\"12\",\"3A\",\"C1\",\"C\",\"76\"
\"\",\"\",\"approach-retreat\",\"80\",\"717033\",\"0.0-80.0\",\"\",\"\",\"1-2\",\"8475\",\"40\",\"1\",\"Training\",\"Stims/Figures/7-C-20-4.bmp\",\"za:sa:za\",\"Up\",\"40\",\"5\",\"13\",\"3A\",\"C2\",\"C\",\"77\"
\"\",\"\",\"approach-retreat\",\"81\",\"723471\",\"0.0-81.0\",\"\",\"\",\"1-2\",\"4902\",\"37\",\"1\",\"Training\",\"Stims/Figures/128-J-10-3.bmp\",\"fafa:va\",\"Left\",\"37\",\"5\",\"14\",\"3A\",\"C1\",\"C\",\"78\"
\"\",\"\",\"approach-retreat\",\"82\",\"729801\",\"0.0-82.0\",\"\",\"\",\"1-2\",\"4796\",\"40\",\"1\",\"Training\",\"Stims/Figures/118-J-0-2.bmp\",\"fafa:va\",\"Down\",\"40\",\"5\",\"15\",\"3A\",\"C1\",\"C\",\"79\"
\"\",\"\",\"approach-retreat\",\"83\",\"736164\",\"0.0-83.0\",\"\",\"\",\"1-2\",\"4828\",\"40\",\"1\",\"Training\",\"Stims/Figures/84-J-0-2.bmp\",\"fafa:va\",\"Down\",\"40\",\"5\",\"16\",\"3A\",\"C1\",\"C\",\"80\"
\"\",\"\",\"approach-retreat\",\"84\",\"742377\",\"0.0-84.0\",\"\",\"\",\"1-2\",\"4679\",\"38\",\"1\",\"Training\",\"Stims/Figures/84-J-0-2.bmp\",\"fafa:va\",\"Up\",\"38\",\"6\",\"1\",\"3A\",\"C1\",\"C\",\"81\"
\"\",\"\",\"approach-retreat\",\"85\",\"748445\",\"0.0-85.0\",\"\",\"\",\"1-2\",\"4531\",\"40\",\"1\",\"Training\",\"Stims/Figures/7-C-20-4.bmp\",\"za:sa:za\",\"Up\",\"40\",\"6\",\"2\",\"3A\",\"C2\",\"C\",\"82\"
\"\",\"\",\"approach-retreat\",\"86\",\"754695\",\"0.0-86.0\",\"\",\"\",\"1-2\",\"4719\",\"37\",\"1\",\"Training\",\"Stims/Figures/27-C-30-1.bmp\",\"za:sa:za\",\"Right\",\"37\",\"6\",\"3\",\"3A\",\"C2\",\"C\",\"83\"
\"\",\"\",\"approach-retreat\",\"87\",\"760677\",\"0.0-87.0\",\"\",\"\",\"1-2\",\"4448\",\"38\",\"1\",\"Training\",\"Stims/Figures/84-C-20-2.bmp\",\"za:sa:za\",\"Down\",\"38\",\"6\",\"4\",\"3A\",\"C2\",\"C\",\"84\"
\"\",\"\",\"approach-retreat\",\"88\",\"766279\",\"0.0-88.0\",\"\",\"\",\"1-2\",\"4069\",\"40\",\"1\",\"Training\",\"Stims/Figures/128-J-10-3.bmp\",\"fafa:va\",\"Down\",\"40\",\"6\",\"5\",\"3A\",\"C1\",\"C\",\"85\"
\"\",\"\",\"approach-retreat\",\"89\",\"773926\",\"0.0-89.0\",\"\",\"\",\"1-2\",\"6110\",\"39\",\"0\",\"Training\",\"Stims/Figures/128-C-30-3.bmp\",\"za:sa:za\",\"Right\",\"37\",\"6\",\"6\",\"3A\",\"C2\",\"C\",\"86\"
\"\",\"\",\"approach-retreat\",\"90\",\"781294\",\"0.0-90.0\",\"\",\"\",\"1-2\",\"5859\",\"39\",\"1\",\"Training\",\"Stims/Figures/44-C-30-3.bmp\",\"za:sa:za\",\"Left\",\"39\",\"6\",\"7\",\"3A\",\"C2\",\"C\",\"87\"
\"\",\"\",\"approach-retreat\",\"91\",\"786923\",\"0.0-91.0\",\"\",\"\",\"1-2\",\"4091\",\"37\",\"1\",\"Training\",\"Stims/Figures/19-C-20-4.bmp\",\"za:sa:za\",\"Right\",\"37\",\"6\",\"8\",\"3A\",\"C2\",\"C\",\"88\"
\"\",\"\",\"approach-retreat\",\"92\",\"793775\",\"0.0-92.0\",\"\",\"\",\"1-2\",\"5316\",\"40\",\"1\",\"Training\",\"Stims/Figures/118-J-0-2.bmp\",\"fafa:va\",\"Down\",\"40\",\"6\",\"9\",\"3A\",\"C1\",\"C\",\"89\"
\"\",\"\",\"approach-retreat\",\"93\",\"801038\",\"0.0-93.0\",\"\",\"\",\"1-2\",\"5726\",\"39\",\"1\",\"Training\",\"Stims/Figures/93-C-30-1.bmp\",\"za:sa:za\",\"Left\",\"39\",\"6\",\"10\",\"3A\",\"C2\",\"C\",\"90\"
\"\",\"\",\"approach-retreat\",\"94\",\"807246\",\"0.0-94.0\",\"\",\"\",\"1-2\",\"4673\",\"39\",\"1\",\"Training\",\"Stims/Figures/7-J-10-4.bmp\",\"fafa:va\",\"Right\",\"39\",\"6\",\"11\",\"3A\",\"C1\",\"C\",\"91\"
\"\",\"\",\"approach-retreat\",\"95\",\"814994\",\"0.0-95.0\",\"\",\"\",\"1-2\",\"6213\",\"38\",\"1\",\"Training\",\"Stims/Figures/44-J-10-3.bmp\",\"fafa:va\",\"Up\",\"38\",\"6\",\"12\",\"3A\",\"C1\",\"C\",\"92\"
\"\",\"\",\"approach-retreat\",\"96\",\"822532\",\"0.0-96.0\",\"\",\"\",\"1-2\",\"6004\",\"40\",\"1\",\"Training\",\"Stims/Figures/118-C-20-2.bmp\",\"za:sa:za\",\"Up\",\"40\",\"6\",\"13\",\"3A\",\"C2\",\"C\",\"93\"
\"\",\"\",\"approach-retreat\",\"97\",\"828354\",\"0.0-97.0\",\"\",\"\",\"1-2\",\"4288\",\"40\",\"1\",\"Training\",\"Stims/Figures/93-J-0-1.bmp\",\"fafa:va\",\"Down\",\"40\",\"6\",\"14\",\"3A\",\"C1\",\"C\",\"94\"
\"\",\"\",\"approach-retreat\",\"98\",\"835325\",\"0.0-98.0\",\"\",\"\",\"1-2\",\"5435\",\"37\",\"1\",\"Training\",\"Stims/Figures/19-J-10-4.bmp\",\"fafa:va\",\"Left\",\"37\",\"6\",\"15\",\"3A\",\"C1\",\"C\",\"95\"
\"\",\"\",\"approach-retreat\",\"99\",\"841708\",\"0.0-99.0\",\"\",\"\",\"1-2\",\"4846\",\"37\",\"1\",\"Training\",\"Stims/Figures/27-J-0-1.bmp\",\"fafa:va\",\"Left\",\"37\",\"6\",\"16\",\"3A\",\"C1\",\"C\",\"96\"
\"\",\"\",\"approach-retreat\",\"100\",\"847658\",\"0.0-100.0\",\"\",\"\",\"1-2\",\"4418\",\"37\",\"1\",\"Training\",\"Stims/Figures/19-C-20-4.bmp\",\"za:sa:za\",\"Right\",\"37\",\"7\",\"1\",\"3A\",\"C2\",\"C\",\"97\"
\"\",\"\",\"approach-retreat\",\"101\",\"854768\",\"0.0-101.0\",\"\",\"\",\"1-2\",\"5574\",\"39\",\"1\",\"Training\",\"Stims/Figures/128-C-30-3.bmp\",\"za:sa:za\",\"Left\",\"39\",\"7\",\"2\",\"3A\",\"C2\",\"C\",\"98\"
\"\",\"\",\"approach-retreat\",\"102\",\"860364\",\"0.0-102.0\",\"\",\"\",\"1-2\",\"4064\",\"39\",\"1\",\"Training\",\"Stims/Figures/118-J-0-2.bmp\",\"fafa:va\",\"Right\",\"39\",\"7\",\"3\",\"3A\",\"C1\",\"C\",\"99\"
\"\",\"\",\"approach-retreat\",\"103\",\"867136\",\"0.0-103.0\",\"\",\"\",\"1-2\",\"5236\",\"37\",\"1\",\"Training\",\"Stims/Figures/93-J-0-1.bmp\",\"fafa:va\",\"Left\",\"37\",\"7\",\"4\",\"3A\",\"C1\",\"C\",\"100\"
\"\",\"\",\"approach-retreat\",\"104\",\"872879\",\"0.0-104.0\",\"\",\"\",\"1-2\",\"4208\",\"38\",\"1\",\"Training\",\"Stims/Figures/84-J-0-2.bmp\",\"fafa:va\",\"Up\",\"38\",\"7\",\"5\",\"3A\",\"C1\",\"C\",\"101\"
\"\",\"\",\"approach-retreat\",\"105\",\"878582\",\"0.0-105.0\",\"\",\"\",\"1-2\",\"4169\",\"38\",\"1\",\"Training\",\"Stims/Figures/93-C-30-1.bmp\",\"za:sa:za\",\"Down\",\"38\",\"7\",\"6\",\"3A\",\"C2\",\"C\",\"102\"
\"\",\"\",\"approach-retreat\",\"106\",\"884782\",\"0.0-106.0\",\"\",\"\",\"1-2\",\"4663\",\"40\",\"1\",\"Training\",\"Stims/Figures/118-C-20-2.bmp\",\"za:sa:za\",\"Up\",\"40\",\"7\",\"7\",\"3A\",\"C2\",\"C\",\"103\"
\"\",\"\",\"approach-retreat\",\"107\",\"890502\",\"0.0-107.0\",\"\",\"\",\"1-2\",\"4184\",\"40\",\"1\",\"Training\",\"Stims/Figures/19-J-10-4.bmp\",\"fafa:va\",\"Down\",\"40\",\"7\",\"8\",\"3A\",\"C1\",\"C\",\"104\"
\"\",\"\",\"approach-retreat\",\"108\",\"896209\",\"0.0-108.0\",\"\",\"\",\"1-2\",\"4170\",\"39\",\"1\",\"Training\",\"Stims/Figures/44-J-10-3.bmp\",\"fafa:va\",\"Right\",\"39\",\"7\",\"9\",\"3A\",\"C1\",\"C\",\"105\"
\"\",\"\",\"approach-retreat\",\"109\",\"901775\",\"0.0-109.0\",\"\",\"\",\"1-2\",\"4032\",\"40\",\"1\",\"Training\",\"Stims/Figures/27-J-0-1.bmp\",\"fafa:va\",\"Down\",\"40\",\"7\",\"10\",\"3A\",\"C1\",\"C\",\"106\"
\"\",\"\",\"approach-retreat\",\"110\",\"907333\",\"0.0-110.0\",\"\",\"\",\"1-2\",\"4026\",\"39\",\"1\",\"Training\",\"Stims/Figures/7-C-20-4.bmp\",\"za:sa:za\",\"Left\",\"39\",\"7\",\"11\",\"3A\",\"C2\",\"C\",\"107\"
\"\",\"\",\"approach-retreat\",\"111\",\"912942\",\"0.0-111.0\",\"\",\"\",\"1-2\",\"4075\",\"40\",\"1\",\"Training\",\"Stims/Figures/128-J-10-3.bmp\",\"fafa:va\",\"Down\",\"40\",\"7\",\"12\",\"3A\",\"C1\",\"C\",\"108\"
\"\",\"\",\"approach-retreat\",\"112\",\"918620\",\"0.0-112.0\",\"\",\"\",\"1-2\",\"4141\",\"38\",\"1\",\"Training\",\"Stims/Figures/7-J-10-4.bmp\",\"fafa:va\",\"Up\",\"38\",\"7\",\"13\",\"3A\",\"C1\",\"C\",\"109\"
\"\",\"\",\"approach-retreat\",\"113\",\"924245\",\"0.0-113.0\",\"\",\"\",\"1-2\",\"4091\",\"39\",\"1\",\"Training\",\"Stims/Figures/44-C-30-3.bmp\",\"za:sa:za\",\"Left\",\"39\",\"7\",\"14\",\"3A\",\"C2\",\"C\",\"110\"
\"\",\"\",\"approach-retreat\",\"114\",\"930028\",\"0.0-114.0\",\"\",\"\",\"1-2\",\"4247\",\"40\",\"1\",\"Training\",\"Stims/Figures/27-C-30-1.bmp\",\"za:sa:za\",\"Up\",\"40\",\"7\",\"15\",\"3A\",\"C2\",\"C\",\"111\"
\"\",\"\",\"approach-retreat\",\"115\",\"935565\",\"0.0-115.0\",\"\",\"\",\"1-2\",\"4002\",\"37\",\"1\",\"Training\",\"Stims/Figures/84-C-20-2.bmp\",\"za:sa:za\",\"Right\",\"37\",\"7\",\"16\",\"3A\",\"C2\",\"C\",\"112\"
\"\",\"\",\"approach-retreat\",\"116\",\"941358\",\"0.0-116.0\",\"\",\"\",\"1-2\",\"4256\",\"39\",\"0\",\"Training\",\"Stims/Figures/118-C-20-2.bmp\",\"za:sa:za\",\"Right\",\"37\",\"8\",\"1\",\"3A\",\"C2\",\"C\",\"113\"
\"\",\"\",\"approach-retreat\",\"117\",\"946994\",\"0.0-117.0\",\"\",\"\",\"1-2\",\"4127\",\"37\",\"1\",\"Training\",\"Stims/Figures/84-C-20-2.bmp\",\"za:sa:za\",\"Right\",\"37\",\"8\",\"2\",\"3A\",\"C2\",\"C\",\"114\"
\"\",\"\",\"approach-retreat\",\"118\",\"953295\",\"0.0-118.0\",\"\",\"\",\"1-2\",\"4765\",\"37\",\"1\",\"Training\",\"Stims/Figures/118-J-0-2.bmp\",\"fafa:va\",\"Left\",\"37\",\"8\",\"3\",\"3A\",\"C1\",\"C\",\"115\"
\"\",\"\",\"approach-retreat\",\"119\",\"959169\",\"0.0-119.0\",\"\",\"\",\"1-2\",\"4338\",\"37\",\"1\",\"Training\",\"Stims/Figures/44-C-30-3.bmp\",\"za:sa:za\",\"Right\",\"37\",\"8\",\"4\",\"3A\",\"C2\",\"C\",\"116\"
\"\",\"\",\"approach-retreat\",\"120\",\"965503\",\"0.0-120.0\",\"\",\"\",\"1-2\",\"4797\",\"38\",\"1\",\"Training\",\"Stims/Figures/93-C-30-1.bmp\",\"za:sa:za\",\"Down\",\"38\",\"8\",\"5\",\"3A\",\"C2\",\"C\",\"117\"
\"\",\"\",\"approach-retreat\",\"121\",\"971038\",\"0.0-121.0\",\"\",\"\",\"1-2\",\"4002\",\"40\",\"1\",\"Training\",\"Stims/Figures/19-C-20-4.bmp\",\"za:sa:za\",\"Up\",\"40\",\"8\",\"6\",\"3A\",\"C2\",\"C\",\"118\"
\"\",\"\",\"approach-retreat\",\"122\",\"976604\",\"0.0-122.0\",\"\",\"\",\"1-2\",\"4031\",\"39\",\"1\",\"Training\",\"Stims/Figures/128-C-30-3.bmp\",\"za:sa:za\",\"Left\",\"39\",\"8\",\"7\",\"3A\",\"C2\",\"C\",\"119\"
\"\",\"\",\"approach-retreat\",\"123\",\"982665\",\"0.0-123.0\",\"\",\"\",\"1-2\",\"4525\",\"40\",\"1\",\"Training\",\"Stims/Figures/19-J-10-4.bmp\",\"fafa:va\",\"Down\",\"40\",\"8\",\"8\",\"3A\",\"C1\",\"C\",\"120\"
\"\",\"\",\"approach-retreat\",\"124\",\"988379\",\"0.0-124.0\",\"\",\"\",\"1-2\",\"4179\",\"40\",\"1\",\"Training\",\"Stims/Figures/93-J-0-1.bmp\",\"fafa:va\",\"Down\",\"40\",\"8\",\"9\",\"3A\",\"C1\",\"C\",\"121\"
\"\",\"\",\"approach-retreat\",\"125\",\"994355\",\"0.0-125.0\",\"\",\"\",\"1-2\",\"4440\",\"40\",\"1\",\"Training\",\"Stims/Figures/7-J-10-4.bmp\",\"fafa:va\",\"Down\",\"40\",\"8\",\"10\",\"3A\",\"C1\",\"C\",\"122\"
\"\",\"\",\"approach-retreat\",\"126\",\"999928\",\"0.0-126.0\",\"\",\"\",\"1-2\",\"4038\",\"37\",\"1\",\"Training\",\"Stims/Figures/7-C-20-4.bmp\",\"za:sa:za\",\"Right\",\"37\",\"8\",\"11\",\"3A\",\"C2\",\"C\",\"123\"
\"\",\"\",\"approach-retreat\",\"127\",\"1005442\",\"0.0-127.0\",\"\",\"\",\"1-2\",\"3981\",\"37\",\"1\",\"Training\",\"Stims/Figures/27-J-0-1.bmp\",\"fafa:va\",\"Left\",\"37\",\"8\",\"12\",\"3A\",\"C1\",\"C\",\"124\"
\"\",\"\",\"approach-retreat\",\"128\",\"1013993\",\"0.0-128.0\",\"\",\"\",\"1-2\",\"7016\",\"38\",\"1\",\"Training\",\"Stims/Figures/128-J-10-3.bmp\",\"fafa:va\",\"Up\",\"38\",\"8\",\"13\",\"3A\",\"C1\",\"C\",\"125\"
\"\",\"\",\"approach-retreat\",\"129\",\"1019641\",\"0.0-129.0\",\"\",\"\",\"1-2\",\"4114\",\"39\",\"1\",\"Training\",\"Stims/Figures/27-C-30-1.bmp\",\"za:sa:za\",\"Left\",\"39\",\"8\",\"14\",\"3A\",\"C2\",\"C\",\"126\"
\"\",\"\",\"approach-retreat\",\"130\",\"1025251\",\"0.0-130.0\",\"\",\"\",\"1-2\",\"4075\",\"38\",\"1\",\"Training\",\"Stims/Figures/44-J-10-3.bmp\",\"fafa:va\",\"Up\",\"38\",\"8\",\"15\",\"3A\",\"C1\",\"C\",\"127\"
\"\",\"\",\"approach-retreat\",\"131\",\"1030847\",\"0.0-131.0\",\"\",\"\",\"1-2\",\"4064\",\"38\",\"1\",\"Training\",\"Stims/Figures/84-J-0-2.bmp\",\"fafa:va\",\"Up\",\"38\",\"8\",\"16\",\"3A\",\"C1\",\"C\",\"128\"
\"\",\"\",\"approach-retreat\",\"132\",\"1036425\",\"0.0-132.0\",\"\",\"\",\"1-2\",\"4043\",\"38\",\"1\",\"Training\",\"Stims/Figures/128-C-30-3.bmp\",\"za:sa:za\",\"Down\",\"38\",\"9\",\"1\",\"3A\",\"C2\",\"C\",\"129\"
\"\",\"\",\"approach-retreat\",\"133\",\"1042610\",\"0.0-133.0\",\"\",\"\",\"1-2\",\"4651\",\"38\",\"1\",\"Training\",\"Stims/Figures/44-J-10-3.bmp\",\"fafa:va\",\"Up\",\"38\",\"9\",\"2\",\"3A\",\"C1\",\"C\",\"130\"
\"\",\"\",\"approach-retreat\",\"134\",\"1048189\",\"0.0-134.0\",\"\",\"\",\"1-2\",\"4045\",\"38\",\"1\",\"Training\",\"Stims/Figures/19-J-10-4.bmp\",\"fafa:va\",\"Up\",\"38\",\"9\",\"3\",\"3A\",\"C1\",\"C\",\"131\"
\"\",\"\",\"approach-retreat\",\"135\",\"1054246\",\"0.0-135.0\",\"\",\"\",\"1-2\",\"4521\",\"40\",\"1\",\"Training\",\"Stims/Figures/118-C-20-2.bmp\",\"za:sa:za\",\"Up\",\"40\",\"9\",\"4\",\"3A\",\"C2\",\"C\",\"132\"
\"\",\"\",\"approach-retreat\",\"136\",\"1060074\",\"0.0-136.0\",\"\",\"\",\"1-2\",\"4294\",\"40\",\"1\",\"Training\",\"Stims/Figures/84-J-0-2.bmp\",\"fafa:va\",\"Down\",\"40\",\"9\",\"5\",\"3A\",\"C1\",\"C\",\"133\"
\"\",\"\",\"approach-retreat\",\"137\",\"1067222\",\"0.0-137.0\",\"\",\"\",\"1-2\",\"5613\",\"40\",\"0\",\"Training\",\"Stims/Figures/84-C-20-2.bmp\",\"za:sa:za\",\"Down\",\"38\",\"9\",\"6\",\"3A\",\"C2\",\"C\",\"134\"
\"\",\"\",\"approach-retreat\",\"138\",\"1073264\",\"0.0-138.0\",\"\",\"\",\"1-2\",\"4535\",\"37\",\"1\",\"Training\",\"Stims/Figures/128-J-10-3.bmp\",\"fafa:va\",\"Left\",\"37\",\"9\",\"7\",\"3A\",\"C1\",\"C\",\"135\"
\"\",\"\",\"approach-retreat\",\"139\",\"1079335\",\"0.0-139.0\",\"\",\"\",\"1-2\",\"4535\",\"39\",\"1\",\"Training\",\"Stims/Figures/93-J-0-1.bmp\",\"fafa:va\",\"Right\",\"39\",\"9\",\"8\",\"3A\",\"C1\",\"C\",\"136\"
\"\",\"\",\"approach-retreat\",\"140\",\"1085093\",\"0.0-140.0\",\"\",\"\",\"1-2\",\"4224\",\"37\",\"1\",\"Training\",\"Stims/Figures/27-C-30-1.bmp\",\"za:sa:za\",\"Right\",\"37\",\"9\",\"9\",\"3A\",\"C2\",\"C\",\"137\"
\"\",\"\",\"approach-retreat\",\"141\",\"1091511\",\"0.0-141.0\",\"\",\"\",\"1-2\",\"4883\",\"39\",\"1\",\"Training\",\"Stims/Figures/44-C-30-3.bmp\",\"za:sa:za\",\"Left\",\"39\",\"9\",\"10\",\"3A\",\"C2\",\"C\",\"138\"
\"\",\"\",\"approach-retreat\",\"142\",\"1097654\",\"0.0-142.0\",\"\",\"\",\"1-2\",\"4605\",\"39\",\"1\",\"Training\",\"Stims/Figures/7-C-20-4.bmp\",\"za:sa:za\",\"Left\",\"39\",\"9\",\"11\",\"3A\",\"C2\",\"C\",\"139\"
\"\",\"\",\"approach-retreat\",\"143\",\"1103287\",\"0.0-143.0\",\"\",\"\",\"1-2\",\"4097\",\"38\",\"1\",\"Training\",\"Stims/Figures/118-J-0-2.bmp\",\"fafa:va\",\"Up\",\"38\",\"9\",\"12\",\"3A\",\"C1\",\"C\",\"140\"
\"\",\"\",\"approach-retreat\",\"144\",\"1108860\",\"0.0-144.0\",\"\",\"\",\"1-2\",\"4038\",\"39\",\"1\",\"Training\",\"Stims/Figures/27-J-0-1.bmp\",\"fafa:va\",\"Right\",\"39\",\"9\",\"13\",\"3A\",\"C1\",\"C\",\"141\"
\"\",\"\",\"approach-retreat\",\"145\",\"1115011\",\"0.0-145.0\",\"\",\"\",\"1-2\",\"4618\",\"37\",\"1\",\"Training\",\"Stims/Figures/19-C-20-4.bmp\",\"za:sa:za\",\"Right\",\"37\",\"9\",\"14\",\"3A\",\"C2\",\"C\",\"142\"
\"\",\"\",\"approach-retreat\",\"146\",\"1121119\",\"0.0-146.0\",\"\",\"\",\"1-2\",\"4574\",\"38\",\"1\",\"Training\",\"Stims/Figures/93-C-30-1.bmp\",\"za:sa:za\",\"Down\",\"38\",\"9\",\"15\",\"3A\",\"C2\",\"C\",\"143\"
\"\",\"\",\"approach-retreat\",\"147\",\"1126766\",\"0.0-147.0\",\"\",\"\",\"1-2\",\"4111\",\"37\",\"1\",\"Training\",\"Stims/Figures/7-J-10-4.bmp\",\"fafa:va\",\"Left\",\"37\",\"9\",\"16\",\"3A\",\"C1\",\"C\",\"144\"
\"95519\",\"\",\"instructions\",\"148\",\"1222285\",\"0.0-148.0\",\"[{\"\"page_index\"\":0,\"\"viewing_time\"\":95518}]\",\"\",\"\",\"\",\"\",\"\",\"\",\"\",\"\",\"\",\"\",\"\",\"\",\"\",\"\",\"\",\"\"
\"\",\"\",\"approach-retreat\",\"149\",\"1231645\",\"0.0-149.0\",\"\",\"\",\"1-2\",\"7855\",\"40\",\"1\",\"Testing\",\"Stims/Figures/84-J-0-2.bmp\",\"fafa:va\",\"Down\",\"40\",\"1\",\"1\",\"3A\",\"C1\",\"C\",\"1\"
\"\",\"\",\"approach-retreat\",\"150\",\"1238113\",\"0.0-150.0\",\"\",\"\",\"1-2\",\"4961\",\"38\",\"0\",\"Testing\",\"Stims/Figures/19-J-10-4.bmp\",\"fafa:va\",\"Down\",\"40\",\"1\",\"2\",\"3A\",\"C1\",\"C\",\"2\"
\"\",\"\",\"approach-retreat\",\"151\",\"1244431\",\"0.0-151.0\",\"\",\"\",\"1-2\",\"4814\",\"38\",\"0\",\"Testing\",\"Stims/Figures/44-J-10-3.bmp\",\"fafa:va\",\"Down\",\"40\",\"1\",\"3\",\"3A\",\"C1\",\"C\",\"3\"
\"\",\"\",\"approach-retreat\",\"152\",\"1249819\",\"0.0-152.0\",\"\",\"\",\"1-2\",\"3882\",\"38\",\"1\",\"Testing\",\"Stims/Figures/57-J-0-1.bmp\",\"fafa:va\",\"Up\",\"38\",\"1\",\"4\",\"3A\",\"C1\",\"C\",\"4\"
\"\",\"\",\"approach-retreat\",\"153\",\"1255631\",\"0.0-153.0\",\"\",\"\",\"1-2\",\"4304\",\"39\",\"1\",\"Testing\",\"Stims/Figures/93-C-30-1.bmp\",\"za:sa:za\",\"Left\",\"39\",\"1\",\"5\",\"3A\",\"C2\",\"C\",\"5\"
\"\",\"\",\"approach-retreat\",\"154\",\"1262106\",\"0.0-154.0\",\"\",\"\",\"1-2\",\"4967\",\"39\",\"1\",\"Testing\",\"Stims/Figures/7-J-10-4.bmp\",\"fafa:va\",\"Right\",\"39\",\"1\",\"6\",\"3A\",\"C1\",\"C\",\"6\"
\"\",\"\",\"approach-retreat\",\"155\",\"1267659\",\"0.0-155.0\",\"\",\"\",\"1-2\",\"4046\",\"37\",\"1\",\"Testing\",\"Stims/Figures/19-C-20-4.bmp\",\"za:sa:za\",\"Right\",\"37\",\"1\",\"7\",\"3A\",\"C2\",\"C\",\"7\"
\"\",\"\",\"approach-retreat\",\"156\",\"1273437\",\"0.0-156.0\",\"\",\"\",\"1-2\",\"4272\",\"40\",\"1\",\"Testing\",\"Stims/Figures/57-C-30-1.bmp\",\"za:sa:za\",\"Up\",\"40\",\"1\",\"8\",\"3A\",\"C2\",\"C\",\"8\"
\"\",\"\",\"approach-retreat\",\"157\",\"1279443\",\"0.0-157.0\",\"\",\"\",\"1-2\",\"4499\",\"39\",\"0\",\"Testing\",\"Stims/Figures/84-C-20-2.bmp\",\"za:sa:za\",\"Right\",\"37\",\"1\",\"9\",\"3A\",\"C2\",\"C\",\"9\"
\"\",\"\",\"approach-retreat\",\"158\",\"1286652\",\"0.0-158.0\",\"\",\"\",\"1-2\",\"5703\",\"40\",\"1\",\"Testing\",\"Stims/Figures/139-J-0-2.bmp\",\"fafa:va\",\"Down\",\"40\",\"1\",\"10\",\"3A\",\"C1\",\"C\",\"10\"
\"\",\"\",\"approach-retreat\",\"159\",\"1292269\",\"0.0-159.0\",\"\",\"\",\"1-2\",\"4114\",\"39\",\"0\",\"Testing\",\"Stims/Figures/93-J-0-1.bmp\",\"fafa:va\",\"Left\",\"37\",\"1\",\"11\",\"3A\",\"C1\",\"C\",\"11\"
\"\",\"\",\"approach-retreat\",\"160\",\"1298031\",\"0.0-160.0\",\"\",\"\",\"1-2\",\"4258\",\"37\",\"1\",\"Testing\",\"Stims/Figures/27-J-0-1.bmp\",\"fafa:va\",\"Left\",\"37\",\"1\",\"12\",\"3A\",\"C1\",\"C\",\"12\"
\"\",\"\",\"approach-retreat\",\"161\",\"1304118\",\"0.0-161.0\",\"\",\"\",\"1-2\",\"4580\",\"40\",\"1\",\"Testing\",\"Stims/Figures/118-J-0-2.bmp\",\"fafa:va\",\"Down\",\"40\",\"1\",\"13\",\"3A\",\"C1\",\"C\",\"13\"
\"\",\"\",\"approach-retreat\",\"162\",\"1311184\",\"0.0-162.0\",\"\",\"\",\"1-2\",\"5560\",\"39\",\"0\",\"Testing\",\"Stims/Figures/118-C-20-2.bmp\",\"za:sa:za\",\"Right\",\"37\",\"1\",\"14\",\"3A\",\"C2\",\"C\",\"14\"
\"\",\"\",\"approach-retreat\",\"163\",\"1317293\",\"0.0-163.0\",\"\",\"\",\"1-2\",\"4602\",\"39\",\"1\",\"Testing\",\"Stims/Figures/44-C-30-3.bmp\",\"za:sa:za\",\"Left\",\"39\",\"1\",\"15\",\"3A\",\"C2\",\"C\",\"15\"
\"\",\"\",\"approach-retreat\",\"164\",\"1323007\",\"0.0-164.0\",\"\",\"\",\"1-2\",\"4206\",\"40\",\"1\",\"Testing\",\"Stims/Figures/128-C-30-3.bmp\",\"za:sa:za\",\"Up\",\"40\",\"1\",\"16\",\"3A\",\"C2\",\"C\",\"16\"
\"\",\"\",\"approach-retreat\",\"165\",\"1328748\",\"0.0-165.0\",\"\",\"\",\"1-2\",\"4236\",\"38\",\"1\",\"Testing\",\"Stims/Figures/128-J-10-3.bmp\",\"fafa:va\",\"Up\",\"38\",\"1\",\"17\",\"3A\",\"C1\",\"C\",\"17\"
\"\",\"\",\"approach-retreat\",\"166\",\"1335766\",\"0.0-166.0\",\"\",\"\",\"1-2\",\"5512\",\"39\",\"0\",\"Testing\",\"Stims/Figures/74-C-20-4.bmp\",\"za:sa:za\",\"Right\",\"37\",\"1\",\"18\",\"3A\",\"C2\",\"C\",\"18\"
\"\",\"\",\"approach-retreat\",\"167\",\"1343262\",\"0.0-167.0\",\"\",\"\",\"1-2\",\"5990\",\"40\",\"1\",\"Testing\",\"Stims/Figures/139-C-20-2.bmp\",\"za:sa:za\",\"Up\",\"40\",\"1\",\"19\",\"3A\",\"C2\",\"C\",\"19\"
\"\",\"\",\"approach-retreat\",\"168\",\"1348843\",\"0.0-168.0\",\"\",\"\",\"1-2\",\"4076\",\"37\",\"1\",\"Testing\",\"Stims/Figures/27-C-30-1.bmp\",\"za:sa:za\",\"Right\",\"37\",\"1\",\"20\",\"3A\",\"C2\",\"C\",\"20\"
\"\",\"\",\"approach-retreat\",\"169\",\"1356911\",\"0.0-169.0\",\"\",\"\",\"1-2\",\"6561\",\"40\",\"0\",\"Testing\",\"Stims/Figures/111-J-10-3.bmp\",\"fafa:va\",\"Up\",\"38\",\"1\",\"21\",\"3A\",\"C1\",\"C\",\"21\"
\"\",\"\",\"approach-retreat\",\"170\",\"1365419\",\"0.0-170.0\",\"\",\"\",\"1-2\",\"7003\",\"39\",\"1\",\"Testing\",\"Stims/Figures/111-C-30-3.bmp\",\"za:sa:za\",\"Left\",\"39\",\"1\",\"22\",\"3A\",\"C2\",\"C\",\"22\"
\"\",\"\",\"approach-retreat\",\"171\",\"1371079\",\"0.0-171.0\",\"\",\"\",\"1-2\",\"4151\",\"39\",\"0\",\"Testing\",\"Stims/Figures/74-J-10-4.bmp\",\"fafa:va\",\"Left\",\"37\",\"1\",\"23\",\"3A\",\"C1\",\"C\",\"23\"
\"\",\"\",\"approach-retreat\",\"172\",\"1376963\",\"0.0-172.0\",\"\",\"\",\"1-2\",\"4379\",\"38\",\"1\",\"Testing\",\"Stims/Figures/7-C-20-4.bmp\",\"za:sa:za\",\"Down\",\"38\",\"1\",\"24\",\"3A\",\"C2\",\"C\",\"24\"
\"\",\"\",\"approach-retreat\",\"173\",\"1382601\",\"0.0-173.0\",\"\",\"\",\"1-2\",\"4131\",\"37\",\"1\",\"Testing\",\"Stims/Figures/93-C-30-1.bmp\",\"za:sa:za\",\"Right\",\"37\",\"2\",\"1\",\"3A\",\"C2\",\"C\",\"25\"
\"\",\"\",\"approach-retreat\",\"174\",\"1388924\",\"0.0-174.0\",\"\",\"\",\"1-2\",\"4818\",\"38\",\"1\",\"Testing\",\"Stims/Figures/93-J-0-1.bmp\",\"fafa:va\",\"Up\",\"38\",\"2\",\"2\",\"3A\",\"C1\",\"C\",\"26\"
\"\",\"\",\"approach-retreat\",\"175\",\"1395132\",\"0.0-175.0\",\"\",\"\",\"1-2\",\"4704\",\"40\",\"1\",\"Testing\",\"Stims/Figures/19-C-20-4.bmp\",\"za:sa:za\",\"Up\",\"40\",\"2\",\"3\",\"3A\",\"C2\",\"C\",\"27\"
\"\",\"\",\"approach-retreat\",\"176\",\"1400814\",\"0.0-176.0\",\"\",\"\",\"1-2\",\"4179\",\"37\",\"0\",\"Testing\",\"Stims/Figures/74-J-10-4.bmp\",\"fafa:va\",\"Right\",\"39\",\"2\",\"4\",\"3A\",\"C1\",\"C\",\"28\"
\"\",\"\",\"approach-retreat\",\"177\",\"1406407\",\"0.0-177.0\",\"\",\"\",\"1-2\",\"4088\",\"38\",\"1\",\"Testing\",\"Stims/Figures/7-J-10-4.bmp\",\"fafa:va\",\"Up\",\"38\",\"2\",\"5\",\"3A\",\"C1\",\"C\",\"29\"
\"\",\"\",\"approach-retreat\",\"178\",\"1412961\",\"0.0-178.0\",\"\",\"\",\"1-2\",\"5047\",\"39\",\"1\",\"Testing\",\"Stims/Figures/84-J-0-2.bmp\",\"fafa:va\",\"Right\",\"39\",\"2\",\"6\",\"3A\",\"C1\",\"C\",\"30\"
\"\",\"\",\"approach-retreat\",\"179\",\"1418900\",\"0.0-179.0\",\"\",\"\",\"1-2\",\"4432\",\"39\",\"1\",\"Testing\",\"Stims/Figures/111-C-30-3.bmp\",\"za:sa:za\",\"Left\",\"39\",\"2\",\"7\",\"3A\",\"C2\",\"C\",\"31\"
\"\",\"\",\"approach-retreat\",\"180\",\"1425010\",\"0.0-180.0\",\"\",\"\",\"1-2\",\"4605\",\"38\",\"1\",\"Testing\",\"Stims/Figures/74-C-20-4.bmp\",\"za:sa:za\",\"Down\",\"38\",\"2\",\"8\",\"3A\",\"C2\",\"C\",\"32\"
\"\",\"\",\"approach-retreat\",\"181\",\"1430871\",\"0.0-181.0\",\"\",\"\",\"1-2\",\"4357\",\"39\",\"0\",\"Testing\",\"Stims/Figures/44-J-10-3.bmp\",\"fafa:va\",\"Left\",\"37\",\"2\",\"9\",\"3A\",\"C1\",\"C\",\"33\"
\"\",\"\",\"approach-retreat\",\"182\",\"1442843\",\"0.0-182.0\",\"\",\"\",\"1-2\",\"10463\",\"38\",\"1\",\"Testing\",\"Stims/Figures/7-C-20-4.bmp\",\"za:sa:za\",\"Down\",\"38\",\"2\",\"10\",\"3A\",\"C2\",\"C\",\"34\"
\"\",\"\",\"approach-retreat\",\"183\",\"1449249\",\"0.0-183.0\",\"\",\"\",\"1-2\",\"4900\",\"39\",\"1\",\"Testing\",\"Stims/Figures/27-J-0-1.bmp\",\"fafa:va\",\"Right\",\"39\",\"2\",\"11\",\"3A\",\"C1\",\"C\",\"35\"
\"\",\"\",\"approach-retreat\",\"184\",\"1455053\",\"0.0-184.0\",\"\",\"\",\"1-2\",\"4298\",\"40\",\"1\",\"Testing\",\"Stims/Figures/27-C-30-1.bmp\",\"za:sa:za\",\"Up\",\"40\",\"2\",\"12\",\"3A\",\"C2\",\"C\",\"36\"
\"\",\"\",\"approach-retreat\",\"185\",\"1462286\",\"0.0-185.0\",\"\",\"\",\"1-2\",\"5725\",\"37\",\"0\",\"Testing\",\"Stims/Figures/84-C-20-2.bmp\",\"za:sa:za\",\"Left\",\"39\",\"2\",\"13\",\"3A\",\"C2\",\"C\",\"37\"
\"\",\"\",\"approach-retreat\",\"186\",\"1468934\",\"0.0-186.0\",\"\",\"\",\"1-2\",\"5143\",\"38\",\"1\",\"Testing\",\"Stims/Figures/139-J-0-2.bmp\",\"fafa:va\",\"Up\",\"38\",\"2\",\"14\",\"3A\",\"C1\",\"C\",\"38\"
\"\",\"\",\"approach-retreat\",\"187\",\"1474991\",\"0.0-187.0\",\"\",\"\",\"1-2\",\"4550\",\"40\",\"0\",\"Testing\",\"Stims/Figures/19-J-10-4.bmp\",\"fafa:va\",\"Up\",\"38\",\"2\",\"15\",\"3A\",\"C1\",\"C\",\"39\"
\"\",\"\",\"approach-retreat\",\"188\",\"1481114\",\"0.0-188.0\",\"\",\"\",\"1-2\",\"4615\",\"38\",\"1\",\"Testing\",\"Stims/Figures/128-C-30-3.bmp\",\"za:sa:za\",\"Down\",\"38\",\"2\",\"16\",\"3A\",\"C2\",\"C\",\"40\"
\"\",\"\",\"approach-retreat\",\"189\",\"1486950\",\"0.0-189.0\",\"\",\"\",\"1-2\",\"4332\",\"38\",\"1\",\"Testing\",\"Stims/Figures/118-C-20-2.bmp\",\"za:sa:za\",\"Down\",\"38\",\"2\",\"17\",\"3A\",\"C2\",\"C\",\"41\"
\"\",\"\",\"approach-retreat\",\"190\",\"1493378\",\"0.0-190.0\",\"\",\"\",\"1-2\",\"4923\",\"38\",\"1\",\"Testing\",\"Stims/Figures/57-C-30-1.bmp\",\"za:sa:za\",\"Down\",\"38\",\"2\",\"18\",\"3A\",\"C2\",\"C\",\"42\"
\"\",\"\",\"approach-retreat\",\"191\",\"1499467\",\"0.0-191.0\",\"\",\"\",\"1-2\",\"4581\",\"39\",\"0\",\"Testing\",\"Stims/Figures/111-J-10-3.bmp\",\"fafa:va\",\"Left\",\"37\",\"2\",\"19\",\"3A\",\"C1\",\"C\",\"43\"
\"\",\"\",\"approach-retreat\",\"192\",\"1505442\",\"0.0-192.0\",\"\",\"\",\"1-2\",\"4468\",\"37\",\"1\",\"Testing\",\"Stims/Figures/139-C-20-2.bmp\",\"za:sa:za\",\"Right\",\"37\",\"2\",\"20\",\"3A\",\"C2\",\"C\",\"44\"
\"\",\"\",\"approach-retreat\",\"193\",\"1511770\",\"0.0-193.0\",\"\",\"\",\"1-2\",\"4822\",\"39\",\"1\",\"Testing\",\"Stims/Figures/118-J-0-2.bmp\",\"fafa:va\",\"Right\",\"39\",\"2\",\"21\",\"3A\",\"C1\",\"C\",\"45\"
\"\",\"\",\"approach-retreat\",\"194\",\"1518997\",\"0.0-194.0\",\"\",\"\",\"1-2\",\"5720\",\"39\",\"1\",\"Testing\",\"Stims/Figures/44-C-30-3.bmp\",\"za:sa:za\",\"Left\",\"39\",\"2\",\"22\",\"3A\",\"C2\",\"C\",\"46\"
\"\",\"\",\"approach-retreat\",\"195\",\"1525159\",\"0.0-195.0\",\"\",\"\",\"1-2\",\"4657\",\"39\",\"0\",\"Testing\",\"Stims/Figures/128-J-10-3.bmp\",\"fafa:va\",\"Left\",\"37\",\"2\",\"23\",\"3A\",\"C1\",\"C\",\"47\"
\"\",\"\",\"approach-retreat\",\"196\",\"1531102\",\"0.0-196.0\",\"\",\"\",\"1-2\",\"4440\",\"40\",\"1\",\"Testing\",\"Stims/Figures/57-J-0-1.bmp\",\"fafa:va\",\"Down\",\"40\",\"2\",\"24\",\"3A\",\"C1\",\"C\",\"48\"
\"\",\"\",\"approach-retreat\",\"197\",\"1536986\",\"0.0-197.0\",\"\",\"\",\"1-2\",\"4375\",\"38\",\"1\",\"Testing\",\"Stims/Figures/93-C-30-1.bmp\",\"za:sa:za\",\"Down\",\"38\",\"3\",\"1\",\"3A\",\"C2\",\"C\",\"49\"
\"\",\"\",\"approach-retreat\",\"198\",\"1544217\",\"0.0-198.0\",\"\",\"\",\"1-2\",\"5722\",\"39\",\"1\",\"Testing\",\"Stims/Figures/27-J-0-1.bmp\",\"fafa:va\",\"Right\",\"39\",\"3\",\"2\",\"3A\",\"C1\",\"C\",\"50\"
\"\",\"\",\"approach-retreat\",\"199\",\"1551213\",\"0.0-199.0\",\"\",\"\",\"1-2\",\"5491\",\"39\",\"1\",\"Testing\",\"Stims/Figures/118-J-0-2.bmp\",\"fafa:va\",\"Right\",\"39\",\"3\",\"3\",\"3A\",\"C1\",\"C\",\"51\"
\"\",\"\",\"approach-retreat\",\"200\",\"1557838\",\"0.0-200.0\",\"\",\"\",\"1-2\",\"5120\",\"39\",\"1\",\"Testing\",\"Stims/Figures/74-C-20-4.bmp\",\"za:sa:za\",\"Left\",\"39\",\"3\",\"4\",\"3A\",\"C2\",\"C\",\"52\"
\"\",\"\",\"approach-retreat\",\"201\",\"1563632\",\"0.0-201.0\",\"\",\"\",\"1-2\",\"4286\",\"39\",\"1\",\"Testing\",\"Stims/Figures/57-C-30-1.bmp\",\"za:sa:za\",\"Left\",\"39\",\"3\",\"5\",\"3A\",\"C2\",\"C\",\"53\"
\"\",\"\",\"approach-retreat\",\"202\",\"1569760\",\"0.0-202.0\",\"\",\"\",\"1-2\",\"4621\",\"37\",\"1\",\"Testing\",\"Stims/Figures/118-C-20-2.bmp\",\"za:sa:za\",\"Right\",\"37\",\"3\",\"6\",\"3A\",\"C2\",\"C\",\"54\"
\"\",\"\",\"approach-retreat\",\"203\",\"1575751\",\"0.0-203.0\",\"\",\"\",\"1-2\",\"4484\",\"40\",\"0\",\"Testing\",\"Stims/Figures/111-J-10-3.bmp\",\"fafa:va\",\"Up\",\"38\",\"3\",\"7\",\"3A\",\"C1\",\"C\",\"55\"
\"\",\"\",\"approach-retreat\",\"204\",\"1582915\",\"0.0-204.0\",\"\",\"\",\"1-2\",\"5661\",\"40\",\"1\",\"Testing\",\"Stims/Figures/27-C-30-1.bmp\",\"za:sa:za\",\"Up\",\"40\",\"3\",\"8\",\"3A\",\"C2\",\"C\",\"56\"
\"\",\"\",\"approach-retreat\",\"205\",\"1589606\",\"0.0-205.0\",\"\",\"\",\"1-2\",\"5186\",\"39\",\"1\",\"Testing\",\"Stims/Figures/84-C-20-2.bmp\",\"za:sa:za\",\"Left\",\"39\",\"3\",\"9\",\"3A\",\"C2\",\"C\",\"57\"
\"\",\"\",\"approach-retreat\",\"206\",\"1596079\",\"0.0-206.0\",\"\",\"\",\"1-2\",\"4965\",\"38\",\"1\",\"Testing\",\"Stims/Figures/44-C-30-3.bmp\",\"za:sa:za\",\"Down\",\"38\",\"3\",\"10\",\"3A\",\"C2\",\"C\",\"58\"
\"\",\"\",\"approach-retreat\",\"207\",\"1602593\",\"0.0-207.0\",\"\",\"\",\"1-2\",\"5006\",\"40\",\"0\",\"Testing\",\"Stims/Figures/19-J-10-4.bmp\",\"fafa:va\",\"Up\",\"38\",\"3\",\"11\",\"3A\",\"C1\",\"C\",\"59\"
\"\",\"\",\"approach-retreat\",\"208\",\"1609734\",\"0.0-208.0\",\"\",\"\",\"1-2\",\"5637\",\"40\",\"1\",\"Testing\",\"Stims/Figures/19-C-20-4.bmp\",\"za:sa:za\",\"Up\",\"40\",\"3\",\"12\",\"3A\",\"C2\",\"C\",\"60\"
\"\",\"\",\"approach-retreat\",\"209\",\"1615704\",\"0.0-209.0\",\"\",\"\",\"1-2\",\"4464\",\"37\",\"1\",\"Testing\",\"Stims/Figures/111-C-30-3.bmp\",\"za:sa:za\",\"Right\",\"37\",\"3\",\"13\",\"3A\",\"C2\",\"C\",\"61\"
\"\",\"\",\"approach-retreat\",\"210\",\"1621856\",\"0.0-210.0\",\"\",\"\",\"1-2\",\"4645\",\"38\",\"0\",\"Testing\",\"Stims/Figures/74-J-10-4.bmp\",\"fafa:va\",\"Down\",\"40\",\"3\",\"14\",\"3A\",\"C1\",\"C\",\"62\"
\"\",\"\",\"approach-retreat\",\"211\",\"1627744\",\"0.0-211.0\",\"\",\"\",\"1-2\",\"4380\",\"40\",\"1\",\"Testing\",\"Stims/Figures/7-C-20-4.bmp\",\"za:sa:za\",\"Up\",\"40\",\"3\",\"15\",\"3A\",\"C2\",\"C\",\"63\"
\"\",\"\",\"approach-retreat\",\"212\",\"1633836\",\"0.0-212.0\",\"\",\"\",\"1-2\",\"4584\",\"38\",\"0\",\"Testing\",\"Stims/Figures/128-J-10-3.bmp\",\"fafa:va\",\"Down\",\"40\",\"3\",\"16\",\"3A\",\"C1\",\"C\",\"64\"
\"\",\"\",\"approach-retreat\",\"213\",\"1639883\",\"0.0-213.0\",\"\",\"\",\"1-2\",\"4540\",\"38\",\"1\",\"Testing\",\"Stims/Figures/139-J-0-2.bmp\",\"fafa:va\",\"Up\",\"38\",\"3\",\"17\",\"3A\",\"C1\",\"C\",\"65\"
\"\",\"\",\"approach-retreat\",\"214\",\"1645641\",\"0.0-214.0\",\"\",\"\",\"1-2\",\"4252\",\"37\",\"1\",\"Testing\",\"Stims/Figures/139-C-20-2.bmp\",\"za:sa:za\",\"Right\",\"37\",\"3\",\"18\",\"3A\",\"C2\",\"C\",\"66\"
\"\",\"\",\"approach-retreat\",\"215\",\"1651199\",\"0.0-215.0\",\"\",\"\",\"1-2\",\"4051\",\"38\",\"0\",\"Testing\",\"Stims/Figures/44-J-10-3.bmp\",\"fafa:va\",\"Down\",\"40\",\"3\",\"19\",\"3A\",\"C1\",\"C\",\"67\"
\"\",\"\",\"approach-retreat\",\"216\",\"1656997\",\"0.0-216.0\",\"\",\"\",\"1-2\",\"4293\",\"40\",\"1\",\"Testing\",\"Stims/Figures/7-J-10-4.bmp\",\"fafa:va\",\"Down\",\"40\",\"3\",\"20\",\"3A\",\"C1\",\"C\",\"68\"
\"\",\"\",\"approach-retreat\",\"217\",\"1662764\",\"0.0-217.0\",\"\",\"\",\"1-2\",\"4259\",\"37\",\"1\",\"Testing\",\"Stims/Figures/93-J-0-1.bmp\",\"fafa:va\",\"Left\",\"37\",\"3\",\"21\",\"3A\",\"C1\",\"C\",\"69\"
\"\",\"\",\"approach-retreat\",\"218\",\"1669074\",\"0.0-218.0\",\"\",\"\",\"1-2\",\"4804\",\"39\",\"1\",\"Testing\",\"Stims/Figures/57-J-0-1.bmp\",\"fafa:va\",\"Right\",\"39\",\"3\",\"22\",\"3A\",\"C1\",\"C\",\"70\"
\"\",\"\",\"approach-retreat\",\"219\",\"1674658\",\"0.0-219.0\",\"\",\"\",\"1-2\",\"4078\",\"39\",\"1\",\"Testing\",\"Stims/Figures/128-C-30-3.bmp\",\"za:sa:za\",\"Left\",\"39\",\"3\",\"23\",\"3A\",\"C2\",\"C\",\"71\"
\"\",\"\",\"approach-retreat\",\"220\",\"1680287\",\"0.0-220.0\",\"\",\"\",\"1-2\",\"4122\",\"37\",\"1\",\"Testing\",\"Stims/Figures/84-J-0-2.bmp\",\"fafa:va\",\"Left\",\"37\",\"3\",\"24\",\"3A\",\"C1\",\"C\",\"72\"
\"\",\"\",\"approach-retreat\",\"221\",\"1686979\",\"0.0-221.0\",\"\",\"\",\"1-2\",\"5186\",\"39\",\"1\",\"Testing\",\"Stims/Figures/118-J-0-2.bmp\",\"fafa:va\",\"Right\",\"39\",\"4\",\"1\",\"3A\",\"C1\",\"C\",\"73\"
\"\",\"\",\"approach-retreat\",\"222\",\"1692642\",\"0.0-222.0\",\"\",\"\",\"1-2\",\"4157\",\"37\",\"1\",\"Testing\",\"Stims/Figures/27-C-30-1.bmp\",\"za:sa:za\",\"Right\",\"37\",\"4\",\"2\",\"3A\",\"C2\",\"C\",\"74\"
\"\",\"\",\"approach-retreat\",\"223\",\"1698580\",\"0.0-223.0\",\"\",\"\",\"1-2\",\"4432\",\"40\",\"0\",\"Testing\",\"Stims/Figures/44-J-10-3.bmp\",\"fafa:va\",\"Up\",\"38\",\"4\",\"3\",\"3A\",\"C1\",\"C\",\"75\"
\"\",\"\",\"approach-retreat\",\"224\",\"1704311\",\"0.0-224.0\",\"\",\"\",\"1-2\",\"4228\",\"38\",\"1\",\"Testing\",\"Stims/Figures/139-C-20-2.bmp\",\"za:sa:za\",\"Down\",\"38\",\"4\",\"4\",\"3A\",\"C2\",\"C\",\"76\"
\"\",\"\",\"approach-retreat\",\"225\",\"1710210\",\"0.0-225.0\",\"\",\"\",\"1-2\",\"4390\",\"37\",\"1\",\"Testing\",\"Stims/Figures/111-C-30-3.bmp\",\"za:sa:za\",\"Right\",\"37\",\"4\",\"5\",\"3A\",\"C2\",\"C\",\"77\"
\"\",\"\",\"approach-retreat\",\"226\",\"1715815\",\"0.0-226.0\",\"\",\"\",\"1-2\",\"4098\",\"38\",\"0\",\"Testing\",\"Stims/Figures/19-J-10-4.bmp\",\"fafa:va\",\"Down\",\"40\",\"4\",\"6\",\"3A\",\"C1\",\"C\",\"78\"
\"\",\"\",\"approach-retreat\",\"227\",\"1721491\",\"0.0-227.0\",\"\",\"\",\"1-2\",\"4170\",\"39\",\"1\",\"Testing\",\"Stims/Figures/128-C-30-3.bmp\",\"za:sa:za\",\"Left\",\"39\",\"4\",\"7\",\"3A\",\"C2\",\"C\",\"79\"
\"\",\"\",\"approach-retreat\",\"228\",\"1728176\",\"0.0-228.0\",\"\",\"\",\"1-2\",\"5180\",\"38\",\"1\",\"Testing\",\"Stims/Figures/74-C-20-4.bmp\",\"za:sa:za\",\"Down\",\"38\",\"4\",\"8\",\"3A\",\"C2\",\"C\",\"80\"
\"\",\"\",\"approach-retreat\",\"229\",\"1736235\",\"0.0-229.0\",\"\",\"\",\"1-2\",\"6556\",\"37\",\"0\",\"Testing\",\"Stims/Figures/74-J-10-4.bmp\",\"fafa:va\",\"Right\",\"39\",\"4\",\"9\",\"3A\",\"C1\",\"C\",\"81\"
\"\",\"\",\"approach-retreat\",\"230\",\"1743833\",\"0.0-230.0\",\"\",\"\",\"1-2\",\"6092\",\"38\",\"1\",\"Testing\",\"Stims/Figures/27-J-0-1.bmp\",\"fafa:va\",\"Up\",\"38\",\"4\",\"10\",\"3A\",\"C1\",\"C\",\"82\"
\"\",\"\",\"approach-retreat\",\"231\",\"1750171\",\"0.0-231.0\",\"\",\"\",\"1-2\",\"4831\",\"38\",\"1\",\"Testing\",\"Stims/Figures/139-J-0-2.bmp\",\"fafa:va\",\"Up\",\"38\",\"4\",\"11\",\"3A\",\"C1\",\"C\",\"83\"
\"\",\"\",\"approach-retreat\",\"232\",\"1756768\",\"0.0-232.0\",\"\",\"\",\"1-2\",\"5090\",\"37\",\"1\",\"Testing\",\"Stims/Figures/7-J-10-4.bmp\",\"fafa:va\",\"Left\",\"37\",\"4\",\"12\",\"3A\",\"C1\",\"C\",\"84\"
\"\",\"\",\"approach-retreat\",\"233\",\"1762438\",\"0.0-233.0\",\"\",\"\",\"1-2\",\"4165\",\"39\",\"1\",\"Testing\",\"Stims/Figures/44-C-30-3.bmp\",\"za:sa:za\",\"Left\",\"39\",\"4\",\"13\",\"3A\",\"C2\",\"C\",\"85\"
\"\",\"\",\"approach-retreat\",\"234\",\"1768405\",\"0.0-234.0\",\"\",\"\",\"1-2\",\"4461\",\"37\",\"1\",\"Testing\",\"Stims/Figures/118-C-20-2.bmp\",\"za:sa:za\",\"Right\",\"37\",\"4\",\"14\",\"3A\",\"C2\",\"C\",\"86\"
\"\",\"\",\"approach-retreat\",\"235\",\"1774045\",\"0.0-235.0\",\"\",\"\",\"1-2\",\"4136\",\"39\",\"1\",\"Testing\",\"Stims/Figures/84-C-20-2.bmp\",\"za:sa:za\",\"Left\",\"39\",\"4\",\"15\",\"3A\",\"C2\",\"C\",\"87\"
\"\",\"\",\"approach-retreat\",\"236\",\"1779902\",\"0.0-236.0\",\"\",\"\",\"1-2\",\"4350\",\"40\",\"0\",\"Testing\",\"Stims/Figures/57-J-0-1.bmp\",\"fafa:va\",\"Up\",\"38\",\"4\",\"16\",\"3A\",\"C1\",\"C\",\"88\"
\"\",\"\",\"approach-retreat\",\"237\",\"1786113\",\"0.0-237.0\",\"\",\"\",\"1-2\",\"4708\",\"39\",\"1\",\"Testing\",\"Stims/Figures/7-C-20-4.bmp\",\"za:sa:za\",\"Left\",\"39\",\"4\",\"17\",\"3A\",\"C2\",\"C\",\"89\"
\"\",\"\",\"approach-retreat\",\"238\",\"1793447\",\"0.0-238.0\",\"\",\"\",\"1-2\",\"5831\",\"39\",\"1\",\"Testing\",\"Stims/Figures/84-J-0-2.bmp\",\"fafa:va\",\"Right\",\"39\",\"4\",\"18\",\"3A\",\"C1\",\"C\",\"90\"
\"\",\"\",\"approach-retreat\",\"239\",\"1799565\",\"0.0-239.0\",\"\",\"\",\"1-2\",\"4614\",\"38\",\"1\",\"Testing\",\"Stims/Figures/19-C-20-4.bmp\",\"za:sa:za\",\"Down\",\"38\",\"4\",\"19\",\"3A\",\"C2\",\"C\",\"91\"
\"\",\"\",\"approach-retreat\",\"240\",\"1806029\",\"0.0-240.0\",\"\",\"\",\"1-2\",\"4958\",\"39\",\"1\",\"Testing\",\"Stims/Figures/57-C-30-1.bmp\",\"za:sa:za\",\"Left\",\"39\",\"4\",\"20\",\"3A\",\"C2\",\"C\",\"92\"
\"\",\"\",\"approach-retreat\",\"241\",\"1812036\",\"0.0-241.0\",\"\",\"\",\"1-2\",\"4499\",\"40\",\"0\",\"Testing\",\"Stims/Figures/111-J-10-3.bmp\",\"fafa:va\",\"Up\",\"38\",\"4\",\"21\",\"3A\",\"C1\",\"C\",\"93\"
\"\",\"\",\"approach-retreat\",\"242\",\"1818330\",\"0.0-242.0\",\"\",\"\",\"1-2\",\"4786\",\"40\",\"1\",\"Testing\",\"Stims/Figures/93-J-0-1.bmp\",\"fafa:va\",\"Down\",\"40\",\"4\",\"22\",\"3A\",\"C1\",\"C\",\"94\"
\"\",\"\",\"approach-retreat\",\"243\",\"1824550\",\"0.0-243.0\",\"\",\"\",\"1-2\",\"4715\",\"38\",\"0\",\"Testing\",\"Stims/Figures/128-J-10-3.bmp\",\"fafa:va\",\"Down\",\"40\",\"4\",\"23\",\"3A\",\"C1\",\"C\",\"95\"
\"\",\"\",\"approach-retreat\",\"244\",\"1830317\",\"0.0-244.0\",\"\",\"\",\"1-2\",\"4261\",\"40\",\"1\",\"Testing\",\"Stims/Figures/93-C-30-1.bmp\",\"za:sa:za\",\"Up\",\"40\",\"4\",\"24\",\"3A\",\"C2\",\"C\",\"96\"
\"29204\",\"\",\"survey-text\",\"245\",\"1859524\",\"0.0-245.0\",\"\",\"{\"\"Q0\"\":\"\"PS160070\"\"}\",\"\",\"\",\"\",\"\",\"\",\"\",\"\",\"\",\"\",\"\",\"\",\"\",\"\",\"\",\"\"
