\"rt\",\"key_press\",\"trial_type\",\"trial_index\",\"time_elapsed\",\"internal_node_id\",\"view_history\",\"responses\",\"Id\",\"Rt\",\"ResKeyCode\",\"ResCorr\",\"TrialType2\",\"Image\",\"Label\",\"Location\",\"CorrectResponse\",\"Block\",\"BlockTrial\",\"Condition\",\"LabelType\",\"Subcondition\",\"trialNum\"
\"23915\",\"32\",\"text\",\"0\",\"23921\",\"0.0-0.0-0.0\",\"\",\"\",\"\",\"\",\"\",\"\",\"\",\"\",\"\",\"\",\"\",\"\",\"\",\"\",\"\",\"\",\"\"
\"40784\",\"\",\"instructions\",\"1\",\"64709\",\"0.0-1.0\",\"[{\"\"page_index\"\":0,\"\"viewing_time\"\":40780}]\",\"\",\"\",\"\",\"\",\"\",\"\",\"\",\"\",\"\",\"\",\"\",\"\",\"\",\"\",\"\",\"\"
\"12749\",\"\",\"survey-multi-choice\",\"2\",\"77533\",\"0.0-2.0\",\"\",\"{\"\"Q0\"\":\"\"Da\"\",\"\"Q1\"\":\"\"Da\"\",\"\"Q2\"\":\"\"Da\"\",\"\"Q3\"\":\"\"Da\"\",\"\"Q4\"\":\"\"Da\"\",\"\"Q5\"\":\"\"Da\"\"}\",\"\",\"\",\"\",\"\",\"\",\"\",\"\",\"\",\"\",\"\",\"\",\"\",\"\",\"\",\"\"
\"\",\"\",\"bio\",\"3\",\"86625\",\"0.0-3.0\",\"\",\"{\"\"age\"\":\"\"20\"\",\"\"gender\"\":\"\"f\"\",\"\"specify\"\":\"\"\"\"}\",\"\",\"\",\"\",\"\",\"\",\"\",\"\",\"\",\"\",\"\",\"\",\"\",\"\",\"\",\"\"
\"\",\"\",\"approach-retreat\",\"4\",\"91688\",\"0.0-4.0\",\"\",\"\",\"1-4\",\"3518\",\"39\",\"0\",\"Training\",\"Stims/Figures/87-J-10-4.bmp\",\"tapaka\",\"Left\",\"37\",\"1\",\"1\",\"1\",\"P\",\"C\",\"1\"
\"\",\"\",\"approach-retreat\",\"5\",\"102511\",\"0.0-5.0\",\"\",\"\",\"1-4\",\"9307\",\"40\",\"0\",\"Training\",\"Stims/Figures/74-J-10-4.bmp\",\"tapaka\",\"Up\",\"38\",\"1\",\"2\",\"1\",\"P\",\"C\",\"2\"
\"\",\"\",\"approach-retreat\",\"6\",\"112025\",\"0.0-6.0\",\"\",\"\",\"1-4\",\"8000\",\"39\",\"0\",\"Training\",\"Stims/Figures/71-C-30-1.bmp\",\"nala:na\",\"Right\",\"37\",\"1\",\"3\",\"1\",\"S\",\"C\",\"3\"
\"\",\"\",\"approach-retreat\",\"7\",\"117915\",\"0.0-7.0\",\"\",\"\",\"1-4\",\"4378\",\"37\",\"1\",\"Training\",\"Stims/Figures/100-C-30-3.bmp\",\"nala:na\",\"Right\",\"37\",\"1\",\"4\",\"1\",\"S\",\"C\",\"4\"
\"\",\"\",\"approach-retreat\",\"8\",\"123540\",\"0.0-8.0\",\"\",\"\",\"1-4\",\"4111\",\"40\",\"1\",\"Training\",\"Stims/Figures/74-C-20-4.bmp\",\"nala:na\",\"Up\",\"40\",\"1\",\"5\",\"1\",\"S\",\"C\",\"5\"
\"\",\"\",\"approach-retreat\",\"9\",\"129147\",\"0.0-9.0\",\"\",\"\",\"1-4\",\"4094\",\"37\",\"0\",\"Training\",\"Stims/Figures/144-J-10-3.bmp\",\"tapaka\",\"Right\",\"39\",\"1\",\"6\",\"1\",\"P\",\"C\",\"6\"
\"\",\"\",\"approach-retreat\",\"10\",\"134615\",\"0.0-10.0\",\"\",\"\",\"1-4\",\"3918\",\"40\",\"0\",\"Training\",\"Stims/Figures/84-J-0-2.bmp\",\"tapaka\",\"Up\",\"38\",\"1\",\"7\",\"1\",\"P\",\"C\",\"7\"
\"\",\"\",\"approach-retreat\",\"11\",\"140396\",\"0.0-11.0\",\"\",\"\",\"1-4\",\"4263\",\"38\",\"1\",\"Training\",\"Stims/Figures/87-C-20-4.bmp\",\"nala:na\",\"Down\",\"38\",\"1\",\"8\",\"1\",\"S\",\"C\",\"8\"
\"\",\"\",\"approach-retreat\",\"12\",\"145956\",\"0.0-12.0\",\"\",\"\",\"1-4\",\"4034\",\"38\",\"1\",\"Training\",\"Stims/Figures/84-C-20-2.bmp\",\"nala:na\",\"Down\",\"38\",\"1\",\"9\",\"1\",\"S\",\"C\",\"9\"
\"\",\"\",\"approach-retreat\",\"13\",\"151301\",\"0.0-13.0\",\"\",\"\",\"1-4\",\"3821\",\"38\",\"1\",\"Training\",\"Stims/Figures/94-C-20-2.bmp\",\"nala:na\",\"Down\",\"38\",\"1\",\"10\",\"1\",\"S\",\"C\",\"10\"
\"\",\"\",\"approach-retreat\",\"14\",\"157742\",\"0.0-14.0\",\"\",\"\",\"1-4\",\"4918\",\"37\",\"1\",\"Training\",\"Stims/Figures/71-J-0-1.bmp\",\"tapaka\",\"Left\",\"37\",\"1\",\"11\",\"1\",\"P\",\"C\",\"11\"
\"\",\"\",\"approach-retreat\",\"15\",\"164663\",\"0.0-15.0\",\"\",\"\",\"1-4\",\"5390\",\"39\",\"1\",\"Training\",\"Stims/Figures/27-C-30-1.bmp\",\"nala:na\",\"Left\",\"39\",\"1\",\"12\",\"1\",\"S\",\"C\",\"12\"
\"\",\"\",\"approach-retreat\",\"16\",\"170687\",\"0.0-16.0\",\"\",\"\",\"1-4\",\"4497\",\"40\",\"1\",\"Training\",\"Stims/Figures/100-J-10-3.bmp\",\"tapaka\",\"Down\",\"40\",\"1\",\"13\",\"1\",\"P\",\"C\",\"13\"
\"\",\"\",\"approach-retreat\",\"17\",\"176469\",\"0.0-17.0\",\"\",\"\",\"1-4\",\"4263\",\"37\",\"1\",\"Training\",\"Stims/Figures/144-C-30-3.bmp\",\"nala:na\",\"Right\",\"37\",\"1\",\"14\",\"1\",\"S\",\"C\",\"14\"
\"\",\"\",\"approach-retreat\",\"18\",\"182582\",\"0.0-18.0\",\"\",\"\",\"1-4\",\"4575\",\"37\",\"1\",\"Training\",\"Stims/Figures/94-J-0-2.bmp\",\"tapaka\",\"Left\",\"37\",\"1\",\"15\",\"1\",\"P\",\"C\",\"15\"
\"\",\"\",\"approach-retreat\",\"19\",\"188381\",\"0.0-19.0\",\"\",\"\",\"1-4\",\"4275\",\"38\",\"1\",\"Training\",\"Stims/Figures/27-J-0-1.bmp\",\"tapaka\",\"Up\",\"38\",\"1\",\"16\",\"1\",\"P\",\"C\",\"16\"
\"\",\"\",\"approach-retreat\",\"20\",\"194388\",\"0.0-20.0\",\"\",\"\",\"1-4\",\"4485\",\"40\",\"1\",\"Training\",\"Stims/Figures/100-J-10-3.bmp\",\"tapaka\",\"Down\",\"40\",\"2\",\"1\",\"1\",\"P\",\"C\",\"17\"
\"\",\"\",\"approach-retreat\",\"21\",\"200909\",\"0.0-21.0\",\"\",\"\",\"1-4\",\"4987\",\"39\",\"0\",\"Training\",\"Stims/Figures/74-C-20-4.bmp\",\"nala:na\",\"Right\",\"37\",\"2\",\"2\",\"1\",\"S\",\"C\",\"18\"
\"\",\"\",\"approach-retreat\",\"22\",\"208059\",\"0.0-22.0\",\"\",\"\",\"1-4\",\"5638\",\"40\",\"1\",\"Training\",\"Stims/Figures/71-J-0-1.bmp\",\"tapaka\",\"Down\",\"40\",\"2\",\"3\",\"1\",\"P\",\"C\",\"19\"
\"\",\"\",\"approach-retreat\",\"23\",\"214874\",\"0.0-23.0\",\"\",\"\",\"1-4\",\"5290\",\"40\",\"1\",\"Training\",\"Stims/Figures/100-C-30-3.bmp\",\"nala:na\",\"Up\",\"40\",\"2\",\"4\",\"1\",\"S\",\"C\",\"20\"
\"\",\"\",\"approach-retreat\",\"24\",\"221202\",\"0.0-24.0\",\"\",\"\",\"1-4\",\"4806\",\"38\",\"1\",\"Training\",\"Stims/Figures/94-J-0-2.bmp\",\"tapaka\",\"Up\",\"38\",\"2\",\"5\",\"1\",\"P\",\"C\",\"21\"
\"\",\"\",\"approach-retreat\",\"25\",\"227379\",\"0.0-25.0\",\"\",\"\",\"1-4\",\"4641\",\"39\",\"1\",\"Training\",\"Stims/Figures/27-C-30-1.bmp\",\"nala:na\",\"Left\",\"39\",\"2\",\"6\",\"1\",\"S\",\"C\",\"22\"
\"\",\"\",\"approach-retreat\",\"26\",\"233429\",\"0.0-26.0\",\"\",\"\",\"1-4\",\"4525\",\"37\",\"1\",\"Training\",\"Stims/Figures/84-C-20-2.bmp\",\"nala:na\",\"Right\",\"37\",\"2\",\"7\",\"1\",\"S\",\"C\",\"23\"
\"\",\"\",\"approach-retreat\",\"27\",\"239487\",\"0.0-27.0\",\"\",\"\",\"1-4\",\"4529\",\"40\",\"1\",\"Training\",\"Stims/Figures/87-J-10-4.bmp\",\"tapaka\",\"Down\",\"40\",\"2\",\"8\",\"1\",\"P\",\"C\",\"24\"
\"\",\"\",\"approach-retreat\",\"28\",\"245977\",\"0.0-28.0\",\"\",\"\",\"1-4\",\"4961\",\"37\",\"1\",\"Training\",\"Stims/Figures/84-J-0-2.bmp\",\"tapaka\",\"Left\",\"37\",\"2\",\"9\",\"1\",\"P\",\"C\",\"25\"
\"\",\"\",\"approach-retreat\",\"29\",\"253352\",\"0.0-29.0\",\"\",\"\",\"1-4\",\"5845\",\"40\",\"1\",\"Training\",\"Stims/Figures/87-C-20-4.bmp\",\"nala:na\",\"Up\",\"40\",\"2\",\"10\",\"1\",\"S\",\"C\",\"26\"
\"\",\"\",\"approach-retreat\",\"30\",\"259720\",\"0.0-30.0\",\"\",\"\",\"1-4\",\"4843\",\"39\",\"1\",\"Training\",\"Stims/Figures/74-J-10-4.bmp\",\"tapaka\",\"Right\",\"39\",\"2\",\"11\",\"1\",\"P\",\"C\",\"27\"
\"\",\"\",\"approach-retreat\",\"31\",\"265578\",\"0.0-31.0\",\"\",\"\",\"1-4\",\"4335\",\"38\",\"1\",\"Training\",\"Stims/Figures/27-J-0-1.bmp\",\"tapaka\",\"Up\",\"38\",\"2\",\"12\",\"1\",\"P\",\"C\",\"28\"
\"\",\"\",\"approach-retreat\",\"32\",\"271583\",\"0.0-32.0\",\"\",\"\",\"1-4\",\"4472\",\"37\",\"1\",\"Training\",\"Stims/Figures/144-J-10-3.bmp\",\"tapaka\",\"Left\",\"37\",\"2\",\"13\",\"1\",\"P\",\"C\",\"29\"
\"\",\"\",\"approach-retreat\",\"33\",\"277779\",\"0.0-33.0\",\"\",\"\",\"1-4\",\"4671\",\"38\",\"1\",\"Training\",\"Stims/Figures/144-C-30-3.bmp\",\"nala:na\",\"Down\",\"38\",\"2\",\"14\",\"1\",\"S\",\"C\",\"30\"
\"\",\"\",\"approach-retreat\",\"34\",\"283593\",\"0.0-34.0\",\"\",\"\",\"1-4\",\"4287\",\"37\",\"1\",\"Training\",\"Stims/Figures/71-C-30-1.bmp\",\"nala:na\",\"Right\",\"37\",\"2\",\"15\",\"1\",\"S\",\"C\",\"31\"
\"\",\"\",\"approach-retreat\",\"35\",\"291587\",\"0.0-35.0\",\"\",\"\",\"1-4\",\"6473\",\"39\",\"1\",\"Training\",\"Stims/Figures/94-C-20-2.bmp\",\"nala:na\",\"Left\",\"39\",\"2\",\"16\",\"1\",\"S\",\"C\",\"32\"
\"\",\"\",\"approach-retreat\",\"36\",\"297491\",\"0.0-36.0\",\"\",\"\",\"1-4\",\"4390\",\"38\",\"1\",\"Training\",\"Stims/Figures/144-C-30-3.bmp\",\"nala:na\",\"Down\",\"38\",\"3\",\"1\",\"1\",\"S\",\"C\",\"33\"
\"\",\"\",\"approach-retreat\",\"37\",\"303063\",\"0.0-37.0\",\"\",\"\",\"1-4\",\"4058\",\"37\",\"1\",\"Training\",\"Stims/Figures/27-J-0-1.bmp\",\"tapaka\",\"Left\",\"37\",\"3\",\"2\",\"1\",\"P\",\"C\",\"34\"
\"\",\"\",\"approach-retreat\",\"38\",\"308994\",\"0.0-38.0\",\"\",\"\",\"1-4\",\"4405\",\"37\",\"1\",\"Training\",\"Stims/Figures/84-C-20-2.bmp\",\"nala:na\",\"Right\",\"37\",\"3\",\"3\",\"1\",\"S\",\"C\",\"35\"
\"\",\"\",\"approach-retreat\",\"39\",\"314747\",\"0.0-39.0\",\"\",\"\",\"1-4\",\"4219\",\"37\",\"0\",\"Training\",\"Stims/Figures/71-J-0-1.bmp\",\"tapaka\",\"Right\",\"39\",\"3\",\"4\",\"1\",\"P\",\"C\",\"36\"
\"\",\"\",\"approach-retreat\",\"40\",\"320583\",\"0.0-40.0\",\"\",\"\",\"1-4\",\"4303\",\"38\",\"0\",\"Training\",\"Stims/Figures/27-C-30-1.bmp\",\"nala:na\",\"Up\",\"40\",\"3\",\"5\",\"1\",\"S\",\"C\",\"37\"
\"\",\"\",\"approach-retreat\",\"41\",\"326613\",\"0.0-41.0\",\"\",\"\",\"1-4\",\"4495\",\"40\",\"1\",\"Training\",\"Stims/Figures/94-C-20-2.bmp\",\"nala:na\",\"Up\",\"40\",\"3\",\"6\",\"1\",\"S\",\"C\",\"38\"
\"\",\"\",\"approach-retreat\",\"42\",\"332866\",\"0.0-42.0\",\"\",\"\",\"1-4\",\"4729\",\"40\",\"1\",\"Training\",\"Stims/Figures/84-J-0-2.bmp\",\"tapaka\",\"Down\",\"40\",\"3\",\"7\",\"1\",\"P\",\"C\",\"39\"
\"\",\"\",\"approach-retreat\",\"43\",\"340435\",\"0.0-43.0\",\"\",\"\",\"1-4\",\"6043\",\"39\",\"1\",\"Training\",\"Stims/Figures/100-J-10-3.bmp\",\"tapaka\",\"Right\",\"39\",\"3\",\"8\",\"1\",\"P\",\"C\",\"40\"
\"\",\"\",\"approach-retreat\",\"44\",\"346714\",\"0.0-44.0\",\"\",\"\",\"1-4\",\"4748\",\"39\",\"1\",\"Training\",\"Stims/Figures/100-C-30-3.bmp\",\"nala:na\",\"Left\",\"39\",\"3\",\"9\",\"1\",\"S\",\"C\",\"41\"
\"\",\"\",\"approach-retreat\",\"45\",\"352724\",\"0.0-45.0\",\"\",\"\",\"1-4\",\"4476\",\"37\",\"1\",\"Training\",\"Stims/Figures/144-J-10-3.bmp\",\"tapaka\",\"Left\",\"37\",\"3\",\"10\",\"1\",\"P\",\"C\",\"42\"
\"\",\"\",\"approach-retreat\",\"46\",\"359280\",\"0.0-46.0\",\"\",\"\",\"1-4\",\"5034\",\"39\",\"1\",\"Training\",\"Stims/Figures/74-J-10-4.bmp\",\"tapaka\",\"Right\",\"39\",\"3\",\"11\",\"1\",\"P\",\"C\",\"43\"
\"\",\"\",\"approach-retreat\",\"47\",\"365512\",\"0.0-47.0\",\"\",\"\",\"1-4\",\"4709\",\"40\",\"1\",\"Training\",\"Stims/Figures/71-C-30-1.bmp\",\"nala:na\",\"Up\",\"40\",\"3\",\"12\",\"1\",\"S\",\"C\",\"44\"
\"\",\"\",\"approach-retreat\",\"48\",\"372020\",\"0.0-48.0\",\"\",\"\",\"1-4\",\"4981\",\"38\",\"1\",\"Training\",\"Stims/Figures/74-C-20-4.bmp\",\"nala:na\",\"Down\",\"38\",\"3\",\"13\",\"1\",\"S\",\"C\",\"45\"
\"\",\"\",\"approach-retreat\",\"49\",\"378426\",\"0.0-49.0\",\"\",\"\",\"1-4\",\"4874\",\"40\",\"1\",\"Training\",\"Stims/Figures/87-C-20-4.bmp\",\"nala:na\",\"Up\",\"40\",\"3\",\"14\",\"1\",\"S\",\"C\",\"46\"
\"\",\"\",\"approach-retreat\",\"50\",\"385603\",\"0.0-50.0\",\"\",\"\",\"1-4\",\"5656\",\"40\",\"1\",\"Training\",\"Stims/Figures/87-J-10-4.bmp\",\"tapaka\",\"Down\",\"40\",\"3\",\"15\",\"1\",\"P\",\"C\",\"47\"
\"\",\"\",\"approach-retreat\",\"51\",\"393012\",\"0.0-51.0\",\"\",\"\",\"1-4\",\"5882\",\"37\",\"1\",\"Training\",\"Stims/Figures/94-J-0-2.bmp\",\"tapaka\",\"Left\",\"37\",\"3\",\"16\",\"1\",\"P\",\"C\",\"48\"
\"\",\"\",\"approach-retreat\",\"52\",\"398868\",\"0.0-52.0\",\"\",\"\",\"1-4\",\"4330\",\"38\",\"1\",\"Training\",\"Stims/Figures/71-J-0-1.bmp\",\"tapaka\",\"Up\",\"38\",\"4\",\"1\",\"1\",\"P\",\"C\",\"49\"
\"\",\"\",\"approach-retreat\",\"53\",\"407388\",\"0.0-53.0\",\"\",\"\",\"1-4\",\"6998\",\"38\",\"1\",\"Training\",\"Stims/Figures/100-C-30-3.bmp\",\"nala:na\",\"Down\",\"38\",\"4\",\"2\",\"1\",\"S\",\"C\",\"50\"
\"\",\"\",\"approach-retreat\",\"54\",\"413772\",\"0.0-54.0\",\"\",\"\",\"1-4\",\"4852\",\"39\",\"1\",\"Training\",\"Stims/Figures/87-C-20-4.bmp\",\"nala:na\",\"Left\",\"39\",\"4\",\"3\",\"1\",\"S\",\"C\",\"51\"
\"\",\"\",\"approach-retreat\",\"55\",\"420093\",\"0.0-55.0\",\"\",\"\",\"1-4\",\"4801\",\"39\",\"1\",\"Training\",\"Stims/Figures/71-C-30-1.bmp\",\"nala:na\",\"Left\",\"39\",\"4\",\"4\",\"1\",\"S\",\"C\",\"52\"
\"\",\"\",\"approach-retreat\",\"56\",\"426427\",\"0.0-56.0\",\"\",\"\",\"1-4\",\"4800\",\"40\",\"1\",\"Training\",\"Stims/Figures/27-J-0-1.bmp\",\"tapaka\",\"Down\",\"40\",\"4\",\"5\",\"1\",\"P\",\"C\",\"53\"
\"\",\"\",\"approach-retreat\",\"57\",\"432917\",\"0.0-57.0\",\"\",\"\",\"1-4\",\"4965\",\"37\",\"1\",\"Training\",\"Stims/Figures/94-J-0-2.bmp\",\"tapaka\",\"Left\",\"37\",\"4\",\"6\",\"1\",\"P\",\"C\",\"54\"
\"\",\"\",\"approach-retreat\",\"58\",\"441312\",\"0.0-58.0\",\"\",\"\",\"1-4\",\"6878\",\"39\",\"1\",\"Training\",\"Stims/Figures/100-J-10-3.bmp\",\"tapaka\",\"Right\",\"39\",\"4\",\"7\",\"1\",\"P\",\"C\",\"55\"
\"\",\"\",\"approach-retreat\",\"59\",\"448793\",\"0.0-59.0\",\"\",\"\",\"1-4\",\"5970\",\"39\",\"1\",\"Training\",\"Stims/Figures/74-J-10-4.bmp\",\"tapaka\",\"Right\",\"39\",\"4\",\"8\",\"1\",\"P\",\"C\",\"56\"
\"\",\"\",\"approach-retreat\",\"60\",\"455215\",\"0.0-60.0\",\"\",\"\",\"1-4\",\"4895\",\"40\",\"1\",\"Training\",\"Stims/Figures/74-C-20-4.bmp\",\"nala:na\",\"Up\",\"40\",\"4\",\"9\",\"1\",\"S\",\"C\",\"57\"
\"\",\"\",\"approach-retreat\",\"61\",\"461909\",\"0.0-61.0\",\"\",\"\",\"1-4\",\"5166\",\"38\",\"1\",\"Training\",\"Stims/Figures/84-J-0-2.bmp\",\"tapaka\",\"Up\",\"38\",\"4\",\"10\",\"1\",\"P\",\"C\",\"58\"
\"\",\"\",\"approach-retreat\",\"62\",\"472421\",\"0.0-62.0\",\"\",\"\",\"1-4\",\"8985\",\"39\",\"0\",\"Training\",\"Stims/Figures/84-C-20-2.bmp\",\"nala:na\",\"Right\",\"37\",\"4\",\"11\",\"1\",\"S\",\"C\",\"59\"
\"\",\"\",\"approach-retreat\",\"63\",\"479917\",\"0.0-63.0\",\"\",\"\",\"1-4\",\"5962\",\"38\",\"1\",\"Training\",\"Stims/Figures/144-C-30-3.bmp\",\"nala:na\",\"Down\",\"38\",\"4\",\"12\",\"1\",\"S\",\"C\",\"60\"
\"\",\"\",\"approach-retreat\",\"64\",\"488985\",\"0.0-64.0\",\"\",\"\",\"1-4\",\"7542\",\"37\",\"1\",\"Training\",\"Stims/Figures/27-C-30-1.bmp\",\"nala:na\",\"Right\",\"37\",\"4\",\"13\",\"1\",\"S\",\"C\",\"61\"
\"\",\"\",\"approach-retreat\",\"65\",\"498775\",\"0.0-65.0\",\"\",\"\",\"1-4\",\"8259\",\"40\",\"1\",\"Training\",\"Stims/Figures/87-J-10-4.bmp\",\"tapaka\",\"Down\",\"40\",\"4\",\"14\",\"1\",\"P\",\"C\",\"62\"
\"\",\"\",\"approach-retreat\",\"66\",\"505692\",\"0.0-66.0\",\"\",\"\",\"1-4\",\"5391\",\"38\",\"1\",\"Training\",\"Stims/Figures/144-J-10-3.bmp\",\"tapaka\",\"Up\",\"38\",\"4\",\"15\",\"1\",\"P\",\"C\",\"63\"
\"\",\"\",\"approach-retreat\",\"67\",\"512207\",\"0.0-67.0\",\"\",\"\",\"1-4\",\"4984\",\"37\",\"0\",\"Training\",\"Stims/Figures/94-C-20-2.bmp\",\"nala:na\",\"Left\",\"39\",\"4\",\"16\",\"1\",\"S\",\"C\",\"64\"
\"\",\"\",\"approach-retreat\",\"68\",\"518642\",\"0.0-68.0\",\"\",\"\",\"1-4\",\"4899\",\"38\",\"1\",\"Training\",\"Stims/Figures/84-C-20-2.bmp\",\"nala:na\",\"Down\",\"38\",\"5\",\"1\",\"1\",\"S\",\"C\",\"65\"
\"\",\"\",\"approach-retreat\",\"69\",\"529191\",\"0.0-69.0\",\"\",\"\",\"1-4\",\"9031\",\"38\",\"0\",\"Training\",\"Stims/Figures/94-J-0-2.bmp\",\"tapaka\",\"Down\",\"40\",\"5\",\"2\",\"1\",\"P\",\"C\",\"66\"
\"\",\"\",\"approach-retreat\",\"70\",\"535684\",\"0.0-70.0\",\"\",\"\",\"1-4\",\"4955\",\"38\",\"0\",\"Training\",\"Stims/Figures/71-J-0-1.bmp\",\"tapaka\",\"Down\",\"40\",\"5\",\"3\",\"1\",\"P\",\"C\",\"67\"
\"\",\"\",\"approach-retreat\",\"71\",\"542125\",\"0.0-71.0\",\"\",\"\",\"1-4\",\"4919\",\"37\",\"1\",\"Training\",\"Stims/Figures/144-C-30-3.bmp\",\"nala:na\",\"Right\",\"37\",\"5\",\"4\",\"1\",\"S\",\"C\",\"68\"
\"\",\"\",\"approach-retreat\",\"72\",\"548765\",\"0.0-72.0\",\"\",\"\",\"1-4\",\"5100\",\"39\",\"1\",\"Training\",\"Stims/Figures/100-C-30-3.bmp\",\"nala:na\",\"Left\",\"39\",\"5\",\"5\",\"1\",\"S\",\"C\",\"69\"
\"\",\"\",\"approach-retreat\",\"73\",\"557202\",\"0.0-73.0\",\"\",\"\",\"1-4\",\"6914\",\"39\",\"1\",\"Training\",\"Stims/Figures/27-J-0-1.bmp\",\"tapaka\",\"Right\",\"39\",\"5\",\"6\",\"1\",\"P\",\"C\",\"70\"
\"\",\"\",\"approach-retreat\",\"74\",\"564018\",\"0.0-74.0\",\"\",\"\",\"1-4\",\"5293\",\"37\",\"1\",\"Training\",\"Stims/Figures/87-J-10-4.bmp\",\"tapaka\",\"Left\",\"37\",\"5\",\"7\",\"1\",\"P\",\"C\",\"71\"
\"\",\"\",\"approach-retreat\",\"75\",\"570290\",\"0.0-75.0\",\"\",\"\",\"1-4\",\"4744\",\"39\",\"1\",\"Training\",\"Stims/Figures/100-J-10-3.bmp\",\"tapaka\",\"Right\",\"39\",\"5\",\"8\",\"1\",\"P\",\"C\",\"72\"
\"\",\"\",\"approach-retreat\",\"76\",\"584619\",\"0.0-76.0\",\"\",\"\",\"1-4\",\"12803\",\"38\",\"0\",\"Training\",\"Stims/Figures/94-C-20-2.bmp\",\"nala:na\",\"Up\",\"40\",\"5\",\"9\",\"1\",\"S\",\"C\",\"73\"
\"\",\"\",\"approach-retreat\",\"77\",\"590565\",\"0.0-77.0\",\"\",\"\",\"1-4\",\"4418\",\"39\",\"1\",\"Training\",\"Stims/Figures/74-J-10-4.bmp\",\"tapaka\",\"Right\",\"39\",\"5\",\"10\",\"1\",\"P\",\"C\",\"74\"
\"\",\"\",\"approach-retreat\",\"78\",\"598177\",\"0.0-78.0\",\"\",\"\",\"1-4\",\"6081\",\"38\",\"0\",\"Training\",\"Stims/Figures/87-C-20-4.bmp\",\"nala:na\",\"Up\",\"40\",\"5\",\"11\",\"1\",\"S\",\"C\",\"75\"
\"\",\"\",\"approach-retreat\",\"79\",\"604610\",\"0.0-79.0\",\"\",\"\",\"1-4\",\"4899\",\"38\",\"1\",\"Training\",\"Stims/Figures/27-C-30-1.bmp\",\"nala:na\",\"Down\",\"38\",\"5\",\"12\",\"1\",\"S\",\"C\",\"76\"
\"\",\"\",\"approach-retreat\",\"80\",\"613418\",\"0.0-80.0\",\"\",\"\",\"1-4\",\"7279\",\"39\",\"1\",\"Training\",\"Stims/Figures/74-C-20-4.bmp\",\"nala:na\",\"Left\",\"39\",\"5\",\"13\",\"1\",\"S\",\"C\",\"77\"
\"\",\"\",\"approach-retreat\",\"81\",\"620488\",\"0.0-81.0\",\"\",\"\",\"1-4\",\"5527\",\"40\",\"1\",\"Training\",\"Stims/Figures/71-C-30-1.bmp\",\"nala:na\",\"Up\",\"40\",\"5\",\"14\",\"1\",\"S\",\"C\",\"78\"
\"\",\"\",\"approach-retreat\",\"82\",\"626336\",\"0.0-82.0\",\"\",\"\",\"1-4\",\"4321\",\"37\",\"1\",\"Training\",\"Stims/Figures/84-J-0-2.bmp\",\"tapaka\",\"Left\",\"37\",\"5\",\"15\",\"1\",\"P\",\"C\",\"79\"
\"\",\"\",\"approach-retreat\",\"83\",\"634751\",\"0.0-83.0\",\"\",\"\",\"1-4\",\"6886\",\"38\",\"1\",\"Training\",\"Stims/Figures/144-J-10-3.bmp\",\"tapaka\",\"Up\",\"38\",\"5\",\"16\",\"1\",\"P\",\"C\",\"80\"
\"\",\"\",\"approach-retreat\",\"84\",\"641075\",\"0.0-84.0\",\"\",\"\",\"1-4\",\"4806\",\"40\",\"0\",\"Training\",\"Stims/Figures/100-J-10-3.bmp\",\"tapaka\",\"Up\",\"38\",\"6\",\"1\",\"1\",\"P\",\"C\",\"81\"
\"\",\"\",\"approach-retreat\",\"85\",\"647218\",\"0.0-85.0\",\"\",\"\",\"1-4\",\"4591\",\"39\",\"0\",\"Training\",\"Stims/Figures/84-J-0-2.bmp\",\"tapaka\",\"Left\",\"37\",\"6\",\"2\",\"1\",\"P\",\"C\",\"82\"
\"\",\"\",\"approach-retreat\",\"86\",\"653458\",\"0.0-86.0\",\"\",\"\",\"1-4\",\"4705\",\"38\",\"0\",\"Training\",\"Stims/Figures/71-J-0-1.bmp\",\"tapaka\",\"Down\",\"40\",\"6\",\"3\",\"1\",\"P\",\"C\",\"83\"
\"\",\"\",\"approach-retreat\",\"87\",\"659388\",\"0.0-87.0\",\"\",\"\",\"1-4\",\"4397\",\"37\",\"1\",\"Training\",\"Stims/Figures/144-C-30-3.bmp\",\"nala:na\",\"Right\",\"37\",\"6\",\"4\",\"1\",\"S\",\"C\",\"84\"
\"\",\"\",\"approach-retreat\",\"88\",\"665523\",\"0.0-88.0\",\"\",\"\",\"1-4\",\"4606\",\"37\",\"1\",\"Training\",\"Stims/Figures/27-J-0-1.bmp\",\"tapaka\",\"Left\",\"37\",\"6\",\"5\",\"1\",\"P\",\"C\",\"85\"
\"\",\"\",\"approach-retreat\",\"89\",\"671713\",\"0.0-89.0\",\"\",\"\",\"1-4\",\"4660\",\"37\",\"0\",\"Training\",\"Stims/Figures/87-J-10-4.bmp\",\"tapaka\",\"Right\",\"39\",\"6\",\"6\",\"1\",\"P\",\"C\",\"86\"
\"\",\"\",\"approach-retreat\",\"90\",\"678652\",\"0.0-90.0\",\"\",\"\",\"1-4\",\"5408\",\"38\",\"0\",\"Training\",\"Stims/Figures/74-J-10-4.bmp\",\"tapaka\",\"Down\",\"40\",\"6\",\"7\",\"1\",\"P\",\"C\",\"87\"
\"\",\"\",\"approach-retreat\",\"91\",\"684336\",\"0.0-91.0\",\"\",\"\",\"1-4\",\"4160\",\"38\",\"1\",\"Training\",\"Stims/Figures/94-C-20-2.bmp\",\"nala:na\",\"Down\",\"38\",\"6\",\"8\",\"1\",\"S\",\"C\",\"88\"
\"\",\"\",\"approach-retreat\",\"92\",\"691442\",\"0.0-92.0\",\"\",\"\",\"1-4\",\"5579\",\"37\",\"1\",\"Training\",\"Stims/Figures/74-C-20-4.bmp\",\"nala:na\",\"Right\",\"37\",\"6\",\"9\",\"1\",\"S\",\"C\",\"89\"
\"\",\"\",\"approach-retreat\",\"93\",\"700598\",\"0.0-93.0\",\"\",\"\",\"1-4\",\"7643\",\"38\",\"1\",\"Training\",\"Stims/Figures/27-C-30-1.bmp\",\"nala:na\",\"Down\",\"38\",\"6\",\"10\",\"1\",\"S\",\"C\",\"90\"
\"\",\"\",\"approach-retreat\",\"94\",\"707310\",\"0.0-94.0\",\"\",\"\",\"1-4\",\"5182\",\"38\",\"1\",\"Training\",\"Stims/Figures/144-J-10-3.bmp\",\"tapaka\",\"Up\",\"38\",\"6\",\"11\",\"1\",\"P\",\"C\",\"91\"
\"\",\"\",\"approach-retreat\",\"95\",\"713357\",\"0.0-95.0\",\"\",\"\",\"1-4\",\"4513\",\"39\",\"1\",\"Training\",\"Stims/Figures/71-C-30-1.bmp\",\"nala:na\",\"Left\",\"39\",\"6\",\"12\",\"1\",\"S\",\"C\",\"92\"
\"\",\"\",\"approach-retreat\",\"96\",\"719880\",\"0.0-96.0\",\"\",\"\",\"1-4\",\"4994\",\"38\",\"1\",\"Training\",\"Stims/Figures/94-J-0-2.bmp\",\"tapaka\",\"Up\",\"38\",\"6\",\"13\",\"1\",\"P\",\"C\",\"93\"
\"\",\"\",\"approach-retreat\",\"97\",\"725815\",\"0.0-97.0\",\"\",\"\",\"1-4\",\"4422\",\"37\",\"1\",\"Training\",\"Stims/Figures/84-C-20-2.bmp\",\"nala:na\",\"Right\",\"37\",\"6\",\"14\",\"1\",\"S\",\"C\",\"94\"
\"\",\"\",\"approach-retreat\",\"98\",\"731816\",\"0.0-98.0\",\"\",\"\",\"1-4\",\"4489\",\"40\",\"1\",\"Training\",\"Stims/Figures/87-C-20-4.bmp\",\"nala:na\",\"Up\",\"40\",\"6\",\"15\",\"1\",\"S\",\"C\",\"95\"
\"\",\"\",\"approach-retreat\",\"99\",\"738183\",\"0.0-99.0\",\"\",\"\",\"1-4\",\"4852\",\"37\",\"0\",\"Training\",\"Stims/Figures/100-C-30-3.bmp\",\"nala:na\",\"Left\",\"39\",\"6\",\"16\",\"1\",\"S\",\"C\",\"96\"
\"\",\"\",\"approach-retreat\",\"100\",\"744240\",\"0.0-100.0\",\"\",\"\",\"1-4\",\"4544\",\"40\",\"1\",\"Training\",\"Stims/Figures/87-J-10-4.bmp\",\"tapaka\",\"Down\",\"40\",\"7\",\"1\",\"1\",\"P\",\"C\",\"97\"
\"\",\"\",\"approach-retreat\",\"101\",\"750402\",\"0.0-101.0\",\"\",\"\",\"1-4\",\"4640\",\"37\",\"1\",\"Training\",\"Stims/Figures/144-C-30-3.bmp\",\"nala:na\",\"Right\",\"37\",\"7\",\"2\",\"1\",\"S\",\"C\",\"98\"
\"\",\"\",\"approach-retreat\",\"102\",\"756609\",\"0.0-102.0\",\"\",\"\",\"1-4\",\"4683\",\"37\",\"1\",\"Training\",\"Stims/Figures/74-J-10-4.bmp\",\"tapaka\",\"Left\",\"37\",\"7\",\"3\",\"1\",\"P\",\"C\",\"99\"
\"\",\"\",\"approach-retreat\",\"103\",\"763730\",\"0.0-103.0\",\"\",\"\",\"1-4\",\"5600\",\"38\",\"1\",\"Training\",\"Stims/Figures/71-J-0-1.bmp\",\"tapaka\",\"Up\",\"38\",\"7\",\"4\",\"1\",\"P\",\"C\",\"100\"
\"\",\"\",\"approach-retreat\",\"104\",\"769438\",\"0.0-104.0\",\"\",\"\",\"1-4\",\"4176\",\"39\",\"1\",\"Training\",\"Stims/Figures/94-C-20-2.bmp\",\"nala:na\",\"Left\",\"39\",\"7\",\"5\",\"1\",\"S\",\"C\",\"101\"
\"\",\"\",\"approach-retreat\",\"105\",\"775344\",\"0.0-105.0\",\"\",\"\",\"1-4\",\"4378\",\"39\",\"1\",\"Training\",\"Stims/Figures/94-J-0-2.bmp\",\"tapaka\",\"Right\",\"39\",\"7\",\"6\",\"1\",\"P\",\"C\",\"102\"
\"\",\"\",\"approach-retreat\",\"106\",\"782587\",\"0.0-106.0\",\"\",\"\",\"1-4\",\"5733\",\"39\",\"1\",\"Training\",\"Stims/Figures/71-C-30-1.bmp\",\"nala:na\",\"Left\",\"39\",\"7\",\"7\",\"1\",\"S\",\"C\",\"103\"
\"\",\"\",\"approach-retreat\",\"107\",\"788382\",\"0.0-107.0\",\"\",\"\",\"1-4\",\"4271\",\"37\",\"1\",\"Training\",\"Stims/Figures/87-C-20-4.bmp\",\"nala:na\",\"Right\",\"37\",\"7\",\"8\",\"1\",\"S\",\"C\",\"104\"
\"\",\"\",\"approach-retreat\",\"108\",\"794416\",\"0.0-108.0\",\"\",\"\",\"1-4\",\"4516\",\"40\",\"1\",\"Training\",\"Stims/Figures/84-J-0-2.bmp\",\"tapaka\",\"Down\",\"40\",\"7\",\"9\",\"1\",\"P\",\"C\",\"105\"
\"\",\"\",\"approach-retreat\",\"109\",\"800545\",\"0.0-109.0\",\"\",\"\",\"1-4\",\"4596\",\"38\",\"1\",\"Training\",\"Stims/Figures/144-J-10-3.bmp\",\"tapaka\",\"Up\",\"38\",\"7\",\"10\",\"1\",\"P\",\"C\",\"106\"
\"\",\"\",\"approach-retreat\",\"110\",\"806424\",\"0.0-110.0\",\"\",\"\",\"1-4\",\"4354\",\"40\",\"1\",\"Training\",\"Stims/Figures/27-C-30-1.bmp\",\"nala:na\",\"Up\",\"40\",\"7\",\"11\",\"1\",\"S\",\"C\",\"107\"
\"\",\"\",\"approach-retreat\",\"111\",\"812469\",\"0.0-111.0\",\"\",\"\",\"1-4\",\"4517\",\"40\",\"1\",\"Training\",\"Stims/Figures/74-C-20-4.bmp\",\"nala:na\",\"Up\",\"40\",\"7\",\"12\",\"1\",\"S\",\"C\",\"108\"
\"\",\"\",\"approach-retreat\",\"112\",\"818108\",\"0.0-112.0\",\"\",\"\",\"1-4\",\"4114\",\"37\",\"1\",\"Training\",\"Stims/Figures/27-J-0-1.bmp\",\"tapaka\",\"Left\",\"37\",\"7\",\"13\",\"1\",\"P\",\"C\",\"109\"
\"\",\"\",\"approach-retreat\",\"113\",\"823874\",\"0.0-113.0\",\"\",\"\",\"1-4\",\"4233\",\"40\",\"1\",\"Training\",\"Stims/Figures/100-J-10-3.bmp\",\"tapaka\",\"Down\",\"40\",\"7\",\"14\",\"1\",\"P\",\"C\",\"110\"
\"\",\"\",\"approach-retreat\",\"114\",\"829976\",\"0.0-114.0\",\"\",\"\",\"1-4\",\"4581\",\"38\",\"1\",\"Training\",\"Stims/Figures/100-C-30-3.bmp\",\"nala:na\",\"Down\",\"38\",\"7\",\"15\",\"1\",\"S\",\"C\",\"111\"
\"\",\"\",\"approach-retreat\",\"115\",\"835697\",\"0.0-115.0\",\"\",\"\",\"1-4\",\"4211\",\"37\",\"1\",\"Training\",\"Stims/Figures/84-C-20-2.bmp\",\"nala:na\",\"Right\",\"37\",\"7\",\"16\",\"1\",\"S\",\"C\",\"112\"
\"\",\"\",\"approach-retreat\",\"116\",\"841400\",\"0.0-116.0\",\"\",\"\",\"1-4\",\"4191\",\"39\",\"1\",\"Training\",\"Stims/Figures/74-C-20-4.bmp\",\"nala:na\",\"Left\",\"39\",\"8\",\"1\",\"1\",\"S\",\"C\",\"113\"
\"\",\"\",\"approach-retreat\",\"117\",\"848434\",\"0.0-117.0\",\"\",\"\",\"1-4\",\"5516\",\"37\",\"1\",\"Training\",\"Stims/Figures/87-C-20-4.bmp\",\"nala:na\",\"Right\",\"37\",\"8\",\"2\",\"1\",\"S\",\"C\",\"114\"
\"\",\"\",\"approach-retreat\",\"118\",\"854463\",\"0.0-118.0\",\"\",\"\",\"1-4\",\"4492\",\"38\",\"1\",\"Training\",\"Stims/Figures/27-C-30-1.bmp\",\"nala:na\",\"Down\",\"38\",\"8\",\"3\",\"1\",\"S\",\"C\",\"115\"
\"\",\"\",\"approach-retreat\",\"119\",\"860645\",\"0.0-119.0\",\"\",\"\",\"1-4\",\"4657\",\"38\",\"0\",\"Training\",\"Stims/Figures/71-J-0-1.bmp\",\"tapaka\",\"Down\",\"40\",\"8\",\"4\",\"1\",\"P\",\"C\",\"116\"
\"\",\"\",\"approach-retreat\",\"120\",\"866328\",\"0.0-120.0\",\"\",\"\",\"1-4\",\"4148\",\"37\",\"1\",\"Training\",\"Stims/Figures/87-J-10-4.bmp\",\"tapaka\",\"Left\",\"37\",\"8\",\"5\",\"1\",\"P\",\"C\",\"117\"
\"\",\"\",\"approach-retreat\",\"121\",\"872721\",\"0.0-121.0\",\"\",\"\",\"1-4\",\"4871\",\"40\",\"1\",\"Training\",\"Stims/Figures/94-J-0-2.bmp\",\"tapaka\",\"Down\",\"40\",\"8\",\"6\",\"1\",\"P\",\"C\",\"118\"
\"\",\"\",\"approach-retreat\",\"122\",\"878570\",\"0.0-122.0\",\"\",\"\",\"1-4\",\"4320\",\"39\",\"1\",\"Training\",\"Stims/Figures/100-J-10-3.bmp\",\"tapaka\",\"Right\",\"39\",\"8\",\"7\",\"1\",\"P\",\"C\",\"119\"
\"\",\"\",\"approach-retreat\",\"123\",\"887234\",\"0.0-123.0\",\"\",\"\",\"1-4\",\"7143\",\"37\",\"0\",\"Training\",\"Stims/Figures/94-C-20-2.bmp\",\"nala:na\",\"Left\",\"39\",\"8\",\"8\",\"1\",\"S\",\"C\",\"120\"
\"\",\"\",\"approach-retreat\",\"124\",\"893789\",\"0.0-124.0\",\"\",\"\",\"1-4\",\"5020\",\"40\",\"1\",\"Training\",\"Stims/Figures/144-C-30-3.bmp\",\"nala:na\",\"Up\",\"40\",\"8\",\"9\",\"1\",\"S\",\"C\",\"121\"
\"\",\"\",\"approach-retreat\",\"125\",\"899845\",\"0.0-125.0\",\"\",\"\",\"1-4\",\"4528\",\"40\",\"1\",\"Training\",\"Stims/Figures/71-C-30-1.bmp\",\"nala:na\",\"Up\",\"40\",\"8\",\"10\",\"1\",\"S\",\"C\",\"122\"
\"\",\"\",\"approach-retreat\",\"126\",\"906515\",\"0.0-126.0\",\"\",\"\",\"1-4\",\"5143\",\"37\",\"1\",\"Training\",\"Stims/Figures/100-C-30-3.bmp\",\"nala:na\",\"Right\",\"37\",\"8\",\"11\",\"1\",\"S\",\"C\",\"123\"
\"\",\"\",\"approach-retreat\",\"127\",\"912870\",\"0.0-127.0\",\"\",\"\",\"1-4\",\"4838\",\"38\",\"1\",\"Training\",\"Stims/Figures/27-J-0-1.bmp\",\"tapaka\",\"Up\",\"38\",\"8\",\"12\",\"1\",\"P\",\"C\",\"124\"
\"\",\"\",\"approach-retreat\",\"128\",\"920387\",\"0.0-128.0\",\"\",\"\",\"1-4\",\"6005\",\"39\",\"1\",\"Training\",\"Stims/Figures/74-J-10-4.bmp\",\"tapaka\",\"Right\",\"39\",\"8\",\"13\",\"1\",\"P\",\"C\",\"125\"
\"\",\"\",\"approach-retreat\",\"129\",\"926440\",\"0.0-129.0\",\"\",\"\",\"1-4\",\"4540\",\"37\",\"1\",\"Training\",\"Stims/Figures/144-J-10-3.bmp\",\"tapaka\",\"Left\",\"37\",\"8\",\"14\",\"1\",\"P\",\"C\",\"126\"
\"\",\"\",\"approach-retreat\",\"130\",\"932505\",\"0.0-130.0\",\"\",\"\",\"1-4\",\"4537\",\"40\",\"1\",\"Training\",\"Stims/Figures/84-C-20-2.bmp\",\"nala:na\",\"Up\",\"40\",\"8\",\"15\",\"1\",\"S\",\"C\",\"127\"
\"\",\"\",\"approach-retreat\",\"131\",\"938594\",\"0.0-131.0\",\"\",\"\",\"1-4\",\"4573\",\"40\",\"1\",\"Training\",\"Stims/Figures/84-J-0-2.bmp\",\"tapaka\",\"Down\",\"40\",\"8\",\"16\",\"1\",\"P\",\"C\",\"128\"
\"\",\"\",\"approach-retreat\",\"132\",\"945062\",\"0.0-132.0\",\"\",\"\",\"1-4\",\"4952\",\"39\",\"1\",\"Training\",\"Stims/Figures/144-C-30-3.bmp\",\"nala:na\",\"Left\",\"39\",\"9\",\"1\",\"1\",\"S\",\"C\",\"129\"
\"\",\"\",\"approach-retreat\",\"133\",\"951627\",\"0.0-133.0\",\"\",\"\",\"1-4\",\"5027\",\"40\",\"1\",\"Training\",\"Stims/Figures/87-C-20-4.bmp\",\"nala:na\",\"Up\",\"40\",\"9\",\"2\",\"1\",\"S\",\"C\",\"130\"
\"\",\"\",\"approach-retreat\",\"134\",\"962104\",\"0.0-134.0\",\"\",\"\",\"1-4\",\"8954\",\"37\",\"0\",\"Training\",\"Stims/Figures/27-J-0-1.bmp\",\"tapaka\",\"Right\",\"39\",\"9\",\"3\",\"1\",\"P\",\"C\",\"131\"
\"\",\"\",\"approach-retreat\",\"135\",\"970141\",\"0.0-135.0\",\"\",\"\",\"1-4\",\"6504\",\"38\",\"1\",\"Training\",\"Stims/Figures/71-J-0-1.bmp\",\"tapaka\",\"Up\",\"38\",\"9\",\"4\",\"1\",\"P\",\"C\",\"132\"
\"\",\"\",\"approach-retreat\",\"136\",\"978132\",\"0.0-136.0\",\"\",\"\",\"1-4\",\"6460\",\"40\",\"1\",\"Training\",\"Stims/Figures/100-J-10-3.bmp\",\"tapaka\",\"Down\",\"40\",\"9\",\"5\",\"1\",\"P\",\"C\",\"133\"
\"\",\"\",\"approach-retreat\",\"137\",\"986528\",\"0.0-137.0\",\"\",\"\",\"1-4\",\"6870\",\"40\",\"1\",\"Training\",\"Stims/Figures/94-J-0-2.bmp\",\"tapaka\",\"Down\",\"40\",\"9\",\"6\",\"1\",\"P\",\"C\",\"134\"
\"\",\"\",\"approach-retreat\",\"138\",\"995904\",\"0.0-138.0\",\"\",\"\",\"1-4\",\"7853\",\"37\",\"1\",\"Training\",\"Stims/Figures/74-C-20-4.bmp\",\"nala:na\",\"Right\",\"37\",\"9\",\"7\",\"1\",\"S\",\"C\",\"135\"
\"\",\"\",\"approach-retreat\",\"139\",\"1006291\",\"0.0-139.0\",\"\",\"\",\"1-4\",\"8861\",\"37\",\"1\",\"Training\",\"Stims/Figures/100-C-30-3.bmp\",\"nala:na\",\"Right\",\"37\",\"9\",\"8\",\"1\",\"S\",\"C\",\"136\"
\"\",\"\",\"approach-retreat\",\"140\",\"1014186\",\"0.0-140.0\",\"\",\"\",\"1-4\",\"6374\",\"38\",\"1\",\"Training\",\"Stims/Figures/144-J-10-3.bmp\",\"tapaka\",\"Up\",\"38\",\"9\",\"9\",\"1\",\"P\",\"C\",\"137\"
\"\",\"\",\"approach-retreat\",\"141\",\"1023960\",\"0.0-141.0\",\"\",\"\",\"1-4\",\"8250\",\"38\",\"1\",\"Training\",\"Stims/Figures/74-J-10-4.bmp\",\"tapaka\",\"Up\",\"38\",\"9\",\"10\",\"1\",\"P\",\"C\",\"138\"
\"\",\"\",\"approach-retreat\",\"142\",\"1032302\",\"0.0-142.0\",\"\",\"\",\"1-4\",\"6812\",\"39\",\"1\",\"Training\",\"Stims/Figures/84-J-0-2.bmp\",\"tapaka\",\"Right\",\"39\",\"9\",\"11\",\"1\",\"P\",\"C\",\"139\"
\"\",\"\",\"approach-retreat\",\"143\",\"1048140\",\"0.0-143.0\",\"\",\"\",\"1-4\",\"14309\",\"38\",\"1\",\"Training\",\"Stims/Figures/84-C-20-2.bmp\",\"nala:na\",\"Down\",\"38\",\"9\",\"12\",\"1\",\"S\",\"C\",\"140\"
\"\",\"\",\"approach-retreat\",\"144\",\"1055668\",\"0.0-144.0\",\"\",\"\",\"1-4\",\"5996\",\"39\",\"1\",\"Training\",\"Stims/Figures/27-C-30-1.bmp\",\"nala:na\",\"Left\",\"39\",\"9\",\"13\",\"1\",\"S\",\"C\",\"141\"
\"\",\"\",\"approach-retreat\",\"145\",\"1062599\",\"0.0-145.0\",\"\",\"\",\"1-4\",\"5403\",\"38\",\"1\",\"Training\",\"Stims/Figures/71-C-30-1.bmp\",\"nala:na\",\"Down\",\"38\",\"9\",\"14\",\"1\",\"S\",\"C\",\"142\"
\"\",\"\",\"approach-retreat\",\"146\",\"1068226\",\"0.0-146.0\",\"\",\"\",\"1-4\",\"4091\",\"39\",\"1\",\"Training\",\"Stims/Figures/94-C-20-2.bmp\",\"nala:na\",\"Left\",\"39\",\"9\",\"15\",\"1\",\"S\",\"C\",\"143\"
\"\",\"\",\"approach-retreat\",\"147\",\"1074169\",\"0.0-147.0\",\"\",\"\",\"1-4\",\"4423\",\"39\",\"0\",\"Training\",\"Stims/Figures/87-J-10-4.bmp\",\"tapaka\",\"Left\",\"37\",\"9\",\"16\",\"1\",\"P\",\"C\",\"144\"
\"9684\",\"\",\"instructions\",\"148\",\"1083853\",\"0.0-148.0\",\"[{\"\"page_index\"\":0,\"\"viewing_time\"\":9681}]\",\"\",\"\",\"\",\"\",\"\",\"\",\"\",\"\",\"\",\"\",\"\",\"\",\"\",\"\",\"\",\"\"
\"\",\"\",\"approach-retreat\",\"149\",\"1091611\",\"0.0-149.0\",\"\",\"\",\"1-4\",\"6233\",\"39\",\"0\",\"Testing\",\"Stims/Figures/87-J-10-4.bmp\",\"tapaka\",\"Left\",\"37\",\"1\",\"1\",\"1\",\"P\",\"C\",\"1\"
\"\",\"\",\"approach-retreat\",\"150\",\"1100139\",\"0.0-150.0\",\"\",\"\",\"1-4\",\"6998\",\"40\",\"0\",\"Testing\",\"Stims/Figures/84-C-20-2.bmp\",\"nala:na\",\"Down\",\"38\",\"1\",\"2\",\"1\",\"S\",\"C\",\"2\"
\"\",\"\",\"approach-retreat\",\"151\",\"1106213\",\"0.0-151.0\",\"\",\"\",\"1-4\",\"4540\",\"39\",\"0\",\"Testing\",\"Stims/Figures/100-C-30-3.bmp\",\"nala:na\",\"Right\",\"37\",\"1\",\"3\",\"1\",\"S\",\"C\",\"3\"
\"\",\"\",\"approach-retreat\",\"152\",\"1111834\",\"0.0-152.0\",\"\",\"\",\"1-4\",\"4090\",\"40\",\"0\",\"Testing\",\"Stims/Figures/86-C-30-1.bmp\",\"nala:na\",\"Down\",\"38\",\"1\",\"4\",\"1\",\"S\",\"C\",\"4\"
\"\",\"\",\"approach-retreat\",\"153\",\"1117808\",\"0.0-153.0\",\"\",\"\",\"1-4\",\"4445\",\"37\",\"0\",\"Testing\",\"Stims/Figures/100-J-10-3.bmp\",\"tapaka\",\"Right\",\"39\",\"1\",\"5\",\"1\",\"P\",\"C\",\"5\"
\"\",\"\",\"approach-retreat\",\"154\",\"1124450\",\"0.0-154.0\",\"\",\"\",\"1-4\",\"5118\",\"39\",\"0\",\"Testing\",\"Stims/Figures/85-J-0-2.bmp\",\"tapaka\",\"Left\",\"37\",\"1\",\"6\",\"1\",\"P\",\"C\",\"6\"
\"\",\"\",\"approach-retreat\",\"155\",\"1131262\",\"0.0-155.0\",\"\",\"\",\"1-4\",\"5282\",\"37\",\"0\",\"Testing\",\"Stims/Figures/144-C-30-3.bmp\",\"nala:na\",\"Left\",\"39\",\"1\",\"7\",\"1\",\"S\",\"C\",\"7\"
\"\",\"\",\"approach-retreat\",\"156\",\"1138123\",\"0.0-156.0\",\"\",\"\",\"1-4\",\"5348\",\"40\",\"1\",\"Testing\",\"Stims/Figures/94-J-0-2.bmp\",\"tapaka\",\"Down\",\"40\",\"1\",\"8\",\"1\",\"P\",\"C\",\"8\"
\"\",\"\",\"approach-retreat\",\"157\",\"1143985\",\"0.0-157.0\",\"\",\"\",\"1-4\",\"4344\",\"40\",\"1\",\"Testing\",\"Stims/Figures/27-J-0-1.bmp\",\"tapaka\",\"Down\",\"40\",\"1\",\"9\",\"1\",\"P\",\"C\",\"9\"
\"\",\"\",\"approach-retreat\",\"158\",\"1151316\",\"0.0-158.0\",\"\",\"\",\"1-4\",\"5796\",\"39\",\"1\",\"Testing\",\"Stims/Figures/7-C-20-4.bmp\",\"nala:na\",\"Left\",\"39\",\"1\",\"10\",\"1\",\"S\",\"C\",\"10\"
\"\",\"\",\"approach-retreat\",\"159\",\"1157311\",\"0.0-159.0\",\"\",\"\",\"1-4\",\"4466\",\"40\",\"0\",\"Testing\",\"Stims/Figures/86-J-0-1.bmp\",\"tapaka\",\"Up\",\"38\",\"1\",\"11\",\"1\",\"P\",\"C\",\"11\"
\"\",\"\",\"approach-retreat\",\"160\",\"1163075\",\"0.0-160.0\",\"\",\"\",\"1-4\",\"4242\",\"37\",\"1\",\"Testing\",\"Stims/Figures/74-C-20-4.bmp\",\"nala:na\",\"Right\",\"37\",\"1\",\"12\",\"1\",\"S\",\"C\",\"12\"
\"\",\"\",\"approach-retreat\",\"161\",\"1168929\",\"0.0-161.0\",\"\",\"\",\"1-4\",\"4325\",\"39\",\"0\",\"Testing\",\"Stims/Figures/85-C-20-2.bmp\",\"nala:na\",\"Right\",\"37\",\"1\",\"13\",\"1\",\"S\",\"C\",\"13\"
\"\",\"\",\"approach-retreat\",\"162\",\"1178485\",\"0.0-162.0\",\"\",\"\",\"1-4\",\"8046\",\"40\",\"0\",\"Testing\",\"Stims/Figures/128-J-10-3.bmp\",\"tapaka\",\"Up\",\"38\",\"1\",\"14\",\"1\",\"P\",\"C\",\"14\"
\"\",\"\",\"approach-retreat\",\"163\",\"1184697\",\"0.0-163.0\",\"\",\"\",\"1-4\",\"4678\",\"38\",\"1\",\"Testing\",\"Stims/Figures/74-J-10-4.bmp\",\"tapaka\",\"Up\",\"38\",\"1\",\"15\",\"1\",\"P\",\"C\",\"15\"
\"\",\"\",\"approach-retreat\",\"164\",\"1190822\",\"0.0-164.0\",\"\",\"\",\"1-4\",\"4593\",\"38\",\"1\",\"Testing\",\"Stims/Figures/84-J-0-2.bmp\",\"tapaka\",\"Up\",\"38\",\"1\",\"16\",\"1\",\"P\",\"C\",\"16\"
\"\",\"\",\"approach-retreat\",\"165\",\"1201730\",\"0.0-165.0\",\"\",\"\",\"1-4\",\"9375\",\"40\",\"0\",\"Testing\",\"Stims/Figures/27-C-30-1.bmp\",\"nala:na\",\"Down\",\"38\",\"1\",\"17\",\"1\",\"S\",\"C\",\"17\"
\"\",\"\",\"approach-retreat\",\"166\",\"1209500\",\"0.0-166.0\",\"\",\"\",\"1-4\",\"6237\",\"40\",\"0\",\"Testing\",\"Stims/Figures/87-C-20-4.bmp\",\"nala:na\",\"Down\",\"38\",\"1\",\"18\",\"1\",\"S\",\"C\",\"18\"
\"\",\"\",\"approach-retreat\",\"167\",\"1215739\",\"0.0-167.0\",\"\",\"\",\"1-4\",\"4694\",\"38\",\"0\",\"Testing\",\"Stims/Figures/128-C-30-3.bmp\",\"nala:na\",\"Up\",\"40\",\"1\",\"19\",\"1\",\"S\",\"C\",\"19\"
\"\",\"\",\"approach-retreat\",\"168\",\"1228135\",\"0.0-168.0\",\"\",\"\",\"1-4\",\"10865\",\"37\",\"1\",\"Testing\",\"Stims/Figures/144-J-10-3.bmp\",\"tapaka\",\"Left\",\"37\",\"1\",\"20\",\"1\",\"P\",\"C\",\"20\"
\"\",\"\",\"approach-retreat\",\"169\",\"1234036\",\"0.0-169.0\",\"\",\"\",\"1-4\",\"4370\",\"39\",\"1\",\"Testing\",\"Stims/Figures/7-J-10-4.bmp\",\"tapaka\",\"Right\",\"39\",\"1\",\"21\",\"1\",\"P\",\"C\",\"21\"
\"\",\"\",\"approach-retreat\",\"170\",\"1240495\",\"0.0-170.0\",\"\",\"\",\"1-4\",\"4929\",\"40\",\"1\",\"Testing\",\"Stims/Figures/71-C-30-1.bmp\",\"nala:na\",\"Up\",\"40\",\"1\",\"22\",\"1\",\"S\",\"C\",\"22\"
\"\",\"\",\"approach-retreat\",\"171\",\"1246241\",\"0.0-171.0\",\"\",\"\",\"1-4\",\"4214\",\"37\",\"1\",\"Testing\",\"Stims/Figures/94-C-20-2.bmp\",\"nala:na\",\"Right\",\"37\",\"1\",\"23\",\"1\",\"S\",\"C\",\"23\"
\"\",\"\",\"approach-retreat\",\"172\",\"1252582\",\"0.0-172.0\",\"\",\"\",\"1-4\",\"4810\",\"37\",\"1\",\"Testing\",\"Stims/Figures/71-J-0-1.bmp\",\"tapaka\",\"Left\",\"37\",\"1\",\"24\",\"1\",\"P\",\"C\",\"24\"
\"\",\"\",\"approach-retreat\",\"173\",\"1277407\",\"0.0-173.0\",\"\",\"\",\"1-4\",\"23296\",\"39\",\"1\",\"Testing\",\"Stims/Figures/7-C-20-4.bmp\",\"nala:na\",\"Left\",\"39\",\"2\",\"1\",\"1\",\"S\",\"C\",\"25\"
\"\",\"\",\"approach-retreat\",\"174\",\"1287373\",\"0.0-174.0\",\"\",\"\",\"1-4\",\"8438\",\"40\",\"1\",\"Testing\",\"Stims/Figures/27-J-0-1.bmp\",\"tapaka\",\"Down\",\"40\",\"2\",\"2\",\"1\",\"P\",\"C\",\"26\"
\"\",\"\",\"approach-retreat\",\"175\",\"1293847\",\"0.0-175.0\",\"\",\"\",\"1-4\",\"4963\",\"38\",\"1\",\"Testing\",\"Stims/Figures/74-J-10-4.bmp\",\"tapaka\",\"Up\",\"38\",\"2\",\"3\",\"1\",\"P\",\"C\",\"27\"
\"\",\"\",\"approach-retreat\",\"176\",\"1300704\",\"0.0-176.0\",\"\",\"\",\"1-4\",\"5347\",\"40\",\"1\",\"Testing\",\"Stims/Figures/144-J-10-3.bmp\",\"tapaka\",\"Down\",\"40\",\"2\",\"4\",\"1\",\"P\",\"C\",\"28\"
\"\",\"\",\"approach-retreat\",\"177\",\"1311165\",\"0.0-177.0\",\"\",\"\",\"1-4\",\"8937\",\"40\",\"1\",\"Testing\",\"Stims/Figures/7-J-10-4.bmp\",\"tapaka\",\"Down\",\"40\",\"2\",\"5\",\"1\",\"P\",\"C\",\"29\"
\"\",\"\",\"approach-retreat\",\"178\",\"1321435\",\"0.0-178.0\",\"\",\"\",\"1-4\",\"8736\",\"37\",\"0\",\"Testing\",\"Stims/Figures/144-C-30-3.bmp\",\"nala:na\",\"Left\",\"39\",\"2\",\"6\",\"1\",\"S\",\"C\",\"30\"
\"\",\"\",\"approach-retreat\",\"179\",\"1332395\",\"0.0-179.0\",\"\",\"\",\"1-4\",\"9429\",\"40\",\"1\",\"Testing\",\"Stims/Figures/84-C-20-2.bmp\",\"nala:na\",\"Up\",\"40\",\"2\",\"7\",\"1\",\"S\",\"C\",\"31\"
\"\",\"\",\"approach-retreat\",\"180\",\"1349134\",\"0.0-180.0\",\"\",\"\",\"1-4\",\"15209\",\"37\",\"0\",\"Testing\",\"Stims/Figures/86-C-30-1.bmp\",\"nala:na\",\"Left\",\"39\",\"2\",\"8\",\"1\",\"S\",\"C\",\"32\"
\"\",\"\",\"approach-retreat\",\"181\",\"1357938\",\"0.0-181.0\",\"\",\"\",\"1-4\",\"7272\",\"37\",\"1\",\"Testing\",\"Stims/Figures/84-J-0-2.bmp\",\"tapaka\",\"Left\",\"37\",\"2\",\"9\",\"1\",\"P\",\"C\",\"33\"
\"\",\"\",\"approach-retreat\",\"182\",\"1372306\",\"0.0-182.0\",\"\",\"\",\"1-4\",\"12833\",\"40\",\"1\",\"Testing\",\"Stims/Figures/87-C-20-4.bmp\",\"nala:na\",\"Up\",\"40\",\"2\",\"10\",\"1\",\"S\",\"C\",\"34\"
\"\",\"\",\"approach-retreat\",\"183\",\"1378303\",\"0.0-183.0\",\"\",\"\",\"1-4\",\"4465\",\"38\",\"0\",\"Testing\",\"Stims/Figures/85-J-0-2.bmp\",\"tapaka\",\"Down\",\"40\",\"2\",\"11\",\"1\",\"P\",\"C\",\"35\"
\"\",\"\",\"approach-retreat\",\"184\",\"1384278\",\"0.0-184.0\",\"\",\"\",\"1-4\",\"4441\",\"37\",\"1\",\"Testing\",\"Stims/Figures/94-C-20-2.bmp\",\"nala:na\",\"Right\",\"37\",\"2\",\"12\",\"1\",\"S\",\"C\",\"36\"
\"\",\"\",\"approach-retreat\",\"185\",\"1390294\",\"0.0-185.0\",\"\",\"\",\"1-4\",\"4485\",\"38\",\"1\",\"Testing\",\"Stims/Figures/94-J-0-2.bmp\",\"tapaka\",\"Up\",\"38\",\"2\",\"13\",\"1\",\"P\",\"C\",\"37\"
\"\",\"\",\"approach-retreat\",\"186\",\"1396738\",\"0.0-186.0\",\"\",\"\",\"1-4\",\"4912\",\"40\",\"1\",\"Testing\",\"Stims/Figures/86-J-0-1.bmp\",\"tapaka\",\"Down\",\"40\",\"2\",\"14\",\"1\",\"P\",\"C\",\"38\"
\"\",\"\",\"approach-retreat\",\"187\",\"1403338\",\"0.0-187.0\",\"\",\"\",\"1-4\",\"5073\",\"40\",\"0\",\"Testing\",\"Stims/Figures/85-C-20-2.bmp\",\"nala:na\",\"Down\",\"38\",\"2\",\"15\",\"1\",\"S\",\"C\",\"39\"
\"\",\"\",\"approach-retreat\",\"188\",\"1416830\",\"0.0-188.0\",\"\",\"\",\"1-4\",\"11965\",\"37\",\"0\",\"Testing\",\"Stims/Figures/128-J-10-3.bmp\",\"tapaka\",\"Right\",\"39\",\"2\",\"16\",\"1\",\"P\",\"C\",\"40\"
\"\",\"\",\"approach-retreat\",\"189\",\"1434618\",\"0.0-189.0\",\"\",\"\",\"1-4\",\"16258\",\"37\",\"1\",\"Testing\",\"Stims/Figures/128-C-30-3.bmp\",\"nala:na\",\"Right\",\"37\",\"2\",\"17\",\"1\",\"S\",\"C\",\"41\"
\"\",\"\",\"approach-retreat\",\"190\",\"1447409\",\"0.0-190.0\",\"\",\"\",\"1-4\",\"11259\",\"40\",\"1\",\"Testing\",\"Stims/Figures/74-C-20-4.bmp\",\"nala:na\",\"Up\",\"40\",\"2\",\"18\",\"1\",\"S\",\"C\",\"42\"
\"\",\"\",\"approach-retreat\",\"191\",\"1453676\",\"0.0-191.0\",\"\",\"\",\"1-4\",\"4741\",\"39\",\"0\",\"Testing\",\"Stims/Figures/100-J-10-3.bmp\",\"tapaka\",\"Left\",\"37\",\"2\",\"19\",\"1\",\"P\",\"C\",\"43\"
\"\",\"\",\"approach-retreat\",\"192\",\"1461627\",\"0.0-192.0\",\"\",\"\",\"1-4\",\"6411\",\"39\",\"1\",\"Testing\",\"Stims/Figures/87-J-10-4.bmp\",\"tapaka\",\"Right\",\"39\",\"2\",\"20\",\"1\",\"P\",\"C\",\"44\"
\"\",\"\",\"approach-retreat\",\"193\",\"1472556\",\"0.0-193.0\",\"\",\"\",\"1-4\",\"9414\",\"37\",\"1\",\"Testing\",\"Stims/Figures/71-J-0-1.bmp\",\"tapaka\",\"Left\",\"37\",\"2\",\"21\",\"1\",\"P\",\"C\",\"45\"
\"\",\"\",\"approach-retreat\",\"194\",\"1479663\",\"0.0-194.0\",\"\",\"\",\"1-4\",\"5592\",\"37\",\"1\",\"Testing\",\"Stims/Figures/27-C-30-1.bmp\",\"nala:na\",\"Right\",\"37\",\"2\",\"22\",\"1\",\"S\",\"C\",\"46\"
\"\",\"\",\"approach-retreat\",\"195\",\"1485472\",\"0.0-195.0\",\"\",\"\",\"1-4\",\"4298\",\"39\",\"0\",\"Testing\",\"Stims/Figures/100-C-30-3.bmp\",\"nala:na\",\"Right\",\"37\",\"2\",\"23\",\"1\",\"S\",\"C\",\"47\"
\"\",\"\",\"approach-retreat\",\"196\",\"1498862\",\"0.0-196.0\",\"\",\"\",\"1-4\",\"11859\",\"38\",\"0\",\"Testing\",\"Stims/Figures/71-C-30-1.bmp\",\"nala:na\",\"Up\",\"40\",\"2\",\"24\",\"1\",\"S\",\"C\",\"48\"
\"\",\"\",\"approach-retreat\",\"197\",\"1505452\",\"0.0-197.0\",\"\",\"\",\"1-4\",\"5075\",\"37\",\"1\",\"Testing\",\"Stims/Figures/7-J-10-4.bmp\",\"tapaka\",\"Left\",\"37\",\"3\",\"1\",\"1\",\"P\",\"C\",\"49\"
\"\",\"\",\"approach-retreat\",\"198\",\"1511590\",\"0.0-198.0\",\"\",\"\",\"1-4\",\"4627\",\"40\",\"1\",\"Testing\",\"Stims/Figures/87-C-20-4.bmp\",\"nala:na\",\"Up\",\"40\",\"3\",\"2\",\"1\",\"S\",\"C\",\"50\"
\"\",\"\",\"approach-retreat\",\"199\",\"1517436\",\"0.0-199.0\",\"\",\"\",\"1-4\",\"4334\",\"40\",\"1\",\"Testing\",\"Stims/Figures/84-J-0-2.bmp\",\"tapaka\",\"Down\",\"40\",\"3\",\"3\",\"1\",\"P\",\"C\",\"51\"
\"\",\"\",\"approach-retreat\",\"200\",\"1523840\",\"0.0-200.0\",\"\",\"\",\"1-4\",\"4893\",\"37\",\"0\",\"Testing\",\"Stims/Figures/27-C-30-1.bmp\",\"nala:na\",\"Left\",\"39\",\"3\",\"4\",\"1\",\"S\",\"C\",\"52\"
\"\",\"\",\"approach-retreat\",\"201\",\"1530527\",\"0.0-201.0\",\"\",\"\",\"1-4\",\"5157\",\"40\",\"1\",\"Testing\",\"Stims/Figures/85-C-20-2.bmp\",\"nala:na\",\"Up\",\"40\",\"3\",\"5\",\"1\",\"S\",\"C\",\"53\"
\"\",\"\",\"approach-retreat\",\"202\",\"1536807\",\"0.0-202.0\",\"\",\"\",\"1-4\",\"4746\",\"39\",\"1\",\"Testing\",\"Stims/Figures/128-J-10-3.bmp\",\"tapaka\",\"Right\",\"39\",\"3\",\"6\",\"1\",\"P\",\"C\",\"54\"
\"\",\"\",\"approach-retreat\",\"203\",\"1543890\",\"0.0-203.0\",\"\",\"\",\"1-4\",\"5554\",\"38\",\"1\",\"Testing\",\"Stims/Figures/74-J-10-4.bmp\",\"tapaka\",\"Up\",\"38\",\"3\",\"7\",\"1\",\"P\",\"C\",\"55\"
\"\",\"\",\"approach-retreat\",\"204\",\"1549504\",\"0.0-204.0\",\"\",\"\",\"1-4\",\"4086\",\"39\",\"0\",\"Testing\",\"Stims/Figures/128-C-30-3.bmp\",\"nala:na\",\"Right\",\"37\",\"3\",\"8\",\"1\",\"S\",\"C\",\"56\"
\"\",\"\",\"approach-retreat\",\"205\",\"1557413\",\"0.0-205.0\",\"\",\"\",\"1-4\",\"6376\",\"39\",\"0\",\"Testing\",\"Stims/Figures/144-C-30-3.bmp\",\"nala:na\",\"Right\",\"37\",\"3\",\"9\",\"1\",\"S\",\"C\",\"57\"
\"\",\"\",\"approach-retreat\",\"206\",\"1564850\",\"0.0-206.0\",\"\",\"\",\"1-4\",\"5905\",\"40\",\"1\",\"Testing\",\"Stims/Figures/94-C-20-2.bmp\",\"nala:na\",\"Up\",\"40\",\"3\",\"10\",\"1\",\"S\",\"C\",\"58\"
\"\",\"\",\"approach-retreat\",\"207\",\"1570526\",\"0.0-207.0\",\"\",\"\",\"1-4\",\"4162\",\"39\",\"1\",\"Testing\",\"Stims/Figures/94-J-0-2.bmp\",\"tapaka\",\"Right\",\"39\",\"3\",\"11\",\"1\",\"P\",\"C\",\"59\"
\"\",\"\",\"approach-retreat\",\"208\",\"1576585\",\"0.0-208.0\",\"\",\"\",\"1-4\",\"4528\",\"40\",\"0\",\"Testing\",\"Stims/Figures/71-C-30-1.bmp\",\"nala:na\",\"Down\",\"38\",\"3\",\"12\",\"1\",\"S\",\"C\",\"60\"
\"\",\"\",\"approach-retreat\",\"209\",\"1586307\",\"0.0-209.0\",\"\",\"\",\"1-4\",\"8189\",\"39\",\"0\",\"Testing\",\"Stims/Figures/27-J-0-1.bmp\",\"tapaka\",\"Left\",\"37\",\"3\",\"13\",\"1\",\"P\",\"C\",\"61\"
\"\",\"\",\"approach-retreat\",\"210\",\"1592234\",\"0.0-210.0\",\"\",\"\",\"1-4\",\"4395\",\"40\",\"1\",\"Testing\",\"Stims/Figures/85-J-0-2.bmp\",\"tapaka\",\"Down\",\"40\",\"3\",\"14\",\"1\",\"P\",\"C\",\"62\"
\"\",\"\",\"approach-retreat\",\"211\",\"1598513\",\"0.0-211.0\",\"\",\"\",\"1-4\",\"4766\",\"40\",\"1\",\"Testing\",\"Stims/Figures/144-J-10-3.bmp\",\"tapaka\",\"Down\",\"40\",\"3\",\"15\",\"1\",\"P\",\"C\",\"63\"
\"\",\"\",\"approach-retreat\",\"212\",\"1605336\",\"0.0-212.0\",\"\",\"\",\"1-4\",\"5306\",\"39\",\"0\",\"Testing\",\"Stims/Figures/86-J-0-1.bmp\",\"tapaka\",\"Left\",\"37\",\"3\",\"16\",\"1\",\"P\",\"C\",\"64\"
\"\",\"\",\"approach-retreat\",\"213\",\"1611664\",\"0.0-213.0\",\"\",\"\",\"1-4\",\"4809\",\"40\",\"0\",\"Testing\",\"Stims/Figures/86-C-30-1.bmp\",\"nala:na\",\"Down\",\"38\",\"3\",\"17\",\"1\",\"S\",\"C\",\"65\"
\"\",\"\",\"approach-retreat\",\"214\",\"1618197\",\"0.0-214.0\",\"\",\"\",\"1-4\",\"5003\",\"40\",\"1\",\"Testing\",\"Stims/Figures/84-C-20-2.bmp\",\"nala:na\",\"Up\",\"40\",\"3\",\"18\",\"1\",\"S\",\"C\",\"66\"
\"\",\"\",\"approach-retreat\",\"215\",\"1625105\",\"0.0-215.0\",\"\",\"\",\"1-4\",\"5380\",\"39\",\"0\",\"Testing\",\"Stims/Figures/100-C-30-3.bmp\",\"nala:na\",\"Right\",\"37\",\"3\",\"19\",\"1\",\"S\",\"C\",\"67\"
\"\",\"\",\"approach-retreat\",\"216\",\"1631290\",\"0.0-216.0\",\"\",\"\",\"1-4\",\"4656\",\"40\",\"0\",\"Testing\",\"Stims/Figures/71-J-0-1.bmp\",\"tapaka\",\"Up\",\"38\",\"3\",\"20\",\"1\",\"P\",\"C\",\"68\"
\"\",\"\",\"approach-retreat\",\"217\",\"1637855\",\"0.0-217.0\",\"\",\"\",\"1-4\",\"5033\",\"39\",\"1\",\"Testing\",\"Stims/Figures/87-J-10-4.bmp\",\"tapaka\",\"Right\",\"39\",\"3\",\"21\",\"1\",\"P\",\"C\",\"69\"
\"\",\"\",\"approach-retreat\",\"218\",\"1644005\",\"0.0-218.0\",\"\",\"\",\"1-4\",\"4618\",\"40\",\"1\",\"Testing\",\"Stims/Figures/100-J-10-3.bmp\",\"tapaka\",\"Down\",\"40\",\"3\",\"22\",\"1\",\"P\",\"C\",\"70\"
\"\",\"\",\"approach-retreat\",\"219\",\"1649954\",\"0.0-219.0\",\"\",\"\",\"1-4\",\"4420\",\"39\",\"1\",\"Testing\",\"Stims/Figures/7-C-20-4.bmp\",\"nala:na\",\"Left\",\"39\",\"3\",\"23\",\"1\",\"S\",\"C\",\"71\"
\"\",\"\",\"approach-retreat\",\"220\",\"1655606\",\"0.0-220.0\",\"\",\"\",\"1-4\",\"4121\",\"39\",\"1\",\"Testing\",\"Stims/Figures/74-C-20-4.bmp\",\"nala:na\",\"Left\",\"39\",\"3\",\"24\",\"1\",\"S\",\"C\",\"72\"
\"\",\"\",\"approach-retreat\",\"221\",\"1662514\",\"0.0-221.0\",\"\",\"\",\"1-4\",\"5375\",\"40\",\"0\",\"Testing\",\"Stims/Figures/7-J-10-4.bmp\",\"tapaka\",\"Up\",\"38\",\"4\",\"1\",\"1\",\"P\",\"C\",\"73\"
\"\",\"\",\"approach-retreat\",\"222\",\"1668239\",\"0.0-222.0\",\"\",\"\",\"1-4\",\"4197\",\"40\",\"1\",\"Testing\",\"Stims/Figures/27-J-0-1.bmp\",\"tapaka\",\"Down\",\"40\",\"4\",\"2\",\"1\",\"P\",\"C\",\"74\"
\"\",\"\",\"approach-retreat\",\"223\",\"1674175\",\"0.0-223.0\",\"\",\"\",\"1-4\",\"4408\",\"38\",\"0\",\"Testing\",\"Stims/Figures/144-C-30-3.bmp\",\"nala:na\",\"Up\",\"40\",\"4\",\"3\",\"1\",\"S\",\"C\",\"75\"
\"\",\"\",\"approach-retreat\",\"224\",\"1680516\",\"0.0-224.0\",\"\",\"\",\"1-4\",\"4809\",\"39\",\"1\",\"Testing\",\"Stims/Figures/87-J-10-4.bmp\",\"tapaka\",\"Right\",\"39\",\"4\",\"4\",\"1\",\"P\",\"C\",\"76\"
\"\",\"\",\"approach-retreat\",\"225\",\"1687040\",\"0.0-225.0\",\"\",\"\",\"1-4\",\"5014\",\"40\",\"0\",\"Testing\",\"Stims/Figures/85-J-0-2.bmp\",\"tapaka\",\"Up\",\"38\",\"4\",\"5\",\"1\",\"P\",\"C\",\"77\"
\"\",\"\",\"approach-retreat\",\"226\",\"1694008\",\"0.0-226.0\",\"\",\"\",\"1-4\",\"5435\",\"39\",\"0\",\"Testing\",\"Stims/Figures/71-J-0-1.bmp\",\"tapaka\",\"Left\",\"37\",\"4\",\"6\",\"1\",\"P\",\"C\",\"78\"
\"\",\"\",\"approach-retreat\",\"227\",\"1700424\",\"0.0-227.0\",\"\",\"\",\"1-4\",\"4888\",\"40\",\"1\",\"Testing\",\"Stims/Figures/27-C-30-1.bmp\",\"nala:na\",\"Up\",\"40\",\"4\",\"7\",\"1\",\"S\",\"C\",\"79\"
\"\",\"\",\"approach-retreat\",\"228\",\"1710057\",\"0.0-228.0\",\"\",\"\",\"1-4\",\"8103\",\"40\",\"1\",\"Testing\",\"Stims/Figures/100-J-10-3.bmp\",\"tapaka\",\"Down\",\"40\",\"4\",\"8\",\"1\",\"P\",\"C\",\"80\"
\"\",\"\",\"approach-retreat\",\"229\",\"1715941\",\"0.0-229.0\",\"\",\"\",\"1-4\",\"4352\",\"40\",\"1\",\"Testing\",\"Stims/Figures/144-J-10-3.bmp\",\"tapaka\",\"Down\",\"40\",\"4\",\"9\",\"1\",\"P\",\"C\",\"81\"
\"\",\"\",\"approach-retreat\",\"230\",\"1722426\",\"0.0-230.0\",\"\",\"\",\"1-4\",\"4956\",\"38\",\"1\",\"Testing\",\"Stims/Figures/71-C-30-1.bmp\",\"nala:na\",\"Down\",\"38\",\"4\",\"10\",\"1\",\"S\",\"C\",\"82\"
\"\",\"\",\"approach-retreat\",\"231\",\"1731400\",\"0.0-231.0\",\"\",\"\",\"1-4\",\"7446\",\"38\",\"0\",\"Testing\",\"Stims/Figures/94-C-20-2.bmp\",\"nala:na\",\"Up\",\"40\",\"4\",\"11\",\"1\",\"S\",\"C\",\"83\"
\"\",\"\",\"approach-retreat\",\"232\",\"1738698\",\"0.0-232.0\",\"\",\"\",\"1-4\",\"5788\",\"38\",\"1\",\"Testing\",\"Stims/Figures/128-J-10-3.bmp\",\"tapaka\",\"Up\",\"38\",\"4\",\"12\",\"1\",\"P\",\"C\",\"84\"
\"\",\"\",\"approach-retreat\",\"233\",\"1744455\",\"0.0-233.0\",\"\",\"\",\"1-4\",\"4229\",\"39\",\"1\",\"Testing\",\"Stims/Figures/100-C-30-3.bmp\",\"nala:na\",\"Left\",\"39\",\"4\",\"13\",\"1\",\"S\",\"C\",\"85\"
\"\",\"\",\"approach-retreat\",\"234\",\"1750354\",\"0.0-234.0\",\"\",\"\",\"1-4\",\"4369\",\"37\",\"1\",\"Testing\",\"Stims/Figures/86-C-30-1.bmp\",\"nala:na\",\"Right\",\"37\",\"4\",\"14\",\"1\",\"S\",\"C\",\"86\"
\"\",\"\",\"approach-retreat\",\"235\",\"1756084\",\"0.0-235.0\",\"\",\"\",\"1-4\",\"4214\",\"39\",\"0\",\"Testing\",\"Stims/Figures/87-C-20-4.bmp\",\"nala:na\",\"Right\",\"37\",\"4\",\"15\",\"1\",\"S\",\"C\",\"87\"
\"\",\"\",\"approach-retreat\",\"236\",\"1762051\",\"0.0-236.0\",\"\",\"\",\"1-4\",\"4435\",\"37\",\"0\",\"Testing\",\"Stims/Figures/128-C-30-3.bmp\",\"nala:na\",\"Left\",\"39\",\"4\",\"16\",\"1\",\"S\",\"C\",\"88\"
\"\",\"\",\"approach-retreat\",\"237\",\"1768398\",\"0.0-237.0\",\"\",\"\",\"1-4\",\"4817\",\"38\",\"0\",\"Testing\",\"Stims/Figures/86-J-0-1.bmp\",\"tapaka\",\"Down\",\"40\",\"4\",\"17\",\"1\",\"P\",\"C\",\"89\"
\"\",\"\",\"approach-retreat\",\"238\",\"1774938\",\"0.0-238.0\",\"\",\"\",\"1-4\",\"5010\",\"39\",\"0\",\"Testing\",\"Stims/Figures/74-J-10-4.bmp\",\"tapaka\",\"Left\",\"37\",\"4\",\"18\",\"1\",\"P\",\"C\",\"90\"
\"\",\"\",\"approach-retreat\",\"239\",\"1780417\",\"0.0-239.0\",\"\",\"\",\"1-4\",\"3947\",\"37\",\"0\",\"Testing\",\"Stims/Figures/94-J-0-2.bmp\",\"tapaka\",\"Right\",\"39\",\"4\",\"19\",\"1\",\"P\",\"C\",\"91\"
\"\",\"\",\"approach-retreat\",\"240\",\"1786048\",\"0.0-240.0\",\"\",\"\",\"1-4\",\"4099\",\"37\",\"0\",\"Testing\",\"Stims/Figures/84-J-0-2.bmp\",\"tapaka\",\"Right\",\"39\",\"4\",\"20\",\"1\",\"P\",\"C\",\"92\"
\"\",\"\",\"approach-retreat\",\"241\",\"1794884\",\"0.0-241.0\",\"\",\"\",\"1-4\",\"7307\",\"40\",\"0\",\"Testing\",\"Stims/Figures/85-C-20-2.bmp\",\"nala:na\",\"Down\",\"38\",\"4\",\"21\",\"1\",\"S\",\"C\",\"93\"
\"\",\"\",\"approach-retreat\",\"242\",\"1803905\",\"0.0-242.0\",\"\",\"\",\"1-4\",\"7476\",\"37\",\"1\",\"Testing\",\"Stims/Figures/84-C-20-2.bmp\",\"nala:na\",\"Right\",\"37\",\"4\",\"22\",\"1\",\"S\",\"C\",\"94\"
\"\",\"\",\"approach-retreat\",\"243\",\"1809865\",\"0.0-243.0\",\"\",\"\",\"1-4\",\"4429\",\"37\",\"0\",\"Testing\",\"Stims/Figures/74-C-20-4.bmp\",\"nala:na\",\"Left\",\"39\",\"4\",\"23\",\"1\",\"S\",\"C\",\"95\"
\"\",\"\",\"approach-retreat\",\"244\",\"1816199\",\"0.0-244.0\",\"\",\"\",\"1-4\",\"4824\",\"39\",\"1\",\"Testing\",\"Stims/Figures/7-C-20-4.bmp\",\"nala:na\",\"Left\",\"39\",\"4\",\"24\",\"1\",\"S\",\"C\",\"96\"
\"24824\",\"\",\"survey-text\",\"245\",\"1841041\",\"0.0-245.0\",\"\",\"{\"\"Q0\"\":\"\"PS160025\"\"}\",\"\",\"\",\"\",\"\",\"\",\"\",\"\",\"\",\"\",\"\",\"\",\"\",\"\",\"\",\"\"
