\"rt\",\"key_press\",\"trial_type\",\"trial_index\",\"time_elapsed\",\"internal_node_id\",\"view_history\",\"responses\",\"Id\",\"Rt\",\"ResKeyCode\",\"ResCorr\",\"TrialType2\",\"Image\",\"Label\",\"Location\",\"CorrectResponse\",\"Block\",\"BlockTrial\",\"Condition\",\"LabelType\",\"Subcondition\",\"trialNum\"
\"37044\",\"32\",\"text\",\"0\",\"37053\",\"0.0-0.0-0.0\",\"\",\"\",\"\",\"\",\"\",\"\",\"\",\"\",\"\",\"\",\"\",\"\",\"\",\"\",\"\",\"\",\"\"
\"87590\",\"\",\"instructions\",\"1\",\"124649\",\"0.0-1.0\",\"[{\"\"page_index\"\":0,\"\"viewing_time\"\":87586}]\",\"\",\"\",\"\",\"\",\"\",\"\",\"\",\"\",\"\",\"\",\"\",\"\",\"\",\"\",\"\",\"\"
\"28961\",\"\",\"survey-multi-choice\",\"2\",\"153655\",\"0.0-2.0\",\"\",\"{\"\"Q0\"\":\"\"Da\"\",\"\"Q1\"\":\"\"Da\"\",\"\"Q2\"\":\"\"Da\"\",\"\"Q3\"\":\"\"Da\"\",\"\"Q4\"\":\"\"Da\"\",\"\"Q5\"\":\"\"Da\"\"}\",\"\",\"\",\"\",\"\",\"\",\"\",\"\",\"\",\"\",\"\",\"\",\"\",\"\",\"\",\"\"
\"\",\"\",\"bio\",\"3\",\"163103\",\"0.0-3.0\",\"\",\"{\"\"age\"\":\"\"20\"\",\"\"gender\"\":\"\"m\"\",\"\"specify\"\":\"\"\"\"}\",\"\",\"\",\"\",\"\",\"\",\"\",\"\",\"\",\"\",\"\",\"\",\"\",\"\",\"\",\"\"
\"\",\"\",\"approach-retreat\",\"4\",\"175120\",\"0.0-4.0\",\"\",\"\",\"3-5\",\"10503\",\"40\",\"1\",\"Training\",\"Stims/Figures/128-J-10-3.bmp\",\"va:sha:va\",\"Up\",\"40\",\"1\",\"1\",\"9\",\"C1\",\"J\",\"1\"
\"\",\"\",\"approach-retreat\",\"5\",\"182457\",\"0.0-5.0\",\"\",\"\",\"3-5\",\"5816\",\"40\",\"1\",\"Training\",\"Stims/Figures/86-C-30-1.bmp\",\"pa:pa:ka\",\"Down\",\"40\",\"1\",\"2\",\"9\",\"P\",\"J\",\"2\"
\"\",\"\",\"approach-retreat\",\"6\",\"188365\",\"0.0-6.0\",\"\",\"\",\"3-5\",\"4398\",\"39\",\"1\",\"Training\",\"Stims/Figures/86-J-0-1.bmp\",\"paka:ka\",\"Left\",\"39\",\"1\",\"3\",\"9\",\"P\",\"J\",\"3\"
\"\",\"\",\"approach-retreat\",\"7\",\"195523\",\"0.0-7.0\",\"\",\"\",\"3-5\",\"5648\",\"40\",\"1\",\"Training\",\"Stims/Figures/7-C-20-4.bmp\",\"mamala\",\"Down\",\"40\",\"1\",\"4\",\"9\",\"S\",\"J\",\"4\"
\"\",\"\",\"approach-retreat\",\"8\",\"203840\",\"0.0-8.0\",\"\",\"\",\"3-5\",\"6804\",\"37\",\"1\",\"Training\",\"Stims/Figures/128-C-30-3.bmp\",\"mamana\",\"Left\",\"37\",\"1\",\"5\",\"9\",\"S\",\"J\",\"5\"
\"\",\"\",\"approach-retreat\",\"9\",\"209751\",\"0.0-9.0\",\"\",\"\",\"3-5\",\"4397\",\"38\",\"0\",\"Training\",\"Stims/Figures/74-J-10-4.bmp\",\"ma:lana\",\"Up\",\"40\",\"1\",\"6\",\"9\",\"S\",\"J\",\"6\"
\"\",\"\",\"approach-retreat\",\"10\",\"215379\",\"0.0-10.0\",\"\",\"\",\"3-5\",\"4111\",\"39\",\"0\",\"Training\",\"Stims/Figures/84-J-0-2.bmp\",\"pa:pata\",\"Right\",\"37\",\"1\",\"7\",\"9\",\"P\",\"J\",\"7\"
\"\",\"\",\"approach-retreat\",\"11\",\"222397\",\"0.0-11.0\",\"\",\"\",\"3-5\",\"5511\",\"39\",\"1\",\"Training\",\"Stims/Figures/27-C-30-1.bmp\",\"ma:mana\",\"Right\",\"39\",\"1\",\"8\",\"9\",\"S\",\"J\",\"8\"
\"\",\"\",\"approach-retreat\",\"12\",\"230507\",\"0.0-12.0\",\"\",\"\",\"3-5\",\"6603\",\"40\",\"1\",\"Training\",\"Stims/Figures/139-C-20-2.bmp\",\"ma:la:na\",\"Down\",\"40\",\"1\",\"9\",\"9\",\"S\",\"J\",\"9\"
\"\",\"\",\"approach-retreat\",\"13\",\"237389\",\"0.0-13.0\",\"\",\"\",\"3-5\",\"5375\",\"39\",\"1\",\"Training\",\"Stims/Figures/139-J-0-2.bmp\",\"sasa:ha\",\"Left\",\"39\",\"1\",\"10\",\"9\",\"C2\",\"J\",\"10\"
\"\",\"\",\"approach-retreat\",\"14\",\"245541\",\"0.0-14.0\",\"\",\"\",\"3-5\",\"6648\",\"37\",\"1\",\"Training\",\"Stims/Figures/74-C-20-4.bmp\",\"za:haza\",\"Left\",\"37\",\"1\",\"11\",\"9\",\"C2\",\"J\",\"11\"
\"\",\"\",\"approach-retreat\",\"15\",\"253847\",\"0.0-15.0\",\"\",\"\",\"3-5\",\"6789\",\"40\",\"1\",\"Training\",\"Stims/Figures/27-J-0-1.bmp\",\"vafa:sha\",\"Up\",\"40\",\"1\",\"12\",\"9\",\"C1\",\"J\",\"12\"
\"\",\"\",\"approach-retreat\",\"16\",\"260179\",\"0.0-16.0\",\"\",\"\",\"3-5\",\"4820\",\"38\",\"0\",\"Training\",\"Stims/Figures/7-J-10-4.bmp\",\"na:lala\",\"Up\",\"40\",\"1\",\"13\",\"9\",\"S\",\"J\",\"13\"
\"\",\"\",\"approach-retreat\",\"17\",\"267879\",\"0.0-17.0\",\"\",\"\",\"3-5\",\"6193\",\"40\",\"1\",\"Training\",\"Stims/Figures/144-C-30-3.bmp\",\"fa:sha:va\",\"Down\",\"40\",\"1\",\"14\",\"9\",\"C1\",\"J\",\"14\"
\"\",\"\",\"approach-retreat\",\"18\",\"275346\",\"0.0-18.0\",\"\",\"\",\"3-5\",\"5957\",\"39\",\"0\",\"Training\",\"Stims/Figures/144-J-10-3.bmp\",\"sasaza\",\"Right\",\"37\",\"1\",\"15\",\"9\",\"C2\",\"J\",\"15\"
\"\",\"\",\"approach-retreat\",\"19\",\"280980\",\"0.0-19.0\",\"\",\"\",\"3-5\",\"4113\",\"39\",\"1\",\"Training\",\"Stims/Figures/84-C-20-2.bmp\",\"pakata\",\"Right\",\"39\",\"1\",\"16\",\"9\",\"P\",\"J\",\"16\"
\"\",\"\",\"approach-retreat\",\"20\",\"286663\",\"0.0-20.0\",\"\",\"\",\"3-5\",\"4172\",\"38\",\"1\",\"Training\",\"Stims/Figures/128-C-30-3.bmp\",\"mamana\",\"Up\",\"38\",\"2\",\"1\",\"9\",\"S\",\"J\",\"17\"
\"\",\"\",\"approach-retreat\",\"21\",\"292341\",\"0.0-21.0\",\"\",\"\",\"3-5\",\"4163\",\"39\",\"0\",\"Training\",\"Stims/Figures/84-J-0-2.bmp\",\"pa:pata\",\"Right\",\"37\",\"2\",\"2\",\"9\",\"P\",\"J\",\"18\"
\"\",\"\",\"approach-retreat\",\"22\",\"298253\",\"0.0-22.0\",\"\",\"\",\"3-5\",\"4399\",\"37\",\"0\",\"Training\",\"Stims/Figures/74-J-10-4.bmp\",\"ma:lana\",\"Left\",\"39\",\"2\",\"3\",\"9\",\"S\",\"J\",\"19\"
\"\",\"\",\"approach-retreat\",\"23\",\"304653\",\"0.0-23.0\",\"\",\"\",\"3-5\",\"4889\",\"39\",\"0\",\"Training\",\"Stims/Figures/139-J-0-2.bmp\",\"sasa:ha\",\"Right\",\"37\",\"2\",\"4\",\"9\",\"C2\",\"J\",\"20\"
\"\",\"\",\"approach-retreat\",\"24\",\"310716\",\"0.0-24.0\",\"\",\"\",\"3-5\",\"4549\",\"39\",\"0\",\"Training\",\"Stims/Figures/144-C-30-3.bmp\",\"fa:sha:va\",\"Left\",\"37\",\"2\",\"5\",\"9\",\"C1\",\"J\",\"21\"
\"\",\"\",\"approach-retreat\",\"25\",\"316242\",\"0.0-25.0\",\"\",\"\",\"3-5\",\"4018\",\"38\",\"1\",\"Training\",\"Stims/Figures/144-J-10-3.bmp\",\"sasaza\",\"Down\",\"38\",\"2\",\"6\",\"9\",\"C2\",\"J\",\"22\"
\"\",\"\",\"approach-retreat\",\"26\",\"321926\",\"0.0-26.0\",\"\",\"\",\"3-5\",\"4179\",\"38\",\"1\",\"Training\",\"Stims/Figures/27-J-0-1.bmp\",\"vafa:sha\",\"Down\",\"38\",\"2\",\"7\",\"9\",\"C1\",\"J\",\"23\"
\"\",\"\",\"approach-retreat\",\"27\",\"327702\",\"0.0-27.0\",\"\",\"\",\"3-5\",\"4270\",\"40\",\"1\",\"Training\",\"Stims/Figures/74-C-20-4.bmp\",\"za:haza\",\"Down\",\"40\",\"2\",\"8\",\"9\",\"C2\",\"J\",\"24\"
\"\",\"\",\"approach-retreat\",\"28\",\"333700\",\"0.0-28.0\",\"\",\"\",\"3-5\",\"4488\",\"40\",\"1\",\"Training\",\"Stims/Figures/86-J-0-1.bmp\",\"paka:ka\",\"Up\",\"40\",\"2\",\"9\",\"9\",\"P\",\"J\",\"25\"
\"\",\"\",\"approach-retreat\",\"29\",\"339294\",\"0.0-29.0\",\"\",\"\",\"3-5\",\"4074\",\"38\",\"1\",\"Training\",\"Stims/Figures/7-C-20-4.bmp\",\"mamala\",\"Up\",\"38\",\"2\",\"10\",\"9\",\"S\",\"J\",\"26\"
\"\",\"\",\"approach-retreat\",\"30\",\"345846\",\"0.0-30.0\",\"\",\"\",\"3-5\",\"5033\",\"39\",\"0\",\"Training\",\"Stims/Figures/86-C-30-1.bmp\",\"pa:pa:ka\",\"Left\",\"37\",\"2\",\"11\",\"9\",\"P\",\"J\",\"27\"
\"\",\"\",\"approach-retreat\",\"31\",\"352256\",\"0.0-31.0\",\"\",\"\",\"3-5\",\"4892\",\"40\",\"0\",\"Training\",\"Stims/Figures/139-C-20-2.bmp\",\"ma:la:na\",\"Up\",\"38\",\"2\",\"12\",\"9\",\"S\",\"J\",\"28\"
\"\",\"\",\"approach-retreat\",\"32\",\"358037\",\"0.0-32.0\",\"\",\"\",\"3-5\",\"4263\",\"37\",\"0\",\"Training\",\"Stims/Figures/84-C-20-2.bmp\",\"pakata\",\"Right\",\"39\",\"2\",\"13\",\"9\",\"P\",\"J\",\"29\"
\"\",\"\",\"approach-retreat\",\"33\",\"363570\",\"0.0-33.0\",\"\",\"\",\"3-5\",\"4026\",\"39\",\"1\",\"Training\",\"Stims/Figures/27-C-30-1.bmp\",\"ma:mana\",\"Right\",\"39\",\"2\",\"14\",\"9\",\"S\",\"J\",\"30\"
\"\",\"\",\"approach-retreat\",\"34\",\"370531\",\"0.0-34.0\",\"\",\"\",\"3-5\",\"5448\",\"40\",\"0\",\"Training\",\"Stims/Figures/7-J-10-4.bmp\",\"na:lala\",\"Down\",\"38\",\"2\",\"15\",\"9\",\"S\",\"J\",\"31\"
\"\",\"\",\"approach-retreat\",\"35\",\"377083\",\"0.0-35.0\",\"\",\"\",\"3-5\",\"5044\",\"39\",\"1\",\"Training\",\"Stims/Figures/128-J-10-3.bmp\",\"va:sha:va\",\"Left\",\"39\",\"2\",\"16\",\"9\",\"C1\",\"J\",\"32\"
\"\",\"\",\"approach-retreat\",\"36\",\"383741\",\"0.0-36.0\",\"\",\"\",\"3-5\",\"5152\",\"37\",\"1\",\"Training\",\"Stims/Figures/139-J-0-2.bmp\",\"sasa:ha\",\"Right\",\"37\",\"3\",\"1\",\"9\",\"C2\",\"J\",\"33\"
\"\",\"\",\"approach-retreat\",\"37\",\"390279\",\"0.0-37.0\",\"\",\"\",\"3-5\",\"5026\",\"38\",\"0\",\"Training\",\"Stims/Figures/128-J-10-3.bmp\",\"va:sha:va\",\"Up\",\"40\",\"3\",\"2\",\"9\",\"C1\",\"J\",\"34\"
\"\",\"\",\"approach-retreat\",\"38\",\"396325\",\"0.0-38.0\",\"\",\"\",\"3-5\",\"4536\",\"39\",\"0\",\"Training\",\"Stims/Figures/84-J-0-2.bmp\",\"pa:pata\",\"Right\",\"37\",\"3\",\"3\",\"9\",\"P\",\"J\",\"35\"
\"\",\"\",\"approach-retreat\",\"39\",\"402782\",\"0.0-39.0\",\"\",\"\",\"3-5\",\"4943\",\"40\",\"1\",\"Training\",\"Stims/Figures/139-C-20-2.bmp\",\"ma:la:na\",\"Down\",\"40\",\"3\",\"4\",\"9\",\"S\",\"J\",\"36\"
\"\",\"\",\"approach-retreat\",\"40\",\"408536\",\"0.0-40.0\",\"\",\"\",\"3-5\",\"4246\",\"39\",\"1\",\"Training\",\"Stims/Figures/86-J-0-1.bmp\",\"paka:ka\",\"Left\",\"39\",\"3\",\"5\",\"9\",\"P\",\"J\",\"37\"
\"\",\"\",\"approach-retreat\",\"41\",\"414291\",\"0.0-41.0\",\"\",\"\",\"3-5\",\"4250\",\"38\",\"1\",\"Training\",\"Stims/Figures/74-C-20-4.bmp\",\"za:haza\",\"Up\",\"38\",\"3\",\"6\",\"9\",\"C2\",\"J\",\"38\"
\"\",\"\",\"approach-retreat\",\"42\",\"420054\",\"0.0-42.0\",\"\",\"\",\"3-5\",\"4250\",\"39\",\"0\",\"Training\",\"Stims/Figures/74-J-10-4.bmp\",\"ma:lana\",\"Right\",\"37\",\"3\",\"7\",\"9\",\"S\",\"J\",\"39\"
\"\",\"\",\"approach-retreat\",\"43\",\"425946\",\"0.0-43.0\",\"\",\"\",\"3-5\",\"4386\",\"38\",\"1\",\"Training\",\"Stims/Figures/86-C-30-1.bmp\",\"pa:pa:ka\",\"Up\",\"38\",\"3\",\"8\",\"9\",\"P\",\"J\",\"40\"
\"\",\"\",\"approach-retreat\",\"44\",\"431706\",\"0.0-44.0\",\"\",\"\",\"3-5\",\"4248\",\"37\",\"0\",\"Training\",\"Stims/Figures/27-C-30-1.bmp\",\"ma:mana\",\"Right\",\"39\",\"3\",\"9\",\"9\",\"S\",\"J\",\"41\"
\"\",\"\",\"approach-retreat\",\"45\",\"438642\",\"0.0-45.0\",\"\",\"\",\"3-5\",\"5430\",\"38\",\"1\",\"Training\",\"Stims/Figures/144-J-10-3.bmp\",\"sasaza\",\"Down\",\"38\",\"3\",\"10\",\"9\",\"C2\",\"J\",\"42\"
\"\",\"\",\"approach-retreat\",\"46\",\"447466\",\"0.0-46.0\",\"\",\"\",\"3-5\",\"7318\",\"37\",\"1\",\"Training\",\"Stims/Figures/128-C-30-3.bmp\",\"mamana\",\"Left\",\"37\",\"3\",\"11\",\"9\",\"S\",\"J\",\"43\"
\"\",\"\",\"approach-retreat\",\"47\",\"453080\",\"0.0-47.0\",\"\",\"\",\"3-5\",\"4104\",\"40\",\"0\",\"Training\",\"Stims/Figures/7-J-10-4.bmp\",\"na:lala\",\"Down\",\"38\",\"3\",\"12\",\"9\",\"S\",\"J\",\"44\"
\"\",\"\",\"approach-retreat\",\"48\",\"458841\",\"0.0-48.0\",\"\",\"\",\"3-5\",\"4254\",\"37\",\"1\",\"Training\",\"Stims/Figures/144-C-30-3.bmp\",\"fa:sha:va\",\"Left\",\"37\",\"3\",\"13\",\"9\",\"C1\",\"J\",\"45\"
\"\",\"\",\"approach-retreat\",\"49\",\"465622\",\"0.0-49.0\",\"\",\"\",\"3-5\",\"5274\",\"39\",\"1\",\"Training\",\"Stims/Figures/27-J-0-1.bmp\",\"vafa:sha\",\"Left\",\"39\",\"3\",\"14\",\"9\",\"C1\",\"J\",\"46\"
\"\",\"\",\"approach-retreat\",\"50\",\"471616\",\"0.0-50.0\",\"\",\"\",\"3-5\",\"4485\",\"40\",\"1\",\"Training\",\"Stims/Figures/7-C-20-4.bmp\",\"mamala\",\"Down\",\"40\",\"3\",\"15\",\"9\",\"S\",\"J\",\"47\"
\"\",\"\",\"approach-retreat\",\"51\",\"477258\",\"0.0-51.0\",\"\",\"\",\"3-5\",\"4135\",\"40\",\"0\",\"Training\",\"Stims/Figures/84-C-20-2.bmp\",\"pakata\",\"Up\",\"38\",\"3\",\"16\",\"9\",\"P\",\"J\",\"48\"
\"\",\"\",\"approach-retreat\",\"52\",\"483424\",\"0.0-52.0\",\"\",\"\",\"3-5\",\"4651\",\"40\",\"0\",\"Training\",\"Stims/Figures/128-J-10-3.bmp\",\"va:sha:va\",\"Down\",\"38\",\"4\",\"1\",\"9\",\"C1\",\"J\",\"49\"
\"\",\"\",\"approach-retreat\",\"53\",\"489075\",\"0.0-53.0\",\"\",\"\",\"3-5\",\"4145\",\"37\",\"1\",\"Training\",\"Stims/Figures/84-J-0-2.bmp\",\"pa:pata\",\"Right\",\"37\",\"4\",\"2\",\"9\",\"P\",\"J\",\"50\"
\"\",\"\",\"approach-retreat\",\"54\",\"494843\",\"0.0-54.0\",\"\",\"\",\"3-5\",\"4251\",\"40\",\"0\",\"Training\",\"Stims/Figures/86-J-0-1.bmp\",\"paka:ka\",\"Down\",\"38\",\"4\",\"3\",\"9\",\"P\",\"J\",\"51\"
\"\",\"\",\"approach-retreat\",\"55\",\"500582\",\"0.0-55.0\",\"\",\"\",\"3-5\",\"4229\",\"40\",\"0\",\"Training\",\"Stims/Figures/74-C-20-4.bmp\",\"za:haza\",\"Up\",\"38\",\"4\",\"4\",\"9\",\"C2\",\"J\",\"52\"
\"\",\"\",\"approach-retreat\",\"56\",\"506156\",\"0.0-56.0\",\"\",\"\",\"3-5\",\"4068\",\"38\",\"1\",\"Training\",\"Stims/Figures/7-J-10-4.bmp\",\"na:lala\",\"Down\",\"38\",\"4\",\"5\",\"9\",\"S\",\"J\",\"53\"
\"\",\"\",\"approach-retreat\",\"57\",\"514056\",\"0.0-57.0\",\"\",\"\",\"3-5\",\"6394\",\"37\",\"1\",\"Training\",\"Stims/Figures/139-C-20-2.bmp\",\"ma:la:na\",\"Left\",\"37\",\"4\",\"6\",\"9\",\"S\",\"J\",\"54\"
\"\",\"\",\"approach-retreat\",\"58\",\"520167\",\"0.0-58.0\",\"\",\"\",\"3-5\",\"4600\",\"38\",\"0\",\"Training\",\"Stims/Figures/74-J-10-4.bmp\",\"ma:lana\",\"Up\",\"40\",\"4\",\"7\",\"9\",\"S\",\"J\",\"55\"
\"\",\"\",\"approach-retreat\",\"59\",\"526378\",\"0.0-59.0\",\"\",\"\",\"3-5\",\"4704\",\"39\",\"1\",\"Training\",\"Stims/Figures/27-J-0-1.bmp\",\"vafa:sha\",\"Left\",\"39\",\"4\",\"8\",\"9\",\"C1\",\"J\",\"56\"
\"\",\"\",\"approach-retreat\",\"60\",\"532755\",\"0.0-60.0\",\"\",\"\",\"3-5\",\"4862\",\"39\",\"0\",\"Training\",\"Stims/Figures/144-J-10-3.bmp\",\"sasaza\",\"Right\",\"37\",\"4\",\"9\",\"9\",\"C2\",\"J\",\"57\"
\"\",\"\",\"approach-retreat\",\"61\",\"539889\",\"0.0-61.0\",\"\",\"\",\"3-5\",\"5629\",\"38\",\"1\",\"Training\",\"Stims/Figures/7-C-20-4.bmp\",\"mamala\",\"Up\",\"38\",\"4\",\"10\",\"9\",\"S\",\"J\",\"58\"
\"\",\"\",\"approach-retreat\",\"62\",\"545494\",\"0.0-62.0\",\"\",\"\",\"3-5\",\"4097\",\"40\",\"0\",\"Training\",\"Stims/Figures/27-C-30-1.bmp\",\"ma:mana\",\"Up\",\"38\",\"4\",\"11\",\"9\",\"S\",\"J\",\"59\"
\"\",\"\",\"approach-retreat\",\"63\",\"551161\",\"0.0-63.0\",\"\",\"\",\"3-5\",\"4163\",\"40\",\"1\",\"Training\",\"Stims/Figures/84-C-20-2.bmp\",\"pakata\",\"Down\",\"40\",\"4\",\"12\",\"9\",\"P\",\"J\",\"60\"
\"\",\"\",\"approach-retreat\",\"64\",\"557033\",\"0.0-64.0\",\"\",\"\",\"3-5\",\"4364\",\"37\",\"0\",\"Training\",\"Stims/Figures/144-C-30-3.bmp\",\"fa:sha:va\",\"Right\",\"39\",\"4\",\"13\",\"9\",\"C1\",\"J\",\"61\"
\"\",\"\",\"approach-retreat\",\"65\",\"563312\",\"0.0-65.0\",\"\",\"\",\"3-5\",\"4771\",\"39\",\"1\",\"Training\",\"Stims/Figures/128-C-30-3.bmp\",\"mamana\",\"Right\",\"39\",\"4\",\"14\",\"9\",\"S\",\"J\",\"62\"
\"\",\"\",\"approach-retreat\",\"66\",\"569621\",\"0.0-66.0\",\"\",\"\",\"3-5\",\"4803\",\"37\",\"0\",\"Training\",\"Stims/Figures/139-J-0-2.bmp\",\"sasa:ha\",\"Left\",\"39\",\"4\",\"15\",\"9\",\"C2\",\"J\",\"63\"
\"\",\"\",\"approach-retreat\",\"67\",\"576538\",\"0.0-67.0\",\"\",\"\",\"3-5\",\"5406\",\"39\",\"0\",\"Training\",\"Stims/Figures/86-C-30-1.bmp\",\"pa:pa:ka\",\"Left\",\"37\",\"4\",\"16\",\"9\",\"P\",\"J\",\"64\"
\"\",\"\",\"approach-retreat\",\"68\",\"586851\",\"0.0-68.0\",\"\",\"\",\"3-5\",\"8812\",\"40\",\"1\",\"Training\",\"Stims/Figures/27-J-0-1.bmp\",\"vafa:sha\",\"Up\",\"40\",\"5\",\"1\",\"9\",\"C1\",\"J\",\"65\"
\"\",\"\",\"approach-retreat\",\"69\",\"594549\",\"0.0-69.0\",\"\",\"\",\"3-5\",\"6187\",\"39\",\"0\",\"Training\",\"Stims/Figures/74-J-10-4.bmp\",\"ma:lana\",\"Right\",\"37\",\"5\",\"2\",\"9\",\"S\",\"J\",\"66\"
\"\",\"\",\"approach-retreat\",\"70\",\"601687\",\"0.0-70.0\",\"\",\"\",\"3-5\",\"5635\",\"37\",\"1\",\"Training\",\"Stims/Figures/86-C-30-1.bmp\",\"pa:pa:ka\",\"Left\",\"37\",\"5\",\"3\",\"9\",\"P\",\"J\",\"67\"
\"\",\"\",\"approach-retreat\",\"71\",\"607849\",\"0.0-71.0\",\"\",\"\",\"3-5\",\"4657\",\"40\",\"1\",\"Training\",\"Stims/Figures/86-J-0-1.bmp\",\"paka:ka\",\"Up\",\"40\",\"5\",\"4\",\"9\",\"P\",\"J\",\"68\"
\"\",\"\",\"approach-retreat\",\"72\",\"616794\",\"0.0-72.0\",\"\",\"\",\"3-5\",\"7439\",\"39\",\"1\",\"Training\",\"Stims/Figures/7-C-20-4.bmp\",\"mamala\",\"Right\",\"39\",\"5\",\"5\",\"9\",\"S\",\"J\",\"69\"
\"\",\"\",\"approach-retreat\",\"73\",\"623207\",\"0.0-73.0\",\"\",\"\",\"3-5\",\"4907\",\"38\",\"0\",\"Training\",\"Stims/Figures/139-C-20-2.bmp\",\"ma:la:na\",\"Down\",\"40\",\"5\",\"6\",\"9\",\"S\",\"J\",\"70\"
\"\",\"\",\"approach-retreat\",\"74\",\"629694\",\"0.0-74.0\",\"\",\"\",\"3-5\",\"4982\",\"39\",\"1\",\"Training\",\"Stims/Figures/144-C-30-3.bmp\",\"fa:sha:va\",\"Right\",\"39\",\"5\",\"7\",\"9\",\"C1\",\"J\",\"71\"
\"\",\"\",\"approach-retreat\",\"75\",\"635460\",\"0.0-75.0\",\"\",\"\",\"3-5\",\"4260\",\"37\",\"1\",\"Training\",\"Stims/Figures/27-C-30-1.bmp\",\"ma:mana\",\"Left\",\"37\",\"5\",\"8\",\"9\",\"S\",\"J\",\"72\"
\"\",\"\",\"approach-retreat\",\"76\",\"641401\",\"0.0-76.0\",\"\",\"\",\"3-5\",\"4439\",\"37\",\"0\",\"Training\",\"Stims/Figures/74-C-20-4.bmp\",\"za:haza\",\"Right\",\"39\",\"5\",\"9\",\"9\",\"C2\",\"J\",\"73\"
\"\",\"\",\"approach-retreat\",\"77\",\"647090\",\"0.0-77.0\",\"\",\"\",\"3-5\",\"4184\",\"37\",\"0\",\"Training\",\"Stims/Figures/128-J-10-3.bmp\",\"va:sha:va\",\"Left\",\"39\",\"5\",\"10\",\"9\",\"C1\",\"J\",\"74\"
\"\",\"\",\"approach-retreat\",\"78\",\"652656\",\"0.0-78.0\",\"\",\"\",\"3-5\",\"4059\",\"37\",\"0\",\"Training\",\"Stims/Figures/144-J-10-3.bmp\",\"sasaza\",\"Left\",\"39\",\"5\",\"11\",\"9\",\"C2\",\"J\",\"75\"
\"\",\"\",\"approach-retreat\",\"79\",\"658306\",\"0.0-79.0\",\"\",\"\",\"3-5\",\"4130\",\"40\",\"0\",\"Training\",\"Stims/Figures/84-J-0-2.bmp\",\"pa:pata\",\"Down\",\"38\",\"5\",\"12\",\"9\",\"P\",\"J\",\"76\"
\"\",\"\",\"approach-retreat\",\"80\",\"664721\",\"0.0-80.0\",\"\",\"\",\"3-5\",\"4910\",\"40\",\"1\",\"Training\",\"Stims/Figures/128-C-30-3.bmp\",\"mamana\",\"Down\",\"40\",\"5\",\"13\",\"9\",\"S\",\"J\",\"77\"
\"\",\"\",\"approach-retreat\",\"81\",\"670530\",\"0.0-81.0\",\"\",\"\",\"3-5\",\"4304\",\"40\",\"1\",\"Training\",\"Stims/Figures/139-J-0-2.bmp\",\"sasa:ha\",\"Up\",\"40\",\"5\",\"14\",\"9\",\"C2\",\"J\",\"78\"
\"\",\"\",\"approach-retreat\",\"82\",\"679019\",\"0.0-82.0\",\"\",\"\",\"3-5\",\"6980\",\"40\",\"0\",\"Training\",\"Stims/Figures/7-J-10-4.bmp\",\"na:lala\",\"Down\",\"38\",\"5\",\"15\",\"9\",\"S\",\"J\",\"79\"
\"\",\"\",\"approach-retreat\",\"83\",\"684702\",\"0.0-83.0\",\"\",\"\",\"3-5\",\"4181\",\"38\",\"1\",\"Training\",\"Stims/Figures/84-C-20-2.bmp\",\"pakata\",\"Up\",\"38\",\"5\",\"16\",\"9\",\"P\",\"J\",\"80\"
\"\",\"\",\"approach-retreat\",\"84\",\"691555\",\"0.0-84.0\",\"\",\"\",\"3-5\",\"5351\",\"40\",\"0\",\"Training\",\"Stims/Figures/7-C-20-4.bmp\",\"mamala\",\"Up\",\"38\",\"6\",\"1\",\"9\",\"S\",\"J\",\"81\"
\"\",\"\",\"approach-retreat\",\"85\",\"697615\",\"0.0-85.0\",\"\",\"\",\"3-5\",\"4556\",\"40\",\"1\",\"Training\",\"Stims/Figures/139-C-20-2.bmp\",\"ma:la:na\",\"Down\",\"40\",\"6\",\"2\",\"9\",\"S\",\"J\",\"82\"
\"\",\"\",\"approach-retreat\",\"86\",\"703401\",\"0.0-86.0\",\"\",\"\",\"3-5\",\"4284\",\"39\",\"1\",\"Training\",\"Stims/Figures/86-C-30-1.bmp\",\"pa:pa:ka\",\"Right\",\"39\",\"6\",\"3\",\"9\",\"P\",\"J\",\"83\"
\"\",\"\",\"approach-retreat\",\"87\",\"709098\",\"0.0-87.0\",\"\",\"\",\"3-5\",\"4189\",\"39\",\"0\",\"Training\",\"Stims/Figures/27-J-0-1.bmp\",\"vafa:sha\",\"Right\",\"37\",\"6\",\"4\",\"9\",\"C1\",\"J\",\"84\"
\"\",\"\",\"approach-retreat\",\"88\",\"715042\",\"0.0-88.0\",\"\",\"\",\"3-5\",\"4434\",\"39\",\"0\",\"Training\",\"Stims/Figures/144-C-30-3.bmp\",\"fa:sha:va\",\"Left\",\"37\",\"6\",\"5\",\"9\",\"C1\",\"J\",\"85\"
\"\",\"\",\"approach-retreat\",\"89\",\"720841\",\"0.0-89.0\",\"\",\"\",\"3-5\",\"4295\",\"37\",\"1\",\"Training\",\"Stims/Figures/86-J-0-1.bmp\",\"paka:ka\",\"Right\",\"37\",\"6\",\"6\",\"9\",\"P\",\"J\",\"86\"
\"\",\"\",\"approach-retreat\",\"90\",\"726765\",\"0.0-90.0\",\"\",\"\",\"3-5\",\"4416\",\"39\",\"0\",\"Training\",\"Stims/Figures/128-C-30-3.bmp\",\"mamana\",\"Left\",\"37\",\"6\",\"7\",\"9\",\"S\",\"J\",\"87\"
\"\",\"\",\"approach-retreat\",\"91\",\"732417\",\"0.0-91.0\",\"\",\"\",\"3-5\",\"4146\",\"37\",\"1\",\"Training\",\"Stims/Figures/139-J-0-2.bmp\",\"sasa:ha\",\"Right\",\"37\",\"6\",\"8\",\"9\",\"C2\",\"J\",\"88\"
\"\",\"\",\"approach-retreat\",\"92\",\"738225\",\"0.0-92.0\",\"\",\"\",\"3-5\",\"4303\",\"37\",\"1\",\"Training\",\"Stims/Figures/84-C-20-2.bmp\",\"pakata\",\"Left\",\"37\",\"6\",\"9\",\"9\",\"P\",\"J\",\"89\"
\"\",\"\",\"approach-retreat\",\"93\",\"743932\",\"0.0-93.0\",\"\",\"\",\"3-5\",\"4196\",\"38\",\"0\",\"Training\",\"Stims/Figures/84-J-0-2.bmp\",\"pa:pata\",\"Up\",\"40\",\"6\",\"10\",\"9\",\"P\",\"J\",\"90\"
\"\",\"\",\"approach-retreat\",\"94\",\"749857\",\"0.0-94.0\",\"\",\"\",\"3-5\",\"4419\",\"38\",\"1\",\"Training\",\"Stims/Figures/7-J-10-4.bmp\",\"na:lala\",\"Down\",\"38\",\"6\",\"11\",\"9\",\"S\",\"J\",\"91\"
\"\",\"\",\"approach-retreat\",\"95\",\"756261\",\"0.0-95.0\",\"\",\"\",\"3-5\",\"4901\",\"39\",\"1\",\"Training\",\"Stims/Figures/128-J-10-3.bmp\",\"va:sha:va\",\"Left\",\"39\",\"6\",\"12\",\"9\",\"C1\",\"J\",\"92\"
\"\",\"\",\"approach-retreat\",\"96\",\"763456\",\"0.0-96.0\",\"\",\"\",\"3-5\",\"5693\",\"38\",\"1\",\"Training\",\"Stims/Figures/144-J-10-3.bmp\",\"sasaza\",\"Down\",\"38\",\"6\",\"13\",\"9\",\"C2\",\"J\",\"93\"
\"\",\"\",\"approach-retreat\",\"97\",\"769318\",\"0.0-97.0\",\"\",\"\",\"3-5\",\"4351\",\"38\",\"0\",\"Training\",\"Stims/Figures/74-J-10-4.bmp\",\"ma:lana\",\"Up\",\"40\",\"6\",\"14\",\"9\",\"S\",\"J\",\"94\"
\"\",\"\",\"approach-retreat\",\"98\",\"776074\",\"0.0-98.0\",\"\",\"\",\"3-5\",\"5249\",\"40\",\"0\",\"Training\",\"Stims/Figures/27-C-30-1.bmp\",\"ma:mana\",\"Up\",\"38\",\"6\",\"15\",\"9\",\"S\",\"J\",\"95\"
\"\",\"\",\"approach-retreat\",\"99\",\"784669\",\"0.0-99.0\",\"\",\"\",\"3-5\",\"7086\",\"38\",\"0\",\"Training\",\"Stims/Figures/74-C-20-4.bmp\",\"za:haza\",\"Down\",\"40\",\"6\",\"16\",\"9\",\"C2\",\"J\",\"96\"
\"\",\"\",\"approach-retreat\",\"100\",\"790389\",\"0.0-100.0\",\"\",\"\",\"3-5\",\"4214\",\"40\",\"1\",\"Training\",\"Stims/Figures/84-J-0-2.bmp\",\"pa:pata\",\"Up\",\"40\",\"7\",\"1\",\"9\",\"P\",\"J\",\"97\"
\"\",\"\",\"approach-retreat\",\"101\",\"796500\",\"0.0-101.0\",\"\",\"\",\"3-5\",\"4604\",\"38\",\"1\",\"Training\",\"Stims/Figures/128-J-10-3.bmp\",\"va:sha:va\",\"Down\",\"38\",\"7\",\"2\",\"9\",\"C1\",\"J\",\"98\"
\"\",\"\",\"approach-retreat\",\"102\",\"803493\",\"0.0-102.0\",\"\",\"\",\"3-5\",\"5487\",\"40\",\"0\",\"Training\",\"Stims/Figures/128-C-30-3.bmp\",\"mamana\",\"Up\",\"38\",\"7\",\"3\",\"9\",\"S\",\"J\",\"99\"
\"\",\"\",\"approach-retreat\",\"103\",\"809324\",\"0.0-103.0\",\"\",\"\",\"3-5\",\"4325\",\"39\",\"0\",\"Training\",\"Stims/Figures/27-C-30-1.bmp\",\"ma:mana\",\"Left\",\"37\",\"7\",\"4\",\"9\",\"S\",\"J\",\"100\"
\"\",\"\",\"approach-retreat\",\"104\",\"814947\",\"0.0-104.0\",\"\",\"\",\"3-5\",\"4118\",\"39\",\"1\",\"Training\",\"Stims/Figures/144-J-10-3.bmp\",\"sasaza\",\"Left\",\"39\",\"7\",\"5\",\"9\",\"C2\",\"J\",\"101\"
\"\",\"\",\"approach-retreat\",\"105\",\"820427\",\"0.0-105.0\",\"\",\"\",\"3-5\",\"3970\",\"39\",\"0\",\"Training\",\"Stims/Figures/84-C-20-2.bmp\",\"pakata\",\"Left\",\"37\",\"7\",\"6\",\"9\",\"P\",\"J\",\"102\"
\"\",\"\",\"approach-retreat\",\"106\",\"827406\",\"0.0-106.0\",\"\",\"\",\"3-5\",\"5474\",\"37\",\"0\",\"Training\",\"Stims/Figures/7-C-20-4.bmp\",\"mamala\",\"Right\",\"39\",\"7\",\"7\",\"9\",\"S\",\"J\",\"103\"
\"\",\"\",\"approach-retreat\",\"107\",\"833013\",\"0.0-107.0\",\"\",\"\",\"3-5\",\"4093\",\"38\",\"0\",\"Training\",\"Stims/Figures/74-C-20-4.bmp\",\"za:haza\",\"Down\",\"40\",\"7\",\"8\",\"9\",\"C2\",\"J\",\"104\"
\"\",\"\",\"approach-retreat\",\"108\",\"838524\",\"0.0-108.0\",\"\",\"\",\"3-5\",\"4006\",\"39\",\"1\",\"Training\",\"Stims/Figures/139-J-0-2.bmp\",\"sasa:ha\",\"Left\",\"39\",\"7\",\"9\",\"9\",\"C2\",\"J\",\"105\"
\"\",\"\",\"approach-retreat\",\"109\",\"844148\",\"0.0-109.0\",\"\",\"\",\"3-5\",\"4111\",\"38\",\"0\",\"Training\",\"Stims/Figures/144-C-30-3.bmp\",\"fa:sha:va\",\"Down\",\"40\",\"7\",\"10\",\"9\",\"C1\",\"J\",\"106\"
\"\",\"\",\"approach-retreat\",\"110\",\"849881\",\"0.0-110.0\",\"\",\"\",\"3-5\",\"4229\",\"37\",\"1\",\"Training\",\"Stims/Figures/86-J-0-1.bmp\",\"paka:ka\",\"Right\",\"37\",\"7\",\"11\",\"9\",\"P\",\"J\",\"107\"
\"\",\"\",\"approach-retreat\",\"111\",\"855921\",\"0.0-111.0\",\"\",\"\",\"3-5\",\"4535\",\"38\",\"1\",\"Training\",\"Stims/Figures/139-C-20-2.bmp\",\"ma:la:na\",\"Up\",\"38\",\"7\",\"12\",\"9\",\"S\",\"J\",\"108\"
\"\",\"\",\"approach-retreat\",\"112\",\"861935\",\"0.0-112.0\",\"\",\"\",\"3-5\",\"4502\",\"37\",\"0\",\"Training\",\"Stims/Figures/86-C-30-1.bmp\",\"pa:pa:ka\",\"Right\",\"39\",\"7\",\"13\",\"9\",\"P\",\"J\",\"109\"
\"\",\"\",\"approach-retreat\",\"113\",\"867932\",\"0.0-113.0\",\"\",\"\",\"3-5\",\"4492\",\"38\",\"1\",\"Training\",\"Stims/Figures/74-J-10-4.bmp\",\"ma:lana\",\"Down\",\"38\",\"7\",\"14\",\"9\",\"S\",\"J\",\"110\"
\"\",\"\",\"approach-retreat\",\"114\",\"873860\",\"0.0-114.0\",\"\",\"\",\"3-5\",\"4415\",\"38\",\"0\",\"Training\",\"Stims/Figures/7-J-10-4.bmp\",\"na:lala\",\"Up\",\"40\",\"7\",\"15\",\"9\",\"S\",\"J\",\"111\"
\"\",\"\",\"approach-retreat\",\"115\",\"879904\",\"0.0-115.0\",\"\",\"\",\"3-5\",\"4534\",\"39\",\"0\",\"Training\",\"Stims/Figures/27-J-0-1.bmp\",\"vafa:sha\",\"Right\",\"37\",\"7\",\"16\",\"9\",\"C1\",\"J\",\"112\"
\"\",\"\",\"approach-retreat\",\"116\",\"885575\",\"0.0-116.0\",\"\",\"\",\"3-5\",\"4169\",\"39\",\"0\",\"Training\",\"Stims/Figures/86-C-30-1.bmp\",\"pa:pa:ka\",\"Left\",\"37\",\"8\",\"1\",\"9\",\"P\",\"J\",\"113\"
\"\",\"\",\"approach-retreat\",\"117\",\"891237\",\"0.0-117.0\",\"\",\"\",\"3-5\",\"4158\",\"37\",\"1\",\"Training\",\"Stims/Figures/74-J-10-4.bmp\",\"ma:lana\",\"Right\",\"37\",\"8\",\"2\",\"9\",\"S\",\"J\",\"114\"
\"\",\"\",\"approach-retreat\",\"118\",\"896899\",\"0.0-118.0\",\"\",\"\",\"3-5\",\"4161\",\"38\",\"0\",\"Training\",\"Stims/Figures/128-C-30-3.bmp\",\"mamana\",\"Down\",\"40\",\"8\",\"3\",\"9\",\"S\",\"J\",\"115\"
\"\",\"\",\"approach-retreat\",\"119\",\"902549\",\"0.0-119.0\",\"\",\"\",\"3-5\",\"4139\",\"40\",\"0\",\"Training\",\"Stims/Figures/144-C-30-3.bmp\",\"fa:sha:va\",\"Up\",\"38\",\"8\",\"4\",\"9\",\"C1\",\"J\",\"116\"
\"\",\"\",\"approach-retreat\",\"120\",\"908024\",\"0.0-120.0\",\"\",\"\",\"3-5\",\"3972\",\"39\",\"1\",\"Training\",\"Stims/Figures/27-J-0-1.bmp\",\"vafa:sha\",\"Left\",\"39\",\"8\",\"5\",\"9\",\"C1\",\"J\",\"117\"
\"\",\"\",\"approach-retreat\",\"121\",\"914241\",\"0.0-121.0\",\"\",\"\",\"3-5\",\"4714\",\"39\",\"0\",\"Training\",\"Stims/Figures/128-J-10-3.bmp\",\"va:sha:va\",\"Right\",\"37\",\"8\",\"6\",\"9\",\"C1\",\"J\",\"118\"
\"\",\"\",\"approach-retreat\",\"122\",\"919931\",\"0.0-122.0\",\"\",\"\",\"3-5\",\"4184\",\"39\",\"0\",\"Training\",\"Stims/Figures/84-C-20-2.bmp\",\"pakata\",\"Left\",\"37\",\"8\",\"7\",\"9\",\"P\",\"J\",\"119\"
\"\",\"\",\"approach-retreat\",\"123\",\"926259\",\"0.0-123.0\",\"\",\"\",\"3-5\",\"4814\",\"40\",\"0\",\"Training\",\"Stims/Figures/7-C-20-4.bmp\",\"mamala\",\"Up\",\"38\",\"8\",\"8\",\"9\",\"S\",\"J\",\"120\"
\"\",\"\",\"approach-retreat\",\"124\",\"931977\",\"0.0-124.0\",\"\",\"\",\"3-5\",\"4214\",\"38\",\"1\",\"Training\",\"Stims/Figures/144-J-10-3.bmp\",\"sasaza\",\"Down\",\"38\",\"8\",\"9\",\"9\",\"C2\",\"J\",\"121\"
\"\",\"\",\"approach-retreat\",\"125\",\"937670\",\"0.0-125.0\",\"\",\"\",\"3-5\",\"4189\",\"37\",\"1\",\"Training\",\"Stims/Figures/86-J-0-1.bmp\",\"paka:ka\",\"Right\",\"37\",\"8\",\"10\",\"9\",\"P\",\"J\",\"122\"
\"\",\"\",\"approach-retreat\",\"126\",\"943540\",\"0.0-126.0\",\"\",\"\",\"3-5\",\"4355\",\"38\",\"0\",\"Training\",\"Stims/Figures/84-J-0-2.bmp\",\"pa:pata\",\"Up\",\"40\",\"8\",\"11\",\"9\",\"P\",\"J\",\"123\"
\"\",\"\",\"approach-retreat\",\"127\",\"949280\",\"0.0-127.0\",\"\",\"\",\"3-5\",\"4231\",\"37\",\"0\",\"Training\",\"Stims/Figures/139-C-20-2.bmp\",\"ma:la:na\",\"Right\",\"39\",\"8\",\"12\",\"9\",\"S\",\"J\",\"124\"
\"\",\"\",\"approach-retreat\",\"128\",\"954998\",\"0.0-128.0\",\"\",\"\",\"3-5\",\"4207\",\"39\",\"0\",\"Training\",\"Stims/Figures/27-C-30-1.bmp\",\"ma:mana\",\"Left\",\"37\",\"8\",\"13\",\"9\",\"S\",\"J\",\"125\"
\"\",\"\",\"approach-retreat\",\"129\",\"960748\",\"0.0-129.0\",\"\",\"\",\"3-5\",\"4234\",\"40\",\"0\",\"Training\",\"Stims/Figures/7-J-10-4.bmp\",\"na:lala\",\"Down\",\"38\",\"8\",\"14\",\"9\",\"S\",\"J\",\"126\"
\"\",\"\",\"approach-retreat\",\"130\",\"966475\",\"0.0-130.0\",\"\",\"\",\"3-5\",\"4216\",\"38\",\"1\",\"Training\",\"Stims/Figures/139-J-0-2.bmp\",\"sasa:ha\",\"Down\",\"38\",\"8\",\"15\",\"9\",\"C2\",\"J\",\"127\"
\"\",\"\",\"approach-retreat\",\"131\",\"971974\",\"0.0-131.0\",\"\",\"\",\"3-5\",\"3983\",\"40\",\"0\",\"Training\",\"Stims/Figures/74-C-20-4.bmp\",\"za:haza\",\"Up\",\"38\",\"8\",\"16\",\"9\",\"C2\",\"J\",\"128\"
\"\",\"\",\"approach-retreat\",\"132\",\"977818\",\"0.0-132.0\",\"\",\"\",\"3-5\",\"4339\",\"38\",\"1\",\"Training\",\"Stims/Figures/139-J-0-2.bmp\",\"sasa:ha\",\"Down\",\"38\",\"9\",\"1\",\"9\",\"C2\",\"J\",\"129\"
\"\",\"\",\"approach-retreat\",\"133\",\"983880\",\"0.0-133.0\",\"\",\"\",\"3-5\",\"4557\",\"40\",\"0\",\"Training\",\"Stims/Figures/86-C-30-1.bmp\",\"pa:pa:ka\",\"Up\",\"38\",\"9\",\"2\",\"9\",\"P\",\"J\",\"130\"
\"\",\"\",\"approach-retreat\",\"134\",\"989999\",\"0.0-134.0\",\"\",\"\",\"3-5\",\"4614\",\"39\",\"1\",\"Training\",\"Stims/Figures/128-J-10-3.bmp\",\"va:sha:va\",\"Left\",\"39\",\"9\",\"3\",\"9\",\"C1\",\"J\",\"131\"
\"\",\"\",\"approach-retreat\",\"135\",\"997859\",\"0.0-135.0\",\"\",\"\",\"3-5\",\"6352\",\"38\",\"0\",\"Training\",\"Stims/Figures/84-J-0-2.bmp\",\"pa:pata\",\"Up\",\"40\",\"9\",\"4\",\"9\",\"P\",\"J\",\"132\"
\"\",\"\",\"approach-retreat\",\"136\",\"1004491\",\"0.0-136.0\",\"\",\"\",\"3-5\",\"5122\",\"39\",\"0\",\"Training\",\"Stims/Figures/128-C-30-3.bmp\",\"mamana\",\"Left\",\"37\",\"9\",\"5\",\"9\",\"S\",\"J\",\"133\"
\"\",\"\",\"approach-retreat\",\"137\",\"1010261\",\"0.0-137.0\",\"\",\"\",\"3-5\",\"4264\",\"37\",\"1\",\"Training\",\"Stims/Figures/144-J-10-3.bmp\",\"sasaza\",\"Right\",\"37\",\"9\",\"6\",\"9\",\"C2\",\"J\",\"134\"
\"\",\"\",\"approach-retreat\",\"138\",\"1018054\",\"0.0-138.0\",\"\",\"\",\"3-5\",\"6282\",\"37\",\"0\",\"Training\",\"Stims/Figures/74-J-10-4.bmp\",\"ma:lana\",\"Left\",\"39\",\"9\",\"7\",\"9\",\"S\",\"J\",\"135\"
\"\",\"\",\"approach-retreat\",\"139\",\"1023690\",\"0.0-139.0\",\"\",\"\",\"3-5\",\"4125\",\"37\",\"0\",\"Training\",\"Stims/Figures/84-C-20-2.bmp\",\"pakata\",\"Right\",\"39\",\"9\",\"8\",\"9\",\"P\",\"J\",\"136\"
\"\",\"\",\"approach-retreat\",\"140\",\"1029299\",\"0.0-140.0\",\"\",\"\",\"3-5\",\"4097\",\"40\",\"0\",\"Training\",\"Stims/Figures/27-C-30-1.bmp\",\"ma:mana\",\"Up\",\"38\",\"9\",\"9\",\"9\",\"S\",\"J\",\"137\"
\"\",\"\",\"approach-retreat\",\"141\",\"1040400\",\"0.0-141.0\",\"\",\"\",\"3-5\",\"9596\",\"38\",\"1\",\"Training\",\"Stims/Figures/27-J-0-1.bmp\",\"vafa:sha\",\"Down\",\"38\",\"9\",\"10\",\"9\",\"C1\",\"J\",\"138\"
\"\",\"\",\"approach-retreat\",\"142\",\"1046060\",\"0.0-142.0\",\"\",\"\",\"3-5\",\"4144\",\"37\",\"0\",\"Training\",\"Stims/Figures/74-C-20-4.bmp\",\"za:haza\",\"Right\",\"39\",\"9\",\"11\",\"9\",\"C2\",\"J\",\"139\"
\"\",\"\",\"approach-retreat\",\"143\",\"1051617\",\"0.0-143.0\",\"\",\"\",\"3-5\",\"4050\",\"40\",\"0\",\"Training\",\"Stims/Figures/139-C-20-2.bmp\",\"ma:la:na\",\"Up\",\"38\",\"9\",\"12\",\"9\",\"S\",\"J\",\"140\"
\"\",\"\",\"approach-retreat\",\"144\",\"1057346\",\"0.0-144.0\",\"\",\"\",\"3-5\",\"4223\",\"38\",\"0\",\"Training\",\"Stims/Figures/7-C-20-4.bmp\",\"mamala\",\"Down\",\"40\",\"9\",\"13\",\"9\",\"S\",\"J\",\"141\"
\"\",\"\",\"approach-retreat\",\"145\",\"1063066\",\"0.0-145.0\",\"\",\"\",\"3-5\",\"4214\",\"39\",\"0\",\"Training\",\"Stims/Figures/144-C-30-3.bmp\",\"fa:sha:va\",\"Left\",\"37\",\"9\",\"14\",\"9\",\"C1\",\"J\",\"142\"
\"\",\"\",\"approach-retreat\",\"146\",\"1068717\",\"0.0-146.0\",\"\",\"\",\"3-5\",\"4146\",\"37\",\"1\",\"Training\",\"Stims/Figures/86-J-0-1.bmp\",\"paka:ka\",\"Right\",\"37\",\"9\",\"15\",\"9\",\"P\",\"J\",\"143\"
\"\",\"\",\"approach-retreat\",\"147\",\"1076665\",\"0.0-147.0\",\"\",\"\",\"3-5\",\"6442\",\"38\",\"1\",\"Training\",\"Stims/Figures/7-J-10-4.bmp\",\"na:lala\",\"Down\",\"38\",\"9\",\"16\",\"9\",\"S\",\"J\",\"144\"
\"26056\",\"\",\"instructions\",\"148\",\"1102722\",\"0.0-148.0\",\"[{\"\"page_index\"\":0,\"\"viewing_time\"\":26056}]\",\"\",\"\",\"\",\"\",\"\",\"\",\"\",\"\",\"\",\"\",\"\",\"\",\"\",\"\",\"\",\"\"
\"\",\"\",\"approach-retreat\",\"149\",\"1114421\",\"0.0-149.0\",\"\",\"\",\"3-5\",\"10192\",\"39\",\"1\",\"Testing\",\"Stims/Figures/57-J-0-1.bmp\",\"tapa:ta\",\"Left\",\"39\",\"1\",\"1\",\"9\",\"P\",\"J\",\"1\"
\"\",\"\",\"approach-retreat\",\"150\",\"1120711\",\"0.0-150.0\",\"\",\"\",\"3-5\",\"4775\",\"39\",\"1\",\"Testing\",\"Stims/Figures/27-C-30-1.bmp\",\"ma:mana\",\"Right\",\"39\",\"1\",\"2\",\"9\",\"S\",\"J\",\"2\"
\"\",\"\",\"approach-retreat\",\"151\",\"1128320\",\"0.0-151.0\",\"\",\"\",\"3-5\",\"6100\",\"39\",\"0\",\"Testing\",\"Stims/Figures/84-J-0-2.bmp\",\"pa:pata\",\"Right\",\"37\",\"1\",\"3\",\"9\",\"P\",\"J\",\"3\"
\"\",\"\",\"approach-retreat\",\"152\",\"1136731\",\"0.0-152.0\",\"\",\"\",\"3-5\",\"6894\",\"37\",\"0\",\"Testing\",\"Stims/Figures/100-C-30-3.bmp\",\"takata\",\"Right\",\"39\",\"1\",\"4\",\"9\",\"P\",\"J\",\"4\"
\"\",\"\",\"approach-retreat\",\"153\",\"1142430\",\"0.0-153.0\",\"\",\"\",\"3-5\",\"4189\",\"37\",\"0\",\"Testing\",\"Stims/Figures/27-J-0-1.bmp\",\"vafa:sha\",\"Left\",\"39\",\"1\",\"5\",\"9\",\"C1\",\"J\",\"5\"
\"\",\"\",\"approach-retreat\",\"154\",\"1148091\",\"0.0-154.0\",\"\",\"\",\"3-5\",\"4153\",\"40\",\"0\",\"Testing\",\"Stims/Figures/85-C-20-2.bmp\",\"fa:fava\",\"Up\",\"38\",\"1\",\"6\",\"9\",\"C1\",\"J\",\"6\"
\"\",\"\",\"approach-retreat\",\"155\",\"1153770\",\"0.0-155.0\",\"\",\"\",\"3-5\",\"4167\",\"37\",\"0\",\"Testing\",\"Stims/Figures/139-C-20-2.bmp\",\"ma:la:na\",\"Right\",\"39\",\"1\",\"7\",\"9\",\"S\",\"J\",\"7\"
\"\",\"\",\"approach-retreat\",\"156\",\"1159940\",\"0.0-156.0\",\"\",\"\",\"3-5\",\"4661\",\"40\",\"0\",\"Testing\",\"Stims/Figures/7-J-10-4.bmp\",\"na:lala\",\"Down\",\"38\",\"1\",\"8\",\"9\",\"S\",\"J\",\"8\"
\"\",\"\",\"approach-retreat\",\"157\",\"1165560\",\"0.0-157.0\",\"\",\"\",\"3-5\",\"4111\",\"38\",\"0\",\"Testing\",\"Stims/Figures/86-C-30-1.bmp\",\"pa:pa:ka\",\"Down\",\"40\",\"1\",\"9\",\"9\",\"P\",\"J\",\"9\"
\"\",\"\",\"approach-retreat\",\"158\",\"1171770\",\"0.0-158.0\",\"\",\"\",\"3-5\",\"4701\",\"39\",\"0\",\"Testing\",\"Stims/Figures/128-C-30-3.bmp\",\"mamana\",\"Left\",\"37\",\"1\",\"10\",\"9\",\"S\",\"J\",\"10\"
\"\",\"\",\"approach-retreat\",\"159\",\"1177640\",\"0.0-159.0\",\"\",\"\",\"3-5\",\"4356\",\"39\",\"1\",\"Testing\",\"Stims/Figures/144-C-30-3.bmp\",\"fa:sha:va\",\"Right\",\"39\",\"1\",\"11\",\"9\",\"C1\",\"J\",\"11\"
\"\",\"\",\"approach-retreat\",\"160\",\"1183560\",\"0.0-160.0\",\"\",\"\",\"3-5\",\"4410\",\"40\",\"1\",\"Testing\",\"Stims/Figures/57-C-30-1.bmp\",\"ta:ka:ka\",\"Down\",\"40\",\"1\",\"12\",\"9\",\"P\",\"J\",\"12\"
\"\",\"\",\"approach-retreat\",\"161\",\"1189270\",\"0.0-161.0\",\"\",\"\",\"3-5\",\"4194\",\"38\",\"0\",\"Testing\",\"Stims/Figures/19-J-10-4.bmp\",\"zasaha\",\"Up\",\"40\",\"1\",\"13\",\"9\",\"C2\",\"J\",\"13\"
\"\",\"\",\"approach-retreat\",\"162\",\"1194970\",\"0.0-162.0\",\"\",\"\",\"3-5\",\"4188\",\"38\",\"1\",\"Testing\",\"Stims/Figures/128-J-10-3.bmp\",\"va:sha:va\",\"Down\",\"38\",\"1\",\"14\",\"9\",\"C1\",\"J\",\"14\"
\"\",\"\",\"approach-retreat\",\"163\",\"1200940\",\"0.0-163.0\",\"\",\"\",\"3-5\",\"4463\",\"40\",\"1\",\"Testing\",\"Stims/Figures/74-J-10-4.bmp\",\"ma:lana\",\"Up\",\"40\",\"1\",\"15\",\"9\",\"S\",\"J\",\"15\"
\"\",\"\",\"approach-retreat\",\"164\",\"1206640\",\"0.0-164.0\",\"\",\"\",\"3-5\",\"4194\",\"39\",\"0\",\"Testing\",\"Stims/Figures/84-C-20-2.bmp\",\"pakata\",\"Left\",\"37\",\"1\",\"16\",\"9\",\"P\",\"J\",\"16\"
\"\",\"\",\"approach-retreat\",\"165\",\"1212240\",\"0.0-165.0\",\"\",\"\",\"3-5\",\"4091\",\"40\",\"1\",\"Testing\",\"Stims/Figures/100-J-10-3.bmp\",\"taka:ka\",\"Up\",\"40\",\"1\",\"17\",\"9\",\"P\",\"J\",\"17\"
\"\",\"\",\"approach-retreat\",\"166\",\"1218150\",\"0.0-166.0\",\"\",\"\",\"3-5\",\"4397\",\"39\",\"1\",\"Testing\",\"Stims/Figures/85-J-0-2.bmp\",\"mama:na\",\"Left\",\"39\",\"1\",\"18\",\"9\",\"S\",\"J\",\"18\"
\"\",\"\",\"approach-retreat\",\"167\",\"1223860\",\"0.0-167.0\",\"\",\"\",\"3-5\",\"4195\",\"38\",\"1\",\"Testing\",\"Stims/Figures/19-C-20-4.bmp\",\"fafasha\",\"Up\",\"38\",\"1\",\"19\",\"9\",\"C1\",\"J\",\"19\"
\"\",\"\",\"approach-retreat\",\"168\",\"1229559\",\"0.0-168.0\",\"\",\"\",\"3-5\",\"4191\",\"40\",\"0\",\"Testing\",\"Stims/Figures/74-C-20-4.bmp\",\"za:haza\",\"Up\",\"38\",\"1\",\"20\",\"9\",\"C2\",\"J\",\"20\"
\"\",\"\",\"approach-retreat\",\"169\",\"1235220\",\"0.0-169.0\",\"\",\"\",\"3-5\",\"4153\",\"37\",\"0\",\"Testing\",\"Stims/Figures/144-J-10-3.bmp\",\"sasaza\",\"Left\",\"39\",\"1\",\"21\",\"9\",\"C2\",\"J\",\"21\"
\"\",\"\",\"approach-retreat\",\"170\",\"1242609\",\"0.0-170.0\",\"\",\"\",\"3-5\",\"5874\",\"40\",\"0\",\"Testing\",\"Stims/Figures/86-J-0-1.bmp\",\"paka:ka\",\"Down\",\"38\",\"1\",\"22\",\"9\",\"P\",\"J\",\"22\"
\"\",\"\",\"approach-retreat\",\"171\",\"1248280\",\"0.0-171.0\",\"\",\"\",\"3-5\",\"4158\",\"38\",\"1\",\"Testing\",\"Stims/Figures/139-J-0-2.bmp\",\"sasa:ha\",\"Down\",\"38\",\"1\",\"23\",\"9\",\"C2\",\"J\",\"23\"
\"\",\"\",\"approach-retreat\",\"172\",\"1255859\",\"0.0-172.0\",\"\",\"\",\"3-5\",\"6072\",\"39\",\"1\",\"Testing\",\"Stims/Figures/7-C-20-4.bmp\",\"mamala\",\"Right\",\"39\",\"1\",\"24\",\"9\",\"S\",\"J\",\"24\"
\"\",\"\",\"approach-retreat\",\"173\",\"1261590\",\"0.0-173.0\",\"\",\"\",\"3-5\",\"4223\",\"40\",\"0\",\"Testing\",\"Stims/Figures/84-J-0-2.bmp\",\"pa:pata\",\"Down\",\"38\",\"2\",\"1\",\"9\",\"P\",\"J\",\"25\"
\"\",\"\",\"approach-retreat\",\"174\",\"1267759\",\"0.0-174.0\",\"\",\"\",\"3-5\",\"4663\",\"38\",\"1\",\"Testing\",\"Stims/Figures/144-C-30-3.bmp\",\"fa:sha:va\",\"Up\",\"38\",\"2\",\"2\",\"9\",\"C1\",\"J\",\"26\"
\"\",\"\",\"approach-retreat\",\"175\",\"1273579\",\"0.0-175.0\",\"\",\"\",\"3-5\",\"4307\",\"40\",\"1\",\"Testing\",\"Stims/Figures/57-J-0-1.bmp\",\"tapa:ta\",\"Up\",\"40\",\"2\",\"3\",\"9\",\"P\",\"J\",\"27\"
\"\",\"\",\"approach-retreat\",\"176\",\"1279430\",\"0.0-176.0\",\"\",\"\",\"3-5\",\"4335\",\"37\",\"1\",\"Testing\",\"Stims/Figures/100-J-10-3.bmp\",\"taka:ka\",\"Right\",\"37\",\"2\",\"4\",\"9\",\"P\",\"J\",\"28\"
\"\",\"\",\"approach-retreat\",\"177\",\"1287769\",\"0.0-177.0\",\"\",\"\",\"3-5\",\"6828\",\"39\",\"1\",\"Testing\",\"Stims/Figures/74-J-10-4.bmp\",\"ma:lana\",\"Left\",\"39\",\"2\",\"5\",\"9\",\"S\",\"J\",\"29\"
\"\",\"\",\"approach-retreat\",\"178\",\"1293899\",\"0.0-178.0\",\"\",\"\",\"3-5\",\"4623\",\"37\",\"1\",\"Testing\",\"Stims/Figures/7-C-20-4.bmp\",\"mamala\",\"Left\",\"37\",\"2\",\"6\",\"9\",\"S\",\"J\",\"30\"
\"\",\"\",\"approach-retreat\",\"179\",\"1307298\",\"0.0-179.0\",\"\",\"\",\"3-5\",\"11894\",\"39\",\"0\",\"Testing\",\"Stims/Figures/27-J-0-1.bmp\",\"vafa:sha\",\"Right\",\"37\",\"2\",\"7\",\"9\",\"C1\",\"J\",\"31\"
\"\",\"\",\"approach-retreat\",\"180\",\"1318269\",\"0.0-180.0\",\"\",\"\",\"3-5\",\"9459\",\"38\",\"1\",\"Testing\",\"Stims/Figures/27-C-30-1.bmp\",\"ma:mana\",\"Up\",\"38\",\"2\",\"8\",\"9\",\"S\",\"J\",\"32\"
\"\",\"\",\"approach-retreat\",\"181\",\"1323919\",\"0.0-181.0\",\"\",\"\",\"3-5\",\"4143\",\"38\",\"0\",\"Testing\",\"Stims/Figures/57-C-30-1.bmp\",\"ta:ka:ka\",\"Down\",\"40\",\"2\",\"9\",\"9\",\"P\",\"J\",\"33\"
\"\",\"\",\"approach-retreat\",\"182\",\"1329529\",\"0.0-182.0\",\"\",\"\",\"3-5\",\"4098\",\"39\",\"1\",\"Testing\",\"Stims/Figures/139-C-20-2.bmp\",\"ma:la:na\",\"Right\",\"39\",\"2\",\"10\",\"9\",\"S\",\"J\",\"34\"
\"\",\"\",\"approach-retreat\",\"183\",\"1335669\",\"0.0-183.0\",\"\",\"\",\"3-5\",\"4631\",\"40\",\"0\",\"Testing\",\"Stims/Figures/7-J-10-4.bmp\",\"na:lala\",\"Down\",\"38\",\"2\",\"11\",\"9\",\"S\",\"J\",\"35\"
\"\",\"\",\"approach-retreat\",\"184\",\"1341449\",\"0.0-184.0\",\"\",\"\",\"3-5\",\"4269\",\"38\",\"0\",\"Testing\",\"Stims/Figures/85-C-20-2.bmp\",\"fa:fava\",\"Down\",\"40\",\"2\",\"12\",\"9\",\"C1\",\"J\",\"36\"
\"\",\"\",\"approach-retreat\",\"185\",\"1348289\",\"0.0-185.0\",\"\",\"\",\"3-5\",\"5326\",\"39\",\"1\",\"Testing\",\"Stims/Figures/19-C-20-4.bmp\",\"fafasha\",\"Right\",\"39\",\"2\",\"13\",\"9\",\"C1\",\"J\",\"37\"
\"\",\"\",\"approach-retreat\",\"186\",\"1353988\",\"0.0-186.0\",\"\",\"\",\"3-5\",\"4194\",\"40\",\"0\",\"Testing\",\"Stims/Figures/85-J-0-2.bmp\",\"mama:na\",\"Down\",\"38\",\"2\",\"14\",\"9\",\"S\",\"J\",\"38\"
\"\",\"\",\"approach-retreat\",\"187\",\"1359599\",\"0.0-187.0\",\"\",\"\",\"3-5\",\"4103\",\"39\",\"1\",\"Testing\",\"Stims/Figures/128-J-10-3.bmp\",\"va:sha:va\",\"Left\",\"39\",\"2\",\"15\",\"9\",\"C1\",\"J\",\"39\"
\"\",\"\",\"approach-retreat\",\"188\",\"1365219\",\"0.0-188.0\",\"\",\"\",\"3-5\",\"4110\",\"39\",\"1\",\"Testing\",\"Stims/Figures/19-J-10-4.bmp\",\"zasaha\",\"Left\",\"39\",\"2\",\"16\",\"9\",\"C2\",\"J\",\"40\"
\"\",\"\",\"approach-retreat\",\"189\",\"1372069\",\"0.0-189.0\",\"\",\"\",\"3-5\",\"5339\",\"39\",\"1\",\"Testing\",\"Stims/Figures/128-C-30-3.bmp\",\"mamana\",\"Right\",\"39\",\"2\",\"17\",\"9\",\"S\",\"J\",\"41\"
\"\",\"\",\"approach-retreat\",\"190\",\"1378128\",\"0.0-190.0\",\"\",\"\",\"3-5\",\"4548\",\"37\",\"1\",\"Testing\",\"Stims/Figures/144-J-10-3.bmp\",\"sasaza\",\"Right\",\"37\",\"2\",\"18\",\"9\",\"C2\",\"J\",\"42\"
\"\",\"\",\"approach-retreat\",\"191\",\"1383788\",\"0.0-191.0\",\"\",\"\",\"3-5\",\"4150\",\"40\",\"0\",\"Testing\",\"Stims/Figures/84-C-20-2.bmp\",\"pakata\",\"Up\",\"38\",\"2\",\"19\",\"9\",\"P\",\"J\",\"43\"
\"\",\"\",\"approach-retreat\",\"192\",\"1389578\",\"0.0-192.0\",\"\",\"\",\"3-5\",\"4280\",\"37\",\"0\",\"Testing\",\"Stims/Figures/139-J-0-2.bmp\",\"sasa:ha\",\"Left\",\"39\",\"2\",\"20\",\"9\",\"C2\",\"J\",\"44\"
\"\",\"\",\"approach-retreat\",\"193\",\"1395328\",\"0.0-193.0\",\"\",\"\",\"3-5\",\"4231\",\"38\",\"0\",\"Testing\",\"Stims/Figures/74-C-20-4.bmp\",\"za:haza\",\"Down\",\"40\",\"2\",\"21\",\"9\",\"C2\",\"J\",\"45\"
\"\",\"\",\"approach-retreat\",\"194\",\"1401038\",\"0.0-194.0\",\"\",\"\",\"3-5\",\"4203\",\"40\",\"0\",\"Testing\",\"Stims/Figures/100-C-30-3.bmp\",\"takata\",\"Up\",\"38\",\"2\",\"22\",\"9\",\"P\",\"J\",\"46\"
\"\",\"\",\"approach-retreat\",\"195\",\"1406878\",\"0.0-195.0\",\"\",\"\",\"3-5\",\"4332\",\"39\",\"0\",\"Testing\",\"Stims/Figures/86-C-30-1.bmp\",\"pa:pa:ka\",\"Left\",\"37\",\"2\",\"23\",\"9\",\"P\",\"J\",\"47\"
\"\",\"\",\"approach-retreat\",\"196\",\"1412528\",\"0.0-196.0\",\"\",\"\",\"3-5\",\"4143\",\"38\",\"0\",\"Testing\",\"Stims/Figures/86-J-0-1.bmp\",\"paka:ka\",\"Up\",\"40\",\"2\",\"24\",\"9\",\"P\",\"J\",\"48\"
\"\",\"\",\"approach-retreat\",\"197\",\"1418298\",\"0.0-197.0\",\"\",\"\",\"3-5\",\"4259\",\"40\",\"1\",\"Testing\",\"Stims/Figures/27-C-30-1.bmp\",\"ma:mana\",\"Down\",\"40\",\"3\",\"1\",\"9\",\"S\",\"J\",\"49\"
\"\",\"\",\"approach-retreat\",\"198\",\"1423818\",\"0.0-198.0\",\"\",\"\",\"3-5\",\"4009\",\"39\",\"1\",\"Testing\",\"Stims/Figures/128-J-10-3.bmp\",\"va:sha:va\",\"Left\",\"39\",\"3\",\"2\",\"9\",\"C1\",\"J\",\"50\"
\"\",\"\",\"approach-retreat\",\"199\",\"1429518\",\"0.0-199.0\",\"\",\"\",\"3-5\",\"4193\",\"37\",\"0\",\"Testing\",\"Stims/Figures/84-J-0-2.bmp\",\"pa:pata\",\"Left\",\"39\",\"3\",\"3\",\"9\",\"P\",\"J\",\"51\"
\"\",\"\",\"approach-retreat\",\"200\",\"1437688\",\"0.0-200.0\",\"\",\"\",\"3-5\",\"6662\",\"40\",\"0\",\"Testing\",\"Stims/Figures/144-J-10-3.bmp\",\"sasaza\",\"Down\",\"38\",\"3\",\"4\",\"9\",\"C2\",\"J\",\"52\"
\"\",\"\",\"approach-retreat\",\"201\",\"1443518\",\"0.0-201.0\",\"\",\"\",\"3-5\",\"4324\",\"37\",\"0\",\"Testing\",\"Stims/Figures/100-C-30-3.bmp\",\"takata\",\"Right\",\"39\",\"3\",\"5\",\"9\",\"P\",\"J\",\"53\"
\"\",\"\",\"approach-retreat\",\"202\",\"1449118\",\"0.0-202.0\",\"\",\"\",\"3-5\",\"4093\",\"38\",\"0\",\"Testing\",\"Stims/Figures/85-C-20-2.bmp\",\"fa:fava\",\"Down\",\"40\",\"3\",\"6\",\"9\",\"C1\",\"J\",\"54\"
\"\",\"\",\"approach-retreat\",\"203\",\"1454788\",\"0.0-203.0\",\"\",\"\",\"3-5\",\"4159\",\"40\",\"0\",\"Testing\",\"Stims/Figures/86-C-30-1.bmp\",\"pa:pa:ka\",\"Up\",\"38\",\"3\",\"7\",\"9\",\"P\",\"J\",\"55\"
\"\",\"\",\"approach-retreat\",\"204\",\"1460458\",\"0.0-204.0\",\"\",\"\",\"3-5\",\"4159\",\"38\",\"0\",\"Testing\",\"Stims/Figures/139-J-0-2.bmp\",\"sasa:ha\",\"Up\",\"40\",\"3\",\"8\",\"9\",\"C2\",\"J\",\"56\"
\"\",\"\",\"approach-retreat\",\"205\",\"1466033\",\"0.0-205.0\",\"\",\"\",\"3-5\",\"4043\",\"37\",\"1\",\"Testing\",\"Stims/Figures/86-J-0-1.bmp\",\"paka:ka\",\"Right\",\"37\",\"3\",\"9\",\"9\",\"P\",\"J\",\"57\"
\"\",\"\",\"approach-retreat\",\"206\",\"1472468\",\"0.0-206.0\",\"\",\"\",\"3-5\",\"4928\",\"37\",\"0\",\"Testing\",\"Stims/Figures/74-J-10-4.bmp\",\"ma:lana\",\"Left\",\"39\",\"3\",\"10\",\"9\",\"S\",\"J\",\"58\"
\"\",\"\",\"approach-retreat\",\"207\",\"1478627\",\"0.0-207.0\",\"\",\"\",\"3-5\",\"4651\",\"37\",\"0\",\"Testing\",\"Stims/Figures/84-C-20-2.bmp\",\"pakata\",\"Right\",\"39\",\"3\",\"11\",\"9\",\"P\",\"J\",\"59\"
\"\",\"\",\"approach-retreat\",\"208\",\"1484828\",\"0.0-208.0\",\"\",\"\",\"3-5\",\"4688\",\"39\",\"1\",\"Testing\",\"Stims/Figures/57-C-30-1.bmp\",\"ta:ka:ka\",\"Right\",\"39\",\"3\",\"12\",\"9\",\"P\",\"J\",\"60\"
\"\",\"\",\"approach-retreat\",\"209\",\"1490498\",\"0.0-209.0\",\"\",\"\",\"3-5\",\"4158\",\"40\",\"0\",\"Testing\",\"Stims/Figures/128-C-30-3.bmp\",\"mamana\",\"Up\",\"38\",\"3\",\"13\",\"9\",\"S\",\"J\",\"61\"
\"\",\"\",\"approach-retreat\",\"210\",\"1496227\",\"0.0-210.0\",\"\",\"\",\"3-5\",\"4216\",\"39\",\"1\",\"Testing\",\"Stims/Figures/7-C-20-4.bmp\",\"mamala\",\"Right\",\"39\",\"3\",\"14\",\"9\",\"S\",\"J\",\"62\"
\"\",\"\",\"approach-retreat\",\"211\",\"1502097\",\"0.0-211.0\",\"\",\"\",\"3-5\",\"4363\",\"38\",\"0\",\"Testing\",\"Stims/Figures/85-J-0-2.bmp\",\"mama:na\",\"Up\",\"40\",\"3\",\"15\",\"9\",\"S\",\"J\",\"63\"
\"\",\"\",\"approach-retreat\",\"212\",\"1507967\",\"0.0-212.0\",\"\",\"\",\"3-5\",\"4363\",\"40\",\"0\",\"Testing\",\"Stims/Figures/19-C-20-4.bmp\",\"fafasha\",\"Up\",\"38\",\"3\",\"16\",\"9\",\"C1\",\"J\",\"64\"
\"\",\"\",\"approach-retreat\",\"213\",\"1515687\",\"0.0-213.0\",\"\",\"\",\"3-5\",\"6206\",\"38\",\"1\",\"Testing\",\"Stims/Figures/144-C-30-3.bmp\",\"fa:sha:va\",\"Up\",\"38\",\"3\",\"17\",\"9\",\"C1\",\"J\",\"65\"
\"\",\"\",\"approach-retreat\",\"214\",\"1521297\",\"0.0-214.0\",\"\",\"\",\"3-5\",\"4095\",\"39\",\"0\",\"Testing\",\"Stims/Figures/139-C-20-2.bmp\",\"ma:la:na\",\"Left\",\"37\",\"3\",\"18\",\"9\",\"S\",\"J\",\"66\"
\"\",\"\",\"approach-retreat\",\"215\",\"1526977\",\"0.0-215.0\",\"\",\"\",\"3-5\",\"4173\",\"40\",\"1\",\"Testing\",\"Stims/Figures/74-C-20-4.bmp\",\"za:haza\",\"Down\",\"40\",\"3\",\"19\",\"9\",\"C2\",\"J\",\"67\"
\"\",\"\",\"approach-retreat\",\"216\",\"1532587\",\"0.0-216.0\",\"\",\"\",\"3-5\",\"4105\",\"39\",\"0\",\"Testing\",\"Stims/Figures/100-J-10-3.bmp\",\"taka:ka\",\"Right\",\"37\",\"3\",\"20\",\"9\",\"P\",\"J\",\"68\"
\"\",\"\",\"approach-retreat\",\"217\",\"1538287\",\"0.0-217.0\",\"\",\"\",\"3-5\",\"4191\",\"40\",\"0\",\"Testing\",\"Stims/Figures/7-J-10-4.bmp\",\"na:lala\",\"Down\",\"38\",\"3\",\"21\",\"9\",\"S\",\"J\",\"69\"
\"\",\"\",\"approach-retreat\",\"218\",\"1543976\",\"0.0-218.0\",\"\",\"\",\"3-5\",\"4179\",\"39\",\"1\",\"Testing\",\"Stims/Figures/19-J-10-4.bmp\",\"zasaha\",\"Left\",\"39\",\"3\",\"22\",\"9\",\"C2\",\"J\",\"70\"
\"\",\"\",\"approach-retreat\",\"219\",\"1549547\",\"0.0-219.0\",\"\",\"\",\"3-5\",\"4065\",\"39\",\"1\",\"Testing\",\"Stims/Figures/27-J-0-1.bmp\",\"vafa:sha\",\"Left\",\"39\",\"3\",\"23\",\"9\",\"C1\",\"J\",\"71\"
\"\",\"\",\"approach-retreat\",\"220\",\"1555137\",\"0.0-220.0\",\"\",\"\",\"3-5\",\"4080\",\"40\",\"0\",\"Testing\",\"Stims/Figures/57-J-0-1.bmp\",\"tapa:ta\",\"Down\",\"38\",\"3\",\"24\",\"9\",\"P\",\"J\",\"72\"
\"\",\"\",\"approach-retreat\",\"221\",\"1560667\",\"0.0-221.0\",\"\",\"\",\"3-5\",\"4024\",\"37\",\"1\",\"Testing\",\"Stims/Figures/144-J-10-3.bmp\",\"sasaza\",\"Right\",\"37\",\"4\",\"1\",\"9\",\"C2\",\"J\",\"73\"
\"\",\"\",\"approach-retreat\",\"222\",\"1567477\",\"0.0-222.0\",\"\",\"\",\"3-5\",\"5301\",\"38\",\"1\",\"Testing\",\"Stims/Figures/74-J-10-4.bmp\",\"ma:lana\",\"Down\",\"38\",\"4\",\"2\",\"9\",\"S\",\"J\",\"74\"
\"\",\"\",\"approach-retreat\",\"223\",\"1575197\",\"0.0-223.0\",\"\",\"\",\"3-5\",\"6215\",\"39\",\"1\",\"Testing\",\"Stims/Figures/57-J-0-1.bmp\",\"tapa:ta\",\"Left\",\"39\",\"4\",\"3\",\"9\",\"P\",\"J\",\"75\"
\"\",\"\",\"approach-retreat\",\"224\",\"1580837\",\"0.0-224.0\",\"\",\"\",\"3-5\",\"4134\",\"39\",\"0\",\"Testing\",\"Stims/Figures/84-C-20-2.bmp\",\"pakata\",\"Left\",\"37\",\"4\",\"4\",\"9\",\"P\",\"J\",\"76\"
\"\",\"\",\"approach-retreat\",\"225\",\"1586606\",\"0.0-225.0\",\"\",\"\",\"3-5\",\"4264\",\"37\",\"0\",\"Testing\",\"Stims/Figures/139-J-0-2.bmp\",\"sasa:ha\",\"Left\",\"39\",\"4\",\"5\",\"9\",\"C2\",\"J\",\"77\"
\"\",\"\",\"approach-retreat\",\"226\",\"1595026\",\"0.0-226.0\",\"\",\"\",\"3-5\",\"6911\",\"38\",\"0\",\"Testing\",\"Stims/Figures/27-J-0-1.bmp\",\"vafa:sha\",\"Up\",\"40\",\"4\",\"6\",\"9\",\"C1\",\"J\",\"78\"
\"\",\"\",\"approach-retreat\",\"227\",\"1600636\",\"0.0-227.0\",\"\",\"\",\"3-5\",\"4095\",\"40\",\"0\",\"Testing\",\"Stims/Figures/85-C-20-2.bmp\",\"fa:fava\",\"Up\",\"38\",\"4\",\"7\",\"9\",\"C1\",\"J\",\"79\"
\"\",\"\",\"approach-retreat\",\"228\",\"1606257\",\"0.0-228.0\",\"\",\"\",\"3-5\",\"4111\",\"38\",\"0\",\"Testing\",\"Stims/Figures/84-J-0-2.bmp\",\"pa:pata\",\"Up\",\"40\",\"4\",\"8\",\"9\",\"P\",\"J\",\"80\"
\"\",\"\",\"approach-retreat\",\"229\",\"1612026\",\"0.0-229.0\",\"\",\"\",\"3-5\",\"4258\",\"40\",\"1\",\"Testing\",\"Stims/Figures/100-C-30-3.bmp\",\"takata\",\"Down\",\"40\",\"4\",\"9\",\"9\",\"P\",\"J\",\"81\"
\"\",\"\",\"approach-retreat\",\"230\",\"1617806\",\"0.0-230.0\",\"\",\"\",\"3-5\",\"4270\",\"38\",\"0\",\"Testing\",\"Stims/Figures/100-J-10-3.bmp\",\"taka:ka\",\"Up\",\"40\",\"4\",\"10\",\"9\",\"P\",\"J\",\"82\"
\"\",\"\",\"approach-retreat\",\"231\",\"1623546\",\"0.0-231.0\",\"\",\"\",\"3-5\",\"4231\",\"37\",\"0\",\"Testing\",\"Stims/Figures/19-C-20-4.bmp\",\"fafasha\",\"Right\",\"39\",\"4\",\"11\",\"9\",\"C1\",\"J\",\"83\"
\"\",\"\",\"approach-retreat\",\"232\",\"1629637\",\"0.0-232.0\",\"\",\"\",\"3-5\",\"4578\",\"39\",\"0\",\"Testing\",\"Stims/Figures/7-J-10-4.bmp\",\"na:lala\",\"Right\",\"37\",\"4\",\"12\",\"9\",\"S\",\"J\",\"84\"
\"\",\"\",\"approach-retreat\",\"233\",\"1635456\",\"0.0-233.0\",\"\",\"\",\"3-5\",\"4310\",\"40\",\"0\",\"Testing\",\"Stims/Figures/85-J-0-2.bmp\",\"mama:na\",\"Down\",\"38\",\"4\",\"13\",\"9\",\"S\",\"J\",\"85\"
\"\",\"\",\"approach-retreat\",\"234\",\"1641106\",\"0.0-234.0\",\"\",\"\",\"3-5\",\"4137\",\"39\",\"1\",\"Testing\",\"Stims/Figures/128-J-10-3.bmp\",\"va:sha:va\",\"Left\",\"39\",\"4\",\"14\",\"9\",\"C1\",\"J\",\"86\"
\"\",\"\",\"approach-retreat\",\"235\",\"1648266\",\"0.0-235.0\",\"\",\"\",\"3-5\",\"5646\",\"38\",\"0\",\"Testing\",\"Stims/Figures/57-C-30-1.bmp\",\"ta:ka:ka\",\"Down\",\"40\",\"4\",\"15\",\"9\",\"P\",\"J\",\"87\"
\"\",\"\",\"approach-retreat\",\"236\",\"1654046\",\"0.0-236.0\",\"\",\"\",\"3-5\",\"4274\",\"37\",\"0\",\"Testing\",\"Stims/Figures/86-J-0-1.bmp\",\"paka:ka\",\"Left\",\"39\",\"4\",\"16\",\"9\",\"P\",\"J\",\"88\"
\"\",\"\",\"approach-retreat\",\"237\",\"1660136\",\"0.0-237.0\",\"\",\"\",\"3-5\",\"4585\",\"40\",\"1\",\"Testing\",\"Stims/Figures/27-C-30-1.bmp\",\"ma:mana\",\"Down\",\"40\",\"4\",\"17\",\"9\",\"S\",\"J\",\"89\"
\"\",\"\",\"approach-retreat\",\"238\",\"1666156\",\"0.0-238.0\",\"\",\"\",\"3-5\",\"4515\",\"38\",\"1\",\"Testing\",\"Stims/Figures/74-C-20-4.bmp\",\"za:haza\",\"Up\",\"38\",\"4\",\"18\",\"9\",\"C2\",\"J\",\"90\"
\"\",\"\",\"approach-retreat\",\"239\",\"1671886\",\"0.0-239.0\",\"\",\"\",\"3-5\",\"4218\",\"37\",\"1\",\"Testing\",\"Stims/Figures/128-C-30-3.bmp\",\"mamana\",\"Left\",\"37\",\"4\",\"19\",\"9\",\"S\",\"J\",\"91\"
\"\",\"\",\"approach-retreat\",\"240\",\"1678556\",\"0.0-240.0\",\"\",\"\",\"3-5\",\"5159\",\"39\",\"1\",\"Testing\",\"Stims/Figures/144-C-30-3.bmp\",\"fa:sha:va\",\"Right\",\"39\",\"4\",\"20\",\"9\",\"C1\",\"J\",\"92\"
\"\",\"\",\"approach-retreat\",\"241\",\"1685055\",\"0.0-241.0\",\"\",\"\",\"3-5\",\"4994\",\"39\",\"1\",\"Testing\",\"Stims/Figures/7-C-20-4.bmp\",\"mamala\",\"Right\",\"39\",\"4\",\"21\",\"9\",\"S\",\"J\",\"93\"
\"\",\"\",\"approach-retreat\",\"242\",\"1692426\",\"0.0-242.0\",\"\",\"\",\"3-5\",\"5862\",\"39\",\"1\",\"Testing\",\"Stims/Figures/86-C-30-1.bmp\",\"pa:pa:ka\",\"Right\",\"39\",\"4\",\"22\",\"9\",\"P\",\"J\",\"94\"
\"\",\"\",\"approach-retreat\",\"243\",\"1698125\",\"0.0-243.0\",\"\",\"\",\"3-5\",\"4190\",\"38\",\"0\",\"Testing\",\"Stims/Figures/139-C-20-2.bmp\",\"ma:la:na\",\"Down\",\"40\",\"4\",\"23\",\"9\",\"S\",\"J\",\"95\"
\"\",\"\",\"approach-retreat\",\"244\",\"1704046\",\"0.0-244.0\",\"\",\"\",\"3-5\",\"4409\",\"38\",\"0\",\"Testing\",\"Stims/Figures/19-J-10-4.bmp\",\"zasaha\",\"Up\",\"40\",\"4\",\"24\",\"9\",\"C2\",\"J\",\"96\"
\"16804\",\"\",\"survey-text\",\"245\",\"1720860\",\"0.0-245.0\",\"\",\"{\"\"Q0\"\":\"\"PS170070\"\"}\",\"\",\"\",\"\",\"\",\"\",\"\",\"\",\"\",\"\",\"\",\"\",\"\",\"\",\"\",\"\"
