\"rt\",\"key_press\",\"trial_type\",\"trial_index\",\"time_elapsed\",\"internal_node_id\",\"view_history\",\"responses\",\"Id\",\"Rt\",\"ResKeyCode\",\"ResCorr\",\"TrialType2\",\"Image\",\"Label\",\"Location\",\"CorrectResponse\",\"Block\",\"BlockTrial\",\"Condition\",\"LabelType\",\"Subcondition\",\"trialNum\"
\"31290\",\"32\",\"text\",\"0\",\"31304\",\"0.0-0.0-0.0\",\"\",\"\",\"\",\"\",\"\",\"\",\"\",\"\",\"\",\"\",\"\",\"\",\"\",\"\",\"\",\"\",\"\"
\"80480\",\"\",\"instructions\",\"1\",\"111788\",\"0.0-1.0\",\"[{\"\"page_index\"\":0,\"\"viewing_time\"\":80471}]\",\"\",\"\",\"\",\"\",\"\",\"\",\"\",\"\",\"\",\"\",\"\",\"\",\"\",\"\",\"\",\"\"
\"17769\",\"\",\"survey-multi-choice\",\"2\",\"129608\",\"0.0-2.0\",\"\",\"{\"\"Q0\"\":\"\"Da\"\",\"\"Q1\"\":\"\"Da\"\",\"\"Q2\"\":\"\"Da\"\",\"\"Q3\"\":\"\"Da\"\",\"\"Q4\"\":\"\"Da\"\",\"\"Q5\"\":\"\"Da\"\"}\",\"\",\"\",\"\",\"\",\"\",\"\",\"\",\"\",\"\",\"\",\"\",\"\",\"\",\"\",\"\"
\"\",\"\",\"bio\",\"3\",\"135851\",\"0.0-3.0\",\"\",\"{\"\"age\"\":\"\"20\"\",\"\"gender\"\":\"\"f\"\",\"\"specify\"\":\"\"\"\"}\",\"\",\"\",\"\",\"\",\"\",\"\",\"\",\"\",\"\",\"\",\"\",\"\",\"\",\"\",\"\"
\"\",\"\",\"approach-retreat\",\"4\",\"141094\",\"0.0-4.0\",\"\",\"\",\"2-5\",\"3727\",\"38\",\"0\",\"Training\",\"Stims/Figures/93-J-0-1.bmp\",\"None\",\"Up\",\"40\",\"1\",\"1\",\"10\",\"N\",\"J\",\"1\"
\"\",\"\",\"approach-retreat\",\"5\",\"149869\",\"0.0-5.0\",\"\",\"\",\"2-5\",\"7251\",\"37\",\"0\",\"Training\",\"Stims/Figures/84-C-20-2.bmp\",\"None\",\"Right\",\"39\",\"1\",\"2\",\"10\",\"N\",\"J\",\"2\"
\"\",\"\",\"approach-retreat\",\"6\",\"157973\",\"0.0-6.0\",\"\",\"\",\"2-5\",\"6580\",\"39\",\"1\",\"Training\",\"Stims/Figures/44-J-10-3.bmp\",\"None\",\"Left\",\"39\",\"1\",\"3\",\"10\",\"N\",\"J\",\"3\"
\"\",\"\",\"approach-retreat\",\"7\",\"164922\",\"0.0-7.0\",\"\",\"\",\"2-5\",\"5433\",\"38\",\"1\",\"Training\",\"Stims/Figures/102-C-20-4.bmp\",\"None\",\"Up\",\"38\",\"1\",\"4\",\"10\",\"N\",\"J\",\"4\"
\"\",\"\",\"approach-retreat\",\"8\",\"171211\",\"0.0-8.0\",\"\",\"\",\"2-5\",\"4770\",\"40\",\"0\",\"Training\",\"Stims/Figures/74-J-10-4.bmp\",\"None\",\"Down\",\"38\",\"1\",\"5\",\"10\",\"N\",\"J\",\"5\"
\"\",\"\",\"approach-retreat\",\"9\",\"177856\",\"0.0-9.0\",\"\",\"\",\"2-5\",\"5121\",\"38\",\"1\",\"Training\",\"Stims/Figures/93-C-30-1.bmp\",\"None\",\"Up\",\"38\",\"1\",\"6\",\"10\",\"N\",\"J\",\"6\"
\"\",\"\",\"approach-retreat\",\"10\",\"186274\",\"0.0-10.0\",\"\",\"\",\"2-5\",\"6899\",\"37\",\"1\",\"Training\",\"Stims/Figures/128-C-30-3.bmp\",\"None\",\"Left\",\"37\",\"1\",\"7\",\"10\",\"N\",\"J\",\"7\"
\"\",\"\",\"approach-retreat\",\"11\",\"192891\",\"0.0-11.0\",\"\",\"\",\"2-5\",\"5092\",\"37\",\"1\",\"Training\",\"Stims/Figures/84-J-0-2.bmp\",\"None\",\"Right\",\"37\",\"1\",\"8\",\"10\",\"N\",\"J\",\"8\"
\"\",\"\",\"approach-retreat\",\"12\",\"199213\",\"0.0-12.0\",\"\",\"\",\"2-5\",\"4788\",\"38\",\"1\",\"Training\",\"Stims/Figures/71-J-0-1.bmp\",\"None\",\"Down\",\"38\",\"1\",\"9\",\"10\",\"N\",\"J\",\"9\"
\"\",\"\",\"approach-retreat\",\"13\",\"206055\",\"0.0-13.0\",\"\",\"\",\"2-5\",\"5317\",\"40\",\"1\",\"Training\",\"Stims/Figures/71-C-30-1.bmp\",\"None\",\"Down\",\"40\",\"1\",\"10\",\"10\",\"N\",\"J\",\"10\"
\"\",\"\",\"approach-retreat\",\"14\",\"212689\",\"0.0-14.0\",\"\",\"\",\"2-5\",\"5113\",\"37\",\"1\",\"Training\",\"Stims/Figures/44-C-30-3.bmp\",\"None\",\"Left\",\"37\",\"1\",\"11\",\"10\",\"N\",\"J\",\"11\"
\"\",\"\",\"approach-retreat\",\"15\",\"219431\",\"0.0-15.0\",\"\",\"\",\"2-5\",\"5216\",\"39\",\"0\",\"Training\",\"Stims/Figures/85-J-0-2.bmp\",\"None\",\"Right\",\"37\",\"1\",\"12\",\"10\",\"N\",\"J\",\"12\"
\"\",\"\",\"approach-retreat\",\"16\",\"225421\",\"0.0-16.0\",\"\",\"\",\"2-5\",\"4470\",\"37\",\"1\",\"Training\",\"Stims/Figures/102-J-10-4.bmp\",\"None\",\"Right\",\"37\",\"1\",\"13\",\"10\",\"N\",\"J\",\"13\"
\"\",\"\",\"approach-retreat\",\"17\",\"232205\",\"0.0-17.0\",\"\",\"\",\"2-5\",\"5265\",\"39\",\"1\",\"Training\",\"Stims/Figures/128-J-10-3.bmp\",\"None\",\"Left\",\"39\",\"1\",\"14\",\"10\",\"N\",\"J\",\"14\"
\"\",\"\",\"approach-retreat\",\"18\",\"238632\",\"0.0-18.0\",\"\",\"\",\"2-5\",\"4904\",\"40\",\"0\",\"Training\",\"Stims/Figures/85-C-20-2.bmp\",\"None\",\"Up\",\"38\",\"1\",\"15\",\"10\",\"N\",\"J\",\"15\"
\"\",\"\",\"approach-retreat\",\"19\",\"245606\",\"0.0-19.0\",\"\",\"\",\"2-5\",\"5452\",\"40\",\"1\",\"Training\",\"Stims/Figures/74-C-20-4.bmp\",\"None\",\"Down\",\"40\",\"1\",\"16\",\"10\",\"N\",\"J\",\"16\"
\"\",\"\",\"approach-retreat\",\"20\",\"252787\",\"0.0-20.0\",\"\",\"\",\"2-5\",\"5671\",\"39\",\"0\",\"Training\",\"Stims/Figures/74-J-10-4.bmp\",\"None\",\"Right\",\"37\",\"2\",\"1\",\"10\",\"N\",\"J\",\"17\"
\"\",\"\",\"approach-retreat\",\"21\",\"263196\",\"0.0-21.0\",\"\",\"\",\"2-5\",\"8892\",\"38\",\"0\",\"Training\",\"Stims/Figures/93-J-0-1.bmp\",\"None\",\"Up\",\"40\",\"2\",\"2\",\"10\",\"N\",\"J\",\"18\"
\"\",\"\",\"approach-retreat\",\"22\",\"269841\",\"0.0-22.0\",\"\",\"\",\"2-5\",\"5119\",\"37\",\"1\",\"Training\",\"Stims/Figures/44-C-30-3.bmp\",\"None\",\"Left\",\"37\",\"2\",\"3\",\"10\",\"N\",\"J\",\"19\"
\"\",\"\",\"approach-retreat\",\"23\",\"276850\",\"0.0-23.0\",\"\",\"\",\"2-5\",\"5486\",\"38\",\"1\",\"Training\",\"Stims/Figures/93-C-30-1.bmp\",\"None\",\"Up\",\"38\",\"2\",\"4\",\"10\",\"N\",\"J\",\"20\"
\"\",\"\",\"approach-retreat\",\"24\",\"282650\",\"0.0-24.0\",\"\",\"\",\"2-5\",\"4289\",\"39\",\"1\",\"Training\",\"Stims/Figures/85-J-0-2.bmp\",\"None\",\"Left\",\"39\",\"2\",\"5\",\"10\",\"N\",\"J\",\"21\"
\"\",\"\",\"approach-retreat\",\"25\",\"288835\",\"0.0-25.0\",\"\",\"\",\"2-5\",\"4667\",\"38\",\"1\",\"Training\",\"Stims/Figures/102-J-10-4.bmp\",\"None\",\"Down\",\"38\",\"2\",\"6\",\"10\",\"N\",\"J\",\"22\"
\"\",\"\",\"approach-retreat\",\"26\",\"298613\",\"0.0-26.0\",\"\",\"\",\"2-5\",\"8252\",\"40\",\"0\",\"Training\",\"Stims/Figures/44-J-10-3.bmp\",\"None\",\"Down\",\"38\",\"2\",\"7\",\"10\",\"N\",\"J\",\"23\"
\"\",\"\",\"approach-retreat\",\"27\",\"308307\",\"0.0-27.0\",\"\",\"\",\"2-5\",\"8173\",\"39\",\"1\",\"Training\",\"Stims/Figures/84-C-20-2.bmp\",\"None\",\"Right\",\"39\",\"2\",\"8\",\"10\",\"N\",\"J\",\"24\"
\"\",\"\",\"approach-retreat\",\"28\",\"314437\",\"0.0-28.0\",\"\",\"\",\"2-5\",\"4614\",\"39\",\"1\",\"Training\",\"Stims/Figures/85-C-20-2.bmp\",\"None\",\"Right\",\"39\",\"2\",\"9\",\"10\",\"N\",\"J\",\"25\"
\"\",\"\",\"approach-retreat\",\"29\",\"320474\",\"0.0-29.0\",\"\",\"\",\"2-5\",\"4526\",\"40\",\"1\",\"Training\",\"Stims/Figures/102-C-20-4.bmp\",\"None\",\"Down\",\"40\",\"2\",\"10\",\"10\",\"N\",\"J\",\"26\"
\"\",\"\",\"approach-retreat\",\"30\",\"327605\",\"0.0-30.0\",\"\",\"\",\"2-5\",\"5609\",\"40\",\"0\",\"Training\",\"Stims/Figures/128-C-30-3.bmp\",\"None\",\"Up\",\"38\",\"2\",\"11\",\"10\",\"N\",\"J\",\"27\"
\"\",\"\",\"approach-retreat\",\"31\",\"333917\",\"0.0-31.0\",\"\",\"\",\"2-5\",\"4795\",\"37\",\"1\",\"Training\",\"Stims/Figures/71-C-30-1.bmp\",\"None\",\"Left\",\"37\",\"2\",\"12\",\"10\",\"N\",\"J\",\"28\"
\"\",\"\",\"approach-retreat\",\"32\",\"341799\",\"0.0-32.0\",\"\",\"\",\"2-5\",\"6361\",\"40\",\"1\",\"Training\",\"Stims/Figures/74-C-20-4.bmp\",\"None\",\"Down\",\"40\",\"2\",\"13\",\"10\",\"N\",\"J\",\"29\"
\"\",\"\",\"approach-retreat\",\"33\",\"348537\",\"0.0-33.0\",\"\",\"\",\"2-5\",\"5223\",\"37\",\"0\",\"Training\",\"Stims/Figures/84-J-0-2.bmp\",\"None\",\"Left\",\"39\",\"2\",\"14\",\"10\",\"N\",\"J\",\"30\"
\"\",\"\",\"approach-retreat\",\"34\",\"355449\",\"0.0-34.0\",\"\",\"\",\"2-5\",\"5397\",\"40\",\"1\",\"Training\",\"Stims/Figures/71-J-0-1.bmp\",\"None\",\"Up\",\"40\",\"2\",\"15\",\"10\",\"N\",\"J\",\"31\"
\"\",\"\",\"approach-retreat\",\"35\",\"361671\",\"0.0-35.0\",\"\",\"\",\"2-5\",\"4707\",\"39\",\"0\",\"Training\",\"Stims/Figures/128-J-10-3.bmp\",\"None\",\"Right\",\"37\",\"2\",\"16\",\"10\",\"N\",\"J\",\"32\"
\"\",\"\",\"approach-retreat\",\"36\",\"367542\",\"0.0-36.0\",\"\",\"\",\"2-5\",\"4351\",\"37\",\"0\",\"Training\",\"Stims/Figures/44-C-30-3.bmp\",\"None\",\"Right\",\"39\",\"3\",\"1\",\"10\",\"N\",\"J\",\"33\"
\"\",\"\",\"approach-retreat\",\"37\",\"374213\",\"0.0-37.0\",\"\",\"\",\"2-5\",\"5152\",\"40\",\"1\",\"Training\",\"Stims/Figures/85-J-0-2.bmp\",\"None\",\"Up\",\"40\",\"3\",\"2\",\"10\",\"N\",\"J\",\"34\"
\"\",\"\",\"approach-retreat\",\"38\",\"380418\",\"0.0-38.0\",\"\",\"\",\"2-5\",\"4667\",\"39\",\"0\",\"Training\",\"Stims/Figures/93-J-0-1.bmp\",\"None\",\"Right\",\"37\",\"3\",\"3\",\"10\",\"N\",\"J\",\"35\"
\"\",\"\",\"approach-retreat\",\"39\",\"389369\",\"0.0-39.0\",\"\",\"\",\"2-5\",\"7435\",\"38\",\"0\",\"Training\",\"Stims/Figures/74-C-20-4.bmp\",\"None\",\"Down\",\"40\",\"3\",\"4\",\"10\",\"N\",\"J\",\"36\"
\"\",\"\",\"approach-retreat\",\"40\",\"400958\",\"0.0-40.0\",\"\",\"\",\"2-5\",\"10071\",\"40\",\"0\",\"Training\",\"Stims/Figures/102-C-20-4.bmp\",\"None\",\"Up\",\"38\",\"3\",\"5\",\"10\",\"N\",\"J\",\"37\"
\"\",\"\",\"approach-retreat\",\"41\",\"408564\",\"0.0-41.0\",\"\",\"\",\"2-5\",\"6085\",\"37\",\"1\",\"Training\",\"Stims/Figures/128-J-10-3.bmp\",\"None\",\"Right\",\"37\",\"3\",\"6\",\"10\",\"N\",\"J\",\"38\"
\"\",\"\",\"approach-retreat\",\"42\",\"414555\",\"0.0-42.0\",\"\",\"\",\"2-5\",\"4473\",\"38\",\"0\",\"Training\",\"Stims/Figures/128-C-30-3.bmp\",\"None\",\"Down\",\"40\",\"3\",\"7\",\"10\",\"N\",\"J\",\"39\"
\"\",\"\",\"approach-retreat\",\"43\",\"422585\",\"0.0-43.0\",\"\",\"\",\"2-5\",\"6518\",\"39\",\"0\",\"Training\",\"Stims/Figures/84-C-20-2.bmp\",\"None\",\"Left\",\"37\",\"3\",\"8\",\"10\",\"N\",\"J\",\"40\"
\"\",\"\",\"approach-retreat\",\"44\",\"428387\",\"0.0-44.0\",\"\",\"\",\"2-5\",\"4285\",\"38\",\"0\",\"Training\",\"Stims/Figures/71-C-30-1.bmp\",\"None\",\"Down\",\"40\",\"3\",\"9\",\"10\",\"N\",\"J\",\"41\"
\"\",\"\",\"approach-retreat\",\"45\",\"434656\",\"0.0-45.0\",\"\",\"\",\"2-5\",\"4746\",\"37\",\"1\",\"Training\",\"Stims/Figures/102-J-10-4.bmp\",\"None\",\"Right\",\"37\",\"3\",\"10\",\"10\",\"N\",\"J\",\"42\"
\"\",\"\",\"approach-retreat\",\"46\",\"441708\",\"0.0-46.0\",\"\",\"\",\"2-5\",\"5537\",\"37\",\"0\",\"Training\",\"Stims/Figures/84-J-0-2.bmp\",\"None\",\"Left\",\"39\",\"3\",\"11\",\"10\",\"N\",\"J\",\"43\"
\"\",\"\",\"approach-retreat\",\"47\",\"448097\",\"0.0-47.0\",\"\",\"\",\"2-5\",\"4878\",\"40\",\"0\",\"Training\",\"Stims/Figures/85-C-20-2.bmp\",\"None\",\"Up\",\"38\",\"3\",\"12\",\"10\",\"N\",\"J\",\"44\"
\"\",\"\",\"approach-retreat\",\"48\",\"462546\",\"0.0-48.0\",\"\",\"\",\"2-5\",\"12935\",\"40\",\"1\",\"Training\",\"Stims/Figures/74-J-10-4.bmp\",\"None\",\"Up\",\"40\",\"3\",\"13\",\"10\",\"N\",\"J\",\"45\"
\"\",\"\",\"approach-retreat\",\"49\",\"468912\",\"0.0-49.0\",\"\",\"\",\"2-5\",\"4846\",\"39\",\"0\",\"Training\",\"Stims/Figures/93-C-30-1.bmp\",\"None\",\"Left\",\"37\",\"3\",\"14\",\"10\",\"N\",\"J\",\"46\"
\"\",\"\",\"approach-retreat\",\"50\",\"474762\",\"0.0-50.0\",\"\",\"\",\"2-5\",\"4327\",\"38\",\"1\",\"Training\",\"Stims/Figures/44-J-10-3.bmp\",\"None\",\"Down\",\"38\",\"3\",\"15\",\"10\",\"N\",\"J\",\"47\"
\"\",\"\",\"approach-retreat\",\"51\",\"480835\",\"0.0-51.0\",\"\",\"\",\"2-5\",\"4552\",\"39\",\"1\",\"Training\",\"Stims/Figures/71-J-0-1.bmp\",\"None\",\"Left\",\"39\",\"3\",\"16\",\"10\",\"N\",\"J\",\"48\"
\"\",\"\",\"approach-retreat\",\"52\",\"486949\",\"0.0-52.0\",\"\",\"\",\"2-5\",\"4593\",\"38\",\"0\",\"Training\",\"Stims/Figures/128-J-10-3.bmp\",\"None\",\"Up\",\"40\",\"4\",\"1\",\"10\",\"N\",\"J\",\"49\"
\"\",\"\",\"approach-retreat\",\"53\",\"494858\",\"0.0-53.0\",\"\",\"\",\"2-5\",\"6394\",\"40\",\"0\",\"Training\",\"Stims/Figures/93-J-0-1.bmp\",\"None\",\"Down\",\"38\",\"4\",\"2\",\"10\",\"N\",\"J\",\"50\"
\"\",\"\",\"approach-retreat\",\"54\",\"506227\",\"0.0-54.0\",\"\",\"\",\"2-5\",\"9849\",\"38\",\"1\",\"Training\",\"Stims/Figures/85-J-0-2.bmp\",\"None\",\"Down\",\"38\",\"4\",\"3\",\"10\",\"N\",\"J\",\"51\"
\"\",\"\",\"approach-retreat\",\"55\",\"515217\",\"0.0-55.0\",\"\",\"\",\"2-5\",\"7474\",\"38\",\"0\",\"Training\",\"Stims/Figures/102-J-10-4.bmp\",\"None\",\"Up\",\"40\",\"4\",\"4\",\"10\",\"N\",\"J\",\"52\"
\"\",\"\",\"approach-retreat\",\"56\",\"522080\",\"0.0-56.0\",\"\",\"\",\"2-5\",\"5348\",\"37\",\"0\",\"Training\",\"Stims/Figures/44-C-30-3.bmp\",\"None\",\"Right\",\"39\",\"4\",\"5\",\"10\",\"N\",\"J\",\"53\"
\"\",\"\",\"approach-retreat\",\"57\",\"531925\",\"0.0-57.0\",\"\",\"\",\"2-5\",\"8320\",\"39\",\"1\",\"Training\",\"Stims/Figures/71-J-0-1.bmp\",\"None\",\"Left\",\"39\",\"4\",\"6\",\"10\",\"N\",\"J\",\"54\"
\"\",\"\",\"approach-retreat\",\"58\",\"540031\",\"0.0-58.0\",\"\",\"\",\"2-5\",\"6581\",\"40\",\"1\",\"Training\",\"Stims/Figures/71-C-30-1.bmp\",\"None\",\"Down\",\"40\",\"4\",\"7\",\"10\",\"N\",\"J\",\"55\"
\"\",\"\",\"approach-retreat\",\"59\",\"549275\",\"0.0-59.0\",\"\",\"\",\"2-5\",\"7723\",\"38\",\"1\",\"Training\",\"Stims/Figures/93-C-30-1.bmp\",\"None\",\"Up\",\"38\",\"4\",\"8\",\"10\",\"N\",\"J\",\"56\"
\"\",\"\",\"approach-retreat\",\"60\",\"555127\",\"0.0-60.0\",\"\",\"\",\"2-5\",\"4329\",\"39\",\"1\",\"Training\",\"Stims/Figures/44-J-10-3.bmp\",\"None\",\"Left\",\"39\",\"4\",\"9\",\"10\",\"N\",\"J\",\"57\"
\"\",\"\",\"approach-retreat\",\"61\",\"562562\",\"0.0-61.0\",\"\",\"\",\"2-5\",\"5918\",\"39\",\"0\",\"Training\",\"Stims/Figures/74-J-10-4.bmp\",\"None\",\"Right\",\"37\",\"4\",\"10\",\"10\",\"N\",\"J\",\"58\"
\"\",\"\",\"approach-retreat\",\"62\",\"568437\",\"0.0-62.0\",\"\",\"\",\"2-5\",\"4362\",\"38\",\"0\",\"Training\",\"Stims/Figures/74-C-20-4.bmp\",\"None\",\"Down\",\"40\",\"4\",\"11\",\"10\",\"N\",\"J\",\"59\"
\"\",\"\",\"approach-retreat\",\"63\",\"575841\",\"0.0-63.0\",\"\",\"\",\"2-5\",\"5882\",\"38\",\"1\",\"Training\",\"Stims/Figures/84-C-20-2.bmp\",\"None\",\"Up\",\"38\",\"4\",\"12\",\"10\",\"N\",\"J\",\"60\"
\"\",\"\",\"approach-retreat\",\"64\",\"582022\",\"0.0-64.0\",\"\",\"\",\"2-5\",\"4658\",\"39\",\"1\",\"Training\",\"Stims/Figures/85-C-20-2.bmp\",\"None\",\"Right\",\"39\",\"4\",\"13\",\"10\",\"N\",\"J\",\"61\"
\"\",\"\",\"approach-retreat\",\"65\",\"590903\",\"0.0-65.0\",\"\",\"\",\"2-5\",\"7370\",\"39\",\"0\",\"Training\",\"Stims/Figures/128-C-30-3.bmp\",\"None\",\"Left\",\"37\",\"4\",\"14\",\"10\",\"N\",\"J\",\"62\"
\"\",\"\",\"approach-retreat\",\"66\",\"597455\",\"0.0-66.0\",\"\",\"\",\"2-5\",\"5032\",\"39\",\"1\",\"Training\",\"Stims/Figures/84-J-0-2.bmp\",\"None\",\"Left\",\"39\",\"4\",\"15\",\"10\",\"N\",\"J\",\"63\"
\"\",\"\",\"approach-retreat\",\"67\",\"603997\",\"0.0-67.0\",\"\",\"\",\"2-5\",\"5029\",\"37\",\"0\",\"Training\",\"Stims/Figures/102-C-20-4.bmp\",\"None\",\"Right\",\"39\",\"4\",\"16\",\"10\",\"N\",\"J\",\"64\"
\"\",\"\",\"approach-retreat\",\"68\",\"610036\",\"0.0-68.0\",\"\",\"\",\"2-5\",\"4516\",\"37\",\"1\",\"Training\",\"Stims/Figures/84-C-20-2.bmp\",\"None\",\"Left\",\"37\",\"5\",\"1\",\"10\",\"N\",\"J\",\"65\"
\"\",\"\",\"approach-retreat\",\"69\",\"618721\",\"0.0-69.0\",\"\",\"\",\"2-5\",\"7168\",\"40\",\"1\",\"Training\",\"Stims/Figures/71-C-30-1.bmp\",\"None\",\"Down\",\"40\",\"5\",\"2\",\"10\",\"N\",\"J\",\"66\"
\"\",\"\",\"approach-retreat\",\"70\",\"624560\",\"0.0-70.0\",\"\",\"\",\"2-5\",\"4319\",\"37\",\"0\",\"Training\",\"Stims/Figures/44-C-30-3.bmp\",\"None\",\"Right\",\"39\",\"5\",\"3\",\"10\",\"N\",\"J\",\"67\"
\"\",\"\",\"approach-retreat\",\"71\",\"631153\",\"0.0-71.0\",\"\",\"\",\"2-5\",\"5078\",\"37\",\"0\",\"Training\",\"Stims/Figures/128-J-10-3.bmp\",\"None\",\"Left\",\"39\",\"5\",\"4\",\"10\",\"N\",\"J\",\"68\"
\"\",\"\",\"approach-retreat\",\"72\",\"641505\",\"0.0-72.0\",\"\",\"\",\"2-5\",\"8830\",\"39\",\"0\",\"Training\",\"Stims/Figures/71-J-0-1.bmp\",\"None\",\"Right\",\"37\",\"5\",\"5\",\"10\",\"N\",\"J\",\"69\"
\"\",\"\",\"approach-retreat\",\"73\",\"650203\",\"0.0-73.0\",\"\",\"\",\"2-5\",\"7185\",\"38\",\"0\",\"Training\",\"Stims/Figures/102-J-10-4.bmp\",\"None\",\"Up\",\"40\",\"5\",\"6\",\"10\",\"N\",\"J\",\"70\"
\"\",\"\",\"approach-retreat\",\"74\",\"656373\",\"0.0-74.0\",\"\",\"\",\"2-5\",\"4659\",\"38\",\"1\",\"Training\",\"Stims/Figures/93-J-0-1.bmp\",\"None\",\"Down\",\"38\",\"5\",\"7\",\"10\",\"N\",\"J\",\"71\"
\"\",\"\",\"approach-retreat\",\"75\",\"663153\",\"0.0-75.0\",\"\",\"\",\"2-5\",\"5267\",\"40\",\"0\",\"Training\",\"Stims/Figures/84-J-0-2.bmp\",\"None\",\"Down\",\"38\",\"5\",\"8\",\"10\",\"N\",\"J\",\"72\"
\"\",\"\",\"approach-retreat\",\"76\",\"670004\",\"0.0-76.0\",\"\",\"\",\"2-5\",\"5336\",\"38\",\"1\",\"Training\",\"Stims/Figures/74-J-10-4.bmp\",\"None\",\"Down\",\"38\",\"5\",\"9\",\"10\",\"N\",\"J\",\"73\"
\"\",\"\",\"approach-retreat\",\"77\",\"676712\",\"0.0-77.0\",\"\",\"\",\"2-5\",\"5185\",\"38\",\"1\",\"Training\",\"Stims/Figures/85-C-20-2.bmp\",\"None\",\"Up\",\"38\",\"5\",\"10\",\"10\",\"N\",\"J\",\"74\"
\"\",\"\",\"approach-retreat\",\"78\",\"683230\",\"0.0-78.0\",\"\",\"\",\"2-5\",\"4998\",\"38\",\"0\",\"Training\",\"Stims/Figures/85-J-0-2.bmp\",\"None\",\"Up\",\"40\",\"5\",\"11\",\"10\",\"N\",\"J\",\"75\"
\"\",\"\",\"approach-retreat\",\"79\",\"689375\",\"0.0-79.0\",\"\",\"\",\"2-5\",\"4622\",\"37\",\"0\",\"Training\",\"Stims/Figures/102-C-20-4.bmp\",\"None\",\"Right\",\"39\",\"5\",\"12\",\"10\",\"N\",\"J\",\"76\"
\"\",\"\",\"approach-retreat\",\"80\",\"703319\",\"0.0-80.0\",\"\",\"\",\"2-5\",\"12431\",\"38\",\"1\",\"Training\",\"Stims/Figures/128-C-30-3.bmp\",\"None\",\"Up\",\"38\",\"5\",\"13\",\"10\",\"N\",\"J\",\"77\"
\"\",\"\",\"approach-retreat\",\"81\",\"709209\",\"0.0-81.0\",\"\",\"\",\"2-5\",\"4380\",\"37\",\"0\",\"Training\",\"Stims/Figures/93-C-30-1.bmp\",\"None\",\"Right\",\"39\",\"5\",\"14\",\"10\",\"N\",\"J\",\"78\"
\"\",\"\",\"approach-retreat\",\"82\",\"717513\",\"0.0-82.0\",\"\",\"\",\"2-5\",\"6789\",\"37\",\"0\",\"Training\",\"Stims/Figures/44-J-10-3.bmp\",\"None\",\"Left\",\"39\",\"5\",\"15\",\"10\",\"N\",\"J\",\"79\"
\"\",\"\",\"approach-retreat\",\"83\",\"723932\",\"0.0-83.0\",\"\",\"\",\"2-5\",\"4905\",\"39\",\"0\",\"Training\",\"Stims/Figures/74-C-20-4.bmp\",\"None\",\"Left\",\"37\",\"5\",\"16\",\"10\",\"N\",\"J\",\"80\"
\"\",\"\",\"approach-retreat\",\"84\",\"737362\",\"0.0-84.0\",\"\",\"\",\"2-5\",\"11908\",\"38\",\"0\",\"Training\",\"Stims/Figures/128-C-30-3.bmp\",\"None\",\"Down\",\"40\",\"6\",\"1\",\"10\",\"N\",\"J\",\"81\"
\"\",\"\",\"approach-retreat\",\"85\",\"744182\",\"0.0-85.0\",\"\",\"\",\"2-5\",\"5302\",\"38\",\"1\",\"Training\",\"Stims/Figures/71-C-30-1.bmp\",\"None\",\"Up\",\"38\",\"6\",\"2\",\"10\",\"N\",\"J\",\"82\"
\"\",\"\",\"approach-retreat\",\"86\",\"750983\",\"0.0-86.0\",\"\",\"\",\"2-5\",\"5275\",\"38\",\"1\",\"Training\",\"Stims/Figures/44-C-30-3.bmp\",\"None\",\"Up\",\"38\",\"6\",\"3\",\"10\",\"N\",\"J\",\"83\"
\"\",\"\",\"approach-retreat\",\"87\",\"770083\",\"0.0-87.0\",\"\",\"\",\"2-5\",\"17581\",\"37\",\"1\",\"Training\",\"Stims/Figures/102-J-10-4.bmp\",\"None\",\"Right\",\"37\",\"6\",\"4\",\"10\",\"N\",\"J\",\"84\"
\"\",\"\",\"approach-retreat\",\"88\",\"777237\",\"0.0-88.0\",\"\",\"\",\"2-5\",\"5639\",\"37\",\"1\",\"Training\",\"Stims/Figures/93-C-30-1.bmp\",\"None\",\"Left\",\"37\",\"6\",\"5\",\"10\",\"N\",\"J\",\"85\"
\"\",\"\",\"approach-retreat\",\"89\",\"784200\",\"0.0-89.0\",\"\",\"\",\"2-5\",\"5448\",\"40\",\"1\",\"Training\",\"Stims/Figures/84-C-20-2.bmp\",\"None\",\"Down\",\"40\",\"6\",\"6\",\"10\",\"N\",\"J\",\"86\"
\"\",\"\",\"approach-retreat\",\"90\",\"813097\",\"0.0-90.0\",\"\",\"\",\"2-5\",\"27376\",\"38\",\"1\",\"Training\",\"Stims/Figures/102-C-20-4.bmp\",\"None\",\"Up\",\"38\",\"6\",\"7\",\"10\",\"N\",\"J\",\"87\"
\"\",\"\",\"approach-retreat\",\"91\",\"820258\",\"0.0-91.0\",\"\",\"\",\"2-5\",\"5648\",\"37\",\"1\",\"Training\",\"Stims/Figures/74-J-10-4.bmp\",\"None\",\"Right\",\"37\",\"6\",\"8\",\"10\",\"N\",\"J\",\"88\"
\"\",\"\",\"approach-retreat\",\"92\",\"826145\",\"0.0-92.0\",\"\",\"\",\"2-5\",\"4372\",\"38\",\"1\",\"Training\",\"Stims/Figures/93-J-0-1.bmp\",\"None\",\"Down\",\"38\",\"6\",\"9\",\"10\",\"N\",\"J\",\"89\"
\"\",\"\",\"approach-retreat\",\"93\",\"832182\",\"0.0-93.0\",\"\",\"\",\"2-5\",\"4505\",\"37\",\"1\",\"Training\",\"Stims/Figures/84-J-0-2.bmp\",\"None\",\"Right\",\"37\",\"6\",\"10\",\"10\",\"N\",\"J\",\"90\"
\"\",\"\",\"approach-retreat\",\"94\",\"838381\",\"0.0-94.0\",\"\",\"\",\"2-5\",\"4688\",\"40\",\"1\",\"Training\",\"Stims/Figures/71-J-0-1.bmp\",\"None\",\"Up\",\"40\",\"6\",\"11\",\"10\",\"N\",\"J\",\"91\"
\"\",\"\",\"approach-retreat\",\"95\",\"844733\",\"0.0-95.0\",\"\",\"\",\"2-5\",\"4838\",\"39\",\"1\",\"Training\",\"Stims/Figures/128-J-10-3.bmp\",\"None\",\"Left\",\"39\",\"6\",\"12\",\"10\",\"N\",\"J\",\"92\"
\"\",\"\",\"approach-retreat\",\"96\",\"851164\",\"0.0-96.0\",\"\",\"\",\"2-5\",\"4918\",\"39\",\"1\",\"Training\",\"Stims/Figures/85-C-20-2.bmp\",\"None\",\"Right\",\"39\",\"6\",\"13\",\"10\",\"N\",\"J\",\"93\"
\"\",\"\",\"approach-retreat\",\"97\",\"863252\",\"0.0-97.0\",\"\",\"\",\"2-5\",\"10577\",\"37\",\"0\",\"Training\",\"Stims/Figures/44-J-10-3.bmp\",\"None\",\"Left\",\"39\",\"6\",\"14\",\"10\",\"N\",\"J\",\"94\"
\"\",\"\",\"approach-retreat\",\"98\",\"871593\",\"0.0-98.0\",\"\",\"\",\"2-5\",\"6822\",\"38\",\"1\",\"Training\",\"Stims/Figures/85-J-0-2.bmp\",\"None\",\"Down\",\"38\",\"6\",\"15\",\"10\",\"N\",\"J\",\"95\"
\"\",\"\",\"approach-retreat\",\"99\",\"877728\",\"0.0-99.0\",\"\",\"\",\"2-5\",\"4620\",\"37\",\"1\",\"Training\",\"Stims/Figures/74-C-20-4.bmp\",\"None\",\"Left\",\"37\",\"6\",\"16\",\"10\",\"N\",\"J\",\"96\"
\"\",\"\",\"approach-retreat\",\"100\",\"883359\",\"0.0-100.0\",\"\",\"\",\"2-5\",\"4113\",\"37\",\"1\",\"Training\",\"Stims/Figures/71-C-30-1.bmp\",\"None\",\"Left\",\"37\",\"7\",\"1\",\"10\",\"N\",\"J\",\"97\"
\"\",\"\",\"approach-retreat\",\"101\",\"889842\",\"0.0-101.0\",\"\",\"\",\"2-5\",\"4952\",\"39\",\"1\",\"Training\",\"Stims/Figures/84-C-20-2.bmp\",\"None\",\"Right\",\"39\",\"7\",\"2\",\"10\",\"N\",\"J\",\"98\"
\"\",\"\",\"approach-retreat\",\"102\",\"896161\",\"0.0-102.0\",\"\",\"\",\"2-5\",\"4803\",\"40\",\"1\",\"Training\",\"Stims/Figures/44-C-30-3.bmp\",\"None\",\"Down\",\"40\",\"7\",\"3\",\"10\",\"N\",\"J\",\"99\"
\"\",\"\",\"approach-retreat\",\"103\",\"902211\",\"0.0-103.0\",\"\",\"\",\"2-5\",\"4524\",\"39\",\"1\",\"Training\",\"Stims/Figures/74-C-20-4.bmp\",\"None\",\"Right\",\"39\",\"7\",\"4\",\"10\",\"N\",\"J\",\"100\"
\"\",\"\",\"approach-retreat\",\"104\",\"908485\",\"0.0-104.0\",\"\",\"\",\"2-5\",\"4762\",\"39\",\"1\",\"Training\",\"Stims/Figures/102-C-20-4.bmp\",\"None\",\"Right\",\"39\",\"7\",\"5\",\"10\",\"N\",\"J\",\"101\"
\"\",\"\",\"approach-retreat\",\"105\",\"915883\",\"0.0-105.0\",\"\",\"\",\"2-5\",\"5888\",\"38\",\"0\",\"Training\",\"Stims/Figures/128-J-10-3.bmp\",\"None\",\"Up\",\"40\",\"7\",\"6\",\"10\",\"N\",\"J\",\"102\"
\"\",\"\",\"approach-retreat\",\"106\",\"922778\",\"0.0-106.0\",\"\",\"\",\"2-5\",\"5372\",\"40\",\"1\",\"Training\",\"Stims/Figures/93-C-30-1.bmp\",\"None\",\"Down\",\"40\",\"7\",\"7\",\"10\",\"N\",\"J\",\"103\"
\"\",\"\",\"approach-retreat\",\"107\",\"929262\",\"0.0-107.0\",\"\",\"\",\"2-5\",\"4972\",\"38\",\"1\",\"Training\",\"Stims/Figures/74-J-10-4.bmp\",\"None\",\"Down\",\"38\",\"7\",\"8\",\"10\",\"N\",\"J\",\"104\"
\"\",\"\",\"approach-retreat\",\"108\",\"935359\",\"0.0-108.0\",\"\",\"\",\"2-5\",\"4572\",\"40\",\"1\",\"Training\",\"Stims/Figures/85-J-0-2.bmp\",\"None\",\"Up\",\"40\",\"7\",\"9\",\"10\",\"N\",\"J\",\"105\"
\"\",\"\",\"approach-retreat\",\"109\",\"941314\",\"0.0-109.0\",\"\",\"\",\"2-5\",\"4431\",\"37\",\"1\",\"Training\",\"Stims/Figures/85-C-20-2.bmp\",\"None\",\"Left\",\"37\",\"7\",\"10\",\"10\",\"N\",\"J\",\"106\"
\"\",\"\",\"approach-retreat\",\"110\",\"949149\",\"0.0-110.0\",\"\",\"\",\"2-5\",\"6317\",\"40\",\"0\",\"Training\",\"Stims/Figures/102-J-10-4.bmp\",\"None\",\"Down\",\"38\",\"7\",\"11\",\"10\",\"N\",\"J\",\"107\"
\"\",\"\",\"approach-retreat\",\"111\",\"956442\",\"0.0-111.0\",\"\",\"\",\"2-5\",\"5786\",\"39\",\"1\",\"Training\",\"Stims/Figures/44-J-10-3.bmp\",\"None\",\"Left\",\"39\",\"7\",\"12\",\"10\",\"N\",\"J\",\"108\"
\"\",\"\",\"approach-retreat\",\"112\",\"962765\",\"0.0-112.0\",\"\",\"\",\"2-5\",\"4810\",\"37\",\"1\",\"Training\",\"Stims/Figures/93-J-0-1.bmp\",\"None\",\"Right\",\"37\",\"7\",\"13\",\"10\",\"N\",\"J\",\"109\"
\"\",\"\",\"approach-retreat\",\"113\",\"968527\",\"0.0-113.0\",\"\",\"\",\"2-5\",\"4246\",\"40\",\"1\",\"Training\",\"Stims/Figures/71-J-0-1.bmp\",\"None\",\"Up\",\"40\",\"7\",\"14\",\"10\",\"N\",\"J\",\"110\"
\"\",\"\",\"approach-retreat\",\"114\",\"974438\",\"0.0-114.0\",\"\",\"\",\"2-5\",\"4386\",\"39\",\"1\",\"Training\",\"Stims/Figures/84-J-0-2.bmp\",\"None\",\"Left\",\"39\",\"7\",\"15\",\"10\",\"N\",\"J\",\"111\"
\"\",\"\",\"approach-retreat\",\"115\",\"980734\",\"0.0-115.0\",\"\",\"\",\"2-5\",\"4781\",\"38\",\"1\",\"Training\",\"Stims/Figures/128-C-30-3.bmp\",\"None\",\"Up\",\"38\",\"7\",\"16\",\"10\",\"N\",\"J\",\"112\"
\"\",\"\",\"approach-retreat\",\"116\",\"987065\",\"0.0-116.0\",\"\",\"\",\"2-5\",\"4817\",\"38\",\"1\",\"Training\",\"Stims/Figures/74-C-20-4.bmp\",\"None\",\"Up\",\"38\",\"8\",\"1\",\"10\",\"N\",\"J\",\"113\"
\"\",\"\",\"approach-retreat\",\"117\",\"993041\",\"0.0-117.0\",\"\",\"\",\"2-5\",\"4451\",\"39\",\"1\",\"Training\",\"Stims/Figures/84-C-20-2.bmp\",\"None\",\"Right\",\"39\",\"8\",\"2\",\"10\",\"N\",\"J\",\"114\"
\"\",\"\",\"approach-retreat\",\"118\",\"999104\",\"0.0-118.0\",\"\",\"\",\"2-5\",\"4539\",\"40\",\"1\",\"Training\",\"Stims/Figures/102-J-10-4.bmp\",\"None\",\"Up\",\"40\",\"8\",\"3\",\"10\",\"N\",\"J\",\"115\"
\"\",\"\",\"approach-retreat\",\"119\",\"1004883\",\"0.0-119.0\",\"\",\"\",\"2-5\",\"4249\",\"39\",\"1\",\"Training\",\"Stims/Figures/102-C-20-4.bmp\",\"None\",\"Right\",\"39\",\"8\",\"4\",\"10\",\"N\",\"J\",\"116\"
\"\",\"\",\"approach-retreat\",\"120\",\"1010907\",\"0.0-120.0\",\"\",\"\",\"2-5\",\"4503\",\"38\",\"1\",\"Training\",\"Stims/Figures/44-J-10-3.bmp\",\"None\",\"Down\",\"38\",\"8\",\"5\",\"10\",\"N\",\"J\",\"117\"
\"\",\"\",\"approach-retreat\",\"121\",\"1016687\",\"0.0-121.0\",\"\",\"\",\"2-5\",\"4264\",\"39\",\"1\",\"Training\",\"Stims/Figures/71-C-30-1.bmp\",\"None\",\"Right\",\"39\",\"8\",\"6\",\"10\",\"N\",\"J\",\"118\"
\"\",\"\",\"approach-retreat\",\"122\",\"1022871\",\"0.0-122.0\",\"\",\"\",\"2-5\",\"4668\",\"40\",\"1\",\"Training\",\"Stims/Figures/128-J-10-3.bmp\",\"None\",\"Up\",\"40\",\"8\",\"7\",\"10\",\"N\",\"J\",\"119\"
\"\",\"\",\"approach-retreat\",\"123\",\"1028739\",\"0.0-123.0\",\"\",\"\",\"2-5\",\"4345\",\"39\",\"1\",\"Training\",\"Stims/Figures/71-J-0-1.bmp\",\"None\",\"Left\",\"39\",\"8\",\"8\",\"10\",\"N\",\"J\",\"120\"
\"\",\"\",\"approach-retreat\",\"124\",\"1034753\",\"0.0-124.0\",\"\",\"\",\"2-5\",\"4504\",\"40\",\"1\",\"Training\",\"Stims/Figures/44-C-30-3.bmp\",\"None\",\"Down\",\"40\",\"8\",\"9\",\"10\",\"N\",\"J\",\"121\"
\"\",\"\",\"approach-retreat\",\"125\",\"1040620\",\"0.0-125.0\",\"\",\"\",\"2-5\",\"4347\",\"40\",\"1\",\"Training\",\"Stims/Figures/93-J-0-1.bmp\",\"None\",\"Up\",\"40\",\"8\",\"10\",\"10\",\"N\",\"J\",\"122\"
\"\",\"\",\"approach-retreat\",\"126\",\"1048201\",\"0.0-126.0\",\"\",\"\",\"2-5\",\"6070\",\"39\",\"1\",\"Training\",\"Stims/Figures/85-J-0-2.bmp\",\"None\",\"Left\",\"39\",\"8\",\"11\",\"10\",\"N\",\"J\",\"123\"
\"\",\"\",\"approach-retreat\",\"127\",\"1055571\",\"0.0-127.0\",\"\",\"\",\"2-5\",\"5856\",\"39\",\"1\",\"Training\",\"Stims/Figures/84-J-0-2.bmp\",\"None\",\"Left\",\"39\",\"8\",\"12\",\"10\",\"N\",\"J\",\"124\"
\"\",\"\",\"approach-retreat\",\"128\",\"1063519\",\"0.0-128.0\",\"\",\"\",\"2-5\",\"6431\",\"40\",\"1\",\"Training\",\"Stims/Figures/85-C-20-2.bmp\",\"None\",\"Down\",\"40\",\"8\",\"13\",\"10\",\"N\",\"J\",\"125\"
\"\",\"\",\"approach-retreat\",\"129\",\"1071185\",\"0.0-129.0\",\"\",\"\",\"2-5\",\"6150\",\"39\",\"1\",\"Training\",\"Stims/Figures/74-J-10-4.bmp\",\"None\",\"Left\",\"39\",\"8\",\"14\",\"10\",\"N\",\"J\",\"126\"
\"\",\"\",\"approach-retreat\",\"130\",\"1078472\",\"0.0-130.0\",\"\",\"\",\"2-5\",\"5772\",\"40\",\"1\",\"Training\",\"Stims/Figures/128-C-30-3.bmp\",\"None\",\"Down\",\"40\",\"8\",\"15\",\"10\",\"N\",\"J\",\"127\"
\"\",\"\",\"approach-retreat\",\"131\",\"1085319\",\"0.0-131.0\",\"\",\"\",\"2-5\",\"5325\",\"39\",\"1\",\"Training\",\"Stims/Figures/93-C-30-1.bmp\",\"None\",\"Right\",\"39\",\"8\",\"16\",\"10\",\"N\",\"J\",\"128\"
\"\",\"\",\"approach-retreat\",\"132\",\"1091826\",\"0.0-132.0\",\"\",\"\",\"2-5\",\"4988\",\"38\",\"1\",\"Training\",\"Stims/Figures/44-C-30-3.bmp\",\"None\",\"Up\",\"38\",\"9\",\"1\",\"10\",\"N\",\"J\",\"129\"
\"\",\"\",\"approach-retreat\",\"133\",\"1099073\",\"0.0-133.0\",\"\",\"\",\"2-5\",\"5732\",\"40\",\"0\",\"Training\",\"Stims/Figures/102-J-10-4.bmp\",\"None\",\"Down\",\"38\",\"9\",\"2\",\"10\",\"N\",\"J\",\"130\"
\"\",\"\",\"approach-retreat\",\"134\",\"1106687\",\"0.0-134.0\",\"\",\"\",\"2-5\",\"6099\",\"39\",\"1\",\"Training\",\"Stims/Figures/85-J-0-2.bmp\",\"None\",\"Left\",\"39\",\"9\",\"3\",\"10\",\"N\",\"J\",\"131\"
\"\",\"\",\"approach-retreat\",\"135\",\"1113570\",\"0.0-135.0\",\"\",\"\",\"2-5\",\"5367\",\"39\",\"1\",\"Training\",\"Stims/Figures/71-J-0-1.bmp\",\"None\",\"Left\",\"39\",\"9\",\"4\",\"10\",\"N\",\"J\",\"132\"
\"\",\"\",\"approach-retreat\",\"136\",\"1124898\",\"0.0-136.0\",\"\",\"\",\"2-5\",\"9800\",\"37\",\"1\",\"Training\",\"Stims/Figures/102-C-20-4.bmp\",\"None\",\"Left\",\"37\",\"9\",\"5\",\"10\",\"N\",\"J\",\"133\"
\"\",\"\",\"approach-retreat\",\"137\",\"1131173\",\"0.0-137.0\",\"\",\"\",\"2-5\",\"4760\",\"37\",\"1\",\"Training\",\"Stims/Figures/93-J-0-1.bmp\",\"None\",\"Right\",\"37\",\"9\",\"6\",\"10\",\"N\",\"J\",\"134\"
\"\",\"\",\"approach-retreat\",\"138\",\"1141214\",\"0.0-138.0\",\"\",\"\",\"2-5\",\"8528\",\"39\",\"1\",\"Training\",\"Stims/Figures/71-C-30-1.bmp\",\"None\",\"Right\",\"39\",\"9\",\"7\",\"10\",\"N\",\"J\",\"135\"
\"\",\"\",\"approach-retreat\",\"139\",\"1148269\",\"0.0-139.0\",\"\",\"\",\"2-5\",\"5535\",\"40\",\"1\",\"Training\",\"Stims/Figures/85-C-20-2.bmp\",\"None\",\"Down\",\"40\",\"9\",\"8\",\"10\",\"N\",\"J\",\"136\"
\"\",\"\",\"approach-retreat\",\"140\",\"1154784\",\"0.0-140.0\",\"\",\"\",\"2-5\",\"4999\",\"40\",\"1\",\"Training\",\"Stims/Figures/93-C-30-1.bmp\",\"None\",\"Down\",\"40\",\"9\",\"9\",\"10\",\"N\",\"J\",\"137\"
\"\",\"\",\"approach-retreat\",\"141\",\"1161595\",\"0.0-141.0\",\"\",\"\",\"2-5\",\"5296\",\"40\",\"0\",\"Training\",\"Stims/Figures/74-C-20-4.bmp\",\"None\",\"Up\",\"38\",\"9\",\"10\",\"10\",\"N\",\"J\",\"138\"
\"\",\"\",\"approach-retreat\",\"142\",\"1171086\",\"0.0-142.0\",\"\",\"\",\"2-5\",\"7979\",\"40\",\"1\",\"Training\",\"Stims/Figures/128-J-10-3.bmp\",\"None\",\"Up\",\"40\",\"9\",\"11\",\"10\",\"N\",\"J\",\"139\"
\"\",\"\",\"approach-retreat\",\"143\",\"1177833\",\"0.0-143.0\",\"\",\"\",\"2-5\",\"5227\",\"39\",\"1\",\"Training\",\"Stims/Figures/84-J-0-2.bmp\",\"None\",\"Left\",\"39\",\"9\",\"12\",\"10\",\"N\",\"J\",\"140\"
\"\",\"\",\"approach-retreat\",\"144\",\"1185685\",\"0.0-144.0\",\"\",\"\",\"2-5\",\"6330\",\"38\",\"1\",\"Training\",\"Stims/Figures/74-J-10-4.bmp\",\"None\",\"Down\",\"38\",\"9\",\"13\",\"10\",\"N\",\"J\",\"141\"
\"\",\"\",\"approach-retreat\",\"145\",\"1192107\",\"0.0-145.0\",\"\",\"\",\"2-5\",\"4908\",\"37\",\"1\",\"Training\",\"Stims/Figures/44-J-10-3.bmp\",\"None\",\"Right\",\"37\",\"9\",\"14\",\"10\",\"N\",\"J\",\"142\"
\"\",\"\",\"approach-retreat\",\"146\",\"1200583\",\"0.0-146.0\",\"\",\"\",\"2-5\",\"6956\",\"38\",\"1\",\"Training\",\"Stims/Figures/128-C-30-3.bmp\",\"None\",\"Up\",\"38\",\"9\",\"15\",\"10\",\"N\",\"J\",\"143\"
\"\",\"\",\"approach-retreat\",\"147\",\"1206549\",\"0.0-147.0\",\"\",\"\",\"2-5\",\"4445\",\"39\",\"1\",\"Training\",\"Stims/Figures/84-C-20-2.bmp\",\"None\",\"Right\",\"39\",\"9\",\"16\",\"10\",\"N\",\"J\",\"144\"
\"11375\",\"\",\"instructions\",\"148\",\"1217924\",\"0.0-148.0\",\"[{\"\"page_index\"\":0,\"\"viewing_time\"\":11361}]\",\"\",\"\",\"\",\"\",\"\",\"\",\"\",\"\",\"\",\"\",\"\",\"\",\"\",\"\",\"\",\"\"
\"\",\"\",\"approach-retreat\",\"149\",\"1223845\",\"0.0-149.0\",\"\",\"\",\"2-5\",\"4405\",\"39\",\"1\",\"Testing\",\"Stims/Figures/139-J-0-2.bmp\",\"None\",\"Left\",\"39\",\"1\",\"1\",\"10\",\"N\",\"J\",\"1\"
\"\",\"\",\"approach-retreat\",\"150\",\"1229943\",\"0.0-150.0\",\"\",\"\",\"2-5\",\"4590\",\"37\",\"1\",\"Testing\",\"Stims/Figures/44-J-10-3.bmp\",\"None\",\"Right\",\"37\",\"1\",\"2\",\"10\",\"N\",\"J\",\"2\"
\"\",\"\",\"approach-retreat\",\"151\",\"1236012\",\"0.0-151.0\",\"\",\"\",\"2-5\",\"4563\",\"39\",\"1\",\"Testing\",\"Stims/Figures/84-J-0-2.bmp\",\"None\",\"Left\",\"39\",\"1\",\"3\",\"10\",\"N\",\"J\",\"3\"
\"\",\"\",\"approach-retreat\",\"152\",\"1241887\",\"0.0-152.0\",\"\",\"\",\"2-5\",\"4367\",\"39\",\"1\",\"Testing\",\"Stims/Figures/74-J-10-4.bmp\",\"None\",\"Left\",\"39\",\"1\",\"4\",\"10\",\"N\",\"J\",\"4\"
\"\",\"\",\"approach-retreat\",\"153\",\"1248513\",\"0.0-153.0\",\"\",\"\",\"2-5\",\"5104\",\"38\",\"1\",\"Testing\",\"Stims/Figures/57-J-0-1.bmp\",\"None\",\"Down\",\"38\",\"1\",\"5\",\"10\",\"N\",\"J\",\"5\"
\"\",\"\",\"approach-retreat\",\"154\",\"1254637\",\"0.0-154.0\",\"\",\"\",\"2-5\",\"4616\",\"37\",\"1\",\"Testing\",\"Stims/Figures/85-C-20-2.bmp\",\"None\",\"Left\",\"37\",\"1\",\"6\",\"10\",\"N\",\"J\",\"6\"
\"\",\"\",\"approach-retreat\",\"155\",\"1261652\",\"0.0-155.0\",\"\",\"\",\"2-5\",\"5500\",\"40\",\"1\",\"Testing\",\"Stims/Figures/44-C-30-3.bmp\",\"None\",\"Down\",\"40\",\"1\",\"7\",\"10\",\"N\",\"J\",\"7\"
\"\",\"\",\"approach-retreat\",\"156\",\"1267741\",\"0.0-156.0\",\"\",\"\",\"2-5\",\"4568\",\"39\",\"1\",\"Testing\",\"Stims/Figures/102-J-10-4.bmp\",\"None\",\"Left\",\"39\",\"1\",\"8\",\"10\",\"N\",\"J\",\"8\"
\"\",\"\",\"approach-retreat\",\"157\",\"1274226\",\"0.0-157.0\",\"\",\"\",\"2-5\",\"4980\",\"40\",\"1\",\"Testing\",\"Stims/Figures/93-J-0-1.bmp\",\"None\",\"Up\",\"40\",\"1\",\"9\",\"10\",\"N\",\"J\",\"9\"
\"\",\"\",\"approach-retreat\",\"158\",\"1280041\",\"0.0-158.0\",\"\",\"\",\"2-5\",\"4303\",\"39\",\"1\",\"Testing\",\"Stims/Figures/85-J-0-2.bmp\",\"None\",\"Left\",\"39\",\"1\",\"10\",\"10\",\"N\",\"J\",\"10\"
\"\",\"\",\"approach-retreat\",\"159\",\"1285906\",\"0.0-159.0\",\"\",\"\",\"2-5\",\"4351\",\"40\",\"1\",\"Testing\",\"Stims/Figures/87-J-10-4.bmp\",\"None\",\"Up\",\"40\",\"1\",\"11\",\"10\",\"N\",\"J\",\"11\"
\"\",\"\",\"approach-retreat\",\"160\",\"1292057\",\"0.0-160.0\",\"\",\"\",\"2-5\",\"4631\",\"40\",\"1\",\"Testing\",\"Stims/Figures/87-C-20-4.bmp\",\"None\",\"Down\",\"40\",\"1\",\"12\",\"10\",\"N\",\"J\",\"12\"
\"\",\"\",\"approach-retreat\",\"161\",\"1298194\",\"0.0-161.0\",\"\",\"\",\"2-5\",\"4619\",\"40\",\"1\",\"Testing\",\"Stims/Figures/100-C-30-3.bmp\",\"None\",\"Down\",\"40\",\"1\",\"13\",\"10\",\"N\",\"J\",\"13\"
\"\",\"\",\"approach-retreat\",\"162\",\"1305262\",\"0.0-162.0\",\"\",\"\",\"2-5\",\"5548\",\"39\",\"1\",\"Testing\",\"Stims/Figures/71-C-30-1.bmp\",\"None\",\"Right\",\"39\",\"1\",\"14\",\"10\",\"N\",\"J\",\"14\"
\"\",\"\",\"approach-retreat\",\"163\",\"1311450\",\"0.0-163.0\",\"\",\"\",\"2-5\",\"4665\",\"38\",\"1\",\"Testing\",\"Stims/Figures/128-C-30-3.bmp\",\"None\",\"Up\",\"38\",\"1\",\"15\",\"10\",\"N\",\"J\",\"15\"
\"\",\"\",\"approach-retreat\",\"164\",\"1317559\",\"0.0-164.0\",\"\",\"\",\"2-5\",\"4589\",\"38\",\"1\",\"Testing\",\"Stims/Figures/84-C-20-2.bmp\",\"None\",\"Up\",\"38\",\"1\",\"16\",\"10\",\"N\",\"J\",\"16\"
\"\",\"\",\"approach-retreat\",\"165\",\"1323725\",\"0.0-165.0\",\"\",\"\",\"2-5\",\"4644\",\"40\",\"1\",\"Testing\",\"Stims/Figures/71-J-0-1.bmp\",\"None\",\"Up\",\"40\",\"1\",\"17\",\"10\",\"N\",\"J\",\"17\"
\"\",\"\",\"approach-retreat\",\"166\",\"1330877\",\"0.0-166.0\",\"\",\"\",\"2-5\",\"5629\",\"40\",\"1\",\"Testing\",\"Stims/Figures/93-C-30-1.bmp\",\"None\",\"Down\",\"40\",\"1\",\"18\",\"10\",\"N\",\"J\",\"18\"
\"\",\"\",\"approach-retreat\",\"167\",\"1336773\",\"0.0-167.0\",\"\",\"\",\"2-5\",\"4375\",\"39\",\"1\",\"Testing\",\"Stims/Figures/57-C-30-1.bmp\",\"None\",\"Right\",\"39\",\"1\",\"19\",\"10\",\"N\",\"J\",\"19\"
\"\",\"\",\"approach-retreat\",\"168\",\"1342672\",\"0.0-168.0\",\"\",\"\",\"2-5\",\"4374\",\"38\",\"1\",\"Testing\",\"Stims/Figures/128-J-10-3.bmp\",\"None\",\"Down\",\"38\",\"1\",\"20\",\"10\",\"N\",\"J\",\"20\"
\"\",\"\",\"approach-retreat\",\"169\",\"1349156\",\"0.0-169.0\",\"\",\"\",\"2-5\",\"4955\",\"37\",\"1\",\"Testing\",\"Stims/Figures/100-J-10-3.bmp\",\"None\",\"Right\",\"37\",\"1\",\"21\",\"10\",\"N\",\"J\",\"21\"
\"\",\"\",\"approach-retreat\",\"170\",\"1359571\",\"0.0-170.0\",\"\",\"\",\"2-5\",\"8912\",\"38\",\"1\",\"Testing\",\"Stims/Figures/139-C-20-2.bmp\",\"None\",\"Up\",\"38\",\"1\",\"22\",\"10\",\"N\",\"J\",\"22\"
\"\",\"\",\"approach-retreat\",\"171\",\"1365468\",\"0.0-171.0\",\"\",\"\",\"2-5\",\"4382\",\"37\",\"0\",\"Testing\",\"Stims/Figures/74-C-20-4.bmp\",\"None\",\"Right\",\"39\",\"1\",\"23\",\"10\",\"N\",\"J\",\"23\"
\"\",\"\",\"approach-retreat\",\"172\",\"1372031\",\"0.0-172.0\",\"\",\"\",\"2-5\",\"5039\",\"39\",\"1\",\"Testing\",\"Stims/Figures/102-C-20-4.bmp\",\"None\",\"Right\",\"39\",\"1\",\"24\",\"10\",\"N\",\"J\",\"24\"
\"\",\"\",\"approach-retreat\",\"173\",\"1377952\",\"0.0-173.0\",\"\",\"\",\"2-5\",\"4405\",\"38\",\"1\",\"Testing\",\"Stims/Figures/128-J-10-3.bmp\",\"None\",\"Down\",\"38\",\"2\",\"1\",\"10\",\"N\",\"J\",\"25\"
\"\",\"\",\"approach-retreat\",\"174\",\"1384824\",\"0.0-174.0\",\"\",\"\",\"2-5\",\"5353\",\"37\",\"0\",\"Testing\",\"Stims/Figures/102-J-10-4.bmp\",\"None\",\"Left\",\"39\",\"2\",\"2\",\"10\",\"N\",\"J\",\"26\"
\"\",\"\",\"approach-retreat\",\"175\",\"1390950\",\"0.0-175.0\",\"\",\"\",\"2-5\",\"4599\",\"40\",\"1\",\"Testing\",\"Stims/Figures/44-J-10-3.bmp\",\"None\",\"Up\",\"40\",\"2\",\"3\",\"10\",\"N\",\"J\",\"27\"
\"\",\"\",\"approach-retreat\",\"176\",\"1397569\",\"0.0-176.0\",\"\",\"\",\"2-5\",\"5099\",\"39\",\"1\",\"Testing\",\"Stims/Figures/139-C-20-2.bmp\",\"None\",\"Right\",\"39\",\"2\",\"4\",\"10\",\"N\",\"J\",\"28\"
\"\",\"\",\"approach-retreat\",\"177\",\"1403872\",\"0.0-177.0\",\"\",\"\",\"2-5\",\"4790\",\"39\",\"1\",\"Testing\",\"Stims/Figures/57-C-30-1.bmp\",\"None\",\"Right\",\"39\",\"2\",\"5\",\"10\",\"N\",\"J\",\"29\"
\"\",\"\",\"approach-retreat\",\"178\",\"1410091\",\"0.0-178.0\",\"\",\"\",\"2-5\",\"4708\",\"40\",\"1\",\"Testing\",\"Stims/Figures/139-J-0-2.bmp\",\"None\",\"Up\",\"40\",\"2\",\"6\",\"10\",\"N\",\"J\",\"30\"
\"\",\"\",\"approach-retreat\",\"179\",\"1416539\",\"0.0-179.0\",\"\",\"\",\"2-5\",\"4919\",\"40\",\"1\",\"Testing\",\"Stims/Figures/44-C-30-3.bmp\",\"None\",\"Down\",\"40\",\"2\",\"7\",\"10\",\"N\",\"J\",\"31\"
\"\",\"\",\"approach-retreat\",\"180\",\"1422388\",\"0.0-180.0\",\"\",\"\",\"2-5\",\"4325\",\"40\",\"1\",\"Testing\",\"Stims/Figures/100-C-30-3.bmp\",\"None\",\"Down\",\"40\",\"2\",\"8\",\"10\",\"N\",\"J\",\"32\"
\"\",\"\",\"approach-retreat\",\"181\",\"1428903\",\"0.0-181.0\",\"\",\"\",\"2-5\",\"4992\",\"37\",\"1\",\"Testing\",\"Stims/Figures/87-C-20-4.bmp\",\"None\",\"Left\",\"37\",\"2\",\"9\",\"10\",\"N\",\"J\",\"33\"
\"\",\"\",\"approach-retreat\",\"182\",\"1435920\",\"0.0-182.0\",\"\",\"\",\"2-5\",\"5503\",\"39\",\"1\",\"Testing\",\"Stims/Figures/74-C-20-4.bmp\",\"None\",\"Right\",\"39\",\"2\",\"10\",\"10\",\"N\",\"J\",\"34\"
\"\",\"\",\"approach-retreat\",\"183\",\"1442121\",\"0.0-183.0\",\"\",\"\",\"2-5\",\"4677\",\"38\",\"1\",\"Testing\",\"Stims/Figures/87-J-10-4.bmp\",\"None\",\"Down\",\"38\",\"2\",\"11\",\"10\",\"N\",\"J\",\"35\"
\"\",\"\",\"approach-retreat\",\"184\",\"1448105\",\"0.0-184.0\",\"\",\"\",\"2-5\",\"4471\",\"39\",\"1\",\"Testing\",\"Stims/Figures/128-C-30-3.bmp\",\"None\",\"Right\",\"39\",\"2\",\"12\",\"10\",\"N\",\"J\",\"36\"
\"\",\"\",\"approach-retreat\",\"185\",\"1454121\",\"0.0-185.0\",\"\",\"\",\"2-5\",\"4490\",\"37\",\"1\",\"Testing\",\"Stims/Figures/85-J-0-2.bmp\",\"None\",\"Right\",\"37\",\"2\",\"13\",\"10\",\"N\",\"J\",\"37\"
\"\",\"\",\"approach-retreat\",\"186\",\"1460120\",\"0.0-186.0\",\"\",\"\",\"2-5\",\"4473\",\"39\",\"1\",\"Testing\",\"Stims/Figures/84-J-0-2.bmp\",\"None\",\"Left\",\"39\",\"2\",\"14\",\"10\",\"N\",\"J\",\"38\"
\"\",\"\",\"approach-retreat\",\"187\",\"1465934\",\"0.0-187.0\",\"\",\"\",\"2-5\",\"4302\",\"38\",\"1\",\"Testing\",\"Stims/Figures/71-C-30-1.bmp\",\"None\",\"Up\",\"38\",\"2\",\"15\",\"10\",\"N\",\"J\",\"39\"
\"\",\"\",\"approach-retreat\",\"188\",\"1471899\",\"0.0-188.0\",\"\",\"\",\"2-5\",\"4445\",\"38\",\"1\",\"Testing\",\"Stims/Figures/57-J-0-1.bmp\",\"None\",\"Down\",\"38\",\"2\",\"16\",\"10\",\"N\",\"J\",\"40\"
\"\",\"\",\"approach-retreat\",\"189\",\"1477785\",\"0.0-189.0\",\"\",\"\",\"2-5\",\"4370\",\"40\",\"1\",\"Testing\",\"Stims/Figures/71-J-0-1.bmp\",\"None\",\"Up\",\"40\",\"2\",\"17\",\"10\",\"N\",\"J\",\"41\"
\"\",\"\",\"approach-retreat\",\"190\",\"1484067\",\"0.0-190.0\",\"\",\"\",\"2-5\",\"4738\",\"39\",\"1\",\"Testing\",\"Stims/Figures/93-C-30-1.bmp\",\"None\",\"Right\",\"39\",\"2\",\"18\",\"10\",\"N\",\"J\",\"42\"
\"\",\"\",\"approach-retreat\",\"191\",\"1489917\",\"0.0-191.0\",\"\",\"\",\"2-5\",\"4333\",\"40\",\"1\",\"Testing\",\"Stims/Figures/100-J-10-3.bmp\",\"None\",\"Up\",\"40\",\"2\",\"19\",\"10\",\"N\",\"J\",\"43\"
\"\",\"\",\"approach-retreat\",\"192\",\"1496367\",\"0.0-192.0\",\"\",\"\",\"2-5\",\"4927\",\"37\",\"1\",\"Testing\",\"Stims/Figures/84-C-20-2.bmp\",\"None\",\"Left\",\"37\",\"2\",\"20\",\"10\",\"N\",\"J\",\"44\"
\"\",\"\",\"approach-retreat\",\"193\",\"1502535\",\"0.0-193.0\",\"\",\"\",\"2-5\",\"4656\",\"40\",\"1\",\"Testing\",\"Stims/Figures/85-C-20-2.bmp\",\"None\",\"Down\",\"40\",\"2\",\"21\",\"10\",\"N\",\"J\",\"45\"
\"\",\"\",\"approach-retreat\",\"194\",\"1509018\",\"0.0-194.0\",\"\",\"\",\"2-5\",\"4956\",\"39\",\"1\",\"Testing\",\"Stims/Figures/93-J-0-1.bmp\",\"None\",\"Left\",\"39\",\"2\",\"22\",\"10\",\"N\",\"J\",\"46\"
\"\",\"\",\"approach-retreat\",\"195\",\"1516354\",\"0.0-195.0\",\"\",\"\",\"2-5\",\"5818\",\"38\",\"1\",\"Testing\",\"Stims/Figures/102-C-20-4.bmp\",\"None\",\"Up\",\"38\",\"2\",\"23\",\"10\",\"N\",\"J\",\"47\"
\"\",\"\",\"approach-retreat\",\"196\",\"1522165\",\"0.0-196.0\",\"\",\"\",\"2-5\",\"4289\",\"39\",\"1\",\"Testing\",\"Stims/Figures/74-J-10-4.bmp\",\"None\",\"Left\",\"39\",\"2\",\"24\",\"10\",\"N\",\"J\",\"48\"
\"\",\"\",\"approach-retreat\",\"197\",\"1530584\",\"0.0-197.0\",\"\",\"\",\"2-5\",\"6895\",\"38\",\"1\",\"Testing\",\"Stims/Figures/93-C-30-1.bmp\",\"None\",\"Up\",\"38\",\"3\",\"1\",\"10\",\"N\",\"J\",\"49\"
\"\",\"\",\"approach-retreat\",\"198\",\"1536320\",\"0.0-198.0\",\"\",\"\",\"2-5\",\"4221\",\"37\",\"1\",\"Testing\",\"Stims/Figures/93-J-0-1.bmp\",\"None\",\"Right\",\"37\",\"3\",\"2\",\"10\",\"N\",\"J\",\"50\"
\"\",\"\",\"approach-retreat\",\"199\",\"1544121\",\"0.0-199.0\",\"\",\"\",\"2-5\",\"6280\",\"39\",\"1\",\"Testing\",\"Stims/Figures/128-J-10-3.bmp\",\"None\",\"Left\",\"39\",\"3\",\"3\",\"10\",\"N\",\"J\",\"51\"
\"\",\"\",\"approach-retreat\",\"200\",\"1550681\",\"0.0-200.0\",\"\",\"\",\"2-5\",\"5034\",\"40\",\"1\",\"Testing\",\"Stims/Figures/44-J-10-3.bmp\",\"None\",\"Up\",\"40\",\"3\",\"4\",\"10\",\"N\",\"J\",\"52\"
\"\",\"\",\"approach-retreat\",\"201\",\"1556500\",\"0.0-201.0\",\"\",\"\",\"2-5\",\"4308\",\"39\",\"1\",\"Testing\",\"Stims/Figures/102-J-10-4.bmp\",\"None\",\"Left\",\"39\",\"3\",\"5\",\"10\",\"N\",\"J\",\"53\"
\"\",\"\",\"approach-retreat\",\"202\",\"1562498\",\"0.0-202.0\",\"\",\"\",\"2-5\",\"4497\",\"40\",\"1\",\"Testing\",\"Stims/Figures/57-C-30-1.bmp\",\"None\",\"Down\",\"40\",\"3\",\"6\",\"10\",\"N\",\"J\",\"54\"
\"\",\"\",\"approach-retreat\",\"203\",\"1568767\",\"0.0-203.0\",\"\",\"\",\"2-5\",\"4754\",\"38\",\"1\",\"Testing\",\"Stims/Figures/84-C-20-2.bmp\",\"None\",\"Up\",\"38\",\"3\",\"7\",\"10\",\"N\",\"J\",\"55\"
\"\",\"\",\"approach-retreat\",\"204\",\"1575531\",\"0.0-204.0\",\"\",\"\",\"2-5\",\"5238\",\"38\",\"1\",\"Testing\",\"Stims/Figures/71-C-30-1.bmp\",\"None\",\"Up\",\"38\",\"3\",\"8\",\"10\",\"N\",\"J\",\"56\"
\"\",\"\",\"approach-retreat\",\"205\",\"1581447\",\"0.0-205.0\",\"\",\"\",\"2-5\",\"4398\",\"37\",\"1\",\"Testing\",\"Stims/Figures/84-J-0-2.bmp\",\"None\",\"Right\",\"37\",\"3\",\"9\",\"10\",\"N\",\"J\",\"57\"
\"\",\"\",\"approach-retreat\",\"206\",\"1587480\",\"0.0-206.0\",\"\",\"\",\"2-5\",\"4509\",\"38\",\"1\",\"Testing\",\"Stims/Figures/139-J-0-2.bmp\",\"None\",\"Down\",\"38\",\"3\",\"10\",\"10\",\"N\",\"J\",\"58\"
\"\",\"\",\"approach-retreat\",\"207\",\"1593439\",\"0.0-207.0\",\"\",\"\",\"2-5\",\"4447\",\"37\",\"1\",\"Testing\",\"Stims/Figures/74-J-10-4.bmp\",\"None\",\"Right\",\"37\",\"3\",\"11\",\"10\",\"N\",\"J\",\"59\"
\"\",\"\",\"approach-retreat\",\"208\",\"1599528\",\"0.0-208.0\",\"\",\"\",\"2-5\",\"4576\",\"39\",\"1\",\"Testing\",\"Stims/Figures/85-C-20-2.bmp\",\"None\",\"Right\",\"39\",\"3\",\"12\",\"10\",\"N\",\"J\",\"60\"
\"\",\"\",\"approach-retreat\",\"209\",\"1606608\",\"0.0-209.0\",\"\",\"\",\"2-5\",\"5559\",\"37\",\"1\",\"Testing\",\"Stims/Figures/102-C-20-4.bmp\",\"None\",\"Left\",\"37\",\"3\",\"13\",\"10\",\"N\",\"J\",\"61\"
\"\",\"\",\"approach-retreat\",\"210\",\"1613412\",\"0.0-210.0\",\"\",\"\",\"2-5\",\"5280\",\"39\",\"1\",\"Testing\",\"Stims/Figures/100-J-10-3.bmp\",\"None\",\"Left\",\"39\",\"3\",\"14\",\"10\",\"N\",\"J\",\"62\"
\"\",\"\",\"approach-retreat\",\"211\",\"1621882\",\"0.0-211.0\",\"\",\"\",\"2-5\",\"6961\",\"38\",\"1\",\"Testing\",\"Stims/Figures/44-C-30-3.bmp\",\"None\",\"Up\",\"38\",\"3\",\"15\",\"10\",\"N\",\"J\",\"63\"
\"\",\"\",\"approach-retreat\",\"212\",\"1627863\",\"0.0-212.0\",\"\",\"\",\"2-5\",\"4462\",\"39\",\"1\",\"Testing\",\"Stims/Figures/74-C-20-4.bmp\",\"None\",\"Right\",\"39\",\"3\",\"16\",\"10\",\"N\",\"J\",\"64\"
\"\",\"\",\"approach-retreat\",\"213\",\"1634096\",\"0.0-213.0\",\"\",\"\",\"2-5\",\"4717\",\"37\",\"1\",\"Testing\",\"Stims/Figures/139-C-20-2.bmp\",\"None\",\"Left\",\"37\",\"3\",\"17\",\"10\",\"N\",\"J\",\"65\"
\"\",\"\",\"approach-retreat\",\"214\",\"1639844\",\"0.0-214.0\",\"\",\"\",\"2-5\",\"4230\",\"39\",\"1\",\"Testing\",\"Stims/Figures/71-J-0-1.bmp\",\"None\",\"Left\",\"39\",\"3\",\"18\",\"10\",\"N\",\"J\",\"66\"
\"\",\"\",\"approach-retreat\",\"215\",\"1646167\",\"0.0-215.0\",\"\",\"\",\"2-5\",\"4797\",\"40\",\"1\",\"Testing\",\"Stims/Figures/128-C-30-3.bmp\",\"None\",\"Down\",\"40\",\"3\",\"19\",\"10\",\"N\",\"J\",\"67\"
\"\",\"\",\"approach-retreat\",\"216\",\"1653106\",\"0.0-216.0\",\"\",\"\",\"2-5\",\"5413\",\"40\",\"1\",\"Testing\",\"Stims/Figures/87-C-20-4.bmp\",\"None\",\"Down\",\"40\",\"3\",\"20\",\"10\",\"N\",\"J\",\"68\"
\"\",\"\",\"approach-retreat\",\"217\",\"1659685\",\"0.0-217.0\",\"\",\"\",\"2-5\",\"5062\",\"38\",\"1\",\"Testing\",\"Stims/Figures/85-J-0-2.bmp\",\"None\",\"Down\",\"38\",\"3\",\"21\",\"10\",\"N\",\"J\",\"69\"
\"\",\"\",\"approach-retreat\",\"218\",\"1669295\",\"0.0-218.0\",\"\",\"\",\"2-5\",\"8096\",\"38\",\"1\",\"Testing\",\"Stims/Figures/100-C-30-3.bmp\",\"None\",\"Up\",\"38\",\"3\",\"22\",\"10\",\"N\",\"J\",\"70\"
\"\",\"\",\"approach-retreat\",\"219\",\"1675499\",\"0.0-219.0\",\"\",\"\",\"2-5\",\"4691\",\"38\",\"1\",\"Testing\",\"Stims/Figures/87-J-10-4.bmp\",\"None\",\"Down\",\"38\",\"3\",\"23\",\"10\",\"N\",\"J\",\"71\"
\"\",\"\",\"approach-retreat\",\"220\",\"1681770\",\"0.0-220.0\",\"\",\"\",\"2-5\",\"4763\",\"37\",\"1\",\"Testing\",\"Stims/Figures/57-J-0-1.bmp\",\"None\",\"Right\",\"37\",\"3\",\"24\",\"10\",\"N\",\"J\",\"72\"
\"\",\"\",\"approach-retreat\",\"221\",\"1689825\",\"0.0-221.0\",\"\",\"\",\"2-5\",\"6529\",\"40\",\"1\",\"Testing\",\"Stims/Figures/139-J-0-2.bmp\",\"None\",\"Up\",\"40\",\"4\",\"1\",\"10\",\"N\",\"J\",\"73\"
\"\",\"\",\"approach-retreat\",\"222\",\"1695912\",\"0.0-222.0\",\"\",\"\",\"2-5\",\"4574\",\"38\",\"1\",\"Testing\",\"Stims/Figures/102-C-20-4.bmp\",\"None\",\"Up\",\"38\",\"4\",\"2\",\"10\",\"N\",\"J\",\"74\"
\"\",\"\",\"approach-retreat\",\"223\",\"1702575\",\"0.0-223.0\",\"\",\"\",\"2-5\",\"5137\",\"37\",\"1\",\"Testing\",\"Stims/Figures/100-C-30-3.bmp\",\"None\",\"Left\",\"37\",\"4\",\"3\",\"10\",\"N\",\"J\",\"75\"
\"\",\"\",\"approach-retreat\",\"224\",\"1708308\",\"0.0-224.0\",\"\",\"\",\"2-5\",\"4212\",\"39\",\"1\",\"Testing\",\"Stims/Figures/71-J-0-1.bmp\",\"None\",\"Left\",\"39\",\"4\",\"4\",\"10\",\"N\",\"J\",\"76\"
\"\",\"\",\"approach-retreat\",\"225\",\"1714091\",\"0.0-225.0\",\"\",\"\",\"2-5\",\"4282\",\"37\",\"1\",\"Testing\",\"Stims/Figures/74-C-20-4.bmp\",\"None\",\"Left\",\"37\",\"4\",\"5\",\"10\",\"N\",\"J\",\"77\"
\"\",\"\",\"approach-retreat\",\"226\",\"1719997\",\"0.0-226.0\",\"\",\"\",\"2-5\",\"4380\",\"38\",\"1\",\"Testing\",\"Stims/Figures/93-J-0-1.bmp\",\"None\",\"Down\",\"38\",\"4\",\"6\",\"10\",\"N\",\"J\",\"78\"
\"\",\"\",\"approach-retreat\",\"227\",\"1727841\",\"0.0-227.0\",\"\",\"\",\"2-5\",\"6325\",\"40\",\"1\",\"Testing\",\"Stims/Figures/87-C-20-4.bmp\",\"None\",\"Down\",\"40\",\"4\",\"7\",\"10\",\"N\",\"J\",\"79\"
\"\",\"\",\"approach-retreat\",\"228\",\"1733772\",\"0.0-228.0\",\"\",\"\",\"2-5\",\"4405\",\"40\",\"1\",\"Testing\",\"Stims/Figures/128-J-10-3.bmp\",\"None\",\"Up\",\"40\",\"4\",\"8\",\"10\",\"N\",\"J\",\"80\"
\"\",\"\",\"approach-retreat\",\"229\",\"1739557\",\"0.0-229.0\",\"\",\"\",\"2-5\",\"4267\",\"38\",\"1\",\"Testing\",\"Stims/Figures/87-J-10-4.bmp\",\"None\",\"Down\",\"38\",\"4\",\"9\",\"10\",\"N\",\"J\",\"81\"
\"\",\"\",\"approach-retreat\",\"230\",\"1745391\",\"0.0-230.0\",\"\",\"\",\"2-5\",\"4317\",\"39\",\"0\",\"Testing\",\"Stims/Figures/102-J-10-4.bmp\",\"None\",\"Right\",\"37\",\"4\",\"10\",\"10\",\"N\",\"J\",\"82\"
\"\",\"\",\"approach-retreat\",\"231\",\"1751574\",\"0.0-231.0\",\"\",\"\",\"2-5\",\"4668\",\"39\",\"1\",\"Testing\",\"Stims/Figures/93-C-30-1.bmp\",\"None\",\"Right\",\"39\",\"4\",\"11\",\"10\",\"N\",\"J\",\"83\"
\"\",\"\",\"approach-retreat\",\"232\",\"1757288\",\"0.0-232.0\",\"\",\"\",\"2-5\",\"4193\",\"40\",\"1\",\"Testing\",\"Stims/Figures/100-J-10-3.bmp\",\"None\",\"Up\",\"40\",\"4\",\"12\",\"10\",\"N\",\"J\",\"84\"
\"\",\"\",\"approach-retreat\",\"233\",\"1763981\",\"0.0-233.0\",\"\",\"\",\"2-5\",\"5181\",\"38\",\"1\",\"Testing\",\"Stims/Figures/57-J-0-1.bmp\",\"None\",\"Down\",\"38\",\"4\",\"13\",\"10\",\"N\",\"J\",\"85\"
\"\",\"\",\"approach-retreat\",\"234\",\"1769737\",\"0.0-234.0\",\"\",\"\",\"2-5\",\"4227\",\"40\",\"1\",\"Testing\",\"Stims/Figures/74-J-10-4.bmp\",\"None\",\"Up\",\"40\",\"4\",\"14\",\"10\",\"N\",\"J\",\"86\"
\"\",\"\",\"approach-retreat\",\"235\",\"1775873\",\"0.0-235.0\",\"\",\"\",\"2-5\",\"4615\",\"38\",\"1\",\"Testing\",\"Stims/Figures/84-C-20-2.bmp\",\"None\",\"Up\",\"38\",\"4\",\"15\",\"10\",\"N\",\"J\",\"87\"
\"\",\"\",\"approach-retreat\",\"236\",\"1782513\",\"0.0-236.0\",\"\",\"\",\"2-5\",\"5131\",\"40\",\"1\",\"Testing\",\"Stims/Figures/44-C-30-3.bmp\",\"None\",\"Down\",\"40\",\"4\",\"16\",\"10\",\"N\",\"J\",\"88\"
\"\",\"\",\"approach-retreat\",\"237\",\"1789256\",\"0.0-237.0\",\"\",\"\",\"2-5\",\"5233\",\"37\",\"1\",\"Testing\",\"Stims/Figures/139-C-20-2.bmp\",\"None\",\"Left\",\"37\",\"4\",\"17\",\"10\",\"N\",\"J\",\"89\"
\"\",\"\",\"approach-retreat\",\"238\",\"1795215\",\"0.0-238.0\",\"\",\"\",\"2-5\",\"4442\",\"39\",\"1\",\"Testing\",\"Stims/Figures/44-J-10-3.bmp\",\"None\",\"Left\",\"39\",\"4\",\"18\",\"10\",\"N\",\"J\",\"90\"
\"\",\"\",\"approach-retreat\",\"239\",\"1802795\",\"0.0-239.0\",\"\",\"\",\"2-5\",\"6068\",\"39\",\"1\",\"Testing\",\"Stims/Figures/71-C-30-1.bmp\",\"None\",\"Right\",\"39\",\"4\",\"19\",\"10\",\"N\",\"J\",\"91\"
\"\",\"\",\"approach-retreat\",\"240\",\"1809065\",\"0.0-240.0\",\"\",\"\",\"2-5\",\"4746\",\"39\",\"1\",\"Testing\",\"Stims/Figures/128-C-30-3.bmp\",\"None\",\"Right\",\"39\",\"4\",\"20\",\"10\",\"N\",\"J\",\"92\"
\"\",\"\",\"approach-retreat\",\"241\",\"1814809\",\"0.0-241.0\",\"\",\"\",\"2-5\",\"4242\",\"37\",\"1\",\"Testing\",\"Stims/Figures/85-J-0-2.bmp\",\"None\",\"Right\",\"37\",\"4\",\"21\",\"10\",\"N\",\"J\",\"93\"
\"\",\"\",\"approach-retreat\",\"242\",\"1820981\",\"0.0-242.0\",\"\",\"\",\"2-5\",\"4655\",\"39\",\"1\",\"Testing\",\"Stims/Figures/57-C-30-1.bmp\",\"None\",\"Right\",\"39\",\"4\",\"22\",\"10\",\"N\",\"J\",\"94\"
\"\",\"\",\"approach-retreat\",\"243\",\"1826741\",\"0.0-243.0\",\"\",\"\",\"2-5\",\"4245\",\"40\",\"1\",\"Testing\",\"Stims/Figures/85-C-20-2.bmp\",\"None\",\"Down\",\"40\",\"4\",\"23\",\"10\",\"N\",\"J\",\"95\"
\"\",\"\",\"approach-retreat\",\"244\",\"1832469\",\"0.0-244.0\",\"\",\"\",\"2-5\",\"4205\",\"39\",\"1\",\"Testing\",\"Stims/Figures/84-J-0-2.bmp\",\"None\",\"Left\",\"39\",\"4\",\"24\",\"10\",\"N\",\"J\",\"96\"
\"28494\",\"\",\"survey-text\",\"245\",\"1860969\",\"0.0-245.0\",\"\",\"{\"\"Q0\"\":\"\"PS160041\"\"}\",\"\",\"\",\"\",\"\",\"\",\"\",\"\",\"\",\"\",\"\",\"\",\"\",\"\",\"\",\"\"
