\"rt\",\"key_press\",\"trial_type\",\"trial_index\",\"time_elapsed\",\"internal_node_id\",\"view_history\",\"responses\",\"Id\",\"Rt\",\"ResKeyCode\",\"ResCorr\",\"TrialType2\",\"Image\",\"Label\",\"Location\",\"CorrectResponse\",\"Block\",\"BlockTrial\",\"Condition\",\"LabelType\",\"Subcondition\",\"trialNum\"
\"58051\",\"32\",\"text\",\"0\",\"58056\",\"0.0-0.0-0.0\",\"\",\"\",\"\",\"\",\"\",\"\",\"\",\"\",\"\",\"\",\"\",\"\",\"\",\"\",\"\",\"\",\"\"
\"59505\",\"\",\"instructions\",\"1\",\"117563\",\"0.0-1.0\",\"[{\"\"page_index\"\":0,\"\"viewing_time\"\":59504}]\",\"\",\"\",\"\",\"\",\"\",\"\",\"\",\"\",\"\",\"\",\"\",\"\",\"\",\"\",\"\",\"\"
\"44059\",\"\",\"survey-multi-choice\",\"2\",\"161666\",\"0.0-2.0\",\"\",\"{\"\"Q0\"\":\"\"Da\"\",\"\"Q1\"\":\"\"Da\"\",\"\"Q2\"\":\"\"Da\"\",\"\"Q3\"\":\"\"Da\"\",\"\"Q4\"\":\"\"Da\"\",\"\"Q5\"\":\"\"Da\"\"}\",\"\",\"\",\"\",\"\",\"\",\"\",\"\",\"\",\"\",\"\",\"\",\"\",\"\",\"\",\"\"
\"\",\"\",\"bio\",\"3\",\"170006\",\"0.0-3.0\",\"\",\"{\"\"age\"\":\"\"20\"\",\"\"gender\"\":\"\"f\"\",\"\"specify\"\":\"\"\"\"}\",\"\",\"\",\"\",\"\",\"\",\"\",\"\",\"\",\"\",\"\",\"\",\"\",\"\",\"\",\"\"
\"\",\"\",\"approach-retreat\",\"4\",\"186168\",\"0.0-4.0\",\"\",\"\",\"2-1\",\"14643\",\"37\",\"1\",\"Training\",\"Stims/Figures/111-C-30-3.bmp\",\"saha:za\",\"Left\",\"37\",\"1\",\"1\",\"3A\",\"C2\",\"J\",\"1\"
\"\",\"\",\"approach-retreat\",\"5\",\"194148\",\"0.0-5.0\",\"\",\"\",\"2-1\",\"6464\",\"39\",\"1\",\"Training\",\"Stims/Figures/74-C-20-4.bmp\",\"saha:za\",\"Right\",\"39\",\"1\",\"2\",\"3A\",\"C2\",\"J\",\"2\"
\"\",\"\",\"approach-retreat\",\"6\",\"204037\",\"0.0-6.0\",\"\",\"\",\"2-1\",\"8368\",\"38\",\"0\",\"Training\",\"Stims/Figures/85-C-20-2.bmp\",\"saha:za\",\"Down\",\"40\",\"1\",\"3\",\"3A\",\"C2\",\"J\",\"3\"
\"\",\"\",\"approach-retreat\",\"7\",\"212459\",\"0.0-7.0\",\"\",\"\",\"2-1\",\"6908\",\"37\",\"0\",\"Training\",\"Stims/Figures/74-J-10-4.bmp\",\"fashasha\",\"Left\",\"39\",\"1\",\"4\",\"3A\",\"C1\",\"J\",\"4\"
\"\",\"\",\"approach-retreat\",\"8\",\"219744\",\"0.0-8.0\",\"\",\"\",\"2-1\",\"5768\",\"37\",\"1\",\"Training\",\"Stims/Figures/100-C-30-3.bmp\",\"saha:za\",\"Left\",\"37\",\"1\",\"5\",\"3A\",\"C2\",\"J\",\"5\"
\"\",\"\",\"approach-retreat\",\"9\",\"228219\",\"0.0-9.0\",\"\",\"\",\"2-1\",\"6957\",\"38\",\"1\",\"Training\",\"Stims/Figures/118-C-20-2.bmp\",\"saha:za\",\"Up\",\"38\",\"1\",\"6\",\"3A\",\"C2\",\"J\",\"6\"
\"\",\"\",\"approach-retreat\",\"10\",\"235717\",\"0.0-10.0\",\"\",\"\",\"2-1\",\"5982\",\"39\",\"0\",\"Training\",\"Stims/Figures/86-J-0-1.bmp\",\"fashasha\",\"Right\",\"37\",\"1\",\"7\",\"3A\",\"C1\",\"J\",\"7\"
\"\",\"\",\"approach-retreat\",\"11\",\"243366\",\"0.0-11.0\",\"\",\"\",\"2-1\",\"6131\",\"37\",\"0\",\"Training\",\"Stims/Figures/86-C-30-1.bmp\",\"saha:za\",\"Right\",\"39\",\"1\",\"8\",\"3A\",\"C2\",\"J\",\"8\"
\"\",\"\",\"approach-retreat\",\"12\",\"253248\",\"0.0-12.0\",\"\",\"\",\"2-1\",\"8364\",\"37\",\"1\",\"Training\",\"Stims/Figures/118-J-0-2.bmp\",\"fashasha\",\"Right\",\"37\",\"1\",\"9\",\"3A\",\"C1\",\"J\",\"9\"
\"\",\"\",\"approach-retreat\",\"13\",\"263585\",\"0.0-13.0\",\"\",\"\",\"2-1\",\"8825\",\"40\",\"1\",\"Training\",\"Stims/Figures/71-C-30-1.bmp\",\"saha:za\",\"Down\",\"40\",\"1\",\"10\",\"3A\",\"C2\",\"J\",\"10\"
\"\",\"\",\"approach-retreat\",\"14\",\"270333\",\"0.0-14.0\",\"\",\"\",\"2-1\",\"5235\",\"39\",\"1\",\"Training\",\"Stims/Figures/111-J-10-3.bmp\",\"fashasha\",\"Left\",\"39\",\"1\",\"11\",\"3A\",\"C1\",\"J\",\"11\"
\"\",\"\",\"approach-retreat\",\"15\",\"276623\",\"0.0-15.0\",\"\",\"\",\"2-1\",\"4770\",\"40\",\"1\",\"Training\",\"Stims/Figures/85-J-0-2.bmp\",\"fashasha\",\"Up\",\"40\",\"1\",\"12\",\"3A\",\"C1\",\"J\",\"12\"
\"\",\"\",\"approach-retreat\",\"16\",\"282986\",\"0.0-16.0\",\"\",\"\",\"2-1\",\"4848\",\"38\",\"1\",\"Training\",\"Stims/Figures/19-J-10-4.bmp\",\"fashasha\",\"Down\",\"38\",\"1\",\"13\",\"3A\",\"C1\",\"J\",\"13\"
\"\",\"\",\"approach-retreat\",\"17\",\"288997\",\"0.0-17.0\",\"\",\"\",\"2-1\",\"4498\",\"40\",\"1\",\"Training\",\"Stims/Figures/100-J-10-3.bmp\",\"fashasha\",\"Up\",\"40\",\"1\",\"14\",\"3A\",\"C1\",\"J\",\"14\"
\"\",\"\",\"approach-retreat\",\"18\",\"295098\",\"0.0-18.0\",\"\",\"\",\"2-1\",\"4582\",\"40\",\"1\",\"Training\",\"Stims/Figures/19-C-20-4.bmp\",\"saha:za\",\"Down\",\"40\",\"1\",\"15\",\"3A\",\"C2\",\"J\",\"15\"
\"\",\"\",\"approach-retreat\",\"19\",\"302353\",\"0.0-19.0\",\"\",\"\",\"2-1\",\"5735\",\"40\",\"1\",\"Training\",\"Stims/Figures/71-J-0-1.bmp\",\"fashasha\",\"Up\",\"40\",\"1\",\"16\",\"3A\",\"C1\",\"J\",\"16\"
\"\",\"\",\"approach-retreat\",\"20\",\"308357\",\"0.0-20.0\",\"\",\"\",\"2-1\",\"4489\",\"40\",\"1\",\"Training\",\"Stims/Figures/85-J-0-2.bmp\",\"fashasha\",\"Up\",\"40\",\"2\",\"1\",\"3A\",\"C1\",\"J\",\"17\"
\"\",\"\",\"approach-retreat\",\"21\",\"314677\",\"0.0-21.0\",\"\",\"\",\"2-1\",\"4804\",\"40\",\"1\",\"Training\",\"Stims/Figures/86-C-30-1.bmp\",\"saha:za\",\"Down\",\"40\",\"2\",\"2\",\"3A\",\"C2\",\"J\",\"18\"
\"\",\"\",\"approach-retreat\",\"22\",\"321556\",\"0.0-22.0\",\"\",\"\",\"2-1\",\"5359\",\"37\",\"1\",\"Training\",\"Stims/Figures/85-C-20-2.bmp\",\"saha:za\",\"Left\",\"37\",\"2\",\"3\",\"3A\",\"C2\",\"J\",\"19\"
\"\",\"\",\"approach-retreat\",\"23\",\"327589\",\"0.0-23.0\",\"\",\"\",\"2-1\",\"4511\",\"40\",\"1\",\"Training\",\"Stims/Figures/118-C-20-2.bmp\",\"saha:za\",\"Down\",\"40\",\"2\",\"4\",\"3A\",\"C2\",\"J\",\"20\"
\"\",\"\",\"approach-retreat\",\"24\",\"333968\",\"0.0-24.0\",\"\",\"\",\"2-1\",\"4851\",\"38\",\"1\",\"Training\",\"Stims/Figures/74-C-20-4.bmp\",\"saha:za\",\"Up\",\"38\",\"2\",\"5\",\"3A\",\"C2\",\"J\",\"21\"
\"\",\"\",\"approach-retreat\",\"25\",\"339962\",\"0.0-25.0\",\"\",\"\",\"2-1\",\"4479\",\"39\",\"1\",\"Training\",\"Stims/Figures/86-J-0-1.bmp\",\"fashasha\",\"Left\",\"39\",\"2\",\"6\",\"3A\",\"C1\",\"J\",\"22\"
\"\",\"\",\"approach-retreat\",\"26\",\"346039\",\"0.0-26.0\",\"\",\"\",\"2-1\",\"4561\",\"39\",\"1\",\"Training\",\"Stims/Figures/100-C-30-3.bmp\",\"saha:za\",\"Right\",\"39\",\"2\",\"7\",\"3A\",\"C2\",\"J\",\"23\"
\"\",\"\",\"approach-retreat\",\"27\",\"351974\",\"0.0-27.0\",\"\",\"\",\"2-1\",\"4418\",\"39\",\"1\",\"Training\",\"Stims/Figures/71-J-0-1.bmp\",\"fashasha\",\"Left\",\"39\",\"2\",\"8\",\"3A\",\"C1\",\"J\",\"24\"
\"\",\"\",\"approach-retreat\",\"28\",\"357904\",\"0.0-28.0\",\"\",\"\",\"2-1\",\"4401\",\"39\",\"1\",\"Training\",\"Stims/Figures/71-C-30-1.bmp\",\"saha:za\",\"Right\",\"39\",\"2\",\"9\",\"3A\",\"C2\",\"J\",\"25\"
\"\",\"\",\"approach-retreat\",\"29\",\"363580\",\"0.0-29.0\",\"\",\"\",\"2-1\",\"4162\",\"39\",\"1\",\"Training\",\"Stims/Figures/19-J-10-4.bmp\",\"fashasha\",\"Left\",\"39\",\"2\",\"10\",\"3A\",\"C1\",\"J\",\"26\"
\"\",\"\",\"approach-retreat\",\"30\",\"369527\",\"0.0-30.0\",\"\",\"\",\"2-1\",\"4422\",\"38\",\"1\",\"Training\",\"Stims/Figures/74-J-10-4.bmp\",\"fashasha\",\"Down\",\"38\",\"2\",\"11\",\"3A\",\"C1\",\"J\",\"27\"
\"\",\"\",\"approach-retreat\",\"31\",\"375432\",\"0.0-31.0\",\"\",\"\",\"2-1\",\"4382\",\"40\",\"1\",\"Training\",\"Stims/Figures/19-C-20-4.bmp\",\"saha:za\",\"Down\",\"40\",\"2\",\"12\",\"3A\",\"C2\",\"J\",\"28\"
\"\",\"\",\"approach-retreat\",\"32\",\"381483\",\"0.0-32.0\",\"\",\"\",\"2-1\",\"4536\",\"38\",\"0\",\"Training\",\"Stims/Figures/111-J-10-3.bmp\",\"fashasha\",\"Up\",\"40\",\"2\",\"13\",\"3A\",\"C1\",\"J\",\"29\"
\"\",\"\",\"approach-retreat\",\"33\",\"387848\",\"0.0-33.0\",\"\",\"\",\"2-1\",\"4838\",\"39\",\"0\",\"Training\",\"Stims/Figures/118-J-0-2.bmp\",\"fashasha\",\"Right\",\"37\",\"2\",\"14\",\"3A\",\"C1\",\"J\",\"30\"
\"\",\"\",\"approach-retreat\",\"34\",\"393916\",\"0.0-34.0\",\"\",\"\",\"2-1\",\"4544\",\"40\",\"1\",\"Training\",\"Stims/Figures/100-J-10-3.bmp\",\"fashasha\",\"Up\",\"40\",\"2\",\"15\",\"3A\",\"C1\",\"J\",\"31\"
\"\",\"\",\"approach-retreat\",\"35\",\"401093\",\"0.0-35.0\",\"\",\"\",\"2-1\",\"5652\",\"39\",\"1\",\"Training\",\"Stims/Figures/111-C-30-3.bmp\",\"saha:za\",\"Right\",\"39\",\"2\",\"16\",\"3A\",\"C2\",\"J\",\"32\"
\"\",\"\",\"approach-retreat\",\"36\",\"407491\",\"0.0-36.0\",\"\",\"\",\"2-1\",\"4881\",\"38\",\"1\",\"Training\",\"Stims/Figures/19-C-20-4.bmp\",\"saha:za\",\"Up\",\"38\",\"3\",\"1\",\"3A\",\"C2\",\"J\",\"33\"
\"\",\"\",\"approach-retreat\",\"37\",\"413558\",\"0.0-37.0\",\"\",\"\",\"2-1\",\"4546\",\"38\",\"1\",\"Training\",\"Stims/Figures/71-C-30-1.bmp\",\"saha:za\",\"Up\",\"38\",\"3\",\"2\",\"3A\",\"C2\",\"J\",\"34\"
\"\",\"\",\"approach-retreat\",\"38\",\"419344\",\"0.0-38.0\",\"\",\"\",\"2-1\",\"4268\",\"38\",\"1\",\"Training\",\"Stims/Figures/111-J-10-3.bmp\",\"fashasha\",\"Down\",\"38\",\"3\",\"3\",\"3A\",\"C1\",\"J\",\"35\"
\"\",\"\",\"approach-retreat\",\"39\",\"425356\",\"0.0-39.0\",\"\",\"\",\"2-1\",\"4484\",\"37\",\"1\",\"Training\",\"Stims/Figures/71-J-0-1.bmp\",\"fashasha\",\"Right\",\"37\",\"3\",\"4\",\"3A\",\"C1\",\"J\",\"36\"
\"\",\"\",\"approach-retreat\",\"40\",\"431252\",\"0.0-40.0\",\"\",\"\",\"2-1\",\"4380\",\"37\",\"1\",\"Training\",\"Stims/Figures/85-C-20-2.bmp\",\"saha:za\",\"Left\",\"37\",\"3\",\"5\",\"3A\",\"C2\",\"J\",\"37\"
\"\",\"\",\"approach-retreat\",\"41\",\"437116\",\"0.0-41.0\",\"\",\"\",\"2-1\",\"4345\",\"40\",\"1\",\"Training\",\"Stims/Figures/111-C-30-3.bmp\",\"saha:za\",\"Down\",\"40\",\"3\",\"6\",\"3A\",\"C2\",\"J\",\"38\"
\"\",\"\",\"approach-retreat\",\"42\",\"442733\",\"0.0-42.0\",\"\",\"\",\"2-1\",\"4105\",\"39\",\"1\",\"Training\",\"Stims/Figures/85-J-0-2.bmp\",\"fashasha\",\"Left\",\"39\",\"3\",\"7\",\"3A\",\"C1\",\"J\",\"39\"
\"\",\"\",\"approach-retreat\",\"43\",\"448498\",\"0.0-43.0\",\"\",\"\",\"2-1\",\"4244\",\"39\",\"1\",\"Training\",\"Stims/Figures/19-J-10-4.bmp\",\"fashasha\",\"Left\",\"39\",\"3\",\"8\",\"3A\",\"C1\",\"J\",\"40\"
\"\",\"\",\"approach-retreat\",\"44\",\"454565\",\"0.0-44.0\",\"\",\"\",\"2-1\",\"4551\",\"39\",\"1\",\"Training\",\"Stims/Figures/86-C-30-1.bmp\",\"saha:za\",\"Right\",\"39\",\"3\",\"9\",\"3A\",\"C2\",\"J\",\"41\"
\"\",\"\",\"approach-retreat\",\"45\",\"461093\",\"0.0-45.0\",\"\",\"\",\"2-1\",\"5017\",\"38\",\"1\",\"Training\",\"Stims/Figures/74-J-10-4.bmp\",\"fashasha\",\"Down\",\"38\",\"3\",\"10\",\"3A\",\"C1\",\"J\",\"42\"
\"\",\"\",\"approach-retreat\",\"46\",\"467305\",\"0.0-46.0\",\"\",\"\",\"2-1\",\"4695\",\"39\",\"1\",\"Training\",\"Stims/Figures/118-C-20-2.bmp\",\"saha:za\",\"Right\",\"39\",\"3\",\"11\",\"3A\",\"C2\",\"J\",\"43\"
\"\",\"\",\"approach-retreat\",\"47\",\"473047\",\"0.0-47.0\",\"\",\"\",\"2-1\",\"4225\",\"39\",\"1\",\"Training\",\"Stims/Figures/100-C-30-3.bmp\",\"saha:za\",\"Right\",\"39\",\"3\",\"12\",\"3A\",\"C2\",\"J\",\"44\"
\"\",\"\",\"approach-retreat\",\"48\",\"478979\",\"0.0-48.0\",\"\",\"\",\"2-1\",\"4414\",\"40\",\"1\",\"Training\",\"Stims/Figures/86-J-0-1.bmp\",\"fashasha\",\"Up\",\"40\",\"3\",\"13\",\"3A\",\"C1\",\"J\",\"45\"
\"\",\"\",\"approach-retreat\",\"49\",\"484877\",\"0.0-49.0\",\"\",\"\",\"2-1\",\"4377\",\"40\",\"1\",\"Training\",\"Stims/Figures/74-C-20-4.bmp\",\"saha:za\",\"Down\",\"40\",\"3\",\"14\",\"3A\",\"C2\",\"J\",\"46\"
\"\",\"\",\"approach-retreat\",\"50\",\"491205\",\"0.0-50.0\",\"\",\"\",\"2-1\",\"4807\",\"37\",\"0\",\"Training\",\"Stims/Figures/100-J-10-3.bmp\",\"fashasha\",\"Left\",\"39\",\"3\",\"15\",\"3A\",\"C1\",\"J\",\"47\"
\"\",\"\",\"approach-retreat\",\"51\",\"497041\",\"0.0-51.0\",\"\",\"\",\"2-1\",\"4322\",\"40\",\"1\",\"Training\",\"Stims/Figures/118-J-0-2.bmp\",\"fashasha\",\"Up\",\"40\",\"3\",\"16\",\"3A\",\"C1\",\"J\",\"48\"
\"\",\"\",\"approach-retreat\",\"52\",\"503805\",\"0.0-52.0\",\"\",\"\",\"2-1\",\"5250\",\"37\",\"1\",\"Training\",\"Stims/Figures/74-J-10-4.bmp\",\"fashasha\",\"Right\",\"37\",\"4\",\"1\",\"3A\",\"C1\",\"J\",\"49\"
\"\",\"\",\"approach-retreat\",\"53\",\"509692\",\"0.0-53.0\",\"\",\"\",\"2-1\",\"4365\",\"40\",\"1\",\"Training\",\"Stims/Figures/71-J-0-1.bmp\",\"fashasha\",\"Up\",\"40\",\"4\",\"2\",\"3A\",\"C1\",\"J\",\"50\"
\"\",\"\",\"approach-retreat\",\"54\",\"515484\",\"0.0-54.0\",\"\",\"\",\"2-1\",\"4273\",\"39\",\"1\",\"Training\",\"Stims/Figures/118-C-20-2.bmp\",\"saha:za\",\"Right\",\"39\",\"4\",\"3\",\"3A\",\"C2\",\"J\",\"51\"
\"\",\"\",\"approach-retreat\",\"55\",\"521508\",\"0.0-55.0\",\"\",\"\",\"2-1\",\"4503\",\"37\",\"1\",\"Training\",\"Stims/Figures/111-C-30-3.bmp\",\"saha:za\",\"Left\",\"37\",\"4\",\"4\",\"3A\",\"C2\",\"J\",\"52\"
\"\",\"\",\"approach-retreat\",\"56\",\"527206\",\"0.0-56.0\",\"\",\"\",\"2-1\",\"4172\",\"39\",\"1\",\"Training\",\"Stims/Figures/19-J-10-4.bmp\",\"fashasha\",\"Left\",\"39\",\"4\",\"5\",\"3A\",\"C1\",\"J\",\"53\"
\"\",\"\",\"approach-retreat\",\"57\",\"533691\",\"0.0-57.0\",\"\",\"\",\"2-1\",\"4967\",\"40\",\"1\",\"Training\",\"Stims/Figures/100-J-10-3.bmp\",\"fashasha\",\"Up\",\"40\",\"4\",\"6\",\"3A\",\"C1\",\"J\",\"54\"
\"\",\"\",\"approach-retreat\",\"58\",\"539345\",\"0.0-58.0\",\"\",\"\",\"2-1\",\"4128\",\"39\",\"1\",\"Training\",\"Stims/Figures/111-J-10-3.bmp\",\"fashasha\",\"Left\",\"39\",\"4\",\"7\",\"3A\",\"C1\",\"J\",\"55\"
\"\",\"\",\"approach-retreat\",\"59\",\"545116\",\"0.0-59.0\",\"\",\"\",\"2-1\",\"4257\",\"38\",\"1\",\"Training\",\"Stims/Figures/86-C-30-1.bmp\",\"saha:za\",\"Up\",\"38\",\"4\",\"8\",\"3A\",\"C2\",\"J\",\"56\"
\"\",\"\",\"approach-retreat\",\"60\",\"550970\",\"0.0-60.0\",\"\",\"\",\"2-1\",\"4336\",\"40\",\"1\",\"Training\",\"Stims/Figures/100-C-30-3.bmp\",\"saha:za\",\"Down\",\"40\",\"4\",\"9\",\"3A\",\"C2\",\"J\",\"57\"
\"\",\"\",\"approach-retreat\",\"61\",\"557255\",\"0.0-61.0\",\"\",\"\",\"2-1\",\"4760\",\"39\",\"1\",\"Training\",\"Stims/Figures/74-C-20-4.bmp\",\"saha:za\",\"Right\",\"39\",\"4\",\"10\",\"3A\",\"C2\",\"J\",\"58\"
\"\",\"\",\"approach-retreat\",\"62\",\"563235\",\"0.0-62.0\",\"\",\"\",\"2-1\",\"4459\",\"40\",\"1\",\"Training\",\"Stims/Figures/85-C-20-2.bmp\",\"saha:za\",\"Down\",\"40\",\"4\",\"11\",\"3A\",\"C2\",\"J\",\"59\"
\"\",\"\",\"approach-retreat\",\"63\",\"569192\",\"0.0-63.0\",\"\",\"\",\"2-1\",\"4437\",\"37\",\"1\",\"Training\",\"Stims/Figures/118-J-0-2.bmp\",\"fashasha\",\"Right\",\"37\",\"4\",\"12\",\"3A\",\"C1\",\"J\",\"60\"
\"\",\"\",\"approach-retreat\",\"64\",\"575003\",\"0.0-64.0\",\"\",\"\",\"2-1\",\"4293\",\"40\",\"1\",\"Training\",\"Stims/Figures/71-C-30-1.bmp\",\"saha:za\",\"Down\",\"40\",\"4\",\"13\",\"3A\",\"C2\",\"J\",\"61\"
\"\",\"\",\"approach-retreat\",\"65\",\"580636\",\"0.0-65.0\",\"\",\"\",\"2-1\",\"4113\",\"40\",\"1\",\"Training\",\"Stims/Figures/86-J-0-1.bmp\",\"fashasha\",\"Up\",\"40\",\"4\",\"14\",\"3A\",\"C1\",\"J\",\"62\"
\"\",\"\",\"approach-retreat\",\"66\",\"586702\",\"0.0-66.0\",\"\",\"\",\"2-1\",\"4552\",\"38\",\"1\",\"Training\",\"Stims/Figures/85-J-0-2.bmp\",\"fashasha\",\"Down\",\"38\",\"4\",\"15\",\"3A\",\"C1\",\"J\",\"63\"
\"\",\"\",\"approach-retreat\",\"67\",\"592697\",\"0.0-67.0\",\"\",\"\",\"2-1\",\"4478\",\"37\",\"1\",\"Training\",\"Stims/Figures/19-C-20-4.bmp\",\"saha:za\",\"Left\",\"37\",\"4\",\"16\",\"3A\",\"C2\",\"J\",\"64\"
\"\",\"\",\"approach-retreat\",\"68\",\"598442\",\"0.0-68.0\",\"\",\"\",\"2-1\",\"4232\",\"37\",\"1\",\"Training\",\"Stims/Figures/74-J-10-4.bmp\",\"fashasha\",\"Right\",\"37\",\"5\",\"1\",\"3A\",\"C1\",\"J\",\"65\"
\"\",\"\",\"approach-retreat\",\"69\",\"604335\",\"0.0-69.0\",\"\",\"\",\"2-1\",\"4380\",\"39\",\"1\",\"Training\",\"Stims/Figures/85-C-20-2.bmp\",\"saha:za\",\"Right\",\"39\",\"5\",\"2\",\"3A\",\"C2\",\"J\",\"66\"
\"\",\"\",\"approach-retreat\",\"70\",\"610158\",\"0.0-70.0\",\"\",\"\",\"2-1\",\"4305\",\"38\",\"1\",\"Training\",\"Stims/Figures/86-J-0-1.bmp\",\"fashasha\",\"Down\",\"38\",\"5\",\"3\",\"3A\",\"C1\",\"J\",\"67\"
\"\",\"\",\"approach-retreat\",\"71\",\"615766\",\"0.0-71.0\",\"\",\"\",\"2-1\",\"4093\",\"37\",\"1\",\"Training\",\"Stims/Figures/111-C-30-3.bmp\",\"saha:za\",\"Left\",\"37\",\"5\",\"4\",\"3A\",\"C2\",\"J\",\"68\"
\"\",\"\",\"approach-retreat\",\"72\",\"621493\",\"0.0-72.0\",\"\",\"\",\"2-1\",\"4210\",\"39\",\"1\",\"Training\",\"Stims/Figures/19-C-20-4.bmp\",\"saha:za\",\"Right\",\"39\",\"5\",\"5\",\"3A\",\"C2\",\"J\",\"69\"
\"\",\"\",\"approach-retreat\",\"73\",\"627304\",\"0.0-73.0\",\"\",\"\",\"2-1\",\"4284\",\"40\",\"1\",\"Training\",\"Stims/Figures/19-J-10-4.bmp\",\"fashasha\",\"Up\",\"40\",\"5\",\"6\",\"3A\",\"C1\",\"J\",\"70\"
\"\",\"\",\"approach-retreat\",\"74\",\"633064\",\"0.0-74.0\",\"\",\"\",\"2-1\",\"4241\",\"38\",\"1\",\"Training\",\"Stims/Figures/74-C-20-4.bmp\",\"saha:za\",\"Up\",\"38\",\"5\",\"7\",\"3A\",\"C2\",\"J\",\"71\"
\"\",\"\",\"approach-retreat\",\"75\",\"639467\",\"0.0-75.0\",\"\",\"\",\"2-1\",\"4889\",\"40\",\"1\",\"Training\",\"Stims/Figures/118-C-20-2.bmp\",\"saha:za\",\"Down\",\"40\",\"5\",\"8\",\"3A\",\"C2\",\"J\",\"72\"
\"\",\"\",\"approach-retreat\",\"76\",\"645251\",\"0.0-76.0\",\"\",\"\",\"2-1\",\"4265\",\"39\",\"1\",\"Training\",\"Stims/Figures/118-J-0-2.bmp\",\"fashasha\",\"Left\",\"39\",\"5\",\"9\",\"3A\",\"C1\",\"J\",\"73\"
\"\",\"\",\"approach-retreat\",\"77\",\"651054\",\"0.0-77.0\",\"\",\"\",\"2-1\",\"4289\",\"38\",\"1\",\"Training\",\"Stims/Figures/71-J-0-1.bmp\",\"fashasha\",\"Down\",\"38\",\"5\",\"10\",\"3A\",\"C1\",\"J\",\"74\"
\"\",\"\",\"approach-retreat\",\"78\",\"656702\",\"0.0-78.0\",\"\",\"\",\"2-1\",\"4133\",\"39\",\"1\",\"Training\",\"Stims/Figures/100-C-30-3.bmp\",\"saha:za\",\"Right\",\"39\",\"5\",\"11\",\"3A\",\"C2\",\"J\",\"75\"
\"\",\"\",\"approach-retreat\",\"79\",\"662300\",\"0.0-79.0\",\"\",\"\",\"2-1\",\"4076\",\"40\",\"1\",\"Training\",\"Stims/Figures/100-J-10-3.bmp\",\"fashasha\",\"Up\",\"40\",\"5\",\"12\",\"3A\",\"C1\",\"J\",\"76\"
\"\",\"\",\"approach-retreat\",\"80\",\"668805\",\"0.0-80.0\",\"\",\"\",\"2-1\",\"4986\",\"40\",\"1\",\"Training\",\"Stims/Figures/86-C-30-1.bmp\",\"saha:za\",\"Down\",\"40\",\"5\",\"13\",\"3A\",\"C2\",\"J\",\"77\"
\"\",\"\",\"approach-retreat\",\"81\",\"676206\",\"0.0-81.0\",\"\",\"\",\"2-1\",\"5883\",\"37\",\"1\",\"Training\",\"Stims/Figures/71-C-30-1.bmp\",\"saha:za\",\"Left\",\"37\",\"5\",\"14\",\"3A\",\"C2\",\"J\",\"78\"
\"\",\"\",\"approach-retreat\",\"82\",\"682173\",\"0.0-82.0\",\"\",\"\",\"2-1\",\"4446\",\"39\",\"1\",\"Training\",\"Stims/Figures/111-J-10-3.bmp\",\"fashasha\",\"Left\",\"39\",\"5\",\"15\",\"3A\",\"C1\",\"J\",\"79\"
\"\",\"\",\"approach-retreat\",\"83\",\"688706\",\"0.0-83.0\",\"\",\"\",\"2-1\",\"5016\",\"40\",\"1\",\"Training\",\"Stims/Figures/85-J-0-2.bmp\",\"fashasha\",\"Up\",\"40\",\"5\",\"16\",\"3A\",\"C1\",\"J\",\"80\"
\"\",\"\",\"approach-retreat\",\"84\",\"694540\",\"0.0-84.0\",\"\",\"\",\"2-1\",\"4304\",\"40\",\"1\",\"Training\",\"Stims/Figures/100-C-30-3.bmp\",\"saha:za\",\"Down\",\"40\",\"6\",\"1\",\"3A\",\"C2\",\"J\",\"81\"
\"\",\"\",\"approach-retreat\",\"85\",\"700975\",\"0.0-85.0\",\"\",\"\",\"2-1\",\"4890\",\"40\",\"1\",\"Training\",\"Stims/Figures/19-C-20-4.bmp\",\"saha:za\",\"Down\",\"40\",\"6\",\"2\",\"3A\",\"C2\",\"J\",\"82\"
\"\",\"\",\"approach-retreat\",\"86\",\"706725\",\"0.0-86.0\",\"\",\"\",\"2-1\",\"4235\",\"37\",\"1\",\"Training\",\"Stims/Figures/100-J-10-3.bmp\",\"fashasha\",\"Right\",\"37\",\"6\",\"3\",\"3A\",\"C1\",\"J\",\"83\"
\"\",\"\",\"approach-retreat\",\"87\",\"712490\",\"0.0-87.0\",\"\",\"\",\"2-1\",\"4245\",\"37\",\"1\",\"Training\",\"Stims/Figures/86-C-30-1.bmp\",\"saha:za\",\"Left\",\"37\",\"6\",\"4\",\"3A\",\"C2\",\"J\",\"84\"
\"\",\"\",\"approach-retreat\",\"88\",\"718147\",\"0.0-88.0\",\"\",\"\",\"2-1\",\"4141\",\"37\",\"1\",\"Training\",\"Stims/Figures/118-J-0-2.bmp\",\"fashasha\",\"Right\",\"37\",\"6\",\"5\",\"3A\",\"C1\",\"J\",\"85\"
\"\",\"\",\"approach-retreat\",\"89\",\"724673\",\"0.0-89.0\",\"\",\"\",\"2-1\",\"5012\",\"38\",\"1\",\"Training\",\"Stims/Figures/118-C-20-2.bmp\",\"saha:za\",\"Up\",\"38\",\"6\",\"6\",\"3A\",\"C2\",\"J\",\"86\"
\"\",\"\",\"approach-retreat\",\"90\",\"730217\",\"0.0-90.0\",\"\",\"\",\"2-1\",\"4031\",\"37\",\"0\",\"Training\",\"Stims/Figures/111-J-10-3.bmp\",\"fashasha\",\"Left\",\"39\",\"6\",\"7\",\"3A\",\"C1\",\"J\",\"87\"
\"\",\"\",\"approach-retreat\",\"91\",\"736187\",\"0.0-91.0\",\"\",\"\",\"2-1\",\"4456\",\"37\",\"1\",\"Training\",\"Stims/Figures/111-C-30-3.bmp\",\"saha:za\",\"Left\",\"37\",\"6\",\"8\",\"3A\",\"C2\",\"J\",\"88\"
\"\",\"\",\"approach-retreat\",\"92\",\"742279\",\"0.0-92.0\",\"\",\"\",\"2-1\",\"4560\",\"40\",\"1\",\"Training\",\"Stims/Figures/71-J-0-1.bmp\",\"fashasha\",\"Up\",\"40\",\"6\",\"9\",\"3A\",\"C1\",\"J\",\"89\"
\"\",\"\",\"approach-retreat\",\"93\",\"748660\",\"0.0-93.0\",\"\",\"\",\"2-1\",\"4865\",\"38\",\"1\",\"Training\",\"Stims/Figures/19-J-10-4.bmp\",\"fashasha\",\"Down\",\"38\",\"6\",\"10\",\"3A\",\"C1\",\"J\",\"90\"
\"\",\"\",\"approach-retreat\",\"94\",\"754658\",\"0.0-94.0\",\"\",\"\",\"2-1\",\"4482\",\"38\",\"1\",\"Training\",\"Stims/Figures/85-J-0-2.bmp\",\"fashasha\",\"Down\",\"38\",\"6\",\"11\",\"3A\",\"C1\",\"J\",\"91\"
\"\",\"\",\"approach-retreat\",\"95\",\"760509\",\"0.0-95.0\",\"\",\"\",\"2-1\",\"4336\",\"40\",\"1\",\"Training\",\"Stims/Figures/86-J-0-1.bmp\",\"fashasha\",\"Up\",\"40\",\"6\",\"12\",\"3A\",\"C1\",\"J\",\"92\"
\"\",\"\",\"approach-retreat\",\"96\",\"767282\",\"0.0-96.0\",\"\",\"\",\"2-1\",\"5251\",\"39\",\"1\",\"Training\",\"Stims/Figures/74-C-20-4.bmp\",\"saha:za\",\"Right\",\"39\",\"6\",\"13\",\"3A\",\"C2\",\"J\",\"93\"
\"\",\"\",\"approach-retreat\",\"97\",\"773350\",\"0.0-97.0\",\"\",\"\",\"2-1\",\"4528\",\"40\",\"1\",\"Training\",\"Stims/Figures/74-J-10-4.bmp\",\"fashasha\",\"Up\",\"40\",\"6\",\"14\",\"3A\",\"C1\",\"J\",\"94\"
\"\",\"\",\"approach-retreat\",\"98\",\"779241\",\"0.0-98.0\",\"\",\"\",\"2-1\",\"4367\",\"39\",\"1\",\"Training\",\"Stims/Figures/71-C-30-1.bmp\",\"saha:za\",\"Right\",\"39\",\"6\",\"15\",\"3A\",\"C2\",\"J\",\"95\"
\"\",\"\",\"approach-retreat\",\"99\",\"785652\",\"0.0-99.0\",\"\",\"\",\"2-1\",\"4899\",\"37\",\"1\",\"Training\",\"Stims/Figures/85-C-20-2.bmp\",\"saha:za\",\"Left\",\"37\",\"6\",\"16\",\"3A\",\"C2\",\"J\",\"96\"
\"\",\"\",\"approach-retreat\",\"100\",\"791348\",\"0.0-100.0\",\"\",\"\",\"2-1\",\"4177\",\"39\",\"1\",\"Training\",\"Stims/Figures/118-C-20-2.bmp\",\"saha:za\",\"Right\",\"39\",\"7\",\"1\",\"3A\",\"C2\",\"J\",\"97\"
\"\",\"\",\"approach-retreat\",\"101\",\"798591\",\"0.0-101.0\",\"\",\"\",\"2-1\",\"5728\",\"37\",\"0\",\"Training\",\"Stims/Figures/118-J-0-2.bmp\",\"fashasha\",\"Left\",\"39\",\"7\",\"2\",\"3A\",\"C1\",\"J\",\"98\"
\"\",\"\",\"approach-retreat\",\"102\",\"804743\",\"0.0-102.0\",\"\",\"\",\"2-1\",\"4626\",\"38\",\"1\",\"Training\",\"Stims/Figures/74-J-10-4.bmp\",\"fashasha\",\"Down\",\"38\",\"7\",\"3\",\"3A\",\"C1\",\"J\",\"99\"
\"\",\"\",\"approach-retreat\",\"103\",\"811154\",\"0.0-103.0\",\"\",\"\",\"2-1\",\"4894\",\"38\",\"1\",\"Training\",\"Stims/Figures/19-C-20-4.bmp\",\"saha:za\",\"Up\",\"38\",\"7\",\"4\",\"3A\",\"C2\",\"J\",\"100\"
\"\",\"\",\"approach-retreat\",\"104\",\"817698\",\"0.0-104.0\",\"\",\"\",\"2-1\",\"4944\",\"37\",\"1\",\"Training\",\"Stims/Figures/86-J-0-1.bmp\",\"fashasha\",\"Right\",\"37\",\"7\",\"5\",\"3A\",\"C1\",\"J\",\"101\"
\"\",\"\",\"approach-retreat\",\"105\",\"823887\",\"0.0-105.0\",\"\",\"\",\"2-1\",\"4675\",\"39\",\"1\",\"Training\",\"Stims/Figures/111-C-30-3.bmp\",\"saha:za\",\"Right\",\"39\",\"7\",\"6\",\"3A\",\"C2\",\"J\",\"102\"
\"\",\"\",\"approach-retreat\",\"106\",\"830483\",\"0.0-106.0\",\"\",\"\",\"2-1\",\"5079\",\"40\",\"1\",\"Training\",\"Stims/Figures/86-C-30-1.bmp\",\"saha:za\",\"Down\",\"40\",\"7\",\"7\",\"3A\",\"C2\",\"J\",\"103\"
\"\",\"\",\"approach-retreat\",\"107\",\"836175\",\"0.0-107.0\",\"\",\"\",\"2-1\",\"4174\",\"37\",\"1\",\"Training\",\"Stims/Figures/85-J-0-2.bmp\",\"fashasha\",\"Right\",\"37\",\"7\",\"8\",\"3A\",\"C1\",\"J\",\"104\"
\"\",\"\",\"approach-retreat\",\"108\",\"842280\",\"0.0-108.0\",\"\",\"\",\"2-1\",\"4589\",\"40\",\"1\",\"Training\",\"Stims/Figures/100-J-10-3.bmp\",\"fashasha\",\"Up\",\"40\",\"7\",\"9\",\"3A\",\"C1\",\"J\",\"105\"
\"\",\"\",\"approach-retreat\",\"109\",\"847950\",\"0.0-109.0\",\"\",\"\",\"2-1\",\"4151\",\"40\",\"1\",\"Training\",\"Stims/Figures/19-J-10-4.bmp\",\"fashasha\",\"Up\",\"40\",\"7\",\"10\",\"3A\",\"C1\",\"J\",\"106\"
\"\",\"\",\"approach-retreat\",\"110\",\"854855\",\"0.0-110.0\",\"\",\"\",\"2-1\",\"5385\",\"37\",\"1\",\"Training\",\"Stims/Figures/71-C-30-1.bmp\",\"saha:za\",\"Left\",\"37\",\"7\",\"11\",\"3A\",\"C2\",\"J\",\"107\"
\"\",\"\",\"approach-retreat\",\"111\",\"860806\",\"0.0-111.0\",\"\",\"\",\"2-1\",\"4436\",\"38\",\"1\",\"Training\",\"Stims/Figures/71-J-0-1.bmp\",\"fashasha\",\"Down\",\"38\",\"7\",\"12\",\"3A\",\"C1\",\"J\",\"108\"
\"\",\"\",\"approach-retreat\",\"112\",\"867002\",\"0.0-112.0\",\"\",\"\",\"2-1\",\"4682\",\"38\",\"1\",\"Training\",\"Stims/Figures/85-C-20-2.bmp\",\"saha:za\",\"Up\",\"38\",\"7\",\"13\",\"3A\",\"C2\",\"J\",\"109\"
\"\",\"\",\"approach-retreat\",\"113\",\"873059\",\"0.0-113.0\",\"\",\"\",\"2-1\",\"4541\",\"39\",\"1\",\"Training\",\"Stims/Figures/111-J-10-3.bmp\",\"fashasha\",\"Left\",\"39\",\"7\",\"14\",\"3A\",\"C1\",\"J\",\"110\"
\"\",\"\",\"approach-retreat\",\"114\",\"878836\",\"0.0-114.0\",\"\",\"\",\"2-1\",\"4265\",\"37\",\"1\",\"Training\",\"Stims/Figures/100-C-30-3.bmp\",\"saha:za\",\"Left\",\"37\",\"7\",\"15\",\"3A\",\"C2\",\"J\",\"111\"
\"\",\"\",\"approach-retreat\",\"115\",\"884932\",\"0.0-115.0\",\"\",\"\",\"2-1\",\"4579\",\"40\",\"1\",\"Training\",\"Stims/Figures/74-C-20-4.bmp\",\"saha:za\",\"Down\",\"40\",\"7\",\"16\",\"3A\",\"C2\",\"J\",\"112\"
\"\",\"\",\"approach-retreat\",\"116\",\"890641\",\"0.0-116.0\",\"\",\"\",\"2-1\",\"4191\",\"37\",\"1\",\"Training\",\"Stims/Figures/111-C-30-3.bmp\",\"saha:za\",\"Left\",\"37\",\"8\",\"1\",\"3A\",\"C2\",\"J\",\"113\"
\"\",\"\",\"approach-retreat\",\"117\",\"896647\",\"0.0-117.0\",\"\",\"\",\"2-1\",\"4478\",\"37\",\"1\",\"Training\",\"Stims/Figures/85-J-0-2.bmp\",\"fashasha\",\"Right\",\"37\",\"8\",\"2\",\"3A\",\"C1\",\"J\",\"114\"
\"\",\"\",\"approach-retreat\",\"118\",\"903084\",\"0.0-118.0\",\"\",\"\",\"2-1\",\"4919\",\"37\",\"1\",\"Training\",\"Stims/Figures/74-C-20-4.bmp\",\"saha:za\",\"Left\",\"37\",\"8\",\"3\",\"3A\",\"C2\",\"J\",\"115\"
\"\",\"\",\"approach-retreat\",\"119\",\"908807\",\"0.0-119.0\",\"\",\"\",\"2-1\",\"4203\",\"37\",\"1\",\"Training\",\"Stims/Figures/74-J-10-4.bmp\",\"fashasha\",\"Right\",\"37\",\"8\",\"4\",\"3A\",\"C1\",\"J\",\"116\"
\"\",\"\",\"approach-retreat\",\"120\",\"914803\",\"0.0-120.0\",\"\",\"\",\"2-1\",\"4478\",\"38\",\"1\",\"Training\",\"Stims/Figures/100-J-10-3.bmp\",\"fashasha\",\"Down\",\"38\",\"8\",\"5\",\"3A\",\"C1\",\"J\",\"117\"
\"\",\"\",\"approach-retreat\",\"121\",\"920787\",\"0.0-121.0\",\"\",\"\",\"2-1\",\"4470\",\"40\",\"1\",\"Training\",\"Stims/Figures/85-C-20-2.bmp\",\"saha:za\",\"Down\",\"40\",\"8\",\"6\",\"3A\",\"C2\",\"J\",\"118\"
\"\",\"\",\"approach-retreat\",\"122\",\"928023\",\"0.0-122.0\",\"\",\"\",\"2-1\",\"5721\",\"40\",\"1\",\"Training\",\"Stims/Figures/19-J-10-4.bmp\",\"fashasha\",\"Up\",\"40\",\"8\",\"7\",\"3A\",\"C1\",\"J\",\"119\"
\"\",\"\",\"approach-retreat\",\"123\",\"933901\",\"0.0-123.0\",\"\",\"\",\"2-1\",\"4359\",\"38\",\"1\",\"Training\",\"Stims/Figures/71-J-0-1.bmp\",\"fashasha\",\"Down\",\"38\",\"8\",\"8\",\"3A\",\"C1\",\"J\",\"120\"
\"\",\"\",\"approach-retreat\",\"124\",\"939990\",\"0.0-124.0\",\"\",\"\",\"2-1\",\"4564\",\"37\",\"1\",\"Training\",\"Stims/Figures/111-J-10-3.bmp\",\"fashasha\",\"Right\",\"37\",\"8\",\"9\",\"3A\",\"C1\",\"J\",\"121\"
\"\",\"\",\"approach-retreat\",\"125\",\"945662\",\"0.0-125.0\",\"\",\"\",\"2-1\",\"4151\",\"38\",\"1\",\"Training\",\"Stims/Figures/118-C-20-2.bmp\",\"saha:za\",\"Up\",\"38\",\"8\",\"10\",\"3A\",\"C2\",\"J\",\"122\"
\"\",\"\",\"approach-retreat\",\"126\",\"952105\",\"0.0-126.0\",\"\",\"\",\"2-1\",\"4925\",\"38\",\"0\",\"Training\",\"Stims/Figures/100-C-30-3.bmp\",\"saha:za\",\"Down\",\"40\",\"8\",\"11\",\"3A\",\"C2\",\"J\",\"123\"
\"\",\"\",\"approach-retreat\",\"127\",\"958366\",\"0.0-127.0\",\"\",\"\",\"2-1\",\"4733\",\"40\",\"0\",\"Training\",\"Stims/Figures/71-C-30-1.bmp\",\"saha:za\",\"Up\",\"38\",\"8\",\"12\",\"3A\",\"C2\",\"J\",\"124\"
\"\",\"\",\"approach-retreat\",\"128\",\"964233\",\"0.0-128.0\",\"\",\"\",\"2-1\",\"4345\",\"39\",\"1\",\"Training\",\"Stims/Figures/19-C-20-4.bmp\",\"saha:za\",\"Right\",\"39\",\"8\",\"13\",\"3A\",\"C2\",\"J\",\"125\"
\"\",\"\",\"approach-retreat\",\"129\",\"970080\",\"0.0-129.0\",\"\",\"\",\"2-1\",\"4328\",\"39\",\"1\",\"Training\",\"Stims/Figures/118-J-0-2.bmp\",\"fashasha\",\"Left\",\"39\",\"8\",\"14\",\"3A\",\"C1\",\"J\",\"126\"
\"\",\"\",\"approach-retreat\",\"130\",\"975893\",\"0.0-130.0\",\"\",\"\",\"2-1\",\"4288\",\"40\",\"1\",\"Training\",\"Stims/Figures/86-J-0-1.bmp\",\"fashasha\",\"Up\",\"40\",\"8\",\"15\",\"3A\",\"C1\",\"J\",\"127\"
\"\",\"\",\"approach-retreat\",\"131\",\"982439\",\"0.0-131.0\",\"\",\"\",\"2-1\",\"5021\",\"37\",\"1\",\"Training\",\"Stims/Figures/86-C-30-1.bmp\",\"saha:za\",\"Left\",\"37\",\"8\",\"16\",\"3A\",\"C2\",\"J\",\"128\"
\"\",\"\",\"approach-retreat\",\"132\",\"989065\",\"0.0-132.0\",\"\",\"\",\"2-1\",\"5106\",\"39\",\"1\",\"Training\",\"Stims/Figures/118-J-0-2.bmp\",\"fashasha\",\"Left\",\"39\",\"9\",\"1\",\"3A\",\"C1\",\"J\",\"129\"
\"\",\"\",\"approach-retreat\",\"133\",\"995067\",\"0.0-133.0\",\"\",\"\",\"2-1\",\"4484\",\"38\",\"1\",\"Training\",\"Stims/Figures/74-C-20-4.bmp\",\"saha:za\",\"Up\",\"38\",\"9\",\"2\",\"3A\",\"C2\",\"J\",\"130\"
\"\",\"\",\"approach-retreat\",\"134\",\"1000811\",\"0.0-134.0\",\"\",\"\",\"2-1\",\"4220\",\"38\",\"1\",\"Training\",\"Stims/Figures/71-J-0-1.bmp\",\"fashasha\",\"Down\",\"38\",\"9\",\"3\",\"3A\",\"C1\",\"J\",\"131\"
\"\",\"\",\"approach-retreat\",\"135\",\"1006967\",\"0.0-135.0\",\"\",\"\",\"2-1\",\"4641\",\"37\",\"1\",\"Training\",\"Stims/Figures/85-J-0-2.bmp\",\"fashasha\",\"Right\",\"37\",\"9\",\"4\",\"3A\",\"C1\",\"J\",\"132\"
\"\",\"\",\"approach-retreat\",\"136\",\"1012649\",\"0.0-136.0\",\"\",\"\",\"2-1\",\"4167\",\"37\",\"1\",\"Training\",\"Stims/Figures/19-C-20-4.bmp\",\"saha:za\",\"Left\",\"37\",\"9\",\"5\",\"3A\",\"C2\",\"J\",\"133\"
\"\",\"\",\"approach-retreat\",\"137\",\"1018469\",\"0.0-137.0\",\"\",\"\",\"2-1\",\"4296\",\"40\",\"1\",\"Training\",\"Stims/Figures/111-C-30-3.bmp\",\"saha:za\",\"Down\",\"40\",\"9\",\"6\",\"3A\",\"C2\",\"J\",\"134\"
\"\",\"\",\"approach-retreat\",\"138\",\"1025056\",\"0.0-138.0\",\"\",\"\",\"2-1\",\"5063\",\"39\",\"1\",\"Training\",\"Stims/Figures/118-C-20-2.bmp\",\"saha:za\",\"Right\",\"39\",\"9\",\"7\",\"3A\",\"C2\",\"J\",\"135\"
\"\",\"\",\"approach-retreat\",\"139\",\"1033939\",\"0.0-139.0\",\"\",\"\",\"2-1\",\"7366\",\"38\",\"1\",\"Training\",\"Stims/Figures/100-J-10-3.bmp\",\"fashasha\",\"Down\",\"38\",\"9\",\"8\",\"3A\",\"C1\",\"J\",\"136\"
\"\",\"\",\"approach-retreat\",\"140\",\"1039790\",\"0.0-140.0\",\"\",\"\",\"2-1\",\"4333\",\"39\",\"1\",\"Training\",\"Stims/Figures/71-C-30-1.bmp\",\"saha:za\",\"Right\",\"39\",\"9\",\"9\",\"3A\",\"C2\",\"J\",\"137\"
\"\",\"\",\"approach-retreat\",\"141\",\"1046087\",\"0.0-141.0\",\"\",\"\",\"2-1\",\"4776\",\"37\",\"1\",\"Training\",\"Stims/Figures/74-J-10-4.bmp\",\"fashasha\",\"Right\",\"37\",\"9\",\"10\",\"3A\",\"C1\",\"J\",\"138\"
\"\",\"\",\"approach-retreat\",\"142\",\"1051921\",\"0.0-142.0\",\"\",\"\",\"2-1\",\"4310\",\"40\",\"1\",\"Training\",\"Stims/Figures/100-C-30-3.bmp\",\"saha:za\",\"Down\",\"40\",\"9\",\"11\",\"3A\",\"C2\",\"J\",\"139\"
\"\",\"\",\"approach-retreat\",\"143\",\"1058042\",\"0.0-143.0\",\"\",\"\",\"2-1\",\"4605\",\"40\",\"1\",\"Training\",\"Stims/Figures/19-J-10-4.bmp\",\"fashasha\",\"Up\",\"40\",\"9\",\"12\",\"3A\",\"C1\",\"J\",\"140\"
\"\",\"\",\"approach-retreat\",\"144\",\"1063637\",\"0.0-144.0\",\"\",\"\",\"2-1\",\"4082\",\"40\",\"1\",\"Training\",\"Stims/Figures/86-J-0-1.bmp\",\"fashasha\",\"Up\",\"40\",\"9\",\"13\",\"3A\",\"C1\",\"J\",\"141\"
\"\",\"\",\"approach-retreat\",\"145\",\"1069621\",\"0.0-145.0\",\"\",\"\",\"2-1\",\"4468\",\"37\",\"1\",\"Training\",\"Stims/Figures/85-C-20-2.bmp\",\"saha:za\",\"Left\",\"37\",\"9\",\"14\",\"3A\",\"C2\",\"J\",\"142\"
\"\",\"\",\"approach-retreat\",\"146\",\"1075531\",\"0.0-146.0\",\"\",\"\",\"2-1\",\"4399\",\"37\",\"1\",\"Training\",\"Stims/Figures/86-C-30-1.bmp\",\"saha:za\",\"Left\",\"37\",\"9\",\"15\",\"3A\",\"C2\",\"J\",\"143\"
\"\",\"\",\"approach-retreat\",\"147\",\"1081204\",\"0.0-147.0\",\"\",\"\",\"2-1\",\"4157\",\"40\",\"1\",\"Training\",\"Stims/Figures/111-J-10-3.bmp\",\"fashasha\",\"Up\",\"40\",\"9\",\"16\",\"3A\",\"C1\",\"J\",\"144\"
\"18301\",\"\",\"instructions\",\"148\",\"1099506\",\"0.0-148.0\",\"[{\"\"page_index\"\":0,\"\"viewing_time\"\":18299}]\",\"\",\"\",\"\",\"\",\"\",\"\",\"\",\"\",\"\",\"\",\"\",\"\",\"\",\"\",\"\",\"\"
\"\",\"\",\"approach-retreat\",\"149\",\"1105954\",\"0.0-149.0\",\"\",\"\",\"2-1\",\"4917\",\"39\",\"1\",\"Testing\",\"Stims/Figures/87-J-10-4.bmp\",\"fashasha\",\"Left\",\"39\",\"1\",\"1\",\"3A\",\"C1\",\"J\",\"1\"
\"\",\"\",\"approach-retreat\",\"150\",\"1111917\",\"0.0-150.0\",\"\",\"\",\"2-1\",\"4421\",\"39\",\"1\",\"Testing\",\"Stims/Figures/27-J-0-1.bmp\",\"fashasha\",\"Left\",\"39\",\"1\",\"2\",\"3A\",\"C1\",\"J\",\"2\"
\"\",\"\",\"approach-retreat\",\"151\",\"1118090\",\"0.0-151.0\",\"\",\"\",\"2-1\",\"4654\",\"38\",\"0\",\"Testing\",\"Stims/Figures/118-J-0-2.bmp\",\"fashasha\",\"Up\",\"40\",\"1\",\"3\",\"3A\",\"C1\",\"J\",\"3\"
\"\",\"\",\"approach-retreat\",\"152\",\"1124167\",\"0.0-152.0\",\"\",\"\",\"2-1\",\"4541\",\"39\",\"0\",\"Testing\",\"Stims/Figures/19-J-10-4.bmp\",\"fashasha\",\"Right\",\"37\",\"1\",\"4\",\"3A\",\"C1\",\"J\",\"4\"
\"\",\"\",\"approach-retreat\",\"153\",\"1130362\",\"0.0-153.0\",\"\",\"\",\"2-1\",\"4670\",\"37\",\"1\",\"Testing\",\"Stims/Figures/71-J-0-1.bmp\",\"fashasha\",\"Right\",\"37\",\"1\",\"5\",\"3A\",\"C1\",\"J\",\"5\"
\"\",\"\",\"approach-retreat\",\"154\",\"1137511\",\"0.0-154.0\",\"\",\"\",\"2-1\",\"5614\",\"40\",\"0\",\"Testing\",\"Stims/Figures/128-J-10-3.bmp\",\"fashasha\",\"Down\",\"38\",\"1\",\"6\",\"3A\",\"C1\",\"J\",\"6\"
\"\",\"\",\"approach-retreat\",\"155\",\"1143358\",\"0.0-155.0\",\"\",\"\",\"2-1\",\"4310\",\"39\",\"0\",\"Testing\",\"Stims/Figures/74-J-10-4.bmp\",\"fashasha\",\"Right\",\"37\",\"1\",\"7\",\"3A\",\"C1\",\"J\",\"7\"
\"\",\"\",\"approach-retreat\",\"156\",\"1149298\",\"0.0-156.0\",\"\",\"\",\"2-1\",\"4429\",\"40\",\"1\",\"Testing\",\"Stims/Figures/19-C-20-4.bmp\",\"saha:za\",\"Down\",\"40\",\"1\",\"8\",\"3A\",\"C2\",\"J\",\"8\"
\"\",\"\",\"approach-retreat\",\"157\",\"1155383\",\"0.0-157.0\",\"\",\"\",\"2-1\",\"4571\",\"40\",\"0\",\"Testing\",\"Stims/Figures/100-C-30-3.bmp\",\"saha:za\",\"Up\",\"38\",\"1\",\"9\",\"3A\",\"C2\",\"J\",\"9\"
\"\",\"\",\"approach-retreat\",\"158\",\"1161307\",\"0.0-158.0\",\"\",\"\",\"2-1\",\"4412\",\"39\",\"1\",\"Testing\",\"Stims/Figures/74-C-20-4.bmp\",\"saha:za\",\"Right\",\"39\",\"1\",\"10\",\"3A\",\"C2\",\"J\",\"10\"
\"\",\"\",\"approach-retreat\",\"159\",\"1167486\",\"0.0-159.0\",\"\",\"\",\"2-1\",\"4641\",\"40\",\"0\",\"Testing\",\"Stims/Figures/111-C-30-3.bmp\",\"saha:za\",\"Up\",\"38\",\"1\",\"11\",\"3A\",\"C2\",\"J\",\"11\"
\"\",\"\",\"approach-retreat\",\"160\",\"1173331\",\"0.0-160.0\",\"\",\"\",\"2-1\",\"4324\",\"40\",\"0\",\"Testing\",\"Stims/Figures/85-J-0-2.bmp\",\"fashasha\",\"Down\",\"38\",\"1\",\"12\",\"3A\",\"C1\",\"J\",\"12\"
\"\",\"\",\"approach-retreat\",\"161\",\"1179219\",\"0.0-161.0\",\"\",\"\",\"2-1\",\"4352\",\"39\",\"0\",\"Testing\",\"Stims/Figures/71-C-30-1.bmp\",\"saha:za\",\"Left\",\"37\",\"1\",\"13\",\"3A\",\"C2\",\"J\",\"13\"
\"\",\"\",\"approach-retreat\",\"162\",\"1187144\",\"0.0-162.0\",\"\",\"\",\"2-1\",\"6387\",\"39\",\"0\",\"Testing\",\"Stims/Figures/84-J-0-2.bmp\",\"fashasha\",\"Right\",\"37\",\"1\",\"14\",\"3A\",\"C1\",\"J\",\"14\"
\"\",\"\",\"approach-retreat\",\"163\",\"1193021\",\"0.0-163.0\",\"\",\"\",\"2-1\",\"4343\",\"39\",\"1\",\"Testing\",\"Stims/Figures/128-C-30-3.bmp\",\"saha:za\",\"Right\",\"39\",\"1\",\"15\",\"3A\",\"C2\",\"J\",\"15\"
\"\",\"\",\"approach-retreat\",\"164\",\"1199568\",\"0.0-164.0\",\"\",\"\",\"2-1\",\"5015\",\"38\",\"0\",\"Testing\",\"Stims/Figures/86-C-30-1.bmp\",\"saha:za\",\"Down\",\"40\",\"1\",\"16\",\"3A\",\"C2\",\"J\",\"16\"
\"\",\"\",\"approach-retreat\",\"165\",\"1205331\",\"0.0-165.0\",\"\",\"\",\"2-1\",\"4246\",\"38\",\"0\",\"Testing\",\"Stims/Figures/118-C-20-2.bmp\",\"saha:za\",\"Down\",\"40\",\"1\",\"17\",\"3A\",\"C2\",\"J\",\"17\"
\"\",\"\",\"approach-retreat\",\"166\",\"1211201\",\"0.0-166.0\",\"\",\"\",\"2-1\",\"4356\",\"40\",\"1\",\"Testing\",\"Stims/Figures/27-C-30-1.bmp\",\"saha:za\",\"Down\",\"40\",\"1\",\"18\",\"3A\",\"C2\",\"J\",\"18\"
\"\",\"\",\"approach-retreat\",\"167\",\"1217053\",\"0.0-167.0\",\"\",\"\",\"2-1\",\"4320\",\"38\",\"1\",\"Testing\",\"Stims/Figures/84-C-20-2.bmp\",\"saha:za\",\"Up\",\"38\",\"1\",\"19\",\"3A\",\"C2\",\"J\",\"19\"
\"\",\"\",\"approach-retreat\",\"168\",\"1222826\",\"0.0-168.0\",\"\",\"\",\"2-1\",\"4255\",\"40\",\"1\",\"Testing\",\"Stims/Figures/86-J-0-1.bmp\",\"fashasha\",\"Up\",\"40\",\"1\",\"20\",\"3A\",\"C1\",\"J\",\"20\"
\"\",\"\",\"approach-retreat\",\"169\",\"1228832\",\"0.0-169.0\",\"\",\"\",\"2-1\",\"4471\",\"40\",\"0\",\"Testing\",\"Stims/Figures/85-C-20-2.bmp\",\"saha:za\",\"Up\",\"38\",\"1\",\"21\",\"3A\",\"C2\",\"J\",\"21\"
\"\",\"\",\"approach-retreat\",\"170\",\"1234572\",\"0.0-170.0\",\"\",\"\",\"2-1\",\"4202\",\"39\",\"1\",\"Testing\",\"Stims/Figures/111-J-10-3.bmp\",\"fashasha\",\"Left\",\"39\",\"1\",\"22\",\"3A\",\"C1\",\"J\",\"22\"
\"\",\"\",\"approach-retreat\",\"171\",\"1240162\",\"0.0-171.0\",\"\",\"\",\"2-1\",\"4056\",\"39\",\"0\",\"Testing\",\"Stims/Figures/87-C-20-4.bmp\",\"saha:za\",\"Left\",\"37\",\"1\",\"23\",\"3A\",\"C2\",\"J\",\"23\"
\"\",\"\",\"approach-retreat\",\"172\",\"1245794\",\"0.0-172.0\",\"\",\"\",\"2-1\",\"4096\",\"39\",\"1\",\"Testing\",\"Stims/Figures/100-J-10-3.bmp\",\"fashasha\",\"Left\",\"39\",\"1\",\"24\",\"3A\",\"C1\",\"J\",\"24\"
\"\",\"\",\"approach-retreat\",\"173\",\"1252370\",\"0.0-173.0\",\"\",\"\",\"2-1\",\"5043\",\"39\",\"1\",\"Testing\",\"Stims/Figures/19-C-20-4.bmp\",\"saha:za\",\"Right\",\"39\",\"2\",\"1\",\"3A\",\"C2\",\"J\",\"25\"
\"\",\"\",\"approach-retreat\",\"174\",\"1258655\",\"0.0-174.0\",\"\",\"\",\"2-1\",\"4751\",\"38\",\"0\",\"Testing\",\"Stims/Figures/111-C-30-3.bmp\",\"saha:za\",\"Down\",\"40\",\"2\",\"2\",\"3A\",\"C2\",\"J\",\"26\"
\"\",\"\",\"approach-retreat\",\"175\",\"1264381\",\"0.0-175.0\",\"\",\"\",\"2-1\",\"4203\",\"39\",\"1\",\"Testing\",\"Stims/Figures/27-C-30-1.bmp\",\"saha:za\",\"Right\",\"39\",\"2\",\"3\",\"3A\",\"C2\",\"J\",\"27\"
\"\",\"\",\"approach-retreat\",\"176\",\"1271311\",\"0.0-176.0\",\"\",\"\",\"2-1\",\"5382\",\"37\",\"0\",\"Testing\",\"Stims/Figures/85-C-20-2.bmp\",\"saha:za\",\"Right\",\"39\",\"2\",\"4\",\"3A\",\"C2\",\"J\",\"28\"
\"\",\"\",\"approach-retreat\",\"177\",\"1277410\",\"0.0-177.0\",\"\",\"\",\"2-1\",\"4582\",\"38\",\"1\",\"Testing\",\"Stims/Figures/100-J-10-3.bmp\",\"fashasha\",\"Down\",\"38\",\"2\",\"5\",\"3A\",\"C1\",\"J\",\"29\"
\"\",\"\",\"approach-retreat\",\"178\",\"1283371\",\"0.0-178.0\",\"\",\"\",\"2-1\",\"4454\",\"40\",\"0\",\"Testing\",\"Stims/Figures/84-J-0-2.bmp\",\"fashasha\",\"Down\",\"38\",\"2\",\"6\",\"3A\",\"C1\",\"J\",\"30\"
\"\",\"\",\"approach-retreat\",\"179\",\"1289316\",\"0.0-179.0\",\"\",\"\",\"2-1\",\"4437\",\"40\",\"1\",\"Testing\",\"Stims/Figures/27-J-0-1.bmp\",\"fashasha\",\"Up\",\"40\",\"2\",\"7\",\"3A\",\"C1\",\"J\",\"31\"
\"\",\"\",\"approach-retreat\",\"180\",\"1294803\",\"0.0-180.0\",\"\",\"\",\"2-1\",\"3979\",\"39\",\"1\",\"Testing\",\"Stims/Figures/111-J-10-3.bmp\",\"fashasha\",\"Left\",\"39\",\"2\",\"8\",\"3A\",\"C1\",\"J\",\"32\"
\"\",\"\",\"approach-retreat\",\"181\",\"1301585\",\"0.0-181.0\",\"\",\"\",\"2-1\",\"5271\",\"39\",\"0\",\"Testing\",\"Stims/Figures/87-J-10-4.bmp\",\"fashasha\",\"Right\",\"37\",\"2\",\"9\",\"3A\",\"C1\",\"J\",\"33\"
\"\",\"\",\"approach-retreat\",\"182\",\"1308582\",\"0.0-182.0\",\"\",\"\",\"2-1\",\"5476\",\"39\",\"0\",\"Testing\",\"Stims/Figures/74-J-10-4.bmp\",\"fashasha\",\"Right\",\"37\",\"2\",\"10\",\"3A\",\"C1\",\"J\",\"34\"
\"\",\"\",\"approach-retreat\",\"183\",\"1314797\",\"0.0-183.0\",\"\",\"\",\"2-1\",\"4689\",\"39\",\"1\",\"Testing\",\"Stims/Figures/86-J-0-1.bmp\",\"fashasha\",\"Left\",\"39\",\"2\",\"11\",\"3A\",\"C1\",\"J\",\"35\"
\"\",\"\",\"approach-retreat\",\"184\",\"1320412\",\"0.0-184.0\",\"\",\"\",\"2-1\",\"4081\",\"39\",\"0\",\"Testing\",\"Stims/Figures/71-C-30-1.bmp\",\"saha:za\",\"Left\",\"37\",\"2\",\"12\",\"3A\",\"C2\",\"J\",\"36\"
\"\",\"\",\"approach-retreat\",\"185\",\"1326782\",\"0.0-185.0\",\"\",\"\",\"2-1\",\"4859\",\"38\",\"0\",\"Testing\",\"Stims/Figures/19-J-10-4.bmp\",\"fashasha\",\"Up\",\"40\",\"2\",\"13\",\"3A\",\"C1\",\"J\",\"37\"
\"\",\"\",\"approach-retreat\",\"186\",\"1332742\",\"0.0-186.0\",\"\",\"\",\"2-1\",\"4425\",\"40\",\"1\",\"Testing\",\"Stims/Figures/118-J-0-2.bmp\",\"fashasha\",\"Up\",\"40\",\"2\",\"14\",\"3A\",\"C1\",\"J\",\"38\"
\"\",\"\",\"approach-retreat\",\"187\",\"1338430\",\"0.0-187.0\",\"\",\"\",\"2-1\",\"4149\",\"37\",\"1\",\"Testing\",\"Stims/Figures/128-C-30-3.bmp\",\"saha:za\",\"Left\",\"37\",\"2\",\"15\",\"3A\",\"C2\",\"J\",\"39\"
\"\",\"\",\"approach-retreat\",\"188\",\"1346456\",\"0.0-188.0\",\"\",\"\",\"2-1\",\"6515\",\"38\",\"1\",\"Testing\",\"Stims/Figures/85-J-0-2.bmp\",\"fashasha\",\"Down\",\"38\",\"2\",\"16\",\"3A\",\"C1\",\"J\",\"40\"
\"\",\"\",\"approach-retreat\",\"189\",\"1352138\",\"0.0-189.0\",\"\",\"\",\"2-1\",\"4170\",\"40\",\"0\",\"Testing\",\"Stims/Figures/87-C-20-4.bmp\",\"saha:za\",\"Up\",\"38\",\"2\",\"17\",\"3A\",\"C2\",\"J\",\"41\"
\"\",\"\",\"approach-retreat\",\"190\",\"1357846\",\"0.0-190.0\",\"\",\"\",\"2-1\",\"4196\",\"40\",\"1\",\"Testing\",\"Stims/Figures/71-J-0-1.bmp\",\"fashasha\",\"Up\",\"40\",\"2\",\"18\",\"3A\",\"C1\",\"J\",\"42\"
\"\",\"\",\"approach-retreat\",\"191\",\"1363783\",\"0.0-191.0\",\"\",\"\",\"2-1\",\"4379\",\"40\",\"1\",\"Testing\",\"Stims/Figures/74-C-20-4.bmp\",\"saha:za\",\"Down\",\"40\",\"2\",\"19\",\"3A\",\"C2\",\"J\",\"43\"
\"\",\"\",\"approach-retreat\",\"192\",\"1369964\",\"0.0-192.0\",\"\",\"\",\"2-1\",\"4649\",\"39\",\"0\",\"Testing\",\"Stims/Figures/100-C-30-3.bmp\",\"saha:za\",\"Left\",\"37\",\"2\",\"20\",\"3A\",\"C2\",\"J\",\"44\"
\"\",\"\",\"approach-retreat\",\"193\",\"1375586\",\"0.0-193.0\",\"\",\"\",\"2-1\",\"4071\",\"40\",\"1\",\"Testing\",\"Stims/Figures/128-J-10-3.bmp\",\"fashasha\",\"Up\",\"40\",\"2\",\"21\",\"3A\",\"C1\",\"J\",\"45\"
\"\",\"\",\"approach-retreat\",\"194\",\"1383364\",\"0.0-194.0\",\"\",\"\",\"2-1\",\"6258\",\"37\",\"0\",\"Testing\",\"Stims/Figures/118-C-20-2.bmp\",\"saha:za\",\"Right\",\"39\",\"2\",\"22\",\"3A\",\"C2\",\"J\",\"46\"
\"\",\"\",\"approach-retreat\",\"195\",\"1389237\",\"0.0-195.0\",\"\",\"\",\"2-1\",\"4362\",\"40\",\"1\",\"Testing\",\"Stims/Figures/84-C-20-2.bmp\",\"saha:za\",\"Down\",\"40\",\"2\",\"23\",\"3A\",\"C2\",\"J\",\"47\"
\"\",\"\",\"approach-retreat\",\"196\",\"1395697\",\"0.0-196.0\",\"\",\"\",\"2-1\",\"4925\",\"39\",\"0\",\"Testing\",\"Stims/Figures/86-C-30-1.bmp\",\"saha:za\",\"Left\",\"37\",\"2\",\"24\",\"3A\",\"C2\",\"J\",\"48\"
\"\",\"\",\"approach-retreat\",\"197\",\"1401526\",\"0.0-197.0\",\"\",\"\",\"2-1\",\"4317\",\"39\",\"0\",\"Testing\",\"Stims/Figures/111-C-30-3.bmp\",\"saha:za\",\"Left\",\"37\",\"3\",\"1\",\"3A\",\"C2\",\"J\",\"49\"
\"\",\"\",\"approach-retreat\",\"198\",\"1408747\",\"0.0-198.0\",\"\",\"\",\"2-1\",\"5681\",\"40\",\"1\",\"Testing\",\"Stims/Figures/19-C-20-4.bmp\",\"saha:za\",\"Down\",\"40\",\"3\",\"2\",\"3A\",\"C2\",\"J\",\"50\"
\"\",\"\",\"approach-retreat\",\"199\",\"1414541\",\"0.0-199.0\",\"\",\"\",\"2-1\",\"4261\",\"39\",\"1\",\"Testing\",\"Stims/Figures/87-C-20-4.bmp\",\"saha:za\",\"Right\",\"39\",\"3\",\"3\",\"3A\",\"C2\",\"J\",\"51\"
\"\",\"\",\"approach-retreat\",\"200\",\"1420710\",\"0.0-200.0\",\"\",\"\",\"2-1\",\"4651\",\"37\",\"0\",\"Testing\",\"Stims/Figures/85-C-20-2.bmp\",\"saha:za\",\"Right\",\"39\",\"3\",\"4\",\"3A\",\"C2\",\"J\",\"52\"
\"\",\"\",\"approach-retreat\",\"201\",\"1427554\",\"0.0-201.0\",\"\",\"\",\"2-1\",\"5336\",\"39\",\"0\",\"Testing\",\"Stims/Figures/86-J-0-1.bmp\",\"fashasha\",\"Right\",\"37\",\"3\",\"5\",\"3A\",\"C1\",\"J\",\"53\"
\"\",\"\",\"approach-retreat\",\"202\",\"1433474\",\"0.0-202.0\",\"\",\"\",\"2-1\",\"4409\",\"40\",\"0\",\"Testing\",\"Stims/Figures/86-C-30-1.bmp\",\"saha:za\",\"Up\",\"38\",\"3\",\"6\",\"3A\",\"C2\",\"J\",\"54\"
\"\",\"\",\"approach-retreat\",\"203\",\"1439317\",\"0.0-203.0\",\"\",\"\",\"2-1\",\"4333\",\"38\",\"1\",\"Testing\",\"Stims/Figures/111-J-10-3.bmp\",\"fashasha\",\"Down\",\"38\",\"3\",\"7\",\"3A\",\"C1\",\"J\",\"55\"
\"\",\"\",\"approach-retreat\",\"204\",\"1445547\",\"0.0-204.0\",\"\",\"\",\"2-1\",\"4692\",\"37\",\"1\",\"Testing\",\"Stims/Figures/27-C-30-1.bmp\",\"saha:za\",\"Left\",\"37\",\"3\",\"8\",\"3A\",\"C2\",\"J\",\"56\"
\"\",\"\",\"approach-retreat\",\"205\",\"1451402\",\"0.0-205.0\",\"\",\"\",\"2-1\",\"4319\",\"37\",\"0\",\"Testing\",\"Stims/Figures/19-J-10-4.bmp\",\"fashasha\",\"Left\",\"39\",\"3\",\"9\",\"3A\",\"C1\",\"J\",\"57\"
\"\",\"\",\"approach-retreat\",\"206\",\"1457466\",\"0.0-206.0\",\"\",\"\",\"2-1\",\"4526\",\"37\",\"0\",\"Testing\",\"Stims/Figures/118-C-20-2.bmp\",\"saha:za\",\"Right\",\"39\",\"3\",\"10\",\"3A\",\"C2\",\"J\",\"58\"
\"\",\"\",\"approach-retreat\",\"207\",\"1463277\",\"0.0-207.0\",\"\",\"\",\"2-1\",\"4288\",\"37\",\"0\",\"Testing\",\"Stims/Figures/85-J-0-2.bmp\",\"fashasha\",\"Left\",\"39\",\"3\",\"11\",\"3A\",\"C1\",\"J\",\"59\"
\"\",\"\",\"approach-retreat\",\"208\",\"1469161\",\"0.0-208.0\",\"\",\"\",\"2-1\",\"4345\",\"40\",\"1\",\"Testing\",\"Stims/Figures/74-C-20-4.bmp\",\"saha:za\",\"Down\",\"40\",\"3\",\"12\",\"3A\",\"C2\",\"J\",\"60\"
\"\",\"\",\"approach-retreat\",\"209\",\"1475656\",\"0.0-209.0\",\"\",\"\",\"2-1\",\"4983\",\"38\",\"0\",\"Testing\",\"Stims/Figures/84-J-0-2.bmp\",\"fashasha\",\"Up\",\"40\",\"3\",\"13\",\"3A\",\"C1\",\"J\",\"61\"
\"\",\"\",\"approach-retreat\",\"210\",\"1481560\",\"0.0-210.0\",\"\",\"\",\"2-1\",\"4395\",\"40\",\"1\",\"Testing\",\"Stims/Figures/118-J-0-2.bmp\",\"fashasha\",\"Up\",\"40\",\"3\",\"14\",\"3A\",\"C1\",\"J\",\"62\"
\"\",\"\",\"approach-retreat\",\"211\",\"1487466\",\"0.0-211.0\",\"\",\"\",\"2-1\",\"4397\",\"39\",\"0\",\"Testing\",\"Stims/Figures/100-C-30-3.bmp\",\"saha:za\",\"Left\",\"37\",\"3\",\"15\",\"3A\",\"C2\",\"J\",\"63\"
\"\",\"\",\"approach-retreat\",\"212\",\"1493461\",\"0.0-212.0\",\"\",\"\",\"2-1\",\"4482\",\"40\",\"1\",\"Testing\",\"Stims/Figures/128-C-30-3.bmp\",\"saha:za\",\"Down\",\"40\",\"3\",\"16\",\"3A\",\"C2\",\"J\",\"64\"
\"\",\"\",\"approach-retreat\",\"213\",\"1499443\",\"0.0-213.0\",\"\",\"\",\"2-1\",\"4469\",\"39\",\"1\",\"Testing\",\"Stims/Figures/84-C-20-2.bmp\",\"saha:za\",\"Right\",\"39\",\"3\",\"17\",\"3A\",\"C2\",\"J\",\"65\"
\"\",\"\",\"approach-retreat\",\"214\",\"1505135\",\"0.0-214.0\",\"\",\"\",\"2-1\",\"4155\",\"37\",\"0\",\"Testing\",\"Stims/Figures/74-J-10-4.bmp\",\"fashasha\",\"Left\",\"39\",\"3\",\"18\",\"3A\",\"C1\",\"J\",\"66\"
\"\",\"\",\"approach-retreat\",\"215\",\"1510924\",\"0.0-215.0\",\"\",\"\",\"2-1\",\"4250\",\"38\",\"0\",\"Testing\",\"Stims/Figures/71-C-30-1.bmp\",\"saha:za\",\"Down\",\"40\",\"3\",\"19\",\"3A\",\"C2\",\"J\",\"67\"
\"\",\"\",\"approach-retreat\",\"216\",\"1517027\",\"0.0-216.0\",\"\",\"\",\"2-1\",\"4569\",\"38\",\"0\",\"Testing\",\"Stims/Figures/87-J-10-4.bmp\",\"fashasha\",\"Up\",\"40\",\"3\",\"20\",\"3A\",\"C1\",\"J\",\"68\"
\"\",\"\",\"approach-retreat\",\"217\",\"1522841\",\"0.0-217.0\",\"\",\"\",\"2-1\",\"4284\",\"38\",\"0\",\"Testing\",\"Stims/Figures/128-J-10-3.bmp\",\"fashasha\",\"Up\",\"40\",\"3\",\"21\",\"3A\",\"C1\",\"J\",\"69\"
\"\",\"\",\"approach-retreat\",\"218\",\"1529088\",\"0.0-218.0\",\"\",\"\",\"2-1\",\"4735\",\"37\",\"1\",\"Testing\",\"Stims/Figures/27-J-0-1.bmp\",\"fashasha\",\"Right\",\"37\",\"3\",\"22\",\"3A\",\"C1\",\"J\",\"70\"
\"\",\"\",\"approach-retreat\",\"219\",\"1535000\",\"0.0-219.0\",\"\",\"\",\"2-1\",\"4397\",\"38\",\"1\",\"Testing\",\"Stims/Figures/71-J-0-1.bmp\",\"fashasha\",\"Down\",\"38\",\"3\",\"23\",\"3A\",\"C1\",\"J\",\"71\"
\"\",\"\",\"approach-retreat\",\"220\",\"1541709\",\"0.0-220.0\",\"\",\"\",\"2-1\",\"5171\",\"40\",\"1\",\"Testing\",\"Stims/Figures/100-J-10-3.bmp\",\"fashasha\",\"Up\",\"40\",\"3\",\"24\",\"3A\",\"C1\",\"J\",\"72\"
\"\",\"\",\"approach-retreat\",\"221\",\"1548325\",\"0.0-221.0\",\"\",\"\",\"2-1\",\"5103\",\"37\",\"1\",\"Testing\",\"Stims/Figures/84-C-20-2.bmp\",\"saha:za\",\"Left\",\"37\",\"4\",\"1\",\"3A\",\"C2\",\"J\",\"73\"
\"\",\"\",\"approach-retreat\",\"222\",\"1554035\",\"0.0-222.0\",\"\",\"\",\"2-1\",\"4174\",\"40\",\"0\",\"Testing\",\"Stims/Figures/100-C-30-3.bmp\",\"saha:za\",\"Up\",\"38\",\"4\",\"2\",\"3A\",\"C2\",\"J\",\"74\"
\"\",\"\",\"approach-retreat\",\"223\",\"1559883\",\"0.0-223.0\",\"\",\"\",\"2-1\",\"4314\",\"39\",\"0\",\"Testing\",\"Stims/Figures/85-J-0-2.bmp\",\"fashasha\",\"Right\",\"37\",\"4\",\"3\",\"3A\",\"C1\",\"J\",\"75\"
\"\",\"\",\"approach-retreat\",\"224\",\"1565667\",\"0.0-224.0\",\"\",\"\",\"2-1\",\"4274\",\"39\",\"1\",\"Testing\",\"Stims/Figures/19-C-20-4.bmp\",\"saha:za\",\"Right\",\"39\",\"4\",\"4\",\"3A\",\"C2\",\"J\",\"76\"
\"\",\"\",\"approach-retreat\",\"225\",\"1571800\",\"0.0-225.0\",\"\",\"\",\"2-1\",\"4621\",\"38\",\"0\",\"Testing\",\"Stims/Figures/87-C-20-4.bmp\",\"saha:za\",\"Down\",\"40\",\"4\",\"5\",\"3A\",\"C2\",\"J\",\"77\"
\"\",\"\",\"approach-retreat\",\"226\",\"1577557\",\"0.0-226.0\",\"\",\"\",\"2-1\",\"4244\",\"39\",\"1\",\"Testing\",\"Stims/Figures/100-J-10-3.bmp\",\"fashasha\",\"Left\",\"39\",\"4\",\"6\",\"3A\",\"C1\",\"J\",\"78\"
\"\",\"\",\"approach-retreat\",\"227\",\"1583128\",\"0.0-227.0\",\"\",\"\",\"2-1\",\"4035\",\"39\",\"0\",\"Testing\",\"Stims/Figures/85-C-20-2.bmp\",\"saha:za\",\"Left\",\"37\",\"4\",\"7\",\"3A\",\"C2\",\"J\",\"79\"
\"\",\"\",\"approach-retreat\",\"228\",\"1589064\",\"0.0-228.0\",\"\",\"\",\"2-1\",\"4409\",\"39\",\"1\",\"Testing\",\"Stims/Figures/84-J-0-2.bmp\",\"fashasha\",\"Left\",\"39\",\"4\",\"8\",\"3A\",\"C1\",\"J\",\"80\"
\"\",\"\",\"approach-retreat\",\"229\",\"1595118\",\"0.0-229.0\",\"\",\"\",\"2-1\",\"4519\",\"38\",\"1\",\"Testing\",\"Stims/Figures/118-J-0-2.bmp\",\"fashasha\",\"Down\",\"38\",\"4\",\"9\",\"3A\",\"C1\",\"J\",\"81\"
\"\",\"\",\"approach-retreat\",\"230\",\"1600787\",\"0.0-230.0\",\"\",\"\",\"2-1\",\"4134\",\"37\",\"1\",\"Testing\",\"Stims/Figures/86-J-0-1.bmp\",\"fashasha\",\"Right\",\"37\",\"4\",\"10\",\"3A\",\"C1\",\"J\",\"82\"
\"\",\"\",\"approach-retreat\",\"231\",\"1606736\",\"0.0-231.0\",\"\",\"\",\"2-1\",\"4414\",\"37\",\"0\",\"Testing\",\"Stims/Figures/74-J-10-4.bmp\",\"fashasha\",\"Left\",\"39\",\"4\",\"11\",\"3A\",\"C1\",\"J\",\"83\"
\"\",\"\",\"approach-retreat\",\"232\",\"1612524\",\"0.0-232.0\",\"\",\"\",\"2-1\",\"4259\",\"39\",\"0\",\"Testing\",\"Stims/Figures/71-J-0-1.bmp\",\"fashasha\",\"Right\",\"37\",\"4\",\"12\",\"3A\",\"C1\",\"J\",\"84\"
\"\",\"\",\"approach-retreat\",\"233\",\"1618336\",\"0.0-233.0\",\"\",\"\",\"2-1\",\"4297\",\"40\",\"0\",\"Testing\",\"Stims/Figures/71-C-30-1.bmp\",\"saha:za\",\"Up\",\"38\",\"4\",\"13\",\"3A\",\"C2\",\"J\",\"85\"
\"\",\"\",\"approach-retreat\",\"234\",\"1624828\",\"0.0-234.0\",\"\",\"\",\"2-1\",\"4982\",\"38\",\"0\",\"Testing\",\"Stims/Figures/118-C-20-2.bmp\",\"saha:za\",\"Down\",\"40\",\"4\",\"14\",\"3A\",\"C2\",\"J\",\"86\"
\"\",\"\",\"approach-retreat\",\"235\",\"1630957\",\"0.0-235.0\",\"\",\"\",\"2-1\",\"4617\",\"39\",\"1\",\"Testing\",\"Stims/Figures/111-J-10-3.bmp\",\"fashasha\",\"Left\",\"39\",\"4\",\"15\",\"3A\",\"C1\",\"J\",\"87\"
\"\",\"\",\"approach-retreat\",\"236\",\"1636781\",\"0.0-236.0\",\"\",\"\",\"2-1\",\"4310\",\"40\",\"0\",\"Testing\",\"Stims/Figures/19-J-10-4.bmp\",\"fashasha\",\"Down\",\"38\",\"4\",\"16\",\"3A\",\"C1\",\"J\",\"88\"
\"\",\"\",\"approach-retreat\",\"237\",\"1643248\",\"0.0-237.0\",\"\",\"\",\"2-1\",\"4956\",\"38\",\"0\",\"Testing\",\"Stims/Figures/111-C-30-3.bmp\",\"saha:za\",\"Down\",\"40\",\"4\",\"17\",\"3A\",\"C2\",\"J\",\"89\"
\"\",\"\",\"approach-retreat\",\"238\",\"1649680\",\"0.0-238.0\",\"\",\"\",\"2-1\",\"4895\",\"38\",\"1\",\"Testing\",\"Stims/Figures/27-C-30-1.bmp\",\"saha:za\",\"Up\",\"38\",\"4\",\"18\",\"3A\",\"C2\",\"J\",\"90\"
\"\",\"\",\"approach-retreat\",\"239\",\"1656225\",\"0.0-239.0\",\"\",\"\",\"2-1\",\"5009\",\"39\",\"1\",\"Testing\",\"Stims/Figures/128-C-30-3.bmp\",\"saha:za\",\"Right\",\"39\",\"4\",\"19\",\"3A\",\"C2\",\"J\",\"91\"
\"\",\"\",\"approach-retreat\",\"240\",\"1662064\",\"0.0-240.0\",\"\",\"\",\"2-1\",\"4308\",\"38\",\"0\",\"Testing\",\"Stims/Figures/128-J-10-3.bmp\",\"fashasha\",\"Up\",\"40\",\"4\",\"20\",\"3A\",\"C1\",\"J\",\"92\"
\"\",\"\",\"approach-retreat\",\"241\",\"1667840\",\"0.0-241.0\",\"\",\"\",\"2-1\",\"4241\",\"38\",\"1\",\"Testing\",\"Stims/Figures/74-C-20-4.bmp\",\"saha:za\",\"Up\",\"38\",\"4\",\"21\",\"3A\",\"C2\",\"J\",\"93\"
\"\",\"\",\"approach-retreat\",\"242\",\"1673839\",\"0.0-242.0\",\"\",\"\",\"2-1\",\"4486\",\"38\",\"0\",\"Testing\",\"Stims/Figures/86-C-30-1.bmp\",\"saha:za\",\"Down\",\"40\",\"4\",\"22\",\"3A\",\"C2\",\"J\",\"94\"
\"\",\"\",\"approach-retreat\",\"243\",\"1680524\",\"0.0-243.0\",\"\",\"\",\"2-1\",\"5149\",\"37\",\"1\",\"Testing\",\"Stims/Figures/27-J-0-1.bmp\",\"fashasha\",\"Right\",\"37\",\"4\",\"23\",\"3A\",\"C1\",\"J\",\"95\"
\"\",\"\",\"approach-retreat\",\"244\",\"1686431\",\"0.0-244.0\",\"\",\"\",\"2-1\",\"4382\",\"40\",\"1\",\"Testing\",\"Stims/Figures/87-J-10-4.bmp\",\"fashasha\",\"Up\",\"40\",\"4\",\"24\",\"3A\",\"C1\",\"J\",\"96\"
\"18504\",\"\",\"survey-text\",\"245\",\"1704968\",\"0.0-245.0\",\"\",\"{\"\"Q0\"\":\"\"PS170014\"\"}\",\"\",\"\",\"\",\"\",\"\",\"\",\"\",\"\",\"\",\"\",\"\",\"\",\"\",\"\",\"\"
