\"rt\",\"key_press\",\"trial_type\",\"trial_index\",\"time_elapsed\",\"internal_node_id\",\"view_history\",\"responses\",\"Id\",\"Rt\",\"ResKeyCode\",\"ResCorr\",\"TrialType2\",\"Image\",\"Label\",\"Location\",\"CorrectResponse\",\"Block\",\"BlockTrial\",\"Condition\",\"LabelType\",\"Subcondition\",\"trialNum\"
\"71294\",\"32\",\"text\",\"0\",\"71299\",\"0.0-0.0-0.0\",\"\",\"\",\"\",\"\",\"\",\"\",\"\",\"\",\"\",\"\",\"\",\"\",\"\",\"\",\"\",\"\",\"\"
\"79964\",\"\",\"instructions\",\"1\",\"151268\",\"0.0-1.0\",\"[{\"\"page_index\"\":0,\"\"viewing_time\"\":79963}]\",\"\",\"\",\"\",\"\",\"\",\"\",\"\",\"\",\"\",\"\",\"\",\"\",\"\",\"\",\"\",\"\"
\"50458\",\"\",\"survey-multi-choice\",\"2\",\"201764\",\"0.0-2.0\",\"\",\"{\"\"Q0\"\":\"\"Da\"\",\"\"Q1\"\":\"\"Da\"\",\"\"Q2\"\":\"\"Da\"\",\"\"Q3\"\":\"\"Da\"\",\"\"Q4\"\":\"\"Da\"\",\"\"Q5\"\":\"\"Da\"\"}\",\"\",\"\",\"\",\"\",\"\",\"\",\"\",\"\",\"\",\"\",\"\",\"\",\"\",\"\",\"\"
\"\",\"\",\"bio\",\"3\",\"217246\",\"0.0-3.0\",\"\",\"{\"\"age\"\":\"\"20\"\",\"\"gender\"\":\"\"f\"\",\"\"specify\"\":\"\"\"\"}\",\"\",\"\",\"\",\"\",\"\",\"\",\"\",\"\",\"\",\"\",\"\",\"\",\"\",\"\",\"\"
\"\",\"\",\"approach-retreat\",\"4\",\"239374\",\"0.0-4.0\",\"\",\"\",\"3-4\",\"20617\",\"39\",\"0\",\"Training\",\"Stims/Figures/19-J-10-4.bmp\",\"fa:fa:va\",\"Right\",\"37\",\"1\",\"1\",\"3A\",\"C1\",\"J\",\"1\"
\"\",\"\",\"approach-retreat\",\"5\",\"262408\",\"0.0-5.0\",\"\",\"\",\"3-4\",\"21528\",\"39\",\"0\",\"Training\",\"Stims/Figures/85-C-20-2.bmp\",\"zasa:ha\",\"Left\",\"37\",\"1\",\"2\",\"3A\",\"C2\",\"J\",\"2\"
\"\",\"\",\"approach-retreat\",\"6\",\"273206\",\"0.0-6.0\",\"\",\"\",\"3-4\",\"9286\",\"39\",\"1\",\"Training\",\"Stims/Figures/74-C-20-4.bmp\",\"zasa:ha\",\"Right\",\"39\",\"1\",\"3\",\"3A\",\"C2\",\"J\",\"3\"
\"\",\"\",\"approach-retreat\",\"7\",\"289746\",\"0.0-7.0\",\"\",\"\",\"3-4\",\"15031\",\"40\",\"1\",\"Training\",\"Stims/Figures/85-J-0-2.bmp\",\"fa:fa:va\",\"Up\",\"40\",\"1\",\"4\",\"3A\",\"C1\",\"J\",\"4\"
\"\",\"\",\"approach-retreat\",\"8\",\"298291\",\"0.0-8.0\",\"\",\"\",\"3-4\",\"7034\",\"37\",\"0\",\"Training\",\"Stims/Figures/19-C-20-4.bmp\",\"zasa:ha\",\"Right\",\"39\",\"1\",\"5\",\"3A\",\"C2\",\"J\",\"5\"
\"\",\"\",\"approach-retreat\",\"9\",\"309137\",\"0.0-9.0\",\"\",\"\",\"3-4\",\"9337\",\"38\",\"0\",\"Training\",\"Stims/Figures/144-C-30-3.bmp\",\"zasa:ha\",\"Down\",\"40\",\"1\",\"6\",\"3A\",\"C2\",\"J\",\"6\"
\"\",\"\",\"approach-retreat\",\"10\",\"321767\",\"0.0-10.0\",\"\",\"\",\"3-4\",\"11125\",\"38\",\"0\",\"Training\",\"Stims/Figures/144-J-10-3.bmp\",\"fa:fa:va\",\"Up\",\"40\",\"1\",\"7\",\"3A\",\"C1\",\"J\",\"7\"
\"\",\"\",\"approach-retreat\",\"11\",\"329029\",\"0.0-11.0\",\"\",\"\",\"3-4\",\"5753\",\"39\",\"0\",\"Training\",\"Stims/Figures/128-C-30-3.bmp\",\"zasa:ha\",\"Left\",\"37\",\"1\",\"8\",\"3A\",\"C2\",\"J\",\"8\"
\"\",\"\",\"approach-retreat\",\"12\",\"337429\",\"0.0-12.0\",\"\",\"\",\"3-4\",\"6893\",\"38\",\"1\",\"Training\",\"Stims/Figures/118-C-20-2.bmp\",\"zasa:ha\",\"Up\",\"38\",\"1\",\"9\",\"3A\",\"C2\",\"J\",\"9\"
\"\",\"\",\"approach-retreat\",\"13\",\"345514\",\"0.0-13.0\",\"\",\"\",\"3-4\",\"6580\",\"39\",\"1\",\"Training\",\"Stims/Figures/27-J-0-1.bmp\",\"fa:fa:va\",\"Left\",\"39\",\"1\",\"10\",\"3A\",\"C1\",\"J\",\"10\"
\"\",\"\",\"approach-retreat\",\"14\",\"352940\",\"0.0-14.0\",\"\",\"\",\"3-4\",\"5920\",\"38\",\"1\",\"Training\",\"Stims/Figures/118-J-0-2.bmp\",\"fa:fa:va\",\"Down\",\"38\",\"1\",\"11\",\"3A\",\"C1\",\"J\",\"11\"
\"\",\"\",\"approach-retreat\",\"15\",\"360174\",\"0.0-15.0\",\"\",\"\",\"3-4\",\"5727\",\"40\",\"1\",\"Training\",\"Stims/Figures/86-C-30-1.bmp\",\"zasa:ha\",\"Down\",\"40\",\"1\",\"12\",\"3A\",\"C2\",\"J\",\"12\"
\"\",\"\",\"approach-retreat\",\"16\",\"367252\",\"0.0-16.0\",\"\",\"\",\"3-4\",\"5569\",\"38\",\"1\",\"Training\",\"Stims/Figures/27-C-30-1.bmp\",\"zasa:ha\",\"Up\",\"38\",\"1\",\"13\",\"3A\",\"C2\",\"J\",\"13\"
\"\",\"\",\"approach-retreat\",\"17\",\"376114\",\"0.0-17.0\",\"\",\"\",\"3-4\",\"7353\",\"40\",\"0\",\"Training\",\"Stims/Figures/86-J-0-1.bmp\",\"fa:fa:va\",\"Down\",\"38\",\"1\",\"14\",\"3A\",\"C1\",\"J\",\"14\"
\"\",\"\",\"approach-retreat\",\"18\",\"382911\",\"0.0-18.0\",\"\",\"\",\"3-4\",\"5285\",\"39\",\"1\",\"Training\",\"Stims/Figures/74-J-10-4.bmp\",\"fa:fa:va\",\"Left\",\"39\",\"1\",\"15\",\"3A\",\"C1\",\"J\",\"15\"
\"\",\"\",\"approach-retreat\",\"19\",\"389306\",\"0.0-19.0\",\"\",\"\",\"3-4\",\"4889\",\"37\",\"1\",\"Training\",\"Stims/Figures/128-J-10-3.bmp\",\"fa:fa:va\",\"Right\",\"37\",\"1\",\"16\",\"3A\",\"C1\",\"J\",\"16\"
\"\",\"\",\"approach-retreat\",\"20\",\"398990\",\"0.0-20.0\",\"\",\"\",\"3-4\",\"8172\",\"37\",\"1\",\"Training\",\"Stims/Figures/128-C-30-3.bmp\",\"zasa:ha\",\"Left\",\"37\",\"2\",\"1\",\"3A\",\"C2\",\"J\",\"17\"
\"\",\"\",\"approach-retreat\",\"21\",\"410791\",\"0.0-21.0\",\"\",\"\",\"3-4\",\"10293\",\"40\",\"1\",\"Training\",\"Stims/Figures/85-J-0-2.bmp\",\"fa:fa:va\",\"Up\",\"40\",\"2\",\"2\",\"3A\",\"C1\",\"J\",\"18\"
\"\",\"\",\"approach-retreat\",\"22\",\"417015\",\"0.0-22.0\",\"\",\"\",\"3-4\",\"4711\",\"38\",\"1\",\"Training\",\"Stims/Figures/86-J-0-1.bmp\",\"fa:fa:va\",\"Down\",\"38\",\"2\",\"3\",\"3A\",\"C1\",\"J\",\"19\"
\"\",\"\",\"approach-retreat\",\"23\",\"424042\",\"0.0-23.0\",\"\",\"\",\"3-4\",\"5523\",\"38\",\"1\",\"Training\",\"Stims/Figures/74-J-10-4.bmp\",\"fa:fa:va\",\"Down\",\"38\",\"2\",\"4\",\"3A\",\"C1\",\"J\",\"20\"
\"\",\"\",\"approach-retreat\",\"24\",\"431744\",\"0.0-24.0\",\"\",\"\",\"3-4\",\"6193\",\"37\",\"1\",\"Training\",\"Stims/Figures/86-C-30-1.bmp\",\"zasa:ha\",\"Left\",\"37\",\"2\",\"5\",\"3A\",\"C2\",\"J\",\"21\"
\"\",\"\",\"approach-retreat\",\"25\",\"438303\",\"0.0-25.0\",\"\",\"\",\"3-4\",\"5046\",\"40\",\"1\",\"Training\",\"Stims/Figures/118-J-0-2.bmp\",\"fa:fa:va\",\"Up\",\"40\",\"2\",\"6\",\"3A\",\"C1\",\"J\",\"22\"
\"\",\"\",\"approach-retreat\",\"26\",\"444900\",\"0.0-26.0\",\"\",\"\",\"3-4\",\"5087\",\"39\",\"1\",\"Training\",\"Stims/Figures/19-C-20-4.bmp\",\"zasa:ha\",\"Right\",\"39\",\"2\",\"7\",\"3A\",\"C2\",\"J\",\"23\"
\"\",\"\",\"approach-retreat\",\"27\",\"451220\",\"0.0-27.0\",\"\",\"\",\"3-4\",\"4811\",\"38\",\"1\",\"Training\",\"Stims/Figures/144-C-30-3.bmp\",\"zasa:ha\",\"Up\",\"38\",\"2\",\"8\",\"3A\",\"C2\",\"J\",\"24\"
\"\",\"\",\"approach-retreat\",\"28\",\"457650\",\"0.0-28.0\",\"\",\"\",\"3-4\",\"4923\",\"37\",\"1\",\"Training\",\"Stims/Figures/27-J-0-1.bmp\",\"fa:fa:va\",\"Right\",\"37\",\"2\",\"9\",\"3A\",\"C1\",\"J\",\"25\"
\"\",\"\",\"approach-retreat\",\"29\",\"463980\",\"0.0-29.0\",\"\",\"\",\"3-4\",\"4825\",\"40\",\"1\",\"Training\",\"Stims/Figures/27-C-30-1.bmp\",\"zasa:ha\",\"Down\",\"40\",\"2\",\"10\",\"3A\",\"C2\",\"J\",\"26\"
\"\",\"\",\"approach-retreat\",\"30\",\"470221\",\"0.0-30.0\",\"\",\"\",\"3-4\",\"4736\",\"37\",\"1\",\"Training\",\"Stims/Figures/144-J-10-3.bmp\",\"fa:fa:va\",\"Right\",\"37\",\"2\",\"11\",\"3A\",\"C1\",\"J\",\"27\"
\"\",\"\",\"approach-retreat\",\"31\",\"477013\",\"0.0-31.0\",\"\",\"\",\"3-4\",\"5287\",\"38\",\"1\",\"Training\",\"Stims/Figures/74-C-20-4.bmp\",\"zasa:ha\",\"Up\",\"38\",\"2\",\"12\",\"3A\",\"C2\",\"J\",\"28\"
\"\",\"\",\"approach-retreat\",\"32\",\"484129\",\"0.0-32.0\",\"\",\"\",\"3-4\",\"5612\",\"39\",\"1\",\"Training\",\"Stims/Figures/19-J-10-4.bmp\",\"fa:fa:va\",\"Left\",\"39\",\"2\",\"13\",\"3A\",\"C1\",\"J\",\"29\"
\"\",\"\",\"approach-retreat\",\"33\",\"490368\",\"0.0-33.0\",\"\",\"\",\"3-4\",\"4730\",\"39\",\"1\",\"Training\",\"Stims/Figures/128-J-10-3.bmp\",\"fa:fa:va\",\"Left\",\"39\",\"2\",\"14\",\"3A\",\"C1\",\"J\",\"30\"
\"\",\"\",\"approach-retreat\",\"34\",\"497325\",\"0.0-34.0\",\"\",\"\",\"3-4\",\"5448\",\"40\",\"1\",\"Training\",\"Stims/Figures/85-C-20-2.bmp\",\"zasa:ha\",\"Down\",\"40\",\"2\",\"15\",\"3A\",\"C2\",\"J\",\"31\"
\"\",\"\",\"approach-retreat\",\"35\",\"504274\",\"0.0-35.0\",\"\",\"\",\"3-4\",\"5440\",\"39\",\"1\",\"Training\",\"Stims/Figures/118-C-20-2.bmp\",\"zasa:ha\",\"Right\",\"39\",\"2\",\"16\",\"3A\",\"C2\",\"J\",\"32\"
\"\",\"\",\"approach-retreat\",\"36\",\"511809\",\"0.0-36.0\",\"\",\"\",\"3-4\",\"6028\",\"39\",\"1\",\"Training\",\"Stims/Figures/85-J-0-2.bmp\",\"fa:fa:va\",\"Left\",\"39\",\"3\",\"1\",\"3A\",\"C1\",\"J\",\"33\"
\"\",\"\",\"approach-retreat\",\"37\",\"518263\",\"0.0-37.0\",\"\",\"\",\"3-4\",\"4942\",\"38\",\"1\",\"Training\",\"Stims/Figures/74-C-20-4.bmp\",\"zasa:ha\",\"Up\",\"38\",\"3\",\"2\",\"3A\",\"C2\",\"J\",\"34\"
\"\",\"\",\"approach-retreat\",\"38\",\"524308\",\"0.0-38.0\",\"\",\"\",\"3-4\",\"4539\",\"39\",\"1\",\"Training\",\"Stims/Figures/86-C-30-1.bmp\",\"zasa:ha\",\"Right\",\"39\",\"3\",\"3\",\"3A\",\"C2\",\"J\",\"35\"
\"\",\"\",\"approach-retreat\",\"39\",\"530576\",\"0.0-39.0\",\"\",\"\",\"3-4\",\"4759\",\"38\",\"1\",\"Training\",\"Stims/Figures/27-C-30-1.bmp\",\"zasa:ha\",\"Up\",\"38\",\"3\",\"4\",\"3A\",\"C2\",\"J\",\"36\"
\"\",\"\",\"approach-retreat\",\"40\",\"536623\",\"0.0-40.0\",\"\",\"\",\"3-4\",\"4542\",\"40\",\"1\",\"Training\",\"Stims/Figures/19-J-10-4.bmp\",\"fa:fa:va\",\"Up\",\"40\",\"3\",\"5\",\"3A\",\"C1\",\"J\",\"37\"
\"\",\"\",\"approach-retreat\",\"41\",\"542667\",\"0.0-41.0\",\"\",\"\",\"3-4\",\"4538\",\"40\",\"0\",\"Training\",\"Stims/Figures/128-C-30-3.bmp\",\"zasa:ha\",\"Up\",\"38\",\"3\",\"6\",\"3A\",\"C2\",\"J\",\"38\"
\"\",\"\",\"approach-retreat\",\"42\",\"548811\",\"0.0-42.0\",\"\",\"\",\"3-4\",\"4637\",\"37\",\"1\",\"Training\",\"Stims/Figures/128-J-10-3.bmp\",\"fa:fa:va\",\"Right\",\"37\",\"3\",\"7\",\"3A\",\"C1\",\"J\",\"39\"
\"\",\"\",\"approach-retreat\",\"43\",\"556981\",\"0.0-43.0\",\"\",\"\",\"3-4\",\"6664\",\"40\",\"1\",\"Training\",\"Stims/Figures/85-C-20-2.bmp\",\"zasa:ha\",\"Down\",\"40\",\"3\",\"8\",\"3A\",\"C2\",\"J\",\"40\"
\"\",\"\",\"approach-retreat\",\"44\",\"563444\",\"0.0-44.0\",\"\",\"\",\"3-4\",\"4954\",\"40\",\"1\",\"Training\",\"Stims/Figures/118-C-20-2.bmp\",\"zasa:ha\",\"Down\",\"40\",\"3\",\"9\",\"3A\",\"C2\",\"J\",\"41\"
\"\",\"\",\"approach-retreat\",\"45\",\"569734\",\"0.0-45.0\",\"\",\"\",\"3-4\",\"4785\",\"40\",\"1\",\"Training\",\"Stims/Figures/144-C-30-3.bmp\",\"zasa:ha\",\"Down\",\"40\",\"3\",\"10\",\"3A\",\"C2\",\"J\",\"42\"
\"\",\"\",\"approach-retreat\",\"46\",\"576208\",\"0.0-46.0\",\"\",\"\",\"3-4\",\"4968\",\"39\",\"1\",\"Training\",\"Stims/Figures/19-C-20-4.bmp\",\"zasa:ha\",\"Right\",\"39\",\"3\",\"11\",\"3A\",\"C2\",\"J\",\"43\"
\"\",\"\",\"approach-retreat\",\"47\",\"582725\",\"0.0-47.0\",\"\",\"\",\"3-4\",\"5011\",\"38\",\"1\",\"Training\",\"Stims/Figures/27-J-0-1.bmp\",\"fa:fa:va\",\"Down\",\"38\",\"3\",\"12\",\"3A\",\"C1\",\"J\",\"44\"
\"\",\"\",\"approach-retreat\",\"48\",\"590300\",\"0.0-48.0\",\"\",\"\",\"3-4\",\"6071\",\"39\",\"1\",\"Training\",\"Stims/Figures/74-J-10-4.bmp\",\"fa:fa:va\",\"Left\",\"39\",\"3\",\"13\",\"3A\",\"C1\",\"J\",\"45\"
\"\",\"\",\"approach-retreat\",\"49\",\"596609\",\"0.0-49.0\",\"\",\"\",\"3-4\",\"4803\",\"37\",\"1\",\"Training\",\"Stims/Figures/118-J-0-2.bmp\",\"fa:fa:va\",\"Right\",\"37\",\"3\",\"14\",\"3A\",\"C1\",\"J\",\"46\"
\"\",\"\",\"approach-retreat\",\"50\",\"603206\",\"0.0-50.0\",\"\",\"\",\"3-4\",\"5091\",\"39\",\"1\",\"Training\",\"Stims/Figures/86-J-0-1.bmp\",\"fa:fa:va\",\"Left\",\"39\",\"3\",\"15\",\"3A\",\"C1\",\"J\",\"47\"
\"\",\"\",\"approach-retreat\",\"51\",\"610298\",\"0.0-51.0\",\"\",\"\",\"3-4\",\"5583\",\"39\",\"1\",\"Training\",\"Stims/Figures/144-J-10-3.bmp\",\"fa:fa:va\",\"Left\",\"39\",\"3\",\"16\",\"3A\",\"C1\",\"J\",\"48\"
\"\",\"\",\"approach-retreat\",\"52\",\"616806\",\"0.0-52.0\",\"\",\"\",\"3-4\",\"5003\",\"37\",\"1\",\"Training\",\"Stims/Figures/27-C-30-1.bmp\",\"zasa:ha\",\"Left\",\"37\",\"4\",\"1\",\"3A\",\"C2\",\"J\",\"49\"
\"\",\"\",\"approach-retreat\",\"53\",\"624370\",\"0.0-53.0\",\"\",\"\",\"3-4\",\"6054\",\"37\",\"1\",\"Training\",\"Stims/Figures/86-J-0-1.bmp\",\"fa:fa:va\",\"Right\",\"37\",\"4\",\"2\",\"3A\",\"C1\",\"J\",\"50\"
\"\",\"\",\"approach-retreat\",\"54\",\"630876\",\"0.0-54.0\",\"\",\"\",\"3-4\",\"4997\",\"38\",\"1\",\"Training\",\"Stims/Figures/74-J-10-4.bmp\",\"fa:fa:va\",\"Down\",\"38\",\"4\",\"3\",\"3A\",\"C1\",\"J\",\"51\"
\"\",\"\",\"approach-retreat\",\"55\",\"637395\",\"0.0-55.0\",\"\",\"\",\"3-4\",\"5015\",\"38\",\"1\",\"Training\",\"Stims/Figures/118-J-0-2.bmp\",\"fa:fa:va\",\"Down\",\"38\",\"4\",\"4\",\"3A\",\"C1\",\"J\",\"52\"
\"\",\"\",\"approach-retreat\",\"56\",\"643621\",\"0.0-56.0\",\"\",\"\",\"3-4\",\"4715\",\"40\",\"1\",\"Training\",\"Stims/Figures/118-C-20-2.bmp\",\"zasa:ha\",\"Down\",\"40\",\"4\",\"5\",\"3A\",\"C2\",\"J\",\"53\"
\"\",\"\",\"approach-retreat\",\"57\",\"649910\",\"0.0-57.0\",\"\",\"\",\"3-4\",\"4784\",\"37\",\"1\",\"Training\",\"Stims/Figures/144-J-10-3.bmp\",\"fa:fa:va\",\"Right\",\"37\",\"4\",\"6\",\"3A\",\"C1\",\"J\",\"54\"
\"\",\"\",\"approach-retreat\",\"58\",\"656283\",\"0.0-58.0\",\"\",\"\",\"3-4\",\"4868\",\"40\",\"1\",\"Training\",\"Stims/Figures/74-C-20-4.bmp\",\"zasa:ha\",\"Down\",\"40\",\"4\",\"7\",\"3A\",\"C2\",\"J\",\"55\"
\"\",\"\",\"approach-retreat\",\"59\",\"662891\",\"0.0-59.0\",\"\",\"\",\"3-4\",\"5103\",\"39\",\"1\",\"Training\",\"Stims/Figures/85-C-20-2.bmp\",\"zasa:ha\",\"Right\",\"39\",\"4\",\"8\",\"3A\",\"C2\",\"J\",\"56\"
\"\",\"\",\"approach-retreat\",\"60\",\"669729\",\"0.0-60.0\",\"\",\"\",\"3-4\",\"5334\",\"37\",\"1\",\"Training\",\"Stims/Figures/86-C-30-1.bmp\",\"zasa:ha\",\"Left\",\"37\",\"4\",\"9\",\"3A\",\"C2\",\"J\",\"57\"
\"\",\"\",\"approach-retreat\",\"61\",\"676127\",\"0.0-61.0\",\"\",\"\",\"3-4\",\"4894\",\"40\",\"1\",\"Training\",\"Stims/Figures/27-J-0-1.bmp\",\"fa:fa:va\",\"Up\",\"40\",\"4\",\"10\",\"3A\",\"C1\",\"J\",\"58\"
\"\",\"\",\"approach-retreat\",\"62\",\"682618\",\"0.0-62.0\",\"\",\"\",\"3-4\",\"4985\",\"38\",\"1\",\"Training\",\"Stims/Figures/19-C-20-4.bmp\",\"zasa:ha\",\"Up\",\"38\",\"4\",\"11\",\"3A\",\"C2\",\"J\",\"59\"
\"\",\"\",\"approach-retreat\",\"63\",\"689135\",\"0.0-63.0\",\"\",\"\",\"3-4\",\"5011\",\"39\",\"1\",\"Training\",\"Stims/Figures/144-C-30-3.bmp\",\"zasa:ha\",\"Right\",\"39\",\"4\",\"12\",\"3A\",\"C2\",\"J\",\"60\"
\"\",\"\",\"approach-retreat\",\"64\",\"695617\",\"0.0-64.0\",\"\",\"\",\"3-4\",\"4977\",\"39\",\"1\",\"Training\",\"Stims/Figures/19-J-10-4.bmp\",\"fa:fa:va\",\"Left\",\"39\",\"4\",\"13\",\"3A\",\"C1\",\"J\",\"61\"
\"\",\"\",\"approach-retreat\",\"65\",\"703351\",\"0.0-65.0\",\"\",\"\",\"3-4\",\"6227\",\"39\",\"1\",\"Training\",\"Stims/Figures/128-J-10-3.bmp\",\"fa:fa:va\",\"Left\",\"39\",\"4\",\"14\",\"3A\",\"C1\",\"J\",\"62\"
\"\",\"\",\"approach-retreat\",\"66\",\"709859\",\"0.0-66.0\",\"\",\"\",\"3-4\",\"5003\",\"38\",\"1\",\"Training\",\"Stims/Figures/128-C-30-3.bmp\",\"zasa:ha\",\"Up\",\"38\",\"4\",\"15\",\"3A\",\"C2\",\"J\",\"63\"
\"\",\"\",\"approach-retreat\",\"67\",\"716413\",\"0.0-67.0\",\"\",\"\",\"3-4\",\"5049\",\"40\",\"1\",\"Training\",\"Stims/Figures/85-J-0-2.bmp\",\"fa:fa:va\",\"Up\",\"40\",\"4\",\"16\",\"3A\",\"C1\",\"J\",\"64\"
\"\",\"\",\"approach-retreat\",\"68\",\"724103\",\"0.0-68.0\",\"\",\"\",\"3-4\",\"6184\",\"39\",\"1\",\"Training\",\"Stims/Figures/118-J-0-2.bmp\",\"fa:fa:va\",\"Left\",\"39\",\"5\",\"1\",\"3A\",\"C1\",\"J\",\"65\"
\"\",\"\",\"approach-retreat\",\"69\",\"730248\",\"0.0-69.0\",\"\",\"\",\"3-4\",\"4638\",\"40\",\"1\",\"Training\",\"Stims/Figures/19-J-10-4.bmp\",\"fa:fa:va\",\"Up\",\"40\",\"5\",\"2\",\"3A\",\"C1\",\"J\",\"66\"
\"\",\"\",\"approach-retreat\",\"70\",\"736672\",\"0.0-70.0\",\"\",\"\",\"3-4\",\"4916\",\"40\",\"1\",\"Training\",\"Stims/Figures/128-C-30-3.bmp\",\"zasa:ha\",\"Down\",\"40\",\"5\",\"3\",\"3A\",\"C2\",\"J\",\"67\"
\"\",\"\",\"approach-retreat\",\"71\",\"744247\",\"0.0-71.0\",\"\",\"\",\"3-4\",\"6070\",\"38\",\"1\",\"Training\",\"Stims/Figures/27-C-30-1.bmp\",\"zasa:ha\",\"Up\",\"38\",\"5\",\"4\",\"3A\",\"C2\",\"J\",\"68\"
\"\",\"\",\"approach-retreat\",\"72\",\"750398\",\"0.0-72.0\",\"\",\"\",\"3-4\",\"4645\",\"37\",\"1\",\"Training\",\"Stims/Figures/74-C-20-4.bmp\",\"zasa:ha\",\"Left\",\"37\",\"5\",\"5\",\"3A\",\"C2\",\"J\",\"69\"
\"\",\"\",\"approach-retreat\",\"73\",\"756993\",\"0.0-73.0\",\"\",\"\",\"3-4\",\"5091\",\"39\",\"1\",\"Training\",\"Stims/Figures/27-J-0-1.bmp\",\"fa:fa:va\",\"Left\",\"39\",\"5\",\"6\",\"3A\",\"C1\",\"J\",\"70\"
\"\",\"\",\"approach-retreat\",\"74\",\"763367\",\"0.0-74.0\",\"\",\"\",\"3-4\",\"4868\",\"37\",\"1\",\"Training\",\"Stims/Figures/74-J-10-4.bmp\",\"fa:fa:va\",\"Right\",\"37\",\"5\",\"7\",\"3A\",\"C1\",\"J\",\"71\"
\"\",\"\",\"approach-retreat\",\"75\",\"769632\",\"0.0-75.0\",\"\",\"\",\"3-4\",\"4761\",\"38\",\"1\",\"Training\",\"Stims/Figures/86-C-30-1.bmp\",\"zasa:ha\",\"Up\",\"38\",\"5\",\"8\",\"3A\",\"C2\",\"J\",\"72\"
\"\",\"\",\"approach-retreat\",\"76\",\"776015\",\"0.0-76.0\",\"\",\"\",\"3-4\",\"4878\",\"38\",\"1\",\"Training\",\"Stims/Figures/86-J-0-1.bmp\",\"fa:fa:va\",\"Down\",\"38\",\"5\",\"9\",\"3A\",\"C1\",\"J\",\"73\"
\"\",\"\",\"approach-retreat\",\"77\",\"782838\",\"0.0-77.0\",\"\",\"\",\"3-4\",\"5318\",\"38\",\"1\",\"Training\",\"Stims/Figures/85-J-0-2.bmp\",\"fa:fa:va\",\"Down\",\"38\",\"5\",\"10\",\"3A\",\"C1\",\"J\",\"74\"
\"\",\"\",\"approach-retreat\",\"78\",\"792703\",\"0.0-78.0\",\"\",\"\",\"3-4\",\"8356\",\"39\",\"1\",\"Training\",\"Stims/Figures/19-C-20-4.bmp\",\"zasa:ha\",\"Right\",\"39\",\"5\",\"11\",\"3A\",\"C2\",\"J\",\"75\"
\"\",\"\",\"approach-retreat\",\"79\",\"799337\",\"0.0-79.0\",\"\",\"\",\"3-4\",\"5129\",\"40\",\"1\",\"Training\",\"Stims/Figures/118-C-20-2.bmp\",\"zasa:ha\",\"Down\",\"40\",\"5\",\"12\",\"3A\",\"C2\",\"J\",\"76\"
\"\",\"\",\"approach-retreat\",\"80\",\"805803\",\"0.0-80.0\",\"\",\"\",\"3-4\",\"4957\",\"39\",\"1\",\"Training\",\"Stims/Figures/144-J-10-3.bmp\",\"fa:fa:va\",\"Left\",\"39\",\"5\",\"13\",\"3A\",\"C1\",\"J\",\"77\"
\"\",\"\",\"approach-retreat\",\"81\",\"812758\",\"0.0-81.0\",\"\",\"\",\"3-4\",\"5449\",\"38\",\"1\",\"Training\",\"Stims/Figures/144-C-30-3.bmp\",\"zasa:ha\",\"Up\",\"38\",\"5\",\"14\",\"3A\",\"C2\",\"J\",\"78\"
\"\",\"\",\"approach-retreat\",\"82\",\"818807\",\"0.0-82.0\",\"\",\"\",\"3-4\",\"4544\",\"39\",\"1\",\"Training\",\"Stims/Figures/85-C-20-2.bmp\",\"zasa:ha\",\"Right\",\"39\",\"5\",\"15\",\"3A\",\"C2\",\"J\",\"79\"
\"\",\"\",\"approach-retreat\",\"83\",\"826171\",\"0.0-83.0\",\"\",\"\",\"3-4\",\"5854\",\"37\",\"1\",\"Training\",\"Stims/Figures/128-J-10-3.bmp\",\"fa:fa:va\",\"Right\",\"37\",\"5\",\"16\",\"3A\",\"C1\",\"J\",\"80\"
\"\",\"\",\"approach-retreat\",\"84\",\"832479\",\"0.0-84.0\",\"\",\"\",\"3-4\",\"4798\",\"40\",\"1\",\"Training\",\"Stims/Figures/19-J-10-4.bmp\",\"fa:fa:va\",\"Up\",\"40\",\"6\",\"1\",\"3A\",\"C1\",\"J\",\"81\"
\"\",\"\",\"approach-retreat\",\"85\",\"838910\",\"0.0-85.0\",\"\",\"\",\"3-4\",\"4925\",\"39\",\"1\",\"Training\",\"Stims/Figures/74-J-10-4.bmp\",\"fa:fa:va\",\"Left\",\"39\",\"6\",\"2\",\"3A\",\"C1\",\"J\",\"82\"
\"\",\"\",\"approach-retreat\",\"86\",\"845936\",\"0.0-86.0\",\"\",\"\",\"3-4\",\"5521\",\"40\",\"1\",\"Training\",\"Stims/Figures/86-C-30-1.bmp\",\"zasa:ha\",\"Down\",\"40\",\"6\",\"3\",\"3A\",\"C2\",\"J\",\"83\"
\"\",\"\",\"approach-retreat\",\"87\",\"852336\",\"0.0-87.0\",\"\",\"\",\"3-4\",\"4894\",\"37\",\"1\",\"Training\",\"Stims/Figures/118-C-20-2.bmp\",\"zasa:ha\",\"Left\",\"37\",\"6\",\"4\",\"3A\",\"C2\",\"J\",\"84\"
\"\",\"\",\"approach-retreat\",\"88\",\"858211\",\"0.0-88.0\",\"\",\"\",\"3-4\",\"4369\",\"39\",\"1\",\"Training\",\"Stims/Figures/27-C-30-1.bmp\",\"zasa:ha\",\"Right\",\"39\",\"6\",\"5\",\"3A\",\"C2\",\"J\",\"85\"
\"\",\"\",\"approach-retreat\",\"89\",\"864490\",\"0.0-89.0\",\"\",\"\",\"3-4\",\"4775\",\"39\",\"1\",\"Training\",\"Stims/Figures/144-C-30-3.bmp\",\"zasa:ha\",\"Right\",\"39\",\"6\",\"6\",\"3A\",\"C2\",\"J\",\"86\"
\"\",\"\",\"approach-retreat\",\"90\",\"870560\",\"0.0-90.0\",\"\",\"\",\"3-4\",\"4564\",\"37\",\"1\",\"Training\",\"Stims/Figures/85-C-20-2.bmp\",\"zasa:ha\",\"Left\",\"37\",\"6\",\"7\",\"3A\",\"C2\",\"J\",\"87\"
\"\",\"\",\"approach-retreat\",\"91\",\"878002\",\"0.0-91.0\",\"\",\"\",\"3-4\",\"5935\",\"40\",\"1\",\"Training\",\"Stims/Figures/19-C-20-4.bmp\",\"zasa:ha\",\"Down\",\"40\",\"6\",\"8\",\"3A\",\"C2\",\"J\",\"88\"
\"\",\"\",\"approach-retreat\",\"92\",\"885164\",\"0.0-92.0\",\"\",\"\",\"3-4\",\"5657\",\"38\",\"0\",\"Training\",\"Stims/Figures/86-J-0-1.bmp\",\"fa:fa:va\",\"Up\",\"40\",\"6\",\"9\",\"3A\",\"C1\",\"J\",\"89\"
\"\",\"\",\"approach-retreat\",\"93\",\"891491\",\"0.0-93.0\",\"\",\"\",\"3-4\",\"4820\",\"38\",\"1\",\"Training\",\"Stims/Figures/27-J-0-1.bmp\",\"fa:fa:va\",\"Down\",\"38\",\"6\",\"10\",\"3A\",\"C1\",\"J\",\"90\"
\"\",\"\",\"approach-retreat\",\"94\",\"898726\",\"0.0-94.0\",\"\",\"\",\"3-4\",\"5732\",\"39\",\"1\",\"Training\",\"Stims/Figures/128-C-30-3.bmp\",\"zasa:ha\",\"Right\",\"39\",\"6\",\"11\",\"3A\",\"C2\",\"J\",\"91\"
\"\",\"\",\"approach-retreat\",\"95\",\"905435\",\"0.0-95.0\",\"\",\"\",\"3-4\",\"5204\",\"40\",\"1\",\"Training\",\"Stims/Figures/85-J-0-2.bmp\",\"fa:fa:va\",\"Up\",\"40\",\"6\",\"12\",\"3A\",\"C1\",\"J\",\"92\"
\"\",\"\",\"approach-retreat\",\"96\",\"911543\",\"0.0-96.0\",\"\",\"\",\"3-4\",\"4602\",\"40\",\"1\",\"Training\",\"Stims/Figures/128-J-10-3.bmp\",\"fa:fa:va\",\"Up\",\"40\",\"6\",\"13\",\"3A\",\"C1\",\"J\",\"93\"
\"\",\"\",\"approach-retreat\",\"97\",\"917646\",\"0.0-97.0\",\"\",\"\",\"3-4\",\"4596\",\"38\",\"1\",\"Training\",\"Stims/Figures/118-J-0-2.bmp\",\"fa:fa:va\",\"Down\",\"38\",\"6\",\"14\",\"3A\",\"C1\",\"J\",\"94\"
\"\",\"\",\"approach-retreat\",\"98\",\"923710\",\"0.0-98.0\",\"\",\"\",\"3-4\",\"4560\",\"39\",\"1\",\"Training\",\"Stims/Figures/144-J-10-3.bmp\",\"fa:fa:va\",\"Left\",\"39\",\"6\",\"15\",\"3A\",\"C1\",\"J\",\"95\"
\"\",\"\",\"approach-retreat\",\"99\",\"931117\",\"0.0-99.0\",\"\",\"\",\"3-4\",\"5901\",\"39\",\"1\",\"Training\",\"Stims/Figures/74-C-20-4.bmp\",\"zasa:ha\",\"Right\",\"39\",\"6\",\"16\",\"3A\",\"C2\",\"J\",\"96\"
\"\",\"\",\"approach-retreat\",\"100\",\"938420\",\"0.0-100.0\",\"\",\"\",\"3-4\",\"5797\",\"40\",\"1\",\"Training\",\"Stims/Figures/19-C-20-4.bmp\",\"zasa:ha\",\"Down\",\"40\",\"7\",\"1\",\"3A\",\"C2\",\"J\",\"97\"
\"\",\"\",\"approach-retreat\",\"101\",\"945068\",\"0.0-101.0\",\"\",\"\",\"3-4\",\"5141\",\"40\",\"1\",\"Training\",\"Stims/Figures/144-J-10-3.bmp\",\"fa:fa:va\",\"Up\",\"40\",\"7\",\"2\",\"3A\",\"C1\",\"J\",\"98\"
\"\",\"\",\"approach-retreat\",\"102\",\"951166\",\"0.0-102.0\",\"\",\"\",\"3-4\",\"4589\",\"38\",\"1\",\"Training\",\"Stims/Figures/27-J-0-1.bmp\",\"fa:fa:va\",\"Down\",\"38\",\"7\",\"3\",\"3A\",\"C1\",\"J\",\"99\"
\"\",\"\",\"approach-retreat\",\"103\",\"958082\",\"0.0-103.0\",\"\",\"\",\"3-4\",\"5410\",\"37\",\"1\",\"Training\",\"Stims/Figures/74-J-10-4.bmp\",\"fa:fa:va\",\"Right\",\"37\",\"7\",\"4\",\"3A\",\"C1\",\"J\",\"100\"
\"\",\"\",\"approach-retreat\",\"104\",\"964506\",\"0.0-104.0\",\"\",\"\",\"3-4\",\"4919\",\"40\",\"1\",\"Training\",\"Stims/Figures/85-C-20-2.bmp\",\"zasa:ha\",\"Down\",\"40\",\"7\",\"5\",\"3A\",\"C2\",\"J\",\"101\"
\"\",\"\",\"approach-retreat\",\"105\",\"971198\",\"0.0-105.0\",\"\",\"\",\"3-4\",\"5186\",\"40\",\"1\",\"Training\",\"Stims/Figures/86-J-0-1.bmp\",\"fa:fa:va\",\"Up\",\"40\",\"7\",\"6\",\"3A\",\"C1\",\"J\",\"102\"
\"\",\"\",\"approach-retreat\",\"106\",\"977344\",\"0.0-106.0\",\"\",\"\",\"3-4\",\"4641\",\"38\",\"1\",\"Training\",\"Stims/Figures/118-C-20-2.bmp\",\"zasa:ha\",\"Up\",\"38\",\"7\",\"7\",\"3A\",\"C2\",\"J\",\"103\"
\"\",\"\",\"approach-retreat\",\"107\",\"983577\",\"0.0-107.0\",\"\",\"\",\"3-4\",\"4725\",\"39\",\"1\",\"Training\",\"Stims/Figures/128-J-10-3.bmp\",\"fa:fa:va\",\"Left\",\"39\",\"7\",\"8\",\"3A\",\"C1\",\"J\",\"104\"
\"\",\"\",\"approach-retreat\",\"108\",\"990564\",\"0.0-108.0\",\"\",\"\",\"3-4\",\"5482\",\"39\",\"1\",\"Training\",\"Stims/Figures/27-C-30-1.bmp\",\"zasa:ha\",\"Right\",\"39\",\"7\",\"9\",\"3A\",\"C2\",\"J\",\"105\"
\"\",\"\",\"approach-retreat\",\"109\",\"996846\",\"0.0-109.0\",\"\",\"\",\"3-4\",\"4775\",\"40\",\"1\",\"Training\",\"Stims/Figures/144-C-30-3.bmp\",\"zasa:ha\",\"Down\",\"40\",\"7\",\"10\",\"3A\",\"C2\",\"J\",\"106\"
\"\",\"\",\"approach-retreat\",\"110\",\"1003701\",\"0.0-110.0\",\"\",\"\",\"3-4\",\"5342\",\"39\",\"1\",\"Training\",\"Stims/Figures/74-C-20-4.bmp\",\"zasa:ha\",\"Right\",\"39\",\"7\",\"11\",\"3A\",\"C2\",\"J\",\"107\"
\"\",\"\",\"approach-retreat\",\"111\",\"1010275\",\"0.0-111.0\",\"\",\"\",\"3-4\",\"5069\",\"37\",\"1\",\"Training\",\"Stims/Figures/86-C-30-1.bmp\",\"zasa:ha\",\"Left\",\"37\",\"7\",\"12\",\"3A\",\"C2\",\"J\",\"108\"
\"\",\"\",\"approach-retreat\",\"112\",\"1017175\",\"0.0-112.0\",\"\",\"\",\"3-4\",\"5394\",\"39\",\"1\",\"Training\",\"Stims/Figures/85-J-0-2.bmp\",\"fa:fa:va\",\"Left\",\"39\",\"7\",\"13\",\"3A\",\"C1\",\"J\",\"109\"
\"\",\"\",\"approach-retreat\",\"113\",\"1023584\",\"0.0-113.0\",\"\",\"\",\"3-4\",\"4904\",\"37\",\"1\",\"Training\",\"Stims/Figures/118-J-0-2.bmp\",\"fa:fa:va\",\"Right\",\"37\",\"7\",\"14\",\"3A\",\"C1\",\"J\",\"110\"
\"\",\"\",\"approach-retreat\",\"114\",\"1030870\",\"0.0-114.0\",\"\",\"\",\"3-4\",\"5781\",\"39\",\"1\",\"Training\",\"Stims/Figures/19-J-10-4.bmp\",\"fa:fa:va\",\"Left\",\"39\",\"7\",\"15\",\"3A\",\"C1\",\"J\",\"111\"
\"\",\"\",\"approach-retreat\",\"115\",\"1037416\",\"0.0-115.0\",\"\",\"\",\"3-4\",\"5041\",\"38\",\"1\",\"Training\",\"Stims/Figures/128-C-30-3.bmp\",\"zasa:ha\",\"Up\",\"38\",\"7\",\"16\",\"3A\",\"C2\",\"J\",\"112\"
\"\",\"\",\"approach-retreat\",\"116\",\"1045098\",\"0.0-116.0\",\"\",\"\",\"3-4\",\"6175\",\"40\",\"1\",\"Training\",\"Stims/Figures/128-J-10-3.bmp\",\"fa:fa:va\",\"Up\",\"40\",\"8\",\"1\",\"3A\",\"C1\",\"J\",\"113\"
\"\",\"\",\"approach-retreat\",\"117\",\"1051941\",\"0.0-117.0\",\"\",\"\",\"3-4\",\"5339\",\"40\",\"1\",\"Training\",\"Stims/Figures/118-C-20-2.bmp\",\"zasa:ha\",\"Down\",\"40\",\"8\",\"2\",\"3A\",\"C2\",\"J\",\"114\"
\"\",\"\",\"approach-retreat\",\"118\",\"1062699\",\"0.0-118.0\",\"\",\"\",\"3-4\",\"9251\",\"38\",\"1\",\"Training\",\"Stims/Figures/27-C-30-1.bmp\",\"zasa:ha\",\"Up\",\"38\",\"8\",\"3\",\"3A\",\"C2\",\"J\",\"115\"
\"\",\"\",\"approach-retreat\",\"119\",\"1068744\",\"0.0-119.0\",\"\",\"\",\"3-4\",\"4536\",\"37\",\"1\",\"Training\",\"Stims/Figures/118-J-0-2.bmp\",\"fa:fa:va\",\"Right\",\"37\",\"8\",\"4\",\"3A\",\"C1\",\"J\",\"116\"
\"\",\"\",\"approach-retreat\",\"120\",\"1075905\",\"0.0-120.0\",\"\",\"\",\"3-4\",\"5656\",\"40\",\"1\",\"Training\",\"Stims/Figures/128-C-30-3.bmp\",\"zasa:ha\",\"Down\",\"40\",\"8\",\"5\",\"3A\",\"C2\",\"J\",\"117\"
\"\",\"\",\"approach-retreat\",\"121\",\"1082203\",\"0.0-121.0\",\"\",\"\",\"3-4\",\"4795\",\"37\",\"1\",\"Training\",\"Stims/Figures/86-J-0-1.bmp\",\"fa:fa:va\",\"Right\",\"37\",\"8\",\"6\",\"3A\",\"C1\",\"J\",\"118\"
\"\",\"\",\"approach-retreat\",\"122\",\"1088390\",\"0.0-122.0\",\"\",\"\",\"3-4\",\"4681\",\"37\",\"1\",\"Training\",\"Stims/Figures/19-C-20-4.bmp\",\"zasa:ha\",\"Left\",\"37\",\"8\",\"7\",\"3A\",\"C2\",\"J\",\"119\"
\"\",\"\",\"approach-retreat\",\"123\",\"1094597\",\"0.0-123.0\",\"\",\"\",\"3-4\",\"4702\",\"39\",\"1\",\"Training\",\"Stims/Figures/85-J-0-2.bmp\",\"fa:fa:va\",\"Left\",\"39\",\"8\",\"8\",\"3A\",\"C1\",\"J\",\"120\"
\"\",\"\",\"approach-retreat\",\"124\",\"1100836\",\"0.0-124.0\",\"\",\"\",\"3-4\",\"4736\",\"40\",\"1\",\"Training\",\"Stims/Figures/85-C-20-2.bmp\",\"zasa:ha\",\"Down\",\"40\",\"8\",\"9\",\"3A\",\"C2\",\"J\",\"121\"
\"\",\"\",\"approach-retreat\",\"125\",\"1106986\",\"0.0-125.0\",\"\",\"\",\"3-4\",\"4641\",\"39\",\"1\",\"Training\",\"Stims/Figures/74-C-20-4.bmp\",\"zasa:ha\",\"Right\",\"39\",\"8\",\"10\",\"3A\",\"C2\",\"J\",\"122\"
\"\",\"\",\"approach-retreat\",\"126\",\"1113027\",\"0.0-126.0\",\"\",\"\",\"3-4\",\"4537\",\"40\",\"1\",\"Training\",\"Stims/Figures/27-J-0-1.bmp\",\"fa:fa:va\",\"Up\",\"40\",\"8\",\"11\",\"3A\",\"C1\",\"J\",\"123\"
\"\",\"\",\"approach-retreat\",\"127\",\"1119167\",\"0.0-127.0\",\"\",\"\",\"3-4\",\"4635\",\"40\",\"1\",\"Training\",\"Stims/Figures/74-J-10-4.bmp\",\"fa:fa:va\",\"Up\",\"40\",\"8\",\"12\",\"3A\",\"C1\",\"J\",\"124\"
\"\",\"\",\"approach-retreat\",\"128\",\"1125646\",\"0.0-128.0\",\"\",\"\",\"3-4\",\"4973\",\"39\",\"1\",\"Training\",\"Stims/Figures/144-C-30-3.bmp\",\"zasa:ha\",\"Right\",\"39\",\"8\",\"13\",\"3A\",\"C2\",\"J\",\"125\"
\"\",\"\",\"approach-retreat\",\"129\",\"1131665\",\"0.0-129.0\",\"\",\"\",\"3-4\",\"4510\",\"39\",\"1\",\"Training\",\"Stims/Figures/19-J-10-4.bmp\",\"fa:fa:va\",\"Left\",\"39\",\"8\",\"14\",\"3A\",\"C1\",\"J\",\"126\"
\"\",\"\",\"approach-retreat\",\"130\",\"1138129\",\"0.0-130.0\",\"\",\"\",\"3-4\",\"4956\",\"38\",\"1\",\"Training\",\"Stims/Figures/144-J-10-3.bmp\",\"fa:fa:va\",\"Down\",\"38\",\"8\",\"15\",\"3A\",\"C1\",\"J\",\"127\"
\"\",\"\",\"approach-retreat\",\"131\",\"1144243\",\"0.0-131.0\",\"\",\"\",\"3-4\",\"4608\",\"37\",\"1\",\"Training\",\"Stims/Figures/86-C-30-1.bmp\",\"zasa:ha\",\"Left\",\"37\",\"8\",\"16\",\"3A\",\"C2\",\"J\",\"128\"
\"\",\"\",\"approach-retreat\",\"132\",\"1150754\",\"0.0-132.0\",\"\",\"\",\"3-4\",\"5004\",\"40\",\"1\",\"Training\",\"Stims/Figures/118-C-20-2.bmp\",\"zasa:ha\",\"Down\",\"40\",\"9\",\"1\",\"3A\",\"C2\",\"J\",\"129\"
\"\",\"\",\"approach-retreat\",\"133\",\"1157103\",\"0.0-133.0\",\"\",\"\",\"3-4\",\"4843\",\"38\",\"1\",\"Training\",\"Stims/Figures/19-J-10-4.bmp\",\"fa:fa:va\",\"Down\",\"38\",\"9\",\"2\",\"3A\",\"C1\",\"J\",\"130\"
\"\",\"\",\"approach-retreat\",\"134\",\"1164415\",\"0.0-134.0\",\"\",\"\",\"3-4\",\"5805\",\"39\",\"1\",\"Training\",\"Stims/Figures/144-C-30-3.bmp\",\"zasa:ha\",\"Right\",\"39\",\"9\",\"3\",\"3A\",\"C2\",\"J\",\"131\"
\"\",\"\",\"approach-retreat\",\"135\",\"1170982\",\"0.0-135.0\",\"\",\"\",\"3-4\",\"5063\",\"40\",\"1\",\"Training\",\"Stims/Figures/86-J-0-1.bmp\",\"fa:fa:va\",\"Up\",\"40\",\"9\",\"4\",\"3A\",\"C1\",\"J\",\"132\"
\"\",\"\",\"approach-retreat\",\"136\",\"1177387\",\"0.0-136.0\",\"\",\"\",\"3-4\",\"4900\",\"37\",\"1\",\"Training\",\"Stims/Figures/19-C-20-4.bmp\",\"zasa:ha\",\"Left\",\"37\",\"9\",\"5\",\"3A\",\"C2\",\"J\",\"133\"
\"\",\"\",\"approach-retreat\",\"137\",\"1183970\",\"0.0-137.0\",\"\",\"\",\"3-4\",\"5079\",\"37\",\"1\",\"Training\",\"Stims/Figures/27-C-30-1.bmp\",\"zasa:ha\",\"Left\",\"37\",\"9\",\"6\",\"3A\",\"C2\",\"J\",\"134\"
\"\",\"\",\"approach-retreat\",\"138\",\"1192915\",\"0.0-138.0\",\"\",\"\",\"3-4\",\"7438\",\"37\",\"1\",\"Training\",\"Stims/Figures/86-C-30-1.bmp\",\"zasa:ha\",\"Left\",\"37\",\"9\",\"7\",\"3A\",\"C2\",\"J\",\"135\"
\"\",\"\",\"approach-retreat\",\"139\",\"1199265\",\"0.0-139.0\",\"\",\"\",\"3-4\",\"4843\",\"38\",\"1\",\"Training\",\"Stims/Figures/74-J-10-4.bmp\",\"fa:fa:va\",\"Down\",\"38\",\"9\",\"8\",\"3A\",\"C1\",\"J\",\"136\"
\"\",\"\",\"approach-retreat\",\"140\",\"1206845\",\"0.0-140.0\",\"\",\"\",\"3-4\",\"6074\",\"38\",\"1\",\"Training\",\"Stims/Figures/128-C-30-3.bmp\",\"zasa:ha\",\"Up\",\"38\",\"9\",\"9\",\"3A\",\"C2\",\"J\",\"137\"
\"\",\"\",\"approach-retreat\",\"141\",\"1214178\",\"0.0-141.0\",\"\",\"\",\"3-4\",\"5827\",\"38\",\"1\",\"Training\",\"Stims/Figures/144-J-10-3.bmp\",\"fa:fa:va\",\"Down\",\"38\",\"9\",\"10\",\"3A\",\"C1\",\"J\",\"138\"
\"\",\"\",\"approach-retreat\",\"142\",\"1220365\",\"0.0-142.0\",\"\",\"\",\"3-4\",\"4681\",\"37\",\"1\",\"Training\",\"Stims/Figures/118-J-0-2.bmp\",\"fa:fa:va\",\"Right\",\"37\",\"9\",\"11\",\"3A\",\"C1\",\"J\",\"139\"
\"\",\"\",\"approach-retreat\",\"143\",\"1227398\",\"0.0-143.0\",\"\",\"\",\"3-4\",\"5527\",\"37\",\"1\",\"Training\",\"Stims/Figures/85-C-20-2.bmp\",\"zasa:ha\",\"Left\",\"37\",\"9\",\"12\",\"3A\",\"C2\",\"J\",\"140\"
\"\",\"\",\"approach-retreat\",\"144\",\"1233695\",\"0.0-144.0\",\"\",\"\",\"3-4\",\"4790\",\"39\",\"1\",\"Training\",\"Stims/Figures/74-C-20-4.bmp\",\"zasa:ha\",\"Right\",\"39\",\"9\",\"13\",\"3A\",\"C2\",\"J\",\"141\"
\"\",\"\",\"approach-retreat\",\"145\",\"1239826\",\"0.0-145.0\",\"\",\"\",\"3-4\",\"4625\",\"37\",\"1\",\"Training\",\"Stims/Figures/128-J-10-3.bmp\",\"fa:fa:va\",\"Right\",\"37\",\"9\",\"14\",\"3A\",\"C1\",\"J\",\"142\"
\"\",\"\",\"approach-retreat\",\"146\",\"1245892\",\"0.0-146.0\",\"\",\"\",\"3-4\",\"4560\",\"40\",\"1\",\"Training\",\"Stims/Figures/85-J-0-2.bmp\",\"fa:fa:va\",\"Up\",\"40\",\"9\",\"15\",\"3A\",\"C1\",\"J\",\"143\"
\"\",\"\",\"approach-retreat\",\"147\",\"1251942\",\"0.0-147.0\",\"\",\"\",\"3-4\",\"4545\",\"40\",\"1\",\"Training\",\"Stims/Figures/27-J-0-1.bmp\",\"fa:fa:va\",\"Up\",\"40\",\"9\",\"16\",\"3A\",\"C1\",\"J\",\"144\"
\"20129\",\"\",\"instructions\",\"148\",\"1272071\",\"0.0-148.0\",\"[{\"\"page_index\"\":0,\"\"viewing_time\"\":20129}]\",\"\",\"\",\"\",\"\",\"\",\"\",\"\",\"\",\"\",\"\",\"\",\"\",\"\",\"\",\"\",\"\"
\"\",\"\",\"approach-retreat\",\"149\",\"1286991\",\"0.0-149.0\",\"\",\"\",\"3-4\",\"13415\",\"40\",\"1\",\"Testing\",\"Stims/Figures/27-C-30-1.bmp\",\"zasa:ha\",\"Down\",\"40\",\"1\",\"1\",\"3A\",\"C2\",\"J\",\"1\"
\"\",\"\",\"approach-retreat\",\"150\",\"1293110\",\"0.0-150.0\",\"\",\"\",\"3-4\",\"4614\",\"40\",\"0\",\"Testing\",\"Stims/Figures/85-J-0-2.bmp\",\"fa:fa:va\",\"Down\",\"38\",\"1\",\"2\",\"3A\",\"C1\",\"J\",\"2\"
\"\",\"\",\"approach-retreat\",\"151\",\"1299922\",\"0.0-151.0\",\"\",\"\",\"3-4\",\"5307\",\"37\",\"1\",\"Testing\",\"Stims/Figures/87-C-20-4.bmp\",\"zasa:ha\",\"Left\",\"37\",\"1\",\"3\",\"3A\",\"C2\",\"J\",\"3\"
\"\",\"\",\"approach-retreat\",\"152\",\"1310765\",\"0.0-152.0\",\"\",\"\",\"3-4\",\"9338\",\"37\",\"1\",\"Testing\",\"Stims/Figures/19-J-10-4.bmp\",\"fa:fa:va\",\"Right\",\"37\",\"1\",\"4\",\"3A\",\"C1\",\"J\",\"4\"
\"\",\"\",\"approach-retreat\",\"153\",\"1333017\",\"0.0-153.0\",\"\",\"\",\"3-4\",\"20747\",\"40\",\"1\",\"Testing\",\"Stims/Figures/94-C-20-2.bmp\",\"zasa:ha\",\"Down\",\"40\",\"1\",\"5\",\"3A\",\"C2\",\"J\",\"5\"
\"\",\"\",\"approach-retreat\",\"154\",\"1340115\",\"0.0-154.0\",\"\",\"\",\"3-4\",\"5591\",\"39\",\"0\",\"Testing\",\"Stims/Figures/94-J-0-2.bmp\",\"fa:fa:va\",\"Right\",\"37\",\"1\",\"6\",\"3A\",\"C1\",\"J\",\"6\"
\"\",\"\",\"approach-retreat\",\"155\",\"1346690\",\"0.0-155.0\",\"\",\"\",\"3-4\",\"5070\",\"37\",\"1\",\"Testing\",\"Stims/Figures/74-C-20-4.bmp\",\"zasa:ha\",\"Left\",\"37\",\"1\",\"7\",\"3A\",\"C2\",\"J\",\"7\"
\"\",\"\",\"approach-retreat\",\"156\",\"1353827\",\"0.0-156.0\",\"\",\"\",\"3-4\",\"5633\",\"37\",\"0\",\"Testing\",\"Stims/Figures/144-J-10-3.bmp\",\"fa:fa:va\",\"Left\",\"39\",\"1\",\"8\",\"3A\",\"C1\",\"J\",\"8\"
\"\",\"\",\"approach-retreat\",\"157\",\"1360064\",\"0.0-157.0\",\"\",\"\",\"3-4\",\"4732\",\"37\",\"0\",\"Testing\",\"Stims/Figures/118-C-20-2.bmp\",\"zasa:ha\",\"Right\",\"39\",\"1\",\"9\",\"3A\",\"C2\",\"J\",\"9\"
\"\",\"\",\"approach-retreat\",\"158\",\"1367446\",\"0.0-158.0\",\"\",\"\",\"3-4\",\"5876\",\"39\",\"0\",\"Testing\",\"Stims/Figures/74-J-10-4.bmp\",\"fa:fa:va\",\"Right\",\"37\",\"1\",\"10\",\"3A\",\"C1\",\"J\",\"10\"
\"\",\"\",\"approach-retreat\",\"159\",\"1373741\",\"0.0-159.0\",\"\",\"\",\"3-4\",\"4788\",\"37\",\"1\",\"Testing\",\"Stims/Figures/144-C-30-3.bmp\",\"zasa:ha\",\"Left\",\"37\",\"1\",\"11\",\"3A\",\"C2\",\"J\",\"11\"
\"\",\"\",\"approach-retreat\",\"160\",\"1381558\",\"0.0-160.0\",\"\",\"\",\"3-4\",\"6314\",\"38\",\"0\",\"Testing\",\"Stims/Figures/86-J-0-1.bmp\",\"fa:fa:va\",\"Up\",\"40\",\"1\",\"12\",\"3A\",\"C1\",\"J\",\"12\"
\"\",\"\",\"approach-retreat\",\"161\",\"1389878\",\"0.0-161.0\",\"\",\"\",\"3-4\",\"6814\",\"40\",\"1\",\"Testing\",\"Stims/Figures/93-J-0-1.bmp\",\"fa:fa:va\",\"Up\",\"40\",\"1\",\"13\",\"3A\",\"C1\",\"J\",\"13\"
\"\",\"\",\"approach-retreat\",\"162\",\"1400109\",\"0.0-162.0\",\"\",\"\",\"3-4\",\"8727\",\"38\",\"0\",\"Testing\",\"Stims/Figures/128-C-30-3.bmp\",\"zasa:ha\",\"Down\",\"40\",\"1\",\"14\",\"3A\",\"C2\",\"J\",\"14\"
\"\",\"\",\"approach-retreat\",\"163\",\"1406257\",\"0.0-163.0\",\"\",\"\",\"3-4\",\"4642\",\"38\",\"1\",\"Testing\",\"Stims/Figures/85-C-20-2.bmp\",\"zasa:ha\",\"Up\",\"38\",\"1\",\"15\",\"3A\",\"C2\",\"J\",\"15\"
\"\",\"\",\"approach-retreat\",\"164\",\"1413399\",\"0.0-164.0\",\"\",\"\",\"3-4\",\"5638\",\"37\",\"0\",\"Testing\",\"Stims/Figures/19-C-20-4.bmp\",\"zasa:ha\",\"Right\",\"39\",\"1\",\"16\",\"3A\",\"C2\",\"J\",\"16\"
\"\",\"\",\"approach-retreat\",\"165\",\"1422139\",\"0.0-165.0\",\"\",\"\",\"3-4\",\"7234\",\"38\",\"0\",\"Testing\",\"Stims/Figures/128-J-10-3.bmp\",\"fa:fa:va\",\"Up\",\"40\",\"1\",\"17\",\"3A\",\"C1\",\"J\",\"17\"
\"\",\"\",\"approach-retreat\",\"166\",\"1433151\",\"0.0-166.0\",\"\",\"\",\"3-4\",\"9505\",\"37\",\"0\",\"Testing\",\"Stims/Figures/44-J-10-3.bmp\",\"fa:fa:va\",\"Left\",\"39\",\"1\",\"18\",\"3A\",\"C1\",\"J\",\"18\"
\"\",\"\",\"approach-retreat\",\"167\",\"1441062\",\"0.0-167.0\",\"\",\"\",\"3-4\",\"6405\",\"39\",\"1\",\"Testing\",\"Stims/Figures/118-J-0-2.bmp\",\"fa:fa:va\",\"Left\",\"39\",\"1\",\"19\",\"3A\",\"C1\",\"J\",\"19\"
\"\",\"\",\"approach-retreat\",\"168\",\"1449604\",\"0.0-168.0\",\"\",\"\",\"3-4\",\"7037\",\"40\",\"1\",\"Testing\",\"Stims/Figures/87-J-10-4.bmp\",\"fa:fa:va\",\"Up\",\"40\",\"1\",\"20\",\"3A\",\"C1\",\"J\",\"20\"
\"\",\"\",\"approach-retreat\",\"169\",\"1458939\",\"0.0-169.0\",\"\",\"\",\"3-4\",\"7830\",\"38\",\"0\",\"Testing\",\"Stims/Figures/93-C-30-1.bmp\",\"zasa:ha\",\"Down\",\"40\",\"1\",\"21\",\"3A\",\"C2\",\"J\",\"21\"
\"\",\"\",\"approach-retreat\",\"170\",\"1465023\",\"0.0-170.0\",\"\",\"\",\"3-4\",\"4579\",\"38\",\"0\",\"Testing\",\"Stims/Figures/44-C-30-3.bmp\",\"zasa:ha\",\"Down\",\"40\",\"1\",\"22\",\"3A\",\"C2\",\"J\",\"22\"
\"\",\"\",\"approach-retreat\",\"171\",\"1472644\",\"0.0-171.0\",\"\",\"\",\"3-4\",\"6117\",\"37\",\"0\",\"Testing\",\"Stims/Figures/86-C-30-1.bmp\",\"zasa:ha\",\"Right\",\"39\",\"1\",\"23\",\"3A\",\"C2\",\"J\",\"23\"
\"\",\"\",\"approach-retreat\",\"172\",\"1481664\",\"0.0-172.0\",\"\",\"\",\"3-4\",\"7515\",\"40\",\"1\",\"Testing\",\"Stims/Figures/27-J-0-1.bmp\",\"fa:fa:va\",\"Up\",\"40\",\"1\",\"24\",\"3A\",\"C1\",\"J\",\"24\"
\"\",\"\",\"approach-retreat\",\"173\",\"1488860\",\"0.0-173.0\",\"\",\"\",\"3-4\",\"5693\",\"37\",\"1\",\"Testing\",\"Stims/Figures/44-C-30-3.bmp\",\"zasa:ha\",\"Left\",\"37\",\"2\",\"1\",\"3A\",\"C2\",\"J\",\"25\"
\"\",\"\",\"approach-retreat\",\"174\",\"1500510\",\"0.0-174.0\",\"\",\"\",\"3-4\",\"10142\",\"39\",\"1\",\"Testing\",\"Stims/Figures/87-J-10-4.bmp\",\"fa:fa:va\",\"Left\",\"39\",\"2\",\"2\",\"3A\",\"C1\",\"J\",\"26\"
\"\",\"\",\"approach-retreat\",\"175\",\"1506790\",\"0.0-175.0\",\"\",\"\",\"3-4\",\"4775\",\"37\",\"0\",\"Testing\",\"Stims/Figures/87-C-20-4.bmp\",\"zasa:ha\",\"Right\",\"39\",\"2\",\"3\",\"3A\",\"C2\",\"J\",\"27\"
\"\",\"\",\"approach-retreat\",\"176\",\"1513359\",\"0.0-176.0\",\"\",\"\",\"3-4\",\"5064\",\"37\",\"0\",\"Testing\",\"Stims/Figures/93-C-30-1.bmp\",\"zasa:ha\",\"Right\",\"39\",\"2\",\"4\",\"3A\",\"C2\",\"J\",\"28\"
\"\",\"\",\"approach-retreat\",\"177\",\"1519623\",\"0.0-177.0\",\"\",\"\",\"3-4\",\"4759\",\"40\",\"1\",\"Testing\",\"Stims/Figures/85-C-20-2.bmp\",\"zasa:ha\",\"Down\",\"40\",\"2\",\"5\",\"3A\",\"C2\",\"J\",\"29\"
\"\",\"\",\"approach-retreat\",\"178\",\"1527646\",\"0.0-178.0\",\"\",\"\",\"3-4\",\"6518\",\"40\",\"1\",\"Testing\",\"Stims/Figures/19-J-10-4.bmp\",\"fa:fa:va\",\"Up\",\"40\",\"2\",\"6\",\"3A\",\"C1\",\"J\",\"30\"
\"\",\"\",\"approach-retreat\",\"179\",\"1534229\",\"0.0-179.0\",\"\",\"\",\"3-4\",\"5079\",\"38\",\"0\",\"Testing\",\"Stims/Figures/19-C-20-4.bmp\",\"zasa:ha\",\"Down\",\"40\",\"2\",\"7\",\"3A\",\"C2\",\"J\",\"31\"
\"\",\"\",\"approach-retreat\",\"180\",\"1540748\",\"0.0-180.0\",\"\",\"\",\"3-4\",\"5015\",\"39\",\"0\",\"Testing\",\"Stims/Figures/86-C-30-1.bmp\",\"zasa:ha\",\"Left\",\"37\",\"2\",\"8\",\"3A\",\"C2\",\"J\",\"32\"
\"\",\"\",\"approach-retreat\",\"181\",\"1551208\",\"0.0-181.0\",\"\",\"\",\"3-4\",\"8956\",\"38\",\"0\",\"Testing\",\"Stims/Figures/128-C-30-3.bmp\",\"zasa:ha\",\"Down\",\"40\",\"2\",\"9\",\"3A\",\"C2\",\"J\",\"33\"
\"\",\"\",\"approach-retreat\",\"182\",\"1557868\",\"0.0-182.0\",\"\",\"\",\"3-4\",\"5155\",\"39\",\"0\",\"Testing\",\"Stims/Figures/44-J-10-3.bmp\",\"fa:fa:va\",\"Right\",\"37\",\"2\",\"10\",\"3A\",\"C1\",\"J\",\"34\"
\"\",\"\",\"approach-retreat\",\"183\",\"1574095\",\"0.0-183.0\",\"\",\"\",\"3-4\",\"14721\",\"37\",\"0\",\"Testing\",\"Stims/Figures/118-C-20-2.bmp\",\"zasa:ha\",\"Right\",\"39\",\"2\",\"11\",\"3A\",\"C2\",\"J\",\"35\"
\"\",\"\",\"approach-retreat\",\"184\",\"1580912\",\"0.0-184.0\",\"\",\"\",\"3-4\",\"5313\",\"40\",\"1\",\"Testing\",\"Stims/Figures/74-J-10-4.bmp\",\"fa:fa:va\",\"Up\",\"40\",\"2\",\"12\",\"3A\",\"C1\",\"J\",\"36\"
\"\",\"\",\"approach-retreat\",\"185\",\"1592562\",\"0.0-185.0\",\"\",\"\",\"3-4\",\"10144\",\"40\",\"1\",\"Testing\",\"Stims/Figures/86-J-0-1.bmp\",\"fa:fa:va\",\"Up\",\"40\",\"2\",\"13\",\"3A\",\"C1\",\"J\",\"37\"
\"\",\"\",\"approach-retreat\",\"186\",\"1598736\",\"0.0-186.0\",\"\",\"\",\"3-4\",\"4669\",\"37\",\"1\",\"Testing\",\"Stims/Figures/27-C-30-1.bmp\",\"zasa:ha\",\"Left\",\"37\",\"2\",\"14\",\"3A\",\"C2\",\"J\",\"38\"
\"\",\"\",\"approach-retreat\",\"187\",\"1605008\",\"0.0-187.0\",\"\",\"\",\"3-4\",\"4768\",\"39\",\"1\",\"Testing\",\"Stims/Figures/85-J-0-2.bmp\",\"fa:fa:va\",\"Left\",\"39\",\"2\",\"15\",\"3A\",\"C1\",\"J\",\"39\"
\"\",\"\",\"approach-retreat\",\"188\",\"1611993\",\"0.0-188.0\",\"\",\"\",\"3-4\",\"5476\",\"38\",\"0\",\"Testing\",\"Stims/Figures/128-J-10-3.bmp\",\"fa:fa:va\",\"Up\",\"40\",\"2\",\"16\",\"3A\",\"C1\",\"J\",\"40\"
\"\",\"\",\"approach-retreat\",\"189\",\"1623394\",\"0.0-189.0\",\"\",\"\",\"3-4\",\"9897\",\"37\",\"1\",\"Testing\",\"Stims/Figures/27-J-0-1.bmp\",\"fa:fa:va\",\"Right\",\"37\",\"2\",\"17\",\"3A\",\"C1\",\"J\",\"41\"
\"\",\"\",\"approach-retreat\",\"190\",\"1629531\",\"0.0-190.0\",\"\",\"\",\"3-4\",\"4632\",\"38\",\"1\",\"Testing\",\"Stims/Figures/94-C-20-2.bmp\",\"zasa:ha\",\"Up\",\"38\",\"2\",\"18\",\"3A\",\"C2\",\"J\",\"42\"
\"\",\"\",\"approach-retreat\",\"191\",\"1636218\",\"0.0-191.0\",\"\",\"\",\"3-4\",\"5182\",\"40\",\"0\",\"Testing\",\"Stims/Figures/144-J-10-3.bmp\",\"fa:fa:va\",\"Down\",\"38\",\"2\",\"19\",\"3A\",\"C1\",\"J\",\"43\"
\"\",\"\",\"approach-retreat\",\"192\",\"1643211\",\"0.0-192.0\",\"\",\"\",\"3-4\",\"5488\",\"37\",\"0\",\"Testing\",\"Stims/Figures/94-J-0-2.bmp\",\"fa:fa:va\",\"Left\",\"39\",\"2\",\"20\",\"3A\",\"C1\",\"J\",\"44\"
\"\",\"\",\"approach-retreat\",\"193\",\"1649696\",\"0.0-193.0\",\"\",\"\",\"3-4\",\"4980\",\"40\",\"1\",\"Testing\",\"Stims/Figures/144-C-30-3.bmp\",\"zasa:ha\",\"Down\",\"40\",\"2\",\"21\",\"3A\",\"C2\",\"J\",\"45\"
\"\",\"\",\"approach-retreat\",\"194\",\"1655831\",\"0.0-194.0\",\"\",\"\",\"3-4\",\"4630\",\"37\",\"0\",\"Testing\",\"Stims/Figures/74-C-20-4.bmp\",\"zasa:ha\",\"Right\",\"39\",\"2\",\"22\",\"3A\",\"C2\",\"J\",\"46\"
\"\",\"\",\"approach-retreat\",\"195\",\"1673799\",\"0.0-195.0\",\"\",\"\",\"3-4\",\"16465\",\"38\",\"0\",\"Testing\",\"Stims/Figures/93-J-0-1.bmp\",\"fa:fa:va\",\"Up\",\"40\",\"2\",\"23\",\"3A\",\"C1\",\"J\",\"47\"
\"\",\"\",\"approach-retreat\",\"196\",\"1682812\",\"0.0-196.0\",\"\",\"\",\"3-4\",\"7508\",\"38\",\"1\",\"Testing\",\"Stims/Figures/118-J-0-2.bmp\",\"fa:fa:va\",\"Down\",\"38\",\"2\",\"24\",\"3A\",\"C1\",\"J\",\"48\"
\"\",\"\",\"approach-retreat\",\"197\",\"1690089\",\"0.0-197.0\",\"\",\"\",\"3-4\",\"5772\",\"40\",\"0\",\"Testing\",\"Stims/Figures/93-J-0-1.bmp\",\"fa:fa:va\",\"Down\",\"38\",\"3\",\"1\",\"3A\",\"C1\",\"J\",\"49\"
\"\",\"\",\"approach-retreat\",\"198\",\"1696269\",\"0.0-198.0\",\"\",\"\",\"3-4\",\"4676\",\"40\",\"1\",\"Testing\",\"Stims/Figures/93-C-30-1.bmp\",\"zasa:ha\",\"Down\",\"40\",\"3\",\"2\",\"3A\",\"C2\",\"J\",\"50\"
\"\",\"\",\"approach-retreat\",\"199\",\"1702797\",\"0.0-199.0\",\"\",\"\",\"3-4\",\"5024\",\"37\",\"1\",\"Testing\",\"Stims/Figures/27-J-0-1.bmp\",\"fa:fa:va\",\"Right\",\"37\",\"3\",\"3\",\"3A\",\"C1\",\"J\",\"51\"
\"\",\"\",\"approach-retreat\",\"200\",\"1708801\",\"0.0-200.0\",\"\",\"\",\"3-4\",\"4499\",\"40\",\"0\",\"Testing\",\"Stims/Figures/128-C-30-3.bmp\",\"zasa:ha\",\"Up\",\"38\",\"3\",\"4\",\"3A\",\"C2\",\"J\",\"52\"
\"\",\"\",\"approach-retreat\",\"201\",\"1714826\",\"0.0-201.0\",\"\",\"\",\"3-4\",\"4519\",\"37\",\"1\",\"Testing\",\"Stims/Figures/27-C-30-1.bmp\",\"zasa:ha\",\"Left\",\"37\",\"3\",\"5\",\"3A\",\"C2\",\"J\",\"53\"
\"\",\"\",\"approach-retreat\",\"202\",\"1723703\",\"0.0-202.0\",\"\",\"\",\"3-4\",\"7374\",\"39\",\"0\",\"Testing\",\"Stims/Figures/128-J-10-3.bmp\",\"fa:fa:va\",\"Right\",\"37\",\"3\",\"6\",\"3A\",\"C1\",\"J\",\"54\"
\"\",\"\",\"approach-retreat\",\"203\",\"1729703\",\"0.0-203.0\",\"\",\"\",\"3-4\",\"4496\",\"39\",\"1\",\"Testing\",\"Stims/Figures/87-C-20-4.bmp\",\"zasa:ha\",\"Right\",\"39\",\"3\",\"7\",\"3A\",\"C2\",\"J\",\"55\"
\"\",\"\",\"approach-retreat\",\"204\",\"1739022\",\"0.0-204.0\",\"\",\"\",\"3-4\",\"7814\",\"38\",\"0\",\"Testing\",\"Stims/Figures/19-C-20-4.bmp\",\"zasa:ha\",\"Down\",\"40\",\"3\",\"8\",\"3A\",\"C2\",\"J\",\"56\"
\"\",\"\",\"approach-retreat\",\"205\",\"1747417\",\"0.0-205.0\",\"\",\"\",\"3-4\",\"6892\",\"40\",\"0\",\"Testing\",\"Stims/Figures/94-J-0-2.bmp\",\"fa:fa:va\",\"Down\",\"38\",\"3\",\"9\",\"3A\",\"C1\",\"J\",\"57\"
\"\",\"\",\"approach-retreat\",\"206\",\"1754445\",\"0.0-206.0\",\"\",\"\",\"3-4\",\"5519\",\"39\",\"1\",\"Testing\",\"Stims/Figures/74-J-10-4.bmp\",\"fa:fa:va\",\"Left\",\"39\",\"3\",\"10\",\"3A\",\"C1\",\"J\",\"58\"
\"\",\"\",\"approach-retreat\",\"207\",\"1760456\",\"0.0-207.0\",\"\",\"\",\"3-4\",\"4500\",\"39\",\"0\",\"Testing\",\"Stims/Figures/44-J-10-3.bmp\",\"fa:fa:va\",\"Right\",\"37\",\"3\",\"11\",\"3A\",\"C1\",\"J\",\"59\"
\"\",\"\",\"approach-retreat\",\"208\",\"1768472\",\"0.0-208.0\",\"\",\"\",\"3-4\",\"6507\",\"38\",\"0\",\"Testing\",\"Stims/Figures/86-C-30-1.bmp\",\"zasa:ha\",\"Down\",\"40\",\"3\",\"12\",\"3A\",\"C2\",\"J\",\"60\"
\"\",\"\",\"approach-retreat\",\"209\",\"1775262\",\"0.0-209.0\",\"\",\"\",\"3-4\",\"5280\",\"38\",\"0\",\"Testing\",\"Stims/Figures/86-J-0-1.bmp\",\"fa:fa:va\",\"Up\",\"40\",\"3\",\"13\",\"3A\",\"C1\",\"J\",\"61\"
\"\",\"\",\"approach-retreat\",\"210\",\"1784090\",\"0.0-210.0\",\"\",\"\",\"3-4\",\"7320\",\"38\",\"1\",\"Testing\",\"Stims/Figures/74-C-20-4.bmp\",\"zasa:ha\",\"Up\",\"38\",\"3\",\"14\",\"3A\",\"C2\",\"J\",\"62\"
\"\",\"\",\"approach-retreat\",\"211\",\"1790225\",\"0.0-211.0\",\"\",\"\",\"3-4\",\"4625\",\"38\",\"0\",\"Testing\",\"Stims/Figures/85-J-0-2.bmp\",\"fa:fa:va\",\"Up\",\"40\",\"3\",\"15\",\"3A\",\"C1\",\"J\",\"63\"
\"\",\"\",\"approach-retreat\",\"212\",\"1796550\",\"0.0-212.0\",\"\",\"\",\"3-4\",\"4816\",\"40\",\"1\",\"Testing\",\"Stims/Figures/19-J-10-4.bmp\",\"fa:fa:va\",\"Up\",\"40\",\"3\",\"16\",\"3A\",\"C1\",\"J\",\"64\"
\"\",\"\",\"approach-retreat\",\"213\",\"1804956\",\"0.0-213.0\",\"\",\"\",\"3-4\",\"6899\",\"39\",\"1\",\"Testing\",\"Stims/Figures/144-J-10-3.bmp\",\"fa:fa:va\",\"Left\",\"39\",\"3\",\"17\",\"3A\",\"C1\",\"J\",\"65\"
\"\",\"\",\"approach-retreat\",\"214\",\"1813068\",\"0.0-214.0\",\"\",\"\",\"3-4\",\"6600\",\"37\",\"0\",\"Testing\",\"Stims/Figures/87-J-10-4.bmp\",\"fa:fa:va\",\"Left\",\"39\",\"3\",\"18\",\"3A\",\"C1\",\"J\",\"66\"
\"\",\"\",\"approach-retreat\",\"215\",\"1829481\",\"0.0-215.0\",\"\",\"\",\"3-4\",\"14903\",\"39\",\"0\",\"Testing\",\"Stims/Figures/118-C-20-2.bmp\",\"zasa:ha\",\"Left\",\"37\",\"3\",\"19\",\"3A\",\"C2\",\"J\",\"67\"
\"\",\"\",\"approach-retreat\",\"216\",\"1837075\",\"0.0-216.0\",\"\",\"\",\"3-4\",\"6086\",\"37\",\"1\",\"Testing\",\"Stims/Figures/144-C-30-3.bmp\",\"zasa:ha\",\"Left\",\"37\",\"3\",\"20\",\"3A\",\"C2\",\"J\",\"68\"
\"\",\"\",\"approach-retreat\",\"217\",\"1843132\",\"0.0-217.0\",\"\",\"\",\"3-4\",\"4548\",\"39\",\"1\",\"Testing\",\"Stims/Figures/94-C-20-2.bmp\",\"zasa:ha\",\"Right\",\"39\",\"3\",\"21\",\"3A\",\"C2\",\"J\",\"69\"
\"\",\"\",\"approach-retreat\",\"218\",\"1849816\",\"0.0-218.0\",\"\",\"\",\"3-4\",\"5178\",\"40\",\"1\",\"Testing\",\"Stims/Figures/118-J-0-2.bmp\",\"fa:fa:va\",\"Up\",\"40\",\"3\",\"22\",\"3A\",\"C1\",\"J\",\"70\"
\"\",\"\",\"approach-retreat\",\"219\",\"1856773\",\"0.0-219.0\",\"\",\"\",\"3-4\",\"5450\",\"39\",\"1\",\"Testing\",\"Stims/Figures/44-C-30-3.bmp\",\"zasa:ha\",\"Right\",\"39\",\"3\",\"23\",\"3A\",\"C2\",\"J\",\"71\"
\"\",\"\",\"approach-retreat\",\"220\",\"1862897\",\"0.0-220.0\",\"\",\"\",\"3-4\",\"4618\",\"40\",\"1\",\"Testing\",\"Stims/Figures/85-C-20-2.bmp\",\"zasa:ha\",\"Down\",\"40\",\"3\",\"24\",\"3A\",\"C2\",\"J\",\"72\"
\"\",\"\",\"approach-retreat\",\"221\",\"1871343\",\"0.0-221.0\",\"\",\"\",\"3-4\",\"6941\",\"37\",\"1\",\"Testing\",\"Stims/Figures/86-C-30-1.bmp\",\"zasa:ha\",\"Left\",\"37\",\"4\",\"1\",\"3A\",\"C2\",\"J\",\"73\"
\"\",\"\",\"approach-retreat\",\"222\",\"1877815\",\"0.0-222.0\",\"\",\"\",\"3-4\",\"4967\",\"37\",\"1\",\"Testing\",\"Stims/Figures/85-J-0-2.bmp\",\"fa:fa:va\",\"Right\",\"37\",\"4\",\"2\",\"3A\",\"C1\",\"J\",\"74\"
\"\",\"\",\"approach-retreat\",\"223\",\"1883819\",\"0.0-223.0\",\"\",\"\",\"3-4\",\"4501\",\"37\",\"1\",\"Testing\",\"Stims/Figures/118-C-20-2.bmp\",\"zasa:ha\",\"Left\",\"37\",\"4\",\"3\",\"3A\",\"C2\",\"J\",\"75\"
\"\",\"\",\"approach-retreat\",\"224\",\"1890633\",\"0.0-224.0\",\"\",\"\",\"3-4\",\"5307\",\"40\",\"1\",\"Testing\",\"Stims/Figures/128-J-10-3.bmp\",\"fa:fa:va\",\"Up\",\"40\",\"4\",\"4\",\"3A\",\"C1\",\"J\",\"76\"
\"\",\"\",\"approach-retreat\",\"225\",\"1896811\",\"0.0-225.0\",\"\",\"\",\"3-4\",\"4668\",\"40\",\"1\",\"Testing\",\"Stims/Figures/93-C-30-1.bmp\",\"zasa:ha\",\"Down\",\"40\",\"4\",\"5\",\"3A\",\"C2\",\"J\",\"77\"
\"\",\"\",\"approach-retreat\",\"226\",\"1913940\",\"0.0-226.0\",\"\",\"\",\"3-4\",\"15623\",\"38\",\"1\",\"Testing\",\"Stims/Figures/74-J-10-4.bmp\",\"fa:fa:va\",\"Down\",\"38\",\"4\",\"6\",\"3A\",\"C1\",\"J\",\"78\"
\"\",\"\",\"approach-retreat\",\"227\",\"1921864\",\"0.0-227.0\",\"\",\"\",\"3-4\",\"6413\",\"39\",\"0\",\"Testing\",\"Stims/Figures/144-C-30-3.bmp\",\"zasa:ha\",\"Left\",\"37\",\"4\",\"7\",\"3A\",\"C2\",\"J\",\"79\"
\"\",\"\",\"approach-retreat\",\"228\",\"1929909\",\"0.0-228.0\",\"\",\"\",\"3-4\",\"6537\",\"40\",\"0\",\"Testing\",\"Stims/Figures/74-C-20-4.bmp\",\"zasa:ha\",\"Up\",\"38\",\"4\",\"8\",\"3A\",\"C2\",\"J\",\"80\"
\"\",\"\",\"approach-retreat\",\"229\",\"1936143\",\"0.0-229.0\",\"\",\"\",\"3-4\",\"4727\",\"38\",\"0\",\"Testing\",\"Stims/Figures/128-C-30-3.bmp\",\"zasa:ha\",\"Down\",\"40\",\"4\",\"9\",\"3A\",\"C2\",\"J\",\"81\"
\"\",\"\",\"approach-retreat\",\"230\",\"1943038\",\"0.0-230.0\",\"\",\"\",\"3-4\",\"5388\",\"38\",\"1\",\"Testing\",\"Stims/Figures/94-C-20-2.bmp\",\"zasa:ha\",\"Up\",\"38\",\"4\",\"10\",\"3A\",\"C2\",\"J\",\"82\"
\"\",\"\",\"approach-retreat\",\"231\",\"1949132\",\"0.0-231.0\",\"\",\"\",\"3-4\",\"4590\",\"37\",\"1\",\"Testing\",\"Stims/Figures/44-C-30-3.bmp\",\"zasa:ha\",\"Left\",\"37\",\"4\",\"11\",\"3A\",\"C2\",\"J\",\"83\"
\"\",\"\",\"approach-retreat\",\"232\",\"1959522\",\"0.0-232.0\",\"\",\"\",\"3-4\",\"8884\",\"37\",\"1\",\"Testing\",\"Stims/Figures/144-J-10-3.bmp\",\"fa:fa:va\",\"Right\",\"37\",\"4\",\"12\",\"3A\",\"C1\",\"J\",\"84\"
\"\",\"\",\"approach-retreat\",\"233\",\"1965464\",\"0.0-233.0\",\"\",\"\",\"3-4\",\"4433\",\"40\",\"1\",\"Testing\",\"Stims/Figures/19-C-20-4.bmp\",\"zasa:ha\",\"Down\",\"40\",\"4\",\"13\",\"3A\",\"C2\",\"J\",\"85\"
\"\",\"\",\"approach-retreat\",\"234\",\"1982300\",\"0.0-234.0\",\"\",\"\",\"3-4\",\"15332\",\"39\",\"0\",\"Testing\",\"Stims/Figures/44-J-10-3.bmp\",\"fa:fa:va\",\"Right\",\"37\",\"4\",\"14\",\"3A\",\"C1\",\"J\",\"86\"
\"\",\"\",\"approach-retreat\",\"235\",\"1988883\",\"0.0-235.0\",\"\",\"\",\"3-4\",\"5074\",\"38\",\"1\",\"Testing\",\"Stims/Figures/27-J-0-1.bmp\",\"fa:fa:va\",\"Down\",\"38\",\"4\",\"15\",\"3A\",\"C1\",\"J\",\"87\"
\"\",\"\",\"approach-retreat\",\"236\",\"1995034\",\"0.0-236.0\",\"\",\"\",\"3-4\",\"4646\",\"40\",\"1\",\"Testing\",\"Stims/Figures/86-J-0-1.bmp\",\"fa:fa:va\",\"Up\",\"40\",\"4\",\"16\",\"3A\",\"C1\",\"J\",\"88\"
\"\",\"\",\"approach-retreat\",\"237\",\"2001389\",\"0.0-237.0\",\"\",\"\",\"3-4\",\"4848\",\"38\",\"1\",\"Testing\",\"Stims/Figures/27-C-30-1.bmp\",\"zasa:ha\",\"Up\",\"38\",\"4\",\"17\",\"3A\",\"C2\",\"J\",\"89\"
\"\",\"\",\"approach-retreat\",\"238\",\"2007462\",\"0.0-238.0\",\"\",\"\",\"3-4\",\"4565\",\"38\",\"1\",\"Testing\",\"Stims/Figures/118-J-0-2.bmp\",\"fa:fa:va\",\"Down\",\"38\",\"4\",\"18\",\"3A\",\"C1\",\"J\",\"90\"
\"\",\"\",\"approach-retreat\",\"239\",\"2013509\",\"0.0-239.0\",\"\",\"\",\"3-4\",\"4542\",\"38\",\"1\",\"Testing\",\"Stims/Figures/87-C-20-4.bmp\",\"zasa:ha\",\"Up\",\"38\",\"4\",\"19\",\"3A\",\"C2\",\"J\",\"91\"
\"\",\"\",\"approach-retreat\",\"240\",\"2019786\",\"0.0-240.0\",\"\",\"\",\"3-4\",\"4772\",\"39\",\"0\",\"Testing\",\"Stims/Figures/87-J-10-4.bmp\",\"fa:fa:va\",\"Right\",\"37\",\"4\",\"20\",\"3A\",\"C1\",\"J\",\"92\"
\"\",\"\",\"approach-retreat\",\"241\",\"2025834\",\"0.0-241.0\",\"\",\"\",\"3-4\",\"4545\",\"39\",\"1\",\"Testing\",\"Stims/Figures/93-J-0-1.bmp\",\"fa:fa:va\",\"Left\",\"39\",\"4\",\"21\",\"3A\",\"C1\",\"J\",\"93\"
\"\",\"\",\"approach-retreat\",\"242\",\"2032111\",\"0.0-242.0\",\"\",\"\",\"3-4\",\"4773\",\"37\",\"1\",\"Testing\",\"Stims/Figures/94-J-0-2.bmp\",\"fa:fa:va\",\"Right\",\"37\",\"4\",\"22\",\"3A\",\"C1\",\"J\",\"94\"
\"\",\"\",\"approach-retreat\",\"243\",\"2038595\",\"0.0-243.0\",\"\",\"\",\"3-4\",\"4979\",\"37\",\"1\",\"Testing\",\"Stims/Figures/85-C-20-2.bmp\",\"zasa:ha\",\"Left\",\"37\",\"4\",\"23\",\"3A\",\"C2\",\"J\",\"95\"
\"\",\"\",\"approach-retreat\",\"244\",\"2048709\",\"0.0-244.0\",\"\",\"\",\"3-4\",\"8609\",\"37\",\"1\",\"Testing\",\"Stims/Figures/19-J-10-4.bmp\",\"fa:fa:va\",\"Right\",\"37\",\"4\",\"24\",\"3A\",\"C1\",\"J\",\"96\"
\"143859\",\"\",\"survey-text\",\"245\",\"2192572\",\"0.0-245.0\",\"\",\"{\"\"Q0\"\":\"\"1417/17\"\"}\",\"\",\"\",\"\",\"\",\"\",\"\",\"\",\"\",\"\",\"\",\"\",\"\",\"\",\"\",\"\"
