\"rt\",\"key_press\",\"trial_type\",\"trial_index\",\"time_elapsed\",\"internal_node_id\",\"view_history\",\"responses\",\"Id\",\"Rt\",\"ResKeyCode\",\"ResCorr\",\"TrialType2\",\"Image\",\"Label\",\"Location\",\"CorrectResponse\",\"Block\",\"BlockTrial\",\"Condition\",\"LabelType\",\"Subcondition\",\"trialNum\"
\"121176\",\"32\",\"text\",\"0\",\"121188\",\"0.0-0.0-0.0\",\"\",\"\",\"\",\"\",\"\",\"\",\"\",\"\",\"\",\"\",\"\",\"\",\"\",\"\",\"\",\"\",\"\"
\"184232\",\"\",\"instructions\",\"1\",\"305433\",\"0.0-1.0\",\"[{\"\"page_index\"\":0,\"\"viewing_time\"\":184229}]\",\"\",\"\",\"\",\"\",\"\",\"\",\"\",\"\",\"\",\"\",\"\",\"\",\"\",\"\",\"\",\"\"
\"53667\",\"\",\"survey-multi-choice\",\"2\",\"359228\",\"0.0-2.0\",\"\",\"{\"\"Q0\"\":\"\"Da\"\",\"\"Q1\"\":\"\"Da\"\",\"\"Q2\"\":\"\"Da\"\",\"\"Q3\"\":\"\"Da\"\",\"\"Q4\"\":\"\"Da\"\",\"\"Q5\"\":\"\"Da\"\"}\",\"\",\"\",\"\",\"\",\"\",\"\",\"\",\"\",\"\",\"\",\"\",\"\",\"\",\"\",\"\"
\"\",\"\",\"bio\",\"3\",\"377199\",\"0.0-3.0\",\"\",\"{\"\"age\"\":\"\"20\"\",\"\"gender\"\":\"\"f\"\",\"\"specify\"\":\"\"\"\"}\",\"\",\"\",\"\",\"\",\"\",\"\",\"\",\"\",\"\",\"\",\"\",\"\",\"\",\"\",\"\"
\"\",\"\",\"approach-retreat\",\"4\",\"394730\",\"0.0-4.0\",\"\",\"\",\"2-4\",\"16006\",\"40\",\"0\",\"Training\",\"Stims/Figures/44-C-30-3.bmp\",\"saha:za\",\"Down\",\"38\",\"1\",\"1\",\"8\",\"C2\",\"C\",\"1\"
\"\",\"\",\"approach-retreat\",\"5\",\"403275\",\"0.0-5.0\",\"\",\"\",\"2-4\",\"7017\",\"40\",\"1\",\"Training\",\"Stims/Figures/93-C-30-1.bmp\",\"fa:sha:sha\",\"Up\",\"40\",\"1\",\"2\",\"8\",\"C1\",\"C\",\"2\"
\"\",\"\",\"approach-retreat\",\"6\",\"411952\",\"0.0-6.0\",\"\",\"\",\"2-4\",\"7132\",\"39\",\"0\",\"Training\",\"Stims/Figures/7-J-10-4.bmp\",\"sasa:ha\",\"Left\",\"37\",\"1\",\"3\",\"8\",\"C2\",\"C\",\"3\"
\"\",\"\",\"approach-retreat\",\"7\",\"419566\",\"0.0-7.0\",\"\",\"\",\"2-4\",\"6074\",\"38\",\"0\",\"Training\",\"Stims/Figures/93-J-0-1.bmp\",\"fafa:va\",\"Down\",\"40\",\"1\",\"4\",\"8\",\"C1\",\"C\",\"4\"
\"\",\"\",\"approach-retreat\",\"8\",\"429764\",\"0.0-8.0\",\"\",\"\",\"2-4\",\"8666\",\"37\",\"1\",\"Training\",\"Stims/Figures/102-C-20-4.bmp\",\"za:sa:za\",\"Right\",\"37\",\"1\",\"5\",\"8\",\"C2\",\"C\",\"5\"
\"\",\"\",\"approach-retreat\",\"9\",\"437232\",\"0.0-9.0\",\"\",\"\",\"2-4\",\"5936\",\"37\",\"1\",\"Training\",\"Stims/Figures/44-J-10-3.bmp\",\"sahaza\",\"Left\",\"37\",\"1\",\"6\",\"8\",\"C2\",\"C\",\"6\"
\"\",\"\",\"approach-retreat\",\"10\",\"444327\",\"0.0-10.0\",\"\",\"\",\"2-4\",\"5563\",\"40\",\"0\",\"Training\",\"Stims/Figures/102-J-10-4.bmp\",\"sa:haza\",\"Up\",\"38\",\"1\",\"7\",\"8\",\"C2\",\"C\",\"7\"
\"\",\"\",\"approach-retreat\",\"11\",\"451640\",\"0.0-11.0\",\"\",\"\",\"2-4\",\"5791\",\"37\",\"1\",\"Training\",\"Stims/Figures/85-J-0-2.bmp\",\"vafasha\",\"Left\",\"37\",\"1\",\"8\",\"8\",\"C1\",\"C\",\"8\"
\"\",\"\",\"approach-retreat\",\"12\",\"458609\",\"0.0-12.0\",\"\",\"\",\"2-4\",\"5448\",\"39\",\"1\",\"Training\",\"Stims/Figures/139-C-20-2.bmp\",\"va:sha:sha\",\"Left\",\"39\",\"1\",\"9\",\"8\",\"C1\",\"C\",\"9\"
\"\",\"\",\"approach-retreat\",\"13\",\"465201\",\"0.0-13.0\",\"\",\"\",\"2-4\",\"5054\",\"37\",\"1\",\"Training\",\"Stims/Figures/7-C-20-4.bmp\",\"sasa:za\",\"Right\",\"37\",\"1\",\"10\",\"8\",\"C2\",\"C\",\"10\"
\"\",\"\",\"approach-retreat\",\"14\",\"472497\",\"0.0-14.0\",\"\",\"\",\"2-4\",\"5765\",\"38\",\"1\",\"Training\",\"Stims/Figures/71-J-0-1.bmp\",\"fafava\",\"Up\",\"38\",\"1\",\"11\",\"8\",\"C1\",\"C\",\"11\"
\"\",\"\",\"approach-retreat\",\"15\",\"480908\",\"0.0-15.0\",\"\",\"\",\"2-4\",\"6881\",\"38\",\"0\",\"Training\",\"Stims/Figures/139-J-0-2.bmp\",\"va:shava\",\"Down\",\"40\",\"1\",\"12\",\"8\",\"C1\",\"C\",\"12\"
\"\",\"\",\"approach-retreat\",\"16\",\"488825\",\"0.0-16.0\",\"\",\"\",\"2-4\",\"6389\",\"40\",\"1\",\"Training\",\"Stims/Figures/144-J-10-3.bmp\",\"sa:saza\",\"Down\",\"40\",\"1\",\"13\",\"8\",\"C2\",\"C\",\"13\"
\"\",\"\",\"approach-retreat\",\"17\",\"494767\",\"0.0-17.0\",\"\",\"\",\"2-4\",\"4425\",\"37\",\"1\",\"Training\",\"Stims/Figures/144-C-30-3.bmp\",\"za:saza\",\"Right\",\"37\",\"1\",\"14\",\"8\",\"C2\",\"C\",\"14\"
\"\",\"\",\"approach-retreat\",\"18\",\"500918\",\"0.0-18.0\",\"\",\"\",\"2-4\",\"4621\",\"39\",\"0\",\"Training\",\"Stims/Figures/85-C-20-2.bmp\",\"vasha:va\",\"Right\",\"37\",\"1\",\"15\",\"8\",\"C1\",\"C\",\"15\"
\"\",\"\",\"approach-retreat\",\"19\",\"506877\",\"0.0-19.0\",\"\",\"\",\"2-4\",\"4429\",\"40\",\"1\",\"Training\",\"Stims/Figures/71-C-30-1.bmp\",\"vashasha\",\"Up\",\"40\",\"1\",\"16\",\"8\",\"C1\",\"C\",\"16\"
\"\",\"\",\"approach-retreat\",\"20\",\"515118\",\"0.0-20.0\",\"\",\"\",\"2-4\",\"6713\",\"37\",\"1\",\"Training\",\"Stims/Figures/144-C-30-3.bmp\",\"za:saza\",\"Right\",\"37\",\"2\",\"1\",\"8\",\"C2\",\"C\",\"17\"
\"\",\"\",\"approach-retreat\",\"21\",\"521544\",\"0.0-21.0\",\"\",\"\",\"2-4\",\"4901\",\"40\",\"1\",\"Training\",\"Stims/Figures/44-J-10-3.bmp\",\"sahaza\",\"Down\",\"40\",\"2\",\"2\",\"8\",\"C2\",\"C\",\"18\"
\"\",\"\",\"approach-retreat\",\"22\",\"529786\",\"0.0-22.0\",\"\",\"\",\"2-4\",\"6709\",\"40\",\"1\",\"Training\",\"Stims/Figures/85-J-0-2.bmp\",\"vafasha\",\"Down\",\"40\",\"2\",\"3\",\"8\",\"C1\",\"C\",\"19\"
\"\",\"\",\"approach-retreat\",\"23\",\"537266\",\"0.0-23.0\",\"\",\"\",\"2-4\",\"5945\",\"38\",\"0\",\"Training\",\"Stims/Figures/93-J-0-1.bmp\",\"fafa:va\",\"Down\",\"40\",\"2\",\"4\",\"8\",\"C1\",\"C\",\"20\"
\"\",\"\",\"approach-retreat\",\"24\",\"545550\",\"0.0-24.0\",\"\",\"\",\"2-4\",\"6756\",\"38\",\"1\",\"Training\",\"Stims/Figures/71-J-0-1.bmp\",\"fafava\",\"Up\",\"38\",\"2\",\"5\",\"8\",\"C1\",\"C\",\"21\"
\"\",\"\",\"approach-retreat\",\"25\",\"555531\",\"0.0-25.0\",\"\",\"\",\"2-4\",\"8436\",\"39\",\"1\",\"Training\",\"Stims/Figures/139-J-0-2.bmp\",\"va:shava\",\"Right\",\"39\",\"2\",\"6\",\"8\",\"C1\",\"C\",\"22\"
\"\",\"\",\"approach-retreat\",\"26\",\"561971\",\"0.0-26.0\",\"\",\"\",\"2-4\",\"4899\",\"37\",\"0\",\"Training\",\"Stims/Figures/71-C-30-1.bmp\",\"vashasha\",\"Left\",\"39\",\"2\",\"7\",\"8\",\"C1\",\"C\",\"23\"
\"\",\"\",\"approach-retreat\",\"27\",\"568585\",\"0.0-27.0\",\"\",\"\",\"2-4\",\"5090\",\"39\",\"0\",\"Training\",\"Stims/Figures/144-J-10-3.bmp\",\"sa:saza\",\"Left\",\"37\",\"2\",\"8\",\"8\",\"C2\",\"C\",\"24\"
\"\",\"\",\"approach-retreat\",\"28\",\"574741\",\"0.0-28.0\",\"\",\"\",\"2-4\",\"4626\",\"38\",\"0\",\"Training\",\"Stims/Figures/44-C-30-3.bmp\",\"saha:za\",\"Up\",\"40\",\"2\",\"9\",\"8\",\"C2\",\"C\",\"25\"
\"\",\"\",\"approach-retreat\",\"29\",\"580719\",\"0.0-29.0\",\"\",\"\",\"2-4\",\"4442\",\"39\",\"0\",\"Training\",\"Stims/Figures/102-C-20-4.bmp\",\"za:sa:za\",\"Right\",\"37\",\"2\",\"10\",\"8\",\"C2\",\"C\",\"26\"
\"\",\"\",\"approach-retreat\",\"30\",\"586699\",\"0.0-30.0\",\"\",\"\",\"2-4\",\"4447\",\"40\",\"1\",\"Training\",\"Stims/Figures/102-J-10-4.bmp\",\"sa:haza\",\"Down\",\"40\",\"2\",\"11\",\"8\",\"C2\",\"C\",\"27\"
\"\",\"\",\"approach-retreat\",\"31\",\"594863\",\"0.0-31.0\",\"\",\"\",\"2-4\",\"6651\",\"39\",\"1\",\"Training\",\"Stims/Figures/7-C-20-4.bmp\",\"sasa:za\",\"Left\",\"39\",\"2\",\"12\",\"8\",\"C2\",\"C\",\"28\"
\"\",\"\",\"approach-retreat\",\"32\",\"602015\",\"0.0-32.0\",\"\",\"\",\"2-4\",\"5621\",\"38\",\"0\",\"Training\",\"Stims/Figures/85-C-20-2.bmp\",\"vasha:va\",\"Up\",\"40\",\"2\",\"13\",\"8\",\"C1\",\"C\",\"29\"
\"\",\"\",\"approach-retreat\",\"33\",\"608014\",\"0.0-33.0\",\"\",\"\",\"2-4\",\"4470\",\"39\",\"0\",\"Training\",\"Stims/Figures/139-C-20-2.bmp\",\"va:sha:sha\",\"Right\",\"37\",\"2\",\"14\",\"8\",\"C1\",\"C\",\"30\"
\"\",\"\",\"approach-retreat\",\"34\",\"617283\",\"0.0-34.0\",\"\",\"\",\"2-4\",\"7744\",\"39\",\"1\",\"Training\",\"Stims/Figures/93-C-30-1.bmp\",\"fa:sha:sha\",\"Left\",\"39\",\"2\",\"15\",\"8\",\"C1\",\"C\",\"31\"
\"\",\"\",\"approach-retreat\",\"35\",\"623280\",\"0.0-35.0\",\"\",\"\",\"2-4\",\"4475\",\"38\",\"1\",\"Training\",\"Stims/Figures/7-J-10-4.bmp\",\"sasa:ha\",\"Up\",\"38\",\"2\",\"16\",\"8\",\"C2\",\"C\",\"32\"
\"\",\"\",\"approach-retreat\",\"36\",\"629160\",\"0.0-36.0\",\"\",\"\",\"2-4\",\"4350\",\"39\",\"1\",\"Training\",\"Stims/Figures/139-J-0-2.bmp\",\"va:shava\",\"Right\",\"39\",\"3\",\"1\",\"8\",\"C1\",\"C\",\"33\"
\"\",\"\",\"approach-retreat\",\"37\",\"635551\",\"0.0-37.0\",\"\",\"\",\"2-4\",\"4862\",\"40\",\"1\",\"Training\",\"Stims/Figures/102-J-10-4.bmp\",\"sa:haza\",\"Down\",\"40\",\"3\",\"2\",\"8\",\"C2\",\"C\",\"34\"
\"\",\"\",\"approach-retreat\",\"38\",\"641399\",\"0.0-38.0\",\"\",\"\",\"2-4\",\"4305\",\"40\",\"0\",\"Training\",\"Stims/Figures/71-C-30-1.bmp\",\"vashasha\",\"Down\",\"38\",\"3\",\"3\",\"8\",\"C1\",\"C\",\"35\"
\"\",\"\",\"approach-retreat\",\"39\",\"647356\",\"0.0-39.0\",\"\",\"\",\"2-4\",\"4424\",\"38\",\"0\",\"Training\",\"Stims/Figures/85-C-20-2.bmp\",\"vasha:va\",\"Up\",\"40\",\"3\",\"4\",\"8\",\"C1\",\"C\",\"36\"
\"\",\"\",\"approach-retreat\",\"40\",\"653408\",\"0.0-40.0\",\"\",\"\",\"2-4\",\"4527\",\"39\",\"1\",\"Training\",\"Stims/Figures/144-C-30-3.bmp\",\"za:saza\",\"Left\",\"39\",\"3\",\"5\",\"8\",\"C2\",\"C\",\"37\"
\"\",\"\",\"approach-retreat\",\"41\",\"659463\",\"0.0-41.0\",\"\",\"\",\"2-4\",\"4520\",\"38\",\"0\",\"Training\",\"Stims/Figures/93-C-30-1.bmp\",\"fa:sha:sha\",\"Up\",\"40\",\"3\",\"6\",\"8\",\"C1\",\"C\",\"38\"
\"\",\"\",\"approach-retreat\",\"42\",\"666485\",\"0.0-42.0\",\"\",\"\",\"2-4\",\"5503\",\"38\",\"1\",\"Training\",\"Stims/Figures/7-C-20-4.bmp\",\"sasa:za\",\"Down\",\"38\",\"3\",\"7\",\"8\",\"C2\",\"C\",\"39\"
\"\",\"\",\"approach-retreat\",\"43\",\"672625\",\"0.0-43.0\",\"\",\"\",\"2-4\",\"4619\",\"39\",\"1\",\"Training\",\"Stims/Figures/71-J-0-1.bmp\",\"fafava\",\"Right\",\"39\",\"3\",\"8\",\"8\",\"C1\",\"C\",\"40\"
\"\",\"\",\"approach-retreat\",\"44\",\"678762\",\"0.0-44.0\",\"\",\"\",\"2-4\",\"4606\",\"38\",\"0\",\"Training\",\"Stims/Figures/102-C-20-4.bmp\",\"za:sa:za\",\"Up\",\"40\",\"3\",\"9\",\"8\",\"C2\",\"C\",\"41\"
\"\",\"\",\"approach-retreat\",\"45\",\"684796\",\"0.0-45.0\",\"\",\"\",\"2-4\",\"4511\",\"39\",\"0\",\"Training\",\"Stims/Figures/144-J-10-3.bmp\",\"sa:saza\",\"Left\",\"37\",\"3\",\"10\",\"8\",\"C2\",\"C\",\"42\"
\"\",\"\",\"approach-retreat\",\"46\",\"692092\",\"0.0-46.0\",\"\",\"\",\"2-4\",\"5761\",\"37\",\"1\",\"Training\",\"Stims/Figures/85-J-0-2.bmp\",\"vafasha\",\"Left\",\"37\",\"3\",\"11\",\"8\",\"C1\",\"C\",\"43\"
\"\",\"\",\"approach-retreat\",\"47\",\"698028\",\"0.0-47.0\",\"\",\"\",\"2-4\",\"4415\",\"38\",\"1\",\"Training\",\"Stims/Figures/44-J-10-3.bmp\",\"sahaza\",\"Up\",\"38\",\"3\",\"12\",\"8\",\"C2\",\"C\",\"44\"
\"\",\"\",\"approach-retreat\",\"48\",\"704026\",\"0.0-48.0\",\"\",\"\",\"2-4\",\"4452\",\"39\",\"1\",\"Training\",\"Stims/Figures/93-J-0-1.bmp\",\"fafa:va\",\"Right\",\"39\",\"3\",\"13\",\"8\",\"C1\",\"C\",\"45\"
\"\",\"\",\"approach-retreat\",\"49\",\"710094\",\"0.0-49.0\",\"\",\"\",\"2-4\",\"4535\",\"38\",\"0\",\"Training\",\"Stims/Figures/7-J-10-4.bmp\",\"sasa:ha\",\"Down\",\"40\",\"3\",\"14\",\"8\",\"C2\",\"C\",\"46\"
\"\",\"\",\"approach-retreat\",\"50\",\"716274\",\"0.0-50.0\",\"\",\"\",\"2-4\",\"4656\",\"37\",\"1\",\"Training\",\"Stims/Figures/139-C-20-2.bmp\",\"va:sha:sha\",\"Right\",\"37\",\"3\",\"15\",\"8\",\"C1\",\"C\",\"47\"
\"\",\"\",\"approach-retreat\",\"51\",\"724421\",\"0.0-51.0\",\"\",\"\",\"2-4\",\"6617\",\"37\",\"0\",\"Training\",\"Stims/Figures/44-C-30-3.bmp\",\"saha:za\",\"Left\",\"39\",\"3\",\"16\",\"8\",\"C2\",\"C\",\"48\"
\"\",\"\",\"approach-retreat\",\"52\",\"731353\",\"0.0-52.0\",\"\",\"\",\"2-4\",\"5397\",\"37\",\"1\",\"Training\",\"Stims/Figures/71-J-0-1.bmp\",\"fafava\",\"Left\",\"37\",\"4\",\"1\",\"8\",\"C1\",\"C\",\"49\"
\"\",\"\",\"approach-retreat\",\"53\",\"737350\",\"0.0-53.0\",\"\",\"\",\"2-4\",\"4452\",\"38\",\"1\",\"Training\",\"Stims/Figures/85-J-0-2.bmp\",\"vafasha\",\"Up\",\"38\",\"4\",\"2\",\"8\",\"C1\",\"C\",\"50\"
\"\",\"\",\"approach-retreat\",\"54\",\"744015\",\"0.0-54.0\",\"\",\"\",\"2-4\",\"5131\",\"40\",\"0\",\"Training\",\"Stims/Figures/139-C-20-2.bmp\",\"va:sha:sha\",\"Down\",\"38\",\"4\",\"3\",\"8\",\"C1\",\"C\",\"51\"
\"\",\"\",\"approach-retreat\",\"55\",\"750063\",\"0.0-55.0\",\"\",\"\",\"2-4\",\"4520\",\"40\",\"1\",\"Training\",\"Stims/Figures/102-C-20-4.bmp\",\"za:sa:za\",\"Up\",\"40\",\"4\",\"4\",\"8\",\"C2\",\"C\",\"52\"
\"\",\"\",\"approach-retreat\",\"56\",\"756245\",\"0.0-56.0\",\"\",\"\",\"2-4\",\"4660\",\"39\",\"1\",\"Training\",\"Stims/Figures/144-J-10-3.bmp\",\"sa:saza\",\"Right\",\"39\",\"4\",\"5\",\"8\",\"C2\",\"C\",\"53\"
\"\",\"\",\"approach-retreat\",\"57\",\"762325\",\"0.0-57.0\",\"\",\"\",\"2-4\",\"4558\",\"38\",\"0\",\"Training\",\"Stims/Figures/44-C-30-3.bmp\",\"saha:za\",\"Up\",\"40\",\"4\",\"6\",\"8\",\"C2\",\"C\",\"54\"
\"\",\"\",\"approach-retreat\",\"58\",\"768784\",\"0.0-58.0\",\"\",\"\",\"2-4\",\"4939\",\"40\",\"1\",\"Training\",\"Stims/Figures/139-J-0-2.bmp\",\"va:shava\",\"Down\",\"40\",\"4\",\"7\",\"8\",\"C1\",\"C\",\"55\"
\"\",\"\",\"approach-retreat\",\"59\",\"774652\",\"0.0-59.0\",\"\",\"\",\"2-4\",\"4341\",\"37\",\"0\",\"Training\",\"Stims/Figures/7-J-10-4.bmp\",\"sasa:ha\",\"Right\",\"39\",\"4\",\"8\",\"8\",\"C2\",\"C\",\"56\"
\"\",\"\",\"approach-retreat\",\"60\",\"781084\",\"0.0-60.0\",\"\",\"\",\"2-4\",\"4894\",\"39\",\"0\",\"Training\",\"Stims/Figures/7-C-20-4.bmp\",\"sasa:za\",\"Right\",\"37\",\"4\",\"9\",\"8\",\"C2\",\"C\",\"57\"
\"\",\"\",\"approach-retreat\",\"61\",\"786942\",\"0.0-61.0\",\"\",\"\",\"2-4\",\"4340\",\"38\",\"0\",\"Training\",\"Stims/Figures/102-J-10-4.bmp\",\"sa:haza\",\"Down\",\"40\",\"4\",\"10\",\"8\",\"C2\",\"C\",\"58\"
\"\",\"\",\"approach-retreat\",\"62\",\"794443\",\"0.0-62.0\",\"\",\"\",\"2-4\",\"5980\",\"38\",\"1\",\"Training\",\"Stims/Figures/144-C-30-3.bmp\",\"za:saza\",\"Down\",\"38\",\"4\",\"11\",\"8\",\"C2\",\"C\",\"59\"
\"\",\"\",\"approach-retreat\",\"63\",\"800344\",\"0.0-63.0\",\"\",\"\",\"2-4\",\"4377\",\"39\",\"1\",\"Training\",\"Stims/Figures/93-C-30-1.bmp\",\"fa:sha:sha\",\"Left\",\"39\",\"4\",\"12\",\"8\",\"C1\",\"C\",\"60\"
\"\",\"\",\"approach-retreat\",\"64\",\"807202\",\"0.0-64.0\",\"\",\"\",\"2-4\",\"5344\",\"37\",\"0\",\"Training\",\"Stims/Figures/85-C-20-2.bmp\",\"vasha:va\",\"Left\",\"39\",\"4\",\"13\",\"8\",\"C1\",\"C\",\"61\"
\"\",\"\",\"approach-retreat\",\"65\",\"813746\",\"0.0-65.0\",\"\",\"\",\"2-4\",\"5021\",\"37\",\"1\",\"Training\",\"Stims/Figures/71-C-30-1.bmp\",\"vashasha\",\"Right\",\"37\",\"4\",\"14\",\"8\",\"C1\",\"C\",\"62\"
\"\",\"\",\"approach-retreat\",\"66\",\"821594\",\"0.0-66.0\",\"\",\"\",\"2-4\",\"6315\",\"37\",\"1\",\"Training\",\"Stims/Figures/93-J-0-1.bmp\",\"fafa:va\",\"Left\",\"37\",\"4\",\"15\",\"8\",\"C1\",\"C\",\"63\"
\"\",\"\",\"approach-retreat\",\"67\",\"828834\",\"0.0-67.0\",\"\",\"\",\"2-4\",\"5719\",\"38\",\"1\",\"Training\",\"Stims/Figures/44-J-10-3.bmp\",\"sahaza\",\"Up\",\"38\",\"4\",\"16\",\"8\",\"C2\",\"C\",\"64\"
\"\",\"\",\"approach-retreat\",\"68\",\"835597\",\"0.0-68.0\",\"\",\"\",\"2-4\",\"5235\",\"38\",\"1\",\"Training\",\"Stims/Figures/44-C-30-3.bmp\",\"saha:za\",\"Down\",\"38\",\"5\",\"1\",\"8\",\"C2\",\"C\",\"65\"
\"\",\"\",\"approach-retreat\",\"69\",\"842873\",\"0.0-69.0\",\"\",\"\",\"2-4\",\"5746\",\"40\",\"1\",\"Training\",\"Stims/Figures/7-J-10-4.bmp\",\"sasa:ha\",\"Down\",\"40\",\"5\",\"2\",\"8\",\"C2\",\"C\",\"66\"
\"\",\"\",\"approach-retreat\",\"70\",\"848746\",\"0.0-70.0\",\"\",\"\",\"2-4\",\"4349\",\"39\",\"1\",\"Training\",\"Stims/Figures/144-C-30-3.bmp\",\"za:saza\",\"Left\",\"39\",\"5\",\"3\",\"8\",\"C2\",\"C\",\"67\"
\"\",\"\",\"approach-retreat\",\"71\",\"854883\",\"0.0-71.0\",\"\",\"\",\"2-4\",\"4608\",\"37\",\"1\",\"Training\",\"Stims/Figures/7-C-20-4.bmp\",\"sasa:za\",\"Right\",\"37\",\"5\",\"4\",\"8\",\"C2\",\"C\",\"68\"
\"\",\"\",\"approach-retreat\",\"72\",\"860599\",\"0.0-72.0\",\"\",\"\",\"2-4\",\"4182\",\"37\",\"0\",\"Training\",\"Stims/Figures/102-J-10-4.bmp\",\"sa:haza\",\"Right\",\"39\",\"5\",\"5\",\"8\",\"C2\",\"C\",\"69\"
\"\",\"\",\"approach-retreat\",\"73\",\"866897\",\"0.0-73.0\",\"\",\"\",\"2-4\",\"4771\",\"39\",\"1\",\"Training\",\"Stims/Figures/93-C-30-1.bmp\",\"fa:sha:sha\",\"Left\",\"39\",\"5\",\"6\",\"8\",\"C1\",\"C\",\"70\"
\"\",\"\",\"approach-retreat\",\"74\",\"873091\",\"0.0-74.0\",\"\",\"\",\"2-4\",\"4663\",\"37\",\"1\",\"Training\",\"Stims/Figures/44-J-10-3.bmp\",\"sahaza\",\"Left\",\"37\",\"5\",\"7\",\"8\",\"C2\",\"C\",\"71\"
\"\",\"\",\"approach-retreat\",\"75\",\"879077\",\"0.0-75.0\",\"\",\"\",\"2-4\",\"4442\",\"38\",\"1\",\"Training\",\"Stims/Figures/85-J-0-2.bmp\",\"vafasha\",\"Up\",\"38\",\"5\",\"8\",\"8\",\"C1\",\"C\",\"72\"
\"\",\"\",\"approach-retreat\",\"76\",\"884959\",\"0.0-76.0\",\"\",\"\",\"2-4\",\"4353\",\"37\",\"1\",\"Training\",\"Stims/Figures/71-C-30-1.bmp\",\"vashasha\",\"Right\",\"37\",\"5\",\"9\",\"8\",\"C1\",\"C\",\"73\"
\"\",\"\",\"approach-retreat\",\"77\",\"891376\",\"0.0-77.0\",\"\",\"\",\"2-4\",\"4891\",\"39\",\"0\",\"Training\",\"Stims/Figures/139-C-20-2.bmp\",\"va:sha:sha\",\"Right\",\"37\",\"5\",\"10\",\"8\",\"C1\",\"C\",\"74\"
\"\",\"\",\"approach-retreat\",\"78\",\"899778\",\"0.0-78.0\",\"\",\"\",\"2-4\",\"6882\",\"40\",\"1\",\"Training\",\"Stims/Figures/85-C-20-2.bmp\",\"vasha:va\",\"Up\",\"40\",\"5\",\"11\",\"8\",\"C1\",\"C\",\"75\"
\"\",\"\",\"approach-retreat\",\"79\",\"907070\",\"0.0-79.0\",\"\",\"\",\"2-4\",\"5777\",\"40\",\"1\",\"Training\",\"Stims/Figures/71-J-0-1.bmp\",\"fafava\",\"Down\",\"40\",\"5\",\"12\",\"8\",\"C1\",\"C\",\"76\"
\"\",\"\",\"approach-retreat\",\"80\",\"913216\",\"0.0-80.0\",\"\",\"\",\"2-4\",\"4624\",\"40\",\"1\",\"Training\",\"Stims/Figures/139-J-0-2.bmp\",\"va:shava\",\"Down\",\"40\",\"5\",\"13\",\"8\",\"C1\",\"C\",\"77\"
\"\",\"\",\"approach-retreat\",\"81\",\"919451\",\"0.0-81.0\",\"\",\"\",\"2-4\",\"4715\",\"38\",\"1\",\"Training\",\"Stims/Figures/93-J-0-1.bmp\",\"fafa:va\",\"Up\",\"38\",\"5\",\"14\",\"8\",\"C1\",\"C\",\"78\"
\"\",\"\",\"approach-retreat\",\"82\",\"925441\",\"0.0-82.0\",\"\",\"\",\"2-4\",\"4449\",\"39\",\"1\",\"Training\",\"Stims/Figures/102-C-20-4.bmp\",\"za:sa:za\",\"Left\",\"39\",\"5\",\"15\",\"8\",\"C2\",\"C\",\"79\"
\"\",\"\",\"approach-retreat\",\"83\",\"931230\",\"0.0-83.0\",\"\",\"\",\"2-4\",\"4265\",\"38\",\"1\",\"Training\",\"Stims/Figures/144-J-10-3.bmp\",\"sa:saza\",\"Up\",\"38\",\"5\",\"16\",\"8\",\"C2\",\"C\",\"80\"
\"\",\"\",\"approach-retreat\",\"84\",\"938619\",\"0.0-84.0\",\"\",\"\",\"2-4\",\"5851\",\"37\",\"0\",\"Training\",\"Stims/Figures/102-J-10-4.bmp\",\"sa:haza\",\"Right\",\"39\",\"6\",\"1\",\"8\",\"C2\",\"C\",\"81\"
\"\",\"\",\"approach-retreat\",\"85\",\"944907\",\"0.0-85.0\",\"\",\"\",\"2-4\",\"4764\",\"39\",\"1\",\"Training\",\"Stims/Figures/93-J-0-1.bmp\",\"fafa:va\",\"Right\",\"39\",\"6\",\"2\",\"8\",\"C1\",\"C\",\"82\"
\"\",\"\",\"approach-retreat\",\"86\",\"951879\",\"0.0-86.0\",\"\",\"\",\"2-4\",\"5436\",\"40\",\"1\",\"Training\",\"Stims/Figures/85-J-0-2.bmp\",\"vafasha\",\"Down\",\"40\",\"6\",\"3\",\"8\",\"C1\",\"C\",\"83\"
\"\",\"\",\"approach-retreat\",\"87\",\"957707\",\"0.0-87.0\",\"\",\"\",\"2-4\",\"4293\",\"38\",\"1\",\"Training\",\"Stims/Figures/71-C-30-1.bmp\",\"vashasha\",\"Down\",\"38\",\"6\",\"4\",\"8\",\"C1\",\"C\",\"84\"
\"\",\"\",\"approach-retreat\",\"88\",\"964153\",\"0.0-88.0\",\"\",\"\",\"2-4\",\"4902\",\"40\",\"1\",\"Training\",\"Stims/Figures/93-C-30-1.bmp\",\"fa:sha:sha\",\"Up\",\"40\",\"6\",\"5\",\"8\",\"C1\",\"C\",\"85\"
\"\",\"\",\"approach-retreat\",\"89\",\"970019\",\"0.0-89.0\",\"\",\"\",\"2-4\",\"4344\",\"39\",\"0\",\"Training\",\"Stims/Figures/7-C-20-4.bmp\",\"sasa:za\",\"Right\",\"37\",\"6\",\"6\",\"8\",\"C2\",\"C\",\"86\"
\"\",\"\",\"approach-retreat\",\"90\",\"976107\",\"0.0-90.0\",\"\",\"\",\"2-4\",\"4552\",\"40\",\"1\",\"Training\",\"Stims/Figures/85-C-20-2.bmp\",\"vasha:va\",\"Up\",\"40\",\"6\",\"7\",\"8\",\"C1\",\"C\",\"87\"
\"\",\"\",\"approach-retreat\",\"91\",\"982606\",\"0.0-91.0\",\"\",\"\",\"2-4\",\"4970\",\"37\",\"1\",\"Training\",\"Stims/Figures/7-J-10-4.bmp\",\"sasa:ha\",\"Left\",\"37\",\"6\",\"8\",\"8\",\"C2\",\"C\",\"88\"
\"\",\"\",\"approach-retreat\",\"92\",\"989491\",\"0.0-92.0\",\"\",\"\",\"2-4\",\"5344\",\"37\",\"1\",\"Training\",\"Stims/Figures/144-C-30-3.bmp\",\"za:saza\",\"Right\",\"37\",\"6\",\"9\",\"8\",\"C2\",\"C\",\"89\"
\"\",\"\",\"approach-retreat\",\"93\",\"995538\",\"0.0-93.0\",\"\",\"\",\"2-4\",\"4516\",\"37\",\"0\",\"Training\",\"Stims/Figures/139-C-20-2.bmp\",\"va:sha:sha\",\"Left\",\"39\",\"6\",\"10\",\"8\",\"C1\",\"C\",\"90\"
\"\",\"\",\"approach-retreat\",\"94\",\"1001692\",\"0.0-94.0\",\"\",\"\",\"2-4\",\"4632\",\"37\",\"1\",\"Training\",\"Stims/Figures/144-J-10-3.bmp\",\"sa:saza\",\"Left\",\"37\",\"6\",\"11\",\"8\",\"C2\",\"C\",\"91\"
\"\",\"\",\"approach-retreat\",\"95\",\"1008352\",\"0.0-95.0\",\"\",\"\",\"2-4\",\"5136\",\"38\",\"1\",\"Training\",\"Stims/Figures/139-J-0-2.bmp\",\"va:shava\",\"Up\",\"38\",\"6\",\"12\",\"8\",\"C1\",\"C\",\"92\"
\"\",\"\",\"approach-retreat\",\"96\",\"1016402\",\"0.0-96.0\",\"\",\"\",\"2-4\",\"6525\",\"40\",\"1\",\"Training\",\"Stims/Figures/44-C-30-3.bmp\",\"saha:za\",\"Up\",\"40\",\"6\",\"13\",\"8\",\"C2\",\"C\",\"93\"
\"\",\"\",\"approach-retreat\",\"97\",\"1023383\",\"0.0-97.0\",\"\",\"\",\"2-4\",\"5450\",\"38\",\"1\",\"Training\",\"Stims/Figures/102-C-20-4.bmp\",\"za:sa:za\",\"Down\",\"38\",\"6\",\"14\",\"8\",\"C2\",\"C\",\"94\"
\"\",\"\",\"approach-retreat\",\"98\",\"1029382\",\"0.0-98.0\",\"\",\"\",\"2-4\",\"4470\",\"37\",\"1\",\"Training\",\"Stims/Figures/71-J-0-1.bmp\",\"fafava\",\"Left\",\"37\",\"6\",\"15\",\"8\",\"C1\",\"C\",\"95\"
\"\",\"\",\"approach-retreat\",\"99\",\"1036398\",\"0.0-99.0\",\"\",\"\",\"2-4\",\"5492\",\"40\",\"1\",\"Training\",\"Stims/Figures/44-J-10-3.bmp\",\"sahaza\",\"Down\",\"40\",\"6\",\"16\",\"8\",\"C2\",\"C\",\"96\"
\"\",\"\",\"approach-retreat\",\"100\",\"1042569\",\"0.0-100.0\",\"\",\"\",\"2-4\",\"4633\",\"40\",\"1\",\"Training\",\"Stims/Figures/85-C-20-2.bmp\",\"vasha:va\",\"Up\",\"40\",\"7\",\"1\",\"8\",\"C1\",\"C\",\"97\"
\"\",\"\",\"approach-retreat\",\"101\",\"1048698\",\"0.0-101.0\",\"\",\"\",\"2-4\",\"4610\",\"37\",\"1\",\"Training\",\"Stims/Figures/139-C-20-2.bmp\",\"va:sha:sha\",\"Right\",\"37\",\"7\",\"2\",\"8\",\"C1\",\"C\",\"98\"
\"\",\"\",\"approach-retreat\",\"102\",\"1054312\",\"0.0-102.0\",\"\",\"\",\"2-4\",\"4078\",\"37\",\"1\",\"Training\",\"Stims/Figures/7-C-20-4.bmp\",\"sasa:za\",\"Right\",\"37\",\"7\",\"3\",\"8\",\"C2\",\"C\",\"99\"
\"\",\"\",\"approach-retreat\",\"103\",\"1060958\",\"0.0-103.0\",\"\",\"\",\"2-4\",\"5112\",\"39\",\"1\",\"Training\",\"Stims/Figures/144-C-30-3.bmp\",\"za:saza\",\"Left\",\"39\",\"7\",\"4\",\"8\",\"C2\",\"C\",\"100\"
\"\",\"\",\"approach-retreat\",\"104\",\"1067651\",\"0.0-104.0\",\"\",\"\",\"2-4\",\"5154\",\"37\",\"1\",\"Training\",\"Stims/Figures/44-C-30-3.bmp\",\"saha:za\",\"Right\",\"37\",\"7\",\"5\",\"8\",\"C2\",\"C\",\"101\"
\"\",\"\",\"approach-retreat\",\"105\",\"1073605\",\"0.0-105.0\",\"\",\"\",\"2-4\",\"4423\",\"38\",\"1\",\"Training\",\"Stims/Figures/71-C-30-1.bmp\",\"vashasha\",\"Down\",\"38\",\"7\",\"6\",\"8\",\"C1\",\"C\",\"102\"
\"\",\"\",\"approach-retreat\",\"106\",\"1079608\",\"0.0-106.0\",\"\",\"\",\"2-4\",\"4482\",\"37\",\"1\",\"Training\",\"Stims/Figures/7-J-10-4.bmp\",\"sasa:ha\",\"Left\",\"37\",\"7\",\"7\",\"8\",\"C2\",\"C\",\"103\"
\"\",\"\",\"approach-retreat\",\"107\",\"1085673\",\"0.0-107.0\",\"\",\"\",\"2-4\",\"4528\",\"40\",\"1\",\"Training\",\"Stims/Figures/85-J-0-2.bmp\",\"vafasha\",\"Down\",\"40\",\"7\",\"8\",\"8\",\"C1\",\"C\",\"104\"
\"\",\"\",\"approach-retreat\",\"108\",\"1091725\",\"0.0-108.0\",\"\",\"\",\"2-4\",\"4528\",\"39\",\"1\",\"Training\",\"Stims/Figures/102-J-10-4.bmp\",\"sa:haza\",\"Right\",\"39\",\"7\",\"9\",\"8\",\"C2\",\"C\",\"105\"
\"\",\"\",\"approach-retreat\",\"109\",\"1097824\",\"0.0-109.0\",\"\",\"\",\"2-4\",\"4573\",\"38\",\"1\",\"Training\",\"Stims/Figures/139-J-0-2.bmp\",\"va:shava\",\"Up\",\"38\",\"7\",\"10\",\"8\",\"C1\",\"C\",\"106\"
\"\",\"\",\"approach-retreat\",\"110\",\"1104829\",\"0.0-110.0\",\"\",\"\",\"2-4\",\"5487\",\"38\",\"1\",\"Training\",\"Stims/Figures/102-C-20-4.bmp\",\"za:sa:za\",\"Down\",\"38\",\"7\",\"11\",\"8\",\"C2\",\"C\",\"107\"
\"\",\"\",\"approach-retreat\",\"111\",\"1111027\",\"0.0-111.0\",\"\",\"\",\"2-4\",\"4672\",\"40\",\"1\",\"Training\",\"Stims/Figures/93-C-30-1.bmp\",\"fa:sha:sha\",\"Up\",\"40\",\"7\",\"12\",\"8\",\"C1\",\"C\",\"108\"
\"\",\"\",\"approach-retreat\",\"112\",\"1116790\",\"0.0-112.0\",\"\",\"\",\"2-4\",\"4231\",\"37\",\"1\",\"Training\",\"Stims/Figures/144-J-10-3.bmp\",\"sa:saza\",\"Left\",\"37\",\"7\",\"13\",\"8\",\"C2\",\"C\",\"109\"
\"\",\"\",\"approach-retreat\",\"113\",\"1122920\",\"0.0-113.0\",\"\",\"\",\"2-4\",\"4606\",\"37\",\"1\",\"Training\",\"Stims/Figures/93-J-0-1.bmp\",\"fafa:va\",\"Left\",\"37\",\"7\",\"14\",\"8\",\"C1\",\"C\",\"110\"
\"\",\"\",\"approach-retreat\",\"114\",\"1129057\",\"0.0-114.0\",\"\",\"\",\"2-4\",\"4606\",\"38\",\"1\",\"Training\",\"Stims/Figures/71-J-0-1.bmp\",\"fafava\",\"Up\",\"38\",\"7\",\"15\",\"8\",\"C1\",\"C\",\"111\"
\"\",\"\",\"approach-retreat\",\"115\",\"1135189\",\"0.0-115.0\",\"\",\"\",\"2-4\",\"4601\",\"40\",\"1\",\"Training\",\"Stims/Figures/44-J-10-3.bmp\",\"sahaza\",\"Down\",\"40\",\"7\",\"16\",\"8\",\"C2\",\"C\",\"112\"
\"\",\"\",\"approach-retreat\",\"116\",\"1141092\",\"0.0-116.0\",\"\",\"\",\"2-4\",\"4380\",\"38\",\"1\",\"Training\",\"Stims/Figures/139-J-0-2.bmp\",\"va:shava\",\"Up\",\"38\",\"8\",\"1\",\"8\",\"C1\",\"C\",\"113\"
\"\",\"\",\"approach-retreat\",\"117\",\"1147807\",\"0.0-117.0\",\"\",\"\",\"2-4\",\"5182\",\"39\",\"1\",\"Training\",\"Stims/Figures/139-C-20-2.bmp\",\"va:sha:sha\",\"Left\",\"39\",\"8\",\"2\",\"8\",\"C1\",\"C\",\"114\"
\"\",\"\",\"approach-retreat\",\"118\",\"1153637\",\"0.0-118.0\",\"\",\"\",\"2-4\",\"4306\",\"37\",\"1\",\"Training\",\"Stims/Figures/7-J-10-4.bmp\",\"sasa:ha\",\"Left\",\"37\",\"8\",\"3\",\"8\",\"C2\",\"C\",\"115\"
\"\",\"\",\"approach-retreat\",\"119\",\"1160041\",\"0.0-119.0\",\"\",\"\",\"2-4\",\"4881\",\"40\",\"1\",\"Training\",\"Stims/Figures/71-J-0-1.bmp\",\"fafava\",\"Down\",\"40\",\"8\",\"4\",\"8\",\"C1\",\"C\",\"116\"
\"\",\"\",\"approach-retreat\",\"120\",\"1166256\",\"0.0-120.0\",\"\",\"\",\"2-4\",\"4679\",\"40\",\"1\",\"Training\",\"Stims/Figures/71-C-30-1.bmp\",\"vashasha\",\"Up\",\"40\",\"8\",\"5\",\"8\",\"C1\",\"C\",\"117\"
\"\",\"\",\"approach-retreat\",\"121\",\"1172668\",\"0.0-121.0\",\"\",\"\",\"2-4\",\"4883\",\"37\",\"1\",\"Training\",\"Stims/Figures/93-J-0-1.bmp\",\"fafa:va\",\"Left\",\"37\",\"8\",\"6\",\"8\",\"C1\",\"C\",\"118\"
\"\",\"\",\"approach-retreat\",\"122\",\"1179282\",\"0.0-122.0\",\"\",\"\",\"2-4\",\"5082\",\"39\",\"1\",\"Training\",\"Stims/Figures/44-J-10-3.bmp\",\"sahaza\",\"Right\",\"39\",\"8\",\"7\",\"8\",\"C2\",\"C\",\"119\"
\"\",\"\",\"approach-retreat\",\"123\",\"1186028\",\"0.0-123.0\",\"\",\"\",\"2-4\",\"5217\",\"37\",\"1\",\"Training\",\"Stims/Figures/102-C-20-4.bmp\",\"za:sa:za\",\"Right\",\"37\",\"8\",\"8\",\"8\",\"C2\",\"C\",\"120\"
\"\",\"\",\"approach-retreat\",\"124\",\"1192679\",\"0.0-124.0\",\"\",\"\",\"2-4\",\"5115\",\"40\",\"1\",\"Training\",\"Stims/Figures/144-C-30-3.bmp\",\"za:saza\",\"Up\",\"40\",\"8\",\"9\",\"8\",\"C2\",\"C\",\"121\"
\"\",\"\",\"approach-retreat\",\"125\",\"1200818\",\"0.0-125.0\",\"\",\"\",\"2-4\",\"6610\",\"38\",\"0\",\"Training\",\"Stims/Figures/102-J-10-4.bmp\",\"sa:haza\",\"Down\",\"40\",\"8\",\"10\",\"8\",\"C2\",\"C\",\"122\"
\"\",\"\",\"approach-retreat\",\"126\",\"1206802\",\"0.0-126.0\",\"\",\"\",\"2-4\",\"4454\",\"38\",\"1\",\"Training\",\"Stims/Figures/144-J-10-3.bmp\",\"sa:saza\",\"Up\",\"38\",\"8\",\"11\",\"8\",\"C2\",\"C\",\"123\"
\"\",\"\",\"approach-retreat\",\"127\",\"1213053\",\"0.0-127.0\",\"\",\"\",\"2-4\",\"4712\",\"39\",\"1\",\"Training\",\"Stims/Figures/44-C-30-3.bmp\",\"saha:za\",\"Left\",\"39\",\"8\",\"12\",\"8\",\"C2\",\"C\",\"124\"
\"\",\"\",\"approach-retreat\",\"128\",\"1219707\",\"0.0-128.0\",\"\",\"\",\"2-4\",\"5118\",\"37\",\"1\",\"Training\",\"Stims/Figures/7-C-20-4.bmp\",\"sasa:za\",\"Right\",\"37\",\"8\",\"13\",\"8\",\"C2\",\"C\",\"125\"
\"\",\"\",\"approach-retreat\",\"129\",\"1226163\",\"0.0-129.0\",\"\",\"\",\"2-4\",\"4924\",\"38\",\"1\",\"Training\",\"Stims/Figures/93-C-30-1.bmp\",\"fa:sha:sha\",\"Down\",\"38\",\"8\",\"14\",\"8\",\"C1\",\"C\",\"126\"
\"\",\"\",\"approach-retreat\",\"130\",\"1232847\",\"0.0-130.0\",\"\",\"\",\"2-4\",\"5151\",\"39\",\"1\",\"Training\",\"Stims/Figures/85-J-0-2.bmp\",\"vafasha\",\"Right\",\"39\",\"8\",\"15\",\"8\",\"C1\",\"C\",\"127\"
\"\",\"\",\"approach-retreat\",\"131\",\"1239585\",\"0.0-131.0\",\"\",\"\",\"2-4\",\"5216\",\"38\",\"1\",\"Training\",\"Stims/Figures/85-C-20-2.bmp\",\"vasha:va\",\"Down\",\"38\",\"8\",\"16\",\"8\",\"C1\",\"C\",\"128\"
\"\",\"\",\"approach-retreat\",\"132\",\"1246766\",\"0.0-132.0\",\"\",\"\",\"2-4\",\"5670\",\"38\",\"1\",\"Training\",\"Stims/Figures/85-J-0-2.bmp\",\"vafasha\",\"Up\",\"38\",\"9\",\"1\",\"8\",\"C1\",\"C\",\"129\"
\"\",\"\",\"approach-retreat\",\"133\",\"1252627\",\"0.0-133.0\",\"\",\"\",\"2-4\",\"4338\",\"39\",\"1\",\"Training\",\"Stims/Figures/102-C-20-4.bmp\",\"za:sa:za\",\"Left\",\"39\",\"9\",\"2\",\"8\",\"C2\",\"C\",\"130\"
\"\",\"\",\"approach-retreat\",\"134\",\"1259359\",\"0.0-134.0\",\"\",\"\",\"2-4\",\"5200\",\"40\",\"1\",\"Training\",\"Stims/Figures/85-C-20-2.bmp\",\"vasha:va\",\"Up\",\"40\",\"9\",\"3\",\"8\",\"C1\",\"C\",\"131\"
\"\",\"\",\"approach-retreat\",\"135\",\"1265632\",\"0.0-135.0\",\"\",\"\",\"2-4\",\"4757\",\"37\",\"1\",\"Training\",\"Stims/Figures/44-C-30-3.bmp\",\"saha:za\",\"Right\",\"37\",\"9\",\"4\",\"8\",\"C2\",\"C\",\"132\"
\"\",\"\",\"approach-retreat\",\"136\",\"1274128\",\"0.0-136.0\",\"\",\"\",\"2-4\",\"6974\",\"40\",\"1\",\"Training\",\"Stims/Figures/102-J-10-4.bmp\",\"sa:haza\",\"Down\",\"40\",\"9\",\"5\",\"8\",\"C2\",\"C\",\"133\"
\"\",\"\",\"approach-retreat\",\"137\",\"1280502\",\"0.0-137.0\",\"\",\"\",\"2-4\",\"4854\",\"38\",\"1\",\"Training\",\"Stims/Figures/139-C-20-2.bmp\",\"va:sha:sha\",\"Down\",\"38\",\"9\",\"6\",\"8\",\"C1\",\"C\",\"134\"
\"\",\"\",\"approach-retreat\",\"138\",\"1286685\",\"0.0-138.0\",\"\",\"\",\"2-4\",\"4654\",\"40\",\"1\",\"Training\",\"Stims/Figures/139-J-0-2.bmp\",\"va:shava\",\"Down\",\"40\",\"9\",\"7\",\"8\",\"C1\",\"C\",\"135\"
\"\",\"\",\"approach-retreat\",\"139\",\"1292538\",\"0.0-139.0\",\"\",\"\",\"2-4\",\"4323\",\"37\",\"1\",\"Training\",\"Stims/Figures/144-C-30-3.bmp\",\"za:saza\",\"Right\",\"37\",\"9\",\"8\",\"8\",\"C2\",\"C\",\"136\"
\"\",\"\",\"approach-retreat\",\"140\",\"1298460\",\"0.0-140.0\",\"\",\"\",\"2-4\",\"4407\",\"37\",\"1\",\"Training\",\"Stims/Figures/7-J-10-4.bmp\",\"sasa:ha\",\"Left\",\"37\",\"9\",\"9\",\"8\",\"C2\",\"C\",\"137\"
\"\",\"\",\"approach-retreat\",\"141\",\"1304415\",\"0.0-141.0\",\"\",\"\",\"2-4\",\"4418\",\"40\",\"1\",\"Training\",\"Stims/Figures/93-C-30-1.bmp\",\"fa:sha:sha\",\"Up\",\"40\",\"9\",\"10\",\"8\",\"C1\",\"C\",\"138\"
\"\",\"\",\"approach-retreat\",\"142\",\"1310801\",\"0.0-142.0\",\"\",\"\",\"2-4\",\"4860\",\"39\",\"1\",\"Training\",\"Stims/Figures/93-J-0-1.bmp\",\"fafa:va\",\"Right\",\"39\",\"9\",\"11\",\"8\",\"C1\",\"C\",\"139\"
\"\",\"\",\"approach-retreat\",\"143\",\"1316671\",\"0.0-143.0\",\"\",\"\",\"2-4\",\"4353\",\"38\",\"1\",\"Training\",\"Stims/Figures/71-J-0-1.bmp\",\"fafava\",\"Up\",\"38\",\"9\",\"12\",\"8\",\"C1\",\"C\",\"140\"
\"\",\"\",\"approach-retreat\",\"144\",\"1322396\",\"0.0-144.0\",\"\",\"\",\"2-4\",\"4209\",\"37\",\"1\",\"Training\",\"Stims/Figures/71-C-30-1.bmp\",\"vashasha\",\"Right\",\"37\",\"9\",\"13\",\"8\",\"C1\",\"C\",\"141\"
\"\",\"\",\"approach-retreat\",\"145\",\"1329006\",\"0.0-145.0\",\"\",\"\",\"2-4\",\"5066\",\"40\",\"1\",\"Training\",\"Stims/Figures/44-J-10-3.bmp\",\"sahaza\",\"Down\",\"40\",\"9\",\"14\",\"8\",\"C2\",\"C\",\"142\"
\"\",\"\",\"approach-retreat\",\"146\",\"1335204\",\"0.0-146.0\",\"\",\"\",\"2-4\",\"4668\",\"37\",\"1\",\"Training\",\"Stims/Figures/144-J-10-3.bmp\",\"sa:saza\",\"Left\",\"37\",\"9\",\"15\",\"8\",\"C2\",\"C\",\"143\"
\"\",\"\",\"approach-retreat\",\"147\",\"1341121\",\"0.0-147.0\",\"\",\"\",\"2-4\",\"4394\",\"39\",\"1\",\"Training\",\"Stims/Figures/7-C-20-4.bmp\",\"sasa:za\",\"Left\",\"39\",\"9\",\"16\",\"8\",\"C2\",\"C\",\"144\"
\"29188\",\"\",\"instructions\",\"148\",\"1370310\",\"0.0-148.0\",\"[{\"\"page_index\"\":0,\"\"viewing_time\"\":29186}]\",\"\",\"\",\"\",\"\",\"\",\"\",\"\",\"\",\"\",\"\",\"\",\"\",\"\",\"\",\"\",\"\"
\"\",\"\",\"approach-retreat\",\"149\",\"1377604\",\"0.0-149.0\",\"\",\"\",\"2-4\",\"5756\",\"40\",\"1\",\"Testing\",\"Stims/Figures/7-C-20-4.bmp\",\"sasa:za\",\"Up\",\"40\",\"1\",\"1\",\"8\",\"C2\",\"C\",\"1\"
\"\",\"\",\"approach-retreat\",\"150\",\"1383692\",\"0.0-150.0\",\"\",\"\",\"2-4\",\"4562\",\"39\",\"1\",\"Testing\",\"Stims/Figures/7-J-10-4.bmp\",\"sasa:ha\",\"Right\",\"39\",\"1\",\"2\",\"8\",\"C2\",\"C\",\"2\"
\"\",\"\",\"approach-retreat\",\"151\",\"1389564\",\"0.0-151.0\",\"\",\"\",\"2-4\",\"4351\",\"39\",\"1\",\"Testing\",\"Stims/Figures/71-C-30-1.bmp\",\"vashasha\",\"Left\",\"39\",\"1\",\"3\",\"8\",\"C1\",\"C\",\"3\"
\"\",\"\",\"approach-retreat\",\"152\",\"1395795\",\"0.0-152.0\",\"\",\"\",\"2-4\",\"4703\",\"40\",\"1\",\"Testing\",\"Stims/Figures/144-C-30-3.bmp\",\"za:saza\",\"Up\",\"40\",\"1\",\"4\",\"8\",\"C2\",\"C\",\"4\"
\"\",\"\",\"approach-retreat\",\"153\",\"1401787\",\"0.0-153.0\",\"\",\"\",\"2-4\",\"4464\",\"38\",\"1\",\"Testing\",\"Stims/Figures/102-J-10-4.bmp\",\"sa:haza\",\"Up\",\"38\",\"1\",\"5\",\"8\",\"C2\",\"C\",\"5\"
\"\",\"\",\"approach-retreat\",\"154\",\"1407889\",\"0.0-154.0\",\"\",\"\",\"2-4\",\"4581\",\"37\",\"1\",\"Testing\",\"Stims/Figures/44-C-30-3.bmp\",\"saha:za\",\"Right\",\"37\",\"1\",\"6\",\"8\",\"C2\",\"C\",\"6\"
\"\",\"\",\"approach-retreat\",\"155\",\"1413974\",\"0.0-155.0\",\"\",\"\",\"2-4\",\"4546\",\"37\",\"1\",\"Testing\",\"Stims/Figures/139-C-20-2.bmp\",\"va:sha:sha\",\"Right\",\"37\",\"1\",\"7\",\"8\",\"C1\",\"C\",\"7\"
\"\",\"\",\"approach-retreat\",\"156\",\"1420147\",\"0.0-156.0\",\"\",\"\",\"2-4\",\"4659\",\"40\",\"1\",\"Testing\",\"Stims/Figures/118-C-20-2.bmp\",\"fa:sha:va\",\"Up\",\"40\",\"1\",\"8\",\"8\",\"C1\",\"C\",\"8\"
\"\",\"\",\"approach-retreat\",\"157\",\"1426573\",\"0.0-157.0\",\"\",\"\",\"2-4\",\"4904\",\"40\",\"1\",\"Testing\",\"Stims/Figures/144-J-10-3.bmp\",\"sa:saza\",\"Down\",\"40\",\"1\",\"9\",\"8\",\"C2\",\"C\",\"9\"
\"\",\"\",\"approach-retreat\",\"158\",\"1432623\",\"0.0-158.0\",\"\",\"\",\"2-4\",\"4541\",\"40\",\"1\",\"Testing\",\"Stims/Figures/87-J-10-4.bmp\",\"sahaha\",\"Down\",\"40\",\"1\",\"10\",\"8\",\"C2\",\"C\",\"10\"
\"\",\"\",\"approach-retreat\",\"159\",\"1438590\",\"0.0-159.0\",\"\",\"\",\"2-4\",\"4449\",\"39\",\"1\",\"Testing\",\"Stims/Figures/111-C-30-3.bmp\",\"sa:haha\",\"Left\",\"39\",\"1\",\"11\",\"8\",\"C2\",\"C\",\"11\"
\"\",\"\",\"approach-retreat\",\"160\",\"1444557\",\"0.0-160.0\",\"\",\"\",\"2-4\",\"4446\",\"40\",\"1\",\"Testing\",\"Stims/Figures/44-J-10-3.bmp\",\"sahaza\",\"Down\",\"40\",\"1\",\"12\",\"8\",\"C2\",\"C\",\"12\"
\"\",\"\",\"approach-retreat\",\"161\",\"1450619\",\"0.0-161.0\",\"\",\"\",\"2-4\",\"4553\",\"37\",\"1\",\"Testing\",\"Stims/Figures/111-J-10-3.bmp\",\"sasaza\",\"Left\",\"37\",\"1\",\"13\",\"8\",\"C2\",\"C\",\"13\"
\"\",\"\",\"approach-retreat\",\"162\",\"1456738\",\"0.0-162.0\",\"\",\"\",\"2-4\",\"4598\",\"40\",\"1\",\"Testing\",\"Stims/Figures/118-J-0-2.bmp\",\"va:shasha\",\"Down\",\"40\",\"1\",\"14\",\"8\",\"C1\",\"C\",\"14\"
\"\",\"\",\"approach-retreat\",\"163\",\"1463308\",\"0.0-163.0\",\"\",\"\",\"2-4\",\"5060\",\"37\",\"1\",\"Testing\",\"Stims/Figures/85-J-0-2.bmp\",\"vafasha\",\"Left\",\"37\",\"1\",\"15\",\"8\",\"C1\",\"C\",\"15\"
\"\",\"\",\"approach-retreat\",\"164\",\"1469231\",\"0.0-164.0\",\"\",\"\",\"2-4\",\"4410\",\"37\",\"1\",\"Testing\",\"Stims/Figures/85-C-20-2.bmp\",\"vasha:va\",\"Right\",\"37\",\"1\",\"16\",\"8\",\"C1\",\"C\",\"16\"
\"\",\"\",\"approach-retreat\",\"165\",\"1475607\",\"0.0-165.0\",\"\",\"\",\"2-4\",\"4849\",\"37\",\"1\",\"Testing\",\"Stims/Figures/86-C-30-1.bmp\",\"fasha:va\",\"Right\",\"37\",\"1\",\"17\",\"8\",\"C1\",\"C\",\"17\"
\"\",\"\",\"approach-retreat\",\"166\",\"1481649\",\"0.0-166.0\",\"\",\"\",\"2-4\",\"4521\",\"40\",\"1\",\"Testing\",\"Stims/Figures/87-C-20-4.bmp\",\"za:sa:ha\",\"Up\",\"40\",\"1\",\"18\",\"8\",\"C2\",\"C\",\"18\"
\"\",\"\",\"approach-retreat\",\"167\",\"1488047\",\"0.0-167.0\",\"\",\"\",\"2-4\",\"4859\",\"40\",\"1\",\"Testing\",\"Stims/Figures/93-J-0-1.bmp\",\"fafa:va\",\"Down\",\"40\",\"1\",\"19\",\"8\",\"C1\",\"C\",\"19\"
\"\",\"\",\"approach-retreat\",\"168\",\"1494882\",\"0.0-168.0\",\"\",\"\",\"2-4\",\"5323\",\"39\",\"1\",\"Testing\",\"Stims/Figures/71-J-0-1.bmp\",\"fafava\",\"Right\",\"39\",\"1\",\"20\",\"8\",\"C1\",\"C\",\"20\"
\"\",\"\",\"approach-retreat\",\"169\",\"1500958\",\"0.0-169.0\",\"\",\"\",\"2-4\",\"4529\",\"37\",\"1\",\"Testing\",\"Stims/Figures/86-J-0-1.bmp\",\"va:fa:va\",\"Left\",\"37\",\"1\",\"21\",\"8\",\"C1\",\"C\",\"21\"
\"\",\"\",\"approach-retreat\",\"170\",\"1507054\",\"0.0-170.0\",\"\",\"\",\"2-4\",\"4573\",\"40\",\"1\",\"Testing\",\"Stims/Figures/93-C-30-1.bmp\",\"fa:sha:sha\",\"Up\",\"40\",\"1\",\"22\",\"8\",\"C1\",\"C\",\"22\"
\"\",\"\",\"approach-retreat\",\"171\",\"1513518\",\"0.0-171.0\",\"\",\"\",\"2-4\",\"4945\",\"37\",\"1\",\"Testing\",\"Stims/Figures/139-J-0-2.bmp\",\"va:shava\",\"Left\",\"37\",\"1\",\"23\",\"8\",\"C1\",\"C\",\"23\"
\"\",\"\",\"approach-retreat\",\"172\",\"1521253\",\"0.0-172.0\",\"\",\"\",\"2-4\",\"6211\",\"38\",\"1\",\"Testing\",\"Stims/Figures/102-C-20-4.bmp\",\"za:sa:za\",\"Down\",\"38\",\"1\",\"24\",\"8\",\"C2\",\"C\",\"24\"
\"\",\"\",\"approach-retreat\",\"173\",\"1527367\",\"0.0-173.0\",\"\",\"\",\"2-4\",\"4596\",\"37\",\"1\",\"Testing\",\"Stims/Figures/71-J-0-1.bmp\",\"fafava\",\"Left\",\"37\",\"2\",\"1\",\"8\",\"C1\",\"C\",\"25\"
\"\",\"\",\"approach-retreat\",\"174\",\"1533408\",\"0.0-174.0\",\"\",\"\",\"2-4\",\"4532\",\"38\",\"1\",\"Testing\",\"Stims/Figures/111-C-30-3.bmp\",\"sa:haha\",\"Down\",\"38\",\"2\",\"2\",\"8\",\"C2\",\"C\",\"26\"
\"\",\"\",\"approach-retreat\",\"175\",\"1541053\",\"0.0-175.0\",\"\",\"\",\"2-4\",\"6111\",\"37\",\"1\",\"Testing\",\"Stims/Figures/102-J-10-4.bmp\",\"sa:haza\",\"Left\",\"37\",\"2\",\"3\",\"8\",\"C2\",\"C\",\"27\"
\"\",\"\",\"approach-retreat\",\"176\",\"1547733\",\"0.0-176.0\",\"\",\"\",\"2-4\",\"5135\",\"38\",\"1\",\"Testing\",\"Stims/Figures/144-C-30-3.bmp\",\"za:saza\",\"Down\",\"38\",\"2\",\"4\",\"8\",\"C2\",\"C\",\"28\"
\"\",\"\",\"approach-retreat\",\"177\",\"1554616\",\"0.0-177.0\",\"\",\"\",\"2-4\",\"5344\",\"37\",\"1\",\"Testing\",\"Stims/Figures/87-C-20-4.bmp\",\"za:sa:ha\",\"Right\",\"37\",\"2\",\"5\",\"8\",\"C2\",\"C\",\"29\"
\"\",\"\",\"approach-retreat\",\"178\",\"1560850\",\"0.0-178.0\",\"\",\"\",\"2-4\",\"4696\",\"38\",\"1\",\"Testing\",\"Stims/Figures/44-J-10-3.bmp\",\"sahaza\",\"Up\",\"38\",\"2\",\"6\",\"8\",\"C2\",\"C\",\"30\"
\"\",\"\",\"approach-retreat\",\"179\",\"1567278\",\"0.0-179.0\",\"\",\"\",\"2-4\",\"4889\",\"38\",\"1\",\"Testing\",\"Stims/Figures/71-C-30-1.bmp\",\"vashasha\",\"Down\",\"38\",\"2\",\"7\",\"8\",\"C1\",\"C\",\"31\"
\"\",\"\",\"approach-retreat\",\"180\",\"1573873\",\"0.0-180.0\",\"\",\"\",\"2-4\",\"5058\",\"38\",\"1\",\"Testing\",\"Stims/Figures/86-J-0-1.bmp\",\"va:fa:va\",\"Up\",\"38\",\"2\",\"8\",\"8\",\"C1\",\"C\",\"32\"
\"\",\"\",\"approach-retreat\",\"181\",\"1580323\",\"0.0-181.0\",\"\",\"\",\"2-4\",\"4926\",\"37\",\"1\",\"Testing\",\"Stims/Figures/86-C-30-1.bmp\",\"fasha:va\",\"Right\",\"37\",\"2\",\"9\",\"8\",\"C1\",\"C\",\"33\"
\"\",\"\",\"approach-retreat\",\"182\",\"1586445\",\"0.0-182.0\",\"\",\"\",\"2-4\",\"4590\",\"40\",\"1\",\"Testing\",\"Stims/Figures/7-J-10-4.bmp\",\"sasa:ha\",\"Down\",\"40\",\"2\",\"10\",\"8\",\"C2\",\"C\",\"34\"
\"\",\"\",\"approach-retreat\",\"183\",\"1593828\",\"0.0-183.0\",\"\",\"\",\"2-4\",\"5857\",\"38\",\"1\",\"Testing\",\"Stims/Figures/139-J-0-2.bmp\",\"va:shava\",\"Up\",\"38\",\"2\",\"11\",\"8\",\"C1\",\"C\",\"35\"
\"\",\"\",\"approach-retreat\",\"184\",\"1599912\",\"0.0-184.0\",\"\",\"\",\"2-4\",\"4559\",\"37\",\"1\",\"Testing\",\"Stims/Figures/7-C-20-4.bmp\",\"sasa:za\",\"Right\",\"37\",\"2\",\"12\",\"8\",\"C2\",\"C\",\"36\"
\"\",\"\",\"approach-retreat\",\"185\",\"1605996\",\"0.0-185.0\",\"\",\"\",\"2-4\",\"4551\",\"40\",\"1\",\"Testing\",\"Stims/Figures/44-C-30-3.bmp\",\"saha:za\",\"Up\",\"40\",\"2\",\"13\",\"8\",\"C2\",\"C\",\"37\"
\"\",\"\",\"approach-retreat\",\"186\",\"1611986\",\"0.0-186.0\",\"\",\"\",\"2-4\",\"4462\",\"39\",\"1\",\"Testing\",\"Stims/Figures/93-J-0-1.bmp\",\"fafa:va\",\"Right\",\"39\",\"2\",\"14\",\"8\",\"C1\",\"C\",\"38\"
\"\",\"\",\"approach-retreat\",\"187\",\"1618591\",\"0.0-187.0\",\"\",\"\",\"2-4\",\"5078\",\"40\",\"1\",\"Testing\",\"Stims/Figures/118-C-20-2.bmp\",\"fa:sha:va\",\"Up\",\"40\",\"2\",\"15\",\"8\",\"C1\",\"C\",\"39\"
\"\",\"\",\"approach-retreat\",\"188\",\"1625087\",\"0.0-188.0\",\"\",\"\",\"2-4\",\"4958\",\"37\",\"1\",\"Testing\",\"Stims/Figures/85-J-0-2.bmp\",\"vafasha\",\"Left\",\"37\",\"2\",\"16\",\"8\",\"C1\",\"C\",\"40\"
\"\",\"\",\"approach-retreat\",\"189\",\"1631186\",\"0.0-189.0\",\"\",\"\",\"2-4\",\"4571\",\"39\",\"1\",\"Testing\",\"Stims/Figures/111-J-10-3.bmp\",\"sasaza\",\"Right\",\"39\",\"2\",\"17\",\"8\",\"C2\",\"C\",\"41\"
\"\",\"\",\"approach-retreat\",\"190\",\"1641132\",\"0.0-190.0\",\"\",\"\",\"2-4\",\"8410\",\"37\",\"1\",\"Testing\",\"Stims/Figures/87-J-10-4.bmp\",\"sahaha\",\"Left\",\"37\",\"2\",\"18\",\"8\",\"C2\",\"C\",\"42\"
\"\",\"\",\"approach-retreat\",\"191\",\"1647153\",\"0.0-191.0\",\"\",\"\",\"2-4\",\"4480\",\"38\",\"1\",\"Testing\",\"Stims/Figures/85-C-20-2.bmp\",\"vasha:va\",\"Down\",\"38\",\"2\",\"19\",\"8\",\"C1\",\"C\",\"43\"
\"\",\"\",\"approach-retreat\",\"192\",\"1653092\",\"0.0-192.0\",\"\",\"\",\"2-4\",\"4411\",\"37\",\"1\",\"Testing\",\"Stims/Figures/118-J-0-2.bmp\",\"va:shasha\",\"Left\",\"37\",\"2\",\"20\",\"8\",\"C1\",\"C\",\"44\"
\"\",\"\",\"approach-retreat\",\"193\",\"1660220\",\"0.0-193.0\",\"\",\"\",\"2-4\",\"5595\",\"38\",\"1\",\"Testing\",\"Stims/Figures/93-C-30-1.bmp\",\"fa:sha:sha\",\"Down\",\"38\",\"2\",\"21\",\"8\",\"C1\",\"C\",\"45\"
\"\",\"\",\"approach-retreat\",\"194\",\"1666322\",\"0.0-194.0\",\"\",\"\",\"2-4\",\"4576\",\"39\",\"1\",\"Testing\",\"Stims/Figures/139-C-20-2.bmp\",\"va:sha:sha\",\"Left\",\"39\",\"2\",\"22\",\"8\",\"C1\",\"C\",\"46\"
\"\",\"\",\"approach-retreat\",\"195\",\"1672596\",\"0.0-195.0\",\"\",\"\",\"2-4\",\"4743\",\"37\",\"1\",\"Testing\",\"Stims/Figures/102-C-20-4.bmp\",\"za:sa:za\",\"Right\",\"37\",\"2\",\"23\",\"8\",\"C2\",\"C\",\"47\"
\"\",\"\",\"approach-retreat\",\"196\",\"1678747\",\"0.0-196.0\",\"\",\"\",\"2-4\",\"4615\",\"38\",\"1\",\"Testing\",\"Stims/Figures/144-J-10-3.bmp\",\"sa:saza\",\"Up\",\"38\",\"2\",\"24\",\"8\",\"C2\",\"C\",\"48\"
\"\",\"\",\"approach-retreat\",\"197\",\"1684947\",\"0.0-197.0\",\"\",\"\",\"2-4\",\"4660\",\"40\",\"1\",\"Testing\",\"Stims/Figures/44-C-30-3.bmp\",\"saha:za\",\"Up\",\"40\",\"3\",\"1\",\"8\",\"C2\",\"C\",\"49\"
\"\",\"\",\"approach-retreat\",\"198\",\"1690955\",\"0.0-198.0\",\"\",\"\",\"2-4\",\"4472\",\"38\",\"1\",\"Testing\",\"Stims/Figures/85-J-0-2.bmp\",\"vafasha\",\"Up\",\"38\",\"3\",\"2\",\"8\",\"C1\",\"C\",\"50\"
\"\",\"\",\"approach-retreat\",\"199\",\"1696896\",\"0.0-199.0\",\"\",\"\",\"2-4\",\"4414\",\"40\",\"1\",\"Testing\",\"Stims/Figures/7-C-20-4.bmp\",\"sasa:za\",\"Up\",\"40\",\"3\",\"3\",\"8\",\"C2\",\"C\",\"51\"
\"\",\"\",\"approach-retreat\",\"200\",\"1703601\",\"0.0-200.0\",\"\",\"\",\"2-4\",\"5172\",\"38\",\"1\",\"Testing\",\"Stims/Figures/118-C-20-2.bmp\",\"fa:sha:va\",\"Down\",\"38\",\"3\",\"4\",\"8\",\"C1\",\"C\",\"52\"
\"\",\"\",\"approach-retreat\",\"201\",\"1709847\",\"0.0-201.0\",\"\",\"\",\"2-4\",\"4719\",\"37\",\"1\",\"Testing\",\"Stims/Figures/87-C-20-4.bmp\",\"za:sa:ha\",\"Right\",\"37\",\"3\",\"5\",\"8\",\"C2\",\"C\",\"53\"
\"\",\"\",\"approach-retreat\",\"202\",\"1715970\",\"0.0-202.0\",\"\",\"\",\"2-4\",\"4595\",\"40\",\"1\",\"Testing\",\"Stims/Figures/86-J-0-1.bmp\",\"va:fa:va\",\"Down\",\"40\",\"3\",\"6\",\"8\",\"C1\",\"C\",\"54\"
\"\",\"\",\"approach-retreat\",\"203\",\"1723388\",\"0.0-203.0\",\"\",\"\",\"2-4\",\"5893\",\"38\",\"1\",\"Testing\",\"Stims/Figures/139-J-0-2.bmp\",\"va:shava\",\"Up\",\"38\",\"3\",\"7\",\"8\",\"C1\",\"C\",\"55\"
\"\",\"\",\"approach-retreat\",\"204\",\"1729276\",\"0.0-204.0\",\"\",\"\",\"2-4\",\"4351\",\"37\",\"1\",\"Testing\",\"Stims/Figures/85-C-20-2.bmp\",\"vasha:va\",\"Right\",\"37\",\"3\",\"8\",\"8\",\"C1\",\"C\",\"56\"
\"\",\"\",\"approach-retreat\",\"205\",\"1735280\",\"0.0-205.0\",\"\",\"\",\"2-4\",\"4458\",\"37\",\"1\",\"Testing\",\"Stims/Figures/139-C-20-2.bmp\",\"va:sha:sha\",\"Right\",\"37\",\"3\",\"9\",\"8\",\"C1\",\"C\",\"57\"
\"\",\"\",\"approach-retreat\",\"206\",\"1741381\",\"0.0-206.0\",\"\",\"\",\"2-4\",\"4573\",\"39\",\"1\",\"Testing\",\"Stims/Figures/144-C-30-3.bmp\",\"za:saza\",\"Left\",\"39\",\"3\",\"10\",\"8\",\"C2\",\"C\",\"58\"
\"\",\"\",\"approach-retreat\",\"207\",\"1747596\",\"0.0-207.0\",\"\",\"\",\"2-4\",\"4677\",\"37\",\"1\",\"Testing\",\"Stims/Figures/93-J-0-1.bmp\",\"fafa:va\",\"Left\",\"37\",\"3\",\"11\",\"8\",\"C1\",\"C\",\"59\"
\"\",\"\",\"approach-retreat\",\"208\",\"1753923\",\"0.0-208.0\",\"\",\"\",\"2-4\",\"4793\",\"37\",\"1\",\"Testing\",\"Stims/Figures/111-J-10-3.bmp\",\"sasaza\",\"Left\",\"37\",\"3\",\"12\",\"8\",\"C2\",\"C\",\"60\"
\"\",\"\",\"approach-retreat\",\"209\",\"1760109\",\"0.0-209.0\",\"\",\"\",\"2-4\",\"4645\",\"39\",\"1\",\"Testing\",\"Stims/Figures/144-J-10-3.bmp\",\"sa:saza\",\"Right\",\"39\",\"3\",\"13\",\"8\",\"C2\",\"C\",\"61\"
\"\",\"\",\"approach-retreat\",\"210\",\"1766683\",\"0.0-210.0\",\"\",\"\",\"2-4\",\"5047\",\"39\",\"1\",\"Testing\",\"Stims/Figures/71-C-30-1.bmp\",\"vashasha\",\"Left\",\"39\",\"3\",\"14\",\"8\",\"C1\",\"C\",\"62\"
\"\",\"\",\"approach-retreat\",\"211\",\"1772697\",\"0.0-211.0\",\"\",\"\",\"2-4\",\"4474\",\"38\",\"1\",\"Testing\",\"Stims/Figures/102-C-20-4.bmp\",\"za:sa:za\",\"Down\",\"38\",\"3\",\"15\",\"8\",\"C2\",\"C\",\"63\"
\"\",\"\",\"approach-retreat\",\"212\",\"1778717\",\"0.0-212.0\",\"\",\"\",\"2-4\",\"4478\",\"40\",\"1\",\"Testing\",\"Stims/Figures/7-J-10-4.bmp\",\"sasa:ha\",\"Down\",\"40\",\"3\",\"16\",\"8\",\"C2\",\"C\",\"64\"
\"\",\"\",\"approach-retreat\",\"213\",\"1784935\",\"0.0-213.0\",\"\",\"\",\"2-4\",\"4688\",\"38\",\"1\",\"Testing\",\"Stims/Figures/102-J-10-4.bmp\",\"sa:haza\",\"Up\",\"38\",\"3\",\"17\",\"8\",\"C2\",\"C\",\"65\"
\"\",\"\",\"approach-retreat\",\"214\",\"1791265\",\"0.0-214.0\",\"\",\"\",\"2-4\",\"4797\",\"37\",\"1\",\"Testing\",\"Stims/Figures/86-C-30-1.bmp\",\"fasha:va\",\"Right\",\"37\",\"3\",\"18\",\"8\",\"C1\",\"C\",\"66\"
\"\",\"\",\"approach-retreat\",\"215\",\"1797258\",\"0.0-215.0\",\"\",\"\",\"2-4\",\"4466\",\"40\",\"1\",\"Testing\",\"Stims/Figures/44-J-10-3.bmp\",\"sahaza\",\"Down\",\"40\",\"3\",\"19\",\"8\",\"C2\",\"C\",\"67\"
\"\",\"\",\"approach-retreat\",\"216\",\"1803208\",\"0.0-216.0\",\"\",\"\",\"2-4\",\"4406\",\"37\",\"1\",\"Testing\",\"Stims/Figures/71-J-0-1.bmp\",\"fafava\",\"Left\",\"37\",\"3\",\"20\",\"8\",\"C1\",\"C\",\"68\"
\"\",\"\",\"approach-retreat\",\"217\",\"1809714\",\"0.0-217.0\",\"\",\"\",\"2-4\",\"4981\",\"38\",\"1\",\"Testing\",\"Stims/Figures/111-C-30-3.bmp\",\"sa:haha\",\"Down\",\"38\",\"3\",\"21\",\"8\",\"C2\",\"C\",\"69\"
\"\",\"\",\"approach-retreat\",\"218\",\"1815808\",\"0.0-218.0\",\"\",\"\",\"2-4\",\"4560\",\"37\",\"1\",\"Testing\",\"Stims/Figures/118-J-0-2.bmp\",\"va:shasha\",\"Left\",\"37\",\"3\",\"22\",\"8\",\"C1\",\"C\",\"70\"
\"\",\"\",\"approach-retreat\",\"219\",\"1821825\",\"0.0-219.0\",\"\",\"\",\"2-4\",\"4478\",\"40\",\"1\",\"Testing\",\"Stims/Figures/93-C-30-1.bmp\",\"fa:sha:sha\",\"Up\",\"40\",\"3\",\"23\",\"8\",\"C1\",\"C\",\"71\"
\"\",\"\",\"approach-retreat\",\"220\",\"1830996\",\"0.0-220.0\",\"\",\"\",\"2-4\",\"7644\",\"39\",\"1\",\"Testing\",\"Stims/Figures/87-J-10-4.bmp\",\"sahaha\",\"Right\",\"39\",\"3\",\"24\",\"8\",\"C2\",\"C\",\"72\"
\"\",\"\",\"approach-retreat\",\"221\",\"1837074\",\"0.0-221.0\",\"\",\"\",\"2-4\",\"4556\",\"40\",\"1\",\"Testing\",\"Stims/Figures/111-J-10-3.bmp\",\"sasaza\",\"Down\",\"40\",\"4\",\"1\",\"8\",\"C2\",\"C\",\"73\"
\"\",\"\",\"approach-retreat\",\"222\",\"1842980\",\"0.0-222.0\",\"\",\"\",\"2-4\",\"4381\",\"39\",\"1\",\"Testing\",\"Stims/Figures/139-J-0-2.bmp\",\"va:shava\",\"Right\",\"39\",\"4\",\"2\",\"8\",\"C1\",\"C\",\"74\"
\"\",\"\",\"approach-retreat\",\"223\",\"1848917\",\"0.0-223.0\",\"\",\"\",\"2-4\",\"4406\",\"37\",\"1\",\"Testing\",\"Stims/Figures/118-C-20-2.bmp\",\"fa:sha:va\",\"Right\",\"37\",\"4\",\"3\",\"8\",\"C1\",\"C\",\"75\"
\"\",\"\",\"approach-retreat\",\"224\",\"1855620\",\"0.0-224.0\",\"\",\"\",\"2-4\",\"5167\",\"38\",\"1\",\"Testing\",\"Stims/Figures/102-J-10-4.bmp\",\"sa:haza\",\"Up\",\"38\",\"4\",\"4\",\"8\",\"C2\",\"C\",\"76\"
\"\",\"\",\"approach-retreat\",\"225\",\"1862456\",\"0.0-225.0\",\"\",\"\",\"2-4\",\"5302\",\"40\",\"1\",\"Testing\",\"Stims/Figures/87-J-10-4.bmp\",\"sahaha\",\"Down\",\"40\",\"4\",\"5\",\"8\",\"C2\",\"C\",\"77\"
\"\",\"\",\"approach-retreat\",\"226\",\"1868442\",\"0.0-226.0\",\"\",\"\",\"2-4\",\"4459\",\"37\",\"1\",\"Testing\",\"Stims/Figures/102-C-20-4.bmp\",\"za:sa:za\",\"Right\",\"37\",\"4\",\"6\",\"8\",\"C2\",\"C\",\"78\"
\"\",\"\",\"approach-retreat\",\"227\",\"1874295\",\"0.0-227.0\",\"\",\"\",\"2-4\",\"4326\",\"39\",\"1\",\"Testing\",\"Stims/Figures/44-J-10-3.bmp\",\"sahaza\",\"Right\",\"39\",\"4\",\"7\",\"8\",\"C2\",\"C\",\"79\"
\"\",\"\",\"approach-retreat\",\"228\",\"1880241\",\"0.0-228.0\",\"\",\"\",\"2-4\",\"4415\",\"39\",\"1\",\"Testing\",\"Stims/Figures/7-C-20-4.bmp\",\"sasa:za\",\"Left\",\"39\",\"4\",\"8\",\"8\",\"C2\",\"C\",\"80\"
\"\",\"\",\"approach-retreat\",\"229\",\"1886049\",\"0.0-229.0\",\"\",\"\",\"2-4\",\"4280\",\"38\",\"1\",\"Testing\",\"Stims/Figures/86-J-0-1.bmp\",\"va:fa:va\",\"Up\",\"38\",\"4\",\"9\",\"8\",\"C1\",\"C\",\"81\"
\"\",\"\",\"approach-retreat\",\"230\",\"1891972\",\"0.0-230.0\",\"\",\"\",\"2-4\",\"4394\",\"38\",\"1\",\"Testing\",\"Stims/Figures/71-J-0-1.bmp\",\"fafava\",\"Up\",\"38\",\"4\",\"10\",\"8\",\"C1\",\"C\",\"82\"
\"\",\"\",\"approach-retreat\",\"231\",\"1899184\",\"0.0-231.0\",\"\",\"\",\"2-4\",\"5671\",\"38\",\"1\",\"Testing\",\"Stims/Figures/87-C-20-4.bmp\",\"za:sa:ha\",\"Down\",\"38\",\"4\",\"11\",\"8\",\"C2\",\"C\",\"83\"
\"\",\"\",\"approach-retreat\",\"232\",\"1905162\",\"0.0-232.0\",\"\",\"\",\"2-4\",\"4445\",\"39\",\"1\",\"Testing\",\"Stims/Figures/111-C-30-3.bmp\",\"sa:haha\",\"Left\",\"39\",\"4\",\"12\",\"8\",\"C2\",\"C\",\"84\"
\"\",\"\",\"approach-retreat\",\"233\",\"1911068\",\"0.0-233.0\",\"\",\"\",\"2-4\",\"4369\",\"39\",\"1\",\"Testing\",\"Stims/Figures/86-C-30-1.bmp\",\"fasha:va\",\"Left\",\"39\",\"4\",\"13\",\"8\",\"C1\",\"C\",\"85\"
\"\",\"\",\"approach-retreat\",\"234\",\"1917769\",\"0.0-234.0\",\"\",\"\",\"2-4\",\"5172\",\"38\",\"1\",\"Testing\",\"Stims/Figures/93-C-30-1.bmp\",\"fa:sha:sha\",\"Down\",\"38\",\"4\",\"14\",\"8\",\"C1\",\"C\",\"86\"
\"\",\"\",\"approach-retreat\",\"235\",\"1923649\",\"0.0-235.0\",\"\",\"\",\"2-4\",\"4348\",\"37\",\"1\",\"Testing\",\"Stims/Figures/144-J-10-3.bmp\",\"sa:saza\",\"Left\",\"37\",\"4\",\"15\",\"8\",\"C2\",\"C\",\"87\"
\"\",\"\",\"approach-retreat\",\"236\",\"1929756\",\"0.0-236.0\",\"\",\"\",\"2-4\",\"4573\",\"40\",\"1\",\"Testing\",\"Stims/Figures/71-C-30-1.bmp\",\"vashasha\",\"Up\",\"40\",\"4\",\"16\",\"8\",\"C1\",\"C\",\"88\"
\"\",\"\",\"approach-retreat\",\"237\",\"1935712\",\"0.0-237.0\",\"\",\"\",\"2-4\",\"4419\",\"38\",\"1\",\"Testing\",\"Stims/Figures/44-C-30-3.bmp\",\"saha:za\",\"Down\",\"38\",\"4\",\"17\",\"8\",\"C2\",\"C\",\"89\"
\"\",\"\",\"approach-retreat\",\"238\",\"1942162\",\"0.0-238.0\",\"\",\"\",\"2-4\",\"4913\",\"38\",\"1\",\"Testing\",\"Stims/Figures/93-J-0-1.bmp\",\"fafa:va\",\"Up\",\"38\",\"4\",\"18\",\"8\",\"C1\",\"C\",\"90\"
\"\",\"\",\"approach-retreat\",\"239\",\"1948213\",\"0.0-239.0\",\"\",\"\",\"2-4\",\"4512\",\"37\",\"1\",\"Testing\",\"Stims/Figures/139-C-20-2.bmp\",\"va:sha:sha\",\"Right\",\"37\",\"4\",\"19\",\"8\",\"C1\",\"C\",\"91\"
\"\",\"\",\"approach-retreat\",\"240\",\"1954475\",\"0.0-240.0\",\"\",\"\",\"2-4\",\"4726\",\"40\",\"1\",\"Testing\",\"Stims/Figures/144-C-30-3.bmp\",\"za:saza\",\"Up\",\"40\",\"4\",\"20\",\"8\",\"C2\",\"C\",\"92\"
\"\",\"\",\"approach-retreat\",\"241\",\"1960719\",\"0.0-241.0\",\"\",\"\",\"2-4\",\"4702\",\"39\",\"1\",\"Testing\",\"Stims/Figures/7-J-10-4.bmp\",\"sasa:ha\",\"Right\",\"39\",\"4\",\"21\",\"8\",\"C2\",\"C\",\"93\"
\"\",\"\",\"approach-retreat\",\"242\",\"1967021\",\"0.0-242.0\",\"\",\"\",\"2-4\",\"4770\",\"37\",\"1\",\"Testing\",\"Stims/Figures/118-J-0-2.bmp\",\"va:shasha\",\"Left\",\"37\",\"4\",\"22\",\"8\",\"C1\",\"C\",\"94\"
\"\",\"\",\"approach-retreat\",\"243\",\"1972803\",\"0.0-243.0\",\"\",\"\",\"2-4\",\"4242\",\"37\",\"1\",\"Testing\",\"Stims/Figures/85-J-0-2.bmp\",\"vafasha\",\"Left\",\"37\",\"4\",\"23\",\"8\",\"C1\",\"C\",\"95\"
\"\",\"\",\"approach-retreat\",\"244\",\"1979064\",\"0.0-244.0\",\"\",\"\",\"2-4\",\"4736\",\"38\",\"1\",\"Testing\",\"Stims/Figures/85-C-20-2.bmp\",\"vasha:va\",\"Down\",\"38\",\"4\",\"24\",\"8\",\"C1\",\"C\",\"96\"
\"41333\",\"\",\"survey-text\",\"245\",\"2020415\",\"0.0-245.0\",\"\",\"{\"\"Q0\"\":\"\"PS160022\"\"}\",\"\",\"\",\"\",\"\",\"\",\"\",\"\",\"\",\"\",\"\",\"\",\"\",\"\",\"\",\"\"
