\"rt\",\"key_press\",\"trial_type\",\"trial_index\",\"time_elapsed\",\"internal_node_id\",\"view_history\",\"responses\",\"Id\",\"Rt\",\"ResKeyCode\",\"ResCorr\",\"TrialType2\",\"Image\",\"Label\",\"Location\",\"CorrectResponse\",\"Block\",\"BlockTrial\",\"Condition\",\"LabelType\",\"Subcondition\",\"trialNum\"
\"26010\",\"32\",\"text\",\"0\",\"26012\",\"0.0-0.0-0.0\",\"\",\"\",\"\",\"\",\"\",\"\",\"\",\"\",\"\",\"\",\"\",\"\",\"\",\"\",\"\",\"\",\"\"
\"39646\",\"\",\"instructions\",\"1\",\"65660\",\"0.0-1.0\",\"[{\"\"page_index\"\":0,\"\"viewing_time\"\":39644}]\",\"\",\"\",\"\",\"\",\"\",\"\",\"\",\"\",\"\",\"\",\"\",\"\",\"\",\"\",\"\",\"\"
\"15204\",\"\",\"survey-multi-choice\",\"2\",\"80900\",\"0.0-2.0\",\"\",\"{\"\"Q0\"\":\"\"Da\"\",\"\"Q1\"\":\"\"Da\"\",\"\"Q2\"\":\"\"Da\"\",\"\"Q3\"\":\"\"Da\"\",\"\"Q4\"\":\"\"Da\"\",\"\"Q5\"\":\"\"Da\"\"}\",\"\",\"\",\"\",\"\",\"\",\"\",\"\",\"\",\"\",\"\",\"\",\"\",\"\",\"\",\"\"
\"\",\"\",\"bio\",\"3\",\"88138\",\"0.0-3.0\",\"\",\"{\"\"age\"\":\"\"23\"\",\"\"gender\"\":\"\"f\"\",\"\"specify\"\":\"\"\"\"}\",\"\",\"\",\"\",\"\",\"\",\"\",\"\",\"\",\"\",\"\",\"\",\"\",\"\",\"\",\"\"
\"\",\"\",\"approach-retreat\",\"4\",\"94274\",\"0.0-4.0\",\"\",\"\",\"3-1\",\"4618\",\"37\",\"1\",\"Training\",\"Stims/Figures/74-C-20-4.bmp\",\"vashava\",\"Left\",\"37\",\"1\",\"1\",\"3B\",\"C1\",\"J\",\"1\"
\"\",\"\",\"approach-retreat\",\"5\",\"100488\",\"0.0-5.0\",\"\",\"\",\"3-1\",\"4706\",\"38\",\"1\",\"Training\",\"Stims/Figures/93-C-30-1.bmp\",\"vashava\",\"Up\",\"38\",\"1\",\"2\",\"3B\",\"C1\",\"J\",\"2\"
\"\",\"\",\"approach-retreat\",\"6\",\"107008\",\"0.0-6.0\",\"\",\"\",\"3-1\",\"5006\",\"37\",\"0\",\"Training\",\"Stims/Figures/71-J-0-1.bmp\",\"sasaha\",\"Left\",\"39\",\"1\",\"3\",\"3B\",\"C2\",\"J\",\"3\"
\"\",\"\",\"approach-retreat\",\"7\",\"112696\",\"0.0-7.0\",\"\",\"\",\"3-1\",\"4176\",\"38\",\"0\",\"Training\",\"Stims/Figures/87-C-20-4.bmp\",\"vashava\",\"Down\",\"40\",\"1\",\"4\",\"3B\",\"C1\",\"J\",\"4\"
\"\",\"\",\"approach-retreat\",\"8\",\"119176\",\"0.0-8.0\",\"\",\"\",\"3-1\",\"4974\",\"37\",\"1\",\"Training\",\"Stims/Figures/87-J-10-4.bmp\",\"sasaha\",\"Right\",\"37\",\"1\",\"5\",\"3B\",\"C2\",\"J\",\"5\"
\"\",\"\",\"approach-retreat\",\"9\",\"124774\",\"0.0-9.0\",\"\",\"\",\"3-1\",\"4092\",\"40\",\"0\",\"Training\",\"Stims/Figures/128-C-30-3.bmp\",\"vashava\",\"Up\",\"38\",\"1\",\"6\",\"3B\",\"C1\",\"J\",\"6\"
\"\",\"\",\"approach-retreat\",\"10\",\"130728\",\"0.0-10.0\",\"\",\"\",\"3-1\",\"4446\",\"39\",\"1\",\"Training\",\"Stims/Figures/74-J-10-4.bmp\",\"sasaha\",\"Left\",\"39\",\"1\",\"7\",\"3B\",\"C2\",\"J\",\"7\"
\"\",\"\",\"approach-retreat\",\"11\",\"136476\",\"0.0-11.0\",\"\",\"\",\"3-1\",\"4240\",\"40\",\"0\",\"Training\",\"Stims/Figures/118-J-0-2.bmp\",\"sasaha\",\"Down\",\"38\",\"1\",\"8\",\"3B\",\"C2\",\"J\",\"8\"
\"\",\"\",\"approach-retreat\",\"12\",\"142094\",\"0.0-12.0\",\"\",\"\",\"3-1\",\"4114\",\"39\",\"0\",\"Training\",\"Stims/Figures/71-C-30-1.bmp\",\"vashava\",\"Left\",\"37\",\"1\",\"9\",\"3B\",\"C1\",\"J\",\"9\"
\"\",\"\",\"approach-retreat\",\"13\",\"147828\",\"0.0-13.0\",\"\",\"\",\"3-1\",\"4230\",\"37\",\"1\",\"Training\",\"Stims/Figures/44-J-10-3.bmp\",\"sasaha\",\"Right\",\"37\",\"1\",\"10\",\"3B\",\"C2\",\"J\",\"10\"
\"\",\"\",\"approach-retreat\",\"14\",\"153472\",\"0.0-14.0\",\"\",\"\",\"3-1\",\"4132\",\"38\",\"0\",\"Training\",\"Stims/Figures/118-C-20-2.bmp\",\"vashava\",\"Down\",\"40\",\"1\",\"11\",\"3B\",\"C1\",\"J\",\"11\"
\"\",\"\",\"approach-retreat\",\"15\",\"159180\",\"0.0-15.0\",\"\",\"\",\"3-1\",\"4198\",\"40\",\"0\",\"Training\",\"Stims/Figures/44-C-30-3.bmp\",\"vashava\",\"Up\",\"38\",\"1\",\"12\",\"3B\",\"C1\",\"J\",\"12\"
\"\",\"\",\"approach-retreat\",\"16\",\"165372\",\"0.0-16.0\",\"\",\"\",\"3-1\",\"4688\",\"37\",\"1\",\"Training\",\"Stims/Figures/93-J-0-1.bmp\",\"sasaha\",\"Right\",\"37\",\"1\",\"13\",\"3B\",\"C2\",\"J\",\"13\"
\"\",\"\",\"approach-retreat\",\"17\",\"171096\",\"0.0-17.0\",\"\",\"\",\"3-1\",\"4220\",\"37\",\"0\",\"Training\",\"Stims/Figures/85-C-20-2.bmp\",\"vashava\",\"Right\",\"39\",\"1\",\"14\",\"3B\",\"C1\",\"J\",\"14\"
\"\",\"\",\"approach-retreat\",\"18\",\"176936\",\"0.0-18.0\",\"\",\"\",\"3-1\",\"4328\",\"38\",\"0\",\"Training\",\"Stims/Figures/85-J-0-2.bmp\",\"sasaha\",\"Up\",\"40\",\"1\",\"15\",\"3B\",\"C2\",\"J\",\"15\"
\"\",\"\",\"approach-retreat\",\"19\",\"182436\",\"0.0-19.0\",\"\",\"\",\"3-1\",\"3994\",\"38\",\"1\",\"Training\",\"Stims/Figures/128-J-10-3.bmp\",\"sasaha\",\"Down\",\"38\",\"1\",\"16\",\"3B\",\"C2\",\"J\",\"16\"
\"\",\"\",\"approach-retreat\",\"20\",\"188132\",\"0.0-20.0\",\"\",\"\",\"3-1\",\"4192\",\"40\",\"1\",\"Training\",\"Stims/Figures/44-C-30-3.bmp\",\"vashava\",\"Down\",\"40\",\"2\",\"1\",\"3B\",\"C1\",\"J\",\"17\"
\"\",\"\",\"approach-retreat\",\"21\",\"193900\",\"0.0-21.0\",\"\",\"\",\"3-1\",\"4258\",\"39\",\"0\",\"Training\",\"Stims/Figures/118-C-20-2.bmp\",\"vashava\",\"Left\",\"37\",\"2\",\"2\",\"3B\",\"C1\",\"J\",\"18\"
\"\",\"\",\"approach-retreat\",\"22\",\"199912\",\"0.0-22.0\",\"\",\"\",\"3-1\",\"4508\",\"38\",\"1\",\"Training\",\"Stims/Figures/87-C-20-4.bmp\",\"vashava\",\"Up\",\"38\",\"2\",\"3\",\"3B\",\"C1\",\"J\",\"19\"
\"\",\"\",\"approach-retreat\",\"23\",\"205604\",\"0.0-23.0\",\"\",\"\",\"3-1\",\"4184\",\"37\",\"0\",\"Training\",\"Stims/Figures/74-C-20-4.bmp\",\"vashava\",\"Right\",\"39\",\"2\",\"4\",\"3B\",\"C1\",\"J\",\"20\"
\"\",\"\",\"approach-retreat\",\"24\",\"211690\",\"0.0-24.0\",\"\",\"\",\"3-1\",\"4572\",\"38\",\"0\",\"Training\",\"Stims/Figures/87-J-10-4.bmp\",\"sasaha\",\"Up\",\"40\",\"2\",\"5\",\"3B\",\"C2\",\"J\",\"21\"
\"\",\"\",\"approach-retreat\",\"25\",\"217702\",\"0.0-25.0\",\"\",\"\",\"3-1\",\"4494\",\"37\",\"0\",\"Training\",\"Stims/Figures/74-J-10-4.bmp\",\"sasaha\",\"Left\",\"39\",\"2\",\"6\",\"3B\",\"C2\",\"J\",\"22\"
\"\",\"\",\"approach-retreat\",\"26\",\"223330\",\"0.0-26.0\",\"\",\"\",\"3-1\",\"4122\",\"37\",\"1\",\"Training\",\"Stims/Figures/128-J-10-3.bmp\",\"sasaha\",\"Right\",\"37\",\"2\",\"7\",\"3B\",\"C2\",\"J\",\"23\"
\"\",\"\",\"approach-retreat\",\"27\",\"229964\",\"0.0-27.0\",\"\",\"\",\"3-1\",\"5126\",\"38\",\"1\",\"Training\",\"Stims/Figures/93-J-0-1.bmp\",\"sasaha\",\"Down\",\"38\",\"2\",\"8\",\"3B\",\"C2\",\"J\",\"24\"
\"\",\"\",\"approach-retreat\",\"28\",\"235948\",\"0.0-28.0\",\"\",\"\",\"3-1\",\"4470\",\"37\",\"0\",\"Training\",\"Stims/Figures/71-J-0-1.bmp\",\"sasaha\",\"Left\",\"39\",\"2\",\"9\",\"3B\",\"C2\",\"J\",\"25\"
\"\",\"\",\"approach-retreat\",\"29\",\"241702\",\"0.0-29.0\",\"\",\"\",\"3-1\",\"4250\",\"40\",\"1\",\"Training\",\"Stims/Figures/118-J-0-2.bmp\",\"sasaha\",\"Up\",\"40\",\"2\",\"10\",\"3B\",\"C2\",\"J\",\"26\"
\"\",\"\",\"approach-retreat\",\"30\",\"247190\",\"0.0-30.0\",\"\",\"\",\"3-1\",\"3978\",\"39\",\"0\",\"Training\",\"Stims/Figures/93-C-30-1.bmp\",\"vashava\",\"Left\",\"37\",\"2\",\"11\",\"3B\",\"C1\",\"J\",\"27\"
\"\",\"\",\"approach-retreat\",\"31\",\"252880\",\"0.0-31.0\",\"\",\"\",\"3-1\",\"4180\",\"38\",\"0\",\"Training\",\"Stims/Figures/85-C-20-2.bmp\",\"vashava\",\"Down\",\"40\",\"2\",\"12\",\"3B\",\"C1\",\"J\",\"28\"
\"\",\"\",\"approach-retreat\",\"32\",\"258676\",\"0.0-32.0\",\"\",\"\",\"3-1\",\"4290\",\"38\",\"1\",\"Training\",\"Stims/Figures/128-C-30-3.bmp\",\"vashava\",\"Up\",\"38\",\"2\",\"13\",\"3B\",\"C1\",\"J\",\"29\"
\"\",\"\",\"approach-retreat\",\"33\",\"264268\",\"0.0-33.0\",\"\",\"\",\"3-1\",\"4084\",\"37\",\"0\",\"Training\",\"Stims/Figures/71-C-30-1.bmp\",\"vashava\",\"Right\",\"39\",\"2\",\"14\",\"3B\",\"C1\",\"J\",\"30\"
\"\",\"\",\"approach-retreat\",\"34\",\"270730\",\"0.0-34.0\",\"\",\"\",\"3-1\",\"4958\",\"37\",\"1\",\"Training\",\"Stims/Figures/44-J-10-3.bmp\",\"sasaha\",\"Right\",\"37\",\"2\",\"15\",\"3B\",\"C2\",\"J\",\"31\"
\"\",\"\",\"approach-retreat\",\"35\",\"276518\",\"0.0-35.0\",\"\",\"\",\"3-1\",\"4270\",\"40\",\"0\",\"Training\",\"Stims/Figures/85-J-0-2.bmp\",\"sasaha\",\"Down\",\"38\",\"2\",\"16\",\"3B\",\"C2\",\"J\",\"32\"
\"\",\"\",\"approach-retreat\",\"36\",\"282352\",\"0.0-36.0\",\"\",\"\",\"3-1\",\"4324\",\"40\",\"1\",\"Training\",\"Stims/Figures/87-C-20-4.bmp\",\"vashava\",\"Down\",\"40\",\"3\",\"1\",\"3B\",\"C1\",\"J\",\"33\"
\"\",\"\",\"approach-retreat\",\"37\",\"288370\",\"0.0-37.0\",\"\",\"\",\"3-1\",\"4512\",\"40\",\"1\",\"Training\",\"Stims/Figures/71-C-30-1.bmp\",\"vashava\",\"Down\",\"40\",\"3\",\"2\",\"3B\",\"C1\",\"J\",\"34\"
\"\",\"\",\"approach-retreat\",\"38\",\"294114\",\"0.0-38.0\",\"\",\"\",\"3-1\",\"4238\",\"37\",\"1\",\"Training\",\"Stims/Figures/44-J-10-3.bmp\",\"sasaha\",\"Right\",\"37\",\"3\",\"3\",\"3B\",\"C2\",\"J\",\"35\"
\"\",\"\",\"approach-retreat\",\"39\",\"299902\",\"0.0-39.0\",\"\",\"\",\"3-1\",\"4280\",\"40\",\"0\",\"Training\",\"Stims/Figures/85-J-0-2.bmp\",\"sasaha\",\"Down\",\"38\",\"3\",\"4\",\"3B\",\"C2\",\"J\",\"36\"
\"\",\"\",\"approach-retreat\",\"40\",\"305390\",\"0.0-40.0\",\"\",\"\",\"3-1\",\"3982\",\"38\",\"1\",\"Training\",\"Stims/Figures/87-J-10-4.bmp\",\"sasaha\",\"Down\",\"38\",\"3\",\"5\",\"3B\",\"C2\",\"J\",\"37\"
\"\",\"\",\"approach-retreat\",\"41\",\"311188\",\"0.0-41.0\",\"\",\"\",\"3-1\",\"4290\",\"37\",\"0\",\"Training\",\"Stims/Figures/74-J-10-4.bmp\",\"sasaha\",\"Left\",\"39\",\"3\",\"6\",\"3B\",\"C2\",\"J\",\"38\"
\"\",\"\",\"approach-retreat\",\"42\",\"317202\",\"0.0-42.0\",\"\",\"\",\"3-1\",\"4506\",\"37\",\"0\",\"Training\",\"Stims/Figures/118-J-0-2.bmp\",\"sasaha\",\"Left\",\"39\",\"3\",\"7\",\"3B\",\"C2\",\"J\",\"39\"
\"\",\"\",\"approach-retreat\",\"43\",\"322748\",\"0.0-43.0\",\"\",\"\",\"3-1\",\"4040\",\"39\",\"1\",\"Training\",\"Stims/Figures/74-C-20-4.bmp\",\"vashava\",\"Right\",\"39\",\"3\",\"8\",\"3B\",\"C1\",\"J\",\"40\"
\"\",\"\",\"approach-retreat\",\"44\",\"328600\",\"0.0-44.0\",\"\",\"\",\"3-1\",\"4346\",\"39\",\"0\",\"Training\",\"Stims/Figures/85-C-20-2.bmp\",\"vashava\",\"Left\",\"37\",\"3\",\"9\",\"3B\",\"C1\",\"J\",\"41\"
\"\",\"\",\"approach-retreat\",\"45\",\"334218\",\"0.0-45.0\",\"\",\"\",\"3-1\",\"4106\",\"40\",\"0\",\"Training\",\"Stims/Figures/93-C-30-1.bmp\",\"vashava\",\"Up\",\"38\",\"3\",\"10\",\"3B\",\"C1\",\"J\",\"42\"
\"\",\"\",\"approach-retreat\",\"46\",\"339886\",\"0.0-46.0\",\"\",\"\",\"3-1\",\"4160\",\"39\",\"0\",\"Training\",\"Stims/Figures/128-J-10-3.bmp\",\"sasaha\",\"Right\",\"37\",\"3\",\"11\",\"3B\",\"C2\",\"J\",\"43\"
\"\",\"\",\"approach-retreat\",\"47\",\"345636\",\"0.0-47.0\",\"\",\"\",\"3-1\",\"4236\",\"37\",\"0\",\"Training\",\"Stims/Figures/71-J-0-1.bmp\",\"sasaha\",\"Left\",\"39\",\"3\",\"12\",\"3B\",\"C2\",\"J\",\"44\"
\"\",\"\",\"approach-retreat\",\"48\",\"351496\",\"0.0-48.0\",\"\",\"\",\"3-1\",\"4356\",\"40\",\"0\",\"Training\",\"Stims/Figures/128-C-30-3.bmp\",\"vashava\",\"Up\",\"38\",\"3\",\"13\",\"3B\",\"C1\",\"J\",\"45\"
\"\",\"\",\"approach-retreat\",\"49\",\"357628\",\"0.0-49.0\",\"\",\"\",\"3-1\",\"4628\",\"37\",\"1\",\"Training\",\"Stims/Figures/93-J-0-1.bmp\",\"sasaha\",\"Right\",\"37\",\"3\",\"14\",\"3B\",\"C2\",\"J\",\"46\"
\"\",\"\",\"approach-retreat\",\"50\",\"363930\",\"0.0-50.0\",\"\",\"\",\"3-1\",\"4792\",\"40\",\"0\",\"Training\",\"Stims/Figures/118-C-20-2.bmp\",\"vashava\",\"Up\",\"38\",\"3\",\"15\",\"3B\",\"C1\",\"J\",\"47\"
\"\",\"\",\"approach-retreat\",\"51\",\"369486\",\"0.0-51.0\",\"\",\"\",\"3-1\",\"4042\",\"40\",\"0\",\"Training\",\"Stims/Figures/44-C-30-3.bmp\",\"vashava\",\"Up\",\"38\",\"3\",\"16\",\"3B\",\"C1\",\"J\",\"48\"
\"\",\"\",\"approach-retreat\",\"52\",\"375836\",\"0.0-52.0\",\"\",\"\",\"3-1\",\"4844\",\"39\",\"0\",\"Training\",\"Stims/Figures/74-C-20-4.bmp\",\"vashava\",\"Left\",\"37\",\"4\",\"1\",\"3B\",\"C1\",\"J\",\"49\"
\"\",\"\",\"approach-retreat\",\"53\",\"381978\",\"0.0-53.0\",\"\",\"\",\"3-1\",\"4638\",\"40\",\"1\",\"Training\",\"Stims/Figures/85-C-20-2.bmp\",\"vashava\",\"Down\",\"40\",\"4\",\"2\",\"3B\",\"C1\",\"J\",\"50\"
\"\",\"\",\"approach-retreat\",\"54\",\"388148\",\"0.0-54.0\",\"\",\"\",\"3-1\",\"4656\",\"40\",\"0\",\"Training\",\"Stims/Figures/71-C-30-1.bmp\",\"vashava\",\"Up\",\"38\",\"4\",\"3\",\"3B\",\"C1\",\"J\",\"51\"
\"\",\"\",\"approach-retreat\",\"55\",\"393888\",\"0.0-55.0\",\"\",\"\",\"3-1\",\"4232\",\"37\",\"0\",\"Training\",\"Stims/Figures/44-J-10-3.bmp\",\"sasaha\",\"Left\",\"39\",\"4\",\"4\",\"3B\",\"C2\",\"J\",\"52\"
\"\",\"\",\"approach-retreat\",\"56\",\"400044\",\"0.0-56.0\",\"\",\"\",\"3-1\",\"4654\",\"38\",\"1\",\"Training\",\"Stims/Figures/87-C-20-4.bmp\",\"vashava\",\"Up\",\"38\",\"4\",\"5\",\"3B\",\"C1\",\"J\",\"53\"
\"\",\"\",\"approach-retreat\",\"57\",\"405742\",\"0.0-57.0\",\"\",\"\",\"3-1\",\"4186\",\"38\",\"0\",\"Training\",\"Stims/Figures/93-J-0-1.bmp\",\"sasaha\",\"Up\",\"40\",\"4\",\"6\",\"3B\",\"C2\",\"J\",\"54\"
\"\",\"\",\"approach-retreat\",\"58\",\"411308\",\"0.0-58.0\",\"\",\"\",\"3-1\",\"4060\",\"39\",\"0\",\"Training\",\"Stims/Figures/85-J-0-2.bmp\",\"sasaha\",\"Right\",\"37\",\"4\",\"7\",\"3B\",\"C2\",\"J\",\"55\"
\"\",\"\",\"approach-retreat\",\"59\",\"417586\",\"0.0-59.0\",\"\",\"\",\"3-1\",\"4766\",\"37\",\"0\",\"Training\",\"Stims/Figures/71-J-0-1.bmp\",\"sasaha\",\"Left\",\"39\",\"4\",\"8\",\"3B\",\"C2\",\"J\",\"56\"
\"\",\"\",\"approach-retreat\",\"60\",\"423356\",\"0.0-60.0\",\"\",\"\",\"3-1\",\"4254\",\"37\",\"0\",\"Training\",\"Stims/Figures/118-J-0-2.bmp\",\"sasaha\",\"Left\",\"39\",\"4\",\"9\",\"3B\",\"C2\",\"J\",\"57\"
\"\",\"\",\"approach-retreat\",\"61\",\"429482\",\"0.0-61.0\",\"\",\"\",\"3-1\",\"4620\",\"37\",\"0\",\"Training\",\"Stims/Figures/128-C-30-3.bmp\",\"vashava\",\"Right\",\"39\",\"4\",\"10\",\"3B\",\"C1\",\"J\",\"58\"
\"\",\"\",\"approach-retreat\",\"62\",\"435718\",\"0.0-62.0\",\"\",\"\",\"3-1\",\"4726\",\"39\",\"0\",\"Training\",\"Stims/Figures/87-J-10-4.bmp\",\"sasaha\",\"Right\",\"37\",\"4\",\"11\",\"3B\",\"C2\",\"J\",\"59\"
\"\",\"\",\"approach-retreat\",\"63\",\"442076\",\"0.0-63.0\",\"\",\"\",\"3-1\",\"4854\",\"40\",\"1\",\"Training\",\"Stims/Figures/44-C-30-3.bmp\",\"vashava\",\"Down\",\"40\",\"4\",\"12\",\"3B\",\"C1\",\"J\",\"60\"
\"\",\"\",\"approach-retreat\",\"64\",\"447824\",\"0.0-64.0\",\"\",\"\",\"3-1\",\"4244\",\"40\",\"1\",\"Training\",\"Stims/Figures/74-J-10-4.bmp\",\"sasaha\",\"Up\",\"40\",\"4\",\"13\",\"3B\",\"C2\",\"J\",\"61\"
\"\",\"\",\"approach-retreat\",\"65\",\"453982\",\"0.0-65.0\",\"\",\"\",\"3-1\",\"4654\",\"39\",\"1\",\"Training\",\"Stims/Figures/118-C-20-2.bmp\",\"vashava\",\"Right\",\"39\",\"4\",\"14\",\"3B\",\"C1\",\"J\",\"62\"
\"\",\"\",\"approach-retreat\",\"66\",\"460526\",\"0.0-66.0\",\"\",\"\",\"3-1\",\"5040\",\"38\",\"0\",\"Training\",\"Stims/Figures/93-C-30-1.bmp\",\"vashava\",\"Down\",\"40\",\"4\",\"15\",\"3B\",\"C1\",\"J\",\"63\"
\"\",\"\",\"approach-retreat\",\"67\",\"466904\",\"0.0-67.0\",\"\",\"\",\"3-1\",\"4864\",\"40\",\"0\",\"Training\",\"Stims/Figures/128-J-10-3.bmp\",\"sasaha\",\"Down\",\"38\",\"4\",\"16\",\"3B\",\"C2\",\"J\",\"64\"
\"\",\"\",\"approach-retreat\",\"68\",\"473582\",\"0.0-68.0\",\"\",\"\",\"3-1\",\"5174\",\"37\",\"1\",\"Training\",\"Stims/Figures/118-J-0-2.bmp\",\"sasaha\",\"Right\",\"37\",\"5\",\"1\",\"3B\",\"C2\",\"J\",\"65\"
\"\",\"\",\"approach-retreat\",\"69\",\"479350\",\"0.0-69.0\",\"\",\"\",\"3-1\",\"4264\",\"39\",\"1\",\"Training\",\"Stims/Figures/87-J-10-4.bmp\",\"sasaha\",\"Left\",\"39\",\"5\",\"2\",\"3B\",\"C2\",\"J\",\"66\"
\"\",\"\",\"approach-retreat\",\"70\",\"485402\",\"0.0-70.0\",\"\",\"\",\"3-1\",\"4542\",\"38\",\"0\",\"Training\",\"Stims/Figures/128-J-10-3.bmp\",\"sasaha\",\"Up\",\"40\",\"5\",\"3\",\"3B\",\"C2\",\"J\",\"67\"
\"\",\"\",\"approach-retreat\",\"71\",\"491284\",\"0.0-71.0\",\"\",\"\",\"3-1\",\"4378\",\"40\",\"1\",\"Training\",\"Stims/Figures/87-C-20-4.bmp\",\"vashava\",\"Down\",\"40\",\"5\",\"4\",\"3B\",\"C1\",\"J\",\"68\"
\"\",\"\",\"approach-retreat\",\"72\",\"497380\",\"0.0-72.0\",\"\",\"\",\"3-1\",\"4590\",\"38\",\"0\",\"Training\",\"Stims/Figures/44-J-10-3.bmp\",\"sasaha\",\"Up\",\"40\",\"5\",\"5\",\"3B\",\"C2\",\"J\",\"69\"
\"\",\"\",\"approach-retreat\",\"73\",\"503124\",\"0.0-73.0\",\"\",\"\",\"3-1\",\"4238\",\"38\",\"1\",\"Training\",\"Stims/Figures/44-C-30-3.bmp\",\"vashava\",\"Up\",\"38\",\"5\",\"6\",\"3B\",\"C1\",\"J\",\"70\"
\"\",\"\",\"approach-retreat\",\"74\",\"509618\",\"0.0-74.0\",\"\",\"\",\"3-1\",\"4990\",\"40\",\"1\",\"Training\",\"Stims/Figures/71-C-30-1.bmp\",\"vashava\",\"Down\",\"40\",\"5\",\"7\",\"3B\",\"C1\",\"J\",\"71\"
\"\",\"\",\"approach-retreat\",\"75\",\"515360\",\"0.0-75.0\",\"\",\"\",\"3-1\",\"4230\",\"39\",\"0\",\"Training\",\"Stims/Figures/128-C-30-3.bmp\",\"vashava\",\"Left\",\"37\",\"5\",\"8\",\"3B\",\"C1\",\"J\",\"72\"
\"\",\"\",\"approach-retreat\",\"76\",\"521302\",\"0.0-76.0\",\"\",\"\",\"3-1\",\"4434\",\"40\",\"0\",\"Training\",\"Stims/Figures/93-J-0-1.bmp\",\"sasaha\",\"Down\",\"38\",\"5\",\"9\",\"3B\",\"C2\",\"J\",\"73\"
\"\",\"\",\"approach-retreat\",\"77\",\"527626\",\"0.0-77.0\",\"\",\"\",\"3-1\",\"4820\",\"39\",\"1\",\"Training\",\"Stims/Figures/85-C-20-2.bmp\",\"vashava\",\"Right\",\"39\",\"5\",\"10\",\"3B\",\"C1\",\"J\",\"74\"
\"\",\"\",\"approach-retreat\",\"78\",\"533578\",\"0.0-78.0\",\"\",\"\",\"3-1\",\"4446\",\"37\",\"1\",\"Training\",\"Stims/Figures/93-C-30-1.bmp\",\"vashava\",\"Left\",\"37\",\"5\",\"11\",\"3B\",\"C1\",\"J\",\"75\"
\"\",\"\",\"approach-retreat\",\"79\",\"540390\",\"0.0-79.0\",\"\",\"\",\"3-1\",\"5310\",\"40\",\"1\",\"Training\",\"Stims/Figures/118-C-20-2.bmp\",\"vashava\",\"Down\",\"40\",\"5\",\"12\",\"3B\",\"C1\",\"J\",\"76\"
\"\",\"\",\"approach-retreat\",\"80\",\"547012\",\"0.0-80.0\",\"\",\"\",\"3-1\",\"5114\",\"37\",\"0\",\"Training\",\"Stims/Figures/85-J-0-2.bmp\",\"sasaha\",\"Left\",\"39\",\"5\",\"13\",\"3B\",\"C2\",\"J\",\"77\"
\"\",\"\",\"approach-retreat\",\"81\",\"553576\",\"0.0-81.0\",\"\",\"\",\"3-1\",\"5058\",\"37\",\"0\",\"Training\",\"Stims/Figures/74-C-20-4.bmp\",\"vashava\",\"Right\",\"39\",\"5\",\"14\",\"3B\",\"C1\",\"J\",\"78\"
\"\",\"\",\"approach-retreat\",\"82\",\"559212\",\"0.0-82.0\",\"\",\"\",\"3-1\",\"4134\",\"40\",\"1\",\"Training\",\"Stims/Figures/71-J-0-1.bmp\",\"sasaha\",\"Up\",\"40\",\"5\",\"15\",\"3B\",\"C2\",\"J\",\"79\"
\"\",\"\",\"approach-retreat\",\"83\",\"564982\",\"0.0-83.0\",\"\",\"\",\"3-1\",\"4266\",\"39\",\"0\",\"Training\",\"Stims/Figures/74-J-10-4.bmp\",\"sasaha\",\"Right\",\"37\",\"5\",\"16\",\"3B\",\"C2\",\"J\",\"80\"
\"\",\"\",\"approach-retreat\",\"84\",\"570422\",\"0.0-84.0\",\"\",\"\",\"3-1\",\"3936\",\"39\",\"1\",\"Training\",\"Stims/Figures/118-J-0-2.bmp\",\"sasaha\",\"Left\",\"39\",\"6\",\"1\",\"3B\",\"C2\",\"J\",\"81\"
\"\",\"\",\"approach-retreat\",\"85\",\"576196\",\"0.0-85.0\",\"\",\"\",\"3-1\",\"4266\",\"38\",\"1\",\"Training\",\"Stims/Figures/128-J-10-3.bmp\",\"sasaha\",\"Down\",\"38\",\"6\",\"2\",\"3B\",\"C2\",\"J\",\"82\"
\"\",\"\",\"approach-retreat\",\"86\",\"581784\",\"0.0-86.0\",\"\",\"\",\"3-1\",\"4080\",\"39\",\"0\",\"Training\",\"Stims/Figures/71-C-30-1.bmp\",\"vashava\",\"Left\",\"37\",\"6\",\"3\",\"3B\",\"C1\",\"J\",\"83\"
\"\",\"\",\"approach-retreat\",\"87\",\"587904\",\"0.0-87.0\",\"\",\"\",\"3-1\",\"4616\",\"40\",\"1\",\"Training\",\"Stims/Figures/93-C-30-1.bmp\",\"vashava\",\"Down\",\"40\",\"6\",\"4\",\"3B\",\"C1\",\"J\",\"84\"
\"\",\"\",\"approach-retreat\",\"88\",\"593976\",\"0.0-88.0\",\"\",\"\",\"3-1\",\"4570\",\"38\",\"1\",\"Training\",\"Stims/Figures/74-J-10-4.bmp\",\"sasaha\",\"Down\",\"38\",\"6\",\"5\",\"3B\",\"C2\",\"J\",\"85\"
\"\",\"\",\"approach-retreat\",\"89\",\"600568\",\"0.0-89.0\",\"\",\"\",\"3-1\",\"5080\",\"37\",\"0\",\"Training\",\"Stims/Figures/74-C-20-4.bmp\",\"vashava\",\"Right\",\"39\",\"6\",\"6\",\"3B\",\"C1\",\"J\",\"86\"
\"\",\"\",\"approach-retreat\",\"90\",\"606682\",\"0.0-90.0\",\"\",\"\",\"3-1\",\"4610\",\"40\",\"0\",\"Training\",\"Stims/Figures/118-C-20-2.bmp\",\"vashava\",\"Up\",\"38\",\"6\",\"7\",\"3B\",\"C1\",\"J\",\"87\"
\"\",\"\",\"approach-retreat\",\"91\",\"612412\",\"0.0-91.0\",\"\",\"\",\"3-1\",\"4226\",\"40\",\"1\",\"Training\",\"Stims/Figures/93-J-0-1.bmp\",\"sasaha\",\"Up\",\"40\",\"6\",\"8\",\"3B\",\"C2\",\"J\",\"88\"
\"\",\"\",\"approach-retreat\",\"92\",\"618726\",\"0.0-92.0\",\"\",\"\",\"3-1\",\"4810\",\"40\",\"1\",\"Training\",\"Stims/Figures/87-J-10-4.bmp\",\"sasaha\",\"Up\",\"40\",\"6\",\"9\",\"3B\",\"C2\",\"J\",\"89\"
\"\",\"\",\"approach-retreat\",\"93\",\"625264\",\"0.0-93.0\",\"\",\"\",\"3-1\",\"5034\",\"38\",\"1\",\"Training\",\"Stims/Figures/44-J-10-3.bmp\",\"sasaha\",\"Down\",\"38\",\"6\",\"10\",\"3B\",\"C2\",\"J\",\"90\"
\"\",\"\",\"approach-retreat\",\"94\",\"631380\",\"0.0-94.0\",\"\",\"\",\"3-1\",\"4612\",\"39\",\"1\",\"Training\",\"Stims/Figures/44-C-30-3.bmp\",\"vashava\",\"Right\",\"39\",\"6\",\"11\",\"3B\",\"C1\",\"J\",\"91\"
\"\",\"\",\"approach-retreat\",\"95\",\"637188\",\"0.0-95.0\",\"\",\"\",\"3-1\",\"4298\",\"37\",\"0\",\"Training\",\"Stims/Figures/87-C-20-4.bmp\",\"vashava\",\"Right\",\"39\",\"6\",\"12\",\"3B\",\"C1\",\"J\",\"92\"
\"\",\"\",\"approach-retreat\",\"96\",\"642938\",\"0.0-96.0\",\"\",\"\",\"3-1\",\"4244\",\"37\",\"0\",\"Training\",\"Stims/Figures/85-C-20-2.bmp\",\"vashava\",\"Right\",\"39\",\"6\",\"13\",\"3B\",\"C1\",\"J\",\"93\"
\"\",\"\",\"approach-retreat\",\"97\",\"648514\",\"0.0-97.0\",\"\",\"\",\"3-1\",\"4066\",\"37\",\"0\",\"Training\",\"Stims/Figures/71-J-0-1.bmp\",\"sasaha\",\"Left\",\"39\",\"6\",\"14\",\"3B\",\"C2\",\"J\",\"94\"
\"\",\"\",\"approach-retreat\",\"98\",\"654776\",\"0.0-98.0\",\"\",\"\",\"3-1\",\"4756\",\"40\",\"1\",\"Training\",\"Stims/Figures/85-J-0-2.bmp\",\"sasaha\",\"Up\",\"40\",\"6\",\"15\",\"3B\",\"C2\",\"J\",\"95\"
\"\",\"\",\"approach-retreat\",\"99\",\"661010\",\"0.0-99.0\",\"\",\"\",\"3-1\",\"4726\",\"39\",\"0\",\"Training\",\"Stims/Figures/128-C-30-3.bmp\",\"vashava\",\"Left\",\"37\",\"6\",\"16\",\"3B\",\"C1\",\"J\",\"96\"
\"\",\"\",\"approach-retreat\",\"100\",\"666610\",\"0.0-100.0\",\"\",\"\",\"3-1\",\"4098\",\"38\",\"1\",\"Training\",\"Stims/Figures/71-C-30-1.bmp\",\"vashava\",\"Up\",\"38\",\"7\",\"1\",\"3B\",\"C1\",\"J\",\"97\"
\"\",\"\",\"approach-retreat\",\"101\",\"672356\",\"0.0-101.0\",\"\",\"\",\"3-1\",\"4244\",\"39\",\"1\",\"Training\",\"Stims/Figures/87-C-20-4.bmp\",\"vashava\",\"Right\",\"39\",\"7\",\"2\",\"3B\",\"C1\",\"J\",\"98\"
\"\",\"\",\"approach-retreat\",\"102\",\"677952\",\"0.0-102.0\",\"\",\"\",\"3-1\",\"4092\",\"39\",\"1\",\"Training\",\"Stims/Figures/118-J-0-2.bmp\",\"sasaha\",\"Left\",\"39\",\"7\",\"3\",\"3B\",\"C2\",\"J\",\"99\"
\"\",\"\",\"approach-retreat\",\"103\",\"684152\",\"0.0-103.0\",\"\",\"\",\"3-1\",\"4696\",\"39\",\"1\",\"Training\",\"Stims/Figures/93-C-30-1.bmp\",\"vashava\",\"Right\",\"39\",\"7\",\"4\",\"3B\",\"C1\",\"J\",\"100\"
\"\",\"\",\"approach-retreat\",\"104\",\"689900\",\"0.0-104.0\",\"\",\"\",\"3-1\",\"4244\",\"37\",\"1\",\"Training\",\"Stims/Figures/74-J-10-4.bmp\",\"sasaha\",\"Right\",\"37\",\"7\",\"5\",\"3B\",\"C2\",\"J\",\"101\"
\"\",\"\",\"approach-retreat\",\"105\",\"696254\",\"0.0-105.0\",\"\",\"\",\"3-1\",\"4848\",\"40\",\"1\",\"Training\",\"Stims/Figures/44-J-10-3.bmp\",\"sasaha\",\"Up\",\"40\",\"7\",\"6\",\"3B\",\"C2\",\"J\",\"102\"
\"\",\"\",\"approach-retreat\",\"106\",\"702032\",\"0.0-106.0\",\"\",\"\",\"3-1\",\"4276\",\"40\",\"1\",\"Training\",\"Stims/Figures/93-J-0-1.bmp\",\"sasaha\",\"Up\",\"40\",\"7\",\"7\",\"3B\",\"C2\",\"J\",\"103\"
\"\",\"\",\"approach-retreat\",\"107\",\"707696\",\"0.0-107.0\",\"\",\"\",\"3-1\",\"4160\",\"39\",\"1\",\"Training\",\"Stims/Figures/87-J-10-4.bmp\",\"sasaha\",\"Left\",\"39\",\"7\",\"8\",\"3B\",\"C2\",\"J\",\"104\"
\"\",\"\",\"approach-retreat\",\"108\",\"713342\",\"0.0-108.0\",\"\",\"\",\"3-1\",\"4142\",\"40\",\"1\",\"Training\",\"Stims/Figures/85-C-20-2.bmp\",\"vashava\",\"Down\",\"40\",\"7\",\"9\",\"3B\",\"C1\",\"J\",\"105\"
\"\",\"\",\"approach-retreat\",\"109\",\"718952\",\"0.0-109.0\",\"\",\"\",\"3-1\",\"4104\",\"40\",\"0\",\"Training\",\"Stims/Figures/128-J-10-3.bmp\",\"sasaha\",\"Down\",\"38\",\"7\",\"10\",\"3B\",\"C2\",\"J\",\"106\"
\"\",\"\",\"approach-retreat\",\"110\",\"724398\",\"0.0-110.0\",\"\",\"\",\"3-1\",\"3940\",\"40\",\"0\",\"Training\",\"Stims/Figures/85-J-0-2.bmp\",\"sasaha\",\"Down\",\"38\",\"7\",\"11\",\"3B\",\"C2\",\"J\",\"107\"
\"\",\"\",\"approach-retreat\",\"111\",\"730344\",\"0.0-111.0\",\"\",\"\",\"3-1\",\"4444\",\"37\",\"1\",\"Training\",\"Stims/Figures/44-C-30-3.bmp\",\"vashava\",\"Left\",\"37\",\"7\",\"12\",\"3B\",\"C1\",\"J\",\"108\"
\"\",\"\",\"approach-retreat\",\"112\",\"736000\",\"0.0-112.0\",\"\",\"\",\"3-1\",\"4154\",\"40\",\"1\",\"Training\",\"Stims/Figures/118-C-20-2.bmp\",\"vashava\",\"Down\",\"40\",\"7\",\"13\",\"3B\",\"C1\",\"J\",\"109\"
\"\",\"\",\"approach-retreat\",\"113\",\"741944\",\"0.0-113.0\",\"\",\"\",\"3-1\",\"4440\",\"37\",\"1\",\"Training\",\"Stims/Figures/128-C-30-3.bmp\",\"vashava\",\"Left\",\"37\",\"7\",\"14\",\"3B\",\"C1\",\"J\",\"110\"
\"\",\"\",\"approach-retreat\",\"114\",\"748158\",\"0.0-114.0\",\"\",\"\",\"3-1\",\"4706\",\"37\",\"0\",\"Training\",\"Stims/Figures/74-C-20-4.bmp\",\"vashava\",\"Right\",\"39\",\"7\",\"15\",\"3B\",\"C1\",\"J\",\"111\"
\"\",\"\",\"approach-retreat\",\"115\",\"754260\",\"0.0-115.0\",\"\",\"\",\"3-1\",\"4600\",\"40\",\"1\",\"Training\",\"Stims/Figures/71-J-0-1.bmp\",\"sasaha\",\"Up\",\"40\",\"7\",\"16\",\"3B\",\"C2\",\"J\",\"112\"
\"\",\"\",\"approach-retreat\",\"116\",\"761094\",\"0.0-116.0\",\"\",\"\",\"3-1\",\"5330\",\"40\",\"1\",\"Training\",\"Stims/Figures/44-C-30-3.bmp\",\"vashava\",\"Down\",\"40\",\"8\",\"1\",\"3B\",\"C1\",\"J\",\"113\"
\"\",\"\",\"approach-retreat\",\"117\",\"766570\",\"0.0-117.0\",\"\",\"\",\"3-1\",\"3972\",\"38\",\"1\",\"Training\",\"Stims/Figures/93-J-0-1.bmp\",\"sasaha\",\"Down\",\"38\",\"8\",\"2\",\"3B\",\"C2\",\"J\",\"114\"
\"\",\"\",\"approach-retreat\",\"118\",\"772466\",\"0.0-118.0\",\"\",\"\",\"3-1\",\"4388\",\"39\",\"0\",\"Training\",\"Stims/Figures/85-J-0-2.bmp\",\"sasaha\",\"Right\",\"37\",\"8\",\"3\",\"3B\",\"C2\",\"J\",\"115\"
\"\",\"\",\"approach-retreat\",\"119\",\"778258\",\"0.0-119.0\",\"\",\"\",\"3-1\",\"4280\",\"37\",\"0\",\"Training\",\"Stims/Figures/74-C-20-4.bmp\",\"vashava\",\"Right\",\"39\",\"8\",\"4\",\"3B\",\"C1\",\"J\",\"116\"
\"\",\"\",\"approach-retreat\",\"120\",\"783844\",\"0.0-120.0\",\"\",\"\",\"3-1\",\"4076\",\"40\",\"0\",\"Training\",\"Stims/Figures/118-C-20-2.bmp\",\"vashava\",\"Up\",\"38\",\"8\",\"5\",\"3B\",\"C1\",\"J\",\"117\"
\"\",\"\",\"approach-retreat\",\"121\",\"790232\",\"0.0-121.0\",\"\",\"\",\"3-1\",\"4884\",\"38\",\"0\",\"Training\",\"Stims/Figures/44-J-10-3.bmp\",\"sasaha\",\"Up\",\"40\",\"8\",\"6\",\"3B\",\"C2\",\"J\",\"118\"
\"\",\"\",\"approach-retreat\",\"122\",\"796390\",\"0.0-122.0\",\"\",\"\",\"3-1\",\"4648\",\"40\",\"0\",\"Training\",\"Stims/Figures/74-J-10-4.bmp\",\"sasaha\",\"Down\",\"38\",\"8\",\"7\",\"3B\",\"C2\",\"J\",\"119\"
\"\",\"\",\"approach-retreat\",\"123\",\"802750\",\"0.0-123.0\",\"\",\"\",\"3-1\",\"4858\",\"37\",\"1\",\"Training\",\"Stims/Figures/128-J-10-3.bmp\",\"sasaha\",\"Right\",\"37\",\"8\",\"8\",\"3B\",\"C2\",\"J\",\"120\"
\"\",\"\",\"approach-retreat\",\"124\",\"808264\",\"0.0-124.0\",\"\",\"\",\"3-1\",\"4006\",\"37\",\"0\",\"Training\",\"Stims/Figures/87-C-20-4.bmp\",\"vashava\",\"Right\",\"39\",\"8\",\"9\",\"3B\",\"C1\",\"J\",\"121\"
\"\",\"\",\"approach-retreat\",\"125\",\"813942\",\"0.0-125.0\",\"\",\"\",\"3-1\",\"4168\",\"40\",\"0\",\"Training\",\"Stims/Figures/128-C-30-3.bmp\",\"vashava\",\"Up\",\"38\",\"8\",\"10\",\"3B\",\"C1\",\"J\",\"122\"
\"\",\"\",\"approach-retreat\",\"126\",\"819424\",\"0.0-126.0\",\"\",\"\",\"3-1\",\"3978\",\"39\",\"1\",\"Training\",\"Stims/Figures/87-J-10-4.bmp\",\"sasaha\",\"Left\",\"39\",\"8\",\"11\",\"3B\",\"C2\",\"J\",\"123\"
\"\",\"\",\"approach-retreat\",\"127\",\"824948\",\"0.0-127.0\",\"\",\"\",\"3-1\",\"4020\",\"39\",\"1\",\"Training\",\"Stims/Figures/118-J-0-2.bmp\",\"sasaha\",\"Left\",\"39\",\"8\",\"12\",\"3B\",\"C2\",\"J\",\"124\"
\"\",\"\",\"approach-retreat\",\"128\",\"830570\",\"0.0-128.0\",\"\",\"\",\"3-1\",\"4118\",\"39\",\"1\",\"Training\",\"Stims/Figures/71-J-0-1.bmp\",\"sasaha\",\"Left\",\"39\",\"8\",\"13\",\"3B\",\"C2\",\"J\",\"125\"
\"\",\"\",\"approach-retreat\",\"129\",\"836246\",\"0.0-129.0\",\"\",\"\",\"3-1\",\"4172\",\"37\",\"1\",\"Training\",\"Stims/Figures/93-C-30-1.bmp\",\"vashava\",\"Left\",\"37\",\"8\",\"14\",\"3B\",\"C1\",\"J\",\"126\"
\"\",\"\",\"approach-retreat\",\"130\",\"841984\",\"0.0-130.0\",\"\",\"\",\"3-1\",\"4234\",\"38\",\"1\",\"Training\",\"Stims/Figures/71-C-30-1.bmp\",\"vashava\",\"Up\",\"38\",\"8\",\"15\",\"3B\",\"C1\",\"J\",\"127\"
\"\",\"\",\"approach-retreat\",\"131\",\"847722\",\"0.0-131.0\",\"\",\"\",\"3-1\",\"4234\",\"40\",\"1\",\"Training\",\"Stims/Figures/85-C-20-2.bmp\",\"vashava\",\"Down\",\"40\",\"8\",\"16\",\"3B\",\"C1\",\"J\",\"128\"
\"\",\"\",\"approach-retreat\",\"132\",\"853520\",\"0.0-132.0\",\"\",\"\",\"3-1\",\"4296\",\"37\",\"1\",\"Training\",\"Stims/Figures/44-J-10-3.bmp\",\"sasaha\",\"Right\",\"37\",\"9\",\"1\",\"3B\",\"C2\",\"J\",\"129\"
\"\",\"\",\"approach-retreat\",\"133\",\"859160\",\"0.0-133.0\",\"\",\"\",\"3-1\",\"4136\",\"39\",\"1\",\"Training\",\"Stims/Figures/128-J-10-3.bmp\",\"sasaha\",\"Left\",\"39\",\"9\",\"2\",\"3B\",\"C2\",\"J\",\"130\"
\"\",\"\",\"approach-retreat\",\"134\",\"864816\",\"0.0-134.0\",\"\",\"\",\"3-1\",\"4150\",\"40\",\"1\",\"Training\",\"Stims/Figures/93-C-30-1.bmp\",\"vashava\",\"Down\",\"40\",\"9\",\"3\",\"3B\",\"C1\",\"J\",\"131\"
\"\",\"\",\"approach-retreat\",\"135\",\"870768\",\"0.0-135.0\",\"\",\"\",\"3-1\",\"4448\",\"38\",\"0\",\"Training\",\"Stims/Figures/93-J-0-1.bmp\",\"sasaha\",\"Up\",\"40\",\"9\",\"4\",\"3B\",\"C2\",\"J\",\"132\"
\"\",\"\",\"approach-retreat\",\"136\",\"876374\",\"0.0-136.0\",\"\",\"\",\"3-1\",\"4100\",\"37\",\"1\",\"Training\",\"Stims/Figures/71-C-30-1.bmp\",\"vashava\",\"Left\",\"37\",\"9\",\"5\",\"3B\",\"C1\",\"J\",\"133\"
\"\",\"\",\"approach-retreat\",\"137\",\"881894\",\"0.0-137.0\",\"\",\"\",\"3-1\",\"4016\",\"37\",\"1\",\"Training\",\"Stims/Figures/44-C-30-3.bmp\",\"vashava\",\"Left\",\"37\",\"9\",\"6\",\"3B\",\"C1\",\"J\",\"134\"
\"\",\"\",\"approach-retreat\",\"138\",\"887428\",\"0.0-138.0\",\"\",\"\",\"3-1\",\"4030\",\"40\",\"1\",\"Training\",\"Stims/Figures/85-J-0-2.bmp\",\"sasaha\",\"Up\",\"40\",\"9\",\"7\",\"3B\",\"C2\",\"J\",\"135\"
\"\",\"\",\"approach-retreat\",\"139\",\"893562\",\"0.0-139.0\",\"\",\"\",\"3-1\",\"4622\",\"39\",\"0\",\"Training\",\"Stims/Figures/128-C-30-3.bmp\",\"vashava\",\"Left\",\"37\",\"9\",\"8\",\"3B\",\"C1\",\"J\",\"136\"
\"\",\"\",\"approach-retreat\",\"140\",\"899152\",\"0.0-140.0\",\"\",\"\",\"3-1\",\"4086\",\"40\",\"1\",\"Training\",\"Stims/Figures/87-J-10-4.bmp\",\"sasaha\",\"Up\",\"40\",\"9\",\"9\",\"3B\",\"C2\",\"J\",\"137\"
\"\",\"\",\"approach-retreat\",\"141\",\"904740\",\"0.0-141.0\",\"\",\"\",\"3-1\",\"4082\",\"38\",\"1\",\"Training\",\"Stims/Figures/87-C-20-4.bmp\",\"vashava\",\"Up\",\"38\",\"9\",\"10\",\"3B\",\"C1\",\"J\",\"138\"
\"\",\"\",\"approach-retreat\",\"142\",\"910322\",\"0.0-142.0\",\"\",\"\",\"3-1\",\"4080\",\"39\",\"1\",\"Training\",\"Stims/Figures/74-C-20-4.bmp\",\"vashava\",\"Right\",\"39\",\"9\",\"11\",\"3B\",\"C1\",\"J\",\"139\"
\"\",\"\",\"approach-retreat\",\"143\",\"915896\",\"0.0-143.0\",\"\",\"\",\"3-1\",\"4070\",\"38\",\"1\",\"Training\",\"Stims/Figures/71-J-0-1.bmp\",\"sasaha\",\"Down\",\"38\",\"9\",\"12\",\"3B\",\"C2\",\"J\",\"140\"
\"\",\"\",\"approach-retreat\",\"144\",\"921422\",\"0.0-144.0\",\"\",\"\",\"3-1\",\"4024\",\"38\",\"1\",\"Training\",\"Stims/Figures/74-J-10-4.bmp\",\"sasaha\",\"Down\",\"38\",\"9\",\"13\",\"3B\",\"C2\",\"J\",\"141\"
\"\",\"\",\"approach-retreat\",\"145\",\"926908\",\"0.0-145.0\",\"\",\"\",\"3-1\",\"3984\",\"39\",\"1\",\"Training\",\"Stims/Figures/118-C-20-2.bmp\",\"vashava\",\"Right\",\"39\",\"9\",\"14\",\"3B\",\"C1\",\"J\",\"142\"
\"\",\"\",\"approach-retreat\",\"146\",\"932808\",\"0.0-146.0\",\"\",\"\",\"3-1\",\"4394\",\"38\",\"1\",\"Training\",\"Stims/Figures/118-J-0-2.bmp\",\"sasaha\",\"Down\",\"38\",\"9\",\"15\",\"3B\",\"C2\",\"J\",\"143\"
\"\",\"\",\"approach-retreat\",\"147\",\"938252\",\"0.0-147.0\",\"\",\"\",\"3-1\",\"3942\",\"39\",\"1\",\"Training\",\"Stims/Figures/85-C-20-2.bmp\",\"vashava\",\"Right\",\"39\",\"9\",\"16\",\"3B\",\"C1\",\"J\",\"144\"
\"11880\",\"\",\"instructions\",\"148\",\"950132\",\"0.0-148.0\",\"[{\"\"page_index\"\":0,\"\"viewing_time\"\":11880}]\",\"\",\"\",\"\",\"\",\"\",\"\",\"\",\"\",\"\",\"\",\"\",\"\",\"\",\"\",\"\",\"\"
\"\",\"\",\"approach-retreat\",\"149\",\"957714\",\"0.0-149.0\",\"\",\"\",\"3-1\",\"6072\",\"38\",\"1\",\"Testing\",\"Stims/Figures/87-J-10-4.bmp\",\"sasaha\",\"Down\",\"38\",\"1\",\"1\",\"3B\",\"C2\",\"J\",\"1\"
\"\",\"\",\"approach-retreat\",\"150\",\"966884\",\"0.0-150.0\",\"\",\"\",\"3-1\",\"7662\",\"38\",\"0\",\"Testing\",\"Stims/Figures/128-J-10-3.bmp\",\"sasaha\",\"Up\",\"40\",\"1\",\"2\",\"3B\",\"C2\",\"J\",\"2\"
\"\",\"\",\"approach-retreat\",\"151\",\"974584\",\"0.0-151.0\",\"\",\"\",\"3-1\",\"6186\",\"40\",\"1\",\"Testing\",\"Stims/Figures/85-C-20-2.bmp\",\"vashava\",\"Down\",\"40\",\"1\",\"3\",\"3B\",\"C1\",\"J\",\"3\"
\"\",\"\",\"approach-retreat\",\"152\",\"980396\",\"0.0-152.0\",\"\",\"\",\"3-1\",\"4306\",\"38\",\"1\",\"Testing\",\"Stims/Figures/7-C-20-4.bmp\",\"vashava\",\"Up\",\"38\",\"1\",\"4\",\"3B\",\"C1\",\"J\",\"4\"
\"\",\"\",\"approach-retreat\",\"153\",\"986056\",\"0.0-153.0\",\"\",\"\",\"3-1\",\"4150\",\"38\",\"0\",\"Testing\",\"Stims/Figures/87-C-20-4.bmp\",\"vashava\",\"Down\",\"40\",\"1\",\"5\",\"3B\",\"C1\",\"J\",\"5\"
\"\",\"\",\"approach-retreat\",\"154\",\"992056\",\"0.0-154.0\",\"\",\"\",\"3-1\",\"4494\",\"37\",\"0\",\"Testing\",\"Stims/Figures/71-C-30-1.bmp\",\"vashava\",\"Right\",\"39\",\"1\",\"6\",\"3B\",\"C1\",\"J\",\"6\"
\"\",\"\",\"approach-retreat\",\"155\",\"998914\",\"0.0-155.0\",\"\",\"\",\"3-1\",\"5352\",\"40\",\"0\",\"Testing\",\"Stims/Figures/74-C-20-4.bmp\",\"vashava\",\"Up\",\"38\",\"1\",\"7\",\"3B\",\"C1\",\"J\",\"7\"
\"\",\"\",\"approach-retreat\",\"156\",\"1004784\",\"0.0-156.0\",\"\",\"\",\"3-1\",\"4366\",\"37\",\"1\",\"Testing\",\"Stims/Figures/74-J-10-4.bmp\",\"sasaha\",\"Right\",\"37\",\"1\",\"8\",\"3B\",\"C2\",\"J\",\"8\"
\"\",\"\",\"approach-retreat\",\"157\",\"1010536\",\"0.0-157.0\",\"\",\"\",\"3-1\",\"4244\",\"40\",\"0\",\"Testing\",\"Stims/Figures/7-J-10-4.bmp\",\"sasaha\",\"Down\",\"38\",\"1\",\"9\",\"3B\",\"C2\",\"J\",\"9\"
\"\",\"\",\"approach-retreat\",\"158\",\"1017518\",\"0.0-158.0\",\"\",\"\",\"3-1\",\"5472\",\"37\",\"0\",\"Testing\",\"Stims/Figures/144-J-10-3.bmp\",\"sasaha\",\"Left\",\"39\",\"1\",\"10\",\"3B\",\"C2\",\"J\",\"10\"
\"\",\"\",\"approach-retreat\",\"159\",\"1023148\",\"0.0-159.0\",\"\",\"\",\"3-1\",\"4118\",\"38\",\"1\",\"Testing\",\"Stims/Figures/93-J-0-1.bmp\",\"sasaha\",\"Down\",\"38\",\"1\",\"11\",\"3B\",\"C2\",\"J\",\"11\"
\"\",\"\",\"approach-retreat\",\"160\",\"1028688\",\"0.0-160.0\",\"\",\"\",\"3-1\",\"4030\",\"37\",\"1\",\"Testing\",\"Stims/Figures/71-J-0-1.bmp\",\"sasaha\",\"Right\",\"37\",\"1\",\"12\",\"3B\",\"C2\",\"J\",\"12\"
\"\",\"\",\"approach-retreat\",\"161\",\"1034458\",\"0.0-161.0\",\"\",\"\",\"3-1\",\"4260\",\"37\",\"1\",\"Testing\",\"Stims/Figures/93-C-30-1.bmp\",\"vashava\",\"Left\",\"37\",\"1\",\"13\",\"3B\",\"C1\",\"J\",\"13\"
\"\",\"\",\"approach-retreat\",\"162\",\"1040568\",\"0.0-162.0\",\"\",\"\",\"3-1\",\"4598\",\"39\",\"0\",\"Testing\",\"Stims/Figures/85-J-0-2.bmp\",\"sasaha\",\"Right\",\"37\",\"1\",\"14\",\"3B\",\"C2\",\"J\",\"14\"
\"\",\"\",\"approach-retreat\",\"163\",\"1046118\",\"0.0-163.0\",\"\",\"\",\"3-1\",\"4048\",\"38\",\"1\",\"Testing\",\"Stims/Figures/118-J-0-2.bmp\",\"sasaha\",\"Down\",\"38\",\"1\",\"15\",\"3B\",\"C2\",\"J\",\"15\"
\"\",\"\",\"approach-retreat\",\"164\",\"1054658\",\"0.0-164.0\",\"\",\"\",\"3-1\",\"7036\",\"37\",\"0\",\"Testing\",\"Stims/Figures/94-J-0-2.bmp\",\"sasaha\",\"Left\",\"39\",\"1\",\"16\",\"3B\",\"C2\",\"J\",\"16\"
\"\",\"\",\"approach-retreat\",\"165\",\"1061068\",\"0.0-165.0\",\"\",\"\",\"3-1\",\"4906\",\"37\",\"0\",\"Testing\",\"Stims/Figures/57-C-30-1.bmp\",\"vashava\",\"Right\",\"39\",\"1\",\"17\",\"3B\",\"C1\",\"J\",\"17\"
\"\",\"\",\"approach-retreat\",\"166\",\"1069518\",\"0.0-166.0\",\"\",\"\",\"3-1\",\"6940\",\"40\",\"0\",\"Testing\",\"Stims/Figures/94-C-20-2.bmp\",\"vashava\",\"Up\",\"38\",\"1\",\"18\",\"3B\",\"C1\",\"J\",\"18\"
\"\",\"\",\"approach-retreat\",\"167\",\"1077910\",\"0.0-167.0\",\"\",\"\",\"3-1\",\"6884\",\"40\",\"0\",\"Testing\",\"Stims/Figures/144-C-30-3.bmp\",\"vashava\",\"Up\",\"38\",\"1\",\"19\",\"3B\",\"C1\",\"J\",\"19\"
\"\",\"\",\"approach-retreat\",\"168\",\"1085332\",\"0.0-168.0\",\"\",\"\",\"3-1\",\"5908\",\"39\",\"1\",\"Testing\",\"Stims/Figures/57-J-0-1.bmp\",\"sasaha\",\"Left\",\"39\",\"1\",\"20\",\"3B\",\"C2\",\"J\",\"20\"
\"\",\"\",\"approach-retreat\",\"169\",\"1093022\",\"0.0-169.0\",\"\",\"\",\"3-1\",\"6180\",\"39\",\"1\",\"Testing\",\"Stims/Figures/44-J-10-3.bmp\",\"sasaha\",\"Left\",\"39\",\"1\",\"21\",\"3B\",\"C2\",\"J\",\"21\"
\"\",\"\",\"approach-retreat\",\"170\",\"1099052\",\"0.0-170.0\",\"\",\"\",\"3-1\",\"4520\",\"39\",\"1\",\"Testing\",\"Stims/Figures/44-C-30-3.bmp\",\"vashava\",\"Right\",\"39\",\"1\",\"22\",\"3B\",\"C1\",\"J\",\"22\"
\"\",\"\",\"approach-retreat\",\"171\",\"1107140\",\"0.0-171.0\",\"\",\"\",\"3-1\",\"6578\",\"38\",\"1\",\"Testing\",\"Stims/Figures/128-C-30-3.bmp\",\"vashava\",\"Up\",\"38\",\"1\",\"23\",\"3B\",\"C1\",\"J\",\"23\"
\"\",\"\",\"approach-retreat\",\"172\",\"1115420\",\"0.0-172.0\",\"\",\"\",\"3-1\",\"6768\",\"39\",\"0\",\"Testing\",\"Stims/Figures/118-C-20-2.bmp\",\"vashava\",\"Left\",\"37\",\"1\",\"24\",\"3B\",\"C1\",\"J\",\"24\"
\"\",\"\",\"approach-retreat\",\"173\",\"1121960\",\"0.0-173.0\",\"\",\"\",\"3-1\",\"5028\",\"40\",\"1\",\"Testing\",\"Stims/Figures/93-C-30-1.bmp\",\"vashava\",\"Down\",\"40\",\"2\",\"1\",\"3B\",\"C1\",\"J\",\"25\"
\"\",\"\",\"approach-retreat\",\"174\",\"1128080\",\"0.0-174.0\",\"\",\"\",\"3-1\",\"4616\",\"40\",\"0\",\"Testing\",\"Stims/Figures/7-J-10-4.bmp\",\"sasaha\",\"Down\",\"38\",\"2\",\"2\",\"3B\",\"C2\",\"J\",\"26\"
\"\",\"\",\"approach-retreat\",\"175\",\"1136580\",\"0.0-175.0\",\"\",\"\",\"3-1\",\"6994\",\"37\",\"0\",\"Testing\",\"Stims/Figures/85-C-20-2.bmp\",\"vashava\",\"Right\",\"39\",\"2\",\"3\",\"3B\",\"C1\",\"J\",\"27\"
\"\",\"\",\"approach-retreat\",\"176\",\"1143920\",\"0.0-176.0\",\"\",\"\",\"3-1\",\"5836\",\"39\",\"0\",\"Testing\",\"Stims/Figures/87-J-10-4.bmp\",\"sasaha\",\"Right\",\"37\",\"2\",\"4\",\"3B\",\"C2\",\"J\",\"28\"
\"\",\"\",\"approach-retreat\",\"177\",\"1149550\",\"0.0-177.0\",\"\",\"\",\"3-1\",\"4126\",\"37\",\"1\",\"Testing\",\"Stims/Figures/57-J-0-1.bmp\",\"sasaha\",\"Right\",\"37\",\"2\",\"5\",\"3B\",\"C2\",\"J\",\"29\"
\"\",\"\",\"approach-retreat\",\"178\",\"1157960\",\"0.0-178.0\",\"\",\"\",\"3-1\",\"6900\",\"37\",\"1\",\"Testing\",\"Stims/Figures/74-J-10-4.bmp\",\"sasaha\",\"Right\",\"37\",\"2\",\"6\",\"3B\",\"C2\",\"J\",\"30\"
\"\",\"\",\"approach-retreat\",\"179\",\"1163648\",\"0.0-179.0\",\"\",\"\",\"3-1\",\"4186\",\"38\",\"1\",\"Testing\",\"Stims/Figures/94-J-0-2.bmp\",\"sasaha\",\"Down\",\"38\",\"2\",\"7\",\"3B\",\"C2\",\"J\",\"31\"
\"\",\"\",\"approach-retreat\",\"180\",\"1170508\",\"0.0-180.0\",\"\",\"\",\"3-1\",\"5356\",\"40\",\"1\",\"Testing\",\"Stims/Figures/71-C-30-1.bmp\",\"vashava\",\"Down\",\"40\",\"2\",\"8\",\"3B\",\"C1\",\"J\",\"32\"
\"\",\"\",\"approach-retreat\",\"181\",\"1177228\",\"0.0-181.0\",\"\",\"\",\"3-1\",\"5208\",\"38\",\"0\",\"Testing\",\"Stims/Figures/128-J-10-3.bmp\",\"sasaha\",\"Up\",\"40\",\"2\",\"9\",\"3B\",\"C2\",\"J\",\"33\"
\"\",\"\",\"approach-retreat\",\"182\",\"1184818\",\"0.0-182.0\",\"\",\"\",\"3-1\",\"6084\",\"37\",\"1\",\"Testing\",\"Stims/Figures/144-C-30-3.bmp\",\"vashava\",\"Left\",\"37\",\"2\",\"10\",\"3B\",\"C1\",\"J\",\"34\"
\"\",\"\",\"approach-retreat\",\"183\",\"1191208\",\"0.0-183.0\",\"\",\"\",\"3-1\",\"4884\",\"39\",\"0\",\"Testing\",\"Stims/Figures/87-C-20-4.bmp\",\"vashava\",\"Left\",\"37\",\"2\",\"11\",\"3B\",\"C1\",\"J\",\"35\"
\"\",\"\",\"approach-retreat\",\"184\",\"1198658\",\"0.0-184.0\",\"\",\"\",\"3-1\",\"5936\",\"40\",\"0\",\"Testing\",\"Stims/Figures/57-C-30-1.bmp\",\"vashava\",\"Up\",\"38\",\"2\",\"12\",\"3B\",\"C1\",\"J\",\"36\"
\"\",\"\",\"approach-retreat\",\"185\",\"1204398\",\"0.0-185.0\",\"\",\"\",\"3-1\",\"4232\",\"38\",\"0\",\"Testing\",\"Stims/Figures/85-J-0-2.bmp\",\"sasaha\",\"Up\",\"40\",\"2\",\"13\",\"3B\",\"C2\",\"J\",\"37\"
\"\",\"\",\"approach-retreat\",\"186\",\"1212128\",\"0.0-186.0\",\"\",\"\",\"3-1\",\"6220\",\"40\",\"1\",\"Testing\",\"Stims/Figures/93-J-0-1.bmp\",\"sasaha\",\"Up\",\"40\",\"2\",\"14\",\"3B\",\"C2\",\"J\",\"38\"
\"\",\"\",\"approach-retreat\",\"187\",\"1219306\",\"0.0-187.0\",\"\",\"\",\"3-1\",\"5676\",\"39\",\"1\",\"Testing\",\"Stims/Figures/44-C-30-3.bmp\",\"vashava\",\"Right\",\"39\",\"2\",\"15\",\"3B\",\"C1\",\"J\",\"39\"
\"\",\"\",\"approach-retreat\",\"188\",\"1224956\",\"0.0-188.0\",\"\",\"\",\"3-1\",\"4142\",\"39\",\"1\",\"Testing\",\"Stims/Figures/118-J-0-2.bmp\",\"sasaha\",\"Left\",\"39\",\"2\",\"16\",\"3B\",\"C2\",\"J\",\"40\"
\"\",\"\",\"approach-retreat\",\"189\",\"1230636\",\"0.0-189.0\",\"\",\"\",\"3-1\",\"4174\",\"39\",\"1\",\"Testing\",\"Stims/Figures/74-C-20-4.bmp\",\"vashava\",\"Right\",\"39\",\"2\",\"17\",\"3B\",\"C1\",\"J\",\"41\"
\"\",\"\",\"approach-retreat\",\"190\",\"1236216\",\"0.0-190.0\",\"\",\"\",\"3-1\",\"4072\",\"40\",\"1\",\"Testing\",\"Stims/Figures/44-J-10-3.bmp\",\"sasaha\",\"Up\",\"40\",\"2\",\"18\",\"3B\",\"C2\",\"J\",\"42\"
\"\",\"\",\"approach-retreat\",\"191\",\"1244296\",\"0.0-191.0\",\"\",\"\",\"3-1\",\"6570\",\"38\",\"0\",\"Testing\",\"Stims/Figures/144-J-10-3.bmp\",\"sasaha\",\"Up\",\"40\",\"2\",\"19\",\"3B\",\"C2\",\"J\",\"43\"
\"\",\"\",\"approach-retreat\",\"192\",\"1252836\",\"0.0-192.0\",\"\",\"\",\"3-1\",\"7030\",\"39\",\"0\",\"Testing\",\"Stims/Figures/94-C-20-2.bmp\",\"vashava\",\"Left\",\"37\",\"2\",\"20\",\"3B\",\"C1\",\"J\",\"44\"
\"\",\"\",\"approach-retreat\",\"193\",\"1258376\",\"0.0-193.0\",\"\",\"\",\"3-1\",\"4030\",\"38\",\"1\",\"Testing\",\"Stims/Figures/71-J-0-1.bmp\",\"sasaha\",\"Down\",\"38\",\"2\",\"21\",\"3B\",\"C2\",\"J\",\"45\"
\"\",\"\",\"approach-retreat\",\"194\",\"1263886\",\"0.0-194.0\",\"\",\"\",\"3-1\",\"3998\",\"40\",\"1\",\"Testing\",\"Stims/Figures/118-C-20-2.bmp\",\"vashava\",\"Down\",\"40\",\"2\",\"22\",\"3B\",\"C1\",\"J\",\"46\"
\"\",\"\",\"approach-retreat\",\"195\",\"1269704\",\"0.0-195.0\",\"\",\"\",\"3-1\",\"4316\",\"37\",\"1\",\"Testing\",\"Stims/Figures/7-C-20-4.bmp\",\"vashava\",\"Left\",\"37\",\"2\",\"23\",\"3B\",\"C1\",\"J\",\"47\"
\"\",\"\",\"approach-retreat\",\"196\",\"1275774\",\"0.0-196.0\",\"\",\"\",\"3-1\",\"4562\",\"37\",\"1\",\"Testing\",\"Stims/Figures/128-C-30-3.bmp\",\"vashava\",\"Left\",\"37\",\"2\",\"24\",\"3B\",\"C1\",\"J\",\"48\"
\"\",\"\",\"approach-retreat\",\"197\",\"1284134\",\"0.0-197.0\",\"\",\"\",\"3-1\",\"6854\",\"38\",\"1\",\"Testing\",\"Stims/Figures/118-C-20-2.bmp\",\"vashava\",\"Up\",\"38\",\"3\",\"1\",\"3B\",\"C1\",\"J\",\"49\"
\"\",\"\",\"approach-retreat\",\"198\",\"1289724\",\"0.0-198.0\",\"\",\"\",\"3-1\",\"4080\",\"38\",\"1\",\"Testing\",\"Stims/Figures/74-C-20-4.bmp\",\"vashava\",\"Up\",\"38\",\"3\",\"2\",\"3B\",\"C1\",\"J\",\"50\"
\"\",\"\",\"approach-retreat\",\"199\",\"1295254\",\"0.0-199.0\",\"\",\"\",\"3-1\",\"4022\",\"38\",\"1\",\"Testing\",\"Stims/Figures/118-J-0-2.bmp\",\"sasaha\",\"Down\",\"38\",\"3\",\"3\",\"3B\",\"C2\",\"J\",\"51\"
\"\",\"\",\"approach-retreat\",\"200\",\"1300954\",\"0.0-200.0\",\"\",\"\",\"3-1\",\"4196\",\"38\",\"1\",\"Testing\",\"Stims/Figures/93-C-30-1.bmp\",\"vashava\",\"Up\",\"38\",\"3\",\"4\",\"3B\",\"C1\",\"J\",\"52\"
\"\",\"\",\"approach-retreat\",\"201\",\"1307094\",\"0.0-201.0\",\"\",\"\",\"3-1\",\"4632\",\"38\",\"1\",\"Testing\",\"Stims/Figures/93-J-0-1.bmp\",\"sasaha\",\"Down\",\"38\",\"3\",\"5\",\"3B\",\"C2\",\"J\",\"53\"
\"\",\"\",\"approach-retreat\",\"202\",\"1314836\",\"0.0-202.0\",\"\",\"\",\"3-1\",\"6230\",\"39\",\"0\",\"Testing\",\"Stims/Figures/144-J-10-3.bmp\",\"sasaha\",\"Right\",\"37\",\"3\",\"6\",\"3B\",\"C2\",\"J\",\"54\"
\"\",\"\",\"approach-retreat\",\"203\",\"1320526\",\"0.0-203.0\",\"\",\"\",\"3-1\",\"4178\",\"37\",\"1\",\"Testing\",\"Stims/Figures/71-J-0-1.bmp\",\"sasaha\",\"Right\",\"37\",\"3\",\"7\",\"3B\",\"C2\",\"J\",\"55\"
\"\",\"\",\"approach-retreat\",\"204\",\"1327704\",\"0.0-204.0\",\"\",\"\",\"3-1\",\"5668\",\"40\",\"0\",\"Testing\",\"Stims/Figures/85-J-0-2.bmp\",\"sasaha\",\"Down\",\"38\",\"3\",\"8\",\"3B\",\"C2\",\"J\",\"56\"
\"\",\"\",\"approach-retreat\",\"205\",\"1335984\",\"0.0-205.0\",\"\",\"\",\"3-1\",\"6768\",\"39\",\"1\",\"Testing\",\"Stims/Figures/94-J-0-2.bmp\",\"sasaha\",\"Left\",\"39\",\"3\",\"9\",\"3B\",\"C2\",\"J\",\"57\"
\"\",\"\",\"approach-retreat\",\"206\",\"1342944\",\"0.0-206.0\",\"\",\"\",\"3-1\",\"5446\",\"39\",\"1\",\"Testing\",\"Stims/Figures/87-C-20-4.bmp\",\"vashava\",\"Right\",\"39\",\"3\",\"10\",\"3B\",\"C1\",\"J\",\"58\"
\"\",\"\",\"approach-retreat\",\"207\",\"1351094\",\"0.0-207.0\",\"\",\"\",\"3-1\",\"6636\",\"37\",\"0\",\"Testing\",\"Stims/Figures/44-J-10-3.bmp\",\"sasaha\",\"Left\",\"39\",\"3\",\"11\",\"3B\",\"C2\",\"J\",\"59\"
\"\",\"\",\"approach-retreat\",\"208\",\"1356624\",\"0.0-208.0\",\"\",\"\",\"3-1\",\"4026\",\"39\",\"1\",\"Testing\",\"Stims/Figures/7-C-20-4.bmp\",\"vashava\",\"Right\",\"39\",\"3\",\"12\",\"3B\",\"C1\",\"J\",\"60\"
\"\",\"\",\"approach-retreat\",\"209\",\"1362384\",\"0.0-209.0\",\"\",\"\",\"3-1\",\"4250\",\"37\",\"1\",\"Testing\",\"Stims/Figures/128-C-30-3.bmp\",\"vashava\",\"Left\",\"37\",\"3\",\"13\",\"3B\",\"C1\",\"J\",\"61\"
\"\",\"\",\"approach-retreat\",\"210\",\"1368234\",\"0.0-210.0\",\"\",\"\",\"3-1\",\"4344\",\"40\",\"0\",\"Testing\",\"Stims/Figures/7-J-10-4.bmp\",\"sasaha\",\"Down\",\"38\",\"3\",\"14\",\"3B\",\"C2\",\"J\",\"62\"
\"\",\"\",\"approach-retreat\",\"211\",\"1375382\",\"0.0-211.0\",\"\",\"\",\"3-1\",\"5646\",\"39\",\"1\",\"Testing\",\"Stims/Figures/128-J-10-3.bmp\",\"sasaha\",\"Left\",\"39\",\"3\",\"15\",\"3B\",\"C2\",\"J\",\"63\"
\"\",\"\",\"approach-retreat\",\"212\",\"1380872\",\"0.0-212.0\",\"\",\"\",\"3-1\",\"3984\",\"40\",\"1\",\"Testing\",\"Stims/Figures/57-C-30-1.bmp\",\"vashava\",\"Down\",\"40\",\"3\",\"16\",\"3B\",\"C1\",\"J\",\"64\"
\"\",\"\",\"approach-retreat\",\"213\",\"1387822\",\"0.0-213.0\",\"\",\"\",\"3-1\",\"5438\",\"37\",\"0\",\"Testing\",\"Stims/Figures/71-C-30-1.bmp\",\"vashava\",\"Right\",\"39\",\"3\",\"17\",\"3B\",\"C1\",\"J\",\"65\"
\"\",\"\",\"approach-retreat\",\"214\",\"1395002\",\"0.0-214.0\",\"\",\"\",\"3-1\",\"5670\",\"38\",\"1\",\"Testing\",\"Stims/Figures/144-C-30-3.bmp\",\"vashava\",\"Up\",\"38\",\"3\",\"18\",\"3B\",\"C1\",\"J\",\"66\"
\"\",\"\",\"approach-retreat\",\"215\",\"1402272\",\"0.0-215.0\",\"\",\"\",\"3-1\",\"5760\",\"37\",\"1\",\"Testing\",\"Stims/Figures/94-C-20-2.bmp\",\"vashava\",\"Left\",\"37\",\"3\",\"19\",\"3B\",\"C1\",\"J\",\"67\"
\"\",\"\",\"approach-retreat\",\"216\",\"1408542\",\"0.0-216.0\",\"\",\"\",\"3-1\",\"4766\",\"40\",\"0\",\"Testing\",\"Stims/Figures/85-C-20-2.bmp\",\"vashava\",\"Up\",\"38\",\"3\",\"20\",\"3B\",\"C1\",\"J\",\"68\"
\"\",\"\",\"approach-retreat\",\"217\",\"1414092\",\"0.0-217.0\",\"\",\"\",\"3-1\",\"4040\",\"40\",\"1\",\"Testing\",\"Stims/Figures/87-J-10-4.bmp\",\"sasaha\",\"Up\",\"40\",\"3\",\"21\",\"3B\",\"C2\",\"J\",\"69\"
\"\",\"\",\"approach-retreat\",\"218\",\"1419772\",\"0.0-218.0\",\"\",\"\",\"3-1\",\"4176\",\"39\",\"0\",\"Testing\",\"Stims/Figures/74-J-10-4.bmp\",\"sasaha\",\"Right\",\"37\",\"3\",\"22\",\"3B\",\"C2\",\"J\",\"70\"
\"\",\"\",\"approach-retreat\",\"219\",\"1426222\",\"0.0-219.0\",\"\",\"\",\"3-1\",\"4938\",\"37\",\"0\",\"Testing\",\"Stims/Figures/57-J-0-1.bmp\",\"sasaha\",\"Left\",\"39\",\"3\",\"23\",\"3B\",\"C2\",\"J\",\"71\"
\"\",\"\",\"approach-retreat\",\"220\",\"1434650\",\"0.0-220.0\",\"\",\"\",\"3-1\",\"6924\",\"40\",\"1\",\"Testing\",\"Stims/Figures/44-C-30-3.bmp\",\"vashava\",\"Down\",\"40\",\"3\",\"24\",\"3B\",\"C1\",\"J\",\"72\"
\"\",\"\",\"approach-retreat\",\"221\",\"1440600\",\"0.0-221.0\",\"\",\"\",\"3-1\",\"4446\",\"39\",\"1\",\"Testing\",\"Stims/Figures/44-J-10-3.bmp\",\"sasaha\",\"Left\",\"39\",\"4\",\"1\",\"3B\",\"C2\",\"J\",\"73\"
\"\",\"\",\"approach-retreat\",\"222\",\"1446350\",\"0.0-222.0\",\"\",\"\",\"3-1\",\"4240\",\"40\",\"0\",\"Testing\",\"Stims/Figures/7-J-10-4.bmp\",\"sasaha\",\"Down\",\"38\",\"4\",\"2\",\"3B\",\"C2\",\"J\",\"74\"
\"\",\"\",\"approach-retreat\",\"223\",\"1454400\",\"0.0-223.0\",\"\",\"\",\"3-1\",\"6546\",\"38\",\"1\",\"Testing\",\"Stims/Figures/118-C-20-2.bmp\",\"vashava\",\"Up\",\"38\",\"4\",\"3\",\"3B\",\"C1\",\"J\",\"75\"
\"\",\"\",\"approach-retreat\",\"224\",\"1459980\",\"0.0-224.0\",\"\",\"\",\"3-1\",\"4072\",\"38\",\"1\",\"Testing\",\"Stims/Figures/93-C-30-1.bmp\",\"vashava\",\"Up\",\"38\",\"4\",\"4\",\"3B\",\"C1\",\"J\",\"76\"
\"\",\"\",\"approach-retreat\",\"225\",\"1467480\",\"0.0-225.0\",\"\",\"\",\"3-1\",\"5996\",\"38\",\"1\",\"Testing\",\"Stims/Figures/85-J-0-2.bmp\",\"sasaha\",\"Down\",\"38\",\"4\",\"5\",\"3B\",\"C2\",\"J\",\"77\"
\"\",\"\",\"approach-retreat\",\"226\",\"1473080\",\"0.0-226.0\",\"\",\"\",\"3-1\",\"4092\",\"39\",\"1\",\"Testing\",\"Stims/Figures/128-C-30-3.bmp\",\"vashava\",\"Right\",\"39\",\"4\",\"6\",\"3B\",\"C1\",\"J\",\"78\"
\"\",\"\",\"approach-retreat\",\"227\",\"1478650\",\"0.0-227.0\",\"\",\"\",\"3-1\",\"4058\",\"38\",\"1\",\"Testing\",\"Stims/Figures/7-C-20-4.bmp\",\"vashava\",\"Up\",\"38\",\"4\",\"7\",\"3B\",\"C1\",\"J\",\"79\"
\"\",\"\",\"approach-retreat\",\"228\",\"1485358\",\"0.0-228.0\",\"\",\"\",\"3-1\",\"5200\",\"39\",\"1\",\"Testing\",\"Stims/Figures/94-C-20-2.bmp\",\"vashava\",\"Right\",\"39\",\"4\",\"8\",\"3B\",\"C1\",\"J\",\"80\"
\"\",\"\",\"approach-retreat\",\"229\",\"1491298\",\"0.0-229.0\",\"\",\"\",\"3-1\",\"4432\",\"39\",\"0\",\"Testing\",\"Stims/Figures/74-J-10-4.bmp\",\"sasaha\",\"Right\",\"37\",\"4\",\"9\",\"3B\",\"C2\",\"J\",\"81\"
\"\",\"\",\"approach-retreat\",\"230\",\"1496768\",\"0.0-230.0\",\"\",\"\",\"3-1\",\"3958\",\"39\",\"1\",\"Testing\",\"Stims/Figures/87-J-10-4.bmp\",\"sasaha\",\"Left\",\"39\",\"4\",\"10\",\"3B\",\"C2\",\"J\",\"82\"
\"\",\"\",\"approach-retreat\",\"231\",\"1503548\",\"0.0-231.0\",\"\",\"\",\"3-1\",\"5270\",\"39\",\"1\",\"Testing\",\"Stims/Figures/93-J-0-1.bmp\",\"sasaha\",\"Left\",\"39\",\"4\",\"11\",\"3B\",\"C2\",\"J\",\"83\"
\"\",\"\",\"approach-retreat\",\"232\",\"1509118\",\"0.0-232.0\",\"\",\"\",\"3-1\",\"4062\",\"37\",\"0\",\"Testing\",\"Stims/Figures/71-C-30-1.bmp\",\"vashava\",\"Right\",\"39\",\"4\",\"12\",\"3B\",\"C1\",\"J\",\"84\"
\"\",\"\",\"approach-retreat\",\"233\",\"1517830\",\"0.0-233.0\",\"\",\"\",\"3-1\",\"7176\",\"37\",\"0\",\"Testing\",\"Stims/Figures/85-C-20-2.bmp\",\"vashava\",\"Right\",\"39\",\"4\",\"13\",\"3B\",\"C1\",\"J\",\"85\"
\"\",\"\",\"approach-retreat\",\"234\",\"1525360\",\"0.0-234.0\",\"\",\"\",\"3-1\",\"6022\",\"38\",\"1\",\"Testing\",\"Stims/Figures/94-J-0-2.bmp\",\"sasaha\",\"Down\",\"38\",\"4\",\"14\",\"3B\",\"C2\",\"J\",\"86\"
\"\",\"\",\"approach-retreat\",\"235\",\"1532960\",\"0.0-235.0\",\"\",\"\",\"3-1\",\"6088\",\"38\",\"0\",\"Testing\",\"Stims/Figures/57-J-0-1.bmp\",\"sasaha\",\"Up\",\"40\",\"4\",\"15\",\"3B\",\"C2\",\"J\",\"87\"
\"\",\"\",\"approach-retreat\",\"236\",\"1538660\",\"0.0-236.0\",\"\",\"\",\"3-1\",\"4190\",\"37\",\"1\",\"Testing\",\"Stims/Figures/57-C-30-1.bmp\",\"vashava\",\"Left\",\"37\",\"4\",\"16\",\"3B\",\"C1\",\"J\",\"88\"
\"\",\"\",\"approach-retreat\",\"237\",\"1544290\",\"0.0-237.0\",\"\",\"\",\"3-1\",\"4122\",\"38\",\"0\",\"Testing\",\"Stims/Figures/144-J-10-3.bmp\",\"sasaha\",\"Up\",\"40\",\"4\",\"17\",\"3B\",\"C2\",\"J\",\"89\"
\"\",\"\",\"approach-retreat\",\"238\",\"1550528\",\"0.0-238.0\",\"\",\"\",\"3-1\",\"4730\",\"39\",\"1\",\"Testing\",\"Stims/Figures/44-C-30-3.bmp\",\"vashava\",\"Right\",\"39\",\"4\",\"18\",\"3B\",\"C1\",\"J\",\"90\"
\"\",\"\",\"approach-retreat\",\"239\",\"1558028\",\"0.0-239.0\",\"\",\"\",\"3-1\",\"5994\",\"40\",\"0\",\"Testing\",\"Stims/Figures/71-J-0-1.bmp\",\"sasaha\",\"Down\",\"38\",\"4\",\"19\",\"3B\",\"C2\",\"J\",\"91\"
\"\",\"\",\"approach-retreat\",\"240\",\"1564928\",\"0.0-240.0\",\"\",\"\",\"3-1\",\"5388\",\"37\",\"1\",\"Testing\",\"Stims/Figures/144-C-30-3.bmp\",\"vashava\",\"Left\",\"37\",\"4\",\"20\",\"3B\",\"C1\",\"J\",\"92\"
\"\",\"\",\"approach-retreat\",\"241\",\"1572150\",\"0.0-241.0\",\"\",\"\",\"3-1\",\"5718\",\"37\",\"1\",\"Testing\",\"Stims/Figures/74-C-20-4.bmp\",\"vashava\",\"Left\",\"37\",\"4\",\"21\",\"3B\",\"C1\",\"J\",\"93\"
\"\",\"\",\"approach-retreat\",\"242\",\"1577558\",\"0.0-242.0\",\"\",\"\",\"3-1\",\"3906\",\"38\",\"0\",\"Testing\",\"Stims/Figures/87-C-20-4.bmp\",\"vashava\",\"Down\",\"40\",\"4\",\"22\",\"3B\",\"C1\",\"J\",\"94\"
\"\",\"\",\"approach-retreat\",\"243\",\"1584368\",\"0.0-243.0\",\"\",\"\",\"3-1\",\"5298\",\"38\",\"0\",\"Testing\",\"Stims/Figures/128-J-10-3.bmp\",\"sasaha\",\"Up\",\"40\",\"4\",\"23\",\"3B\",\"C2\",\"J\",\"95\"
\"\",\"\",\"approach-retreat\",\"244\",\"1589868\",\"0.0-244.0\",\"\",\"\",\"3-1\",\"3992\",\"38\",\"1\",\"Testing\",\"Stims/Figures/118-J-0-2.bmp\",\"sasaha\",\"Down\",\"38\",\"4\",\"24\",\"3B\",\"C2\",\"J\",\"96\"
\"86154\",\"\",\"survey-text\",\"245\",\"1676030\",\"0.0-245.0\",\"\",\"{\"\"Q0\"\":\"\"PS140004\"\"}\",\"\",\"\",\"\",\"\",\"\",\"\",\"\",\"\",\"\",\"\",\"\",\"\",\"\",\"\",\"\"
