\"rt\",\"key_press\",\"trial_type\",\"trial_index\",\"time_elapsed\",\"internal_node_id\",\"view_history\",\"responses\",\"Id\",\"Rt\",\"ResKeyCode\",\"ResCorr\",\"TrialType2\",\"Image\",\"Label\",\"Location\",\"CorrectResponse\",\"Block\",\"BlockTrial\",\"Condition\",\"LabelType\",\"Subcondition\",\"trialNum\"
\"52628\",\"32\",\"text\",\"0\",\"52635\",\"0.0-0.0-0.0\",\"\",\"\",\"\",\"\",\"\",\"\",\"\",\"\",\"\",\"\",\"\",\"\",\"\",\"\",\"\",\"\",\"\"
\"59947\",\"\",\"instructions\",\"1\",\"112585\",\"0.0-1.0\",\"[{\"\"page_index\"\":0,\"\"viewing_time\"\":59946}]\",\"\",\"\",\"\",\"\",\"\",\"\",\"\",\"\",\"\",\"\",\"\",\"\",\"\",\"\",\"\",\"\"
\"25413\",\"\",\"survey-multi-choice\",\"2\",\"138043\",\"0.0-2.0\",\"\",\"{\"\"Q0\"\":\"\"Da\"\",\"\"Q1\"\":\"\"Da\"\",\"\"Q2\"\":\"\"Da\"\",\"\"Q3\"\":\"\"Da\"\",\"\"Q4\"\":\"\"Da\"\",\"\"Q5\"\":\"\"Da\"\"}\",\"\",\"\",\"\",\"\",\"\",\"\",\"\",\"\",\"\",\"\",\"\",\"\",\"\",\"\",\"\"
\"\",\"\",\"bio\",\"3\",\"145812\",\"0.0-3.0\",\"\",\"{\"\"age\"\":\"\"20\"\",\"\"gender\"\":\"\"f\"\",\"\"specify\"\":\"\"\"\"}\",\"\",\"\",\"\",\"\",\"\",\"\",\"\",\"\",\"\",\"\",\"\",\"\",\"\",\"\",\"\"
\"\",\"\",\"approach-retreat\",\"4\",\"154605\",\"0.0-4.0\",\"\",\"\",\"3-3\",\"7269\",\"40\",\"1\",\"Training\",\"Stims/Figures/27-J-0-1.bmp\",\"pakata\",\"Up\",\"40\",\"1\",\"1\",\"4\",\"P\",\"J\",\"1\"
\"\",\"\",\"approach-retreat\",\"5\",\"161186\",\"0.0-5.0\",\"\",\"\",\"3-3\",\"5065\",\"38\",\"0\",\"Training\",\"Stims/Figures/128-J-10-3.bmp\",\"papa:ka\",\"Up\",\"40\",\"1\",\"2\",\"4\",\"P\",\"J\",\"2\"
\"\",\"\",\"approach-retreat\",\"6\",\"170192\",\"0.0-6.0\",\"\",\"\",\"3-3\",\"7488\",\"40\",\"1\",\"Training\",\"Stims/Figures/85-C-20-2.bmp\",\"ma:mana\",\"Down\",\"40\",\"1\",\"3\",\"4\",\"S\",\"J\",\"3\"
\"\",\"\",\"approach-retreat\",\"7\",\"178890\",\"0.0-7.0\",\"\",\"\",\"3-3\",\"7184\",\"37\",\"0\",\"Training\",\"Stims/Figures/84-C-20-2.bmp\",\"na:la:na\",\"Right\",\"39\",\"1\",\"4\",\"4\",\"S\",\"J\",\"4\"
\"\",\"\",\"approach-retreat\",\"8\",\"185703\",\"0.0-8.0\",\"\",\"\",\"3-3\",\"5293\",\"37\",\"0\",\"Training\",\"Stims/Figures/44-C-30-3.bmp\",\"ma:la:la\",\"Right\",\"39\",\"1\",\"5\",\"4\",\"S\",\"J\",\"5\"
\"\",\"\",\"approach-retreat\",\"9\",\"192978\",\"0.0-9.0\",\"\",\"\",\"3-3\",\"5764\",\"37\",\"0\",\"Training\",\"Stims/Figures/44-J-10-3.bmp\",\"papata\",\"Left\",\"39\",\"1\",\"6\",\"4\",\"P\",\"J\",\"6\"
\"\",\"\",\"approach-retreat\",\"10\",\"200757\",\"0.0-10.0\",\"\",\"\",\"3-3\",\"6267\",\"39\",\"1\",\"Training\",\"Stims/Figures/19-C-20-4.bmp\",\"ma:la:na\",\"Right\",\"39\",\"1\",\"7\",\"4\",\"S\",\"J\",\"7\"
\"\",\"\",\"approach-retreat\",\"11\",\"206937\",\"0.0-11.0\",\"\",\"\",\"3-3\",\"4659\",\"39\",\"1\",\"Training\",\"Stims/Figures/85-J-0-2.bmp\",\"tapata\",\"Left\",\"39\",\"1\",\"8\",\"4\",\"P\",\"J\",\"8\"
\"\",\"\",\"approach-retreat\",\"12\",\"213880\",\"0.0-12.0\",\"\",\"\",\"3-3\",\"5428\",\"39\",\"1\",\"Training\",\"Stims/Figures/128-C-30-3.bmp\",\"mala:na\",\"Right\",\"39\",\"1\",\"9\",\"4\",\"S\",\"J\",\"9\"
\"\",\"\",\"approach-retreat\",\"13\",\"219827\",\"0.0-13.0\",\"\",\"\",\"3-3\",\"4422\",\"38\",\"0\",\"Training\",\"Stims/Figures/84-J-0-2.bmp\",\"paka:ta\",\"Up\",\"40\",\"1\",\"10\",\"4\",\"P\",\"J\",\"10\"
\"\",\"\",\"approach-retreat\",\"14\",\"226612\",\"0.0-14.0\",\"\",\"\",\"3-3\",\"5273\",\"38\",\"0\",\"Training\",\"Stims/Figures/27-C-30-1.bmp\",\"ma:lana\",\"Down\",\"40\",\"1\",\"11\",\"4\",\"S\",\"J\",\"11\"
\"\",\"\",\"approach-retreat\",\"15\",\"233366\",\"0.0-15.0\",\"\",\"\",\"3-3\",\"5237\",\"39\",\"1\",\"Training\",\"Stims/Figures/86-J-0-1.bmp\",\"tapa:ta\",\"Left\",\"39\",\"1\",\"12\",\"4\",\"P\",\"J\",\"12\"
\"\",\"\",\"approach-retreat\",\"16\",\"238928\",\"0.0-16.0\",\"\",\"\",\"3-3\",\"4042\",\"40\",\"1\",\"Training\",\"Stims/Figures/102-J-10-4.bmp\",\"papa:ta\",\"Up\",\"40\",\"1\",\"13\",\"4\",\"P\",\"J\",\"13\"
\"\",\"\",\"approach-retreat\",\"17\",\"245249\",\"0.0-17.0\",\"\",\"\",\"3-3\",\"4808\",\"40\",\"0\",\"Training\",\"Stims/Figures/19-J-10-4.bmp\",\"pa:pa:ka\",\"Down\",\"38\",\"1\",\"14\",\"4\",\"P\",\"J\",\"14\"
\"\",\"\",\"approach-retreat\",\"18\",\"252141\",\"0.0-18.0\",\"\",\"\",\"3-3\",\"5380\",\"38\",\"0\",\"Training\",\"Stims/Figures/86-C-30-1.bmp\",\"malala\",\"Down\",\"40\",\"1\",\"15\",\"4\",\"S\",\"J\",\"15\"
\"\",\"\",\"approach-retreat\",\"19\",\"258598\",\"0.0-19.0\",\"\",\"\",\"3-3\",\"4936\",\"39\",\"0\",\"Training\",\"Stims/Figures/102-C-20-4.bmp\",\"nala:la\",\"Left\",\"37\",\"1\",\"16\",\"4\",\"S\",\"J\",\"16\"
\"\",\"\",\"approach-retreat\",\"20\",\"264451\",\"0.0-20.0\",\"\",\"\",\"3-3\",\"4340\",\"38\",\"0\",\"Training\",\"Stims/Figures/84-C-20-2.bmp\",\"na:la:na\",\"Down\",\"40\",\"2\",\"1\",\"4\",\"S\",\"J\",\"17\"
\"\",\"\",\"approach-retreat\",\"21\",\"270297\",\"0.0-21.0\",\"\",\"\",\"3-3\",\"4321\",\"39\",\"0\",\"Training\",\"Stims/Figures/102-C-20-4.bmp\",\"nala:la\",\"Left\",\"37\",\"2\",\"2\",\"4\",\"S\",\"J\",\"18\"
\"\",\"\",\"approach-retreat\",\"22\",\"277401\",\"0.0-22.0\",\"\",\"\",\"3-3\",\"5592\",\"38\",\"1\",\"Training\",\"Stims/Figures/128-C-30-3.bmp\",\"mala:na\",\"Up\",\"38\",\"2\",\"3\",\"4\",\"S\",\"J\",\"19\"
\"\",\"\",\"approach-retreat\",\"23\",\"283578\",\"0.0-23.0\",\"\",\"\",\"3-3\",\"4665\",\"37\",\"1\",\"Training\",\"Stims/Figures/128-J-10-3.bmp\",\"papa:ka\",\"Right\",\"37\",\"2\",\"4\",\"4\",\"P\",\"J\",\"20\"
\"\",\"\",\"approach-retreat\",\"24\",\"289758\",\"0.0-24.0\",\"\",\"\",\"3-3\",\"4668\",\"40\",\"1\",\"Training\",\"Stims/Figures/19-C-20-4.bmp\",\"ma:la:na\",\"Down\",\"40\",\"2\",\"5\",\"4\",\"S\",\"J\",\"21\"
\"\",\"\",\"approach-retreat\",\"25\",\"296573\",\"0.0-25.0\",\"\",\"\",\"3-3\",\"5301\",\"39\",\"0\",\"Training\",\"Stims/Figures/102-J-10-4.bmp\",\"papa:ta\",\"Right\",\"37\",\"2\",\"6\",\"4\",\"P\",\"J\",\"22\"
\"\",\"\",\"approach-retreat\",\"26\",\"302898\",\"0.0-26.0\",\"\",\"\",\"3-3\",\"4815\",\"40\",\"1\",\"Training\",\"Stims/Figures/27-J-0-1.bmp\",\"pakata\",\"Up\",\"40\",\"2\",\"7\",\"4\",\"P\",\"J\",\"23\"
\"\",\"\",\"approach-retreat\",\"27\",\"309135\",\"0.0-27.0\",\"\",\"\",\"3-3\",\"4727\",\"38\",\"0\",\"Training\",\"Stims/Figures/86-J-0-1.bmp\",\"tapa:ta\",\"Up\",\"40\",\"2\",\"8\",\"4\",\"P\",\"J\",\"24\"
\"\",\"\",\"approach-retreat\",\"28\",\"315329\",\"0.0-28.0\",\"\",\"\",\"3-3\",\"4675\",\"40\",\"0\",\"Training\",\"Stims/Figures/19-J-10-4.bmp\",\"pa:pa:ka\",\"Down\",\"38\",\"2\",\"9\",\"4\",\"P\",\"J\",\"25\"
\"\",\"\",\"approach-retreat\",\"29\",\"321426\",\"0.0-29.0\",\"\",\"\",\"3-3\",\"4564\",\"40\",\"1\",\"Training\",\"Stims/Figures/44-J-10-3.bmp\",\"papata\",\"Up\",\"40\",\"2\",\"10\",\"4\",\"P\",\"J\",\"26\"
\"\",\"\",\"approach-retreat\",\"30\",\"327181\",\"0.0-30.0\",\"\",\"\",\"3-3\",\"4238\",\"37\",\"1\",\"Training\",\"Stims/Figures/86-C-30-1.bmp\",\"malala\",\"Left\",\"37\",\"2\",\"11\",\"4\",\"S\",\"J\",\"27\"
\"\",\"\",\"approach-retreat\",\"31\",\"333461\",\"0.0-31.0\",\"\",\"\",\"3-3\",\"4767\",\"39\",\"1\",\"Training\",\"Stims/Figures/85-C-20-2.bmp\",\"ma:mana\",\"Right\",\"39\",\"2\",\"12\",\"4\",\"S\",\"J\",\"28\"
\"\",\"\",\"approach-retreat\",\"32\",\"339606\",\"0.0-32.0\",\"\",\"\",\"3-3\",\"4624\",\"37\",\"1\",\"Training\",\"Stims/Figures/27-C-30-1.bmp\",\"ma:lana\",\"Left\",\"37\",\"2\",\"13\",\"4\",\"S\",\"J\",\"29\"
\"\",\"\",\"approach-retreat\",\"33\",\"345603\",\"0.0-33.0\",\"\",\"\",\"3-3\",\"4474\",\"39\",\"0\",\"Training\",\"Stims/Figures/85-J-0-2.bmp\",\"tapata\",\"Right\",\"37\",\"2\",\"14\",\"4\",\"P\",\"J\",\"30\"
\"\",\"\",\"approach-retreat\",\"34\",\"351554\",\"0.0-34.0\",\"\",\"\",\"3-3\",\"4441\",\"39\",\"1\",\"Training\",\"Stims/Figures/84-J-0-2.bmp\",\"paka:ta\",\"Left\",\"39\",\"2\",\"15\",\"4\",\"P\",\"J\",\"31\"
\"\",\"\",\"approach-retreat\",\"35\",\"357742\",\"0.0-35.0\",\"\",\"\",\"3-3\",\"4667\",\"40\",\"1\",\"Training\",\"Stims/Figures/44-C-30-3.bmp\",\"ma:la:la\",\"Down\",\"40\",\"2\",\"16\",\"4\",\"S\",\"J\",\"32\"
\"\",\"\",\"approach-retreat\",\"36\",\"364105\",\"0.0-36.0\",\"\",\"\",\"3-3\",\"4841\",\"39\",\"1\",\"Training\",\"Stims/Figures/102-C-20-4.bmp\",\"nala:la\",\"Right\",\"39\",\"3\",\"1\",\"4\",\"S\",\"J\",\"33\"
\"\",\"\",\"approach-retreat\",\"37\",\"370334\",\"0.0-37.0\",\"\",\"\",\"3-3\",\"4705\",\"38\",\"1\",\"Training\",\"Stims/Figures/84-C-20-2.bmp\",\"na:la:na\",\"Up\",\"38\",\"3\",\"2\",\"4\",\"S\",\"J\",\"34\"
\"\",\"\",\"approach-retreat\",\"38\",\"376144\",\"0.0-38.0\",\"\",\"\",\"3-3\",\"4294\",\"38\",\"0\",\"Training\",\"Stims/Figures/86-J-0-1.bmp\",\"tapa:ta\",\"Up\",\"40\",\"3\",\"3\",\"4\",\"P\",\"J\",\"35\"
\"\",\"\",\"approach-retreat\",\"39\",\"381874\",\"0.0-39.0\",\"\",\"\",\"3-3\",\"4205\",\"38\",\"1\",\"Training\",\"Stims/Figures/27-C-30-1.bmp\",\"ma:lana\",\"Up\",\"38\",\"3\",\"4\",\"4\",\"S\",\"J\",\"36\"
\"\",\"\",\"approach-retreat\",\"40\",\"387984\",\"0.0-40.0\",\"\",\"\",\"3-3\",\"4590\",\"40\",\"1\",\"Training\",\"Stims/Figures/86-C-30-1.bmp\",\"malala\",\"Down\",\"40\",\"3\",\"5\",\"4\",\"S\",\"J\",\"37\"
\"\",\"\",\"approach-retreat\",\"41\",\"393900\",\"0.0-41.0\",\"\",\"\",\"3-3\",\"4397\",\"37\",\"1\",\"Training\",\"Stims/Figures/102-J-10-4.bmp\",\"papa:ta\",\"Right\",\"37\",\"3\",\"6\",\"4\",\"P\",\"J\",\"38\"
\"\",\"\",\"approach-retreat\",\"42\",\"400195\",\"0.0-42.0\",\"\",\"\",\"3-3\",\"4770\",\"37\",\"1\",\"Training\",\"Stims/Figures/128-J-10-3.bmp\",\"papa:ka\",\"Right\",\"37\",\"3\",\"7\",\"4\",\"P\",\"J\",\"39\"
\"\",\"\",\"approach-retreat\",\"43\",\"406023\",\"0.0-43.0\",\"\",\"\",\"3-3\",\"4317\",\"38\",\"1\",\"Training\",\"Stims/Figures/19-J-10-4.bmp\",\"pa:pa:ka\",\"Down\",\"38\",\"3\",\"8\",\"4\",\"P\",\"J\",\"40\"
\"\",\"\",\"approach-retreat\",\"44\",\"411768\",\"0.0-44.0\",\"\",\"\",\"3-3\",\"4224\",\"38\",\"1\",\"Training\",\"Stims/Figures/44-J-10-3.bmp\",\"papata\",\"Down\",\"38\",\"3\",\"9\",\"4\",\"P\",\"J\",\"41\"
\"\",\"\",\"approach-retreat\",\"45\",\"417460\",\"0.0-45.0\",\"\",\"\",\"3-3\",\"4175\",\"40\",\"1\",\"Training\",\"Stims/Figures/44-C-30-3.bmp\",\"ma:la:la\",\"Down\",\"40\",\"3\",\"10\",\"4\",\"S\",\"J\",\"42\"
\"\",\"\",\"approach-retreat\",\"46\",\"424175\",\"0.0-46.0\",\"\",\"\",\"3-3\",\"5195\",\"39\",\"1\",\"Training\",\"Stims/Figures/19-C-20-4.bmp\",\"ma:la:na\",\"Right\",\"39\",\"3\",\"11\",\"4\",\"S\",\"J\",\"43\"
\"\",\"\",\"approach-retreat\",\"47\",\"430078\",\"0.0-47.0\",\"\",\"\",\"3-3\",\"4392\",\"40\",\"1\",\"Training\",\"Stims/Figures/85-J-0-2.bmp\",\"tapata\",\"Up\",\"40\",\"3\",\"12\",\"4\",\"P\",\"J\",\"44\"
\"\",\"\",\"approach-retreat\",\"48\",\"435802\",\"0.0-48.0\",\"\",\"\",\"3-3\",\"4211\",\"37\",\"1\",\"Training\",\"Stims/Figures/85-C-20-2.bmp\",\"ma:mana\",\"Left\",\"37\",\"3\",\"13\",\"4\",\"S\",\"J\",\"45\"
\"\",\"\",\"approach-retreat\",\"49\",\"441564\",\"0.0-49.0\",\"\",\"\",\"3-3\",\"4229\",\"37\",\"1\",\"Training\",\"Stims/Figures/128-C-30-3.bmp\",\"mala:na\",\"Left\",\"37\",\"3\",\"14\",\"4\",\"S\",\"J\",\"46\"
\"\",\"\",\"approach-retreat\",\"50\",\"447211\",\"0.0-50.0\",\"\",\"\",\"3-3\",\"4130\",\"39\",\"1\",\"Training\",\"Stims/Figures/84-J-0-2.bmp\",\"paka:ta\",\"Left\",\"39\",\"3\",\"15\",\"4\",\"P\",\"J\",\"47\"
\"\",\"\",\"approach-retreat\",\"51\",\"453161\",\"0.0-51.0\",\"\",\"\",\"3-3\",\"4437\",\"39\",\"1\",\"Training\",\"Stims/Figures/27-J-0-1.bmp\",\"pakata\",\"Left\",\"39\",\"3\",\"16\",\"4\",\"P\",\"J\",\"48\"
\"\",\"\",\"approach-retreat\",\"52\",\"460714\",\"0.0-52.0\",\"\",\"\",\"3-3\",\"6039\",\"39\",\"0\",\"Training\",\"Stims/Figures/102-J-10-4.bmp\",\"papa:ta\",\"Right\",\"37\",\"4\",\"1\",\"4\",\"P\",\"J\",\"49\"
\"\",\"\",\"approach-retreat\",\"53\",\"466902\",\"0.0-53.0\",\"\",\"\",\"3-3\",\"4666\",\"39\",\"1\",\"Training\",\"Stims/Figures/84-C-20-2.bmp\",\"na:la:na\",\"Right\",\"39\",\"4\",\"2\",\"4\",\"S\",\"J\",\"50\"
\"\",\"\",\"approach-retreat\",\"54\",\"472707\",\"0.0-54.0\",\"\",\"\",\"3-3\",\"4285\",\"39\",\"1\",\"Training\",\"Stims/Figures/128-J-10-3.bmp\",\"papa:ka\",\"Left\",\"39\",\"4\",\"3\",\"4\",\"P\",\"J\",\"51\"
\"\",\"\",\"approach-retreat\",\"55\",\"478394\",\"0.0-55.0\",\"\",\"\",\"3-3\",\"4165\",\"38\",\"0\",\"Training\",\"Stims/Figures/102-C-20-4.bmp\",\"nala:la\",\"Down\",\"40\",\"4\",\"4\",\"4\",\"S\",\"J\",\"52\"
\"\",\"\",\"approach-retreat\",\"56\",\"484284\",\"0.0-56.0\",\"\",\"\",\"3-3\",\"4365\",\"40\",\"1\",\"Training\",\"Stims/Figures/84-J-0-2.bmp\",\"paka:ta\",\"Up\",\"40\",\"4\",\"5\",\"4\",\"P\",\"J\",\"53\"
\"\",\"\",\"approach-retreat\",\"57\",\"489897\",\"0.0-57.0\",\"\",\"\",\"3-3\",\"4101\",\"39\",\"1\",\"Training\",\"Stims/Figures/44-J-10-3.bmp\",\"papata\",\"Left\",\"39\",\"4\",\"6\",\"4\",\"P\",\"J\",\"54\"
\"\",\"\",\"approach-retreat\",\"58\",\"495690\",\"0.0-58.0\",\"\",\"\",\"3-3\",\"4268\",\"38\",\"1\",\"Training\",\"Stims/Figures/85-J-0-2.bmp\",\"tapata\",\"Down\",\"38\",\"4\",\"7\",\"4\",\"P\",\"J\",\"55\"
\"\",\"\",\"approach-retreat\",\"59\",\"502554\",\"0.0-59.0\",\"\",\"\",\"3-3\",\"5350\",\"38\",\"1\",\"Training\",\"Stims/Figures/86-C-30-1.bmp\",\"malala\",\"Up\",\"38\",\"4\",\"8\",\"4\",\"S\",\"J\",\"56\"
\"\",\"\",\"approach-retreat\",\"60\",\"508467\",\"0.0-60.0\",\"\",\"\",\"3-3\",\"4394\",\"37\",\"1\",\"Training\",\"Stims/Figures/19-J-10-4.bmp\",\"pa:pa:ka\",\"Right\",\"37\",\"4\",\"9\",\"4\",\"P\",\"J\",\"57\"
\"\",\"\",\"approach-retreat\",\"61\",\"514163\",\"0.0-61.0\",\"\",\"\",\"3-3\",\"4186\",\"38\",\"1\",\"Training\",\"Stims/Figures/27-J-0-1.bmp\",\"pakata\",\"Down\",\"38\",\"4\",\"10\",\"4\",\"P\",\"J\",\"58\"
\"\",\"\",\"approach-retreat\",\"62\",\"520940\",\"0.0-62.0\",\"\",\"\",\"3-3\",\"5258\",\"38\",\"1\",\"Training\",\"Stims/Figures/44-C-30-3.bmp\",\"ma:la:la\",\"Up\",\"38\",\"4\",\"11\",\"4\",\"S\",\"J\",\"59\"
\"\",\"\",\"approach-retreat\",\"63\",\"526684\",\"0.0-63.0\",\"\",\"\",\"3-3\",\"4227\",\"38\",\"1\",\"Training\",\"Stims/Figures/27-C-30-1.bmp\",\"ma:lana\",\"Up\",\"38\",\"4\",\"12\",\"4\",\"S\",\"J\",\"60\"
\"\",\"\",\"approach-retreat\",\"64\",\"532577\",\"0.0-64.0\",\"\",\"\",\"3-3\",\"4379\",\"40\",\"0\",\"Training\",\"Stims/Figures/86-J-0-1.bmp\",\"tapa:ta\",\"Down\",\"38\",\"4\",\"13\",\"4\",\"P\",\"J\",\"61\"
\"\",\"\",\"approach-retreat\",\"65\",\"538376\",\"0.0-65.0\",\"\",\"\",\"3-3\",\"4278\",\"37\",\"1\",\"Training\",\"Stims/Figures/85-C-20-2.bmp\",\"ma:mana\",\"Left\",\"37\",\"4\",\"14\",\"4\",\"S\",\"J\",\"62\"
\"\",\"\",\"approach-retreat\",\"66\",\"544447\",\"0.0-66.0\",\"\",\"\",\"3-3\",\"4552\",\"39\",\"1\",\"Training\",\"Stims/Figures/128-C-30-3.bmp\",\"mala:na\",\"Right\",\"39\",\"4\",\"15\",\"4\",\"S\",\"J\",\"63\"
\"\",\"\",\"approach-retreat\",\"67\",\"550185\",\"0.0-67.0\",\"\",\"\",\"3-3\",\"4226\",\"37\",\"1\",\"Training\",\"Stims/Figures/19-C-20-4.bmp\",\"ma:la:na\",\"Left\",\"37\",\"4\",\"16\",\"4\",\"S\",\"J\",\"64\"
\"\",\"\",\"approach-retreat\",\"68\",\"556182\",\"0.0-68.0\",\"\",\"\",\"3-3\",\"4483\",\"40\",\"1\",\"Training\",\"Stims/Figures/19-C-20-4.bmp\",\"ma:la:na\",\"Down\",\"40\",\"5\",\"1\",\"4\",\"S\",\"J\",\"65\"
\"\",\"\",\"approach-retreat\",\"69\",\"562095\",\"0.0-69.0\",\"\",\"\",\"3-3\",\"4403\",\"39\",\"1\",\"Training\",\"Stims/Figures/85-J-0-2.bmp\",\"tapata\",\"Left\",\"39\",\"5\",\"2\",\"4\",\"P\",\"J\",\"66\"
\"\",\"\",\"approach-retreat\",\"70\",\"568558\",\"0.0-70.0\",\"\",\"\",\"3-3\",\"4952\",\"38\",\"1\",\"Training\",\"Stims/Figures/128-C-30-3.bmp\",\"mala:na\",\"Up\",\"38\",\"5\",\"3\",\"4\",\"S\",\"J\",\"67\"
\"\",\"\",\"approach-retreat\",\"71\",\"574217\",\"0.0-71.0\",\"\",\"\",\"3-3\",\"4149\",\"39\",\"1\",\"Training\",\"Stims/Figures/84-J-0-2.bmp\",\"paka:ta\",\"Left\",\"39\",\"5\",\"4\",\"4\",\"P\",\"J\",\"68\"
\"\",\"\",\"approach-retreat\",\"72\",\"579755\",\"0.0-72.0\",\"\",\"\",\"3-3\",\"4029\",\"37\",\"1\",\"Training\",\"Stims/Figures/44-C-30-3.bmp\",\"ma:la:la\",\"Left\",\"37\",\"5\",\"5\",\"4\",\"S\",\"J\",\"69\"
\"\",\"\",\"approach-retreat\",\"73\",\"585577\",\"0.0-73.0\",\"\",\"\",\"3-3\",\"4300\",\"38\",\"1\",\"Training\",\"Stims/Figures/19-J-10-4.bmp\",\"pa:pa:ka\",\"Down\",\"38\",\"5\",\"6\",\"4\",\"P\",\"J\",\"70\"
\"\",\"\",\"approach-retreat\",\"74\",\"591655\",\"0.0-74.0\",\"\",\"\",\"3-3\",\"4567\",\"40\",\"1\",\"Training\",\"Stims/Figures/84-C-20-2.bmp\",\"na:la:na\",\"Down\",\"40\",\"5\",\"7\",\"4\",\"S\",\"J\",\"71\"
\"\",\"\",\"approach-retreat\",\"75\",\"597623\",\"0.0-75.0\",\"\",\"\",\"3-3\",\"4457\",\"37\",\"1\",\"Training\",\"Stims/Figures/27-J-0-1.bmp\",\"pakata\",\"Right\",\"37\",\"5\",\"8\",\"4\",\"P\",\"J\",\"72\"
\"\",\"\",\"approach-retreat\",\"76\",\"603464\",\"0.0-76.0\",\"\",\"\",\"3-3\",\"4330\",\"38\",\"1\",\"Training\",\"Stims/Figures/102-C-20-4.bmp\",\"nala:la\",\"Up\",\"38\",\"5\",\"9\",\"4\",\"S\",\"J\",\"73\"
\"\",\"\",\"approach-retreat\",\"77\",\"609127\",\"0.0-77.0\",\"\",\"\",\"3-3\",\"4139\",\"38\",\"0\",\"Training\",\"Stims/Figures/86-J-0-1.bmp\",\"tapa:ta\",\"Up\",\"40\",\"5\",\"10\",\"4\",\"P\",\"J\",\"74\"
\"\",\"\",\"approach-retreat\",\"78\",\"615005\",\"0.0-78.0\",\"\",\"\",\"3-3\",\"4365\",\"38\",\"1\",\"Training\",\"Stims/Figures/128-J-10-3.bmp\",\"papa:ka\",\"Down\",\"38\",\"5\",\"11\",\"4\",\"P\",\"J\",\"75\"
\"\",\"\",\"approach-retreat\",\"79\",\"622200\",\"0.0-79.0\",\"\",\"\",\"3-3\",\"5673\",\"38\",\"1\",\"Training\",\"Stims/Figures/85-C-20-2.bmp\",\"ma:mana\",\"Up\",\"38\",\"5\",\"12\",\"4\",\"S\",\"J\",\"76\"
\"\",\"\",\"approach-retreat\",\"80\",\"628596\",\"0.0-80.0\",\"\",\"\",\"3-3\",\"4871\",\"39\",\"1\",\"Training\",\"Stims/Figures/86-C-30-1.bmp\",\"malala\",\"Right\",\"39\",\"5\",\"13\",\"4\",\"S\",\"J\",\"77\"
\"\",\"\",\"approach-retreat\",\"81\",\"634506\",\"0.0-81.0\",\"\",\"\",\"3-3\",\"4386\",\"39\",\"1\",\"Training\",\"Stims/Figures/102-J-10-4.bmp\",\"papa:ta\",\"Left\",\"39\",\"5\",\"14\",\"4\",\"P\",\"J\",\"78\"
\"\",\"\",\"approach-retreat\",\"82\",\"640993\",\"0.0-82.0\",\"\",\"\",\"3-3\",\"4974\",\"39\",\"1\",\"Training\",\"Stims/Figures/27-C-30-1.bmp\",\"ma:lana\",\"Right\",\"39\",\"5\",\"15\",\"4\",\"S\",\"J\",\"79\"
\"\",\"\",\"approach-retreat\",\"83\",\"646817\",\"0.0-83.0\",\"\",\"\",\"3-3\",\"4313\",\"37\",\"1\",\"Training\",\"Stims/Figures/44-J-10-3.bmp\",\"papata\",\"Right\",\"37\",\"5\",\"16\",\"4\",\"P\",\"J\",\"80\"
\"\",\"\",\"approach-retreat\",\"84\",\"652461\",\"0.0-84.0\",\"\",\"\",\"3-3\",\"4125\",\"37\",\"1\",\"Training\",\"Stims/Figures/102-J-10-4.bmp\",\"papa:ta\",\"Right\",\"37\",\"6\",\"1\",\"4\",\"P\",\"J\",\"81\"
\"\",\"\",\"approach-retreat\",\"85\",\"658724\",\"0.0-85.0\",\"\",\"\",\"3-3\",\"4748\",\"37\",\"1\",\"Training\",\"Stims/Figures/44-C-30-3.bmp\",\"ma:la:la\",\"Left\",\"37\",\"6\",\"2\",\"4\",\"S\",\"J\",\"82\"
\"\",\"\",\"approach-retreat\",\"86\",\"664335\",\"0.0-86.0\",\"\",\"\",\"3-3\",\"4096\",\"37\",\"1\",\"Training\",\"Stims/Figures/85-C-20-2.bmp\",\"ma:mana\",\"Left\",\"37\",\"6\",\"3\",\"4\",\"S\",\"J\",\"83\"
\"\",\"\",\"approach-retreat\",\"87\",\"671591\",\"0.0-87.0\",\"\",\"\",\"3-3\",\"5742\",\"38\",\"0\",\"Training\",\"Stims/Figures/27-J-0-1.bmp\",\"pakata\",\"Up\",\"40\",\"6\",\"4\",\"4\",\"P\",\"J\",\"84\"
\"\",\"\",\"approach-retreat\",\"88\",\"677359\",\"0.0-88.0\",\"\",\"\",\"3-3\",\"4247\",\"37\",\"1\",\"Training\",\"Stims/Figures/84-J-0-2.bmp\",\"paka:ta\",\"Right\",\"37\",\"6\",\"5\",\"4\",\"P\",\"J\",\"85\"
\"\",\"\",\"approach-retreat\",\"89\",\"682994\",\"0.0-89.0\",\"\",\"\",\"3-3\",\"4124\",\"37\",\"1\",\"Training\",\"Stims/Figures/128-J-10-3.bmp\",\"papa:ka\",\"Right\",\"37\",\"6\",\"6\",\"4\",\"P\",\"J\",\"86\"
\"\",\"\",\"approach-retreat\",\"90\",\"688544\",\"0.0-90.0\",\"\",\"\",\"3-3\",\"4039\",\"37\",\"1\",\"Training\",\"Stims/Figures/44-J-10-3.bmp\",\"papata\",\"Right\",\"37\",\"6\",\"7\",\"4\",\"P\",\"J\",\"87\"
\"\",\"\",\"approach-retreat\",\"91\",\"694779\",\"0.0-91.0\",\"\",\"\",\"3-3\",\"4712\",\"37\",\"1\",\"Training\",\"Stims/Figures/19-C-20-4.bmp\",\"ma:la:na\",\"Left\",\"37\",\"6\",\"8\",\"4\",\"S\",\"J\",\"88\"
\"\",\"\",\"approach-retreat\",\"92\",\"700577\",\"0.0-92.0\",\"\",\"\",\"3-3\",\"4278\",\"39\",\"1\",\"Training\",\"Stims/Figures/19-J-10-4.bmp\",\"pa:pa:ka\",\"Left\",\"39\",\"6\",\"9\",\"4\",\"P\",\"J\",\"89\"
\"\",\"\",\"approach-retreat\",\"93\",\"707454\",\"0.0-93.0\",\"\",\"\",\"3-3\",\"5365\",\"38\",\"1\",\"Training\",\"Stims/Figures/84-C-20-2.bmp\",\"na:la:na\",\"Up\",\"38\",\"6\",\"10\",\"4\",\"S\",\"J\",\"90\"
\"\",\"\",\"approach-retreat\",\"94\",\"713232\",\"0.0-94.0\",\"\",\"\",\"3-3\",\"4263\",\"40\",\"1\",\"Training\",\"Stims/Figures/86-J-0-1.bmp\",\"tapa:ta\",\"Up\",\"40\",\"6\",\"11\",\"4\",\"P\",\"J\",\"91\"
\"\",\"\",\"approach-retreat\",\"95\",\"719345\",\"0.0-95.0\",\"\",\"\",\"3-3\",\"4599\",\"40\",\"1\",\"Training\",\"Stims/Figures/86-C-30-1.bmp\",\"malala\",\"Down\",\"40\",\"6\",\"12\",\"4\",\"S\",\"J\",\"92\"
\"\",\"\",\"approach-retreat\",\"96\",\"725457\",\"0.0-96.0\",\"\",\"\",\"3-3\",\"4587\",\"38\",\"1\",\"Training\",\"Stims/Figures/128-C-30-3.bmp\",\"mala:na\",\"Up\",\"38\",\"6\",\"13\",\"4\",\"S\",\"J\",\"93\"
\"\",\"\",\"approach-retreat\",\"97\",\"731142\",\"0.0-97.0\",\"\",\"\",\"3-3\",\"4164\",\"38\",\"0\",\"Training\",\"Stims/Figures/102-C-20-4.bmp\",\"nala:la\",\"Down\",\"40\",\"6\",\"14\",\"4\",\"S\",\"J\",\"94\"
\"\",\"\",\"approach-retreat\",\"98\",\"736851\",\"0.0-98.0\",\"\",\"\",\"3-3\",\"4197\",\"38\",\"1\",\"Training\",\"Stims/Figures/85-J-0-2.bmp\",\"tapata\",\"Down\",\"38\",\"6\",\"15\",\"4\",\"P\",\"J\",\"95\"
\"\",\"\",\"approach-retreat\",\"99\",\"742628\",\"0.0-99.0\",\"\",\"\",\"3-3\",\"4258\",\"40\",\"1\",\"Training\",\"Stims/Figures/27-C-30-1.bmp\",\"ma:lana\",\"Down\",\"40\",\"6\",\"16\",\"4\",\"S\",\"J\",\"96\"
\"\",\"\",\"approach-retreat\",\"100\",\"748375\",\"0.0-100.0\",\"\",\"\",\"3-3\",\"4224\",\"39\",\"1\",\"Training\",\"Stims/Figures/86-J-0-1.bmp\",\"tapa:ta\",\"Left\",\"39\",\"7\",\"1\",\"4\",\"P\",\"J\",\"97\"
\"\",\"\",\"approach-retreat\",\"101\",\"754670\",\"0.0-101.0\",\"\",\"\",\"3-3\",\"4783\",\"40\",\"1\",\"Training\",\"Stims/Figures/19-C-20-4.bmp\",\"ma:la:na\",\"Down\",\"40\",\"7\",\"2\",\"4\",\"S\",\"J\",\"98\"
\"\",\"\",\"approach-retreat\",\"102\",\"761032\",\"0.0-102.0\",\"\",\"\",\"3-3\",\"4850\",\"39\",\"1\",\"Training\",\"Stims/Figures/84-C-20-2.bmp\",\"na:la:na\",\"Right\",\"39\",\"7\",\"3\",\"4\",\"S\",\"J\",\"99\"
\"\",\"\",\"approach-retreat\",\"103\",\"766711\",\"0.0-103.0\",\"\",\"\",\"3-3\",\"4159\",\"38\",\"1\",\"Training\",\"Stims/Figures/44-J-10-3.bmp\",\"papata\",\"Down\",\"38\",\"7\",\"4\",\"4\",\"P\",\"J\",\"100\"
\"\",\"\",\"approach-retreat\",\"104\",\"773105\",\"0.0-104.0\",\"\",\"\",\"3-3\",\"4875\",\"38\",\"1\",\"Training\",\"Stims/Figures/128-C-30-3.bmp\",\"mala:na\",\"Up\",\"38\",\"7\",\"5\",\"4\",\"S\",\"J\",\"101\"
\"\",\"\",\"approach-retreat\",\"105\",\"778703\",\"0.0-105.0\",\"\",\"\",\"3-3\",\"4078\",\"37\",\"1\",\"Training\",\"Stims/Figures/27-C-30-1.bmp\",\"ma:lana\",\"Left\",\"37\",\"7\",\"6\",\"4\",\"S\",\"J\",\"102\"
\"\",\"\",\"approach-retreat\",\"106\",\"784465\",\"0.0-106.0\",\"\",\"\",\"3-3\",\"4250\",\"37\",\"1\",\"Training\",\"Stims/Figures/102-J-10-4.bmp\",\"papa:ta\",\"Right\",\"37\",\"7\",\"7\",\"4\",\"P\",\"J\",\"103\"
\"\",\"\",\"approach-retreat\",\"107\",\"790126\",\"0.0-107.0\",\"\",\"\",\"3-3\",\"4146\",\"38\",\"1\",\"Training\",\"Stims/Figures/19-J-10-4.bmp\",\"pa:pa:ka\",\"Down\",\"38\",\"7\",\"8\",\"4\",\"P\",\"J\",\"104\"
\"\",\"\",\"approach-retreat\",\"108\",\"795807\",\"0.0-108.0\",\"\",\"\",\"3-3\",\"4164\",\"37\",\"1\",\"Training\",\"Stims/Figures/85-J-0-2.bmp\",\"tapata\",\"Right\",\"37\",\"7\",\"9\",\"4\",\"P\",\"J\",\"105\"
\"\",\"\",\"approach-retreat\",\"109\",\"801402\",\"0.0-109.0\",\"\",\"\",\"3-3\",\"4077\",\"37\",\"1\",\"Training\",\"Stims/Figures/128-J-10-3.bmp\",\"papa:ka\",\"Right\",\"37\",\"7\",\"10\",\"4\",\"P\",\"J\",\"106\"
\"\",\"\",\"approach-retreat\",\"110\",\"807191\",\"0.0-110.0\",\"\",\"\",\"3-3\",\"4265\",\"37\",\"1\",\"Training\",\"Stims/Figures/102-C-20-4.bmp\",\"nala:la\",\"Left\",\"37\",\"7\",\"11\",\"4\",\"S\",\"J\",\"107\"
\"\",\"\",\"approach-retreat\",\"111\",\"813211\",\"0.0-111.0\",\"\",\"\",\"3-3\",\"4501\",\"40\",\"1\",\"Training\",\"Stims/Figures/84-J-0-2.bmp\",\"paka:ta\",\"Up\",\"40\",\"7\",\"12\",\"4\",\"P\",\"J\",\"108\"
\"\",\"\",\"approach-retreat\",\"112\",\"819158\",\"0.0-112.0\",\"\",\"\",\"3-3\",\"4435\",\"38\",\"1\",\"Training\",\"Stims/Figures/44-C-30-3.bmp\",\"ma:la:la\",\"Up\",\"38\",\"7\",\"13\",\"4\",\"S\",\"J\",\"109\"
\"\",\"\",\"approach-retreat\",\"113\",\"824816\",\"0.0-113.0\",\"\",\"\",\"3-3\",\"4144\",\"37\",\"1\",\"Training\",\"Stims/Figures/86-C-30-1.bmp\",\"malala\",\"Left\",\"37\",\"7\",\"14\",\"4\",\"S\",\"J\",\"110\"
\"\",\"\",\"approach-retreat\",\"114\",\"830548\",\"0.0-114.0\",\"\",\"\",\"3-3\",\"4224\",\"38\",\"1\",\"Training\",\"Stims/Figures/85-C-20-2.bmp\",\"ma:mana\",\"Up\",\"38\",\"7\",\"15\",\"4\",\"S\",\"J\",\"111\"
\"\",\"\",\"approach-retreat\",\"115\",\"836266\",\"0.0-115.0\",\"\",\"\",\"3-3\",\"4194\",\"38\",\"1\",\"Training\",\"Stims/Figures/27-J-0-1.bmp\",\"pakata\",\"Down\",\"38\",\"7\",\"16\",\"4\",\"P\",\"J\",\"112\"
\"\",\"\",\"approach-retreat\",\"116\",\"841897\",\"0.0-116.0\",\"\",\"\",\"3-3\",\"4111\",\"37\",\"1\",\"Training\",\"Stims/Figures/84-C-20-2.bmp\",\"na:la:na\",\"Left\",\"37\",\"8\",\"1\",\"4\",\"S\",\"J\",\"113\"
\"\",\"\",\"approach-retreat\",\"117\",\"847441\",\"0.0-117.0\",\"\",\"\",\"3-3\",\"4034\",\"37\",\"1\",\"Training\",\"Stims/Figures/85-C-20-2.bmp\",\"ma:mana\",\"Left\",\"37\",\"8\",\"2\",\"4\",\"S\",\"J\",\"114\"
\"\",\"\",\"approach-retreat\",\"118\",\"853438\",\"0.0-118.0\",\"\",\"\",\"3-3\",\"4471\",\"40\",\"1\",\"Training\",\"Stims/Figures/19-J-10-4.bmp\",\"pa:pa:ka\",\"Up\",\"40\",\"8\",\"3\",\"4\",\"P\",\"J\",\"115\"
\"\",\"\",\"approach-retreat\",\"119\",\"859609\",\"0.0-119.0\",\"\",\"\",\"3-3\",\"4655\",\"39\",\"1\",\"Training\",\"Stims/Figures/102-C-20-4.bmp\",\"nala:la\",\"Right\",\"39\",\"8\",\"4\",\"4\",\"S\",\"J\",\"116\"
\"\",\"\",\"approach-retreat\",\"120\",\"865206\",\"0.0-120.0\",\"\",\"\",\"3-3\",\"4077\",\"37\",\"1\",\"Training\",\"Stims/Figures/102-J-10-4.bmp\",\"papa:ta\",\"Right\",\"37\",\"8\",\"5\",\"4\",\"P\",\"J\",\"117\"
\"\",\"\",\"approach-retreat\",\"121\",\"870802\",\"0.0-121.0\",\"\",\"\",\"3-3\",\"4076\",\"39\",\"1\",\"Training\",\"Stims/Figures/44-J-10-3.bmp\",\"papata\",\"Left\",\"39\",\"8\",\"6\",\"4\",\"P\",\"J\",\"118\"
\"\",\"\",\"approach-retreat\",\"122\",\"876680\",\"0.0-122.0\",\"\",\"\",\"3-3\",\"4362\",\"40\",\"1\",\"Training\",\"Stims/Figures/128-J-10-3.bmp\",\"papa:ka\",\"Up\",\"40\",\"8\",\"7\",\"4\",\"P\",\"J\",\"119\"
\"\",\"\",\"approach-retreat\",\"123\",\"882310\",\"0.0-123.0\",\"\",\"\",\"3-3\",\"4109\",\"40\",\"1\",\"Training\",\"Stims/Figures/27-J-0-1.bmp\",\"pakata\",\"Up\",\"40\",\"8\",\"8\",\"4\",\"P\",\"J\",\"120\"
\"\",\"\",\"approach-retreat\",\"124\",\"888973\",\"0.0-124.0\",\"\",\"\",\"3-3\",\"5138\",\"40\",\"1\",\"Training\",\"Stims/Figures/44-C-30-3.bmp\",\"ma:la:la\",\"Down\",\"40\",\"8\",\"9\",\"4\",\"S\",\"J\",\"121\"
\"\",\"\",\"approach-retreat\",\"125\",\"894718\",\"0.0-125.0\",\"\",\"\",\"3-3\",\"4226\",\"37\",\"1\",\"Training\",\"Stims/Figures/86-J-0-1.bmp\",\"tapa:ta\",\"Right\",\"37\",\"8\",\"10\",\"4\",\"P\",\"J\",\"122\"
\"\",\"\",\"approach-retreat\",\"126\",\"900765\",\"0.0-126.0\",\"\",\"\",\"3-3\",\"4531\",\"40\",\"1\",\"Training\",\"Stims/Figures/86-C-30-1.bmp\",\"malala\",\"Down\",\"40\",\"8\",\"11\",\"4\",\"S\",\"J\",\"123\"
\"\",\"\",\"approach-retreat\",\"127\",\"907057\",\"0.0-127.0\",\"\",\"\",\"3-3\",\"4767\",\"38\",\"1\",\"Training\",\"Stims/Figures/85-J-0-2.bmp\",\"tapata\",\"Down\",\"38\",\"8\",\"12\",\"4\",\"P\",\"J\",\"124\"
\"\",\"\",\"approach-retreat\",\"128\",\"912687\",\"0.0-128.0\",\"\",\"\",\"3-3\",\"4107\",\"37\",\"1\",\"Training\",\"Stims/Figures/84-J-0-2.bmp\",\"paka:ta\",\"Right\",\"37\",\"8\",\"13\",\"4\",\"P\",\"J\",\"125\"
\"\",\"\",\"approach-retreat\",\"129\",\"919033\",\"0.0-129.0\",\"\",\"\",\"3-3\",\"4834\",\"38\",\"1\",\"Training\",\"Stims/Figures/19-C-20-4.bmp\",\"ma:la:na\",\"Up\",\"38\",\"8\",\"14\",\"4\",\"S\",\"J\",\"126\"
\"\",\"\",\"approach-retreat\",\"130\",\"925680\",\"0.0-130.0\",\"\",\"\",\"3-3\",\"5125\",\"40\",\"1\",\"Training\",\"Stims/Figures/27-C-30-1.bmp\",\"ma:lana\",\"Down\",\"40\",\"8\",\"15\",\"4\",\"S\",\"J\",\"127\"
\"\",\"\",\"approach-retreat\",\"131\",\"933389\",\"0.0-131.0\",\"\",\"\",\"3-3\",\"6189\",\"37\",\"1\",\"Training\",\"Stims/Figures/128-C-30-3.bmp\",\"mala:na\",\"Left\",\"37\",\"8\",\"16\",\"4\",\"S\",\"J\",\"128\"
\"\",\"\",\"approach-retreat\",\"132\",\"939069\",\"0.0-132.0\",\"\",\"\",\"3-3\",\"4162\",\"37\",\"1\",\"Training\",\"Stims/Figures/44-C-30-3.bmp\",\"ma:la:la\",\"Left\",\"37\",\"9\",\"1\",\"4\",\"S\",\"J\",\"129\"
\"\",\"\",\"approach-retreat\",\"133\",\"944513\",\"0.0-133.0\",\"\",\"\",\"3-3\",\"3920\",\"37\",\"1\",\"Training\",\"Stims/Figures/86-C-30-1.bmp\",\"malala\",\"Left\",\"37\",\"9\",\"2\",\"4\",\"S\",\"J\",\"130\"
\"\",\"\",\"approach-retreat\",\"134\",\"950178\",\"0.0-134.0\",\"\",\"\",\"3-3\",\"4154\",\"38\",\"1\",\"Training\",\"Stims/Figures/19-J-10-4.bmp\",\"pa:pa:ka\",\"Down\",\"38\",\"9\",\"3\",\"4\",\"P\",\"J\",\"131\"
\"\",\"\",\"approach-retreat\",\"135\",\"956424\",\"0.0-135.0\",\"\",\"\",\"3-3\",\"4724\",\"39\",\"1\",\"Training\",\"Stims/Figures/84-C-20-2.bmp\",\"na:la:na\",\"Right\",\"39\",\"9\",\"4\",\"4\",\"S\",\"J\",\"132\"
\"\",\"\",\"approach-retreat\",\"136\",\"962767\",\"0.0-136.0\",\"\",\"\",\"3-3\",\"4818\",\"38\",\"1\",\"Training\",\"Stims/Figures/128-C-30-3.bmp\",\"mala:na\",\"Up\",\"38\",\"9\",\"5\",\"4\",\"S\",\"J\",\"133\"
\"\",\"\",\"approach-retreat\",\"137\",\"968664\",\"0.0-137.0\",\"\",\"\",\"3-3\",\"4379\",\"39\",\"1\",\"Training\",\"Stims/Figures/102-C-20-4.bmp\",\"nala:la\",\"Right\",\"39\",\"9\",\"6\",\"4\",\"S\",\"J\",\"134\"
\"\",\"\",\"approach-retreat\",\"138\",\"974295\",\"0.0-138.0\",\"\",\"\",\"3-3\",\"4120\",\"39\",\"1\",\"Training\",\"Stims/Figures/102-J-10-4.bmp\",\"papa:ta\",\"Left\",\"39\",\"9\",\"7\",\"4\",\"P\",\"J\",\"135\"
\"\",\"\",\"approach-retreat\",\"139\",\"980223\",\"0.0-139.0\",\"\",\"\",\"3-3\",\"4406\",\"40\",\"1\",\"Training\",\"Stims/Figures/128-J-10-3.bmp\",\"papa:ka\",\"Up\",\"40\",\"9\",\"8\",\"4\",\"P\",\"J\",\"136\"
\"\",\"\",\"approach-retreat\",\"140\",\"986378\",\"0.0-140.0\",\"\",\"\",\"3-3\",\"4634\",\"40\",\"1\",\"Training\",\"Stims/Figures/19-C-20-4.bmp\",\"ma:la:na\",\"Down\",\"40\",\"9\",\"9\",\"4\",\"S\",\"J\",\"137\"
\"\",\"\",\"approach-retreat\",\"141\",\"992196\",\"0.0-141.0\",\"\",\"\",\"3-3\",\"4301\",\"37\",\"1\",\"Training\",\"Stims/Figures/27-J-0-1.bmp\",\"pakata\",\"Right\",\"37\",\"9\",\"10\",\"4\",\"P\",\"J\",\"138\"
\"\",\"\",\"approach-retreat\",\"142\",\"997959\",\"0.0-142.0\",\"\",\"\",\"3-3\",\"4241\",\"39\",\"1\",\"Training\",\"Stims/Figures/44-J-10-3.bmp\",\"papata\",\"Left\",\"39\",\"9\",\"11\",\"4\",\"P\",\"J\",\"139\"
\"\",\"\",\"approach-retreat\",\"143\",\"1003455\",\"0.0-143.0\",\"\",\"\",\"3-3\",\"3973\",\"38\",\"1\",\"Training\",\"Stims/Figures/85-J-0-2.bmp\",\"tapata\",\"Down\",\"38\",\"9\",\"12\",\"4\",\"P\",\"J\",\"140\"
\"\",\"\",\"approach-retreat\",\"144\",\"1008989\",\"0.0-144.0\",\"\",\"\",\"3-3\",\"4023\",\"38\",\"1\",\"Training\",\"Stims/Figures/84-J-0-2.bmp\",\"paka:ta\",\"Down\",\"38\",\"9\",\"13\",\"4\",\"P\",\"J\",\"141\"
\"\",\"\",\"approach-retreat\",\"145\",\"1015064\",\"0.0-145.0\",\"\",\"\",\"3-3\",\"4564\",\"39\",\"1\",\"Training\",\"Stims/Figures/85-C-20-2.bmp\",\"ma:mana\",\"Right\",\"39\",\"9\",\"14\",\"4\",\"S\",\"J\",\"142\"
\"\",\"\",\"approach-retreat\",\"146\",\"1020826\",\"0.0-146.0\",\"\",\"\",\"3-3\",\"4249\",\"38\",\"1\",\"Training\",\"Stims/Figures/27-C-30-1.bmp\",\"ma:lana\",\"Up\",\"38\",\"9\",\"15\",\"4\",\"S\",\"J\",\"143\"
\"\",\"\",\"approach-retreat\",\"147\",\"1026706\",\"0.0-147.0\",\"\",\"\",\"3-3\",\"4369\",\"40\",\"1\",\"Training\",\"Stims/Figures/86-J-0-1.bmp\",\"tapa:ta\",\"Up\",\"40\",\"9\",\"16\",\"4\",\"P\",\"J\",\"144\"
\"167002\",\"\",\"instructions\",\"148\",\"1193709\",\"0.0-148.0\",\"[{\"\"page_index\"\":0,\"\"viewing_time\"\":167001}]\",\"\",\"\",\"\",\"\",\"\",\"\",\"\",\"\",\"\",\"\",\"\",\"\",\"\",\"\",\"\",\"\"
\"\",\"\",\"approach-retreat\",\"149\",\"1201779\",\"0.0-149.0\",\"\",\"\",\"3-3\",\"6552\",\"38\",\"0\",\"Testing\",\"Stims/Figures/44-C-30-3.bmp\",\"ma:la:la\",\"Down\",\"40\",\"1\",\"1\",\"4\",\"S\",\"J\",\"1\"
\"\",\"\",\"approach-retreat\",\"150\",\"1207974\",\"0.0-150.0\",\"\",\"\",\"3-3\",\"4672\",\"40\",\"0\",\"Testing\",\"Stims/Figures/85-C-20-2.bmp\",\"ma:mana\",\"Up\",\"38\",\"1\",\"2\",\"4\",\"S\",\"J\",\"2\"
\"\",\"\",\"approach-retreat\",\"151\",\"1213911\",\"0.0-151.0\",\"\",\"\",\"3-3\",\"4420\",\"40\",\"1\",\"Testing\",\"Stims/Figures/57-C-30-1.bmp\",\"malana\",\"Down\",\"40\",\"1\",\"3\",\"4\",\"S\",\"J\",\"3\"
\"\",\"\",\"approach-retreat\",\"152\",\"1220210\",\"0.0-152.0\",\"\",\"\",\"3-3\",\"4789\",\"39\",\"0\",\"Testing\",\"Stims/Figures/100-J-10-3.bmp\",\"ta:ka:ka\",\"Right\",\"37\",\"1\",\"4\",\"4\",\"P\",\"J\",\"4\"
\"\",\"\",\"approach-retreat\",\"153\",\"1226021\",\"0.0-153.0\",\"\",\"\",\"3-3\",\"4295\",\"40\",\"1\",\"Testing\",\"Stims/Figures/87-C-20-4.bmp\",\"nalana\",\"Down\",\"40\",\"1\",\"5\",\"4\",\"S\",\"J\",\"5\"
\"\",\"\",\"approach-retreat\",\"154\",\"1231951\",\"0.0-154.0\",\"\",\"\",\"3-3\",\"4419\",\"40\",\"0\",\"Testing\",\"Stims/Figures/19-C-20-4.bmp\",\"ma:la:na\",\"Up\",\"38\",\"1\",\"6\",\"4\",\"S\",\"J\",\"6\"
\"\",\"\",\"approach-retreat\",\"155\",\"1237812\",\"0.0-155.0\",\"\",\"\",\"3-3\",\"4339\",\"40\",\"0\",\"Testing\",\"Stims/Figures/86-J-0-1.bmp\",\"tapa:ta\",\"Down\",\"38\",\"1\",\"7\",\"4\",\"P\",\"J\",\"7\"
\"\",\"\",\"approach-retreat\",\"156\",\"1243477\",\"0.0-156.0\",\"\",\"\",\"3-3\",\"4148\",\"40\",\"1\",\"Testing\",\"Stims/Figures/19-J-10-4.bmp\",\"pa:pa:ka\",\"Up\",\"40\",\"1\",\"8\",\"4\",\"P\",\"J\",\"8\"
\"\",\"\",\"approach-retreat\",\"157\",\"1249288\",\"0.0-157.0\",\"\",\"\",\"3-3\",\"4292\",\"38\",\"1\",\"Testing\",\"Stims/Figures/44-J-10-3.bmp\",\"papata\",\"Down\",\"38\",\"1\",\"9\",\"4\",\"P\",\"J\",\"9\"
\"\",\"\",\"approach-retreat\",\"158\",\"1255299\",\"0.0-158.0\",\"\",\"\",\"3-3\",\"4499\",\"39\",\"1\",\"Testing\",\"Stims/Figures/57-J-0-1.bmp\",\"takaka\",\"Left\",\"39\",\"1\",\"10\",\"4\",\"P\",\"J\",\"10\"
\"\",\"\",\"approach-retreat\",\"159\",\"1263742\",\"0.0-159.0\",\"\",\"\",\"3-3\",\"6919\",\"39\",\"1\",\"Testing\",\"Stims/Figures/102-C-20-4.bmp\",\"nala:la\",\"Right\",\"39\",\"1\",\"11\",\"4\",\"S\",\"J\",\"11\"
\"\",\"\",\"approach-retreat\",\"160\",\"1271670\",\"0.0-160.0\",\"\",\"\",\"3-3\",\"6415\",\"37\",\"1\",\"Testing\",\"Stims/Figures/94-J-0-2.bmp\",\"ta:ka:ta\",\"Right\",\"37\",\"1\",\"12\",\"4\",\"P\",\"J\",\"12\"
\"\",\"\",\"approach-retreat\",\"161\",\"1277466\",\"0.0-161.0\",\"\",\"\",\"3-3\",\"4283\",\"40\",\"1\",\"Testing\",\"Stims/Figures/27-J-0-1.bmp\",\"pakata\",\"Up\",\"40\",\"1\",\"13\",\"4\",\"P\",\"J\",\"13\"
\"\",\"\",\"approach-retreat\",\"162\",\"1283162\",\"0.0-162.0\",\"\",\"\",\"3-3\",\"4186\",\"37\",\"1\",\"Testing\",\"Stims/Figures/85-J-0-2.bmp\",\"tapata\",\"Right\",\"37\",\"1\",\"14\",\"4\",\"P\",\"J\",\"14\"
\"\",\"\",\"approach-retreat\",\"163\",\"1289439\",\"0.0-163.0\",\"\",\"\",\"3-3\",\"4762\",\"39\",\"0\",\"Testing\",\"Stims/Figures/27-C-30-1.bmp\",\"ma:lana\",\"Left\",\"37\",\"1\",\"15\",\"4\",\"S\",\"J\",\"15\"
\"\",\"\",\"approach-retreat\",\"164\",\"1295413\",\"0.0-164.0\",\"\",\"\",\"3-3\",\"4457\",\"37\",\"1\",\"Testing\",\"Stims/Figures/84-J-0-2.bmp\",\"paka:ta\",\"Right\",\"37\",\"1\",\"16\",\"4\",\"P\",\"J\",\"16\"
\"\",\"\",\"approach-retreat\",\"165\",\"1301214\",\"0.0-165.0\",\"\",\"\",\"3-3\",\"4276\",\"37\",\"0\",\"Testing\",\"Stims/Figures/87-J-10-4.bmp\",\"taka:ta\",\"Left\",\"39\",\"1\",\"17\",\"4\",\"P\",\"J\",\"17\"
\"\",\"\",\"approach-retreat\",\"166\",\"1308209\",\"0.0-166.0\",\"\",\"\",\"3-3\",\"5483\",\"39\",\"0\",\"Testing\",\"Stims/Figures/128-C-30-3.bmp\",\"mala:na\",\"Left\",\"37\",\"1\",\"18\",\"4\",\"S\",\"J\",\"18\"
\"\",\"\",\"approach-retreat\",\"167\",\"1314065\",\"0.0-167.0\",\"\",\"\",\"3-3\",\"4330\",\"40\",\"0\",\"Testing\",\"Stims/Figures/128-J-10-3.bmp\",\"papa:ka\",\"Down\",\"38\",\"1\",\"19\",\"4\",\"P\",\"J\",\"19\"
\"\",\"\",\"approach-retreat\",\"168\",\"1320010\",\"0.0-168.0\",\"\",\"\",\"3-3\",\"4422\",\"38\",\"1\",\"Testing\",\"Stims/Figures/86-C-30-1.bmp\",\"malala\",\"Up\",\"38\",\"1\",\"20\",\"4\",\"S\",\"J\",\"20\"
\"\",\"\",\"approach-retreat\",\"169\",\"1325672\",\"0.0-169.0\",\"\",\"\",\"3-3\",\"4145\",\"40\",\"0\",\"Testing\",\"Stims/Figures/94-C-20-2.bmp\",\"mamana\",\"Up\",\"38\",\"1\",\"21\",\"4\",\"S\",\"J\",\"21\"
\"\",\"\",\"approach-retreat\",\"170\",\"1331486\",\"0.0-170.0\",\"\",\"\",\"3-3\",\"4301\",\"39\",\"0\",\"Testing\",\"Stims/Figures/100-C-30-3.bmp\",\"nama:na\",\"Left\",\"37\",\"1\",\"22\",\"4\",\"S\",\"J\",\"22\"
\"\",\"\",\"approach-retreat\",\"171\",\"1337100\",\"0.0-171.0\",\"\",\"\",\"3-3\",\"4102\",\"37\",\"0\",\"Testing\",\"Stims/Figures/84-C-20-2.bmp\",\"na:la:na\",\"Right\",\"39\",\"1\",\"23\",\"4\",\"S\",\"J\",\"23\"
\"\",\"\",\"approach-retreat\",\"172\",\"1344678\",\"0.0-172.0\",\"\",\"\",\"3-3\",\"6064\",\"39\",\"1\",\"Testing\",\"Stims/Figures/102-J-10-4.bmp\",\"papa:ta\",\"Left\",\"39\",\"1\",\"24\",\"4\",\"P\",\"J\",\"24\"
\"\",\"\",\"approach-retreat\",\"173\",\"1350257\",\"0.0-173.0\",\"\",\"\",\"3-3\",\"4066\",\"38\",\"0\",\"Testing\",\"Stims/Figures/94-C-20-2.bmp\",\"mamana\",\"Down\",\"40\",\"2\",\"1\",\"4\",\"S\",\"J\",\"25\"
\"\",\"\",\"approach-retreat\",\"174\",\"1356767\",\"0.0-174.0\",\"\",\"\",\"3-3\",\"4998\",\"40\",\"1\",\"Testing\",\"Stims/Figures/27-C-30-1.bmp\",\"ma:lana\",\"Down\",\"40\",\"2\",\"2\",\"4\",\"S\",\"J\",\"26\"
\"\",\"\",\"approach-retreat\",\"175\",\"1362464\",\"0.0-175.0\",\"\",\"\",\"3-3\",\"4186\",\"37\",\"1\",\"Testing\",\"Stims/Figures/86-C-30-1.bmp\",\"malala\",\"Left\",\"37\",\"2\",\"3\",\"4\",\"S\",\"J\",\"27\"
\"\",\"\",\"approach-retreat\",\"176\",\"1368036\",\"0.0-176.0\",\"\",\"\",\"3-3\",\"4063\",\"37\",\"0\",\"Testing\",\"Stims/Figures/84-C-20-2.bmp\",\"na:la:na\",\"Right\",\"39\",\"2\",\"4\",\"4\",\"S\",\"J\",\"28\"
\"\",\"\",\"approach-retreat\",\"177\",\"1373656\",\"0.0-177.0\",\"\",\"\",\"3-3\",\"4099\",\"37\",\"1\",\"Testing\",\"Stims/Figures/27-J-0-1.bmp\",\"pakata\",\"Right\",\"37\",\"2\",\"5\",\"4\",\"P\",\"J\",\"29\"
\"\",\"\",\"approach-retreat\",\"178\",\"1379235\",\"0.0-178.0\",\"\",\"\",\"3-3\",\"4069\",\"37\",\"0\",\"Testing\",\"Stims/Figures/85-C-20-2.bmp\",\"ma:mana\",\"Right\",\"39\",\"2\",\"6\",\"4\",\"S\",\"J\",\"30\"
\"\",\"\",\"approach-retreat\",\"179\",\"1384813\",\"0.0-179.0\",\"\",\"\",\"3-3\",\"4068\",\"39\",\"0\",\"Testing\",\"Stims/Figures/128-C-30-3.bmp\",\"mala:na\",\"Left\",\"37\",\"2\",\"7\",\"4\",\"S\",\"J\",\"31\"
\"\",\"\",\"approach-retreat\",\"180\",\"1390693\",\"0.0-180.0\",\"\",\"\",\"3-3\",\"4365\",\"40\",\"1\",\"Testing\",\"Stims/Figures/85-J-0-2.bmp\",\"tapata\",\"Up\",\"40\",\"2\",\"8\",\"4\",\"P\",\"J\",\"32\"
\"\",\"\",\"approach-retreat\",\"181\",\"1396339\",\"0.0-181.0\",\"\",\"\",\"3-3\",\"4127\",\"38\",\"1\",\"Testing\",\"Stims/Figures/87-C-20-4.bmp\",\"nalana\",\"Up\",\"38\",\"2\",\"9\",\"4\",\"S\",\"J\",\"33\"
\"\",\"\",\"approach-retreat\",\"182\",\"1401938\",\"0.0-182.0\",\"\",\"\",\"3-3\",\"4081\",\"39\",\"0\",\"Testing\",\"Stims/Figures/87-J-10-4.bmp\",\"taka:ta\",\"Right\",\"37\",\"2\",\"10\",\"4\",\"P\",\"J\",\"34\"
\"\",\"\",\"approach-retreat\",\"183\",\"1407714\",\"0.0-183.0\",\"\",\"\",\"3-3\",\"4266\",\"38\",\"1\",\"Testing\",\"Stims/Figures/102-J-10-4.bmp\",\"papa:ta\",\"Down\",\"38\",\"2\",\"11\",\"4\",\"P\",\"J\",\"35\"
\"\",\"\",\"approach-retreat\",\"184\",\"1413511\",\"0.0-184.0\",\"\",\"\",\"3-3\",\"4284\",\"40\",\"0\",\"Testing\",\"Stims/Figures/102-C-20-4.bmp\",\"nala:la\",\"Up\",\"38\",\"2\",\"12\",\"4\",\"S\",\"J\",\"36\"
\"\",\"\",\"approach-retreat\",\"185\",\"1419303\",\"0.0-185.0\",\"\",\"\",\"3-3\",\"4275\",\"39\",\"1\",\"Testing\",\"Stims/Figures/100-C-30-3.bmp\",\"nama:na\",\"Right\",\"39\",\"2\",\"13\",\"4\",\"S\",\"J\",\"37\"
\"\",\"\",\"approach-retreat\",\"186\",\"1424933\",\"0.0-186.0\",\"\",\"\",\"3-3\",\"4113\",\"38\",\"0\",\"Testing\",\"Stims/Figures/57-C-30-1.bmp\",\"malana\",\"Down\",\"40\",\"2\",\"14\",\"4\",\"S\",\"J\",\"38\"
\"\",\"\",\"approach-retreat\",\"187\",\"1430546\",\"0.0-187.0\",\"\",\"\",\"3-3\",\"4087\",\"39\",\"0\",\"Testing\",\"Stims/Figures/44-C-30-3.bmp\",\"ma:la:la\",\"Left\",\"37\",\"2\",\"15\",\"4\",\"S\",\"J\",\"39\"
\"\",\"\",\"approach-retreat\",\"188\",\"1436415\",\"0.0-188.0\",\"\",\"\",\"3-3\",\"4350\",\"37\",\"0\",\"Testing\",\"Stims/Figures/86-J-0-1.bmp\",\"tapa:ta\",\"Left\",\"39\",\"2\",\"16\",\"4\",\"P\",\"J\",\"40\"
\"\",\"\",\"approach-retreat\",\"189\",\"1442044\",\"0.0-189.0\",\"\",\"\",\"3-3\",\"4120\",\"38\",\"1\",\"Testing\",\"Stims/Figures/19-J-10-4.bmp\",\"pa:pa:ka\",\"Down\",\"38\",\"2\",\"17\",\"4\",\"P\",\"J\",\"41\"
\"\",\"\",\"approach-retreat\",\"190\",\"1448658\",\"0.0-190.0\",\"\",\"\",\"3-3\",\"5103\",\"40\",\"0\",\"Testing\",\"Stims/Figures/57-J-0-1.bmp\",\"takaka\",\"Down\",\"38\",\"2\",\"18\",\"4\",\"P\",\"J\",\"42\"
\"\",\"\",\"approach-retreat\",\"191\",\"1454302\",\"0.0-191.0\",\"\",\"\",\"3-3\",\"4136\",\"37\",\"1\",\"Testing\",\"Stims/Figures/44-J-10-3.bmp\",\"papata\",\"Right\",\"37\",\"2\",\"19\",\"4\",\"P\",\"J\",\"43\"
\"\",\"\",\"approach-retreat\",\"192\",\"1460232\",\"0.0-192.0\",\"\",\"\",\"3-3\",\"4421\",\"40\",\"1\",\"Testing\",\"Stims/Figures/100-J-10-3.bmp\",\"ta:ka:ka\",\"Up\",\"40\",\"2\",\"20\",\"4\",\"P\",\"J\",\"44\"
\"\",\"\",\"approach-retreat\",\"193\",\"1466092\",\"0.0-193.0\",\"\",\"\",\"3-3\",\"4341\",\"40\",\"1\",\"Testing\",\"Stims/Figures/94-J-0-2.bmp\",\"ta:ka:ta\",\"Up\",\"40\",\"2\",\"21\",\"4\",\"P\",\"J\",\"45\"
\"\",\"\",\"approach-retreat\",\"194\",\"1471854\",\"0.0-194.0\",\"\",\"\",\"3-3\",\"4247\",\"38\",\"0\",\"Testing\",\"Stims/Figures/128-J-10-3.bmp\",\"papa:ka\",\"Up\",\"40\",\"2\",\"22\",\"4\",\"P\",\"J\",\"46\"
\"\",\"\",\"approach-retreat\",\"195\",\"1477818\",\"0.0-195.0\",\"\",\"\",\"3-3\",\"4452\",\"39\",\"1\",\"Testing\",\"Stims/Figures/84-J-0-2.bmp\",\"paka:ta\",\"Left\",\"39\",\"2\",\"23\",\"4\",\"P\",\"J\",\"47\"
\"\",\"\",\"approach-retreat\",\"196\",\"1483481\",\"0.0-196.0\",\"\",\"\",\"3-3\",\"4140\",\"39\",\"0\",\"Testing\",\"Stims/Figures/19-C-20-4.bmp\",\"ma:la:na\",\"Left\",\"37\",\"2\",\"24\",\"4\",\"S\",\"J\",\"48\"
\"\",\"\",\"approach-retreat\",\"197\",\"1488926\",\"0.0-197.0\",\"\",\"\",\"3-3\",\"3937\",\"39\",\"1\",\"Testing\",\"Stims/Figures/19-J-10-4.bmp\",\"pa:pa:ka\",\"Left\",\"39\",\"3\",\"1\",\"4\",\"P\",\"J\",\"49\"
\"\",\"\",\"approach-retreat\",\"198\",\"1494556\",\"0.0-198.0\",\"\",\"\",\"3-3\",\"4114\",\"38\",\"1\",\"Testing\",\"Stims/Figures/44-J-10-3.bmp\",\"papata\",\"Down\",\"38\",\"3\",\"2\",\"4\",\"P\",\"J\",\"50\"
\"\",\"\",\"approach-retreat\",\"199\",\"1500561\",\"0.0-199.0\",\"\",\"\",\"3-3\",\"4489\",\"40\",\"0\",\"Testing\",\"Stims/Figures/94-C-20-2.bmp\",\"mamana\",\"Up\",\"38\",\"3\",\"3\",\"4\",\"S\",\"J\",\"51\"
\"\",\"\",\"approach-retreat\",\"200\",\"1506357\",\"0.0-200.0\",\"\",\"\",\"3-3\",\"4287\",\"40\",\"1\",\"Testing\",\"Stims/Figures/27-J-0-1.bmp\",\"pakata\",\"Up\",\"40\",\"3\",\"4\",\"4\",\"P\",\"J\",\"52\"
\"\",\"\",\"approach-retreat\",\"201\",\"1512424\",\"0.0-201.0\",\"\",\"\",\"3-3\",\"4556\",\"39\",\"0\",\"Testing\",\"Stims/Figures/86-J-0-1.bmp\",\"tapa:ta\",\"Right\",\"37\",\"3\",\"5\",\"4\",\"P\",\"J\",\"53\"
\"\",\"\",\"approach-retreat\",\"202\",\"1518398\",\"0.0-202.0\",\"\",\"\",\"3-3\",\"4449\",\"37\",\"0\",\"Testing\",\"Stims/Figures/84-C-20-2.bmp\",\"na:la:na\",\"Right\",\"39\",\"3\",\"6\",\"4\",\"S\",\"J\",\"54\"
\"\",\"\",\"approach-retreat\",\"203\",\"1524080\",\"0.0-203.0\",\"\",\"\",\"3-3\",\"4167\",\"38\",\"0\",\"Testing\",\"Stims/Figures/86-C-30-1.bmp\",\"malala\",\"Down\",\"40\",\"3\",\"7\",\"4\",\"S\",\"J\",\"55\"
\"\",\"\",\"approach-retreat\",\"204\",\"1529646\",\"0.0-204.0\",\"\",\"\",\"3-3\",\"4051\",\"38\",\"0\",\"Testing\",\"Stims/Figures/19-C-20-4.bmp\",\"ma:la:na\",\"Down\",\"40\",\"3\",\"8\",\"4\",\"S\",\"J\",\"56\"
\"\",\"\",\"approach-retreat\",\"205\",\"1535269\",\"0.0-205.0\",\"\",\"\",\"3-3\",\"4102\",\"38\",\"0\",\"Testing\",\"Stims/Figures/128-C-30-3.bmp\",\"mala:na\",\"Down\",\"40\",\"3\",\"9\",\"4\",\"S\",\"J\",\"57\"
\"\",\"\",\"approach-retreat\",\"206\",\"1540932\",\"0.0-206.0\",\"\",\"\",\"3-3\",\"4143\",\"37\",\"0\",\"Testing\",\"Stims/Figures/102-J-10-4.bmp\",\"papa:ta\",\"Left\",\"39\",\"3\",\"10\",\"4\",\"P\",\"J\",\"58\"
\"\",\"\",\"approach-retreat\",\"207\",\"1546762\",\"0.0-207.0\",\"\",\"\",\"3-3\",\"4308\",\"39\",\"1\",\"Testing\",\"Stims/Figures/27-C-30-1.bmp\",\"ma:lana\",\"Right\",\"39\",\"3\",\"11\",\"4\",\"S\",\"J\",\"59\"
\"\",\"\",\"approach-retreat\",\"208\",\"1552791\",\"0.0-208.0\",\"\",\"\",\"3-3\",\"4516\",\"38\",\"0\",\"Testing\",\"Stims/Figures/100-J-10-3.bmp\",\"ta:ka:ka\",\"Up\",\"40\",\"3\",\"12\",\"4\",\"P\",\"J\",\"60\"
\"\",\"\",\"approach-retreat\",\"209\",\"1558316\",\"0.0-209.0\",\"\",\"\",\"3-3\",\"4000\",\"37\",\"1\",\"Testing\",\"Stims/Figures/85-J-0-2.bmp\",\"tapata\",\"Right\",\"37\",\"3\",\"13\",\"4\",\"P\",\"J\",\"61\"
\"\",\"\",\"approach-retreat\",\"210\",\"1564020\",\"0.0-210.0\",\"\",\"\",\"3-3\",\"4190\",\"40\",\"0\",\"Testing\",\"Stims/Figures/100-C-30-3.bmp\",\"nama:na\",\"Up\",\"38\",\"3\",\"14\",\"4\",\"S\",\"J\",\"62\"
\"\",\"\",\"approach-retreat\",\"211\",\"1569557\",\"0.0-211.0\",\"\",\"\",\"3-3\",\"4012\",\"39\",\"0\",\"Testing\",\"Stims/Figures/57-J-0-1.bmp\",\"takaka\",\"Right\",\"37\",\"3\",\"15\",\"4\",\"P\",\"J\",\"63\"
\"\",\"\",\"approach-retreat\",\"212\",\"1575245\",\"0.0-212.0\",\"\",\"\",\"3-3\",\"4173\",\"39\",\"0\",\"Testing\",\"Stims/Figures/102-C-20-4.bmp\",\"nala:la\",\"Left\",\"37\",\"3\",\"16\",\"4\",\"S\",\"J\",\"64\"
\"\",\"\",\"approach-retreat\",\"213\",\"1580882\",\"0.0-213.0\",\"\",\"\",\"3-3\",\"4129\",\"38\",\"1\",\"Testing\",\"Stims/Figures/94-J-0-2.bmp\",\"ta:ka:ta\",\"Down\",\"38\",\"3\",\"17\",\"4\",\"P\",\"J\",\"65\"
\"\",\"\",\"approach-retreat\",\"214\",\"1587011\",\"0.0-214.0\",\"\",\"\",\"3-3\",\"4616\",\"39\",\"1\",\"Testing\",\"Stims/Figures/57-C-30-1.bmp\",\"malana\",\"Right\",\"39\",\"3\",\"18\",\"4\",\"S\",\"J\",\"66\"
\"\",\"\",\"approach-retreat\",\"215\",\"1592873\",\"0.0-215.0\",\"\",\"\",\"3-3\",\"4355\",\"38\",\"0\",\"Testing\",\"Stims/Figures/128-J-10-3.bmp\",\"papa:ka\",\"Up\",\"40\",\"3\",\"19\",\"4\",\"P\",\"J\",\"67\"
\"\",\"\",\"approach-retreat\",\"216\",\"1598819\",\"0.0-216.0\",\"\",\"\",\"3-3\",\"4421\",\"37\",\"1\",\"Testing\",\"Stims/Figures/87-C-20-4.bmp\",\"nalana\",\"Left\",\"37\",\"3\",\"20\",\"4\",\"S\",\"J\",\"68\"
\"\",\"\",\"approach-retreat\",\"217\",\"1604415\",\"0.0-217.0\",\"\",\"\",\"3-3\",\"4080\",\"39\",\"0\",\"Testing\",\"Stims/Figures/44-C-30-3.bmp\",\"ma:la:la\",\"Left\",\"37\",\"3\",\"21\",\"4\",\"S\",\"J\",\"69\"
\"\",\"\",\"approach-retreat\",\"218\",\"1610260\",\"0.0-218.0\",\"\",\"\",\"3-3\",\"4322\",\"39\",\"0\",\"Testing\",\"Stims/Figures/85-C-20-2.bmp\",\"ma:mana\",\"Left\",\"37\",\"3\",\"22\",\"4\",\"S\",\"J\",\"70\"
\"\",\"\",\"approach-retreat\",\"219\",\"1615922\",\"0.0-219.0\",\"\",\"\",\"3-3\",\"4147\",\"38\",\"1\",\"Testing\",\"Stims/Figures/84-J-0-2.bmp\",\"paka:ta\",\"Down\",\"38\",\"3\",\"23\",\"4\",\"P\",\"J\",\"71\"
\"\",\"\",\"approach-retreat\",\"220\",\"1622461\",\"0.0-220.0\",\"\",\"\",\"3-3\",\"5019\",\"40\",\"1\",\"Testing\",\"Stims/Figures/87-J-10-4.bmp\",\"taka:ta\",\"Up\",\"40\",\"3\",\"24\",\"4\",\"P\",\"J\",\"72\"
\"\",\"\",\"approach-retreat\",\"221\",\"1628153\",\"0.0-221.0\",\"\",\"\",\"3-3\",\"4178\",\"38\",\"1\",\"Testing\",\"Stims/Figures/100-C-30-3.bmp\",\"nama:na\",\"Up\",\"38\",\"4\",\"1\",\"4\",\"S\",\"J\",\"73\"
\"\",\"\",\"approach-retreat\",\"222\",\"1633998\",\"0.0-222.0\",\"\",\"\",\"3-3\",\"4327\",\"39\",\"0\",\"Testing\",\"Stims/Figures/86-J-0-1.bmp\",\"tapa:ta\",\"Right\",\"37\",\"4\",\"2\",\"4\",\"P\",\"J\",\"74\"
\"\",\"\",\"approach-retreat\",\"223\",\"1640095\",\"0.0-223.0\",\"\",\"\",\"3-3\",\"4590\",\"40\",\"1\",\"Testing\",\"Stims/Figures/100-J-10-3.bmp\",\"ta:ka:ka\",\"Up\",\"40\",\"4\",\"3\",\"4\",\"P\",\"J\",\"75\"
\"\",\"\",\"approach-retreat\",\"224\",\"1647005\",\"0.0-224.0\",\"\",\"\",\"3-3\",\"5386\",\"37\",\"0\",\"Testing\",\"Stims/Figures/102-C-20-4.bmp\",\"nala:la\",\"Right\",\"39\",\"4\",\"4\",\"4\",\"S\",\"J\",\"76\"
\"\",\"\",\"approach-retreat\",\"225\",\"1652817\",\"0.0-225.0\",\"\",\"\",\"3-3\",\"4295\",\"39\",\"1\",\"Testing\",\"Stims/Figures/94-J-0-2.bmp\",\"ta:ka:ta\",\"Left\",\"39\",\"4\",\"5\",\"4\",\"P\",\"J\",\"77\"
\"\",\"\",\"approach-retreat\",\"226\",\"1658431\",\"0.0-226.0\",\"\",\"\",\"3-3\",\"4100\",\"39\",\"1\",\"Testing\",\"Stims/Figures/27-J-0-1.bmp\",\"pakata\",\"Left\",\"39\",\"4\",\"6\",\"4\",\"P\",\"J\",\"78\"
\"\",\"\",\"approach-retreat\",\"227\",\"1664029\",\"0.0-227.0\",\"\",\"\",\"3-3\",\"4082\",\"40\",\"0\",\"Testing\",\"Stims/Figures/19-C-20-4.bmp\",\"ma:la:na\",\"Up\",\"38\",\"4\",\"7\",\"4\",\"S\",\"J\",\"79\"
\"\",\"\",\"approach-retreat\",\"228\",\"1669640\",\"0.0-228.0\",\"\",\"\",\"3-3\",\"4104\",\"40\",\"0\",\"Testing\",\"Stims/Figures/94-C-20-2.bmp\",\"mamana\",\"Up\",\"38\",\"4\",\"8\",\"4\",\"S\",\"J\",\"80\"
\"\",\"\",\"approach-retreat\",\"229\",\"1676601\",\"0.0-229.0\",\"\",\"\",\"3-3\",\"5451\",\"39\",\"1\",\"Testing\",\"Stims/Figures/86-C-30-1.bmp\",\"malala\",\"Right\",\"39\",\"4\",\"9\",\"4\",\"S\",\"J\",\"81\"
\"\",\"\",\"approach-retreat\",\"230\",\"1682265\",\"0.0-230.0\",\"\",\"\",\"3-3\",\"4156\",\"37\",\"1\",\"Testing\",\"Stims/Figures/84-J-0-2.bmp\",\"paka:ta\",\"Right\",\"37\",\"4\",\"10\",\"4\",\"P\",\"J\",\"82\"
\"\",\"\",\"approach-retreat\",\"231\",\"1688026\",\"0.0-231.0\",\"\",\"\",\"3-3\",\"4251\",\"38\",\"0\",\"Testing\",\"Stims/Figures/44-C-30-3.bmp\",\"ma:la:la\",\"Down\",\"40\",\"4\",\"11\",\"4\",\"S\",\"J\",\"83\"
\"\",\"\",\"approach-retreat\",\"232\",\"1693872\",\"0.0-232.0\",\"\",\"\",\"3-3\",\"4331\",\"40\",\"1\",\"Testing\",\"Stims/Figures/57-C-30-1.bmp\",\"malana\",\"Down\",\"40\",\"4\",\"12\",\"4\",\"S\",\"J\",\"84\"
\"\",\"\",\"approach-retreat\",\"233\",\"1699701\",\"0.0-233.0\",\"\",\"\",\"3-3\",\"4313\",\"40\",\"1\",\"Testing\",\"Stims/Figures/87-C-20-4.bmp\",\"nalana\",\"Down\",\"40\",\"4\",\"13\",\"4\",\"S\",\"J\",\"85\"
\"\",\"\",\"approach-retreat\",\"234\",\"1705430\",\"0.0-234.0\",\"\",\"\",\"3-3\",\"4215\",\"39\",\"0\",\"Testing\",\"Stims/Figures/128-C-30-3.bmp\",\"mala:na\",\"Left\",\"37\",\"4\",\"14\",\"4\",\"S\",\"J\",\"86\"
\"\",\"\",\"approach-retreat\",\"235\",\"1711209\",\"0.0-235.0\",\"\",\"\",\"3-3\",\"4255\",\"39\",\"0\",\"Testing\",\"Stims/Figures/128-J-10-3.bmp\",\"papa:ka\",\"Right\",\"37\",\"4\",\"15\",\"4\",\"P\",\"J\",\"87\"
\"\",\"\",\"approach-retreat\",\"236\",\"1716939\",\"0.0-236.0\",\"\",\"\",\"3-3\",\"4215\",\"38\",\"1\",\"Testing\",\"Stims/Figures/102-J-10-4.bmp\",\"papa:ta\",\"Down\",\"38\",\"4\",\"16\",\"4\",\"P\",\"J\",\"88\"
\"\",\"\",\"approach-retreat\",\"237\",\"1722534\",\"0.0-237.0\",\"\",\"\",\"3-3\",\"4086\",\"39\",\"0\",\"Testing\",\"Stims/Figures/19-J-10-4.bmp\",\"pa:pa:ka\",\"Right\",\"37\",\"4\",\"17\",\"4\",\"P\",\"J\",\"89\"
\"\",\"\",\"approach-retreat\",\"238\",\"1729711\",\"0.0-238.0\",\"\",\"\",\"3-3\",\"5655\",\"40\",\"0\",\"Testing\",\"Stims/Figures/87-J-10-4.bmp\",\"taka:ta\",\"Down\",\"38\",\"4\",\"18\",\"4\",\"P\",\"J\",\"90\"
\"\",\"\",\"approach-retreat\",\"239\",\"1735341\",\"0.0-239.0\",\"\",\"\",\"3-3\",\"4109\",\"40\",\"1\",\"Testing\",\"Stims/Figures/44-J-10-3.bmp\",\"papata\",\"Up\",\"40\",\"4\",\"19\",\"4\",\"P\",\"J\",\"91\"
\"\",\"\",\"approach-retreat\",\"240\",\"1741042\",\"0.0-240.0\",\"\",\"\",\"3-3\",\"4178\",\"39\",\"0\",\"Testing\",\"Stims/Figures/85-C-20-2.bmp\",\"ma:mana\",\"Left\",\"37\",\"4\",\"20\",\"4\",\"S\",\"J\",\"92\"
\"\",\"\",\"approach-retreat\",\"241\",\"1746923\",\"0.0-241.0\",\"\",\"\",\"3-3\",\"4367\",\"38\",\"0\",\"Testing\",\"Stims/Figures/85-J-0-2.bmp\",\"tapata\",\"Up\",\"40\",\"4\",\"21\",\"4\",\"P\",\"J\",\"93\"
\"\",\"\",\"approach-retreat\",\"242\",\"1752787\",\"0.0-242.0\",\"\",\"\",\"3-3\",\"4353\",\"37\",\"1\",\"Testing\",\"Stims/Figures/27-C-30-1.bmp\",\"ma:lana\",\"Left\",\"37\",\"4\",\"22\",\"4\",\"S\",\"J\",\"94\"
\"\",\"\",\"approach-retreat\",\"243\",\"1758336\",\"0.0-243.0\",\"\",\"\",\"3-3\",\"4041\",\"39\",\"0\",\"Testing\",\"Stims/Figures/84-C-20-2.bmp\",\"na:la:na\",\"Left\",\"37\",\"4\",\"23\",\"4\",\"S\",\"J\",\"95\"
\"\",\"\",\"approach-retreat\",\"244\",\"1764240\",\"0.0-244.0\",\"\",\"\",\"3-3\",\"4384\",\"40\",\"0\",\"Testing\",\"Stims/Figures/57-J-0-1.bmp\",\"takaka\",\"Down\",\"38\",\"4\",\"24\",\"4\",\"P\",\"J\",\"96\"
\"25851\",\"\",\"survey-text\",\"245\",\"1790100\",\"0.0-245.0\",\"\",\"{\"\"Q0\"\":\"\"PS160078\"\"}\",\"\",\"\",\"\",\"\",\"\",\"\",\"\",\"\",\"\",\"\",\"\",\"\",\"\",\"\",\"\"
