\"rt\",\"key_press\",\"trial_type\",\"trial_index\",\"time_elapsed\",\"internal_node_id\",\"view_history\",\"responses\",\"Id\",\"Rt\",\"ResKeyCode\",\"ResCorr\",\"TrialType2\",\"Image\",\"Label\",\"Location\",\"CorrectResponse\",\"Block\",\"BlockTrial\",\"Condition\",\"LabelType\",\"Subcondition\",\"trialNum\"
\"3382\",\"32\",\"text\",\"0\",\"3388\",\"0.0-0.0-0.0\",\"\",\"\",\"\",\"\",\"\",\"\",\"\",\"\",\"\",\"\",\"\",\"\",\"\",\"\",\"\",\"\",\"\"
\"46781\",\"\",\"instructions\",\"1\",\"50171\",\"0.0-1.0\",\"[{\"\"page_index\"\":0,\"\"viewing_time\"\":46780}]\",\"\",\"\",\"\",\"\",\"\",\"\",\"\",\"\",\"\",\"\",\"\",\"\",\"\",\"\",\"\",\"\"
\"5878\",\"\",\"survey-multi-choice\",\"2\",\"56084\",\"0.0-2.0\",\"\",\"{\"\"Q0\"\":\"\"Da\"\",\"\"Q1\"\":\"\"Da\"\",\"\"Q2\"\":\"\"Da\"\",\"\"Q3\"\":\"\"Da\"\",\"\"Q4\"\":\"\"Da\"\",\"\"Q5\"\":\"\"Da\"\"}\",\"\",\"\",\"\",\"\",\"\",\"\",\"\",\"\",\"\",\"\",\"\",\"\",\"\",\"\",\"\"
\"\",\"\",\"bio\",\"3\",\"60174\",\"0.0-3.0\",\"\",\"{\"\"age\"\":\"\"22\"\",\"\"gender\"\":\"\"m\"\",\"\"specify\"\":\"\"\"\"}\",\"\",\"\",\"\",\"\",\"\",\"\",\"\",\"\",\"\",\"\",\"\",\"\",\"\",\"\",\"\"
\"\",\"\",\"approach-retreat\",\"4\",\"66302\",\"0.0-4.0\",\"\",\"\",\"1-3\",\"4612\",\"38\",\"1\",\"Training\",\"Stims/Figures/84-J-0-2.bmp\",\"za:haha\",\"Up\",\"38\",\"1\",\"1\",\"3B\",\"C2\",\"C\",\"1\"
\"\",\"\",\"approach-retreat\",\"5\",\"72413\",\"0.0-5.0\",\"\",\"\",\"1-3\",\"4604\",\"39\",\"1\",\"Training\",\"Stims/Figures/100-J-10-3.bmp\",\"za:haha\",\"Right\",\"39\",\"1\",\"2\",\"3B\",\"C2\",\"C\",\"2\"
\"\",\"\",\"approach-retreat\",\"6\",\"78420\",\"0.0-6.0\",\"\",\"\",\"1-3\",\"4499\",\"37\",\"1\",\"Training\",\"Stims/Figures/57-J-0-1.bmp\",\"za:haha\",\"Left\",\"37\",\"1\",\"3\",\"3B\",\"C2\",\"C\",\"3\"
\"\",\"\",\"approach-retreat\",\"7\",\"84180\",\"0.0-7.0\",\"\",\"\",\"1-3\",\"4245\",\"38\",\"0\",\"Training\",\"Stims/Figures/100-C-30-3.bmp\",\"vafasha\",\"Up\",\"40\",\"1\",\"4\",\"3B\",\"C1\",\"C\",\"4\"
\"\",\"\",\"approach-retreat\",\"8\",\"90510\",\"0.0-8.0\",\"\",\"\",\"1-3\",\"4823\",\"40\",\"0\",\"Training\",\"Stims/Figures/87-C-20-4.bmp\",\"vafasha\",\"Down\",\"38\",\"1\",\"5\",\"3B\",\"C1\",\"C\",\"5\"
\"\",\"\",\"approach-retreat\",\"9\",\"96095\",\"0.0-9.0\",\"\",\"\",\"1-3\",\"4080\",\"39\",\"1\",\"Training\",\"Stims/Figures/7-J-10-4.bmp\",\"za:haha\",\"Right\",\"39\",\"1\",\"6\",\"3B\",\"C2\",\"C\",\"6\"
\"\",\"\",\"approach-retreat\",\"10\",\"101842\",\"0.0-10.0\",\"\",\"\",\"1-3\",\"4241\",\"38\",\"1\",\"Training\",\"Stims/Figures/118-C-20-2.bmp\",\"vafasha\",\"Down\",\"38\",\"1\",\"7\",\"3B\",\"C1\",\"C\",\"7\"
\"\",\"\",\"approach-retreat\",\"11\",\"107430\",\"0.0-11.0\",\"\",\"\",\"1-3\",\"4080\",\"39\",\"0\",\"Training\",\"Stims/Figures/57-C-30-1.bmp\",\"vafasha\",\"Right\",\"37\",\"1\",\"8\",\"3B\",\"C1\",\"C\",\"8\"
\"\",\"\",\"approach-retreat\",\"12\",\"113520\",\"0.0-12.0\",\"\",\"\",\"1-3\",\"4577\",\"39\",\"0\",\"Training\",\"Stims/Figures/118-J-0-2.bmp\",\"za:haha\",\"Left\",\"37\",\"1\",\"9\",\"3B\",\"C2\",\"C\",\"9\"
\"\",\"\",\"approach-retreat\",\"13\",\"119469\",\"0.0-13.0\",\"\",\"\",\"1-3\",\"4444\",\"38\",\"0\",\"Training\",\"Stims/Figures/27-J-0-1.bmp\",\"za:haha\",\"Down\",\"40\",\"1\",\"10\",\"3B\",\"C2\",\"C\",\"10\"
\"\",\"\",\"approach-retreat\",\"14\",\"125045\",\"0.0-14.0\",\"\",\"\",\"1-3\",\"4068\",\"38\",\"1\",\"Training\",\"Stims/Figures/7-C-20-4.bmp\",\"vafasha\",\"Down\",\"38\",\"1\",\"11\",\"3B\",\"C1\",\"C\",\"11\"
\"\",\"\",\"approach-retreat\",\"15\",\"130600\",\"0.0-15.0\",\"\",\"\",\"1-3\",\"4043\",\"38\",\"0\",\"Training\",\"Stims/Figures/111-C-30-3.bmp\",\"vafasha\",\"Up\",\"40\",\"1\",\"12\",\"3B\",\"C1\",\"C\",\"12\"
\"\",\"\",\"approach-retreat\",\"16\",\"136462\",\"0.0-16.0\",\"\",\"\",\"1-3\",\"4352\",\"37\",\"0\",\"Training\",\"Stims/Figures/111-J-10-3.bmp\",\"za:haha\",\"Right\",\"39\",\"1\",\"13\",\"3B\",\"C2\",\"C\",\"13\"
\"\",\"\",\"approach-retreat\",\"17\",\"142030\",\"0.0-17.0\",\"\",\"\",\"1-3\",\"4063\",\"39\",\"0\",\"Training\",\"Stims/Figures/87-J-10-4.bmp\",\"za:haha\",\"Left\",\"37\",\"1\",\"14\",\"3B\",\"C2\",\"C\",\"14\"
\"\",\"\",\"approach-retreat\",\"18\",\"147718\",\"0.0-18.0\",\"\",\"\",\"1-3\",\"4184\",\"40\",\"1\",\"Training\",\"Stims/Figures/84-C-20-2.bmp\",\"vafasha\",\"Up\",\"40\",\"1\",\"15\",\"3B\",\"C1\",\"C\",\"15\"
\"\",\"\",\"approach-retreat\",\"19\",\"153423\",\"0.0-19.0\",\"\",\"\",\"1-3\",\"4199\",\"39\",\"1\",\"Training\",\"Stims/Figures/27-C-30-1.bmp\",\"vafasha\",\"Left\",\"39\",\"1\",\"16\",\"3B\",\"C1\",\"C\",\"16\"
\"\",\"\",\"approach-retreat\",\"20\",\"159640\",\"0.0-20.0\",\"\",\"\",\"1-3\",\"4712\",\"40\",\"0\",\"Training\",\"Stims/Figures/118-C-20-2.bmp\",\"vafasha\",\"Down\",\"38\",\"2\",\"1\",\"3B\",\"C1\",\"C\",\"17\"
\"\",\"\",\"approach-retreat\",\"21\",\"165339\",\"0.0-21.0\",\"\",\"\",\"1-3\",\"4189\",\"37\",\"0\",\"Training\",\"Stims/Figures/118-J-0-2.bmp\",\"za:haha\",\"Right\",\"39\",\"2\",\"2\",\"3B\",\"C2\",\"C\",\"18\"
\"\",\"\",\"approach-retreat\",\"22\",\"171019\",\"0.0-22.0\",\"\",\"\",\"1-3\",\"4175\",\"39\",\"0\",\"Training\",\"Stims/Figures/57-J-0-1.bmp\",\"za:haha\",\"Left\",\"37\",\"2\",\"3\",\"3B\",\"C2\",\"C\",\"19\"
\"\",\"\",\"approach-retreat\",\"23\",\"176919\",\"0.0-23.0\",\"\",\"\",\"1-3\",\"4393\",\"38\",\"0\",\"Training\",\"Stims/Figures/27-J-0-1.bmp\",\"za:haha\",\"Down\",\"40\",\"2\",\"4\",\"3B\",\"C2\",\"C\",\"20\"
\"\",\"\",\"approach-retreat\",\"24\",\"182663\",\"0.0-24.0\",\"\",\"\",\"1-3\",\"4239\",\"40\",\"1\",\"Training\",\"Stims/Figures/84-C-20-2.bmp\",\"vafasha\",\"Up\",\"40\",\"2\",\"5\",\"3B\",\"C1\",\"C\",\"21\"
\"\",\"\",\"approach-retreat\",\"25\",\"188214\",\"0.0-25.0\",\"\",\"\",\"1-3\",\"4046\",\"38\",\"1\",\"Training\",\"Stims/Figures/100-C-30-3.bmp\",\"vafasha\",\"Down\",\"38\",\"2\",\"6\",\"3B\",\"C1\",\"C\",\"22\"
\"\",\"\",\"approach-retreat\",\"26\",\"194007\",\"0.0-26.0\",\"\",\"\",\"1-3\",\"4289\",\"39\",\"1\",\"Training\",\"Stims/Figures/111-J-10-3.bmp\",\"za:haha\",\"Right\",\"39\",\"2\",\"7\",\"3B\",\"C2\",\"C\",\"23\"
\"\",\"\",\"approach-retreat\",\"27\",\"199838\",\"0.0-27.0\",\"\",\"\",\"1-3\",\"4328\",\"37\",\"1\",\"Training\",\"Stims/Figures/7-C-20-4.bmp\",\"vafasha\",\"Right\",\"37\",\"2\",\"8\",\"3B\",\"C1\",\"C\",\"24\"
\"\",\"\",\"approach-retreat\",\"28\",\"205449\",\"0.0-28.0\",\"\",\"\",\"1-3\",\"4106\",\"39\",\"1\",\"Training\",\"Stims/Figures/57-C-30-1.bmp\",\"vafasha\",\"Left\",\"39\",\"2\",\"9\",\"3B\",\"C1\",\"C\",\"25\"
\"\",\"\",\"approach-retreat\",\"29\",\"211089\",\"0.0-29.0\",\"\",\"\",\"1-3\",\"4128\",\"39\",\"0\",\"Training\",\"Stims/Figures/84-J-0-2.bmp\",\"za:haha\",\"Left\",\"37\",\"2\",\"10\",\"3B\",\"C2\",\"C\",\"26\"
\"\",\"\",\"approach-retreat\",\"30\",\"216745\",\"0.0-30.0\",\"\",\"\",\"1-3\",\"4152\",\"37\",\"1\",\"Training\",\"Stims/Figures/111-C-30-3.bmp\",\"vafasha\",\"Right\",\"37\",\"2\",\"11\",\"3B\",\"C1\",\"C\",\"27\"
\"\",\"\",\"approach-retreat\",\"31\",\"222510\",\"0.0-31.0\",\"\",\"\",\"1-3\",\"4261\",\"40\",\"1\",\"Training\",\"Stims/Figures/87-J-10-4.bmp\",\"za:haha\",\"Down\",\"40\",\"2\",\"12\",\"3B\",\"C2\",\"C\",\"28\"
\"\",\"\",\"approach-retreat\",\"32\",\"228348\",\"0.0-32.0\",\"\",\"\",\"1-3\",\"4330\",\"38\",\"0\",\"Training\",\"Stims/Figures/27-C-30-1.bmp\",\"vafasha\",\"Up\",\"40\",\"2\",\"13\",\"3B\",\"C1\",\"C\",\"29\"
\"\",\"\",\"approach-retreat\",\"33\",\"233851\",\"0.0-33.0\",\"\",\"\",\"1-3\",\"3999\",\"39\",\"1\",\"Training\",\"Stims/Figures/87-C-20-4.bmp\",\"vafasha\",\"Left\",\"39\",\"2\",\"14\",\"3B\",\"C1\",\"C\",\"30\"
\"\",\"\",\"approach-retreat\",\"34\",\"239648\",\"0.0-34.0\",\"\",\"\",\"1-3\",\"4286\",\"40\",\"0\",\"Training\",\"Stims/Figures/7-J-10-4.bmp\",\"za:haha\",\"Up\",\"38\",\"2\",\"15\",\"3B\",\"C2\",\"C\",\"31\"
\"\",\"\",\"approach-retreat\",\"35\",\"245258\",\"0.0-35.0\",\"\",\"\",\"1-3\",\"4103\",\"40\",\"0\",\"Training\",\"Stims/Figures/100-J-10-3.bmp\",\"za:haha\",\"Up\",\"38\",\"2\",\"16\",\"3B\",\"C2\",\"C\",\"32\"
\"\",\"\",\"approach-retreat\",\"36\",\"250970\",\"0.0-36.0\",\"\",\"\",\"1-3\",\"4207\",\"40\",\"1\",\"Training\",\"Stims/Figures/27-C-30-1.bmp\",\"vafasha\",\"Up\",\"40\",\"3\",\"1\",\"3B\",\"C1\",\"C\",\"33\"
\"\",\"\",\"approach-retreat\",\"37\",\"256432\",\"0.0-37.0\",\"\",\"\",\"1-3\",\"3959\",\"39\",\"1\",\"Training\",\"Stims/Figures/57-C-30-1.bmp\",\"vafasha\",\"Left\",\"39\",\"3\",\"2\",\"3B\",\"C1\",\"C\",\"34\"
\"\",\"\",\"approach-retreat\",\"38\",\"261918\",\"0.0-38.0\",\"\",\"\",\"1-3\",\"3975\",\"40\",\"0\",\"Training\",\"Stims/Figures/118-J-0-2.bmp\",\"za:haha\",\"Up\",\"38\",\"3\",\"3\",\"3B\",\"C2\",\"C\",\"35\"
\"\",\"\",\"approach-retreat\",\"39\",\"267351\",\"0.0-39.0\",\"\",\"\",\"1-3\",\"3930\",\"39\",\"1\",\"Training\",\"Stims/Figures/118-C-20-2.bmp\",\"vafasha\",\"Left\",\"39\",\"3\",\"4\",\"3B\",\"C1\",\"C\",\"36\"
\"\",\"\",\"approach-retreat\",\"40\",\"272988\",\"0.0-40.0\",\"\",\"\",\"1-3\",\"4133\",\"38\",\"1\",\"Training\",\"Stims/Figures/111-C-30-3.bmp\",\"vafasha\",\"Down\",\"38\",\"3\",\"5\",\"3B\",\"C1\",\"C\",\"37\"
\"\",\"\",\"approach-retreat\",\"41\",\"278582\",\"0.0-41.0\",\"\",\"\",\"1-3\",\"4091\",\"40\",\"1\",\"Training\",\"Stims/Figures/87-C-20-4.bmp\",\"vafasha\",\"Up\",\"40\",\"3\",\"6\",\"3B\",\"C1\",\"C\",\"38\"
\"\",\"\",\"approach-retreat\",\"42\",\"284157\",\"0.0-42.0\",\"\",\"\",\"1-3\",\"4064\",\"38\",\"0\",\"Training\",\"Stims/Figures/7-J-10-4.bmp\",\"za:haha\",\"Down\",\"40\",\"3\",\"7\",\"3B\",\"C2\",\"C\",\"39\"
\"\",\"\",\"approach-retreat\",\"43\",\"289868\",\"0.0-43.0\",\"\",\"\",\"1-3\",\"4208\",\"39\",\"1\",\"Training\",\"Stims/Figures/111-J-10-3.bmp\",\"za:haha\",\"Right\",\"39\",\"3\",\"8\",\"3B\",\"C2\",\"C\",\"40\"
\"\",\"\",\"approach-retreat\",\"44\",\"295428\",\"0.0-44.0\",\"\",\"\",\"1-3\",\"4049\",\"38\",\"0\",\"Training\",\"Stims/Figures/84-J-0-2.bmp\",\"za:haha\",\"Down\",\"40\",\"3\",\"9\",\"3B\",\"C2\",\"C\",\"41\"
\"\",\"\",\"approach-retreat\",\"45\",\"300978\",\"0.0-45.0\",\"\",\"\",\"1-3\",\"4037\",\"39\",\"0\",\"Training\",\"Stims/Figures/7-C-20-4.bmp\",\"vafasha\",\"Right\",\"37\",\"3\",\"10\",\"3B\",\"C1\",\"C\",\"42\"
\"\",\"\",\"approach-retreat\",\"46\",\"306534\",\"0.0-46.0\",\"\",\"\",\"1-3\",\"4052\",\"39\",\"1\",\"Training\",\"Stims/Figures/57-J-0-1.bmp\",\"za:haha\",\"Right\",\"39\",\"3\",\"11\",\"3B\",\"C2\",\"C\",\"43\"
\"\",\"\",\"approach-retreat\",\"47\",\"312511\",\"0.0-47.0\",\"\",\"\",\"1-3\",\"4474\",\"38\",\"1\",\"Training\",\"Stims/Figures/87-J-10-4.bmp\",\"za:haha\",\"Up\",\"38\",\"3\",\"12\",\"3B\",\"C2\",\"C\",\"44\"
\"\",\"\",\"approach-retreat\",\"48\",\"318134\",\"0.0-48.0\",\"\",\"\",\"1-3\",\"4117\",\"37\",\"1\",\"Training\",\"Stims/Figures/27-J-0-1.bmp\",\"za:haha\",\"Left\",\"37\",\"3\",\"13\",\"3B\",\"C2\",\"C\",\"45\"
\"\",\"\",\"approach-retreat\",\"49\",\"323697\",\"0.0-49.0\",\"\",\"\",\"1-3\",\"4047\",\"37\",\"0\",\"Training\",\"Stims/Figures/100-J-10-3.bmp\",\"za:haha\",\"Right\",\"39\",\"3\",\"14\",\"3B\",\"C2\",\"C\",\"46\"
\"\",\"\",\"approach-retreat\",\"50\",\"329268\",\"0.0-50.0\",\"\",\"\",\"1-3\",\"4065\",\"38\",\"1\",\"Training\",\"Stims/Figures/84-C-20-2.bmp\",\"vafasha\",\"Down\",\"38\",\"3\",\"15\",\"3B\",\"C1\",\"C\",\"47\"
\"\",\"\",\"approach-retreat\",\"51\",\"334858\",\"0.0-51.0\",\"\",\"\",\"1-3\",\"4074\",\"37\",\"0\",\"Training\",\"Stims/Figures/100-C-30-3.bmp\",\"vafasha\",\"Left\",\"39\",\"3\",\"16\",\"3B\",\"C1\",\"C\",\"48\"
\"\",\"\",\"approach-retreat\",\"52\",\"340439\",\"0.0-52.0\",\"\",\"\",\"1-3\",\"4076\",\"37\",\"1\",\"Training\",\"Stims/Figures/27-J-0-1.bmp\",\"za:haha\",\"Left\",\"37\",\"4\",\"1\",\"3B\",\"C2\",\"C\",\"49\"
\"\",\"\",\"approach-retreat\",\"53\",\"345943\",\"0.0-53.0\",\"\",\"\",\"1-3\",\"3999\",\"37\",\"1\",\"Training\",\"Stims/Figures/27-C-30-1.bmp\",\"vafasha\",\"Right\",\"37\",\"4\",\"2\",\"3B\",\"C1\",\"C\",\"50\"
\"\",\"\",\"approach-retreat\",\"54\",\"351454\",\"0.0-54.0\",\"\",\"\",\"1-3\",\"4005\",\"38\",\"1\",\"Training\",\"Stims/Figures/57-C-30-1.bmp\",\"vafasha\",\"Down\",\"38\",\"4\",\"3\",\"3B\",\"C1\",\"C\",\"51\"
\"\",\"\",\"approach-retreat\",\"55\",\"357008\",\"0.0-55.0\",\"\",\"\",\"1-3\",\"4049\",\"40\",\"1\",\"Training\",\"Stims/Figures/7-J-10-4.bmp\",\"za:haha\",\"Down\",\"40\",\"4\",\"4\",\"3B\",\"C2\",\"C\",\"52\"
\"\",\"\",\"approach-retreat\",\"56\",\"362506\",\"0.0-56.0\",\"\",\"\",\"1-3\",\"3994\",\"39\",\"0\",\"Training\",\"Stims/Figures/87-J-10-4.bmp\",\"za:haha\",\"Left\",\"37\",\"4\",\"5\",\"3B\",\"C2\",\"C\",\"53\"
\"\",\"\",\"approach-retreat\",\"57\",\"368156\",\"0.0-57.0\",\"\",\"\",\"1-3\",\"4145\",\"38\",\"0\",\"Training\",\"Stims/Figures/111-J-10-3.bmp\",\"za:haha\",\"Down\",\"40\",\"4\",\"6\",\"3B\",\"C2\",\"C\",\"54\"
\"\",\"\",\"approach-retreat\",\"58\",\"373746\",\"0.0-58.0\",\"\",\"\",\"1-3\",\"4082\",\"40\",\"0\",\"Training\",\"Stims/Figures/100-J-10-3.bmp\",\"za:haha\",\"Up\",\"38\",\"4\",\"7\",\"3B\",\"C2\",\"C\",\"55\"
\"\",\"\",\"approach-retreat\",\"59\",\"379427\",\"0.0-59.0\",\"\",\"\",\"1-3\",\"4165\",\"38\",\"0\",\"Training\",\"Stims/Figures/111-C-30-3.bmp\",\"vafasha\",\"Up\",\"40\",\"4\",\"8\",\"3B\",\"C1\",\"C\",\"56\"
\"\",\"\",\"approach-retreat\",\"60\",\"386380\",\"0.0-60.0\",\"\",\"\",\"1-3\",\"5444\",\"39\",\"1\",\"Training\",\"Stims/Figures/100-C-30-3.bmp\",\"vafasha\",\"Left\",\"39\",\"4\",\"9\",\"3B\",\"C1\",\"C\",\"57\"
\"\",\"\",\"approach-retreat\",\"61\",\"392446\",\"0.0-61.0\",\"\",\"\",\"1-3\",\"4553\",\"37\",\"0\",\"Training\",\"Stims/Figures/7-C-20-4.bmp\",\"vafasha\",\"Left\",\"39\",\"4\",\"10\",\"3B\",\"C1\",\"C\",\"58\"
\"\",\"\",\"approach-retreat\",\"62\",\"398136\",\"0.0-62.0\",\"\",\"\",\"1-3\",\"4180\",\"37\",\"0\",\"Training\",\"Stims/Figures/118-J-0-2.bmp\",\"za:haha\",\"Right\",\"39\",\"4\",\"11\",\"3B\",\"C2\",\"C\",\"59\"
\"\",\"\",\"approach-retreat\",\"63\",\"403963\",\"0.0-63.0\",\"\",\"\",\"1-3\",\"4324\",\"40\",\"1\",\"Training\",\"Stims/Figures/84-J-0-2.bmp\",\"za:haha\",\"Down\",\"40\",\"4\",\"12\",\"3B\",\"C2\",\"C\",\"60\"
\"\",\"\",\"approach-retreat\",\"64\",\"409495\",\"0.0-64.0\",\"\",\"\",\"1-3\",\"4027\",\"40\",\"1\",\"Training\",\"Stims/Figures/118-C-20-2.bmp\",\"vafasha\",\"Up\",\"40\",\"4\",\"13\",\"3B\",\"C1\",\"C\",\"61\"
\"\",\"\",\"approach-retreat\",\"65\",\"415017\",\"0.0-65.0\",\"\",\"\",\"1-3\",\"4016\",\"39\",\"1\",\"Training\",\"Stims/Figures/57-J-0-1.bmp\",\"za:haha\",\"Right\",\"39\",\"4\",\"14\",\"3B\",\"C2\",\"C\",\"62\"
\"\",\"\",\"approach-retreat\",\"66\",\"420617\",\"0.0-66.0\",\"\",\"\",\"1-3\",\"4096\",\"37\",\"1\",\"Training\",\"Stims/Figures/84-C-20-2.bmp\",\"vafasha\",\"Right\",\"37\",\"4\",\"15\",\"3B\",\"C1\",\"C\",\"63\"
\"\",\"\",\"approach-retreat\",\"67\",\"426215\",\"0.0-67.0\",\"\",\"\",\"1-3\",\"4088\",\"38\",\"0\",\"Training\",\"Stims/Figures/87-C-20-4.bmp\",\"vafasha\",\"Up\",\"40\",\"4\",\"16\",\"3B\",\"C1\",\"C\",\"64\"
\"\",\"\",\"approach-retreat\",\"68\",\"431885\",\"0.0-68.0\",\"\",\"\",\"1-3\",\"4163\",\"37\",\"0\",\"Training\",\"Stims/Figures/57-J-0-1.bmp\",\"za:haha\",\"Right\",\"39\",\"5\",\"1\",\"3B\",\"C2\",\"C\",\"65\"
\"\",\"\",\"approach-retreat\",\"69\",\"437509\",\"0.0-69.0\",\"\",\"\",\"1-3\",\"4118\",\"37\",\"1\",\"Training\",\"Stims/Figures/111-J-10-3.bmp\",\"za:haha\",\"Left\",\"37\",\"5\",\"2\",\"3B\",\"C2\",\"C\",\"66\"
\"\",\"\",\"approach-retreat\",\"70\",\"443195\",\"0.0-70.0\",\"\",\"\",\"1-3\",\"4178\",\"40\",\"1\",\"Training\",\"Stims/Figures/7-C-20-4.bmp\",\"vafasha\",\"Up\",\"40\",\"5\",\"3\",\"3B\",\"C1\",\"C\",\"67\"
\"\",\"\",\"approach-retreat\",\"71\",\"448915\",\"0.0-71.0\",\"\",\"\",\"1-3\",\"4208\",\"39\",\"0\",\"Training\",\"Stims/Figures/57-C-30-1.bmp\",\"vafasha\",\"Right\",\"37\",\"5\",\"4\",\"3B\",\"C1\",\"C\",\"68\"
\"\",\"\",\"approach-retreat\",\"72\",\"454569\",\"0.0-72.0\",\"\",\"\",\"1-3\",\"4149\",\"39\",\"1\",\"Training\",\"Stims/Figures/111-C-30-3.bmp\",\"vafasha\",\"Left\",\"39\",\"5\",\"5\",\"3B\",\"C1\",\"C\",\"69\"
\"\",\"\",\"approach-retreat\",\"73\",\"460148\",\"0.0-73.0\",\"\",\"\",\"1-3\",\"4074\",\"37\",\"1\",\"Training\",\"Stims/Figures/118-C-20-2.bmp\",\"vafasha\",\"Right\",\"37\",\"5\",\"6\",\"3B\",\"C1\",\"C\",\"70\"
\"\",\"\",\"approach-retreat\",\"74\",\"465591\",\"0.0-74.0\",\"\",\"\",\"1-3\",\"3939\",\"38\",\"1\",\"Training\",\"Stims/Figures/27-C-30-1.bmp\",\"vafasha\",\"Down\",\"38\",\"5\",\"7\",\"3B\",\"C1\",\"C\",\"71\"
\"\",\"\",\"approach-retreat\",\"75\",\"471154\",\"0.0-75.0\",\"\",\"\",\"1-3\",\"4059\",\"37\",\"1\",\"Training\",\"Stims/Figures/84-J-0-2.bmp\",\"za:haha\",\"Left\",\"37\",\"5\",\"8\",\"3B\",\"C2\",\"C\",\"72\"
\"\",\"\",\"approach-retreat\",\"76\",\"477204\",\"0.0-76.0\",\"\",\"\",\"1-3\",\"4545\",\"40\",\"1\",\"Training\",\"Stims/Figures/27-J-0-1.bmp\",\"za:haha\",\"Down\",\"40\",\"5\",\"9\",\"3B\",\"C2\",\"C\",\"73\"
\"\",\"\",\"approach-retreat\",\"77\",\"482771\",\"0.0-77.0\",\"\",\"\",\"1-3\",\"4064\",\"40\",\"1\",\"Training\",\"Stims/Figures/84-C-20-2.bmp\",\"vafasha\",\"Up\",\"40\",\"5\",\"10\",\"3B\",\"C1\",\"C\",\"74\"
\"\",\"\",\"approach-retreat\",\"78\",\"488294\",\"0.0-78.0\",\"\",\"\",\"1-3\",\"4013\",\"40\",\"0\",\"Training\",\"Stims/Figures/7-J-10-4.bmp\",\"za:haha\",\"Up\",\"38\",\"5\",\"11\",\"3B\",\"C2\",\"C\",\"75\"
\"\",\"\",\"approach-retreat\",\"79\",\"493921\",\"0.0-79.0\",\"\",\"\",\"1-3\",\"4125\",\"40\",\"1\",\"Training\",\"Stims/Figures/100-C-30-3.bmp\",\"vafasha\",\"Up\",\"40\",\"5\",\"12\",\"3B\",\"C1\",\"C\",\"76\"
\"\",\"\",\"approach-retreat\",\"80\",\"499624\",\"0.0-80.0\",\"\",\"\",\"1-3\",\"4194\",\"38\",\"0\",\"Training\",\"Stims/Figures/100-J-10-3.bmp\",\"za:haha\",\"Down\",\"40\",\"5\",\"13\",\"3B\",\"C2\",\"C\",\"77\"
\"\",\"\",\"approach-retreat\",\"81\",\"505124\",\"0.0-81.0\",\"\",\"\",\"1-3\",\"3991\",\"37\",\"0\",\"Training\",\"Stims/Figures/118-J-0-2.bmp\",\"za:haha\",\"Right\",\"39\",\"5\",\"14\",\"3B\",\"C2\",\"C\",\"78\"
\"\",\"\",\"approach-retreat\",\"82\",\"510627\",\"0.0-82.0\",\"\",\"\",\"1-3\",\"3999\",\"38\",\"1\",\"Training\",\"Stims/Figures/87-C-20-4.bmp\",\"vafasha\",\"Down\",\"38\",\"5\",\"15\",\"3B\",\"C1\",\"C\",\"79\"
\"\",\"\",\"approach-retreat\",\"83\",\"516394\",\"0.0-83.0\",\"\",\"\",\"1-3\",\"4254\",\"39\",\"0\",\"Training\",\"Stims/Figures/87-J-10-4.bmp\",\"za:haha\",\"Left\",\"37\",\"5\",\"16\",\"3B\",\"C2\",\"C\",\"80\"
\"\",\"\",\"approach-retreat\",\"84\",\"521956\",\"0.0-84.0\",\"\",\"\",\"1-3\",\"4057\",\"38\",\"1\",\"Training\",\"Stims/Figures/87-J-10-4.bmp\",\"za:haha\",\"Up\",\"38\",\"6\",\"1\",\"3B\",\"C2\",\"C\",\"81\"
\"\",\"\",\"approach-retreat\",\"85\",\"527575\",\"0.0-85.0\",\"\",\"\",\"1-3\",\"4116\",\"37\",\"1\",\"Training\",\"Stims/Figures/84-J-0-2.bmp\",\"za:haha\",\"Left\",\"37\",\"6\",\"2\",\"3B\",\"C2\",\"C\",\"82\"
\"\",\"\",\"approach-retreat\",\"86\",\"533104\",\"0.0-86.0\",\"\",\"\",\"1-3\",\"4025\",\"38\",\"0\",\"Training\",\"Stims/Figures/7-J-10-4.bmp\",\"za:haha\",\"Down\",\"40\",\"6\",\"3\",\"3B\",\"C2\",\"C\",\"83\"
\"\",\"\",\"approach-retreat\",\"87\",\"538709\",\"0.0-87.0\",\"\",\"\",\"1-3\",\"4101\",\"37\",\"1\",\"Training\",\"Stims/Figures/111-J-10-3.bmp\",\"za:haha\",\"Left\",\"37\",\"6\",\"4\",\"3B\",\"C2\",\"C\",\"84\"
\"\",\"\",\"approach-retreat\",\"88\",\"544254\",\"0.0-88.0\",\"\",\"\",\"1-3\",\"4038\",\"37\",\"0\",\"Training\",\"Stims/Figures/100-J-10-3.bmp\",\"za:haha\",\"Right\",\"39\",\"6\",\"5\",\"3B\",\"C2\",\"C\",\"85\"
\"\",\"\",\"approach-retreat\",\"89\",\"549824\",\"0.0-89.0\",\"\",\"\",\"1-3\",\"4064\",\"38\",\"0\",\"Training\",\"Stims/Figures/57-J-0-1.bmp\",\"za:haha\",\"Down\",\"40\",\"6\",\"6\",\"3B\",\"C2\",\"C\",\"86\"
\"\",\"\",\"approach-retreat\",\"90\",\"555308\",\"0.0-90.0\",\"\",\"\",\"1-3\",\"3980\",\"37\",\"1\",\"Training\",\"Stims/Figures/87-C-20-4.bmp\",\"vafasha\",\"Right\",\"37\",\"6\",\"7\",\"3B\",\"C1\",\"C\",\"87\"
\"\",\"\",\"approach-retreat\",\"91\",\"560870\",\"0.0-91.0\",\"\",\"\",\"1-3\",\"4058\",\"39\",\"1\",\"Training\",\"Stims/Figures/100-C-30-3.bmp\",\"vafasha\",\"Left\",\"39\",\"6\",\"8\",\"3B\",\"C1\",\"C\",\"88\"
\"\",\"\",\"approach-retreat\",\"92\",\"566510\",\"0.0-92.0\",\"\",\"\",\"1-3\",\"4136\",\"38\",\"1\",\"Training\",\"Stims/Figures/118-J-0-2.bmp\",\"za:haha\",\"Up\",\"38\",\"6\",\"9\",\"3B\",\"C2\",\"C\",\"89\"
\"\",\"\",\"approach-retreat\",\"93\",\"572095\",\"0.0-93.0\",\"\",\"\",\"1-3\",\"4079\",\"38\",\"1\",\"Training\",\"Stims/Figures/84-C-20-2.bmp\",\"vafasha\",\"Down\",\"38\",\"6\",\"10\",\"3B\",\"C1\",\"C\",\"90\"
\"\",\"\",\"approach-retreat\",\"94\",\"577682\",\"0.0-94.0\",\"\",\"\",\"1-3\",\"4076\",\"39\",\"0\",\"Training\",\"Stims/Figures/111-C-30-3.bmp\",\"vafasha\",\"Right\",\"37\",\"6\",\"11\",\"3B\",\"C1\",\"C\",\"91\"
\"\",\"\",\"approach-retreat\",\"95\",\"583193\",\"0.0-95.0\",\"\",\"\",\"1-3\",\"4006\",\"38\",\"0\",\"Training\",\"Stims/Figures/27-C-30-1.bmp\",\"vafasha\",\"Up\",\"40\",\"6\",\"12\",\"3B\",\"C1\",\"C\",\"92\"
\"\",\"\",\"approach-retreat\",\"96\",\"588783\",\"0.0-96.0\",\"\",\"\",\"1-3\",\"4083\",\"38\",\"0\",\"Training\",\"Stims/Figures/118-C-20-2.bmp\",\"vafasha\",\"Up\",\"40\",\"6\",\"13\",\"3B\",\"C1\",\"C\",\"93\"
\"\",\"\",\"approach-retreat\",\"97\",\"594534\",\"0.0-97.0\",\"\",\"\",\"1-3\",\"4247\",\"38\",\"1\",\"Training\",\"Stims/Figures/7-C-20-4.bmp\",\"vafasha\",\"Down\",\"38\",\"6\",\"14\",\"3B\",\"C1\",\"C\",\"94\"
\"\",\"\",\"approach-retreat\",\"98\",\"600132\",\"0.0-98.0\",\"\",\"\",\"1-3\",\"4094\",\"39\",\"1\",\"Training\",\"Stims/Figures/27-J-0-1.bmp\",\"za:haha\",\"Right\",\"39\",\"6\",\"15\",\"3B\",\"C2\",\"C\",\"95\"
\"\",\"\",\"approach-retreat\",\"99\",\"605744\",\"0.0-99.0\",\"\",\"\",\"1-3\",\"4109\",\"39\",\"1\",\"Training\",\"Stims/Figures/57-C-30-1.bmp\",\"vafasha\",\"Left\",\"39\",\"6\",\"16\",\"3B\",\"C1\",\"C\",\"96\"
\"\",\"\",\"approach-retreat\",\"100\",\"611281\",\"0.0-100.0\",\"\",\"\",\"1-3\",\"4033\",\"37\",\"1\",\"Training\",\"Stims/Figures/118-C-20-2.bmp\",\"vafasha\",\"Right\",\"37\",\"7\",\"1\",\"3B\",\"C1\",\"C\",\"97\"
\"\",\"\",\"approach-retreat\",\"101\",\"616674\",\"0.0-101.0\",\"\",\"\",\"1-3\",\"3889\",\"38\",\"1\",\"Training\",\"Stims/Figures/87-C-20-4.bmp\",\"vafasha\",\"Down\",\"38\",\"7\",\"2\",\"3B\",\"C1\",\"C\",\"98\"
\"\",\"\",\"approach-retreat\",\"102\",\"622263\",\"0.0-102.0\",\"\",\"\",\"1-3\",\"4081\",\"40\",\"0\",\"Training\",\"Stims/Figures/87-J-10-4.bmp\",\"za:haha\",\"Up\",\"38\",\"7\",\"3\",\"3B\",\"C2\",\"C\",\"99\"
\"\",\"\",\"approach-retreat\",\"103\",\"627988\",\"0.0-103.0\",\"\",\"\",\"1-3\",\"4222\",\"37\",\"1\",\"Training\",\"Stims/Figures/84-J-0-2.bmp\",\"za:haha\",\"Left\",\"37\",\"7\",\"4\",\"3B\",\"C2\",\"C\",\"100\"
\"\",\"\",\"approach-retreat\",\"104\",\"633668\",\"0.0-104.0\",\"\",\"\",\"1-3\",\"4176\",\"38\",\"1\",\"Training\",\"Stims/Figures/27-J-0-1.bmp\",\"za:haha\",\"Up\",\"38\",\"7\",\"5\",\"3B\",\"C2\",\"C\",\"101\"
\"\",\"\",\"approach-retreat\",\"105\",\"639282\",\"0.0-105.0\",\"\",\"\",\"1-3\",\"4111\",\"38\",\"1\",\"Training\",\"Stims/Figures/100-J-10-3.bmp\",\"za:haha\",\"Up\",\"38\",\"7\",\"6\",\"3B\",\"C2\",\"C\",\"102\"
\"\",\"\",\"approach-retreat\",\"106\",\"644820\",\"0.0-106.0\",\"\",\"\",\"1-3\",\"4034\",\"39\",\"1\",\"Training\",\"Stims/Figures/111-J-10-3.bmp\",\"za:haha\",\"Right\",\"39\",\"7\",\"7\",\"3B\",\"C2\",\"C\",\"103\"
\"\",\"\",\"approach-retreat\",\"107\",\"650497\",\"0.0-107.0\",\"\",\"\",\"1-3\",\"4173\",\"37\",\"1\",\"Training\",\"Stims/Figures/84-C-20-2.bmp\",\"vafasha\",\"Right\",\"37\",\"7\",\"8\",\"3B\",\"C1\",\"C\",\"104\"
\"\",\"\",\"approach-retreat\",\"108\",\"656002\",\"0.0-108.0\",\"\",\"\",\"1-3\",\"3989\",\"39\",\"0\",\"Training\",\"Stims/Figures/7-J-10-4.bmp\",\"za:haha\",\"Left\",\"37\",\"7\",\"9\",\"3B\",\"C2\",\"C\",\"105\"
\"\",\"\",\"approach-retreat\",\"109\",\"661755\",\"0.0-109.0\",\"\",\"\",\"1-3\",\"4250\",\"38\",\"1\",\"Training\",\"Stims/Figures/7-C-20-4.bmp\",\"vafasha\",\"Down\",\"38\",\"7\",\"10\",\"3B\",\"C1\",\"C\",\"106\"
\"\",\"\",\"approach-retreat\",\"110\",\"667430\",\"0.0-110.0\",\"\",\"\",\"1-3\",\"4163\",\"38\",\"1\",\"Training\",\"Stims/Figures/118-J-0-2.bmp\",\"za:haha\",\"Up\",\"38\",\"7\",\"11\",\"3B\",\"C2\",\"C\",\"107\"
\"\",\"\",\"approach-retreat\",\"111\",\"673017\",\"0.0-111.0\",\"\",\"\",\"1-3\",\"4083\",\"39\",\"1\",\"Training\",\"Stims/Figures/57-C-30-1.bmp\",\"vafasha\",\"Left\",\"39\",\"7\",\"12\",\"3B\",\"C1\",\"C\",\"108\"
\"\",\"\",\"approach-retreat\",\"112\",\"678465\",\"0.0-112.0\",\"\",\"\",\"1-3\",\"3941\",\"37\",\"1\",\"Training\",\"Stims/Figures/100-C-30-3.bmp\",\"vafasha\",\"Right\",\"37\",\"7\",\"13\",\"3B\",\"C1\",\"C\",\"109\"
\"\",\"\",\"approach-retreat\",\"113\",\"684069\",\"0.0-113.0\",\"\",\"\",\"1-3\",\"4099\",\"38\",\"1\",\"Training\",\"Stims/Figures/27-C-30-1.bmp\",\"vafasha\",\"Down\",\"38\",\"7\",\"14\",\"3B\",\"C1\",\"C\",\"110\"
\"\",\"\",\"approach-retreat\",\"114\",\"689642\",\"0.0-114.0\",\"\",\"\",\"1-3\",\"4065\",\"39\",\"0\",\"Training\",\"Stims/Figures/57-J-0-1.bmp\",\"za:haha\",\"Left\",\"37\",\"7\",\"15\",\"3B\",\"C2\",\"C\",\"111\"
\"\",\"\",\"approach-retreat\",\"115\",\"695361\",\"0.0-115.0\",\"\",\"\",\"1-3\",\"4209\",\"40\",\"0\",\"Training\",\"Stims/Figures/111-C-30-3.bmp\",\"vafasha\",\"Down\",\"38\",\"7\",\"16\",\"3B\",\"C1\",\"C\",\"112\"
\"\",\"\",\"approach-retreat\",\"116\",\"701052\",\"0.0-116.0\",\"\",\"\",\"1-3\",\"4183\",\"38\",\"0\",\"Training\",\"Stims/Figures/118-C-20-2.bmp\",\"vafasha\",\"Up\",\"40\",\"8\",\"1\",\"3B\",\"C1\",\"C\",\"113\"
\"\",\"\",\"approach-retreat\",\"117\",\"707673\",\"0.0-117.0\",\"\",\"\",\"1-3\",\"5113\",\"40\",\"0\",\"Training\",\"Stims/Figures/111-C-30-3.bmp\",\"vafasha\",\"Down\",\"38\",\"8\",\"2\",\"3B\",\"C1\",\"C\",\"114\"
\"\",\"\",\"approach-retreat\",\"118\",\"713209\",\"0.0-118.0\",\"\",\"\",\"1-3\",\"4032\",\"39\",\"1\",\"Training\",\"Stims/Figures/100-C-30-3.bmp\",\"vafasha\",\"Left\",\"39\",\"8\",\"3\",\"3B\",\"C1\",\"C\",\"115\"
\"\",\"\",\"approach-retreat\",\"119\",\"718754\",\"0.0-119.0\",\"\",\"\",\"1-3\",\"4041\",\"38\",\"1\",\"Training\",\"Stims/Figures/84-J-0-2.bmp\",\"za:haha\",\"Up\",\"38\",\"8\",\"4\",\"3B\",\"C2\",\"C\",\"116\"
\"\",\"\",\"approach-retreat\",\"120\",\"724412\",\"0.0-120.0\",\"\",\"\",\"1-3\",\"4145\",\"40\",\"0\",\"Training\",\"Stims/Figures/57-C-30-1.bmp\",\"vafasha\",\"Down\",\"38\",\"8\",\"5\",\"3B\",\"C1\",\"C\",\"117\"
\"\",\"\",\"approach-retreat\",\"121\",\"730120\",\"0.0-121.0\",\"\",\"\",\"1-3\",\"4205\",\"39\",\"1\",\"Training\",\"Stims/Figures/111-J-10-3.bmp\",\"za:haha\",\"Right\",\"39\",\"8\",\"6\",\"3B\",\"C2\",\"C\",\"118\"
\"\",\"\",\"approach-retreat\",\"122\",\"735822\",\"0.0-122.0\",\"\",\"\",\"1-3\",\"4198\",\"37\",\"1\",\"Training\",\"Stims/Figures/87-C-20-4.bmp\",\"vafasha\",\"Right\",\"37\",\"8\",\"7\",\"3B\",\"C1\",\"C\",\"119\"
\"\",\"\",\"approach-retreat\",\"123\",\"741401\",\"0.0-123.0\",\"\",\"\",\"1-3\",\"4075\",\"40\",\"1\",\"Training\",\"Stims/Figures/27-C-30-1.bmp\",\"vafasha\",\"Up\",\"40\",\"8\",\"8\",\"3B\",\"C1\",\"C\",\"120\"
\"\",\"\",\"approach-retreat\",\"124\",\"747004\",\"0.0-124.0\",\"\",\"\",\"1-3\",\"4098\",\"37\",\"1\",\"Training\",\"Stims/Figures/7-J-10-4.bmp\",\"za:haha\",\"Left\",\"37\",\"8\",\"9\",\"3B\",\"C2\",\"C\",\"121\"
\"\",\"\",\"approach-retreat\",\"125\",\"752500\",\"0.0-125.0\",\"\",\"\",\"1-3\",\"3991\",\"37\",\"1\",\"Training\",\"Stims/Figures/87-J-10-4.bmp\",\"za:haha\",\"Left\",\"37\",\"8\",\"10\",\"3B\",\"C2\",\"C\",\"122\"
\"\",\"\",\"approach-retreat\",\"126\",\"758001\",\"0.0-126.0\",\"\",\"\",\"1-3\",\"3997\",\"37\",\"1\",\"Training\",\"Stims/Figures/118-J-0-2.bmp\",\"za:haha\",\"Left\",\"37\",\"8\",\"11\",\"3B\",\"C2\",\"C\",\"123\"
\"\",\"\",\"approach-retreat\",\"127\",\"763612\",\"0.0-127.0\",\"\",\"\",\"1-3\",\"4108\",\"40\",\"1\",\"Training\",\"Stims/Figures/57-J-0-1.bmp\",\"za:haha\",\"Down\",\"40\",\"8\",\"12\",\"3B\",\"C2\",\"C\",\"124\"
\"\",\"\",\"approach-retreat\",\"128\",\"769149\",\"0.0-128.0\",\"\",\"\",\"1-3\",\"4033\",\"37\",\"1\",\"Training\",\"Stims/Figures/84-C-20-2.bmp\",\"vafasha\",\"Right\",\"37\",\"8\",\"13\",\"3B\",\"C1\",\"C\",\"125\"
\"\",\"\",\"approach-retreat\",\"129\",\"775031\",\"0.0-129.0\",\"\",\"\",\"1-3\",\"4379\",\"38\",\"1\",\"Training\",\"Stims/Figures/7-C-20-4.bmp\",\"vafasha\",\"Down\",\"38\",\"8\",\"14\",\"3B\",\"C1\",\"C\",\"126\"
\"\",\"\",\"approach-retreat\",\"130\",\"781539\",\"0.0-130.0\",\"\",\"\",\"1-3\",\"5004\",\"38\",\"1\",\"Training\",\"Stims/Figures/27-J-0-1.bmp\",\"za:haha\",\"Up\",\"38\",\"8\",\"15\",\"3B\",\"C2\",\"C\",\"127\"
\"\",\"\",\"approach-retreat\",\"131\",\"787110\",\"0.0-131.0\",\"\",\"\",\"1-3\",\"4065\",\"39\",\"1\",\"Training\",\"Stims/Figures/100-J-10-3.bmp\",\"za:haha\",\"Right\",\"39\",\"8\",\"16\",\"3B\",\"C2\",\"C\",\"128\"
\"\",\"\",\"approach-retreat\",\"132\",\"792693\",\"0.0-132.0\",\"\",\"\",\"1-3\",\"4079\",\"37\",\"1\",\"Training\",\"Stims/Figures/111-C-30-3.bmp\",\"vafasha\",\"Right\",\"37\",\"9\",\"1\",\"3B\",\"C1\",\"C\",\"129\"
\"\",\"\",\"approach-retreat\",\"133\",\"798398\",\"0.0-133.0\",\"\",\"\",\"1-3\",\"4201\",\"38\",\"1\",\"Training\",\"Stims/Figures/100-J-10-3.bmp\",\"za:haha\",\"Up\",\"38\",\"9\",\"2\",\"3B\",\"C2\",\"C\",\"130\"
\"\",\"\",\"approach-retreat\",\"134\",\"804023\",\"0.0-134.0\",\"\",\"\",\"1-3\",\"4120\",\"38\",\"1\",\"Training\",\"Stims/Figures/100-C-30-3.bmp\",\"vafasha\",\"Down\",\"38\",\"9\",\"3\",\"3B\",\"C1\",\"C\",\"131\"
\"\",\"\",\"approach-retreat\",\"135\",\"809673\",\"0.0-135.0\",\"\",\"\",\"1-3\",\"4147\",\"37\",\"1\",\"Training\",\"Stims/Figures/7-J-10-4.bmp\",\"za:haha\",\"Left\",\"37\",\"9\",\"4\",\"3B\",\"C2\",\"C\",\"132\"
\"\",\"\",\"approach-retreat\",\"136\",\"815253\",\"0.0-136.0\",\"\",\"\",\"1-3\",\"4077\",\"39\",\"1\",\"Training\",\"Stims/Figures/84-C-20-2.bmp\",\"vafasha\",\"Left\",\"39\",\"9\",\"5\",\"3B\",\"C1\",\"C\",\"133\"
\"\",\"\",\"approach-retreat\",\"137\",\"821050\",\"0.0-137.0\",\"\",\"\",\"1-3\",\"4290\",\"37\",\"0\",\"Training\",\"Stims/Figures/84-J-0-2.bmp\",\"za:haha\",\"Right\",\"39\",\"9\",\"6\",\"3B\",\"C2\",\"C\",\"134\"
\"\",\"\",\"approach-retreat\",\"138\",\"826670\",\"0.0-138.0\",\"\",\"\",\"1-3\",\"4116\",\"40\",\"1\",\"Training\",\"Stims/Figures/57-J-0-1.bmp\",\"za:haha\",\"Down\",\"40\",\"9\",\"7\",\"3B\",\"C2\",\"C\",\"135\"
\"\",\"\",\"approach-retreat\",\"139\",\"832292\",\"0.0-139.0\",\"\",\"\",\"1-3\",\"4118\",\"38\",\"1\",\"Training\",\"Stims/Figures/87-J-10-4.bmp\",\"za:haha\",\"Up\",\"38\",\"9\",\"8\",\"3B\",\"C2\",\"C\",\"136\"
\"\",\"\",\"approach-retreat\",\"140\",\"837852\",\"0.0-140.0\",\"\",\"\",\"1-3\",\"4058\",\"37\",\"1\",\"Training\",\"Stims/Figures/7-C-20-4.bmp\",\"vafasha\",\"Right\",\"37\",\"9\",\"9\",\"3B\",\"C1\",\"C\",\"137\"
\"\",\"\",\"approach-retreat\",\"141\",\"843491\",\"0.0-141.0\",\"\",\"\",\"1-3\",\"4136\",\"38\",\"1\",\"Training\",\"Stims/Figures/57-C-30-1.bmp\",\"vafasha\",\"Down\",\"38\",\"9\",\"10\",\"3B\",\"C1\",\"C\",\"138\"
\"\",\"\",\"approach-retreat\",\"142\",\"849352\",\"0.0-142.0\",\"\",\"\",\"1-3\",\"4356\",\"40\",\"1\",\"Training\",\"Stims/Figures/87-C-20-4.bmp\",\"vafasha\",\"Up\",\"40\",\"9\",\"11\",\"3B\",\"C1\",\"C\",\"139\"
\"\",\"\",\"approach-retreat\",\"143\",\"855344\",\"0.0-143.0\",\"\",\"\",\"1-3\",\"4487\",\"40\",\"1\",\"Training\",\"Stims/Figures/111-J-10-3.bmp\",\"za:haha\",\"Down\",\"40\",\"9\",\"12\",\"3B\",\"C2\",\"C\",\"140\"
\"\",\"\",\"approach-retreat\",\"144\",\"861170\",\"0.0-144.0\",\"\",\"\",\"1-3\",\"4313\",\"38\",\"0\",\"Training\",\"Stims/Figures/27-C-30-1.bmp\",\"vafasha\",\"Up\",\"40\",\"9\",\"13\",\"3B\",\"C1\",\"C\",\"141\"
\"\",\"\",\"approach-retreat\",\"145\",\"866972\",\"0.0-145.0\",\"\",\"\",\"1-3\",\"4298\",\"39\",\"1\",\"Training\",\"Stims/Figures/118-C-20-2.bmp\",\"vafasha\",\"Left\",\"39\",\"9\",\"14\",\"3B\",\"C1\",\"C\",\"142\"
\"\",\"\",\"approach-retreat\",\"146\",\"872927\",\"0.0-146.0\",\"\",\"\",\"1-3\",\"4452\",\"37\",\"1\",\"Training\",\"Stims/Figures/27-J-0-1.bmp\",\"za:haha\",\"Left\",\"37\",\"9\",\"15\",\"3B\",\"C2\",\"C\",\"143\"
\"\",\"\",\"approach-retreat\",\"147\",\"878785\",\"0.0-147.0\",\"\",\"\",\"1-3\",\"4353\",\"39\",\"1\",\"Training\",\"Stims/Figures/118-J-0-2.bmp\",\"za:haha\",\"Right\",\"39\",\"9\",\"16\",\"3B\",\"C2\",\"C\",\"144\"
\"15787\",\"\",\"instructions\",\"148\",\"894572\",\"0.0-148.0\",\"[{\"\"page_index\"\":0,\"\"viewing_time\"\":15786}]\",\"\",\"\",\"\",\"\",\"\",\"\",\"\",\"\",\"\",\"\",\"\",\"\",\"\",\"\",\"\",\"\"
\"\",\"\",\"approach-retreat\",\"149\",\"900099\",\"0.0-149.0\",\"\",\"\",\"1-3\",\"4015\",\"37\",\"1\",\"Testing\",\"Stims/Figures/84-C-20-2.bmp\",\"vafasha\",\"Right\",\"37\",\"1\",\"1\",\"3B\",\"C1\",\"C\",\"1\"
\"\",\"\",\"approach-retreat\",\"150\",\"905859\",\"0.0-150.0\",\"\",\"\",\"1-3\",\"4257\",\"38\",\"1\",\"Testing\",\"Stims/Figures/84-J-0-2.bmp\",\"za:haha\",\"Up\",\"38\",\"1\",\"2\",\"3B\",\"C2\",\"C\",\"2\"
\"\",\"\",\"approach-retreat\",\"151\",\"911399\",\"0.0-151.0\",\"\",\"\",\"1-3\",\"4032\",\"37\",\"1\",\"Testing\",\"Stims/Figures/139-J-0-2.bmp\",\"za:haha\",\"Left\",\"37\",\"1\",\"3\",\"3B\",\"C2\",\"C\",\"3\"
\"\",\"\",\"approach-retreat\",\"152\",\"916940\",\"0.0-152.0\",\"\",\"\",\"1-3\",\"4034\",\"37\",\"1\",\"Testing\",\"Stims/Figures/100-J-10-3.bmp\",\"za:haha\",\"Left\",\"37\",\"1\",\"4\",\"3B\",\"C2\",\"C\",\"4\"
\"\",\"\",\"approach-retreat\",\"153\",\"922519\",\"0.0-153.0\",\"\",\"\",\"1-3\",\"4075\",\"38\",\"1\",\"Testing\",\"Stims/Figures/7-J-10-4.bmp\",\"za:haha\",\"Up\",\"38\",\"1\",\"5\",\"3B\",\"C2\",\"C\",\"5\"
\"\",\"\",\"approach-retreat\",\"154\",\"928129\",\"0.0-154.0\",\"\",\"\",\"1-3\",\"4100\",\"37\",\"1\",\"Testing\",\"Stims/Figures/118-C-20-2.bmp\",\"vafasha\",\"Right\",\"37\",\"1\",\"6\",\"3B\",\"C1\",\"C\",\"6\"
\"\",\"\",\"approach-retreat\",\"155\",\"933979\",\"0.0-155.0\",\"\",\"\",\"1-3\",\"4345\",\"39\",\"1\",\"Testing\",\"Stims/Figures/71-J-0-1.bmp\",\"za:haha\",\"Right\",\"39\",\"1\",\"7\",\"3B\",\"C2\",\"C\",\"7\"
\"\",\"\",\"approach-retreat\",\"156\",\"939779\",\"0.0-156.0\",\"\",\"\",\"1-3\",\"4296\",\"40\",\"0\",\"Testing\",\"Stims/Figures/87-C-20-4.bmp\",\"vafasha\",\"Down\",\"38\",\"1\",\"8\",\"3B\",\"C1\",\"C\",\"8\"
\"\",\"\",\"approach-retreat\",\"157\",\"945959\",\"0.0-157.0\",\"\",\"\",\"1-3\",\"4669\",\"37\",\"1\",\"Testing\",\"Stims/Figures/118-J-0-2.bmp\",\"za:haha\",\"Left\",\"37\",\"1\",\"9\",\"3B\",\"C2\",\"C\",\"9\"
\"\",\"\",\"approach-retreat\",\"158\",\"951619\",\"0.0-158.0\",\"\",\"\",\"1-3\",\"4152\",\"40\",\"1\",\"Testing\",\"Stims/Figures/102-J-10-4.bmp\",\"za:haha\",\"Down\",\"40\",\"1\",\"10\",\"3B\",\"C2\",\"C\",\"10\"
\"\",\"\",\"approach-retreat\",\"159\",\"957089\",\"0.0-159.0\",\"\",\"\",\"1-3\",\"3958\",\"37\",\"1\",\"Testing\",\"Stims/Figures/57-C-30-1.bmp\",\"vafasha\",\"Right\",\"37\",\"1\",\"11\",\"3B\",\"C1\",\"C\",\"11\"
\"\",\"\",\"approach-retreat\",\"160\",\"962779\",\"0.0-160.0\",\"\",\"\",\"1-3\",\"4185\",\"37\",\"1\",\"Testing\",\"Stims/Figures/111-J-10-3.bmp\",\"za:haha\",\"Left\",\"37\",\"1\",\"12\",\"3B\",\"C2\",\"C\",\"12\"
\"\",\"\",\"approach-retreat\",\"161\",\"968809\",\"0.0-161.0\",\"\",\"\",\"1-3\",\"4525\",\"40\",\"1\",\"Testing\",\"Stims/Figures/100-C-30-3.bmp\",\"vafasha\",\"Up\",\"40\",\"1\",\"13\",\"3B\",\"C1\",\"C\",\"13\"
\"\",\"\",\"approach-retreat\",\"162\",\"975319\",\"0.0-162.0\",\"\",\"\",\"1-3\",\"5003\",\"40\",\"0\",\"Testing\",\"Stims/Figures/102-C-20-4.bmp\",\"vafasha\",\"Down\",\"38\",\"1\",\"14\",\"3B\",\"C1\",\"C\",\"14\"
\"\",\"\",\"approach-retreat\",\"163\",\"980868\",\"0.0-163.0\",\"\",\"\",\"1-3\",\"4035\",\"38\",\"1\",\"Testing\",\"Stims/Figures/44-C-30-3.bmp\",\"vafasha\",\"Down\",\"38\",\"1\",\"15\",\"3B\",\"C1\",\"C\",\"15\"
\"\",\"\",\"approach-retreat\",\"164\",\"986399\",\"0.0-164.0\",\"\",\"\",\"1-3\",\"4026\",\"39\",\"1\",\"Testing\",\"Stims/Figures/111-C-30-3.bmp\",\"vafasha\",\"Left\",\"39\",\"1\",\"16\",\"3B\",\"C1\",\"C\",\"16\"
\"\",\"\",\"approach-retreat\",\"165\",\"991909\",\"0.0-165.0\",\"\",\"\",\"1-3\",\"3996\",\"39\",\"1\",\"Testing\",\"Stims/Figures/44-J-10-3.bmp\",\"za:haha\",\"Right\",\"39\",\"1\",\"17\",\"3B\",\"C2\",\"C\",\"17\"
\"\",\"\",\"approach-retreat\",\"166\",\"997459\",\"0.0-166.0\",\"\",\"\",\"1-3\",\"4039\",\"38\",\"1\",\"Testing\",\"Stims/Figures/87-J-10-4.bmp\",\"za:haha\",\"Up\",\"38\",\"1\",\"18\",\"3B\",\"C2\",\"C\",\"18\"
\"\",\"\",\"approach-retreat\",\"167\",\"1003168\",\"0.0-167.0\",\"\",\"\",\"1-3\",\"4197\",\"40\",\"1\",\"Testing\",\"Stims/Figures/57-J-0-1.bmp\",\"za:haha\",\"Down\",\"40\",\"1\",\"19\",\"3B\",\"C2\",\"C\",\"19\"
\"\",\"\",\"approach-retreat\",\"168\",\"1008739\",\"0.0-168.0\",\"\",\"\",\"1-3\",\"4062\",\"39\",\"1\",\"Testing\",\"Stims/Figures/71-C-30-1.bmp\",\"vafasha\",\"Left\",\"39\",\"1\",\"20\",\"3B\",\"C1\",\"C\",\"20\"
\"\",\"\",\"approach-retreat\",\"169\",\"1014398\",\"0.0-169.0\",\"\",\"\",\"1-3\",\"4152\",\"40\",\"1\",\"Testing\",\"Stims/Figures/27-C-30-1.bmp\",\"vafasha\",\"Up\",\"40\",\"1\",\"21\",\"3B\",\"C1\",\"C\",\"21\"
\"\",\"\",\"approach-retreat\",\"170\",\"1020139\",\"0.0-170.0\",\"\",\"\",\"1-3\",\"4233\",\"40\",\"1\",\"Testing\",\"Stims/Figures/139-C-20-2.bmp\",\"vafasha\",\"Up\",\"40\",\"1\",\"22\",\"3B\",\"C1\",\"C\",\"22\"
\"\",\"\",\"approach-retreat\",\"171\",\"1025718\",\"0.0-171.0\",\"\",\"\",\"1-3\",\"4076\",\"39\",\"1\",\"Testing\",\"Stims/Figures/27-J-0-1.bmp\",\"za:haha\",\"Right\",\"39\",\"1\",\"23\",\"3B\",\"C2\",\"C\",\"23\"
\"\",\"\",\"approach-retreat\",\"172\",\"1031258\",\"0.0-172.0\",\"\",\"\",\"1-3\",\"4033\",\"38\",\"1\",\"Testing\",\"Stims/Figures/7-C-20-4.bmp\",\"vafasha\",\"Down\",\"38\",\"1\",\"24\",\"3B\",\"C1\",\"C\",\"24\"
\"\",\"\",\"approach-retreat\",\"173\",\"1036738\",\"0.0-173.0\",\"\",\"\",\"1-3\",\"3968\",\"38\",\"1\",\"Testing\",\"Stims/Figures/102-C-20-4.bmp\",\"vafasha\",\"Down\",\"38\",\"2\",\"1\",\"3B\",\"C1\",\"C\",\"25\"
\"\",\"\",\"approach-retreat\",\"174\",\"1042299\",\"0.0-174.0\",\"\",\"\",\"1-3\",\"4051\",\"40\",\"1\",\"Testing\",\"Stims/Figures/57-C-30-1.bmp\",\"vafasha\",\"Up\",\"40\",\"2\",\"2\",\"3B\",\"C1\",\"C\",\"26\"
\"\",\"\",\"approach-retreat\",\"175\",\"1047809\",\"0.0-175.0\",\"\",\"\",\"1-3\",\"3998\",\"39\",\"1\",\"Testing\",\"Stims/Figures/84-C-20-2.bmp\",\"vafasha\",\"Left\",\"39\",\"2\",\"3\",\"3B\",\"C1\",\"C\",\"27\"
\"\",\"\",\"approach-retreat\",\"176\",\"1053459\",\"0.0-176.0\",\"\",\"\",\"1-3\",\"4139\",\"37\",\"1\",\"Testing\",\"Stims/Figures/71-J-0-1.bmp\",\"za:haha\",\"Left\",\"37\",\"2\",\"4\",\"3B\",\"C2\",\"C\",\"28\"
\"\",\"\",\"approach-retreat\",\"177\",\"1059088\",\"0.0-177.0\",\"\",\"\",\"1-3\",\"4125\",\"38\",\"1\",\"Testing\",\"Stims/Figures/100-J-10-3.bmp\",\"za:haha\",\"Up\",\"38\",\"2\",\"5\",\"3B\",\"C2\",\"C\",\"29\"
\"\",\"\",\"approach-retreat\",\"178\",\"1064868\",\"0.0-178.0\",\"\",\"\",\"1-3\",\"4277\",\"40\",\"1\",\"Testing\",\"Stims/Figures/111-C-30-3.bmp\",\"vafasha\",\"Up\",\"40\",\"2\",\"6\",\"3B\",\"C1\",\"C\",\"30\"
\"\",\"\",\"approach-retreat\",\"179\",\"1070619\",\"0.0-179.0\",\"\",\"\",\"1-3\",\"4237\",\"37\",\"0\",\"Testing\",\"Stims/Figures/139-J-0-2.bmp\",\"za:haha\",\"Right\",\"39\",\"2\",\"7\",\"3B\",\"C2\",\"C\",\"31\"
\"\",\"\",\"approach-retreat\",\"180\",\"1076778\",\"0.0-180.0\",\"\",\"\",\"1-3\",\"4647\",\"40\",\"1\",\"Testing\",\"Stims/Figures/118-J-0-2.bmp\",\"za:haha\",\"Down\",\"40\",\"2\",\"8\",\"3B\",\"C2\",\"C\",\"32\"
\"\",\"\",\"approach-retreat\",\"181\",\"1082700\",\"0.0-181.0\",\"\",\"\",\"1-3\",\"4411\",\"39\",\"1\",\"Testing\",\"Stims/Figures/118-C-20-2.bmp\",\"vafasha\",\"Left\",\"39\",\"2\",\"9\",\"3B\",\"C1\",\"C\",\"33\"
\"\",\"\",\"approach-retreat\",\"182\",\"1088400\",\"0.0-182.0\",\"\",\"\",\"1-3\",\"4195\",\"40\",\"1\",\"Testing\",\"Stims/Figures/44-J-10-3.bmp\",\"za:haha\",\"Down\",\"40\",\"2\",\"10\",\"3B\",\"C2\",\"C\",\"34\"
\"\",\"\",\"approach-retreat\",\"183\",\"1093970\",\"0.0-183.0\",\"\",\"\",\"1-3\",\"4059\",\"39\",\"1\",\"Testing\",\"Stims/Figures/57-J-0-1.bmp\",\"za:haha\",\"Right\",\"39\",\"2\",\"11\",\"3B\",\"C2\",\"C\",\"35\"
\"\",\"\",\"approach-retreat\",\"184\",\"1099540\",\"0.0-184.0\",\"\",\"\",\"1-3\",\"4059\",\"40\",\"1\",\"Testing\",\"Stims/Figures/7-C-20-4.bmp\",\"vafasha\",\"Up\",\"40\",\"2\",\"12\",\"3B\",\"C1\",\"C\",\"36\"
\"\",\"\",\"approach-retreat\",\"185\",\"1105280\",\"0.0-185.0\",\"\",\"\",\"1-3\",\"4230\",\"39\",\"1\",\"Testing\",\"Stims/Figures/139-C-20-2.bmp\",\"vafasha\",\"Left\",\"39\",\"2\",\"13\",\"3B\",\"C1\",\"C\",\"37\"
\"\",\"\",\"approach-retreat\",\"186\",\"1110860\",\"0.0-186.0\",\"\",\"\",\"1-3\",\"4069\",\"37\",\"0\",\"Testing\",\"Stims/Figures/87-C-20-4.bmp\",\"vafasha\",\"Left\",\"39\",\"2\",\"14\",\"3B\",\"C1\",\"C\",\"38\"
\"\",\"\",\"approach-retreat\",\"187\",\"1116601\",\"0.0-187.0\",\"\",\"\",\"1-3\",\"4232\",\"39\",\"1\",\"Testing\",\"Stims/Figures/100-C-30-3.bmp\",\"vafasha\",\"Left\",\"39\",\"2\",\"15\",\"3B\",\"C1\",\"C\",\"39\"
\"\",\"\",\"approach-retreat\",\"188\",\"1122180\",\"0.0-188.0\",\"\",\"\",\"1-3\",\"4067\",\"38\",\"1\",\"Testing\",\"Stims/Figures/7-J-10-4.bmp\",\"za:haha\",\"Up\",\"38\",\"2\",\"16\",\"3B\",\"C2\",\"C\",\"40\"
\"\",\"\",\"approach-retreat\",\"189\",\"1127900\",\"0.0-189.0\",\"\",\"\",\"1-3\",\"4215\",\"40\",\"1\",\"Testing\",\"Stims/Figures/84-J-0-2.bmp\",\"za:haha\",\"Down\",\"40\",\"2\",\"17\",\"3B\",\"C2\",\"C\",\"41\"
\"\",\"\",\"approach-retreat\",\"190\",\"1133300\",\"0.0-190.0\",\"\",\"\",\"1-3\",\"3893\",\"39\",\"1\",\"Testing\",\"Stims/Figures/27-J-0-1.bmp\",\"za:haha\",\"Right\",\"39\",\"2\",\"18\",\"3B\",\"C2\",\"C\",\"42\"
\"\",\"\",\"approach-retreat\",\"191\",\"1138760\",\"0.0-191.0\",\"\",\"\",\"1-3\",\"3954\",\"39\",\"1\",\"Testing\",\"Stims/Figures/87-J-10-4.bmp\",\"za:haha\",\"Right\",\"39\",\"2\",\"19\",\"3B\",\"C2\",\"C\",\"43\"
\"\",\"\",\"approach-retreat\",\"192\",\"1144460\",\"0.0-192.0\",\"\",\"\",\"1-3\",\"4194\",\"38\",\"0\",\"Testing\",\"Stims/Figures/102-J-10-4.bmp\",\"za:haha\",\"Down\",\"40\",\"2\",\"20\",\"3B\",\"C2\",\"C\",\"44\"
\"\",\"\",\"approach-retreat\",\"193\",\"1150040\",\"0.0-193.0\",\"\",\"\",\"1-3\",\"4069\",\"37\",\"1\",\"Testing\",\"Stims/Figures/44-C-30-3.bmp\",\"vafasha\",\"Right\",\"37\",\"2\",\"21\",\"3B\",\"C1\",\"C\",\"45\"
\"\",\"\",\"approach-retreat\",\"194\",\"1155550\",\"0.0-194.0\",\"\",\"\",\"1-3\",\"4007\",\"38\",\"1\",\"Testing\",\"Stims/Figures/111-J-10-3.bmp\",\"za:haha\",\"Up\",\"38\",\"2\",\"22\",\"3B\",\"C2\",\"C\",\"46\"
\"\",\"\",\"approach-retreat\",\"195\",\"1161140\",\"0.0-195.0\",\"\",\"\",\"1-3\",\"4086\",\"37\",\"1\",\"Testing\",\"Stims/Figures/71-C-30-1.bmp\",\"vafasha\",\"Right\",\"37\",\"2\",\"23\",\"3B\",\"C1\",\"C\",\"47\"
\"\",\"\",\"approach-retreat\",\"196\",\"1166820\",\"0.0-196.0\",\"\",\"\",\"1-3\",\"4167\",\"38\",\"1\",\"Testing\",\"Stims/Figures/27-C-30-1.bmp\",\"vafasha\",\"Down\",\"38\",\"2\",\"24\",\"3B\",\"C1\",\"C\",\"48\"
\"\",\"\",\"approach-retreat\",\"197\",\"1172420\",\"0.0-197.0\",\"\",\"\",\"1-3\",\"4093\",\"38\",\"1\",\"Testing\",\"Stims/Figures/7-C-20-4.bmp\",\"vafasha\",\"Down\",\"38\",\"3\",\"1\",\"3B\",\"C1\",\"C\",\"49\"
\"\",\"\",\"approach-retreat\",\"198\",\"1177870\",\"0.0-198.0\",\"\",\"\",\"1-3\",\"3939\",\"37\",\"1\",\"Testing\",\"Stims/Figures/102-C-20-4.bmp\",\"vafasha\",\"Right\",\"37\",\"3\",\"2\",\"3B\",\"C1\",\"C\",\"50\"
\"\",\"\",\"approach-retreat\",\"199\",\"1183630\",\"0.0-199.0\",\"\",\"\",\"1-3\",\"4252\",\"40\",\"1\",\"Testing\",\"Stims/Figures/27-J-0-1.bmp\",\"za:haha\",\"Down\",\"40\",\"3\",\"3\",\"3B\",\"C2\",\"C\",\"51\"
\"\",\"\",\"approach-retreat\",\"200\",\"1189150\",\"0.0-200.0\",\"\",\"\",\"1-3\",\"4014\",\"38\",\"1\",\"Testing\",\"Stims/Figures/118-C-20-2.bmp\",\"vafasha\",\"Down\",\"38\",\"3\",\"4\",\"3B\",\"C1\",\"C\",\"52\"
\"\",\"\",\"approach-retreat\",\"201\",\"1194769\",\"0.0-201.0\",\"\",\"\",\"1-3\",\"4117\",\"38\",\"1\",\"Testing\",\"Stims/Figures/27-C-30-1.bmp\",\"vafasha\",\"Down\",\"38\",\"3\",\"5\",\"3B\",\"C1\",\"C\",\"53\"
\"\",\"\",\"approach-retreat\",\"202\",\"1200460\",\"0.0-202.0\",\"\",\"\",\"1-3\",\"4185\",\"38\",\"1\",\"Testing\",\"Stims/Figures/84-J-0-2.bmp\",\"za:haha\",\"Up\",\"38\",\"3\",\"6\",\"3B\",\"C2\",\"C\",\"54\"
\"\",\"\",\"approach-retreat\",\"203\",\"1206299\",\"0.0-203.0\",\"\",\"\",\"1-3\",\"4334\",\"39\",\"1\",\"Testing\",\"Stims/Figures/100-C-30-3.bmp\",\"vafasha\",\"Left\",\"39\",\"3\",\"7\",\"3B\",\"C1\",\"C\",\"55\"
\"\",\"\",\"approach-retreat\",\"204\",\"1211990\",\"0.0-204.0\",\"\",\"\",\"1-3\",\"4180\",\"37\",\"1\",\"Testing\",\"Stims/Figures/57-C-30-1.bmp\",\"vafasha\",\"Right\",\"37\",\"3\",\"8\",\"3B\",\"C1\",\"C\",\"56\"
\"\",\"\",\"approach-retreat\",\"205\",\"1217990\",\"0.0-205.0\",\"\",\"\",\"1-3\",\"4492\",\"38\",\"1\",\"Testing\",\"Stims/Figures/118-J-0-2.bmp\",\"za:haha\",\"Up\",\"38\",\"3\",\"9\",\"3B\",\"C2\",\"C\",\"57\"
\"\",\"\",\"approach-retreat\",\"206\",\"1223510\",\"0.0-206.0\",\"\",\"\",\"1-3\",\"4010\",\"38\",\"1\",\"Testing\",\"Stims/Figures/100-J-10-3.bmp\",\"za:haha\",\"Up\",\"38\",\"3\",\"10\",\"3B\",\"C2\",\"C\",\"58\"
\"\",\"\",\"approach-retreat\",\"207\",\"1229910\",\"0.0-207.0\",\"\",\"\",\"1-3\",\"4895\",\"39\",\"1\",\"Testing\",\"Stims/Figures/87-C-20-4.bmp\",\"vafasha\",\"Left\",\"39\",\"3\",\"11\",\"3B\",\"C1\",\"C\",\"59\"
\"\",\"\",\"approach-retreat\",\"208\",\"1235860\",\"0.0-208.0\",\"\",\"\",\"1-3\",\"4438\",\"40\",\"1\",\"Testing\",\"Stims/Figures/71-J-0-1.bmp\",\"za:haha\",\"Down\",\"40\",\"3\",\"12\",\"3B\",\"C2\",\"C\",\"60\"
\"\",\"\",\"approach-retreat\",\"209\",\"1241329\",\"0.0-209.0\",\"\",\"\",\"1-3\",\"3966\",\"39\",\"1\",\"Testing\",\"Stims/Figures/111-C-30-3.bmp\",\"vafasha\",\"Left\",\"39\",\"3\",\"13\",\"3B\",\"C1\",\"C\",\"61\"
\"\",\"\",\"approach-retreat\",\"210\",\"1246800\",\"0.0-210.0\",\"\",\"\",\"1-3\",\"3963\",\"38\",\"1\",\"Testing\",\"Stims/Figures/44-C-30-3.bmp\",\"vafasha\",\"Down\",\"38\",\"3\",\"14\",\"3B\",\"C1\",\"C\",\"62\"
\"\",\"\",\"approach-retreat\",\"211\",\"1252650\",\"0.0-211.0\",\"\",\"\",\"1-3\",\"4339\",\"37\",\"1\",\"Testing\",\"Stims/Figures/71-C-30-1.bmp\",\"vafasha\",\"Right\",\"37\",\"3\",\"15\",\"3B\",\"C1\",\"C\",\"63\"
\"\",\"\",\"approach-retreat\",\"212\",\"1258190\",\"0.0-212.0\",\"\",\"\",\"1-3\",\"4034\",\"37\",\"1\",\"Testing\",\"Stims/Figures/139-C-20-2.bmp\",\"vafasha\",\"Right\",\"37\",\"3\",\"16\",\"3B\",\"C1\",\"C\",\"64\"
\"\",\"\",\"approach-retreat\",\"213\",\"1263880\",\"0.0-213.0\",\"\",\"\",\"1-3\",\"4181\",\"38\",\"1\",\"Testing\",\"Stims/Figures/44-J-10-3.bmp\",\"za:haha\",\"Up\",\"38\",\"3\",\"17\",\"3B\",\"C2\",\"C\",\"65\"
\"\",\"\",\"approach-retreat\",\"214\",\"1269819\",\"0.0-214.0\",\"\",\"\",\"1-3\",\"4428\",\"39\",\"1\",\"Testing\",\"Stims/Figures/84-C-20-2.bmp\",\"vafasha\",\"Left\",\"39\",\"3\",\"18\",\"3B\",\"C1\",\"C\",\"66\"
\"\",\"\",\"approach-retreat\",\"215\",\"1275329\",\"0.0-215.0\",\"\",\"\",\"1-3\",\"4006\",\"37\",\"1\",\"Testing\",\"Stims/Figures/87-J-10-4.bmp\",\"za:haha\",\"Left\",\"37\",\"3\",\"19\",\"3B\",\"C2\",\"C\",\"67\"
\"\",\"\",\"approach-retreat\",\"216\",\"1280820\",\"0.0-216.0\",\"\",\"\",\"1-3\",\"3982\",\"37\",\"1\",\"Testing\",\"Stims/Figures/7-J-10-4.bmp\",\"za:haha\",\"Left\",\"37\",\"3\",\"20\",\"3B\",\"C2\",\"C\",\"68\"
\"\",\"\",\"approach-retreat\",\"217\",\"1286369\",\"0.0-217.0\",\"\",\"\",\"1-3\",\"4038\",\"39\",\"1\",\"Testing\",\"Stims/Figures/57-J-0-1.bmp\",\"za:haha\",\"Right\",\"39\",\"3\",\"21\",\"3B\",\"C2\",\"C\",\"69\"
\"\",\"\",\"approach-retreat\",\"218\",\"1291930\",\"0.0-218.0\",\"\",\"\",\"1-3\",\"4052\",\"38\",\"1\",\"Testing\",\"Stims/Figures/139-J-0-2.bmp\",\"za:haha\",\"Up\",\"38\",\"3\",\"22\",\"3B\",\"C2\",\"C\",\"70\"
\"\",\"\",\"approach-retreat\",\"219\",\"1297499\",\"0.0-219.0\",\"\",\"\",\"1-3\",\"4057\",\"38\",\"1\",\"Testing\",\"Stims/Figures/102-J-10-4.bmp\",\"za:haha\",\"Up\",\"38\",\"3\",\"23\",\"3B\",\"C2\",\"C\",\"71\"
\"\",\"\",\"approach-retreat\",\"220\",\"1302989\",\"0.0-220.0\",\"\",\"\",\"1-3\",\"3987\",\"39\",\"1\",\"Testing\",\"Stims/Figures/111-J-10-3.bmp\",\"za:haha\",\"Right\",\"39\",\"3\",\"24\",\"3B\",\"C2\",\"C\",\"72\"
\"\",\"\",\"approach-retreat\",\"221\",\"1308549\",\"0.0-221.0\",\"\",\"\",\"1-3\",\"4053\",\"39\",\"1\",\"Testing\",\"Stims/Figures/102-J-10-4.bmp\",\"za:haha\",\"Right\",\"39\",\"4\",\"1\",\"3B\",\"C2\",\"C\",\"73\"
\"\",\"\",\"approach-retreat\",\"222\",\"1314059\",\"0.0-222.0\",\"\",\"\",\"1-3\",\"4001\",\"40\",\"1\",\"Testing\",\"Stims/Figures/87-C-20-4.bmp\",\"vafasha\",\"Up\",\"40\",\"4\",\"2\",\"3B\",\"C1\",\"C\",\"74\"
\"\",\"\",\"approach-retreat\",\"223\",\"1319949\",\"0.0-223.0\",\"\",\"\",\"1-3\",\"4387\",\"40\",\"1\",\"Testing\",\"Stims/Figures/7-C-20-4.bmp\",\"vafasha\",\"Up\",\"40\",\"4\",\"3\",\"3B\",\"C1\",\"C\",\"75\"
\"\",\"\",\"approach-retreat\",\"224\",\"1325370\",\"0.0-224.0\",\"\",\"\",\"1-3\",\"3913\",\"39\",\"1\",\"Testing\",\"Stims/Figures/84-J-0-2.bmp\",\"za:haha\",\"Right\",\"39\",\"4\",\"4\",\"3B\",\"C2\",\"C\",\"76\"
\"\",\"\",\"approach-retreat\",\"225\",\"1330769\",\"0.0-225.0\",\"\",\"\",\"1-3\",\"3896\",\"38\",\"1\",\"Testing\",\"Stims/Figures/87-J-10-4.bmp\",\"za:haha\",\"Up\",\"38\",\"4\",\"5\",\"3B\",\"C2\",\"C\",\"77\"
\"\",\"\",\"approach-retreat\",\"226\",\"1336569\",\"0.0-226.0\",\"\",\"\",\"1-3\",\"4291\",\"40\",\"1\",\"Testing\",\"Stims/Figures/100-J-10-3.bmp\",\"za:haha\",\"Down\",\"40\",\"4\",\"6\",\"3B\",\"C2\",\"C\",\"78\"
\"\",\"\",\"approach-retreat\",\"227\",\"1342540\",\"0.0-227.0\",\"\",\"\",\"1-3\",\"4466\",\"38\",\"1\",\"Testing\",\"Stims/Figures/7-J-10-4.bmp\",\"za:haha\",\"Up\",\"38\",\"4\",\"7\",\"3B\",\"C2\",\"C\",\"79\"
\"\",\"\",\"approach-retreat\",\"228\",\"1349289\",\"0.0-228.0\",\"\",\"\",\"1-3\",\"5247\",\"37\",\"0\",\"Testing\",\"Stims/Figures/102-C-20-4.bmp\",\"vafasha\",\"Left\",\"39\",\"4\",\"8\",\"3B\",\"C1\",\"C\",\"80\"
\"\",\"\",\"approach-retreat\",\"229\",\"1355209\",\"0.0-229.0\",\"\",\"\",\"1-3\",\"4417\",\"40\",\"0\",\"Testing\",\"Stims/Figures/139-J-0-2.bmp\",\"za:haha\",\"Up\",\"38\",\"4\",\"9\",\"3B\",\"C2\",\"C\",\"81\"
\"\",\"\",\"approach-retreat\",\"230\",\"1360939\",\"0.0-230.0\",\"\",\"\",\"1-3\",\"4220\",\"39\",\"0\",\"Testing\",\"Stims/Figures/118-J-0-2.bmp\",\"za:haha\",\"Left\",\"37\",\"4\",\"10\",\"3B\",\"C2\",\"C\",\"82\"
\"\",\"\",\"approach-retreat\",\"231\",\"1366619\",\"0.0-231.0\",\"\",\"\",\"1-3\",\"4168\",\"40\",\"1\",\"Testing\",\"Stims/Figures/139-C-20-2.bmp\",\"vafasha\",\"Up\",\"40\",\"4\",\"11\",\"3B\",\"C1\",\"C\",\"83\"
\"\",\"\",\"approach-retreat\",\"232\",\"1372399\",\"0.0-232.0\",\"\",\"\",\"1-3\",\"4267\",\"40\",\"1\",\"Testing\",\"Stims/Figures/57-J-0-1.bmp\",\"za:haha\",\"Down\",\"40\",\"4\",\"12\",\"3B\",\"C2\",\"C\",\"84\"
\"\",\"\",\"approach-retreat\",\"233\",\"1378079\",\"0.0-233.0\",\"\",\"\",\"1-3\",\"4177\",\"37\",\"1\",\"Testing\",\"Stims/Figures/111-J-10-3.bmp\",\"za:haha\",\"Left\",\"37\",\"4\",\"13\",\"3B\",\"C2\",\"C\",\"85\"
\"\",\"\",\"approach-retreat\",\"234\",\"1383829\",\"0.0-234.0\",\"\",\"\",\"1-3\",\"4234\",\"40\",\"1\",\"Testing\",\"Stims/Figures/27-J-0-1.bmp\",\"za:haha\",\"Down\",\"40\",\"4\",\"14\",\"3B\",\"C2\",\"C\",\"86\"
\"\",\"\",\"approach-retreat\",\"235\",\"1390099\",\"0.0-235.0\",\"\",\"\",\"1-3\",\"4755\",\"37\",\"1\",\"Testing\",\"Stims/Figures/100-C-30-3.bmp\",\"vafasha\",\"Right\",\"37\",\"4\",\"15\",\"3B\",\"C1\",\"C\",\"87\"
\"\",\"\",\"approach-retreat\",\"236\",\"1395679\",\"0.0-236.0\",\"\",\"\",\"1-3\",\"4074\",\"38\",\"1\",\"Testing\",\"Stims/Figures/118-C-20-2.bmp\",\"vafasha\",\"Down\",\"38\",\"4\",\"16\",\"3B\",\"C1\",\"C\",\"88\"
\"\",\"\",\"approach-retreat\",\"237\",\"1401798\",\"0.0-237.0\",\"\",\"\",\"1-3\",\"4611\",\"37\",\"1\",\"Testing\",\"Stims/Figures/71-J-0-1.bmp\",\"za:haha\",\"Left\",\"37\",\"4\",\"17\",\"3B\",\"C2\",\"C\",\"89\"
\"\",\"\",\"approach-retreat\",\"238\",\"1407369\",\"0.0-238.0\",\"\",\"\",\"1-3\",\"4057\",\"38\",\"1\",\"Testing\",\"Stims/Figures/57-C-30-1.bmp\",\"vafasha\",\"Down\",\"38\",\"4\",\"18\",\"3B\",\"C1\",\"C\",\"90\"
\"\",\"\",\"approach-retreat\",\"239\",\"1412979\",\"0.0-239.0\",\"\",\"\",\"1-3\",\"4103\",\"39\",\"1\",\"Testing\",\"Stims/Figures/84-C-20-2.bmp\",\"vafasha\",\"Left\",\"39\",\"4\",\"19\",\"3B\",\"C1\",\"C\",\"91\"
\"\",\"\",\"approach-retreat\",\"240\",\"1418589\",\"0.0-240.0\",\"\",\"\",\"1-3\",\"4102\",\"37\",\"1\",\"Testing\",\"Stims/Figures/44-C-30-3.bmp\",\"vafasha\",\"Right\",\"37\",\"4\",\"20\",\"3B\",\"C1\",\"C\",\"92\"
\"\",\"\",\"approach-retreat\",\"241\",\"1424409\",\"0.0-241.0\",\"\",\"\",\"1-3\",\"4316\",\"37\",\"1\",\"Testing\",\"Stims/Figures/71-C-30-1.bmp\",\"vafasha\",\"Right\",\"37\",\"4\",\"21\",\"3B\",\"C1\",\"C\",\"93\"
\"\",\"\",\"approach-retreat\",\"242\",\"1430289\",\"0.0-242.0\",\"\",\"\",\"1-3\",\"4375\",\"37\",\"1\",\"Testing\",\"Stims/Figures/27-C-30-1.bmp\",\"vafasha\",\"Right\",\"37\",\"4\",\"22\",\"3B\",\"C1\",\"C\",\"94\"
\"\",\"\",\"approach-retreat\",\"243\",\"1435788\",\"0.0-243.0\",\"\",\"\",\"1-3\",\"3995\",\"38\",\"1\",\"Testing\",\"Stims/Figures/111-C-30-3.bmp\",\"vafasha\",\"Down\",\"38\",\"4\",\"23\",\"3B\",\"C1\",\"C\",\"95\"
\"\",\"\",\"approach-retreat\",\"244\",\"1441488\",\"0.0-244.0\",\"\",\"\",\"1-3\",\"4197\",\"37\",\"1\",\"Testing\",\"Stims/Figures/44-J-10-3.bmp\",\"za:haha\",\"Left\",\"37\",\"4\",\"24\",\"3B\",\"C2\",\"C\",\"96\"
\"25021\",\"\",\"survey-text\",\"245\",\"1466516\",\"0.0-245.0\",\"\",\"{\"\"Q0\"\":\"\"PS170061\"\"}\",\"\",\"\",\"\",\"\",\"\",\"\",\"\",\"\",\"\",\"\",\"\",\"\",\"\",\"\",\"\"
