\"rt\",\"key_press\",\"trial_type\",\"trial_index\",\"time_elapsed\",\"internal_node_id\",\"view_history\",\"responses\",\"Id\",\"Rt\",\"ResKeyCode\",\"ResCorr\",\"TrialType2\",\"Image\",\"Label\",\"Location\",\"CorrectResponse\",\"Block\",\"BlockTrial\",\"Condition\",\"LabelType\",\"Subcondition\",\"trialNum\"
\"41602\",\"32\",\"text\",\"0\",\"41610\",\"0.0-0.0-0.0\",\"\",\"\",\"\",\"\",\"\",\"\",\"\",\"\",\"\",\"\",\"\",\"\",\"\",\"\",\"\",\"\",\"\"
\"33796\",\"\",\"instructions\",\"1\",\"75410\",\"0.0-1.0\",\"[{\"\"page_index\"\":0,\"\"viewing_time\"\":33794}]\",\"\",\"\",\"\",\"\",\"\",\"\",\"\",\"\",\"\",\"\",\"\",\"\",\"\",\"\",\"\",\"\"
\"13080\",\"\",\"survey-multi-choice\",\"2\",\"88548\",\"0.0-2.0\",\"\",\"{\"\"Q0\"\":\"\"Da\"\",\"\"Q1\"\":\"\"Da\"\",\"\"Q2\"\":\"\"Da\"\",\"\"Q3\"\":\"\"Da\"\",\"\"Q4\"\":\"\"Da\"\",\"\"Q5\"\":\"\"Da\"\"}\",\"\",\"\",\"\",\"\",\"\",\"\",\"\",\"\",\"\",\"\",\"\",\"\",\"\",\"\",\"\"
\"\",\"\",\"bio\",\"3\",\"98304\",\"0.0-3.0\",\"\",\"{\"\"age\"\":\"\"20\"\",\"\"gender\"\":\"\"f\"\",\"\"specify\"\":\"\"\"\"}\",\"\",\"\",\"\",\"\",\"\",\"\",\"\",\"\",\"\",\"\",\"\",\"\",\"\",\"\",\"\"
\"\",\"\",\"approach-retreat\",\"4\",\"107288\",\"0.0-4.0\",\"\",\"\",\"3-2\",\"7468\",\"37\",\"1\",\"Training\",\"Stims/Figures/44-J-10-3.bmp\",\"ta:pa:ta\",\"Left\",\"37\",\"1\",\"1\",\"1\",\"P\",\"C\",\"1\"
\"\",\"\",\"approach-retreat\",\"5\",\"116192\",\"0.0-5.0\",\"\",\"\",\"3-2\",\"7390\",\"38\",\"1\",\"Training\",\"Stims/Figures/57-C-30-1.bmp\",\"na:ma:la\",\"Down\",\"38\",\"1\",\"2\",\"1\",\"S\",\"C\",\"2\"
\"\",\"\",\"approach-retreat\",\"6\",\"122310\",\"0.0-6.0\",\"\",\"\",\"3-2\",\"4608\",\"37\",\"1\",\"Training\",\"Stims/Figures/74-C-20-4.bmp\",\"na:ma:la\",\"Right\",\"37\",\"1\",\"3\",\"1\",\"S\",\"C\",\"3\"
\"\",\"\",\"approach-retreat\",\"7\",\"130700\",\"0.0-7.0\",\"\",\"\",\"3-2\",\"6870\",\"40\",\"0\",\"Training\",\"Stims/Figures/128-J-10-3.bmp\",\"ta:pa:ta\",\"Up\",\"38\",\"1\",\"4\",\"1\",\"P\",\"C\",\"4\"
\"\",\"\",\"approach-retreat\",\"8\",\"137272\",\"0.0-8.0\",\"\",\"\",\"3-2\",\"5062\",\"40\",\"1\",\"Training\",\"Stims/Figures/139-J-0-2.bmp\",\"ta:pa:ta\",\"Down\",\"40\",\"1\",\"5\",\"1\",\"P\",\"C\",\"5\"
\"\",\"\",\"approach-retreat\",\"9\",\"143718\",\"0.0-9.0\",\"\",\"\",\"3-2\",\"4940\",\"39\",\"1\",\"Training\",\"Stims/Figures/74-J-10-4.bmp\",\"ta:pa:ta\",\"Right\",\"39\",\"1\",\"6\",\"1\",\"P\",\"C\",\"6\"
\"\",\"\",\"approach-retreat\",\"10\",\"149834\",\"0.0-10.0\",\"\",\"\",\"3-2\",\"4606\",\"39\",\"1\",\"Training\",\"Stims/Figures/86-C-30-1.bmp\",\"na:ma:la\",\"Left\",\"39\",\"1\",\"7\",\"1\",\"S\",\"C\",\"7\"
\"\",\"\",\"approach-retreat\",\"11\",\"155938\",\"0.0-11.0\",\"\",\"\",\"3-2\",\"4596\",\"40\",\"1\",\"Training\",\"Stims/Figures/86-J-0-1.bmp\",\"ta:pa:ta\",\"Down\",\"40\",\"1\",\"8\",\"1\",\"P\",\"C\",\"8\"
\"\",\"\",\"approach-retreat\",\"12\",\"163534\",\"0.0-12.0\",\"\",\"\",\"3-2\",\"6084\",\"38\",\"0\",\"Training\",\"Stims/Figures/139-C-20-2.bmp\",\"na:ma:la\",\"Up\",\"40\",\"1\",\"9\",\"1\",\"S\",\"C\",\"9\"
\"\",\"\",\"approach-retreat\",\"13\",\"169652\",\"0.0-13.0\",\"\",\"\",\"3-2\",\"4612\",\"40\",\"1\",\"Training\",\"Stims/Figures/87-C-20-4.bmp\",\"na:ma:la\",\"Up\",\"40\",\"1\",\"10\",\"1\",\"S\",\"C\",\"10\"
\"\",\"\",\"approach-retreat\",\"14\",\"175534\",\"0.0-14.0\",\"\",\"\",\"3-2\",\"4370\",\"37\",\"1\",\"Training\",\"Stims/Figures/118-C-20-2.bmp\",\"na:ma:la\",\"Right\",\"37\",\"1\",\"11\",\"1\",\"S\",\"C\",\"11\"
\"\",\"\",\"approach-retreat\",\"15\",\"182678\",\"0.0-15.0\",\"\",\"\",\"3-2\",\"5632\",\"39\",\"1\",\"Training\",\"Stims/Figures/87-J-10-4.bmp\",\"ta:pa:ta\",\"Right\",\"39\",\"1\",\"12\",\"1\",\"P\",\"C\",\"12\"
\"\",\"\",\"approach-retreat\",\"16\",\"189678\",\"0.0-16.0\",\"\",\"\",\"3-2\",\"5492\",\"37\",\"1\",\"Training\",\"Stims/Figures/57-J-0-1.bmp\",\"ta:pa:ta\",\"Left\",\"37\",\"1\",\"13\",\"1\",\"P\",\"C\",\"13\"
\"\",\"\",\"approach-retreat\",\"17\",\"195534\",\"0.0-17.0\",\"\",\"\",\"3-2\",\"4340\",\"40\",\"0\",\"Training\",\"Stims/Figures/128-C-30-3.bmp\",\"na:ma:la\",\"Down\",\"38\",\"1\",\"14\",\"1\",\"S\",\"C\",\"14\"
\"\",\"\",\"approach-retreat\",\"18\",\"201648\",\"0.0-18.0\",\"\",\"\",\"3-2\",\"4608\",\"38\",\"1\",\"Training\",\"Stims/Figures/118-J-0-2.bmp\",\"ta:pa:ta\",\"Up\",\"38\",\"1\",\"15\",\"1\",\"P\",\"C\",\"15\"
\"\",\"\",\"approach-retreat\",\"19\",\"207402\",\"0.0-19.0\",\"\",\"\",\"3-2\",\"4244\",\"39\",\"1\",\"Training\",\"Stims/Figures/44-C-30-3.bmp\",\"na:ma:la\",\"Left\",\"39\",\"1\",\"16\",\"1\",\"S\",\"C\",\"16\"
\"\",\"\",\"approach-retreat\",\"20\",\"213564\",\"0.0-20.0\",\"\",\"\",\"3-2\",\"4648\",\"37\",\"0\",\"Training\",\"Stims/Figures/57-J-0-1.bmp\",\"ta:pa:ta\",\"Right\",\"39\",\"2\",\"1\",\"1\",\"P\",\"C\",\"17\"
\"\",\"\",\"approach-retreat\",\"21\",\"219434\",\"0.0-21.0\",\"\",\"\",\"3-2\",\"4366\",\"38\",\"1\",\"Training\",\"Stims/Figures/44-C-30-3.bmp\",\"na:ma:la\",\"Down\",\"38\",\"2\",\"2\",\"1\",\"S\",\"C\",\"18\"
\"\",\"\",\"approach-retreat\",\"22\",\"225254\",\"0.0-22.0\",\"\",\"\",\"3-2\",\"4312\",\"39\",\"1\",\"Training\",\"Stims/Figures/87-C-20-4.bmp\",\"na:ma:la\",\"Left\",\"39\",\"2\",\"3\",\"1\",\"S\",\"C\",\"19\"
\"\",\"\",\"approach-retreat\",\"23\",\"232380\",\"0.0-23.0\",\"\",\"\",\"3-2\",\"5620\",\"38\",\"1\",\"Training\",\"Stims/Figures/139-J-0-2.bmp\",\"ta:pa:ta\",\"Up\",\"38\",\"2\",\"4\",\"1\",\"P\",\"C\",\"20\"
\"\",\"\",\"approach-retreat\",\"24\",\"240264\",\"0.0-24.0\",\"\",\"\",\"3-2\",\"6376\",\"37\",\"1\",\"Training\",\"Stims/Figures/57-C-30-1.bmp\",\"na:ma:la\",\"Right\",\"37\",\"2\",\"5\",\"1\",\"S\",\"C\",\"21\"
\"\",\"\",\"approach-retreat\",\"25\",\"247584\",\"0.0-25.0\",\"\",\"\",\"3-2\",\"5814\",\"39\",\"1\",\"Training\",\"Stims/Figures/74-C-20-4.bmp\",\"na:ma:la\",\"Left\",\"39\",\"2\",\"6\",\"1\",\"S\",\"C\",\"22\"
\"\",\"\",\"approach-retreat\",\"26\",\"253614\",\"0.0-26.0\",\"\",\"\",\"3-2\",\"4526\",\"38\",\"1\",\"Training\",\"Stims/Figures/128-J-10-3.bmp\",\"ta:pa:ta\",\"Up\",\"38\",\"2\",\"7\",\"1\",\"P\",\"C\",\"23\"
\"\",\"\",\"approach-retreat\",\"27\",\"261604\",\"0.0-27.0\",\"\",\"\",\"3-2\",\"6486\",\"38\",\"1\",\"Training\",\"Stims/Figures/86-J-0-1.bmp\",\"ta:pa:ta\",\"Up\",\"38\",\"2\",\"8\",\"1\",\"P\",\"C\",\"24\"
\"\",\"\",\"approach-retreat\",\"28\",\"268946\",\"0.0-28.0\",\"\",\"\",\"3-2\",\"5834\",\"39\",\"1\",\"Training\",\"Stims/Figures/74-J-10-4.bmp\",\"ta:pa:ta\",\"Right\",\"39\",\"2\",\"9\",\"1\",\"P\",\"C\",\"25\"
\"\",\"\",\"approach-retreat\",\"29\",\"274738\",\"0.0-29.0\",\"\",\"\",\"3-2\",\"4282\",\"38\",\"0\",\"Training\",\"Stims/Figures/44-J-10-3.bmp\",\"ta:pa:ta\",\"Down\",\"40\",\"2\",\"10\",\"1\",\"P\",\"C\",\"26\"
\"\",\"\",\"approach-retreat\",\"30\",\"282236\",\"0.0-30.0\",\"\",\"\",\"3-2\",\"5994\",\"40\",\"1\",\"Training\",\"Stims/Figures/87-J-10-4.bmp\",\"ta:pa:ta\",\"Down\",\"40\",\"2\",\"11\",\"1\",\"P\",\"C\",\"27\"
\"\",\"\",\"approach-retreat\",\"31\",\"288074\",\"0.0-31.0\",\"\",\"\",\"3-2\",\"4332\",\"37\",\"1\",\"Training\",\"Stims/Figures/118-C-20-2.bmp\",\"na:ma:la\",\"Right\",\"37\",\"2\",\"12\",\"1\",\"S\",\"C\",\"28\"
\"\",\"\",\"approach-retreat\",\"32\",\"295034\",\"0.0-32.0\",\"\",\"\",\"3-2\",\"5454\",\"37\",\"1\",\"Training\",\"Stims/Figures/118-J-0-2.bmp\",\"ta:pa:ta\",\"Left\",\"37\",\"2\",\"13\",\"1\",\"P\",\"C\",\"29\"
\"\",\"\",\"approach-retreat\",\"33\",\"301078\",\"0.0-33.0\",\"\",\"\",\"3-2\",\"4538\",\"39\",\"1\",\"Training\",\"Stims/Figures/128-C-30-3.bmp\",\"na:ma:la\",\"Left\",\"39\",\"2\",\"14\",\"1\",\"S\",\"C\",\"30\"
\"\",\"\",\"approach-retreat\",\"34\",\"306802\",\"0.0-34.0\",\"\",\"\",\"3-2\",\"4220\",\"38\",\"1\",\"Training\",\"Stims/Figures/86-C-30-1.bmp\",\"na:ma:la\",\"Down\",\"38\",\"2\",\"15\",\"1\",\"S\",\"C\",\"31\"
\"\",\"\",\"approach-retreat\",\"35\",\"312944\",\"0.0-35.0\",\"\",\"\",\"3-2\",\"4638\",\"40\",\"1\",\"Training\",\"Stims/Figures/139-C-20-2.bmp\",\"na:ma:la\",\"Up\",\"40\",\"2\",\"16\",\"1\",\"S\",\"C\",\"32\"
\"\",\"\",\"approach-retreat\",\"36\",\"318994\",\"0.0-36.0\",\"\",\"\",\"3-2\",\"4546\",\"37\",\"1\",\"Training\",\"Stims/Figures/87-J-10-4.bmp\",\"ta:pa:ta\",\"Left\",\"37\",\"3\",\"1\",\"1\",\"P\",\"C\",\"33\"
\"\",\"\",\"approach-retreat\",\"37\",\"324888\",\"0.0-37.0\",\"\",\"\",\"3-2\",\"4384\",\"39\",\"1\",\"Training\",\"Stims/Figures/57-J-0-1.bmp\",\"ta:pa:ta\",\"Right\",\"39\",\"3\",\"2\",\"1\",\"P\",\"C\",\"34\"
\"\",\"\",\"approach-retreat\",\"38\",\"330816\",\"0.0-38.0\",\"\",\"\",\"3-2\",\"4424\",\"38\",\"1\",\"Training\",\"Stims/Figures/44-J-10-3.bmp\",\"ta:pa:ta\",\"Up\",\"38\",\"3\",\"3\",\"1\",\"P\",\"C\",\"35\"
\"\",\"\",\"approach-retreat\",\"39\",\"336518\",\"0.0-39.0\",\"\",\"\",\"3-2\",\"4196\",\"37\",\"1\",\"Training\",\"Stims/Figures/118-J-0-2.bmp\",\"ta:pa:ta\",\"Left\",\"37\",\"3\",\"4\",\"1\",\"P\",\"C\",\"36\"
\"\",\"\",\"approach-retreat\",\"40\",\"342086\",\"0.0-40.0\",\"\",\"\",\"3-2\",\"4064\",\"38\",\"1\",\"Training\",\"Stims/Figures/57-C-30-1.bmp\",\"na:ma:la\",\"Down\",\"38\",\"3\",\"5\",\"1\",\"S\",\"C\",\"37\"
\"\",\"\",\"approach-retreat\",\"41\",\"348052\",\"0.0-41.0\",\"\",\"\",\"3-2\",\"4460\",\"40\",\"1\",\"Training\",\"Stims/Figures/118-C-20-2.bmp\",\"na:ma:la\",\"Up\",\"40\",\"3\",\"6\",\"1\",\"S\",\"C\",\"38\"
\"\",\"\",\"approach-retreat\",\"42\",\"353820\",\"0.0-42.0\",\"\",\"\",\"3-2\",\"4264\",\"39\",\"1\",\"Training\",\"Stims/Figures/86-C-30-1.bmp\",\"na:ma:la\",\"Left\",\"39\",\"3\",\"7\",\"1\",\"S\",\"C\",\"39\"
\"\",\"\",\"approach-retreat\",\"43\",\"359528\",\"0.0-43.0\",\"\",\"\",\"3-2\",\"4204\",\"40\",\"1\",\"Training\",\"Stims/Figures/128-J-10-3.bmp\",\"ta:pa:ta\",\"Down\",\"40\",\"3\",\"8\",\"1\",\"P\",\"C\",\"40\"
\"\",\"\",\"approach-retreat\",\"44\",\"365126\",\"0.0-44.0\",\"\",\"\",\"3-2\",\"4094\",\"39\",\"1\",\"Training\",\"Stims/Figures/87-C-20-4.bmp\",\"na:ma:la\",\"Left\",\"39\",\"3\",\"9\",\"1\",\"S\",\"C\",\"41\"
\"\",\"\",\"approach-retreat\",\"45\",\"370662\",\"0.0-45.0\",\"\",\"\",\"3-2\",\"4030\",\"38\",\"1\",\"Training\",\"Stims/Figures/74-C-20-4.bmp\",\"na:ma:la\",\"Down\",\"38\",\"3\",\"10\",\"1\",\"S\",\"C\",\"42\"
\"\",\"\",\"approach-retreat\",\"46\",\"376752\",\"0.0-46.0\",\"\",\"\",\"3-2\",\"4586\",\"38\",\"1\",\"Training\",\"Stims/Figures/139-J-0-2.bmp\",\"ta:pa:ta\",\"Up\",\"38\",\"3\",\"11\",\"1\",\"P\",\"C\",\"43\"
\"\",\"\",\"approach-retreat\",\"47\",\"382500\",\"0.0-47.0\",\"\",\"\",\"3-2\",\"4244\",\"40\",\"1\",\"Training\",\"Stims/Figures/86-J-0-1.bmp\",\"ta:pa:ta\",\"Down\",\"40\",\"3\",\"12\",\"1\",\"P\",\"C\",\"44\"
\"\",\"\",\"approach-retreat\",\"48\",\"388518\",\"0.0-48.0\",\"\",\"\",\"3-2\",\"4514\",\"37\",\"1\",\"Training\",\"Stims/Figures/139-C-20-2.bmp\",\"na:ma:la\",\"Right\",\"37\",\"3\",\"13\",\"1\",\"S\",\"C\",\"45\"
\"\",\"\",\"approach-retreat\",\"49\",\"394326\",\"0.0-49.0\",\"\",\"\",\"3-2\",\"4302\",\"40\",\"1\",\"Training\",\"Stims/Figures/128-C-30-3.bmp\",\"na:ma:la\",\"Up\",\"40\",\"3\",\"14\",\"1\",\"S\",\"C\",\"46\"
\"\",\"\",\"approach-retreat\",\"50\",\"400500\",\"0.0-50.0\",\"\",\"\",\"3-2\",\"4670\",\"39\",\"1\",\"Training\",\"Stims/Figures/74-J-10-4.bmp\",\"ta:pa:ta\",\"Right\",\"39\",\"3\",\"15\",\"1\",\"P\",\"C\",\"47\"
\"\",\"\",\"approach-retreat\",\"51\",\"406386\",\"0.0-51.0\",\"\",\"\",\"3-2\",\"4384\",\"37\",\"1\",\"Training\",\"Stims/Figures/44-C-30-3.bmp\",\"na:ma:la\",\"Right\",\"37\",\"3\",\"16\",\"1\",\"S\",\"C\",\"48\"
\"\",\"\",\"approach-retreat\",\"52\",\"412018\",\"0.0-52.0\",\"\",\"\",\"3-2\",\"4128\",\"38\",\"1\",\"Training\",\"Stims/Figures/44-C-30-3.bmp\",\"na:ma:la\",\"Down\",\"38\",\"4\",\"1\",\"1\",\"S\",\"C\",\"49\"
\"\",\"\",\"approach-retreat\",\"53\",\"417748\",\"0.0-53.0\",\"\",\"\",\"3-2\",\"4226\",\"40\",\"1\",\"Training\",\"Stims/Figures/86-J-0-1.bmp\",\"ta:pa:ta\",\"Down\",\"40\",\"4\",\"2\",\"1\",\"P\",\"C\",\"50\"
\"\",\"\",\"approach-retreat\",\"54\",\"423562\",\"0.0-54.0\",\"\",\"\",\"3-2\",\"4308\",\"40\",\"1\",\"Training\",\"Stims/Figures/128-C-30-3.bmp\",\"na:ma:la\",\"Up\",\"40\",\"4\",\"3\",\"1\",\"S\",\"C\",\"51\"
\"\",\"\",\"approach-retreat\",\"55\",\"429202\",\"0.0-55.0\",\"\",\"\",\"3-2\",\"4136\",\"37\",\"1\",\"Training\",\"Stims/Figures/87-C-20-4.bmp\",\"na:ma:la\",\"Right\",\"37\",\"4\",\"4\",\"1\",\"S\",\"C\",\"52\"
\"\",\"\",\"approach-retreat\",\"56\",\"434854\",\"0.0-56.0\",\"\",\"\",\"3-2\",\"4146\",\"37\",\"1\",\"Training\",\"Stims/Figures/86-C-30-1.bmp\",\"na:ma:la\",\"Right\",\"37\",\"4\",\"5\",\"1\",\"S\",\"C\",\"53\"
\"\",\"\",\"approach-retreat\",\"57\",\"440552\",\"0.0-57.0\",\"\",\"\",\"3-2\",\"4194\",\"40\",\"1\",\"Training\",\"Stims/Figures/128-J-10-3.bmp\",\"ta:pa:ta\",\"Down\",\"40\",\"4\",\"6\",\"1\",\"P\",\"C\",\"54\"
\"\",\"\",\"approach-retreat\",\"58\",\"446440\",\"0.0-58.0\",\"\",\"\",\"3-2\",\"4384\",\"40\",\"1\",\"Training\",\"Stims/Figures/139-C-20-2.bmp\",\"na:ma:la\",\"Up\",\"40\",\"4\",\"7\",\"1\",\"S\",\"C\",\"55\"
\"\",\"\",\"approach-retreat\",\"59\",\"452596\",\"0.0-59.0\",\"\",\"\",\"3-2\",\"4652\",\"38\",\"1\",\"Training\",\"Stims/Figures/87-J-10-4.bmp\",\"ta:pa:ta\",\"Up\",\"38\",\"4\",\"8\",\"1\",\"P\",\"C\",\"56\"
\"\",\"\",\"approach-retreat\",\"60\",\"460348\",\"0.0-60.0\",\"\",\"\",\"3-2\",\"6248\",\"39\",\"1\",\"Training\",\"Stims/Figures/74-C-20-4.bmp\",\"na:ma:la\",\"Left\",\"39\",\"4\",\"9\",\"1\",\"S\",\"C\",\"57\"
\"\",\"\",\"approach-retreat\",\"61\",\"466270\",\"0.0-61.0\",\"\",\"\",\"3-2\",\"4420\",\"39\",\"1\",\"Training\",\"Stims/Figures/139-J-0-2.bmp\",\"ta:pa:ta\",\"Right\",\"39\",\"4\",\"10\",\"1\",\"P\",\"C\",\"58\"
\"\",\"\",\"approach-retreat\",\"62\",\"472020\",\"0.0-62.0\",\"\",\"\",\"3-2\",\"4246\",\"39\",\"1\",\"Training\",\"Stims/Figures/118-C-20-2.bmp\",\"na:ma:la\",\"Left\",\"39\",\"4\",\"11\",\"1\",\"S\",\"C\",\"59\"
\"\",\"\",\"approach-retreat\",\"63\",\"477784\",\"0.0-63.0\",\"\",\"\",\"3-2\",\"4256\",\"40\",\"1\",\"Training\",\"Stims/Figures/74-J-10-4.bmp\",\"ta:pa:ta\",\"Down\",\"40\",\"4\",\"12\",\"1\",\"P\",\"C\",\"60\"
\"\",\"\",\"approach-retreat\",\"64\",\"484248\",\"0.0-64.0\",\"\",\"\",\"3-2\",\"4960\",\"40\",\"1\",\"Training\",\"Stims/Figures/57-C-30-1.bmp\",\"na:ma:la\",\"Up\",\"40\",\"4\",\"13\",\"1\",\"S\",\"C\",\"61\"
\"\",\"\",\"approach-retreat\",\"65\",\"490008\",\"0.0-65.0\",\"\",\"\",\"3-2\",\"4254\",\"37\",\"1\",\"Training\",\"Stims/Figures/118-J-0-2.bmp\",\"ta:pa:ta\",\"Left\",\"37\",\"4\",\"14\",\"1\",\"P\",\"C\",\"62\"
\"\",\"\",\"approach-retreat\",\"66\",\"495758\",\"0.0-66.0\",\"\",\"\",\"3-2\",\"4246\",\"39\",\"1\",\"Training\",\"Stims/Figures/57-J-0-1.bmp\",\"ta:pa:ta\",\"Right\",\"39\",\"4\",\"15\",\"1\",\"P\",\"C\",\"63\"
\"\",\"\",\"approach-retreat\",\"67\",\"501462\",\"0.0-67.0\",\"\",\"\",\"3-2\",\"4200\",\"37\",\"1\",\"Training\",\"Stims/Figures/44-J-10-3.bmp\",\"ta:pa:ta\",\"Left\",\"37\",\"4\",\"16\",\"1\",\"P\",\"C\",\"64\"
\"\",\"\",\"approach-retreat\",\"68\",\"506916\",\"0.0-68.0\",\"\",\"\",\"3-2\",\"3948\",\"38\",\"1\",\"Training\",\"Stims/Figures/87-C-20-4.bmp\",\"na:ma:la\",\"Down\",\"38\",\"5\",\"1\",\"1\",\"S\",\"C\",\"65\"
\"\",\"\",\"approach-retreat\",\"69\",\"512626\",\"0.0-69.0\",\"\",\"\",\"3-2\",\"4208\",\"37\",\"1\",\"Training\",\"Stims/Figures/74-C-20-4.bmp\",\"na:ma:la\",\"Right\",\"37\",\"5\",\"2\",\"1\",\"S\",\"C\",\"66\"
\"\",\"\",\"approach-retreat\",\"70\",\"518388\",\"0.0-70.0\",\"\",\"\",\"3-2\",\"4258\",\"39\",\"1\",\"Training\",\"Stims/Figures/128-J-10-3.bmp\",\"ta:pa:ta\",\"Right\",\"39\",\"5\",\"3\",\"1\",\"P\",\"C\",\"67\"
\"\",\"\",\"approach-retreat\",\"71\",\"524206\",\"0.0-71.0\",\"\",\"\",\"3-2\",\"4308\",\"38\",\"0\",\"Training\",\"Stims/Figures/118-C-20-2.bmp\",\"na:ma:la\",\"Up\",\"40\",\"5\",\"4\",\"1\",\"S\",\"C\",\"68\"
\"\",\"\",\"approach-retreat\",\"72\",\"530380\",\"0.0-72.0\",\"\",\"\",\"3-2\",\"4666\",\"38\",\"1\",\"Training\",\"Stims/Figures/44-J-10-3.bmp\",\"ta:pa:ta\",\"Up\",\"38\",\"5\",\"5\",\"1\",\"P\",\"C\",\"69\"
\"\",\"\",\"approach-retreat\",\"73\",\"536166\",\"0.0-73.0\",\"\",\"\",\"3-2\",\"4280\",\"37\",\"1\",\"Training\",\"Stims/Figures/139-J-0-2.bmp\",\"ta:pa:ta\",\"Left\",\"37\",\"5\",\"6\",\"1\",\"P\",\"C\",\"70\"
\"\",\"\",\"approach-retreat\",\"74\",\"541918\",\"0.0-74.0\",\"\",\"\",\"3-2\",\"4250\",\"37\",\"1\",\"Training\",\"Stims/Figures/57-J-0-1.bmp\",\"ta:pa:ta\",\"Left\",\"37\",\"5\",\"7\",\"1\",\"P\",\"C\",\"71\"
\"\",\"\",\"approach-retreat\",\"75\",\"547592\",\"0.0-75.0\",\"\",\"\",\"3-2\",\"4168\",\"38\",\"1\",\"Training\",\"Stims/Figures/118-J-0-2.bmp\",\"ta:pa:ta\",\"Up\",\"38\",\"5\",\"8\",\"1\",\"P\",\"C\",\"72\"
\"\",\"\",\"approach-retreat\",\"76\",\"553166\",\"0.0-76.0\",\"\",\"\",\"3-2\",\"4068\",\"37\",\"1\",\"Training\",\"Stims/Figures/44-C-30-3.bmp\",\"na:ma:la\",\"Right\",\"37\",\"5\",\"9\",\"1\",\"S\",\"C\",\"73\"
\"\",\"\",\"approach-retreat\",\"77\",\"558926\",\"0.0-77.0\",\"\",\"\",\"3-2\",\"4256\",\"40\",\"1\",\"Training\",\"Stims/Figures/86-J-0-1.bmp\",\"ta:pa:ta\",\"Down\",\"40\",\"5\",\"10\",\"1\",\"P\",\"C\",\"74\"
\"\",\"\",\"approach-retreat\",\"78\",\"564598\",\"0.0-78.0\",\"\",\"\",\"3-2\",\"4168\",\"39\",\"1\",\"Training\",\"Stims/Figures/86-C-30-1.bmp\",\"na:ma:la\",\"Left\",\"39\",\"5\",\"11\",\"1\",\"S\",\"C\",\"75\"
\"\",\"\",\"approach-retreat\",\"79\",\"570252\",\"0.0-79.0\",\"\",\"\",\"3-2\",\"4142\",\"37\",\"0\",\"Training\",\"Stims/Figures/87-J-10-4.bmp\",\"ta:pa:ta\",\"Right\",\"39\",\"5\",\"12\",\"1\",\"P\",\"C\",\"76\"
\"\",\"\",\"approach-retreat\",\"80\",\"575838\",\"0.0-80.0\",\"\",\"\",\"3-2\",\"4082\",\"38\",\"1\",\"Training\",\"Stims/Figures/139-C-20-2.bmp\",\"na:ma:la\",\"Down\",\"38\",\"5\",\"13\",\"1\",\"S\",\"C\",\"77\"
\"\",\"\",\"approach-retreat\",\"81\",\"583316\",\"0.0-81.0\",\"\",\"\",\"3-2\",\"5972\",\"38\",\"1\",\"Training\",\"Stims/Figures/74-J-10-4.bmp\",\"ta:pa:ta\",\"Up\",\"38\",\"5\",\"14\",\"1\",\"P\",\"C\",\"78\"
\"\",\"\",\"approach-retreat\",\"82\",\"590808\",\"0.0-82.0\",\"\",\"\",\"3-2\",\"5988\",\"39\",\"1\",\"Training\",\"Stims/Figures/128-C-30-3.bmp\",\"na:ma:la\",\"Left\",\"39\",\"5\",\"15\",\"1\",\"S\",\"C\",\"79\"
\"\",\"\",\"approach-retreat\",\"83\",\"596630\",\"0.0-83.0\",\"\",\"\",\"3-2\",\"4318\",\"38\",\"1\",\"Training\",\"Stims/Figures/57-C-30-1.bmp\",\"na:ma:la\",\"Down\",\"38\",\"5\",\"16\",\"1\",\"S\",\"C\",\"80\"
\"\",\"\",\"approach-retreat\",\"84\",\"602356\",\"0.0-84.0\",\"\",\"\",\"3-2\",\"4222\",\"39\",\"1\",\"Training\",\"Stims/Figures/74-C-20-4.bmp\",\"na:ma:la\",\"Left\",\"39\",\"6\",\"1\",\"1\",\"S\",\"C\",\"81\"
\"\",\"\",\"approach-retreat\",\"85\",\"607958\",\"0.0-85.0\",\"\",\"\",\"3-2\",\"4098\",\"39\",\"1\",\"Training\",\"Stims/Figures/118-C-20-2.bmp\",\"na:ma:la\",\"Left\",\"39\",\"6\",\"2\",\"1\",\"S\",\"C\",\"82\"
\"\",\"\",\"approach-retreat\",\"86\",\"614236\",\"0.0-86.0\",\"\",\"\",\"3-2\",\"4774\",\"37\",\"1\",\"Training\",\"Stims/Figures/128-C-30-3.bmp\",\"na:ma:la\",\"Right\",\"37\",\"6\",\"3\",\"1\",\"S\",\"C\",\"83\"
\"\",\"\",\"approach-retreat\",\"87\",\"620308\",\"0.0-87.0\",\"\",\"\",\"3-2\",\"4568\",\"38\",\"1\",\"Training\",\"Stims/Figures/139-J-0-2.bmp\",\"ta:pa:ta\",\"Up\",\"38\",\"6\",\"4\",\"1\",\"P\",\"C\",\"84\"
\"\",\"\",\"approach-retreat\",\"88\",\"626344\",\"0.0-88.0\",\"\",\"\",\"3-2\",\"4528\",\"40\",\"1\",\"Training\",\"Stims/Figures/139-C-20-2.bmp\",\"na:ma:la\",\"Up\",\"40\",\"6\",\"5\",\"1\",\"S\",\"C\",\"85\"
\"\",\"\",\"approach-retreat\",\"89\",\"632408\",\"0.0-89.0\",\"\",\"\",\"3-2\",\"4558\",\"40\",\"1\",\"Training\",\"Stims/Figures/74-J-10-4.bmp\",\"ta:pa:ta\",\"Down\",\"40\",\"6\",\"6\",\"1\",\"P\",\"C\",\"86\"
\"\",\"\",\"approach-retreat\",\"90\",\"638176\",\"0.0-90.0\",\"\",\"\",\"3-2\",\"4264\",\"39\",\"1\",\"Training\",\"Stims/Figures/128-J-10-3.bmp\",\"ta:pa:ta\",\"Right\",\"39\",\"6\",\"7\",\"1\",\"P\",\"C\",\"87\"
\"\",\"\",\"approach-retreat\",\"91\",\"643946\",\"0.0-91.0\",\"\",\"\",\"3-2\",\"4266\",\"40\",\"1\",\"Training\",\"Stims/Figures/118-J-0-2.bmp\",\"ta:pa:ta\",\"Down\",\"40\",\"6\",\"8\",\"1\",\"P\",\"C\",\"88\"
\"\",\"\",\"approach-retreat\",\"92\",\"649712\",\"0.0-92.0\",\"\",\"\",\"3-2\",\"4262\",\"38\",\"1\",\"Training\",\"Stims/Figures/57-J-0-1.bmp\",\"ta:pa:ta\",\"Up\",\"38\",\"6\",\"9\",\"1\",\"P\",\"C\",\"89\"
\"\",\"\",\"approach-retreat\",\"93\",\"655746\",\"0.0-93.0\",\"\",\"\",\"3-2\",\"4532\",\"38\",\"1\",\"Training\",\"Stims/Figures/87-J-10-4.bmp\",\"ta:pa:ta\",\"Up\",\"38\",\"6\",\"10\",\"1\",\"P\",\"C\",\"90\"
\"\",\"\",\"approach-retreat\",\"94\",\"661420\",\"0.0-94.0\",\"\",\"\",\"3-2\",\"4172\",\"37\",\"1\",\"Training\",\"Stims/Figures/57-C-30-1.bmp\",\"na:ma:la\",\"Right\",\"37\",\"6\",\"11\",\"1\",\"S\",\"C\",\"91\"
\"\",\"\",\"approach-retreat\",\"95\",\"667204\",\"0.0-95.0\",\"\",\"\",\"3-2\",\"4274\",\"39\",\"0\",\"Training\",\"Stims/Figures/87-C-20-4.bmp\",\"na:ma:la\",\"Right\",\"37\",\"6\",\"12\",\"1\",\"S\",\"C\",\"92\"
\"\",\"\",\"approach-retreat\",\"96\",\"672982\",\"0.0-96.0\",\"\",\"\",\"3-2\",\"4274\",\"40\",\"1\",\"Training\",\"Stims/Figures/44-J-10-3.bmp\",\"ta:pa:ta\",\"Down\",\"40\",\"6\",\"13\",\"1\",\"P\",\"C\",\"93\"
\"\",\"\",\"approach-retreat\",\"97\",\"678722\",\"0.0-97.0\",\"\",\"\",\"3-2\",\"4236\",\"39\",\"1\",\"Training\",\"Stims/Figures/86-C-30-1.bmp\",\"na:ma:la\",\"Left\",\"39\",\"6\",\"14\",\"1\",\"S\",\"C\",\"94\"
\"\",\"\",\"approach-retreat\",\"98\",\"684470\",\"0.0-98.0\",\"\",\"\",\"3-2\",\"4244\",\"39\",\"1\",\"Training\",\"Stims/Figures/44-C-30-3.bmp\",\"na:ma:la\",\"Left\",\"39\",\"6\",\"15\",\"1\",\"S\",\"C\",\"95\"
\"\",\"\",\"approach-retreat\",\"99\",\"690582\",\"0.0-99.0\",\"\",\"\",\"3-2\",\"4608\",\"40\",\"1\",\"Training\",\"Stims/Figures/86-J-0-1.bmp\",\"ta:pa:ta\",\"Down\",\"40\",\"6\",\"16\",\"1\",\"P\",\"C\",\"96\"
\"\",\"\",\"approach-retreat\",\"100\",\"696452\",\"0.0-100.0\",\"\",\"\",\"3-2\",\"4364\",\"40\",\"1\",\"Training\",\"Stims/Figures/139-C-20-2.bmp\",\"na:ma:la\",\"Up\",\"40\",\"7\",\"1\",\"1\",\"S\",\"C\",\"97\"
\"\",\"\",\"approach-retreat\",\"101\",\"702106\",\"0.0-101.0\",\"\",\"\",\"3-2\",\"4150\",\"40\",\"1\",\"Training\",\"Stims/Figures/57-C-30-1.bmp\",\"na:ma:la\",\"Up\",\"40\",\"7\",\"2\",\"1\",\"S\",\"C\",\"98\"
\"\",\"\",\"approach-retreat\",\"102\",\"707820\",\"0.0-102.0\",\"\",\"\",\"3-2\",\"4212\",\"39\",\"1\",\"Training\",\"Stims/Figures/118-J-0-2.bmp\",\"ta:pa:ta\",\"Right\",\"39\",\"7\",\"3\",\"1\",\"P\",\"C\",\"99\"
\"\",\"\",\"approach-retreat\",\"103\",\"713568\",\"0.0-103.0\",\"\",\"\",\"3-2\",\"4236\",\"40\",\"1\",\"Training\",\"Stims/Figures/74-J-10-4.bmp\",\"ta:pa:ta\",\"Down\",\"40\",\"7\",\"4\",\"1\",\"P\",\"C\",\"100\"
\"\",\"\",\"approach-retreat\",\"104\",\"719246\",\"0.0-104.0\",\"\",\"\",\"3-2\",\"4166\",\"40\",\"0\",\"Training\",\"Stims/Figures/87-C-20-4.bmp\",\"na:ma:la\",\"Down\",\"38\",\"7\",\"5\",\"1\",\"S\",\"C\",\"101\"
\"\",\"\",\"approach-retreat\",\"105\",\"725504\",\"0.0-105.0\",\"\",\"\",\"3-2\",\"4754\",\"38\",\"1\",\"Training\",\"Stims/Figures/57-J-0-1.bmp\",\"ta:pa:ta\",\"Up\",\"38\",\"7\",\"6\",\"1\",\"P\",\"C\",\"102\"
\"\",\"\",\"approach-retreat\",\"106\",\"732352\",\"0.0-106.0\",\"\",\"\",\"3-2\",\"5342\",\"39\",\"1\",\"Training\",\"Stims/Figures/86-J-0-1.bmp\",\"ta:pa:ta\",\"Right\",\"39\",\"7\",\"7\",\"1\",\"P\",\"C\",\"103\"
\"\",\"\",\"approach-retreat\",\"107\",\"740554\",\"0.0-107.0\",\"\",\"\",\"3-2\",\"6698\",\"38\",\"1\",\"Training\",\"Stims/Figures/118-C-20-2.bmp\",\"na:ma:la\",\"Down\",\"38\",\"7\",\"8\",\"1\",\"S\",\"C\",\"104\"
\"\",\"\",\"approach-retreat\",\"108\",\"746824\",\"0.0-108.0\",\"\",\"\",\"3-2\",\"4764\",\"39\",\"1\",\"Training\",\"Stims/Figures/44-C-30-3.bmp\",\"na:ma:la\",\"Left\",\"39\",\"7\",\"9\",\"1\",\"S\",\"C\",\"105\"
\"\",\"\",\"approach-retreat\",\"109\",\"752598\",\"0.0-109.0\",\"\",\"\",\"3-2\",\"4270\",\"39\",\"1\",\"Training\",\"Stims/Figures/74-C-20-4.bmp\",\"na:ma:la\",\"Left\",\"39\",\"7\",\"10\",\"1\",\"S\",\"C\",\"106\"
\"\",\"\",\"approach-retreat\",\"110\",\"758372\",\"0.0-110.0\",\"\",\"\",\"3-2\",\"4270\",\"37\",\"1\",\"Training\",\"Stims/Figures/128-C-30-3.bmp\",\"na:ma:la\",\"Right\",\"37\",\"7\",\"11\",\"1\",\"S\",\"C\",\"107\"
\"\",\"\",\"approach-retreat\",\"111\",\"764132\",\"0.0-111.0\",\"\",\"\",\"3-2\",\"4248\",\"37\",\"0\",\"Training\",\"Stims/Figures/87-J-10-4.bmp\",\"ta:pa:ta\",\"Right\",\"39\",\"7\",\"12\",\"1\",\"P\",\"C\",\"108\"
\"\",\"\",\"approach-retreat\",\"112\",\"769990\",\"0.0-112.0\",\"\",\"\",\"3-2\",\"4354\",\"39\",\"1\",\"Training\",\"Stims/Figures/86-C-30-1.bmp\",\"na:ma:la\",\"Left\",\"39\",\"7\",\"13\",\"1\",\"S\",\"C\",\"109\"
\"\",\"\",\"approach-retreat\",\"113\",\"775844\",\"0.0-113.0\",\"\",\"\",\"3-2\",\"4350\",\"37\",\"1\",\"Training\",\"Stims/Figures/139-J-0-2.bmp\",\"ta:pa:ta\",\"Left\",\"37\",\"7\",\"14\",\"1\",\"P\",\"C\",\"110\"
\"\",\"\",\"approach-retreat\",\"114\",\"781780\",\"0.0-114.0\",\"\",\"\",\"3-2\",\"4434\",\"38\",\"1\",\"Training\",\"Stims/Figures/44-J-10-3.bmp\",\"ta:pa:ta\",\"Up\",\"38\",\"7\",\"15\",\"1\",\"P\",\"C\",\"111\"
\"\",\"\",\"approach-retreat\",\"115\",\"787564\",\"0.0-115.0\",\"\",\"\",\"3-2\",\"4276\",\"40\",\"1\",\"Training\",\"Stims/Figures/128-J-10-3.bmp\",\"ta:pa:ta\",\"Down\",\"40\",\"7\",\"16\",\"1\",\"P\",\"C\",\"112\"
\"\",\"\",\"approach-retreat\",\"116\",\"793322\",\"0.0-116.0\",\"\",\"\",\"3-2\",\"4256\",\"37\",\"1\",\"Training\",\"Stims/Figures/139-C-20-2.bmp\",\"na:ma:la\",\"Right\",\"37\",\"8\",\"1\",\"1\",\"S\",\"C\",\"113\"
\"\",\"\",\"approach-retreat\",\"117\",\"799264\",\"0.0-117.0\",\"\",\"\",\"3-2\",\"4438\",\"40\",\"1\",\"Training\",\"Stims/Figures/86-C-30-1.bmp\",\"na:ma:la\",\"Up\",\"40\",\"8\",\"2\",\"1\",\"S\",\"C\",\"114\"
\"\",\"\",\"approach-retreat\",\"118\",\"805286\",\"0.0-118.0\",\"\",\"\",\"3-2\",\"4518\",\"37\",\"1\",\"Training\",\"Stims/Figures/87-C-20-4.bmp\",\"na:ma:la\",\"Right\",\"37\",\"8\",\"3\",\"1\",\"S\",\"C\",\"115\"
\"\",\"\",\"approach-retreat\",\"119\",\"811000\",\"0.0-119.0\",\"\",\"\",\"3-2\",\"4210\",\"37\",\"1\",\"Training\",\"Stims/Figures/74-C-20-4.bmp\",\"na:ma:la\",\"Right\",\"37\",\"8\",\"4\",\"1\",\"S\",\"C\",\"116\"
\"\",\"\",\"approach-retreat\",\"120\",\"816666\",\"0.0-120.0\",\"\",\"\",\"3-2\",\"4162\",\"39\",\"1\",\"Training\",\"Stims/Figures/118-C-20-2.bmp\",\"na:ma:la\",\"Left\",\"39\",\"8\",\"5\",\"1\",\"S\",\"C\",\"117\"
\"\",\"\",\"approach-retreat\",\"121\",\"822910\",\"0.0-121.0\",\"\",\"\",\"3-2\",\"4738\",\"38\",\"1\",\"Training\",\"Stims/Figures/57-C-30-1.bmp\",\"na:ma:la\",\"Down\",\"38\",\"8\",\"6\",\"1\",\"S\",\"C\",\"118\"
\"\",\"\",\"approach-retreat\",\"122\",\"829770\",\"0.0-122.0\",\"\",\"\",\"3-2\",\"5352\",\"38\",\"1\",\"Training\",\"Stims/Figures/44-J-10-3.bmp\",\"ta:pa:ta\",\"Up\",\"38\",\"8\",\"7\",\"1\",\"P\",\"C\",\"119\"
\"\",\"\",\"approach-retreat\",\"123\",\"837306\",\"0.0-123.0\",\"\",\"\",\"3-2\",\"6024\",\"40\",\"1\",\"Training\",\"Stims/Figures/87-J-10-4.bmp\",\"ta:pa:ta\",\"Down\",\"40\",\"8\",\"8\",\"1\",\"P\",\"C\",\"120\"
\"\",\"\",\"approach-retreat\",\"124\",\"843578\",\"0.0-124.0\",\"\",\"\",\"3-2\",\"4750\",\"38\",\"1\",\"Training\",\"Stims/Figures/118-J-0-2.bmp\",\"ta:pa:ta\",\"Up\",\"38\",\"8\",\"9\",\"1\",\"P\",\"C\",\"121\"
\"\",\"\",\"approach-retreat\",\"125\",\"849938\",\"0.0-125.0\",\"\",\"\",\"3-2\",\"4848\",\"38\",\"1\",\"Training\",\"Stims/Figures/44-C-30-3.bmp\",\"na:ma:la\",\"Down\",\"38\",\"8\",\"10\",\"1\",\"S\",\"C\",\"122\"
\"\",\"\",\"approach-retreat\",\"126\",\"855698\",\"0.0-126.0\",\"\",\"\",\"3-2\",\"4246\",\"37\",\"1\",\"Training\",\"Stims/Figures/57-J-0-1.bmp\",\"ta:pa:ta\",\"Left\",\"37\",\"8\",\"11\",\"1\",\"P\",\"C\",\"123\"
\"\",\"\",\"approach-retreat\",\"127\",\"861804\",\"0.0-127.0\",\"\",\"\",\"3-2\",\"4596\",\"39\",\"1\",\"Training\",\"Stims/Figures/128-C-30-3.bmp\",\"na:ma:la\",\"Left\",\"39\",\"8\",\"12\",\"1\",\"S\",\"C\",\"124\"
\"\",\"\",\"approach-retreat\",\"128\",\"867622\",\"0.0-128.0\",\"\",\"\",\"3-2\",\"4308\",\"37\",\"1\",\"Training\",\"Stims/Figures/74-J-10-4.bmp\",\"ta:pa:ta\",\"Left\",\"37\",\"8\",\"13\",\"1\",\"P\",\"C\",\"125\"
\"\",\"\",\"approach-retreat\",\"129\",\"873274\",\"0.0-129.0\",\"\",\"\",\"3-2\",\"4140\",\"40\",\"1\",\"Training\",\"Stims/Figures/86-J-0-1.bmp\",\"ta:pa:ta\",\"Down\",\"40\",\"8\",\"14\",\"1\",\"P\",\"C\",\"126\"
\"\",\"\",\"approach-retreat\",\"130\",\"879210\",\"0.0-130.0\",\"\",\"\",\"3-2\",\"4426\",\"39\",\"1\",\"Training\",\"Stims/Figures/128-J-10-3.bmp\",\"ta:pa:ta\",\"Right\",\"39\",\"8\",\"15\",\"1\",\"P\",\"C\",\"127\"
\"\",\"\",\"approach-retreat\",\"131\",\"884880\",\"0.0-131.0\",\"\",\"\",\"3-2\",\"4162\",\"38\",\"1\",\"Training\",\"Stims/Figures/139-J-0-2.bmp\",\"ta:pa:ta\",\"Up\",\"38\",\"8\",\"16\",\"1\",\"P\",\"C\",\"128\"
\"\",\"\",\"approach-retreat\",\"132\",\"890772\",\"0.0-132.0\",\"\",\"\",\"3-2\",\"4384\",\"40\",\"1\",\"Training\",\"Stims/Figures/118-C-20-2.bmp\",\"na:ma:la\",\"Up\",\"40\",\"9\",\"1\",\"1\",\"S\",\"C\",\"129\"
\"\",\"\",\"approach-retreat\",\"133\",\"896626\",\"0.0-133.0\",\"\",\"\",\"3-2\",\"4330\",\"39\",\"1\",\"Training\",\"Stims/Figures/128-J-10-3.bmp\",\"ta:pa:ta\",\"Right\",\"39\",\"9\",\"2\",\"1\",\"P\",\"C\",\"130\"
\"\",\"\",\"approach-retreat\",\"134\",\"902314\",\"0.0-134.0\",\"\",\"\",\"3-2\",\"4174\",\"37\",\"1\",\"Training\",\"Stims/Figures/87-C-20-4.bmp\",\"na:ma:la\",\"Right\",\"37\",\"9\",\"3\",\"1\",\"S\",\"C\",\"131\"
\"\",\"\",\"approach-retreat\",\"135\",\"908064\",\"0.0-135.0\",\"\",\"\",\"3-2\",\"4238\",\"40\",\"1\",\"Training\",\"Stims/Figures/86-C-30-1.bmp\",\"na:ma:la\",\"Up\",\"40\",\"9\",\"4\",\"1\",\"S\",\"C\",\"132\"
\"\",\"\",\"approach-retreat\",\"136\",\"913764\",\"0.0-136.0\",\"\",\"\",\"3-2\",\"4186\",\"38\",\"1\",\"Training\",\"Stims/Figures/139-C-20-2.bmp\",\"na:ma:la\",\"Down\",\"38\",\"9\",\"5\",\"1\",\"S\",\"C\",\"133\"
\"\",\"\",\"approach-retreat\",\"137\",\"919738\",\"0.0-137.0\",\"\",\"\",\"3-2\",\"4464\",\"38\",\"1\",\"Training\",\"Stims/Figures/44-J-10-3.bmp\",\"ta:pa:ta\",\"Up\",\"38\",\"9\",\"6\",\"1\",\"P\",\"C\",\"134\"
\"\",\"\",\"approach-retreat\",\"138\",\"925648\",\"0.0-138.0\",\"\",\"\",\"3-2\",\"4402\",\"38\",\"1\",\"Training\",\"Stims/Figures/118-J-0-2.bmp\",\"ta:pa:ta\",\"Up\",\"38\",\"9\",\"7\",\"1\",\"P\",\"C\",\"135\"
\"\",\"\",\"approach-retreat\",\"139\",\"931178\",\"0.0-139.0\",\"\",\"\",\"3-2\",\"4018\",\"38\",\"1\",\"Training\",\"Stims/Figures/57-C-30-1.bmp\",\"na:ma:la\",\"Down\",\"38\",\"9\",\"8\",\"1\",\"S\",\"C\",\"136\"
\"\",\"\",\"approach-retreat\",\"140\",\"936904\",\"0.0-140.0\",\"\",\"\",\"3-2\",\"4220\",\"39\",\"1\",\"Training\",\"Stims/Figures/139-J-0-2.bmp\",\"ta:pa:ta\",\"Right\",\"39\",\"9\",\"9\",\"1\",\"P\",\"C\",\"137\"
\"\",\"\",\"approach-retreat\",\"141\",\"942542\",\"0.0-141.0\",\"\",\"\",\"3-2\",\"4130\",\"39\",\"1\",\"Training\",\"Stims/Figures/74-C-20-4.bmp\",\"na:ma:la\",\"Left\",\"39\",\"9\",\"10\",\"1\",\"S\",\"C\",\"138\"
\"\",\"\",\"approach-retreat\",\"142\",\"948204\",\"0.0-142.0\",\"\",\"\",\"3-2\",\"4154\",\"37\",\"1\",\"Training\",\"Stims/Figures/57-J-0-1.bmp\",\"ta:pa:ta\",\"Left\",\"37\",\"9\",\"11\",\"1\",\"P\",\"C\",\"139\"
\"\",\"\",\"approach-retreat\",\"143\",\"953940\",\"0.0-143.0\",\"\",\"\",\"3-2\",\"4224\",\"37\",\"1\",\"Training\",\"Stims/Figures/128-C-30-3.bmp\",\"na:ma:la\",\"Right\",\"37\",\"9\",\"12\",\"1\",\"S\",\"C\",\"140\"
\"\",\"\",\"approach-retreat\",\"144\",\"959588\",\"0.0-144.0\",\"\",\"\",\"3-2\",\"4142\",\"37\",\"1\",\"Training\",\"Stims/Figures/86-J-0-1.bmp\",\"ta:pa:ta\",\"Left\",\"37\",\"9\",\"13\",\"1\",\"P\",\"C\",\"141\"
\"\",\"\",\"approach-retreat\",\"145\",\"966904\",\"0.0-145.0\",\"\",\"\",\"3-2\",\"5808\",\"40\",\"1\",\"Training\",\"Stims/Figures/74-J-10-4.bmp\",\"ta:pa:ta\",\"Down\",\"40\",\"9\",\"14\",\"1\",\"P\",\"C\",\"142\"
\"\",\"\",\"approach-retreat\",\"146\",\"972724\",\"0.0-146.0\",\"\",\"\",\"3-2\",\"4314\",\"40\",\"1\",\"Training\",\"Stims/Figures/87-J-10-4.bmp\",\"ta:pa:ta\",\"Down\",\"40\",\"9\",\"15\",\"1\",\"P\",\"C\",\"143\"
\"\",\"\",\"approach-retreat\",\"147\",\"978416\",\"0.0-147.0\",\"\",\"\",\"3-2\",\"4184\",\"39\",\"1\",\"Training\",\"Stims/Figures/44-C-30-3.bmp\",\"na:ma:la\",\"Left\",\"39\",\"9\",\"16\",\"1\",\"S\",\"C\",\"144\"
\"7062\",\"\",\"instructions\",\"148\",\"985478\",\"0.0-148.0\",\"[{\"\"page_index\"\":0,\"\"viewing_time\"\":7062}]\",\"\",\"\",\"\",\"\",\"\",\"\",\"\",\"\",\"\",\"\",\"\",\"\",\"\",\"\",\"\",\"\"
\"\",\"\",\"approach-retreat\",\"149\",\"991052\",\"0.0-149.0\",\"\",\"\",\"3-2\",\"4066\",\"40\",\"1\",\"Testing\",\"Stims/Figures/87-J-10-4.bmp\",\"ta:pa:ta\",\"Down\",\"40\",\"1\",\"1\",\"1\",\"P\",\"C\",\"1\"
\"\",\"\",\"approach-retreat\",\"150\",\"997112\",\"0.0-150.0\",\"\",\"\",\"3-2\",\"4546\",\"37\",\"1\",\"Testing\",\"Stims/Figures/74-J-10-4.bmp\",\"ta:pa:ta\",\"Left\",\"37\",\"1\",\"2\",\"1\",\"P\",\"C\",\"2\"
\"\",\"\",\"approach-retreat\",\"151\",\"1004064\",\"0.0-151.0\",\"\",\"\",\"3-2\",\"5438\",\"37\",\"1\",\"Testing\",\"Stims/Figures/144-J-10-3.bmp\",\"ta:pa:ta\",\"Left\",\"37\",\"1\",\"3\",\"1\",\"P\",\"C\",\"3\"
\"\",\"\",\"approach-retreat\",\"152\",\"1009866\",\"0.0-152.0\",\"\",\"\",\"3-2\",\"4294\",\"37\",\"1\",\"Testing\",\"Stims/Figures/87-C-20-4.bmp\",\"na:ma:la\",\"Right\",\"37\",\"1\",\"4\",\"1\",\"S\",\"C\",\"4\"
\"\",\"\",\"approach-retreat\",\"153\",\"1020198\",\"0.0-153.0\",\"\",\"\",\"3-2\",\"8820\",\"39\",\"1\",\"Testing\",\"Stims/Figures/84-C-20-2.bmp\",\"na:ma:la\",\"Left\",\"39\",\"1\",\"5\",\"1\",\"S\",\"C\",\"5\"
\"\",\"\",\"approach-retreat\",\"154\",\"1025840\",\"0.0-154.0\",\"\",\"\",\"3-2\",\"4134\",\"37\",\"1\",\"Testing\",\"Stims/Figures/84-J-0-2.bmp\",\"ta:pa:ta\",\"Left\",\"37\",\"1\",\"6\",\"1\",\"P\",\"C\",\"6\"
\"\",\"\",\"approach-retreat\",\"155\",\"1031682\",\"0.0-155.0\",\"\",\"\",\"3-2\",\"4334\",\"40\",\"1\",\"Testing\",\"Stims/Figures/44-J-10-3.bmp\",\"ta:pa:ta\",\"Down\",\"40\",\"1\",\"7\",\"1\",\"P\",\"C\",\"7\"
\"\",\"\",\"approach-retreat\",\"156\",\"1037612\",\"0.0-156.0\",\"\",\"\",\"3-2\",\"4414\",\"39\",\"1\",\"Testing\",\"Stims/Figures/71-C-30-1.bmp\",\"na:ma:la\",\"Left\",\"39\",\"1\",\"8\",\"1\",\"S\",\"C\",\"8\"
\"\",\"\",\"approach-retreat\",\"157\",\"1043514\",\"0.0-157.0\",\"\",\"\",\"3-2\",\"4394\",\"39\",\"0\",\"Testing\",\"Stims/Figures/102-C-20-4.bmp\",\"na:ma:la\",\"Right\",\"37\",\"1\",\"9\",\"1\",\"S\",\"C\",\"9\"
\"\",\"\",\"approach-retreat\",\"158\",\"1049254\",\"0.0-158.0\",\"\",\"\",\"3-2\",\"4230\",\"38\",\"1\",\"Testing\",\"Stims/Figures/128-J-10-3.bmp\",\"ta:pa:ta\",\"Up\",\"38\",\"1\",\"10\",\"1\",\"P\",\"C\",\"10\"
\"\",\"\",\"approach-retreat\",\"159\",\"1054954\",\"0.0-159.0\",\"\",\"\",\"3-2\",\"4194\",\"38\",\"1\",\"Testing\",\"Stims/Figures/57-J-0-1.bmp\",\"ta:pa:ta\",\"Up\",\"38\",\"1\",\"11\",\"1\",\"P\",\"C\",\"11\"
\"\",\"\",\"approach-retreat\",\"160\",\"1061254\",\"0.0-160.0\",\"\",\"\",\"3-2\",\"4786\",\"40\",\"1\",\"Testing\",\"Stims/Figures/74-C-20-4.bmp\",\"na:ma:la\",\"Up\",\"40\",\"1\",\"12\",\"1\",\"S\",\"C\",\"12\"
\"\",\"\",\"approach-retreat\",\"161\",\"1066914\",\"0.0-161.0\",\"\",\"\",\"3-2\",\"4146\",\"38\",\"1\",\"Testing\",\"Stims/Figures/128-C-30-3.bmp\",\"na:ma:la\",\"Down\",\"38\",\"1\",\"13\",\"1\",\"S\",\"C\",\"13\"
\"\",\"\",\"approach-retreat\",\"162\",\"1073416\",\"0.0-162.0\",\"\",\"\",\"3-2\",\"4994\",\"37\",\"1\",\"Testing\",\"Stims/Figures/118-C-20-2.bmp\",\"na:ma:la\",\"Right\",\"37\",\"1\",\"14\",\"1\",\"S\",\"C\",\"14\"
\"\",\"\",\"approach-retreat\",\"163\",\"1079098\",\"0.0-163.0\",\"\",\"\",\"3-2\",\"4170\",\"38\",\"1\",\"Testing\",\"Stims/Figures/144-C-30-3.bmp\",\"na:ma:la\",\"Down\",\"38\",\"1\",\"15\",\"1\",\"S\",\"C\",\"15\"
\"\",\"\",\"approach-retreat\",\"164\",\"1084948\",\"0.0-164.0\",\"\",\"\",\"3-2\",\"4342\",\"39\",\"1\",\"Testing\",\"Stims/Figures/139-C-20-2.bmp\",\"na:ma:la\",\"Left\",\"39\",\"1\",\"16\",\"1\",\"S\",\"C\",\"16\"
\"\",\"\",\"approach-retreat\",\"165\",\"1090482\",\"0.0-165.0\",\"\",\"\",\"3-2\",\"4022\",\"37\",\"1\",\"Testing\",\"Stims/Figures/86-C-30-1.bmp\",\"na:ma:la\",\"Right\",\"37\",\"1\",\"17\",\"1\",\"S\",\"C\",\"17\"
\"\",\"\",\"approach-retreat\",\"166\",\"1096192\",\"0.0-166.0\",\"\",\"\",\"3-2\",\"4202\",\"38\",\"1\",\"Testing\",\"Stims/Figures/71-J-0-1.bmp\",\"ta:pa:ta\",\"Up\",\"38\",\"1\",\"18\",\"1\",\"P\",\"C\",\"18\"
\"\",\"\",\"approach-retreat\",\"167\",\"1101896\",\"0.0-167.0\",\"\",\"\",\"3-2\",\"4192\",\"39\",\"1\",\"Testing\",\"Stims/Figures/86-J-0-1.bmp\",\"ta:pa:ta\",\"Right\",\"39\",\"1\",\"19\",\"1\",\"P\",\"C\",\"19\"
\"\",\"\",\"approach-retreat\",\"168\",\"1108478\",\"0.0-168.0\",\"\",\"\",\"3-2\",\"5066\",\"39\",\"1\",\"Testing\",\"Stims/Figures/102-J-10-4.bmp\",\"ta:pa:ta\",\"Right\",\"39\",\"1\",\"20\",\"1\",\"P\",\"C\",\"20\"
\"\",\"\",\"approach-retreat\",\"169\",\"1114260\",\"0.0-169.0\",\"\",\"\",\"3-2\",\"4272\",\"40\",\"1\",\"Testing\",\"Stims/Figures/118-J-0-2.bmp\",\"ta:pa:ta\",\"Down\",\"40\",\"1\",\"21\",\"1\",\"P\",\"C\",\"21\"
\"\",\"\",\"approach-retreat\",\"170\",\"1119872\",\"0.0-170.0\",\"\",\"\",\"3-2\",\"4104\",\"38\",\"1\",\"Testing\",\"Stims/Figures/139-J-0-2.bmp\",\"ta:pa:ta\",\"Up\",\"38\",\"1\",\"22\",\"1\",\"P\",\"C\",\"22\"
\"\",\"\",\"approach-retreat\",\"171\",\"1125474\",\"0.0-171.0\",\"\",\"\",\"3-2\",\"4088\",\"38\",\"1\",\"Testing\",\"Stims/Figures/44-C-30-3.bmp\",\"na:ma:la\",\"Down\",\"38\",\"1\",\"23\",\"1\",\"S\",\"C\",\"23\"
\"\",\"\",\"approach-retreat\",\"172\",\"1131736\",\"0.0-172.0\",\"\",\"\",\"3-2\",\"4754\",\"40\",\"1\",\"Testing\",\"Stims/Figures/57-C-30-1.bmp\",\"na:ma:la\",\"Up\",\"40\",\"1\",\"24\",\"1\",\"S\",\"C\",\"24\"
\"\",\"\",\"approach-retreat\",\"173\",\"1138466\",\"0.0-173.0\",\"\",\"\",\"3-2\",\"5222\",\"39\",\"1\",\"Testing\",\"Stims/Figures/118-C-20-2.bmp\",\"na:ma:la\",\"Left\",\"39\",\"2\",\"1\",\"1\",\"S\",\"C\",\"25\"
\"\",\"\",\"approach-retreat\",\"174\",\"1144188\",\"0.0-174.0\",\"\",\"\",\"3-2\",\"4206\",\"40\",\"1\",\"Testing\",\"Stims/Figures/144-J-10-3.bmp\",\"ta:pa:ta\",\"Down\",\"40\",\"2\",\"2\",\"1\",\"P\",\"C\",\"26\"
\"\",\"\",\"approach-retreat\",\"175\",\"1149970\",\"0.0-175.0\",\"\",\"\",\"3-2\",\"4270\",\"39\",\"1\",\"Testing\",\"Stims/Figures/71-C-30-1.bmp\",\"na:ma:la\",\"Left\",\"39\",\"2\",\"3\",\"1\",\"S\",\"C\",\"27\"
\"\",\"\",\"approach-retreat\",\"176\",\"1155682\",\"0.0-176.0\",\"\",\"\",\"3-2\",\"4198\",\"39\",\"1\",\"Testing\",\"Stims/Figures/118-J-0-2.bmp\",\"ta:pa:ta\",\"Right\",\"39\",\"2\",\"4\",\"1\",\"P\",\"C\",\"28\"
\"\",\"\",\"approach-retreat\",\"177\",\"1161254\",\"0.0-177.0\",\"\",\"\",\"3-2\",\"4066\",\"39\",\"1\",\"Testing\",\"Stims/Figures/57-C-30-1.bmp\",\"na:ma:la\",\"Left\",\"39\",\"2\",\"5\",\"1\",\"S\",\"C\",\"29\"
\"\",\"\",\"approach-retreat\",\"178\",\"1166922\",\"0.0-178.0\",\"\",\"\",\"3-2\",\"4160\",\"37\",\"1\",\"Testing\",\"Stims/Figures/128-C-30-3.bmp\",\"na:ma:la\",\"Right\",\"37\",\"2\",\"6\",\"1\",\"S\",\"C\",\"30\"
\"\",\"\",\"approach-retreat\",\"179\",\"1172372\",\"0.0-179.0\",\"\",\"\",\"3-2\",\"3944\",\"40\",\"1\",\"Testing\",\"Stims/Figures/86-C-30-1.bmp\",\"na:ma:la\",\"Up\",\"40\",\"2\",\"7\",\"1\",\"S\",\"C\",\"31\"
\"\",\"\",\"approach-retreat\",\"180\",\"1178842\",\"0.0-180.0\",\"\",\"\",\"3-2\",\"4964\",\"38\",\"1\",\"Testing\",\"Stims/Figures/74-C-20-4.bmp\",\"na:ma:la\",\"Down\",\"38\",\"2\",\"8\",\"1\",\"S\",\"C\",\"32\"
\"\",\"\",\"approach-retreat\",\"181\",\"1184554\",\"0.0-181.0\",\"\",\"\",\"3-2\",\"4204\",\"37\",\"1\",\"Testing\",\"Stims/Figures/84-C-20-2.bmp\",\"na:ma:la\",\"Right\",\"37\",\"2\",\"9\",\"1\",\"S\",\"C\",\"33\"
\"\",\"\",\"approach-retreat\",\"182\",\"1190326\",\"0.0-182.0\",\"\",\"\",\"3-2\",\"4256\",\"40\",\"1\",\"Testing\",\"Stims/Figures/87-J-10-4.bmp\",\"ta:pa:ta\",\"Down\",\"40\",\"2\",\"10\",\"1\",\"P\",\"C\",\"34\"
\"\",\"\",\"approach-retreat\",\"183\",\"1196056\",\"0.0-183.0\",\"\",\"\",\"3-2\",\"4226\",\"39\",\"1\",\"Testing\",\"Stims/Figures/84-J-0-2.bmp\",\"ta:pa:ta\",\"Right\",\"39\",\"2\",\"11\",\"1\",\"P\",\"C\",\"35\"
\"\",\"\",\"approach-retreat\",\"184\",\"1201986\",\"0.0-184.0\",\"\",\"\",\"3-2\",\"4422\",\"40\",\"1\",\"Testing\",\"Stims/Figures/57-J-0-1.bmp\",\"ta:pa:ta\",\"Down\",\"40\",\"2\",\"12\",\"1\",\"P\",\"C\",\"36\"
\"\",\"\",\"approach-retreat\",\"185\",\"1209038\",\"0.0-185.0\",\"\",\"\",\"3-2\",\"5542\",\"40\",\"1\",\"Testing\",\"Stims/Figures/87-C-20-4.bmp\",\"na:ma:la\",\"Up\",\"40\",\"2\",\"13\",\"1\",\"S\",\"C\",\"37\"
\"\",\"\",\"approach-retreat\",\"186\",\"1214758\",\"0.0-186.0\",\"\",\"\",\"3-2\",\"4206\",\"37\",\"0\",\"Testing\",\"Stims/Figures/86-J-0-1.bmp\",\"ta:pa:ta\",\"Right\",\"39\",\"2\",\"14\",\"1\",\"P\",\"C\",\"38\"
\"\",\"\",\"approach-retreat\",\"187\",\"1220548\",\"0.0-187.0\",\"\",\"\",\"3-2\",\"4276\",\"39\",\"0\",\"Testing\",\"Stims/Figures/139-J-0-2.bmp\",\"ta:pa:ta\",\"Left\",\"37\",\"2\",\"15\",\"1\",\"P\",\"C\",\"39\"
\"\",\"\",\"approach-retreat\",\"188\",\"1226274\",\"0.0-188.0\",\"\",\"\",\"3-2\",\"4214\",\"39\",\"1\",\"Testing\",\"Stims/Figures/44-C-30-3.bmp\",\"na:ma:la\",\"Left\",\"39\",\"2\",\"16\",\"1\",\"S\",\"C\",\"40\"
\"\",\"\",\"approach-retreat\",\"189\",\"1231886\",\"0.0-189.0\",\"\",\"\",\"3-2\",\"4102\",\"40\",\"1\",\"Testing\",\"Stims/Figures/144-C-30-3.bmp\",\"na:ma:la\",\"Up\",\"40\",\"2\",\"17\",\"1\",\"S\",\"C\",\"41\"
\"\",\"\",\"approach-retreat\",\"190\",\"1237726\",\"0.0-190.0\",\"\",\"\",\"3-2\",\"4330\",\"38\",\"1\",\"Testing\",\"Stims/Figures/44-J-10-3.bmp\",\"ta:pa:ta\",\"Up\",\"38\",\"2\",\"18\",\"1\",\"P\",\"C\",\"42\"
\"\",\"\",\"approach-retreat\",\"191\",\"1243846\",\"0.0-191.0\",\"\",\"\",\"3-2\",\"4614\",\"38\",\"1\",\"Testing\",\"Stims/Figures/102-J-10-4.bmp\",\"ta:pa:ta\",\"Up\",\"38\",\"2\",\"19\",\"1\",\"P\",\"C\",\"43\"
\"\",\"\",\"approach-retreat\",\"192\",\"1249536\",\"0.0-192.0\",\"\",\"\",\"3-2\",\"4182\",\"38\",\"0\",\"Testing\",\"Stims/Figures/139-C-20-2.bmp\",\"na:ma:la\",\"Up\",\"40\",\"2\",\"20\",\"1\",\"S\",\"C\",\"44\"
\"\",\"\",\"approach-retreat\",\"193\",\"1255326\",\"0.0-193.0\",\"\",\"\",\"3-2\",\"4270\",\"38\",\"0\",\"Testing\",\"Stims/Figures/71-J-0-1.bmp\",\"ta:pa:ta\",\"Down\",\"40\",\"2\",\"21\",\"1\",\"P\",\"C\",\"45\"
\"\",\"\",\"approach-retreat\",\"194\",\"1261146\",\"0.0-194.0\",\"\",\"\",\"3-2\",\"4310\",\"39\",\"1\",\"Testing\",\"Stims/Figures/128-J-10-3.bmp\",\"ta:pa:ta\",\"Right\",\"39\",\"2\",\"22\",\"1\",\"P\",\"C\",\"46\"
\"\",\"\",\"approach-retreat\",\"195\",\"1266876\",\"0.0-195.0\",\"\",\"\",\"3-2\",\"4216\",\"40\",\"1\",\"Testing\",\"Stims/Figures/74-J-10-4.bmp\",\"ta:pa:ta\",\"Down\",\"40\",\"2\",\"23\",\"1\",\"P\",\"C\",\"47\"
\"\",\"\",\"approach-retreat\",\"196\",\"1272966\",\"0.0-196.0\",\"\",\"\",\"3-2\",\"4578\",\"39\",\"1\",\"Testing\",\"Stims/Figures/102-C-20-4.bmp\",\"na:ma:la\",\"Left\",\"39\",\"2\",\"24\",\"1\",\"S\",\"C\",\"48\"
\"\",\"\",\"approach-retreat\",\"197\",\"1278738\",\"0.0-197.0\",\"\",\"\",\"3-2\",\"4254\",\"37\",\"0\",\"Testing\",\"Stims/Figures/118-C-20-2.bmp\",\"na:ma:la\",\"Left\",\"39\",\"3\",\"1\",\"1\",\"S\",\"C\",\"49\"
\"\",\"\",\"approach-retreat\",\"198\",\"1284390\",\"0.0-198.0\",\"\",\"\",\"3-2\",\"4136\",\"40\",\"1\",\"Testing\",\"Stims/Figures/84-J-0-2.bmp\",\"ta:pa:ta\",\"Down\",\"40\",\"3\",\"2\",\"1\",\"P\",\"C\",\"50\"
\"\",\"\",\"approach-retreat\",\"199\",\"1290122\",\"0.0-199.0\",\"\",\"\",\"3-2\",\"4220\",\"39\",\"1\",\"Testing\",\"Stims/Figures/86-C-30-1.bmp\",\"na:ma:la\",\"Left\",\"39\",\"3\",\"3\",\"1\",\"S\",\"C\",\"51\"
\"\",\"\",\"approach-retreat\",\"200\",\"1295762\",\"0.0-200.0\",\"\",\"\",\"3-2\",\"4134\",\"37\",\"1\",\"Testing\",\"Stims/Figures/86-J-0-1.bmp\",\"ta:pa:ta\",\"Left\",\"37\",\"3\",\"4\",\"1\",\"P\",\"C\",\"52\"
\"\",\"\",\"approach-retreat\",\"201\",\"1301912\",\"0.0-201.0\",\"\",\"\",\"3-2\",\"4644\",\"38\",\"1\",\"Testing\",\"Stims/Figures/74-J-10-4.bmp\",\"ta:pa:ta\",\"Up\",\"38\",\"3\",\"5\",\"1\",\"P\",\"C\",\"53\"
\"\",\"\",\"approach-retreat\",\"202\",\"1307574\",\"0.0-202.0\",\"\",\"\",\"3-2\",\"4150\",\"39\",\"1\",\"Testing\",\"Stims/Figures/57-J-0-1.bmp\",\"ta:pa:ta\",\"Right\",\"39\",\"3\",\"6\",\"1\",\"P\",\"C\",\"54\"
\"\",\"\",\"approach-retreat\",\"203\",\"1313084\",\"0.0-203.0\",\"\",\"\",\"3-2\",\"3998\",\"39\",\"1\",\"Testing\",\"Stims/Figures/74-C-20-4.bmp\",\"na:ma:la\",\"Left\",\"39\",\"3\",\"7\",\"1\",\"S\",\"C\",\"55\"
\"\",\"\",\"approach-retreat\",\"204\",\"1320166\",\"0.0-204.0\",\"\",\"\",\"3-2\",\"5576\",\"39\",\"1\",\"Testing\",\"Stims/Figures/44-J-10-3.bmp\",\"ta:pa:ta\",\"Right\",\"39\",\"3\",\"8\",\"1\",\"P\",\"C\",\"56\"
\"\",\"\",\"approach-retreat\",\"205\",\"1325796\",\"0.0-205.0\",\"\",\"\",\"3-2\",\"4118\",\"38\",\"1\",\"Testing\",\"Stims/Figures/139-C-20-2.bmp\",\"na:ma:la\",\"Down\",\"38\",\"3\",\"9\",\"1\",\"S\",\"C\",\"57\"
\"\",\"\",\"approach-retreat\",\"206\",\"1331278\",\"0.0-206.0\",\"\",\"\",\"3-2\",\"3968\",\"38\",\"1\",\"Testing\",\"Stims/Figures/57-C-30-1.bmp\",\"na:ma:la\",\"Down\",\"38\",\"3\",\"10\",\"1\",\"S\",\"C\",\"58\"
\"\",\"\",\"approach-retreat\",\"207\",\"1336800\",\"0.0-207.0\",\"\",\"\",\"3-2\",\"4008\",\"38\",\"0\",\"Testing\",\"Stims/Figures/128-J-10-3.bmp\",\"ta:pa:ta\",\"Down\",\"40\",\"3\",\"11\",\"1\",\"P\",\"C\",\"59\"
\"\",\"\",\"approach-retreat\",\"208\",\"1342672\",\"0.0-208.0\",\"\",\"\",\"3-2\",\"4356\",\"38\",\"1\",\"Testing\",\"Stims/Figures/144-C-30-3.bmp\",\"na:ma:la\",\"Down\",\"38\",\"3\",\"12\",\"1\",\"S\",\"C\",\"60\"
\"\",\"\",\"approach-retreat\",\"209\",\"1348294\",\"0.0-209.0\",\"\",\"\",\"3-2\",\"4110\",\"39\",\"1\",\"Testing\",\"Stims/Figures/144-J-10-3.bmp\",\"ta:pa:ta\",\"Right\",\"39\",\"3\",\"13\",\"1\",\"P\",\"C\",\"61\"
\"\",\"\",\"approach-retreat\",\"210\",\"1353836\",\"0.0-210.0\",\"\",\"\",\"3-2\",\"4030\",\"37\",\"1\",\"Testing\",\"Stims/Figures/71-J-0-1.bmp\",\"ta:pa:ta\",\"Left\",\"37\",\"3\",\"14\",\"1\",\"P\",\"C\",\"62\"
\"\",\"\",\"approach-retreat\",\"211\",\"1359316\",\"0.0-211.0\",\"\",\"\",\"3-2\",\"3974\",\"37\",\"1\",\"Testing\",\"Stims/Figures/128-C-30-3.bmp\",\"na:ma:la\",\"Right\",\"37\",\"3\",\"15\",\"1\",\"S\",\"C\",\"63\"
\"\",\"\",\"approach-retreat\",\"212\",\"1365118\",\"0.0-212.0\",\"\",\"\",\"3-2\",\"4290\",\"38\",\"1\",\"Testing\",\"Stims/Figures/139-J-0-2.bmp\",\"ta:pa:ta\",\"Up\",\"38\",\"3\",\"16\",\"1\",\"P\",\"C\",\"64\"
\"\",\"\",\"approach-retreat\",\"213\",\"1372678\",\"0.0-213.0\",\"\",\"\",\"3-2\",\"6050\",\"38\",\"0\",\"Testing\",\"Stims/Figures/87-C-20-4.bmp\",\"na:ma:la\",\"Up\",\"40\",\"3\",\"17\",\"1\",\"S\",\"C\",\"65\"
\"\",\"\",\"approach-retreat\",\"214\",\"1378398\",\"0.0-214.0\",\"\",\"\",\"3-2\",\"4212\",\"37\",\"1\",\"Testing\",\"Stims/Figures/87-J-10-4.bmp\",\"ta:pa:ta\",\"Left\",\"37\",\"3\",\"18\",\"1\",\"P\",\"C\",\"66\"
\"\",\"\",\"approach-retreat\",\"215\",\"1385430\",\"0.0-215.0\",\"\",\"\",\"3-2\",\"5522\",\"39\",\"1\",\"Testing\",\"Stims/Figures/118-J-0-2.bmp\",\"ta:pa:ta\",\"Right\",\"39\",\"3\",\"19\",\"1\",\"P\",\"C\",\"67\"
\"\",\"\",\"approach-retreat\",\"216\",\"1391600\",\"0.0-216.0\",\"\",\"\",\"3-2\",\"4662\",\"38\",\"1\",\"Testing\",\"Stims/Figures/84-C-20-2.bmp\",\"na:ma:la\",\"Down\",\"38\",\"3\",\"20\",\"1\",\"S\",\"C\",\"68\"
\"\",\"\",\"approach-retreat\",\"217\",\"1397174\",\"0.0-217.0\",\"\",\"\",\"3-2\",\"4058\",\"40\",\"1\",\"Testing\",\"Stims/Figures/71-C-30-1.bmp\",\"na:ma:la\",\"Up\",\"40\",\"3\",\"21\",\"1\",\"S\",\"C\",\"69\"
\"\",\"\",\"approach-retreat\",\"218\",\"1402798\",\"0.0-218.0\",\"\",\"\",\"3-2\",\"4118\",\"40\",\"1\",\"Testing\",\"Stims/Figures/102-C-20-4.bmp\",\"na:ma:la\",\"Up\",\"40\",\"3\",\"22\",\"1\",\"S\",\"C\",\"70\"
\"\",\"\",\"approach-retreat\",\"219\",\"1409368\",\"0.0-219.0\",\"\",\"\",\"3-2\",\"5064\",\"40\",\"1\",\"Testing\",\"Stims/Figures/44-C-30-3.bmp\",\"na:ma:la\",\"Up\",\"40\",\"3\",\"23\",\"1\",\"S\",\"C\",\"71\"
\"\",\"\",\"approach-retreat\",\"220\",\"1415158\",\"0.0-220.0\",\"\",\"\",\"3-2\",\"4278\",\"39\",\"1\",\"Testing\",\"Stims/Figures/102-J-10-4.bmp\",\"ta:pa:ta\",\"Right\",\"39\",\"3\",\"24\",\"1\",\"P\",\"C\",\"72\"
\"\",\"\",\"approach-retreat\",\"221\",\"1420970\",\"0.0-221.0\",\"\",\"\",\"3-2\",\"4296\",\"38\",\"1\",\"Testing\",\"Stims/Figures/57-J-0-1.bmp\",\"ta:pa:ta\",\"Up\",\"38\",\"4\",\"1\",\"1\",\"P\",\"C\",\"73\"
\"\",\"\",\"approach-retreat\",\"222\",\"1426650\",\"0.0-222.0\",\"\",\"\",\"3-2\",\"4174\",\"40\",\"1\",\"Testing\",\"Stims/Figures/128-C-30-3.bmp\",\"na:ma:la\",\"Up\",\"40\",\"4\",\"2\",\"1\",\"S\",\"C\",\"74\"
\"\",\"\",\"approach-retreat\",\"223\",\"1433070\",\"0.0-223.0\",\"\",\"\",\"3-2\",\"4910\",\"37\",\"1\",\"Testing\",\"Stims/Figures/102-C-20-4.bmp\",\"na:ma:la\",\"Right\",\"37\",\"4\",\"3\",\"1\",\"S\",\"C\",\"75\"
\"\",\"\",\"approach-retreat\",\"224\",\"1438942\",\"0.0-224.0\",\"\",\"\",\"3-2\",\"4364\",\"40\",\"1\",\"Testing\",\"Stims/Figures/102-J-10-4.bmp\",\"ta:pa:ta\",\"Down\",\"40\",\"4\",\"4\",\"1\",\"P\",\"C\",\"76\"
\"\",\"\",\"approach-retreat\",\"225\",\"1446692\",\"0.0-225.0\",\"\",\"\",\"3-2\",\"6242\",\"38\",\"1\",\"Testing\",\"Stims/Figures/87-C-20-4.bmp\",\"na:ma:la\",\"Down\",\"38\",\"4\",\"5\",\"1\",\"S\",\"C\",\"77\"
\"\",\"\",\"approach-retreat\",\"226\",\"1452412\",\"0.0-226.0\",\"\",\"\",\"3-2\",\"4214\",\"38\",\"1\",\"Testing\",\"Stims/Figures/57-C-30-1.bmp\",\"na:ma:la\",\"Down\",\"38\",\"4\",\"6\",\"1\",\"S\",\"C\",\"78\"
\"\",\"\",\"approach-retreat\",\"227\",\"1458982\",\"0.0-227.0\",\"\",\"\",\"3-2\",\"5062\",\"38\",\"1\",\"Testing\",\"Stims/Figures/86-J-0-1.bmp\",\"ta:pa:ta\",\"Up\",\"38\",\"4\",\"7\",\"1\",\"P\",\"C\",\"79\"
\"\",\"\",\"approach-retreat\",\"228\",\"1465132\",\"0.0-228.0\",\"\",\"\",\"3-2\",\"4644\",\"39\",\"1\",\"Testing\",\"Stims/Figures/144-J-10-3.bmp\",\"ta:pa:ta\",\"Right\",\"39\",\"4\",\"8\",\"1\",\"P\",\"C\",\"80\"
\"\",\"\",\"approach-retreat\",\"229\",\"1470804\",\"0.0-229.0\",\"\",\"\",\"3-2\",\"4164\",\"38\",\"1\",\"Testing\",\"Stims/Figures/71-J-0-1.bmp\",\"ta:pa:ta\",\"Up\",\"38\",\"4\",\"9\",\"1\",\"P\",\"C\",\"81\"
\"\",\"\",\"approach-retreat\",\"230\",\"1476672\",\"0.0-230.0\",\"\",\"\",\"3-2\",\"4366\",\"39\",\"0\",\"Testing\",\"Stims/Figures/71-C-30-1.bmp\",\"na:ma:la\",\"Right\",\"37\",\"4\",\"10\",\"1\",\"S\",\"C\",\"82\"
\"\",\"\",\"approach-retreat\",\"231\",\"1482394\",\"0.0-231.0\",\"\",\"\",\"3-2\",\"4210\",\"40\",\"1\",\"Testing\",\"Stims/Figures/87-J-10-4.bmp\",\"ta:pa:ta\",\"Down\",\"40\",\"4\",\"11\",\"1\",\"P\",\"C\",\"83\"
\"\",\"\",\"approach-retreat\",\"232\",\"1488104\",\"0.0-232.0\",\"\",\"\",\"3-2\",\"4198\",\"39\",\"1\",\"Testing\",\"Stims/Figures/144-C-30-3.bmp\",\"na:ma:la\",\"Left\",\"39\",\"4\",\"12\",\"1\",\"S\",\"C\",\"84\"
\"\",\"\",\"approach-retreat\",\"233\",\"1494174\",\"0.0-233.0\",\"\",\"\",\"3-2\",\"4564\",\"37\",\"1\",\"Testing\",\"Stims/Figures/84-J-0-2.bmp\",\"ta:pa:ta\",\"Left\",\"37\",\"4\",\"13\",\"1\",\"P\",\"C\",\"85\"
\"\",\"\",\"approach-retreat\",\"234\",\"1499856\",\"0.0-234.0\",\"\",\"\",\"3-2\",\"4168\",\"38\",\"1\",\"Testing\",\"Stims/Figures/86-C-30-1.bmp\",\"na:ma:la\",\"Down\",\"38\",\"4\",\"14\",\"1\",\"S\",\"C\",\"86\"
\"\",\"\",\"approach-retreat\",\"235\",\"1506126\",\"0.0-235.0\",\"\",\"\",\"3-2\",\"4764\",\"37\",\"1\",\"Testing\",\"Stims/Figures/139-J-0-2.bmp\",\"ta:pa:ta\",\"Left\",\"37\",\"4\",\"15\",\"1\",\"P\",\"C\",\"87\"
\"\",\"\",\"approach-retreat\",\"236\",\"1511866\",\"0.0-236.0\",\"\",\"\",\"3-2\",\"4230\",\"40\",\"1\",\"Testing\",\"Stims/Figures/74-J-10-4.bmp\",\"ta:pa:ta\",\"Down\",\"40\",\"4\",\"16\",\"1\",\"P\",\"C\",\"88\"
\"\",\"\",\"approach-retreat\",\"237\",\"1517668\",\"0.0-237.0\",\"\",\"\",\"3-2\",\"4290\",\"37\",\"1\",\"Testing\",\"Stims/Figures/74-C-20-4.bmp\",\"na:ma:la\",\"Right\",\"37\",\"4\",\"17\",\"1\",\"S\",\"C\",\"89\"
\"\",\"\",\"approach-retreat\",\"238\",\"1523318\",\"0.0-238.0\",\"\",\"\",\"3-2\",\"4138\",\"37\",\"0\",\"Testing\",\"Stims/Figures/44-C-30-3.bmp\",\"na:ma:la\",\"Left\",\"39\",\"4\",\"18\",\"1\",\"S\",\"C\",\"90\"
\"\",\"\",\"approach-retreat\",\"239\",\"1528928\",\"0.0-239.0\",\"\",\"\",\"3-2\",\"4104\",\"37\",\"1\",\"Testing\",\"Stims/Figures/44-J-10-3.bmp\",\"ta:pa:ta\",\"Left\",\"37\",\"4\",\"19\",\"1\",\"P\",\"C\",\"91\"
\"\",\"\",\"approach-retreat\",\"240\",\"1534558\",\"0.0-240.0\",\"\",\"\",\"3-2\",\"4124\",\"37\",\"1\",\"Testing\",\"Stims/Figures/84-C-20-2.bmp\",\"na:ma:la\",\"Right\",\"37\",\"4\",\"20\",\"1\",\"S\",\"C\",\"92\"
\"\",\"\",\"approach-retreat\",\"241\",\"1540370\",\"0.0-241.0\",\"\",\"\",\"3-2\",\"4298\",\"37\",\"1\",\"Testing\",\"Stims/Figures/118-J-0-2.bmp\",\"ta:pa:ta\",\"Left\",\"37\",\"4\",\"21\",\"1\",\"P\",\"C\",\"93\"
\"\",\"\",\"approach-retreat\",\"242\",\"1546122\",\"0.0-242.0\",\"\",\"\",\"3-2\",\"4246\",\"40\",\"1\",\"Testing\",\"Stims/Figures/139-C-20-2.bmp\",\"na:ma:la\",\"Up\",\"40\",\"4\",\"22\",\"1\",\"S\",\"C\",\"94\"
\"\",\"\",\"approach-retreat\",\"243\",\"1551774\",\"0.0-243.0\",\"\",\"\",\"3-2\",\"4144\",\"40\",\"1\",\"Testing\",\"Stims/Figures/118-C-20-2.bmp\",\"na:ma:la\",\"Up\",\"40\",\"4\",\"23\",\"1\",\"S\",\"C\",\"95\"
\"\",\"\",\"approach-retreat\",\"244\",\"1557536\",\"0.0-244.0\",\"\",\"\",\"3-2\",\"4250\",\"39\",\"1\",\"Testing\",\"Stims/Figures/128-J-10-3.bmp\",\"ta:pa:ta\",\"Right\",\"39\",\"4\",\"24\",\"1\",\"P\",\"C\",\"96\"
\"26472\",\"\",\"survey-text\",\"245\",\"1584014\",\"0.0-245.0\",\"\",\"{\"\"Q0\"\":\"\"PS160011\"\"}\",\"\",\"\",\"\",\"\",\"\",\"\",\"\",\"\",\"\",\"\",\"\",\"\",\"\",\"\",\"\"
