\"rt\",\"key_press\",\"trial_type\",\"trial_index\",\"time_elapsed\",\"internal_node_id\",\"view_history\",\"responses\",\"Id\",\"Rt\",\"ResKeyCode\",\"ResCorr\",\"TrialType2\",\"Image\",\"Label\",\"Location\",\"CorrectResponse\",\"Block\",\"BlockTrial\",\"Condition\",\"LabelType\",\"Subcondition\",\"trialNum\"
\"54616\",\"32\",\"text\",\"0\",\"54624\",\"0.0-0.0-0.0\",\"\",\"\",\"\",\"\",\"\",\"\",\"\",\"\",\"\",\"\",\"\",\"\",\"\",\"\",\"\",\"\",\"\"
\"149258\",\"\",\"instructions\",\"1\",\"203888\",\"0.0-1.0\",\"[{\"\"page_index\"\":0,\"\"viewing_time\"\":149254}]\",\"\",\"\",\"\",\"\",\"\",\"\",\"\",\"\",\"\",\"\",\"\",\"\",\"\",\"\",\"\",\"\"
\"52576\",\"\",\"survey-multi-choice\",\"2\",\"256534\",\"0.0-2.0\",\"\",\"{\"\"Q0\"\":\"\"Da\"\",\"\"Q1\"\":\"\"Da\"\",\"\"Q2\"\":\"\"Da\"\",\"\"Q3\"\":\"\"Da\"\",\"\"Q4\"\":\"\"Da\"\",\"\"Q5\"\":\"\"Da\"\"}\",\"\",\"\",\"\",\"\",\"\",\"\",\"\",\"\",\"\",\"\",\"\",\"\",\"\",\"\",\"\"
\"\",\"\",\"bio\",\"3\",\"269792\",\"0.0-3.0\",\"\",\"{\"\"age\"\":\"\"20\"\",\"\"gender\"\":\"\"f\"\",\"\"specify\"\":\"\"\"\"}\",\"\",\"\",\"\",\"\",\"\",\"\",\"\",\"\",\"\",\"\",\"\",\"\",\"\",\"\",\"\"
\"\",\"\",\"approach-retreat\",\"4\",\"277598\",\"0.0-4.0\",\"\",\"\",\"2-5\",\"6270\",\"40\",\"0\",\"Training\",\"Stims/Figures/118-J-0-2.bmp\",\"zaha:ha\",\"Down\",\"38\",\"1\",\"1\",\"6B\",\"C2\",\"J\",\"1\"
\"\",\"\",\"approach-retreat\",\"5\",\"284076\",\"0.0-5.0\",\"\",\"\",\"2-5\",\"4954\",\"38\",\"1\",\"Training\",\"Stims/Figures/71-C-30-1.bmp\",\"va:fasha\",\"Up\",\"38\",\"1\",\"2\",\"6B\",\"C1\",\"J\",\"2\"
\"\",\"\",\"approach-retreat\",\"6\",\"290206\",\"0.0-6.0\",\"\",\"\",\"2-5\",\"4616\",\"38\",\"0\",\"Training\",\"Stims/Figures/87-C-20-4.bmp\",\"va:shasha\",\"Down\",\"40\",\"1\",\"3\",\"6B\",\"C1\",\"J\",\"3\"
\"\",\"\",\"approach-retreat\",\"7\",\"296366\",\"0.0-7.0\",\"\",\"\",\"2-5\",\"4648\",\"38\",\"0\",\"Training\",\"Stims/Figures/144-J-10-3.bmp\",\"saha:za\",\"Up\",\"40\",\"1\",\"4\",\"6B\",\"C2\",\"J\",\"4\"
\"\",\"\",\"approach-retreat\",\"8\",\"304542\",\"0.0-8.0\",\"\",\"\",\"2-5\",\"6664\",\"39\",\"0\",\"Training\",\"Stims/Figures/118-C-20-2.bmp\",\"va:sha:va\",\"Left\",\"37\",\"1\",\"5\",\"6B\",\"C1\",\"J\",\"5\"
\"\",\"\",\"approach-retreat\",\"9\",\"311754\",\"0.0-9.0\",\"\",\"\",\"2-5\",\"5700\",\"38\",\"1\",\"Training\",\"Stims/Figures/57-C-30-1.bmp\",\"vafa:va\",\"Up\",\"38\",\"1\",\"6\",\"6B\",\"C1\",\"J\",\"6\"
\"\",\"\",\"approach-retreat\",\"10\",\"319936\",\"0.0-10.0\",\"\",\"\",\"2-5\",\"6660\",\"39\",\"0\",\"Training\",\"Stims/Figures/7-J-10-4.bmp\",\"za:saza\",\"Right\",\"37\",\"1\",\"7\",\"6B\",\"C2\",\"J\",\"7\"
\"\",\"\",\"approach-retreat\",\"11\",\"326900\",\"0.0-11.0\",\"\",\"\",\"2-5\",\"5448\",\"39\",\"0\",\"Training\",\"Stims/Figures/57-J-0-1.bmp\",\"za:haha\",\"Right\",\"37\",\"1\",\"8\",\"6B\",\"C2\",\"J\",\"8\"
\"\",\"\",\"approach-retreat\",\"12\",\"334214\",\"0.0-12.0\",\"\",\"\",\"2-5\",\"5804\",\"38\",\"1\",\"Training\",\"Stims/Figures/71-J-0-1.bmp\",\"sa:haza\",\"Down\",\"38\",\"1\",\"9\",\"6B\",\"C2\",\"J\",\"9\"
\"\",\"\",\"approach-retreat\",\"13\",\"340580\",\"0.0-13.0\",\"\",\"\",\"2-5\",\"4856\",\"37\",\"1\",\"Training\",\"Stims/Figures/84-C-20-2.bmp\",\"vasha:sha\",\"Left\",\"37\",\"1\",\"10\",\"6B\",\"C1\",\"J\",\"10\"
\"\",\"\",\"approach-retreat\",\"14\",\"347496\",\"0.0-14.0\",\"\",\"\",\"2-5\",\"5402\",\"37\",\"1\",\"Training\",\"Stims/Figures/87-J-10-4.bmp\",\"sa:saha\",\"Right\",\"37\",\"1\",\"11\",\"6B\",\"C2\",\"J\",\"11\"
\"\",\"\",\"approach-retreat\",\"15\",\"354222\",\"0.0-15.0\",\"\",\"\",\"2-5\",\"5214\",\"40\",\"1\",\"Training\",\"Stims/Figures/7-C-20-4.bmp\",\"vasha:va\",\"Down\",\"40\",\"1\",\"12\",\"6B\",\"C1\",\"J\",\"12\"
\"\",\"\",\"approach-retreat\",\"16\",\"360290\",\"0.0-16.0\",\"\",\"\",\"2-5\",\"4560\",\"37\",\"1\",\"Training\",\"Stims/Figures/44-C-30-3.bmp\",\"fafava\",\"Left\",\"37\",\"1\",\"13\",\"6B\",\"C1\",\"J\",\"13\"
\"\",\"\",\"approach-retreat\",\"17\",\"367136\",\"0.0-17.0\",\"\",\"\",\"2-5\",\"5338\",\"38\",\"1\",\"Training\",\"Stims/Figures/144-C-30-3.bmp\",\"fashasha\",\"Up\",\"38\",\"1\",\"14\",\"6B\",\"C1\",\"J\",\"14\"
\"\",\"\",\"approach-retreat\",\"18\",\"373040\",\"0.0-18.0\",\"\",\"\",\"2-5\",\"4394\",\"37\",\"0\",\"Training\",\"Stims/Figures/44-J-10-3.bmp\",\"sahaza\",\"Left\",\"39\",\"1\",\"15\",\"6B\",\"C2\",\"J\",\"15\"
\"\",\"\",\"approach-retreat\",\"19\",\"379004\",\"0.0-19.0\",\"\",\"\",\"2-5\",\"4452\",\"39\",\"0\",\"Training\",\"Stims/Figures/84-J-0-2.bmp\",\"sa:sa:za\",\"Right\",\"37\",\"1\",\"16\",\"6B\",\"C2\",\"J\",\"16\"
\"\",\"\",\"approach-retreat\",\"20\",\"386100\",\"0.0-20.0\",\"\",\"\",\"2-5\",\"5580\",\"39\",\"0\",\"Training\",\"Stims/Figures/7-J-10-4.bmp\",\"za:saza\",\"Right\",\"37\",\"2\",\"1\",\"6B\",\"C2\",\"J\",\"17\"
\"\",\"\",\"approach-retreat\",\"21\",\"392136\",\"0.0-21.0\",\"\",\"\",\"2-5\",\"4532\",\"37\",\"1\",\"Training\",\"Stims/Figures/84-C-20-2.bmp\",\"vasha:sha\",\"Left\",\"37\",\"2\",\"2\",\"6B\",\"C1\",\"J\",\"18\"
\"\",\"\",\"approach-retreat\",\"22\",\"398470\",\"0.0-22.0\",\"\",\"\",\"2-5\",\"4816\",\"39\",\"0\",\"Training\",\"Stims/Figures/7-C-20-4.bmp\",\"vasha:va\",\"Left\",\"37\",\"2\",\"3\",\"6B\",\"C1\",\"J\",\"19\"
\"\",\"\",\"approach-retreat\",\"23\",\"404312\",\"0.0-23.0\",\"\",\"\",\"2-5\",\"4334\",\"38\",\"0\",\"Training\",\"Stims/Figures/87-J-10-4.bmp\",\"sa:saha\",\"Up\",\"40\",\"2\",\"4\",\"6B\",\"C2\",\"J\",\"20\"
\"\",\"\",\"approach-retreat\",\"24\",\"410872\",\"0.0-24.0\",\"\",\"\",\"2-5\",\"5052\",\"39\",\"1\",\"Training\",\"Stims/Figures/71-J-0-1.bmp\",\"sa:haza\",\"Left\",\"39\",\"2\",\"5\",\"6B\",\"C2\",\"J\",\"21\"
\"\",\"\",\"approach-retreat\",\"25\",\"416716\",\"0.0-25.0\",\"\",\"\",\"2-5\",\"4338\",\"38\",\"0\",\"Training\",\"Stims/Figures/44-J-10-3.bmp\",\"sahaza\",\"Up\",\"40\",\"2\",\"6\",\"6B\",\"C2\",\"J\",\"22\"
\"\",\"\",\"approach-retreat\",\"26\",\"422676\",\"0.0-26.0\",\"\",\"\",\"2-5\",\"4454\",\"39\",\"1\",\"Training\",\"Stims/Figures/87-C-20-4.bmp\",\"va:shasha\",\"Right\",\"39\",\"2\",\"7\",\"6B\",\"C1\",\"J\",\"23\"
\"\",\"\",\"approach-retreat\",\"27\",\"428622\",\"0.0-27.0\",\"\",\"\",\"2-5\",\"4438\",\"39\",\"0\",\"Training\",\"Stims/Figures/144-J-10-3.bmp\",\"saha:za\",\"Right\",\"37\",\"2\",\"8\",\"6B\",\"C2\",\"J\",\"24\"
\"\",\"\",\"approach-retreat\",\"28\",\"435442\",\"0.0-28.0\",\"\",\"\",\"2-5\",\"5312\",\"38\",\"1\",\"Training\",\"Stims/Figures/118-C-20-2.bmp\",\"va:sha:va\",\"Up\",\"38\",\"2\",\"9\",\"6B\",\"C1\",\"J\",\"25\"
\"\",\"\",\"approach-retreat\",\"29\",\"442014\",\"0.0-29.0\",\"\",\"\",\"2-5\",\"5054\",\"40\",\"0\",\"Training\",\"Stims/Figures/57-C-30-1.bmp\",\"vafa:va\",\"Up\",\"38\",\"2\",\"10\",\"6B\",\"C1\",\"J\",\"26\"
\"\",\"\",\"approach-retreat\",\"30\",\"448640\",\"0.0-30.0\",\"\",\"\",\"2-5\",\"5118\",\"38\",\"1\",\"Training\",\"Stims/Figures/84-J-0-2.bmp\",\"sa:sa:za\",\"Down\",\"38\",\"2\",\"11\",\"6B\",\"C2\",\"J\",\"27\"
\"\",\"\",\"approach-retreat\",\"31\",\"455280\",\"0.0-31.0\",\"\",\"\",\"2-5\",\"5124\",\"40\",\"0\",\"Training\",\"Stims/Figures/57-J-0-1.bmp\",\"za:haha\",\"Down\",\"38\",\"2\",\"12\",\"6B\",\"C2\",\"J\",\"28\"
\"\",\"\",\"approach-retreat\",\"32\",\"460974\",\"0.0-32.0\",\"\",\"\",\"2-5\",\"4180\",\"38\",\"0\",\"Training\",\"Stims/Figures/144-C-30-3.bmp\",\"fashasha\",\"Down\",\"40\",\"2\",\"13\",\"6B\",\"C1\",\"J\",\"29\"
\"\",\"\",\"approach-retreat\",\"33\",\"467866\",\"0.0-33.0\",\"\",\"\",\"2-5\",\"5386\",\"39\",\"1\",\"Training\",\"Stims/Figures/71-C-30-1.bmp\",\"va:fasha\",\"Right\",\"39\",\"2\",\"14\",\"6B\",\"C1\",\"J\",\"30\"
\"\",\"\",\"approach-retreat\",\"34\",\"474184\",\"0.0-34.0\",\"\",\"\",\"2-5\",\"4810\",\"38\",\"1\",\"Training\",\"Stims/Figures/118-J-0-2.bmp\",\"zaha:ha\",\"Down\",\"38\",\"2\",\"15\",\"6B\",\"C2\",\"J\",\"31\"
\"\",\"\",\"approach-retreat\",\"35\",\"480340\",\"0.0-35.0\",\"\",\"\",\"2-5\",\"4638\",\"39\",\"0\",\"Training\",\"Stims/Figures/44-C-30-3.bmp\",\"fafava\",\"Left\",\"37\",\"2\",\"16\",\"6B\",\"C1\",\"J\",\"32\"
\"\",\"\",\"approach-retreat\",\"36\",\"486658\",\"0.0-36.0\",\"\",\"\",\"2-5\",\"4810\",\"39\",\"1\",\"Training\",\"Stims/Figures/144-J-10-3.bmp\",\"saha:za\",\"Left\",\"39\",\"3\",\"1\",\"6B\",\"C2\",\"J\",\"33\"
\"\",\"\",\"approach-retreat\",\"37\",\"492472\",\"0.0-37.0\",\"\",\"\",\"2-5\",\"4300\",\"39\",\"0\",\"Training\",\"Stims/Figures/57-J-0-1.bmp\",\"za:haha\",\"Right\",\"37\",\"3\",\"2\",\"6B\",\"C2\",\"J\",\"34\"
\"\",\"\",\"approach-retreat\",\"38\",\"498226\",\"0.0-38.0\",\"\",\"\",\"2-5\",\"4250\",\"39\",\"0\",\"Training\",\"Stims/Figures/84-C-20-2.bmp\",\"vasha:sha\",\"Left\",\"37\",\"3\",\"3\",\"6B\",\"C1\",\"J\",\"35\"
\"\",\"\",\"approach-retreat\",\"39\",\"504104\",\"0.0-39.0\",\"\",\"\",\"2-5\",\"4362\",\"38\",\"0\",\"Training\",\"Stims/Figures/57-C-30-1.bmp\",\"vafa:va\",\"Down\",\"40\",\"3\",\"4\",\"6B\",\"C1\",\"J\",\"36\"
\"\",\"\",\"approach-retreat\",\"40\",\"510596\",\"0.0-40.0\",\"\",\"\",\"2-5\",\"4986\",\"40\",\"1\",\"Training\",\"Stims/Figures/118-C-20-2.bmp\",\"va:sha:va\",\"Down\",\"40\",\"3\",\"5\",\"6B\",\"C1\",\"J\",\"37\"
\"\",\"\",\"approach-retreat\",\"41\",\"516540\",\"0.0-41.0\",\"\",\"\",\"2-5\",\"4438\",\"39\",\"1\",\"Training\",\"Stims/Figures/144-C-30-3.bmp\",\"fashasha\",\"Right\",\"39\",\"3\",\"6\",\"6B\",\"C1\",\"J\",\"38\"
\"\",\"\",\"approach-retreat\",\"42\",\"522394\",\"0.0-42.0\",\"\",\"\",\"2-5\",\"4348\",\"39\",\"1\",\"Training\",\"Stims/Figures/84-J-0-2.bmp\",\"sa:sa:za\",\"Left\",\"39\",\"3\",\"7\",\"6B\",\"C2\",\"J\",\"39\"
\"\",\"\",\"approach-retreat\",\"43\",\"529052\",\"0.0-43.0\",\"\",\"\",\"2-5\",\"5136\",\"40\",\"0\",\"Training\",\"Stims/Figures/71-C-30-1.bmp\",\"va:fasha\",\"Up\",\"38\",\"3\",\"8\",\"6B\",\"C1\",\"J\",\"40\"
\"\",\"\",\"approach-retreat\",\"44\",\"536134\",\"0.0-44.0\",\"\",\"\",\"2-5\",\"5578\",\"40\",\"1\",\"Training\",\"Stims/Figures/44-J-10-3.bmp\",\"sahaza\",\"Up\",\"40\",\"3\",\"9\",\"6B\",\"C2\",\"J\",\"41\"
\"\",\"\",\"approach-retreat\",\"45\",\"542126\",\"0.0-45.0\",\"\",\"\",\"2-5\",\"4476\",\"38\",\"0\",\"Training\",\"Stims/Figures/44-C-30-3.bmp\",\"fafava\",\"Down\",\"40\",\"3\",\"10\",\"6B\",\"C1\",\"J\",\"42\"
\"\",\"\",\"approach-retreat\",\"46\",\"547910\",\"0.0-46.0\",\"\",\"\",\"2-5\",\"4278\",\"39\",\"1\",\"Training\",\"Stims/Figures/87-J-10-4.bmp\",\"sa:saha\",\"Left\",\"39\",\"3\",\"11\",\"6B\",\"C2\",\"J\",\"43\"
\"\",\"\",\"approach-retreat\",\"47\",\"554550\",\"0.0-47.0\",\"\",\"\",\"2-5\",\"5132\",\"37\",\"1\",\"Training\",\"Stims/Figures/71-J-0-1.bmp\",\"sa:haza\",\"Right\",\"37\",\"3\",\"12\",\"6B\",\"C2\",\"J\",\"44\"
\"\",\"\",\"approach-retreat\",\"48\",\"560482\",\"0.0-48.0\",\"\",\"\",\"2-5\",\"4424\",\"38\",\"1\",\"Training\",\"Stims/Figures/118-J-0-2.bmp\",\"zaha:ha\",\"Down\",\"38\",\"3\",\"13\",\"6B\",\"C2\",\"J\",\"45\"
\"\",\"\",\"approach-retreat\",\"49\",\"566648\",\"0.0-49.0\",\"\",\"\",\"2-5\",\"4662\",\"38\",\"1\",\"Training\",\"Stims/Figures/7-C-20-4.bmp\",\"vasha:va\",\"Up\",\"38\",\"3\",\"14\",\"6B\",\"C1\",\"J\",\"46\"
\"\",\"\",\"approach-retreat\",\"50\",\"573334\",\"0.0-50.0\",\"\",\"\",\"2-5\",\"5172\",\"39\",\"0\",\"Training\",\"Stims/Figures/7-J-10-4.bmp\",\"za:saza\",\"Right\",\"37\",\"3\",\"15\",\"6B\",\"C2\",\"J\",\"47\"
\"\",\"\",\"approach-retreat\",\"51\",\"579886\",\"0.0-51.0\",\"\",\"\",\"2-5\",\"5034\",\"40\",\"0\",\"Training\",\"Stims/Figures/87-C-20-4.bmp\",\"va:shasha\",\"Up\",\"38\",\"3\",\"16\",\"6B\",\"C1\",\"J\",\"48\"
\"\",\"\",\"approach-retreat\",\"52\",\"585650\",\"0.0-52.0\",\"\",\"\",\"2-5\",\"4256\",\"37\",\"1\",\"Training\",\"Stims/Figures/57-J-0-1.bmp\",\"za:haha\",\"Right\",\"37\",\"4\",\"1\",\"6B\",\"C2\",\"J\",\"49\"
\"\",\"\",\"approach-retreat\",\"53\",\"591992\",\"0.0-53.0\",\"\",\"\",\"2-5\",\"4812\",\"38\",\"0\",\"Training\",\"Stims/Figures/84-C-20-2.bmp\",\"vasha:sha\",\"Down\",\"40\",\"4\",\"2\",\"6B\",\"C1\",\"J\",\"50\"
\"\",\"\",\"approach-retreat\",\"54\",\"598466\",\"0.0-54.0\",\"\",\"\",\"2-5\",\"4966\",\"39\",\"1\",\"Training\",\"Stims/Figures/87-C-20-4.bmp\",\"va:shasha\",\"Right\",\"39\",\"4\",\"3\",\"6B\",\"C1\",\"J\",\"51\"
\"\",\"\",\"approach-retreat\",\"55\",\"604562\",\"0.0-55.0\",\"\",\"\",\"2-5\",\"4590\",\"40\",\"1\",\"Training\",\"Stims/Figures/84-J-0-2.bmp\",\"sa:sa:za\",\"Up\",\"40\",\"4\",\"4\",\"6B\",\"C2\",\"J\",\"52\"
\"\",\"\",\"approach-retreat\",\"56\",\"610960\",\"0.0-56.0\",\"\",\"\",\"2-5\",\"4894\",\"37\",\"1\",\"Training\",\"Stims/Figures/44-J-10-3.bmp\",\"sahaza\",\"Right\",\"37\",\"4\",\"5\",\"6B\",\"C2\",\"J\",\"53\"
\"\",\"\",\"approach-retreat\",\"57\",\"616794\",\"0.0-57.0\",\"\",\"\",\"2-5\",\"4330\",\"39\",\"1\",\"Training\",\"Stims/Figures/118-J-0-2.bmp\",\"zaha:ha\",\"Left\",\"39\",\"4\",\"6\",\"6B\",\"C2\",\"J\",\"54\"
\"\",\"\",\"approach-retreat\",\"58\",\"622630\",\"0.0-58.0\",\"\",\"\",\"2-5\",\"4328\",\"37\",\"1\",\"Training\",\"Stims/Figures/57-C-30-1.bmp\",\"vafa:va\",\"Left\",\"37\",\"4\",\"7\",\"6B\",\"C1\",\"J\",\"55\"
\"\",\"\",\"approach-retreat\",\"59\",\"628792\",\"0.0-59.0\",\"\",\"\",\"2-5\",\"4656\",\"38\",\"1\",\"Training\",\"Stims/Figures/118-C-20-2.bmp\",\"va:sha:va\",\"Up\",\"38\",\"4\",\"8\",\"6B\",\"C1\",\"J\",\"56\"
\"\",\"\",\"approach-retreat\",\"60\",\"635384\",\"0.0-60.0\",\"\",\"\",\"2-5\",\"5086\",\"37\",\"1\",\"Training\",\"Stims/Figures/7-C-20-4.bmp\",\"vasha:va\",\"Left\",\"37\",\"4\",\"9\",\"6B\",\"C1\",\"J\",\"57\"
\"\",\"\",\"approach-retreat\",\"61\",\"641238\",\"0.0-61.0\",\"\",\"\",\"2-5\",\"4348\",\"40\",\"1\",\"Training\",\"Stims/Figures/71-J-0-1.bmp\",\"sa:haza\",\"Up\",\"40\",\"4\",\"10\",\"6B\",\"C2\",\"J\",\"58\"
\"\",\"\",\"approach-retreat\",\"62\",\"647082\",\"0.0-62.0\",\"\",\"\",\"2-5\",\"4334\",\"39\",\"0\",\"Training\",\"Stims/Figures/144-J-10-3.bmp\",\"saha:za\",\"Right\",\"37\",\"4\",\"11\",\"6B\",\"C2\",\"J\",\"59\"
\"\",\"\",\"approach-retreat\",\"63\",\"652820\",\"0.0-63.0\",\"\",\"\",\"2-5\",\"4224\",\"37\",\"0\",\"Training\",\"Stims/Figures/7-J-10-4.bmp\",\"za:saza\",\"Left\",\"39\",\"4\",\"12\",\"6B\",\"C2\",\"J\",\"60\"
\"\",\"\",\"approach-retreat\",\"64\",\"658648\",\"0.0-64.0\",\"\",\"\",\"2-5\",\"4322\",\"38\",\"1\",\"Training\",\"Stims/Figures/87-J-10-4.bmp\",\"sa:saha\",\"Down\",\"38\",\"4\",\"13\",\"6B\",\"C2\",\"J\",\"61\"
\"\",\"\",\"approach-retreat\",\"65\",\"665016\",\"0.0-65.0\",\"\",\"\",\"2-5\",\"4862\",\"38\",\"0\",\"Training\",\"Stims/Figures/144-C-30-3.bmp\",\"fashasha\",\"Down\",\"40\",\"4\",\"14\",\"6B\",\"C1\",\"J\",\"62\"
\"\",\"\",\"approach-retreat\",\"66\",\"670810\",\"0.0-66.0\",\"\",\"\",\"2-5\",\"4284\",\"40\",\"0\",\"Training\",\"Stims/Figures/71-C-30-1.bmp\",\"va:fasha\",\"Up\",\"38\",\"4\",\"15\",\"6B\",\"C1\",\"J\",\"63\"
\"\",\"\",\"approach-retreat\",\"67\",\"676782\",\"0.0-67.0\",\"\",\"\",\"2-5\",\"4460\",\"38\",\"0\",\"Training\",\"Stims/Figures/44-C-30-3.bmp\",\"fafava\",\"Down\",\"40\",\"4\",\"16\",\"6B\",\"C1\",\"J\",\"64\"
\"\",\"\",\"approach-retreat\",\"68\",\"682570\",\"0.0-68.0\",\"\",\"\",\"2-5\",\"4270\",\"39\",\"0\",\"Training\",\"Stims/Figures/87-C-20-4.bmp\",\"va:shasha\",\"Left\",\"37\",\"5\",\"1\",\"6B\",\"C1\",\"J\",\"65\"
\"\",\"\",\"approach-retreat\",\"69\",\"688290\",\"0.0-69.0\",\"\",\"\",\"2-5\",\"4210\",\"37\",\"0\",\"Training\",\"Stims/Figures/44-C-30-3.bmp\",\"fafava\",\"Right\",\"39\",\"5\",\"2\",\"6B\",\"C1\",\"J\",\"66\"
\"\",\"\",\"approach-retreat\",\"70\",\"694462\",\"0.0-70.0\",\"\",\"\",\"2-5\",\"4666\",\"40\",\"1\",\"Training\",\"Stims/Figures/44-J-10-3.bmp\",\"sahaza\",\"Up\",\"40\",\"5\",\"3\",\"6B\",\"C2\",\"J\",\"67\"
\"\",\"\",\"approach-retreat\",\"71\",\"700734\",\"0.0-71.0\",\"\",\"\",\"2-5\",\"4768\",\"40\",\"1\",\"Training\",\"Stims/Figures/7-J-10-4.bmp\",\"za:saza\",\"Up\",\"40\",\"5\",\"4\",\"6B\",\"C2\",\"J\",\"68\"
\"\",\"\",\"approach-retreat\",\"72\",\"706880\",\"0.0-72.0\",\"\",\"\",\"2-5\",\"4640\",\"40\",\"1\",\"Training\",\"Stims/Figures/71-C-30-1.bmp\",\"va:fasha\",\"Down\",\"40\",\"5\",\"5\",\"6B\",\"C1\",\"J\",\"69\"
\"\",\"\",\"approach-retreat\",\"73\",\"712780\",\"0.0-73.0\",\"\",\"\",\"2-5\",\"4394\",\"39\",\"1\",\"Training\",\"Stims/Figures/144-C-30-3.bmp\",\"fashasha\",\"Right\",\"39\",\"5\",\"6\",\"6B\",\"C1\",\"J\",\"70\"
\"\",\"\",\"approach-retreat\",\"74\",\"718782\",\"0.0-74.0\",\"\",\"\",\"2-5\",\"4486\",\"40\",\"0\",\"Training\",\"Stims/Figures/144-J-10-3.bmp\",\"saha:za\",\"Down\",\"38\",\"5\",\"7\",\"6B\",\"C2\",\"J\",\"71\"
\"\",\"\",\"approach-retreat\",\"75\",\"724630\",\"0.0-75.0\",\"\",\"\",\"2-5\",\"4342\",\"39\",\"1\",\"Training\",\"Stims/Figures/57-J-0-1.bmp\",\"za:haha\",\"Left\",\"39\",\"5\",\"8\",\"6B\",\"C2\",\"J\",\"72\"
\"\",\"\",\"approach-retreat\",\"76\",\"730522\",\"0.0-76.0\",\"\",\"\",\"2-5\",\"4386\",\"39\",\"1\",\"Training\",\"Stims/Figures/118-J-0-2.bmp\",\"zaha:ha\",\"Left\",\"39\",\"5\",\"9\",\"6B\",\"C2\",\"J\",\"73\"
\"\",\"\",\"approach-retreat\",\"77\",\"736468\",\"0.0-77.0\",\"\",\"\",\"2-5\",\"4434\",\"38\",\"0\",\"Training\",\"Stims/Figures/118-C-20-2.bmp\",\"va:sha:va\",\"Down\",\"40\",\"5\",\"10\",\"6B\",\"C1\",\"J\",\"74\"
\"\",\"\",\"approach-retreat\",\"78\",\"742246\",\"0.0-78.0\",\"\",\"\",\"2-5\",\"4266\",\"37\",\"0\",\"Training\",\"Stims/Figures/57-C-30-1.bmp\",\"vafa:va\",\"Right\",\"39\",\"5\",\"11\",\"6B\",\"C1\",\"J\",\"75\"
\"\",\"\",\"approach-retreat\",\"79\",\"747986\",\"0.0-79.0\",\"\",\"\",\"2-5\",\"4234\",\"38\",\"1\",\"Training\",\"Stims/Figures/71-J-0-1.bmp\",\"sa:haza\",\"Down\",\"38\",\"5\",\"12\",\"6B\",\"C2\",\"J\",\"76\"
\"\",\"\",\"approach-retreat\",\"80\",\"754424\",\"0.0-80.0\",\"\",\"\",\"2-5\",\"4920\",\"38\",\"0\",\"Training\",\"Stims/Figures/84-J-0-2.bmp\",\"sa:sa:za\",\"Up\",\"40\",\"5\",\"13\",\"6B\",\"C2\",\"J\",\"77\"
\"\",\"\",\"approach-retreat\",\"81\",\"760244\",\"0.0-81.0\",\"\",\"\",\"2-5\",\"4304\",\"40\",\"0\",\"Training\",\"Stims/Figures/84-C-20-2.bmp\",\"vasha:sha\",\"Up\",\"38\",\"5\",\"14\",\"6B\",\"C1\",\"J\",\"78\"
\"\",\"\",\"approach-retreat\",\"82\",\"766766\",\"0.0-82.0\",\"\",\"\",\"2-5\",\"5012\",\"39\",\"0\",\"Training\",\"Stims/Figures/7-C-20-4.bmp\",\"vasha:va\",\"Left\",\"37\",\"5\",\"15\",\"6B\",\"C1\",\"J\",\"79\"
\"\",\"\",\"approach-retreat\",\"83\",\"772476\",\"0.0-83.0\",\"\",\"\",\"2-5\",\"4204\",\"37\",\"1\",\"Training\",\"Stims/Figures/87-J-10-4.bmp\",\"sa:saha\",\"Right\",\"37\",\"5\",\"16\",\"6B\",\"C2\",\"J\",\"80\"
\"\",\"\",\"approach-retreat\",\"84\",\"778416\",\"0.0-84.0\",\"\",\"\",\"2-5\",\"4432\",\"40\",\"0\",\"Training\",\"Stims/Figures/71-C-30-1.bmp\",\"va:fasha\",\"Up\",\"38\",\"6\",\"1\",\"6B\",\"C1\",\"J\",\"81\"
\"\",\"\",\"approach-retreat\",\"85\",\"784548\",\"0.0-85.0\",\"\",\"\",\"2-5\",\"4620\",\"37\",\"0\",\"Training\",\"Stims/Figures/87-C-20-4.bmp\",\"va:shasha\",\"Right\",\"39\",\"6\",\"2\",\"6B\",\"C1\",\"J\",\"82\"
\"\",\"\",\"approach-retreat\",\"86\",\"790546\",\"0.0-86.0\",\"\",\"\",\"2-5\",\"4488\",\"40\",\"0\",\"Training\",\"Stims/Figures/87-J-10-4.bmp\",\"sa:saha\",\"Down\",\"38\",\"6\",\"3\",\"6B\",\"C2\",\"J\",\"83\"
\"\",\"\",\"approach-retreat\",\"87\",\"797096\",\"0.0-87.0\",\"\",\"\",\"2-5\",\"5038\",\"40\",\"0\",\"Training\",\"Stims/Figures/118-C-20-2.bmp\",\"va:sha:va\",\"Up\",\"38\",\"6\",\"4\",\"6B\",\"C1\",\"J\",\"84\"
\"\",\"\",\"approach-retreat\",\"88\",\"802808\",\"0.0-88.0\",\"\",\"\",\"2-5\",\"4206\",\"39\",\"1\",\"Training\",\"Stims/Figures/144-J-10-3.bmp\",\"saha:za\",\"Left\",\"39\",\"6\",\"5\",\"6B\",\"C2\",\"J\",\"85\"
\"\",\"\",\"approach-retreat\",\"89\",\"808524\",\"0.0-89.0\",\"\",\"\",\"2-5\",\"4210\",\"40\",\"0\",\"Training\",\"Stims/Figures/57-J-0-1.bmp\",\"za:haha\",\"Down\",\"38\",\"6\",\"6\",\"6B\",\"C2\",\"J\",\"86\"
\"\",\"\",\"approach-retreat\",\"90\",\"814132\",\"0.0-90.0\",\"\",\"\",\"2-5\",\"4102\",\"38\",\"1\",\"Training\",\"Stims/Figures/71-J-0-1.bmp\",\"sa:haza\",\"Down\",\"38\",\"6\",\"7\",\"6B\",\"C2\",\"J\",\"87\"
\"\",\"\",\"approach-retreat\",\"91\",\"819642\",\"0.0-91.0\",\"\",\"\",\"2-5\",\"3992\",\"38\",\"0\",\"Training\",\"Stims/Figures/57-C-30-1.bmp\",\"vafa:va\",\"Down\",\"40\",\"6\",\"8\",\"6B\",\"C1\",\"J\",\"88\"
\"\",\"\",\"approach-retreat\",\"92\",\"825622\",\"0.0-92.0\",\"\",\"\",\"2-5\",\"4462\",\"37\",\"0\",\"Training\",\"Stims/Figures/84-J-0-2.bmp\",\"sa:sa:za\",\"Left\",\"39\",\"6\",\"9\",\"6B\",\"C2\",\"J\",\"89\"
\"\",\"\",\"approach-retreat\",\"93\",\"831432\",\"0.0-93.0\",\"\",\"\",\"2-5\",\"4294\",\"40\",\"0\",\"Training\",\"Stims/Figures/84-C-20-2.bmp\",\"vasha:sha\",\"Up\",\"38\",\"6\",\"10\",\"6B\",\"C1\",\"J\",\"90\"
\"\",\"\",\"approach-retreat\",\"94\",\"837392\",\"0.0-94.0\",\"\",\"\",\"2-5\",\"4454\",\"38\",\"1\",\"Training\",\"Stims/Figures/44-C-30-3.bmp\",\"fafava\",\"Up\",\"38\",\"6\",\"11\",\"6B\",\"C1\",\"J\",\"91\"
\"\",\"\",\"approach-retreat\",\"95\",\"844574\",\"0.0-95.0\",\"\",\"\",\"2-5\",\"5678\",\"37\",\"1\",\"Training\",\"Stims/Figures/44-J-10-3.bmp\",\"sahaza\",\"Right\",\"37\",\"6\",\"12\",\"6B\",\"C2\",\"J\",\"92\"
\"\",\"\",\"approach-retreat\",\"96\",\"850328\",\"0.0-96.0\",\"\",\"\",\"2-5\",\"4232\",\"39\",\"0\",\"Training\",\"Stims/Figures/144-C-30-3.bmp\",\"fashasha\",\"Left\",\"37\",\"6\",\"13\",\"6B\",\"C1\",\"J\",\"93\"
\"\",\"\",\"approach-retreat\",\"97\",\"856192\",\"0.0-97.0\",\"\",\"\",\"2-5\",\"4348\",\"37\",\"0\",\"Training\",\"Stims/Figures/118-J-0-2.bmp\",\"zaha:ha\",\"Left\",\"39\",\"6\",\"14\",\"6B\",\"C2\",\"J\",\"94\"
\"\",\"\",\"approach-retreat\",\"98\",\"861898\",\"0.0-98.0\",\"\",\"\",\"2-5\",\"4198\",\"37\",\"1\",\"Training\",\"Stims/Figures/7-J-10-4.bmp\",\"za:saza\",\"Right\",\"37\",\"6\",\"15\",\"6B\",\"C2\",\"J\",\"95\"
\"\",\"\",\"approach-retreat\",\"99\",\"868834\",\"0.0-99.0\",\"\",\"\",\"2-5\",\"5430\",\"39\",\"1\",\"Training\",\"Stims/Figures/7-C-20-4.bmp\",\"vasha:va\",\"Right\",\"39\",\"6\",\"16\",\"6B\",\"C1\",\"J\",\"96\"
\"\",\"\",\"approach-retreat\",\"100\",\"875228\",\"0.0-100.0\",\"\",\"\",\"2-5\",\"4888\",\"39\",\"1\",\"Training\",\"Stims/Figures/7-C-20-4.bmp\",\"vasha:va\",\"Right\",\"39\",\"7\",\"1\",\"6B\",\"C1\",\"J\",\"97\"
\"\",\"\",\"approach-retreat\",\"101\",\"882146\",\"0.0-101.0\",\"\",\"\",\"2-5\",\"5412\",\"40\",\"1\",\"Training\",\"Stims/Figures/118-J-0-2.bmp\",\"zaha:ha\",\"Up\",\"40\",\"7\",\"2\",\"6B\",\"C2\",\"J\",\"98\"
\"\",\"\",\"approach-retreat\",\"102\",\"888042\",\"0.0-102.0\",\"\",\"\",\"2-5\",\"4388\",\"40\",\"1\",\"Training\",\"Stims/Figures/7-J-10-4.bmp\",\"za:saza\",\"Up\",\"40\",\"7\",\"3\",\"6B\",\"C2\",\"J\",\"99\"
\"\",\"\",\"approach-retreat\",\"103\",\"894806\",\"0.0-103.0\",\"\",\"\",\"2-5\",\"5244\",\"37\",\"0\",\"Training\",\"Stims/Figures/57-C-30-1.bmp\",\"vafa:va\",\"Right\",\"39\",\"7\",\"4\",\"6B\",\"C1\",\"J\",\"100\"
\"\",\"\",\"approach-retreat\",\"104\",\"901018\",\"0.0-104.0\",\"\",\"\",\"2-5\",\"4692\",\"38\",\"0\",\"Training\",\"Stims/Figures/84-J-0-2.bmp\",\"sa:sa:za\",\"Up\",\"40\",\"7\",\"5\",\"6B\",\"C2\",\"J\",\"101\"
\"\",\"\",\"approach-retreat\",\"105\",\"906828\",\"0.0-105.0\",\"\",\"\",\"2-5\",\"4300\",\"37\",\"1\",\"Training\",\"Stims/Figures/71-C-30-1.bmp\",\"va:fasha\",\"Left\",\"37\",\"7\",\"6\",\"6B\",\"C1\",\"J\",\"102\"
\"\",\"\",\"approach-retreat\",\"106\",\"912606\",\"0.0-106.0\",\"\",\"\",\"2-5\",\"4274\",\"39\",\"1\",\"Training\",\"Stims/Figures/144-J-10-3.bmp\",\"saha:za\",\"Left\",\"39\",\"7\",\"7\",\"6B\",\"C2\",\"J\",\"103\"
\"\",\"\",\"approach-retreat\",\"107\",\"918084\",\"0.0-107.0\",\"\",\"\",\"2-5\",\"3970\",\"40\",\"1\",\"Training\",\"Stims/Figures/57-J-0-1.bmp\",\"za:haha\",\"Up\",\"40\",\"7\",\"8\",\"6B\",\"C2\",\"J\",\"104\"
\"\",\"\",\"approach-retreat\",\"108\",\"923808\",\"0.0-108.0\",\"\",\"\",\"2-5\",\"4218\",\"37\",\"1\",\"Training\",\"Stims/Figures/118-C-20-2.bmp\",\"va:sha:va\",\"Left\",\"37\",\"7\",\"9\",\"6B\",\"C1\",\"J\",\"105\"
\"\",\"\",\"approach-retreat\",\"109\",\"929576\",\"0.0-109.0\",\"\",\"\",\"2-5\",\"4264\",\"38\",\"1\",\"Training\",\"Stims/Figures/44-J-10-3.bmp\",\"sahaza\",\"Down\",\"38\",\"7\",\"10\",\"6B\",\"C2\",\"J\",\"106\"
\"\",\"\",\"approach-retreat\",\"110\",\"937010\",\"0.0-110.0\",\"\",\"\",\"2-5\",\"5930\",\"39\",\"1\",\"Training\",\"Stims/Figures/144-C-30-3.bmp\",\"fashasha\",\"Right\",\"39\",\"7\",\"11\",\"6B\",\"C1\",\"J\",\"107\"
\"\",\"\",\"approach-retreat\",\"111\",\"944250\",\"0.0-111.0\",\"\",\"\",\"2-5\",\"5736\",\"40\",\"1\",\"Training\",\"Stims/Figures/84-C-20-2.bmp\",\"vasha:sha\",\"Down\",\"40\",\"7\",\"12\",\"6B\",\"C1\",\"J\",\"108\"
\"\",\"\",\"approach-retreat\",\"112\",\"950428\",\"0.0-112.0\",\"\",\"\",\"2-5\",\"4672\",\"37\",\"1\",\"Training\",\"Stims/Figures/44-C-30-3.bmp\",\"fafava\",\"Left\",\"37\",\"7\",\"13\",\"6B\",\"C1\",\"J\",\"109\"
\"\",\"\",\"approach-retreat\",\"113\",\"956134\",\"0.0-113.0\",\"\",\"\",\"2-5\",\"4198\",\"38\",\"1\",\"Training\",\"Stims/Figures/87-J-10-4.bmp\",\"sa:saha\",\"Down\",\"38\",\"7\",\"14\",\"6B\",\"C2\",\"J\",\"110\"
\"\",\"\",\"approach-retreat\",\"114\",\"962104\",\"0.0-114.0\",\"\",\"\",\"2-5\",\"4466\",\"39\",\"1\",\"Training\",\"Stims/Figures/87-C-20-4.bmp\",\"va:shasha\",\"Right\",\"39\",\"7\",\"15\",\"6B\",\"C1\",\"J\",\"111\"
\"\",\"\",\"approach-retreat\",\"115\",\"969420\",\"0.0-115.0\",\"\",\"\",\"2-5\",\"5808\",\"38\",\"1\",\"Training\",\"Stims/Figures/71-J-0-1.bmp\",\"sa:haza\",\"Down\",\"38\",\"7\",\"16\",\"6B\",\"C2\",\"J\",\"112\"
\"\",\"\",\"approach-retreat\",\"116\",\"976044\",\"0.0-116.0\",\"\",\"\",\"2-5\",\"5118\",\"40\",\"1\",\"Training\",\"Stims/Figures/71-J-0-1.bmp\",\"sa:haza\",\"Up\",\"40\",\"8\",\"1\",\"6B\",\"C2\",\"J\",\"113\"
\"\",\"\",\"approach-retreat\",\"117\",\"982008\",\"0.0-117.0\",\"\",\"\",\"2-5\",\"4460\",\"39\",\"1\",\"Training\",\"Stims/Figures/7-C-20-4.bmp\",\"vasha:va\",\"Right\",\"39\",\"8\",\"2\",\"6B\",\"C1\",\"J\",\"114\"
\"\",\"\",\"approach-retreat\",\"118\",\"988782\",\"0.0-118.0\",\"\",\"\",\"2-5\",\"5266\",\"38\",\"1\",\"Training\",\"Stims/Figures/118-C-20-2.bmp\",\"va:sha:va\",\"Up\",\"38\",\"8\",\"3\",\"6B\",\"C1\",\"J\",\"115\"
\"\",\"\",\"approach-retreat\",\"119\",\"994612\",\"0.0-119.0\",\"\",\"\",\"2-5\",\"4326\",\"40\",\"1\",\"Training\",\"Stims/Figures/84-J-0-2.bmp\",\"sa:sa:za\",\"Up\",\"40\",\"8\",\"4\",\"6B\",\"C2\",\"J\",\"116\"
\"\",\"\",\"approach-retreat\",\"120\",\"1001486\",\"0.0-120.0\",\"\",\"\",\"2-5\",\"5368\",\"37\",\"1\",\"Training\",\"Stims/Figures/118-J-0-2.bmp\",\"zaha:ha\",\"Right\",\"37\",\"8\",\"5\",\"6B\",\"C2\",\"J\",\"117\"
\"\",\"\",\"approach-retreat\",\"121\",\"1007336\",\"0.0-121.0\",\"\",\"\",\"2-5\",\"4344\",\"37\",\"1\",\"Training\",\"Stims/Figures/44-C-30-3.bmp\",\"fafava\",\"Left\",\"37\",\"8\",\"6\",\"6B\",\"C1\",\"J\",\"118\"
\"\",\"\",\"approach-retreat\",\"122\",\"1013032\",\"0.0-122.0\",\"\",\"\",\"2-5\",\"4190\",\"38\",\"1\",\"Training\",\"Stims/Figures/144-J-10-3.bmp\",\"saha:za\",\"Down\",\"38\",\"8\",\"7\",\"6B\",\"C2\",\"J\",\"119\"
\"\",\"\",\"approach-retreat\",\"123\",\"1018448\",\"0.0-123.0\",\"\",\"\",\"2-5\",\"3914\",\"38\",\"1\",\"Training\",\"Stims/Figures/57-J-0-1.bmp\",\"za:haha\",\"Down\",\"38\",\"8\",\"8\",\"6B\",\"C2\",\"J\",\"120\"
\"\",\"\",\"approach-retreat\",\"124\",\"1024322\",\"0.0-124.0\",\"\",\"\",\"2-5\",\"4370\",\"37\",\"1\",\"Training\",\"Stims/Figures/44-J-10-3.bmp\",\"sahaza\",\"Right\",\"37\",\"8\",\"9\",\"6B\",\"C2\",\"J\",\"121\"
\"\",\"\",\"approach-retreat\",\"125\",\"1030180\",\"0.0-125.0\",\"\",\"\",\"2-5\",\"4356\",\"39\",\"1\",\"Training\",\"Stims/Figures/7-J-10-4.bmp\",\"za:saza\",\"Left\",\"39\",\"8\",\"10\",\"6B\",\"C2\",\"J\",\"122\"
\"\",\"\",\"approach-retreat\",\"126\",\"1036704\",\"0.0-126.0\",\"\",\"\",\"2-5\",\"5020\",\"38\",\"1\",\"Training\",\"Stims/Figures/57-C-30-1.bmp\",\"vafa:va\",\"Up\",\"38\",\"8\",\"11\",\"6B\",\"C1\",\"J\",\"123\"
\"\",\"\",\"approach-retreat\",\"127\",\"1043120\",\"0.0-127.0\",\"\",\"\",\"2-5\",\"4914\",\"40\",\"1\",\"Training\",\"Stims/Figures/71-C-30-1.bmp\",\"va:fasha\",\"Down\",\"40\",\"8\",\"12\",\"6B\",\"C1\",\"J\",\"124\"
\"\",\"\",\"approach-retreat\",\"128\",\"1049094\",\"0.0-128.0\",\"\",\"\",\"2-5\",\"4468\",\"37\",\"1\",\"Training\",\"Stims/Figures/144-C-30-3.bmp\",\"fashasha\",\"Left\",\"37\",\"8\",\"13\",\"6B\",\"C1\",\"J\",\"125\"
\"\",\"\",\"approach-retreat\",\"129\",\"1055288\",\"0.0-129.0\",\"\",\"\",\"2-5\",\"4690\",\"40\",\"1\",\"Training\",\"Stims/Figures/87-C-20-4.bmp\",\"va:shasha\",\"Down\",\"40\",\"8\",\"14\",\"6B\",\"C1\",\"J\",\"126\"
\"\",\"\",\"approach-retreat\",\"130\",\"1061656\",\"0.0-130.0\",\"\",\"\",\"2-5\",\"4862\",\"37\",\"1\",\"Training\",\"Stims/Figures/87-J-10-4.bmp\",\"sa:saha\",\"Right\",\"37\",\"8\",\"15\",\"6B\",\"C2\",\"J\",\"127\"
\"\",\"\",\"approach-retreat\",\"131\",\"1067394\",\"0.0-131.0\",\"\",\"\",\"2-5\",\"4230\",\"37\",\"1\",\"Training\",\"Stims/Figures/84-C-20-2.bmp\",\"vasha:sha\",\"Left\",\"37\",\"8\",\"16\",\"6B\",\"C1\",\"J\",\"128\"
\"\",\"\",\"approach-retreat\",\"132\",\"1074012\",\"0.0-132.0\",\"\",\"\",\"2-5\",\"5112\",\"40\",\"1\",\"Training\",\"Stims/Figures/71-J-0-1.bmp\",\"sa:haza\",\"Up\",\"40\",\"9\",\"1\",\"6B\",\"C2\",\"J\",\"129\"
\"\",\"\",\"approach-retreat\",\"133\",\"1081196\",\"0.0-133.0\",\"\",\"\",\"2-5\",\"5680\",\"37\",\"0\",\"Training\",\"Stims/Figures/7-J-10-4.bmp\",\"za:saza\",\"Left\",\"39\",\"9\",\"2\",\"6B\",\"C2\",\"J\",\"130\"
\"\",\"\",\"approach-retreat\",\"134\",\"1087490\",\"0.0-134.0\",\"\",\"\",\"2-5\",\"4790\",\"39\",\"1\",\"Training\",\"Stims/Figures/144-J-10-3.bmp\",\"saha:za\",\"Left\",\"39\",\"9\",\"3\",\"6B\",\"C2\",\"J\",\"131\"
\"\",\"\",\"approach-retreat\",\"135\",\"1093350\",\"0.0-135.0\",\"\",\"\",\"2-5\",\"4356\",\"38\",\"1\",\"Training\",\"Stims/Figures/87-J-10-4.bmp\",\"sa:saha\",\"Down\",\"38\",\"9\",\"4\",\"6B\",\"C2\",\"J\",\"132\"
\"\",\"\",\"approach-retreat\",\"136\",\"1100486\",\"0.0-136.0\",\"\",\"\",\"2-5\",\"5630\",\"37\",\"1\",\"Training\",\"Stims/Figures/71-C-30-1.bmp\",\"va:fasha\",\"Left\",\"37\",\"9\",\"5\",\"6B\",\"C1\",\"J\",\"133\"
\"\",\"\",\"approach-retreat\",\"137\",\"1106612\",\"0.0-137.0\",\"\",\"\",\"2-5\",\"4620\",\"39\",\"0\",\"Training\",\"Stims/Figures/118-J-0-2.bmp\",\"zaha:ha\",\"Right\",\"37\",\"9\",\"6\",\"6B\",\"C2\",\"J\",\"134\"
\"\",\"\",\"approach-retreat\",\"138\",\"1114046\",\"0.0-138.0\",\"\",\"\",\"2-5\",\"5930\",\"39\",\"1\",\"Training\",\"Stims/Figures/87-C-20-4.bmp\",\"va:shasha\",\"Right\",\"39\",\"9\",\"7\",\"6B\",\"C1\",\"J\",\"135\"
\"\",\"\",\"approach-retreat\",\"139\",\"1120404\",\"0.0-139.0\",\"\",\"\",\"2-5\",\"4850\",\"40\",\"0\",\"Training\",\"Stims/Figures/84-C-20-2.bmp\",\"vasha:sha\",\"Up\",\"38\",\"9\",\"8\",\"6B\",\"C1\",\"J\",\"136\"
\"\",\"\",\"approach-retreat\",\"140\",\"1126196\",\"0.0-140.0\",\"\",\"\",\"2-5\",\"4290\",\"37\",\"1\",\"Training\",\"Stims/Figures/57-C-30-1.bmp\",\"vafa:va\",\"Left\",\"37\",\"9\",\"9\",\"6B\",\"C1\",\"J\",\"137\"
\"\",\"\",\"approach-retreat\",\"141\",\"1132822\",\"0.0-141.0\",\"\",\"\",\"2-5\",\"5112\",\"40\",\"0\",\"Training\",\"Stims/Figures/7-C-20-4.bmp\",\"vasha:va\",\"Up\",\"38\",\"9\",\"10\",\"6B\",\"C1\",\"J\",\"138\"
\"\",\"\",\"approach-retreat\",\"142\",\"1138998\",\"0.0-142.0\",\"\",\"\",\"2-5\",\"4672\",\"37\",\"1\",\"Training\",\"Stims/Figures/44-J-10-3.bmp\",\"sahaza\",\"Right\",\"37\",\"9\",\"11\",\"6B\",\"C2\",\"J\",\"139\"
\"\",\"\",\"approach-retreat\",\"143\",\"1145116\",\"0.0-143.0\",\"\",\"\",\"2-5\",\"4602\",\"38\",\"0\",\"Training\",\"Stims/Figures/57-J-0-1.bmp\",\"za:haha\",\"Up\",\"40\",\"9\",\"12\",\"6B\",\"C2\",\"J\",\"140\"
\"\",\"\",\"approach-retreat\",\"144\",\"1152484\",\"0.0-144.0\",\"\",\"\",\"2-5\",\"5864\",\"40\",\"1\",\"Training\",\"Stims/Figures/44-C-30-3.bmp\",\"fafava\",\"Down\",\"40\",\"9\",\"13\",\"6B\",\"C1\",\"J\",\"141\"
\"\",\"\",\"approach-retreat\",\"145\",\"1160762\",\"0.0-145.0\",\"\",\"\",\"2-5\",\"6776\",\"40\",\"1\",\"Training\",\"Stims/Figures/144-C-30-3.bmp\",\"fashasha\",\"Down\",\"40\",\"9\",\"14\",\"6B\",\"C1\",\"J\",\"142\"
\"\",\"\",\"approach-retreat\",\"146\",\"1168858\",\"0.0-146.0\",\"\",\"\",\"2-5\",\"6590\",\"39\",\"1\",\"Training\",\"Stims/Figures/118-C-20-2.bmp\",\"va:sha:va\",\"Right\",\"39\",\"9\",\"15\",\"6B\",\"C1\",\"J\",\"143\"
\"\",\"\",\"approach-retreat\",\"147\",\"1175380\",\"0.0-147.0\",\"\",\"\",\"2-5\",\"5016\",\"38\",\"1\",\"Training\",\"Stims/Figures/84-J-0-2.bmp\",\"sa:sa:za\",\"Down\",\"38\",\"9\",\"16\",\"6B\",\"C2\",\"J\",\"144\"
\"30234\",\"\",\"instructions\",\"148\",\"1205614\",\"0.0-148.0\",\"[{\"\"page_index\"\":0,\"\"viewing_time\"\":30234}]\",\"\",\"\",\"\",\"\",\"\",\"\",\"\",\"\",\"\",\"\",\"\",\"\",\"\",\"\",\"\",\"\"
\"\",\"\",\"approach-retreat\",\"149\",\"1214528\",\"0.0-149.0\",\"\",\"\",\"2-5\",\"7408\",\"39\",\"1\",\"Testing\",\"Stims/Figures/7-C-20-4.bmp\",\"vasha:va\",\"Right\",\"39\",\"1\",\"1\",\"6B\",\"C1\",\"J\",\"1\"
\"\",\"\",\"approach-retreat\",\"150\",\"1220450\",\"0.0-150.0\",\"\",\"\",\"2-5\",\"4404\",\"38\",\"0\",\"Testing\",\"Stims/Figures/84-J-0-2.bmp\",\"sa:sa:za\",\"Up\",\"40\",\"1\",\"2\",\"6B\",\"C2\",\"J\",\"2\"
\"\",\"\",\"approach-retreat\",\"151\",\"1227784\",\"0.0-151.0\",\"\",\"\",\"2-5\",\"5818\",\"37\",\"0\",\"Testing\",\"Stims/Figures/27-C-30-1.bmp\",\"fafa:va\",\"Right\",\"39\",\"1\",\"3\",\"6B\",\"C1\",\"J\",\"3\"
\"\",\"\",\"approach-retreat\",\"152\",\"1237458\",\"0.0-152.0\",\"\",\"\",\"2-5\",\"8156\",\"38\",\"1\",\"Testing\",\"Stims/Figures/144-C-30-3.bmp\",\"fashasha\",\"Up\",\"38\",\"1\",\"4\",\"6B\",\"C1\",\"J\",\"4\"
\"\",\"\",\"approach-retreat\",\"153\",\"1243490\",\"0.0-153.0\",\"\",\"\",\"2-5\",\"4516\",\"40\",\"1\",\"Testing\",\"Stims/Figures/118-J-0-2.bmp\",\"zaha:ha\",\"Up\",\"40\",\"1\",\"5\",\"6B\",\"C2\",\"J\",\"5\"
\"\",\"\",\"approach-retreat\",\"154\",\"1249690\",\"0.0-154.0\",\"\",\"\",\"2-5\",\"4692\",\"37\",\"1\",\"Testing\",\"Stims/Figures/74-J-10-4.bmp\",\"za:saha\",\"Right\",\"37\",\"1\",\"6\",\"6B\",\"C2\",\"J\",\"6\"
\"\",\"\",\"approach-retreat\",\"155\",\"1255832\",\"0.0-155.0\",\"\",\"\",\"2-5\",\"4636\",\"37\",\"1\",\"Testing\",\"Stims/Figures/71-C-30-1.bmp\",\"va:fasha\",\"Left\",\"37\",\"1\",\"7\",\"6B\",\"C1\",\"J\",\"7\"
\"\",\"\",\"approach-retreat\",\"156\",\"1262388\",\"0.0-156.0\",\"\",\"\",\"2-5\",\"5038\",\"39\",\"0\",\"Testing\",\"Stims/Figures/7-J-10-4.bmp\",\"za:saza\",\"Right\",\"37\",\"1\",\"8\",\"6B\",\"C2\",\"J\",\"8\"
\"\",\"\",\"approach-retreat\",\"157\",\"1268430\",\"0.0-157.0\",\"\",\"\",\"2-5\",\"4528\",\"37\",\"0\",\"Testing\",\"Stims/Figures/44-J-10-3.bmp\",\"sahaza\",\"Left\",\"39\",\"1\",\"9\",\"6B\",\"C2\",\"J\",\"9\"
\"\",\"\",\"approach-retreat\",\"158\",\"1277746\",\"0.0-158.0\",\"\",\"\",\"2-5\",\"7792\",\"40\",\"1\",\"Testing\",\"Stims/Figures/44-C-30-3.bmp\",\"fafava\",\"Down\",\"40\",\"1\",\"10\",\"6B\",\"C1\",\"J\",\"10\"
\"\",\"\",\"approach-retreat\",\"159\",\"1284160\",\"0.0-159.0\",\"\",\"\",\"2-5\",\"4904\",\"40\",\"1\",\"Testing\",\"Stims/Figures/87-J-10-4.bmp\",\"sa:saha\",\"Up\",\"40\",\"1\",\"11\",\"6B\",\"C2\",\"J\",\"11\"
\"\",\"\",\"approach-retreat\",\"160\",\"1289912\",\"0.0-160.0\",\"\",\"\",\"2-5\",\"4240\",\"38\",\"1\",\"Testing\",\"Stims/Figures/118-C-20-2.bmp\",\"va:sha:va\",\"Up\",\"38\",\"1\",\"12\",\"6B\",\"C1\",\"J\",\"12\"
\"\",\"\",\"approach-retreat\",\"161\",\"1295876\",\"0.0-161.0\",\"\",\"\",\"2-5\",\"4448\",\"37\",\"0\",\"Testing\",\"Stims/Figures/27-J-0-1.bmp\",\"za:ha:ha\",\"Left\",\"39\",\"1\",\"13\",\"6B\",\"C2\",\"J\",\"13\"
\"\",\"\",\"approach-retreat\",\"162\",\"1301544\",\"0.0-162.0\",\"\",\"\",\"2-5\",\"4162\",\"40\",\"1\",\"Testing\",\"Stims/Figures/84-C-20-2.bmp\",\"vasha:sha\",\"Down\",\"40\",\"1\",\"14\",\"6B\",\"C1\",\"J\",\"14\"
\"\",\"\",\"approach-retreat\",\"163\",\"1308098\",\"0.0-163.0\",\"\",\"\",\"2-5\",\"5036\",\"40\",\"0\",\"Testing\",\"Stims/Figures/74-C-20-4.bmp\",\"fashava\",\"Up\",\"38\",\"1\",\"15\",\"6B\",\"C1\",\"J\",\"15\"
\"\",\"\",\"approach-retreat\",\"164\",\"1314172\",\"0.0-164.0\",\"\",\"\",\"2-5\",\"4554\",\"37\",\"0\",\"Testing\",\"Stims/Figures/57-J-0-1.bmp\",\"za:haha\",\"Left\",\"39\",\"1\",\"16\",\"6B\",\"C2\",\"J\",\"16\"
\"\",\"\",\"approach-retreat\",\"165\",\"1321270\",\"0.0-165.0\",\"\",\"\",\"2-5\",\"5582\",\"37\",\"0\",\"Testing\",\"Stims/Figures/87-C-20-4.bmp\",\"va:shasha\",\"Right\",\"39\",\"1\",\"17\",\"6B\",\"C1\",\"J\",\"17\"
\"\",\"\",\"approach-retreat\",\"166\",\"1327150\",\"0.0-166.0\",\"\",\"\",\"2-5\",\"4370\",\"39\",\"0\",\"Testing\",\"Stims/Figures/71-J-0-1.bmp\",\"sa:haza\",\"Right\",\"37\",\"1\",\"18\",\"6B\",\"C2\",\"J\",\"18\"
\"\",\"\",\"approach-retreat\",\"167\",\"1334344\",\"0.0-167.0\",\"\",\"\",\"2-5\",\"5686\",\"37\",\"0\",\"Testing\",\"Stims/Figures/111-J-10-3.bmp\",\"sa:saza\",\"Left\",\"39\",\"1\",\"19\",\"6B\",\"C2\",\"J\",\"19\"
\"\",\"\",\"approach-retreat\",\"168\",\"1342596\",\"0.0-168.0\",\"\",\"\",\"2-5\",\"6740\",\"40\",\"0\",\"Testing\",\"Stims/Figures/85-J-0-2.bmp\",\"saha:ha\",\"Down\",\"38\",\"1\",\"20\",\"6B\",\"C2\",\"J\",\"20\"
\"\",\"\",\"approach-retreat\",\"169\",\"1348934\",\"0.0-169.0\",\"\",\"\",\"2-5\",\"4832\",\"39\",\"0\",\"Testing\",\"Stims/Figures/57-C-30-1.bmp\",\"vafa:va\",\"Left\",\"37\",\"1\",\"21\",\"6B\",\"C1\",\"J\",\"21\"
\"\",\"\",\"approach-retreat\",\"170\",\"1357462\",\"0.0-170.0\",\"\",\"\",\"2-5\",\"7010\",\"40\",\"1\",\"Testing\",\"Stims/Figures/111-C-30-3.bmp\",\"vashasha\",\"Down\",\"40\",\"1\",\"22\",\"6B\",\"C1\",\"J\",\"22\"
\"\",\"\",\"approach-retreat\",\"171\",\"1363048\",\"0.0-171.0\",\"\",\"\",\"2-5\",\"4072\",\"40\",\"0\",\"Testing\",\"Stims/Figures/144-J-10-3.bmp\",\"saha:za\",\"Down\",\"38\",\"1\",\"23\",\"6B\",\"C2\",\"J\",\"23\"
\"\",\"\",\"approach-retreat\",\"172\",\"1370522\",\"0.0-172.0\",\"\",\"\",\"2-5\",\"5952\",\"40\",\"1\",\"Testing\",\"Stims/Figures/85-C-20-2.bmp\",\"va:fa:sha\",\"Down\",\"40\",\"1\",\"24\",\"6B\",\"C1\",\"J\",\"24\"
\"\",\"\",\"approach-retreat\",\"173\",\"1376982\",\"0.0-173.0\",\"\",\"\",\"2-5\",\"4950\",\"40\",\"0\",\"Testing\",\"Stims/Figures/44-J-10-3.bmp\",\"sahaza\",\"Down\",\"38\",\"2\",\"1\",\"6B\",\"C2\",\"J\",\"25\"
\"\",\"\",\"approach-retreat\",\"174\",\"1384064\",\"0.0-174.0\",\"\",\"\",\"2-5\",\"5566\",\"39\",\"0\",\"Testing\",\"Stims/Figures/27-J-0-1.bmp\",\"za:ha:ha\",\"Right\",\"37\",\"2\",\"2\",\"6B\",\"C2\",\"J\",\"26\"
\"\",\"\",\"approach-retreat\",\"175\",\"1389936\",\"0.0-175.0\",\"\",\"\",\"2-5\",\"4368\",\"38\",\"0\",\"Testing\",\"Stims/Figures/118-J-0-2.bmp\",\"zaha:ha\",\"Up\",\"40\",\"2\",\"3\",\"6B\",\"C2\",\"J\",\"27\"
\"\",\"\",\"approach-retreat\",\"176\",\"1396328\",\"0.0-176.0\",\"\",\"\",\"2-5\",\"4874\",\"38\",\"0\",\"Testing\",\"Stims/Figures/118-C-20-2.bmp\",\"va:sha:va\",\"Down\",\"40\",\"2\",\"4\",\"6B\",\"C1\",\"J\",\"28\"
\"\",\"\",\"approach-retreat\",\"177\",\"1403382\",\"0.0-177.0\",\"\",\"\",\"2-5\",\"5546\",\"39\",\"0\",\"Testing\",\"Stims/Figures/57-J-0-1.bmp\",\"za:haha\",\"Right\",\"37\",\"2\",\"5\",\"6B\",\"C2\",\"J\",\"29\"
\"\",\"\",\"approach-retreat\",\"178\",\"1409158\",\"0.0-178.0\",\"\",\"\",\"2-5\",\"4268\",\"37\",\"0\",\"Testing\",\"Stims/Figures/27-C-30-1.bmp\",\"fafa:va\",\"Right\",\"39\",\"2\",\"6\",\"6B\",\"C1\",\"J\",\"30\"
\"\",\"\",\"approach-retreat\",\"179\",\"1419486\",\"0.0-179.0\",\"\",\"\",\"2-5\",\"8808\",\"38\",\"0\",\"Testing\",\"Stims/Figures/7-C-20-4.bmp\",\"vasha:va\",\"Down\",\"40\",\"2\",\"7\",\"6B\",\"C1\",\"J\",\"31\"
\"\",\"\",\"approach-retreat\",\"180\",\"1425152\",\"0.0-180.0\",\"\",\"\",\"2-5\",\"4148\",\"39\",\"0\",\"Testing\",\"Stims/Figures/144-C-30-3.bmp\",\"fashasha\",\"Left\",\"37\",\"2\",\"8\",\"6B\",\"C1\",\"J\",\"32\"
\"\",\"\",\"approach-retreat\",\"181\",\"1434672\",\"0.0-181.0\",\"\",\"\",\"2-5\",\"8000\",\"39\",\"0\",\"Testing\",\"Stims/Figures/85-C-20-2.bmp\",\"va:fa:sha\",\"Left\",\"37\",\"2\",\"9\",\"6B\",\"C1\",\"J\",\"33\"
\"\",\"\",\"approach-retreat\",\"182\",\"1440698\",\"0.0-182.0\",\"\",\"\",\"2-5\",\"4510\",\"38\",\"0\",\"Testing\",\"Stims/Figures/71-J-0-1.bmp\",\"sa:haza\",\"Up\",\"40\",\"2\",\"10\",\"6B\",\"C2\",\"J\",\"34\"
\"\",\"\",\"approach-retreat\",\"183\",\"1450690\",\"0.0-183.0\",\"\",\"\",\"2-5\",\"8482\",\"39\",\"0\",\"Testing\",\"Stims/Figures/111-J-10-3.bmp\",\"sa:saza\",\"Right\",\"37\",\"2\",\"11\",\"6B\",\"C2\",\"J\",\"35\"
\"\",\"\",\"approach-retreat\",\"184\",\"1456612\",\"0.0-184.0\",\"\",\"\",\"2-5\",\"4412\",\"38\",\"1\",\"Testing\",\"Stims/Figures/87-J-10-4.bmp\",\"sa:saha\",\"Down\",\"38\",\"2\",\"12\",\"6B\",\"C2\",\"J\",\"36\"
\"\",\"\",\"approach-retreat\",\"185\",\"1462632\",\"0.0-185.0\",\"\",\"\",\"2-5\",\"4510\",\"38\",\"0\",\"Testing\",\"Stims/Figures/44-C-30-3.bmp\",\"fafava\",\"Down\",\"40\",\"2\",\"13\",\"6B\",\"C1\",\"J\",\"37\"
\"\",\"\",\"approach-retreat\",\"186\",\"1468398\",\"0.0-186.0\",\"\",\"\",\"2-5\",\"4256\",\"39\",\"0\",\"Testing\",\"Stims/Figures/71-C-30-1.bmp\",\"va:fasha\",\"Left\",\"37\",\"2\",\"14\",\"6B\",\"C1\",\"J\",\"38\"
\"\",\"\",\"approach-retreat\",\"187\",\"1476226\",\"0.0-187.0\",\"\",\"\",\"2-5\",\"6314\",\"38\",\"0\",\"Testing\",\"Stims/Figures/7-J-10-4.bmp\",\"za:saza\",\"Up\",\"40\",\"2\",\"15\",\"6B\",\"C2\",\"J\",\"39\"
\"\",\"\",\"approach-retreat\",\"188\",\"1487508\",\"0.0-188.0\",\"\",\"\",\"2-5\",\"9770\",\"40\",\"0\",\"Testing\",\"Stims/Figures/87-C-20-4.bmp\",\"va:shasha\",\"Up\",\"38\",\"2\",\"16\",\"6B\",\"C1\",\"J\",\"40\"
\"\",\"\",\"approach-retreat\",\"189\",\"1497512\",\"0.0-189.0\",\"\",\"\",\"2-5\",\"8486\",\"39\",\"0\",\"Testing\",\"Stims/Figures/144-J-10-3.bmp\",\"saha:za\",\"Right\",\"37\",\"2\",\"17\",\"6B\",\"C2\",\"J\",\"41\"
\"\",\"\",\"approach-retreat\",\"190\",\"1503756\",\"0.0-190.0\",\"\",\"\",\"2-5\",\"4728\",\"37\",\"0\",\"Testing\",\"Stims/Figures/85-J-0-2.bmp\",\"saha:ha\",\"Left\",\"39\",\"2\",\"18\",\"6B\",\"C2\",\"J\",\"42\"
\"\",\"\",\"approach-retreat\",\"191\",\"1509764\",\"0.0-191.0\",\"\",\"\",\"2-5\",\"4502\",\"37\",\"1\",\"Testing\",\"Stims/Figures/74-J-10-4.bmp\",\"za:saha\",\"Right\",\"37\",\"2\",\"19\",\"6B\",\"C2\",\"J\",\"43\"
\"\",\"\",\"approach-retreat\",\"192\",\"1515600\",\"0.0-192.0\",\"\",\"\",\"2-5\",\"4318\",\"37\",\"0\",\"Testing\",\"Stims/Figures/84-J-0-2.bmp\",\"sa:sa:za\",\"Left\",\"39\",\"2\",\"20\",\"6B\",\"C2\",\"J\",\"44\"
\"\",\"\",\"approach-retreat\",\"193\",\"1521594\",\"0.0-193.0\",\"\",\"\",\"2-5\",\"4476\",\"40\",\"0\",\"Testing\",\"Stims/Figures/111-C-30-3.bmp\",\"vashasha\",\"Up\",\"38\",\"2\",\"21\",\"6B\",\"C1\",\"J\",\"45\"
\"\",\"\",\"approach-retreat\",\"194\",\"1527874\",\"0.0-194.0\",\"\",\"\",\"2-5\",\"4768\",\"40\",\"0\",\"Testing\",\"Stims/Figures/74-C-20-4.bmp\",\"fashava\",\"Up\",\"38\",\"2\",\"22\",\"6B\",\"C1\",\"J\",\"46\"
\"\",\"\",\"approach-retreat\",\"195\",\"1533638\",\"0.0-195.0\",\"\",\"\",\"2-5\",\"4248\",\"39\",\"0\",\"Testing\",\"Stims/Figures/57-C-30-1.bmp\",\"vafa:va\",\"Left\",\"37\",\"2\",\"23\",\"6B\",\"C1\",\"J\",\"47\"
\"\",\"\",\"approach-retreat\",\"196\",\"1540698\",\"0.0-196.0\",\"\",\"\",\"2-5\",\"5552\",\"38\",\"0\",\"Testing\",\"Stims/Figures/84-C-20-2.bmp\",\"vasha:sha\",\"Down\",\"40\",\"2\",\"24\",\"6B\",\"C1\",\"J\",\"48\"
\"\",\"\",\"approach-retreat\",\"197\",\"1546644\",\"0.0-197.0\",\"\",\"\",\"2-5\",\"4434\",\"37\",\"0\",\"Testing\",\"Stims/Figures/144-J-10-3.bmp\",\"saha:za\",\"Left\",\"39\",\"3\",\"1\",\"6B\",\"C2\",\"J\",\"49\"
\"\",\"\",\"approach-retreat\",\"198\",\"1552480\",\"0.0-198.0\",\"\",\"\",\"2-5\",\"4322\",\"38\",\"0\",\"Testing\",\"Stims/Figures/84-J-0-2.bmp\",\"sa:sa:za\",\"Up\",\"40\",\"3\",\"2\",\"6B\",\"C2\",\"J\",\"50\"
\"\",\"\",\"approach-retreat\",\"199\",\"1559556\",\"0.0-199.0\",\"\",\"\",\"2-5\",\"5562\",\"38\",\"0\",\"Testing\",\"Stims/Figures/144-C-30-3.bmp\",\"fashasha\",\"Down\",\"40\",\"3\",\"3\",\"6B\",\"C1\",\"J\",\"51\"
\"\",\"\",\"approach-retreat\",\"200\",\"1565316\",\"0.0-200.0\",\"\",\"\",\"2-5\",\"4254\",\"37\",\"0\",\"Testing\",\"Stims/Figures/27-J-0-1.bmp\",\"za:ha:ha\",\"Left\",\"39\",\"3\",\"4\",\"6B\",\"C2\",\"J\",\"52\"
\"\",\"\",\"approach-retreat\",\"201\",\"1572210\",\"0.0-201.0\",\"\",\"\",\"2-5\",\"5374\",\"37\",\"0\",\"Testing\",\"Stims/Figures/111-C-30-3.bmp\",\"vashasha\",\"Right\",\"39\",\"3\",\"5\",\"6B\",\"C1\",\"J\",\"53\"
\"\",\"\",\"approach-retreat\",\"202\",\"1580720\",\"0.0-202.0\",\"\",\"\",\"2-5\",\"7004\",\"38\",\"1\",\"Testing\",\"Stims/Figures/87-J-10-4.bmp\",\"sa:saha\",\"Down\",\"38\",\"3\",\"6\",\"6B\",\"C2\",\"J\",\"54\"
\"\",\"\",\"approach-retreat\",\"203\",\"1586526\",\"0.0-203.0\",\"\",\"\",\"2-5\",\"4292\",\"37\",\"0\",\"Testing\",\"Stims/Figures/84-C-20-2.bmp\",\"vasha:sha\",\"Right\",\"39\",\"3\",\"7\",\"6B\",\"C1\",\"J\",\"55\"
\"\",\"\",\"approach-retreat\",\"204\",\"1592324\",\"0.0-204.0\",\"\",\"\",\"2-5\",\"4288\",\"37\",\"0\",\"Testing\",\"Stims/Figures/44-C-30-3.bmp\",\"fafava\",\"Right\",\"39\",\"3\",\"8\",\"6B\",\"C1\",\"J\",\"56\"
\"\",\"\",\"approach-retreat\",\"205\",\"1599018\",\"0.0-205.0\",\"\",\"\",\"2-5\",\"5186\",\"39\",\"0\",\"Testing\",\"Stims/Figures/85-C-20-2.bmp\",\"va:fa:sha\",\"Left\",\"37\",\"3\",\"9\",\"6B\",\"C1\",\"J\",\"57\"
\"\",\"\",\"approach-retreat\",\"206\",\"1604778\",\"0.0-206.0\",\"\",\"\",\"2-5\",\"4250\",\"38\",\"0\",\"Testing\",\"Stims/Figures/7-C-20-4.bmp\",\"vasha:va\",\"Down\",\"40\",\"3\",\"10\",\"6B\",\"C1\",\"J\",\"58\"
\"\",\"\",\"approach-retreat\",\"207\",\"1612020\",\"0.0-207.0\",\"\",\"\",\"2-5\",\"5734\",\"37\",\"0\",\"Testing\",\"Stims/Figures/118-C-20-2.bmp\",\"va:sha:va\",\"Right\",\"39\",\"3\",\"11\",\"6B\",\"C1\",\"J\",\"59\"
\"\",\"\",\"approach-retreat\",\"208\",\"1617920\",\"0.0-208.0\",\"\",\"\",\"2-5\",\"4386\",\"40\",\"0\",\"Testing\",\"Stims/Figures/57-C-30-1.bmp\",\"vafa:va\",\"Up\",\"38\",\"3\",\"12\",\"6B\",\"C1\",\"J\",\"60\"
\"\",\"\",\"approach-retreat\",\"209\",\"1623832\",\"0.0-209.0\",\"\",\"\",\"2-5\",\"4394\",\"40\",\"0\",\"Testing\",\"Stims/Figures/7-J-10-4.bmp\",\"za:saza\",\"Down\",\"38\",\"3\",\"13\",\"6B\",\"C2\",\"J\",\"61\"
\"\",\"\",\"approach-retreat\",\"210\",\"1632632\",\"0.0-210.0\",\"\",\"\",\"2-5\",\"7294\",\"38\",\"0\",\"Testing\",\"Stims/Figures/74-C-20-4.bmp\",\"fashava\",\"Down\",\"40\",\"3\",\"14\",\"6B\",\"C1\",\"J\",\"62\"
\"\",\"\",\"approach-retreat\",\"211\",\"1638452\",\"0.0-211.0\",\"\",\"\",\"2-5\",\"4304\",\"39\",\"0\",\"Testing\",\"Stims/Figures/44-J-10-3.bmp\",\"sahaza\",\"Right\",\"37\",\"3\",\"15\",\"6B\",\"C2\",\"J\",\"63\"
\"\",\"\",\"approach-retreat\",\"212\",\"1644184\",\"0.0-212.0\",\"\",\"\",\"2-5\",\"4226\",\"37\",\"0\",\"Testing\",\"Stims/Figures/57-J-0-1.bmp\",\"za:haha\",\"Left\",\"39\",\"3\",\"16\",\"6B\",\"C2\",\"J\",\"64\"
\"\",\"\",\"approach-retreat\",\"213\",\"1650292\",\"0.0-213.0\",\"\",\"\",\"2-5\",\"4590\",\"37\",\"0\",\"Testing\",\"Stims/Figures/85-J-0-2.bmp\",\"saha:ha\",\"Left\",\"39\",\"3\",\"17\",\"6B\",\"C2\",\"J\",\"65\"
\"\",\"\",\"approach-retreat\",\"214\",\"1659728\",\"0.0-214.0\",\"\",\"\",\"2-5\",\"7930\",\"38\",\"0\",\"Testing\",\"Stims/Figures/74-J-10-4.bmp\",\"za:saha\",\"Up\",\"40\",\"3\",\"18\",\"6B\",\"C2\",\"J\",\"66\"
\"\",\"\",\"approach-retreat\",\"215\",\"1665462\",\"0.0-215.0\",\"\",\"\",\"2-5\",\"4212\",\"39\",\"0\",\"Testing\",\"Stims/Figures/27-C-30-1.bmp\",\"fafa:va\",\"Left\",\"37\",\"3\",\"19\",\"6B\",\"C1\",\"J\",\"67\"
\"\",\"\",\"approach-retreat\",\"216\",\"1672972\",\"0.0-216.0\",\"\",\"\",\"2-5\",\"6002\",\"40\",\"0\",\"Testing\",\"Stims/Figures/71-C-30-1.bmp\",\"va:fasha\",\"Up\",\"38\",\"3\",\"20\",\"6B\",\"C1\",\"J\",\"68\"
\"\",\"\",\"approach-retreat\",\"217\",\"1678844\",\"0.0-217.0\",\"\",\"\",\"2-5\",\"4358\",\"38\",\"0\",\"Testing\",\"Stims/Figures/71-J-0-1.bmp\",\"sa:haza\",\"Up\",\"40\",\"3\",\"21\",\"6B\",\"C2\",\"J\",\"69\"
\"\",\"\",\"approach-retreat\",\"218\",\"1685298\",\"0.0-218.0\",\"\",\"\",\"2-5\",\"4946\",\"40\",\"0\",\"Testing\",\"Stims/Figures/87-C-20-4.bmp\",\"va:shasha\",\"Up\",\"38\",\"3\",\"22\",\"6B\",\"C1\",\"J\",\"70\"
\"\",\"\",\"approach-retreat\",\"219\",\"1691008\",\"0.0-219.0\",\"\",\"\",\"2-5\",\"4202\",\"39\",\"0\",\"Testing\",\"Stims/Figures/118-J-0-2.bmp\",\"zaha:ha\",\"Right\",\"37\",\"3\",\"23\",\"6B\",\"C2\",\"J\",\"71\"
\"\",\"\",\"approach-retreat\",\"220\",\"1697602\",\"0.0-220.0\",\"\",\"\",\"2-5\",\"5084\",\"38\",\"1\",\"Testing\",\"Stims/Figures/111-J-10-3.bmp\",\"sa:saza\",\"Down\",\"38\",\"3\",\"24\",\"6B\",\"C2\",\"J\",\"72\"
\"\",\"\",\"approach-retreat\",\"221\",\"1703572\",\"0.0-221.0\",\"\",\"\",\"2-5\",\"4456\",\"38\",\"0\",\"Testing\",\"Stims/Figures/144-C-30-3.bmp\",\"fashasha\",\"Down\",\"40\",\"4\",\"1\",\"6B\",\"C1\",\"J\",\"73\"
\"\",\"\",\"approach-retreat\",\"222\",\"1715752\",\"0.0-222.0\",\"\",\"\",\"2-5\",\"10666\",\"40\",\"0\",\"Testing\",\"Stims/Figures/74-J-10-4.bmp\",\"za:saha\",\"Down\",\"38\",\"4\",\"2\",\"6B\",\"C2\",\"J\",\"74\"
\"\",\"\",\"approach-retreat\",\"223\",\"1721502\",\"0.0-223.0\",\"\",\"\",\"2-5\",\"4238\",\"39\",\"0\",\"Testing\",\"Stims/Figures/84-C-20-2.bmp\",\"vasha:sha\",\"Left\",\"37\",\"4\",\"3\",\"6B\",\"C1\",\"J\",\"75\"
\"\",\"\",\"approach-retreat\",\"224\",\"1727296\",\"0.0-224.0\",\"\",\"\",\"2-5\",\"4276\",\"38\",\"0\",\"Testing\",\"Stims/Figures/44-C-30-3.bmp\",\"fafava\",\"Down\",\"40\",\"4\",\"4\",\"6B\",\"C1\",\"J\",\"76\"
\"\",\"\",\"approach-retreat\",\"225\",\"1733494\",\"0.0-225.0\",\"\",\"\",\"2-5\",\"4692\",\"40\",\"0\",\"Testing\",\"Stims/Figures/57-C-30-1.bmp\",\"vafa:va\",\"Up\",\"38\",\"4\",\"5\",\"6B\",\"C1\",\"J\",\"77\"
\"\",\"\",\"approach-retreat\",\"226\",\"1740066\",\"0.0-226.0\",\"\",\"\",\"2-5\",\"5052\",\"39\",\"1\",\"Testing\",\"Stims/Figures/27-J-0-1.bmp\",\"za:ha:ha\",\"Left\",\"39\",\"4\",\"6\",\"6B\",\"C2\",\"J\",\"78\"
\"\",\"\",\"approach-retreat\",\"227\",\"1746164\",\"0.0-227.0\",\"\",\"\",\"2-5\",\"4592\",\"40\",\"0\",\"Testing\",\"Stims/Figures/71-C-30-1.bmp\",\"va:fasha\",\"Up\",\"38\",\"4\",\"7\",\"6B\",\"C1\",\"J\",\"79\"
\"\",\"\",\"approach-retreat\",\"228\",\"1752152\",\"0.0-228.0\",\"\",\"\",\"2-5\",\"4482\",\"38\",\"0\",\"Testing\",\"Stims/Figures/44-J-10-3.bmp\",\"sahaza\",\"Up\",\"40\",\"4\",\"8\",\"6B\",\"C2\",\"J\",\"80\"
\"\",\"\",\"approach-retreat\",\"229\",\"1758178\",\"0.0-229.0\",\"\",\"\",\"2-5\",\"4516\",\"40\",\"0\",\"Testing\",\"Stims/Figures/118-J-0-2.bmp\",\"zaha:ha\",\"Down\",\"38\",\"4\",\"9\",\"6B\",\"C2\",\"J\",\"81\"
\"\",\"\",\"approach-retreat\",\"230\",\"1764630\",\"0.0-230.0\",\"\",\"\",\"2-5\",\"4936\",\"37\",\"0\",\"Testing\",\"Stims/Figures/57-J-0-1.bmp\",\"za:haha\",\"Left\",\"39\",\"4\",\"10\",\"6B\",\"C2\",\"J\",\"82\"
\"\",\"\",\"approach-retreat\",\"231\",\"1774114\",\"0.0-231.0\",\"\",\"\",\"2-5\",\"7976\",\"37\",\"0\",\"Testing\",\"Stims/Figures/7-J-10-4.bmp\",\"za:saza\",\"Left\",\"39\",\"4\",\"11\",\"6B\",\"C2\",\"J\",\"83\"
\"\",\"\",\"approach-retreat\",\"232\",\"1780462\",\"0.0-232.0\",\"\",\"\",\"2-5\",\"4834\",\"40\",\"0\",\"Testing\",\"Stims/Figures/85-J-0-2.bmp\",\"saha:ha\",\"Down\",\"38\",\"4\",\"12\",\"6B\",\"C2\",\"J\",\"84\"
\"\",\"\",\"approach-retreat\",\"233\",\"1787098\",\"0.0-233.0\",\"\",\"\",\"2-5\",\"5126\",\"39\",\"0\",\"Testing\",\"Stims/Figures/87-C-20-4.bmp\",\"va:shasha\",\"Left\",\"37\",\"4\",\"13\",\"6B\",\"C1\",\"J\",\"85\"
\"\",\"\",\"approach-retreat\",\"234\",\"1792828\",\"0.0-234.0\",\"\",\"\",\"2-5\",\"4216\",\"38\",\"0\",\"Testing\",\"Stims/Figures/84-J-0-2.bmp\",\"sa:sa:za\",\"Up\",\"40\",\"4\",\"14\",\"6B\",\"C2\",\"J\",\"86\"
\"\",\"\",\"approach-retreat\",\"235\",\"1798874\",\"0.0-235.0\",\"\",\"\",\"2-5\",\"4528\",\"37\",\"0\",\"Testing\",\"Stims/Figures/85-C-20-2.bmp\",\"va:fa:sha\",\"Right\",\"39\",\"4\",\"15\",\"6B\",\"C1\",\"J\",\"87\"
\"\",\"\",\"approach-retreat\",\"236\",\"1808594\",\"0.0-236.0\",\"\",\"\",\"2-5\",\"8216\",\"38\",\"1\",\"Testing\",\"Stims/Figures/111-J-10-3.bmp\",\"sa:saza\",\"Down\",\"38\",\"4\",\"16\",\"6B\",\"C2\",\"J\",\"88\"
\"\",\"\",\"approach-retreat\",\"237\",\"1815010\",\"0.0-237.0\",\"\",\"\",\"2-5\",\"4908\",\"38\",\"0\",\"Testing\",\"Stims/Figures/71-J-0-1.bmp\",\"sa:haza\",\"Up\",\"40\",\"4\",\"17\",\"6B\",\"C2\",\"J\",\"89\"
\"\",\"\",\"approach-retreat\",\"238\",\"1821684\",\"0.0-238.0\",\"\",\"\",\"2-5\",\"5166\",\"37\",\"0\",\"Testing\",\"Stims/Figures/118-C-20-2.bmp\",\"va:sha:va\",\"Right\",\"39\",\"4\",\"18\",\"6B\",\"C1\",\"J\",\"90\"
\"\",\"\",\"approach-retreat\",\"239\",\"1828762\",\"0.0-239.0\",\"\",\"\",\"2-5\",\"5564\",\"39\",\"0\",\"Testing\",\"Stims/Figures/74-C-20-4.bmp\",\"fashava\",\"Left\",\"37\",\"4\",\"19\",\"6B\",\"C1\",\"J\",\"91\"
\"\",\"\",\"approach-retreat\",\"240\",\"1834916\",\"0.0-240.0\",\"\",\"\",\"2-5\",\"4644\",\"40\",\"0\",\"Testing\",\"Stims/Figures/27-C-30-1.bmp\",\"fafa:va\",\"Up\",\"38\",\"4\",\"20\",\"6B\",\"C1\",\"J\",\"92\"
\"\",\"\",\"approach-retreat\",\"241\",\"1841200\",\"0.0-241.0\",\"\",\"\",\"2-5\",\"4764\",\"37\",\"1\",\"Testing\",\"Stims/Figures/144-J-10-3.bmp\",\"saha:za\",\"Right\",\"37\",\"4\",\"21\",\"6B\",\"C2\",\"J\",\"93\"
\"\",\"\",\"approach-retreat\",\"242\",\"1846882\",\"0.0-242.0\",\"\",\"\",\"2-5\",\"4166\",\"37\",\"0\",\"Testing\",\"Stims/Figures/7-C-20-4.bmp\",\"vasha:va\",\"Right\",\"39\",\"4\",\"22\",\"6B\",\"C1\",\"J\",\"94\"
\"\",\"\",\"approach-retreat\",\"243\",\"1852912\",\"0.0-243.0\",\"\",\"\",\"2-5\",\"4512\",\"37\",\"1\",\"Testing\",\"Stims/Figures/87-J-10-4.bmp\",\"sa:saha\",\"Right\",\"37\",\"4\",\"23\",\"6B\",\"C2\",\"J\",\"95\"
\"\",\"\",\"approach-retreat\",\"244\",\"1858618\",\"0.0-244.0\",\"\",\"\",\"2-5\",\"4198\",\"37\",\"0\",\"Testing\",\"Stims/Figures/111-C-30-3.bmp\",\"vashasha\",\"Right\",\"39\",\"4\",\"24\",\"6B\",\"C1\",\"J\",\"96\"
\"28398\",\"\",\"survey-text\",\"245\",\"1887028\",\"0.0-245.0\",\"\",\"{\"\"Q0\"\":\"\"ps160089\"\"}\",\"\",\"\",\"\",\"\",\"\",\"\",\"\",\"\",\"\",\"\",\"\",\"\",\"\",\"\",\"\"
