\"rt\",\"key_press\",\"trial_type\",\"trial_index\",\"time_elapsed\",\"internal_node_id\",\"view_history\",\"responses\",\"Id\",\"Rt\",\"ResKeyCode\",\"ResCorr\",\"TrialType2\",\"Image\",\"Label\",\"Location\",\"CorrectResponse\",\"Block\",\"BlockTrial\",\"Condition\",\"LabelType\",\"Subcondition\",\"trialNum\"
\"52366\",\"32\",\"text\",\"0\",\"52369\",\"0.0-0.0-0.0\",\"\",\"\",\"\",\"\",\"\",\"\",\"\",\"\",\"\",\"\",\"\",\"\",\"\",\"\",\"\",\"\",\"\"
\"58199\",\"\",\"instructions\",\"1\",\"110571\",\"0.0-1.0\",\"[{\"\"page_index\"\":0,\"\"viewing_time\"\":58198}]\",\"\",\"\",\"\",\"\",\"\",\"\",\"\",\"\",\"\",\"\",\"\",\"\",\"\",\"\",\"\",\"\"
\"30080\",\"\",\"survey-multi-choice\",\"2\",\"140680\",\"0.0-2.0\",\"\",\"{\"\"Q0\"\":\"\"Da\"\",\"\"Q1\"\":\"\"Da\"\",\"\"Q2\"\":\"\"Ne\"\",\"\"Q3\"\":\"\"Da\"\",\"\"Q4\"\":\"\"Da\"\",\"\"Q5\"\":\"\"Da\"\"}\",\"\",\"\",\"\",\"\",\"\",\"\",\"\",\"\",\"\",\"\",\"\",\"\",\"\",\"\",\"\"
\"\",\"\",\"bio\",\"3\",\"151837\",\"0.0-3.0\",\"\",\"{\"\"age\"\":\"\"25\"\",\"\"gender\"\":\"\"f\"\",\"\"specify\"\":\"\"\"\"}\",\"\",\"\",\"\",\"\",\"\",\"\",\"\",\"\",\"\",\"\",\"\",\"\",\"\",\"\",\"\"
\"\",\"\",\"approach-retreat\",\"4\",\"164517\",\"0.0-4.0\",\"\",\"\",\"1-2\",\"11173\",\"39\",\"0\",\"Training\",\"Stims/Figures/111-J-10-3.bmp\",\"ma:lana\",\"Left\",\"37\",\"1\",\"1\",\"7\",\"S\",\"C\",\"1\"
\"\",\"\",\"approach-retreat\",\"5\",\"171505\",\"0.0-5.0\",\"\",\"\",\"1-2\",\"5478\",\"39\",\"0\",\"Training\",\"Stims/Figures/111-C-30-3.bmp\",\"ma:ma:na\",\"Right\",\"37\",\"1\",\"2\",\"7\",\"S\",\"C\",\"2\"
\"\",\"\",\"approach-retreat\",\"6\",\"184010\",\"0.0-6.0\",\"\",\"\",\"1-2\",\"10996\",\"39\",\"0\",\"Training\",\"Stims/Figures/128-J-10-3.bmp\",\"mala:na\",\"Left\",\"37\",\"1\",\"3\",\"7\",\"S\",\"C\",\"3\"
\"\",\"\",\"approach-retreat\",\"7\",\"194799\",\"0.0-7.0\",\"\",\"\",\"1-2\",\"9280\",\"39\",\"1\",\"Training\",\"Stims/Figures/85-C-20-2.bmp\",\"taka:ta\",\"Left\",\"39\",\"1\",\"4\",\"7\",\"P\",\"C\",\"4\"
\"\",\"\",\"approach-retreat\",\"8\",\"201992\",\"0.0-8.0\",\"\",\"\",\"1-2\",\"5686\",\"39\",\"1\",\"Training\",\"Stims/Figures/57-C-30-1.bmp\",\"papa:ta\",\"Left\",\"39\",\"1\",\"5\",\"7\",\"P\",\"C\",\"5\"
\"\",\"\",\"approach-retreat\",\"9\",\"211335\",\"0.0-9.0\",\"\",\"\",\"1-2\",\"7836\",\"40\",\"0\",\"Training\",\"Stims/Figures/87-J-10-4.bmp\",\"na:lala\",\"Up\",\"38\",\"1\",\"6\",\"7\",\"S\",\"C\",\"6\"
\"\",\"\",\"approach-retreat\",\"10\",\"218360\",\"0.0-10.0\",\"\",\"\",\"1-2\",\"5517\",\"40\",\"1\",\"Training\",\"Stims/Figures/74-J-10-4.bmp\",\"na:lana\",\"Down\",\"40\",\"1\",\"7\",\"7\",\"S\",\"C\",\"7\"
\"\",\"\",\"approach-retreat\",\"11\",\"225591\",\"0.0-11.0\",\"\",\"\",\"1-2\",\"5723\",\"39\",\"1\",\"Training\",\"Stims/Figures/57-J-0-1.bmp\",\"ta:ka:ta\",\"Right\",\"39\",\"1\",\"8\",\"7\",\"P\",\"C\",\"8\"
\"\",\"\",\"approach-retreat\",\"12\",\"232381\",\"0.0-12.0\",\"\",\"\",\"1-2\",\"5280\",\"37\",\"0\",\"Training\",\"Stims/Figures/85-J-0-2.bmp\",\"tapa:ka\",\"Right\",\"39\",\"1\",\"9\",\"7\",\"P\",\"C\",\"9\"
\"\",\"\",\"approach-retreat\",\"13\",\"240678\",\"0.0-13.0\",\"\",\"\",\"1-2\",\"6789\",\"40\",\"1\",\"Training\",\"Stims/Figures/128-C-30-3.bmp\",\"mala:la\",\"Up\",\"40\",\"1\",\"10\",\"7\",\"S\",\"C\",\"10\"
\"\",\"\",\"approach-retreat\",\"14\",\"247704\",\"0.0-14.0\",\"\",\"\",\"1-2\",\"5518\",\"39\",\"0\",\"Training\",\"Stims/Figures/87-C-20-4.bmp\",\"nala:la\",\"Right\",\"37\",\"1\",\"11\",\"7\",\"S\",\"C\",\"11\"
\"\",\"\",\"approach-retreat\",\"15\",\"254193\",\"0.0-15.0\",\"\",\"\",\"1-2\",\"4982\",\"40\",\"1\",\"Training\",\"Stims/Figures/118-J-0-2.bmp\",\"ta:kata\",\"Down\",\"40\",\"1\",\"12\",\"7\",\"P\",\"C\",\"12\"
\"\",\"\",\"approach-retreat\",\"16\",\"260082\",\"0.0-16.0\",\"\",\"\",\"1-2\",\"4381\",\"40\",\"0\",\"Training\",\"Stims/Figures/86-C-30-1.bmp\",\"takata\",\"Down\",\"38\",\"1\",\"13\",\"7\",\"P\",\"C\",\"13\"
\"\",\"\",\"approach-retreat\",\"17\",\"265887\",\"0.0-17.0\",\"\",\"\",\"1-2\",\"4295\",\"40\",\"0\",\"Training\",\"Stims/Figures/74-C-20-4.bmp\",\"mamala\",\"Down\",\"38\",\"1\",\"14\",\"7\",\"S\",\"C\",\"14\"
\"\",\"\",\"approach-retreat\",\"18\",\"273226\",\"0.0-18.0\",\"\",\"\",\"1-2\",\"5832\",\"40\",\"1\",\"Training\",\"Stims/Figures/118-C-20-2.bmp\",\"takaka\",\"Up\",\"40\",\"1\",\"15\",\"7\",\"P\",\"C\",\"15\"
\"\",\"\",\"approach-retreat\",\"19\",\"279697\",\"0.0-19.0\",\"\",\"\",\"1-2\",\"4962\",\"40\",\"0\",\"Training\",\"Stims/Figures/86-J-0-1.bmp\",\"pa:pa:ka\",\"Up\",\"38\",\"1\",\"16\",\"7\",\"P\",\"C\",\"16\"
\"\",\"\",\"approach-retreat\",\"20\",\"286734\",\"0.0-20.0\",\"\",\"\",\"1-2\",\"5530\",\"38\",\"1\",\"Training\",\"Stims/Figures/128-J-10-3.bmp\",\"mala:na\",\"Up\",\"38\",\"2\",\"1\",\"7\",\"S\",\"C\",\"17\"
\"\",\"\",\"approach-retreat\",\"21\",\"294468\",\"0.0-21.0\",\"\",\"\",\"1-2\",\"6227\",\"37\",\"0\",\"Training\",\"Stims/Figures/85-C-20-2.bmp\",\"taka:ta\",\"Left\",\"39\",\"2\",\"2\",\"7\",\"P\",\"C\",\"18\"
\"\",\"\",\"approach-retreat\",\"22\",\"303183\",\"0.0-22.0\",\"\",\"\",\"1-2\",\"7207\",\"37\",\"1\",\"Training\",\"Stims/Figures/57-C-30-1.bmp\",\"papa:ta\",\"Right\",\"37\",\"2\",\"3\",\"7\",\"P\",\"C\",\"19\"
\"\",\"\",\"approach-retreat\",\"23\",\"309947\",\"0.0-23.0\",\"\",\"\",\"1-2\",\"5254\",\"38\",\"0\",\"Training\",\"Stims/Figures/118-C-20-2.bmp\",\"takaka\",\"Up\",\"40\",\"2\",\"4\",\"7\",\"P\",\"C\",\"20\"
\"\",\"\",\"approach-retreat\",\"24\",\"317648\",\"0.0-24.0\",\"\",\"\",\"1-2\",\"6193\",\"39\",\"0\",\"Training\",\"Stims/Figures/57-J-0-1.bmp\",\"ta:ka:ta\",\"Left\",\"37\",\"2\",\"5\",\"7\",\"P\",\"C\",\"21\"
\"\",\"\",\"approach-retreat\",\"25\",\"323932\",\"0.0-25.0\",\"\",\"\",\"1-2\",\"4774\",\"38\",\"1\",\"Training\",\"Stims/Figures/74-J-10-4.bmp\",\"na:lana\",\"Up\",\"38\",\"2\",\"6\",\"7\",\"S\",\"C\",\"22\"
\"\",\"\",\"approach-retreat\",\"26\",\"330286\",\"0.0-26.0\",\"\",\"\",\"1-2\",\"4846\",\"39\",\"0\",\"Training\",\"Stims/Figures/87-C-20-4.bmp\",\"nala:la\",\"Right\",\"37\",\"2\",\"7\",\"7\",\"S\",\"C\",\"23\"
\"\",\"\",\"approach-retreat\",\"27\",\"338778\",\"0.0-27.0\",\"\",\"\",\"1-2\",\"6985\",\"39\",\"0\",\"Training\",\"Stims/Figures/87-J-10-4.bmp\",\"na:lala\",\"Left\",\"37\",\"2\",\"8\",\"7\",\"S\",\"C\",\"24\"
\"\",\"\",\"approach-retreat\",\"28\",\"345768\",\"0.0-28.0\",\"\",\"\",\"1-2\",\"5480\",\"37\",\"1\",\"Training\",\"Stims/Figures/128-C-30-3.bmp\",\"mala:la\",\"Right\",\"37\",\"2\",\"9\",\"7\",\"S\",\"C\",\"25\"
\"\",\"\",\"approach-retreat\",\"29\",\"354833\",\"0.0-29.0\",\"\",\"\",\"1-2\",\"7557\",\"38\",\"1\",\"Training\",\"Stims/Figures/74-C-20-4.bmp\",\"mamala\",\"Down\",\"38\",\"2\",\"10\",\"7\",\"S\",\"C\",\"26\"
\"\",\"\",\"approach-retreat\",\"30\",\"361991\",\"0.0-30.0\",\"\",\"\",\"1-2\",\"5650\",\"40\",\"0\",\"Training\",\"Stims/Figures/111-C-30-3.bmp\",\"ma:ma:na\",\"Down\",\"38\",\"2\",\"11\",\"7\",\"S\",\"C\",\"27\"
\"\",\"\",\"approach-retreat\",\"31\",\"368996\",\"0.0-31.0\",\"\",\"\",\"1-2\",\"5497\",\"40\",\"1\",\"Training\",\"Stims/Figures/86-C-30-1.bmp\",\"takata\",\"Up\",\"40\",\"2\",\"12\",\"7\",\"P\",\"C\",\"28\"
\"\",\"\",\"approach-retreat\",\"32\",\"379333\",\"0.0-32.0\",\"\",\"\",\"1-2\",\"8828\",\"40\",\"1\",\"Training\",\"Stims/Figures/86-J-0-1.bmp\",\"pa:pa:ka\",\"Down\",\"40\",\"2\",\"13\",\"7\",\"P\",\"C\",\"29\"
\"\",\"\",\"approach-retreat\",\"33\",\"386705\",\"0.0-33.0\",\"\",\"\",\"1-2\",\"5864\",\"38\",\"0\",\"Training\",\"Stims/Figures/111-J-10-3.bmp\",\"ma:lana\",\"Down\",\"40\",\"2\",\"14\",\"7\",\"S\",\"C\",\"30\"
\"\",\"\",\"approach-retreat\",\"34\",\"393190\",\"0.0-34.0\",\"\",\"\",\"1-2\",\"4979\",\"37\",\"1\",\"Training\",\"Stims/Figures/85-J-0-2.bmp\",\"tapa:ka\",\"Left\",\"37\",\"2\",\"15\",\"7\",\"P\",\"C\",\"31\"
\"\",\"\",\"approach-retreat\",\"35\",\"399531\",\"0.0-35.0\",\"\",\"\",\"1-2\",\"4833\",\"39\",\"1\",\"Training\",\"Stims/Figures/118-J-0-2.bmp\",\"ta:kata\",\"Right\",\"39\",\"2\",\"16\",\"7\",\"P\",\"C\",\"32\"
\"\",\"\",\"approach-retreat\",\"36\",\"406420\",\"0.0-36.0\",\"\",\"\",\"1-2\",\"5381\",\"39\",\"0\",\"Training\",\"Stims/Figures/111-J-10-3.bmp\",\"ma:lana\",\"Left\",\"37\",\"3\",\"1\",\"7\",\"S\",\"C\",\"33\"
\"\",\"\",\"approach-retreat\",\"37\",\"412990\",\"0.0-37.0\",\"\",\"\",\"1-2\",\"5062\",\"37\",\"1\",\"Training\",\"Stims/Figures/85-C-20-2.bmp\",\"taka:ta\",\"Right\",\"37\",\"3\",\"2\",\"7\",\"P\",\"C\",\"34\"
\"\",\"\",\"approach-retreat\",\"38\",\"419701\",\"0.0-38.0\",\"\",\"\",\"1-2\",\"5204\",\"40\",\"1\",\"Training\",\"Stims/Figures/87-C-20-4.bmp\",\"nala:la\",\"Up\",\"40\",\"3\",\"3\",\"7\",\"S\",\"C\",\"35\"
\"\",\"\",\"approach-retreat\",\"39\",\"425918\",\"0.0-39.0\",\"\",\"\",\"1-2\",\"4709\",\"40\",\"1\",\"Training\",\"Stims/Figures/86-J-0-1.bmp\",\"pa:pa:ka\",\"Down\",\"40\",\"3\",\"4\",\"7\",\"P\",\"C\",\"36\"
\"\",\"\",\"approach-retreat\",\"40\",\"432712\",\"0.0-40.0\",\"\",\"\",\"1-2\",\"5287\",\"37\",\"1\",\"Training\",\"Stims/Figures/86-C-30-1.bmp\",\"takata\",\"Right\",\"37\",\"3\",\"5\",\"7\",\"P\",\"C\",\"37\"
\"\",\"\",\"approach-retreat\",\"41\",\"438984\",\"0.0-41.0\",\"\",\"\",\"1-2\",\"4764\",\"40\",\"1\",\"Training\",\"Stims/Figures/118-C-20-2.bmp\",\"takaka\",\"Up\",\"40\",\"3\",\"6\",\"7\",\"P\",\"C\",\"38\"
\"\",\"\",\"approach-retreat\",\"42\",\"445161\",\"0.0-42.0\",\"\",\"\",\"1-2\",\"4670\",\"37\",\"0\",\"Training\",\"Stims/Figures/74-C-20-4.bmp\",\"mamala\",\"Left\",\"39\",\"3\",\"7\",\"7\",\"S\",\"C\",\"39\"
\"\",\"\",\"approach-retreat\",\"43\",\"451588\",\"0.0-43.0\",\"\",\"\",\"1-2\",\"4919\",\"39\",\"0\",\"Training\",\"Stims/Figures/74-J-10-4.bmp\",\"na:lana\",\"Left\",\"37\",\"3\",\"8\",\"7\",\"S\",\"C\",\"40\"
\"\",\"\",\"approach-retreat\",\"44\",\"457614\",\"0.0-44.0\",\"\",\"\",\"1-2\",\"4518\",\"39\",\"1\",\"Training\",\"Stims/Figures/87-J-10-4.bmp\",\"na:lala\",\"Right\",\"39\",\"3\",\"9\",\"7\",\"S\",\"C\",\"41\"
\"\",\"\",\"approach-retreat\",\"45\",\"463845\",\"0.0-45.0\",\"\",\"\",\"1-2\",\"4724\",\"40\",\"1\",\"Training\",\"Stims/Figures/57-C-30-1.bmp\",\"papa:ta\",\"Up\",\"40\",\"3\",\"10\",\"7\",\"P\",\"C\",\"42\"
\"\",\"\",\"approach-retreat\",\"46\",\"471875\",\"0.0-46.0\",\"\",\"\",\"1-2\",\"6521\",\"40\",\"0\",\"Training\",\"Stims/Figures/128-C-30-3.bmp\",\"mala:la\",\"Down\",\"38\",\"3\",\"11\",\"7\",\"S\",\"C\",\"43\"
\"\",\"\",\"approach-retreat\",\"47\",\"479750\",\"0.0-47.0\",\"\",\"\",\"1-2\",\"6367\",\"39\",\"1\",\"Training\",\"Stims/Figures/111-C-30-3.bmp\",\"ma:ma:na\",\"Left\",\"39\",\"3\",\"12\",\"7\",\"S\",\"C\",\"44\"
\"\",\"\",\"approach-retreat\",\"48\",\"487838\",\"0.0-48.0\",\"\",\"\",\"1-2\",\"6582\",\"40\",\"1\",\"Training\",\"Stims/Figures/85-J-0-2.bmp\",\"tapa:ka\",\"Down\",\"40\",\"3\",\"13\",\"7\",\"P\",\"C\",\"45\"
\"\",\"\",\"approach-retreat\",\"49\",\"493808\",\"0.0-49.0\",\"\",\"\",\"1-2\",\"4461\",\"40\",\"1\",\"Training\",\"Stims/Figures/57-J-0-1.bmp\",\"ta:ka:ta\",\"Down\",\"40\",\"3\",\"14\",\"7\",\"P\",\"C\",\"46\"
\"\",\"\",\"approach-retreat\",\"50\",\"500398\",\"0.0-50.0\",\"\",\"\",\"1-2\",\"5083\",\"38\",\"1\",\"Training\",\"Stims/Figures/128-J-10-3.bmp\",\"mala:na\",\"Up\",\"38\",\"3\",\"15\",\"7\",\"S\",\"C\",\"47\"
\"\",\"\",\"approach-retreat\",\"51\",\"509561\",\"0.0-51.0\",\"\",\"\",\"1-2\",\"7655\",\"39\",\"1\",\"Training\",\"Stims/Figures/118-J-0-2.bmp\",\"ta:kata\",\"Right\",\"39\",\"3\",\"16\",\"7\",\"P\",\"C\",\"48\"
\"\",\"\",\"approach-retreat\",\"52\",\"518148\",\"0.0-52.0\",\"\",\"\",\"1-2\",\"7079\",\"40\",\"1\",\"Training\",\"Stims/Figures/118-C-20-2.bmp\",\"takaka\",\"Up\",\"40\",\"4\",\"1\",\"7\",\"P\",\"C\",\"49\"
\"\",\"\",\"approach-retreat\",\"53\",\"526347\",\"0.0-53.0\",\"\",\"\",\"1-2\",\"6691\",\"38\",\"0\",\"Training\",\"Stims/Figures/128-C-30-3.bmp\",\"mala:la\",\"Up\",\"40\",\"4\",\"2\",\"7\",\"S\",\"C\",\"50\"
\"\",\"\",\"approach-retreat\",\"54\",\"532956\",\"0.0-54.0\",\"\",\"\",\"1-2\",\"5099\",\"40\",\"1\",\"Training\",\"Stims/Figures/57-J-0-1.bmp\",\"ta:ka:ta\",\"Down\",\"40\",\"4\",\"3\",\"7\",\"P\",\"C\",\"51\"
\"\",\"\",\"approach-retreat\",\"55\",\"540526\",\"0.0-55.0\",\"\",\"\",\"1-2\",\"6062\",\"39\",\"1\",\"Training\",\"Stims/Figures/87-J-10-4.bmp\",\"na:lala\",\"Right\",\"39\",\"4\",\"4\",\"7\",\"S\",\"C\",\"52\"
\"\",\"\",\"approach-retreat\",\"56\",\"550090\",\"0.0-56.0\",\"\",\"\",\"1-2\",\"8056\",\"40\",\"0\",\"Training\",\"Stims/Figures/74-J-10-4.bmp\",\"na:lana\",\"Up\",\"38\",\"4\",\"5\",\"7\",\"S\",\"C\",\"53\"
\"\",\"\",\"approach-retreat\",\"57\",\"557449\",\"0.0-57.0\",\"\",\"\",\"1-2\",\"5852\",\"39\",\"1\",\"Training\",\"Stims/Figures/87-C-20-4.bmp\",\"nala:la\",\"Left\",\"39\",\"4\",\"6\",\"7\",\"S\",\"C\",\"54\"
\"\",\"\",\"approach-retreat\",\"58\",\"563871\",\"0.0-58.0\",\"\",\"\",\"1-2\",\"4914\",\"39\",\"1\",\"Training\",\"Stims/Figures/86-C-30-1.bmp\",\"takata\",\"Left\",\"39\",\"4\",\"7\",\"7\",\"P\",\"C\",\"55\"
\"\",\"\",\"approach-retreat\",\"59\",\"570772\",\"0.0-59.0\",\"\",\"\",\"1-2\",\"5393\",\"37\",\"1\",\"Training\",\"Stims/Figures/57-C-30-1.bmp\",\"papa:ta\",\"Right\",\"37\",\"4\",\"8\",\"7\",\"P\",\"C\",\"56\"
\"\",\"\",\"approach-retreat\",\"60\",\"588017\",\"0.0-60.0\",\"\",\"\",\"1-2\",\"15738\",\"39\",\"0\",\"Training\",\"Stims/Figures/128-J-10-3.bmp\",\"mala:na\",\"Left\",\"37\",\"4\",\"9\",\"7\",\"S\",\"C\",\"57\"
\"\",\"\",\"approach-retreat\",\"61\",\"594190\",\"0.0-61.0\",\"\",\"\",\"1-2\",\"4664\",\"40\",\"1\",\"Training\",\"Stims/Figures/86-J-0-1.bmp\",\"pa:pa:ka\",\"Down\",\"40\",\"4\",\"10\",\"7\",\"P\",\"C\",\"58\"
\"\",\"\",\"approach-retreat\",\"62\",\"602498\",\"0.0-62.0\",\"\",\"\",\"1-2\",\"6800\",\"37\",\"1\",\"Training\",\"Stims/Figures/111-C-30-3.bmp\",\"ma:ma:na\",\"Right\",\"37\",\"4\",\"11\",\"7\",\"S\",\"C\",\"59\"
\"\",\"\",\"approach-retreat\",\"63\",\"610245\",\"0.0-63.0\",\"\",\"\",\"1-2\",\"6240\",\"37\",\"1\",\"Training\",\"Stims/Figures/85-J-0-2.bmp\",\"tapa:ka\",\"Left\",\"37\",\"4\",\"12\",\"7\",\"P\",\"C\",\"60\"
\"\",\"\",\"approach-retreat\",\"64\",\"628477\",\"0.0-64.0\",\"\",\"\",\"1-2\",\"16724\",\"40\",\"1\",\"Training\",\"Stims/Figures/111-J-10-3.bmp\",\"ma:lana\",\"Down\",\"40\",\"4\",\"13\",\"7\",\"S\",\"C\",\"61\"
\"\",\"\",\"approach-retreat\",\"65\",\"654602\",\"0.0-65.0\",\"\",\"\",\"1-2\",\"24617\",\"37\",\"1\",\"Training\",\"Stims/Figures/85-C-20-2.bmp\",\"taka:ta\",\"Right\",\"37\",\"4\",\"14\",\"7\",\"P\",\"C\",\"62\"
\"\",\"\",\"approach-retreat\",\"66\",\"662455\",\"0.0-66.0\",\"\",\"\",\"1-2\",\"6346\",\"38\",\"1\",\"Training\",\"Stims/Figures/74-C-20-4.bmp\",\"mamala\",\"Down\",\"38\",\"4\",\"15\",\"7\",\"S\",\"C\",\"63\"
\"\",\"\",\"approach-retreat\",\"67\",\"669025\",\"0.0-67.0\",\"\",\"\",\"1-2\",\"5062\",\"38\",\"1\",\"Training\",\"Stims/Figures/118-J-0-2.bmp\",\"ta:kata\",\"Up\",\"38\",\"4\",\"16\",\"7\",\"P\",\"C\",\"64\"
\"\",\"\",\"approach-retreat\",\"68\",\"676111\",\"0.0-68.0\",\"\",\"\",\"1-2\",\"5577\",\"39\",\"1\",\"Training\",\"Stims/Figures/74-C-20-4.bmp\",\"mamala\",\"Left\",\"39\",\"5\",\"1\",\"7\",\"S\",\"C\",\"65\"
\"\",\"\",\"approach-retreat\",\"69\",\"682287\",\"0.0-69.0\",\"\",\"\",\"1-2\",\"4669\",\"40\",\"1\",\"Training\",\"Stims/Figures/85-J-0-2.bmp\",\"tapa:ka\",\"Down\",\"40\",\"5\",\"2\",\"7\",\"P\",\"C\",\"66\"
\"\",\"\",\"approach-retreat\",\"70\",\"692195\",\"0.0-70.0\",\"\",\"\",\"1-2\",\"8399\",\"39\",\"1\",\"Training\",\"Stims/Figures/85-C-20-2.bmp\",\"taka:ta\",\"Left\",\"39\",\"5\",\"3\",\"7\",\"P\",\"C\",\"67\"
\"\",\"\",\"approach-retreat\",\"71\",\"705839\",\"0.0-71.0\",\"\",\"\",\"1-2\",\"12138\",\"40\",\"1\",\"Training\",\"Stims/Figures/86-C-30-1.bmp\",\"takata\",\"Up\",\"40\",\"5\",\"4\",\"7\",\"P\",\"C\",\"68\"
\"\",\"\",\"approach-retreat\",\"72\",\"713378\",\"0.0-72.0\",\"\",\"\",\"1-2\",\"6031\",\"39\",\"1\",\"Training\",\"Stims/Figures/86-J-0-1.bmp\",\"pa:pa:ka\",\"Right\",\"39\",\"5\",\"5\",\"7\",\"P\",\"C\",\"69\"
\"\",\"\",\"approach-retreat\",\"73\",\"720751\",\"0.0-73.0\",\"\",\"\",\"1-2\",\"5864\",\"40\",\"1\",\"Training\",\"Stims/Figures/118-C-20-2.bmp\",\"takaka\",\"Up\",\"40\",\"5\",\"6\",\"7\",\"P\",\"C\",\"70\"
\"\",\"\",\"approach-retreat\",\"74\",\"727781\",\"0.0-74.0\",\"\",\"\",\"1-2\",\"5522\",\"40\",\"1\",\"Training\",\"Stims/Figures/57-J-0-1.bmp\",\"ta:ka:ta\",\"Down\",\"40\",\"5\",\"7\",\"7\",\"P\",\"C\",\"71\"
\"\",\"\",\"approach-retreat\",\"75\",\"737865\",\"0.0-75.0\",\"\",\"\",\"1-2\",\"8577\",\"38\",\"1\",\"Training\",\"Stims/Figures/74-J-10-4.bmp\",\"na:lana\",\"Up\",\"38\",\"5\",\"8\",\"7\",\"S\",\"C\",\"72\"
\"\",\"\",\"approach-retreat\",\"76\",\"746355\",\"0.0-76.0\",\"\",\"\",\"1-2\",\"6982\",\"39\",\"1\",\"Training\",\"Stims/Figures/87-C-20-4.bmp\",\"nala:la\",\"Left\",\"39\",\"5\",\"9\",\"7\",\"S\",\"C\",\"73\"
\"\",\"\",\"approach-retreat\",\"77\",\"757794\",\"0.0-77.0\",\"\",\"\",\"1-2\",\"9932\",\"39\",\"1\",\"Training\",\"Stims/Figures/87-J-10-4.bmp\",\"na:lala\",\"Right\",\"39\",\"5\",\"10\",\"7\",\"S\",\"C\",\"74\"
\"\",\"\",\"approach-retreat\",\"78\",\"766298\",\"0.0-78.0\",\"\",\"\",\"1-2\",\"6994\",\"39\",\"1\",\"Training\",\"Stims/Figures/111-J-10-3.bmp\",\"ma:lana\",\"Right\",\"39\",\"5\",\"11\",\"7\",\"S\",\"C\",\"75\"
\"\",\"\",\"approach-retreat\",\"79\",\"782823\",\"0.0-79.0\",\"\",\"\",\"1-2\",\"15018\",\"38\",\"1\",\"Training\",\"Stims/Figures/111-C-30-3.bmp\",\"ma:ma:na\",\"Down\",\"38\",\"5\",\"12\",\"7\",\"S\",\"C\",\"76\"
\"\",\"\",\"approach-retreat\",\"80\",\"790182\",\"0.0-80.0\",\"\",\"\",\"1-2\",\"5850\",\"38\",\"1\",\"Training\",\"Stims/Figures/128-J-10-3.bmp\",\"mala:na\",\"Up\",\"38\",\"5\",\"13\",\"7\",\"S\",\"C\",\"77\"
\"\",\"\",\"approach-retreat\",\"81\",\"803543\",\"0.0-81.0\",\"\",\"\",\"1-2\",\"11852\",\"39\",\"1\",\"Training\",\"Stims/Figures/57-C-30-1.bmp\",\"papa:ta\",\"Left\",\"39\",\"5\",\"14\",\"7\",\"P\",\"C\",\"78\"
\"\",\"\",\"approach-retreat\",\"82\",\"815429\",\"0.0-82.0\",\"\",\"\",\"1-2\",\"10380\",\"40\",\"1\",\"Training\",\"Stims/Figures/118-J-0-2.bmp\",\"ta:kata\",\"Down\",\"40\",\"5\",\"15\",\"7\",\"P\",\"C\",\"79\"
\"\",\"\",\"approach-retreat\",\"83\",\"826934\",\"0.0-83.0\",\"\",\"\",\"1-2\",\"9996\",\"37\",\"1\",\"Training\",\"Stims/Figures/128-C-30-3.bmp\",\"mala:la\",\"Right\",\"37\",\"5\",\"16\",\"7\",\"S\",\"C\",\"80\"
\"\",\"\",\"approach-retreat\",\"84\",\"838318\",\"0.0-84.0\",\"\",\"\",\"1-2\",\"9876\",\"38\",\"1\",\"Training\",\"Stims/Figures/128-C-30-3.bmp\",\"mala:la\",\"Down\",\"38\",\"6\",\"1\",\"7\",\"S\",\"C\",\"81\"
\"\",\"\",\"approach-retreat\",\"85\",\"846187\",\"0.0-85.0\",\"\",\"\",\"1-2\",\"6362\",\"38\",\"1\",\"Training\",\"Stims/Figures/74-J-10-4.bmp\",\"na:lana\",\"Up\",\"38\",\"6\",\"2\",\"7\",\"S\",\"C\",\"82\"
\"\",\"\",\"approach-retreat\",\"86\",\"852598\",\"0.0-86.0\",\"\",\"\",\"1-2\",\"4905\",\"40\",\"1\",\"Training\",\"Stims/Figures/86-J-0-1.bmp\",\"pa:pa:ka\",\"Down\",\"40\",\"6\",\"3\",\"7\",\"P\",\"C\",\"83\"
\"\",\"\",\"approach-retreat\",\"87\",\"858925\",\"0.0-87.0\",\"\",\"\",\"1-2\",\"4817\",\"39\",\"1\",\"Training\",\"Stims/Figures/87-C-20-4.bmp\",\"nala:la\",\"Left\",\"39\",\"6\",\"4\",\"7\",\"S\",\"C\",\"84\"
\"\",\"\",\"approach-retreat\",\"88\",\"866694\",\"0.0-88.0\",\"\",\"\",\"1-2\",\"6261\",\"39\",\"0\",\"Training\",\"Stims/Figures/87-J-10-4.bmp\",\"na:lala\",\"Left\",\"37\",\"6\",\"5\",\"7\",\"S\",\"C\",\"85\"
\"\",\"\",\"approach-retreat\",\"89\",\"874609\",\"0.0-89.0\",\"\",\"\",\"1-2\",\"6408\",\"37\",\"1\",\"Training\",\"Stims/Figures/85-J-0-2.bmp\",\"tapa:ka\",\"Left\",\"37\",\"6\",\"6\",\"7\",\"P\",\"C\",\"86\"
\"\",\"\",\"approach-retreat\",\"90\",\"882641\",\"0.0-90.0\",\"\",\"\",\"1-2\",\"6525\",\"37\",\"0\",\"Training\",\"Stims/Figures/118-C-20-2.bmp\",\"takaka\",\"Left\",\"39\",\"6\",\"7\",\"7\",\"P\",\"C\",\"87\"
\"\",\"\",\"approach-retreat\",\"91\",\"894975\",\"0.0-91.0\",\"\",\"\",\"1-2\",\"10826\",\"38\",\"1\",\"Training\",\"Stims/Figures/74-C-20-4.bmp\",\"mamala\",\"Down\",\"38\",\"6\",\"8\",\"7\",\"S\",\"C\",\"88\"
\"\",\"\",\"approach-retreat\",\"92\",\"902574\",\"0.0-92.0\",\"\",\"\",\"1-2\",\"6091\",\"37\",\"1\",\"Training\",\"Stims/Figures/86-C-30-1.bmp\",\"takata\",\"Right\",\"37\",\"6\",\"9\",\"7\",\"P\",\"C\",\"89\"
\"\",\"\",\"approach-retreat\",\"93\",\"922470\",\"0.0-93.0\",\"\",\"\",\"1-2\",\"18389\",\"39\",\"1\",\"Training\",\"Stims/Figures/111-J-10-3.bmp\",\"ma:lana\",\"Right\",\"39\",\"6\",\"10\",\"7\",\"S\",\"C\",\"90\"
\"\",\"\",\"approach-retreat\",\"94\",\"929144\",\"0.0-94.0\",\"\",\"\",\"1-2\",\"5167\",\"39\",\"1\",\"Training\",\"Stims/Figures/118-J-0-2.bmp\",\"ta:kata\",\"Right\",\"39\",\"6\",\"11\",\"7\",\"P\",\"C\",\"91\"
\"\",\"\",\"approach-retreat\",\"95\",\"937092\",\"0.0-95.0\",\"\",\"\",\"1-2\",\"6443\",\"38\",\"1\",\"Training\",\"Stims/Figures/85-C-20-2.bmp\",\"taka:ta\",\"Down\",\"38\",\"6\",\"12\",\"7\",\"P\",\"C\",\"92\"
\"\",\"\",\"approach-retreat\",\"96\",\"944980\",\"0.0-96.0\",\"\",\"\",\"1-2\",\"6379\",\"38\",\"1\",\"Training\",\"Stims/Figures/57-J-0-1.bmp\",\"ta:ka:ta\",\"Up\",\"38\",\"6\",\"13\",\"7\",\"P\",\"C\",\"93\"
\"\",\"\",\"approach-retreat\",\"97\",\"957887\",\"0.0-97.0\",\"\",\"\",\"1-2\",\"11400\",\"38\",\"1\",\"Training\",\"Stims/Figures/128-J-10-3.bmp\",\"mala:na\",\"Up\",\"38\",\"6\",\"14\",\"7\",\"S\",\"C\",\"94\"
\"\",\"\",\"approach-retreat\",\"98\",\"964754\",\"0.0-98.0\",\"\",\"\",\"1-2\",\"5358\",\"40\",\"1\",\"Training\",\"Stims/Figures/57-C-30-1.bmp\",\"papa:ta\",\"Up\",\"40\",\"6\",\"15\",\"7\",\"P\",\"C\",\"95\"
\"\",\"\",\"approach-retreat\",\"99\",\"974588\",\"0.0-99.0\",\"\",\"\",\"1-2\",\"8325\",\"37\",\"1\",\"Training\",\"Stims/Figures/111-C-30-3.bmp\",\"ma:ma:na\",\"Right\",\"37\",\"6\",\"16\",\"7\",\"S\",\"C\",\"96\"
\"\",\"\",\"approach-retreat\",\"100\",\"982323\",\"0.0-100.0\",\"\",\"\",\"1-2\",\"6228\",\"38\",\"1\",\"Training\",\"Stims/Figures/57-C-30-1.bmp\",\"papa:ta\",\"Down\",\"38\",\"7\",\"1\",\"7\",\"P\",\"C\",\"97\"
\"\",\"\",\"approach-retreat\",\"101\",\"992674\",\"0.0-101.0\",\"\",\"\",\"1-2\",\"8844\",\"38\",\"1\",\"Training\",\"Stims/Figures/118-J-0-2.bmp\",\"ta:kata\",\"Up\",\"38\",\"7\",\"2\",\"7\",\"P\",\"C\",\"98\"
\"\",\"\",\"approach-retreat\",\"102\",\"999844\",\"0.0-102.0\",\"\",\"\",\"1-2\",\"5662\",\"38\",\"1\",\"Training\",\"Stims/Figures/85-J-0-2.bmp\",\"tapa:ka\",\"Up\",\"38\",\"7\",\"3\",\"7\",\"P\",\"C\",\"99\"
\"\",\"\",\"approach-retreat\",\"103\",\"1007391\",\"0.0-103.0\",\"\",\"\",\"1-2\",\"6040\",\"39\",\"1\",\"Training\",\"Stims/Figures/86-C-30-1.bmp\",\"takata\",\"Left\",\"39\",\"7\",\"4\",\"7\",\"P\",\"C\",\"100\"
\"\",\"\",\"approach-retreat\",\"104\",\"1015789\",\"0.0-104.0\",\"\",\"\",\"1-2\",\"6890\",\"37\",\"1\",\"Training\",\"Stims/Figures/111-C-30-3.bmp\",\"ma:ma:na\",\"Right\",\"37\",\"7\",\"5\",\"7\",\"S\",\"C\",\"101\"
\"\",\"\",\"approach-retreat\",\"105\",\"1025816\",\"0.0-105.0\",\"\",\"\",\"1-2\",\"8518\",\"39\",\"1\",\"Training\",\"Stims/Figures/87-J-10-4.bmp\",\"na:lala\",\"Right\",\"39\",\"7\",\"6\",\"7\",\"S\",\"C\",\"102\"
\"\",\"\",\"approach-retreat\",\"106\",\"1037030\",\"0.0-106.0\",\"\",\"\",\"1-2\",\"9707\",\"39\",\"1\",\"Training\",\"Stims/Figures/118-C-20-2.bmp\",\"takaka\",\"Left\",\"39\",\"7\",\"7\",\"7\",\"P\",\"C\",\"103\"
\"\",\"\",\"approach-retreat\",\"107\",\"1046220\",\"0.0-107.0\",\"\",\"\",\"1-2\",\"7683\",\"39\",\"1\",\"Training\",\"Stims/Figures/74-C-20-4.bmp\",\"mamala\",\"Left\",\"39\",\"7\",\"8\",\"7\",\"S\",\"C\",\"104\"
\"\",\"\",\"approach-retreat\",\"108\",\"1053584\",\"0.0-108.0\",\"\",\"\",\"1-2\",\"5857\",\"39\",\"1\",\"Training\",\"Stims/Figures/86-J-0-1.bmp\",\"pa:pa:ka\",\"Right\",\"39\",\"7\",\"9\",\"7\",\"P\",\"C\",\"105\"
\"\",\"\",\"approach-retreat\",\"109\",\"1062268\",\"0.0-109.0\",\"\",\"\",\"1-2\",\"7177\",\"37\",\"1\",\"Training\",\"Stims/Figures/128-C-30-3.bmp\",\"mala:la\",\"Right\",\"37\",\"7\",\"10\",\"7\",\"S\",\"C\",\"106\"
\"\",\"\",\"approach-retreat\",\"110\",\"1070851\",\"0.0-110.0\",\"\",\"\",\"1-2\",\"7074\",\"40\",\"1\",\"Training\",\"Stims/Figures/111-J-10-3.bmp\",\"ma:lana\",\"Down\",\"40\",\"7\",\"11\",\"7\",\"S\",\"C\",\"107\"
\"\",\"\",\"approach-retreat\",\"111\",\"1085432\",\"0.0-111.0\",\"\",\"\",\"1-2\",\"13073\",\"38\",\"1\",\"Training\",\"Stims/Figures/87-C-20-4.bmp\",\"nala:la\",\"Down\",\"38\",\"7\",\"12\",\"7\",\"S\",\"C\",\"108\"
\"\",\"\",\"approach-retreat\",\"112\",\"1100838\",\"0.0-112.0\",\"\",\"\",\"1-2\",\"13894\",\"40\",\"1\",\"Training\",\"Stims/Figures/85-C-20-2.bmp\",\"taka:ta\",\"Up\",\"40\",\"7\",\"13\",\"7\",\"P\",\"C\",\"109\"
\"\",\"\",\"approach-retreat\",\"113\",\"1120114\",\"0.0-113.0\",\"\",\"\",\"1-2\",\"17765\",\"37\",\"1\",\"Training\",\"Stims/Figures/128-J-10-3.bmp\",\"mala:na\",\"Left\",\"37\",\"7\",\"14\",\"7\",\"S\",\"C\",\"110\"
\"\",\"\",\"approach-retreat\",\"114\",\"1126427\",\"0.0-114.0\",\"\",\"\",\"1-2\",\"4806\",\"38\",\"1\",\"Training\",\"Stims/Figures/57-J-0-1.bmp\",\"ta:ka:ta\",\"Up\",\"38\",\"7\",\"15\",\"7\",\"P\",\"C\",\"111\"
\"\",\"\",\"approach-retreat\",\"115\",\"1134362\",\"0.0-115.0\",\"\",\"\",\"1-2\",\"6427\",\"40\",\"1\",\"Training\",\"Stims/Figures/74-J-10-4.bmp\",\"na:lana\",\"Down\",\"40\",\"7\",\"16\",\"7\",\"S\",\"C\",\"112\"
\"\",\"\",\"approach-retreat\",\"116\",\"1142707\",\"0.0-116.0\",\"\",\"\",\"1-2\",\"6837\",\"37\",\"1\",\"Training\",\"Stims/Figures/87-J-10-4.bmp\",\"na:lala\",\"Left\",\"37\",\"8\",\"1\",\"7\",\"S\",\"C\",\"113\"
\"\",\"\",\"approach-retreat\",\"117\",\"1149313\",\"0.0-117.0\",\"\",\"\",\"1-2\",\"5099\",\"40\",\"1\",\"Training\",\"Stims/Figures/111-J-10-3.bmp\",\"ma:lana\",\"Down\",\"40\",\"8\",\"2\",\"7\",\"S\",\"C\",\"114\"
\"\",\"\",\"approach-retreat\",\"118\",\"1156399\",\"0.0-118.0\",\"\",\"\",\"1-2\",\"5577\",\"40\",\"1\",\"Training\",\"Stims/Figures/57-J-0-1.bmp\",\"ta:ka:ta\",\"Down\",\"40\",\"8\",\"3\",\"7\",\"P\",\"C\",\"115\"
\"\",\"\",\"approach-retreat\",\"119\",\"1169414\",\"0.0-119.0\",\"\",\"\",\"1-2\",\"11507\",\"40\",\"1\",\"Training\",\"Stims/Figures/85-J-0-2.bmp\",\"tapa:ka\",\"Down\",\"40\",\"8\",\"4\",\"7\",\"P\",\"C\",\"116\"
\"\",\"\",\"approach-retreat\",\"120\",\"1175968\",\"0.0-120.0\",\"\",\"\",\"1-2\",\"5048\",\"37\",\"1\",\"Training\",\"Stims/Figures/86-J-0-1.bmp\",\"pa:pa:ka\",\"Left\",\"37\",\"8\",\"5\",\"7\",\"P\",\"C\",\"117\"
\"\",\"\",\"approach-retreat\",\"121\",\"1185645\",\"0.0-121.0\",\"\",\"\",\"1-2\",\"8171\",\"37\",\"1\",\"Training\",\"Stims/Figures/128-J-10-3.bmp\",\"mala:na\",\"Left\",\"37\",\"8\",\"6\",\"7\",\"S\",\"C\",\"118\"
\"\",\"\",\"approach-retreat\",\"122\",\"1195006\",\"0.0-122.0\",\"\",\"\",\"1-2\",\"7852\",\"40\",\"1\",\"Training\",\"Stims/Figures/111-C-30-3.bmp\",\"ma:ma:na\",\"Up\",\"40\",\"8\",\"7\",\"7\",\"S\",\"C\",\"119\"
\"\",\"\",\"approach-retreat\",\"123\",\"1202346\",\"0.0-123.0\",\"\",\"\",\"1-2\",\"5832\",\"37\",\"1\",\"Training\",\"Stims/Figures/118-C-20-2.bmp\",\"takaka\",\"Right\",\"37\",\"8\",\"8\",\"7\",\"P\",\"C\",\"120\"
\"\",\"\",\"approach-retreat\",\"124\",\"1209742\",\"0.0-124.0\",\"\",\"\",\"1-2\",\"5889\",\"40\",\"1\",\"Training\",\"Stims/Figures/87-C-20-4.bmp\",\"nala:la\",\"Up\",\"40\",\"8\",\"9\",\"7\",\"S\",\"C\",\"121\"
\"\",\"\",\"approach-retreat\",\"125\",\"1216289\",\"0.0-125.0\",\"\",\"\",\"1-2\",\"5038\",\"39\",\"1\",\"Training\",\"Stims/Figures/128-C-30-3.bmp\",\"mala:la\",\"Left\",\"39\",\"8\",\"10\",\"7\",\"S\",\"C\",\"122\"
\"\",\"\",\"approach-retreat\",\"126\",\"1230703\",\"0.0-126.0\",\"\",\"\",\"1-2\",\"12905\",\"37\",\"1\",\"Training\",\"Stims/Figures/74-C-20-4.bmp\",\"mamala\",\"Right\",\"37\",\"8\",\"11\",\"7\",\"S\",\"C\",\"123\"
\"\",\"\",\"approach-retreat\",\"127\",\"1242204\",\"0.0-127.0\",\"\",\"\",\"1-2\",\"9994\",\"38\",\"1\",\"Training\",\"Stims/Figures/118-J-0-2.bmp\",\"ta:kata\",\"Up\",\"38\",\"8\",\"12\",\"7\",\"P\",\"C\",\"124\"
\"\",\"\",\"approach-retreat\",\"128\",\"1249565\",\"0.0-128.0\",\"\",\"\",\"1-2\",\"5852\",\"38\",\"1\",\"Training\",\"Stims/Figures/74-J-10-4.bmp\",\"na:lana\",\"Up\",\"38\",\"8\",\"13\",\"7\",\"S\",\"C\",\"125\"
\"\",\"\",\"approach-retreat\",\"129\",\"1258426\",\"0.0-129.0\",\"\",\"\",\"1-2\",\"7354\",\"37\",\"1\",\"Training\",\"Stims/Figures/85-C-20-2.bmp\",\"taka:ta\",\"Right\",\"37\",\"8\",\"14\",\"7\",\"P\",\"C\",\"126\"
\"\",\"\",\"approach-retreat\",\"130\",\"1264681\",\"0.0-130.0\",\"\",\"\",\"1-2\",\"4747\",\"37\",\"1\",\"Training\",\"Stims/Figures/86-C-30-1.bmp\",\"takata\",\"Right\",\"37\",\"8\",\"15\",\"7\",\"P\",\"C\",\"127\"
\"\",\"\",\"approach-retreat\",\"131\",\"1272419\",\"0.0-131.0\",\"\",\"\",\"1-2\",\"6230\",\"38\",\"1\",\"Training\",\"Stims/Figures/57-C-30-1.bmp\",\"papa:ta\",\"Down\",\"38\",\"8\",\"16\",\"7\",\"P\",\"C\",\"128\"
\"\",\"\",\"approach-retreat\",\"132\",\"1286122\",\"0.0-132.0\",\"\",\"\",\"1-2\",\"12195\",\"37\",\"1\",\"Training\",\"Stims/Figures/87-J-10-4.bmp\",\"na:lala\",\"Left\",\"37\",\"9\",\"1\",\"7\",\"S\",\"C\",\"129\"
\"\",\"\",\"approach-retreat\",\"133\",\"1301866\",\"0.0-133.0\",\"\",\"\",\"1-2\",\"14235\",\"38\",\"1\",\"Training\",\"Stims/Figures/57-J-0-1.bmp\",\"ta:ka:ta\",\"Up\",\"38\",\"9\",\"2\",\"7\",\"P\",\"C\",\"130\"
\"\",\"\",\"approach-retreat\",\"134\",\"1309107\",\"0.0-134.0\",\"\",\"\",\"1-2\",\"5734\",\"37\",\"1\",\"Training\",\"Stims/Figures/85-J-0-2.bmp\",\"tapa:ka\",\"Left\",\"37\",\"9\",\"3\",\"7\",\"P\",\"C\",\"131\"
\"\",\"\",\"approach-retreat\",\"135\",\"1368659\",\"0.0-135.0\",\"\",\"\",\"1-2\",\"58043\",\"38\",\"1\",\"Training\",\"Stims/Figures/111-C-30-3.bmp\",\"ma:ma:na\",\"Down\",\"38\",\"9\",\"4\",\"7\",\"S\",\"C\",\"132\"
\"\",\"\",\"approach-retreat\",\"136\",\"1399402\",\"0.0-136.0\",\"\",\"\",\"1-2\",\"29234\",\"40\",\"1\",\"Training\",\"Stims/Figures/111-J-10-3.bmp\",\"ma:lana\",\"Down\",\"40\",\"9\",\"5\",\"7\",\"S\",\"C\",\"133\"
\"\",\"\",\"approach-retreat\",\"137\",\"1418734\",\"0.0-137.0\",\"\",\"\",\"1-2\",\"17823\",\"40\",\"1\",\"Training\",\"Stims/Figures/128-C-30-3.bmp\",\"mala:la\",\"Up\",\"40\",\"9\",\"6\",\"7\",\"S\",\"C\",\"134\"
\"\",\"\",\"approach-retreat\",\"138\",\"1432482\",\"0.0-138.0\",\"\",\"\",\"1-2\",\"12239\",\"40\",\"1\",\"Training\",\"Stims/Figures/128-J-10-3.bmp\",\"mala:na\",\"Down\",\"40\",\"9\",\"7\",\"7\",\"S\",\"C\",\"135\"
\"\",\"\",\"approach-retreat\",\"139\",\"1444245\",\"0.0-139.0\",\"\",\"\",\"1-2\",\"10255\",\"39\",\"1\",\"Training\",\"Stims/Figures/86-J-0-1.bmp\",\"pa:pa:ka\",\"Right\",\"39\",\"9\",\"8\",\"7\",\"P\",\"C\",\"136\"
\"\",\"\",\"approach-retreat\",\"140\",\"1462943\",\"0.0-140.0\",\"\",\"\",\"1-2\",\"17186\",\"40\",\"1\",\"Training\",\"Stims/Figures/74-C-20-4.bmp\",\"mamala\",\"Up\",\"40\",\"9\",\"9\",\"7\",\"S\",\"C\",\"137\"
\"\",\"\",\"approach-retreat\",\"141\",\"1474973\",\"0.0-141.0\",\"\",\"\",\"1-2\",\"10523\",\"38\",\"0\",\"Training\",\"Stims/Figures/74-J-10-4.bmp\",\"na:lana\",\"Down\",\"40\",\"9\",\"10\",\"7\",\"S\",\"C\",\"138\"
\"\",\"\",\"approach-retreat\",\"142\",\"1489162\",\"0.0-142.0\",\"\",\"\",\"1-2\",\"12682\",\"39\",\"1\",\"Training\",\"Stims/Figures/87-C-20-4.bmp\",\"nala:la\",\"Left\",\"39\",\"9\",\"11\",\"7\",\"S\",\"C\",\"139\"
\"\",\"\",\"approach-retreat\",\"143\",\"1501718\",\"0.0-143.0\",\"\",\"\",\"1-2\",\"11047\",\"37\",\"1\",\"Training\",\"Stims/Figures/86-C-30-1.bmp\",\"takata\",\"Right\",\"37\",\"9\",\"12\",\"7\",\"P\",\"C\",\"140\"
\"\",\"\",\"approach-retreat\",\"144\",\"1513499\",\"0.0-144.0\",\"\",\"\",\"1-2\",\"10275\",\"37\",\"1\",\"Training\",\"Stims/Figures/85-C-20-2.bmp\",\"taka:ta\",\"Right\",\"37\",\"9\",\"13\",\"7\",\"P\",\"C\",\"141\"
\"\",\"\",\"approach-retreat\",\"145\",\"1525762\",\"0.0-145.0\",\"\",\"\",\"1-2\",\"10756\",\"37\",\"1\",\"Training\",\"Stims/Figures/57-C-30-1.bmp\",\"papa:ta\",\"Right\",\"37\",\"9\",\"14\",\"7\",\"P\",\"C\",\"142\"
\"\",\"\",\"approach-retreat\",\"146\",\"1536831\",\"0.0-146.0\",\"\",\"\",\"1-2\",\"9561\",\"38\",\"1\",\"Training\",\"Stims/Figures/118-J-0-2.bmp\",\"ta:kata\",\"Up\",\"38\",\"9\",\"15\",\"7\",\"P\",\"C\",\"143\"
\"\",\"\",\"approach-retreat\",\"147\",\"1553121\",\"0.0-147.0\",\"\",\"\",\"1-2\",\"14781\",\"39\",\"1\",\"Training\",\"Stims/Figures/118-C-20-2.bmp\",\"takaka\",\"Left\",\"39\",\"9\",\"16\",\"7\",\"P\",\"C\",\"144\"
\"15314\",\"\",\"instructions\",\"148\",\"1568435\",\"0.0-148.0\",\"[{\"\"page_index\"\":0,\"\"viewing_time\"\":15314}]\",\"\",\"\",\"\",\"\",\"\",\"\",\"\",\"\",\"\",\"\",\"\",\"\",\"\",\"\",\"\",\"\"
\"\",\"\",\"approach-retreat\",\"149\",\"1578931\",\"0.0-149.0\",\"\",\"\",\"1-2\",\"8989\",\"40\",\"1\",\"Testing\",\"Stims/Figures/85-C-20-2.bmp\",\"taka:ta\",\"Up\",\"40\",\"1\",\"1\",\"7\",\"P\",\"C\",\"1\"
\"\",\"\",\"approach-retreat\",\"150\",\"1585740\",\"0.0-150.0\",\"\",\"\",\"1-2\",\"5301\",\"40\",\"1\",\"Testing\",\"Stims/Figures/102-J-10-4.bmp\",\"ma:mana\",\"Down\",\"40\",\"1\",\"2\",\"7\",\"S\",\"C\",\"2\"
\"\",\"\",\"approach-retreat\",\"151\",\"1608853\",\"0.0-151.0\",\"\",\"\",\"1-2\",\"21605\",\"37\",\"0\",\"Testing\",\"Stims/Figures/102-C-20-4.bmp\",\"nala:na\",\"Left\",\"39\",\"1\",\"3\",\"7\",\"S\",\"C\",\"3\"
\"\",\"\",\"approach-retreat\",\"152\",\"1615277\",\"0.0-152.0\",\"\",\"\",\"1-2\",\"4918\",\"38\",\"1\",\"Testing\",\"Stims/Figures/74-J-10-4.bmp\",\"na:lana\",\"Up\",\"38\",\"1\",\"4\",\"7\",\"S\",\"C\",\"4\"
\"\",\"\",\"approach-retreat\",\"153\",\"1621471\",\"0.0-153.0\",\"\",\"\",\"1-2\",\"4689\",\"38\",\"1\",\"Testing\",\"Stims/Figures/128-J-10-3.bmp\",\"mala:na\",\"Up\",\"38\",\"1\",\"5\",\"7\",\"S\",\"C\",\"5\"
\"\",\"\",\"approach-retreat\",\"154\",\"1628433\",\"0.0-154.0\",\"\",\"\",\"1-2\",\"5455\",\"37\",\"1\",\"Testing\",\"Stims/Figures/111-C-30-3.bmp\",\"ma:ma:na\",\"Right\",\"37\",\"1\",\"6\",\"7\",\"S\",\"C\",\"6\"
\"\",\"\",\"approach-retreat\",\"155\",\"1635995\",\"0.0-155.0\",\"\",\"\",\"1-2\",\"6057\",\"40\",\"1\",\"Testing\",\"Stims/Figures/94-J-0-2.bmp\",\"ta:pa:ta\",\"Down\",\"40\",\"1\",\"7\",\"7\",\"P\",\"C\",\"7\"
\"\",\"\",\"approach-retreat\",\"156\",\"1642697\",\"0.0-156.0\",\"\",\"\",\"1-2\",\"5197\",\"38\",\"1\",\"Testing\",\"Stims/Figures/57-J-0-1.bmp\",\"ta:ka:ta\",\"Up\",\"38\",\"1\",\"8\",\"7\",\"P\",\"C\",\"8\"
\"\",\"\",\"approach-retreat\",\"157\",\"1649020\",\"0.0-157.0\",\"\",\"\",\"1-2\",\"4815\",\"39\",\"1\",\"Testing\",\"Stims/Figures/118-J-0-2.bmp\",\"ta:kata\",\"Right\",\"39\",\"1\",\"9\",\"7\",\"P\",\"C\",\"9\"
\"\",\"\",\"approach-retreat\",\"158\",\"1655370\",\"0.0-158.0\",\"\",\"\",\"1-2\",\"4844\",\"38\",\"1\",\"Testing\",\"Stims/Figures/86-J-0-1.bmp\",\"pa:pa:ka\",\"Up\",\"38\",\"1\",\"10\",\"7\",\"P\",\"C\",\"10\"
\"\",\"\",\"approach-retreat\",\"159\",\"1661654\",\"0.0-159.0\",\"\",\"\",\"1-2\",\"4776\",\"39\",\"1\",\"Testing\",\"Stims/Figures/27-J-0-1.bmp\",\"ta:pata\",\"Right\",\"39\",\"1\",\"11\",\"7\",\"P\",\"C\",\"11\"
\"\",\"\",\"approach-retreat\",\"160\",\"1669140\",\"0.0-160.0\",\"\",\"\",\"1-2\",\"5980\",\"38\",\"1\",\"Testing\",\"Stims/Figures/118-C-20-2.bmp\",\"takaka\",\"Down\",\"38\",\"1\",\"12\",\"7\",\"P\",\"C\",\"12\"
\"\",\"\",\"approach-retreat\",\"161\",\"1679491\",\"0.0-161.0\",\"\",\"\",\"1-2\",\"8842\",\"39\",\"1\",\"Testing\",\"Stims/Figures/128-C-30-3.bmp\",\"mala:la\",\"Left\",\"39\",\"1\",\"13\",\"7\",\"S\",\"C\",\"13\"
\"\",\"\",\"approach-retreat\",\"162\",\"1687892\",\"0.0-162.0\",\"\",\"\",\"1-2\",\"6895\",\"37\",\"1\",\"Testing\",\"Stims/Figures/144-J-10-3.bmp\",\"malala\",\"Left\",\"37\",\"1\",\"14\",\"7\",\"S\",\"C\",\"14\"
\"\",\"\",\"approach-retreat\",\"163\",\"1694219\",\"0.0-163.0\",\"\",\"\",\"1-2\",\"4821\",\"39\",\"1\",\"Testing\",\"Stims/Figures/27-C-30-1.bmp\",\"pa:kata\",\"Left\",\"39\",\"1\",\"15\",\"7\",\"P\",\"C\",\"15\"
\"\",\"\",\"approach-retreat\",\"164\",\"1700458\",\"0.0-164.0\",\"\",\"\",\"1-2\",\"4733\",\"40\",\"1\",\"Testing\",\"Stims/Figures/87-J-10-4.bmp\",\"na:lala\",\"Down\",\"40\",\"1\",\"16\",\"7\",\"S\",\"C\",\"16\"
\"\",\"\",\"approach-retreat\",\"165\",\"1706850\",\"0.0-165.0\",\"\",\"\",\"1-2\",\"4883\",\"37\",\"1\",\"Testing\",\"Stims/Figures/87-C-20-4.bmp\",\"nala:la\",\"Right\",\"37\",\"1\",\"17\",\"7\",\"S\",\"C\",\"17\"
\"\",\"\",\"approach-retreat\",\"166\",\"1719141\",\"0.0-166.0\",\"\",\"\",\"1-2\",\"10783\",\"39\",\"1\",\"Testing\",\"Stims/Figures/74-C-20-4.bmp\",\"mamala\",\"Left\",\"39\",\"1\",\"18\",\"7\",\"S\",\"C\",\"18\"
\"\",\"\",\"approach-retreat\",\"167\",\"1726235\",\"0.0-167.0\",\"\",\"\",\"1-2\",\"5582\",\"38\",\"1\",\"Testing\",\"Stims/Figures/144-C-30-3.bmp\",\"na:ma:la\",\"Down\",\"38\",\"1\",\"19\",\"7\",\"S\",\"C\",\"19\"
\"\",\"\",\"approach-retreat\",\"168\",\"1732340\",\"0.0-168.0\",\"\",\"\",\"1-2\",\"4598\",\"37\",\"1\",\"Testing\",\"Stims/Figures/86-C-30-1.bmp\",\"takata\",\"Right\",\"37\",\"1\",\"20\",\"7\",\"P\",\"C\",\"20\"
\"\",\"\",\"approach-retreat\",\"169\",\"1738445\",\"0.0-169.0\",\"\",\"\",\"1-2\",\"4598\",\"37\",\"1\",\"Testing\",\"Stims/Figures/57-C-30-1.bmp\",\"papa:ta\",\"Right\",\"37\",\"1\",\"21\",\"7\",\"P\",\"C\",\"21\"
\"\",\"\",\"approach-retreat\",\"170\",\"1746483\",\"0.0-170.0\",\"\",\"\",\"1-2\",\"6532\",\"37\",\"1\",\"Testing\",\"Stims/Figures/111-J-10-3.bmp\",\"ma:lana\",\"Left\",\"37\",\"1\",\"22\",\"7\",\"S\",\"C\",\"22\"
\"\",\"\",\"approach-retreat\",\"171\",\"1754636\",\"0.0-171.0\",\"\",\"\",\"1-2\",\"6644\",\"40\",\"1\",\"Testing\",\"Stims/Figures/94-C-20-2.bmp\",\"pa:ka:ka\",\"Up\",\"40\",\"1\",\"23\",\"7\",\"P\",\"C\",\"23\"
\"\",\"\",\"approach-retreat\",\"172\",\"1760837\",\"0.0-172.0\",\"\",\"\",\"1-2\",\"4695\",\"40\",\"1\",\"Testing\",\"Stims/Figures/85-J-0-2.bmp\",\"tapa:ka\",\"Down\",\"40\",\"1\",\"24\",\"7\",\"P\",\"C\",\"24\"
\"\",\"\",\"approach-retreat\",\"173\",\"1769291\",\"0.0-173.0\",\"\",\"\",\"1-2\",\"6947\",\"38\",\"1\",\"Testing\",\"Stims/Figures/86-J-0-1.bmp\",\"pa:pa:ka\",\"Up\",\"38\",\"2\",\"1\",\"7\",\"P\",\"C\",\"25\"
\"\",\"\",\"approach-retreat\",\"174\",\"1776331\",\"0.0-174.0\",\"\",\"\",\"1-2\",\"5533\",\"40\",\"1\",\"Testing\",\"Stims/Figures/85-J-0-2.bmp\",\"tapa:ka\",\"Down\",\"40\",\"2\",\"2\",\"7\",\"P\",\"C\",\"26\"
\"\",\"\",\"approach-retreat\",\"175\",\"1786553\",\"0.0-175.0\",\"\",\"\",\"1-2\",\"8715\",\"39\",\"1\",\"Testing\",\"Stims/Figures/57-C-30-1.bmp\",\"papa:ta\",\"Left\",\"39\",\"2\",\"3\",\"7\",\"P\",\"C\",\"27\"
\"\",\"\",\"approach-retreat\",\"176\",\"1795234\",\"0.0-176.0\",\"\",\"\",\"1-2\",\"7175\",\"38\",\"1\",\"Testing\",\"Stims/Figures/102-C-20-4.bmp\",\"nala:na\",\"Down\",\"38\",\"2\",\"4\",\"7\",\"S\",\"C\",\"28\"
\"\",\"\",\"approach-retreat\",\"177\",\"1804199\",\"0.0-177.0\",\"\",\"\",\"1-2\",\"7458\",\"37\",\"1\",\"Testing\",\"Stims/Figures/87-C-20-4.bmp\",\"nala:la\",\"Right\",\"37\",\"2\",\"5\",\"7\",\"S\",\"C\",\"29\"
\"\",\"\",\"approach-retreat\",\"178\",\"1844954\",\"0.0-178.0\",\"\",\"\",\"1-2\",\"39247\",\"40\",\"0\",\"Testing\",\"Stims/Figures/111-J-10-3.bmp\",\"ma:lana\",\"Up\",\"38\",\"2\",\"6\",\"7\",\"S\",\"C\",\"30\"
\"\",\"\",\"approach-retreat\",\"179\",\"1854762\",\"0.0-179.0\",\"\",\"\",\"1-2\",\"8300\",\"37\",\"1\",\"Testing\",\"Stims/Figures/94-J-0-2.bmp\",\"ta:pa:ta\",\"Left\",\"37\",\"2\",\"7\",\"7\",\"P\",\"C\",\"31\"
\"\",\"\",\"approach-retreat\",\"180\",\"1862871\",\"0.0-180.0\",\"\",\"\",\"1-2\",\"6603\",\"39\",\"1\",\"Testing\",\"Stims/Figures/144-C-30-3.bmp\",\"na:ma:la\",\"Left\",\"39\",\"2\",\"8\",\"7\",\"S\",\"C\",\"32\"
\"\",\"\",\"approach-retreat\",\"181\",\"1870870\",\"0.0-181.0\",\"\",\"\",\"1-2\",\"6493\",\"39\",\"1\",\"Testing\",\"Stims/Figures/102-J-10-4.bmp\",\"ma:mana\",\"Right\",\"39\",\"2\",\"9\",\"7\",\"S\",\"C\",\"33\"
\"\",\"\",\"approach-retreat\",\"182\",\"1877909\",\"0.0-182.0\",\"\",\"\",\"1-2\",\"5533\",\"37\",\"1\",\"Testing\",\"Stims/Figures/94-C-20-2.bmp\",\"pa:ka:ka\",\"Right\",\"37\",\"2\",\"10\",\"7\",\"P\",\"C\",\"34\"
\"\",\"\",\"approach-retreat\",\"183\",\"1884264\",\"0.0-183.0\",\"\",\"\",\"1-2\",\"4848\",\"37\",\"1\",\"Testing\",\"Stims/Figures/86-C-30-1.bmp\",\"takata\",\"Right\",\"37\",\"2\",\"11\",\"7\",\"P\",\"C\",\"35\"
\"\",\"\",\"approach-retreat\",\"184\",\"1890976\",\"0.0-184.0\",\"\",\"\",\"1-2\",\"5206\",\"38\",\"1\",\"Testing\",\"Stims/Figures/111-C-30-3.bmp\",\"ma:ma:na\",\"Down\",\"38\",\"2\",\"12\",\"7\",\"S\",\"C\",\"36\"
\"\",\"\",\"approach-retreat\",\"185\",\"1898332\",\"0.0-185.0\",\"\",\"\",\"1-2\",\"5850\",\"37\",\"1\",\"Testing\",\"Stims/Figures/85-C-20-2.bmp\",\"taka:ta\",\"Right\",\"37\",\"2\",\"13\",\"7\",\"P\",\"C\",\"37\"
\"\",\"\",\"approach-retreat\",\"186\",\"1904663\",\"0.0-186.0\",\"\",\"\",\"1-2\",\"4824\",\"38\",\"1\",\"Testing\",\"Stims/Figures/128-C-30-3.bmp\",\"mala:la\",\"Down\",\"38\",\"2\",\"14\",\"7\",\"S\",\"C\",\"38\"
\"\",\"\",\"approach-retreat\",\"187\",\"1911924\",\"0.0-187.0\",\"\",\"\",\"1-2\",\"5752\",\"40\",\"1\",\"Testing\",\"Stims/Figures/27-C-30-1.bmp\",\"pa:kata\",\"Up\",\"40\",\"2\",\"15\",\"7\",\"P\",\"C\",\"39\"
\"\",\"\",\"approach-retreat\",\"188\",\"1923925\",\"0.0-188.0\",\"\",\"\",\"1-2\",\"10493\",\"40\",\"0\",\"Testing\",\"Stims/Figures/87-J-10-4.bmp\",\"na:lala\",\"Up\",\"38\",\"2\",\"16\",\"7\",\"S\",\"C\",\"40\"
\"\",\"\",\"approach-retreat\",\"189\",\"1935885\",\"0.0-189.0\",\"\",\"\",\"1-2\",\"10456\",\"37\",\"0\",\"Testing\",\"Stims/Figures/144-J-10-3.bmp\",\"malala\",\"Right\",\"39\",\"2\",\"17\",\"7\",\"S\",\"C\",\"41\"
\"\",\"\",\"approach-retreat\",\"190\",\"1945084\",\"0.0-190.0\",\"\",\"\",\"1-2\",\"7693\",\"40\",\"0\",\"Testing\",\"Stims/Figures/74-J-10-4.bmp\",\"na:lana\",\"Up\",\"38\",\"2\",\"18\",\"7\",\"S\",\"C\",\"42\"
\"\",\"\",\"approach-retreat\",\"191\",\"1951593\",\"0.0-191.0\",\"\",\"\",\"1-2\",\"5002\",\"39\",\"1\",\"Testing\",\"Stims/Figures/74-C-20-4.bmp\",\"mamala\",\"Left\",\"39\",\"2\",\"19\",\"7\",\"S\",\"C\",\"43\"
\"\",\"\",\"approach-retreat\",\"192\",\"1957860\",\"0.0-192.0\",\"\",\"\",\"1-2\",\"4762\",\"40\",\"1\",\"Testing\",\"Stims/Figures/27-J-0-1.bmp\",\"ta:pata\",\"Down\",\"40\",\"2\",\"20\",\"7\",\"P\",\"C\",\"44\"
\"\",\"\",\"approach-retreat\",\"193\",\"1964112\",\"0.0-193.0\",\"\",\"\",\"1-2\",\"4745\",\"40\",\"1\",\"Testing\",\"Stims/Figures/118-J-0-2.bmp\",\"ta:kata\",\"Down\",\"40\",\"2\",\"21\",\"7\",\"P\",\"C\",\"45\"
\"\",\"\",\"approach-retreat\",\"194\",\"1970531\",\"0.0-194.0\",\"\",\"\",\"1-2\",\"4914\",\"37\",\"1\",\"Testing\",\"Stims/Figures/57-J-0-1.bmp\",\"ta:ka:ta\",\"Left\",\"37\",\"2\",\"22\",\"7\",\"P\",\"C\",\"46\"
\"\",\"\",\"approach-retreat\",\"195\",\"1978976\",\"0.0-195.0\",\"\",\"\",\"1-2\",\"6938\",\"40\",\"0\",\"Testing\",\"Stims/Figures/128-J-10-3.bmp\",\"mala:na\",\"Up\",\"38\",\"2\",\"23\",\"7\",\"S\",\"C\",\"47\"
\"\",\"\",\"approach-retreat\",\"196\",\"1985633\",\"0.0-196.0\",\"\",\"\",\"1-2\",\"5150\",\"39\",\"1\",\"Testing\",\"Stims/Figures/118-C-20-2.bmp\",\"takaka\",\"Left\",\"39\",\"2\",\"24\",\"7\",\"P\",\"C\",\"48\"
\"\",\"\",\"approach-retreat\",\"197\",\"1994664\",\"0.0-197.0\",\"\",\"\",\"1-2\",\"7523\",\"37\",\"0\",\"Testing\",\"Stims/Figures/74-J-10-4.bmp\",\"na:lana\",\"Right\",\"39\",\"3\",\"1\",\"7\",\"S\",\"C\",\"49\"
\"\",\"\",\"approach-retreat\",\"198\",\"2000862\",\"0.0-198.0\",\"\",\"\",\"1-2\",\"4691\",\"40\",\"1\",\"Testing\",\"Stims/Figures/94-C-20-2.bmp\",\"pa:ka:ka\",\"Up\",\"40\",\"3\",\"2\",\"7\",\"P\",\"C\",\"50\"
\"\",\"\",\"approach-retreat\",\"199\",\"2007206\",\"0.0-199.0\",\"\",\"\",\"1-2\",\"4838\",\"38\",\"1\",\"Testing\",\"Stims/Figures/27-C-30-1.bmp\",\"pa:kata\",\"Down\",\"38\",\"3\",\"3\",\"7\",\"P\",\"C\",\"51\"
\"\",\"\",\"approach-retreat\",\"200\",\"2013920\",\"0.0-200.0\",\"\",\"\",\"1-2\",\"5207\",\"37\",\"1\",\"Testing\",\"Stims/Figures/144-C-30-3.bmp\",\"na:ma:la\",\"Right\",\"37\",\"3\",\"4\",\"7\",\"S\",\"C\",\"52\"
\"\",\"\",\"approach-retreat\",\"201\",\"2020439\",\"0.0-201.0\",\"\",\"\",\"1-2\",\"5012\",\"39\",\"1\",\"Testing\",\"Stims/Figures/128-C-30-3.bmp\",\"mala:la\",\"Left\",\"39\",\"3\",\"5\",\"7\",\"S\",\"C\",\"53\"
\"\",\"\",\"approach-retreat\",\"202\",\"2027090\",\"0.0-202.0\",\"\",\"\",\"1-2\",\"5144\",\"40\",\"1\",\"Testing\",\"Stims/Figures/118-J-0-2.bmp\",\"ta:kata\",\"Down\",\"40\",\"3\",\"6\",\"7\",\"P\",\"C\",\"54\"
\"\",\"\",\"approach-retreat\",\"203\",\"2033298\",\"0.0-203.0\",\"\",\"\",\"1-2\",\"4701\",\"39\",\"1\",\"Testing\",\"Stims/Figures/85-J-0-2.bmp\",\"tapa:ka\",\"Right\",\"39\",\"3\",\"7\",\"7\",\"P\",\"C\",\"55\"
\"\",\"\",\"approach-retreat\",\"204\",\"2040718\",\"0.0-204.0\",\"\",\"\",\"1-2\",\"5913\",\"39\",\"1\",\"Testing\",\"Stims/Figures/102-C-20-4.bmp\",\"nala:na\",\"Left\",\"39\",\"3\",\"8\",\"7\",\"S\",\"C\",\"56\"
\"\",\"\",\"approach-retreat\",\"205\",\"2049128\",\"0.0-205.0\",\"\",\"\",\"1-2\",\"6903\",\"40\",\"1\",\"Testing\",\"Stims/Figures/111-J-10-3.bmp\",\"ma:lana\",\"Down\",\"40\",\"3\",\"9\",\"7\",\"S\",\"C\",\"57\"
\"\",\"\",\"approach-retreat\",\"206\",\"2057363\",\"0.0-206.0\",\"\",\"\",\"1-2\",\"6729\",\"38\",\"1\",\"Testing\",\"Stims/Figures/57-J-0-1.bmp\",\"ta:ka:ta\",\"Up\",\"38\",\"3\",\"10\",\"7\",\"P\",\"C\",\"58\"
\"\",\"\",\"approach-retreat\",\"207\",\"2063679\",\"0.0-207.0\",\"\",\"\",\"1-2\",\"4809\",\"38\",\"1\",\"Testing\",\"Stims/Figures/57-C-30-1.bmp\",\"papa:ta\",\"Down\",\"38\",\"3\",\"11\",\"7\",\"P\",\"C\",\"59\"
\"\",\"\",\"approach-retreat\",\"208\",\"2071315\",\"0.0-208.0\",\"\",\"\",\"1-2\",\"6129\",\"39\",\"1\",\"Testing\",\"Stims/Figures/111-C-30-3.bmp\",\"ma:ma:na\",\"Left\",\"39\",\"3\",\"12\",\"7\",\"S\",\"C\",\"60\"
\"\",\"\",\"approach-retreat\",\"209\",\"2078477\",\"0.0-209.0\",\"\",\"\",\"1-2\",\"5657\",\"38\",\"1\",\"Testing\",\"Stims/Figures/87-C-20-4.bmp\",\"nala:la\",\"Down\",\"38\",\"3\",\"13\",\"7\",\"S\",\"C\",\"61\"
\"\",\"\",\"approach-retreat\",\"210\",\"2105202\",\"0.0-210.0\",\"\",\"\",\"1-2\",\"25220\",\"37\",\"1\",\"Testing\",\"Stims/Figures/85-C-20-2.bmp\",\"taka:ta\",\"Right\",\"37\",\"3\",\"14\",\"7\",\"P\",\"C\",\"62\"
\"\",\"\",\"approach-retreat\",\"211\",\"2114798\",\"0.0-211.0\",\"\",\"\",\"1-2\",\"8088\",\"38\",\"1\",\"Testing\",\"Stims/Figures/86-J-0-1.bmp\",\"pa:pa:ka\",\"Up\",\"38\",\"3\",\"15\",\"7\",\"P\",\"C\",\"63\"
\"\",\"\",\"approach-retreat\",\"212\",\"2122079\",\"0.0-212.0\",\"\",\"\",\"1-2\",\"5774\",\"39\",\"1\",\"Testing\",\"Stims/Figures/27-J-0-1.bmp\",\"ta:pata\",\"Right\",\"39\",\"3\",\"16\",\"7\",\"P\",\"C\",\"64\"
\"\",\"\",\"approach-retreat\",\"213\",\"2137648\",\"0.0-213.0\",\"\",\"\",\"1-2\",\"14063\",\"40\",\"1\",\"Testing\",\"Stims/Figures/74-C-20-4.bmp\",\"mamala\",\"Up\",\"40\",\"3\",\"17\",\"7\",\"S\",\"C\",\"65\"
\"\",\"\",\"approach-retreat\",\"214\",\"2156557\",\"0.0-214.0\",\"\",\"\",\"1-2\",\"17403\",\"39\",\"0\",\"Testing\",\"Stims/Figures/144-J-10-3.bmp\",\"malala\",\"Left\",\"37\",\"3\",\"18\",\"7\",\"S\",\"C\",\"66\"
\"\",\"\",\"approach-retreat\",\"215\",\"2164267\",\"0.0-215.0\",\"\",\"\",\"1-2\",\"6204\",\"39\",\"0\",\"Testing\",\"Stims/Figures/102-J-10-4.bmp\",\"ma:mana\",\"Left\",\"37\",\"3\",\"19\",\"7\",\"S\",\"C\",\"67\"
\"\",\"\",\"approach-retreat\",\"216\",\"2174975\",\"0.0-216.0\",\"\",\"\",\"1-2\",\"9200\",\"40\",\"1\",\"Testing\",\"Stims/Figures/86-C-30-1.bmp\",\"takata\",\"Up\",\"40\",\"3\",\"20\",\"7\",\"P\",\"C\",\"68\"
\"\",\"\",\"approach-retreat\",\"217\",\"2181007\",\"0.0-217.0\",\"\",\"\",\"1-2\",\"4527\",\"40\",\"1\",\"Testing\",\"Stims/Figures/118-C-20-2.bmp\",\"takaka\",\"Up\",\"40\",\"3\",\"21\",\"7\",\"P\",\"C\",\"69\"
\"\",\"\",\"approach-retreat\",\"218\",\"2194612\",\"0.0-218.0\",\"\",\"\",\"1-2\",\"12098\",\"37\",\"0\",\"Testing\",\"Stims/Figures/128-J-10-3.bmp\",\"mala:na\",\"Right\",\"39\",\"3\",\"22\",\"7\",\"S\",\"C\",\"70\"
\"\",\"\",\"approach-retreat\",\"219\",\"2202762\",\"0.0-219.0\",\"\",\"\",\"1-2\",\"6642\",\"38\",\"0\",\"Testing\",\"Stims/Figures/87-J-10-4.bmp\",\"na:lala\",\"Down\",\"40\",\"3\",\"23\",\"7\",\"S\",\"C\",\"71\"
\"\",\"\",\"approach-retreat\",\"220\",\"2209873\",\"0.0-220.0\",\"\",\"\",\"1-2\",\"5605\",\"37\",\"1\",\"Testing\",\"Stims/Figures/94-J-0-2.bmp\",\"ta:pa:ta\",\"Left\",\"37\",\"3\",\"24\",\"7\",\"P\",\"C\",\"72\"
\"\",\"\",\"approach-retreat\",\"221\",\"2216459\",\"0.0-221.0\",\"\",\"\",\"1-2\",\"5078\",\"37\",\"1\",\"Testing\",\"Stims/Figures/87-C-20-4.bmp\",\"nala:la\",\"Right\",\"37\",\"4\",\"1\",\"7\",\"S\",\"C\",\"73\"
\"\",\"\",\"approach-retreat\",\"222\",\"2240294\",\"0.0-222.0\",\"\",\"\",\"1-2\",\"22329\",\"39\",\"1\",\"Testing\",\"Stims/Figures/102-C-20-4.bmp\",\"nala:na\",\"Left\",\"39\",\"4\",\"2\",\"7\",\"S\",\"C\",\"74\"
\"\",\"\",\"approach-retreat\",\"223\",\"2248713\",\"0.0-223.0\",\"\",\"\",\"1-2\",\"6913\",\"40\",\"1\",\"Testing\",\"Stims/Figures/94-C-20-2.bmp\",\"pa:ka:ka\",\"Up\",\"40\",\"4\",\"3\",\"7\",\"P\",\"C\",\"75\"
\"\",\"\",\"approach-retreat\",\"224\",\"2260258\",\"0.0-224.0\",\"\",\"\",\"1-2\",\"10039\",\"39\",\"1\",\"Testing\",\"Stims/Figures/27-J-0-1.bmp\",\"ta:pata\",\"Right\",\"39\",\"4\",\"4\",\"7\",\"P\",\"C\",\"76\"
\"\",\"\",\"approach-retreat\",\"225\",\"2270533\",\"0.0-225.0\",\"\",\"\",\"1-2\",\"8768\",\"40\",\"1\",\"Testing\",\"Stims/Figures/144-J-10-3.bmp\",\"malala\",\"Down\",\"40\",\"4\",\"5\",\"7\",\"S\",\"C\",\"77\"
\"\",\"\",\"approach-retreat\",\"226\",\"2281629\",\"0.0-226.0\",\"\",\"\",\"1-2\",\"9589\",\"40\",\"1\",\"Testing\",\"Stims/Figures/118-J-0-2.bmp\",\"ta:kata\",\"Down\",\"40\",\"4\",\"6\",\"7\",\"P\",\"C\",\"78\"
\"\",\"\",\"approach-retreat\",\"227\",\"2292323\",\"0.0-227.0\",\"\",\"\",\"1-2\",\"9187\",\"38\",\"1\",\"Testing\",\"Stims/Figures/118-C-20-2.bmp\",\"takaka\",\"Down\",\"38\",\"4\",\"7\",\"7\",\"P\",\"C\",\"79\"
\"\",\"\",\"approach-retreat\",\"228\",\"2302020\",\"0.0-228.0\",\"\",\"\",\"1-2\",\"8191\",\"39\",\"0\",\"Testing\",\"Stims/Figures/128-J-10-3.bmp\",\"mala:na\",\"Left\",\"37\",\"4\",\"8\",\"7\",\"S\",\"C\",\"80\"
\"\",\"\",\"approach-retreat\",\"229\",\"2308463\",\"0.0-229.0\",\"\",\"\",\"1-2\",\"4937\",\"37\",\"1\",\"Testing\",\"Stims/Figures/57-C-30-1.bmp\",\"papa:ta\",\"Right\",\"37\",\"4\",\"9\",\"7\",\"P\",\"C\",\"81\"
\"\",\"\",\"approach-retreat\",\"230\",\"2317839\",\"0.0-230.0\",\"\",\"\",\"1-2\",\"7870\",\"38\",\"1\",\"Testing\",\"Stims/Figures/74-C-20-4.bmp\",\"mamala\",\"Down\",\"38\",\"4\",\"10\",\"7\",\"S\",\"C\",\"82\"
\"\",\"\",\"approach-retreat\",\"231\",\"2331978\",\"0.0-231.0\",\"\",\"\",\"1-2\",\"12632\",\"37\",\"1\",\"Testing\",\"Stims/Figures/144-C-30-3.bmp\",\"na:ma:la\",\"Right\",\"37\",\"4\",\"11\",\"7\",\"S\",\"C\",\"83\"
\"\",\"\",\"approach-retreat\",\"232\",\"2338806\",\"0.0-232.0\",\"\",\"\",\"1-2\",\"5322\",\"38\",\"1\",\"Testing\",\"Stims/Figures/111-C-30-3.bmp\",\"ma:ma:na\",\"Down\",\"38\",\"4\",\"12\",\"7\",\"S\",\"C\",\"84\"
\"\",\"\",\"approach-retreat\",\"233\",\"2345372\",\"0.0-233.0\",\"\",\"\",\"1-2\",\"5060\",\"38\",\"1\",\"Testing\",\"Stims/Figures/57-J-0-1.bmp\",\"ta:ka:ta\",\"Up\",\"38\",\"4\",\"13\",\"7\",\"P\",\"C\",\"85\"
\"\",\"\",\"approach-retreat\",\"234\",\"2351986\",\"0.0-234.0\",\"\",\"\",\"1-2\",\"5108\",\"39\",\"1\",\"Testing\",\"Stims/Figures/85-C-20-2.bmp\",\"taka:ta\",\"Left\",\"39\",\"4\",\"14\",\"7\",\"P\",\"C\",\"86\"
\"\",\"\",\"approach-retreat\",\"235\",\"2358778\",\"0.0-235.0\",\"\",\"\",\"1-2\",\"5285\",\"40\",\"1\",\"Testing\",\"Stims/Figures/86-C-30-1.bmp\",\"takata\",\"Up\",\"40\",\"4\",\"15\",\"7\",\"P\",\"C\",\"87\"
\"\",\"\",\"approach-retreat\",\"236\",\"2366707\",\"0.0-236.0\",\"\",\"\",\"1-2\",\"6421\",\"39\",\"0\",\"Testing\",\"Stims/Figures/74-J-10-4.bmp\",\"na:lana\",\"Left\",\"37\",\"4\",\"16\",\"7\",\"S\",\"C\",\"88\"
\"\",\"\",\"approach-retreat\",\"237\",\"2373144\",\"0.0-237.0\",\"\",\"\",\"1-2\",\"4931\",\"38\",\"1\",\"Testing\",\"Stims/Figures/128-C-30-3.bmp\",\"mala:la\",\"Down\",\"38\",\"4\",\"17\",\"7\",\"S\",\"C\",\"89\"
\"\",\"\",\"approach-retreat\",\"238\",\"2380173\",\"0.0-238.0\",\"\",\"\",\"1-2\",\"5523\",\"37\",\"1\",\"Testing\",\"Stims/Figures/86-J-0-1.bmp\",\"pa:pa:ka\",\"Left\",\"37\",\"4\",\"18\",\"7\",\"P\",\"C\",\"90\"
\"\",\"\",\"approach-retreat\",\"239\",\"2386900\",\"0.0-239.0\",\"\",\"\",\"1-2\",\"5219\",\"40\",\"1\",\"Testing\",\"Stims/Figures/27-C-30-1.bmp\",\"pa:kata\",\"Up\",\"40\",\"4\",\"19\",\"7\",\"P\",\"C\",\"91\"
\"\",\"\",\"approach-retreat\",\"240\",\"2397387\",\"0.0-240.0\",\"\",\"\",\"1-2\",\"8981\",\"40\",\"0\",\"Testing\",\"Stims/Figures/102-J-10-4.bmp\",\"ma:mana\",\"Up\",\"38\",\"4\",\"20\",\"7\",\"S\",\"C\",\"92\"
\"\",\"\",\"approach-retreat\",\"241\",\"2404283\",\"0.0-241.0\",\"\",\"\",\"1-2\",\"5388\",\"37\",\"1\",\"Testing\",\"Stims/Figures/94-J-0-2.bmp\",\"ta:pa:ta\",\"Left\",\"37\",\"4\",\"21\",\"7\",\"P\",\"C\",\"93\"
\"\",\"\",\"approach-retreat\",\"242\",\"2411742\",\"0.0-242.0\",\"\",\"\",\"1-2\",\"5953\",\"37\",\"0\",\"Testing\",\"Stims/Figures/87-J-10-4.bmp\",\"na:lala\",\"Right\",\"39\",\"4\",\"22\",\"7\",\"S\",\"C\",\"94\"
\"\",\"\",\"approach-retreat\",\"243\",\"2419093\",\"0.0-243.0\",\"\",\"\",\"1-2\",\"5845\",\"38\",\"1\",\"Testing\",\"Stims/Figures/85-J-0-2.bmp\",\"tapa:ka\",\"Up\",\"38\",\"4\",\"23\",\"7\",\"P\",\"C\",\"95\"
\"\",\"\",\"approach-retreat\",\"244\",\"2428084\",\"0.0-244.0\",\"\",\"\",\"1-2\",\"7486\",\"37\",\"0\",\"Testing\",\"Stims/Figures/111-J-10-3.bmp\",\"ma:lana\",\"Right\",\"39\",\"4\",\"24\",\"7\",\"S\",\"C\",\"96\"
\"15356\",\"\",\"survey-text\",\"245\",\"2443445\",\"0.0-245.0\",\"\",\"{\"\"Q0\"\":\"\"\"\"}\",\"\",\"\",\"\",\"\",\"\",\"\",\"\",\"\",\"\",\"\",\"\",\"\",\"\",\"\",\"\"
