\"rt\",\"key_press\",\"trial_type\",\"trial_index\",\"time_elapsed\",\"internal_node_id\",\"view_history\",\"responses\",\"Id\",\"Rt\",\"ResKeyCode\",\"ResCorr\",\"TrialType2\",\"Image\",\"Label\",\"Location\",\"CorrectResponse\",\"Block\",\"BlockTrial\",\"Condition\",\"LabelType\",\"Subcondition\",\"trialNum\"
\"35918\",\"32\",\"text\",\"0\",\"35926\",\"0.0-0.0-0.0\",\"\",\"\",\"\",\"\",\"\",\"\",\"\",\"\",\"\",\"\",\"\",\"\",\"\",\"\",\"\",\"\",\"\"
\"121910\",\"\",\"instructions\",\"1\",\"157840\",\"0.0-1.0\",\"[{\"\"page_index\"\":0,\"\"viewing_time\"\":121907}]\",\"\",\"\",\"\",\"\",\"\",\"\",\"\",\"\",\"\",\"\",\"\",\"\",\"\",\"\",\"\",\"\"
\"30205\",\"\",\"survey-multi-choice\",\"2\",\"188093\",\"0.0-2.0\",\"\",\"{\"\"Q0\"\":\"\"Da\"\",\"\"Q1\"\":\"\"Ne\"\",\"\"Q2\"\":\"\"Da\"\",\"\"Q3\"\":\"\"Da\"\",\"\"Q4\"\":\"\"Da\"\",\"\"Q5\"\":\"\"Da\"\"}\",\"\",\"\",\"\",\"\",\"\",\"\",\"\",\"\",\"\",\"\",\"\",\"\",\"\",\"\",\"\"
\"\",\"\",\"bio\",\"3\",\"196174\",\"0.0-3.0\",\"\",\"{\"\"age\"\":\"\"19\"\",\"\"gender\"\":\"\"m\"\",\"\"specify\"\":\"\"\"\"}\",\"\",\"\",\"\",\"\",\"\",\"\",\"\",\"\",\"\",\"\",\"\",\"\",\"\",\"\",\"\"
\"\",\"\",\"approach-retreat\",\"4\",\"205303\",\"0.0-4.0\",\"\",\"\",\"3-4\",\"7608\",\"39\",\"0\",\"Training\",\"Stims/Figures/111-J-10-3.bmp\",\"malana\",\"Right\",\"37\",\"1\",\"1\",\"7\",\"S\",\"J\",\"1\"
\"\",\"\",\"approach-retreat\",\"5\",\"212391\",\"0.0-5.0\",\"\",\"\",\"3-4\",\"5574\",\"37\",\"1\",\"Training\",\"Stims/Figures/100-J-10-3.bmp\",\"mamana\",\"Right\",\"37\",\"1\",\"2\",\"7\",\"S\",\"J\",\"2\"
\"\",\"\",\"approach-retreat\",\"6\",\"219020\",\"0.0-6.0\",\"\",\"\",\"3-4\",\"5116\",\"39\",\"1\",\"Training\",\"Stims/Figures/111-C-30-3.bmp\",\"ma:mana\",\"Right\",\"39\",\"1\",\"3\",\"7\",\"S\",\"J\",\"3\"
\"\",\"\",\"approach-retreat\",\"7\",\"224701\",\"0.0-7.0\",\"\",\"\",\"3-4\",\"4168\",\"39\",\"0\",\"Training\",\"Stims/Figures/57-C-30-1.bmp\",\"taka:ta\",\"Left\",\"37\",\"1\",\"4\",\"7\",\"P\",\"J\",\"4\"
\"\",\"\",\"approach-retreat\",\"8\",\"230555\",\"0.0-8.0\",\"\",\"\",\"3-4\",\"4339\",\"37\",\"0\",\"Training\",\"Stims/Figures/19-J-10-4.bmp\",\"malala\",\"Left\",\"39\",\"1\",\"5\",\"7\",\"S\",\"J\",\"5\"
\"\",\"\",\"approach-retreat\",\"9\",\"236226\",\"0.0-9.0\",\"\",\"\",\"3-4\",\"4155\",\"39\",\"1\",\"Training\",\"Stims/Figures/85-C-20-2.bmp\",\"pa:ka:ta\",\"Right\",\"39\",\"1\",\"6\",\"7\",\"P\",\"J\",\"6\"
\"\",\"\",\"approach-retreat\",\"10\",\"242427\",\"0.0-10.0\",\"\",\"\",\"3-4\",\"4687\",\"40\",\"1\",\"Training\",\"Stims/Figures/57-J-0-1.bmp\",\"ta:pa:ta\",\"Up\",\"40\",\"1\",\"7\",\"7\",\"P\",\"J\",\"7\"
\"\",\"\",\"approach-retreat\",\"11\",\"248259\",\"0.0-11.0\",\"\",\"\",\"3-4\",\"4317\",\"40\",\"0\",\"Training\",\"Stims/Figures/100-C-30-3.bmp\",\"mamala\",\"Up\",\"38\",\"1\",\"8\",\"7\",\"S\",\"J\",\"8\"
\"\",\"\",\"approach-retreat\",\"12\",\"254056\",\"0.0-12.0\",\"\",\"\",\"3-4\",\"4283\",\"39\",\"0\",\"Training\",\"Stims/Figures/71-C-30-1.bmp\",\"ta:kaka\",\"Left\",\"37\",\"1\",\"9\",\"7\",\"P\",\"J\",\"9\"
\"\",\"\",\"approach-retreat\",\"13\",\"259868\",\"0.0-13.0\",\"\",\"\",\"3-4\",\"4306\",\"40\",\"0\",\"Training\",\"Stims/Figures/139-C-20-2.bmp\",\"paka:ka\",\"Up\",\"38\",\"1\",\"10\",\"7\",\"P\",\"J\",\"10\"
\"\",\"\",\"approach-retreat\",\"14\",\"265725\",\"0.0-14.0\",\"\",\"\",\"3-4\",\"4344\",\"38\",\"1\",\"Training\",\"Stims/Figures/71-J-0-1.bmp\",\"papata\",\"Down\",\"38\",\"1\",\"11\",\"7\",\"P\",\"J\",\"11\"
\"\",\"\",\"approach-retreat\",\"15\",\"271809\",\"0.0-15.0\",\"\",\"\",\"3-4\",\"4570\",\"38\",\"0\",\"Training\",\"Stims/Figures/19-C-20-4.bmp\",\"na:lala\",\"Down\",\"40\",\"1\",\"12\",\"7\",\"S\",\"J\",\"12\"
\"\",\"\",\"approach-retreat\",\"16\",\"279077\",\"0.0-16.0\",\"\",\"\",\"3-4\",\"5763\",\"38\",\"1\",\"Training\",\"Stims/Figures/139-J-0-2.bmp\",\"ta:ka:ka\",\"Down\",\"38\",\"1\",\"13\",\"7\",\"P\",\"J\",\"13\"
\"\",\"\",\"approach-retreat\",\"17\",\"286478\",\"0.0-17.0\",\"\",\"\",\"3-4\",\"5890\",\"39\",\"1\",\"Training\",\"Stims/Figures/74-J-10-4.bmp\",\"nama:la\",\"Left\",\"39\",\"1\",\"14\",\"7\",\"S\",\"J\",\"14\"
\"\",\"\",\"approach-retreat\",\"18\",\"292693\",\"0.0-18.0\",\"\",\"\",\"3-4\",\"4699\",\"38\",\"0\",\"Training\",\"Stims/Figures/74-C-20-4.bmp\",\"ma:la:la\",\"Down\",\"40\",\"1\",\"15\",\"7\",\"S\",\"J\",\"15\"
\"\",\"\",\"approach-retreat\",\"19\",\"298435\",\"0.0-19.0\",\"\",\"\",\"3-4\",\"4227\",\"40\",\"1\",\"Training\",\"Stims/Figures/85-J-0-2.bmp\",\"pa:ka:ka\",\"Up\",\"40\",\"1\",\"16\",\"7\",\"P\",\"J\",\"16\"
\"\",\"\",\"approach-retreat\",\"20\",\"304700\",\"0.0-20.0\",\"\",\"\",\"3-4\",\"4753\",\"38\",\"0\",\"Training\",\"Stims/Figures/111-J-10-3.bmp\",\"malana\",\"Up\",\"40\",\"2\",\"1\",\"7\",\"S\",\"J\",\"17\"
\"\",\"\",\"approach-retreat\",\"21\",\"310720\",\"0.0-21.0\",\"\",\"\",\"3-4\",\"4505\",\"39\",\"1\",\"Training\",\"Stims/Figures/100-J-10-3.bmp\",\"mamana\",\"Left\",\"39\",\"2\",\"2\",\"7\",\"S\",\"J\",\"18\"
\"\",\"\",\"approach-retreat\",\"22\",\"316971\",\"0.0-22.0\",\"\",\"\",\"3-4\",\"4737\",\"38\",\"0\",\"Training\",\"Stims/Figures/139-J-0-2.bmp\",\"ta:ka:ka\",\"Up\",\"40\",\"2\",\"3\",\"7\",\"P\",\"J\",\"19\"
\"\",\"\",\"approach-retreat\",\"23\",\"322683\",\"0.0-23.0\",\"\",\"\",\"3-4\",\"4197\",\"38\",\"0\",\"Training\",\"Stims/Figures/100-C-30-3.bmp\",\"mamala\",\"Down\",\"40\",\"2\",\"4\",\"7\",\"S\",\"J\",\"20\"
\"\",\"\",\"approach-retreat\",\"24\",\"328638\",\"0.0-24.0\",\"\",\"\",\"3-4\",\"4441\",\"39\",\"1\",\"Training\",\"Stims/Figures/57-J-0-1.bmp\",\"ta:pa:ta\",\"Left\",\"39\",\"2\",\"5\",\"7\",\"P\",\"J\",\"21\"
\"\",\"\",\"approach-retreat\",\"25\",\"334820\",\"0.0-25.0\",\"\",\"\",\"3-4\",\"4670\",\"39\",\"1\",\"Training\",\"Stims/Figures/57-C-30-1.bmp\",\"taka:ta\",\"Right\",\"39\",\"2\",\"6\",\"7\",\"P\",\"J\",\"22\"
\"\",\"\",\"approach-retreat\",\"26\",\"341014\",\"0.0-26.0\",\"\",\"\",\"3-4\",\"4679\",\"38\",\"0\",\"Training\",\"Stims/Figures/85-J-0-2.bmp\",\"pa:ka:ka\",\"Up\",\"40\",\"2\",\"7\",\"7\",\"P\",\"J\",\"23\"
\"\",\"\",\"approach-retreat\",\"27\",\"347463\",\"0.0-27.0\",\"\",\"\",\"3-4\",\"4936\",\"37\",\"0\",\"Training\",\"Stims/Figures/71-C-30-1.bmp\",\"ta:kaka\",\"Right\",\"39\",\"2\",\"8\",\"7\",\"P\",\"J\",\"24\"
\"\",\"\",\"approach-retreat\",\"28\",\"353149\",\"0.0-28.0\",\"\",\"\",\"3-4\",\"4172\",\"39\",\"0\",\"Training\",\"Stims/Figures/85-C-20-2.bmp\",\"pa:ka:ta\",\"Left\",\"37\",\"2\",\"9\",\"7\",\"P\",\"J\",\"25\"
\"\",\"\",\"approach-retreat\",\"29\",\"360893\",\"0.0-29.0\",\"\",\"\",\"3-4\",\"6231\",\"38\",\"0\",\"Training\",\"Stims/Figures/74-C-20-4.bmp\",\"ma:la:la\",\"Down\",\"40\",\"2\",\"10\",\"7\",\"S\",\"J\",\"26\"
\"\",\"\",\"approach-retreat\",\"30\",\"366627\",\"0.0-30.0\",\"\",\"\",\"3-4\",\"4222\",\"38\",\"1\",\"Training\",\"Stims/Figures/74-J-10-4.bmp\",\"nama:la\",\"Down\",\"38\",\"2\",\"11\",\"7\",\"S\",\"J\",\"27\"
\"\",\"\",\"approach-retreat\",\"31\",\"372687\",\"0.0-31.0\",\"\",\"\",\"3-4\",\"4544\",\"40\",\"1\",\"Training\",\"Stims/Figures/19-J-10-4.bmp\",\"malala\",\"Up\",\"40\",\"2\",\"12\",\"7\",\"S\",\"J\",\"28\"
\"\",\"\",\"approach-retreat\",\"32\",\"378654\",\"0.0-32.0\",\"\",\"\",\"3-4\",\"4453\",\"39\",\"0\",\"Training\",\"Stims/Figures/19-C-20-4.bmp\",\"na:lala\",\"Left\",\"37\",\"2\",\"13\",\"7\",\"S\",\"J\",\"29\"
\"\",\"\",\"approach-retreat\",\"33\",\"384533\",\"0.0-33.0\",\"\",\"\",\"3-4\",\"4365\",\"37\",\"1\",\"Training\",\"Stims/Figures/71-J-0-1.bmp\",\"papata\",\"Right\",\"37\",\"2\",\"14\",\"7\",\"P\",\"J\",\"30\"
\"\",\"\",\"approach-retreat\",\"34\",\"391733\",\"0.0-34.0\",\"\",\"\",\"3-4\",\"5687\",\"40\",\"1\",\"Training\",\"Stims/Figures/111-C-30-3.bmp\",\"ma:mana\",\"Down\",\"40\",\"2\",\"15\",\"7\",\"S\",\"J\",\"31\"
\"\",\"\",\"approach-retreat\",\"35\",\"400341\",\"0.0-35.0\",\"\",\"\",\"3-4\",\"7095\",\"37\",\"0\",\"Training\",\"Stims/Figures/139-C-20-2.bmp\",\"paka:ka\",\"Right\",\"39\",\"2\",\"16\",\"7\",\"P\",\"J\",\"32\"
\"\",\"\",\"approach-retreat\",\"36\",\"406083\",\"0.0-36.0\",\"\",\"\",\"3-4\",\"4229\",\"39\",\"0\",\"Training\",\"Stims/Figures/74-C-20-4.bmp\",\"ma:la:la\",\"Left\",\"37\",\"3\",\"1\",\"7\",\"S\",\"J\",\"33\"
\"\",\"\",\"approach-retreat\",\"37\",\"411762\",\"0.0-37.0\",\"\",\"\",\"3-4\",\"4162\",\"37\",\"0\",\"Training\",\"Stims/Figures/100-C-30-3.bmp\",\"mamala\",\"Right\",\"39\",\"3\",\"2\",\"7\",\"S\",\"J\",\"34\"
\"\",\"\",\"approach-retreat\",\"38\",\"417429\",\"0.0-38.0\",\"\",\"\",\"3-4\",\"4154\",\"38\",\"1\",\"Training\",\"Stims/Figures/71-J-0-1.bmp\",\"papata\",\"Down\",\"38\",\"3\",\"3\",\"7\",\"P\",\"J\",\"35\"
\"\",\"\",\"approach-retreat\",\"39\",\"424367\",\"0.0-39.0\",\"\",\"\",\"3-4\",\"5424\",\"39\",\"1\",\"Training\",\"Stims/Figures/57-C-30-1.bmp\",\"taka:ta\",\"Right\",\"39\",\"3\",\"4\",\"7\",\"P\",\"J\",\"36\"
\"\",\"\",\"approach-retreat\",\"40\",\"430752\",\"0.0-40.0\",\"\",\"\",\"3-4\",\"4872\",\"39\",\"0\",\"Training\",\"Stims/Figures/111-C-30-3.bmp\",\"ma:mana\",\"Left\",\"37\",\"3\",\"5\",\"7\",\"S\",\"J\",\"37\"
\"\",\"\",\"approach-retreat\",\"41\",\"436400\",\"0.0-41.0\",\"\",\"\",\"3-4\",\"4136\",\"40\",\"0\",\"Training\",\"Stims/Figures/139-C-20-2.bmp\",\"paka:ka\",\"Up\",\"38\",\"3\",\"6\",\"7\",\"P\",\"J\",\"38\"
\"\",\"\",\"approach-retreat\",\"42\",\"442360\",\"0.0-42.0\",\"\",\"\",\"3-4\",\"4447\",\"39\",\"0\",\"Training\",\"Stims/Figures/139-J-0-2.bmp\",\"ta:ka:ka\",\"Right\",\"37\",\"3\",\"7\",\"7\",\"P\",\"J\",\"39\"
\"\",\"\",\"approach-retreat\",\"43\",\"448097\",\"0.0-43.0\",\"\",\"\",\"3-4\",\"4223\",\"38\",\"1\",\"Training\",\"Stims/Figures/57-J-0-1.bmp\",\"ta:pa:ta\",\"Down\",\"38\",\"3\",\"8\",\"7\",\"P\",\"J\",\"40\"
\"\",\"\",\"approach-retreat\",\"44\",\"454407\",\"0.0-44.0\",\"\",\"\",\"3-4\",\"4797\",\"40\",\"0\",\"Training\",\"Stims/Figures/19-J-10-4.bmp\",\"malala\",\"Down\",\"38\",\"3\",\"9\",\"7\",\"S\",\"J\",\"41\"
\"\",\"\",\"approach-retreat\",\"45\",\"460832\",\"0.0-45.0\",\"\",\"\",\"3-4\",\"4912\",\"39\",\"0\",\"Training\",\"Stims/Figures/111-J-10-3.bmp\",\"malana\",\"Right\",\"37\",\"3\",\"10\",\"7\",\"S\",\"J\",\"42\"
\"\",\"\",\"approach-retreat\",\"46\",\"468114\",\"0.0-46.0\",\"\",\"\",\"3-4\",\"5769\",\"38\",\"0\",\"Training\",\"Stims/Figures/100-J-10-3.bmp\",\"mamana\",\"Up\",\"40\",\"3\",\"11\",\"7\",\"S\",\"J\",\"43\"
\"\",\"\",\"approach-retreat\",\"47\",\"476048\",\"0.0-47.0\",\"\",\"\",\"3-4\",\"6422\",\"40\",\"0\",\"Training\",\"Stims/Figures/85-C-20-2.bmp\",\"pa:ka:ta\",\"Up\",\"38\",\"3\",\"12\",\"7\",\"P\",\"J\",\"44\"
\"\",\"\",\"approach-retreat\",\"48\",\"482147\",\"0.0-48.0\",\"\",\"\",\"3-4\",\"4587\",\"38\",\"1\",\"Training\",\"Stims/Figures/74-J-10-4.bmp\",\"nama:la\",\"Down\",\"38\",\"3\",\"13\",\"7\",\"S\",\"J\",\"45\"
\"\",\"\",\"approach-retreat\",\"49\",\"487941\",\"0.0-49.0\",\"\",\"\",\"3-4\",\"4282\",\"39\",\"1\",\"Training\",\"Stims/Figures/85-J-0-2.bmp\",\"pa:ka:ka\",\"Left\",\"39\",\"3\",\"14\",\"7\",\"P\",\"J\",\"46\"
\"\",\"\",\"approach-retreat\",\"50\",\"495095\",\"0.0-50.0\",\"\",\"\",\"3-4\",\"5640\",\"37\",\"1\",\"Training\",\"Stims/Figures/19-C-20-4.bmp\",\"na:lala\",\"Left\",\"37\",\"3\",\"15\",\"7\",\"S\",\"J\",\"47\"
\"\",\"\",\"approach-retreat\",\"51\",\"500532\",\"0.0-51.0\",\"\",\"\",\"3-4\",\"3924\",\"40\",\"0\",\"Training\",\"Stims/Figures/71-C-30-1.bmp\",\"ta:kaka\",\"Up\",\"38\",\"3\",\"16\",\"7\",\"P\",\"J\",\"48\"
\"\",\"\",\"approach-retreat\",\"52\",\"506307\",\"0.0-52.0\",\"\",\"\",\"3-4\",\"4261\",\"37\",\"0\",\"Training\",\"Stims/Figures/85-J-0-2.bmp\",\"pa:ka:ka\",\"Left\",\"39\",\"4\",\"1\",\"7\",\"P\",\"J\",\"49\"
\"\",\"\",\"approach-retreat\",\"53\",\"512006\",\"0.0-53.0\",\"\",\"\",\"3-4\",\"4186\",\"38\",\"0\",\"Training\",\"Stims/Figures/85-C-20-2.bmp\",\"pa:ka:ta\",\"Down\",\"40\",\"4\",\"2\",\"7\",\"P\",\"J\",\"50\"
\"\",\"\",\"approach-retreat\",\"54\",\"517913\",\"0.0-54.0\",\"\",\"\",\"3-4\",\"4394\",\"39\",\"0\",\"Training\",\"Stims/Figures/139-J-0-2.bmp\",\"ta:ka:ka\",\"Right\",\"37\",\"4\",\"3\",\"7\",\"P\",\"J\",\"51\"
\"\",\"\",\"approach-retreat\",\"55\",\"523799\",\"0.0-55.0\",\"\",\"\",\"3-4\",\"4371\",\"37\",\"0\",\"Training\",\"Stims/Figures/71-J-0-1.bmp\",\"papata\",\"Left\",\"39\",\"4\",\"4\",\"7\",\"P\",\"J\",\"52\"
\"\",\"\",\"approach-retreat\",\"56\",\"529532\",\"0.0-56.0\",\"\",\"\",\"3-4\",\"4220\",\"39\",\"1\",\"Training\",\"Stims/Figures/19-C-20-4.bmp\",\"na:lala\",\"Right\",\"39\",\"4\",\"5\",\"7\",\"S\",\"J\",\"53\"
\"\",\"\",\"approach-retreat\",\"57\",\"535239\",\"0.0-57.0\",\"\",\"\",\"3-4\",\"4194\",\"39\",\"0\",\"Training\",\"Stims/Figures/100-C-30-3.bmp\",\"mamala\",\"Left\",\"37\",\"4\",\"6\",\"7\",\"S\",\"J\",\"54\"
\"\",\"\",\"approach-retreat\",\"58\",\"542427\",\"0.0-58.0\",\"\",\"\",\"3-4\",\"5677\",\"37\",\"1\",\"Training\",\"Stims/Figures/74-J-10-4.bmp\",\"nama:la\",\"Right\",\"37\",\"4\",\"7\",\"7\",\"S\",\"J\",\"55\"
\"\",\"\",\"approach-retreat\",\"59\",\"548065\",\"0.0-59.0\",\"\",\"\",\"3-4\",\"4124\",\"38\",\"1\",\"Training\",\"Stims/Figures/57-J-0-1.bmp\",\"ta:pa:ta\",\"Down\",\"38\",\"4\",\"8\",\"7\",\"P\",\"J\",\"56\"
\"\",\"\",\"approach-retreat\",\"60\",\"553791\",\"0.0-60.0\",\"\",\"\",\"3-4\",\"4214\",\"40\",\"0\",\"Training\",\"Stims/Figures/19-J-10-4.bmp\",\"malala\",\"Down\",\"38\",\"4\",\"9\",\"7\",\"S\",\"J\",\"57\"
\"\",\"\",\"approach-retreat\",\"61\",\"559980\",\"0.0-61.0\",\"\",\"\",\"3-4\",\"4677\",\"40\",\"0\",\"Training\",\"Stims/Figures/74-C-20-4.bmp\",\"ma:la:la\",\"Up\",\"38\",\"4\",\"10\",\"7\",\"S\",\"J\",\"58\"
\"\",\"\",\"approach-retreat\",\"62\",\"567010\",\"0.0-62.0\",\"\",\"\",\"3-4\",\"5517\",\"37\",\"0\",\"Training\",\"Stims/Figures/139-C-20-2.bmp\",\"paka:ka\",\"Right\",\"39\",\"4\",\"11\",\"7\",\"P\",\"J\",\"59\"
\"\",\"\",\"approach-retreat\",\"63\",\"573004\",\"0.0-63.0\",\"\",\"\",\"3-4\",\"4481\",\"40\",\"1\",\"Training\",\"Stims/Figures/111-J-10-3.bmp\",\"malana\",\"Up\",\"40\",\"4\",\"12\",\"7\",\"S\",\"J\",\"60\"
\"\",\"\",\"approach-retreat\",\"64\",\"581317\",\"0.0-64.0\",\"\",\"\",\"3-4\",\"6799\",\"39\",\"0\",\"Training\",\"Stims/Figures/57-C-30-1.bmp\",\"taka:ta\",\"Left\",\"37\",\"4\",\"13\",\"7\",\"P\",\"J\",\"61\"
\"\",\"\",\"approach-retreat\",\"65\",\"588677\",\"0.0-65.0\",\"\",\"\",\"3-4\",\"5846\",\"40\",\"1\",\"Training\",\"Stims/Figures/111-C-30-3.bmp\",\"ma:mana\",\"Down\",\"40\",\"4\",\"14\",\"7\",\"S\",\"J\",\"62\"
\"\",\"\",\"approach-retreat\",\"66\",\"596203\",\"0.0-66.0\",\"\",\"\",\"3-4\",\"6013\",\"40\",\"1\",\"Training\",\"Stims/Figures/100-J-10-3.bmp\",\"mamana\",\"Up\",\"40\",\"4\",\"15\",\"7\",\"S\",\"J\",\"63\"
\"\",\"\",\"approach-retreat\",\"67\",\"604460\",\"0.0-67.0\",\"\",\"\",\"3-4\",\"6741\",\"40\",\"0\",\"Training\",\"Stims/Figures/71-C-30-1.bmp\",\"ta:kaka\",\"Up\",\"38\",\"4\",\"16\",\"7\",\"P\",\"J\",\"64\"
\"\",\"\",\"approach-retreat\",\"68\",\"612341\",\"0.0-68.0\",\"\",\"\",\"3-4\",\"6367\",\"37\",\"1\",\"Training\",\"Stims/Figures/19-C-20-4.bmp\",\"na:lala\",\"Left\",\"37\",\"5\",\"1\",\"7\",\"S\",\"J\",\"65\"
\"\",\"\",\"approach-retreat\",\"69\",\"618430\",\"0.0-69.0\",\"\",\"\",\"3-4\",\"4577\",\"39\",\"0\",\"Training\",\"Stims/Figures/74-J-10-4.bmp\",\"nama:la\",\"Right\",\"37\",\"5\",\"2\",\"7\",\"S\",\"J\",\"66\"
\"\",\"\",\"approach-retreat\",\"70\",\"624115\",\"0.0-70.0\",\"\",\"\",\"3-4\",\"4173\",\"38\",\"1\",\"Training\",\"Stims/Figures/57-J-0-1.bmp\",\"ta:pa:ta\",\"Down\",\"38\",\"5\",\"3\",\"7\",\"P\",\"J\",\"67\"
\"\",\"\",\"approach-retreat\",\"71\",\"630198\",\"0.0-71.0\",\"\",\"\",\"3-4\",\"4570\",\"39\",\"1\",\"Training\",\"Stims/Figures/74-C-20-4.bmp\",\"ma:la:la\",\"Right\",\"39\",\"5\",\"4\",\"7\",\"S\",\"J\",\"68\"
\"\",\"\",\"approach-retreat\",\"72\",\"635799\",\"0.0-72.0\",\"\",\"\",\"3-4\",\"4088\",\"38\",\"0\",\"Training\",\"Stims/Figures/71-C-30-1.bmp\",\"ta:kaka\",\"Down\",\"40\",\"5\",\"5\",\"7\",\"P\",\"J\",\"69\"
\"\",\"\",\"approach-retreat\",\"73\",\"642476\",\"0.0-73.0\",\"\",\"\",\"3-4\",\"5164\",\"39\",\"1\",\"Training\",\"Stims/Figures/139-J-0-2.bmp\",\"ta:ka:ka\",\"Left\",\"39\",\"5\",\"6\",\"7\",\"P\",\"J\",\"70\"
\"\",\"\",\"approach-retreat\",\"74\",\"650214\",\"0.0-74.0\",\"\",\"\",\"3-4\",\"6225\",\"37\",\"0\",\"Training\",\"Stims/Figures/19-J-10-4.bmp\",\"malala\",\"Left\",\"39\",\"5\",\"7\",\"7\",\"S\",\"J\",\"71\"
\"\",\"\",\"approach-retreat\",\"75\",\"655842\",\"0.0-75.0\",\"\",\"\",\"3-4\",\"4116\",\"38\",\"1\",\"Training\",\"Stims/Figures/111-J-10-3.bmp\",\"malana\",\"Down\",\"38\",\"5\",\"8\",\"7\",\"S\",\"J\",\"72\"
\"\",\"\",\"approach-retreat\",\"76\",\"661530\",\"0.0-76.0\",\"\",\"\",\"3-4\",\"4175\",\"37\",\"0\",\"Training\",\"Stims/Figures/111-C-30-3.bmp\",\"ma:mana\",\"Right\",\"39\",\"5\",\"9\",\"7\",\"S\",\"J\",\"73\"
\"\",\"\",\"approach-retreat\",\"77\",\"667082\",\"0.0-77.0\",\"\",\"\",\"3-4\",\"4039\",\"40\",\"0\",\"Training\",\"Stims/Figures/85-C-20-2.bmp\",\"pa:ka:ta\",\"Up\",\"38\",\"5\",\"10\",\"7\",\"P\",\"J\",\"74\"
\"\",\"\",\"approach-retreat\",\"78\",\"676448\",\"0.0-78.0\",\"\",\"\",\"3-4\",\"7853\",\"38\",\"1\",\"Training\",\"Stims/Figures/57-C-30-1.bmp\",\"taka:ta\",\"Up\",\"38\",\"5\",\"11\",\"7\",\"P\",\"J\",\"75\"
\"\",\"\",\"approach-retreat\",\"79\",\"683378\",\"0.0-79.0\",\"\",\"\",\"3-4\",\"5416\",\"40\",\"0\",\"Training\",\"Stims/Figures/85-J-0-2.bmp\",\"pa:ka:ka\",\"Down\",\"38\",\"5\",\"12\",\"7\",\"P\",\"J\",\"76\"
\"\",\"\",\"approach-retreat\",\"80\",\"689228\",\"0.0-80.0\",\"\",\"\",\"3-4\",\"4336\",\"37\",\"1\",\"Training\",\"Stims/Figures/71-J-0-1.bmp\",\"papata\",\"Right\",\"37\",\"5\",\"13\",\"7\",\"P\",\"J\",\"77\"
\"\",\"\",\"approach-retreat\",\"81\",\"694802\",\"0.0-81.0\",\"\",\"\",\"3-4\",\"4061\",\"39\",\"0\",\"Training\",\"Stims/Figures/139-C-20-2.bmp\",\"paka:ka\",\"Left\",\"37\",\"5\",\"14\",\"7\",\"P\",\"J\",\"78\"
\"\",\"\",\"approach-retreat\",\"82\",\"700735\",\"0.0-82.0\",\"\",\"\",\"3-4\",\"4421\",\"38\",\"1\",\"Training\",\"Stims/Figures/100-C-30-3.bmp\",\"mamala\",\"Up\",\"38\",\"5\",\"15\",\"7\",\"S\",\"J\",\"79\"
\"\",\"\",\"approach-retreat\",\"83\",\"706558\",\"0.0-83.0\",\"\",\"\",\"3-4\",\"4311\",\"40\",\"1\",\"Training\",\"Stims/Figures/100-J-10-3.bmp\",\"mamana\",\"Up\",\"40\",\"5\",\"16\",\"7\",\"S\",\"J\",\"80\"
\"\",\"\",\"approach-retreat\",\"84\",\"712197\",\"0.0-84.0\",\"\",\"\",\"3-4\",\"4127\",\"38\",\"0\",\"Training\",\"Stims/Figures/111-C-30-3.bmp\",\"ma:mana\",\"Down\",\"40\",\"6\",\"1\",\"7\",\"S\",\"J\",\"81\"
\"\",\"\",\"approach-retreat\",\"85\",\"717696\",\"0.0-85.0\",\"\",\"\",\"3-4\",\"3982\",\"39\",\"0\",\"Training\",\"Stims/Figures/57-J-0-1.bmp\",\"ta:pa:ta\",\"Right\",\"37\",\"6\",\"2\",\"7\",\"P\",\"J\",\"82\"
\"\",\"\",\"approach-retreat\",\"86\",\"723464\",\"0.0-86.0\",\"\",\"\",\"3-4\",\"4254\",\"40\",\"1\",\"Training\",\"Stims/Figures/57-C-30-1.bmp\",\"taka:ta\",\"Down\",\"40\",\"6\",\"3\",\"7\",\"P\",\"J\",\"83\"
\"\",\"\",\"approach-retreat\",\"87\",\"729121\",\"0.0-87.0\",\"\",\"\",\"3-4\",\"4145\",\"39\",\"1\",\"Training\",\"Stims/Figures/100-C-30-3.bmp\",\"mamala\",\"Right\",\"39\",\"6\",\"4\",\"7\",\"S\",\"J\",\"84\"
\"\",\"\",\"approach-retreat\",\"88\",\"734794\",\"0.0-88.0\",\"\",\"\",\"3-4\",\"4159\",\"37\",\"1\",\"Training\",\"Stims/Figures/139-C-20-2.bmp\",\"paka:ka\",\"Left\",\"37\",\"6\",\"5\",\"7\",\"P\",\"J\",\"85\"
\"\",\"\",\"approach-retreat\",\"89\",\"740129\",\"0.0-89.0\",\"\",\"\",\"3-4\",\"3820\",\"40\",\"0\",\"Training\",\"Stims/Figures/19-C-20-4.bmp\",\"na:lala\",\"Up\",\"38\",\"6\",\"6\",\"7\",\"S\",\"J\",\"86\"
\"\",\"\",\"approach-retreat\",\"90\",\"745802\",\"0.0-90.0\",\"\",\"\",\"3-4\",\"4159\",\"38\",\"1\",\"Training\",\"Stims/Figures/74-J-10-4.bmp\",\"nama:la\",\"Down\",\"38\",\"6\",\"7\",\"7\",\"S\",\"J\",\"87\"
\"\",\"\",\"approach-retreat\",\"91\",\"751811\",\"0.0-91.0\",\"\",\"\",\"3-4\",\"4495\",\"40\",\"0\",\"Training\",\"Stims/Figures/71-C-30-1.bmp\",\"ta:kaka\",\"Up\",\"38\",\"6\",\"8\",\"7\",\"P\",\"J\",\"88\"
\"\",\"\",\"approach-retreat\",\"92\",\"757846\",\"0.0-92.0\",\"\",\"\",\"3-4\",\"4520\",\"37\",\"0\",\"Training\",\"Stims/Figures/19-J-10-4.bmp\",\"malala\",\"Left\",\"39\",\"6\",\"9\",\"7\",\"S\",\"J\",\"89\"
\"\",\"\",\"approach-retreat\",\"93\",\"763738\",\"0.0-93.0\",\"\",\"\",\"3-4\",\"4377\",\"38\",\"0\",\"Training\",\"Stims/Figures/100-J-10-3.bmp\",\"mamana\",\"Up\",\"40\",\"6\",\"10\",\"7\",\"S\",\"J\",\"90\"
\"\",\"\",\"approach-retreat\",\"94\",\"769309\",\"0.0-94.0\",\"\",\"\",\"3-4\",\"4057\",\"39\",\"0\",\"Training\",\"Stims/Figures/111-J-10-3.bmp\",\"malana\",\"Right\",\"37\",\"6\",\"11\",\"7\",\"S\",\"J\",\"91\"
\"\",\"\",\"approach-retreat\",\"95\",\"775360\",\"0.0-95.0\",\"\",\"\",\"3-4\",\"4539\",\"37\",\"0\",\"Training\",\"Stims/Figures/139-J-0-2.bmp\",\"ta:ka:ka\",\"Left\",\"39\",\"6\",\"12\",\"7\",\"P\",\"J\",\"92\"
\"\",\"\",\"approach-retreat\",\"96\",\"781171\",\"0.0-96.0\",\"\",\"\",\"3-4\",\"4296\",\"39\",\"1\",\"Training\",\"Stims/Figures/85-J-0-2.bmp\",\"pa:ka:ka\",\"Left\",\"39\",\"6\",\"13\",\"7\",\"P\",\"J\",\"93\"
\"\",\"\",\"approach-retreat\",\"97\",\"787202\",\"0.0-97.0\",\"\",\"\",\"3-4\",\"4519\",\"40\",\"0\",\"Training\",\"Stims/Figures/74-C-20-4.bmp\",\"ma:la:la\",\"Up\",\"38\",\"6\",\"14\",\"7\",\"S\",\"J\",\"94\"
\"\",\"\",\"approach-retreat\",\"98\",\"792791\",\"0.0-98.0\",\"\",\"\",\"3-4\",\"4077\",\"38\",\"1\",\"Training\",\"Stims/Figures/71-J-0-1.bmp\",\"papata\",\"Down\",\"38\",\"6\",\"15\",\"7\",\"P\",\"J\",\"95\"
\"\",\"\",\"approach-retreat\",\"99\",\"800530\",\"0.0-99.0\",\"\",\"\",\"3-4\",\"6225\",\"37\",\"0\",\"Training\",\"Stims/Figures/85-C-20-2.bmp\",\"pa:ka:ta\",\"Right\",\"39\",\"6\",\"16\",\"7\",\"P\",\"J\",\"96\"
\"\",\"\",\"approach-retreat\",\"100\",\"808336\",\"0.0-100.0\",\"\",\"\",\"3-4\",\"6293\",\"39\",\"0\",\"Training\",\"Stims/Figures/85-J-0-2.bmp\",\"pa:ka:ka\",\"Right\",\"37\",\"7\",\"1\",\"7\",\"P\",\"J\",\"97\"
\"\",\"\",\"approach-retreat\",\"101\",\"814262\",\"0.0-101.0\",\"\",\"\",\"3-4\",\"4413\",\"39\",\"0\",\"Training\",\"Stims/Figures/19-C-20-4.bmp\",\"na:lala\",\"Left\",\"37\",\"7\",\"2\",\"7\",\"S\",\"J\",\"98\"
\"\",\"\",\"approach-retreat\",\"102\",\"820296\",\"0.0-102.0\",\"\",\"\",\"3-4\",\"4521\",\"38\",\"0\",\"Training\",\"Stims/Figures/74-C-20-4.bmp\",\"ma:la:la\",\"Down\",\"40\",\"7\",\"3\",\"7\",\"S\",\"J\",\"99\"
\"\",\"\",\"approach-retreat\",\"103\",\"826281\",\"0.0-103.0\",\"\",\"\",\"3-4\",\"4472\",\"40\",\"1\",\"Training\",\"Stims/Figures/85-C-20-2.bmp\",\"pa:ka:ta\",\"Down\",\"40\",\"7\",\"4\",\"7\",\"P\",\"J\",\"100\"
\"\",\"\",\"approach-retreat\",\"104\",\"832255\",\"0.0-104.0\",\"\",\"\",\"3-4\",\"4461\",\"38\",\"1\",\"Training\",\"Stims/Figures/111-C-30-3.bmp\",\"ma:mana\",\"Up\",\"38\",\"7\",\"5\",\"7\",\"S\",\"J\",\"101\"
\"\",\"\",\"approach-retreat\",\"105\",\"840116\",\"0.0-105.0\",\"\",\"\",\"3-4\",\"6347\",\"38\",\"1\",\"Training\",\"Stims/Figures/57-C-30-1.bmp\",\"taka:ta\",\"Up\",\"38\",\"7\",\"6\",\"7\",\"P\",\"J\",\"102\"
\"\",\"\",\"approach-retreat\",\"106\",\"846571\",\"0.0-106.0\",\"\",\"\",\"3-4\",\"4944\",\"39\",\"1\",\"Training\",\"Stims/Figures/100-J-10-3.bmp\",\"mamana\",\"Left\",\"39\",\"7\",\"7\",\"7\",\"S\",\"J\",\"103\"
\"\",\"\",\"approach-retreat\",\"107\",\"853454\",\"0.0-107.0\",\"\",\"\",\"3-4\",\"5369\",\"38\",\"1\",\"Training\",\"Stims/Figures/139-J-0-2.bmp\",\"ta:ka:ka\",\"Down\",\"38\",\"7\",\"8\",\"7\",\"P\",\"J\",\"104\"
\"\",\"\",\"approach-retreat\",\"108\",\"859544\",\"0.0-108.0\",\"\",\"\",\"3-4\",\"4577\",\"39\",\"0\",\"Training\",\"Stims/Figures/57-J-0-1.bmp\",\"ta:pa:ta\",\"Right\",\"37\",\"7\",\"9\",\"7\",\"P\",\"J\",\"105\"
\"\",\"\",\"approach-retreat\",\"109\",\"865277\",\"0.0-109.0\",\"\",\"\",\"3-4\",\"4219\",\"37\",\"1\",\"Training\",\"Stims/Figures/71-C-30-1.bmp\",\"ta:kaka\",\"Left\",\"37\",\"7\",\"10\",\"7\",\"P\",\"J\",\"106\"
\"\",\"\",\"approach-retreat\",\"110\",\"872031\",\"0.0-110.0\",\"\",\"\",\"3-4\",\"5240\",\"37\",\"1\",\"Training\",\"Stims/Figures/19-J-10-4.bmp\",\"malala\",\"Right\",\"37\",\"7\",\"11\",\"7\",\"S\",\"J\",\"107\"
\"\",\"\",\"approach-retreat\",\"111\",\"877704\",\"0.0-111.0\",\"\",\"\",\"3-4\",\"4161\",\"38\",\"0\",\"Training\",\"Stims/Figures/100-C-30-3.bmp\",\"mamala\",\"Down\",\"40\",\"7\",\"12\",\"7\",\"S\",\"J\",\"108\"
\"\",\"\",\"approach-retreat\",\"112\",\"883408\",\"0.0-112.0\",\"\",\"\",\"3-4\",\"4190\",\"39\",\"0\",\"Training\",\"Stims/Figures/139-C-20-2.bmp\",\"paka:ka\",\"Left\",\"37\",\"7\",\"13\",\"7\",\"P\",\"J\",\"109\"
\"\",\"\",\"approach-retreat\",\"113\",\"890393\",\"0.0-113.0\",\"\",\"\",\"3-4\",\"5474\",\"40\",\"1\",\"Training\",\"Stims/Figures/74-J-10-4.bmp\",\"nama:la\",\"Up\",\"40\",\"7\",\"14\",\"7\",\"S\",\"J\",\"110\"
\"\",\"\",\"approach-retreat\",\"114\",\"895921\",\"0.0-114.0\",\"\",\"\",\"3-4\",\"4016\",\"38\",\"0\",\"Training\",\"Stims/Figures/111-J-10-3.bmp\",\"malana\",\"Up\",\"40\",\"7\",\"15\",\"7\",\"S\",\"J\",\"111\"
\"\",\"\",\"approach-retreat\",\"115\",\"902285\",\"0.0-115.0\",\"\",\"\",\"3-4\",\"4848\",\"39\",\"0\",\"Training\",\"Stims/Figures/71-J-0-1.bmp\",\"papata\",\"Right\",\"37\",\"7\",\"16\",\"7\",\"P\",\"J\",\"112\"
\"\",\"\",\"approach-retreat\",\"116\",\"909382\",\"0.0-116.0\",\"\",\"\",\"3-4\",\"5585\",\"37\",\"1\",\"Training\",\"Stims/Figures/85-C-20-2.bmp\",\"pa:ka:ta\",\"Left\",\"37\",\"8\",\"1\",\"7\",\"P\",\"J\",\"113\"
\"\",\"\",\"approach-retreat\",\"117\",\"915559\",\"0.0-117.0\",\"\",\"\",\"3-4\",\"4663\",\"40\",\"0\",\"Training\",\"Stims/Figures/111-C-30-3.bmp\",\"ma:mana\",\"Up\",\"38\",\"8\",\"2\",\"7\",\"S\",\"J\",\"114\"
\"\",\"\",\"approach-retreat\",\"118\",\"921732\",\"0.0-118.0\",\"\",\"\",\"3-4\",\"4661\",\"39\",\"1\",\"Training\",\"Stims/Figures/19-C-20-4.bmp\",\"na:lala\",\"Right\",\"39\",\"8\",\"3\",\"7\",\"S\",\"J\",\"115\"
\"\",\"\",\"approach-retreat\",\"119\",\"928804\",\"0.0-119.0\",\"\",\"\",\"3-4\",\"5559\",\"38\",\"1\",\"Training\",\"Stims/Figures/139-J-0-2.bmp\",\"ta:ka:ka\",\"Down\",\"38\",\"8\",\"4\",\"7\",\"P\",\"J\",\"116\"
\"\",\"\",\"approach-retreat\",\"120\",\"936195\",\"0.0-120.0\",\"\",\"\",\"3-4\",\"5884\",\"40\",\"1\",\"Training\",\"Stims/Figures/57-J-0-1.bmp\",\"ta:pa:ta\",\"Up\",\"40\",\"8\",\"5\",\"7\",\"P\",\"J\",\"117\"
\"\",\"\",\"approach-retreat\",\"121\",\"942203\",\"0.0-121.0\",\"\",\"\",\"3-4\",\"4495\",\"37\",\"0\",\"Training\",\"Stims/Figures/100-J-10-3.bmp\",\"mamana\",\"Left\",\"39\",\"8\",\"6\",\"7\",\"S\",\"J\",\"118\"
\"\",\"\",\"approach-retreat\",\"122\",\"947867\",\"0.0-122.0\",\"\",\"\",\"3-4\",\"4152\",\"38\",\"0\",\"Training\",\"Stims/Figures/100-C-30-3.bmp\",\"mamala\",\"Down\",\"40\",\"8\",\"7\",\"7\",\"S\",\"J\",\"119\"
\"\",\"\",\"approach-retreat\",\"123\",\"955012\",\"0.0-123.0\",\"\",\"\",\"3-4\",\"5632\",\"37\",\"1\",\"Training\",\"Stims/Figures/111-J-10-3.bmp\",\"malana\",\"Right\",\"37\",\"8\",\"8\",\"7\",\"S\",\"J\",\"120\"
\"\",\"\",\"approach-retreat\",\"124\",\"962202\",\"0.0-124.0\",\"\",\"\",\"3-4\",\"5677\",\"40\",\"1\",\"Training\",\"Stims/Figures/74-J-10-4.bmp\",\"nama:la\",\"Up\",\"40\",\"8\",\"9\",\"7\",\"S\",\"J\",\"121\"
\"\",\"\",\"approach-retreat\",\"125\",\"969338\",\"0.0-125.0\",\"\",\"\",\"3-4\",\"5623\",\"37\",\"1\",\"Training\",\"Stims/Figures/57-C-30-1.bmp\",\"taka:ta\",\"Left\",\"37\",\"8\",\"10\",\"7\",\"P\",\"J\",\"122\"
\"\",\"\",\"approach-retreat\",\"126\",\"975075\",\"0.0-126.0\",\"\",\"\",\"3-4\",\"4224\",\"37\",\"1\",\"Training\",\"Stims/Figures/19-J-10-4.bmp\",\"malala\",\"Right\",\"37\",\"8\",\"11\",\"7\",\"S\",\"J\",\"123\"
\"\",\"\",\"approach-retreat\",\"127\",\"980877\",\"0.0-127.0\",\"\",\"\",\"3-4\",\"4289\",\"37\",\"0\",\"Training\",\"Stims/Figures/71-C-30-1.bmp\",\"ta:kaka\",\"Right\",\"39\",\"8\",\"12\",\"7\",\"P\",\"J\",\"124\"
\"\",\"\",\"approach-retreat\",\"128\",\"987017\",\"0.0-128.0\",\"\",\"\",\"3-4\",\"4627\",\"40\",\"1\",\"Training\",\"Stims/Figures/139-C-20-2.bmp\",\"paka:ka\",\"Down\",\"40\",\"8\",\"13\",\"7\",\"P\",\"J\",\"125\"
\"\",\"\",\"approach-retreat\",\"129\",\"992693\",\"0.0-129.0\",\"\",\"\",\"3-4\",\"4162\",\"38\",\"0\",\"Training\",\"Stims/Figures/85-J-0-2.bmp\",\"pa:ka:ka\",\"Up\",\"40\",\"8\",\"14\",\"7\",\"P\",\"J\",\"126\"
\"\",\"\",\"approach-retreat\",\"130\",\"1000944\",\"0.0-130.0\",\"\",\"\",\"3-4\",\"6738\",\"38\",\"0\",\"Training\",\"Stims/Figures/74-C-20-4.bmp\",\"ma:la:la\",\"Down\",\"40\",\"8\",\"15\",\"7\",\"S\",\"J\",\"127\"
\"\",\"\",\"approach-retreat\",\"131\",\"1007072\",\"0.0-131.0\",\"\",\"\",\"3-4\",\"4623\",\"39\",\"1\",\"Training\",\"Stims/Figures/71-J-0-1.bmp\",\"papata\",\"Left\",\"39\",\"8\",\"16\",\"7\",\"P\",\"J\",\"128\"
\"\",\"\",\"approach-retreat\",\"132\",\"1013459\",\"0.0-132.0\",\"\",\"\",\"3-4\",\"4872\",\"39\",\"0\",\"Training\",\"Stims/Figures/111-J-10-3.bmp\",\"malana\",\"Right\",\"37\",\"9\",\"1\",\"7\",\"S\",\"J\",\"129\"
\"\",\"\",\"approach-retreat\",\"133\",\"1019427\",\"0.0-133.0\",\"\",\"\",\"3-4\",\"4456\",\"37\",\"1\",\"Training\",\"Stims/Figures/100-J-10-3.bmp\",\"mamana\",\"Right\",\"37\",\"9\",\"2\",\"7\",\"S\",\"J\",\"130\"
\"\",\"\",\"approach-retreat\",\"134\",\"1025390\",\"0.0-134.0\",\"\",\"\",\"3-4\",\"4451\",\"40\",\"1\",\"Training\",\"Stims/Figures/19-J-10-4.bmp\",\"malala\",\"Up\",\"40\",\"9\",\"3\",\"7\",\"S\",\"J\",\"131\"
\"\",\"\",\"approach-retreat\",\"135\",\"1032423\",\"0.0-135.0\",\"\",\"\",\"3-4\",\"5519\",\"40\",\"1\",\"Training\",\"Stims/Figures/100-C-30-3.bmp\",\"mamala\",\"Down\",\"40\",\"9\",\"4\",\"7\",\"S\",\"J\",\"132\"
\"\",\"\",\"approach-retreat\",\"136\",\"1038700\",\"0.0-136.0\",\"\",\"\",\"3-4\",\"4763\",\"40\",\"0\",\"Training\",\"Stims/Figures/57-J-0-1.bmp\",\"ta:pa:ta\",\"Down\",\"38\",\"9\",\"5\",\"7\",\"P\",\"J\",\"133\"
\"\",\"\",\"approach-retreat\",\"137\",\"1044503\",\"0.0-137.0\",\"\",\"\",\"3-4\",\"4291\",\"39\",\"0\",\"Training\",\"Stims/Figures/19-C-20-4.bmp\",\"na:lala\",\"Left\",\"37\",\"9\",\"6\",\"7\",\"S\",\"J\",\"134\"
\"\",\"\",\"approach-retreat\",\"138\",\"1050005\",\"0.0-138.0\",\"\",\"\",\"3-4\",\"3987\",\"40\",\"0\",\"Training\",\"Stims/Figures/71-J-0-1.bmp\",\"papata\",\"Down\",\"38\",\"9\",\"7\",\"7\",\"P\",\"J\",\"135\"
\"\",\"\",\"approach-retreat\",\"139\",\"1055503\",\"0.0-139.0\",\"\",\"\",\"3-4\",\"3984\",\"37\",\"1\",\"Training\",\"Stims/Figures/85-C-20-2.bmp\",\"pa:ka:ta\",\"Left\",\"37\",\"9\",\"8\",\"7\",\"P\",\"J\",\"136\"
\"\",\"\",\"approach-retreat\",\"140\",\"1061095\",\"0.0-140.0\",\"\",\"\",\"3-4\",\"4080\",\"39\",\"1\",\"Training\",\"Stims/Figures/57-C-30-1.bmp\",\"taka:ta\",\"Right\",\"39\",\"9\",\"9\",\"7\",\"P\",\"J\",\"137\"
\"\",\"\",\"approach-retreat\",\"141\",\"1066681\",\"0.0-141.0\",\"\",\"\",\"3-4\",\"4072\",\"40\",\"0\",\"Training\",\"Stims/Figures/139-C-20-2.bmp\",\"paka:ka\",\"Up\",\"38\",\"9\",\"10\",\"7\",\"P\",\"J\",\"138\"
\"\",\"\",\"approach-retreat\",\"142\",\"1073729\",\"0.0-142.0\",\"\",\"\",\"3-4\",\"5536\",\"38\",\"1\",\"Training\",\"Stims/Figures/111-C-30-3.bmp\",\"ma:mana\",\"Up\",\"38\",\"9\",\"11\",\"7\",\"S\",\"J\",\"139\"
\"\",\"\",\"approach-retreat\",\"143\",\"1082515\",\"0.0-143.0\",\"\",\"\",\"3-4\",\"7275\",\"38\",\"0\",\"Training\",\"Stims/Figures/74-J-10-4.bmp\",\"nama:la\",\"Up\",\"40\",\"9\",\"12\",\"7\",\"S\",\"J\",\"140\"
\"\",\"\",\"approach-retreat\",\"144\",\"1088716\",\"0.0-144.0\",\"\",\"\",\"3-4\",\"4693\",\"39\",\"1\",\"Training\",\"Stims/Figures/85-J-0-2.bmp\",\"pa:ka:ka\",\"Left\",\"39\",\"9\",\"13\",\"7\",\"P\",\"J\",\"141\"
\"\",\"\",\"approach-retreat\",\"145\",\"1094820\",\"0.0-145.0\",\"\",\"\",\"3-4\",\"4592\",\"37\",\"0\",\"Training\",\"Stims/Figures/74-C-20-4.bmp\",\"ma:la:la\",\"Right\",\"39\",\"9\",\"14\",\"7\",\"S\",\"J\",\"142\"
\"\",\"\",\"approach-retreat\",\"146\",\"1100891\",\"0.0-146.0\",\"\",\"\",\"3-4\",\"4558\",\"37\",\"1\",\"Training\",\"Stims/Figures/71-C-30-1.bmp\",\"ta:kaka\",\"Left\",\"37\",\"9\",\"15\",\"7\",\"P\",\"J\",\"143\"
\"\",\"\",\"approach-retreat\",\"147\",\"1108252\",\"0.0-147.0\",\"\",\"\",\"3-4\",\"5847\",\"40\",\"0\",\"Training\",\"Stims/Figures/139-J-0-2.bmp\",\"ta:ka:ka\",\"Down\",\"38\",\"9\",\"16\",\"7\",\"P\",\"J\",\"144\"
\"20015\",\"\",\"instructions\",\"148\",\"1128267\",\"0.0-148.0\",\"[{\"\"page_index\"\":0,\"\"viewing_time\"\":20014}]\",\"\",\"\",\"\",\"\",\"\",\"\",\"\",\"\",\"\",\"\",\"\",\"\",\"\",\"\",\"\",\"\"
\"\",\"\",\"approach-retreat\",\"149\",\"1134878\",\"0.0-149.0\",\"\",\"\",\"3-4\",\"5100\",\"39\",\"1\",\"Testing\",\"Stims/Figures/94-C-20-2.bmp\",\"ta:pata\",\"Right\",\"39\",\"1\",\"1\",\"7\",\"P\",\"J\",\"1\"
\"\",\"\",\"approach-retreat\",\"150\",\"1140530\",\"0.0-150.0\",\"\",\"\",\"3-4\",\"4139\",\"37\",\"0\",\"Testing\",\"Stims/Figures/74-C-20-4.bmp\",\"ma:la:la\",\"Right\",\"39\",\"1\",\"2\",\"7\",\"S\",\"J\",\"2\"
\"\",\"\",\"approach-retreat\",\"151\",\"1146290\",\"0.0-151.0\",\"\",\"\",\"3-4\",\"4250\",\"40\",\"1\",\"Testing\",\"Stims/Figures/19-J-10-4.bmp\",\"malala\",\"Up\",\"40\",\"1\",\"3\",\"7\",\"S\",\"J\",\"3\"
\"\",\"\",\"approach-retreat\",\"152\",\"1152405\",\"0.0-152.0\",\"\",\"\",\"3-4\",\"4605\",\"37\",\"1\",\"Testing\",\"Stims/Figures/139-C-20-2.bmp\",\"paka:ka\",\"Left\",\"37\",\"1\",\"4\",\"7\",\"P\",\"J\",\"4\"
\"\",\"\",\"approach-retreat\",\"153\",\"1161092\",\"0.0-153.0\",\"\",\"\",\"3-4\",\"7172\",\"37\",\"1\",\"Testing\",\"Stims/Figures/57-J-0-1.bmp\",\"ta:pa:ta\",\"Right\",\"37\",\"1\",\"5\",\"7\",\"P\",\"J\",\"5\"
\"\",\"\",\"approach-retreat\",\"154\",\"1166826\",\"0.0-154.0\",\"\",\"\",\"3-4\",\"4224\",\"38\",\"1\",\"Testing\",\"Stims/Figures/128-J-10-3.bmp\",\"nala:na\",\"Down\",\"38\",\"1\",\"6\",\"7\",\"S\",\"J\",\"6\"
\"\",\"\",\"approach-retreat\",\"155\",\"1172634\",\"0.0-155.0\",\"\",\"\",\"3-4\",\"4299\",\"39\",\"0\",\"Testing\",\"Stims/Figures/94-J-0-2.bmp\",\"takata\",\"Right\",\"37\",\"1\",\"7\",\"7\",\"P\",\"J\",\"7\"
\"\",\"\",\"approach-retreat\",\"156\",\"1178991\",\"0.0-156.0\",\"\",\"\",\"3-4\",\"4847\",\"38\",\"0\",\"Testing\",\"Stims/Figures/85-J-0-2.bmp\",\"pa:ka:ka\",\"Up\",\"40\",\"1\",\"8\",\"7\",\"P\",\"J\",\"8\"
\"\",\"\",\"approach-retreat\",\"157\",\"1184749\",\"0.0-157.0\",\"\",\"\",\"3-4\",\"4249\",\"39\",\"0\",\"Testing\",\"Stims/Figures/71-C-30-1.bmp\",\"ta:kaka\",\"Left\",\"37\",\"1\",\"9\",\"7\",\"P\",\"J\",\"9\"
\"\",\"\",\"approach-retreat\",\"158\",\"1190810\",\"0.0-158.0\",\"\",\"\",\"3-4\",\"4549\",\"40\",\"1\",\"Testing\",\"Stims/Figures/128-C-30-3.bmp\",\"nama:na\",\"Down\",\"40\",\"1\",\"10\",\"7\",\"S\",\"J\",\"10\"
\"\",\"\",\"approach-retreat\",\"159\",\"1196960\",\"0.0-159.0\",\"\",\"\",\"3-4\",\"4640\",\"40\",\"0\",\"Testing\",\"Stims/Figures/71-J-0-1.bmp\",\"papata\",\"Down\",\"38\",\"1\",\"11\",\"7\",\"P\",\"J\",\"11\"
\"\",\"\",\"approach-retreat\",\"160\",\"1202675\",\"0.0-160.0\",\"\",\"\",\"3-4\",\"4206\",\"39\",\"1\",\"Testing\",\"Stims/Figures/100-C-30-3.bmp\",\"mamala\",\"Right\",\"39\",\"1\",\"12\",\"7\",\"S\",\"J\",\"12\"
\"\",\"\",\"approach-retreat\",\"161\",\"1209207\",\"0.0-161.0\",\"\",\"\",\"3-4\",\"5022\",\"40\",\"1\",\"Testing\",\"Stims/Figures/111-C-30-3.bmp\",\"ma:mana\",\"Down\",\"40\",\"1\",\"13\",\"7\",\"S\",\"J\",\"13\"
\"\",\"\",\"approach-retreat\",\"162\",\"1215518\",\"0.0-162.0\",\"\",\"\",\"3-4\",\"4800\",\"40\",\"0\",\"Testing\",\"Stims/Figures/139-J-0-2.bmp\",\"ta:ka:ka\",\"Down\",\"38\",\"1\",\"14\",\"7\",\"P\",\"J\",\"14\"
\"\",\"\",\"approach-retreat\",\"163\",\"1221235\",\"0.0-163.0\",\"\",\"\",\"3-4\",\"4205\",\"37\",\"0\",\"Testing\",\"Stims/Figures/74-J-10-4.bmp\",\"nama:la\",\"Left\",\"39\",\"1\",\"15\",\"7\",\"S\",\"J\",\"15\"
\"\",\"\",\"approach-retreat\",\"164\",\"1227078\",\"0.0-164.0\",\"\",\"\",\"3-4\",\"4333\",\"40\",\"1\",\"Testing\",\"Stims/Figures/102-C-20-4.bmp\",\"na:mala\",\"Down\",\"40\",\"1\",\"16\",\"7\",\"S\",\"J\",\"16\"
\"\",\"\",\"approach-retreat\",\"165\",\"1233120\",\"0.0-165.0\",\"\",\"\",\"3-4\",\"4528\",\"37\",\"1\",\"Testing\",\"Stims/Figures/100-J-10-3.bmp\",\"mamana\",\"Right\",\"37\",\"1\",\"17\",\"7\",\"S\",\"J\",\"17\"
\"\",\"\",\"approach-retreat\",\"166\",\"1238986\",\"0.0-166.0\",\"\",\"\",\"3-4\",\"4357\",\"38\",\"1\",\"Testing\",\"Stims/Figures/57-C-30-1.bmp\",\"taka:ta\",\"Up\",\"38\",\"1\",\"18\",\"7\",\"P\",\"J\",\"18\"
\"\",\"\",\"approach-retreat\",\"167\",\"1244631\",\"0.0-167.0\",\"\",\"\",\"3-4\",\"4125\",\"40\",\"1\",\"Testing\",\"Stims/Figures/111-J-10-3.bmp\",\"malana\",\"Up\",\"40\",\"1\",\"19\",\"7\",\"S\",\"J\",\"19\"
\"\",\"\",\"approach-retreat\",\"168\",\"1250325\",\"0.0-168.0\",\"\",\"\",\"3-4\",\"4181\",\"38\",\"0\",\"Testing\",\"Stims/Figures/102-J-10-4.bmp\",\"namala\",\"Up\",\"40\",\"1\",\"20\",\"7\",\"S\",\"J\",\"20\"
\"\",\"\",\"approach-retreat\",\"169\",\"1255986\",\"0.0-169.0\",\"\",\"\",\"3-4\",\"4150\",\"37\",\"0\",\"Testing\",\"Stims/Figures/93-J-0-1.bmp\",\"ta:kata\",\"Left\",\"39\",\"1\",\"21\",\"7\",\"P\",\"J\",\"21\"
\"\",\"\",\"approach-retreat\",\"170\",\"1261735\",\"0.0-170.0\",\"\",\"\",\"3-4\",\"4237\",\"39\",\"0\",\"Testing\",\"Stims/Figures/85-C-20-2.bmp\",\"pa:ka:ta\",\"Left\",\"37\",\"1\",\"22\",\"7\",\"P\",\"J\",\"22\"
\"\",\"\",\"approach-retreat\",\"171\",\"1267650\",\"0.0-171.0\",\"\",\"\",\"3-4\",\"4405\",\"38\",\"1\",\"Testing\",\"Stims/Figures/19-C-20-4.bmp\",\"na:lala\",\"Up\",\"38\",\"1\",\"23\",\"7\",\"S\",\"J\",\"23\"
\"\",\"\",\"approach-retreat\",\"172\",\"1273339\",\"0.0-172.0\",\"\",\"\",\"3-4\",\"4179\",\"37\",\"1\",\"Testing\",\"Stims/Figures/93-C-30-1.bmp\",\"pa:pa:ka\",\"Left\",\"37\",\"1\",\"24\",\"7\",\"P\",\"J\",\"24\"
\"\",\"\",\"approach-retreat\",\"173\",\"1278870\",\"0.0-173.0\",\"\",\"\",\"3-4\",\"4021\",\"39\",\"0\",\"Testing\",\"Stims/Figures/94-C-20-2.bmp\",\"ta:pata\",\"Left\",\"37\",\"2\",\"1\",\"7\",\"P\",\"J\",\"25\"
\"\",\"\",\"approach-retreat\",\"174\",\"1284939\",\"0.0-174.0\",\"\",\"\",\"3-4\",\"4558\",\"40\",\"0\",\"Testing\",\"Stims/Figures/85-C-20-2.bmp\",\"pa:ka:ta\",\"Up\",\"38\",\"2\",\"2\",\"7\",\"P\",\"J\",\"26\"
\"\",\"\",\"approach-retreat\",\"175\",\"1290853\",\"0.0-175.0\",\"\",\"\",\"3-4\",\"4402\",\"38\",\"0\",\"Testing\",\"Stims/Figures/74-J-10-4.bmp\",\"nama:la\",\"Up\",\"40\",\"2\",\"3\",\"7\",\"S\",\"J\",\"27\"
\"\",\"\",\"approach-retreat\",\"176\",\"1296886\",\"0.0-176.0\",\"\",\"\",\"3-4\",\"4523\",\"37\",\"0\",\"Testing\",\"Stims/Figures/139-J-0-2.bmp\",\"ta:ka:ka\",\"Left\",\"39\",\"2\",\"4\",\"7\",\"P\",\"J\",\"28\"
\"\",\"\",\"approach-retreat\",\"177\",\"1303208\",\"0.0-177.0\",\"\",\"\",\"3-4\",\"4811\",\"40\",\"0\",\"Testing\",\"Stims/Figures/111-J-10-3.bmp\",\"malana\",\"Down\",\"38\",\"2\",\"5\",\"7\",\"S\",\"J\",\"29\"
\"\",\"\",\"approach-retreat\",\"178\",\"1309058\",\"0.0-178.0\",\"\",\"\",\"3-4\",\"4338\",\"38\",\"0\",\"Testing\",\"Stims/Figures/100-J-10-3.bmp\",\"mamana\",\"Up\",\"40\",\"2\",\"6\",\"7\",\"S\",\"J\",\"30\"
\"\",\"\",\"approach-retreat\",\"179\",\"1315010\",\"0.0-179.0\",\"\",\"\",\"3-4\",\"4441\",\"40\",\"1\",\"Testing\",\"Stims/Figures/94-J-0-2.bmp\",\"takata\",\"Up\",\"40\",\"2\",\"7\",\"7\",\"P\",\"J\",\"31\"
\"\",\"\",\"approach-retreat\",\"180\",\"1321622\",\"0.0-180.0\",\"\",\"\",\"3-4\",\"5101\",\"38\",\"1\",\"Testing\",\"Stims/Figures/93-C-30-1.bmp\",\"pa:pa:ka\",\"Up\",\"38\",\"2\",\"8\",\"7\",\"P\",\"J\",\"32\"
\"\",\"\",\"approach-retreat\",\"181\",\"1327599\",\"0.0-181.0\",\"\",\"\",\"3-4\",\"4465\",\"37\",\"1\",\"Testing\",\"Stims/Figures/111-C-30-3.bmp\",\"ma:mana\",\"Left\",\"37\",\"2\",\"9\",\"7\",\"S\",\"J\",\"33\"
\"\",\"\",\"approach-retreat\",\"182\",\"1333856\",\"0.0-182.0\",\"\",\"\",\"3-4\",\"4749\",\"37\",\"0\",\"Testing\",\"Stims/Figures/71-J-0-1.bmp\",\"papata\",\"Left\",\"39\",\"2\",\"10\",\"7\",\"P\",\"J\",\"34\"
\"\",\"\",\"approach-retreat\",\"183\",\"1340352\",\"0.0-183.0\",\"\",\"\",\"3-4\",\"4983\",\"39\",\"1\",\"Testing\",\"Stims/Figures/71-C-30-1.bmp\",\"ta:kaka\",\"Right\",\"39\",\"2\",\"11\",\"7\",\"P\",\"J\",\"35\"
\"\",\"\",\"approach-retreat\",\"184\",\"1346459\",\"0.0-184.0\",\"\",\"\",\"3-4\",\"4597\",\"40\",\"1\",\"Testing\",\"Stims/Figures/93-J-0-1.bmp\",\"ta:kata\",\"Up\",\"40\",\"2\",\"12\",\"7\",\"P\",\"J\",\"36\"
\"\",\"\",\"approach-retreat\",\"185\",\"1352628\",\"0.0-185.0\",\"\",\"\",\"3-4\",\"4655\",\"38\",\"0\",\"Testing\",\"Stims/Figures/74-C-20-4.bmp\",\"ma:la:la\",\"Down\",\"40\",\"2\",\"13\",\"7\",\"S\",\"J\",\"37\"
\"\",\"\",\"approach-retreat\",\"186\",\"1358674\",\"0.0-186.0\",\"\",\"\",\"3-4\",\"4534\",\"40\",\"1\",\"Testing\",\"Stims/Figures/100-C-30-3.bmp\",\"mamala\",\"Down\",\"40\",\"2\",\"14\",\"7\",\"S\",\"J\",\"38\"
\"\",\"\",\"approach-retreat\",\"187\",\"1365080\",\"0.0-187.0\",\"\",\"\",\"3-4\",\"4895\",\"38\",\"1\",\"Testing\",\"Stims/Figures/128-J-10-3.bmp\",\"nala:na\",\"Down\",\"38\",\"2\",\"15\",\"7\",\"S\",\"J\",\"39\"
\"\",\"\",\"approach-retreat\",\"188\",\"1371929\",\"0.0-188.0\",\"\",\"\",\"3-4\",\"5340\",\"37\",\"0\",\"Testing\",\"Stims/Figures/102-J-10-4.bmp\",\"namala\",\"Left\",\"39\",\"2\",\"16\",\"7\",\"S\",\"J\",\"40\"
\"\",\"\",\"approach-retreat\",\"189\",\"1378630\",\"0.0-189.0\",\"\",\"\",\"3-4\",\"5192\",\"37\",\"1\",\"Testing\",\"Stims/Figures/57-J-0-1.bmp\",\"ta:pa:ta\",\"Right\",\"37\",\"2\",\"17\",\"7\",\"P\",\"J\",\"41\"
\"\",\"\",\"approach-retreat\",\"190\",\"1385279\",\"0.0-190.0\",\"\",\"\",\"3-4\",\"5139\",\"39\",\"0\",\"Testing\",\"Stims/Figures/102-C-20-4.bmp\",\"na:mala\",\"Left\",\"37\",\"2\",\"18\",\"7\",\"S\",\"J\",\"42\"
\"\",\"\",\"approach-retreat\",\"191\",\"1391210\",\"0.0-191.0\",\"\",\"\",\"3-4\",\"4421\",\"37\",\"0\",\"Testing\",\"Stims/Figures/128-C-30-3.bmp\",\"nama:na\",\"Right\",\"39\",\"2\",\"19\",\"7\",\"S\",\"J\",\"43\"
\"\",\"\",\"approach-retreat\",\"192\",\"1397137\",\"0.0-192.0\",\"\",\"\",\"3-4\",\"4417\",\"37\",\"1\",\"Testing\",\"Stims/Figures/19-J-10-4.bmp\",\"malala\",\"Right\",\"37\",\"2\",\"20\",\"7\",\"S\",\"J\",\"44\"
\"\",\"\",\"approach-retreat\",\"193\",\"1403369\",\"0.0-193.0\",\"\",\"\",\"3-4\",\"4721\",\"38\",\"0\",\"Testing\",\"Stims/Figures/57-C-30-1.bmp\",\"taka:ta\",\"Down\",\"40\",\"2\",\"21\",\"7\",\"P\",\"J\",\"45\"
\"\",\"\",\"approach-retreat\",\"194\",\"1409715\",\"0.0-194.0\",\"\",\"\",\"3-4\",\"4835\",\"38\",\"0\",\"Testing\",\"Stims/Figures/19-C-20-4.bmp\",\"na:lala\",\"Down\",\"40\",\"2\",\"22\",\"7\",\"S\",\"J\",\"46\"
\"\",\"\",\"approach-retreat\",\"195\",\"1416157\",\"0.0-195.0\",\"\",\"\",\"3-4\",\"4932\",\"37\",\"0\",\"Testing\",\"Stims/Figures/139-C-20-2.bmp\",\"paka:ka\",\"Right\",\"39\",\"2\",\"23\",\"7\",\"P\",\"J\",\"47\"
\"\",\"\",\"approach-retreat\",\"196\",\"1422047\",\"0.0-196.0\",\"\",\"\",\"3-4\",\"4379\",\"39\",\"0\",\"Testing\",\"Stims/Figures/85-J-0-2.bmp\",\"pa:ka:ka\",\"Right\",\"37\",\"2\",\"24\",\"7\",\"P\",\"J\",\"48\"
\"\",\"\",\"approach-retreat\",\"197\",\"1429195\",\"0.0-197.0\",\"\",\"\",\"3-4\",\"5638\",\"38\",\"1\",\"Testing\",\"Stims/Figures/74-J-10-4.bmp\",\"nama:la\",\"Down\",\"38\",\"3\",\"1\",\"7\",\"S\",\"J\",\"49\"
\"\",\"\",\"approach-retreat\",\"198\",\"1435635\",\"0.0-198.0\",\"\",\"\",\"3-4\",\"4927\",\"39\",\"0\",\"Testing\",\"Stims/Figures/94-C-20-2.bmp\",\"ta:pata\",\"Left\",\"37\",\"3\",\"2\",\"7\",\"P\",\"J\",\"50\"
\"\",\"\",\"approach-retreat\",\"199\",\"1441621\",\"0.0-199.0\",\"\",\"\",\"3-4\",\"4479\",\"38\",\"1\",\"Testing\",\"Stims/Figures/100-J-10-3.bmp\",\"mamana\",\"Down\",\"38\",\"3\",\"3\",\"7\",\"S\",\"J\",\"51\"
\"\",\"\",\"approach-retreat\",\"200\",\"1447261\",\"0.0-200.0\",\"\",\"\",\"3-4\",\"4131\",\"37\",\"0\",\"Testing\",\"Stims/Figures/100-C-30-3.bmp\",\"mamala\",\"Right\",\"39\",\"3\",\"4\",\"7\",\"S\",\"J\",\"52\"
\"\",\"\",\"approach-retreat\",\"201\",\"1453240\",\"0.0-201.0\",\"\",\"\",\"3-4\",\"4468\",\"39\",\"1\",\"Testing\",\"Stims/Figures/57-C-30-1.bmp\",\"taka:ta\",\"Right\",\"39\",\"3\",\"5\",\"7\",\"P\",\"J\",\"53\"
\"\",\"\",\"approach-retreat\",\"202\",\"1460150\",\"0.0-202.0\",\"\",\"\",\"3-4\",\"5399\",\"37\",\"1\",\"Testing\",\"Stims/Figures/139-J-0-2.bmp\",\"ta:ka:ka\",\"Right\",\"37\",\"3\",\"6\",\"7\",\"P\",\"J\",\"54\"
\"\",\"\",\"approach-retreat\",\"203\",\"1466005\",\"0.0-203.0\",\"\",\"\",\"3-4\",\"4343\",\"38\",\"1\",\"Testing\",\"Stims/Figures/93-J-0-1.bmp\",\"ta:kata\",\"Down\",\"38\",\"3\",\"7\",\"7\",\"P\",\"J\",\"55\"
\"\",\"\",\"approach-retreat\",\"204\",\"1472391\",\"0.0-204.0\",\"\",\"\",\"3-4\",\"4875\",\"37\",\"1\",\"Testing\",\"Stims/Figures/102-J-10-4.bmp\",\"namala\",\"Right\",\"37\",\"3\",\"8\",\"7\",\"S\",\"J\",\"56\"
\"\",\"\",\"approach-retreat\",\"205\",\"1478583\",\"0.0-205.0\",\"\",\"\",\"3-4\",\"4682\",\"39\",\"1\",\"Testing\",\"Stims/Figures/128-C-30-3.bmp\",\"nama:na\",\"Right\",\"39\",\"3\",\"9\",\"7\",\"S\",\"J\",\"57\"
\"\",\"\",\"approach-retreat\",\"206\",\"1485198\",\"0.0-206.0\",\"\",\"\",\"3-4\",\"5102\",\"38\",\"0\",\"Testing\",\"Stims/Figures/128-J-10-3.bmp\",\"nala:na\",\"Up\",\"40\",\"3\",\"10\",\"7\",\"S\",\"J\",\"58\"
\"\",\"\",\"approach-retreat\",\"207\",\"1491238\",\"0.0-207.0\",\"\",\"\",\"3-4\",\"4529\",\"40\",\"0\",\"Testing\",\"Stims/Figures/111-C-30-3.bmp\",\"ma:mana\",\"Up\",\"38\",\"3\",\"11\",\"7\",\"S\",\"J\",\"59\"
\"\",\"\",\"approach-retreat\",\"208\",\"1497442\",\"0.0-208.0\",\"\",\"\",\"3-4\",\"4695\",\"37\",\"0\",\"Testing\",\"Stims/Figures/85-J-0-2.bmp\",\"pa:ka:ka\",\"Left\",\"39\",\"3\",\"12\",\"7\",\"P\",\"J\",\"60\"
\"\",\"\",\"approach-retreat\",\"209\",\"1504292\",\"0.0-209.0\",\"\",\"\",\"3-4\",\"5339\",\"39\",\"1\",\"Testing\",\"Stims/Figures/85-C-20-2.bmp\",\"pa:ka:ta\",\"Right\",\"39\",\"3\",\"13\",\"7\",\"P\",\"J\",\"61\"
\"\",\"\",\"approach-retreat\",\"210\",\"1510190\",\"0.0-210.0\",\"\",\"\",\"3-4\",\"4387\",\"37\",\"1\",\"Testing\",\"Stims/Figures/71-C-30-1.bmp\",\"ta:kaka\",\"Left\",\"37\",\"3\",\"14\",\"7\",\"P\",\"J\",\"62\"
\"\",\"\",\"approach-retreat\",\"211\",\"1516255\",\"0.0-211.0\",\"\",\"\",\"3-4\",\"4553\",\"38\",\"1\",\"Testing\",\"Stims/Figures/19-C-20-4.bmp\",\"na:lala\",\"Up\",\"38\",\"3\",\"15\",\"7\",\"S\",\"J\",\"63\"
\"\",\"\",\"approach-retreat\",\"212\",\"1522100\",\"0.0-212.0\",\"\",\"\",\"3-4\",\"4333\",\"40\",\"0\",\"Testing\",\"Stims/Figures/94-J-0-2.bmp\",\"takata\",\"Down\",\"38\",\"3\",\"16\",\"7\",\"P\",\"J\",\"64\"
\"\",\"\",\"approach-retreat\",\"213\",\"1527969\",\"0.0-213.0\",\"\",\"\",\"3-4\",\"4358\",\"40\",\"1\",\"Testing\",\"Stims/Figures/111-J-10-3.bmp\",\"malana\",\"Up\",\"40\",\"3\",\"17\",\"7\",\"S\",\"J\",\"65\"
\"\",\"\",\"approach-retreat\",\"214\",\"1534618\",\"0.0-214.0\",\"\",\"\",\"3-4\",\"5139\",\"37\",\"0\",\"Testing\",\"Stims/Figures/19-J-10-4.bmp\",\"malala\",\"Left\",\"39\",\"3\",\"18\",\"7\",\"S\",\"J\",\"66\"
\"\",\"\",\"approach-retreat\",\"215\",\"1540475\",\"0.0-215.0\",\"\",\"\",\"3-4\",\"4348\",\"39\",\"0\",\"Testing\",\"Stims/Figures/74-C-20-4.bmp\",\"ma:la:la\",\"Left\",\"37\",\"3\",\"19\",\"7\",\"S\",\"J\",\"67\"
\"\",\"\",\"approach-retreat\",\"216\",\"1546715\",\"0.0-216.0\",\"\",\"\",\"3-4\",\"4728\",\"40\",\"0\",\"Testing\",\"Stims/Figures/71-J-0-1.bmp\",\"papata\",\"Down\",\"38\",\"3\",\"20\",\"7\",\"P\",\"J\",\"68\"
\"\",\"\",\"approach-retreat\",\"217\",\"1552552\",\"0.0-217.0\",\"\",\"\",\"3-4\",\"4327\",\"38\",\"0\",\"Testing\",\"Stims/Figures/102-C-20-4.bmp\",\"na:mala\",\"Down\",\"40\",\"3\",\"21\",\"7\",\"S\",\"J\",\"69\"
\"\",\"\",\"approach-retreat\",\"218\",\"1558437\",\"0.0-218.0\",\"\",\"\",\"3-4\",\"4372\",\"39\",\"0\",\"Testing\",\"Stims/Figures/93-C-30-1.bmp\",\"pa:pa:ka\",\"Left\",\"37\",\"3\",\"22\",\"7\",\"P\",\"J\",\"70\"
\"\",\"\",\"approach-retreat\",\"219\",\"1564920\",\"0.0-219.0\",\"\",\"\",\"3-4\",\"4972\",\"38\",\"0\",\"Testing\",\"Stims/Figures/57-J-0-1.bmp\",\"ta:pa:ta\",\"Up\",\"40\",\"3\",\"23\",\"7\",\"P\",\"J\",\"71\"
\"\",\"\",\"approach-retreat\",\"220\",\"1570755\",\"0.0-220.0\",\"\",\"\",\"3-4\",\"4326\",\"40\",\"0\",\"Testing\",\"Stims/Figures/139-C-20-2.bmp\",\"paka:ka\",\"Up\",\"38\",\"3\",\"24\",\"7\",\"P\",\"J\",\"72\"
\"\",\"\",\"approach-retreat\",\"221\",\"1576842\",\"0.0-221.0\",\"\",\"\",\"3-4\",\"4578\",\"39\",\"1\",\"Testing\",\"Stims/Figures/128-J-10-3.bmp\",\"nala:na\",\"Left\",\"39\",\"4\",\"1\",\"7\",\"S\",\"J\",\"73\"
\"\",\"\",\"approach-retreat\",\"222\",\"1583141\",\"0.0-222.0\",\"\",\"\",\"3-4\",\"4791\",\"38\",\"0\",\"Testing\",\"Stims/Figures/94-C-20-2.bmp\",\"ta:pata\",\"Down\",\"40\",\"4\",\"2\",\"7\",\"P\",\"J\",\"74\"
\"\",\"\",\"approach-retreat\",\"223\",\"1588969\",\"0.0-223.0\",\"\",\"\",\"3-4\",\"4316\",\"39\",\"1\",\"Testing\",\"Stims/Figures/57-C-30-1.bmp\",\"taka:ta\",\"Right\",\"39\",\"4\",\"3\",\"7\",\"P\",\"J\",\"75\"
\"\",\"\",\"approach-retreat\",\"224\",\"1594766\",\"0.0-224.0\",\"\",\"\",\"3-4\",\"4285\",\"37\",\"1\",\"Testing\",\"Stims/Figures/74-C-20-4.bmp\",\"ma:la:la\",\"Left\",\"37\",\"4\",\"4\",\"7\",\"S\",\"J\",\"76\"
\"\",\"\",\"approach-retreat\",\"225\",\"1600396\",\"0.0-225.0\",\"\",\"\",\"3-4\",\"4119\",\"38\",\"1\",\"Testing\",\"Stims/Figures/57-J-0-1.bmp\",\"ta:pa:ta\",\"Down\",\"38\",\"4\",\"5\",\"7\",\"P\",\"J\",\"77\"
\"\",\"\",\"approach-retreat\",\"226\",\"1606159\",\"0.0-226.0\",\"\",\"\",\"3-4\",\"4252\",\"39\",\"0\",\"Testing\",\"Stims/Figures/111-C-30-3.bmp\",\"ma:mana\",\"Left\",\"37\",\"4\",\"6\",\"7\",\"S\",\"J\",\"78\"
\"\",\"\",\"approach-retreat\",\"227\",\"1611976\",\"0.0-227.0\",\"\",\"\",\"3-4\",\"4308\",\"40\",\"1\",\"Testing\",\"Stims/Figures/19-J-10-4.bmp\",\"malala\",\"Up\",\"40\",\"4\",\"7\",\"7\",\"S\",\"J\",\"79\"
\"\",\"\",\"approach-retreat\",\"228\",\"1618006\",\"0.0-228.0\",\"\",\"\",\"3-4\",\"4520\",\"40\",\"0\",\"Testing\",\"Stims/Figures/19-C-20-4.bmp\",\"na:lala\",\"Up\",\"38\",\"4\",\"8\",\"7\",\"S\",\"J\",\"80\"
\"\",\"\",\"approach-retreat\",\"229\",\"1623908\",\"0.0-229.0\",\"\",\"\",\"3-4\",\"4392\",\"37\",\"1\",\"Testing\",\"Stims/Figures/102-J-10-4.bmp\",\"namala\",\"Right\",\"37\",\"4\",\"9\",\"7\",\"S\",\"J\",\"81\"
\"\",\"\",\"approach-retreat\",\"230\",\"1629734\",\"0.0-230.0\",\"\",\"\",\"3-4\",\"4318\",\"39\",\"0\",\"Testing\",\"Stims/Figures/100-C-30-3.bmp\",\"mamala\",\"Left\",\"37\",\"4\",\"10\",\"7\",\"S\",\"J\",\"82\"
\"\",\"\",\"approach-retreat\",\"231\",\"1635893\",\"0.0-231.0\",\"\",\"\",\"3-4\",\"4648\",\"37\",\"1\",\"Testing\",\"Stims/Figures/93-J-0-1.bmp\",\"ta:kata\",\"Right\",\"37\",\"4\",\"11\",\"7\",\"P\",\"J\",\"83\"
\"\",\"\",\"approach-retreat\",\"232\",\"1641649\",\"0.0-232.0\",\"\",\"\",\"3-4\",\"4245\",\"38\",\"0\",\"Testing\",\"Stims/Figures/85-C-20-2.bmp\",\"pa:ka:ta\",\"Down\",\"40\",\"4\",\"12\",\"7\",\"P\",\"J\",\"84\"
\"\",\"\",\"approach-retreat\",\"233\",\"1647688\",\"0.0-233.0\",\"\",\"\",\"3-4\",\"4527\",\"40\",\"1\",\"Testing\",\"Stims/Figures/111-J-10-3.bmp\",\"malana\",\"Up\",\"40\",\"4\",\"13\",\"7\",\"S\",\"J\",\"85\"
\"\",\"\",\"approach-retreat\",\"234\",\"1653675\",\"0.0-234.0\",\"\",\"\",\"3-4\",\"4478\",\"39\",\"1\",\"Testing\",\"Stims/Figures/71-J-0-1.bmp\",\"papata\",\"Left\",\"39\",\"4\",\"14\",\"7\",\"P\",\"J\",\"86\"
\"\",\"\",\"approach-retreat\",\"235\",\"1659630\",\"0.0-235.0\",\"\",\"\",\"3-4\",\"4446\",\"37\",\"0\",\"Testing\",\"Stims/Figures/128-C-30-3.bmp\",\"nama:na\",\"Right\",\"39\",\"4\",\"15\",\"7\",\"S\",\"J\",\"87\"
\"\",\"\",\"approach-retreat\",\"236\",\"1665659\",\"0.0-236.0\",\"\",\"\",\"3-4\",\"4517\",\"38\",\"1\",\"Testing\",\"Stims/Figures/85-J-0-2.bmp\",\"pa:ka:ka\",\"Down\",\"38\",\"4\",\"16\",\"7\",\"P\",\"J\",\"88\"
\"\",\"\",\"approach-retreat\",\"237\",\"1671467\",\"0.0-237.0\",\"\",\"\",\"3-4\",\"4295\",\"38\",\"1\",\"Testing\",\"Stims/Figures/94-J-0-2.bmp\",\"takata\",\"Down\",\"38\",\"4\",\"17\",\"7\",\"P\",\"J\",\"89\"
\"\",\"\",\"approach-retreat\",\"238\",\"1676928\",\"0.0-238.0\",\"\",\"\",\"3-4\",\"3951\",\"38\",\"0\",\"Testing\",\"Stims/Figures/139-J-0-2.bmp\",\"ta:ka:ka\",\"Up\",\"40\",\"4\",\"18\",\"7\",\"P\",\"J\",\"90\"
\"\",\"\",\"approach-retreat\",\"239\",\"1682655\",\"0.0-239.0\",\"\",\"\",\"3-4\",\"4216\",\"40\",\"1\",\"Testing\",\"Stims/Figures/74-J-10-4.bmp\",\"nama:la\",\"Up\",\"40\",\"4\",\"19\",\"7\",\"S\",\"J\",\"91\"
\"\",\"\",\"approach-retreat\",\"240\",\"1688417\",\"0.0-240.0\",\"\",\"\",\"3-4\",\"4252\",\"40\",\"0\",\"Testing\",\"Stims/Figures/93-C-30-1.bmp\",\"pa:pa:ka\",\"Up\",\"38\",\"4\",\"20\",\"7\",\"P\",\"J\",\"92\"
\"\",\"\",\"approach-retreat\",\"241\",\"1694394\",\"0.0-241.0\",\"\",\"\",\"3-4\",\"4467\",\"38\",\"0\",\"Testing\",\"Stims/Figures/102-C-20-4.bmp\",\"na:mala\",\"Down\",\"40\",\"4\",\"21\",\"7\",\"S\",\"J\",\"93\"
\"\",\"\",\"approach-retreat\",\"242\",\"1700172\",\"0.0-242.0\",\"\",\"\",\"3-4\",\"4269\",\"37\",\"0\",\"Testing\",\"Stims/Figures/71-C-30-1.bmp\",\"ta:kaka\",\"Right\",\"39\",\"4\",\"22\",\"7\",\"P\",\"J\",\"94\"
\"\",\"\",\"approach-retreat\",\"243\",\"1706388\",\"0.0-243.0\",\"\",\"\",\"3-4\",\"4710\",\"37\",\"0\",\"Testing\",\"Stims/Figures/100-J-10-3.bmp\",\"mamana\",\"Left\",\"39\",\"4\",\"23\",\"7\",\"S\",\"J\",\"95\"
\"\",\"\",\"approach-retreat\",\"244\",\"1713113\",\"0.0-244.0\",\"\",\"\",\"3-4\",\"5213\",\"39\",\"1\",\"Testing\",\"Stims/Figures/139-C-20-2.bmp\",\"paka:ka\",\"Right\",\"39\",\"4\",\"24\",\"7\",\"P\",\"J\",\"96\"
\"17567\",\"\",\"survey-text\",\"245\",\"1730694\",\"0.0-245.0\",\"\",\"{\"\"Q0\"\":\"\"PS170066\"\"}\",\"\",\"\",\"\",\"\",\"\",\"\",\"\",\"\",\"\",\"\",\"\",\"\",\"\",\"\",\"\"
