\"rt\",\"key_press\",\"trial_type\",\"trial_index\",\"time_elapsed\",\"internal_node_id\",\"view_history\",\"responses\",\"Id\",\"Rt\",\"ResKeyCode\",\"ResCorr\",\"TrialType2\",\"Image\",\"Label\",\"Location\",\"CorrectResponse\",\"Block\",\"BlockTrial\",\"Condition\",\"LabelType\",\"Subcondition\",\"trialNum\"
\"17930\",\"32\",\"text\",\"0\",\"17937\",\"0.0-0.0-0.0\",\"\",\"\",\"\",\"\",\"\",\"\",\"\",\"\",\"\",\"\",\"\",\"\",\"\",\"\",\"\",\"\",\"\"
\"87656\",\"\",\"instructions\",\"1\",\"105598\",\"0.0-1.0\",\"[{\"\"page_index\"\":0,\"\"viewing_time\"\":87656}]\",\"\",\"\",\"\",\"\",\"\",\"\",\"\",\"\",\"\",\"\",\"\",\"\",\"\",\"\",\"\",\"\"
\"23376\",\"\",\"survey-multi-choice\",\"2\",\"129046\",\"0.0-2.0\",\"\",\"{\"\"Q0\"\":\"\"Da\"\",\"\"Q1\"\":\"\"Da\"\",\"\"Q2\"\":\"\"Da\"\",\"\"Q3\"\":\"\"Da\"\",\"\"Q4\"\":\"\"Da\"\",\"\"Q5\"\":\"\"Da\"\"}\",\"\",\"\",\"\",\"\",\"\",\"\",\"\",\"\",\"\",\"\",\"\",\"\",\"\",\"\",\"\"
\"\",\"\",\"bio\",\"3\",\"141609\",\"0.0-3.0\",\"\",\"{\"\"age\"\":\"\"21\"\",\"\"gender\"\":\"\"f\"\",\"\"specify\"\":\"\"\"\"}\",\"\",\"\",\"\",\"\",\"\",\"\",\"\",\"\",\"\",\"\",\"\",\"\",\"\",\"\",\"\"
\"\",\"\",\"approach-retreat\",\"4\",\"154433\",\"0.0-4.0\",\"\",\"\",\"2-5\",\"11295\",\"40\",\"1\",\"Training\",\"Stims/Figures/93-J-0-1.bmp\",\"None\",\"Up\",\"40\",\"1\",\"1\",\"10\",\"N\",\"J\",\"1\"
\"\",\"\",\"approach-retreat\",\"5\",\"161270\",\"0.0-5.0\",\"\",\"\",\"2-5\",\"5320\",\"37\",\"0\",\"Training\",\"Stims/Figures/84-C-20-2.bmp\",\"None\",\"Right\",\"39\",\"1\",\"2\",\"10\",\"N\",\"J\",\"2\"
\"\",\"\",\"approach-retreat\",\"6\",\"169565\",\"0.0-6.0\",\"\",\"\",\"2-5\",\"6779\",\"39\",\"1\",\"Training\",\"Stims/Figures/44-J-10-3.bmp\",\"None\",\"Left\",\"39\",\"1\",\"3\",\"10\",\"N\",\"J\",\"3\"
\"\",\"\",\"approach-retreat\",\"7\",\"176026\",\"0.0-7.0\",\"\",\"\",\"2-5\",\"4943\",\"40\",\"0\",\"Training\",\"Stims/Figures/102-C-20-4.bmp\",\"None\",\"Up\",\"38\",\"1\",\"4\",\"10\",\"N\",\"J\",\"4\"
\"\",\"\",\"approach-retreat\",\"8\",\"182504\",\"0.0-8.0\",\"\",\"\",\"2-5\",\"4967\",\"40\",\"0\",\"Training\",\"Stims/Figures/74-J-10-4.bmp\",\"None\",\"Down\",\"38\",\"1\",\"5\",\"10\",\"N\",\"J\",\"5\"
\"\",\"\",\"approach-retreat\",\"9\",\"188572\",\"0.0-9.0\",\"\",\"\",\"2-5\",\"4557\",\"40\",\"0\",\"Training\",\"Stims/Figures/93-C-30-1.bmp\",\"None\",\"Up\",\"38\",\"1\",\"6\",\"10\",\"N\",\"J\",\"6\"
\"\",\"\",\"approach-retreat\",\"10\",\"194930\",\"0.0-10.0\",\"\",\"\",\"2-5\",\"4834\",\"39\",\"0\",\"Training\",\"Stims/Figures/128-C-30-3.bmp\",\"None\",\"Left\",\"37\",\"1\",\"7\",\"10\",\"N\",\"J\",\"7\"
\"\",\"\",\"approach-retreat\",\"11\",\"201137\",\"0.0-11.0\",\"\",\"\",\"2-5\",\"4694\",\"37\",\"1\",\"Training\",\"Stims/Figures/84-J-0-2.bmp\",\"None\",\"Right\",\"37\",\"1\",\"8\",\"10\",\"N\",\"J\",\"8\"
\"\",\"\",\"approach-retreat\",\"12\",\"207008\",\"0.0-12.0\",\"\",\"\",\"2-5\",\"4358\",\"40\",\"0\",\"Training\",\"Stims/Figures/71-J-0-1.bmp\",\"None\",\"Down\",\"38\",\"1\",\"9\",\"10\",\"N\",\"J\",\"9\"
\"\",\"\",\"approach-retreat\",\"13\",\"213219\",\"0.0-13.0\",\"\",\"\",\"2-5\",\"4687\",\"40\",\"1\",\"Training\",\"Stims/Figures/71-C-30-1.bmp\",\"None\",\"Down\",\"40\",\"1\",\"10\",\"10\",\"N\",\"J\",\"10\"
\"\",\"\",\"approach-retreat\",\"14\",\"219263\",\"0.0-14.0\",\"\",\"\",\"2-5\",\"4522\",\"37\",\"1\",\"Training\",\"Stims/Figures/44-C-30-3.bmp\",\"None\",\"Left\",\"37\",\"1\",\"11\",\"10\",\"N\",\"J\",\"11\"
\"\",\"\",\"approach-retreat\",\"15\",\"225842\",\"0.0-15.0\",\"\",\"\",\"2-5\",\"5064\",\"39\",\"0\",\"Training\",\"Stims/Figures/85-J-0-2.bmp\",\"None\",\"Right\",\"37\",\"1\",\"12\",\"10\",\"N\",\"J\",\"12\"
\"\",\"\",\"approach-retreat\",\"16\",\"231716\",\"0.0-16.0\",\"\",\"\",\"2-5\",\"4350\",\"39\",\"0\",\"Training\",\"Stims/Figures/102-J-10-4.bmp\",\"None\",\"Right\",\"37\",\"1\",\"13\",\"10\",\"N\",\"J\",\"13\"
\"\",\"\",\"approach-retreat\",\"17\",\"239017\",\"0.0-17.0\",\"\",\"\",\"2-5\",\"5790\",\"39\",\"1\",\"Training\",\"Stims/Figures/128-J-10-3.bmp\",\"None\",\"Left\",\"39\",\"1\",\"14\",\"10\",\"N\",\"J\",\"14\"
\"\",\"\",\"approach-retreat\",\"18\",\"244733\",\"0.0-18.0\",\"\",\"\",\"2-5\",\"4197\",\"40\",\"0\",\"Training\",\"Stims/Figures/85-C-20-2.bmp\",\"None\",\"Up\",\"38\",\"1\",\"15\",\"10\",\"N\",\"J\",\"15\"
\"\",\"\",\"approach-retreat\",\"19\",\"250668\",\"0.0-19.0\",\"\",\"\",\"2-5\",\"4414\",\"40\",\"1\",\"Training\",\"Stims/Figures/74-C-20-4.bmp\",\"None\",\"Down\",\"40\",\"1\",\"16\",\"10\",\"N\",\"J\",\"16\"
\"\",\"\",\"approach-retreat\",\"20\",\"256585\",\"0.0-20.0\",\"\",\"\",\"2-5\",\"4394\",\"39\",\"0\",\"Training\",\"Stims/Figures/74-J-10-4.bmp\",\"None\",\"Right\",\"37\",\"2\",\"1\",\"10\",\"N\",\"J\",\"17\"
\"\",\"\",\"approach-retreat\",\"21\",\"263779\",\"0.0-21.0\",\"\",\"\",\"2-5\",\"5677\",\"40\",\"1\",\"Training\",\"Stims/Figures/93-J-0-1.bmp\",\"None\",\"Up\",\"40\",\"2\",\"2\",\"10\",\"N\",\"J\",\"18\"
\"\",\"\",\"approach-retreat\",\"22\",\"269640\",\"0.0-22.0\",\"\",\"\",\"2-5\",\"4348\",\"39\",\"0\",\"Training\",\"Stims/Figures/44-C-30-3.bmp\",\"None\",\"Left\",\"37\",\"2\",\"3\",\"10\",\"N\",\"J\",\"19\"
\"\",\"\",\"approach-retreat\",\"23\",\"275350\",\"0.0-23.0\",\"\",\"\",\"2-5\",\"4185\",\"40\",\"0\",\"Training\",\"Stims/Figures/93-C-30-1.bmp\",\"None\",\"Up\",\"38\",\"2\",\"4\",\"10\",\"N\",\"J\",\"20\"
\"\",\"\",\"approach-retreat\",\"24\",\"280995\",\"0.0-24.0\",\"\",\"\",\"2-5\",\"4128\",\"39\",\"1\",\"Training\",\"Stims/Figures/85-J-0-2.bmp\",\"None\",\"Left\",\"39\",\"2\",\"5\",\"10\",\"N\",\"J\",\"21\"
\"\",\"\",\"approach-retreat\",\"25\",\"287626\",\"0.0-25.0\",\"\",\"\",\"2-5\",\"5115\",\"38\",\"1\",\"Training\",\"Stims/Figures/102-J-10-4.bmp\",\"None\",\"Down\",\"38\",\"2\",\"6\",\"10\",\"N\",\"J\",\"22\"
\"\",\"\",\"approach-retreat\",\"26\",\"294191\",\"0.0-26.0\",\"\",\"\",\"2-5\",\"5051\",\"38\",\"1\",\"Training\",\"Stims/Figures/44-J-10-3.bmp\",\"None\",\"Down\",\"38\",\"2\",\"7\",\"10\",\"N\",\"J\",\"23\"
\"\",\"\",\"approach-retreat\",\"27\",\"300125\",\"0.0-27.0\",\"\",\"\",\"2-5\",\"4417\",\"39\",\"1\",\"Training\",\"Stims/Figures/84-C-20-2.bmp\",\"None\",\"Right\",\"39\",\"2\",\"8\",\"10\",\"N\",\"J\",\"24\"
\"\",\"\",\"approach-retreat\",\"28\",\"306170\",\"0.0-28.0\",\"\",\"\",\"2-5\",\"4523\",\"37\",\"0\",\"Training\",\"Stims/Figures/85-C-20-2.bmp\",\"None\",\"Right\",\"39\",\"2\",\"9\",\"10\",\"N\",\"J\",\"25\"
\"\",\"\",\"approach-retreat\",\"29\",\"312393\",\"0.0-29.0\",\"\",\"\",\"2-5\",\"4712\",\"38\",\"0\",\"Training\",\"Stims/Figures/102-C-20-4.bmp\",\"None\",\"Down\",\"40\",\"2\",\"10\",\"10\",\"N\",\"J\",\"26\"
\"\",\"\",\"approach-retreat\",\"30\",\"318231\",\"0.0-30.0\",\"\",\"\",\"2-5\",\"4329\",\"38\",\"1\",\"Training\",\"Stims/Figures/128-C-30-3.bmp\",\"None\",\"Up\",\"38\",\"2\",\"11\",\"10\",\"N\",\"J\",\"27\"
\"\",\"\",\"approach-retreat\",\"31\",\"324607\",\"0.0-31.0\",\"\",\"\",\"2-5\",\"4850\",\"37\",\"1\",\"Training\",\"Stims/Figures/71-C-30-1.bmp\",\"None\",\"Left\",\"37\",\"2\",\"12\",\"10\",\"N\",\"J\",\"28\"
\"\",\"\",\"approach-retreat\",\"32\",\"331488\",\"0.0-32.0\",\"\",\"\",\"2-5\",\"5370\",\"40\",\"1\",\"Training\",\"Stims/Figures/74-C-20-4.bmp\",\"None\",\"Down\",\"40\",\"2\",\"13\",\"10\",\"N\",\"J\",\"29\"
\"\",\"\",\"approach-retreat\",\"33\",\"337240\",\"0.0-33.0\",\"\",\"\",\"2-5\",\"4241\",\"39\",\"1\",\"Training\",\"Stims/Figures/84-J-0-2.bmp\",\"None\",\"Left\",\"39\",\"2\",\"14\",\"10\",\"N\",\"J\",\"30\"
\"\",\"\",\"approach-retreat\",\"34\",\"345088\",\"0.0-34.0\",\"\",\"\",\"2-5\",\"6334\",\"38\",\"0\",\"Training\",\"Stims/Figures/71-J-0-1.bmp\",\"None\",\"Up\",\"40\",\"2\",\"15\",\"10\",\"N\",\"J\",\"31\"
\"\",\"\",\"approach-retreat\",\"35\",\"350823\",\"0.0-35.0\",\"\",\"\",\"2-5\",\"4223\",\"37\",\"1\",\"Training\",\"Stims/Figures/128-J-10-3.bmp\",\"None\",\"Right\",\"37\",\"2\",\"16\",\"10\",\"N\",\"J\",\"32\"
\"\",\"\",\"approach-retreat\",\"36\",\"357762\",\"0.0-36.0\",\"\",\"\",\"2-5\",\"5415\",\"39\",\"1\",\"Training\",\"Stims/Figures/44-C-30-3.bmp\",\"None\",\"Right\",\"39\",\"3\",\"1\",\"10\",\"N\",\"J\",\"33\"
\"\",\"\",\"approach-retreat\",\"37\",\"363918\",\"0.0-37.0\",\"\",\"\",\"2-5\",\"4631\",\"38\",\"0\",\"Training\",\"Stims/Figures/85-J-0-2.bmp\",\"None\",\"Up\",\"40\",\"3\",\"2\",\"10\",\"N\",\"J\",\"34\"
\"\",\"\",\"approach-retreat\",\"38\",\"369638\",\"0.0-38.0\",\"\",\"\",\"2-5\",\"4209\",\"37\",\"1\",\"Training\",\"Stims/Figures/93-J-0-1.bmp\",\"None\",\"Right\",\"37\",\"3\",\"3\",\"10\",\"N\",\"J\",\"35\"
\"\",\"\",\"approach-retreat\",\"39\",\"375372\",\"0.0-39.0\",\"\",\"\",\"2-5\",\"4217\",\"38\",\"0\",\"Training\",\"Stims/Figures/74-C-20-4.bmp\",\"None\",\"Down\",\"40\",\"3\",\"4\",\"10\",\"N\",\"J\",\"36\"
\"\",\"\",\"approach-retreat\",\"40\",\"380982\",\"0.0-40.0\",\"\",\"\",\"2-5\",\"4091\",\"40\",\"0\",\"Training\",\"Stims/Figures/102-C-20-4.bmp\",\"None\",\"Up\",\"38\",\"3\",\"5\",\"10\",\"N\",\"J\",\"37\"
\"\",\"\",\"approach-retreat\",\"41\",\"386683\",\"0.0-41.0\",\"\",\"\",\"2-5\",\"4176\",\"37\",\"1\",\"Training\",\"Stims/Figures/128-J-10-3.bmp\",\"None\",\"Right\",\"37\",\"3\",\"6\",\"10\",\"N\",\"J\",\"38\"
\"\",\"\",\"approach-retreat\",\"42\",\"393171\",\"0.0-42.0\",\"\",\"\",\"2-5\",\"4962\",\"40\",\"1\",\"Training\",\"Stims/Figures/128-C-30-3.bmp\",\"None\",\"Down\",\"40\",\"3\",\"7\",\"10\",\"N\",\"J\",\"39\"
\"\",\"\",\"approach-retreat\",\"43\",\"399952\",\"0.0-43.0\",\"\",\"\",\"2-5\",\"5259\",\"39\",\"0\",\"Training\",\"Stims/Figures/84-C-20-2.bmp\",\"None\",\"Left\",\"37\",\"3\",\"8\",\"10\",\"N\",\"J\",\"40\"
\"\",\"\",\"approach-retreat\",\"44\",\"406021\",\"0.0-44.0\",\"\",\"\",\"2-5\",\"4551\",\"38\",\"0\",\"Training\",\"Stims/Figures/71-C-30-1.bmp\",\"None\",\"Down\",\"40\",\"3\",\"9\",\"10\",\"N\",\"J\",\"41\"
\"\",\"\",\"approach-retreat\",\"45\",\"412201\",\"0.0-45.0\",\"\",\"\",\"2-5\",\"4659\",\"37\",\"1\",\"Training\",\"Stims/Figures/102-J-10-4.bmp\",\"None\",\"Right\",\"37\",\"3\",\"10\",\"10\",\"N\",\"J\",\"42\"
\"\",\"\",\"approach-retreat\",\"46\",\"418476\",\"0.0-46.0\",\"\",\"\",\"2-5\",\"4748\",\"37\",\"0\",\"Training\",\"Stims/Figures/84-J-0-2.bmp\",\"None\",\"Left\",\"39\",\"3\",\"11\",\"10\",\"N\",\"J\",\"43\"
\"\",\"\",\"approach-retreat\",\"47\",\"424697\",\"0.0-47.0\",\"\",\"\",\"2-5\",\"4707\",\"38\",\"1\",\"Training\",\"Stims/Figures/85-C-20-2.bmp\",\"None\",\"Up\",\"38\",\"3\",\"12\",\"10\",\"N\",\"J\",\"44\"
\"\",\"\",\"approach-retreat\",\"48\",\"431952\",\"0.0-48.0\",\"\",\"\",\"2-5\",\"5743\",\"38\",\"0\",\"Training\",\"Stims/Figures/74-J-10-4.bmp\",\"None\",\"Up\",\"40\",\"3\",\"13\",\"10\",\"N\",\"J\",\"45\"
\"\",\"\",\"approach-retreat\",\"49\",\"437732\",\"0.0-49.0\",\"\",\"\",\"2-5\",\"4258\",\"39\",\"0\",\"Training\",\"Stims/Figures/93-C-30-1.bmp\",\"None\",\"Left\",\"37\",\"3\",\"14\",\"10\",\"N\",\"J\",\"46\"
\"\",\"\",\"approach-retreat\",\"50\",\"443684\",\"0.0-50.0\",\"\",\"\",\"2-5\",\"4440\",\"40\",\"0\",\"Training\",\"Stims/Figures/44-J-10-3.bmp\",\"None\",\"Down\",\"38\",\"3\",\"15\",\"10\",\"N\",\"J\",\"47\"
\"\",\"\",\"approach-retreat\",\"51\",\"449460\",\"0.0-51.0\",\"\",\"\",\"2-5\",\"4260\",\"39\",\"1\",\"Training\",\"Stims/Figures/71-J-0-1.bmp\",\"None\",\"Left\",\"39\",\"3\",\"16\",\"10\",\"N\",\"J\",\"48\"
\"\",\"\",\"approach-retreat\",\"52\",\"455172\",\"0.0-52.0\",\"\",\"\",\"2-5\",\"4198\",\"40\",\"1\",\"Training\",\"Stims/Figures/128-J-10-3.bmp\",\"None\",\"Up\",\"40\",\"4\",\"1\",\"10\",\"N\",\"J\",\"49\"
\"\",\"\",\"approach-retreat\",\"53\",\"461747\",\"0.0-53.0\",\"\",\"\",\"2-5\",\"5055\",\"38\",\"1\",\"Training\",\"Stims/Figures/93-J-0-1.bmp\",\"None\",\"Down\",\"38\",\"4\",\"2\",\"10\",\"N\",\"J\",\"50\"
\"\",\"\",\"approach-retreat\",\"54\",\"467566\",\"0.0-54.0\",\"\",\"\",\"2-5\",\"4306\",\"40\",\"0\",\"Training\",\"Stims/Figures/85-J-0-2.bmp\",\"None\",\"Down\",\"38\",\"4\",\"3\",\"10\",\"N\",\"J\",\"51\"
\"\",\"\",\"approach-retreat\",\"55\",\"473253\",\"0.0-55.0\",\"\",\"\",\"2-5\",\"4160\",\"40\",\"1\",\"Training\",\"Stims/Figures/102-J-10-4.bmp\",\"None\",\"Up\",\"40\",\"4\",\"4\",\"10\",\"N\",\"J\",\"52\"
\"\",\"\",\"approach-retreat\",\"56\",\"480200\",\"0.0-56.0\",\"\",\"\",\"2-5\",\"5427\",\"37\",\"0\",\"Training\",\"Stims/Figures/44-C-30-3.bmp\",\"None\",\"Right\",\"39\",\"4\",\"5\",\"10\",\"N\",\"J\",\"53\"
\"\",\"\",\"approach-retreat\",\"57\",\"486218\",\"0.0-57.0\",\"\",\"\",\"2-5\",\"4503\",\"39\",\"1\",\"Training\",\"Stims/Figures/71-J-0-1.bmp\",\"None\",\"Left\",\"39\",\"4\",\"6\",\"10\",\"N\",\"J\",\"54\"
\"\",\"\",\"approach-retreat\",\"58\",\"492236\",\"0.0-58.0\",\"\",\"\",\"2-5\",\"4496\",\"40\",\"1\",\"Training\",\"Stims/Figures/71-C-30-1.bmp\",\"None\",\"Down\",\"40\",\"4\",\"7\",\"10\",\"N\",\"J\",\"55\"
\"\",\"\",\"approach-retreat\",\"59\",\"498013\",\"0.0-59.0\",\"\",\"\",\"2-5\",\"4262\",\"40\",\"0\",\"Training\",\"Stims/Figures/93-C-30-1.bmp\",\"None\",\"Up\",\"38\",\"4\",\"8\",\"10\",\"N\",\"J\",\"56\"
\"\",\"\",\"approach-retreat\",\"60\",\"504873\",\"0.0-60.0\",\"\",\"\",\"2-5\",\"5340\",\"37\",\"0\",\"Training\",\"Stims/Figures/44-J-10-3.bmp\",\"None\",\"Left\",\"39\",\"4\",\"9\",\"10\",\"N\",\"J\",\"57\"
\"\",\"\",\"approach-retreat\",\"61\",\"510747\",\"0.0-61.0\",\"\",\"\",\"2-5\",\"4360\",\"39\",\"0\",\"Training\",\"Stims/Figures/74-J-10-4.bmp\",\"None\",\"Right\",\"37\",\"4\",\"10\",\"10\",\"N\",\"J\",\"58\"
\"\",\"\",\"approach-retreat\",\"62\",\"516630\",\"0.0-62.0\",\"\",\"\",\"2-5\",\"4372\",\"38\",\"0\",\"Training\",\"Stims/Figures/74-C-20-4.bmp\",\"None\",\"Down\",\"40\",\"4\",\"11\",\"10\",\"N\",\"J\",\"59\"
\"\",\"\",\"approach-retreat\",\"63\",\"522348\",\"0.0-63.0\",\"\",\"\",\"2-5\",\"4214\",\"38\",\"1\",\"Training\",\"Stims/Figures/84-C-20-2.bmp\",\"None\",\"Up\",\"38\",\"4\",\"12\",\"10\",\"N\",\"J\",\"60\"
\"\",\"\",\"approach-retreat\",\"64\",\"528003\",\"0.0-64.0\",\"\",\"\",\"2-5\",\"4134\",\"39\",\"1\",\"Training\",\"Stims/Figures/85-C-20-2.bmp\",\"None\",\"Right\",\"39\",\"4\",\"13\",\"10\",\"N\",\"J\",\"61\"
\"\",\"\",\"approach-retreat\",\"65\",\"534035\",\"0.0-65.0\",\"\",\"\",\"2-5\",\"4509\",\"37\",\"1\",\"Training\",\"Stims/Figures/128-C-30-3.bmp\",\"None\",\"Left\",\"37\",\"4\",\"14\",\"10\",\"N\",\"J\",\"62\"
\"\",\"\",\"approach-retreat\",\"66\",\"539684\",\"0.0-66.0\",\"\",\"\",\"2-5\",\"4132\",\"39\",\"1\",\"Training\",\"Stims/Figures/84-J-0-2.bmp\",\"None\",\"Left\",\"39\",\"4\",\"15\",\"10\",\"N\",\"J\",\"63\"
\"\",\"\",\"approach-retreat\",\"67\",\"545670\",\"0.0-67.0\",\"\",\"\",\"2-5\",\"4466\",\"39\",\"1\",\"Training\",\"Stims/Figures/102-C-20-4.bmp\",\"None\",\"Right\",\"39\",\"4\",\"16\",\"10\",\"N\",\"J\",\"64\"
\"\",\"\",\"approach-retreat\",\"68\",\"551580\",\"0.0-68.0\",\"\",\"\",\"2-5\",\"4392\",\"37\",\"1\",\"Training\",\"Stims/Figures/84-C-20-2.bmp\",\"None\",\"Left\",\"37\",\"5\",\"1\",\"10\",\"N\",\"J\",\"65\"
\"\",\"\",\"approach-retreat\",\"69\",\"557419\",\"0.0-69.0\",\"\",\"\",\"2-5\",\"4328\",\"40\",\"1\",\"Training\",\"Stims/Figures/71-C-30-1.bmp\",\"None\",\"Down\",\"40\",\"5\",\"2\",\"10\",\"N\",\"J\",\"66\"
\"\",\"\",\"approach-retreat\",\"70\",\"563611\",\"0.0-70.0\",\"\",\"\",\"2-5\",\"4668\",\"39\",\"1\",\"Training\",\"Stims/Figures/44-C-30-3.bmp\",\"None\",\"Right\",\"39\",\"5\",\"3\",\"10\",\"N\",\"J\",\"67\"
\"\",\"\",\"approach-retreat\",\"71\",\"569589\",\"0.0-71.0\",\"\",\"\",\"2-5\",\"4447\",\"37\",\"0\",\"Training\",\"Stims/Figures/128-J-10-3.bmp\",\"None\",\"Left\",\"39\",\"5\",\"4\",\"10\",\"N\",\"J\",\"68\"
\"\",\"\",\"approach-retreat\",\"72\",\"575332\",\"0.0-72.0\",\"\",\"\",\"2-5\",\"4227\",\"37\",\"1\",\"Training\",\"Stims/Figures/71-J-0-1.bmp\",\"None\",\"Right\",\"37\",\"5\",\"5\",\"10\",\"N\",\"J\",\"69\"
\"\",\"\",\"approach-retreat\",\"73\",\"581032\",\"0.0-73.0\",\"\",\"\",\"2-5\",\"4183\",\"40\",\"1\",\"Training\",\"Stims/Figures/102-J-10-4.bmp\",\"None\",\"Up\",\"40\",\"5\",\"6\",\"10\",\"N\",\"J\",\"70\"
\"\",\"\",\"approach-retreat\",\"74\",\"586898\",\"0.0-74.0\",\"\",\"\",\"2-5\",\"4355\",\"38\",\"1\",\"Training\",\"Stims/Figures/93-J-0-1.bmp\",\"None\",\"Down\",\"38\",\"5\",\"7\",\"10\",\"N\",\"J\",\"71\"
\"\",\"\",\"approach-retreat\",\"75\",\"592715\",\"0.0-75.0\",\"\",\"\",\"2-5\",\"4301\",\"38\",\"1\",\"Training\",\"Stims/Figures/84-J-0-2.bmp\",\"None\",\"Down\",\"38\",\"5\",\"8\",\"10\",\"N\",\"J\",\"72\"
\"\",\"\",\"approach-retreat\",\"76\",\"598506\",\"0.0-76.0\",\"\",\"\",\"2-5\",\"4271\",\"40\",\"0\",\"Training\",\"Stims/Figures/74-J-10-4.bmp\",\"None\",\"Down\",\"38\",\"5\",\"9\",\"10\",\"N\",\"J\",\"73\"
\"\",\"\",\"approach-retreat\",\"77\",\"604562\",\"0.0-77.0\",\"\",\"\",\"2-5\",\"4531\",\"38\",\"1\",\"Training\",\"Stims/Figures/85-C-20-2.bmp\",\"None\",\"Up\",\"38\",\"5\",\"10\",\"10\",\"N\",\"J\",\"74\"
\"\",\"\",\"approach-retreat\",\"78\",\"610178\",\"0.0-78.0\",\"\",\"\",\"2-5\",\"4103\",\"40\",\"1\",\"Training\",\"Stims/Figures/85-J-0-2.bmp\",\"None\",\"Up\",\"40\",\"5\",\"11\",\"10\",\"N\",\"J\",\"75\"
\"\",\"\",\"approach-retreat\",\"79\",\"616200\",\"0.0-79.0\",\"\",\"\",\"2-5\",\"4501\",\"39\",\"1\",\"Training\",\"Stims/Figures/102-C-20-4.bmp\",\"None\",\"Right\",\"39\",\"5\",\"12\",\"10\",\"N\",\"J\",\"76\"
\"\",\"\",\"approach-retreat\",\"80\",\"622360\",\"0.0-80.0\",\"\",\"\",\"2-5\",\"4638\",\"38\",\"1\",\"Training\",\"Stims/Figures/128-C-30-3.bmp\",\"None\",\"Up\",\"38\",\"5\",\"13\",\"10\",\"N\",\"J\",\"77\"
\"\",\"\",\"approach-retreat\",\"81\",\"628178\",\"0.0-81.0\",\"\",\"\",\"2-5\",\"4296\",\"39\",\"1\",\"Training\",\"Stims/Figures/93-C-30-1.bmp\",\"None\",\"Right\",\"39\",\"5\",\"14\",\"10\",\"N\",\"J\",\"78\"
\"\",\"\",\"approach-retreat\",\"82\",\"634028\",\"0.0-82.0\",\"\",\"\",\"2-5\",\"4329\",\"39\",\"1\",\"Training\",\"Stims/Figures/44-J-10-3.bmp\",\"None\",\"Left\",\"39\",\"5\",\"15\",\"10\",\"N\",\"J\",\"79\"
\"\",\"\",\"approach-retreat\",\"83\",\"644292\",\"0.0-83.0\",\"\",\"\",\"2-5\",\"8743\",\"39\",\"0\",\"Training\",\"Stims/Figures/74-C-20-4.bmp\",\"None\",\"Left\",\"37\",\"5\",\"16\",\"10\",\"N\",\"J\",\"80\"
\"\",\"\",\"approach-retreat\",\"84\",\"650012\",\"0.0-84.0\",\"\",\"\",\"2-5\",\"4197\",\"40\",\"1\",\"Training\",\"Stims/Figures/128-C-30-3.bmp\",\"None\",\"Down\",\"40\",\"6\",\"1\",\"10\",\"N\",\"J\",\"81\"
\"\",\"\",\"approach-retreat\",\"85\",\"655927\",\"0.0-85.0\",\"\",\"\",\"2-5\",\"4393\",\"38\",\"1\",\"Training\",\"Stims/Figures/71-C-30-1.bmp\",\"None\",\"Up\",\"38\",\"6\",\"2\",\"10\",\"N\",\"J\",\"82\"
\"\",\"\",\"approach-retreat\",\"86\",\"661731\",\"0.0-86.0\",\"\",\"\",\"2-5\",\"4281\",\"40\",\"0\",\"Training\",\"Stims/Figures/44-C-30-3.bmp\",\"None\",\"Up\",\"38\",\"6\",\"3\",\"10\",\"N\",\"J\",\"83\"
\"\",\"\",\"approach-retreat\",\"87\",\"670502\",\"0.0-87.0\",\"\",\"\",\"2-5\",\"7245\",\"37\",\"1\",\"Training\",\"Stims/Figures/102-J-10-4.bmp\",\"None\",\"Right\",\"37\",\"6\",\"4\",\"10\",\"N\",\"J\",\"84\"
\"\",\"\",\"approach-retreat\",\"88\",\"677125\",\"0.0-88.0\",\"\",\"\",\"2-5\",\"5105\",\"37\",\"1\",\"Training\",\"Stims/Figures/93-C-30-1.bmp\",\"None\",\"Left\",\"37\",\"6\",\"5\",\"10\",\"N\",\"J\",\"85\"
\"\",\"\",\"approach-retreat\",\"89\",\"682911\",\"0.0-89.0\",\"\",\"\",\"2-5\",\"4267\",\"40\",\"1\",\"Training\",\"Stims/Figures/84-C-20-2.bmp\",\"None\",\"Down\",\"40\",\"6\",\"6\",\"10\",\"N\",\"J\",\"86\"
\"\",\"\",\"approach-retreat\",\"90\",\"689101\",\"0.0-90.0\",\"\",\"\",\"2-5\",\"4677\",\"38\",\"1\",\"Training\",\"Stims/Figures/102-C-20-4.bmp\",\"None\",\"Up\",\"38\",\"6\",\"7\",\"10\",\"N\",\"J\",\"87\"
\"\",\"\",\"approach-retreat\",\"91\",\"698139\",\"0.0-91.0\",\"\",\"\",\"2-5\",\"7526\",\"39\",\"0\",\"Training\",\"Stims/Figures/74-J-10-4.bmp\",\"None\",\"Right\",\"37\",\"6\",\"8\",\"10\",\"N\",\"J\",\"88\"
\"\",\"\",\"approach-retreat\",\"92\",\"704491\",\"0.0-92.0\",\"\",\"\",\"2-5\",\"4827\",\"38\",\"1\",\"Training\",\"Stims/Figures/93-J-0-1.bmp\",\"None\",\"Down\",\"38\",\"6\",\"9\",\"10\",\"N\",\"J\",\"89\"
\"\",\"\",\"approach-retreat\",\"93\",\"710307\",\"0.0-93.0\",\"\",\"\",\"2-5\",\"4297\",\"37\",\"1\",\"Training\",\"Stims/Figures/84-J-0-2.bmp\",\"None\",\"Right\",\"37\",\"6\",\"10\",\"10\",\"N\",\"J\",\"90\"
\"\",\"\",\"approach-retreat\",\"94\",\"716072\",\"0.0-94.0\",\"\",\"\",\"2-5\",\"4237\",\"40\",\"1\",\"Training\",\"Stims/Figures/71-J-0-1.bmp\",\"None\",\"Up\",\"40\",\"6\",\"11\",\"10\",\"N\",\"J\",\"91\"
\"\",\"\",\"approach-retreat\",\"95\",\"722489\",\"0.0-95.0\",\"\",\"\",\"2-5\",\"4903\",\"37\",\"0\",\"Training\",\"Stims/Figures/128-J-10-3.bmp\",\"None\",\"Left\",\"39\",\"6\",\"12\",\"10\",\"N\",\"J\",\"92\"
\"\",\"\",\"approach-retreat\",\"96\",\"728299\",\"0.0-96.0\",\"\",\"\",\"2-5\",\"4289\",\"39\",\"1\",\"Training\",\"Stims/Figures/85-C-20-2.bmp\",\"None\",\"Right\",\"39\",\"6\",\"13\",\"10\",\"N\",\"J\",\"93\"
\"\",\"\",\"approach-retreat\",\"97\",\"733916\",\"0.0-97.0\",\"\",\"\",\"2-5\",\"4107\",\"39\",\"1\",\"Training\",\"Stims/Figures/44-J-10-3.bmp\",\"None\",\"Left\",\"39\",\"6\",\"14\",\"10\",\"N\",\"J\",\"94\"
\"\",\"\",\"approach-retreat\",\"98\",\"739597\",\"0.0-98.0\",\"\",\"\",\"2-5\",\"4172\",\"38\",\"1\",\"Training\",\"Stims/Figures/85-J-0-2.bmp\",\"None\",\"Down\",\"38\",\"6\",\"15\",\"10\",\"N\",\"J\",\"95\"
\"\",\"\",\"approach-retreat\",\"99\",\"746154\",\"0.0-99.0\",\"\",\"\",\"2-5\",\"5033\",\"37\",\"1\",\"Training\",\"Stims/Figures/74-C-20-4.bmp\",\"None\",\"Left\",\"37\",\"6\",\"16\",\"10\",\"N\",\"J\",\"96\"
\"\",\"\",\"approach-retreat\",\"100\",\"752055\",\"0.0-100.0\",\"\",\"\",\"2-5\",\"4384\",\"37\",\"1\",\"Training\",\"Stims/Figures/71-C-30-1.bmp\",\"None\",\"Left\",\"37\",\"7\",\"1\",\"10\",\"N\",\"J\",\"97\"
\"\",\"\",\"approach-retreat\",\"101\",\"757799\",\"0.0-101.0\",\"\",\"\",\"2-5\",\"4222\",\"39\",\"1\",\"Training\",\"Stims/Figures/84-C-20-2.bmp\",\"None\",\"Right\",\"39\",\"7\",\"2\",\"10\",\"N\",\"J\",\"98\"
\"\",\"\",\"approach-retreat\",\"102\",\"763667\",\"0.0-102.0\",\"\",\"\",\"2-5\",\"4345\",\"40\",\"1\",\"Training\",\"Stims/Figures/44-C-30-3.bmp\",\"None\",\"Down\",\"40\",\"7\",\"3\",\"10\",\"N\",\"J\",\"99\"
\"\",\"\",\"approach-retreat\",\"103\",\"769340\",\"0.0-103.0\",\"\",\"\",\"2-5\",\"4152\",\"39\",\"1\",\"Training\",\"Stims/Figures/74-C-20-4.bmp\",\"None\",\"Right\",\"39\",\"7\",\"4\",\"10\",\"N\",\"J\",\"100\"
\"\",\"\",\"approach-retreat\",\"104\",\"775074\",\"0.0-104.0\",\"\",\"\",\"2-5\",\"4212\",\"39\",\"1\",\"Training\",\"Stims/Figures/102-C-20-4.bmp\",\"None\",\"Right\",\"39\",\"7\",\"5\",\"10\",\"N\",\"J\",\"101\"
\"\",\"\",\"approach-retreat\",\"105\",\"782358\",\"0.0-105.0\",\"\",\"\",\"2-5\",\"5767\",\"38\",\"0\",\"Training\",\"Stims/Figures/128-J-10-3.bmp\",\"None\",\"Up\",\"40\",\"7\",\"6\",\"10\",\"N\",\"J\",\"102\"
\"\",\"\",\"approach-retreat\",\"106\",\"789156\",\"0.0-106.0\",\"\",\"\",\"2-5\",\"5287\",\"40\",\"1\",\"Training\",\"Stims/Figures/93-C-30-1.bmp\",\"None\",\"Down\",\"40\",\"7\",\"7\",\"10\",\"N\",\"J\",\"103\"
\"\",\"\",\"approach-retreat\",\"107\",\"795447\",\"0.0-107.0\",\"\",\"\",\"2-5\",\"4773\",\"38\",\"1\",\"Training\",\"Stims/Figures/74-J-10-4.bmp\",\"None\",\"Down\",\"38\",\"7\",\"8\",\"10\",\"N\",\"J\",\"104\"
\"\",\"\",\"approach-retreat\",\"108\",\"801153\",\"0.0-108.0\",\"\",\"\",\"2-5\",\"4184\",\"40\",\"1\",\"Training\",\"Stims/Figures/85-J-0-2.bmp\",\"None\",\"Up\",\"40\",\"7\",\"9\",\"10\",\"N\",\"J\",\"105\"
\"\",\"\",\"approach-retreat\",\"109\",\"807168\",\"0.0-109.0\",\"\",\"\",\"2-5\",\"4491\",\"37\",\"1\",\"Training\",\"Stims/Figures/85-C-20-2.bmp\",\"None\",\"Left\",\"37\",\"7\",\"10\",\"10\",\"N\",\"J\",\"106\"
\"\",\"\",\"approach-retreat\",\"110\",\"813956\",\"0.0-110.0\",\"\",\"\",\"2-5\",\"5269\",\"38\",\"1\",\"Training\",\"Stims/Figures/102-J-10-4.bmp\",\"None\",\"Down\",\"38\",\"7\",\"11\",\"10\",\"N\",\"J\",\"107\"
\"\",\"\",\"approach-retreat\",\"111\",\"819825\",\"0.0-111.0\",\"\",\"\",\"2-5\",\"4349\",\"39\",\"1\",\"Training\",\"Stims/Figures/44-J-10-3.bmp\",\"None\",\"Left\",\"39\",\"7\",\"12\",\"10\",\"N\",\"J\",\"108\"
\"\",\"\",\"approach-retreat\",\"112\",\"825521\",\"0.0-112.0\",\"\",\"\",\"2-5\",\"4176\",\"37\",\"1\",\"Training\",\"Stims/Figures/93-J-0-1.bmp\",\"None\",\"Right\",\"37\",\"7\",\"13\",\"10\",\"N\",\"J\",\"109\"
\"\",\"\",\"approach-retreat\",\"113\",\"831403\",\"0.0-113.0\",\"\",\"\",\"2-5\",\"4355\",\"40\",\"1\",\"Training\",\"Stims/Figures/71-J-0-1.bmp\",\"None\",\"Up\",\"40\",\"7\",\"14\",\"10\",\"N\",\"J\",\"110\"
\"\",\"\",\"approach-retreat\",\"114\",\"837068\",\"0.0-114.0\",\"\",\"\",\"2-5\",\"4140\",\"39\",\"1\",\"Training\",\"Stims/Figures/84-J-0-2.bmp\",\"None\",\"Left\",\"39\",\"7\",\"15\",\"10\",\"N\",\"J\",\"111\"
\"\",\"\",\"approach-retreat\",\"115\",\"842722\",\"0.0-115.0\",\"\",\"\",\"2-5\",\"4131\",\"38\",\"1\",\"Training\",\"Stims/Figures/128-C-30-3.bmp\",\"None\",\"Up\",\"38\",\"7\",\"16\",\"10\",\"N\",\"J\",\"112\"
\"\",\"\",\"approach-retreat\",\"116\",\"848370\",\"0.0-116.0\",\"\",\"\",\"2-5\",\"4137\",\"38\",\"1\",\"Training\",\"Stims/Figures/74-C-20-4.bmp\",\"None\",\"Up\",\"38\",\"8\",\"1\",\"10\",\"N\",\"J\",\"113\"
\"\",\"\",\"approach-retreat\",\"117\",\"854000\",\"0.0-117.0\",\"\",\"\",\"2-5\",\"4115\",\"39\",\"1\",\"Training\",\"Stims/Figures/84-C-20-2.bmp\",\"None\",\"Right\",\"39\",\"8\",\"2\",\"10\",\"N\",\"J\",\"114\"
\"\",\"\",\"approach-retreat\",\"118\",\"860050\",\"0.0-118.0\",\"\",\"\",\"2-5\",\"4529\",\"40\",\"1\",\"Training\",\"Stims/Figures/102-J-10-4.bmp\",\"None\",\"Up\",\"40\",\"8\",\"3\",\"10\",\"N\",\"J\",\"115\"
\"\",\"\",\"approach-retreat\",\"119\",\"865666\",\"0.0-119.0\",\"\",\"\",\"2-5\",\"4092\",\"39\",\"1\",\"Training\",\"Stims/Figures/102-C-20-4.bmp\",\"None\",\"Right\",\"39\",\"8\",\"4\",\"10\",\"N\",\"J\",\"116\"
\"\",\"\",\"approach-retreat\",\"120\",\"871620\",\"0.0-120.0\",\"\",\"\",\"2-5\",\"4444\",\"38\",\"1\",\"Training\",\"Stims/Figures/44-J-10-3.bmp\",\"None\",\"Down\",\"38\",\"8\",\"5\",\"10\",\"N\",\"J\",\"117\"
\"\",\"\",\"approach-retreat\",\"121\",\"877320\",\"0.0-121.0\",\"\",\"\",\"2-5\",\"4176\",\"39\",\"1\",\"Training\",\"Stims/Figures/71-C-30-1.bmp\",\"None\",\"Right\",\"39\",\"8\",\"6\",\"10\",\"N\",\"J\",\"118\"
\"\",\"\",\"approach-retreat\",\"122\",\"883232\",\"0.0-122.0\",\"\",\"\",\"2-5\",\"4392\",\"40\",\"1\",\"Training\",\"Stims/Figures/128-J-10-3.bmp\",\"None\",\"Up\",\"40\",\"8\",\"7\",\"10\",\"N\",\"J\",\"119\"
\"\",\"\",\"approach-retreat\",\"123\",\"889419\",\"0.0-123.0\",\"\",\"\",\"2-5\",\"4671\",\"39\",\"1\",\"Training\",\"Stims/Figures/71-J-0-1.bmp\",\"None\",\"Left\",\"39\",\"8\",\"8\",\"10\",\"N\",\"J\",\"120\"
\"\",\"\",\"approach-retreat\",\"124\",\"896215\",\"0.0-124.0\",\"\",\"\",\"2-5\",\"5284\",\"40\",\"1\",\"Training\",\"Stims/Figures/44-C-30-3.bmp\",\"None\",\"Down\",\"40\",\"8\",\"9\",\"10\",\"N\",\"J\",\"121\"
\"\",\"\",\"approach-retreat\",\"125\",\"902685\",\"0.0-125.0\",\"\",\"\",\"2-5\",\"4951\",\"40\",\"1\",\"Training\",\"Stims/Figures/93-J-0-1.bmp\",\"None\",\"Up\",\"40\",\"8\",\"10\",\"10\",\"N\",\"J\",\"122\"
\"\",\"\",\"approach-retreat\",\"126\",\"909172\",\"0.0-126.0\",\"\",\"\",\"2-5\",\"4967\",\"39\",\"1\",\"Training\",\"Stims/Figures/85-J-0-2.bmp\",\"None\",\"Left\",\"39\",\"8\",\"11\",\"10\",\"N\",\"J\",\"123\"
\"\",\"\",\"approach-retreat\",\"127\",\"915050\",\"0.0-127.0\",\"\",\"\",\"2-5\",\"4358\",\"39\",\"1\",\"Training\",\"Stims/Figures/84-J-0-2.bmp\",\"None\",\"Left\",\"39\",\"8\",\"12\",\"10\",\"N\",\"J\",\"124\"
\"\",\"\",\"approach-retreat\",\"128\",\"921771\",\"0.0-128.0\",\"\",\"\",\"2-5\",\"5210\",\"40\",\"1\",\"Training\",\"Stims/Figures/85-C-20-2.bmp\",\"None\",\"Down\",\"40\",\"8\",\"13\",\"10\",\"N\",\"J\",\"125\"
\"\",\"\",\"approach-retreat\",\"129\",\"927873\",\"0.0-129.0\",\"\",\"\",\"2-5\",\"4592\",\"37\",\"0\",\"Training\",\"Stims/Figures/74-J-10-4.bmp\",\"None\",\"Left\",\"39\",\"8\",\"14\",\"10\",\"N\",\"J\",\"126\"
\"\",\"\",\"approach-retreat\",\"130\",\"933748\",\"0.0-130.0\",\"\",\"\",\"2-5\",\"4355\",\"40\",\"1\",\"Training\",\"Stims/Figures/128-C-30-3.bmp\",\"None\",\"Down\",\"40\",\"8\",\"15\",\"10\",\"N\",\"J\",\"127\"
\"\",\"\",\"approach-retreat\",\"131\",\"939948\",\"0.0-131.0\",\"\",\"\",\"2-5\",\"4685\",\"39\",\"1\",\"Training\",\"Stims/Figures/93-C-30-1.bmp\",\"None\",\"Right\",\"39\",\"8\",\"16\",\"10\",\"N\",\"J\",\"128\"
\"\",\"\",\"approach-retreat\",\"132\",\"946502\",\"0.0-132.0\",\"\",\"\",\"2-5\",\"5030\",\"38\",\"1\",\"Training\",\"Stims/Figures/44-C-30-3.bmp\",\"None\",\"Up\",\"38\",\"9\",\"1\",\"10\",\"N\",\"J\",\"129\"
\"\",\"\",\"approach-retreat\",\"133\",\"953467\",\"0.0-133.0\",\"\",\"\",\"2-5\",\"5444\",\"38\",\"1\",\"Training\",\"Stims/Figures/102-J-10-4.bmp\",\"None\",\"Down\",\"38\",\"9\",\"2\",\"10\",\"N\",\"J\",\"130\"
\"\",\"\",\"approach-retreat\",\"134\",\"959147\",\"0.0-134.0\",\"\",\"\",\"2-5\",\"4155\",\"39\",\"1\",\"Training\",\"Stims/Figures/85-J-0-2.bmp\",\"None\",\"Left\",\"39\",\"9\",\"3\",\"10\",\"N\",\"J\",\"131\"
\"\",\"\",\"approach-retreat\",\"135\",\"964980\",\"0.0-135.0\",\"\",\"\",\"2-5\",\"4314\",\"39\",\"1\",\"Training\",\"Stims/Figures/71-J-0-1.bmp\",\"None\",\"Left\",\"39\",\"9\",\"4\",\"10\",\"N\",\"J\",\"132\"
\"\",\"\",\"approach-retreat\",\"136\",\"971306\",\"0.0-136.0\",\"\",\"\",\"2-5\",\"4804\",\"37\",\"1\",\"Training\",\"Stims/Figures/102-C-20-4.bmp\",\"None\",\"Left\",\"37\",\"9\",\"5\",\"10\",\"N\",\"J\",\"133\"
\"\",\"\",\"approach-retreat\",\"137\",\"977520\",\"0.0-137.0\",\"\",\"\",\"2-5\",\"4688\",\"37\",\"1\",\"Training\",\"Stims/Figures/93-J-0-1.bmp\",\"None\",\"Right\",\"37\",\"9\",\"6\",\"10\",\"N\",\"J\",\"134\"
\"\",\"\",\"approach-retreat\",\"138\",\"984137\",\"0.0-138.0\",\"\",\"\",\"2-5\",\"5100\",\"39\",\"1\",\"Training\",\"Stims/Figures/71-C-30-1.bmp\",\"None\",\"Right\",\"39\",\"9\",\"7\",\"10\",\"N\",\"J\",\"135\"
\"\",\"\",\"approach-retreat\",\"139\",\"990840\",\"0.0-139.0\",\"\",\"\",\"2-5\",\"5181\",\"40\",\"1\",\"Training\",\"Stims/Figures/85-C-20-2.bmp\",\"None\",\"Down\",\"40\",\"9\",\"8\",\"10\",\"N\",\"J\",\"136\"
\"\",\"\",\"approach-retreat\",\"140\",\"997329\",\"0.0-140.0\",\"\",\"\",\"2-5\",\"4975\",\"40\",\"1\",\"Training\",\"Stims/Figures/93-C-30-1.bmp\",\"None\",\"Down\",\"40\",\"9\",\"9\",\"10\",\"N\",\"J\",\"137\"
\"\",\"\",\"approach-retreat\",\"141\",\"1003381\",\"0.0-141.0\",\"\",\"\",\"2-5\",\"4534\",\"38\",\"1\",\"Training\",\"Stims/Figures/74-C-20-4.bmp\",\"None\",\"Up\",\"38\",\"9\",\"10\",\"10\",\"N\",\"J\",\"138\"
\"\",\"\",\"approach-retreat\",\"142\",\"1009112\",\"0.0-142.0\",\"\",\"\",\"2-5\",\"4212\",\"40\",\"1\",\"Training\",\"Stims/Figures/128-J-10-3.bmp\",\"None\",\"Up\",\"40\",\"9\",\"11\",\"10\",\"N\",\"J\",\"139\"
\"\",\"\",\"approach-retreat\",\"143\",\"1014932\",\"0.0-143.0\",\"\",\"\",\"2-5\",\"4302\",\"39\",\"1\",\"Training\",\"Stims/Figures/84-J-0-2.bmp\",\"None\",\"Left\",\"39\",\"9\",\"12\",\"10\",\"N\",\"J\",\"140\"
\"\",\"\",\"approach-retreat\",\"144\",\"1021011\",\"0.0-144.0\",\"\",\"\",\"2-5\",\"4565\",\"38\",\"1\",\"Training\",\"Stims/Figures/74-J-10-4.bmp\",\"None\",\"Down\",\"38\",\"9\",\"13\",\"10\",\"N\",\"J\",\"141\"
\"\",\"\",\"approach-retreat\",\"145\",\"1026745\",\"0.0-145.0\",\"\",\"\",\"2-5\",\"4210\",\"37\",\"1\",\"Training\",\"Stims/Figures/44-J-10-3.bmp\",\"None\",\"Right\",\"37\",\"9\",\"14\",\"10\",\"N\",\"J\",\"142\"
\"\",\"\",\"approach-retreat\",\"146\",\"1033335\",\"0.0-146.0\",\"\",\"\",\"2-5\",\"5069\",\"38\",\"1\",\"Training\",\"Stims/Figures/128-C-30-3.bmp\",\"None\",\"Up\",\"38\",\"9\",\"15\",\"10\",\"N\",\"J\",\"143\"
\"\",\"\",\"approach-retreat\",\"147\",\"1039048\",\"0.0-147.0\",\"\",\"\",\"2-5\",\"4193\",\"39\",\"1\",\"Training\",\"Stims/Figures/84-C-20-2.bmp\",\"None\",\"Right\",\"39\",\"9\",\"16\",\"10\",\"N\",\"J\",\"144\"
\"9682\",\"\",\"instructions\",\"148\",\"1048731\",\"0.0-148.0\",\"[{\"\"page_index\"\":0,\"\"viewing_time\"\":9682}]\",\"\",\"\",\"\",\"\",\"\",\"\",\"\",\"\",\"\",\"\",\"\",\"\",\"\",\"\",\"\",\"\"
\"\",\"\",\"approach-retreat\",\"149\",\"1054464\",\"0.0-149.0\",\"\",\"\",\"2-5\",\"4214\",\"39\",\"1\",\"Testing\",\"Stims/Figures/139-J-0-2.bmp\",\"None\",\"Left\",\"39\",\"1\",\"1\",\"10\",\"N\",\"J\",\"1\"
\"\",\"\",\"approach-retreat\",\"150\",\"1060198\",\"0.0-150.0\",\"\",\"\",\"2-5\",\"4206\",\"37\",\"1\",\"Testing\",\"Stims/Figures/44-J-10-3.bmp\",\"None\",\"Right\",\"37\",\"1\",\"2\",\"10\",\"N\",\"J\",\"2\"
\"\",\"\",\"approach-retreat\",\"151\",\"1065997\",\"0.0-151.0\",\"\",\"\",\"2-5\",\"4292\",\"39\",\"1\",\"Testing\",\"Stims/Figures/84-J-0-2.bmp\",\"None\",\"Left\",\"39\",\"1\",\"3\",\"10\",\"N\",\"J\",\"3\"
\"\",\"\",\"approach-retreat\",\"152\",\"1071686\",\"0.0-152.0\",\"\",\"\",\"2-5\",\"4173\",\"39\",\"1\",\"Testing\",\"Stims/Figures/74-J-10-4.bmp\",\"None\",\"Left\",\"39\",\"1\",\"4\",\"10\",\"N\",\"J\",\"4\"
\"\",\"\",\"approach-retreat\",\"153\",\"1077542\",\"0.0-153.0\",\"\",\"\",\"2-5\",\"4334\",\"38\",\"1\",\"Testing\",\"Stims/Figures/57-J-0-1.bmp\",\"None\",\"Down\",\"38\",\"1\",\"5\",\"10\",\"N\",\"J\",\"5\"
\"\",\"\",\"approach-retreat\",\"154\",\"1083288\",\"0.0-154.0\",\"\",\"\",\"2-5\",\"4221\",\"37\",\"1\",\"Testing\",\"Stims/Figures/85-C-20-2.bmp\",\"None\",\"Left\",\"37\",\"1\",\"6\",\"10\",\"N\",\"J\",\"6\"
\"\",\"\",\"approach-retreat\",\"155\",\"1089168\",\"0.0-155.0\",\"\",\"\",\"2-5\",\"4364\",\"40\",\"1\",\"Testing\",\"Stims/Figures/44-C-30-3.bmp\",\"None\",\"Down\",\"40\",\"1\",\"7\",\"10\",\"N\",\"J\",\"7\"
\"\",\"\",\"approach-retreat\",\"156\",\"1094838\",\"0.0-156.0\",\"\",\"\",\"2-5\",\"4162\",\"39\",\"1\",\"Testing\",\"Stims/Figures/102-J-10-4.bmp\",\"None\",\"Left\",\"39\",\"1\",\"8\",\"10\",\"N\",\"J\",\"8\"
\"\",\"\",\"approach-retreat\",\"157\",\"1100713\",\"0.0-157.0\",\"\",\"\",\"2-5\",\"4360\",\"40\",\"1\",\"Testing\",\"Stims/Figures/93-J-0-1.bmp\",\"None\",\"Up\",\"40\",\"1\",\"9\",\"10\",\"N\",\"J\",\"9\"
\"\",\"\",\"approach-retreat\",\"158\",\"1106309\",\"0.0-158.0\",\"\",\"\",\"2-5\",\"4084\",\"39\",\"1\",\"Testing\",\"Stims/Figures/85-J-0-2.bmp\",\"None\",\"Left\",\"39\",\"1\",\"10\",\"10\",\"N\",\"J\",\"10\"
\"\",\"\",\"approach-retreat\",\"159\",\"1113038\",\"0.0-159.0\",\"\",\"\",\"2-5\",\"5225\",\"38\",\"0\",\"Testing\",\"Stims/Figures/87-J-10-4.bmp\",\"None\",\"Up\",\"40\",\"1\",\"11\",\"10\",\"N\",\"J\",\"11\"
\"\",\"\",\"approach-retreat\",\"160\",\"1118904\",\"0.0-160.0\",\"\",\"\",\"2-5\",\"4353\",\"40\",\"1\",\"Testing\",\"Stims/Figures/87-C-20-4.bmp\",\"None\",\"Down\",\"40\",\"1\",\"12\",\"10\",\"N\",\"J\",\"12\"
\"\",\"\",\"approach-retreat\",\"161\",\"1124664\",\"0.0-161.0\",\"\",\"\",\"2-5\",\"4248\",\"40\",\"1\",\"Testing\",\"Stims/Figures/100-C-30-3.bmp\",\"None\",\"Down\",\"40\",\"1\",\"13\",\"10\",\"N\",\"J\",\"13\"
\"\",\"\",\"approach-retreat\",\"162\",\"1130548\",\"0.0-162.0\",\"\",\"\",\"2-5\",\"4369\",\"39\",\"1\",\"Testing\",\"Stims/Figures/71-C-30-1.bmp\",\"None\",\"Right\",\"39\",\"1\",\"14\",\"10\",\"N\",\"J\",\"14\"
\"\",\"\",\"approach-retreat\",\"163\",\"1136341\",\"0.0-163.0\",\"\",\"\",\"2-5\",\"4282\",\"38\",\"1\",\"Testing\",\"Stims/Figures/128-C-30-3.bmp\",\"None\",\"Up\",\"38\",\"1\",\"15\",\"10\",\"N\",\"J\",\"15\"
\"\",\"\",\"approach-retreat\",\"164\",\"1141994\",\"0.0-164.0\",\"\",\"\",\"2-5\",\"4140\",\"38\",\"1\",\"Testing\",\"Stims/Figures/84-C-20-2.bmp\",\"None\",\"Up\",\"38\",\"1\",\"16\",\"10\",\"N\",\"J\",\"16\"
\"\",\"\",\"approach-retreat\",\"165\",\"1147825\",\"0.0-165.0\",\"\",\"\",\"2-5\",\"4316\",\"40\",\"1\",\"Testing\",\"Stims/Figures/71-J-0-1.bmp\",\"None\",\"Up\",\"40\",\"1\",\"17\",\"10\",\"N\",\"J\",\"17\"
\"\",\"\",\"approach-retreat\",\"166\",\"1154223\",\"0.0-166.0\",\"\",\"\",\"2-5\",\"4880\",\"40\",\"1\",\"Testing\",\"Stims/Figures/93-C-30-1.bmp\",\"None\",\"Down\",\"40\",\"1\",\"18\",\"10\",\"N\",\"J\",\"18\"
\"\",\"\",\"approach-retreat\",\"167\",\"1160144\",\"0.0-167.0\",\"\",\"\",\"2-5\",\"4410\",\"39\",\"1\",\"Testing\",\"Stims/Figures/57-C-30-1.bmp\",\"None\",\"Right\",\"39\",\"1\",\"19\",\"10\",\"N\",\"J\",\"19\"
\"\",\"\",\"approach-retreat\",\"168\",\"1167274\",\"0.0-168.0\",\"\",\"\",\"2-5\",\"5604\",\"38\",\"1\",\"Testing\",\"Stims/Figures/128-J-10-3.bmp\",\"None\",\"Down\",\"38\",\"1\",\"20\",\"10\",\"N\",\"J\",\"20\"
\"\",\"\",\"approach-retreat\",\"169\",\"1173338\",\"0.0-169.0\",\"\",\"\",\"2-5\",\"4546\",\"37\",\"1\",\"Testing\",\"Stims/Figures/100-J-10-3.bmp\",\"None\",\"Right\",\"37\",\"1\",\"21\",\"10\",\"N\",\"J\",\"21\"
\"\",\"\",\"approach-retreat\",\"170\",\"1179596\",\"0.0-170.0\",\"\",\"\",\"2-5\",\"4741\",\"38\",\"1\",\"Testing\",\"Stims/Figures/139-C-20-2.bmp\",\"None\",\"Up\",\"38\",\"1\",\"22\",\"10\",\"N\",\"J\",\"22\"
\"\",\"\",\"approach-retreat\",\"171\",\"1186300\",\"0.0-171.0\",\"\",\"\",\"2-5\",\"5188\",\"39\",\"1\",\"Testing\",\"Stims/Figures/74-C-20-4.bmp\",\"None\",\"Right\",\"39\",\"1\",\"23\",\"10\",\"N\",\"J\",\"23\"
\"\",\"\",\"approach-retreat\",\"172\",\"1191905\",\"0.0-172.0\",\"\",\"\",\"2-5\",\"4082\",\"39\",\"1\",\"Testing\",\"Stims/Figures/102-C-20-4.bmp\",\"None\",\"Right\",\"39\",\"1\",\"24\",\"10\",\"N\",\"J\",\"24\"
\"\",\"\",\"approach-retreat\",\"173\",\"1197643\",\"0.0-173.0\",\"\",\"\",\"2-5\",\"4221\",\"38\",\"1\",\"Testing\",\"Stims/Figures/128-J-10-3.bmp\",\"None\",\"Down\",\"38\",\"2\",\"1\",\"10\",\"N\",\"J\",\"25\"
\"\",\"\",\"approach-retreat\",\"174\",\"1203243\",\"0.0-174.0\",\"\",\"\",\"2-5\",\"4078\",\"39\",\"1\",\"Testing\",\"Stims/Figures/102-J-10-4.bmp\",\"None\",\"Left\",\"39\",\"2\",\"2\",\"10\",\"N\",\"J\",\"26\"
\"\",\"\",\"approach-retreat\",\"175\",\"1209546\",\"0.0-175.0\",\"\",\"\",\"2-5\",\"4790\",\"40\",\"1\",\"Testing\",\"Stims/Figures/44-J-10-3.bmp\",\"None\",\"Up\",\"40\",\"2\",\"3\",\"10\",\"N\",\"J\",\"27\"
\"\",\"\",\"approach-retreat\",\"176\",\"1215484\",\"0.0-176.0\",\"\",\"\",\"2-5\",\"4424\",\"39\",\"1\",\"Testing\",\"Stims/Figures/139-C-20-2.bmp\",\"None\",\"Right\",\"39\",\"2\",\"4\",\"10\",\"N\",\"J\",\"28\"
\"\",\"\",\"approach-retreat\",\"177\",\"1221734\",\"0.0-177.0\",\"\",\"\",\"2-5\",\"4736\",\"39\",\"1\",\"Testing\",\"Stims/Figures/57-C-30-1.bmp\",\"None\",\"Right\",\"39\",\"2\",\"5\",\"10\",\"N\",\"J\",\"29\"
\"\",\"\",\"approach-retreat\",\"178\",\"1227438\",\"0.0-178.0\",\"\",\"\",\"2-5\",\"4177\",\"40\",\"1\",\"Testing\",\"Stims/Figures/139-J-0-2.bmp\",\"None\",\"Up\",\"40\",\"2\",\"6\",\"10\",\"N\",\"J\",\"30\"
\"\",\"\",\"approach-retreat\",\"179\",\"1233929\",\"0.0-179.0\",\"\",\"\",\"2-5\",\"4979\",\"38\",\"0\",\"Testing\",\"Stims/Figures/44-C-30-3.bmp\",\"None\",\"Down\",\"40\",\"2\",\"7\",\"10\",\"N\",\"J\",\"31\"
\"\",\"\",\"approach-retreat\",\"180\",\"1240095\",\"0.0-180.0\",\"\",\"\",\"2-5\",\"4653\",\"40\",\"1\",\"Testing\",\"Stims/Figures/100-C-30-3.bmp\",\"None\",\"Down\",\"40\",\"2\",\"8\",\"10\",\"N\",\"J\",\"32\"
\"\",\"\",\"approach-retreat\",\"181\",\"1245824\",\"0.0-181.0\",\"\",\"\",\"2-5\",\"4215\",\"37\",\"1\",\"Testing\",\"Stims/Figures/87-C-20-4.bmp\",\"None\",\"Left\",\"37\",\"2\",\"9\",\"10\",\"N\",\"J\",\"33\"
\"\",\"\",\"approach-retreat\",\"182\",\"1251656\",\"0.0-182.0\",\"\",\"\",\"2-5\",\"4311\",\"39\",\"1\",\"Testing\",\"Stims/Figures/74-C-20-4.bmp\",\"None\",\"Right\",\"39\",\"2\",\"10\",\"10\",\"N\",\"J\",\"34\"
\"\",\"\",\"approach-retreat\",\"183\",\"1257389\",\"0.0-183.0\",\"\",\"\",\"2-5\",\"4212\",\"40\",\"0\",\"Testing\",\"Stims/Figures/87-J-10-4.bmp\",\"None\",\"Down\",\"38\",\"2\",\"11\",\"10\",\"N\",\"J\",\"35\"
\"\",\"\",\"approach-retreat\",\"184\",\"1263131\",\"0.0-184.0\",\"\",\"\",\"2-5\",\"4229\",\"39\",\"1\",\"Testing\",\"Stims/Figures/128-C-30-3.bmp\",\"None\",\"Right\",\"39\",\"2\",\"12\",\"10\",\"N\",\"J\",\"36\"
\"\",\"\",\"approach-retreat\",\"185\",\"1268877\",\"0.0-185.0\",\"\",\"\",\"2-5\",\"4226\",\"37\",\"1\",\"Testing\",\"Stims/Figures/85-J-0-2.bmp\",\"None\",\"Right\",\"37\",\"2\",\"13\",\"10\",\"N\",\"J\",\"37\"
\"\",\"\",\"approach-retreat\",\"186\",\"1275344\",\"0.0-186.0\",\"\",\"\",\"2-5\",\"4942\",\"39\",\"1\",\"Testing\",\"Stims/Figures/84-J-0-2.bmp\",\"None\",\"Left\",\"39\",\"2\",\"14\",\"10\",\"N\",\"J\",\"38\"
\"\",\"\",\"approach-retreat\",\"187\",\"1281949\",\"0.0-187.0\",\"\",\"\",\"2-5\",\"5086\",\"38\",\"1\",\"Testing\",\"Stims/Figures/71-C-30-1.bmp\",\"None\",\"Up\",\"38\",\"2\",\"15\",\"10\",\"N\",\"J\",\"39\"
\"\",\"\",\"approach-retreat\",\"188\",\"1287844\",\"0.0-188.0\",\"\",\"\",\"2-5\",\"4387\",\"38\",\"1\",\"Testing\",\"Stims/Figures/57-J-0-1.bmp\",\"None\",\"Down\",\"38\",\"2\",\"16\",\"10\",\"N\",\"J\",\"40\"
\"\",\"\",\"approach-retreat\",\"189\",\"1293716\",\"0.0-189.0\",\"\",\"\",\"2-5\",\"4357\",\"40\",\"1\",\"Testing\",\"Stims/Figures/71-J-0-1.bmp\",\"None\",\"Up\",\"40\",\"2\",\"17\",\"10\",\"N\",\"J\",\"41\"
\"\",\"\",\"approach-retreat\",\"190\",\"1299889\",\"0.0-190.0\",\"\",\"\",\"2-5\",\"4645\",\"39\",\"1\",\"Testing\",\"Stims/Figures/93-C-30-1.bmp\",\"None\",\"Right\",\"39\",\"2\",\"18\",\"10\",\"N\",\"J\",\"42\"
\"\",\"\",\"approach-retreat\",\"191\",\"1309285\",\"0.0-191.0\",\"\",\"\",\"2-5\",\"7877\",\"40\",\"1\",\"Testing\",\"Stims/Figures/100-J-10-3.bmp\",\"None\",\"Up\",\"40\",\"2\",\"19\",\"10\",\"N\",\"J\",\"43\"
\"\",\"\",\"approach-retreat\",\"192\",\"1315397\",\"0.0-192.0\",\"\",\"\",\"2-5\",\"4586\",\"37\",\"1\",\"Testing\",\"Stims/Figures/84-C-20-2.bmp\",\"None\",\"Left\",\"37\",\"2\",\"20\",\"10\",\"N\",\"J\",\"44\"
\"\",\"\",\"approach-retreat\",\"193\",\"1321256\",\"0.0-193.0\",\"\",\"\",\"2-5\",\"4334\",\"40\",\"1\",\"Testing\",\"Stims/Figures/85-C-20-2.bmp\",\"None\",\"Down\",\"40\",\"2\",\"21\",\"10\",\"N\",\"J\",\"45\"
\"\",\"\",\"approach-retreat\",\"194\",\"1327589\",\"0.0-194.0\",\"\",\"\",\"2-5\",\"4830\",\"39\",\"1\",\"Testing\",\"Stims/Figures/93-J-0-1.bmp\",\"None\",\"Left\",\"39\",\"2\",\"22\",\"10\",\"N\",\"J\",\"46\"
\"\",\"\",\"approach-retreat\",\"195\",\"1333303\",\"0.0-195.0\",\"\",\"\",\"2-5\",\"4202\",\"38\",\"1\",\"Testing\",\"Stims/Figures/102-C-20-4.bmp\",\"None\",\"Up\",\"38\",\"2\",\"23\",\"10\",\"N\",\"J\",\"47\"
\"\",\"\",\"approach-retreat\",\"196\",\"1338991\",\"0.0-196.0\",\"\",\"\",\"2-5\",\"4175\",\"39\",\"1\",\"Testing\",\"Stims/Figures/74-J-10-4.bmp\",\"None\",\"Left\",\"39\",\"2\",\"24\",\"10\",\"N\",\"J\",\"48\"
\"\",\"\",\"approach-retreat\",\"197\",\"1345048\",\"0.0-197.0\",\"\",\"\",\"2-5\",\"4551\",\"38\",\"1\",\"Testing\",\"Stims/Figures/93-C-30-1.bmp\",\"None\",\"Up\",\"38\",\"3\",\"1\",\"10\",\"N\",\"J\",\"49\"
\"\",\"\",\"approach-retreat\",\"198\",\"1351029\",\"0.0-198.0\",\"\",\"\",\"2-5\",\"4467\",\"37\",\"1\",\"Testing\",\"Stims/Figures/93-J-0-1.bmp\",\"None\",\"Right\",\"37\",\"3\",\"2\",\"10\",\"N\",\"J\",\"50\"
\"\",\"\",\"approach-retreat\",\"199\",\"1356808\",\"0.0-199.0\",\"\",\"\",\"2-5\",\"4258\",\"39\",\"1\",\"Testing\",\"Stims/Figures/128-J-10-3.bmp\",\"None\",\"Left\",\"39\",\"3\",\"3\",\"10\",\"N\",\"J\",\"51\"
\"\",\"\",\"approach-retreat\",\"200\",\"1362657\",\"0.0-200.0\",\"\",\"\",\"2-5\",\"4336\",\"40\",\"1\",\"Testing\",\"Stims/Figures/44-J-10-3.bmp\",\"None\",\"Up\",\"40\",\"3\",\"4\",\"10\",\"N\",\"J\",\"52\"
\"\",\"\",\"approach-retreat\",\"201\",\"1368241\",\"0.0-201.0\",\"\",\"\",\"2-5\",\"4067\",\"39\",\"1\",\"Testing\",\"Stims/Figures/102-J-10-4.bmp\",\"None\",\"Left\",\"39\",\"3\",\"5\",\"10\",\"N\",\"J\",\"53\"
\"\",\"\",\"approach-retreat\",\"202\",\"1374286\",\"0.0-202.0\",\"\",\"\",\"2-5\",\"4532\",\"40\",\"1\",\"Testing\",\"Stims/Figures/57-C-30-1.bmp\",\"None\",\"Down\",\"40\",\"3\",\"6\",\"10\",\"N\",\"J\",\"54\"
\"\",\"\",\"approach-retreat\",\"203\",\"1380264\",\"0.0-203.0\",\"\",\"\",\"2-5\",\"4466\",\"38\",\"1\",\"Testing\",\"Stims/Figures/84-C-20-2.bmp\",\"None\",\"Up\",\"38\",\"3\",\"7\",\"10\",\"N\",\"J\",\"55\"
\"\",\"\",\"approach-retreat\",\"204\",\"1386380\",\"0.0-204.0\",\"\",\"\",\"2-5\",\"4601\",\"38\",\"1\",\"Testing\",\"Stims/Figures/71-C-30-1.bmp\",\"None\",\"Up\",\"38\",\"3\",\"8\",\"10\",\"N\",\"J\",\"56\"
\"\",\"\",\"approach-retreat\",\"205\",\"1392004\",\"0.0-205.0\",\"\",\"\",\"2-5\",\"4102\",\"37\",\"1\",\"Testing\",\"Stims/Figures/84-J-0-2.bmp\",\"None\",\"Right\",\"37\",\"3\",\"9\",\"10\",\"N\",\"J\",\"57\"
\"\",\"\",\"approach-retreat\",\"206\",\"1397732\",\"0.0-206.0\",\"\",\"\",\"2-5\",\"4204\",\"38\",\"1\",\"Testing\",\"Stims/Figures/139-J-0-2.bmp\",\"None\",\"Down\",\"38\",\"3\",\"10\",\"10\",\"N\",\"J\",\"58\"
\"\",\"\",\"approach-retreat\",\"207\",\"1405019\",\"0.0-207.0\",\"\",\"\",\"2-5\",\"5770\",\"37\",\"1\",\"Testing\",\"Stims/Figures/74-J-10-4.bmp\",\"None\",\"Right\",\"37\",\"3\",\"11\",\"10\",\"N\",\"J\",\"59\"
\"\",\"\",\"approach-retreat\",\"208\",\"1410792\",\"0.0-208.0\",\"\",\"\",\"2-5\",\"4245\",\"39\",\"1\",\"Testing\",\"Stims/Figures/85-C-20-2.bmp\",\"None\",\"Right\",\"39\",\"3\",\"12\",\"10\",\"N\",\"J\",\"60\"
\"\",\"\",\"approach-retreat\",\"209\",\"1416508\",\"0.0-209.0\",\"\",\"\",\"2-5\",\"4192\",\"37\",\"1\",\"Testing\",\"Stims/Figures/102-C-20-4.bmp\",\"None\",\"Left\",\"37\",\"3\",\"13\",\"10\",\"N\",\"J\",\"61\"
\"\",\"\",\"approach-retreat\",\"210\",\"1423889\",\"0.0-210.0\",\"\",\"\",\"2-5\",\"5878\",\"39\",\"1\",\"Testing\",\"Stims/Figures/100-J-10-3.bmp\",\"None\",\"Left\",\"39\",\"3\",\"14\",\"10\",\"N\",\"J\",\"62\"
\"\",\"\",\"approach-retreat\",\"211\",\"1429757\",\"0.0-211.0\",\"\",\"\",\"2-5\",\"4354\",\"38\",\"1\",\"Testing\",\"Stims/Figures/44-C-30-3.bmp\",\"None\",\"Up\",\"38\",\"3\",\"15\",\"10\",\"N\",\"J\",\"63\"
\"\",\"\",\"approach-retreat\",\"212\",\"1435413\",\"0.0-212.0\",\"\",\"\",\"2-5\",\"4134\",\"39\",\"1\",\"Testing\",\"Stims/Figures/74-C-20-4.bmp\",\"None\",\"Right\",\"39\",\"3\",\"16\",\"10\",\"N\",\"J\",\"64\"
\"\",\"\",\"approach-retreat\",\"213\",\"1441840\",\"0.0-213.0\",\"\",\"\",\"2-5\",\"4896\",\"37\",\"1\",\"Testing\",\"Stims/Figures/139-C-20-2.bmp\",\"None\",\"Left\",\"37\",\"3\",\"17\",\"10\",\"N\",\"J\",\"65\"
\"\",\"\",\"approach-retreat\",\"214\",\"1448042\",\"0.0-214.0\",\"\",\"\",\"2-5\",\"4686\",\"39\",\"1\",\"Testing\",\"Stims/Figures/71-J-0-1.bmp\",\"None\",\"Left\",\"39\",\"3\",\"18\",\"10\",\"N\",\"J\",\"66\"
\"\",\"\",\"approach-retreat\",\"215\",\"1453974\",\"0.0-215.0\",\"\",\"\",\"2-5\",\"4407\",\"40\",\"1\",\"Testing\",\"Stims/Figures/128-C-30-3.bmp\",\"None\",\"Down\",\"40\",\"3\",\"19\",\"10\",\"N\",\"J\",\"67\"
\"\",\"\",\"approach-retreat\",\"216\",\"1460470\",\"0.0-216.0\",\"\",\"\",\"2-5\",\"4974\",\"40\",\"1\",\"Testing\",\"Stims/Figures/87-C-20-4.bmp\",\"None\",\"Down\",\"40\",\"3\",\"20\",\"10\",\"N\",\"J\",\"68\"
\"\",\"\",\"approach-retreat\",\"217\",\"1466607\",\"0.0-217.0\",\"\",\"\",\"2-5\",\"4624\",\"38\",\"1\",\"Testing\",\"Stims/Figures/85-J-0-2.bmp\",\"None\",\"Down\",\"38\",\"3\",\"21\",\"10\",\"N\",\"J\",\"69\"
\"\",\"\",\"approach-retreat\",\"218\",\"1472439\",\"0.0-218.0\",\"\",\"\",\"2-5\",\"4318\",\"38\",\"1\",\"Testing\",\"Stims/Figures/100-C-30-3.bmp\",\"None\",\"Up\",\"38\",\"3\",\"22\",\"10\",\"N\",\"J\",\"70\"
\"\",\"\",\"approach-retreat\",\"219\",\"1479610\",\"0.0-219.0\",\"\",\"\",\"2-5\",\"5651\",\"38\",\"1\",\"Testing\",\"Stims/Figures/87-J-10-4.bmp\",\"None\",\"Down\",\"38\",\"3\",\"23\",\"10\",\"N\",\"J\",\"71\"
\"\",\"\",\"approach-retreat\",\"220\",\"1485207\",\"0.0-220.0\",\"\",\"\",\"2-5\",\"4077\",\"37\",\"1\",\"Testing\",\"Stims/Figures/57-J-0-1.bmp\",\"None\",\"Right\",\"37\",\"3\",\"24\",\"10\",\"N\",\"J\",\"72\"
\"\",\"\",\"approach-retreat\",\"221\",\"1491544\",\"0.0-221.0\",\"\",\"\",\"2-5\",\"4838\",\"40\",\"1\",\"Testing\",\"Stims/Figures/139-J-0-2.bmp\",\"None\",\"Up\",\"40\",\"4\",\"1\",\"10\",\"N\",\"J\",\"73\"
\"\",\"\",\"approach-retreat\",\"222\",\"1497581\",\"0.0-222.0\",\"\",\"\",\"2-5\",\"4511\",\"38\",\"1\",\"Testing\",\"Stims/Figures/102-C-20-4.bmp\",\"None\",\"Up\",\"38\",\"4\",\"2\",\"10\",\"N\",\"J\",\"74\"
\"\",\"\",\"approach-retreat\",\"223\",\"1503269\",\"0.0-223.0\",\"\",\"\",\"2-5\",\"4168\",\"37\",\"1\",\"Testing\",\"Stims/Figures/100-C-30-3.bmp\",\"None\",\"Left\",\"37\",\"4\",\"3\",\"10\",\"N\",\"J\",\"75\"
\"\",\"\",\"approach-retreat\",\"224\",\"1508955\",\"0.0-224.0\",\"\",\"\",\"2-5\",\"4166\",\"39\",\"1\",\"Testing\",\"Stims/Figures/71-J-0-1.bmp\",\"None\",\"Left\",\"39\",\"4\",\"4\",\"10\",\"N\",\"J\",\"76\"
\"\",\"\",\"approach-retreat\",\"225\",\"1515647\",\"0.0-225.0\",\"\",\"\",\"2-5\",\"5180\",\"37\",\"1\",\"Testing\",\"Stims/Figures/74-C-20-4.bmp\",\"None\",\"Left\",\"37\",\"4\",\"5\",\"10\",\"N\",\"J\",\"77\"
\"\",\"\",\"approach-retreat\",\"226\",\"1521409\",\"0.0-226.0\",\"\",\"\",\"2-5\",\"4245\",\"38\",\"1\",\"Testing\",\"Stims/Figures/93-J-0-1.bmp\",\"None\",\"Down\",\"38\",\"4\",\"6\",\"10\",\"N\",\"J\",\"78\"
\"\",\"\",\"approach-retreat\",\"227\",\"1527795\",\"0.0-227.0\",\"\",\"\",\"2-5\",\"4861\",\"40\",\"1\",\"Testing\",\"Stims/Figures/87-C-20-4.bmp\",\"None\",\"Down\",\"40\",\"4\",\"7\",\"10\",\"N\",\"J\",\"79\"
\"\",\"\",\"approach-retreat\",\"228\",\"1533427\",\"0.0-228.0\",\"\",\"\",\"2-5\",\"4106\",\"40\",\"1\",\"Testing\",\"Stims/Figures/128-J-10-3.bmp\",\"None\",\"Up\",\"40\",\"4\",\"8\",\"10\",\"N\",\"J\",\"80\"
\"\",\"\",\"approach-retreat\",\"229\",\"1539074\",\"0.0-229.0\",\"\",\"\",\"2-5\",\"4133\",\"38\",\"1\",\"Testing\",\"Stims/Figures/87-J-10-4.bmp\",\"None\",\"Down\",\"38\",\"4\",\"9\",\"10\",\"N\",\"J\",\"81\"
\"\",\"\",\"approach-retreat\",\"230\",\"1544757\",\"0.0-230.0\",\"\",\"\",\"2-5\",\"4157\",\"37\",\"1\",\"Testing\",\"Stims/Figures/102-J-10-4.bmp\",\"None\",\"Right\",\"37\",\"4\",\"10\",\"10\",\"N\",\"J\",\"82\"
\"\",\"\",\"approach-retreat\",\"231\",\"1550318\",\"0.0-231.0\",\"\",\"\",\"2-5\",\"4045\",\"39\",\"1\",\"Testing\",\"Stims/Figures/93-C-30-1.bmp\",\"None\",\"Right\",\"39\",\"4\",\"11\",\"10\",\"N\",\"J\",\"83\"
\"\",\"\",\"approach-retreat\",\"232\",\"1555996\",\"0.0-232.0\",\"\",\"\",\"2-5\",\"4175\",\"40\",\"1\",\"Testing\",\"Stims/Figures/100-J-10-3.bmp\",\"None\",\"Up\",\"40\",\"4\",\"12\",\"10\",\"N\",\"J\",\"84\"
\"\",\"\",\"approach-retreat\",\"233\",\"1562762\",\"0.0-233.0\",\"\",\"\",\"2-5\",\"5251\",\"38\",\"1\",\"Testing\",\"Stims/Figures/57-J-0-1.bmp\",\"None\",\"Down\",\"38\",\"4\",\"13\",\"10\",\"N\",\"J\",\"85\"
\"\",\"\",\"approach-retreat\",\"234\",\"1568459\",\"0.0-234.0\",\"\",\"\",\"2-5\",\"4177\",\"40\",\"1\",\"Testing\",\"Stims/Figures/74-J-10-4.bmp\",\"None\",\"Up\",\"40\",\"4\",\"14\",\"10\",\"N\",\"J\",\"86\"
\"\",\"\",\"approach-retreat\",\"235\",\"1574094\",\"0.0-235.0\",\"\",\"\",\"2-5\",\"4115\",\"38\",\"1\",\"Testing\",\"Stims/Figures/84-C-20-2.bmp\",\"None\",\"Up\",\"38\",\"4\",\"15\",\"10\",\"N\",\"J\",\"87\"
\"\",\"\",\"approach-retreat\",\"236\",\"1579948\",\"0.0-236.0\",\"\",\"\",\"2-5\",\"4337\",\"40\",\"1\",\"Testing\",\"Stims/Figures/44-C-30-3.bmp\",\"None\",\"Down\",\"40\",\"4\",\"16\",\"10\",\"N\",\"J\",\"88\"
\"\",\"\",\"approach-retreat\",\"237\",\"1585802\",\"0.0-237.0\",\"\",\"\",\"2-5\",\"4339\",\"37\",\"1\",\"Testing\",\"Stims/Figures/139-C-20-2.bmp\",\"None\",\"Left\",\"37\",\"4\",\"17\",\"10\",\"N\",\"J\",\"89\"
\"\",\"\",\"approach-retreat\",\"238\",\"1592142\",\"0.0-238.0\",\"\",\"\",\"2-5\",\"4822\",\"39\",\"1\",\"Testing\",\"Stims/Figures/44-J-10-3.bmp\",\"None\",\"Left\",\"39\",\"4\",\"18\",\"10\",\"N\",\"J\",\"90\"
\"\",\"\",\"approach-retreat\",\"239\",\"1598194\",\"0.0-239.0\",\"\",\"\",\"2-5\",\"4524\",\"39\",\"1\",\"Testing\",\"Stims/Figures/71-C-30-1.bmp\",\"None\",\"Right\",\"39\",\"4\",\"19\",\"10\",\"N\",\"J\",\"91\"
\"\",\"\",\"approach-retreat\",\"240\",\"1604090\",\"0.0-240.0\",\"\",\"\",\"2-5\",\"4372\",\"39\",\"1\",\"Testing\",\"Stims/Figures/128-C-30-3.bmp\",\"None\",\"Right\",\"39\",\"4\",\"20\",\"10\",\"N\",\"J\",\"92\"
\"\",\"\",\"approach-retreat\",\"241\",\"1610412\",\"0.0-241.0\",\"\",\"\",\"2-5\",\"4818\",\"37\",\"1\",\"Testing\",\"Stims/Figures/85-J-0-2.bmp\",\"None\",\"Right\",\"37\",\"4\",\"21\",\"10\",\"N\",\"J\",\"93\"
\"\",\"\",\"approach-retreat\",\"242\",\"1615997\",\"0.0-242.0\",\"\",\"\",\"2-5\",\"4063\",\"39\",\"1\",\"Testing\",\"Stims/Figures/57-C-30-1.bmp\",\"None\",\"Right\",\"39\",\"4\",\"22\",\"10\",\"N\",\"J\",\"94\"
\"\",\"\",\"approach-retreat\",\"243\",\"1622279\",\"0.0-243.0\",\"\",\"\",\"2-5\",\"4759\",\"40\",\"1\",\"Testing\",\"Stims/Figures/85-C-20-2.bmp\",\"None\",\"Down\",\"40\",\"4\",\"23\",\"10\",\"N\",\"J\",\"95\"
\"\",\"\",\"approach-retreat\",\"244\",\"1628350\",\"0.0-244.0\",\"\",\"\",\"2-5\",\"4554\",\"39\",\"1\",\"Testing\",\"Stims/Figures/84-J-0-2.bmp\",\"None\",\"Left\",\"39\",\"4\",\"24\",\"10\",\"N\",\"J\",\"96\"
\"35373\",\"\",\"survey-text\",\"245\",\"1663731\",\"0.0-245.0\",\"\",\"{\"\"Q0\"\":\"\"PS160012\"\"}\",\"\",\"\",\"\",\"\",\"\",\"\",\"\",\"\",\"\",\"\",\"\",\"\",\"\",\"\",\"\"
