\"rt\",\"key_press\",\"trial_type\",\"trial_index\",\"time_elapsed\",\"internal_node_id\",\"view_history\",\"responses\",\"Id\",\"Rt\",\"ResKeyCode\",\"ResCorr\",\"TrialType2\",\"Image\",\"Label\",\"Location\",\"CorrectResponse\",\"Block\",\"BlockTrial\",\"Condition\",\"LabelType\",\"Subcondition\",\"trialNum\"
\"70711\",\"32\",\"text\",\"0\",\"70718\",\"0.0-0.0-0.0\",\"\",\"\",\"\",\"\",\"\",\"\",\"\",\"\",\"\",\"\",\"\",\"\",\"\",\"\",\"\",\"\",\"\"
\"72013\",\"\",\"instructions\",\"1\",\"142735\",\"0.0-1.0\",\"[{\"\"page_index\"\":0,\"\"viewing_time\"\":72010}]\",\"\",\"\",\"\",\"\",\"\",\"\",\"\",\"\",\"\",\"\",\"\",\"\",\"\",\"\",\"\",\"\"
\"42469\",\"\",\"survey-multi-choice\",\"2\",\"185293\",\"0.0-2.0\",\"\",\"{\"\"Q0\"\":\"\"Ne\"\",\"\"Q1\"\":\"\"Da\"\",\"\"Q2\"\":\"\"Da\"\",\"\"Q3\"\":\"\"Da\"\",\"\"Q4\"\":\"\"Da\"\",\"\"Q5\"\":\"\"Da\"\"}\",\"\",\"\",\"\",\"\",\"\",\"\",\"\",\"\",\"\",\"\",\"\",\"\",\"\",\"\",\"\"
\"\",\"\",\"bio\",\"3\",\"195018\",\"0.0-3.0\",\"\",\"{\"\"age\"\":\"\"19\"\",\"\"gender\"\":\"\"f\"\",\"\"specify\"\":\"\"\"\"}\",\"\",\"\",\"\",\"\",\"\",\"\",\"\",\"\",\"\",\"\",\"\",\"\",\"\",\"\",\"\"
\"\",\"\",\"approach-retreat\",\"4\",\"212754\",\"0.0-4.0\",\"\",\"\",\"3-3\",\"16211\",\"38\",\"0\",\"Training\",\"Stims/Figures/94-C-20-2.bmp\",\"pa:ka:ta\",\"Down\",\"40\",\"1\",\"1\",\"5\",\"P\",\"J\",\"1\"
\"\",\"\",\"approach-retreat\",\"5\",\"218122\",\"0.0-5.0\",\"\",\"\",\"3-3\",\"3852\",\"38\",\"0\",\"Training\",\"Stims/Figures/86-J-0-1.bmp\",\"na:la:la\",\"Up\",\"40\",\"1\",\"2\",\"5\",\"S\",\"J\",\"2\"
\"\",\"\",\"approach-retreat\",\"6\",\"226277\",\"0.0-6.0\",\"\",\"\",\"3-3\",\"6636\",\"39\",\"0\",\"Training\",\"Stims/Figures/44-C-30-3.bmp\",\"pa:pata\",\"Left\",\"37\",\"1\",\"3\",\"5\",\"P\",\"J\",\"3\"
\"\",\"\",\"approach-retreat\",\"7\",\"235906\",\"0.0-7.0\",\"\",\"\",\"3-3\",\"8116\",\"37\",\"0\",\"Training\",\"Stims/Figures/27-C-30-1.bmp\",\"ta:paka\",\"Right\",\"39\",\"1\",\"4\",\"5\",\"P\",\"J\",\"4\"
\"\",\"\",\"approach-retreat\",\"8\",\"244275\",\"0.0-8.0\",\"\",\"\",\"3-3\",\"6855\",\"38\",\"0\",\"Training\",\"Stims/Figures/27-J-0-1.bmp\",\"ma:ma:na\",\"Up\",\"40\",\"1\",\"5\",\"5\",\"S\",\"J\",\"5\"
\"\",\"\",\"approach-retreat\",\"9\",\"256674\",\"0.0-9.0\",\"\",\"\",\"3-3\",\"10879\",\"39\",\"0\",\"Training\",\"Stims/Figures/86-C-30-1.bmp\",\"paka:ka\",\"Left\",\"37\",\"1\",\"6\",\"5\",\"P\",\"J\",\"6\"
\"\",\"\",\"approach-retreat\",\"10\",\"264968\",\"0.0-10.0\",\"\",\"\",\"3-3\",\"6772\",\"37\",\"1\",\"Training\",\"Stims/Figures/94-J-0-2.bmp\",\"na:lala\",\"Right\",\"37\",\"1\",\"7\",\"5\",\"S\",\"J\",\"7\"
\"\",\"\",\"approach-retreat\",\"11\",\"271312\",\"0.0-11.0\",\"\",\"\",\"3-3\",\"4821\",\"40\",\"1\",\"Training\",\"Stims/Figures/74-J-10-4.bmp\",\"na:lana\",\"Up\",\"40\",\"1\",\"8\",\"5\",\"S\",\"J\",\"8\"
\"\",\"\",\"approach-retreat\",\"12\",\"278867\",\"0.0-12.0\",\"\",\"\",\"3-3\",\"6032\",\"40\",\"0\",\"Training\",\"Stims/Figures/87-J-10-4.bmp\",\"ma:la:na\",\"Down\",\"38\",\"1\",\"9\",\"5\",\"S\",\"J\",\"9\"
\"\",\"\",\"approach-retreat\",\"13\",\"286117\",\"0.0-13.0\",\"\",\"\",\"3-3\",\"5733\",\"38\",\"0\",\"Training\",\"Stims/Figures/111-C-30-3.bmp\",\"ta:ka:ka\",\"Down\",\"40\",\"1\",\"10\",\"5\",\"P\",\"J\",\"10\"
\"\",\"\",\"approach-retreat\",\"14\",\"293309\",\"0.0-14.0\",\"\",\"\",\"3-3\",\"5673\",\"37\",\"1\",\"Training\",\"Stims/Figures/111-J-10-3.bmp\",\"nalala\",\"Right\",\"37\",\"1\",\"11\",\"5\",\"S\",\"J\",\"11\"
\"\",\"\",\"approach-retreat\",\"15\",\"299735\",\"0.0-15.0\",\"\",\"\",\"3-3\",\"4908\",\"37\",\"1\",\"Training\",\"Stims/Figures/74-C-20-4.bmp\",\"tapata\",\"Left\",\"37\",\"1\",\"12\",\"5\",\"P\",\"J\",\"12\"
\"\",\"\",\"approach-retreat\",\"16\",\"307145\",\"0.0-16.0\",\"\",\"\",\"3-3\",\"5895\",\"40\",\"0\",\"Training\",\"Stims/Figures/87-C-20-4.bmp\",\"ta:pa:ta\",\"Up\",\"38\",\"1\",\"13\",\"5\",\"P\",\"J\",\"13\"
\"\",\"\",\"approach-retreat\",\"17\",\"313317\",\"0.0-17.0\",\"\",\"\",\"3-3\",\"4655\",\"39\",\"0\",\"Training\",\"Stims/Figures/139-C-20-2.bmp\",\"pa:kaka\",\"Left\",\"37\",\"1\",\"14\",\"5\",\"P\",\"J\",\"14\"
\"\",\"\",\"approach-retreat\",\"18\",\"320189\",\"0.0-18.0\",\"\",\"\",\"3-3\",\"5360\",\"40\",\"0\",\"Training\",\"Stims/Figures/44-J-10-3.bmp\",\"mamala\",\"Down\",\"38\",\"1\",\"15\",\"5\",\"S\",\"J\",\"15\"
\"\",\"\",\"approach-retreat\",\"19\",\"328333\",\"0.0-19.0\",\"\",\"\",\"3-3\",\"6630\",\"37\",\"1\",\"Training\",\"Stims/Figures/139-J-0-2.bmp\",\"mala:na\",\"Right\",\"37\",\"1\",\"16\",\"5\",\"S\",\"J\",\"16\"
\"\",\"\",\"approach-retreat\",\"20\",\"335449\",\"0.0-20.0\",\"\",\"\",\"3-3\",\"5603\",\"37\",\"1\",\"Training\",\"Stims/Figures/44-J-10-3.bmp\",\"mamala\",\"Right\",\"37\",\"2\",\"1\",\"5\",\"S\",\"J\",\"17\"
\"\",\"\",\"approach-retreat\",\"21\",\"341692\",\"0.0-21.0\",\"\",\"\",\"3-3\",\"4731\",\"39\",\"1\",\"Training\",\"Stims/Figures/27-J-0-1.bmp\",\"ma:ma:na\",\"Left\",\"39\",\"2\",\"2\",\"5\",\"S\",\"J\",\"18\"
\"\",\"\",\"approach-retreat\",\"22\",\"349511\",\"0.0-22.0\",\"\",\"\",\"3-3\",\"6300\",\"39\",\"1\",\"Training\",\"Stims/Figures/74-C-20-4.bmp\",\"tapata\",\"Right\",\"39\",\"2\",\"3\",\"5\",\"P\",\"J\",\"19\"
\"\",\"\",\"approach-retreat\",\"23\",\"355886\",\"0.0-23.0\",\"\",\"\",\"3-3\",\"4852\",\"40\",\"1\",\"Training\",\"Stims/Figures/27-C-30-1.bmp\",\"ta:paka\",\"Down\",\"40\",\"2\",\"4\",\"5\",\"P\",\"J\",\"20\"
\"\",\"\",\"approach-retreat\",\"24\",\"361754\",\"0.0-24.0\",\"\",\"\",\"3-3\",\"4351\",\"40\",\"1\",\"Training\",\"Stims/Figures/87-C-20-4.bmp\",\"ta:pa:ta\",\"Down\",\"40\",\"2\",\"5\",\"5\",\"P\",\"J\",\"21\"
\"\",\"\",\"approach-retreat\",\"25\",\"368589\",\"0.0-25.0\",\"\",\"\",\"3-3\",\"5316\",\"38\",\"0\",\"Training\",\"Stims/Figures/94-J-0-2.bmp\",\"na:lala\",\"Up\",\"40\",\"2\",\"6\",\"5\",\"S\",\"J\",\"22\"
\"\",\"\",\"approach-retreat\",\"26\",\"374873\",\"0.0-26.0\",\"\",\"\",\"3-3\",\"4763\",\"37\",\"0\",\"Training\",\"Stims/Figures/86-C-30-1.bmp\",\"paka:ka\",\"Right\",\"39\",\"2\",\"7\",\"5\",\"P\",\"J\",\"23\"
\"\",\"\",\"approach-retreat\",\"27\",\"381101\",\"0.0-27.0\",\"\",\"\",\"3-3\",\"4705\",\"40\",\"1\",\"Training\",\"Stims/Figures/139-J-0-2.bmp\",\"mala:na\",\"Up\",\"40\",\"2\",\"8\",\"5\",\"S\",\"J\",\"24\"
\"\",\"\",\"approach-retreat\",\"28\",\"386811\",\"0.0-28.0\",\"\",\"\",\"3-3\",\"4193\",\"40\",\"0\",\"Training\",\"Stims/Figures/94-C-20-2.bmp\",\"pa:ka:ta\",\"Up\",\"38\",\"2\",\"9\",\"5\",\"P\",\"J\",\"25\"
\"\",\"\",\"approach-retreat\",\"29\",\"392800\",\"0.0-29.0\",\"\",\"\",\"3-3\",\"4470\",\"39\",\"0\",\"Training\",\"Stims/Figures/44-C-30-3.bmp\",\"pa:pata\",\"Left\",\"37\",\"2\",\"10\",\"5\",\"P\",\"J\",\"26\"
\"\",\"\",\"approach-retreat\",\"30\",\"399094\",\"0.0-30.0\",\"\",\"\",\"3-3\",\"4772\",\"37\",\"0\",\"Training\",\"Stims/Figures/111-J-10-3.bmp\",\"nalala\",\"Left\",\"39\",\"2\",\"11\",\"5\",\"S\",\"J\",\"27\"
\"\",\"\",\"approach-retreat\",\"31\",\"405376\",\"0.0-31.0\",\"\",\"\",\"3-3\",\"4760\",\"38\",\"0\",\"Training\",\"Stims/Figures/87-J-10-4.bmp\",\"ma:la:na\",\"Up\",\"40\",\"2\",\"12\",\"5\",\"S\",\"J\",\"28\"
\"\",\"\",\"approach-retreat\",\"32\",\"411143\",\"0.0-32.0\",\"\",\"\",\"3-3\",\"4247\",\"40\",\"0\",\"Training\",\"Stims/Figures/74-J-10-4.bmp\",\"na:lana\",\"Down\",\"38\",\"2\",\"13\",\"5\",\"S\",\"J\",\"29\"
\"\",\"\",\"approach-retreat\",\"33\",\"418506\",\"0.0-33.0\",\"\",\"\",\"3-3\",\"5841\",\"39\",\"1\",\"Training\",\"Stims/Figures/139-C-20-2.bmp\",\"pa:kaka\",\"Right\",\"39\",\"2\",\"14\",\"5\",\"P\",\"J\",\"30\"
\"\",\"\",\"approach-retreat\",\"34\",\"425197\",\"0.0-34.0\",\"\",\"\",\"3-3\",\"5173\",\"37\",\"1\",\"Training\",\"Stims/Figures/111-C-30-3.bmp\",\"ta:ka:ka\",\"Left\",\"37\",\"2\",\"15\",\"5\",\"P\",\"J\",\"31\"
\"\",\"\",\"approach-retreat\",\"35\",\"431318\",\"0.0-35.0\",\"\",\"\",\"3-3\",\"4604\",\"38\",\"1\",\"Training\",\"Stims/Figures/86-J-0-1.bmp\",\"na:la:la\",\"Down\",\"38\",\"2\",\"16\",\"5\",\"S\",\"J\",\"32\"
\"\",\"\",\"approach-retreat\",\"36\",\"437491\",\"0.0-36.0\",\"\",\"\",\"3-3\",\"4655\",\"37\",\"1\",\"Training\",\"Stims/Figures/94-J-0-2.bmp\",\"na:lala\",\"Right\",\"37\",\"3\",\"1\",\"5\",\"S\",\"J\",\"33\"
\"\",\"\",\"approach-retreat\",\"37\",\"443534\",\"0.0-37.0\",\"\",\"\",\"3-3\",\"4527\",\"39\",\"1\",\"Training\",\"Stims/Figures/139-C-20-2.bmp\",\"pa:kaka\",\"Right\",\"39\",\"3\",\"2\",\"5\",\"P\",\"J\",\"34\"
\"\",\"\",\"approach-retreat\",\"38\",\"449329\",\"0.0-38.0\",\"\",\"\",\"3-3\",\"4276\",\"40\",\"0\",\"Training\",\"Stims/Figures/111-J-10-3.bmp\",\"nalala\",\"Down\",\"38\",\"3\",\"3\",\"5\",\"S\",\"J\",\"35\"
\"\",\"\",\"approach-retreat\",\"39\",\"456483\",\"0.0-39.0\",\"\",\"\",\"3-3\",\"5625\",\"39\",\"0\",\"Training\",\"Stims/Figures/44-J-10-3.bmp\",\"mamala\",\"Right\",\"37\",\"3\",\"4\",\"5\",\"S\",\"J\",\"36\"
\"\",\"\",\"approach-retreat\",\"40\",\"463007\",\"0.0-40.0\",\"\",\"\",\"3-3\",\"5005\",\"40\",\"0\",\"Training\",\"Stims/Figures/111-C-30-3.bmp\",\"ta:ka:ka\",\"Up\",\"38\",\"3\",\"5\",\"5\",\"P\",\"J\",\"37\"
\"\",\"\",\"approach-retreat\",\"41\",\"469197\",\"0.0-41.0\",\"\",\"\",\"3-3\",\"4669\",\"40\",\"1\",\"Training\",\"Stims/Figures/94-C-20-2.bmp\",\"pa:ka:ta\",\"Down\",\"40\",\"3\",\"6\",\"5\",\"P\",\"J\",\"38\"
\"\",\"\",\"approach-retreat\",\"42\",\"474859\",\"0.0-42.0\",\"\",\"\",\"3-3\",\"4144\",\"40\",\"0\",\"Training\",\"Stims/Figures/27-C-30-1.bmp\",\"ta:paka\",\"Up\",\"38\",\"3\",\"7\",\"5\",\"P\",\"J\",\"39\"
\"\",\"\",\"approach-retreat\",\"43\",\"480967\",\"0.0-43.0\",\"\",\"\",\"3-3\",\"4587\",\"39\",\"1\",\"Training\",\"Stims/Figures/86-J-0-1.bmp\",\"na:la:la\",\"Left\",\"39\",\"3\",\"8\",\"5\",\"S\",\"J\",\"40\"
\"\",\"\",\"approach-retreat\",\"44\",\"486668\",\"0.0-44.0\",\"\",\"\",\"3-3\",\"4186\",\"38\",\"1\",\"Training\",\"Stims/Figures/27-J-0-1.bmp\",\"ma:ma:na\",\"Down\",\"38\",\"3\",\"9\",\"5\",\"S\",\"J\",\"41\"
\"\",\"\",\"approach-retreat\",\"45\",\"492266\",\"0.0-45.0\",\"\",\"\",\"3-3\",\"4079\",\"38\",\"0\",\"Training\",\"Stims/Figures/86-C-30-1.bmp\",\"paka:ka\",\"Down\",\"40\",\"3\",\"10\",\"5\",\"P\",\"J\",\"42\"
\"\",\"\",\"approach-retreat\",\"46\",\"498096\",\"0.0-46.0\",\"\",\"\",\"3-3\",\"4313\",\"37\",\"0\",\"Training\",\"Stims/Figures/87-J-10-4.bmp\",\"ma:la:na\",\"Left\",\"39\",\"3\",\"11\",\"5\",\"S\",\"J\",\"43\"
\"\",\"\",\"approach-retreat\",\"47\",\"503923\",\"0.0-47.0\",\"\",\"\",\"3-3\",\"4310\",\"37\",\"0\",\"Training\",\"Stims/Figures/74-J-10-4.bmp\",\"na:lana\",\"Left\",\"39\",\"3\",\"12\",\"5\",\"S\",\"J\",\"44\"
\"\",\"\",\"approach-retreat\",\"48\",\"510012\",\"0.0-48.0\",\"\",\"\",\"3-3\",\"4570\",\"37\",\"0\",\"Training\",\"Stims/Figures/74-C-20-4.bmp\",\"tapata\",\"Right\",\"39\",\"3\",\"13\",\"5\",\"P\",\"J\",\"45\"
\"\",\"\",\"approach-retreat\",\"49\",\"515663\",\"0.0-49.0\",\"\",\"\",\"3-3\",\"4123\",\"40\",\"0\",\"Training\",\"Stims/Figures/87-C-20-4.bmp\",\"ta:pa:ta\",\"Up\",\"38\",\"3\",\"14\",\"5\",\"P\",\"J\",\"46\"
\"\",\"\",\"approach-retreat\",\"50\",\"522273\",\"0.0-50.0\",\"\",\"\",\"3-3\",\"5085\",\"39\",\"0\",\"Training\",\"Stims/Figures/44-C-30-3.bmp\",\"pa:pata\",\"Left\",\"37\",\"3\",\"15\",\"5\",\"P\",\"J\",\"47\"
\"\",\"\",\"approach-retreat\",\"51\",\"527988\",\"0.0-51.0\",\"\",\"\",\"3-3\",\"4199\",\"40\",\"1\",\"Training\",\"Stims/Figures/139-J-0-2.bmp\",\"mala:na\",\"Up\",\"40\",\"3\",\"16\",\"5\",\"S\",\"J\",\"48\"
\"\",\"\",\"approach-retreat\",\"52\",\"534992\",\"0.0-52.0\",\"\",\"\",\"3-3\",\"5486\",\"37\",\"1\",\"Training\",\"Stims/Figures/87-J-10-4.bmp\",\"ma:la:na\",\"Right\",\"37\",\"4\",\"1\",\"5\",\"S\",\"J\",\"49\"
\"\",\"\",\"approach-retreat\",\"53\",\"540896\",\"0.0-53.0\",\"\",\"\",\"3-3\",\"4376\",\"39\",\"1\",\"Training\",\"Stims/Figures/44-C-30-3.bmp\",\"pa:pata\",\"Right\",\"39\",\"4\",\"2\",\"5\",\"P\",\"J\",\"50\"
\"\",\"\",\"approach-retreat\",\"54\",\"546903\",\"0.0-54.0\",\"\",\"\",\"3-3\",\"4492\",\"38\",\"0\",\"Training\",\"Stims/Figures/139-C-20-2.bmp\",\"pa:kaka\",\"Down\",\"40\",\"4\",\"3\",\"5\",\"P\",\"J\",\"51\"
\"\",\"\",\"approach-retreat\",\"55\",\"552646\",\"0.0-55.0\",\"\",\"\",\"3-3\",\"4225\",\"39\",\"0\",\"Training\",\"Stims/Figures/27-C-30-1.bmp\",\"ta:paka\",\"Left\",\"37\",\"4\",\"4\",\"5\",\"P\",\"J\",\"52\"
\"\",\"\",\"approach-retreat\",\"56\",\"558518\",\"0.0-56.0\",\"\",\"\",\"3-3\",\"4352\",\"40\",\"1\",\"Training\",\"Stims/Figures/27-J-0-1.bmp\",\"ma:ma:na\",\"Up\",\"40\",\"4\",\"5\",\"5\",\"S\",\"J\",\"53\"
\"\",\"\",\"approach-retreat\",\"57\",\"564212\",\"0.0-57.0\",\"\",\"\",\"3-3\",\"4179\",\"38\",\"1\",\"Training\",\"Stims/Figures/87-C-20-4.bmp\",\"ta:pa:ta\",\"Up\",\"38\",\"4\",\"6\",\"5\",\"P\",\"J\",\"54\"
\"\",\"\",\"approach-retreat\",\"58\",\"570601\",\"0.0-58.0\",\"\",\"\",\"3-3\",\"4871\",\"39\",\"1\",\"Training\",\"Stims/Figures/94-J-0-2.bmp\",\"na:lala\",\"Left\",\"39\",\"4\",\"7\",\"5\",\"S\",\"J\",\"55\"
\"\",\"\",\"approach-retreat\",\"59\",\"576248\",\"0.0-59.0\",\"\",\"\",\"3-3\",\"4124\",\"39\",\"0\",\"Training\",\"Stims/Figures/74-C-20-4.bmp\",\"tapata\",\"Left\",\"37\",\"4\",\"8\",\"5\",\"P\",\"J\",\"56\"
\"\",\"\",\"approach-retreat\",\"60\",\"581975\",\"0.0-60.0\",\"\",\"\",\"3-3\",\"4206\",\"38\",\"0\",\"Training\",\"Stims/Figures/86-C-30-1.bmp\",\"paka:ka\",\"Down\",\"40\",\"4\",\"9\",\"5\",\"P\",\"J\",\"57\"
\"\",\"\",\"approach-retreat\",\"61\",\"587730\",\"0.0-61.0\",\"\",\"\",\"3-3\",\"4237\",\"40\",\"1\",\"Training\",\"Stims/Figures/139-J-0-2.bmp\",\"mala:na\",\"Up\",\"40\",\"4\",\"10\",\"5\",\"S\",\"J\",\"58\"
\"\",\"\",\"approach-retreat\",\"62\",\"594343\",\"0.0-62.0\",\"\",\"\",\"3-3\",\"5095\",\"40\",\"0\",\"Training\",\"Stims/Figures/111-J-10-3.bmp\",\"nalala\",\"Down\",\"38\",\"4\",\"11\",\"5\",\"S\",\"J\",\"59\"
\"\",\"\",\"approach-retreat\",\"63\",\"600120\",\"0.0-63.0\",\"\",\"\",\"3-3\",\"4257\",\"39\",\"1\",\"Training\",\"Stims/Figures/86-J-0-1.bmp\",\"na:la:la\",\"Left\",\"39\",\"4\",\"12\",\"5\",\"S\",\"J\",\"60\"
\"\",\"\",\"approach-retreat\",\"64\",\"605999\",\"0.0-64.0\",\"\",\"\",\"3-3\",\"4361\",\"40\",\"1\",\"Training\",\"Stims/Figures/74-J-10-4.bmp\",\"na:lana\",\"Up\",\"40\",\"4\",\"13\",\"5\",\"S\",\"J\",\"61\"
\"\",\"\",\"approach-retreat\",\"65\",\"611837\",\"0.0-65.0\",\"\",\"\",\"3-3\",\"4315\",\"37\",\"0\",\"Training\",\"Stims/Figures/111-C-30-3.bmp\",\"ta:ka:ka\",\"Right\",\"39\",\"4\",\"14\",\"5\",\"P\",\"J\",\"62\"
\"\",\"\",\"approach-retreat\",\"66\",\"617736\",\"0.0-66.0\",\"\",\"\",\"3-3\",\"4384\",\"39\",\"1\",\"Training\",\"Stims/Figures/94-C-20-2.bmp\",\"pa:ka:ta\",\"Right\",\"39\",\"4\",\"15\",\"5\",\"P\",\"J\",\"63\"
\"\",\"\",\"approach-retreat\",\"67\",\"624248\",\"0.0-67.0\",\"\",\"\",\"3-3\",\"4992\",\"40\",\"0\",\"Training\",\"Stims/Figures/44-J-10-3.bmp\",\"mamala\",\"Down\",\"38\",\"4\",\"16\",\"5\",\"S\",\"J\",\"64\"
\"\",\"\",\"approach-retreat\",\"68\",\"630342\",\"0.0-68.0\",\"\",\"\",\"3-3\",\"4575\",\"39\",\"0\",\"Training\",\"Stims/Figures/111-J-10-3.bmp\",\"nalala\",\"Right\",\"37\",\"5\",\"1\",\"5\",\"S\",\"J\",\"65\"
\"\",\"\",\"approach-retreat\",\"69\",\"636541\",\"0.0-69.0\",\"\",\"\",\"3-3\",\"4681\",\"39\",\"1\",\"Training\",\"Stims/Figures/87-J-10-4.bmp\",\"ma:la:na\",\"Left\",\"39\",\"5\",\"2\",\"5\",\"S\",\"J\",\"66\"
\"\",\"\",\"approach-retreat\",\"70\",\"643247\",\"0.0-70.0\",\"\",\"\",\"3-3\",\"5186\",\"39\",\"1\",\"Training\",\"Stims/Figures/139-C-20-2.bmp\",\"pa:kaka\",\"Right\",\"39\",\"5\",\"3\",\"5\",\"P\",\"J\",\"67\"
\"\",\"\",\"approach-retreat\",\"71\",\"649206\",\"0.0-71.0\",\"\",\"\",\"3-3\",\"4445\",\"39\",\"1\",\"Training\",\"Stims/Figures/27-J-0-1.bmp\",\"ma:ma:na\",\"Left\",\"39\",\"5\",\"4\",\"5\",\"S\",\"J\",\"68\"
\"\",\"\",\"approach-retreat\",\"72\",\"655328\",\"0.0-72.0\",\"\",\"\",\"3-3\",\"4601\",\"38\",\"1\",\"Training\",\"Stims/Figures/87-C-20-4.bmp\",\"ta:pa:ta\",\"Up\",\"38\",\"5\",\"5\",\"5\",\"P\",\"J\",\"69\"
\"\",\"\",\"approach-retreat\",\"73\",\"661643\",\"0.0-73.0\",\"\",\"\",\"3-3\",\"4797\",\"38\",\"1\",\"Training\",\"Stims/Figures/27-C-30-1.bmp\",\"ta:paka\",\"Up\",\"38\",\"5\",\"6\",\"5\",\"P\",\"J\",\"70\"
\"\",\"\",\"approach-retreat\",\"74\",\"668359\",\"0.0-74.0\",\"\",\"\",\"3-3\",\"5199\",\"40\",\"0\",\"Training\",\"Stims/Figures/139-J-0-2.bmp\",\"mala:na\",\"Down\",\"38\",\"5\",\"7\",\"5\",\"S\",\"J\",\"71\"
\"\",\"\",\"approach-retreat\",\"75\",\"674722\",\"0.0-75.0\",\"\",\"\",\"3-3\",\"4839\",\"39\",\"0\",\"Training\",\"Stims/Figures/86-J-0-1.bmp\",\"na:la:la\",\"Right\",\"37\",\"5\",\"8\",\"5\",\"S\",\"J\",\"72\"
\"\",\"\",\"approach-retreat\",\"76\",\"681892\",\"0.0-76.0\",\"\",\"\",\"3-3\",\"5655\",\"40\",\"0\",\"Training\",\"Stims/Figures/44-J-10-3.bmp\",\"mamala\",\"Down\",\"38\",\"5\",\"9\",\"5\",\"S\",\"J\",\"73\"
\"\",\"\",\"approach-retreat\",\"77\",\"690068\",\"0.0-77.0\",\"\",\"\",\"3-3\",\"6652\",\"38\",\"0\",\"Training\",\"Stims/Figures/86-C-30-1.bmp\",\"paka:ka\",\"Down\",\"40\",\"5\",\"10\",\"5\",\"P\",\"J\",\"74\"
\"\",\"\",\"approach-retreat\",\"78\",\"696667\",\"0.0-78.0\",\"\",\"\",\"3-3\",\"5081\",\"39\",\"1\",\"Training\",\"Stims/Figures/94-C-20-2.bmp\",\"pa:ka:ta\",\"Right\",\"39\",\"5\",\"11\",\"5\",\"P\",\"J\",\"75\"
\"\",\"\",\"approach-retreat\",\"79\",\"702424\",\"0.0-79.0\",\"\",\"\",\"3-3\",\"4243\",\"39\",\"1\",\"Training\",\"Stims/Figures/94-J-0-2.bmp\",\"na:lala\",\"Left\",\"39\",\"5\",\"12\",\"5\",\"S\",\"J\",\"76\"
\"\",\"\",\"approach-retreat\",\"80\",\"709911\",\"0.0-80.0\",\"\",\"\",\"3-3\",\"5959\",\"38\",\"1\",\"Training\",\"Stims/Figures/74-C-20-4.bmp\",\"tapata\",\"Up\",\"38\",\"5\",\"13\",\"5\",\"P\",\"J\",\"77\"
\"\",\"\",\"approach-retreat\",\"81\",\"716779\",\"0.0-81.0\",\"\",\"\",\"3-3\",\"5352\",\"37\",\"0\",\"Training\",\"Stims/Figures/74-J-10-4.bmp\",\"na:lana\",\"Left\",\"39\",\"5\",\"14\",\"5\",\"S\",\"J\",\"78\"
\"\",\"\",\"approach-retreat\",\"82\",\"723913\",\"0.0-82.0\",\"\",\"\",\"3-3\",\"5618\",\"38\",\"1\",\"Training\",\"Stims/Figures/44-C-30-3.bmp\",\"pa:pata\",\"Up\",\"38\",\"5\",\"15\",\"5\",\"P\",\"J\",\"79\"
\"\",\"\",\"approach-retreat\",\"83\",\"729641\",\"0.0-83.0\",\"\",\"\",\"3-3\",\"4211\",\"38\",\"0\",\"Training\",\"Stims/Figures/111-C-30-3.bmp\",\"ta:ka:ka\",\"Down\",\"40\",\"5\",\"16\",\"5\",\"P\",\"J\",\"80\"
\"\",\"\",\"approach-retreat\",\"84\",\"735631\",\"0.0-84.0\",\"\",\"\",\"3-3\",\"4474\",\"39\",\"1\",\"Training\",\"Stims/Figures/27-C-30-1.bmp\",\"ta:paka\",\"Right\",\"39\",\"6\",\"1\",\"5\",\"P\",\"J\",\"81\"
\"\",\"\",\"approach-retreat\",\"85\",\"741610\",\"0.0-85.0\",\"\",\"\",\"3-3\",\"4461\",\"37\",\"1\",\"Training\",\"Stims/Figures/44-C-30-3.bmp\",\"pa:pata\",\"Left\",\"37\",\"6\",\"2\",\"5\",\"P\",\"J\",\"82\"
\"\",\"\",\"approach-retreat\",\"86\",\"747365\",\"0.0-86.0\",\"\",\"\",\"3-3\",\"4230\",\"37\",\"1\",\"Training\",\"Stims/Figures/139-J-0-2.bmp\",\"mala:na\",\"Right\",\"37\",\"6\",\"3\",\"5\",\"S\",\"J\",\"83\"
\"\",\"\",\"approach-retreat\",\"87\",\"753426\",\"0.0-87.0\",\"\",\"\",\"3-3\",\"4543\",\"40\",\"1\",\"Training\",\"Stims/Figures/86-C-30-1.bmp\",\"paka:ka\",\"Down\",\"40\",\"6\",\"4\",\"5\",\"P\",\"J\",\"84\"
\"\",\"\",\"approach-retreat\",\"88\",\"760863\",\"0.0-88.0\",\"\",\"\",\"3-3\",\"5919\",\"40\",\"0\",\"Training\",\"Stims/Figures/111-C-30-3.bmp\",\"ta:ka:ka\",\"Up\",\"38\",\"6\",\"5\",\"5\",\"P\",\"J\",\"85\"
\"\",\"\",\"approach-retreat\",\"89\",\"766588\",\"0.0-89.0\",\"\",\"\",\"3-3\",\"4202\",\"39\",\"1\",\"Training\",\"Stims/Figures/27-J-0-1.bmp\",\"ma:ma:na\",\"Left\",\"39\",\"6\",\"6\",\"5\",\"S\",\"J\",\"86\"
\"\",\"\",\"approach-retreat\",\"90\",\"772298\",\"0.0-90.0\",\"\",\"\",\"3-3\",\"4196\",\"40\",\"0\",\"Training\",\"Stims/Figures/87-C-20-4.bmp\",\"ta:pa:ta\",\"Up\",\"38\",\"6\",\"7\",\"5\",\"P\",\"J\",\"87\"
\"\",\"\",\"approach-retreat\",\"91\",\"778703\",\"0.0-91.0\",\"\",\"\",\"3-3\",\"4888\",\"38\",\"1\",\"Training\",\"Stims/Figures/94-C-20-2.bmp\",\"pa:ka:ta\",\"Up\",\"38\",\"6\",\"8\",\"5\",\"P\",\"J\",\"88\"
\"\",\"\",\"approach-retreat\",\"92\",\"784742\",\"0.0-92.0\",\"\",\"\",\"3-3\",\"4523\",\"39\",\"1\",\"Training\",\"Stims/Figures/94-J-0-2.bmp\",\"na:lala\",\"Left\",\"39\",\"6\",\"9\",\"5\",\"S\",\"J\",\"89\"
\"\",\"\",\"approach-retreat\",\"93\",\"790497\",\"0.0-93.0\",\"\",\"\",\"3-3\",\"4235\",\"39\",\"1\",\"Training\",\"Stims/Figures/86-J-0-1.bmp\",\"na:la:la\",\"Left\",\"39\",\"6\",\"10\",\"5\",\"S\",\"J\",\"90\"
\"\",\"\",\"approach-retreat\",\"94\",\"797762\",\"0.0-94.0\",\"\",\"\",\"3-3\",\"5744\",\"37\",\"1\",\"Training\",\"Stims/Figures/74-J-10-4.bmp\",\"na:lana\",\"Right\",\"37\",\"6\",\"11\",\"5\",\"S\",\"J\",\"91\"
\"\",\"\",\"approach-retreat\",\"95\",\"803774\",\"0.0-95.0\",\"\",\"\",\"3-3\",\"4494\",\"40\",\"1\",\"Training\",\"Stims/Figures/74-C-20-4.bmp\",\"tapata\",\"Down\",\"40\",\"6\",\"12\",\"5\",\"P\",\"J\",\"92\"
\"\",\"\",\"approach-retreat\",\"96\",\"810730\",\"0.0-96.0\",\"\",\"\",\"3-3\",\"5427\",\"38\",\"1\",\"Training\",\"Stims/Figures/111-J-10-3.bmp\",\"nalala\",\"Down\",\"38\",\"6\",\"13\",\"5\",\"S\",\"J\",\"93\"
\"\",\"\",\"approach-retreat\",\"97\",\"817068\",\"0.0-97.0\",\"\",\"\",\"3-3\",\"4823\",\"38\",\"1\",\"Training\",\"Stims/Figures/87-J-10-4.bmp\",\"ma:la:na\",\"Down\",\"38\",\"6\",\"14\",\"5\",\"S\",\"J\",\"94\"
\"\",\"\",\"approach-retreat\",\"98\",\"822833\",\"0.0-98.0\",\"\",\"\",\"3-3\",\"4247\",\"40\",\"1\",\"Training\",\"Stims/Figures/44-J-10-3.bmp\",\"mamala\",\"Up\",\"40\",\"6\",\"15\",\"5\",\"S\",\"J\",\"95\"
\"\",\"\",\"approach-retreat\",\"99\",\"828873\",\"0.0-99.0\",\"\",\"\",\"3-3\",\"4524\",\"39\",\"1\",\"Training\",\"Stims/Figures/139-C-20-2.bmp\",\"pa:kaka\",\"Right\",\"39\",\"6\",\"16\",\"5\",\"P\",\"J\",\"96\"
\"\",\"\",\"approach-retreat\",\"100\",\"835193\",\"0.0-100.0\",\"\",\"\",\"3-3\",\"4793\",\"39\",\"1\",\"Training\",\"Stims/Figures/27-C-30-1.bmp\",\"ta:paka\",\"Right\",\"39\",\"7\",\"1\",\"5\",\"P\",\"J\",\"97\"
\"\",\"\",\"approach-retreat\",\"101\",\"842072\",\"0.0-101.0\",\"\",\"\",\"3-3\",\"5364\",\"37\",\"1\",\"Training\",\"Stims/Figures/139-C-20-2.bmp\",\"pa:kaka\",\"Left\",\"37\",\"7\",\"2\",\"5\",\"P\",\"J\",\"98\"
\"\",\"\",\"approach-retreat\",\"102\",\"848772\",\"0.0-102.0\",\"\",\"\",\"3-3\",\"5183\",\"38\",\"1\",\"Training\",\"Stims/Figures/111-C-30-3.bmp\",\"ta:ka:ka\",\"Up\",\"38\",\"7\",\"3\",\"5\",\"P\",\"J\",\"99\"
\"\",\"\",\"approach-retreat\",\"103\",\"854666\",\"0.0-103.0\",\"\",\"\",\"3-3\",\"4376\",\"39\",\"1\",\"Training\",\"Stims/Figures/74-C-20-4.bmp\",\"tapata\",\"Right\",\"39\",\"7\",\"4\",\"5\",\"P\",\"J\",\"100\"
\"\",\"\",\"approach-retreat\",\"104\",\"860661\",\"0.0-104.0\",\"\",\"\",\"3-3\",\"4479\",\"40\",\"1\",\"Training\",\"Stims/Figures/139-J-0-2.bmp\",\"mala:na\",\"Up\",\"40\",\"7\",\"5\",\"5\",\"S\",\"J\",\"101\"
\"\",\"\",\"approach-retreat\",\"105\",\"867078\",\"0.0-105.0\",\"\",\"\",\"3-3\",\"4895\",\"38\",\"1\",\"Training\",\"Stims/Figures/44-C-30-3.bmp\",\"pa:pata\",\"Up\",\"38\",\"7\",\"6\",\"5\",\"P\",\"J\",\"102\"
\"\",\"\",\"approach-retreat\",\"106\",\"873094\",\"0.0-106.0\",\"\",\"\",\"3-3\",\"4500\",\"37\",\"1\",\"Training\",\"Stims/Figures/86-C-30-1.bmp\",\"paka:ka\",\"Left\",\"37\",\"7\",\"7\",\"5\",\"P\",\"J\",\"103\"
\"\",\"\",\"approach-retreat\",\"107\",\"879005\",\"0.0-107.0\",\"\",\"\",\"3-3\",\"4389\",\"40\",\"1\",\"Training\",\"Stims/Figures/94-C-20-2.bmp\",\"pa:ka:ta\",\"Down\",\"40\",\"7\",\"8\",\"5\",\"P\",\"J\",\"104\"
\"\",\"\",\"approach-retreat\",\"108\",\"885240\",\"0.0-108.0\",\"\",\"\",\"3-3\",\"4719\",\"40\",\"1\",\"Training\",\"Stims/Figures/94-J-0-2.bmp\",\"na:lala\",\"Up\",\"40\",\"7\",\"9\",\"5\",\"S\",\"J\",\"105\"
\"\",\"\",\"approach-retreat\",\"109\",\"891548\",\"0.0-109.0\",\"\",\"\",\"3-3\",\"4786\",\"38\",\"1\",\"Training\",\"Stims/Figures/87-J-10-4.bmp\",\"ma:la:na\",\"Down\",\"38\",\"7\",\"10\",\"5\",\"S\",\"J\",\"106\"
\"\",\"\",\"approach-retreat\",\"110\",\"898004\",\"0.0-110.0\",\"\",\"\",\"3-3\",\"4941\",\"39\",\"1\",\"Training\",\"Stims/Figures/44-J-10-3.bmp\",\"mamala\",\"Left\",\"39\",\"7\",\"11\",\"5\",\"S\",\"J\",\"107\"
\"\",\"\",\"approach-retreat\",\"111\",\"903971\",\"0.0-111.0\",\"\",\"\",\"3-3\",\"4449\",\"38\",\"1\",\"Training\",\"Stims/Figures/111-J-10-3.bmp\",\"nalala\",\"Down\",\"38\",\"7\",\"12\",\"5\",\"S\",\"J\",\"108\"
\"\",\"\",\"approach-retreat\",\"112\",\"910205\",\"0.0-112.0\",\"\",\"\",\"3-3\",\"4713\",\"37\",\"1\",\"Training\",\"Stims/Figures/74-J-10-4.bmp\",\"na:lana\",\"Right\",\"37\",\"7\",\"13\",\"5\",\"S\",\"J\",\"109\"
\"\",\"\",\"approach-retreat\",\"113\",\"916257\",\"0.0-113.0\",\"\",\"\",\"3-3\",\"4529\",\"38\",\"1\",\"Training\",\"Stims/Figures/27-J-0-1.bmp\",\"ma:ma:na\",\"Down\",\"38\",\"7\",\"14\",\"5\",\"S\",\"J\",\"110\"
\"\",\"\",\"approach-retreat\",\"114\",\"922066\",\"0.0-114.0\",\"\",\"\",\"3-3\",\"4294\",\"37\",\"1\",\"Training\",\"Stims/Figures/86-J-0-1.bmp\",\"na:la:la\",\"Right\",\"37\",\"7\",\"15\",\"5\",\"S\",\"J\",\"111\"
\"\",\"\",\"approach-retreat\",\"115\",\"928542\",\"0.0-115.0\",\"\",\"\",\"3-3\",\"4955\",\"37\",\"1\",\"Training\",\"Stims/Figures/87-C-20-4.bmp\",\"ta:pa:ta\",\"Left\",\"37\",\"7\",\"16\",\"5\",\"P\",\"J\",\"112\"
\"\",\"\",\"approach-retreat\",\"116\",\"934502\",\"0.0-116.0\",\"\",\"\",\"3-3\",\"4437\",\"39\",\"1\",\"Training\",\"Stims/Figures/44-C-30-3.bmp\",\"pa:pata\",\"Right\",\"39\",\"8\",\"1\",\"5\",\"P\",\"J\",\"113\"
\"\",\"\",\"approach-retreat\",\"117\",\"940772\",\"0.0-117.0\",\"\",\"\",\"3-3\",\"4747\",\"38\",\"1\",\"Training\",\"Stims/Figures/87-C-20-4.bmp\",\"ta:pa:ta\",\"Up\",\"38\",\"8\",\"2\",\"5\",\"P\",\"J\",\"114\"
\"\",\"\",\"approach-retreat\",\"118\",\"946847\",\"0.0-118.0\",\"\",\"\",\"3-3\",\"4552\",\"40\",\"1\",\"Training\",\"Stims/Figures/74-C-20-4.bmp\",\"tapata\",\"Down\",\"40\",\"8\",\"3\",\"5\",\"P\",\"J\",\"115\"
\"\",\"\",\"approach-retreat\",\"119\",\"952891\",\"0.0-119.0\",\"\",\"\",\"3-3\",\"4529\",\"37\",\"1\",\"Training\",\"Stims/Figures/44-J-10-3.bmp\",\"mamala\",\"Right\",\"37\",\"8\",\"4\",\"5\",\"S\",\"J\",\"116\"
\"\",\"\",\"approach-retreat\",\"120\",\"959479\",\"0.0-120.0\",\"\",\"\",\"3-3\",\"5067\",\"40\",\"1\",\"Training\",\"Stims/Figures/27-J-0-1.bmp\",\"ma:ma:na\",\"Up\",\"40\",\"8\",\"5\",\"5\",\"S\",\"J\",\"117\"
\"\",\"\",\"approach-retreat\",\"121\",\"965706\",\"0.0-121.0\",\"\",\"\",\"3-3\",\"4710\",\"40\",\"1\",\"Training\",\"Stims/Figures/94-J-0-2.bmp\",\"na:lala\",\"Up\",\"40\",\"8\",\"6\",\"5\",\"S\",\"J\",\"118\"
\"\",\"\",\"approach-retreat\",\"122\",\"971722\",\"0.0-122.0\",\"\",\"\",\"3-3\",\"4498\",\"39\",\"1\",\"Training\",\"Stims/Figures/86-J-0-1.bmp\",\"na:la:la\",\"Left\",\"39\",\"8\",\"7\",\"5\",\"S\",\"J\",\"119\"
\"\",\"\",\"approach-retreat\",\"123\",\"978156\",\"0.0-123.0\",\"\",\"\",\"3-3\",\"4917\",\"40\",\"1\",\"Training\",\"Stims/Figures/87-J-10-4.bmp\",\"ma:la:na\",\"Up\",\"40\",\"8\",\"8\",\"5\",\"S\",\"J\",\"120\"
\"\",\"\",\"approach-retreat\",\"124\",\"984252\",\"0.0-124.0\",\"\",\"\",\"3-3\",\"4580\",\"39\",\"1\",\"Training\",\"Stims/Figures/111-C-30-3.bmp\",\"ta:ka:ka\",\"Right\",\"39\",\"8\",\"9\",\"5\",\"P\",\"J\",\"121\"
\"\",\"\",\"approach-retreat\",\"125\",\"990152\",\"0.0-125.0\",\"\",\"\",\"3-3\",\"4382\",\"37\",\"1\",\"Training\",\"Stims/Figures/139-C-20-2.bmp\",\"pa:kaka\",\"Left\",\"37\",\"8\",\"10\",\"5\",\"P\",\"J\",\"122\"
\"\",\"\",\"approach-retreat\",\"126\",\"996208\",\"0.0-126.0\",\"\",\"\",\"3-3\",\"4539\",\"38\",\"1\",\"Training\",\"Stims/Figures/74-J-10-4.bmp\",\"na:lana\",\"Down\",\"38\",\"8\",\"11\",\"5\",\"S\",\"J\",\"123\"
\"\",\"\",\"approach-retreat\",\"127\",\"1002365\",\"0.0-127.0\",\"\",\"\",\"3-3\",\"4640\",\"38\",\"1\",\"Training\",\"Stims/Figures/139-J-0-2.bmp\",\"mala:na\",\"Down\",\"38\",\"8\",\"12\",\"5\",\"S\",\"J\",\"124\"
\"\",\"\",\"approach-retreat\",\"128\",\"1009657\",\"0.0-128.0\",\"\",\"\",\"3-3\",\"5766\",\"39\",\"1\",\"Training\",\"Stims/Figures/27-C-30-1.bmp\",\"ta:paka\",\"Right\",\"39\",\"8\",\"13\",\"5\",\"P\",\"J\",\"125\"
\"\",\"\",\"approach-retreat\",\"129\",\"1015747\",\"0.0-129.0\",\"\",\"\",\"3-3\",\"4577\",\"37\",\"1\",\"Training\",\"Stims/Figures/86-C-30-1.bmp\",\"paka:ka\",\"Left\",\"37\",\"8\",\"14\",\"5\",\"P\",\"J\",\"126\"
\"\",\"\",\"approach-retreat\",\"130\",\"1021690\",\"0.0-130.0\",\"\",\"\",\"3-3\",\"4427\",\"38\",\"1\",\"Training\",\"Stims/Figures/111-J-10-3.bmp\",\"nalala\",\"Down\",\"38\",\"8\",\"15\",\"5\",\"S\",\"J\",\"127\"
\"\",\"\",\"approach-retreat\",\"131\",\"1028216\",\"0.0-131.0\",\"\",\"\",\"3-3\",\"5004\",\"37\",\"1\",\"Training\",\"Stims/Figures/94-C-20-2.bmp\",\"pa:ka:ta\",\"Left\",\"37\",\"8\",\"16\",\"5\",\"P\",\"J\",\"128\"
\"\",\"\",\"approach-retreat\",\"132\",\"1033946\",\"0.0-132.0\",\"\",\"\",\"3-3\",\"4210\",\"37\",\"1\",\"Training\",\"Stims/Figures/111-C-30-3.bmp\",\"ta:ka:ka\",\"Left\",\"37\",\"9\",\"1\",\"5\",\"P\",\"J\",\"129\"
\"\",\"\",\"approach-retreat\",\"133\",\"1039779\",\"0.0-133.0\",\"\",\"\",\"3-3\",\"4319\",\"38\",\"1\",\"Training\",\"Stims/Figures/111-J-10-3.bmp\",\"nalala\",\"Down\",\"38\",\"9\",\"2\",\"5\",\"S\",\"J\",\"130\"
\"\",\"\",\"approach-retreat\",\"134\",\"1045913\",\"0.0-134.0\",\"\",\"\",\"3-3\",\"4603\",\"39\",\"1\",\"Training\",\"Stims/Figures/44-C-30-3.bmp\",\"pa:pata\",\"Right\",\"39\",\"9\",\"3\",\"5\",\"P\",\"J\",\"131\"
\"\",\"\",\"approach-retreat\",\"135\",\"1052084\",\"0.0-135.0\",\"\",\"\",\"3-3\",\"4656\",\"38\",\"1\",\"Training\",\"Stims/Figures/86-C-30-1.bmp\",\"paka:ka\",\"Up\",\"38\",\"9\",\"4\",\"5\",\"P\",\"J\",\"132\"
\"\",\"\",\"approach-retreat\",\"136\",\"1058101\",\"0.0-136.0\",\"\",\"\",\"3-3\",\"4493\",\"40\",\"1\",\"Training\",\"Stims/Figures/44-J-10-3.bmp\",\"mamala\",\"Up\",\"40\",\"9\",\"5\",\"5\",\"S\",\"J\",\"133\"
\"\",\"\",\"approach-retreat\",\"137\",\"1064848\",\"0.0-137.0\",\"\",\"\",\"3-3\",\"5229\",\"39\",\"1\",\"Training\",\"Stims/Figures/27-J-0-1.bmp\",\"ma:ma:na\",\"Left\",\"39\",\"9\",\"6\",\"5\",\"S\",\"J\",\"134\"
\"\",\"\",\"approach-retreat\",\"138\",\"1071627\",\"0.0-138.0\",\"\",\"\",\"3-3\",\"5261\",\"39\",\"1\",\"Training\",\"Stims/Figures/74-J-10-4.bmp\",\"na:lana\",\"Left\",\"39\",\"9\",\"7\",\"5\",\"S\",\"J\",\"135\"
\"\",\"\",\"approach-retreat\",\"139\",\"1078646\",\"0.0-139.0\",\"\",\"\",\"3-3\",\"5504\",\"38\",\"1\",\"Training\",\"Stims/Figures/87-C-20-4.bmp\",\"ta:pa:ta\",\"Up\",\"38\",\"9\",\"8\",\"5\",\"P\",\"J\",\"136\"
\"\",\"\",\"approach-retreat\",\"140\",\"1084592\",\"0.0-140.0\",\"\",\"\",\"3-3\",\"4431\",\"39\",\"1\",\"Training\",\"Stims/Figures/94-C-20-2.bmp\",\"pa:ka:ta\",\"Right\",\"39\",\"9\",\"9\",\"5\",\"P\",\"J\",\"137\"
\"\",\"\",\"approach-retreat\",\"141\",\"1090884\",\"0.0-141.0\",\"\",\"\",\"3-3\",\"4774\",\"39\",\"1\",\"Training\",\"Stims/Figures/27-C-30-1.bmp\",\"ta:paka\",\"Right\",\"39\",\"9\",\"10\",\"5\",\"P\",\"J\",\"138\"
\"\",\"\",\"approach-retreat\",\"142\",\"1097003\",\"0.0-142.0\",\"\",\"\",\"3-3\",\"4601\",\"38\",\"1\",\"Training\",\"Stims/Figures/87-J-10-4.bmp\",\"ma:la:na\",\"Down\",\"38\",\"9\",\"11\",\"5\",\"S\",\"J\",\"139\"
\"\",\"\",\"approach-retreat\",\"143\",\"1102992\",\"0.0-143.0\",\"\",\"\",\"3-3\",\"4460\",\"39\",\"1\",\"Training\",\"Stims/Figures/139-J-0-2.bmp\",\"mala:na\",\"Left\",\"39\",\"9\",\"12\",\"5\",\"S\",\"J\",\"140\"
\"\",\"\",\"approach-retreat\",\"144\",\"1108834\",\"0.0-144.0\",\"\",\"\",\"3-3\",\"4326\",\"40\",\"1\",\"Training\",\"Stims/Figures/74-C-20-4.bmp\",\"tapata\",\"Down\",\"40\",\"9\",\"13\",\"5\",\"P\",\"J\",\"141\"
\"\",\"\",\"approach-retreat\",\"145\",\"1115288\",\"0.0-145.0\",\"\",\"\",\"3-3\",\"4938\",\"40\",\"1\",\"Training\",\"Stims/Figures/86-J-0-1.bmp\",\"na:la:la\",\"Up\",\"40\",\"9\",\"14\",\"5\",\"S\",\"J\",\"142\"
\"\",\"\",\"approach-retreat\",\"146\",\"1122985\",\"0.0-146.0\",\"\",\"\",\"3-3\",\"6180\",\"39\",\"1\",\"Training\",\"Stims/Figures/139-C-20-2.bmp\",\"pa:kaka\",\"Right\",\"39\",\"9\",\"15\",\"5\",\"P\",\"J\",\"143\"
\"\",\"\",\"approach-retreat\",\"147\",\"1128893\",\"0.0-147.0\",\"\",\"\",\"3-3\",\"4389\",\"38\",\"1\",\"Training\",\"Stims/Figures/94-J-0-2.bmp\",\"na:lala\",\"Down\",\"38\",\"9\",\"16\",\"5\",\"S\",\"J\",\"144\"
\"13191\",\"\",\"instructions\",\"148\",\"1142085\",\"0.0-148.0\",\"[{\"\"page_index\"\":0,\"\"viewing_time\"\":13188}]\",\"\",\"\",\"\",\"\",\"\",\"\",\"\",\"\",\"\",\"\",\"\",\"\",\"\",\"\",\"\",\"\"
\"\",\"\",\"approach-retreat\",\"149\",\"1150228\",\"0.0-149.0\",\"\",\"\",\"3-3\",\"6609\",\"39\",\"1\",\"Testing\",\"Stims/Figures/144-C-30-3.bmp\",\"pa:kata\",\"Right\",\"39\",\"1\",\"1\",\"5\",\"P\",\"J\",\"1\"
\"\",\"\",\"approach-retreat\",\"150\",\"1156433\",\"0.0-150.0\",\"\",\"\",\"3-3\",\"4672\",\"39\",\"0\",\"Testing\",\"Stims/Figures/27-J-0-1.bmp\",\"ma:ma:na\",\"Right\",\"37\",\"1\",\"2\",\"5\",\"S\",\"J\",\"2\"
\"\",\"\",\"approach-retreat\",\"151\",\"1162993\",\"0.0-151.0\",\"\",\"\",\"3-3\",\"5025\",\"38\",\"1\",\"Testing\",\"Stims/Figures/139-C-20-2.bmp\",\"pa:kaka\",\"Up\",\"38\",\"1\",\"3\",\"5\",\"P\",\"J\",\"3\"
\"\",\"\",\"approach-retreat\",\"152\",\"1169183\",\"0.0-152.0\",\"\",\"\",\"3-3\",\"4659\",\"40\",\"0\",\"Testing\",\"Stims/Figures/139-J-0-2.bmp\",\"mala:na\",\"Down\",\"38\",\"1\",\"4\",\"5\",\"S\",\"J\",\"4\"
\"\",\"\",\"approach-retreat\",\"153\",\"1175260\",\"0.0-153.0\",\"\",\"\",\"3-3\",\"4546\",\"39\",\"1\",\"Testing\",\"Stims/Figures/102-J-10-4.bmp\",\"na:la:na\",\"Left\",\"39\",\"1\",\"5\",\"5\",\"S\",\"J\",\"5\"
\"\",\"\",\"approach-retreat\",\"154\",\"1181316\",\"0.0-154.0\",\"\",\"\",\"3-3\",\"4524\",\"37\",\"1\",\"Testing\",\"Stims/Figures/93-C-30-1.bmp\",\"ta:kaka\",\"Left\",\"37\",\"1\",\"6\",\"5\",\"P\",\"J\",\"6\"
\"\",\"\",\"approach-retreat\",\"155\",\"1187482\",\"0.0-155.0\",\"\",\"\",\"3-3\",\"4630\",\"38\",\"0\",\"Testing\",\"Stims/Figures/111-J-10-3.bmp\",\"nalala\",\"Up\",\"40\",\"1\",\"7\",\"5\",\"S\",\"J\",\"7\"
\"\",\"\",\"approach-retreat\",\"156\",\"1194232\",\"0.0-156.0\",\"\",\"\",\"3-3\",\"5216\",\"38\",\"0\",\"Testing\",\"Stims/Figures/74-J-10-4.bmp\",\"na:lana\",\"Up\",\"40\",\"1\",\"8\",\"5\",\"S\",\"J\",\"8\"
\"\",\"\",\"approach-retreat\",\"157\",\"1200342\",\"0.0-157.0\",\"\",\"\",\"3-3\",\"4578\",\"38\",\"1\",\"Testing\",\"Stims/Figures/144-J-10-3.bmp\",\"nama:la\",\"Down\",\"38\",\"1\",\"9\",\"5\",\"S\",\"J\",\"9\"
\"\",\"\",\"approach-retreat\",\"158\",\"1206382\",\"0.0-158.0\",\"\",\"\",\"3-3\",\"4504\",\"37\",\"0\",\"Testing\",\"Stims/Figures/44-J-10-3.bmp\",\"mamala\",\"Left\",\"39\",\"1\",\"10\",\"5\",\"S\",\"J\",\"10\"
\"\",\"\",\"approach-retreat\",\"159\",\"1212677\",\"0.0-159.0\",\"\",\"\",\"3-3\",\"4762\",\"38\",\"0\",\"Testing\",\"Stims/Figures/85-J-0-2.bmp\",\"namala\",\"Up\",\"40\",\"1\",\"11\",\"5\",\"S\",\"J\",\"11\"
\"\",\"\",\"approach-retreat\",\"160\",\"1218646\",\"0.0-160.0\",\"\",\"\",\"3-3\",\"4435\",\"40\",\"1\",\"Testing\",\"Stims/Figures/44-C-30-3.bmp\",\"pa:pata\",\"Down\",\"40\",\"1\",\"12\",\"5\",\"P\",\"J\",\"12\"
\"\",\"\",\"approach-retreat\",\"161\",\"1224714\",\"0.0-161.0\",\"\",\"\",\"3-3\",\"4537\",\"37\",\"0\",\"Testing\",\"Stims/Figures/87-C-20-4.bmp\",\"ta:pa:ta\",\"Right\",\"39\",\"1\",\"13\",\"5\",\"P\",\"J\",\"13\"
\"\",\"\",\"approach-retreat\",\"162\",\"1230831\",\"0.0-162.0\",\"\",\"\",\"3-3\",\"4587\",\"39\",\"1\",\"Testing\",\"Stims/Figures/74-C-20-4.bmp\",\"tapata\",\"Right\",\"39\",\"1\",\"14\",\"5\",\"P\",\"J\",\"14\"
\"\",\"\",\"approach-retreat\",\"163\",\"1237238\",\"0.0-163.0\",\"\",\"\",\"3-3\",\"4874\",\"40\",\"1\",\"Testing\",\"Stims/Figures/111-C-30-3.bmp\",\"ta:ka:ka\",\"Down\",\"40\",\"1\",\"15\",\"5\",\"P\",\"J\",\"15\"
\"\",\"\",\"approach-retreat\",\"164\",\"1243229\",\"0.0-164.0\",\"\",\"\",\"3-3\",\"4456\",\"37\",\"0\",\"Testing\",\"Stims/Figures/93-J-0-1.bmp\",\"ma:lana\",\"Left\",\"39\",\"1\",\"16\",\"5\",\"S\",\"J\",\"16\"
\"\",\"\",\"approach-retreat\",\"165\",\"1249339\",\"0.0-165.0\",\"\",\"\",\"3-3\",\"4577\",\"38\",\"0\",\"Testing\",\"Stims/Figures/86-J-0-1.bmp\",\"na:la:la\",\"Up\",\"40\",\"1\",\"17\",\"5\",\"S\",\"J\",\"17\"
\"\",\"\",\"approach-retreat\",\"166\",\"1255593\",\"0.0-166.0\",\"\",\"\",\"3-3\",\"4719\",\"39\",\"1\",\"Testing\",\"Stims/Figures/85-C-20-2.bmp\",\"ta:kata\",\"Right\",\"39\",\"1\",\"18\",\"5\",\"P\",\"J\",\"18\"
\"\",\"\",\"approach-retreat\",\"167\",\"1261830\",\"0.0-167.0\",\"\",\"\",\"3-3\",\"4688\",\"39\",\"0\",\"Testing\",\"Stims/Figures/27-C-30-1.bmp\",\"ta:paka\",\"Left\",\"37\",\"1\",\"19\",\"5\",\"P\",\"J\",\"19\"
\"\",\"\",\"approach-retreat\",\"168\",\"1268033\",\"0.0-168.0\",\"\",\"\",\"3-3\",\"4669\",\"37\",\"1\",\"Testing\",\"Stims/Figures/94-J-0-2.bmp\",\"na:lala\",\"Right\",\"37\",\"1\",\"20\",\"5\",\"S\",\"J\",\"20\"
\"\",\"\",\"approach-retreat\",\"169\",\"1274856\",\"0.0-169.0\",\"\",\"\",\"3-3\",\"5288\",\"40\",\"0\",\"Testing\",\"Stims/Figures/86-C-30-1.bmp\",\"paka:ka\",\"Up\",\"38\",\"1\",\"21\",\"5\",\"P\",\"J\",\"21\"
\"\",\"\",\"approach-retreat\",\"170\",\"1281061\",\"0.0-170.0\",\"\",\"\",\"3-3\",\"4672\",\"37\",\"0\",\"Testing\",\"Stims/Figures/87-J-10-4.bmp\",\"ma:la:na\",\"Left\",\"39\",\"1\",\"22\",\"5\",\"S\",\"J\",\"22\"
\"\",\"\",\"approach-retreat\",\"171\",\"1288721\",\"0.0-171.0\",\"\",\"\",\"3-3\",\"6127\",\"40\",\"1\",\"Testing\",\"Stims/Figures/102-C-20-4.bmp\",\"papa:ta\",\"Down\",\"40\",\"1\",\"23\",\"5\",\"P\",\"J\",\"23\"
\"\",\"\",\"approach-retreat\",\"172\",\"1294806\",\"0.0-172.0\",\"\",\"\",\"3-3\",\"4554\",\"38\",\"0\",\"Testing\",\"Stims/Figures/94-C-20-2.bmp\",\"pa:ka:ta\",\"Down\",\"40\",\"1\",\"24\",\"5\",\"P\",\"J\",\"24\"
\"\",\"\",\"approach-retreat\",\"173\",\"1300857\",\"0.0-173.0\",\"\",\"\",\"3-3\",\"4506\",\"39\",\"0\",\"Testing\",\"Stims/Figures/139-J-0-2.bmp\",\"mala:na\",\"Right\",\"37\",\"2\",\"1\",\"5\",\"S\",\"J\",\"25\"
\"\",\"\",\"approach-retreat\",\"174\",\"1306813\",\"0.0-174.0\",\"\",\"\",\"3-3\",\"4424\",\"37\",\"1\",\"Testing\",\"Stims/Figures/93-C-30-1.bmp\",\"ta:kaka\",\"Left\",\"37\",\"2\",\"2\",\"5\",\"P\",\"J\",\"26\"
\"\",\"\",\"approach-retreat\",\"175\",\"1313983\",\"0.0-175.0\",\"\",\"\",\"3-3\",\"5638\",\"40\",\"0\",\"Testing\",\"Stims/Figures/87-C-20-4.bmp\",\"ta:pa:ta\",\"Up\",\"38\",\"2\",\"3\",\"5\",\"P\",\"J\",\"27\"
\"\",\"\",\"approach-retreat\",\"176\",\"1320003\",\"0.0-176.0\",\"\",\"\",\"3-3\",\"4488\",\"38\",\"0\",\"Testing\",\"Stims/Figures/27-C-30-1.bmp\",\"ta:paka\",\"Down\",\"40\",\"2\",\"4\",\"5\",\"P\",\"J\",\"28\"
\"\",\"\",\"approach-retreat\",\"177\",\"1326135\",\"0.0-177.0\",\"\",\"\",\"3-3\",\"4600\",\"38\",\"1\",\"Testing\",\"Stims/Figures/85-C-20-2.bmp\",\"ta:kata\",\"Up\",\"38\",\"2\",\"5\",\"5\",\"P\",\"J\",\"29\"
\"\",\"\",\"approach-retreat\",\"178\",\"1332240\",\"0.0-178.0\",\"\",\"\",\"3-3\",\"4568\",\"37\",\"0\",\"Testing\",\"Stims/Figures/144-J-10-3.bmp\",\"nama:la\",\"Left\",\"39\",\"2\",\"6\",\"5\",\"S\",\"J\",\"30\"
\"\",\"\",\"approach-retreat\",\"179\",\"1339837\",\"0.0-179.0\",\"\",\"\",\"3-3\",\"6064\",\"38\",\"0\",\"Testing\",\"Stims/Figures/85-J-0-2.bmp\",\"namala\",\"Up\",\"40\",\"2\",\"7\",\"5\",\"S\",\"J\",\"31\"
\"\",\"\",\"approach-retreat\",\"180\",\"1346273\",\"0.0-180.0\",\"\",\"\",\"3-3\",\"4899\",\"38\",\"0\",\"Testing\",\"Stims/Figures/86-C-30-1.bmp\",\"paka:ka\",\"Down\",\"40\",\"2\",\"8\",\"5\",\"P\",\"J\",\"32\"
\"\",\"\",\"approach-retreat\",\"181\",\"1352298\",\"0.0-181.0\",\"\",\"\",\"3-3\",\"4492\",\"39\",\"1\",\"Testing\",\"Stims/Figures/27-J-0-1.bmp\",\"ma:ma:na\",\"Left\",\"39\",\"2\",\"9\",\"5\",\"S\",\"J\",\"33\"
\"\",\"\",\"approach-retreat\",\"182\",\"1358375\",\"0.0-182.0\",\"\",\"\",\"3-3\",\"4541\",\"40\",\"0\",\"Testing\",\"Stims/Figures/139-C-20-2.bmp\",\"pa:kaka\",\"Up\",\"38\",\"2\",\"10\",\"5\",\"P\",\"J\",\"34\"
\"\",\"\",\"approach-retreat\",\"183\",\"1364336\",\"0.0-183.0\",\"\",\"\",\"3-3\",\"4429\",\"39\",\"1\",\"Testing\",\"Stims/Figures/102-C-20-4.bmp\",\"papa:ta\",\"Right\",\"39\",\"2\",\"11\",\"5\",\"P\",\"J\",\"35\"
\"\",\"\",\"approach-retreat\",\"184\",\"1371145\",\"0.0-184.0\",\"\",\"\",\"3-3\",\"5278\",\"40\",\"1\",\"Testing\",\"Stims/Figures/44-C-30-3.bmp\",\"pa:pata\",\"Down\",\"40\",\"2\",\"12\",\"5\",\"P\",\"J\",\"36\"
\"\",\"\",\"approach-retreat\",\"185\",\"1377361\",\"0.0-185.0\",\"\",\"\",\"3-3\",\"4704\",\"39\",\"1\",\"Testing\",\"Stims/Figures/144-C-30-3.bmp\",\"pa:kata\",\"Right\",\"39\",\"2\",\"13\",\"5\",\"P\",\"J\",\"37\"
\"\",\"\",\"approach-retreat\",\"186\",\"1383308\",\"0.0-186.0\",\"\",\"\",\"3-3\",\"4414\",\"37\",\"1\",\"Testing\",\"Stims/Figures/87-J-10-4.bmp\",\"ma:la:na\",\"Right\",\"37\",\"2\",\"14\",\"5\",\"S\",\"J\",\"38\"
\"\",\"\",\"approach-retreat\",\"187\",\"1389366\",\"0.0-187.0\",\"\",\"\",\"3-3\",\"4525\",\"37\",\"1\",\"Testing\",\"Stims/Figures/94-J-0-2.bmp\",\"na:lala\",\"Right\",\"37\",\"2\",\"15\",\"5\",\"S\",\"J\",\"39\"
\"\",\"\",\"approach-retreat\",\"188\",\"1395334\",\"0.0-188.0\",\"\",\"\",\"3-3\",\"4434\",\"39\",\"1\",\"Testing\",\"Stims/Figures/86-J-0-1.bmp\",\"na:la:la\",\"Left\",\"39\",\"2\",\"16\",\"5\",\"S\",\"J\",\"40\"
\"\",\"\",\"approach-retreat\",\"189\",\"1401512\",\"0.0-189.0\",\"\",\"\",\"3-3\",\"4643\",\"39\",\"0\",\"Testing\",\"Stims/Figures/94-C-20-2.bmp\",\"pa:ka:ta\",\"Left\",\"37\",\"2\",\"17\",\"5\",\"P\",\"J\",\"41\"
\"\",\"\",\"approach-retreat\",\"190\",\"1407664\",\"0.0-190.0\",\"\",\"\",\"3-3\",\"4621\",\"39\",\"0\",\"Testing\",\"Stims/Figures/44-J-10-3.bmp\",\"mamala\",\"Right\",\"37\",\"2\",\"18\",\"5\",\"S\",\"J\",\"42\"
\"\",\"\",\"approach-retreat\",\"191\",\"1413901\",\"0.0-191.0\",\"\",\"\",\"3-3\",\"4707\",\"38\",\"0\",\"Testing\",\"Stims/Figures/74-J-10-4.bmp\",\"na:lana\",\"Up\",\"40\",\"2\",\"19\",\"5\",\"S\",\"J\",\"43\"
\"\",\"\",\"approach-retreat\",\"192\",\"1420274\",\"0.0-192.0\",\"\",\"\",\"3-3\",\"4844\",\"40\",\"1\",\"Testing\",\"Stims/Figures/74-C-20-4.bmp\",\"tapata\",\"Down\",\"40\",\"2\",\"20\",\"5\",\"P\",\"J\",\"44\"
\"\",\"\",\"approach-retreat\",\"193\",\"1426467\",\"0.0-193.0\",\"\",\"\",\"3-3\",\"4659\",\"37\",\"0\",\"Testing\",\"Stims/Figures/102-J-10-4.bmp\",\"na:la:na\",\"Left\",\"39\",\"2\",\"21\",\"5\",\"S\",\"J\",\"45\"
\"\",\"\",\"approach-retreat\",\"194\",\"1432523\",\"0.0-194.0\",\"\",\"\",\"3-3\",\"4523\",\"38\",\"1\",\"Testing\",\"Stims/Figures/111-C-30-3.bmp\",\"ta:ka:ka\",\"Up\",\"38\",\"2\",\"22\",\"5\",\"P\",\"J\",\"46\"
\"\",\"\",\"approach-retreat\",\"195\",\"1438712\",\"0.0-195.0\",\"\",\"\",\"3-3\",\"4658\",\"40\",\"0\",\"Testing\",\"Stims/Figures/111-J-10-3.bmp\",\"nalala\",\"Down\",\"38\",\"2\",\"23\",\"5\",\"S\",\"J\",\"47\"
\"\",\"\",\"approach-retreat\",\"196\",\"1444796\",\"0.0-196.0\",\"\",\"\",\"3-3\",\"4553\",\"40\",\"0\",\"Testing\",\"Stims/Figures/93-J-0-1.bmp\",\"ma:lana\",\"Down\",\"38\",\"2\",\"24\",\"5\",\"S\",\"J\",\"48\"
\"\",\"\",\"approach-retreat\",\"197\",\"1451596\",\"0.0-197.0\",\"\",\"\",\"3-3\",\"5267\",\"39\",\"0\",\"Testing\",\"Stims/Figures/102-J-10-4.bmp\",\"na:la:na\",\"Right\",\"37\",\"3\",\"1\",\"5\",\"S\",\"J\",\"49\"
\"\",\"\",\"approach-retreat\",\"198\",\"1458382\",\"0.0-198.0\",\"\",\"\",\"3-3\",\"5254\",\"38\",\"0\",\"Testing\",\"Stims/Figures/94-C-20-2.bmp\",\"pa:ka:ta\",\"Down\",\"40\",\"3\",\"2\",\"5\",\"P\",\"J\",\"50\"
\"\",\"\",\"approach-retreat\",\"199\",\"1464604\",\"0.0-199.0\",\"\",\"\",\"3-3\",\"4690\",\"38\",\"0\",\"Testing\",\"Stims/Figures/86-J-0-1.bmp\",\"na:la:la\",\"Up\",\"40\",\"3\",\"3\",\"5\",\"S\",\"J\",\"51\"
\"\",\"\",\"approach-retreat\",\"200\",\"1470907\",\"0.0-200.0\",\"\",\"\",\"3-3\",\"4767\",\"38\",\"1\",\"Testing\",\"Stims/Figures/111-C-30-3.bmp\",\"ta:ka:ka\",\"Up\",\"38\",\"3\",\"4\",\"5\",\"P\",\"J\",\"52\"
\"\",\"\",\"approach-retreat\",\"201\",\"1477326\",\"0.0-201.0\",\"\",\"\",\"3-3\",\"4908\",\"40\",\"1\",\"Testing\",\"Stims/Figures/139-C-20-2.bmp\",\"pa:kaka\",\"Down\",\"40\",\"3\",\"5\",\"5\",\"P\",\"J\",\"53\"
\"\",\"\",\"approach-retreat\",\"202\",\"1483401\",\"0.0-202.0\",\"\",\"\",\"3-3\",\"4545\",\"37\",\"0\",\"Testing\",\"Stims/Figures/93-J-0-1.bmp\",\"ma:lana\",\"Left\",\"39\",\"3\",\"6\",\"5\",\"S\",\"J\",\"54\"
\"\",\"\",\"approach-retreat\",\"203\",\"1489537\",\"0.0-203.0\",\"\",\"\",\"3-3\",\"4598\",\"38\",\"0\",\"Testing\",\"Stims/Figures/74-J-10-4.bmp\",\"na:lana\",\"Up\",\"40\",\"3\",\"7\",\"5\",\"S\",\"J\",\"55\"
\"\",\"\",\"approach-retreat\",\"204\",\"1495541\",\"0.0-204.0\",\"\",\"\",\"3-3\",\"4470\",\"39\",\"1\",\"Testing\",\"Stims/Figures/44-C-30-3.bmp\",\"pa:pata\",\"Right\",\"39\",\"3\",\"8\",\"5\",\"P\",\"J\",\"56\"
\"\",\"\",\"approach-retreat\",\"205\",\"1501722\",\"0.0-205.0\",\"\",\"\",\"3-3\",\"4648\",\"37\",\"1\",\"Testing\",\"Stims/Figures/102-C-20-4.bmp\",\"papa:ta\",\"Left\",\"37\",\"3\",\"9\",\"5\",\"P\",\"J\",\"57\"
\"\",\"\",\"approach-retreat\",\"206\",\"1509583\",\"0.0-206.0\",\"\",\"\",\"3-3\",\"6326\",\"37\",\"1\",\"Testing\",\"Stims/Figures/86-C-30-1.bmp\",\"paka:ka\",\"Left\",\"37\",\"3\",\"10\",\"5\",\"P\",\"J\",\"58\"
\"\",\"\",\"approach-retreat\",\"207\",\"1517097\",\"0.0-207.0\",\"\",\"\",\"3-3\",\"5990\",\"38\",\"0\",\"Testing\",\"Stims/Figures/87-C-20-4.bmp\",\"ta:pa:ta\",\"Down\",\"40\",\"3\",\"11\",\"5\",\"P\",\"J\",\"59\"
\"\",\"\",\"approach-retreat\",\"208\",\"1523269\",\"0.0-208.0\",\"\",\"\",\"3-3\",\"4641\",\"39\",\"1\",\"Testing\",\"Stims/Figures/144-C-30-3.bmp\",\"pa:kata\",\"Right\",\"39\",\"3\",\"12\",\"5\",\"P\",\"J\",\"60\"
\"\",\"\",\"approach-retreat\",\"209\",\"1529874\",\"0.0-209.0\",\"\",\"\",\"3-3\",\"5073\",\"38\",\"1\",\"Testing\",\"Stims/Figures/74-C-20-4.bmp\",\"tapata\",\"Up\",\"38\",\"3\",\"13\",\"5\",\"P\",\"J\",\"61\"
\"\",\"\",\"approach-retreat\",\"210\",\"1536153\",\"0.0-210.0\",\"\",\"\",\"3-3\",\"4746\",\"40\",\"1\",\"Testing\",\"Stims/Figures/85-C-20-2.bmp\",\"ta:kata\",\"Down\",\"40\",\"3\",\"14\",\"5\",\"P\",\"J\",\"62\"
\"\",\"\",\"approach-retreat\",\"211\",\"1541993\",\"0.0-211.0\",\"\",\"\",\"3-3\",\"4307\",\"40\",\"1\",\"Testing\",\"Stims/Figures/94-J-0-2.bmp\",\"na:lala\",\"Up\",\"40\",\"3\",\"15\",\"5\",\"S\",\"J\",\"63\"
\"\",\"\",\"approach-retreat\",\"212\",\"1547994\",\"0.0-212.0\",\"\",\"\",\"3-3\",\"4468\",\"37\",\"1\",\"Testing\",\"Stims/Figures/93-C-30-1.bmp\",\"ta:kaka\",\"Left\",\"37\",\"3\",\"16\",\"5\",\"P\",\"J\",\"64\"
\"\",\"\",\"approach-retreat\",\"213\",\"1554254\",\"0.0-213.0\",\"\",\"\",\"3-3\",\"4726\",\"40\",\"0\",\"Testing\",\"Stims/Figures/144-J-10-3.bmp\",\"nama:la\",\"Down\",\"38\",\"3\",\"17\",\"5\",\"S\",\"J\",\"65\"
\"\",\"\",\"approach-retreat\",\"214\",\"1560220\",\"0.0-214.0\",\"\",\"\",\"3-3\",\"4452\",\"39\",\"0\",\"Testing\",\"Stims/Figures/44-J-10-3.bmp\",\"mamala\",\"Right\",\"37\",\"3\",\"18\",\"5\",\"S\",\"J\",\"66\"
\"\",\"\",\"approach-retreat\",\"215\",\"1566524\",\"0.0-215.0\",\"\",\"\",\"3-3\",\"4767\",\"40\",\"0\",\"Testing\",\"Stims/Figures/139-J-0-2.bmp\",\"mala:na\",\"Down\",\"38\",\"3\",\"19\",\"5\",\"S\",\"J\",\"67\"
\"\",\"\",\"approach-retreat\",\"216\",\"1572706\",\"0.0-216.0\",\"\",\"\",\"3-3\",\"4650\",\"37\",\"1\",\"Testing\",\"Stims/Figures/27-C-30-1.bmp\",\"ta:paka\",\"Left\",\"37\",\"3\",\"20\",\"5\",\"P\",\"J\",\"68\"
\"\",\"\",\"approach-retreat\",\"217\",\"1580004\",\"0.0-217.0\",\"\",\"\",\"3-3\",\"5767\",\"39\",\"0\",\"Testing\",\"Stims/Figures/85-J-0-2.bmp\",\"namala\",\"Right\",\"37\",\"3\",\"21\",\"5\",\"S\",\"J\",\"69\"
\"\",\"\",\"approach-retreat\",\"218\",\"1586554\",\"0.0-218.0\",\"\",\"\",\"3-3\",\"5016\",\"38\",\"0\",\"Testing\",\"Stims/Figures/111-J-10-3.bmp\",\"nalala\",\"Up\",\"40\",\"3\",\"22\",\"5\",\"S\",\"J\",\"70\"
\"\",\"\",\"approach-retreat\",\"219\",\"1592685\",\"0.0-219.0\",\"\",\"\",\"3-3\",\"4598\",\"37\",\"0\",\"Testing\",\"Stims/Figures/27-J-0-1.bmp\",\"ma:ma:na\",\"Left\",\"39\",\"3\",\"23\",\"5\",\"S\",\"J\",\"71\"
\"\",\"\",\"approach-retreat\",\"220\",\"1598911\",\"0.0-220.0\",\"\",\"\",\"3-3\",\"4693\",\"39\",\"0\",\"Testing\",\"Stims/Figures/87-J-10-4.bmp\",\"ma:la:na\",\"Right\",\"37\",\"3\",\"24\",\"5\",\"S\",\"J\",\"72\"
\"\",\"\",\"approach-retreat\",\"221\",\"1605570\",\"0.0-221.0\",\"\",\"\",\"3-3\",\"5125\",\"39\",\"1\",\"Testing\",\"Stims/Figures/85-C-20-2.bmp\",\"ta:kata\",\"Right\",\"39\",\"4\",\"1\",\"5\",\"P\",\"J\",\"73\"
\"\",\"\",\"approach-retreat\",\"222\",\"1612409\",\"0.0-222.0\",\"\",\"\",\"3-3\",\"5307\",\"40\",\"0\",\"Testing\",\"Stims/Figures/86-J-0-1.bmp\",\"na:la:la\",\"Down\",\"38\",\"4\",\"2\",\"5\",\"S\",\"J\",\"74\"
\"\",\"\",\"approach-retreat\",\"223\",\"1618683\",\"0.0-223.0\",\"\",\"\",\"3-3\",\"4741\",\"39\",\"0\",\"Testing\",\"Stims/Figures/144-J-10-3.bmp\",\"nama:la\",\"Right\",\"37\",\"4\",\"3\",\"5\",\"S\",\"J\",\"75\"
\"\",\"\",\"approach-retreat\",\"224\",\"1625458\",\"0.0-224.0\",\"\",\"\",\"3-3\",\"5253\",\"38\",\"0\",\"Testing\",\"Stims/Figures/144-C-30-3.bmp\",\"pa:kata\",\"Down\",\"40\",\"4\",\"4\",\"5\",\"P\",\"J\",\"76\"
\"\",\"\",\"approach-retreat\",\"225\",\"1632014\",\"0.0-225.0\",\"\",\"\",\"3-3\",\"5025\",\"37\",\"0\",\"Testing\",\"Stims/Figures/94-C-20-2.bmp\",\"pa:ka:ta\",\"Right\",\"39\",\"4\",\"5\",\"5\",\"P\",\"J\",\"77\"
\"\",\"\",\"approach-retreat\",\"226\",\"1638776\",\"0.0-226.0\",\"\",\"\",\"3-3\",\"5230\",\"38\",\"0\",\"Testing\",\"Stims/Figures/27-J-0-1.bmp\",\"ma:ma:na\",\"Up\",\"40\",\"4\",\"6\",\"5\",\"S\",\"J\",\"78\"
\"\",\"\",\"approach-retreat\",\"227\",\"1645867\",\"0.0-227.0\",\"\",\"\",\"3-3\",\"5559\",\"38\",\"0\",\"Testing\",\"Stims/Figures/74-J-10-4.bmp\",\"na:lana\",\"Up\",\"40\",\"4\",\"7\",\"5\",\"S\",\"J\",\"79\"
\"\",\"\",\"approach-retreat\",\"228\",\"1652643\",\"0.0-228.0\",\"\",\"\",\"3-3\",\"5242\",\"39\",\"1\",\"Testing\",\"Stims/Figures/44-C-30-3.bmp\",\"pa:pata\",\"Right\",\"39\",\"4\",\"8\",\"5\",\"P\",\"J\",\"80\"
\"\",\"\",\"approach-retreat\",\"229\",\"1659043\",\"0.0-229.0\",\"\",\"\",\"3-3\",\"4861\",\"39\",\"0\",\"Testing\",\"Stims/Figures/102-J-10-4.bmp\",\"na:la:na\",\"Right\",\"37\",\"4\",\"9\",\"5\",\"S\",\"J\",\"81\"
\"\",\"\",\"approach-retreat\",\"230\",\"1665578\",\"0.0-230.0\",\"\",\"\",\"3-3\",\"5001\",\"40\",\"0\",\"Testing\",\"Stims/Figures/86-C-30-1.bmp\",\"paka:ka\",\"Up\",\"38\",\"4\",\"10\",\"5\",\"P\",\"J\",\"82\"
\"\",\"\",\"approach-retreat\",\"231\",\"1672426\",\"0.0-231.0\",\"\",\"\",\"3-3\",\"5310\",\"39\",\"1\",\"Testing\",\"Stims/Figures/94-J-0-2.bmp\",\"na:lala\",\"Left\",\"39\",\"4\",\"11\",\"5\",\"S\",\"J\",\"83\"
\"\",\"\",\"approach-retreat\",\"232\",\"1678332\",\"0.0-232.0\",\"\",\"\",\"3-3\",\"4360\",\"38\",\"1\",\"Testing\",\"Stims/Figures/139-C-20-2.bmp\",\"pa:kaka\",\"Up\",\"38\",\"4\",\"12\",\"5\",\"P\",\"J\",\"84\"
\"\",\"\",\"approach-retreat\",\"233\",\"1684988\",\"0.0-233.0\",\"\",\"\",\"3-3\",\"5123\",\"37\",\"1\",\"Testing\",\"Stims/Figures/93-C-30-1.bmp\",\"ta:kaka\",\"Left\",\"37\",\"4\",\"13\",\"5\",\"P\",\"J\",\"85\"
\"\",\"\",\"approach-retreat\",\"234\",\"1692135\",\"0.0-234.0\",\"\",\"\",\"3-3\",\"5611\",\"39\",\"0\",\"Testing\",\"Stims/Figures/93-J-0-1.bmp\",\"ma:lana\",\"Right\",\"37\",\"4\",\"14\",\"5\",\"S\",\"J\",\"86\"
\"\",\"\",\"approach-retreat\",\"235\",\"1698388\",\"0.0-235.0\",\"\",\"\",\"3-3\",\"4722\",\"37\",\"1\",\"Testing\",\"Stims/Figures/102-C-20-4.bmp\",\"papa:ta\",\"Left\",\"37\",\"4\",\"15\",\"5\",\"P\",\"J\",\"87\"
\"\",\"\",\"approach-retreat\",\"236\",\"1704605\",\"0.0-236.0\",\"\",\"\",\"3-3\",\"4684\",\"40\",\"0\",\"Testing\",\"Stims/Figures/111-J-10-3.bmp\",\"nalala\",\"Down\",\"38\",\"4\",\"16\",\"5\",\"S\",\"J\",\"88\"
\"\",\"\",\"approach-retreat\",\"237\",\"1711218\",\"0.0-237.0\",\"\",\"\",\"3-3\",\"5076\",\"40\",\"0\",\"Testing\",\"Stims/Figures/85-J-0-2.bmp\",\"namala\",\"Down\",\"38\",\"4\",\"17\",\"5\",\"S\",\"J\",\"89\"
\"\",\"\",\"approach-retreat\",\"238\",\"1717422\",\"0.0-238.0\",\"\",\"\",\"3-3\",\"4673\",\"37\",\"1\",\"Testing\",\"Stims/Figures/27-C-30-1.bmp\",\"ta:paka\",\"Left\",\"37\",\"4\",\"18\",\"5\",\"P\",\"J\",\"90\"
\"\",\"\",\"approach-retreat\",\"239\",\"1723321\",\"0.0-239.0\",\"\",\"\",\"3-3\",\"4369\",\"40\",\"0\",\"Testing\",\"Stims/Figures/44-J-10-3.bmp\",\"mamala\",\"Down\",\"38\",\"4\",\"19\",\"5\",\"S\",\"J\",\"91\"
\"\",\"\",\"approach-retreat\",\"240\",\"1729496\",\"0.0-240.0\",\"\",\"\",\"3-3\",\"4640\",\"37\",\"1\",\"Testing\",\"Stims/Figures/111-C-30-3.bmp\",\"ta:ka:ka\",\"Left\",\"37\",\"4\",\"20\",\"5\",\"P\",\"J\",\"92\"
\"\",\"\",\"approach-retreat\",\"241\",\"1735444\",\"0.0-241.0\",\"\",\"\",\"3-3\",\"4419\",\"37\",\"0\",\"Testing\",\"Stims/Figures/87-J-10-4.bmp\",\"ma:la:na\",\"Left\",\"39\",\"4\",\"21\",\"5\",\"S\",\"J\",\"93\"
\"\",\"\",\"approach-retreat\",\"242\",\"1744843\",\"0.0-242.0\",\"\",\"\",\"3-3\",\"7890\",\"38\",\"1\",\"Testing\",\"Stims/Figures/74-C-20-4.bmp\",\"tapata\",\"Up\",\"38\",\"4\",\"22\",\"5\",\"P\",\"J\",\"94\"
\"\",\"\",\"approach-retreat\",\"243\",\"1751768\",\"0.0-243.0\",\"\",\"\",\"3-3\",\"5390\",\"40\",\"1\",\"Testing\",\"Stims/Figures/87-C-20-4.bmp\",\"ta:pa:ta\",\"Down\",\"40\",\"4\",\"23\",\"5\",\"P\",\"J\",\"95\"
\"\",\"\",\"approach-retreat\",\"244\",\"1758365\",\"0.0-244.0\",\"\",\"\",\"3-3\",\"5060\",\"38\",\"0\",\"Testing\",\"Stims/Figures/139-J-0-2.bmp\",\"mala:na\",\"Up\",\"40\",\"4\",\"24\",\"5\",\"S\",\"J\",\"96\"
\"24965\",\"\",\"survey-text\",\"245\",\"1783352\",\"0.0-245.0\",\"\",\"{\"\"Q0\"\":\"\"ps170016\"\"}\",\"\",\"\",\"\",\"\",\"\",\"\",\"\",\"\",\"\",\"\",\"\",\"\",\"\",\"\",\"\"
