\"rt\",\"key_press\",\"trial_type\",\"trial_index\",\"time_elapsed\",\"internal_node_id\",\"view_history\",\"responses\",\"Id\",\"Rt\",\"ResKeyCode\",\"ResCorr\",\"TrialType2\",\"Image\",\"Label\",\"Location\",\"CorrectResponse\",\"Block\",\"BlockTrial\",\"Condition\",\"LabelType\",\"Subcondition\",\"trialNum\"
\"462079\",\"32\",\"text\",\"0\",\"462086\",\"0.0-0.0-0.0\",\"\",\"\",\"\",\"\",\"\",\"\",\"\",\"\",\"\",\"\",\"\",\"\",\"\",\"\",\"\",\"\",\"\"
\"63699\",\"\",\"instructions\",\"1\",\"525792\",\"0.0-1.0\",\"[{\"\"page_index\"\":0,\"\"viewing_time\"\":63697}]\",\"\",\"\",\"\",\"\",\"\",\"\",\"\",\"\",\"\",\"\",\"\",\"\",\"\",\"\",\"\",\"\"
\"19058\",\"\",\"survey-multi-choice\",\"2\",\"544907\",\"0.0-2.0\",\"\",\"{\"\"Q0\"\":\"\"Da\"\",\"\"Q1\"\":\"\"Da\"\",\"\"Q2\"\":\"\"Da\"\",\"\"Q3\"\":\"\"Da\"\",\"\"Q4\"\":\"\"Da\"\",\"\"Q5\"\":\"\"Da\"\"}\",\"\",\"\",\"\",\"\",\"\",\"\",\"\",\"\",\"\",\"\",\"\",\"\",\"\",\"\",\"\"
\"\",\"\",\"bio\",\"3\",\"556041\",\"0.0-3.0\",\"\",\"{\"\"age\"\":\"\"20\"\",\"\"gender\"\":\"\"f\"\",\"\"specify\"\":\"\"\"\"}\",\"\",\"\",\"\",\"\",\"\",\"\",\"\",\"\",\"\",\"\",\"\",\"\",\"\",\"\",\"\"
\"\",\"\",\"approach-retreat\",\"4\",\"567126\",\"0.0-4.0\",\"\",\"\",\"3-5\",\"9566\",\"40\",\"1\",\"Training\",\"Stims/Figures/94-J-0-2.bmp\",\"None\",\"Up\",\"40\",\"1\",\"1\",\"10\",\"N\",\"J\",\"1\"
\"\",\"\",\"approach-retreat\",\"5\",\"575445\",\"0.0-5.0\",\"\",\"\",\"3-5\",\"6808\",\"37\",\"1\",\"Training\",\"Stims/Figures/102-C-20-4.bmp\",\"None\",\"Left\",\"37\",\"1\",\"2\",\"10\",\"N\",\"J\",\"2\"
\"\",\"\",\"approach-retreat\",\"6\",\"581590\",\"0.0-6.0\",\"\",\"\",\"3-5\",\"4632\",\"37\",\"1\",\"Training\",\"Stims/Figures/144-C-30-3.bmp\",\"None\",\"Left\",\"37\",\"1\",\"3\",\"10\",\"N\",\"J\",\"3\"
\"\",\"\",\"approach-retreat\",\"7\",\"587548\",\"0.0-7.0\",\"\",\"\",\"3-5\",\"4448\",\"37\",\"1\",\"Training\",\"Stims/Figures/74-C-20-4.bmp\",\"None\",\"Left\",\"37\",\"1\",\"4\",\"10\",\"N\",\"J\",\"4\"
\"\",\"\",\"approach-retreat\",\"8\",\"594299\",\"0.0-8.0\",\"\",\"\",\"3-5\",\"5238\",\"40\",\"0\",\"Training\",\"Stims/Figures/94-C-20-2.bmp\",\"None\",\"Up\",\"38\",\"1\",\"5\",\"10\",\"N\",\"J\",\"5\"
\"\",\"\",\"approach-retreat\",\"9\",\"602008\",\"0.0-9.0\",\"\",\"\",\"3-5\",\"6197\",\"40\",\"0\",\"Training\",\"Stims/Figures/111-J-10-3.bmp\",\"None\",\"Down\",\"38\",\"1\",\"6\",\"10\",\"N\",\"J\",\"6\"
\"\",\"\",\"approach-retreat\",\"10\",\"610163\",\"0.0-10.0\",\"\",\"\",\"3-5\",\"6642\",\"37\",\"0\",\"Training\",\"Stims/Figures/118-C-20-2.bmp\",\"None\",\"Right\",\"39\",\"1\",\"7\",\"10\",\"N\",\"J\",\"7\"
\"\",\"\",\"approach-retreat\",\"11\",\"616891\",\"0.0-11.0\",\"\",\"\",\"3-5\",\"5216\",\"40\",\"0\",\"Training\",\"Stims/Figures/102-J-10-4.bmp\",\"None\",\"Down\",\"38\",\"1\",\"8\",\"10\",\"N\",\"J\",\"8\"
\"\",\"\",\"approach-retreat\",\"12\",\"622994\",\"0.0-12.0\",\"\",\"\",\"3-5\",\"4595\",\"37\",\"0\",\"Training\",\"Stims/Figures/74-J-10-4.bmp\",\"None\",\"Left\",\"39\",\"1\",\"9\",\"10\",\"N\",\"J\",\"9\"
\"\",\"\",\"approach-retreat\",\"13\",\"629810\",\"0.0-13.0\",\"\",\"\",\"3-5\",\"5304\",\"38\",\"0\",\"Training\",\"Stims/Figures/118-J-0-2.bmp\",\"None\",\"Up\",\"40\",\"1\",\"10\",\"10\",\"N\",\"J\",\"10\"
\"\",\"\",\"approach-retreat\",\"14\",\"636234\",\"0.0-14.0\",\"\",\"\",\"3-5\",\"4915\",\"40\",\"1\",\"Training\",\"Stims/Figures/86-J-0-1.bmp\",\"None\",\"Up\",\"40\",\"1\",\"11\",\"10\",\"N\",\"J\",\"11\"
\"\",\"\",\"approach-retreat\",\"15\",\"642238\",\"0.0-15.0\",\"\",\"\",\"3-5\",\"4494\",\"37\",\"1\",\"Training\",\"Stims/Figures/144-J-10-3.bmp\",\"None\",\"Right\",\"37\",\"1\",\"12\",\"10\",\"N\",\"J\",\"12\"
\"\",\"\",\"approach-retreat\",\"16\",\"648067\",\"0.0-16.0\",\"\",\"\",\"3-5\",\"4315\",\"38\",\"0\",\"Training\",\"Stims/Figures/86-C-30-1.bmp\",\"None\",\"Down\",\"40\",\"1\",\"13\",\"10\",\"N\",\"J\",\"13\"
\"\",\"\",\"approach-retreat\",\"17\",\"654934\",\"0.0-17.0\",\"\",\"\",\"3-5\",\"5356\",\"38\",\"0\",\"Training\",\"Stims/Figures/27-C-30-1.bmp\",\"None\",\"Down\",\"40\",\"1\",\"14\",\"10\",\"N\",\"J\",\"14\"
\"\",\"\",\"approach-retreat\",\"18\",\"661399\",\"0.0-18.0\",\"\",\"\",\"3-5\",\"4957\",\"37\",\"1\",\"Training\",\"Stims/Figures/27-J-0-1.bmp\",\"None\",\"Right\",\"37\",\"1\",\"15\",\"10\",\"N\",\"J\",\"15\"
\"\",\"\",\"approach-retreat\",\"19\",\"667308\",\"0.0-19.0\",\"\",\"\",\"3-5\",\"4396\",\"37\",\"0\",\"Training\",\"Stims/Figures/111-C-30-3.bmp\",\"None\",\"Right\",\"39\",\"1\",\"16\",\"10\",\"N\",\"J\",\"16\"
\"\",\"\",\"approach-retreat\",\"20\",\"674176\",\"0.0-20.0\",\"\",\"\",\"3-5\",\"5355\",\"38\",\"1\",\"Training\",\"Stims/Figures/86-C-30-1.bmp\",\"None\",\"Up\",\"38\",\"2\",\"1\",\"10\",\"N\",\"J\",\"17\"
\"\",\"\",\"approach-retreat\",\"21\",\"680438\",\"0.0-21.0\",\"\",\"\",\"3-5\",\"4751\",\"37\",\"1\",\"Training\",\"Stims/Figures/111-C-30-3.bmp\",\"None\",\"Left\",\"37\",\"2\",\"2\",\"10\",\"N\",\"J\",\"18\"
\"\",\"\",\"approach-retreat\",\"22\",\"686593\",\"0.0-22.0\",\"\",\"\",\"3-5\",\"4644\",\"39\",\"0\",\"Training\",\"Stims/Figures/111-J-10-3.bmp\",\"None\",\"Right\",\"37\",\"2\",\"3\",\"10\",\"N\",\"J\",\"19\"
\"\",\"\",\"approach-retreat\",\"23\",\"693674\",\"0.0-23.0\",\"\",\"\",\"3-5\",\"5570\",\"40\",\"0\",\"Training\",\"Stims/Figures/94-C-20-2.bmp\",\"None\",\"Up\",\"38\",\"2\",\"4\",\"10\",\"N\",\"J\",\"20\"
\"\",\"\",\"approach-retreat\",\"24\",\"700085\",\"0.0-24.0\",\"\",\"\",\"3-5\",\"4901\",\"38\",\"0\",\"Training\",\"Stims/Figures/74-J-10-4.bmp\",\"None\",\"Up\",\"40\",\"2\",\"5\",\"10\",\"N\",\"J\",\"21\"
\"\",\"\",\"approach-retreat\",\"25\",\"706243\",\"0.0-25.0\",\"\",\"\",\"3-5\",\"4649\",\"38\",\"1\",\"Training\",\"Stims/Figures/27-J-0-1.bmp\",\"None\",\"Down\",\"38\",\"2\",\"6\",\"10\",\"N\",\"J\",\"22\"
\"\",\"\",\"approach-retreat\",\"26\",\"712351\",\"0.0-26.0\",\"\",\"\",\"3-5\",\"4595\",\"37\",\"0\",\"Training\",\"Stims/Figures/144-C-30-3.bmp\",\"None\",\"Right\",\"39\",\"2\",\"7\",\"10\",\"N\",\"J\",\"23\"
\"\",\"\",\"approach-retreat\",\"27\",\"718896\",\"0.0-27.0\",\"\",\"\",\"3-5\",\"5035\",\"38\",\"1\",\"Training\",\"Stims/Figures/144-J-10-3.bmp\",\"None\",\"Down\",\"38\",\"2\",\"8\",\"10\",\"N\",\"J\",\"24\"
\"\",\"\",\"approach-retreat\",\"28\",\"724543\",\"0.0-28.0\",\"\",\"\",\"3-5\",\"4139\",\"38\",\"0\",\"Training\",\"Stims/Figures/94-J-0-2.bmp\",\"None\",\"Up\",\"40\",\"2\",\"9\",\"10\",\"N\",\"J\",\"25\"
\"\",\"\",\"approach-retreat\",\"29\",\"731740\",\"0.0-29.0\",\"\",\"\",\"3-5\",\"5689\",\"39\",\"0\",\"Training\",\"Stims/Figures/118-J-0-2.bmp\",\"None\",\"Right\",\"37\",\"2\",\"10\",\"10\",\"N\",\"J\",\"26\"
\"\",\"\",\"approach-retreat\",\"30\",\"737911\",\"0.0-30.0\",\"\",\"\",\"3-5\",\"4651\",\"37\",\"0\",\"Training\",\"Stims/Figures/102-J-10-4.bmp\",\"None\",\"Left\",\"39\",\"2\",\"11\",\"10\",\"N\",\"J\",\"27\"
\"\",\"\",\"approach-retreat\",\"31\",\"744354\",\"0.0-31.0\",\"\",\"\",\"3-5\",\"4931\",\"38\",\"0\",\"Training\",\"Stims/Figures/118-C-20-2.bmp\",\"None\",\"Down\",\"40\",\"2\",\"12\",\"10\",\"N\",\"J\",\"28\"
\"\",\"\",\"approach-retreat\",\"32\",\"751418\",\"0.0-32.0\",\"\",\"\",\"3-5\",\"5556\",\"40\",\"1\",\"Training\",\"Stims/Figures/102-C-20-4.bmp\",\"None\",\"Down\",\"40\",\"2\",\"13\",\"10\",\"N\",\"J\",\"29\"
\"\",\"\",\"approach-retreat\",\"33\",\"757602\",\"0.0-33.0\",\"\",\"\",\"3-5\",\"4674\",\"37\",\"0\",\"Training\",\"Stims/Figures/86-J-0-1.bmp\",\"None\",\"Left\",\"39\",\"2\",\"14\",\"10\",\"N\",\"J\",\"30\"
\"\",\"\",\"approach-retreat\",\"34\",\"763565\",\"0.0-34.0\",\"\",\"\",\"3-5\",\"4453\",\"37\",\"0\",\"Training\",\"Stims/Figures/27-C-30-1.bmp\",\"None\",\"Right\",\"39\",\"2\",\"15\",\"10\",\"N\",\"J\",\"31\"
\"\",\"\",\"approach-retreat\",\"35\",\"770032\",\"0.0-35.0\",\"\",\"\",\"3-5\",\"4947\",\"39\",\"0\",\"Training\",\"Stims/Figures/74-C-20-4.bmp\",\"None\",\"Left\",\"37\",\"2\",\"16\",\"10\",\"N\",\"J\",\"32\"
\"\",\"\",\"approach-retreat\",\"36\",\"776205\",\"0.0-36.0\",\"\",\"\",\"3-5\",\"4661\",\"40\",\"1\",\"Training\",\"Stims/Figures/118-J-0-2.bmp\",\"None\",\"Up\",\"40\",\"3\",\"1\",\"10\",\"N\",\"J\",\"33\"
\"\",\"\",\"approach-retreat\",\"37\",\"782335\",\"0.0-37.0\",\"\",\"\",\"3-5\",\"4618\",\"37\",\"0\",\"Training\",\"Stims/Figures/86-C-30-1.bmp\",\"None\",\"Right\",\"39\",\"3\",\"2\",\"10\",\"N\",\"J\",\"34\"
\"\",\"\",\"approach-retreat\",\"38\",\"788504\",\"0.0-38.0\",\"\",\"\",\"3-5\",\"4657\",\"37\",\"0\",\"Training\",\"Stims/Figures/74-C-20-4.bmp\",\"None\",\"Right\",\"39\",\"3\",\"3\",\"10\",\"N\",\"J\",\"35\"
\"\",\"\",\"approach-retreat\",\"39\",\"795445\",\"0.0-39.0\",\"\",\"\",\"3-5\",\"5429\",\"37\",\"0\",\"Training\",\"Stims/Figures/86-J-0-1.bmp\",\"None\",\"Left\",\"39\",\"3\",\"4\",\"10\",\"N\",\"J\",\"36\"
\"\",\"\",\"approach-retreat\",\"40\",\"801452\",\"0.0-40.0\",\"\",\"\",\"3-5\",\"4496\",\"38\",\"1\",\"Training\",\"Stims/Figures/94-J-0-2.bmp\",\"None\",\"Down\",\"38\",\"3\",\"5\",\"10\",\"N\",\"J\",\"37\"
\"\",\"\",\"approach-retreat\",\"41\",\"807517\",\"0.0-41.0\",\"\",\"\",\"3-5\",\"4552\",\"39\",\"1\",\"Training\",\"Stims/Figures/27-J-0-1.bmp\",\"None\",\"Left\",\"39\",\"3\",\"6\",\"10\",\"N\",\"J\",\"38\"
\"\",\"\",\"approach-retreat\",\"42\",\"813816\",\"0.0-42.0\",\"\",\"\",\"3-5\",\"4782\",\"38\",\"1\",\"Training\",\"Stims/Figures/102-J-10-4.bmp\",\"None\",\"Down\",\"38\",\"3\",\"7\",\"10\",\"N\",\"J\",\"39\"
\"\",\"\",\"approach-retreat\",\"43\",\"819776\",\"0.0-43.0\",\"\",\"\",\"3-5\",\"4448\",\"37\",\"0\",\"Training\",\"Stims/Figures/111-C-30-3.bmp\",\"None\",\"Right\",\"39\",\"3\",\"8\",\"10\",\"N\",\"J\",\"40\"
\"\",\"\",\"approach-retreat\",\"44\",\"826927\",\"0.0-44.0\",\"\",\"\",\"3-5\",\"5640\",\"40\",\"1\",\"Training\",\"Stims/Figures/111-J-10-3.bmp\",\"None\",\"Up\",\"40\",\"3\",\"9\",\"10\",\"N\",\"J\",\"41\"
\"\",\"\",\"approach-retreat\",\"45\",\"834228\",\"0.0-45.0\",\"\",\"\",\"3-5\",\"5791\",\"38\",\"0\",\"Training\",\"Stims/Figures/27-C-30-1.bmp\",\"None\",\"Down\",\"40\",\"3\",\"10\",\"10\",\"N\",\"J\",\"42\"
\"\",\"\",\"approach-retreat\",\"46\",\"840532\",\"0.0-46.0\",\"\",\"\",\"3-5\",\"4792\",\"39\",\"0\",\"Training\",\"Stims/Figures/118-C-20-2.bmp\",\"None\",\"Left\",\"37\",\"3\",\"11\",\"10\",\"N\",\"J\",\"43\"
\"\",\"\",\"approach-retreat\",\"47\",\"851034\",\"0.0-47.0\",\"\",\"\",\"3-5\",\"8994\",\"38\",\"1\",\"Training\",\"Stims/Figures/144-J-10-3.bmp\",\"None\",\"Down\",\"38\",\"3\",\"12\",\"10\",\"N\",\"J\",\"44\"
\"\",\"\",\"approach-retreat\",\"48\",\"857386\",\"0.0-48.0\",\"\",\"\",\"3-5\",\"4844\",\"40\",\"0\",\"Training\",\"Stims/Figures/102-C-20-4.bmp\",\"None\",\"Up\",\"38\",\"3\",\"13\",\"10\",\"N\",\"J\",\"45\"
\"\",\"\",\"approach-retreat\",\"49\",\"862988\",\"0.0-49.0\",\"\",\"\",\"3-5\",\"4093\",\"37\",\"1\",\"Training\",\"Stims/Figures/74-J-10-4.bmp\",\"None\",\"Right\",\"37\",\"3\",\"14\",\"10\",\"N\",\"J\",\"46\"
\"\",\"\",\"approach-retreat\",\"50\",\"869662\",\"0.0-50.0\",\"\",\"\",\"3-5\",\"5164\",\"37\",\"1\",\"Training\",\"Stims/Figures/144-C-30-3.bmp\",\"None\",\"Left\",\"37\",\"3\",\"15\",\"10\",\"N\",\"J\",\"47\"
\"\",\"\",\"approach-retreat\",\"51\",\"875677\",\"0.0-51.0\",\"\",\"\",\"3-5\",\"4499\",\"40\",\"0\",\"Training\",\"Stims/Figures/94-C-20-2.bmp\",\"None\",\"Up\",\"38\",\"3\",\"16\",\"10\",\"N\",\"J\",\"48\"
\"\",\"\",\"approach-retreat\",\"52\",\"881954\",\"0.0-52.0\",\"\",\"\",\"3-5\",\"4740\",\"39\",\"1\",\"Training\",\"Stims/Figures/74-C-20-4.bmp\",\"None\",\"Right\",\"39\",\"4\",\"1\",\"10\",\"N\",\"J\",\"49\"
\"\",\"\",\"approach-retreat\",\"53\",\"887543\",\"0.0-53.0\",\"\",\"\",\"3-5\",\"4074\",\"40\",\"1\",\"Training\",\"Stims/Figures/111-C-30-3.bmp\",\"None\",\"Down\",\"40\",\"4\",\"2\",\"10\",\"N\",\"J\",\"50\"
\"\",\"\",\"approach-retreat\",\"54\",\"893070\",\"0.0-54.0\",\"\",\"\",\"3-5\",\"4016\",\"40\",\"0\",\"Training\",\"Stims/Figures/111-J-10-3.bmp\",\"None\",\"Down\",\"38\",\"4\",\"3\",\"10\",\"N\",\"J\",\"51\"
\"\",\"\",\"approach-retreat\",\"55\",\"898897\",\"0.0-55.0\",\"\",\"\",\"3-5\",\"4310\",\"38\",\"0\",\"Training\",\"Stims/Figures/74-J-10-4.bmp\",\"None\",\"Up\",\"40\",\"4\",\"4\",\"10\",\"N\",\"J\",\"52\"
\"\",\"\",\"approach-retreat\",\"56\",\"905755\",\"0.0-56.0\",\"\",\"\",\"3-5\",\"5348\",\"40\",\"0\",\"Training\",\"Stims/Figures/86-J-0-1.bmp\",\"None\",\"Down\",\"38\",\"4\",\"5\",\"10\",\"N\",\"J\",\"53\"
\"\",\"\",\"approach-retreat\",\"57\",\"911750\",\"0.0-57.0\",\"\",\"\",\"3-5\",\"4485\",\"37\",\"0\",\"Training\",\"Stims/Figures/118-C-20-2.bmp\",\"None\",\"Right\",\"39\",\"4\",\"6\",\"10\",\"N\",\"J\",\"54\"
\"\",\"\",\"approach-retreat\",\"58\",\"920062\",\"0.0-58.0\",\"\",\"\",\"3-5\",\"6803\",\"37\",\"0\",\"Training\",\"Stims/Figures/27-J-0-1.bmp\",\"None\",\"Left\",\"39\",\"4\",\"7\",\"10\",\"N\",\"J\",\"55\"
\"\",\"\",\"approach-retreat\",\"59\",\"925565\",\"0.0-59.0\",\"\",\"\",\"3-5\",\"3995\",\"37\",\"1\",\"Training\",\"Stims/Figures/144-J-10-3.bmp\",\"None\",\"Right\",\"37\",\"4\",\"8\",\"10\",\"N\",\"J\",\"56\"
\"\",\"\",\"approach-retreat\",\"60\",\"932236\",\"0.0-60.0\",\"\",\"\",\"3-5\",\"5159\",\"38\",\"0\",\"Training\",\"Stims/Figures/118-J-0-2.bmp\",\"None\",\"Up\",\"40\",\"4\",\"9\",\"10\",\"N\",\"J\",\"57\"
\"\",\"\",\"approach-retreat\",\"61\",\"938325\",\"0.0-61.0\",\"\",\"\",\"3-5\",\"4580\",\"39\",\"0\",\"Training\",\"Stims/Figures/86-C-30-1.bmp\",\"None\",\"Left\",\"37\",\"4\",\"10\",\"10\",\"N\",\"J\",\"58\"
\"\",\"\",\"approach-retreat\",\"62\",\"944000\",\"0.0-62.0\",\"\",\"\",\"3-5\",\"4165\",\"38\",\"0\",\"Training\",\"Stims/Figures/94-C-20-2.bmp\",\"None\",\"Down\",\"40\",\"4\",\"11\",\"10\",\"N\",\"J\",\"59\"
\"\",\"\",\"approach-retreat\",\"63\",\"952017\",\"0.0-63.0\",\"\",\"\",\"3-5\",\"6509\",\"39\",\"0\",\"Training\",\"Stims/Figures/102-C-20-4.bmp\",\"None\",\"Left\",\"37\",\"4\",\"12\",\"10\",\"N\",\"J\",\"60\"
\"\",\"\",\"approach-retreat\",\"64\",\"960379\",\"0.0-64.0\",\"\",\"\",\"3-5\",\"6848\",\"39\",\"1\",\"Training\",\"Stims/Figures/94-J-0-2.bmp\",\"None\",\"Left\",\"39\",\"4\",\"13\",\"10\",\"N\",\"J\",\"61\"
\"\",\"\",\"approach-retreat\",\"65\",\"966300\",\"0.0-65.0\",\"\",\"\",\"3-5\",\"4411\",\"40\",\"0\",\"Training\",\"Stims/Figures/27-C-30-1.bmp\",\"None\",\"Up\",\"38\",\"4\",\"14\",\"10\",\"N\",\"J\",\"62\"
\"\",\"\",\"approach-retreat\",\"66\",\"973504\",\"0.0-66.0\",\"\",\"\",\"3-5\",\"5689\",\"38\",\"1\",\"Training\",\"Stims/Figures/144-C-30-3.bmp\",\"None\",\"Up\",\"38\",\"4\",\"15\",\"10\",\"N\",\"J\",\"63\"
\"\",\"\",\"approach-retreat\",\"67\",\"979595\",\"0.0-67.0\",\"\",\"\",\"3-5\",\"4579\",\"39\",\"0\",\"Training\",\"Stims/Figures/102-J-10-4.bmp\",\"None\",\"Right\",\"37\",\"4\",\"16\",\"10\",\"N\",\"J\",\"64\"
\"\",\"\",\"approach-retreat\",\"68\",\"986621\",\"0.0-68.0\",\"\",\"\",\"3-5\",\"5499\",\"37\",\"1\",\"Training\",\"Stims/Figures/27-C-30-1.bmp\",\"None\",\"Left\",\"37\",\"5\",\"1\",\"10\",\"N\",\"J\",\"65\"
\"\",\"\",\"approach-retreat\",\"69\",\"992724\",\"0.0-69.0\",\"\",\"\",\"3-5\",\"4588\",\"37\",\"1\",\"Training\",\"Stims/Figures/144-C-30-3.bmp\",\"None\",\"Left\",\"37\",\"5\",\"2\",\"10\",\"N\",\"J\",\"66\"
\"\",\"\",\"approach-retreat\",\"70\",\"999743\",\"0.0-70.0\",\"\",\"\",\"3-5\",\"5509\",\"37\",\"0\",\"Training\",\"Stims/Figures/111-C-30-3.bmp\",\"None\",\"Right\",\"39\",\"5\",\"3\",\"10\",\"N\",\"J\",\"67\"
\"\",\"\",\"approach-retreat\",\"71\",\"1005379\",\"0.0-71.0\",\"\",\"\",\"3-5\",\"4128\",\"40\",\"0\",\"Training\",\"Stims/Figures/111-J-10-3.bmp\",\"None\",\"Down\",\"38\",\"5\",\"4\",\"10\",\"N\",\"J\",\"68\"
\"\",\"\",\"approach-retreat\",\"72\",\"1011292\",\"0.0-72.0\",\"\",\"\",\"3-5\",\"4400\",\"38\",\"0\",\"Training\",\"Stims/Figures/118-C-20-2.bmp\",\"None\",\"Down\",\"40\",\"5\",\"5\",\"10\",\"N\",\"J\",\"69\"
\"\",\"\",\"approach-retreat\",\"73\",\"1016896\",\"0.0-73.0\",\"\",\"\",\"3-5\",\"4093\",\"38\",\"0\",\"Training\",\"Stims/Figures/86-J-0-1.bmp\",\"None\",\"Up\",\"40\",\"5\",\"6\",\"10\",\"N\",\"J\",\"70\"
\"\",\"\",\"approach-retreat\",\"74\",\"1022695\",\"0.0-74.0\",\"\",\"\",\"3-5\",\"4290\",\"40\",\"0\",\"Training\",\"Stims/Figures/27-J-0-1.bmp\",\"None\",\"Down\",\"38\",\"5\",\"7\",\"10\",\"N\",\"J\",\"71\"
\"\",\"\",\"approach-retreat\",\"75\",\"1029050\",\"0.0-75.0\",\"\",\"\",\"3-5\",\"4836\",\"38\",\"0\",\"Training\",\"Stims/Figures/94-J-0-2.bmp\",\"None\",\"Up\",\"40\",\"5\",\"8\",\"10\",\"N\",\"J\",\"72\"
\"\",\"\",\"approach-retreat\",\"76\",\"1034707\",\"0.0-76.0\",\"\",\"\",\"3-5\",\"4149\",\"40\",\"1\",\"Training\",\"Stims/Figures/74-J-10-4.bmp\",\"None\",\"Up\",\"40\",\"5\",\"9\",\"10\",\"N\",\"J\",\"73\"
\"\",\"\",\"approach-retreat\",\"77\",\"1040485\",\"0.0-77.0\",\"\",\"\",\"3-5\",\"4265\",\"40\",\"0\",\"Training\",\"Stims/Figures/102-C-20-4.bmp\",\"None\",\"Up\",\"38\",\"5\",\"10\",\"10\",\"N\",\"J\",\"74\"
\"\",\"\",\"approach-retreat\",\"78\",\"1046578\",\"0.0-78.0\",\"\",\"\",\"3-5\",\"4582\",\"38\",\"0\",\"Training\",\"Stims/Figures/94-C-20-2.bmp\",\"None\",\"Down\",\"40\",\"5\",\"11\",\"10\",\"N\",\"J\",\"75\"
\"\",\"\",\"approach-retreat\",\"79\",\"1053250\",\"0.0-79.0\",\"\",\"\",\"3-5\",\"5160\",\"37\",\"0\",\"Training\",\"Stims/Figures/86-C-30-1.bmp\",\"None\",\"Right\",\"39\",\"5\",\"12\",\"10\",\"N\",\"J\",\"76\"
\"\",\"\",\"approach-retreat\",\"80\",\"1059070\",\"0.0-80.0\",\"\",\"\",\"3-5\",\"4308\",\"39\",\"0\",\"Training\",\"Stims/Figures/118-J-0-2.bmp\",\"None\",\"Right\",\"37\",\"5\",\"13\",\"10\",\"N\",\"J\",\"77\"
\"\",\"\",\"approach-retreat\",\"81\",\"1064794\",\"0.0-81.0\",\"\",\"\",\"3-5\",\"4213\",\"39\",\"1\",\"Training\",\"Stims/Figures/102-J-10-4.bmp\",\"None\",\"Left\",\"39\",\"5\",\"14\",\"10\",\"N\",\"J\",\"78\"
\"\",\"\",\"approach-retreat\",\"82\",\"1070554\",\"0.0-82.0\",\"\",\"\",\"3-5\",\"4250\",\"39\",\"0\",\"Training\",\"Stims/Figures/74-C-20-4.bmp\",\"None\",\"Left\",\"37\",\"5\",\"15\",\"10\",\"N\",\"J\",\"79\"
\"\",\"\",\"approach-retreat\",\"83\",\"1076787\",\"0.0-83.0\",\"\",\"\",\"3-5\",\"4720\",\"37\",\"1\",\"Training\",\"Stims/Figures/144-J-10-3.bmp\",\"None\",\"Right\",\"37\",\"5\",\"16\",\"10\",\"N\",\"J\",\"80\"
\"\",\"\",\"approach-retreat\",\"84\",\"1082472\",\"0.0-84.0\",\"\",\"\",\"3-5\",\"4171\",\"40\",\"0\",\"Training\",\"Stims/Figures/118-J-0-2.bmp\",\"None\",\"Down\",\"38\",\"6\",\"1\",\"10\",\"N\",\"J\",\"81\"
\"\",\"\",\"approach-retreat\",\"85\",\"1088282\",\"0.0-85.0\",\"\",\"\",\"3-5\",\"4294\",\"39\",\"1\",\"Training\",\"Stims/Figures/27-C-30-1.bmp\",\"None\",\"Right\",\"39\",\"6\",\"2\",\"10\",\"N\",\"J\",\"82\"
\"\",\"\",\"approach-retreat\",\"86\",\"1094195\",\"0.0-86.0\",\"\",\"\",\"3-5\",\"4406\",\"40\",\"0\",\"Training\",\"Stims/Figures/94-C-20-2.bmp\",\"None\",\"Up\",\"38\",\"6\",\"3\",\"10\",\"N\",\"J\",\"83\"
\"\",\"\",\"approach-retreat\",\"87\",\"1102458\",\"0.0-87.0\",\"\",\"\",\"3-5\",\"6753\",\"39\",\"0\",\"Training\",\"Stims/Figures/102-C-20-4.bmp\",\"None\",\"Left\",\"37\",\"6\",\"4\",\"10\",\"N\",\"J\",\"84\"
\"\",\"\",\"approach-retreat\",\"88\",\"1108332\",\"0.0-88.0\",\"\",\"\",\"3-5\",\"4365\",\"38\",\"1\",\"Training\",\"Stims/Figures/86-J-0-1.bmp\",\"None\",\"Down\",\"38\",\"6\",\"5\",\"10\",\"N\",\"J\",\"85\"
\"\",\"\",\"approach-retreat\",\"89\",\"1114287\",\"0.0-89.0\",\"\",\"\",\"3-5\",\"4437\",\"40\",\"0\",\"Training\",\"Stims/Figures/111-J-10-3.bmp\",\"None\",\"Down\",\"38\",\"6\",\"6\",\"10\",\"N\",\"J\",\"86\"
\"\",\"\",\"approach-retreat\",\"90\",\"1119661\",\"0.0-90.0\",\"\",\"\",\"3-5\",\"3861\",\"38\",\"0\",\"Training\",\"Stims/Figures/111-C-30-3.bmp\",\"None\",\"Down\",\"40\",\"6\",\"7\",\"10\",\"N\",\"J\",\"87\"
\"\",\"\",\"approach-retreat\",\"91\",\"1125485\",\"0.0-91.0\",\"\",\"\",\"3-5\",\"4310\",\"40\",\"0\",\"Training\",\"Stims/Figures/86-C-30-1.bmp\",\"None\",\"Up\",\"38\",\"6\",\"8\",\"10\",\"N\",\"J\",\"88\"
\"\",\"\",\"approach-retreat\",\"92\",\"1131100\",\"0.0-92.0\",\"\",\"\",\"3-5\",\"4105\",\"39\",\"1\",\"Training\",\"Stims/Figures/144-J-10-3.bmp\",\"None\",\"Left\",\"39\",\"6\",\"9\",\"10\",\"N\",\"J\",\"89\"
\"\",\"\",\"approach-retreat\",\"93\",\"1137387\",\"0.0-93.0\",\"\",\"\",\"3-5\",\"4775\",\"39\",\"0\",\"Training\",\"Stims/Figures/74-J-10-4.bmp\",\"None\",\"Right\",\"37\",\"6\",\"10\",\"10\",\"N\",\"J\",\"90\"
\"\",\"\",\"approach-retreat\",\"94\",\"1144165\",\"0.0-94.0\",\"\",\"\",\"3-5\",\"5266\",\"38\",\"1\",\"Training\",\"Stims/Figures/74-C-20-4.bmp\",\"None\",\"Up\",\"38\",\"6\",\"11\",\"10\",\"N\",\"J\",\"91\"
\"\",\"\",\"approach-retreat\",\"95\",\"1150123\",\"0.0-95.0\",\"\",\"\",\"3-5\",\"4445\",\"38\",\"0\",\"Training\",\"Stims/Figures/27-J-0-1.bmp\",\"None\",\"Up\",\"40\",\"6\",\"12\",\"10\",\"N\",\"J\",\"92\"
\"\",\"\",\"approach-retreat\",\"96\",\"1156066\",\"0.0-96.0\",\"\",\"\",\"3-5\",\"4433\",\"39\",\"1\",\"Training\",\"Stims/Figures/102-J-10-4.bmp\",\"None\",\"Left\",\"39\",\"6\",\"13\",\"10\",\"N\",\"J\",\"93\"
\"\",\"\",\"approach-retreat\",\"97\",\"1162669\",\"0.0-97.0\",\"\",\"\",\"3-5\",\"5088\",\"37\",\"0\",\"Training\",\"Stims/Figures/144-C-30-3.bmp\",\"None\",\"Right\",\"39\",\"6\",\"14\",\"10\",\"N\",\"J\",\"94\"
\"\",\"\",\"approach-retreat\",\"98\",\"1168330\",\"0.0-98.0\",\"\",\"\",\"3-5\",\"4145\",\"37\",\"0\",\"Training\",\"Stims/Figures/118-C-20-2.bmp\",\"None\",\"Right\",\"39\",\"6\",\"15\",\"10\",\"N\",\"J\",\"95\"
\"\",\"\",\"approach-retreat\",\"99\",\"1175385\",\"0.0-99.0\",\"\",\"\",\"3-5\",\"5539\",\"39\",\"1\",\"Training\",\"Stims/Figures/94-J-0-2.bmp\",\"None\",\"Left\",\"39\",\"6\",\"16\",\"10\",\"N\",\"J\",\"96\"
\"\",\"\",\"approach-retreat\",\"100\",\"1182496\",\"0.0-100.0\",\"\",\"\",\"3-5\",\"5596\",\"38\",\"0\",\"Training\",\"Stims/Figures/27-C-30-1.bmp\",\"None\",\"Down\",\"40\",\"7\",\"1\",\"10\",\"N\",\"J\",\"97\"
\"\",\"\",\"approach-retreat\",\"101\",\"1188090\",\"0.0-101.0\",\"\",\"\",\"3-5\",\"4086\",\"40\",\"1\",\"Training\",\"Stims/Figures/74-C-20-4.bmp\",\"None\",\"Down\",\"40\",\"7\",\"2\",\"10\",\"N\",\"J\",\"98\"
\"\",\"\",\"approach-retreat\",\"102\",\"1193890\",\"0.0-102.0\",\"\",\"\",\"3-5\",\"4289\",\"40\",\"1\",\"Training\",\"Stims/Figures/111-J-10-3.bmp\",\"None\",\"Up\",\"40\",\"7\",\"3\",\"10\",\"N\",\"J\",\"99\"
\"\",\"\",\"approach-retreat\",\"103\",\"1199595\",\"0.0-103.0\",\"\",\"\",\"3-5\",\"4189\",\"38\",\"1\",\"Training\",\"Stims/Figures/118-J-0-2.bmp\",\"None\",\"Down\",\"38\",\"7\",\"4\",\"10\",\"N\",\"J\",\"100\"
\"\",\"\",\"approach-retreat\",\"104\",\"1205745\",\"0.0-104.0\",\"\",\"\",\"3-5\",\"4640\",\"38\",\"0\",\"Training\",\"Stims/Figures/94-J-0-2.bmp\",\"None\",\"Up\",\"40\",\"7\",\"5\",\"10\",\"N\",\"J\",\"101\"
\"\",\"\",\"approach-retreat\",\"105\",\"1211567\",\"0.0-105.0\",\"\",\"\",\"3-5\",\"4306\",\"38\",\"0\",\"Training\",\"Stims/Figures/144-C-30-3.bmp\",\"None\",\"Down\",\"40\",\"7\",\"6\",\"10\",\"N\",\"J\",\"102\"
\"\",\"\",\"approach-retreat\",\"106\",\"1217955\",\"0.0-106.0\",\"\",\"\",\"3-5\",\"4879\",\"37\",\"1\",\"Training\",\"Stims/Figures/27-J-0-1.bmp\",\"None\",\"Right\",\"37\",\"7\",\"7\",\"10\",\"N\",\"J\",\"103\"
\"\",\"\",\"approach-retreat\",\"107\",\"1224576\",\"0.0-107.0\",\"\",\"\",\"3-5\",\"5110\",\"39\",\"0\",\"Training\",\"Stims/Figures/111-C-30-3.bmp\",\"None\",\"Left\",\"37\",\"7\",\"8\",\"10\",\"N\",\"J\",\"104\"
\"\",\"\",\"approach-retreat\",\"108\",\"1230297\",\"0.0-108.0\",\"\",\"\",\"3-5\",\"4214\",\"39\",\"1\",\"Training\",\"Stims/Figures/74-J-10-4.bmp\",\"None\",\"Left\",\"39\",\"7\",\"9\",\"10\",\"N\",\"J\",\"105\"
\"\",\"\",\"approach-retreat\",\"109\",\"1236449\",\"0.0-109.0\",\"\",\"\",\"3-5\",\"4642\",\"37\",\"0\",\"Training\",\"Stims/Figures/86-C-30-1.bmp\",\"None\",\"Right\",\"39\",\"7\",\"10\",\"10\",\"N\",\"J\",\"106\"
\"\",\"\",\"approach-retreat\",\"110\",\"1242366\",\"0.0-110.0\",\"\",\"\",\"3-5\",\"4406\",\"39\",\"1\",\"Training\",\"Stims/Figures/144-J-10-3.bmp\",\"None\",\"Left\",\"39\",\"7\",\"11\",\"10\",\"N\",\"J\",\"107\"
\"\",\"\",\"approach-retreat\",\"111\",\"1248263\",\"0.0-111.0\",\"\",\"\",\"3-5\",\"4388\",\"39\",\"0\",\"Training\",\"Stims/Figures/102-C-20-4.bmp\",\"None\",\"Left\",\"37\",\"7\",\"12\",\"10\",\"N\",\"J\",\"108\"
\"\",\"\",\"approach-retreat\",\"112\",\"1254320\",\"0.0-112.0\",\"\",\"\",\"3-5\",\"4547\",\"40\",\"0\",\"Training\",\"Stims/Figures/118-C-20-2.bmp\",\"None\",\"Up\",\"38\",\"7\",\"13\",\"10\",\"N\",\"J\",\"109\"
\"\",\"\",\"approach-retreat\",\"113\",\"1260040\",\"0.0-113.0\",\"\",\"\",\"3-5\",\"4212\",\"40\",\"1\",\"Training\",\"Stims/Figures/86-J-0-1.bmp\",\"None\",\"Up\",\"40\",\"7\",\"14\",\"10\",\"N\",\"J\",\"110\"
\"\",\"\",\"approach-retreat\",\"114\",\"1265688\",\"0.0-114.0\",\"\",\"\",\"3-5\",\"4137\",\"37\",\"1\",\"Training\",\"Stims/Figures/102-J-10-4.bmp\",\"None\",\"Right\",\"37\",\"7\",\"15\",\"10\",\"N\",\"J\",\"111\"
\"\",\"\",\"approach-retreat\",\"115\",\"1271695\",\"0.0-115.0\",\"\",\"\",\"3-5\",\"4498\",\"37\",\"0\",\"Training\",\"Stims/Figures/94-C-20-2.bmp\",\"None\",\"Right\",\"39\",\"7\",\"16\",\"10\",\"N\",\"J\",\"112\"
\"\",\"\",\"approach-retreat\",\"116\",\"1277835\",\"0.0-116.0\",\"\",\"\",\"3-5\",\"4631\",\"40\",\"0\",\"Training\",\"Stims/Figures/118-C-20-2.bmp\",\"None\",\"Up\",\"38\",\"8\",\"1\",\"10\",\"N\",\"J\",\"113\"
\"\",\"\",\"approach-retreat\",\"117\",\"1284309\",\"0.0-117.0\",\"\",\"\",\"3-5\",\"4964\",\"39\",\"1\",\"Training\",\"Stims/Figures/144-J-10-3.bmp\",\"None\",\"Left\",\"39\",\"8\",\"2\",\"10\",\"N\",\"J\",\"114\"
\"\",\"\",\"approach-retreat\",\"118\",\"1290183\",\"0.0-118.0\",\"\",\"\",\"3-5\",\"4360\",\"38\",\"1\",\"Training\",\"Stims/Figures/27-J-0-1.bmp\",\"None\",\"Down\",\"38\",\"8\",\"3\",\"10\",\"N\",\"J\",\"115\"
\"\",\"\",\"approach-retreat\",\"119\",\"1295849\",\"0.0-119.0\",\"\",\"\",\"3-5\",\"4153\",\"38\",\"0\",\"Training\",\"Stims/Figures/102-C-20-4.bmp\",\"None\",\"Down\",\"40\",\"8\",\"4\",\"10\",\"N\",\"J\",\"116\"
\"\",\"\",\"approach-retreat\",\"120\",\"1301742\",\"0.0-120.0\",\"\",\"\",\"3-5\",\"4385\",\"39\",\"0\",\"Training\",\"Stims/Figures/27-C-30-1.bmp\",\"None\",\"Left\",\"37\",\"8\",\"5\",\"10\",\"N\",\"J\",\"117\"
\"\",\"\",\"approach-retreat\",\"121\",\"1308175\",\"0.0-121.0\",\"\",\"\",\"3-5\",\"4914\",\"40\",\"1\",\"Training\",\"Stims/Figures/102-J-10-4.bmp\",\"None\",\"Up\",\"40\",\"8\",\"6\",\"10\",\"N\",\"J\",\"118\"
\"\",\"\",\"approach-retreat\",\"122\",\"1315229\",\"0.0-122.0\",\"\",\"\",\"3-5\",\"5546\",\"39\",\"1\",\"Training\",\"Stims/Figures/94-C-20-2.bmp\",\"None\",\"Right\",\"39\",\"8\",\"7\",\"10\",\"N\",\"J\",\"119\"
\"\",\"\",\"approach-retreat\",\"123\",\"1320839\",\"0.0-123.0\",\"\",\"\",\"3-5\",\"4099\",\"38\",\"1\",\"Training\",\"Stims/Figures/118-J-0-2.bmp\",\"None\",\"Down\",\"38\",\"8\",\"8\",\"10\",\"N\",\"J\",\"120\"
\"\",\"\",\"approach-retreat\",\"124\",\"1326495\",\"0.0-124.0\",\"\",\"\",\"3-5\",\"4147\",\"40\",\"0\",\"Training\",\"Stims/Figures/111-C-30-3.bmp\",\"None\",\"Up\",\"38\",\"8\",\"9\",\"10\",\"N\",\"J\",\"121\"
\"\",\"\",\"approach-retreat\",\"125\",\"1332503\",\"0.0-125.0\",\"\",\"\",\"3-5\",\"4499\",\"40\",\"0\",\"Training\",\"Stims/Figures/74-C-20-4.bmp\",\"None\",\"Up\",\"38\",\"8\",\"10\",\"10\",\"N\",\"J\",\"122\"
\"\",\"\",\"approach-retreat\",\"126\",\"1338148\",\"0.0-126.0\",\"\",\"\",\"3-5\",\"4136\",\"37\",\"0\",\"Training\",\"Stims/Figures/144-C-30-3.bmp\",\"None\",\"Right\",\"39\",\"8\",\"11\",\"10\",\"N\",\"J\",\"123\"
\"\",\"\",\"approach-retreat\",\"127\",\"1344755\",\"0.0-127.0\",\"\",\"\",\"3-5\",\"5098\",\"37\",\"0\",\"Training\",\"Stims/Figures/86-J-0-1.bmp\",\"None\",\"Left\",\"39\",\"8\",\"12\",\"10\",\"N\",\"J\",\"124\"
\"\",\"\",\"approach-retreat\",\"128\",\"1350523\",\"0.0-128.0\",\"\",\"\",\"3-5\",\"4259\",\"40\",\"0\",\"Training\",\"Stims/Figures/111-J-10-3.bmp\",\"None\",\"Down\",\"38\",\"8\",\"13\",\"10\",\"N\",\"J\",\"125\"
\"\",\"\",\"approach-retreat\",\"129\",\"1356183\",\"0.0-129.0\",\"\",\"\",\"3-5\",\"4144\",\"39\",\"0\",\"Training\",\"Stims/Figures/86-C-30-1.bmp\",\"None\",\"Left\",\"37\",\"8\",\"14\",\"10\",\"N\",\"J\",\"126\"
\"\",\"\",\"approach-retreat\",\"130\",\"1361925\",\"0.0-130.0\",\"\",\"\",\"3-5\",\"4226\",\"37\",\"1\",\"Training\",\"Stims/Figures/74-J-10-4.bmp\",\"None\",\"Right\",\"37\",\"8\",\"15\",\"10\",\"N\",\"J\",\"127\"
\"\",\"\",\"approach-retreat\",\"131\",\"1368230\",\"0.0-131.0\",\"\",\"\",\"3-5\",\"4784\",\"37\",\"1\",\"Training\",\"Stims/Figures/94-J-0-2.bmp\",\"None\",\"Right\",\"37\",\"8\",\"16\",\"10\",\"N\",\"J\",\"128\"
\"\",\"\",\"approach-retreat\",\"132\",\"1373967\",\"0.0-132.0\",\"\",\"\",\"3-5\",\"4225\",\"37\",\"1\",\"Training\",\"Stims/Figures/74-J-10-4.bmp\",\"None\",\"Right\",\"37\",\"9\",\"1\",\"10\",\"N\",\"J\",\"129\"
\"\",\"\",\"approach-retreat\",\"133\",\"1381621\",\"0.0-133.0\",\"\",\"\",\"3-5\",\"6143\",\"38\",\"1\",\"Training\",\"Stims/Figures/111-C-30-3.bmp\",\"None\",\"Up\",\"38\",\"9\",\"2\",\"10\",\"N\",\"J\",\"130\"
\"\",\"\",\"approach-retreat\",\"134\",\"1387599\",\"0.0-134.0\",\"\",\"\",\"3-5\",\"4467\",\"37\",\"1\",\"Training\",\"Stims/Figures/102-J-10-4.bmp\",\"None\",\"Right\",\"37\",\"9\",\"3\",\"10\",\"N\",\"J\",\"131\"
\"\",\"\",\"approach-retreat\",\"135\",\"1393304\",\"0.0-135.0\",\"\",\"\",\"3-5\",\"4192\",\"38\",\"0\",\"Training\",\"Stims/Figures/94-J-0-2.bmp\",\"None\",\"Up\",\"40\",\"9\",\"4\",\"10\",\"N\",\"J\",\"132\"
\"\",\"\",\"approach-retreat\",\"136\",\"1399245\",\"0.0-136.0\",\"\",\"\",\"3-5\",\"4431\",\"39\",\"1\",\"Training\",\"Stims/Figures/86-J-0-1.bmp\",\"None\",\"Left\",\"39\",\"9\",\"5\",\"10\",\"N\",\"J\",\"133\"
\"\",\"\",\"approach-retreat\",\"137\",\"1405313\",\"0.0-137.0\",\"\",\"\",\"3-5\",\"4541\",\"39\",\"0\",\"Training\",\"Stims/Figures/94-C-20-2.bmp\",\"None\",\"Left\",\"37\",\"9\",\"6\",\"10\",\"N\",\"J\",\"134\"
\"\",\"\",\"approach-retreat\",\"138\",\"1410934\",\"0.0-138.0\",\"\",\"\",\"3-5\",\"4111\",\"39\",\"0\",\"Training\",\"Stims/Figures/27-C-30-1.bmp\",\"None\",\"Left\",\"37\",\"9\",\"7\",\"10\",\"N\",\"J\",\"135\"
\"\",\"\",\"approach-retreat\",\"139\",\"1423415\",\"0.0-139.0\",\"\",\"\",\"3-5\",\"10967\",\"38\",\"1\",\"Training\",\"Stims/Figures/111-J-10-3.bmp\",\"None\",\"Down\",\"38\",\"9\",\"8\",\"10\",\"N\",\"J\",\"136\"
\"\",\"\",\"approach-retreat\",\"140\",\"1428941\",\"0.0-140.0\",\"\",\"\",\"3-5\",\"4015\",\"38\",\"1\",\"Training\",\"Stims/Figures/118-J-0-2.bmp\",\"None\",\"Down\",\"38\",\"9\",\"9\",\"10\",\"N\",\"J\",\"137\"
\"\",\"\",\"approach-retreat\",\"141\",\"1436072\",\"0.0-141.0\",\"\",\"\",\"3-5\",\"5622\",\"40\",\"0\",\"Training\",\"Stims/Figures/74-C-20-4.bmp\",\"None\",\"Up\",\"38\",\"9\",\"10\",\"10\",\"N\",\"J\",\"138\"
\"\",\"\",\"approach-retreat\",\"142\",\"1441960\",\"0.0-142.0\",\"\",\"\",\"3-5\",\"4379\",\"39\",\"0\",\"Training\",\"Stims/Figures/144-C-30-3.bmp\",\"None\",\"Left\",\"37\",\"9\",\"11\",\"10\",\"N\",\"J\",\"139\"
\"\",\"\",\"approach-retreat\",\"143\",\"1448167\",\"0.0-143.0\",\"\",\"\",\"3-5\",\"4698\",\"40\",\"1\",\"Training\",\"Stims/Figures/102-C-20-4.bmp\",\"None\",\"Down\",\"40\",\"9\",\"12\",\"10\",\"N\",\"J\",\"140\"
\"\",\"\",\"approach-retreat\",\"144\",\"1455120\",\"0.0-144.0\",\"\",\"\",\"3-5\",\"5444\",\"38\",\"0\",\"Training\",\"Stims/Figures/27-J-0-1.bmp\",\"None\",\"Up\",\"40\",\"9\",\"13\",\"10\",\"N\",\"J\",\"141\"
\"\",\"\",\"approach-retreat\",\"145\",\"1460857\",\"0.0-145.0\",\"\",\"\",\"3-5\",\"4222\",\"37\",\"0\",\"Training\",\"Stims/Figures/86-C-30-1.bmp\",\"None\",\"Right\",\"39\",\"9\",\"14\",\"10\",\"N\",\"J\",\"142\"
\"\",\"\",\"approach-retreat\",\"146\",\"1466351\",\"0.0-146.0\",\"\",\"\",\"3-5\",\"3985\",\"38\",\"0\",\"Training\",\"Stims/Figures/118-C-20-2.bmp\",\"None\",\"Down\",\"40\",\"9\",\"15\",\"10\",\"N\",\"J\",\"143\"
\"\",\"\",\"approach-retreat\",\"147\",\"1472079\",\"0.0-147.0\",\"\",\"\",\"3-5\",\"4215\",\"39\",\"0\",\"Training\",\"Stims/Figures/144-J-10-3.bmp\",\"None\",\"Right\",\"37\",\"9\",\"16\",\"10\",\"N\",\"J\",\"144\"
\"16023\",\"\",\"instructions\",\"148\",\"1488104\",\"0.0-148.0\",\"[{\"\"page_index\"\":0,\"\"viewing_time\"\":16023}]\",\"\",\"\",\"\",\"\",\"\",\"\",\"\",\"\",\"\",\"\",\"\",\"\",\"\",\"\",\"\",\"\"
\"\",\"\",\"approach-retreat\",\"149\",\"1496423\",\"0.0-149.0\",\"\",\"\",\"3-5\",\"6811\",\"39\",\"1\",\"Testing\",\"Stims/Figures/86-C-30-1.bmp\",\"None\",\"Right\",\"39\",\"1\",\"1\",\"10\",\"N\",\"J\",\"1\"
\"\",\"\",\"approach-retreat\",\"150\",\"1502582\",\"0.0-150.0\",\"\",\"\",\"3-5\",\"4644\",\"37\",\"0\",\"Testing\",\"Stims/Figures/85-J-0-2.bmp\",\"None\",\"Left\",\"39\",\"1\",\"2\",\"10\",\"N\",\"J\",\"2\"
\"\",\"\",\"approach-retreat\",\"151\",\"1508472\",\"0.0-151.0\",\"\",\"\",\"3-5\",\"4380\",\"38\",\"1\",\"Testing\",\"Stims/Figures/118-J-0-2.bmp\",\"None\",\"Down\",\"38\",\"1\",\"3\",\"10\",\"N\",\"J\",\"3\"
\"\",\"\",\"approach-retreat\",\"152\",\"1515053\",\"0.0-152.0\",\"\",\"\",\"3-5\",\"5072\",\"40\",\"0\",\"Testing\",\"Stims/Figures/118-C-20-2.bmp\",\"None\",\"Up\",\"38\",\"1\",\"4\",\"10\",\"N\",\"J\",\"4\"
\"\",\"\",\"approach-retreat\",\"153\",\"1520722\",\"0.0-153.0\",\"\",\"\",\"3-5\",\"4161\",\"37\",\"1\",\"Testing\",\"Stims/Figures/57-J-0-1.bmp\",\"None\",\"Right\",\"37\",\"1\",\"5\",\"10\",\"N\",\"J\",\"5\"
\"\",\"\",\"approach-retreat\",\"154\",\"1528421\",\"0.0-154.0\",\"\",\"\",\"3-5\",\"6187\",\"39\",\"1\",\"Testing\",\"Stims/Figures/111-J-10-3.bmp\",\"None\",\"Left\",\"39\",\"1\",\"6\",\"10\",\"N\",\"J\",\"6\"
\"\",\"\",\"approach-retreat\",\"155\",\"1534623\",\"0.0-155.0\",\"\",\"\",\"3-5\",\"4693\",\"40\",\"0\",\"Testing\",\"Stims/Figures/102-C-20-4.bmp\",\"None\",\"Up\",\"38\",\"1\",\"7\",\"10\",\"N\",\"J\",\"7\"
\"\",\"\",\"approach-retreat\",\"156\",\"1540247\",\"0.0-156.0\",\"\",\"\",\"3-5\",\"4116\",\"38\",\"0\",\"Testing\",\"Stims/Figures/94-C-20-2.bmp\",\"None\",\"Down\",\"40\",\"1\",\"8\",\"10\",\"N\",\"J\",\"8\"
\"\",\"\",\"approach-retreat\",\"157\",\"1554638\",\"0.0-157.0\",\"\",\"\",\"3-5\",\"12880\",\"38\",\"1\",\"Testing\",\"Stims/Figures/86-J-0-1.bmp\",\"None\",\"Down\",\"38\",\"1\",\"9\",\"10\",\"N\",\"J\",\"9\"
\"\",\"\",\"approach-retreat\",\"158\",\"1562256\",\"0.0-158.0\",\"\",\"\",\"3-5\",\"6108\",\"37\",\"1\",\"Testing\",\"Stims/Figures/27-C-30-1.bmp\",\"None\",\"Left\",\"37\",\"1\",\"10\",\"10\",\"N\",\"J\",\"10\"
\"\",\"\",\"approach-retreat\",\"159\",\"1567989\",\"0.0-159.0\",\"\",\"\",\"3-5\",\"4224\",\"38\",\"1\",\"Testing\",\"Stims/Figures/7-C-20-4.bmp\",\"None\",\"Up\",\"38\",\"1\",\"11\",\"10\",\"N\",\"J\",\"11\"
\"\",\"\",\"approach-retreat\",\"160\",\"1573764\",\"0.0-160.0\",\"\",\"\",\"3-5\",\"4266\",\"37\",\"0\",\"Testing\",\"Stims/Figures/7-J-10-4.bmp\",\"None\",\"Left\",\"39\",\"1\",\"12\",\"10\",\"N\",\"J\",\"12\"
\"\",\"\",\"approach-retreat\",\"161\",\"1579658\",\"0.0-161.0\",\"\",\"\",\"3-5\",\"4384\",\"40\",\"0\",\"Testing\",\"Stims/Figures/74-J-10-4.bmp\",\"None\",\"Down\",\"38\",\"1\",\"13\",\"10\",\"N\",\"J\",\"13\"
\"\",\"\",\"approach-retreat\",\"162\",\"1585531\",\"0.0-162.0\",\"\",\"\",\"3-5\",\"4365\",\"37\",\"1\",\"Testing\",\"Stims/Figures/27-J-0-1.bmp\",\"None\",\"Right\",\"37\",\"1\",\"14\",\"10\",\"N\",\"J\",\"14\"
\"\",\"\",\"approach-retreat\",\"163\",\"1591363\",\"0.0-163.0\",\"\",\"\",\"3-5\",\"4322\",\"38\",\"0\",\"Testing\",\"Stims/Figures/85-C-20-2.bmp\",\"None\",\"Down\",\"40\",\"1\",\"15\",\"10\",\"N\",\"J\",\"15\"
\"\",\"\",\"approach-retreat\",\"164\",\"1598282\",\"0.0-164.0\",\"\",\"\",\"3-5\",\"5410\",\"39\",\"1\",\"Testing\",\"Stims/Figures/102-J-10-4.bmp\",\"None\",\"Left\",\"39\",\"1\",\"16\",\"10\",\"N\",\"J\",\"16\"
\"\",\"\",\"approach-retreat\",\"165\",\"1603977\",\"0.0-165.0\",\"\",\"\",\"3-5\",\"4185\",\"37\",\"1\",\"Testing\",\"Stims/Figures/128-J-10-3.bmp\",\"None\",\"Right\",\"37\",\"1\",\"17\",\"10\",\"N\",\"J\",\"17\"
\"\",\"\",\"approach-retreat\",\"166\",\"1611223\",\"0.0-166.0\",\"\",\"\",\"3-5\",\"5726\",\"40\",\"1\",\"Testing\",\"Stims/Figures/144-J-10-3.bmp\",\"None\",\"Up\",\"40\",\"1\",\"18\",\"10\",\"N\",\"J\",\"18\"
\"\",\"\",\"approach-retreat\",\"167\",\"1616805\",\"0.0-167.0\",\"\",\"\",\"3-5\",\"4070\",\"40\",\"1\",\"Testing\",\"Stims/Figures/94-J-0-2.bmp\",\"None\",\"Up\",\"40\",\"1\",\"19\",\"10\",\"N\",\"J\",\"19\"
\"\",\"\",\"approach-retreat\",\"168\",\"1623098\",\"0.0-168.0\",\"\",\"\",\"3-5\",\"4785\",\"40\",\"0\",\"Testing\",\"Stims/Figures/74-C-20-4.bmp\",\"None\",\"Up\",\"38\",\"1\",\"20\",\"10\",\"N\",\"J\",\"20\"
\"\",\"\",\"approach-retreat\",\"169\",\"1629184\",\"0.0-169.0\",\"\",\"\",\"3-5\",\"4573\",\"37\",\"1\",\"Testing\",\"Stims/Figures/57-C-30-1.bmp\",\"None\",\"Left\",\"37\",\"1\",\"21\",\"10\",\"N\",\"J\",\"21\"
\"\",\"\",\"approach-retreat\",\"170\",\"1634949\",\"0.0-170.0\",\"\",\"\",\"3-5\",\"4250\",\"40\",\"1\",\"Testing\",\"Stims/Figures/144-C-30-3.bmp\",\"None\",\"Down\",\"40\",\"1\",\"22\",\"10\",\"N\",\"J\",\"22\"
\"\",\"\",\"approach-retreat\",\"171\",\"1640655\",\"0.0-171.0\",\"\",\"\",\"3-5\",\"4197\",\"37\",\"0\",\"Testing\",\"Stims/Figures/111-C-30-3.bmp\",\"None\",\"Right\",\"39\",\"1\",\"23\",\"10\",\"N\",\"J\",\"23\"
\"\",\"\",\"approach-retreat\",\"172\",\"1646866\",\"0.0-172.0\",\"\",\"\",\"3-5\",\"4703\",\"37\",\"0\",\"Testing\",\"Stims/Figures/128-C-30-3.bmp\",\"None\",\"Right\",\"39\",\"1\",\"24\",\"10\",\"N\",\"J\",\"24\"
\"\",\"\",\"approach-retreat\",\"173\",\"1652634\",\"0.0-173.0\",\"\",\"\",\"3-5\",\"4255\",\"39\",\"1\",\"Testing\",\"Stims/Figures/74-J-10-4.bmp\",\"None\",\"Left\",\"39\",\"2\",\"1\",\"10\",\"N\",\"J\",\"25\"
\"\",\"\",\"approach-retreat\",\"174\",\"1658108\",\"0.0-174.0\",\"\",\"\",\"3-5\",\"3965\",\"40\",\"1\",\"Testing\",\"Stims/Figures/86-J-0-1.bmp\",\"None\",\"Up\",\"40\",\"2\",\"2\",\"10\",\"N\",\"J\",\"26\"
\"\",\"\",\"approach-retreat\",\"175\",\"1663754\",\"0.0-175.0\",\"\",\"\",\"3-5\",\"4135\",\"38\",\"0\",\"Testing\",\"Stims/Figures/144-C-30-3.bmp\",\"None\",\"Down\",\"40\",\"2\",\"3\",\"10\",\"N\",\"J\",\"27\"
\"\",\"\",\"approach-retreat\",\"176\",\"1669316\",\"0.0-176.0\",\"\",\"\",\"3-5\",\"4053\",\"39\",\"1\",\"Testing\",\"Stims/Figures/111-J-10-3.bmp\",\"None\",\"Left\",\"39\",\"2\",\"4\",\"10\",\"N\",\"J\",\"28\"
\"\",\"\",\"approach-retreat\",\"177\",\"1676115\",\"0.0-177.0\",\"\",\"\",\"3-5\",\"5290\",\"40\",\"1\",\"Testing\",\"Stims/Figures/85-C-20-2.bmp\",\"None\",\"Down\",\"40\",\"2\",\"5\",\"10\",\"N\",\"J\",\"29\"
\"\",\"\",\"approach-retreat\",\"178\",\"1684539\",\"0.0-178.0\",\"\",\"\",\"3-5\",\"6916\",\"37\",\"1\",\"Testing\",\"Stims/Figures/144-J-10-3.bmp\",\"None\",\"Right\",\"37\",\"2\",\"6\",\"10\",\"N\",\"J\",\"30\"
\"\",\"\",\"approach-retreat\",\"179\",\"1690642\",\"0.0-179.0\",\"\",\"\",\"3-5\",\"4590\",\"39\",\"1\",\"Testing\",\"Stims/Figures/7-C-20-4.bmp\",\"None\",\"Right\",\"39\",\"2\",\"7\",\"10\",\"N\",\"J\",\"31\"
\"\",\"\",\"approach-retreat\",\"180\",\"1698386\",\"0.0-180.0\",\"\",\"\",\"3-5\",\"6234\",\"39\",\"0\",\"Testing\",\"Stims/Figures/102-C-20-4.bmp\",\"None\",\"Left\",\"37\",\"2\",\"8\",\"10\",\"N\",\"J\",\"32\"
\"\",\"\",\"approach-retreat\",\"181\",\"1704647\",\"0.0-181.0\",\"\",\"\",\"3-5\",\"4749\",\"37\",\"0\",\"Testing\",\"Stims/Figures/27-C-30-1.bmp\",\"None\",\"Right\",\"39\",\"2\",\"9\",\"10\",\"N\",\"J\",\"33\"
\"\",\"\",\"approach-retreat\",\"182\",\"1713662\",\"0.0-182.0\",\"\",\"\",\"3-5\",\"7500\",\"40\",\"0\",\"Testing\",\"Stims/Figures/94-C-20-2.bmp\",\"None\",\"Up\",\"38\",\"2\",\"10\",\"10\",\"N\",\"J\",\"34\"
\"\",\"\",\"approach-retreat\",\"183\",\"1720384\",\"0.0-183.0\",\"\",\"\",\"3-5\",\"5203\",\"37\",\"1\",\"Testing\",\"Stims/Figures/118-J-0-2.bmp\",\"None\",\"Right\",\"37\",\"2\",\"11\",\"10\",\"N\",\"J\",\"35\"
\"\",\"\",\"approach-retreat\",\"184\",\"1726648\",\"0.0-184.0\",\"\",\"\",\"3-5\",\"4754\",\"38\",\"1\",\"Testing\",\"Stims/Figures/57-J-0-1.bmp\",\"None\",\"Down\",\"38\",\"2\",\"12\",\"10\",\"N\",\"J\",\"36\"
\"\",\"\",\"approach-retreat\",\"185\",\"1732228\",\"0.0-185.0\",\"\",\"\",\"3-5\",\"4068\",\"40\",\"1\",\"Testing\",\"Stims/Figures/57-C-30-1.bmp\",\"None\",\"Down\",\"40\",\"2\",\"13\",\"10\",\"N\",\"J\",\"37\"
\"\",\"\",\"approach-retreat\",\"186\",\"1738376\",\"0.0-186.0\",\"\",\"\",\"3-5\",\"4640\",\"40\",\"0\",\"Testing\",\"Stims/Figures/111-C-30-3.bmp\",\"None\",\"Up\",\"38\",\"2\",\"14\",\"10\",\"N\",\"J\",\"38\"
\"\",\"\",\"approach-retreat\",\"187\",\"1745319\",\"0.0-187.0\",\"\",\"\",\"3-5\",\"5424\",\"37\",\"0\",\"Testing\",\"Stims/Figures/128-C-30-3.bmp\",\"None\",\"Right\",\"39\",\"2\",\"15\",\"10\",\"N\",\"J\",\"39\"
\"\",\"\",\"approach-retreat\",\"188\",\"1750935\",\"0.0-188.0\",\"\",\"\",\"3-5\",\"4095\",\"39\",\"0\",\"Testing\",\"Stims/Figures/86-C-30-1.bmp\",\"None\",\"Left\",\"37\",\"2\",\"16\",\"10\",\"N\",\"J\",\"40\"
\"\",\"\",\"approach-retreat\",\"189\",\"1759151\",\"0.0-189.0\",\"\",\"\",\"3-5\",\"6705\",\"39\",\"0\",\"Testing\",\"Stims/Figures/74-C-20-4.bmp\",\"None\",\"Left\",\"37\",\"2\",\"17\",\"10\",\"N\",\"J\",\"41\"
\"\",\"\",\"approach-retreat\",\"190\",\"1765810\",\"0.0-190.0\",\"\",\"\",\"3-5\",\"5150\",\"39\",\"1\",\"Testing\",\"Stims/Figures/27-J-0-1.bmp\",\"None\",\"Left\",\"39\",\"2\",\"18\",\"10\",\"N\",\"J\",\"42\"
\"\",\"\",\"approach-retreat\",\"191\",\"1771746\",\"0.0-191.0\",\"\",\"\",\"3-5\",\"4426\",\"40\",\"0\",\"Testing\",\"Stims/Figures/128-J-10-3.bmp\",\"None\",\"Down\",\"38\",\"2\",\"19\",\"10\",\"N\",\"J\",\"43\"
\"\",\"\",\"approach-retreat\",\"192\",\"1777303\",\"0.0-192.0\",\"\",\"\",\"3-5\",\"4048\",\"40\",\"1\",\"Testing\",\"Stims/Figures/85-J-0-2.bmp\",\"None\",\"Up\",\"40\",\"2\",\"20\",\"10\",\"N\",\"J\",\"44\"
\"\",\"\",\"approach-retreat\",\"193\",\"1782859\",\"0.0-193.0\",\"\",\"\",\"3-5\",\"4045\",\"40\",\"0\",\"Testing\",\"Stims/Figures/118-C-20-2.bmp\",\"None\",\"Up\",\"38\",\"2\",\"21\",\"10\",\"N\",\"J\",\"45\"
\"\",\"\",\"approach-retreat\",\"194\",\"1791625\",\"0.0-194.0\",\"\",\"\",\"3-5\",\"7255\",\"38\",\"1\",\"Testing\",\"Stims/Figures/102-J-10-4.bmp\",\"None\",\"Down\",\"38\",\"2\",\"22\",\"10\",\"N\",\"J\",\"46\"
\"\",\"\",\"approach-retreat\",\"195\",\"1797184\",\"0.0-195.0\",\"\",\"\",\"3-5\",\"4047\",\"40\",\"1\",\"Testing\",\"Stims/Figures/7-J-10-4.bmp\",\"None\",\"Up\",\"40\",\"2\",\"23\",\"10\",\"N\",\"J\",\"47\"
\"\",\"\",\"approach-retreat\",\"196\",\"1804418\",\"0.0-196.0\",\"\",\"\",\"3-5\",\"5724\",\"37\",\"1\",\"Testing\",\"Stims/Figures/94-J-0-2.bmp\",\"None\",\"Right\",\"37\",\"2\",\"24\",\"10\",\"N\",\"J\",\"48\"
\"\",\"\",\"approach-retreat\",\"197\",\"1810091\",\"0.0-197.0\",\"\",\"\",\"3-5\",\"4165\",\"38\",\"1\",\"Testing\",\"Stims/Figures/118-C-20-2.bmp\",\"None\",\"Up\",\"38\",\"3\",\"1\",\"10\",\"N\",\"J\",\"49\"
\"\",\"\",\"approach-retreat\",\"198\",\"1816256\",\"0.0-198.0\",\"\",\"\",\"3-5\",\"4655\",\"37\",\"0\",\"Testing\",\"Stims/Figures/94-C-20-2.bmp\",\"None\",\"Right\",\"39\",\"3\",\"2\",\"10\",\"N\",\"J\",\"50\"
\"\",\"\",\"approach-retreat\",\"199\",\"1822433\",\"0.0-199.0\",\"\",\"\",\"3-5\",\"4667\",\"37\",\"0\",\"Testing\",\"Stims/Figures/102-C-20-4.bmp\",\"None\",\"Right\",\"39\",\"3\",\"3\",\"10\",\"N\",\"J\",\"51\"
\"\",\"\",\"approach-retreat\",\"200\",\"1829599\",\"0.0-200.0\",\"\",\"\",\"3-5\",\"5657\",\"40\",\"0\",\"Testing\",\"Stims/Figures/27-C-30-1.bmp\",\"None\",\"Up\",\"38\",\"3\",\"4\",\"10\",\"N\",\"J\",\"52\"
\"\",\"\",\"approach-retreat\",\"201\",\"1835816\",\"0.0-201.0\",\"\",\"\",\"3-5\",\"4706\",\"39\",\"0\",\"Testing\",\"Stims/Figures/74-C-20-4.bmp\",\"None\",\"Left\",\"37\",\"3\",\"5\",\"10\",\"N\",\"J\",\"53\"
\"\",\"\",\"approach-retreat\",\"202\",\"1841735\",\"0.0-202.0\",\"\",\"\",\"3-5\",\"4412\",\"38\",\"0\",\"Testing\",\"Stims/Figures/128-C-30-3.bmp\",\"None\",\"Down\",\"40\",\"3\",\"6\",\"10\",\"N\",\"J\",\"54\"
\"\",\"\",\"approach-retreat\",\"203\",\"1846855\",\"0.0-203.0\",\"\",\"\",\"3-5\",\"3608\",\"38\",\"0\",\"Testing\",\"Stims/Figures/111-C-30-3.bmp\",\"None\",\"Down\",\"40\",\"3\",\"7\",\"10\",\"N\",\"J\",\"55\"
\"\",\"\",\"approach-retreat\",\"204\",\"1854177\",\"0.0-204.0\",\"\",\"\",\"3-5\",\"5813\",\"37\",\"1\",\"Testing\",\"Stims/Figures/7-J-10-4.bmp\",\"None\",\"Right\",\"37\",\"3\",\"8\",\"10\",\"N\",\"J\",\"56\"
\"\",\"\",\"approach-retreat\",\"205\",\"1861346\",\"0.0-205.0\",\"\",\"\",\"3-5\",\"5658\",\"37\",\"1\",\"Testing\",\"Stims/Figures/27-J-0-1.bmp\",\"None\",\"Right\",\"37\",\"3\",\"9\",\"10\",\"N\",\"J\",\"57\"
\"\",\"\",\"approach-retreat\",\"206\",\"1869368\",\"0.0-206.0\",\"\",\"\",\"3-5\",\"6513\",\"38\",\"0\",\"Testing\",\"Stims/Figures/57-C-30-1.bmp\",\"None\",\"Down\",\"40\",\"3\",\"10\",\"10\",\"N\",\"J\",\"58\"
\"\",\"\",\"approach-retreat\",\"207\",\"1875743\",\"0.0-207.0\",\"\",\"\",\"3-5\",\"4863\",\"40\",\"1\",\"Testing\",\"Stims/Figures/86-C-30-1.bmp\",\"None\",\"Down\",\"40\",\"3\",\"11\",\"10\",\"N\",\"J\",\"59\"
\"\",\"\",\"approach-retreat\",\"208\",\"1881589\",\"0.0-208.0\",\"\",\"\",\"3-5\",\"4337\",\"40\",\"1\",\"Testing\",\"Stims/Figures/94-J-0-2.bmp\",\"None\",\"Up\",\"40\",\"3\",\"12\",\"10\",\"N\",\"J\",\"60\"
\"\",\"\",\"approach-retreat\",\"209\",\"1887321\",\"0.0-209.0\",\"\",\"\",\"3-5\",\"4220\",\"37\",\"0\",\"Testing\",\"Stims/Figures/7-C-20-4.bmp\",\"None\",\"Right\",\"39\",\"3\",\"13\",\"10\",\"N\",\"J\",\"61\"
\"\",\"\",\"approach-retreat\",\"210\",\"1894265\",\"0.0-210.0\",\"\",\"\",\"3-5\",\"5434\",\"38\",\"1\",\"Testing\",\"Stims/Figures/74-J-10-4.bmp\",\"None\",\"Down\",\"38\",\"3\",\"14\",\"10\",\"N\",\"J\",\"62\"
\"\",\"\",\"approach-retreat\",\"211\",\"1900522\",\"0.0-211.0\",\"\",\"\",\"3-5\",\"4744\",\"39\",\"1\",\"Testing\",\"Stims/Figures/118-J-0-2.bmp\",\"None\",\"Left\",\"39\",\"3\",\"15\",\"10\",\"N\",\"J\",\"63\"
\"\",\"\",\"approach-retreat\",\"212\",\"1907830\",\"0.0-212.0\",\"\",\"\",\"3-5\",\"5796\",\"40\",\"1\",\"Testing\",\"Stims/Figures/86-J-0-1.bmp\",\"None\",\"Up\",\"40\",\"3\",\"16\",\"10\",\"N\",\"J\",\"64\"
\"\",\"\",\"approach-retreat\",\"213\",\"1914091\",\"0.0-213.0\",\"\",\"\",\"3-5\",\"4747\",\"39\",\"0\",\"Testing\",\"Stims/Figures/85-C-20-2.bmp\",\"None\",\"Left\",\"37\",\"3\",\"17\",\"10\",\"N\",\"J\",\"65\"
\"\",\"\",\"approach-retreat\",\"214\",\"1920118\",\"0.0-214.0\",\"\",\"\",\"3-5\",\"4517\",\"39\",\"1\",\"Testing\",\"Stims/Figures/102-J-10-4.bmp\",\"None\",\"Left\",\"39\",\"3\",\"18\",\"10\",\"N\",\"J\",\"66\"
\"\",\"\",\"approach-retreat\",\"215\",\"1926711\",\"0.0-215.0\",\"\",\"\",\"3-5\",\"5083\",\"37\",\"1\",\"Testing\",\"Stims/Figures/144-J-10-3.bmp\",\"None\",\"Right\",\"37\",\"3\",\"19\",\"10\",\"N\",\"J\",\"67\"
\"\",\"\",\"approach-retreat\",\"216\",\"1932544\",\"0.0-216.0\",\"\",\"\",\"3-5\",\"4320\",\"40\",\"1\",\"Testing\",\"Stims/Figures/128-J-10-3.bmp\",\"None\",\"Up\",\"40\",\"3\",\"20\",\"10\",\"N\",\"J\",\"68\"
\"\",\"\",\"approach-retreat\",\"217\",\"1937846\",\"0.0-217.0\",\"\",\"\",\"3-5\",\"3789\",\"39\",\"1\",\"Testing\",\"Stims/Figures/111-J-10-3.bmp\",\"None\",\"Left\",\"39\",\"3\",\"21\",\"10\",\"N\",\"J\",\"69\"
\"\",\"\",\"approach-retreat\",\"218\",\"1946714\",\"0.0-218.0\",\"\",\"\",\"3-5\",\"7359\",\"39\",\"0\",\"Testing\",\"Stims/Figures/144-C-30-3.bmp\",\"None\",\"Left\",\"37\",\"3\",\"22\",\"10\",\"N\",\"J\",\"70\"
\"\",\"\",\"approach-retreat\",\"219\",\"1954696\",\"0.0-219.0\",\"\",\"\",\"3-5\",\"6465\",\"38\",\"1\",\"Testing\",\"Stims/Figures/85-J-0-2.bmp\",\"None\",\"Down\",\"38\",\"3\",\"23\",\"10\",\"N\",\"J\",\"71\"
\"\",\"\",\"approach-retreat\",\"220\",\"1960492\",\"0.0-220.0\",\"\",\"\",\"3-5\",\"4286\",\"40\",\"1\",\"Testing\",\"Stims/Figures/57-J-0-1.bmp\",\"None\",\"Up\",\"40\",\"3\",\"24\",\"10\",\"N\",\"J\",\"72\"
\"\",\"\",\"approach-retreat\",\"221\",\"1966239\",\"0.0-221.0\",\"\",\"\",\"3-5\",\"4231\",\"39\",\"0\",\"Testing\",\"Stims/Figures/102-C-20-4.bmp\",\"None\",\"Left\",\"37\",\"4\",\"1\",\"10\",\"N\",\"J\",\"73\"
\"\",\"\",\"approach-retreat\",\"222\",\"1973294\",\"0.0-222.0\",\"\",\"\",\"3-5\",\"5542\",\"39\",\"1\",\"Testing\",\"Stims/Figures/144-J-10-3.bmp\",\"None\",\"Left\",\"39\",\"4\",\"2\",\"10\",\"N\",\"J\",\"74\"
\"\",\"\",\"approach-retreat\",\"223\",\"1982780\",\"0.0-223.0\",\"\",\"\",\"3-5\",\"7971\",\"39\",\"0\",\"Testing\",\"Stims/Figures/94-C-20-2.bmp\",\"None\",\"Left\",\"37\",\"4\",\"3\",\"10\",\"N\",\"J\",\"75\"
\"\",\"\",\"approach-retreat\",\"224\",\"1989406\",\"0.0-224.0\",\"\",\"\",\"3-5\",\"5115\",\"40\",\"1\",\"Testing\",\"Stims/Figures/102-J-10-4.bmp\",\"None\",\"Up\",\"40\",\"4\",\"4\",\"10\",\"N\",\"J\",\"76\"
\"\",\"\",\"approach-retreat\",\"225\",\"1996273\",\"0.0-225.0\",\"\",\"\",\"3-5\",\"5357\",\"37\",\"0\",\"Testing\",\"Stims/Figures/85-C-20-2.bmp\",\"None\",\"Right\",\"39\",\"4\",\"5\",\"10\",\"N\",\"J\",\"77\"
\"\",\"\",\"approach-retreat\",\"226\",\"2002514\",\"0.0-226.0\",\"\",\"\",\"3-5\",\"4728\",\"40\",\"0\",\"Testing\",\"Stims/Figures/7-C-20-4.bmp\",\"None\",\"Up\",\"38\",\"4\",\"6\",\"10\",\"N\",\"J\",\"78\"
\"\",\"\",\"approach-retreat\",\"227\",\"2010525\",\"0.0-227.0\",\"\",\"\",\"3-5\",\"6502\",\"40\",\"1\",\"Testing\",\"Stims/Figures/85-J-0-2.bmp\",\"None\",\"Up\",\"40\",\"4\",\"7\",\"10\",\"N\",\"J\",\"79\"
\"\",\"\",\"approach-retreat\",\"228\",\"2016632\",\"0.0-228.0\",\"\",\"\",\"3-5\",\"4594\",\"38\",\"1\",\"Testing\",\"Stims/Figures/86-J-0-1.bmp\",\"None\",\"Down\",\"38\",\"4\",\"8\",\"10\",\"N\",\"J\",\"80\"
\"\",\"\",\"approach-retreat\",\"229\",\"2023304\",\"0.0-229.0\",\"\",\"\",\"3-5\",\"5163\",\"38\",\"0\",\"Testing\",\"Stims/Figures/74-C-20-4.bmp\",\"None\",\"Down\",\"40\",\"4\",\"9\",\"10\",\"N\",\"J\",\"81\"
\"\",\"\",\"approach-retreat\",\"230\",\"2028968\",\"0.0-230.0\",\"\",\"\",\"3-5\",\"4156\",\"38\",\"0\",\"Testing\",\"Stims/Figures/57-C-30-1.bmp\",\"None\",\"Down\",\"40\",\"4\",\"10\",\"10\",\"N\",\"J\",\"82\"
\"\",\"\",\"approach-retreat\",\"231\",\"2035142\",\"0.0-231.0\",\"\",\"\",\"3-5\",\"4663\",\"39\",\"0\",\"Testing\",\"Stims/Figures/111-J-10-3.bmp\",\"None\",\"Right\",\"37\",\"4\",\"11\",\"10\",\"N\",\"J\",\"83\"
\"\",\"\",\"approach-retreat\",\"232\",\"2041363\",\"0.0-232.0\",\"\",\"\",\"3-5\",\"4712\",\"38\",\"1\",\"Testing\",\"Stims/Figures/86-C-30-1.bmp\",\"None\",\"Up\",\"38\",\"4\",\"12\",\"10\",\"N\",\"J\",\"84\"
\"\",\"\",\"approach-retreat\",\"233\",\"2047241\",\"0.0-233.0\",\"\",\"\",\"3-5\",\"4367\",\"38\",\"1\",\"Testing\",\"Stims/Figures/74-J-10-4.bmp\",\"None\",\"Down\",\"38\",\"4\",\"13\",\"10\",\"N\",\"J\",\"85\"
\"\",\"\",\"approach-retreat\",\"234\",\"2053071\",\"0.0-234.0\",\"\",\"\",\"3-5\",\"4306\",\"37\",\"0\",\"Testing\",\"Stims/Figures/118-C-20-2.bmp\",\"None\",\"Right\",\"39\",\"4\",\"14\",\"10\",\"N\",\"J\",\"86\"
\"\",\"\",\"approach-retreat\",\"235\",\"2060407\",\"0.0-235.0\",\"\",\"\",\"3-5\",\"5821\",\"37\",\"0\",\"Testing\",\"Stims/Figures/128-C-30-3.bmp\",\"None\",\"Right\",\"39\",\"4\",\"15\",\"10\",\"N\",\"J\",\"87\"
\"\",\"\",\"approach-retreat\",\"236\",\"2066298\",\"0.0-236.0\",\"\",\"\",\"3-5\",\"4376\",\"40\",\"1\",\"Testing\",\"Stims/Figures/27-C-30-1.bmp\",\"None\",\"Down\",\"40\",\"4\",\"16\",\"10\",\"N\",\"J\",\"88\"
\"\",\"\",\"approach-retreat\",\"237\",\"2073344\",\"0.0-237.0\",\"\",\"\",\"3-5\",\"5526\",\"39\",\"0\",\"Testing\",\"Stims/Figures/144-C-30-3.bmp\",\"None\",\"Left\",\"37\",\"4\",\"17\",\"10\",\"N\",\"J\",\"89\"
\"\",\"\",\"approach-retreat\",\"238\",\"2079574\",\"0.0-238.0\",\"\",\"\",\"3-5\",\"4721\",\"39\",\"1\",\"Testing\",\"Stims/Figures/27-J-0-1.bmp\",\"None\",\"Left\",\"39\",\"4\",\"18\",\"10\",\"N\",\"J\",\"90\"
\"\",\"\",\"approach-retreat\",\"239\",\"2089852\",\"0.0-239.0\",\"\",\"\",\"3-5\",\"8766\",\"38\",\"1\",\"Testing\",\"Stims/Figures/111-C-30-3.bmp\",\"None\",\"Up\",\"38\",\"4\",\"19\",\"10\",\"N\",\"J\",\"91\"
\"\",\"\",\"approach-retreat\",\"240\",\"2095663\",\"0.0-240.0\",\"\",\"\",\"3-5\",\"4295\",\"38\",\"0\",\"Testing\",\"Stims/Figures/118-J-0-2.bmp\",\"None\",\"Up\",\"40\",\"4\",\"20\",\"10\",\"N\",\"J\",\"92\"
\"\",\"\",\"approach-retreat\",\"241\",\"2101452\",\"0.0-241.0\",\"\",\"\",\"3-5\",\"4280\",\"37\",\"1\",\"Testing\",\"Stims/Figures/128-J-10-3.bmp\",\"None\",\"Right\",\"37\",\"4\",\"21\",\"10\",\"N\",\"J\",\"93\"
\"\",\"\",\"approach-retreat\",\"242\",\"2108358\",\"0.0-242.0\",\"\",\"\",\"3-5\",\"5396\",\"37\",\"0\",\"Testing\",\"Stims/Figures/94-J-0-2.bmp\",\"None\",\"Left\",\"39\",\"4\",\"22\",\"10\",\"N\",\"J\",\"94\"
\"\",\"\",\"approach-retreat\",\"243\",\"2118069\",\"0.0-243.0\",\"\",\"\",\"3-5\",\"8190\",\"37\",\"1\",\"Testing\",\"Stims/Figures/57-J-0-1.bmp\",\"None\",\"Right\",\"37\",\"4\",\"23\",\"10\",\"N\",\"J\",\"95\"
\"\",\"\",\"approach-retreat\",\"244\",\"2123813\",\"0.0-244.0\",\"\",\"\",\"3-5\",\"4224\",\"38\",\"1\",\"Testing\",\"Stims/Figures/7-J-10-4.bmp\",\"None\",\"Down\",\"38\",\"4\",\"24\",\"10\",\"N\",\"J\",\"96\"
\"16933\",\"\",\"survey-text\",\"245\",\"2140764\",\"0.0-245.0\",\"\",\"{\"\"Q0\"\":\"\"PS160086\"\"}\",\"\",\"\",\"\",\"\",\"\",\"\",\"\",\"\",\"\",\"\",\"\",\"\",\"\",\"\",\"\"
