\"rt\",\"key_press\",\"trial_type\",\"trial_index\",\"time_elapsed\",\"internal_node_id\",\"view_history\",\"responses\",\"Id\",\"Rt\",\"ResKeyCode\",\"ResCorr\",\"TrialType2\",\"Image\",\"Label\",\"Location\",\"CorrectResponse\",\"Block\",\"BlockTrial\",\"Condition\",\"LabelType\",\"Subcondition\",\"trialNum\"
\"80337\",\"32\",\"text\",\"0\",\"80349\",\"0.0-0.0-0.0\",\"\",\"\",\"\",\"\",\"\",\"\",\"\",\"\",\"\",\"\",\"\",\"\",\"\",\"\",\"\",\"\",\"\"
\"79407\",\"\",\"instructions\",\"1\",\"159763\",\"0.0-1.0\",\"[{\"\"page_index\"\":0,\"\"viewing_time\"\":79402}]\",\"\",\"\",\"\",\"\",\"\",\"\",\"\",\"\",\"\",\"\",\"\",\"\",\"\",\"\",\"\",\"\"
\"45816\",\"\",\"survey-multi-choice\",\"2\",\"205649\",\"0.0-2.0\",\"\",\"{\"\"Q0\"\":\"\"Da\"\",\"\"Q1\"\":\"\"Da\"\",\"\"Q2\"\":\"\"Da\"\",\"\"Q3\"\":\"\"Da\"\",\"\"Q4\"\":\"\"Da\"\",\"\"Q5\"\":\"\"Da\"\"}\",\"\",\"\",\"\",\"\",\"\",\"\",\"\",\"\",\"\",\"\",\"\",\"\",\"\",\"\",\"\"
\"\",\"\",\"bio\",\"3\",\"213474\",\"0.0-3.0\",\"\",\"{\"\"age\"\":\"\"19\"\",\"\"gender\"\":\"\"f\"\",\"\"specify\"\":\"\"\"\"}\",\"\",\"\",\"\",\"\",\"\",\"\",\"\",\"\",\"\",\"\",\"\",\"\",\"\",\"\",\"\"
\"\",\"\",\"approach-retreat\",\"4\",\"222421\",\"0.0-4.0\",\"\",\"\",\"3-4\",\"7418\",\"38\",\"0\",\"Training\",\"Stims/Figures/139-C-20-2.bmp\",\"ma:la:la\",\"Down\",\"40\",\"1\",\"1\",\"1\",\"S\",\"J\",\"1\"
\"\",\"\",\"approach-retreat\",\"5\",\"229837\",\"0.0-5.0\",\"\",\"\",\"3-4\",\"5889\",\"37\",\"0\",\"Training\",\"Stims/Figures/74-J-10-4.bmp\",\"ta:kaka\",\"Left\",\"39\",\"1\",\"2\",\"1\",\"P\",\"J\",\"2\"
\"\",\"\",\"approach-retreat\",\"6\",\"236656\",\"0.0-6.0\",\"\",\"\",\"3-4\",\"5302\",\"40\",\"1\",\"Training\",\"Stims/Figures/57-J-0-1.bmp\",\"ta:kaka\",\"Up\",\"40\",\"1\",\"3\",\"1\",\"P\",\"J\",\"3\"
\"\",\"\",\"approach-retreat\",\"7\",\"242528\",\"0.0-7.0\",\"\",\"\",\"3-4\",\"4342\",\"37\",\"1\",\"Training\",\"Stims/Figures/139-J-0-2.bmp\",\"ta:kaka\",\"Right\",\"37\",\"1\",\"4\",\"1\",\"P\",\"J\",\"4\"
\"\",\"\",\"approach-retreat\",\"8\",\"249391\",\"0.0-8.0\",\"\",\"\",\"3-4\",\"5331\",\"40\",\"1\",\"Training\",\"Stims/Figures/144-C-30-3.bmp\",\"ma:la:la\",\"Down\",\"40\",\"1\",\"5\",\"1\",\"S\",\"J\",\"5\"
\"\",\"\",\"approach-retreat\",\"9\",\"257174\",\"0.0-9.0\",\"\",\"\",\"3-4\",\"6266\",\"37\",\"1\",\"Training\",\"Stims/Figures/71-J-0-1.bmp\",\"ta:kaka\",\"Right\",\"37\",\"1\",\"6\",\"1\",\"P\",\"J\",\"6\"
\"\",\"\",\"approach-retreat\",\"10\",\"264055\",\"0.0-10.0\",\"\",\"\",\"3-4\",\"5363\",\"40\",\"1\",\"Training\",\"Stims/Figures/57-C-30-1.bmp\",\"ma:la:la\",\"Down\",\"40\",\"1\",\"7\",\"1\",\"S\",\"J\",\"7\"
\"\",\"\",\"approach-retreat\",\"11\",\"270769\",\"0.0-11.0\",\"\",\"\",\"3-4\",\"5194\",\"40\",\"1\",\"Training\",\"Stims/Figures/87-J-10-4.bmp\",\"ta:kaka\",\"Up\",\"40\",\"1\",\"8\",\"1\",\"P\",\"J\",\"8\"
\"\",\"\",\"approach-retreat\",\"12\",\"277088\",\"0.0-12.0\",\"\",\"\",\"3-4\",\"4802\",\"38\",\"1\",\"Training\",\"Stims/Figures/94-C-20-2.bmp\",\"ma:la:la\",\"Up\",\"38\",\"1\",\"9\",\"1\",\"S\",\"J\",\"9\"
\"\",\"\",\"approach-retreat\",\"13\",\"284560\",\"0.0-13.0\",\"\",\"\",\"3-4\",\"5962\",\"39\",\"1\",\"Training\",\"Stims/Figures/100-J-10-3.bmp\",\"ta:kaka\",\"Left\",\"39\",\"1\",\"10\",\"1\",\"P\",\"J\",\"10\"
\"\",\"\",\"approach-retreat\",\"14\",\"291088\",\"0.0-14.0\",\"\",\"\",\"3-4\",\"5006\",\"39\",\"1\",\"Training\",\"Stims/Figures/71-C-30-1.bmp\",\"ma:la:la\",\"Right\",\"39\",\"1\",\"11\",\"1\",\"S\",\"J\",\"11\"
\"\",\"\",\"approach-retreat\",\"15\",\"297408\",\"0.0-15.0\",\"\",\"\",\"3-4\",\"4812\",\"39\",\"1\",\"Training\",\"Stims/Figures/74-C-20-4.bmp\",\"ma:la:la\",\"Right\",\"39\",\"1\",\"12\",\"1\",\"S\",\"J\",\"12\"
\"\",\"\",\"approach-retreat\",\"16\",\"303936\",\"0.0-16.0\",\"\",\"\",\"3-4\",\"5000\",\"38\",\"1\",\"Training\",\"Stims/Figures/100-C-30-3.bmp\",\"ma:la:la\",\"Up\",\"38\",\"1\",\"13\",\"1\",\"S\",\"J\",\"13\"
\"\",\"\",\"approach-retreat\",\"17\",\"309936\",\"0.0-17.0\",\"\",\"\",\"3-4\",\"4462\",\"37\",\"1\",\"Training\",\"Stims/Figures/87-C-20-4.bmp\",\"ma:la:la\",\"Left\",\"37\",\"1\",\"14\",\"1\",\"S\",\"J\",\"14\"
\"\",\"\",\"approach-retreat\",\"18\",\"315784\",\"0.0-18.0\",\"\",\"\",\"3-4\",\"4320\",\"39\",\"1\",\"Training\",\"Stims/Figures/144-J-10-3.bmp\",\"ta:kaka\",\"Left\",\"39\",\"1\",\"15\",\"1\",\"P\",\"J\",\"15\"
\"\",\"\",\"approach-retreat\",\"19\",\"321712\",\"0.0-19.0\",\"\",\"\",\"3-4\",\"4399\",\"38\",\"1\",\"Training\",\"Stims/Figures/94-J-0-2.bmp\",\"ta:kaka\",\"Down\",\"38\",\"1\",\"16\",\"1\",\"P\",\"J\",\"16\"
\"\",\"\",\"approach-retreat\",\"20\",\"327890\",\"0.0-20.0\",\"\",\"\",\"3-4\",\"4664\",\"40\",\"1\",\"Training\",\"Stims/Figures/74-J-10-4.bmp\",\"ta:kaka\",\"Up\",\"40\",\"2\",\"1\",\"1\",\"P\",\"J\",\"17\"
\"\",\"\",\"approach-retreat\",\"21\",\"334199\",\"0.0-21.0\",\"\",\"\",\"3-4\",\"4798\",\"40\",\"1\",\"Training\",\"Stims/Figures/57-C-30-1.bmp\",\"ma:la:la\",\"Down\",\"40\",\"2\",\"2\",\"1\",\"S\",\"J\",\"18\"
\"\",\"\",\"approach-retreat\",\"22\",\"340255\",\"0.0-22.0\",\"\",\"\",\"3-4\",\"4542\",\"39\",\"1\",\"Training\",\"Stims/Figures/139-C-20-2.bmp\",\"ma:la:la\",\"Right\",\"39\",\"2\",\"3\",\"1\",\"S\",\"J\",\"19\"
\"\",\"\",\"approach-retreat\",\"23\",\"346007\",\"0.0-23.0\",\"\",\"\",\"3-4\",\"4243\",\"39\",\"1\",\"Training\",\"Stims/Figures/71-J-0-1.bmp\",\"ta:kaka\",\"Left\",\"39\",\"2\",\"4\",\"1\",\"P\",\"J\",\"20\"
\"\",\"\",\"approach-retreat\",\"24\",\"352440\",\"0.0-24.0\",\"\",\"\",\"3-4\",\"4908\",\"37\",\"1\",\"Training\",\"Stims/Figures/100-C-30-3.bmp\",\"ma:la:la\",\"Left\",\"37\",\"2\",\"5\",\"1\",\"S\",\"J\",\"21\"
\"\",\"\",\"approach-retreat\",\"25\",\"358519\",\"0.0-25.0\",\"\",\"\",\"3-4\",\"4574\",\"40\",\"1\",\"Training\",\"Stims/Figures/94-C-20-2.bmp\",\"ma:la:la\",\"Down\",\"40\",\"2\",\"6\",\"1\",\"S\",\"J\",\"22\"
\"\",\"\",\"approach-retreat\",\"26\",\"364383\",\"0.0-26.0\",\"\",\"\",\"3-4\",\"4352\",\"38\",\"1\",\"Training\",\"Stims/Figures/87-J-10-4.bmp\",\"ta:kaka\",\"Down\",\"38\",\"2\",\"7\",\"1\",\"P\",\"J\",\"23\"
\"\",\"\",\"approach-retreat\",\"27\",\"370472\",\"0.0-27.0\",\"\",\"\",\"3-4\",\"4578\",\"40\",\"1\",\"Training\",\"Stims/Figures/57-J-0-1.bmp\",\"ta:kaka\",\"Up\",\"40\",\"2\",\"8\",\"1\",\"P\",\"J\",\"24\"
\"\",\"\",\"approach-retreat\",\"28\",\"376455\",\"0.0-28.0\",\"\",\"\",\"3-4\",\"4471\",\"38\",\"1\",\"Training\",\"Stims/Figures/144-C-30-3.bmp\",\"ma:la:la\",\"Up\",\"38\",\"2\",\"9\",\"1\",\"S\",\"J\",\"25\"
\"\",\"\",\"approach-retreat\",\"29\",\"383207\",\"0.0-29.0\",\"\",\"\",\"3-4\",\"5241\",\"37\",\"1\",\"Training\",\"Stims/Figures/100-J-10-3.bmp\",\"ta:kaka\",\"Right\",\"37\",\"2\",\"10\",\"1\",\"P\",\"J\",\"26\"
\"\",\"\",\"approach-retreat\",\"30\",\"388992\",\"0.0-30.0\",\"\",\"\",\"3-4\",\"4275\",\"40\",\"1\",\"Training\",\"Stims/Figures/87-C-20-4.bmp\",\"ma:la:la\",\"Down\",\"40\",\"2\",\"11\",\"1\",\"S\",\"J\",\"27\"
\"\",\"\",\"approach-retreat\",\"31\",\"395311\",\"0.0-31.0\",\"\",\"\",\"3-4\",\"4809\",\"39\",\"1\",\"Training\",\"Stims/Figures/74-C-20-4.bmp\",\"ma:la:la\",\"Right\",\"39\",\"2\",\"12\",\"1\",\"S\",\"J\",\"28\"
\"\",\"\",\"approach-retreat\",\"32\",\"401064\",\"0.0-32.0\",\"\",\"\",\"3-4\",\"4248\",\"37\",\"1\",\"Training\",\"Stims/Figures/71-C-30-1.bmp\",\"ma:la:la\",\"Left\",\"37\",\"2\",\"13\",\"1\",\"S\",\"J\",\"29\"
\"\",\"\",\"approach-retreat\",\"33\",\"406663\",\"0.0-33.0\",\"\",\"\",\"3-4\",\"4088\",\"37\",\"1\",\"Training\",\"Stims/Figures/94-J-0-2.bmp\",\"ta:kaka\",\"Right\",\"37\",\"2\",\"14\",\"1\",\"P\",\"J\",\"30\"
\"\",\"\",\"approach-retreat\",\"34\",\"412263\",\"0.0-34.0\",\"\",\"\",\"3-4\",\"4086\",\"40\",\"1\",\"Training\",\"Stims/Figures/139-J-0-2.bmp\",\"ta:kaka\",\"Up\",\"40\",\"2\",\"15\",\"1\",\"P\",\"J\",\"31\"
\"\",\"\",\"approach-retreat\",\"35\",\"417895\",\"0.0-35.0\",\"\",\"\",\"3-4\",\"4120\",\"39\",\"1\",\"Training\",\"Stims/Figures/144-J-10-3.bmp\",\"ta:kaka\",\"Left\",\"39\",\"2\",\"16\",\"1\",\"P\",\"J\",\"32\"
\"\",\"\",\"approach-retreat\",\"36\",\"424271\",\"0.0-36.0\",\"\",\"\",\"3-4\",\"4863\",\"39\",\"1\",\"Training\",\"Stims/Figures/71-C-30-1.bmp\",\"ma:la:la\",\"Right\",\"39\",\"3\",\"1\",\"1\",\"S\",\"J\",\"33\"
\"\",\"\",\"approach-retreat\",\"37\",\"429953\",\"0.0-37.0\",\"\",\"\",\"3-4\",\"4148\",\"40\",\"1\",\"Training\",\"Stims/Figures/139-C-20-2.bmp\",\"ma:la:la\",\"Down\",\"40\",\"3\",\"2\",\"1\",\"S\",\"J\",\"34\"
\"\",\"\",\"approach-retreat\",\"38\",\"435439\",\"0.0-38.0\",\"\",\"\",\"3-4\",\"3975\",\"40\",\"1\",\"Training\",\"Stims/Figures/74-J-10-4.bmp\",\"ta:kaka\",\"Up\",\"40\",\"3\",\"3\",\"1\",\"P\",\"J\",\"35\"
\"\",\"\",\"approach-retreat\",\"39\",\"440983\",\"0.0-39.0\",\"\",\"\",\"3-4\",\"4040\",\"39\",\"1\",\"Training\",\"Stims/Figures/74-C-20-4.bmp\",\"ma:la:la\",\"Right\",\"39\",\"3\",\"4\",\"1\",\"S\",\"J\",\"36\"
\"\",\"\",\"approach-retreat\",\"40\",\"446607\",\"0.0-40.0\",\"\",\"\",\"3-4\",\"4112\",\"40\",\"1\",\"Training\",\"Stims/Figures/144-C-30-3.bmp\",\"ma:la:la\",\"Down\",\"40\",\"3\",\"5\",\"1\",\"S\",\"J\",\"37\"
\"\",\"\",\"approach-retreat\",\"41\",\"452735\",\"0.0-41.0\",\"\",\"\",\"3-4\",\"4617\",\"40\",\"1\",\"Training\",\"Stims/Figures/144-J-10-3.bmp\",\"ta:kaka\",\"Up\",\"40\",\"3\",\"6\",\"1\",\"P\",\"J\",\"38\"
\"\",\"\",\"approach-retreat\",\"42\",\"458335\",\"0.0-42.0\",\"\",\"\",\"3-4\",\"4090\",\"40\",\"1\",\"Training\",\"Stims/Figures/94-J-0-2.bmp\",\"ta:kaka\",\"Up\",\"40\",\"3\",\"7\",\"1\",\"P\",\"J\",\"39\"
\"\",\"\",\"approach-retreat\",\"43\",\"463895\",\"0.0-43.0\",\"\",\"\",\"3-4\",\"4051\",\"37\",\"1\",\"Training\",\"Stims/Figures/57-C-30-1.bmp\",\"ma:la:la\",\"Left\",\"37\",\"3\",\"8\",\"1\",\"S\",\"J\",\"40\"
\"\",\"\",\"approach-retreat\",\"44\",\"470138\",\"0.0-44.0\",\"\",\"\",\"3-4\",\"4729\",\"37\",\"1\",\"Training\",\"Stims/Figures/57-J-0-1.bmp\",\"ta:kaka\",\"Right\",\"37\",\"3\",\"9\",\"1\",\"P\",\"J\",\"41\"
\"\",\"\",\"approach-retreat\",\"45\",\"476973\",\"0.0-45.0\",\"\",\"\",\"3-4\",\"5324\",\"39\",\"1\",\"Training\",\"Stims/Figures/87-J-10-4.bmp\",\"ta:kaka\",\"Left\",\"39\",\"3\",\"10\",\"1\",\"P\",\"J\",\"42\"
\"\",\"\",\"approach-retreat\",\"46\",\"482551\",\"0.0-46.0\",\"\",\"\",\"3-4\",\"4066\",\"39\",\"1\",\"Training\",\"Stims/Figures/100-J-10-3.bmp\",\"ta:kaka\",\"Left\",\"39\",\"3\",\"11\",\"1\",\"P\",\"J\",\"43\"
\"\",\"\",\"approach-retreat\",\"47\",\"488072\",\"0.0-47.0\",\"\",\"\",\"3-4\",\"4010\",\"37\",\"1\",\"Training\",\"Stims/Figures/100-C-30-3.bmp\",\"ma:la:la\",\"Left\",\"37\",\"3\",\"12\",\"1\",\"S\",\"J\",\"44\"
\"\",\"\",\"approach-retreat\",\"48\",\"493737\",\"0.0-48.0\",\"\",\"\",\"3-4\",\"4152\",\"39\",\"1\",\"Training\",\"Stims/Figures/94-C-20-2.bmp\",\"ma:la:la\",\"Right\",\"39\",\"3\",\"13\",\"1\",\"S\",\"J\",\"45\"
\"\",\"\",\"approach-retreat\",\"49\",\"499359\",\"0.0-49.0\",\"\",\"\",\"3-4\",\"4112\",\"38\",\"1\",\"Training\",\"Stims/Figures/139-J-0-2.bmp\",\"ta:kaka\",\"Down\",\"38\",\"3\",\"14\",\"1\",\"P\",\"J\",\"46\"
\"\",\"\",\"approach-retreat\",\"50\",\"504999\",\"0.0-50.0\",\"\",\"\",\"3-4\",\"4131\",\"38\",\"1\",\"Training\",\"Stims/Figures/71-J-0-1.bmp\",\"ta:kaka\",\"Down\",\"38\",\"3\",\"15\",\"1\",\"P\",\"J\",\"47\"
\"\",\"\",\"approach-retreat\",\"51\",\"511183\",\"0.0-51.0\",\"\",\"\",\"3-4\",\"4673\",\"38\",\"1\",\"Training\",\"Stims/Figures/87-C-20-4.bmp\",\"ma:la:la\",\"Up\",\"38\",\"3\",\"16\",\"1\",\"S\",\"J\",\"48\"
\"\",\"\",\"approach-retreat\",\"52\",\"518591\",\"0.0-52.0\",\"\",\"\",\"3-4\",\"5895\",\"37\",\"1\",\"Training\",\"Stims/Figures/100-J-10-3.bmp\",\"ta:kaka\",\"Right\",\"37\",\"4\",\"1\",\"1\",\"P\",\"J\",\"49\"
\"\",\"\",\"approach-retreat\",\"53\",\"524334\",\"0.0-53.0\",\"\",\"\",\"3-4\",\"4235\",\"37\",\"1\",\"Training\",\"Stims/Figures/139-J-0-2.bmp\",\"ta:kaka\",\"Right\",\"37\",\"4\",\"2\",\"1\",\"P\",\"J\",\"50\"
\"\",\"\",\"approach-retreat\",\"54\",\"529927\",\"0.0-54.0\",\"\",\"\",\"3-4\",\"4082\",\"38\",\"1\",\"Training\",\"Stims/Figures/94-J-0-2.bmp\",\"ta:kaka\",\"Down\",\"38\",\"4\",\"3\",\"1\",\"P\",\"J\",\"51\"
\"\",\"\",\"approach-retreat\",\"55\",\"536079\",\"0.0-55.0\",\"\",\"\",\"3-4\",\"4642\",\"37\",\"1\",\"Training\",\"Stims/Figures/100-C-30-3.bmp\",\"ma:la:la\",\"Left\",\"37\",\"4\",\"4\",\"1\",\"S\",\"J\",\"52\"
\"\",\"\",\"approach-retreat\",\"56\",\"541687\",\"0.0-56.0\",\"\",\"\",\"3-4\",\"4099\",\"38\",\"1\",\"Training\",\"Stims/Figures/144-C-30-3.bmp\",\"ma:la:la\",\"Up\",\"38\",\"4\",\"5\",\"1\",\"S\",\"J\",\"53\"
\"\",\"\",\"approach-retreat\",\"57\",\"547775\",\"0.0-57.0\",\"\",\"\",\"3-4\",\"4577\",\"39\",\"1\",\"Training\",\"Stims/Figures/57-C-30-1.bmp\",\"ma:la:la\",\"Right\",\"39\",\"4\",\"6\",\"1\",\"S\",\"J\",\"54\"
\"\",\"\",\"approach-retreat\",\"58\",\"553423\",\"0.0-58.0\",\"\",\"\",\"3-4\",\"4140\",\"37\",\"1\",\"Training\",\"Stims/Figures/74-C-20-4.bmp\",\"ma:la:la\",\"Left\",\"37\",\"4\",\"7\",\"1\",\"S\",\"J\",\"55\"
\"\",\"\",\"approach-retreat\",\"59\",\"558991\",\"0.0-59.0\",\"\",\"\",\"3-4\",\"4056\",\"40\",\"1\",\"Training\",\"Stims/Figures/71-C-30-1.bmp\",\"ma:la:la\",\"Down\",\"40\",\"4\",\"8\",\"1\",\"S\",\"J\",\"56\"
\"\",\"\",\"approach-retreat\",\"60\",\"564624\",\"0.0-60.0\",\"\",\"\",\"3-4\",\"4122\",\"40\",\"1\",\"Training\",\"Stims/Figures/144-J-10-3.bmp\",\"ta:kaka\",\"Up\",\"40\",\"4\",\"9\",\"1\",\"P\",\"J\",\"57\"
\"\",\"\",\"approach-retreat\",\"61\",\"570336\",\"0.0-61.0\",\"\",\"\",\"3-4\",\"4201\",\"38\",\"1\",\"Training\",\"Stims/Figures/87-C-20-4.bmp\",\"ma:la:la\",\"Up\",\"38\",\"4\",\"10\",\"1\",\"S\",\"J\",\"58\"
\"\",\"\",\"approach-retreat\",\"62\",\"576655\",\"0.0-62.0\",\"\",\"\",\"3-4\",\"4809\",\"39\",\"1\",\"Training\",\"Stims/Figures/139-C-20-2.bmp\",\"ma:la:la\",\"Right\",\"39\",\"4\",\"11\",\"1\",\"S\",\"J\",\"59\"
\"\",\"\",\"approach-retreat\",\"63\",\"584023\",\"0.0-63.0\",\"\",\"\",\"3-4\",\"5853\",\"38\",\"1\",\"Training\",\"Stims/Figures/87-J-10-4.bmp\",\"ta:kaka\",\"Down\",\"38\",\"4\",\"12\",\"1\",\"P\",\"J\",\"60\"
\"\",\"\",\"approach-retreat\",\"64\",\"589586\",\"0.0-64.0\",\"\",\"\",\"3-4\",\"4052\",\"38\",\"1\",\"Training\",\"Stims/Figures/71-J-0-1.bmp\",\"ta:kaka\",\"Down\",\"38\",\"4\",\"13\",\"1\",\"P\",\"J\",\"61\"
\"\",\"\",\"approach-retreat\",\"65\",\"595303\",\"0.0-65.0\",\"\",\"\",\"3-4\",\"4205\",\"38\",\"1\",\"Training\",\"Stims/Figures/94-C-20-2.bmp\",\"ma:la:la\",\"Up\",\"38\",\"4\",\"14\",\"1\",\"S\",\"J\",\"62\"
\"\",\"\",\"approach-retreat\",\"66\",\"600895\",\"0.0-66.0\",\"\",\"\",\"3-4\",\"4082\",\"39\",\"1\",\"Training\",\"Stims/Figures/57-J-0-1.bmp\",\"ta:kaka\",\"Left\",\"39\",\"4\",\"15\",\"1\",\"P\",\"J\",\"63\"
\"\",\"\",\"approach-retreat\",\"67\",\"606471\",\"0.0-67.0\",\"\",\"\",\"3-4\",\"4065\",\"39\",\"1\",\"Training\",\"Stims/Figures/74-J-10-4.bmp\",\"ta:kaka\",\"Left\",\"39\",\"4\",\"16\",\"1\",\"P\",\"J\",\"64\"
\"\",\"\",\"approach-retreat\",\"68\",\"612215\",\"0.0-68.0\",\"\",\"\",\"3-4\",\"4234\",\"38\",\"1\",\"Training\",\"Stims/Figures/74-C-20-4.bmp\",\"ma:la:la\",\"Up\",\"38\",\"5\",\"1\",\"1\",\"S\",\"J\",\"65\"
\"\",\"\",\"approach-retreat\",\"69\",\"618407\",\"0.0-69.0\",\"\",\"\",\"3-4\",\"4675\",\"37\",\"0\",\"Training\",\"Stims/Figures/74-J-10-4.bmp\",\"ta:kaka\",\"Left\",\"39\",\"5\",\"2\",\"1\",\"P\",\"J\",\"66\"
\"\",\"\",\"approach-retreat\",\"70\",\"623894\",\"0.0-70.0\",\"\",\"\",\"3-4\",\"3978\",\"39\",\"1\",\"Training\",\"Stims/Figures/139-J-0-2.bmp\",\"ta:kaka\",\"Left\",\"39\",\"5\",\"3\",\"1\",\"P\",\"J\",\"67\"
\"\",\"\",\"approach-retreat\",\"71\",\"630063\",\"0.0-71.0\",\"\",\"\",\"3-4\",\"4663\",\"37\",\"1\",\"Training\",\"Stims/Figures/71-J-0-1.bmp\",\"ta:kaka\",\"Right\",\"37\",\"5\",\"4\",\"1\",\"P\",\"J\",\"68\"
\"\",\"\",\"approach-retreat\",\"72\",\"635871\",\"0.0-72.0\",\"\",\"\",\"3-4\",\"4296\",\"38\",\"1\",\"Training\",\"Stims/Figures/87-C-20-4.bmp\",\"ma:la:la\",\"Up\",\"38\",\"5\",\"5\",\"1\",\"S\",\"J\",\"69\"
\"\",\"\",\"approach-retreat\",\"73\",\"642353\",\"0.0-73.0\",\"\",\"\",\"3-4\",\"4968\",\"39\",\"1\",\"Training\",\"Stims/Figures/100-J-10-3.bmp\",\"ta:kaka\",\"Left\",\"39\",\"5\",\"6\",\"1\",\"P\",\"J\",\"70\"
\"\",\"\",\"approach-retreat\",\"74\",\"648247\",\"0.0-74.0\",\"\",\"\",\"3-4\",\"4385\",\"39\",\"1\",\"Training\",\"Stims/Figures/94-C-20-2.bmp\",\"ma:la:la\",\"Right\",\"39\",\"5\",\"7\",\"1\",\"S\",\"J\",\"71\"
\"\",\"\",\"approach-retreat\",\"75\",\"653792\",\"0.0-75.0\",\"\",\"\",\"3-4\",\"4035\",\"38\",\"1\",\"Training\",\"Stims/Figures/144-C-30-3.bmp\",\"ma:la:la\",\"Up\",\"38\",\"5\",\"8\",\"1\",\"S\",\"J\",\"72\"
\"\",\"\",\"approach-retreat\",\"76\",\"659374\",\"0.0-76.0\",\"\",\"\",\"3-4\",\"4070\",\"40\",\"1\",\"Training\",\"Stims/Figures/71-C-30-1.bmp\",\"ma:la:la\",\"Down\",\"40\",\"5\",\"9\",\"1\",\"S\",\"J\",\"73\"
\"\",\"\",\"approach-retreat\",\"77\",\"664975\",\"0.0-77.0\",\"\",\"\",\"3-4\",\"4089\",\"39\",\"1\",\"Training\",\"Stims/Figures/87-J-10-4.bmp\",\"ta:kaka\",\"Left\",\"39\",\"5\",\"10\",\"1\",\"P\",\"J\",\"74\"
\"\",\"\",\"approach-retreat\",\"78\",\"670959\",\"0.0-78.0\",\"\",\"\",\"3-4\",\"4476\",\"40\",\"1\",\"Training\",\"Stims/Figures/57-C-30-1.bmp\",\"ma:la:la\",\"Down\",\"40\",\"5\",\"11\",\"1\",\"S\",\"J\",\"75\"
\"\",\"\",\"approach-retreat\",\"79\",\"676607\",\"0.0-79.0\",\"\",\"\",\"3-4\",\"4138\",\"38\",\"1\",\"Training\",\"Stims/Figures/94-J-0-2.bmp\",\"ta:kaka\",\"Down\",\"38\",\"5\",\"12\",\"1\",\"P\",\"J\",\"76\"
\"\",\"\",\"approach-retreat\",\"80\",\"682231\",\"0.0-80.0\",\"\",\"\",\"3-4\",\"4113\",\"40\",\"1\",\"Training\",\"Stims/Figures/139-C-20-2.bmp\",\"ma:la:la\",\"Down\",\"40\",\"5\",\"13\",\"1\",\"S\",\"J\",\"77\"
\"\",\"\",\"approach-retreat\",\"81\",\"687983\",\"0.0-81.0\",\"\",\"\",\"3-4\",\"4243\",\"40\",\"1\",\"Training\",\"Stims/Figures/57-J-0-1.bmp\",\"ta:kaka\",\"Up\",\"40\",\"5\",\"14\",\"1\",\"P\",\"J\",\"78\"
\"\",\"\",\"approach-retreat\",\"82\",\"694255\",\"0.0-82.0\",\"\",\"\",\"3-4\",\"4762\",\"39\",\"1\",\"Training\",\"Stims/Figures/100-C-30-3.bmp\",\"ma:la:la\",\"Right\",\"39\",\"5\",\"15\",\"1\",\"S\",\"J\",\"79\"
\"\",\"\",\"approach-retreat\",\"83\",\"701647\",\"0.0-83.0\",\"\",\"\",\"3-4\",\"5881\",\"37\",\"1\",\"Training\",\"Stims/Figures/144-J-10-3.bmp\",\"ta:kaka\",\"Right\",\"37\",\"5\",\"16\",\"1\",\"P\",\"J\",\"80\"
\"\",\"\",\"approach-retreat\",\"84\",\"707967\",\"0.0-84.0\",\"\",\"\",\"3-4\",\"4810\",\"39\",\"1\",\"Training\",\"Stims/Figures/94-C-20-2.bmp\",\"ma:la:la\",\"Right\",\"39\",\"6\",\"1\",\"1\",\"S\",\"J\",\"81\"
\"\",\"\",\"approach-retreat\",\"85\",\"713728\",\"0.0-85.0\",\"\",\"\",\"3-4\",\"4250\",\"37\",\"1\",\"Training\",\"Stims/Figures/144-J-10-3.bmp\",\"ta:kaka\",\"Right\",\"37\",\"6\",\"2\",\"1\",\"P\",\"J\",\"82\"
\"\",\"\",\"approach-retreat\",\"86\",\"719287\",\"0.0-86.0\",\"\",\"\",\"3-4\",\"4051\",\"39\",\"1\",\"Training\",\"Stims/Figures/57-J-0-1.bmp\",\"ta:kaka\",\"Left\",\"39\",\"6\",\"3\",\"1\",\"P\",\"J\",\"83\"
\"\",\"\",\"approach-retreat\",\"87\",\"724959\",\"0.0-87.0\",\"\",\"\",\"3-4\",\"4161\",\"38\",\"1\",\"Training\",\"Stims/Figures/139-J-0-2.bmp\",\"ta:kaka\",\"Down\",\"38\",\"6\",\"4\",\"1\",\"P\",\"J\",\"84\"
\"\",\"\",\"approach-retreat\",\"88\",\"731327\",\"0.0-88.0\",\"\",\"\",\"3-4\",\"4838\",\"39\",\"1\",\"Training\",\"Stims/Figures/139-C-20-2.bmp\",\"ma:la:la\",\"Right\",\"39\",\"6\",\"5\",\"1\",\"S\",\"J\",\"85\"
\"\",\"\",\"approach-retreat\",\"89\",\"736903\",\"0.0-89.0\",\"\",\"\",\"3-4\",\"4069\",\"37\",\"1\",\"Training\",\"Stims/Figures/74-J-10-4.bmp\",\"ta:kaka\",\"Right\",\"37\",\"6\",\"6\",\"1\",\"P\",\"J\",\"86\"
\"\",\"\",\"approach-retreat\",\"90\",\"742528\",\"0.0-90.0\",\"\",\"\",\"3-4\",\"4113\",\"37\",\"1\",\"Training\",\"Stims/Figures/144-C-30-3.bmp\",\"ma:la:la\",\"Left\",\"37\",\"6\",\"7\",\"1\",\"S\",\"J\",\"87\"
\"\",\"\",\"approach-retreat\",\"91\",\"748080\",\"0.0-91.0\",\"\",\"\",\"3-4\",\"4043\",\"40\",\"1\",\"Training\",\"Stims/Figures/87-J-10-4.bmp\",\"ta:kaka\",\"Up\",\"40\",\"6\",\"8\",\"1\",\"P\",\"J\",\"88\"
\"\",\"\",\"approach-retreat\",\"92\",\"753976\",\"0.0-92.0\",\"\",\"\",\"3-4\",\"4386\",\"37\",\"1\",\"Training\",\"Stims/Figures/87-C-20-4.bmp\",\"ma:la:la\",\"Left\",\"37\",\"6\",\"9\",\"1\",\"S\",\"J\",\"89\"
\"\",\"\",\"approach-retreat\",\"93\",\"759543\",\"0.0-93.0\",\"\",\"\",\"3-4\",\"4057\",\"40\",\"1\",\"Training\",\"Stims/Figures/71-J-0-1.bmp\",\"ta:kaka\",\"Up\",\"40\",\"6\",\"10\",\"1\",\"P\",\"J\",\"90\"
\"\",\"\",\"approach-retreat\",\"94\",\"765015\",\"0.0-94.0\",\"\",\"\",\"3-4\",\"3962\",\"38\",\"1\",\"Training\",\"Stims/Figures/71-C-30-1.bmp\",\"ma:la:la\",\"Up\",\"38\",\"6\",\"11\",\"1\",\"S\",\"J\",\"91\"
\"\",\"\",\"approach-retreat\",\"95\",\"771423\",\"0.0-95.0\",\"\",\"\",\"3-4\",\"4897\",\"40\",\"1\",\"Training\",\"Stims/Figures/100-J-10-3.bmp\",\"ta:kaka\",\"Up\",\"40\",\"6\",\"12\",\"1\",\"P\",\"J\",\"92\"
\"\",\"\",\"approach-retreat\",\"96\",\"777015\",\"0.0-96.0\",\"\",\"\",\"3-4\",\"4087\",\"38\",\"1\",\"Training\",\"Stims/Figures/94-J-0-2.bmp\",\"ta:kaka\",\"Down\",\"38\",\"6\",\"13\",\"1\",\"P\",\"J\",\"93\"
\"\",\"\",\"approach-retreat\",\"97\",\"782559\",\"0.0-97.0\",\"\",\"\",\"3-4\",\"4033\",\"40\",\"1\",\"Training\",\"Stims/Figures/100-C-30-3.bmp\",\"ma:la:la\",\"Down\",\"40\",\"6\",\"14\",\"1\",\"S\",\"J\",\"94\"
\"\",\"\",\"approach-retreat\",\"98\",\"788095\",\"0.0-98.0\",\"\",\"\",\"3-4\",\"4024\",\"40\",\"1\",\"Training\",\"Stims/Figures/57-C-30-1.bmp\",\"ma:la:la\",\"Down\",\"40\",\"6\",\"15\",\"1\",\"S\",\"J\",\"95\"
\"\",\"\",\"approach-retreat\",\"99\",\"794007\",\"0.0-99.0\",\"\",\"\",\"3-4\",\"4402\",\"37\",\"1\",\"Training\",\"Stims/Figures/74-C-20-4.bmp\",\"ma:la:la\",\"Left\",\"37\",\"6\",\"16\",\"1\",\"S\",\"J\",\"96\"
\"\",\"\",\"approach-retreat\",\"100\",\"801151\",\"0.0-100.0\",\"\",\"\",\"3-4\",\"5635\",\"38\",\"1\",\"Training\",\"Stims/Figures/144-J-10-3.bmp\",\"ta:kaka\",\"Down\",\"38\",\"7\",\"1\",\"1\",\"P\",\"J\",\"97\"
\"\",\"\",\"approach-retreat\",\"101\",\"806727\",\"0.0-101.0\",\"\",\"\",\"3-4\",\"4066\",\"38\",\"1\",\"Training\",\"Stims/Figures/94-C-20-2.bmp\",\"ma:la:la\",\"Up\",\"38\",\"7\",\"2\",\"1\",\"S\",\"J\",\"98\"
\"\",\"\",\"approach-retreat\",\"102\",\"812255\",\"0.0-102.0\",\"\",\"\",\"3-4\",\"4019\",\"38\",\"1\",\"Training\",\"Stims/Figures/74-C-20-4.bmp\",\"ma:la:la\",\"Up\",\"38\",\"7\",\"3\",\"1\",\"S\",\"J\",\"99\"
\"\",\"\",\"approach-retreat\",\"103\",\"817825\",\"0.0-103.0\",\"\",\"\",\"3-4\",\"4060\",\"39\",\"1\",\"Training\",\"Stims/Figures/94-J-0-2.bmp\",\"ta:kaka\",\"Left\",\"39\",\"7\",\"4\",\"1\",\"P\",\"J\",\"100\"
\"\",\"\",\"approach-retreat\",\"104\",\"823783\",\"0.0-104.0\",\"\",\"\",\"3-4\",\"4450\",\"37\",\"1\",\"Training\",\"Stims/Figures/100-C-30-3.bmp\",\"ma:la:la\",\"Left\",\"37\",\"7\",\"5\",\"1\",\"S\",\"J\",\"101\"
\"\",\"\",\"approach-retreat\",\"105\",\"829903\",\"0.0-105.0\",\"\",\"\",\"3-4\",\"4610\",\"40\",\"1\",\"Training\",\"Stims/Figures/71-C-30-1.bmp\",\"ma:la:la\",\"Down\",\"40\",\"7\",\"6\",\"1\",\"S\",\"J\",\"102\"
\"\",\"\",\"approach-retreat\",\"106\",\"835368\",\"0.0-106.0\",\"\",\"\",\"3-4\",\"3957\",\"37\",\"1\",\"Training\",\"Stims/Figures/139-J-0-2.bmp\",\"ta:kaka\",\"Right\",\"37\",\"7\",\"7\",\"1\",\"P\",\"J\",\"103\"
\"\",\"\",\"approach-retreat\",\"107\",\"840879\",\"0.0-107.0\",\"\",\"\",\"3-4\",\"4005\",\"38\",\"1\",\"Training\",\"Stims/Figures/71-J-0-1.bmp\",\"ta:kaka\",\"Down\",\"38\",\"7\",\"8\",\"1\",\"P\",\"J\",\"104\"
\"\",\"\",\"approach-retreat\",\"108\",\"846383\",\"0.0-108.0\",\"\",\"\",\"3-4\",\"3999\",\"39\",\"1\",\"Training\",\"Stims/Figures/144-C-30-3.bmp\",\"ma:la:la\",\"Right\",\"39\",\"7\",\"9\",\"1\",\"S\",\"J\",\"105\"
\"\",\"\",\"approach-retreat\",\"109\",\"852127\",\"0.0-109.0\",\"\",\"\",\"3-4\",\"4233\",\"37\",\"1\",\"Training\",\"Stims/Figures/100-J-10-3.bmp\",\"ta:kaka\",\"Right\",\"37\",\"7\",\"10\",\"1\",\"P\",\"J\",\"106\"
\"\",\"\",\"approach-retreat\",\"110\",\"857631\",\"0.0-110.0\",\"\",\"\",\"3-4\",\"3995\",\"38\",\"1\",\"Training\",\"Stims/Figures/74-J-10-4.bmp\",\"ta:kaka\",\"Down\",\"38\",\"7\",\"11\",\"1\",\"P\",\"J\",\"107\"
\"\",\"\",\"approach-retreat\",\"111\",\"863112\",\"0.0-111.0\",\"\",\"\",\"3-4\",\"3969\",\"37\",\"1\",\"Training\",\"Stims/Figures/87-J-10-4.bmp\",\"ta:kaka\",\"Right\",\"37\",\"7\",\"12\",\"1\",\"P\",\"J\",\"108\"
\"\",\"\",\"approach-retreat\",\"112\",\"868735\",\"0.0-112.0\",\"\",\"\",\"3-4\",\"4118\",\"38\",\"1\",\"Training\",\"Stims/Figures/87-C-20-4.bmp\",\"ma:la:la\",\"Up\",\"38\",\"7\",\"13\",\"1\",\"S\",\"J\",\"109\"
\"\",\"\",\"approach-retreat\",\"113\",\"874295\",\"0.0-113.0\",\"\",\"\",\"3-4\",\"4051\",\"38\",\"1\",\"Training\",\"Stims/Figures/139-C-20-2.bmp\",\"ma:la:la\",\"Up\",\"38\",\"7\",\"14\",\"1\",\"S\",\"J\",\"110\"
\"\",\"\",\"approach-retreat\",\"114\",\"879795\",\"0.0-114.0\",\"\",\"\",\"3-4\",\"3988\",\"39\",\"1\",\"Training\",\"Stims/Figures/57-J-0-1.bmp\",\"ta:kaka\",\"Left\",\"39\",\"7\",\"15\",\"1\",\"P\",\"J\",\"111\"
\"\",\"\",\"approach-retreat\",\"115\",\"885312\",\"0.0-115.0\",\"\",\"\",\"3-4\",\"4012\",\"37\",\"1\",\"Training\",\"Stims/Figures/57-C-30-1.bmp\",\"ma:la:la\",\"Left\",\"37\",\"7\",\"16\",\"1\",\"S\",\"J\",\"112\"
\"\",\"\",\"approach-retreat\",\"116\",\"890871\",\"0.0-116.0\",\"\",\"\",\"3-4\",\"4049\",\"40\",\"1\",\"Training\",\"Stims/Figures/57-C-30-1.bmp\",\"ma:la:la\",\"Down\",\"40\",\"8\",\"1\",\"1\",\"S\",\"J\",\"113\"
\"\",\"\",\"approach-retreat\",\"117\",\"896447\",\"0.0-117.0\",\"\",\"\",\"3-4\",\"4067\",\"38\",\"1\",\"Training\",\"Stims/Figures/144-J-10-3.bmp\",\"ta:kaka\",\"Down\",\"38\",\"8\",\"2\",\"1\",\"P\",\"J\",\"114\"
\"\",\"\",\"approach-retreat\",\"118\",\"902031\",\"0.0-118.0\",\"\",\"\",\"3-4\",\"4073\",\"39\",\"1\",\"Training\",\"Stims/Figures/94-C-20-2.bmp\",\"ma:la:la\",\"Right\",\"39\",\"8\",\"3\",\"1\",\"S\",\"J\",\"115\"
\"\",\"\",\"approach-retreat\",\"119\",\"907943\",\"0.0-119.0\",\"\",\"\",\"3-4\",\"4402\",\"40\",\"1\",\"Training\",\"Stims/Figures/71-C-30-1.bmp\",\"ma:la:la\",\"Down\",\"40\",\"8\",\"4\",\"1\",\"S\",\"J\",\"116\"
\"\",\"\",\"approach-retreat\",\"120\",\"912991\",\"0.0-120.0\",\"\",\"\",\"3-4\",\"3540\",\"38\",\"1\",\"Training\",\"Stims/Figures/94-J-0-2.bmp\",\"ta:kaka\",\"Down\",\"38\",\"8\",\"5\",\"1\",\"P\",\"J\",\"117\"
\"\",\"\",\"approach-retreat\",\"121\",\"918687\",\"0.0-121.0\",\"\",\"\",\"3-4\",\"4187\",\"39\",\"1\",\"Training\",\"Stims/Figures/139-J-0-2.bmp\",\"ta:kaka\",\"Left\",\"39\",\"8\",\"6\",\"1\",\"P\",\"J\",\"118\"
\"\",\"\",\"approach-retreat\",\"122\",\"924552\",\"0.0-122.0\",\"\",\"\",\"3-4\",\"4346\",\"39\",\"1\",\"Training\",\"Stims/Figures/139-C-20-2.bmp\",\"ma:la:la\",\"Right\",\"39\",\"8\",\"7\",\"1\",\"S\",\"J\",\"119\"
\"\",\"\",\"approach-retreat\",\"123\",\"930127\",\"0.0-123.0\",\"\",\"\",\"3-4\",\"4066\",\"39\",\"1\",\"Training\",\"Stims/Figures/144-C-30-3.bmp\",\"ma:la:la\",\"Right\",\"39\",\"8\",\"8\",\"1\",\"S\",\"J\",\"120\"
\"\",\"\",\"approach-retreat\",\"124\",\"935727\",\"0.0-124.0\",\"\",\"\",\"3-4\",\"4090\",\"38\",\"1\",\"Training\",\"Stims/Figures/74-C-20-4.bmp\",\"ma:la:la\",\"Up\",\"38\",\"8\",\"9\",\"1\",\"S\",\"J\",\"121\"
\"\",\"\",\"approach-retreat\",\"125\",\"941231\",\"0.0-125.0\",\"\",\"\",\"3-4\",\"3993\",\"37\",\"1\",\"Training\",\"Stims/Figures/74-J-10-4.bmp\",\"ta:kaka\",\"Right\",\"37\",\"8\",\"10\",\"1\",\"P\",\"J\",\"122\"
\"\",\"\",\"approach-retreat\",\"126\",\"946840\",\"0.0-126.0\",\"\",\"\",\"3-4\",\"4099\",\"40\",\"1\",\"Training\",\"Stims/Figures/57-J-0-1.bmp\",\"ta:kaka\",\"Up\",\"40\",\"8\",\"11\",\"1\",\"P\",\"J\",\"123\"
\"\",\"\",\"approach-retreat\",\"127\",\"952359\",\"0.0-127.0\",\"\",\"\",\"3-4\",\"4008\",\"37\",\"1\",\"Training\",\"Stims/Figures/100-C-30-3.bmp\",\"ma:la:la\",\"Left\",\"37\",\"8\",\"12\",\"1\",\"S\",\"J\",\"124\"
\"\",\"\",\"approach-retreat\",\"128\",\"957895\",\"0.0-128.0\",\"\",\"\",\"3-4\",\"4031\",\"39\",\"1\",\"Training\",\"Stims/Figures/87-J-10-4.bmp\",\"ta:kaka\",\"Left\",\"39\",\"8\",\"13\",\"1\",\"P\",\"J\",\"125\"
\"\",\"\",\"approach-retreat\",\"129\",\"963440\",\"0.0-129.0\",\"\",\"\",\"3-4\",\"4035\",\"40\",\"1\",\"Training\",\"Stims/Figures/71-J-0-1.bmp\",\"ta:kaka\",\"Up\",\"40\",\"8\",\"14\",\"1\",\"P\",\"J\",\"126\"
\"\",\"\",\"approach-retreat\",\"130\",\"968928\",\"0.0-130.0\",\"\",\"\",\"3-4\",\"3977\",\"37\",\"1\",\"Training\",\"Stims/Figures/87-C-20-4.bmp\",\"ma:la:la\",\"Left\",\"37\",\"8\",\"15\",\"1\",\"S\",\"J\",\"127\"
\"\",\"\",\"approach-retreat\",\"131\",\"974391\",\"0.0-131.0\",\"\",\"\",\"3-4\",\"3952\",\"40\",\"1\",\"Training\",\"Stims/Figures/100-J-10-3.bmp\",\"ta:kaka\",\"Up\",\"40\",\"8\",\"16\",\"1\",\"P\",\"J\",\"128\"
\"\",\"\",\"approach-retreat\",\"132\",\"979825\",\"0.0-132.0\",\"\",\"\",\"3-4\",\"3929\",\"37\",\"1\",\"Training\",\"Stims/Figures/94-C-20-2.bmp\",\"ma:la:la\",\"Left\",\"37\",\"9\",\"1\",\"1\",\"S\",\"J\",\"129\"
\"\",\"\",\"approach-retreat\",\"133\",\"985344\",\"0.0-133.0\",\"\",\"\",\"3-4\",\"4014\",\"37\",\"1\",\"Training\",\"Stims/Figures/87-C-20-4.bmp\",\"ma:la:la\",\"Left\",\"37\",\"9\",\"2\",\"1\",\"S\",\"J\",\"130\"
\"\",\"\",\"approach-retreat\",\"134\",\"990907\",\"0.0-134.0\",\"\",\"\",\"3-4\",\"4054\",\"40\",\"1\",\"Training\",\"Stims/Figures/100-C-30-3.bmp\",\"ma:la:la\",\"Down\",\"40\",\"9\",\"3\",\"1\",\"S\",\"J\",\"131\"
\"\",\"\",\"approach-retreat\",\"135\",\"996422\",\"0.0-135.0\",\"\",\"\",\"3-4\",\"4007\",\"40\",\"1\",\"Training\",\"Stims/Figures/71-J-0-1.bmp\",\"ta:kaka\",\"Up\",\"40\",\"9\",\"4\",\"1\",\"P\",\"J\",\"132\"
\"\",\"\",\"approach-retreat\",\"136\",\"1002199\",\"0.0-136.0\",\"\",\"\",\"3-4\",\"4271\",\"38\",\"1\",\"Training\",\"Stims/Figures/144-J-10-3.bmp\",\"ta:kaka\",\"Down\",\"38\",\"9\",\"5\",\"1\",\"P\",\"J\",\"133\"
\"\",\"\",\"approach-retreat\",\"137\",\"1007687\",\"0.0-137.0\",\"\",\"\",\"3-4\",\"3979\",\"37\",\"1\",\"Training\",\"Stims/Figures/87-J-10-4.bmp\",\"ta:kaka\",\"Right\",\"37\",\"9\",\"6\",\"1\",\"P\",\"J\",\"134\"
\"\",\"\",\"approach-retreat\",\"138\",\"1013144\",\"0.0-138.0\",\"\",\"\",\"3-4\",\"3951\",\"37\",\"1\",\"Training\",\"Stims/Figures/139-C-20-2.bmp\",\"ma:la:la\",\"Left\",\"37\",\"9\",\"7\",\"1\",\"S\",\"J\",\"135\"
\"\",\"\",\"approach-retreat\",\"139\",\"1018759\",\"0.0-139.0\",\"\",\"\",\"3-4\",\"4084\",\"40\",\"1\",\"Training\",\"Stims/Figures/94-J-0-2.bmp\",\"ta:kaka\",\"Up\",\"40\",\"9\",\"8\",\"1\",\"P\",\"J\",\"136\"
\"\",\"\",\"approach-retreat\",\"140\",\"1024151\",\"0.0-140.0\",\"\",\"\",\"3-4\",\"3872\",\"40\",\"1\",\"Training\",\"Stims/Figures/57-J-0-1.bmp\",\"ta:kaka\",\"Up\",\"40\",\"9\",\"9\",\"1\",\"P\",\"J\",\"137\"
\"\",\"\",\"approach-retreat\",\"141\",\"1029719\",\"0.0-141.0\",\"\",\"\",\"3-4\",\"4064\",\"39\",\"1\",\"Training\",\"Stims/Figures/144-C-30-3.bmp\",\"ma:la:la\",\"Right\",\"39\",\"9\",\"10\",\"1\",\"S\",\"J\",\"138\"
\"\",\"\",\"approach-retreat\",\"142\",\"1035247\",\"0.0-142.0\",\"\",\"\",\"3-4\",\"4017\",\"39\",\"1\",\"Training\",\"Stims/Figures/57-C-30-1.bmp\",\"ma:la:la\",\"Right\",\"39\",\"9\",\"11\",\"1\",\"S\",\"J\",\"139\"
\"\",\"\",\"approach-retreat\",\"143\",\"1040815\",\"0.0-143.0\",\"\",\"\",\"3-4\",\"4064\",\"40\",\"1\",\"Training\",\"Stims/Figures/74-J-10-4.bmp\",\"ta:kaka\",\"Up\",\"40\",\"9\",\"12\",\"1\",\"P\",\"J\",\"140\"
\"\",\"\",\"approach-retreat\",\"144\",\"1046327\",\"0.0-144.0\",\"\",\"\",\"3-4\",\"4004\",\"40\",\"1\",\"Training\",\"Stims/Figures/74-C-20-4.bmp\",\"ma:la:la\",\"Down\",\"40\",\"9\",\"13\",\"1\",\"S\",\"J\",\"141\"
\"\",\"\",\"approach-retreat\",\"145\",\"1051935\",\"0.0-145.0\",\"\",\"\",\"3-4\",\"4102\",\"38\",\"1\",\"Training\",\"Stims/Figures/100-J-10-3.bmp\",\"ta:kaka\",\"Down\",\"38\",\"9\",\"14\",\"1\",\"P\",\"J\",\"142\"
\"\",\"\",\"approach-retreat\",\"146\",\"1057408\",\"0.0-146.0\",\"\",\"\",\"3-4\",\"3963\",\"37\",\"1\",\"Training\",\"Stims/Figures/71-C-30-1.bmp\",\"ma:la:la\",\"Left\",\"37\",\"9\",\"15\",\"1\",\"S\",\"J\",\"143\"
\"\",\"\",\"approach-retreat\",\"147\",\"1062873\",\"0.0-147.0\",\"\",\"\",\"3-4\",\"3958\",\"37\",\"1\",\"Training\",\"Stims/Figures/139-J-0-2.bmp\",\"ta:kaka\",\"Right\",\"37\",\"9\",\"16\",\"1\",\"P\",\"J\",\"144\"
\"34171\",\"\",\"instructions\",\"148\",\"1097045\",\"0.0-148.0\",\"[{\"\"page_index\"\":0,\"\"viewing_time\"\":34170}]\",\"\",\"\",\"\",\"\",\"\",\"\",\"\",\"\",\"\",\"\",\"\",\"\",\"\",\"\",\"\",\"\"
\"\",\"\",\"approach-retreat\",\"149\",\"1102856\",\"0.0-149.0\",\"\",\"\",\"3-4\",\"4286\",\"40\",\"1\",\"Testing\",\"Stims/Figures/94-J-0-2.bmp\",\"ta:kaka\",\"Up\",\"40\",\"1\",\"1\",\"1\",\"P\",\"J\",\"1\"
\"\",\"\",\"approach-retreat\",\"150\",\"1108639\",\"0.0-150.0\",\"\",\"\",\"3-4\",\"4274\",\"38\",\"1\",\"Testing\",\"Stims/Figures/74-J-10-4.bmp\",\"ta:kaka\",\"Down\",\"38\",\"1\",\"2\",\"1\",\"P\",\"J\",\"2\"
\"\",\"\",\"approach-retreat\",\"151\",\"1114380\",\"0.0-151.0\",\"\",\"\",\"3-4\",\"4228\",\"40\",\"1\",\"Testing\",\"Stims/Figures/94-C-20-2.bmp\",\"ma:la:la\",\"Down\",\"40\",\"1\",\"3\",\"1\",\"S\",\"J\",\"3\"
\"\",\"\",\"approach-retreat\",\"152\",\"1120272\",\"0.0-152.0\",\"\",\"\",\"3-4\",\"4379\",\"37\",\"0\",\"Testing\",\"Stims/Figures/144-C-30-3.bmp\",\"ma:la:la\",\"Right\",\"39\",\"1\",\"4\",\"1\",\"S\",\"J\",\"4\"
\"\",\"\",\"approach-retreat\",\"153\",\"1126024\",\"0.0-153.0\",\"\",\"\",\"3-4\",\"4232\",\"37\",\"0\",\"Testing\",\"Stims/Figures/128-C-30-3.bmp\",\"ma:la:la\",\"Right\",\"39\",\"1\",\"5\",\"1\",\"S\",\"J\",\"5\"
\"\",\"\",\"approach-retreat\",\"154\",\"1133140\",\"0.0-154.0\",\"\",\"\",\"3-4\",\"5595\",\"40\",\"1\",\"Testing\",\"Stims/Figures/7-C-20-4.bmp\",\"ma:la:la\",\"Down\",\"40\",\"1\",\"6\",\"1\",\"S\",\"J\",\"6\"
\"\",\"\",\"approach-retreat\",\"155\",\"1138671\",\"0.0-155.0\",\"\",\"\",\"3-4\",\"4002\",\"39\",\"1\",\"Testing\",\"Stims/Figures/128-J-10-3.bmp\",\"ta:kaka\",\"Left\",\"39\",\"1\",\"7\",\"1\",\"P\",\"J\",\"7\"
\"\",\"\",\"approach-retreat\",\"156\",\"1145326\",\"0.0-156.0\",\"\",\"\",\"3-4\",\"5145\",\"39\",\"1\",\"Testing\",\"Stims/Figures/71-C-30-1.bmp\",\"ma:la:la\",\"Right\",\"39\",\"1\",\"8\",\"1\",\"S\",\"J\",\"8\"
\"\",\"\",\"approach-retreat\",\"157\",\"1150998\",\"0.0-157.0\",\"\",\"\",\"3-4\",\"4162\",\"37\",\"1\",\"Testing\",\"Stims/Figures/57-J-0-1.bmp\",\"ta:kaka\",\"Right\",\"37\",\"1\",\"9\",\"1\",\"P\",\"J\",\"9\"
\"\",\"\",\"approach-retreat\",\"158\",\"1157350\",\"0.0-158.0\",\"\",\"\",\"3-4\",\"4843\",\"38\",\"1\",\"Testing\",\"Stims/Figures/57-C-30-1.bmp\",\"ma:la:la\",\"Up\",\"38\",\"1\",\"10\",\"1\",\"S\",\"J\",\"10\"
\"\",\"\",\"approach-retreat\",\"159\",\"1162984\",\"0.0-159.0\",\"\",\"\",\"3-4\",\"4122\",\"39\",\"1\",\"Testing\",\"Stims/Figures/144-J-10-3.bmp\",\"ta:kaka\",\"Left\",\"39\",\"1\",\"11\",\"1\",\"P\",\"J\",\"11\"
\"\",\"\",\"approach-retreat\",\"160\",\"1169366\",\"0.0-160.0\",\"\",\"\",\"3-4\",\"4857\",\"40\",\"1\",\"Testing\",\"Stims/Figures/93-C-30-1.bmp\",\"ma:la:la\",\"Down\",\"40\",\"1\",\"12\",\"1\",\"S\",\"J\",\"12\"
\"\",\"\",\"approach-retreat\",\"161\",\"1175068\",\"0.0-161.0\",\"\",\"\",\"3-4\",\"4189\",\"40\",\"1\",\"Testing\",\"Stims/Figures/85-J-0-2.bmp\",\"ta:kaka\",\"Up\",\"40\",\"1\",\"13\",\"1\",\"P\",\"J\",\"13\"
\"\",\"\",\"approach-retreat\",\"162\",\"1180880\",\"0.0-162.0\",\"\",\"\",\"3-4\",\"4296\",\"40\",\"1\",\"Testing\",\"Stims/Figures/93-J-0-1.bmp\",\"ta:kaka\",\"Up\",\"40\",\"1\",\"14\",\"1\",\"P\",\"J\",\"14\"
\"\",\"\",\"approach-retreat\",\"163\",\"1186622\",\"0.0-163.0\",\"\",\"\",\"3-4\",\"4229\",\"38\",\"1\",\"Testing\",\"Stims/Figures/100-C-30-3.bmp\",\"ma:la:la\",\"Up\",\"38\",\"1\",\"15\",\"1\",\"S\",\"J\",\"15\"
\"\",\"\",\"approach-retreat\",\"164\",\"1194430\",\"0.0-164.0\",\"\",\"\",\"3-4\",\"6288\",\"37\",\"0\",\"Testing\",\"Stims/Figures/74-C-20-4.bmp\",\"ma:la:la\",\"Right\",\"39\",\"1\",\"16\",\"1\",\"S\",\"J\",\"16\"
\"\",\"\",\"approach-retreat\",\"165\",\"1202032\",\"0.0-165.0\",\"\",\"\",\"3-4\",\"6079\",\"39\",\"1\",\"Testing\",\"Stims/Figures/85-C-20-2.bmp\",\"ma:la:la\",\"Right\",\"39\",\"1\",\"17\",\"1\",\"S\",\"J\",\"17\"
\"\",\"\",\"approach-retreat\",\"166\",\"1207626\",\"0.0-166.0\",\"\",\"\",\"3-4\",\"4082\",\"39\",\"0\",\"Testing\",\"Stims/Figures/139-C-20-2.bmp\",\"ma:la:la\",\"Left\",\"37\",\"1\",\"18\",\"1\",\"S\",\"J\",\"18\"
\"\",\"\",\"approach-retreat\",\"167\",\"1213772\",\"0.0-167.0\",\"\",\"\",\"3-4\",\"4630\",\"38\",\"1\",\"Testing\",\"Stims/Figures/71-J-0-1.bmp\",\"ta:kaka\",\"Down\",\"38\",\"1\",\"19\",\"1\",\"P\",\"J\",\"19\"
\"\",\"\",\"approach-retreat\",\"168\",\"1219427\",\"0.0-168.0\",\"\",\"\",\"3-4\",\"4138\",\"40\",\"1\",\"Testing\",\"Stims/Figures/139-J-0-2.bmp\",\"ta:kaka\",\"Up\",\"40\",\"1\",\"20\",\"1\",\"P\",\"J\",\"20\"
\"\",\"\",\"approach-retreat\",\"169\",\"1225685\",\"0.0-169.0\",\"\",\"\",\"3-4\",\"4736\",\"38\",\"1\",\"Testing\",\"Stims/Figures/7-J-10-4.bmp\",\"ta:kaka\",\"Down\",\"38\",\"1\",\"21\",\"1\",\"P\",\"J\",\"21\"
\"\",\"\",\"approach-retreat\",\"170\",\"1231718\",\"0.0-170.0\",\"\",\"\",\"3-4\",\"4527\",\"37\",\"1\",\"Testing\",\"Stims/Figures/87-C-20-4.bmp\",\"ma:la:la\",\"Left\",\"37\",\"1\",\"22\",\"1\",\"S\",\"J\",\"22\"
\"\",\"\",\"approach-retreat\",\"171\",\"1237665\",\"0.0-171.0\",\"\",\"\",\"3-4\",\"4436\",\"39\",\"1\",\"Testing\",\"Stims/Figures/100-J-10-3.bmp\",\"ta:kaka\",\"Left\",\"39\",\"1\",\"23\",\"1\",\"P\",\"J\",\"23\"
\"\",\"\",\"approach-retreat\",\"172\",\"1245528\",\"0.0-172.0\",\"\",\"\",\"3-4\",\"6346\",\"39\",\"1\",\"Testing\",\"Stims/Figures/87-J-10-4.bmp\",\"ta:kaka\",\"Left\",\"39\",\"1\",\"24\",\"1\",\"P\",\"J\",\"24\"
\"\",\"\",\"approach-retreat\",\"173\",\"1251743\",\"0.0-173.0\",\"\",\"\",\"3-4\",\"4697\",\"39\",\"1\",\"Testing\",\"Stims/Figures/94-J-0-2.bmp\",\"ta:kaka\",\"Left\",\"39\",\"2\",\"1\",\"1\",\"P\",\"J\",\"25\"
\"\",\"\",\"approach-retreat\",\"174\",\"1257296\",\"0.0-174.0\",\"\",\"\",\"3-4\",\"4043\",\"37\",\"0\",\"Testing\",\"Stims/Figures/71-C-30-1.bmp\",\"ma:la:la\",\"Right\",\"39\",\"2\",\"2\",\"1\",\"S\",\"J\",\"26\"
\"\",\"\",\"approach-retreat\",\"175\",\"1264911\",\"0.0-175.0\",\"\",\"\",\"3-4\",\"6097\",\"38\",\"1\",\"Testing\",\"Stims/Figures/87-J-10-4.bmp\",\"ta:kaka\",\"Down\",\"38\",\"2\",\"3\",\"1\",\"P\",\"J\",\"27\"
\"\",\"\",\"approach-retreat\",\"176\",\"1270512\",\"0.0-176.0\",\"\",\"\",\"3-4\",\"4091\",\"39\",\"1\",\"Testing\",\"Stims/Figures/139-J-0-2.bmp\",\"ta:kaka\",\"Left\",\"39\",\"2\",\"4\",\"1\",\"P\",\"J\",\"28\"
\"\",\"\",\"approach-retreat\",\"177\",\"1276197\",\"0.0-177.0\",\"\",\"\",\"3-4\",\"4171\",\"37\",\"0\",\"Testing\",\"Stims/Figures/74-C-20-4.bmp\",\"ma:la:la\",\"Right\",\"39\",\"2\",\"5\",\"1\",\"S\",\"J\",\"29\"
\"\",\"\",\"approach-retreat\",\"178\",\"1282048\",\"0.0-178.0\",\"\",\"\",\"3-4\",\"4342\",\"40\",\"1\",\"Testing\",\"Stims/Figures/7-C-20-4.bmp\",\"ma:la:la\",\"Down\",\"40\",\"2\",\"6\",\"1\",\"S\",\"J\",\"30\"
\"\",\"\",\"approach-retreat\",\"179\",\"1287608\",\"0.0-179.0\",\"\",\"\",\"3-4\",\"4041\",\"39\",\"1\",\"Testing\",\"Stims/Figures/100-C-30-3.bmp\",\"ma:la:la\",\"Right\",\"39\",\"2\",\"7\",\"1\",\"S\",\"J\",\"31\"
\"\",\"\",\"approach-retreat\",\"180\",\"1293824\",\"0.0-180.0\",\"\",\"\",\"3-4\",\"4707\",\"38\",\"1\",\"Testing\",\"Stims/Figures/74-J-10-4.bmp\",\"ta:kaka\",\"Down\",\"38\",\"2\",\"8\",\"1\",\"P\",\"J\",\"32\"
\"\",\"\",\"approach-retreat\",\"181\",\"1300466\",\"0.0-181.0\",\"\",\"\",\"3-4\",\"5127\",\"38\",\"0\",\"Testing\",\"Stims/Figures/139-C-20-2.bmp\",\"ma:la:la\",\"Down\",\"40\",\"2\",\"9\",\"1\",\"S\",\"J\",\"33\"
\"\",\"\",\"approach-retreat\",\"182\",\"1306070\",\"0.0-182.0\",\"\",\"\",\"3-4\",\"4089\",\"39\",\"1\",\"Testing\",\"Stims/Figures/71-J-0-1.bmp\",\"ta:kaka\",\"Left\",\"39\",\"2\",\"10\",\"1\",\"P\",\"J\",\"34\"
\"\",\"\",\"approach-retreat\",\"183\",\"1311672\",\"0.0-183.0\",\"\",\"\",\"3-4\",\"4091\",\"40\",\"1\",\"Testing\",\"Stims/Figures/100-J-10-3.bmp\",\"ta:kaka\",\"Up\",\"40\",\"2\",\"11\",\"1\",\"P\",\"J\",\"35\"
\"\",\"\",\"approach-retreat\",\"184\",\"1317214\",\"0.0-184.0\",\"\",\"\",\"3-4\",\"4032\",\"37\",\"1\",\"Testing\",\"Stims/Figures/87-C-20-4.bmp\",\"ma:la:la\",\"Left\",\"37\",\"2\",\"12\",\"1\",\"S\",\"J\",\"36\"
\"\",\"\",\"approach-retreat\",\"185\",\"1322878\",\"0.0-185.0\",\"\",\"\",\"3-4\",\"4148\",\"40\",\"1\",\"Testing\",\"Stims/Figures/57-J-0-1.bmp\",\"ta:kaka\",\"Up\",\"40\",\"2\",\"13\",\"1\",\"P\",\"J\",\"37\"
\"\",\"\",\"approach-retreat\",\"186\",\"1328694\",\"0.0-186.0\",\"\",\"\",\"3-4\",\"4298\",\"40\",\"1\",\"Testing\",\"Stims/Figures/85-C-20-2.bmp\",\"ma:la:la\",\"Down\",\"40\",\"2\",\"14\",\"1\",\"S\",\"J\",\"38\"
\"\",\"\",\"approach-retreat\",\"187\",\"1336997\",\"0.0-187.0\",\"\",\"\",\"3-4\",\"6789\",\"39\",\"0\",\"Testing\",\"Stims/Figures/128-C-30-3.bmp\",\"ma:la:la\",\"Left\",\"37\",\"2\",\"15\",\"1\",\"S\",\"J\",\"39\"
\"\",\"\",\"approach-retreat\",\"188\",\"1342590\",\"0.0-188.0\",\"\",\"\",\"3-4\",\"4076\",\"40\",\"1\",\"Testing\",\"Stims/Figures/85-J-0-2.bmp\",\"ta:kaka\",\"Up\",\"40\",\"2\",\"16\",\"1\",\"P\",\"J\",\"40\"
\"\",\"\",\"approach-retreat\",\"189\",\"1348204\",\"0.0-189.0\",\"\",\"\",\"3-4\",\"4099\",\"37\",\"0\",\"Testing\",\"Stims/Figures/57-C-30-1.bmp\",\"ma:la:la\",\"Right\",\"39\",\"2\",\"17\",\"1\",\"S\",\"J\",\"41\"
\"\",\"\",\"approach-retreat\",\"190\",\"1353790\",\"0.0-190.0\",\"\",\"\",\"3-4\",\"4069\",\"39\",\"1\",\"Testing\",\"Stims/Figures/93-J-0-1.bmp\",\"ta:kaka\",\"Left\",\"39\",\"2\",\"18\",\"1\",\"P\",\"J\",\"42\"
\"\",\"\",\"approach-retreat\",\"191\",\"1359392\",\"0.0-191.0\",\"\",\"\",\"3-4\",\"4090\",\"37\",\"1\",\"Testing\",\"Stims/Figures/128-J-10-3.bmp\",\"ta:kaka\",\"Right\",\"37\",\"2\",\"19\",\"1\",\"P\",\"J\",\"43\"
\"\",\"\",\"approach-retreat\",\"192\",\"1364935\",\"0.0-192.0\",\"\",\"\",\"3-4\",\"4033\",\"40\",\"1\",\"Testing\",\"Stims/Figures/93-C-30-1.bmp\",\"ma:la:la\",\"Down\",\"40\",\"2\",\"20\",\"1\",\"S\",\"J\",\"44\"
\"\",\"\",\"approach-retreat\",\"193\",\"1370828\",\"0.0-193.0\",\"\",\"\",\"3-4\",\"4378\",\"39\",\"1\",\"Testing\",\"Stims/Figures/144-C-30-3.bmp\",\"ma:la:la\",\"Right\",\"39\",\"2\",\"21\",\"1\",\"S\",\"J\",\"45\"
\"\",\"\",\"approach-retreat\",\"194\",\"1379000\",\"0.0-194.0\",\"\",\"\",\"3-4\",\"6662\",\"40\",\"1\",\"Testing\",\"Stims/Figures/7-J-10-4.bmp\",\"ta:kaka\",\"Up\",\"40\",\"2\",\"22\",\"1\",\"P\",\"J\",\"46\"
\"\",\"\",\"approach-retreat\",\"195\",\"1384614\",\"0.0-195.0\",\"\",\"\",\"3-4\",\"4105\",\"40\",\"1\",\"Testing\",\"Stims/Figures/144-J-10-3.bmp\",\"ta:kaka\",\"Up\",\"40\",\"2\",\"23\",\"1\",\"P\",\"J\",\"47\"
\"\",\"\",\"approach-retreat\",\"196\",\"1394456\",\"0.0-196.0\",\"\",\"\",\"3-4\",\"8331\",\"40\",\"0\",\"Testing\",\"Stims/Figures/94-C-20-2.bmp\",\"ma:la:la\",\"Up\",\"38\",\"2\",\"24\",\"1\",\"S\",\"J\",\"48\"
\"\",\"\",\"approach-retreat\",\"197\",\"1402290\",\"0.0-197.0\",\"\",\"\",\"3-4\",\"6325\",\"38\",\"1\",\"Testing\",\"Stims/Figures/87-J-10-4.bmp\",\"ta:kaka\",\"Down\",\"38\",\"3\",\"1\",\"1\",\"P\",\"J\",\"49\"
\"\",\"\",\"approach-retreat\",\"198\",\"1407854\",\"0.0-198.0\",\"\",\"\",\"3-4\",\"4048\",\"37\",\"1\",\"Testing\",\"Stims/Figures/71-J-0-1.bmp\",\"ta:kaka\",\"Right\",\"37\",\"3\",\"2\",\"1\",\"P\",\"J\",\"50\"
\"\",\"\",\"approach-retreat\",\"199\",\"1413367\",\"0.0-199.0\",\"\",\"\",\"3-4\",\"3999\",\"37\",\"1\",\"Testing\",\"Stims/Figures/144-J-10-3.bmp\",\"ta:kaka\",\"Right\",\"37\",\"3\",\"3\",\"1\",\"P\",\"J\",\"51\"
\"\",\"\",\"approach-retreat\",\"200\",\"1419060\",\"0.0-200.0\",\"\",\"\",\"3-4\",\"4183\",\"37\",\"1\",\"Testing\",\"Stims/Figures/144-C-30-3.bmp\",\"ma:la:la\",\"Left\",\"37\",\"3\",\"4\",\"1\",\"S\",\"J\",\"52\"
\"\",\"\",\"approach-retreat\",\"201\",\"1427224\",\"0.0-201.0\",\"\",\"\",\"3-4\",\"6654\",\"38\",\"1\",\"Testing\",\"Stims/Figures/74-J-10-4.bmp\",\"ta:kaka\",\"Down\",\"38\",\"3\",\"5\",\"1\",\"P\",\"J\",\"53\"
\"\",\"\",\"approach-retreat\",\"202\",\"1434998\",\"0.0-202.0\",\"\",\"\",\"3-4\",\"6265\",\"38\",\"1\",\"Testing\",\"Stims/Figures/128-J-10-3.bmp\",\"ta:kaka\",\"Down\",\"38\",\"3\",\"6\",\"1\",\"P\",\"J\",\"54\"
\"\",\"\",\"approach-retreat\",\"203\",\"1440832\",\"0.0-203.0\",\"\",\"\",\"3-4\",\"4323\",\"38\",\"0\",\"Testing\",\"Stims/Figures/94-C-20-2.bmp\",\"ma:la:la\",\"Down\",\"40\",\"3\",\"7\",\"1\",\"S\",\"J\",\"55\"
\"\",\"\",\"approach-retreat\",\"204\",\"1446664\",\"0.0-204.0\",\"\",\"\",\"3-4\",\"4323\",\"38\",\"1\",\"Testing\",\"Stims/Figures/139-J-0-2.bmp\",\"ta:kaka\",\"Down\",\"38\",\"3\",\"8\",\"1\",\"P\",\"J\",\"56\"
\"\",\"\",\"approach-retreat\",\"205\",\"1452366\",\"0.0-205.0\",\"\",\"\",\"3-4\",\"4184\",\"40\",\"1\",\"Testing\",\"Stims/Figures/93-J-0-1.bmp\",\"ta:kaka\",\"Up\",\"40\",\"3\",\"9\",\"1\",\"P\",\"J\",\"57\"
\"\",\"\",\"approach-retreat\",\"206\",\"1458373\",\"0.0-206.0\",\"\",\"\",\"3-4\",\"4492\",\"38\",\"1\",\"Testing\",\"Stims/Figures/128-C-30-3.bmp\",\"ma:la:la\",\"Up\",\"38\",\"3\",\"10\",\"1\",\"S\",\"J\",\"58\"
\"\",\"\",\"approach-retreat\",\"207\",\"1464046\",\"0.0-207.0\",\"\",\"\",\"3-4\",\"4169\",\"37\",\"1\",\"Testing\",\"Stims/Figures/93-C-30-1.bmp\",\"ma:la:la\",\"Left\",\"37\",\"3\",\"11\",\"1\",\"S\",\"J\",\"59\"
\"\",\"\",\"approach-retreat\",\"208\",\"1472330\",\"0.0-208.0\",\"\",\"\",\"3-4\",\"6773\",\"39\",\"0\",\"Testing\",\"Stims/Figures/74-C-20-4.bmp\",\"ma:la:la\",\"Left\",\"37\",\"3\",\"12\",\"1\",\"S\",\"J\",\"60\"
\"\",\"\",\"approach-retreat\",\"209\",\"1481440\",\"0.0-209.0\",\"\",\"\",\"3-4\",\"7600\",\"37\",\"0\",\"Testing\",\"Stims/Figures/7-C-20-4.bmp\",\"ma:la:la\",\"Right\",\"39\",\"3\",\"13\",\"1\",\"S\",\"J\",\"61\"
\"\",\"\",\"approach-retreat\",\"210\",\"1487814\",\"0.0-210.0\",\"\",\"\",\"3-4\",\"4857\",\"38\",\"1\",\"Testing\",\"Stims/Figures/94-J-0-2.bmp\",\"ta:kaka\",\"Down\",\"38\",\"3\",\"14\",\"1\",\"P\",\"J\",\"62\"
\"\",\"\",\"approach-retreat\",\"211\",\"1493506\",\"0.0-211.0\",\"\",\"\",\"3-4\",\"4180\",\"39\",\"1\",\"Testing\",\"Stims/Figures/87-C-20-4.bmp\",\"ma:la:la\",\"Right\",\"39\",\"3\",\"15\",\"1\",\"S\",\"J\",\"63\"
\"\",\"\",\"approach-retreat\",\"212\",\"1499196\",\"0.0-212.0\",\"\",\"\",\"3-4\",\"4174\",\"40\",\"1\",\"Testing\",\"Stims/Figures/57-J-0-1.bmp\",\"ta:kaka\",\"Up\",\"40\",\"3\",\"16\",\"1\",\"P\",\"J\",\"64\"
\"\",\"\",\"approach-retreat\",\"213\",\"1504766\",\"0.0-213.0\",\"\",\"\",\"3-4\",\"4054\",\"37\",\"1\",\"Testing\",\"Stims/Figures/100-J-10-3.bmp\",\"ta:kaka\",\"Right\",\"37\",\"3\",\"17\",\"1\",\"P\",\"J\",\"65\"
\"\",\"\",\"approach-retreat\",\"214\",\"1511190\",\"0.0-214.0\",\"\",\"\",\"3-4\",\"4916\",\"40\",\"1\",\"Testing\",\"Stims/Figures/7-J-10-4.bmp\",\"ta:kaka\",\"Up\",\"40\",\"3\",\"18\",\"1\",\"P\",\"J\",\"66\"
\"\",\"\",\"approach-retreat\",\"215\",\"1516714\",\"0.0-215.0\",\"\",\"\",\"3-4\",\"4011\",\"39\",\"1\",\"Testing\",\"Stims/Figures/85-J-0-2.bmp\",\"ta:kaka\",\"Left\",\"39\",\"3\",\"19\",\"1\",\"P\",\"J\",\"67\"
\"\",\"\",\"approach-retreat\",\"216\",\"1522548\",\"0.0-216.0\",\"\",\"\",\"3-4\",\"4324\",\"38\",\"1\",\"Testing\",\"Stims/Figures/100-C-30-3.bmp\",\"ma:la:la\",\"Up\",\"38\",\"3\",\"20\",\"1\",\"S\",\"J\",\"68\"
\"\",\"\",\"approach-retreat\",\"217\",\"1530270\",\"0.0-217.0\",\"\",\"\",\"3-4\",\"6206\",\"37\",\"1\",\"Testing\",\"Stims/Figures/57-C-30-1.bmp\",\"ma:la:la\",\"Left\",\"37\",\"3\",\"21\",\"1\",\"S\",\"J\",\"69\"
\"\",\"\",\"approach-retreat\",\"218\",\"1535733\",\"0.0-218.0\",\"\",\"\",\"3-4\",\"3948\",\"37\",\"1\",\"Testing\",\"Stims/Figures/139-C-20-2.bmp\",\"ma:la:la\",\"Left\",\"37\",\"3\",\"22\",\"1\",\"S\",\"J\",\"70\"
\"\",\"\",\"approach-retreat\",\"219\",\"1541238\",\"0.0-219.0\",\"\",\"\",\"3-4\",\"3996\",\"40\",\"0\",\"Testing\",\"Stims/Figures/85-C-20-2.bmp\",\"ma:la:la\",\"Up\",\"38\",\"3\",\"23\",\"1\",\"S\",\"J\",\"71\"
\"\",\"\",\"approach-retreat\",\"220\",\"1546902\",\"0.0-220.0\",\"\",\"\",\"3-4\",\"4160\",\"37\",\"0\",\"Testing\",\"Stims/Figures/71-C-30-1.bmp\",\"ma:la:la\",\"Right\",\"39\",\"3\",\"24\",\"1\",\"S\",\"J\",\"72\"
\"\",\"\",\"approach-retreat\",\"221\",\"1552406\",\"0.0-221.0\",\"\",\"\",\"3-4\",\"3996\",\"40\",\"1\",\"Testing\",\"Stims/Figures/7-J-10-4.bmp\",\"ta:kaka\",\"Up\",\"40\",\"4\",\"1\",\"1\",\"P\",\"J\",\"73\"
\"\",\"\",\"approach-retreat\",\"222\",\"1557898\",\"0.0-222.0\",\"\",\"\",\"3-4\",\"3985\",\"40\",\"1\",\"Testing\",\"Stims/Figures/87-J-10-4.bmp\",\"ta:kaka\",\"Up\",\"40\",\"4\",\"2\",\"1\",\"P\",\"J\",\"74\"
\"\",\"\",\"approach-retreat\",\"223\",\"1563518\",\"0.0-223.0\",\"\",\"\",\"3-4\",\"4108\",\"37\",\"1\",\"Testing\",\"Stims/Figures/100-J-10-3.bmp\",\"ta:kaka\",\"Right\",\"37\",\"4\",\"3\",\"1\",\"P\",\"J\",\"75\"
\"\",\"\",\"approach-retreat\",\"224\",\"1568948\",\"0.0-224.0\",\"\",\"\",\"3-4\",\"3917\",\"39\",\"1\",\"Testing\",\"Stims/Figures/74-J-10-4.bmp\",\"ta:kaka\",\"Left\",\"39\",\"4\",\"4\",\"1\",\"P\",\"J\",\"76\"
\"\",\"\",\"approach-retreat\",\"225\",\"1576721\",\"0.0-225.0\",\"\",\"\",\"3-4\",\"6257\",\"37\",\"1\",\"Testing\",\"Stims/Figures/57-C-30-1.bmp\",\"ma:la:la\",\"Left\",\"37\",\"4\",\"5\",\"1\",\"S\",\"J\",\"77\"
\"\",\"\",\"approach-retreat\",\"226\",\"1583984\",\"0.0-226.0\",\"\",\"\",\"3-4\",\"5754\",\"37\",\"1\",\"Testing\",\"Stims/Figures/100-C-30-3.bmp\",\"ma:la:la\",\"Left\",\"37\",\"4\",\"6\",\"1\",\"S\",\"J\",\"78\"
\"\",\"\",\"approach-retreat\",\"227\",\"1589688\",\"0.0-227.0\",\"\",\"\",\"3-4\",\"4195\",\"39\",\"0\",\"Testing\",\"Stims/Figures/85-C-20-2.bmp\",\"ma:la:la\",\"Left\",\"37\",\"4\",\"7\",\"1\",\"S\",\"J\",\"79\"
\"\",\"\",\"approach-retreat\",\"228\",\"1595238\",\"0.0-228.0\",\"\",\"\",\"3-4\",\"4037\",\"37\",\"1\",\"Testing\",\"Stims/Figures/57-J-0-1.bmp\",\"ta:kaka\",\"Right\",\"37\",\"4\",\"8\",\"1\",\"P\",\"J\",\"80\"
\"\",\"\",\"approach-retreat\",\"229\",\"1601082\",\"0.0-229.0\",\"\",\"\",\"3-4\",\"4333\",\"39\",\"1\",\"Testing\",\"Stims/Figures/144-C-30-3.bmp\",\"ma:la:la\",\"Right\",\"39\",\"4\",\"9\",\"1\",\"S\",\"J\",\"81\"
\"\",\"\",\"approach-retreat\",\"230\",\"1606772\",\"0.0-230.0\",\"\",\"\",\"3-4\",\"4175\",\"37\",\"1\",\"Testing\",\"Stims/Figures/94-J-0-2.bmp\",\"ta:kaka\",\"Right\",\"37\",\"4\",\"10\",\"1\",\"P\",\"J\",\"82\"
\"\",\"\",\"approach-retreat\",\"231\",\"1612536\",\"0.0-231.0\",\"\",\"\",\"3-4\",\"4253\",\"37\",\"1\",\"Testing\",\"Stims/Figures/139-J-0-2.bmp\",\"ta:kaka\",\"Right\",\"37\",\"4\",\"11\",\"1\",\"P\",\"J\",\"83\"
\"\",\"\",\"approach-retreat\",\"232\",\"1618400\",\"0.0-232.0\",\"\",\"\",\"3-4\",\"4353\",\"38\",\"1\",\"Testing\",\"Stims/Figures/128-J-10-3.bmp\",\"ta:kaka\",\"Down\",\"38\",\"4\",\"12\",\"1\",\"P\",\"J\",\"84\"
\"\",\"\",\"approach-retreat\",\"233\",\"1624002\",\"0.0-233.0\",\"\",\"\",\"3-4\",\"4089\",\"37\",\"1\",\"Testing\",\"Stims/Figures/87-C-20-4.bmp\",\"ma:la:la\",\"Left\",\"37\",\"4\",\"13\",\"1\",\"S\",\"J\",\"85\"
\"\",\"\",\"approach-retreat\",\"234\",\"1629544\",\"0.0-234.0\",\"\",\"\",\"3-4\",\"4032\",\"40\",\"1\",\"Testing\",\"Stims/Figures/144-J-10-3.bmp\",\"ta:kaka\",\"Up\",\"40\",\"4\",\"14\",\"1\",\"P\",\"J\",\"86\"
\"\",\"\",\"approach-retreat\",\"235\",\"1635088\",\"0.0-235.0\",\"\",\"\",\"3-4\",\"4033\",\"40\",\"0\",\"Testing\",\"Stims/Figures/71-C-30-1.bmp\",\"ma:la:la\",\"Up\",\"38\",\"4\",\"15\",\"1\",\"S\",\"J\",\"87\"
\"\",\"\",\"approach-retreat\",\"236\",\"1642432\",\"0.0-236.0\",\"\",\"\",\"3-4\",\"5828\",\"39\",\"1\",\"Testing\",\"Stims/Figures/94-C-20-2.bmp\",\"ma:la:la\",\"Right\",\"39\",\"4\",\"16\",\"1\",\"S\",\"J\",\"88\"
\"\",\"\",\"approach-retreat\",\"237\",\"1648944\",\"0.0-237.0\",\"\",\"\",\"3-4\",\"5000\",\"40\",\"1\",\"Testing\",\"Stims/Figures/7-C-20-4.bmp\",\"ma:la:la\",\"Down\",\"40\",\"4\",\"17\",\"1\",\"S\",\"J\",\"89\"
\"\",\"\",\"approach-retreat\",\"238\",\"1654496\",\"0.0-238.0\",\"\",\"\",\"3-4\",\"4033\",\"38\",\"1\",\"Testing\",\"Stims/Figures/128-C-30-3.bmp\",\"ma:la:la\",\"Up\",\"38\",\"4\",\"18\",\"1\",\"S\",\"J\",\"90\"
\"\",\"\",\"approach-retreat\",\"239\",\"1660150\",\"0.0-239.0\",\"\",\"\",\"3-4\",\"4137\",\"40\",\"1\",\"Testing\",\"Stims/Figures/93-C-30-1.bmp\",\"ma:la:la\",\"Down\",\"40\",\"4\",\"19\",\"1\",\"S\",\"J\",\"91\"
\"\",\"\",\"approach-retreat\",\"240\",\"1666264\",\"0.0-240.0\",\"\",\"\",\"3-4\",\"4604\",\"38\",\"0\",\"Testing\",\"Stims/Figures/74-C-20-4.bmp\",\"ma:la:la\",\"Down\",\"40\",\"4\",\"20\",\"1\",\"S\",\"J\",\"92\"
\"\",\"\",\"approach-retreat\",\"241\",\"1671850\",\"0.0-241.0\",\"\",\"\",\"3-4\",\"4074\",\"40\",\"1\",\"Testing\",\"Stims/Figures/139-C-20-2.bmp\",\"ma:la:la\",\"Down\",\"40\",\"4\",\"21\",\"1\",\"S\",\"J\",\"93\"
\"\",\"\",\"approach-retreat\",\"242\",\"1677422\",\"0.0-242.0\",\"\",\"\",\"3-4\",\"4055\",\"39\",\"1\",\"Testing\",\"Stims/Figures/85-J-0-2.bmp\",\"ta:kaka\",\"Left\",\"39\",\"4\",\"22\",\"1\",\"P\",\"J\",\"94\"
\"\",\"\",\"approach-retreat\",\"243\",\"1682962\",\"0.0-243.0\",\"\",\"\",\"3-4\",\"4026\",\"38\",\"1\",\"Testing\",\"Stims/Figures/93-J-0-1.bmp\",\"ta:kaka\",\"Down\",\"38\",\"4\",\"23\",\"1\",\"P\",\"J\",\"95\"
\"\",\"\",\"approach-retreat\",\"244\",\"1688456\",\"0.0-244.0\",\"\",\"\",\"3-4\",\"3983\",\"40\",\"1\",\"Testing\",\"Stims/Figures/71-J-0-1.bmp\",\"ta:kaka\",\"Up\",\"40\",\"4\",\"24\",\"1\",\"P\",\"J\",\"96\"
\"27393\",\"\",\"survey-text\",\"245\",\"1715866\",\"0.0-245.0\",\"\",\"{\"\"Q0\"\":\"\"PS170065\"\"}\",\"\",\"\",\"\",\"\",\"\",\"\",\"\",\"\",\"\",\"\",\"\",\"\",\"\",\"\",\"\"
