\"rt\",\"key_press\",\"trial_type\",\"trial_index\",\"time_elapsed\",\"internal_node_id\",\"view_history\",\"responses\",\"Id\",\"Rt\",\"ResKeyCode\",\"ResCorr\",\"TrialType2\",\"Image\",\"Label\",\"Location\",\"CorrectResponse\",\"Block\",\"BlockTrial\",\"Condition\",\"LabelType\",\"Subcondition\",\"trialNum\"
\"36190\",\"32\",\"text\",\"0\",\"36190\",\"0.0-0.0-0.0\",\"\",\"\",\"\",\"\",\"\",\"\",\"\",\"\",\"\",\"\",\"\",\"\",\"\",\"\",\"\",\"\",\"\"
\"60960\",\"\",\"instructions\",\"1\",\"97150\",\"0.0-1.0\",\"[{\"\"page_index\"\":0,\"\"viewing_time\"\":60960}]\",\"\",\"\",\"\",\"\",\"\",\"\",\"\",\"\",\"\",\"\",\"\",\"\",\"\",\"\",\"\",\"\"
\"19148\",\"\",\"survey-multi-choice\",\"2\",\"116345\",\"0.0-2.0\",\"\",\"{\"\"Q0\"\":\"\"Da\"\",\"\"Q1\"\":\"\"Da\"\",\"\"Q2\"\":\"\"Da\"\",\"\"Q3\"\":\"\"Da\"\",\"\"Q4\"\":\"\"Da\"\",\"\"Q5\"\":\"\"Da\"\"}\",\"\",\"\",\"\",\"\",\"\",\"\",\"\",\"\",\"\",\"\",\"\",\"\",\"\",\"\",\"\"
\"\",\"\",\"bio\",\"3\",\"123376\",\"0.0-3.0\",\"\",\"{\"\"age\"\":\"\"19\"\",\"\"gender\"\":\"\"f\"\",\"\"specify\"\":\"\"\"\"}\",\"\",\"\",\"\",\"\",\"\",\"\",\"\",\"\",\"\",\"\",\"\",\"\",\"\",\"\",\"\"
\"\",\"\",\"approach-retreat\",\"4\",\"131787\",\"0.0-4.0\",\"\",\"\",\"2-3\",\"6907\",\"39\",\"0\",\"Training\",\"Stims/Figures/118-J-0-2.bmp\",\"vasha:sha\",\"Right\",\"37\",\"1\",\"1\",\"6A\",\"C1\",\"J\",\"1\"
\"\",\"\",\"approach-retreat\",\"5\",\"138083\",\"0.0-5.0\",\"\",\"\",\"2-3\",\"4792\",\"37\",\"1\",\"Training\",\"Stims/Figures/87-C-20-4.bmp\",\"sahaza\",\"Left\",\"37\",\"1\",\"2\",\"6A\",\"C2\",\"J\",\"2\"
\"\",\"\",\"approach-retreat\",\"6\",\"145721\",\"0.0-6.0\",\"\",\"\",\"2-3\",\"6133\",\"38\",\"0\",\"Training\",\"Stims/Figures/144-J-10-3.bmp\",\"fasha:va\",\"Up\",\"40\",\"1\",\"3\",\"6A\",\"C1\",\"J\",\"3\"
\"\",\"\",\"approach-retreat\",\"7\",\"153402\",\"0.0-7.0\",\"\",\"\",\"2-3\",\"6179\",\"38\",\"1\",\"Training\",\"Stims/Figures/87-J-10-4.bmp\",\"fashasha\",\"Down\",\"38\",\"1\",\"4\",\"6A\",\"C1\",\"J\",\"4\"
\"\",\"\",\"approach-retreat\",\"8\",\"159903\",\"0.0-8.0\",\"\",\"\",\"2-3\",\"4992\",\"38\",\"1\",\"Training\",\"Stims/Figures/144-C-30-3.bmp\",\"zasa:ha\",\"Up\",\"38\",\"1\",\"5\",\"6A\",\"C2\",\"J\",\"5\"
\"\",\"\",\"approach-retreat\",\"9\",\"168070\",\"0.0-9.0\",\"\",\"\",\"2-3\",\"6661\",\"37\",\"0\",\"Training\",\"Stims/Figures/94-C-20-2.bmp\",\"za:haha\",\"Right\",\"39\",\"1\",\"6\",\"6A\",\"C2\",\"J\",\"6\"
\"\",\"\",\"approach-retreat\",\"10\",\"175514\",\"0.0-10.0\",\"\",\"\",\"2-3\",\"5938\",\"39\",\"0\",\"Training\",\"Stims/Figures/94-J-0-2.bmp\",\"fafa:va\",\"Right\",\"37\",\"1\",\"7\",\"6A\",\"C1\",\"J\",\"7\"
\"\",\"\",\"approach-retreat\",\"11\",\"182294\",\"0.0-11.0\",\"\",\"\",\"2-3\",\"5269\",\"40\",\"0\",\"Training\",\"Stims/Figures/100-J-10-3.bmp\",\"vafava\",\"Down\",\"38\",\"1\",\"8\",\"6A\",\"C1\",\"J\",\"8\"
\"\",\"\",\"approach-retreat\",\"12\",\"188362\",\"0.0-12.0\",\"\",\"\",\"2-3\",\"4563\",\"37\",\"1\",\"Training\",\"Stims/Figures/57-J-0-1.bmp\",\"va:fa:sha\",\"Right\",\"37\",\"1\",\"9\",\"6A\",\"C1\",\"J\",\"9\"
\"\",\"\",\"approach-retreat\",\"13\",\"194138\",\"0.0-13.0\",\"\",\"\",\"2-3\",\"4273\",\"37\",\"1\",\"Training\",\"Stims/Figures/102-C-20-4.bmp\",\"sasa:za\",\"Left\",\"37\",\"1\",\"10\",\"6A\",\"C2\",\"J\",\"10\"
\"\",\"\",\"approach-retreat\",\"14\",\"201295\",\"0.0-14.0\",\"\",\"\",\"2-3\",\"5652\",\"40\",\"1\",\"Training\",\"Stims/Figures/27-J-0-1.bmp\",\"vafa:sha\",\"Up\",\"40\",\"1\",\"11\",\"6A\",\"C1\",\"J\",\"11\"
\"\",\"\",\"approach-retreat\",\"15\",\"208246\",\"0.0-15.0\",\"\",\"\",\"2-3\",\"5451\",\"38\",\"0\",\"Training\",\"Stims/Figures/100-C-30-3.bmp\",\"sa:haha\",\"Down\",\"40\",\"1\",\"12\",\"6A\",\"C2\",\"J\",\"12\"
\"\",\"\",\"approach-retreat\",\"16\",\"216169\",\"0.0-16.0\",\"\",\"\",\"2-3\",\"6415\",\"39\",\"1\",\"Training\",\"Stims/Figures/102-J-10-4.bmp\",\"fa:fasha\",\"Left\",\"39\",\"1\",\"13\",\"6A\",\"C1\",\"J\",\"13\"
\"\",\"\",\"approach-retreat\",\"17\",\"222472\",\"0.0-17.0\",\"\",\"\",\"2-3\",\"4801\",\"37\",\"1\",\"Training\",\"Stims/Figures/27-C-30-1.bmp\",\"saha:za\",\"Left\",\"37\",\"1\",\"14\",\"6A\",\"C2\",\"J\",\"14\"
\"\",\"\",\"approach-retreat\",\"18\",\"229236\",\"0.0-18.0\",\"\",\"\",\"2-3\",\"5256\",\"40\",\"1\",\"Training\",\"Stims/Figures/118-C-20-2.bmp\",\"sa:saha\",\"Down\",\"40\",\"1\",\"15\",\"6A\",\"C2\",\"J\",\"15\"
\"\",\"\",\"approach-retreat\",\"19\",\"234767\",\"0.0-19.0\",\"\",\"\",\"2-3\",\"4028\",\"38\",\"1\",\"Training\",\"Stims/Figures/57-C-30-1.bmp\",\"sa:sa:ha\",\"Up\",\"38\",\"1\",\"16\",\"6A\",\"C2\",\"J\",\"16\"
\"\",\"\",\"approach-retreat\",\"20\",\"241008\",\"0.0-20.0\",\"\",\"\",\"2-3\",\"4742\",\"40\",\"1\",\"Training\",\"Stims/Figures/94-C-20-2.bmp\",\"za:haha\",\"Down\",\"40\",\"2\",\"1\",\"6A\",\"C2\",\"J\",\"17\"
\"\",\"\",\"approach-retreat\",\"21\",\"247179\",\"0.0-21.0\",\"\",\"\",\"2-3\",\"4662\",\"38\",\"1\",\"Training\",\"Stims/Figures/118-C-20-2.bmp\",\"sa:saha\",\"Up\",\"38\",\"2\",\"2\",\"6A\",\"C2\",\"J\",\"18\"
\"\",\"\",\"approach-retreat\",\"22\",\"253235\",\"0.0-22.0\",\"\",\"\",\"2-3\",\"4546\",\"38\",\"0\",\"Training\",\"Stims/Figures/27-C-30-1.bmp\",\"saha:za\",\"Down\",\"40\",\"2\",\"3\",\"6A\",\"C2\",\"J\",\"19\"
\"\",\"\",\"approach-retreat\",\"23\",\"259167\",\"0.0-23.0\",\"\",\"\",\"2-3\",\"4422\",\"37\",\"1\",\"Training\",\"Stims/Figures/57-C-30-1.bmp\",\"sa:sa:ha\",\"Left\",\"37\",\"2\",\"4\",\"6A\",\"C2\",\"J\",\"20\"
\"\",\"\",\"approach-retreat\",\"24\",\"265392\",\"0.0-24.0\",\"\",\"\",\"2-3\",\"4719\",\"40\",\"1\",\"Training\",\"Stims/Figures/144-J-10-3.bmp\",\"fasha:va\",\"Up\",\"40\",\"2\",\"5\",\"6A\",\"C1\",\"J\",\"21\"
\"\",\"\",\"approach-retreat\",\"25\",\"271394\",\"0.0-25.0\",\"\",\"\",\"2-3\",\"4497\",\"40\",\"0\",\"Training\",\"Stims/Figures/94-J-0-2.bmp\",\"fafa:va\",\"Down\",\"38\",\"2\",\"6\",\"6A\",\"C1\",\"J\",\"22\"
\"\",\"\",\"approach-retreat\",\"26\",\"277194\",\"0.0-26.0\",\"\",\"\",\"2-3\",\"4292\",\"39\",\"1\",\"Training\",\"Stims/Figures/87-C-20-4.bmp\",\"sahaza\",\"Right\",\"39\",\"2\",\"7\",\"6A\",\"C2\",\"J\",\"23\"
\"\",\"\",\"approach-retreat\",\"27\",\"283944\",\"0.0-27.0\",\"\",\"\",\"2-3\",\"5241\",\"37\",\"1\",\"Training\",\"Stims/Figures/144-C-30-3.bmp\",\"zasa:ha\",\"Left\",\"37\",\"2\",\"8\",\"6A\",\"C2\",\"J\",\"24\"
\"\",\"\",\"approach-retreat\",\"28\",\"289960\",\"0.0-28.0\",\"\",\"\",\"2-3\",\"4510\",\"38\",\"1\",\"Training\",\"Stims/Figures/100-C-30-3.bmp\",\"sa:haha\",\"Up\",\"38\",\"2\",\"9\",\"6A\",\"C2\",\"J\",\"25\"
\"\",\"\",\"approach-retreat\",\"29\",\"295960\",\"0.0-29.0\",\"\",\"\",\"2-3\",\"4497\",\"38\",\"1\",\"Training\",\"Stims/Figures/57-J-0-1.bmp\",\"va:fa:sha\",\"Down\",\"38\",\"2\",\"10\",\"6A\",\"C1\",\"J\",\"26\"
\"\",\"\",\"approach-retreat\",\"30\",\"302025\",\"0.0-30.0\",\"\",\"\",\"2-3\",\"4559\",\"37\",\"1\",\"Training\",\"Stims/Figures/87-J-10-4.bmp\",\"fashasha\",\"Right\",\"37\",\"2\",\"11\",\"6A\",\"C1\",\"J\",\"27\"
\"\",\"\",\"approach-retreat\",\"31\",\"307813\",\"0.0-31.0\",\"\",\"\",\"2-3\",\"4278\",\"40\",\"1\",\"Training\",\"Stims/Figures/100-J-10-3.bmp\",\"vafava\",\"Up\",\"40\",\"2\",\"12\",\"6A\",\"C1\",\"J\",\"28\"
\"\",\"\",\"approach-retreat\",\"32\",\"313574\",\"0.0-32.0\",\"\",\"\",\"2-3\",\"4253\",\"39\",\"1\",\"Training\",\"Stims/Figures/118-J-0-2.bmp\",\"vasha:sha\",\"Left\",\"39\",\"2\",\"13\",\"6A\",\"C1\",\"J\",\"29\"
\"\",\"\",\"approach-retreat\",\"33\",\"319497\",\"0.0-33.0\",\"\",\"\",\"2-3\",\"4417\",\"37\",\"1\",\"Training\",\"Stims/Figures/102-J-10-4.bmp\",\"fa:fasha\",\"Right\",\"37\",\"2\",\"14\",\"6A\",\"C1\",\"J\",\"30\"
\"\",\"\",\"approach-retreat\",\"34\",\"325590\",\"0.0-34.0\",\"\",\"\",\"2-3\",\"4590\",\"39\",\"1\",\"Training\",\"Stims/Figures/27-J-0-1.bmp\",\"vafa:sha\",\"Left\",\"39\",\"2\",\"15\",\"6A\",\"C1\",\"J\",\"31\"
\"\",\"\",\"approach-retreat\",\"35\",\"331420\",\"0.0-35.0\",\"\",\"\",\"2-3\",\"4322\",\"37\",\"0\",\"Training\",\"Stims/Figures/102-C-20-4.bmp\",\"sasa:za\",\"Right\",\"39\",\"2\",\"16\",\"6A\",\"C2\",\"J\",\"32\"
\"\",\"\",\"approach-retreat\",\"36\",\"337163\",\"0.0-36.0\",\"\",\"\",\"2-3\",\"4237\",\"40\",\"1\",\"Training\",\"Stims/Figures/27-C-30-1.bmp\",\"saha:za\",\"Down\",\"40\",\"3\",\"1\",\"6A\",\"C2\",\"J\",\"33\"
\"\",\"\",\"approach-retreat\",\"37\",\"342865\",\"0.0-37.0\",\"\",\"\",\"2-3\",\"4201\",\"39\",\"1\",\"Training\",\"Stims/Figures/57-C-30-1.bmp\",\"sa:sa:ha\",\"Right\",\"39\",\"3\",\"2\",\"6A\",\"C2\",\"J\",\"34\"
\"\",\"\",\"approach-retreat\",\"38\",\"349100\",\"0.0-38.0\",\"\",\"\",\"2-3\",\"4727\",\"38\",\"1\",\"Training\",\"Stims/Figures/94-J-0-2.bmp\",\"fafa:va\",\"Down\",\"38\",\"3\",\"3\",\"6A\",\"C1\",\"J\",\"35\"
\"\",\"\",\"approach-retreat\",\"39\",\"355279\",\"0.0-39.0\",\"\",\"\",\"2-3\",\"4675\",\"38\",\"1\",\"Training\",\"Stims/Figures/144-C-30-3.bmp\",\"zasa:ha\",\"Up\",\"38\",\"3\",\"4\",\"6A\",\"C2\",\"J\",\"36\"
\"\",\"\",\"approach-retreat\",\"40\",\"361678\",\"0.0-40.0\",\"\",\"\",\"2-3\",\"4894\",\"40\",\"1\",\"Training\",\"Stims/Figures/57-J-0-1.bmp\",\"va:fa:sha\",\"Up\",\"40\",\"3\",\"5\",\"6A\",\"C1\",\"J\",\"37\"
\"\",\"\",\"approach-retreat\",\"41\",\"367645\",\"0.0-41.0\",\"\",\"\",\"2-3\",\"4462\",\"39\",\"1\",\"Training\",\"Stims/Figures/118-J-0-2.bmp\",\"vasha:sha\",\"Left\",\"39\",\"3\",\"6\",\"6A\",\"C1\",\"J\",\"38\"
\"\",\"\",\"approach-retreat\",\"42\",\"374005\",\"0.0-42.0\",\"\",\"\",\"2-3\",\"4853\",\"38\",\"1\",\"Training\",\"Stims/Figures/27-J-0-1.bmp\",\"vafa:sha\",\"Down\",\"38\",\"3\",\"7\",\"6A\",\"C1\",\"J\",\"39\"
\"\",\"\",\"approach-retreat\",\"43\",\"380111\",\"0.0-43.0\",\"\",\"\",\"2-3\",\"4603\",\"39\",\"1\",\"Training\",\"Stims/Figures/94-C-20-2.bmp\",\"za:haha\",\"Right\",\"39\",\"3\",\"8\",\"6A\",\"C2\",\"J\",\"40\"
\"\",\"\",\"approach-retreat\",\"44\",\"386788\",\"0.0-44.0\",\"\",\"\",\"2-3\",\"5167\",\"39\",\"1\",\"Training\",\"Stims/Figures/102-J-10-4.bmp\",\"fa:fasha\",\"Left\",\"39\",\"3\",\"9\",\"6A\",\"C1\",\"J\",\"41\"
\"\",\"\",\"approach-retreat\",\"45\",\"393310\",\"0.0-45.0\",\"\",\"\",\"2-3\",\"5021\",\"39\",\"1\",\"Training\",\"Stims/Figures/100-C-30-3.bmp\",\"sa:haha\",\"Right\",\"39\",\"3\",\"10\",\"6A\",\"C2\",\"J\",\"42\"
\"\",\"\",\"approach-retreat\",\"46\",\"400936\",\"0.0-46.0\",\"\",\"\",\"2-3\",\"6123\",\"40\",\"0\",\"Training\",\"Stims/Figures/102-C-20-4.bmp\",\"sasa:za\",\"Up\",\"38\",\"3\",\"11\",\"6A\",\"C2\",\"J\",\"43\"
\"\",\"\",\"approach-retreat\",\"47\",\"406638\",\"0.0-47.0\",\"\",\"\",\"2-3\",\"4194\",\"39\",\"1\",\"Training\",\"Stims/Figures/87-J-10-4.bmp\",\"fashasha\",\"Left\",\"39\",\"3\",\"12\",\"6A\",\"C1\",\"J\",\"44\"
\"\",\"\",\"approach-retreat\",\"48\",\"412868\",\"0.0-48.0\",\"\",\"\",\"2-3\",\"4721\",\"39\",\"1\",\"Training\",\"Stims/Figures/87-C-20-4.bmp\",\"sahaza\",\"Right\",\"39\",\"3\",\"13\",\"6A\",\"C2\",\"J\",\"45\"
\"\",\"\",\"approach-retreat\",\"49\",\"418755\",\"0.0-49.0\",\"\",\"\",\"2-3\",\"4381\",\"40\",\"1\",\"Training\",\"Stims/Figures/100-J-10-3.bmp\",\"vafava\",\"Up\",\"40\",\"3\",\"14\",\"6A\",\"C1\",\"J\",\"46\"
\"\",\"\",\"approach-retreat\",\"50\",\"424471\",\"0.0-50.0\",\"\",\"\",\"2-3\",\"4209\",\"37\",\"1\",\"Training\",\"Stims/Figures/118-C-20-2.bmp\",\"sa:saha\",\"Left\",\"37\",\"3\",\"15\",\"6A\",\"C2\",\"J\",\"47\"
\"\",\"\",\"approach-retreat\",\"51\",\"430742\",\"0.0-51.0\",\"\",\"\",\"2-3\",\"4767\",\"38\",\"1\",\"Training\",\"Stims/Figures/144-J-10-3.bmp\",\"fasha:va\",\"Down\",\"38\",\"3\",\"16\",\"6A\",\"C1\",\"J\",\"48\"
\"\",\"\",\"approach-retreat\",\"52\",\"437221\",\"0.0-52.0\",\"\",\"\",\"2-3\",\"4977\",\"39\",\"1\",\"Training\",\"Stims/Figures/94-C-20-2.bmp\",\"za:haha\",\"Right\",\"39\",\"4\",\"1\",\"6A\",\"C2\",\"J\",\"49\"
\"\",\"\",\"approach-retreat\",\"53\",\"443632\",\"0.0-53.0\",\"\",\"\",\"2-3\",\"4910\",\"37\",\"1\",\"Training\",\"Stims/Figures/102-J-10-4.bmp\",\"fa:fasha\",\"Right\",\"37\",\"4\",\"2\",\"6A\",\"C1\",\"J\",\"50\"
\"\",\"\",\"approach-retreat\",\"54\",\"449557\",\"0.0-54.0\",\"\",\"\",\"2-3\",\"4421\",\"37\",\"1\",\"Training\",\"Stims/Figures/100-C-30-3.bmp\",\"sa:haha\",\"Left\",\"37\",\"4\",\"3\",\"6A\",\"C2\",\"J\",\"51\"
\"\",\"\",\"approach-retreat\",\"55\",\"456041\",\"0.0-55.0\",\"\",\"\",\"2-3\",\"4982\",\"40\",\"1\",\"Training\",\"Stims/Figures/118-C-20-2.bmp\",\"sa:saha\",\"Down\",\"40\",\"4\",\"4\",\"6A\",\"C2\",\"J\",\"52\"
\"\",\"\",\"approach-retreat\",\"56\",\"462641\",\"0.0-56.0\",\"\",\"\",\"2-3\",\"5098\",\"40\",\"1\",\"Training\",\"Stims/Figures/144-J-10-3.bmp\",\"fasha:va\",\"Up\",\"40\",\"4\",\"5\",\"6A\",\"C1\",\"J\",\"53\"
\"\",\"\",\"approach-retreat\",\"57\",\"469053\",\"0.0-57.0\",\"\",\"\",\"2-3\",\"4904\",\"38\",\"1\",\"Training\",\"Stims/Figures/87-C-20-4.bmp\",\"sahaza\",\"Up\",\"38\",\"4\",\"6\",\"6A\",\"C2\",\"J\",\"54\"
\"\",\"\",\"approach-retreat\",\"58\",\"474809\",\"0.0-58.0\",\"\",\"\",\"2-3\",\"4251\",\"39\",\"1\",\"Training\",\"Stims/Figures/100-J-10-3.bmp\",\"vafava\",\"Left\",\"39\",\"4\",\"7\",\"6A\",\"C1\",\"J\",\"55\"
\"\",\"\",\"approach-retreat\",\"59\",\"481077\",\"0.0-59.0\",\"\",\"\",\"2-3\",\"4759\",\"38\",\"1\",\"Training\",\"Stims/Figures/94-J-0-2.bmp\",\"fafa:va\",\"Down\",\"38\",\"4\",\"8\",\"6A\",\"C1\",\"J\",\"56\"
\"\",\"\",\"approach-retreat\",\"60\",\"486807\",\"0.0-60.0\",\"\",\"\",\"2-3\",\"4226\",\"38\",\"1\",\"Training\",\"Stims/Figures/144-C-30-3.bmp\",\"zasa:ha\",\"Up\",\"38\",\"4\",\"9\",\"6A\",\"C2\",\"J\",\"57\"
\"\",\"\",\"approach-retreat\",\"61\",\"493519\",\"0.0-61.0\",\"\",\"\",\"2-3\",\"5210\",\"39\",\"0\",\"Training\",\"Stims/Figures/102-C-20-4.bmp\",\"sasa:za\",\"Left\",\"37\",\"4\",\"10\",\"6A\",\"C2\",\"J\",\"58\"
\"\",\"\",\"approach-retreat\",\"62\",\"499881\",\"0.0-62.0\",\"\",\"\",\"2-3\",\"4858\",\"37\",\"1\",\"Training\",\"Stims/Figures/118-J-0-2.bmp\",\"vasha:sha\",\"Right\",\"37\",\"4\",\"11\",\"6A\",\"C1\",\"J\",\"59\"
\"\",\"\",\"approach-retreat\",\"63\",\"506124\",\"0.0-63.0\",\"\",\"\",\"2-3\",\"4739\",\"38\",\"1\",\"Training\",\"Stims/Figures/57-C-30-1.bmp\",\"sa:sa:ha\",\"Up\",\"38\",\"4\",\"12\",\"6A\",\"C2\",\"J\",\"60\"
\"\",\"\",\"approach-retreat\",\"64\",\"512121\",\"0.0-64.0\",\"\",\"\",\"2-3\",\"4497\",\"40\",\"1\",\"Training\",\"Stims/Figures/27-C-30-1.bmp\",\"saha:za\",\"Down\",\"40\",\"4\",\"13\",\"6A\",\"C2\",\"J\",\"61\"
\"\",\"\",\"approach-retreat\",\"65\",\"518238\",\"0.0-65.0\",\"\",\"\",\"2-3\",\"4609\",\"37\",\"1\",\"Training\",\"Stims/Figures/87-J-10-4.bmp\",\"fashasha\",\"Right\",\"37\",\"4\",\"14\",\"6A\",\"C1\",\"J\",\"62\"
\"\",\"\",\"approach-retreat\",\"66\",\"524689\",\"0.0-66.0\",\"\",\"\",\"2-3\",\"4942\",\"38\",\"1\",\"Training\",\"Stims/Figures/57-J-0-1.bmp\",\"va:fa:sha\",\"Down\",\"38\",\"4\",\"15\",\"6A\",\"C1\",\"J\",\"63\"
\"\",\"\",\"approach-retreat\",\"67\",\"530463\",\"0.0-67.0\",\"\",\"\",\"2-3\",\"4273\",\"39\",\"1\",\"Training\",\"Stims/Figures/27-J-0-1.bmp\",\"vafa:sha\",\"Left\",\"39\",\"4\",\"16\",\"6A\",\"C1\",\"J\",\"64\"
\"\",\"\",\"approach-retreat\",\"68\",\"536307\",\"0.0-68.0\",\"\",\"\",\"2-3\",\"4345\",\"38\",\"1\",\"Training\",\"Stims/Figures/144-C-30-3.bmp\",\"zasa:ha\",\"Up\",\"38\",\"5\",\"1\",\"6A\",\"C2\",\"J\",\"65\"
\"\",\"\",\"approach-retreat\",\"69\",\"542448\",\"0.0-69.0\",\"\",\"\",\"2-3\",\"4634\",\"38\",\"1\",\"Training\",\"Stims/Figures/144-J-10-3.bmp\",\"fasha:va\",\"Down\",\"38\",\"5\",\"2\",\"6A\",\"C1\",\"J\",\"66\"
\"\",\"\",\"approach-retreat\",\"70\",\"548371\",\"0.0-70.0\",\"\",\"\",\"2-3\",\"4423\",\"37\",\"1\",\"Training\",\"Stims/Figures/87-J-10-4.bmp\",\"fashasha\",\"Right\",\"37\",\"5\",\"3\",\"6A\",\"C1\",\"J\",\"67\"
\"\",\"\",\"approach-retreat\",\"71\",\"554255\",\"0.0-71.0\",\"\",\"\",\"2-3\",\"4377\",\"39\",\"1\",\"Training\",\"Stims/Figures/94-C-20-2.bmp\",\"za:haha\",\"Right\",\"39\",\"5\",\"4\",\"6A\",\"C2\",\"J\",\"68\"
\"\",\"\",\"approach-retreat\",\"72\",\"562220\",\"0.0-72.0\",\"\",\"\",\"2-3\",\"6463\",\"40\",\"1\",\"Training\",\"Stims/Figures/57-C-30-1.bmp\",\"sa:sa:ha\",\"Down\",\"40\",\"5\",\"5\",\"6A\",\"C2\",\"J\",\"69\"
\"\",\"\",\"approach-retreat\",\"73\",\"570453\",\"0.0-73.0\",\"\",\"\",\"2-3\",\"6724\",\"37\",\"1\",\"Training\",\"Stims/Figures/100-J-10-3.bmp\",\"vafava\",\"Right\",\"37\",\"5\",\"6\",\"6A\",\"C1\",\"J\",\"70\"
\"\",\"\",\"approach-retreat\",\"74\",\"576361\",\"0.0-74.0\",\"\",\"\",\"2-3\",\"4407\",\"37\",\"1\",\"Training\",\"Stims/Figures/87-C-20-4.bmp\",\"sahaza\",\"Left\",\"37\",\"5\",\"7\",\"6A\",\"C2\",\"J\",\"71\"
\"\",\"\",\"approach-retreat\",\"75\",\"583760\",\"0.0-75.0\",\"\",\"\",\"2-3\",\"5895\",\"37\",\"1\",\"Training\",\"Stims/Figures/57-J-0-1.bmp\",\"va:fa:sha\",\"Right\",\"37\",\"5\",\"8\",\"6A\",\"C1\",\"J\",\"72\"
\"\",\"\",\"approach-retreat\",\"76\",\"593296\",\"0.0-76.0\",\"\",\"\",\"2-3\",\"8031\",\"37\",\"1\",\"Training\",\"Stims/Figures/27-C-30-1.bmp\",\"saha:za\",\"Left\",\"37\",\"5\",\"9\",\"6A\",\"C2\",\"J\",\"73\"
\"\",\"\",\"approach-retreat\",\"77\",\"599528\",\"0.0-77.0\",\"\",\"\",\"2-3\",\"4726\",\"39\",\"1\",\"Training\",\"Stims/Figures/118-J-0-2.bmp\",\"vasha:sha\",\"Left\",\"39\",\"5\",\"10\",\"6A\",\"C1\",\"J\",\"74\"
\"\",\"\",\"approach-retreat\",\"78\",\"608082\",\"0.0-78.0\",\"\",\"\",\"2-3\",\"7045\",\"38\",\"1\",\"Training\",\"Stims/Figures/27-J-0-1.bmp\",\"vafa:sha\",\"Down\",\"38\",\"5\",\"11\",\"6A\",\"C1\",\"J\",\"75\"
\"\",\"\",\"approach-retreat\",\"79\",\"617714\",\"0.0-79.0\",\"\",\"\",\"2-3\",\"8125\",\"38\",\"1\",\"Training\",\"Stims/Figures/102-C-20-4.bmp\",\"sasa:za\",\"Up\",\"38\",\"5\",\"12\",\"6A\",\"C2\",\"J\",\"76\"
\"\",\"\",\"approach-retreat\",\"80\",\"624260\",\"0.0-80.0\",\"\",\"\",\"2-3\",\"5042\",\"39\",\"1\",\"Training\",\"Stims/Figures/102-J-10-4.bmp\",\"fa:fasha\",\"Left\",\"39\",\"5\",\"13\",\"6A\",\"C1\",\"J\",\"77\"
\"\",\"\",\"approach-retreat\",\"81\",\"631270\",\"0.0-81.0\",\"\",\"\",\"2-3\",\"5501\",\"40\",\"1\",\"Training\",\"Stims/Figures/118-C-20-2.bmp\",\"sa:saha\",\"Down\",\"40\",\"5\",\"14\",\"6A\",\"C2\",\"J\",\"78\"
\"\",\"\",\"approach-retreat\",\"82\",\"637664\",\"0.0-82.0\",\"\",\"\",\"2-3\",\"4886\",\"40\",\"1\",\"Training\",\"Stims/Figures/94-J-0-2.bmp\",\"fafa:va\",\"Up\",\"40\",\"5\",\"15\",\"6A\",\"C1\",\"J\",\"79\"
\"\",\"\",\"approach-retreat\",\"83\",\"645924\",\"0.0-83.0\",\"\",\"\",\"2-3\",\"6757\",\"38\",\"1\",\"Training\",\"Stims/Figures/100-C-30-3.bmp\",\"sa:haha\",\"Up\",\"38\",\"5\",\"16\",\"6A\",\"C2\",\"J\",\"80\"
\"\",\"\",\"approach-retreat\",\"84\",\"653083\",\"0.0-84.0\",\"\",\"\",\"2-3\",\"5656\",\"39\",\"1\",\"Training\",\"Stims/Figures/57-J-0-1.bmp\",\"va:fa:sha\",\"Left\",\"39\",\"6\",\"1\",\"6A\",\"C1\",\"J\",\"81\"
\"\",\"\",\"approach-retreat\",\"85\",\"660460\",\"0.0-85.0\",\"\",\"\",\"2-3\",\"5872\",\"40\",\"1\",\"Training\",\"Stims/Figures/100-J-10-3.bmp\",\"vafava\",\"Up\",\"40\",\"6\",\"2\",\"6A\",\"C1\",\"J\",\"82\"
\"\",\"\",\"approach-retreat\",\"86\",\"666628\",\"0.0-86.0\",\"\",\"\",\"2-3\",\"4659\",\"38\",\"1\",\"Training\",\"Stims/Figures/27-C-30-1.bmp\",\"saha:za\",\"Up\",\"38\",\"6\",\"3\",\"6A\",\"C2\",\"J\",\"83\"
\"\",\"\",\"approach-retreat\",\"87\",\"675626\",\"0.0-87.0\",\"\",\"\",\"2-3\",\"7495\",\"40\",\"1\",\"Training\",\"Stims/Figures/87-C-20-4.bmp\",\"sahaza\",\"Down\",\"40\",\"6\",\"4\",\"6A\",\"C2\",\"J\",\"84\"
\"\",\"\",\"approach-retreat\",\"88\",\"682409\",\"0.0-88.0\",\"\",\"\",\"2-3\",\"5279\",\"37\",\"1\",\"Training\",\"Stims/Figures/100-C-30-3.bmp\",\"sa:haha\",\"Left\",\"37\",\"6\",\"5\",\"6A\",\"C2\",\"J\",\"85\"
\"\",\"\",\"approach-retreat\",\"89\",\"692699\",\"0.0-89.0\",\"\",\"\",\"2-3\",\"8788\",\"40\",\"1\",\"Training\",\"Stims/Figures/144-C-30-3.bmp\",\"zasa:ha\",\"Down\",\"40\",\"6\",\"6\",\"6A\",\"C2\",\"J\",\"86\"
\"\",\"\",\"approach-retreat\",\"90\",\"699193\",\"0.0-90.0\",\"\",\"\",\"2-3\",\"4986\",\"37\",\"1\",\"Training\",\"Stims/Figures/144-J-10-3.bmp\",\"fasha:va\",\"Right\",\"37\",\"6\",\"7\",\"6A\",\"C1\",\"J\",\"87\"
\"\",\"\",\"approach-retreat\",\"91\",\"707091\",\"0.0-91.0\",\"\",\"\",\"2-3\",\"6389\",\"39\",\"1\",\"Training\",\"Stims/Figures/118-J-0-2.bmp\",\"vasha:sha\",\"Left\",\"39\",\"6\",\"8\",\"6A\",\"C1\",\"J\",\"88\"
\"\",\"\",\"approach-retreat\",\"92\",\"714281\",\"0.0-92.0\",\"\",\"\",\"2-3\",\"5683\",\"39\",\"1\",\"Training\",\"Stims/Figures/102-C-20-4.bmp\",\"sasa:za\",\"Right\",\"39\",\"6\",\"9\",\"6A\",\"C2\",\"J\",\"89\"
\"\",\"\",\"approach-retreat\",\"93\",\"722547\",\"0.0-93.0\",\"\",\"\",\"2-3\",\"6758\",\"37\",\"1\",\"Training\",\"Stims/Figures/87-J-10-4.bmp\",\"fashasha\",\"Right\",\"37\",\"6\",\"10\",\"6A\",\"C1\",\"J\",\"90\"
\"\",\"\",\"approach-retreat\",\"94\",\"732949\",\"0.0-94.0\",\"\",\"\",\"2-3\",\"8897\",\"38\",\"1\",\"Training\",\"Stims/Figures/94-C-20-2.bmp\",\"za:haha\",\"Up\",\"38\",\"6\",\"11\",\"6A\",\"C2\",\"J\",\"91\"
\"\",\"\",\"approach-retreat\",\"95\",\"738998\",\"0.0-95.0\",\"\",\"\",\"2-3\",\"4548\",\"38\",\"1\",\"Training\",\"Stims/Figures/118-C-20-2.bmp\",\"sa:saha\",\"Up\",\"38\",\"6\",\"12\",\"6A\",\"C2\",\"J\",\"92\"
\"\",\"\",\"approach-retreat\",\"96\",\"746782\",\"0.0-96.0\",\"\",\"\",\"2-3\",\"6276\",\"37\",\"1\",\"Training\",\"Stims/Figures/27-J-0-1.bmp\",\"vafa:sha\",\"Right\",\"37\",\"6\",\"13\",\"6A\",\"C1\",\"J\",\"93\"
\"\",\"\",\"approach-retreat\",\"97\",\"754565\",\"0.0-97.0\",\"\",\"\",\"2-3\",\"6283\",\"40\",\"1\",\"Training\",\"Stims/Figures/57-C-30-1.bmp\",\"sa:sa:ha\",\"Down\",\"40\",\"6\",\"14\",\"6A\",\"C2\",\"J\",\"94\"
\"\",\"\",\"approach-retreat\",\"98\",\"761159\",\"0.0-98.0\",\"\",\"\",\"2-3\",\"5085\",\"38\",\"1\",\"Training\",\"Stims/Figures/102-J-10-4.bmp\",\"fa:fasha\",\"Down\",\"38\",\"6\",\"15\",\"6A\",\"C1\",\"J\",\"95\"
\"\",\"\",\"approach-retreat\",\"99\",\"768204\",\"0.0-99.0\",\"\",\"\",\"2-3\",\"5541\",\"39\",\"1\",\"Training\",\"Stims/Figures/94-J-0-2.bmp\",\"fafa:va\",\"Left\",\"39\",\"6\",\"16\",\"6A\",\"C1\",\"J\",\"96\"
\"\",\"\",\"approach-retreat\",\"100\",\"775597\",\"0.0-100.0\",\"\",\"\",\"2-3\",\"5891\",\"37\",\"1\",\"Training\",\"Stims/Figures/27-J-0-1.bmp\",\"vafa:sha\",\"Right\",\"37\",\"7\",\"1\",\"6A\",\"C1\",\"J\",\"97\"
\"\",\"\",\"approach-retreat\",\"101\",\"784247\",\"0.0-101.0\",\"\",\"\",\"2-3\",\"7150\",\"40\",\"1\",\"Training\",\"Stims/Figures/102-C-20-4.bmp\",\"sasa:za\",\"Down\",\"40\",\"7\",\"2\",\"6A\",\"C2\",\"J\",\"98\"
\"\",\"\",\"approach-retreat\",\"102\",\"791933\",\"0.0-102.0\",\"\",\"\",\"2-3\",\"6177\",\"37\",\"0\",\"Training\",\"Stims/Figures/87-C-20-4.bmp\",\"sahaza\",\"Right\",\"39\",\"7\",\"3\",\"6A\",\"C2\",\"J\",\"99\"
\"\",\"\",\"approach-retreat\",\"103\",\"798169\",\"0.0-103.0\",\"\",\"\",\"2-3\",\"4735\",\"38\",\"1\",\"Training\",\"Stims/Figures/144-J-10-3.bmp\",\"fasha:va\",\"Down\",\"38\",\"7\",\"4\",\"6A\",\"C1\",\"J\",\"100\"
\"\",\"\",\"approach-retreat\",\"104\",\"806761\",\"0.0-104.0\",\"\",\"\",\"2-3\",\"7092\",\"37\",\"1\",\"Training\",\"Stims/Figures/27-C-30-1.bmp\",\"saha:za\",\"Left\",\"37\",\"7\",\"5\",\"6A\",\"C2\",\"J\",\"101\"
\"\",\"\",\"approach-retreat\",\"105\",\"813427\",\"0.0-105.0\",\"\",\"\",\"2-3\",\"5155\",\"40\",\"1\",\"Training\",\"Stims/Figures/100-J-10-3.bmp\",\"vafava\",\"Up\",\"40\",\"7\",\"6\",\"6A\",\"C1\",\"J\",\"102\"
\"\",\"\",\"approach-retreat\",\"106\",\"819609\",\"0.0-106.0\",\"\",\"\",\"2-3\",\"4682\",\"40\",\"1\",\"Training\",\"Stims/Figures/118-J-0-2.bmp\",\"vasha:sha\",\"Up\",\"40\",\"7\",\"7\",\"6A\",\"C1\",\"J\",\"103\"
\"\",\"\",\"approach-retreat\",\"107\",\"825443\",\"0.0-107.0\",\"\",\"\",\"2-3\",\"4330\",\"40\",\"1\",\"Training\",\"Stims/Figures/144-C-30-3.bmp\",\"zasa:ha\",\"Down\",\"40\",\"7\",\"8\",\"6A\",\"C2\",\"J\",\"104\"
\"\",\"\",\"approach-retreat\",\"108\",\"831310\",\"0.0-108.0\",\"\",\"\",\"2-3\",\"4359\",\"38\",\"1\",\"Training\",\"Stims/Figures/94-J-0-2.bmp\",\"fafa:va\",\"Down\",\"38\",\"7\",\"9\",\"6A\",\"C1\",\"J\",\"105\"
\"\",\"\",\"approach-retreat\",\"109\",\"836821\",\"0.0-109.0\",\"\",\"\",\"2-3\",\"4003\",\"38\",\"0\",\"Training\",\"Stims/Figures/102-J-10-4.bmp\",\"fa:fasha\",\"Up\",\"40\",\"7\",\"10\",\"6A\",\"C1\",\"J\",\"106\"
\"\",\"\",\"approach-retreat\",\"110\",\"843076\",\"0.0-110.0\",\"\",\"\",\"2-3\",\"4752\",\"37\",\"1\",\"Training\",\"Stims/Figures/57-J-0-1.bmp\",\"va:fa:sha\",\"Right\",\"37\",\"7\",\"11\",\"6A\",\"C1\",\"J\",\"107\"
\"\",\"\",\"approach-retreat\",\"111\",\"848710\",\"0.0-111.0\",\"\",\"\",\"2-3\",\"4132\",\"39\",\"1\",\"Training\",\"Stims/Figures/57-C-30-1.bmp\",\"sa:sa:ha\",\"Right\",\"39\",\"7\",\"12\",\"6A\",\"C2\",\"J\",\"108\"
\"\",\"\",\"approach-retreat\",\"112\",\"855302\",\"0.0-112.0\",\"\",\"\",\"2-3\",\"5083\",\"37\",\"1\",\"Training\",\"Stims/Figures/100-C-30-3.bmp\",\"sa:haha\",\"Left\",\"37\",\"7\",\"13\",\"6A\",\"C2\",\"J\",\"109\"
\"\",\"\",\"approach-retreat\",\"113\",\"861075\",\"0.0-113.0\",\"\",\"\",\"2-3\",\"4273\",\"37\",\"1\",\"Training\",\"Stims/Figures/94-C-20-2.bmp\",\"za:haha\",\"Left\",\"37\",\"7\",\"14\",\"6A\",\"C2\",\"J\",\"110\"
\"\",\"\",\"approach-retreat\",\"114\",\"867346\",\"0.0-114.0\",\"\",\"\",\"2-3\",\"4770\",\"38\",\"1\",\"Training\",\"Stims/Figures/118-C-20-2.bmp\",\"sa:saha\",\"Up\",\"38\",\"7\",\"15\",\"6A\",\"C2\",\"J\",\"111\"
\"\",\"\",\"approach-retreat\",\"115\",\"873126\",\"0.0-115.0\",\"\",\"\",\"2-3\",\"4275\",\"39\",\"1\",\"Training\",\"Stims/Figures/87-J-10-4.bmp\",\"fashasha\",\"Left\",\"39\",\"7\",\"16\",\"6A\",\"C1\",\"J\",\"112\"
\"\",\"\",\"approach-retreat\",\"116\",\"878908\",\"0.0-116.0\",\"\",\"\",\"2-3\",\"4277\",\"40\",\"1\",\"Training\",\"Stims/Figures/94-C-20-2.bmp\",\"za:haha\",\"Down\",\"40\",\"8\",\"1\",\"6A\",\"C2\",\"J\",\"113\"
\"\",\"\",\"approach-retreat\",\"117\",\"884651\",\"0.0-117.0\",\"\",\"\",\"2-3\",\"4237\",\"39\",\"1\",\"Training\",\"Stims/Figures/100-J-10-3.bmp\",\"vafava\",\"Left\",\"39\",\"8\",\"2\",\"6A\",\"C1\",\"J\",\"114\"
\"\",\"\",\"approach-retreat\",\"118\",\"890437\",\"0.0-118.0\",\"\",\"\",\"2-3\",\"4287\",\"37\",\"1\",\"Training\",\"Stims/Figures/57-C-30-1.bmp\",\"sa:sa:ha\",\"Left\",\"37\",\"8\",\"3\",\"6A\",\"C2\",\"J\",\"115\"
\"\",\"\",\"approach-retreat\",\"119\",\"896185\",\"0.0-119.0\",\"\",\"\",\"2-3\",\"4235\",\"39\",\"1\",\"Training\",\"Stims/Figures/87-C-20-4.bmp\",\"sahaza\",\"Right\",\"39\",\"8\",\"4\",\"6A\",\"C2\",\"J\",\"116\"
\"\",\"\",\"approach-retreat\",\"120\",\"901922\",\"0.0-120.0\",\"\",\"\",\"2-3\",\"4231\",\"37\",\"1\",\"Training\",\"Stims/Figures/57-J-0-1.bmp\",\"va:fa:sha\",\"Right\",\"37\",\"8\",\"5\",\"6A\",\"C1\",\"J\",\"117\"
\"\",\"\",\"approach-retreat\",\"121\",\"907302\",\"0.0-121.0\",\"\",\"\",\"2-3\",\"3871\",\"39\",\"1\",\"Training\",\"Stims/Figures/118-C-20-2.bmp\",\"sa:saha\",\"Right\",\"39\",\"8\",\"6\",\"6A\",\"C2\",\"J\",\"118\"
\"\",\"\",\"approach-retreat\",\"122\",\"913390\",\"0.0-122.0\",\"\",\"\",\"2-3\",\"4582\",\"38\",\"1\",\"Training\",\"Stims/Figures/27-J-0-1.bmp\",\"vafa:sha\",\"Down\",\"38\",\"8\",\"7\",\"6A\",\"C1\",\"J\",\"119\"
\"\",\"\",\"approach-retreat\",\"123\",\"918859\",\"0.0-123.0\",\"\",\"\",\"2-3\",\"3960\",\"40\",\"1\",\"Training\",\"Stims/Figures/144-C-30-3.bmp\",\"zasa:ha\",\"Down\",\"40\",\"8\",\"8\",\"6A\",\"C2\",\"J\",\"120\"
\"\",\"\",\"approach-retreat\",\"124\",\"924428\",\"0.0-124.0\",\"\",\"\",\"2-3\",\"4065\",\"38\",\"1\",\"Training\",\"Stims/Figures/87-J-10-4.bmp\",\"fashasha\",\"Down\",\"38\",\"8\",\"9\",\"6A\",\"C1\",\"J\",\"121\"
\"\",\"\",\"approach-retreat\",\"125\",\"929715\",\"0.0-125.0\",\"\",\"\",\"2-3\",\"3784\",\"38\",\"0\",\"Training\",\"Stims/Figures/94-J-0-2.bmp\",\"fafa:va\",\"Up\",\"40\",\"8\",\"10\",\"6A\",\"C1\",\"J\",\"122\"
\"\",\"\",\"approach-retreat\",\"126\",\"935705\",\"0.0-126.0\",\"\",\"\",\"2-3\",\"4486\",\"38\",\"1\",\"Training\",\"Stims/Figures/102-C-20-4.bmp\",\"sasa:za\",\"Up\",\"38\",\"8\",\"11\",\"6A\",\"C2\",\"J\",\"123\"
\"\",\"\",\"approach-retreat\",\"127\",\"941389\",\"0.0-127.0\",\"\",\"\",\"2-3\",\"4181\",\"39\",\"1\",\"Training\",\"Stims/Figures/118-J-0-2.bmp\",\"vasha:sha\",\"Left\",\"39\",\"8\",\"12\",\"6A\",\"C1\",\"J\",\"124\"
\"\",\"\",\"approach-retreat\",\"128\",\"947139\",\"0.0-128.0\",\"\",\"\",\"2-3\",\"4240\",\"38\",\"1\",\"Training\",\"Stims/Figures/27-C-30-1.bmp\",\"saha:za\",\"Up\",\"38\",\"8\",\"13\",\"6A\",\"C2\",\"J\",\"125\"
\"\",\"\",\"approach-retreat\",\"129\",\"952907\",\"0.0-129.0\",\"\",\"\",\"2-3\",\"4259\",\"39\",\"0\",\"Training\",\"Stims/Figures/144-J-10-3.bmp\",\"fasha:va\",\"Right\",\"37\",\"8\",\"14\",\"6A\",\"C1\",\"J\",\"126\"
\"\",\"\",\"approach-retreat\",\"130\",\"958570\",\"0.0-130.0\",\"\",\"\",\"2-3\",\"4158\",\"39\",\"1\",\"Training\",\"Stims/Figures/102-J-10-4.bmp\",\"fa:fasha\",\"Left\",\"39\",\"8\",\"15\",\"6A\",\"C1\",\"J\",\"127\"
\"\",\"\",\"approach-retreat\",\"131\",\"964313\",\"0.0-131.0\",\"\",\"\",\"2-3\",\"4236\",\"38\",\"1\",\"Training\",\"Stims/Figures/100-C-30-3.bmp\",\"sa:haha\",\"Up\",\"38\",\"8\",\"16\",\"6A\",\"C2\",\"J\",\"128\"
\"\",\"\",\"approach-retreat\",\"132\",\"970085\",\"0.0-132.0\",\"\",\"\",\"2-3\",\"4268\",\"37\",\"1\",\"Training\",\"Stims/Figures/144-C-30-3.bmp\",\"zasa:ha\",\"Left\",\"37\",\"9\",\"1\",\"6A\",\"C2\",\"J\",\"129\"
\"\",\"\",\"approach-retreat\",\"133\",\"977754\",\"0.0-133.0\",\"\",\"\",\"2-3\",\"6164\",\"39\",\"1\",\"Training\",\"Stims/Figures/87-J-10-4.bmp\",\"fashasha\",\"Left\",\"39\",\"9\",\"2\",\"6A\",\"C1\",\"J\",\"130\"
\"\",\"\",\"approach-retreat\",\"134\",\"983666\",\"0.0-134.0\",\"\",\"\",\"2-3\",\"4403\",\"38\",\"1\",\"Training\",\"Stims/Figures/27-C-30-1.bmp\",\"saha:za\",\"Up\",\"38\",\"9\",\"3\",\"6A\",\"C2\",\"J\",\"131\"
\"\",\"\",\"approach-retreat\",\"135\",\"992565\",\"0.0-135.0\",\"\",\"\",\"2-3\",\"7393\",\"40\",\"1\",\"Training\",\"Stims/Figures/102-C-20-4.bmp\",\"sasa:za\",\"Down\",\"40\",\"9\",\"4\",\"6A\",\"C2\",\"J\",\"132\"
\"\",\"\",\"approach-retreat\",\"136\",\"998164\",\"0.0-136.0\",\"\",\"\",\"2-3\",\"4090\",\"39\",\"1\",\"Training\",\"Stims/Figures/27-J-0-1.bmp\",\"vafa:sha\",\"Left\",\"39\",\"9\",\"5\",\"6A\",\"C1\",\"J\",\"133\"
\"\",\"\",\"approach-retreat\",\"137\",\"1003850\",\"0.0-137.0\",\"\",\"\",\"2-3\",\"4184\",\"40\",\"1\",\"Training\",\"Stims/Figures/118-C-20-2.bmp\",\"sa:saha\",\"Down\",\"40\",\"9\",\"6\",\"6A\",\"C2\",\"J\",\"134\"
\"\",\"\",\"approach-retreat\",\"138\",\"1009915\",\"0.0-138.0\",\"\",\"\",\"2-3\",\"4557\",\"37\",\"1\",\"Training\",\"Stims/Figures/57-J-0-1.bmp\",\"va:fa:sha\",\"Right\",\"37\",\"9\",\"7\",\"6A\",\"C1\",\"J\",\"135\"
\"\",\"\",\"approach-retreat\",\"139\",\"1016047\",\"0.0-139.0\",\"\",\"\",\"2-3\",\"4625\",\"38\",\"1\",\"Training\",\"Stims/Figures/102-J-10-4.bmp\",\"fa:fasha\",\"Down\",\"38\",\"9\",\"8\",\"6A\",\"C1\",\"J\",\"136\"
\"\",\"\",\"approach-retreat\",\"140\",\"1021679\",\"0.0-140.0\",\"\",\"\",\"2-3\",\"4131\",\"40\",\"0\",\"Training\",\"Stims/Figures/118-J-0-2.bmp\",\"vasha:sha\",\"Down\",\"38\",\"9\",\"9\",\"6A\",\"C1\",\"J\",\"137\"
\"\",\"\",\"approach-retreat\",\"141\",\"1027518\",\"0.0-141.0\",\"\",\"\",\"2-3\",\"4339\",\"40\",\"1\",\"Training\",\"Stims/Figures/94-J-0-2.bmp\",\"fafa:va\",\"Up\",\"40\",\"9\",\"10\",\"6A\",\"C1\",\"J\",\"138\"
\"\",\"\",\"approach-retreat\",\"142\",\"1033318\",\"0.0-142.0\",\"\",\"\",\"2-3\",\"4299\",\"40\",\"1\",\"Training\",\"Stims/Figures/144-J-10-3.bmp\",\"fasha:va\",\"Up\",\"40\",\"9\",\"11\",\"6A\",\"C1\",\"J\",\"139\"
\"\",\"\",\"approach-retreat\",\"143\",\"1038951\",\"0.0-143.0\",\"\",\"\",\"2-3\",\"4129\",\"37\",\"1\",\"Training\",\"Stims/Figures/94-C-20-2.bmp\",\"za:haha\",\"Left\",\"37\",\"9\",\"12\",\"6A\",\"C2\",\"J\",\"140\"
\"\",\"\",\"approach-retreat\",\"144\",\"1044546\",\"0.0-144.0\",\"\",\"\",\"2-3\",\"4090\",\"39\",\"1\",\"Training\",\"Stims/Figures/100-C-30-3.bmp\",\"sa:haha\",\"Right\",\"39\",\"9\",\"13\",\"6A\",\"C2\",\"J\",\"141\"
\"\",\"\",\"approach-retreat\",\"145\",\"1050278\",\"0.0-145.0\",\"\",\"\",\"2-3\",\"4225\",\"37\",\"1\",\"Training\",\"Stims/Figures/100-J-10-3.bmp\",\"vafava\",\"Right\",\"37\",\"9\",\"14\",\"6A\",\"C1\",\"J\",\"142\"
\"\",\"\",\"approach-retreat\",\"146\",\"1056112\",\"0.0-146.0\",\"\",\"\",\"2-3\",\"4328\",\"38\",\"1\",\"Training\",\"Stims/Figures/87-C-20-4.bmp\",\"sahaza\",\"Up\",\"38\",\"9\",\"15\",\"6A\",\"C2\",\"J\",\"143\"
\"\",\"\",\"approach-retreat\",\"147\",\"1061844\",\"0.0-147.0\",\"\",\"\",\"2-3\",\"4226\",\"39\",\"1\",\"Training\",\"Stims/Figures/57-C-30-1.bmp\",\"sa:sa:ha\",\"Right\",\"39\",\"9\",\"16\",\"6A\",\"C2\",\"J\",\"144\"
\"28012\",\"\",\"instructions\",\"148\",\"1089856\",\"0.0-148.0\",\"[{\"\"page_index\"\":0,\"\"viewing_time\"\":28012}]\",\"\",\"\",\"\",\"\",\"\",\"\",\"\",\"\",\"\",\"\",\"\",\"\",\"\",\"\",\"\",\"\"
\"\",\"\",\"approach-retreat\",\"149\",\"1100471\",\"0.0-149.0\",\"\",\"\",\"2-3\",\"9112\",\"39\",\"0\",\"Testing\",\"Stims/Figures/27-C-30-1.bmp\",\"saha:za\",\"Left\",\"37\",\"1\",\"1\",\"6A\",\"C2\",\"J\",\"1\"
\"\",\"\",\"approach-retreat\",\"150\",\"1106543\",\"0.0-150.0\",\"\",\"\",\"2-3\",\"4569\",\"40\",\"1\",\"Testing\",\"Stims/Figures/118-J-0-2.bmp\",\"vasha:sha\",\"Up\",\"40\",\"1\",\"2\",\"6A\",\"C1\",\"J\",\"2\"
\"\",\"\",\"approach-retreat\",\"151\",\"1112711\",\"0.0-151.0\",\"\",\"\",\"2-3\",\"4657\",\"38\",\"1\",\"Testing\",\"Stims/Figures/100-J-10-3.bmp\",\"vafava\",\"Down\",\"38\",\"1\",\"3\",\"6A\",\"C1\",\"J\",\"3\"
\"\",\"\",\"approach-retreat\",\"152\",\"1124293\",\"0.0-152.0\",\"\",\"\",\"2-3\",\"10074\",\"39\",\"1\",\"Testing\",\"Stims/Figures/94-C-20-2.bmp\",\"za:haha\",\"Right\",\"39\",\"1\",\"4\",\"6A\",\"C2\",\"J\",\"4\"
\"\",\"\",\"approach-retreat\",\"153\",\"1130442\",\"0.0-153.0\",\"\",\"\",\"2-3\",\"4640\",\"38\",\"1\",\"Testing\",\"Stims/Figures/57-C-30-1.bmp\",\"sa:sa:ha\",\"Up\",\"38\",\"1\",\"5\",\"6A\",\"C2\",\"J\",\"5\"
\"\",\"\",\"approach-retreat\",\"154\",\"1136060\",\"0.0-154.0\",\"\",\"\",\"2-3\",\"4110\",\"39\",\"1\",\"Testing\",\"Stims/Figures/57-J-0-1.bmp\",\"va:fa:sha\",\"Left\",\"39\",\"1\",\"6\",\"6A\",\"C1\",\"J\",\"6\"
\"\",\"\",\"approach-retreat\",\"155\",\"1141876\",\"0.0-155.0\",\"\",\"\",\"2-3\",\"4312\",\"40\",\"0\",\"Testing\",\"Stims/Figures/7-C-20-4.bmp\",\"za:ha:ha\",\"Up\",\"38\",\"1\",\"7\",\"6A\",\"C2\",\"J\",\"7\"
\"\",\"\",\"approach-retreat\",\"156\",\"1147790\",\"0.0-156.0\",\"\",\"\",\"2-3\",\"4408\",\"37\",\"1\",\"Testing\",\"Stims/Figures/102-J-10-4.bmp\",\"fa:fasha\",\"Right\",\"37\",\"1\",\"8\",\"6A\",\"C1\",\"J\",\"8\"
\"\",\"\",\"approach-retreat\",\"157\",\"1153675\",\"0.0-157.0\",\"\",\"\",\"2-3\",\"4378\",\"37\",\"1\",\"Testing\",\"Stims/Figures/7-J-10-4.bmp\",\"fa:shava\",\"Right\",\"37\",\"1\",\"9\",\"6A\",\"C1\",\"J\",\"9\"
\"\",\"\",\"approach-retreat\",\"158\",\"1159409\",\"0.0-158.0\",\"\",\"\",\"2-3\",\"4220\",\"39\",\"1\",\"Testing\",\"Stims/Figures/111-C-30-3.bmp\",\"zaha:ha\",\"Right\",\"39\",\"1\",\"10\",\"6A\",\"C2\",\"J\",\"10\"
\"\",\"\",\"approach-retreat\",\"159\",\"1165309\",\"0.0-159.0\",\"\",\"\",\"2-3\",\"4390\",\"38\",\"1\",\"Testing\",\"Stims/Figures/111-J-10-3.bmp\",\"fa:shasha\",\"Down\",\"38\",\"1\",\"11\",\"6A\",\"C1\",\"J\",\"11\"
\"\",\"\",\"approach-retreat\",\"160\",\"1171026\",\"0.0-160.0\",\"\",\"\",\"2-3\",\"4202\",\"40\",\"1\",\"Testing\",\"Stims/Figures/139-C-20-2.bmp\",\"zasaha\",\"Down\",\"40\",\"1\",\"12\",\"6A\",\"C2\",\"J\",\"12\"
\"\",\"\",\"approach-retreat\",\"161\",\"1177129\",\"0.0-161.0\",\"\",\"\",\"2-3\",\"4591\",\"38\",\"0\",\"Testing\",\"Stims/Figures/86-J-0-1.bmp\",\"fashava\",\"Up\",\"40\",\"1\",\"13\",\"6A\",\"C1\",\"J\",\"13\"
\"\",\"\",\"approach-retreat\",\"162\",\"1182992\",\"0.0-162.0\",\"\",\"\",\"2-3\",\"4357\",\"40\",\"1\",\"Testing\",\"Stims/Figures/118-C-20-2.bmp\",\"sa:saha\",\"Down\",\"40\",\"1\",\"14\",\"6A\",\"C2\",\"J\",\"14\"
\"\",\"\",\"approach-retreat\",\"163\",\"1188924\",\"0.0-163.0\",\"\",\"\",\"2-3\",\"4423\",\"40\",\"1\",\"Testing\",\"Stims/Figures/144-J-10-3.bmp\",\"fasha:va\",\"Up\",\"40\",\"1\",\"15\",\"6A\",\"C1\",\"J\",\"15\"
\"\",\"\",\"approach-retreat\",\"164\",\"1194957\",\"0.0-164.0\",\"\",\"\",\"2-3\",\"4530\",\"39\",\"0\",\"Testing\",\"Stims/Figures/102-C-20-4.bmp\",\"sasa:za\",\"Left\",\"37\",\"1\",\"16\",\"6A\",\"C2\",\"J\",\"16\"
\"\",\"\",\"approach-retreat\",\"165\",\"1200723\",\"0.0-165.0\",\"\",\"\",\"2-3\",\"4266\",\"37\",\"1\",\"Testing\",\"Stims/Figures/27-J-0-1.bmp\",\"vafa:sha\",\"Right\",\"37\",\"1\",\"17\",\"6A\",\"C1\",\"J\",\"17\"
\"\",\"\",\"approach-retreat\",\"166\",\"1206458\",\"0.0-166.0\",\"\",\"\",\"2-3\",\"4235\",\"39\",\"1\",\"Testing\",\"Stims/Figures/86-C-30-1.bmp\",\"za:saza\",\"Right\",\"39\",\"1\",\"18\",\"6A\",\"C2\",\"J\",\"18\"
\"\",\"\",\"approach-retreat\",\"167\",\"1212589\",\"0.0-167.0\",\"\",\"\",\"2-3\",\"4625\",\"39\",\"1\",\"Testing\",\"Stims/Figures/94-J-0-2.bmp\",\"fafa:va\",\"Left\",\"39\",\"1\",\"19\",\"6A\",\"C1\",\"J\",\"19\"
\"\",\"\",\"approach-retreat\",\"168\",\"1229888\",\"0.0-168.0\",\"\",\"\",\"2-3\",\"15791\",\"38\",\"0\",\"Testing\",\"Stims/Figures/87-J-10-4.bmp\",\"fashasha\",\"Up\",\"40\",\"1\",\"20\",\"6A\",\"C1\",\"J\",\"20\"
\"\",\"\",\"approach-retreat\",\"169\",\"1238104\",\"0.0-169.0\",\"\",\"\",\"2-3\",\"6715\",\"37\",\"1\",\"Testing\",\"Stims/Figures/100-C-30-3.bmp\",\"sa:haha\",\"Left\",\"37\",\"1\",\"21\",\"6A\",\"C2\",\"J\",\"21\"
\"\",\"\",\"approach-retreat\",\"170\",\"1244060\",\"0.0-170.0\",\"\",\"\",\"2-3\",\"4454\",\"39\",\"0\",\"Testing\",\"Stims/Figures/144-C-30-3.bmp\",\"zasa:ha\",\"Left\",\"37\",\"1\",\"22\",\"6A\",\"C2\",\"J\",\"22\"
\"\",\"\",\"approach-retreat\",\"171\",\"1251389\",\"0.0-171.0\",\"\",\"\",\"2-3\",\"5822\",\"40\",\"0\",\"Testing\",\"Stims/Figures/139-J-0-2.bmp\",\"va:shasha\",\"Down\",\"38\",\"1\",\"23\",\"6A\",\"C1\",\"J\",\"23\"
\"\",\"\",\"approach-retreat\",\"172\",\"1257937\",\"0.0-172.0\",\"\",\"\",\"2-3\",\"5046\",\"40\",\"1\",\"Testing\",\"Stims/Figures/87-C-20-4.bmp\",\"sahaza\",\"Down\",\"40\",\"1\",\"24\",\"6A\",\"C2\",\"J\",\"24\"
\"\",\"\",\"approach-retreat\",\"173\",\"1264306\",\"0.0-173.0\",\"\",\"\",\"2-3\",\"4859\",\"40\",\"1\",\"Testing\",\"Stims/Figures/94-C-20-2.bmp\",\"za:haha\",\"Down\",\"40\",\"2\",\"1\",\"6A\",\"C2\",\"J\",\"25\"
\"\",\"\",\"approach-retreat\",\"174\",\"1271636\",\"0.0-174.0\",\"\",\"\",\"2-3\",\"5814\",\"39\",\"1\",\"Testing\",\"Stims/Figures/87-C-20-4.bmp\",\"sahaza\",\"Right\",\"39\",\"2\",\"2\",\"6A\",\"C2\",\"J\",\"26\"
\"\",\"\",\"approach-retreat\",\"175\",\"1277403\",\"0.0-175.0\",\"\",\"\",\"2-3\",\"4267\",\"37\",\"0\",\"Testing\",\"Stims/Figures/57-J-0-1.bmp\",\"va:fa:sha\",\"Left\",\"39\",\"2\",\"3\",\"6A\",\"C1\",\"J\",\"27\"
\"\",\"\",\"approach-retreat\",\"176\",\"1283354\",\"0.0-176.0\",\"\",\"\",\"2-3\",\"4436\",\"38\",\"1\",\"Testing\",\"Stims/Figures/100-C-30-3.bmp\",\"sa:haha\",\"Up\",\"38\",\"2\",\"4\",\"6A\",\"C2\",\"J\",\"28\"
\"\",\"\",\"approach-retreat\",\"177\",\"1289769\",\"0.0-177.0\",\"\",\"\",\"2-3\",\"4906\",\"39\",\"0\",\"Testing\",\"Stims/Figures/100-J-10-3.bmp\",\"vafava\",\"Right\",\"37\",\"2\",\"5\",\"6A\",\"C1\",\"J\",\"29\"
\"\",\"\",\"approach-retreat\",\"178\",\"1297620\",\"0.0-178.0\",\"\",\"\",\"2-3\",\"6344\",\"37\",\"0\",\"Testing\",\"Stims/Figures/27-C-30-1.bmp\",\"saha:za\",\"Right\",\"39\",\"2\",\"6\",\"6A\",\"C2\",\"J\",\"30\"
\"\",\"\",\"approach-retreat\",\"179\",\"1303320\",\"0.0-179.0\",\"\",\"\",\"2-3\",\"4189\",\"40\",\"1\",\"Testing\",\"Stims/Figures/144-J-10-3.bmp\",\"fasha:va\",\"Up\",\"40\",\"2\",\"7\",\"6A\",\"C1\",\"J\",\"31\"
\"\",\"\",\"approach-retreat\",\"180\",\"1317617\",\"0.0-180.0\",\"\",\"\",\"2-3\",\"12792\",\"40\",\"1\",\"Testing\",\"Stims/Figures/102-C-20-4.bmp\",\"sasa:za\",\"Down\",\"40\",\"2\",\"8\",\"6A\",\"C2\",\"J\",\"32\"
\"\",\"\",\"approach-retreat\",\"181\",\"1323451\",\"0.0-181.0\",\"\",\"\",\"2-3\",\"4331\",\"37\",\"0\",\"Testing\",\"Stims/Figures/111-J-10-3.bmp\",\"fa:shasha\",\"Left\",\"39\",\"2\",\"9\",\"6A\",\"C1\",\"J\",\"33\"
\"\",\"\",\"approach-retreat\",\"182\",\"1330185\",\"0.0-182.0\",\"\",\"\",\"2-3\",\"5233\",\"38\",\"0\",\"Testing\",\"Stims/Figures/7-C-20-4.bmp\",\"za:ha:ha\",\"Down\",\"40\",\"2\",\"10\",\"6A\",\"C2\",\"J\",\"34\"
\"\",\"\",\"approach-retreat\",\"183\",\"1335901\",\"0.0-183.0\",\"\",\"\",\"2-3\",\"4203\",\"39\",\"1\",\"Testing\",\"Stims/Figures/86-J-0-1.bmp\",\"fashava\",\"Left\",\"39\",\"2\",\"11\",\"6A\",\"C1\",\"J\",\"35\"
\"\",\"\",\"approach-retreat\",\"184\",\"1342935\",\"0.0-184.0\",\"\",\"\",\"2-3\",\"5532\",\"37\",\"1\",\"Testing\",\"Stims/Figures/94-J-0-2.bmp\",\"fafa:va\",\"Right\",\"37\",\"2\",\"12\",\"6A\",\"C1\",\"J\",\"36\"
\"\",\"\",\"approach-retreat\",\"185\",\"1348585\",\"0.0-185.0\",\"\",\"\",\"2-3\",\"4141\",\"39\",\"1\",\"Testing\",\"Stims/Figures/139-C-20-2.bmp\",\"zasaha\",\"Right\",\"39\",\"2\",\"13\",\"6A\",\"C2\",\"J\",\"37\"
\"\",\"\",\"approach-retreat\",\"186\",\"1354167\",\"0.0-186.0\",\"\",\"\",\"2-3\",\"4076\",\"40\",\"1\",\"Testing\",\"Stims/Figures/87-J-10-4.bmp\",\"fashasha\",\"Up\",\"40\",\"2\",\"14\",\"6A\",\"C1\",\"J\",\"38\"
\"\",\"\",\"approach-retreat\",\"187\",\"1360249\",\"0.0-187.0\",\"\",\"\",\"2-3\",\"4579\",\"39\",\"0\",\"Testing\",\"Stims/Figures/111-C-30-3.bmp\",\"zaha:ha\",\"Left\",\"37\",\"2\",\"15\",\"6A\",\"C2\",\"J\",\"39\"
\"\",\"\",\"approach-retreat\",\"188\",\"1366268\",\"0.0-188.0\",\"\",\"\",\"2-3\",\"4519\",\"40\",\"1\",\"Testing\",\"Stims/Figures/118-J-0-2.bmp\",\"vasha:sha\",\"Up\",\"40\",\"2\",\"16\",\"6A\",\"C1\",\"J\",\"40\"
\"\",\"\",\"approach-retreat\",\"189\",\"1372200\",\"0.0-189.0\",\"\",\"\",\"2-3\",\"4422\",\"40\",\"1\",\"Testing\",\"Stims/Figures/86-C-30-1.bmp\",\"za:saza\",\"Down\",\"40\",\"2\",\"17\",\"6A\",\"C2\",\"J\",\"41\"
\"\",\"\",\"approach-retreat\",\"190\",\"1378317\",\"0.0-190.0\",\"\",\"\",\"2-3\",\"4609\",\"38\",\"1\",\"Testing\",\"Stims/Figures/118-C-20-2.bmp\",\"sa:saha\",\"Up\",\"38\",\"2\",\"18\",\"6A\",\"C2\",\"J\",\"42\"
\"\",\"\",\"approach-retreat\",\"191\",\"1385999\",\"0.0-191.0\",\"\",\"\",\"2-3\",\"6171\",\"38\",\"1\",\"Testing\",\"Stims/Figures/139-J-0-2.bmp\",\"va:shasha\",\"Down\",\"38\",\"2\",\"19\",\"6A\",\"C1\",\"J\",\"43\"
\"\",\"\",\"approach-retreat\",\"192\",\"1394705\",\"0.0-192.0\",\"\",\"\",\"2-3\",\"7201\",\"39\",\"0\",\"Testing\",\"Stims/Figures/144-C-30-3.bmp\",\"zasa:ha\",\"Left\",\"37\",\"2\",\"20\",\"6A\",\"C2\",\"J\",\"44\"
\"\",\"\",\"approach-retreat\",\"193\",\"1400564\",\"0.0-193.0\",\"\",\"\",\"2-3\",\"4353\",\"37\",\"1\",\"Testing\",\"Stims/Figures/57-C-30-1.bmp\",\"sa:sa:ha\",\"Left\",\"37\",\"2\",\"21\",\"6A\",\"C2\",\"J\",\"45\"
\"\",\"\",\"approach-retreat\",\"194\",\"1407765\",\"0.0-194.0\",\"\",\"\",\"2-3\",\"5687\",\"40\",\"1\",\"Testing\",\"Stims/Figures/27-J-0-1.bmp\",\"vafa:sha\",\"Up\",\"40\",\"2\",\"22\",\"6A\",\"C1\",\"J\",\"46\"
\"\",\"\",\"approach-retreat\",\"195\",\"1413613\",\"0.0-195.0\",\"\",\"\",\"2-3\",\"4345\",\"37\",\"1\",\"Testing\",\"Stims/Figures/102-J-10-4.bmp\",\"fa:fasha\",\"Right\",\"37\",\"2\",\"23\",\"6A\",\"C1\",\"J\",\"47\"
\"\",\"\",\"approach-retreat\",\"196\",\"1421797\",\"0.0-196.0\",\"\",\"\",\"2-3\",\"6673\",\"38\",\"1\",\"Testing\",\"Stims/Figures/7-J-10-4.bmp\",\"fa:shava\",\"Down\",\"38\",\"2\",\"24\",\"6A\",\"C1\",\"J\",\"48\"
\"\",\"\",\"approach-retreat\",\"197\",\"1429363\",\"0.0-197.0\",\"\",\"\",\"2-3\",\"6064\",\"40\",\"0\",\"Testing\",\"Stims/Figures/87-C-20-4.bmp\",\"sahaza\",\"Up\",\"38\",\"3\",\"1\",\"6A\",\"C2\",\"J\",\"49\"
\"\",\"\",\"approach-retreat\",\"198\",\"1441679\",\"0.0-198.0\",\"\",\"\",\"2-3\",\"10794\",\"37\",\"1\",\"Testing\",\"Stims/Figures/118-C-20-2.bmp\",\"sa:saha\",\"Left\",\"37\",\"3\",\"2\",\"6A\",\"C2\",\"J\",\"50\"
\"\",\"\",\"approach-retreat\",\"199\",\"1448478\",\"0.0-199.0\",\"\",\"\",\"2-3\",\"5297\",\"40\",\"1\",\"Testing\",\"Stims/Figures/27-J-0-1.bmp\",\"vafa:sha\",\"Up\",\"40\",\"3\",\"3\",\"6A\",\"C1\",\"J\",\"51\"
\"\",\"\",\"approach-retreat\",\"200\",\"1454479\",\"0.0-200.0\",\"\",\"\",\"2-3\",\"4501\",\"37\",\"1\",\"Testing\",\"Stims/Figures/102-J-10-4.bmp\",\"fa:fasha\",\"Right\",\"37\",\"3\",\"4\",\"6A\",\"C1\",\"J\",\"52\"
\"\",\"\",\"approach-retreat\",\"201\",\"1462397\",\"0.0-201.0\",\"\",\"\",\"2-3\",\"6407\",\"37\",\"1\",\"Testing\",\"Stims/Figures/118-J-0-2.bmp\",\"vasha:sha\",\"Right\",\"37\",\"3\",\"5\",\"6A\",\"C1\",\"J\",\"53\"
\"\",\"\",\"approach-retreat\",\"202\",\"1469677\",\"0.0-202.0\",\"\",\"\",\"2-3\",\"5780\",\"39\",\"0\",\"Testing\",\"Stims/Figures/102-C-20-4.bmp\",\"sasa:za\",\"Left\",\"37\",\"3\",\"6\",\"6A\",\"C2\",\"J\",\"54\"
\"\",\"\",\"approach-retreat\",\"203\",\"1476379\",\"0.0-203.0\",\"\",\"\",\"2-3\",\"5190\",\"38\",\"1\",\"Testing\",\"Stims/Figures/94-C-20-2.bmp\",\"za:haha\",\"Up\",\"38\",\"3\",\"7\",\"6A\",\"C2\",\"J\",\"55\"
\"\",\"\",\"approach-retreat\",\"204\",\"1482263\",\"0.0-204.0\",\"\",\"\",\"2-3\",\"4375\",\"37\",\"0\",\"Testing\",\"Stims/Figures/7-C-20-4.bmp\",\"za:ha:ha\",\"Right\",\"39\",\"3\",\"8\",\"6A\",\"C2\",\"J\",\"56\"
\"\",\"\",\"approach-retreat\",\"205\",\"1488527\",\"0.0-205.0\",\"\",\"\",\"2-3\",\"4748\",\"37\",\"1\",\"Testing\",\"Stims/Figures/139-J-0-2.bmp\",\"va:shasha\",\"Right\",\"37\",\"3\",\"9\",\"6A\",\"C1\",\"J\",\"57\"
\"\",\"\",\"approach-retreat\",\"206\",\"1495460\",\"0.0-206.0\",\"\",\"\",\"2-3\",\"5423\",\"39\",\"0\",\"Testing\",\"Stims/Figures/27-C-30-1.bmp\",\"saha:za\",\"Left\",\"37\",\"3\",\"10\",\"6A\",\"C2\",\"J\",\"58\"
\"\",\"\",\"approach-retreat\",\"207\",\"1501695\",\"0.0-207.0\",\"\",\"\",\"2-3\",\"4719\",\"39\",\"1\",\"Testing\",\"Stims/Figures/7-J-10-4.bmp\",\"fa:shava\",\"Left\",\"39\",\"3\",\"11\",\"6A\",\"C1\",\"J\",\"59\"
\"\",\"\",\"approach-retreat\",\"208\",\"1509178\",\"0.0-208.0\",\"\",\"\",\"2-3\",\"5968\",\"38\",\"1\",\"Testing\",\"Stims/Figures/86-J-0-1.bmp\",\"fashava\",\"Down\",\"38\",\"3\",\"12\",\"6A\",\"C1\",\"J\",\"60\"
\"\",\"\",\"approach-retreat\",\"209\",\"1515742\",\"0.0-209.0\",\"\",\"\",\"2-3\",\"5061\",\"38\",\"1\",\"Testing\",\"Stims/Figures/100-J-10-3.bmp\",\"vafava\",\"Down\",\"38\",\"3\",\"13\",\"6A\",\"C1\",\"J\",\"61\"
\"\",\"\",\"approach-retreat\",\"210\",\"1521897\",\"0.0-210.0\",\"\",\"\",\"2-3\",\"4642\",\"38\",\"1\",\"Testing\",\"Stims/Figures/94-J-0-2.bmp\",\"fafa:va\",\"Down\",\"38\",\"3\",\"14\",\"6A\",\"C1\",\"J\",\"62\"
\"\",\"\",\"approach-retreat\",\"211\",\"1533392\",\"0.0-211.0\",\"\",\"\",\"2-3\",\"9994\",\"38\",\"0\",\"Testing\",\"Stims/Figures/100-C-30-3.bmp\",\"sa:haha\",\"Down\",\"40\",\"3\",\"15\",\"6A\",\"C2\",\"J\",\"63\"
\"\",\"\",\"approach-retreat\",\"212\",\"1539359\",\"0.0-212.0\",\"\",\"\",\"2-3\",\"4456\",\"39\",\"1\",\"Testing\",\"Stims/Figures/57-J-0-1.bmp\",\"va:fa:sha\",\"Left\",\"39\",\"3\",\"16\",\"6A\",\"C1\",\"J\",\"64\"
\"\",\"\",\"approach-retreat\",\"213\",\"1545160\",\"0.0-213.0\",\"\",\"\",\"2-3\",\"4297\",\"37\",\"0\",\"Testing\",\"Stims/Figures/86-C-30-1.bmp\",\"za:saza\",\"Right\",\"39\",\"3\",\"17\",\"6A\",\"C2\",\"J\",\"65\"
\"\",\"\",\"approach-retreat\",\"214\",\"1550927\",\"0.0-214.0\",\"\",\"\",\"2-3\",\"4266\",\"40\",\"0\",\"Testing\",\"Stims/Figures/139-C-20-2.bmp\",\"zasaha\",\"Up\",\"38\",\"3\",\"18\",\"6A\",\"C2\",\"J\",\"66\"
\"\",\"\",\"approach-retreat\",\"215\",\"1557825\",\"0.0-215.0\",\"\",\"\",\"2-3\",\"5391\",\"38\",\"1\",\"Testing\",\"Stims/Figures/144-J-10-3.bmp\",\"fasha:va\",\"Down\",\"38\",\"3\",\"19\",\"6A\",\"C1\",\"J\",\"67\"
\"\",\"\",\"approach-retreat\",\"216\",\"1563775\",\"0.0-216.0\",\"\",\"\",\"2-3\",\"4438\",\"40\",\"0\",\"Testing\",\"Stims/Figures/111-C-30-3.bmp\",\"zaha:ha\",\"Up\",\"38\",\"3\",\"20\",\"6A\",\"C2\",\"J\",\"68\"
\"\",\"\",\"approach-retreat\",\"217\",\"1571490\",\"0.0-217.0\",\"\",\"\",\"2-3\",\"6201\",\"37\",\"0\",\"Testing\",\"Stims/Figures/57-C-30-1.bmp\",\"sa:sa:ha\",\"Right\",\"39\",\"3\",\"21\",\"6A\",\"C2\",\"J\",\"69\"
\"\",\"\",\"approach-retreat\",\"218\",\"1577757\",\"0.0-218.0\",\"\",\"\",\"2-3\",\"4751\",\"38\",\"1\",\"Testing\",\"Stims/Figures/111-J-10-3.bmp\",\"fa:shasha\",\"Down\",\"38\",\"3\",\"22\",\"6A\",\"C1\",\"J\",\"70\"
\"\",\"\",\"approach-retreat\",\"219\",\"1584979\",\"0.0-219.0\",\"\",\"\",\"2-3\",\"5719\",\"40\",\"1\",\"Testing\",\"Stims/Figures/87-J-10-4.bmp\",\"fashasha\",\"Up\",\"40\",\"3\",\"23\",\"6A\",\"C1\",\"J\",\"71\"
\"\",\"\",\"approach-retreat\",\"220\",\"1590641\",\"0.0-220.0\",\"\",\"\",\"2-3\",\"4153\",\"39\",\"0\",\"Testing\",\"Stims/Figures/144-C-30-3.bmp\",\"zasa:ha\",\"Left\",\"37\",\"3\",\"24\",\"6A\",\"C2\",\"J\",\"72\"
\"\",\"\",\"approach-retreat\",\"221\",\"1596327\",\"0.0-221.0\",\"\",\"\",\"2-3\",\"4187\",\"40\",\"0\",\"Testing\",\"Stims/Figures/27-C-30-1.bmp\",\"saha:za\",\"Up\",\"38\",\"4\",\"1\",\"6A\",\"C2\",\"J\",\"73\"
\"\",\"\",\"approach-retreat\",\"222\",\"1602139\",\"0.0-222.0\",\"\",\"\",\"2-3\",\"4310\",\"38\",\"1\",\"Testing\",\"Stims/Figures/86-J-0-1.bmp\",\"fashava\",\"Down\",\"38\",\"4\",\"2\",\"6A\",\"C1\",\"J\",\"74\"
\"\",\"\",\"approach-retreat\",\"223\",\"1608455\",\"0.0-223.0\",\"\",\"\",\"2-3\",\"4813\",\"39\",\"1\",\"Testing\",\"Stims/Figures/102-J-10-4.bmp\",\"fa:fasha\",\"Left\",\"39\",\"4\",\"3\",\"6A\",\"C1\",\"J\",\"75\"
\"\",\"\",\"approach-retreat\",\"224\",\"1614257\",\"0.0-224.0\",\"\",\"\",\"2-3\",\"4297\",\"39\",\"0\",\"Testing\",\"Stims/Figures/102-C-20-4.bmp\",\"sasa:za\",\"Left\",\"37\",\"4\",\"4\",\"6A\",\"C2\",\"J\",\"76\"
\"\",\"\",\"approach-retreat\",\"225\",\"1623956\",\"0.0-225.0\",\"\",\"\",\"2-3\",\"8187\",\"39\",\"0\",\"Testing\",\"Stims/Figures/139-C-20-2.bmp\",\"zasaha\",\"Left\",\"37\",\"4\",\"5\",\"6A\",\"C2\",\"J\",\"77\"
\"\",\"\",\"approach-retreat\",\"226\",\"1630625\",\"0.0-226.0\",\"\",\"\",\"2-3\",\"5156\",\"37\",\"1\",\"Testing\",\"Stims/Figures/57-J-0-1.bmp\",\"va:fa:sha\",\"Right\",\"37\",\"4\",\"6\",\"6A\",\"C1\",\"J\",\"78\"
\"\",\"\",\"approach-retreat\",\"227\",\"1636222\",\"0.0-227.0\",\"\",\"\",\"2-3\",\"4091\",\"37\",\"1\",\"Testing\",\"Stims/Figures/100-J-10-3.bmp\",\"vafava\",\"Right\",\"37\",\"4\",\"7\",\"6A\",\"C1\",\"J\",\"79\"
\"\",\"\",\"approach-retreat\",\"228\",\"1646023\",\"0.0-228.0\",\"\",\"\",\"2-3\",\"8294\",\"40\",\"1\",\"Testing\",\"Stims/Figures/144-J-10-3.bmp\",\"fasha:va\",\"Up\",\"40\",\"4\",\"8\",\"6A\",\"C1\",\"J\",\"80\"
\"\",\"\",\"approach-retreat\",\"229\",\"1651989\",\"0.0-229.0\",\"\",\"\",\"2-3\",\"4454\",\"40\",\"1\",\"Testing\",\"Stims/Figures/94-J-0-2.bmp\",\"fafa:va\",\"Up\",\"40\",\"4\",\"9\",\"6A\",\"C1\",\"J\",\"81\"
\"\",\"\",\"approach-retreat\",\"230\",\"1658388\",\"0.0-230.0\",\"\",\"\",\"2-3\",\"4891\",\"38\",\"1\",\"Testing\",\"Stims/Figures/118-J-0-2.bmp\",\"vasha:sha\",\"Down\",\"38\",\"4\",\"10\",\"6A\",\"C1\",\"J\",\"82\"
\"\",\"\",\"approach-retreat\",\"231\",\"1665405\",\"0.0-231.0\",\"\",\"\",\"2-3\",\"5516\",\"38\",\"1\",\"Testing\",\"Stims/Figures/111-J-10-3.bmp\",\"fa:shasha\",\"Down\",\"38\",\"4\",\"11\",\"6A\",\"C1\",\"J\",\"83\"
\"\",\"\",\"approach-retreat\",\"232\",\"1673537\",\"0.0-232.0\",\"\",\"\",\"2-3\",\"6624\",\"40\",\"0\",\"Testing\",\"Stims/Figures/100-C-30-3.bmp\",\"sa:haha\",\"Up\",\"38\",\"4\",\"12\",\"6A\",\"C2\",\"J\",\"84\"
\"\",\"\",\"approach-retreat\",\"233\",\"1679270\",\"0.0-233.0\",\"\",\"\",\"2-3\",\"4221\",\"40\",\"1\",\"Testing\",\"Stims/Figures/87-J-10-4.bmp\",\"fashasha\",\"Up\",\"40\",\"4\",\"13\",\"6A\",\"C1\",\"J\",\"85\"
\"\",\"\",\"approach-retreat\",\"234\",\"1685438\",\"0.0-234.0\",\"\",\"\",\"2-3\",\"4657\",\"37\",\"0\",\"Testing\",\"Stims/Figures/111-C-30-3.bmp\",\"zaha:ha\",\"Right\",\"39\",\"4\",\"14\",\"6A\",\"C2\",\"J\",\"86\"
\"\",\"\",\"approach-retreat\",\"235\",\"1693422\",\"0.0-235.0\",\"\",\"\",\"2-3\",\"6483\",\"37\",\"0\",\"Testing\",\"Stims/Figures/86-C-30-1.bmp\",\"za:saza\",\"Right\",\"39\",\"4\",\"15\",\"6A\",\"C2\",\"J\",\"87\"
\"\",\"\",\"approach-retreat\",\"236\",\"1701054\",\"0.0-236.0\",\"\",\"\",\"2-3\",\"6129\",\"39\",\"0\",\"Testing\",\"Stims/Figures/87-C-20-4.bmp\",\"sahaza\",\"Left\",\"37\",\"4\",\"16\",\"6A\",\"C2\",\"J\",\"88\"
\"\",\"\",\"approach-retreat\",\"237\",\"1707403\",\"0.0-237.0\",\"\",\"\",\"2-3\",\"4843\",\"40\",\"0\",\"Testing\",\"Stims/Figures/7-C-20-4.bmp\",\"za:ha:ha\",\"Up\",\"38\",\"4\",\"17\",\"6A\",\"C2\",\"J\",\"89\"
\"\",\"\",\"approach-retreat\",\"238\",\"1713204\",\"0.0-238.0\",\"\",\"\",\"2-3\",\"4289\",\"39\",\"1\",\"Testing\",\"Stims/Figures/27-J-0-1.bmp\",\"vafa:sha\",\"Left\",\"39\",\"4\",\"18\",\"6A\",\"C1\",\"J\",\"90\"
\"\",\"\",\"approach-retreat\",\"239\",\"1719036\",\"0.0-239.0\",\"\",\"\",\"2-3\",\"4328\",\"37\",\"0\",\"Testing\",\"Stims/Figures/144-C-30-3.bmp\",\"zasa:ha\",\"Right\",\"39\",\"4\",\"19\",\"6A\",\"C2\",\"J\",\"91\"
\"\",\"\",\"approach-retreat\",\"240\",\"1725184\",\"0.0-240.0\",\"\",\"\",\"2-3\",\"4641\",\"38\",\"1\",\"Testing\",\"Stims/Figures/139-J-0-2.bmp\",\"va:shasha\",\"Down\",\"38\",\"4\",\"20\",\"6A\",\"C1\",\"J\",\"92\"
\"\",\"\",\"approach-retreat\",\"241\",\"1730917\",\"0.0-241.0\",\"\",\"\",\"2-3\",\"4221\",\"39\",\"1\",\"Testing\",\"Stims/Figures/118-C-20-2.bmp\",\"sa:saha\",\"Right\",\"39\",\"4\",\"21\",\"6A\",\"C2\",\"J\",\"93\"
\"\",\"\",\"approach-retreat\",\"242\",\"1737950\",\"0.0-242.0\",\"\",\"\",\"2-3\",\"5533\",\"39\",\"0\",\"Testing\",\"Stims/Figures/94-C-20-2.bmp\",\"za:haha\",\"Left\",\"37\",\"4\",\"22\",\"6A\",\"C2\",\"J\",\"94\"
\"\",\"\",\"approach-retreat\",\"243\",\"1747886\",\"0.0-243.0\",\"\",\"\",\"2-3\",\"8427\",\"40\",\"1\",\"Testing\",\"Stims/Figures/57-C-30-1.bmp\",\"sa:sa:ha\",\"Down\",\"40\",\"4\",\"23\",\"6A\",\"C2\",\"J\",\"95\"
\"\",\"\",\"approach-retreat\",\"244\",\"1755235\",\"0.0-244.0\",\"\",\"\",\"2-3\",\"5840\",\"38\",\"1\",\"Testing\",\"Stims/Figures/7-J-10-4.bmp\",\"fa:shava\",\"Down\",\"38\",\"4\",\"24\",\"6A\",\"C1\",\"J\",\"96\"
\"33307\",\"\",\"survey-text\",\"245\",\"1788542\",\"0.0-245.0\",\"\",\"{\"\"Q0\"\":\"\"1252/17\"\"}\",\"\",\"\",\"\",\"\",\"\",\"\",\"\",\"\",\"\",\"\",\"\",\"\",\"\",\"\",\"\"
