\"rt\",\"key_press\",\"trial_type\",\"trial_index\",\"time_elapsed\",\"internal_node_id\",\"view_history\",\"responses\",\"Id\",\"Rt\",\"ResKeyCode\",\"ResCorr\",\"TrialType2\",\"Image\",\"Label\",\"Location\",\"CorrectResponse\",\"Block\",\"BlockTrial\",\"Condition\",\"LabelType\",\"Subcondition\",\"trialNum\"
\"52760\",\"32\",\"text\",\"0\",\"52767\",\"0.0-0.0-0.0\",\"\",\"\",\"\",\"\",\"\",\"\",\"\",\"\",\"\",\"\",\"\",\"\",\"\",\"\",\"\",\"\",\"\"
\"110746\",\"\",\"instructions\",\"1\",\"163517\",\"0.0-1.0\",\"[{\"\"page_index\"\":0,\"\"viewing_time\"\":110744}]\",\"\",\"\",\"\",\"\",\"\",\"\",\"\",\"\",\"\",\"\",\"\",\"\",\"\",\"\",\"\",\"\"
\"49413\",\"\",\"survey-multi-choice\",\"2\",\"213005\",\"0.0-2.0\",\"\",\"{\"\"Q0\"\":\"\"Da\"\",\"\"Q1\"\":\"\"Da\"\",\"\"Q2\"\":\"\"Da\"\",\"\"Q3\"\":\"\"Da\"\",\"\"Q4\"\":\"\"Da\"\",\"\"Q5\"\":\"\"Da\"\"}\",\"\",\"\",\"\",\"\",\"\",\"\",\"\",\"\",\"\",\"\",\"\",\"\",\"\",\"\",\"\"
\"\",\"\",\"bio\",\"3\",\"252553\",\"0.0-3.0\",\"\",\"{\"\"age\"\":\"\"22\"\",\"\"gender\"\":\"\"m\"\",\"\"specify\"\":\"\"\"\"}\",\"\",\"\",\"\",\"\",\"\",\"\",\"\",\"\",\"\",\"\",\"\",\"\",\"\",\"\",\"\"
\"\",\"\",\"approach-retreat\",\"4\",\"261531\",\"0.0-4.0\",\"\",\"\",\"1-5\",\"7457\",\"38\",\"1\",\"Training\",\"Stims/Figures/87-J-10-4.bmp\",\"None\",\"Down\",\"38\",\"1\",\"1\",\"10\",\"N\",\"J\",\"1\"
\"\",\"\",\"approach-retreat\",\"5\",\"270122\",\"0.0-5.0\",\"\",\"\",\"1-5\",\"7073\",\"38\",\"1\",\"Training\",\"Stims/Figures/84-C-20-2.bmp\",\"None\",\"Up\",\"38\",\"1\",\"2\",\"10\",\"N\",\"J\",\"2\"
\"\",\"\",\"approach-retreat\",\"6\",\"279193\",\"0.0-6.0\",\"\",\"\",\"1-5\",\"7554\",\"39\",\"0\",\"Training\",\"Stims/Figures/44-J-10-3.bmp\",\"None\",\"Right\",\"37\",\"1\",\"3\",\"10\",\"N\",\"J\",\"3\"
\"\",\"\",\"approach-retreat\",\"7\",\"286718\",\"0.0-7.0\",\"\",\"\",\"1-5\",\"6010\",\"37\",\"0\",\"Training\",\"Stims/Figures/139-J-0-2.bmp\",\"None\",\"Left\",\"39\",\"1\",\"4\",\"10\",\"N\",\"J\",\"4\"
\"\",\"\",\"approach-retreat\",\"8\",\"299185\",\"0.0-8.0\",\"\",\"\",\"1-5\",\"10954\",\"37\",\"1\",\"Training\",\"Stims/Figures/44-C-30-3.bmp\",\"None\",\"Left\",\"37\",\"1\",\"5\",\"10\",\"N\",\"J\",\"5\"
\"\",\"\",\"approach-retreat\",\"9\",\"306634\",\"0.0-9.0\",\"\",\"\",\"1-5\",\"5931\",\"38\",\"1\",\"Training\",\"Stims/Figures/7-C-20-4.bmp\",\"None\",\"Up\",\"38\",\"1\",\"6\",\"10\",\"N\",\"J\",\"6\"
\"\",\"\",\"approach-retreat\",\"10\",\"314782\",\"0.0-10.0\",\"\",\"\",\"1-5\",\"6631\",\"37\",\"1\",\"Training\",\"Stims/Figures/27-C-30-1.bmp\",\"None\",\"Left\",\"37\",\"1\",\"7\",\"10\",\"N\",\"J\",\"7\"
\"\",\"\",\"approach-retreat\",\"11\",\"321970\",\"0.0-11.0\",\"\",\"\",\"1-5\",\"5670\",\"38\",\"0\",\"Training\",\"Stims/Figures/7-J-10-4.bmp\",\"None\",\"Up\",\"40\",\"1\",\"8\",\"10\",\"N\",\"J\",\"8\"
\"\",\"\",\"approach-retreat\",\"12\",\"332131\",\"0.0-12.0\",\"\",\"\",\"1-5\",\"8643\",\"39\",\"0\",\"Training\",\"Stims/Figures/111-J-10-3.bmp\",\"None\",\"Right\",\"37\",\"1\",\"9\",\"10\",\"N\",\"J\",\"9\"
\"\",\"\",\"approach-retreat\",\"13\",\"339724\",\"0.0-13.0\",\"\",\"\",\"1-5\",\"6077\",\"38\",\"0\",\"Training\",\"Stims/Figures/84-J-0-2.bmp\",\"None\",\"Up\",\"40\",\"1\",\"10\",\"10\",\"N\",\"J\",\"10\"
\"\",\"\",\"approach-retreat\",\"14\",\"346823\",\"0.0-14.0\",\"\",\"\",\"1-5\",\"5582\",\"38\",\"0\",\"Training\",\"Stims/Figures/139-C-20-2.bmp\",\"None\",\"Down\",\"40\",\"1\",\"11\",\"10\",\"N\",\"J\",\"11\"
\"\",\"\",\"approach-retreat\",\"15\",\"354074\",\"0.0-15.0\",\"\",\"\",\"1-5\",\"5737\",\"39\",\"1\",\"Training\",\"Stims/Figures/86-J-0-1.bmp\",\"None\",\"Left\",\"39\",\"1\",\"12\",\"10\",\"N\",\"J\",\"12\"
\"\",\"\",\"approach-retreat\",\"16\",\"360939\",\"0.0-16.0\",\"\",\"\",\"1-5\",\"5348\",\"39\",\"0\",\"Training\",\"Stims/Figures/27-J-0-1.bmp\",\"None\",\"Right\",\"37\",\"1\",\"13\",\"10\",\"N\",\"J\",\"13\"
\"\",\"\",\"approach-retreat\",\"17\",\"368828\",\"0.0-17.0\",\"\",\"\",\"1-5\",\"6377\",\"38\",\"0\",\"Training\",\"Stims/Figures/111-C-30-3.bmp\",\"None\",\"Down\",\"40\",\"1\",\"14\",\"10\",\"N\",\"J\",\"14\"
\"\",\"\",\"approach-retreat\",\"18\",\"375596\",\"0.0-18.0\",\"\",\"\",\"1-5\",\"5255\",\"39\",\"1\",\"Training\",\"Stims/Figures/86-C-30-1.bmp\",\"None\",\"Right\",\"39\",\"1\",\"15\",\"10\",\"N\",\"J\",\"15\"
\"\",\"\",\"approach-retreat\",\"19\",\"382421\",\"0.0-19.0\",\"\",\"\",\"1-5\",\"5311\",\"40\",\"1\",\"Training\",\"Stims/Figures/87-C-20-4.bmp\",\"None\",\"Down\",\"40\",\"1\",\"16\",\"10\",\"N\",\"J\",\"16\"
\"\",\"\",\"approach-retreat\",\"20\",\"391931\",\"0.0-20.0\",\"\",\"\",\"1-5\",\"7991\",\"37\",\"0\",\"Training\",\"Stims/Figures/86-J-0-1.bmp\",\"None\",\"Left\",\"39\",\"2\",\"1\",\"10\",\"N\",\"J\",\"17\"
\"\",\"\",\"approach-retreat\",\"21\",\"400102\",\"0.0-21.0\",\"\",\"\",\"1-5\",\"6654\",\"40\",\"1\",\"Training\",\"Stims/Figures/27-J-0-1.bmp\",\"None\",\"Up\",\"40\",\"2\",\"2\",\"10\",\"N\",\"J\",\"18\"
\"\",\"\",\"approach-retreat\",\"22\",\"406202\",\"0.0-22.0\",\"\",\"\",\"1-5\",\"4584\",\"39\",\"1\",\"Training\",\"Stims/Figures/111-C-30-3.bmp\",\"None\",\"Right\",\"39\",\"2\",\"3\",\"10\",\"N\",\"J\",\"19\"
\"\",\"\",\"approach-retreat\",\"23\",\"414184\",\"0.0-23.0\",\"\",\"\",\"1-5\",\"6465\",\"40\",\"0\",\"Training\",\"Stims/Figures/7-C-20-4.bmp\",\"None\",\"Up\",\"38\",\"2\",\"4\",\"10\",\"N\",\"J\",\"20\"
\"\",\"\",\"approach-retreat\",\"24\",\"420798\",\"0.0-24.0\",\"\",\"\",\"1-5\",\"5098\",\"40\",\"1\",\"Training\",\"Stims/Figures/27-C-30-1.bmp\",\"None\",\"Down\",\"40\",\"2\",\"5\",\"10\",\"N\",\"J\",\"21\"
\"\",\"\",\"approach-retreat\",\"25\",\"427197\",\"0.0-25.0\",\"\",\"\",\"1-5\",\"4883\",\"37\",\"0\",\"Training\",\"Stims/Figures/86-C-30-1.bmp\",\"None\",\"Right\",\"39\",\"2\",\"6\",\"10\",\"N\",\"J\",\"22\"
\"\",\"\",\"approach-retreat\",\"26\",\"437808\",\"0.0-26.0\",\"\",\"\",\"1-5\",\"9097\",\"39\",\"1\",\"Training\",\"Stims/Figures/111-J-10-3.bmp\",\"None\",\"Left\",\"39\",\"2\",\"7\",\"10\",\"N\",\"J\",\"23\"
\"\",\"\",\"approach-retreat\",\"27\",\"449322\",\"0.0-27.0\",\"\",\"\",\"1-5\",\"10000\",\"39\",\"1\",\"Training\",\"Stims/Figures/84-J-0-2.bmp\",\"None\",\"Left\",\"39\",\"2\",\"8\",\"10\",\"N\",\"J\",\"24\"
\"\",\"\",\"approach-retreat\",\"28\",\"455805\",\"0.0-28.0\",\"\",\"\",\"1-5\",\"4960\",\"38\",\"1\",\"Training\",\"Stims/Figures/139-J-0-2.bmp\",\"None\",\"Down\",\"38\",\"2\",\"9\",\"10\",\"N\",\"J\",\"25\"
\"\",\"\",\"approach-retreat\",\"29\",\"462804\",\"0.0-29.0\",\"\",\"\",\"1-5\",\"5486\",\"37\",\"0\",\"Training\",\"Stims/Figures/44-C-30-3.bmp\",\"None\",\"Right\",\"39\",\"2\",\"10\",\"10\",\"N\",\"J\",\"26\"
\"\",\"\",\"approach-retreat\",\"30\",\"469271\",\"0.0-30.0\",\"\",\"\",\"1-5\",\"4950\",\"37\",\"1\",\"Training\",\"Stims/Figures/87-J-10-4.bmp\",\"None\",\"Right\",\"37\",\"2\",\"11\",\"10\",\"N\",\"J\",\"27\"
\"\",\"\",\"approach-retreat\",\"31\",\"475458\",\"0.0-31.0\",\"\",\"\",\"1-5\",\"4673\",\"38\",\"0\",\"Training\",\"Stims/Figures/84-C-20-2.bmp\",\"None\",\"Down\",\"40\",\"2\",\"12\",\"10\",\"N\",\"J\",\"28\"
\"\",\"\",\"approach-retreat\",\"32\",\"482424\",\"0.0-32.0\",\"\",\"\",\"1-5\",\"5452\",\"40\",\"1\",\"Training\",\"Stims/Figures/7-J-10-4.bmp\",\"None\",\"Up\",\"40\",\"2\",\"13\",\"10\",\"N\",\"J\",\"29\"
\"\",\"\",\"approach-retreat\",\"33\",\"488994\",\"0.0-33.0\",\"\",\"\",\"1-5\",\"5054\",\"40\",\"0\",\"Training\",\"Stims/Figures/139-C-20-2.bmp\",\"None\",\"Up\",\"38\",\"2\",\"14\",\"10\",\"N\",\"J\",\"30\"
\"\",\"\",\"approach-retreat\",\"34\",\"496881\",\"0.0-34.0\",\"\",\"\",\"1-5\",\"6373\",\"37\",\"1\",\"Training\",\"Stims/Figures/87-C-20-4.bmp\",\"None\",\"Left\",\"37\",\"2\",\"15\",\"10\",\"N\",\"J\",\"31\"
\"\",\"\",\"approach-retreat\",\"35\",\"504208\",\"0.0-35.0\",\"\",\"\",\"1-5\",\"5811\",\"38\",\"1\",\"Training\",\"Stims/Figures/44-J-10-3.bmp\",\"None\",\"Down\",\"38\",\"2\",\"16\",\"10\",\"N\",\"J\",\"32\"
\"\",\"\",\"approach-retreat\",\"36\",\"510699\",\"0.0-36.0\",\"\",\"\",\"1-5\",\"4974\",\"40\",\"1\",\"Training\",\"Stims/Figures/27-J-0-1.bmp\",\"None\",\"Up\",\"40\",\"3\",\"1\",\"10\",\"N\",\"J\",\"33\"
\"\",\"\",\"approach-retreat\",\"37\",\"517866\",\"0.0-37.0\",\"\",\"\",\"1-5\",\"5651\",\"39\",\"0\",\"Training\",\"Stims/Figures/87-J-10-4.bmp\",\"None\",\"Right\",\"37\",\"3\",\"2\",\"10\",\"N\",\"J\",\"34\"
\"\",\"\",\"approach-retreat\",\"38\",\"523904\",\"0.0-38.0\",\"\",\"\",\"1-5\",\"4518\",\"39\",\"0\",\"Training\",\"Stims/Figures/139-J-0-2.bmp\",\"None\",\"Right\",\"37\",\"3\",\"3\",\"10\",\"N\",\"J\",\"35\"
\"\",\"\",\"approach-retreat\",\"39\",\"530171\",\"0.0-39.0\",\"\",\"\",\"1-5\",\"4749\",\"38\",\"1\",\"Training\",\"Stims/Figures/44-C-30-3.bmp\",\"None\",\"Up\",\"38\",\"3\",\"4\",\"10\",\"N\",\"J\",\"36\"
\"\",\"\",\"approach-retreat\",\"40\",\"536137\",\"0.0-40.0\",\"\",\"\",\"1-5\",\"4448\",\"37\",\"1\",\"Training\",\"Stims/Figures/7-C-20-4.bmp\",\"None\",\"Left\",\"37\",\"3\",\"5\",\"10\",\"N\",\"J\",\"37\"
\"\",\"\",\"approach-retreat\",\"41\",\"542382\",\"0.0-41.0\",\"\",\"\",\"1-5\",\"4727\",\"37\",\"0\",\"Training\",\"Stims/Figures/111-C-30-3.bmp\",\"None\",\"Right\",\"39\",\"3\",\"6\",\"10\",\"N\",\"J\",\"38\"
\"\",\"\",\"approach-retreat\",\"42\",\"548161\",\"0.0-42.0\",\"\",\"\",\"1-5\",\"4264\",\"39\",\"1\",\"Training\",\"Stims/Figures/7-J-10-4.bmp\",\"None\",\"Left\",\"39\",\"3\",\"7\",\"10\",\"N\",\"J\",\"39\"
\"\",\"\",\"approach-retreat\",\"43\",\"554780\",\"0.0-43.0\",\"\",\"\",\"1-5\",\"5099\",\"37\",\"0\",\"Training\",\"Stims/Figures/84-C-20-2.bmp\",\"None\",\"Right\",\"39\",\"3\",\"8\",\"10\",\"N\",\"J\",\"40\"
\"\",\"\",\"approach-retreat\",\"44\",\"561371\",\"0.0-44.0\",\"\",\"\",\"1-5\",\"5073\",\"40\",\"1\",\"Training\",\"Stims/Figures/87-C-20-4.bmp\",\"None\",\"Down\",\"40\",\"3\",\"9\",\"10\",\"N\",\"J\",\"41\"
\"\",\"\",\"approach-retreat\",\"45\",\"567774\",\"0.0-45.0\",\"\",\"\",\"1-5\",\"4887\",\"37\",\"0\",\"Training\",\"Stims/Figures/86-J-0-1.bmp\",\"None\",\"Left\",\"39\",\"3\",\"10\",\"10\",\"N\",\"J\",\"42\"
\"\",\"\",\"approach-retreat\",\"46\",\"574491\",\"0.0-46.0\",\"\",\"\",\"1-5\",\"5203\",\"38\",\"1\",\"Training\",\"Stims/Figures/86-C-30-1.bmp\",\"None\",\"Up\",\"38\",\"3\",\"11\",\"10\",\"N\",\"J\",\"43\"
\"\",\"\",\"approach-retreat\",\"47\",\"581585\",\"0.0-47.0\",\"\",\"\",\"1-5\",\"5575\",\"38\",\"0\",\"Training\",\"Stims/Figures/139-C-20-2.bmp\",\"None\",\"Down\",\"40\",\"3\",\"12\",\"10\",\"N\",\"J\",\"44\"
\"\",\"\",\"approach-retreat\",\"48\",\"588182\",\"0.0-48.0\",\"\",\"\",\"1-5\",\"5081\",\"38\",\"0\",\"Training\",\"Stims/Figures/84-J-0-2.bmp\",\"None\",\"Up\",\"40\",\"3\",\"13\",\"10\",\"N\",\"J\",\"45\"
\"\",\"\",\"approach-retreat\",\"49\",\"594741\",\"0.0-49.0\",\"\",\"\",\"1-5\",\"5043\",\"38\",\"0\",\"Training\",\"Stims/Figures/27-C-30-1.bmp\",\"None\",\"Down\",\"40\",\"3\",\"14\",\"10\",\"N\",\"J\",\"46\"
\"\",\"\",\"approach-retreat\",\"50\",\"601071\",\"0.0-50.0\",\"\",\"\",\"1-5\",\"4812\",\"37\",\"0\",\"Training\",\"Stims/Figures/111-J-10-3.bmp\",\"None\",\"Left\",\"39\",\"3\",\"15\",\"10\",\"N\",\"J\",\"47\"
\"\",\"\",\"approach-retreat\",\"51\",\"607273\",\"0.0-51.0\",\"\",\"\",\"1-5\",\"4685\",\"40\",\"0\",\"Training\",\"Stims/Figures/44-J-10-3.bmp\",\"None\",\"Down\",\"38\",\"3\",\"16\",\"10\",\"N\",\"J\",\"48\"
\"\",\"\",\"approach-retreat\",\"52\",\"612947\",\"0.0-52.0\",\"\",\"\",\"1-5\",\"4160\",\"39\",\"0\",\"Training\",\"Stims/Figures/87-C-20-4.bmp\",\"None\",\"Left\",\"37\",\"4\",\"1\",\"10\",\"N\",\"J\",\"49\"
\"\",\"\",\"approach-retreat\",\"53\",\"618963\",\"0.0-53.0\",\"\",\"\",\"1-5\",\"4501\",\"38\",\"1\",\"Training\",\"Stims/Figures/139-J-0-2.bmp\",\"None\",\"Down\",\"38\",\"4\",\"2\",\"10\",\"N\",\"J\",\"50\"
\"\",\"\",\"approach-retreat\",\"54\",\"627081\",\"0.0-54.0\",\"\",\"\",\"1-5\",\"6603\",\"38\",\"0\",\"Training\",\"Stims/Figures/7-J-10-4.bmp\",\"None\",\"Up\",\"40\",\"4\",\"3\",\"10\",\"N\",\"J\",\"51\"
\"\",\"\",\"approach-retreat\",\"55\",\"632865\",\"0.0-55.0\",\"\",\"\",\"1-5\",\"4267\",\"38\",\"1\",\"Training\",\"Stims/Figures/7-C-20-4.bmp\",\"None\",\"Up\",\"38\",\"4\",\"4\",\"10\",\"N\",\"J\",\"52\"
\"\",\"\",\"approach-retreat\",\"56\",\"638741\",\"0.0-56.0\",\"\",\"\",\"1-5\",\"4359\",\"38\",\"1\",\"Training\",\"Stims/Figures/111-C-30-3.bmp\",\"None\",\"Up\",\"38\",\"4\",\"5\",\"10\",\"N\",\"J\",\"53\"
\"\",\"\",\"approach-retreat\",\"57\",\"645004\",\"0.0-57.0\",\"\",\"\",\"1-5\",\"4743\",\"37\",\"1\",\"Training\",\"Stims/Figures/27-J-0-1.bmp\",\"None\",\"Right\",\"37\",\"4\",\"6\",\"10\",\"N\",\"J\",\"54\"
\"\",\"\",\"approach-retreat\",\"58\",\"651150\",\"0.0-58.0\",\"\",\"\",\"1-5\",\"4631\",\"40\",\"0\",\"Training\",\"Stims/Figures/44-C-30-3.bmp\",\"None\",\"Up\",\"38\",\"4\",\"7\",\"10\",\"N\",\"J\",\"55\"
\"\",\"\",\"approach-retreat\",\"59\",\"658276\",\"0.0-59.0\",\"\",\"\",\"1-5\",\"5614\",\"39\",\"1\",\"Training\",\"Stims/Figures/44-J-10-3.bmp\",\"None\",\"Left\",\"39\",\"4\",\"8\",\"10\",\"N\",\"J\",\"56\"
\"\",\"\",\"approach-retreat\",\"60\",\"664465\",\"0.0-60.0\",\"\",\"\",\"1-5\",\"4671\",\"39\",\"1\",\"Training\",\"Stims/Figures/87-J-10-4.bmp\",\"None\",\"Left\",\"39\",\"4\",\"9\",\"10\",\"N\",\"J\",\"57\"
\"\",\"\",\"approach-retreat\",\"61\",\"672769\",\"0.0-61.0\",\"\",\"\",\"1-5\",\"6789\",\"37\",\"1\",\"Training\",\"Stims/Figures/86-J-0-1.bmp\",\"None\",\"Right\",\"37\",\"4\",\"10\",\"10\",\"N\",\"J\",\"58\"
\"\",\"\",\"approach-retreat\",\"62\",\"679802\",\"0.0-62.0\",\"\",\"\",\"1-5\",\"5514\",\"38\",\"0\",\"Training\",\"Stims/Figures/27-C-30-1.bmp\",\"None\",\"Down\",\"40\",\"4\",\"11\",\"10\",\"N\",\"J\",\"59\"
\"\",\"\",\"approach-retreat\",\"63\",\"686371\",\"0.0-63.0\",\"\",\"\",\"1-5\",\"5052\",\"38\",\"0\",\"Training\",\"Stims/Figures/139-C-20-2.bmp\",\"None\",\"Down\",\"40\",\"4\",\"12\",\"10\",\"N\",\"J\",\"60\"
\"\",\"\",\"approach-retreat\",\"64\",\"692637\",\"0.0-64.0\",\"\",\"\",\"1-5\",\"4750\",\"37\",\"0\",\"Training\",\"Stims/Figures/111-J-10-3.bmp\",\"None\",\"Left\",\"39\",\"4\",\"13\",\"10\",\"N\",\"J\",\"61\"
\"\",\"\",\"approach-retreat\",\"65\",\"698593\",\"0.0-65.0\",\"\",\"\",\"1-5\",\"4441\",\"37\",\"1\",\"Training\",\"Stims/Figures/84-J-0-2.bmp\",\"None\",\"Right\",\"37\",\"4\",\"14\",\"10\",\"N\",\"J\",\"62\"
\"\",\"\",\"approach-retreat\",\"66\",\"708762\",\"0.0-66.0\",\"\",\"\",\"1-5\",\"8653\",\"38\",\"0\",\"Training\",\"Stims/Figures/86-C-30-1.bmp\",\"None\",\"Down\",\"40\",\"4\",\"15\",\"10\",\"N\",\"J\",\"63\"
\"\",\"\",\"approach-retreat\",\"67\",\"714659\",\"0.0-67.0\",\"\",\"\",\"1-5\",\"4379\",\"37\",\"0\",\"Training\",\"Stims/Figures/84-C-20-2.bmp\",\"None\",\"Right\",\"39\",\"4\",\"16\",\"10\",\"N\",\"J\",\"64\"
\"\",\"\",\"approach-retreat\",\"68\",\"720891\",\"0.0-68.0\",\"\",\"\",\"1-5\",\"4715\",\"40\",\"0\",\"Training\",\"Stims/Figures/139-C-20-2.bmp\",\"None\",\"Up\",\"38\",\"5\",\"1\",\"10\",\"N\",\"J\",\"65\"
\"\",\"\",\"approach-retreat\",\"69\",\"726598\",\"0.0-69.0\",\"\",\"\",\"1-5\",\"4189\",\"39\",\"1\",\"Training\",\"Stims/Figures/27-J-0-1.bmp\",\"None\",\"Left\",\"39\",\"5\",\"2\",\"10\",\"N\",\"J\",\"66\"
\"\",\"\",\"approach-retreat\",\"70\",\"732347\",\"0.0-70.0\",\"\",\"\",\"1-5\",\"4234\",\"39\",\"0\",\"Training\",\"Stims/Figures/27-C-30-1.bmp\",\"None\",\"Left\",\"37\",\"5\",\"3\",\"10\",\"N\",\"J\",\"67\"
\"\",\"\",\"approach-retreat\",\"71\",\"739110\",\"0.0-71.0\",\"\",\"\",\"1-5\",\"5248\",\"39\",\"1\",\"Training\",\"Stims/Figures/84-C-20-2.bmp\",\"None\",\"Right\",\"39\",\"5\",\"4\",\"10\",\"N\",\"J\",\"68\"
\"\",\"\",\"approach-retreat\",\"72\",\"746257\",\"0.0-72.0\",\"\",\"\",\"1-5\",\"5629\",\"40\",\"0\",\"Training\",\"Stims/Figures/86-C-30-1.bmp\",\"None\",\"Up\",\"38\",\"5\",\"5\",\"10\",\"N\",\"J\",\"69\"
\"\",\"\",\"approach-retreat\",\"73\",\"752197\",\"0.0-73.0\",\"\",\"\",\"1-5\",\"4420\",\"37\",\"1\",\"Training\",\"Stims/Figures/139-J-0-2.bmp\",\"None\",\"Right\",\"37\",\"5\",\"6\",\"10\",\"N\",\"J\",\"70\"
\"\",\"\",\"approach-retreat\",\"74\",\"758043\",\"0.0-74.0\",\"\",\"\",\"1-5\",\"4329\",\"39\",\"0\",\"Training\",\"Stims/Figures/44-C-30-3.bmp\",\"None\",\"Left\",\"37\",\"5\",\"7\",\"10\",\"N\",\"J\",\"71\"
\"\",\"\",\"approach-retreat\",\"75\",\"764137\",\"0.0-75.0\",\"\",\"\",\"1-5\",\"4579\",\"38\",\"1\",\"Training\",\"Stims/Figures/111-J-10-3.bmp\",\"None\",\"Down\",\"38\",\"5\",\"8\",\"10\",\"N\",\"J\",\"72\"
\"\",\"\",\"approach-retreat\",\"76\",\"770589\",\"0.0-76.0\",\"\",\"\",\"1-5\",\"4935\",\"38\",\"0\",\"Training\",\"Stims/Figures/111-C-30-3.bmp\",\"None\",\"Down\",\"40\",\"5\",\"9\",\"10\",\"N\",\"J\",\"73\"
\"\",\"\",\"approach-retreat\",\"77\",\"776303\",\"0.0-77.0\",\"\",\"\",\"1-5\",\"4199\",\"39\",\"1\",\"Training\",\"Stims/Figures/87-J-10-4.bmp\",\"None\",\"Left\",\"39\",\"5\",\"10\",\"10\",\"N\",\"J\",\"74\"
\"\",\"\",\"approach-retreat\",\"78\",\"782312\",\"0.0-78.0\",\"\",\"\",\"1-5\",\"4495\",\"40\",\"1\",\"Training\",\"Stims/Figures/86-J-0-1.bmp\",\"None\",\"Up\",\"40\",\"5\",\"11\",\"10\",\"N\",\"J\",\"75\"
\"\",\"\",\"approach-retreat\",\"79\",\"789102\",\"0.0-79.0\",\"\",\"\",\"1-5\",\"5273\",\"39\",\"0\",\"Training\",\"Stims/Figures/84-J-0-2.bmp\",\"None\",\"Right\",\"37\",\"5\",\"12\",\"10\",\"N\",\"J\",\"76\"
\"\",\"\",\"approach-retreat\",\"80\",\"795655\",\"0.0-80.0\",\"\",\"\",\"1-5\",\"5038\",\"40\",\"1\",\"Training\",\"Stims/Figures/7-J-10-4.bmp\",\"None\",\"Up\",\"40\",\"5\",\"13\",\"10\",\"N\",\"J\",\"77\"
\"\",\"\",\"approach-retreat\",\"81\",\"802675\",\"0.0-81.0\",\"\",\"\",\"1-5\",\"5504\",\"37\",\"0\",\"Training\",\"Stims/Figures/7-C-20-4.bmp\",\"None\",\"Right\",\"39\",\"5\",\"14\",\"10\",\"N\",\"J\",\"78\"
\"\",\"\",\"approach-retreat\",\"82\",\"808646\",\"0.0-82.0\",\"\",\"\",\"1-5\",\"4452\",\"38\",\"1\",\"Training\",\"Stims/Figures/44-J-10-3.bmp\",\"None\",\"Down\",\"38\",\"5\",\"15\",\"10\",\"N\",\"J\",\"79\"
\"\",\"\",\"approach-retreat\",\"83\",\"814900\",\"0.0-83.0\",\"\",\"\",\"1-5\",\"4737\",\"40\",\"1\",\"Training\",\"Stims/Figures/87-C-20-4.bmp\",\"None\",\"Down\",\"40\",\"5\",\"16\",\"10\",\"N\",\"J\",\"80\"
\"\",\"\",\"approach-retreat\",\"84\",\"820970\",\"0.0-84.0\",\"\",\"\",\"1-5\",\"4552\",\"37\",\"0\",\"Training\",\"Stims/Figures/44-C-30-3.bmp\",\"None\",\"Right\",\"39\",\"6\",\"1\",\"10\",\"N\",\"J\",\"81\"
\"\",\"\",\"approach-retreat\",\"85\",\"826870\",\"0.0-85.0\",\"\",\"\",\"1-5\",\"4381\",\"38\",\"1\",\"Training\",\"Stims/Figures/139-J-0-2.bmp\",\"None\",\"Down\",\"38\",\"6\",\"2\",\"10\",\"N\",\"J\",\"82\"
\"\",\"\",\"approach-retreat\",\"86\",\"832520\",\"0.0-86.0\",\"\",\"\",\"1-5\",\"4132\",\"37\",\"0\",\"Training\",\"Stims/Figures/27-C-30-1.bmp\",\"None\",\"Right\",\"39\",\"6\",\"3\",\"10\",\"N\",\"J\",\"83\"
\"\",\"\",\"approach-retreat\",\"87\",\"838321\",\"0.0-87.0\",\"\",\"\",\"1-5\",\"4283\",\"38\",\"1\",\"Training\",\"Stims/Figures/44-J-10-3.bmp\",\"None\",\"Down\",\"38\",\"6\",\"4\",\"10\",\"N\",\"J\",\"84\"
\"\",\"\",\"approach-retreat\",\"88\",\"844029\",\"0.0-88.0\",\"\",\"\",\"1-5\",\"4191\",\"38\",\"1\",\"Training\",\"Stims/Figures/7-J-10-4.bmp\",\"None\",\"Down\",\"38\",\"6\",\"5\",\"10\",\"N\",\"J\",\"85\"
\"\",\"\",\"approach-retreat\",\"89\",\"850509\",\"0.0-89.0\",\"\",\"\",\"1-5\",\"4963\",\"40\",\"0\",\"Training\",\"Stims/Figures/7-C-20-4.bmp\",\"None\",\"Up\",\"38\",\"6\",\"6\",\"10\",\"N\",\"J\",\"86\"
\"\",\"\",\"approach-retreat\",\"90\",\"857665\",\"0.0-90.0\",\"\",\"\",\"1-5\",\"5640\",\"37\",\"1\",\"Training\",\"Stims/Figures/111-C-30-3.bmp\",\"None\",\"Left\",\"37\",\"6\",\"7\",\"10\",\"N\",\"J\",\"87\"
\"\",\"\",\"approach-retreat\",\"91\",\"863694\",\"0.0-91.0\",\"\",\"\",\"1-5\",\"4511\",\"37\",\"0\",\"Training\",\"Stims/Figures/84-J-0-2.bmp\",\"None\",\"Left\",\"39\",\"6\",\"8\",\"10\",\"N\",\"J\",\"88\"
\"\",\"\",\"approach-retreat\",\"92\",\"869870\",\"0.0-92.0\",\"\",\"\",\"1-5\",\"4664\",\"40\",\"0\",\"Training\",\"Stims/Figures/139-C-20-2.bmp\",\"None\",\"Up\",\"38\",\"6\",\"9\",\"10\",\"N\",\"J\",\"89\"
\"\",\"\",\"approach-retreat\",\"93\",\"875765\",\"0.0-93.0\",\"\",\"\",\"1-5\",\"4380\",\"37\",\"1\",\"Training\",\"Stims/Figures/111-J-10-3.bmp\",\"None\",\"Right\",\"37\",\"6\",\"10\",\"10\",\"N\",\"J\",\"90\"
\"\",\"\",\"approach-retreat\",\"94\",\"885917\",\"0.0-94.0\",\"\",\"\",\"1-5\",\"8637\",\"39\",\"1\",\"Training\",\"Stims/Figures/86-J-0-1.bmp\",\"None\",\"Left\",\"39\",\"6\",\"11\",\"10\",\"N\",\"J\",\"91\"
\"\",\"\",\"approach-retreat\",\"95\",\"891945\",\"0.0-95.0\",\"\",\"\",\"1-5\",\"4515\",\"37\",\"1\",\"Training\",\"Stims/Figures/87-J-10-4.bmp\",\"None\",\"Right\",\"37\",\"6\",\"12\",\"10\",\"N\",\"J\",\"92\"
\"\",\"\",\"approach-retreat\",\"96\",\"898659\",\"0.0-96.0\",\"\",\"\",\"1-5\",\"5199\",\"40\",\"1\",\"Training\",\"Stims/Figures/84-C-20-2.bmp\",\"None\",\"Down\",\"40\",\"6\",\"13\",\"10\",\"N\",\"J\",\"93\"
\"\",\"\",\"approach-retreat\",\"97\",\"904460\",\"0.0-97.0\",\"\",\"\",\"1-5\",\"4283\",\"40\",\"1\",\"Training\",\"Stims/Figures/27-J-0-1.bmp\",\"None\",\"Up\",\"40\",\"6\",\"14\",\"10\",\"N\",\"J\",\"94\"
\"\",\"\",\"approach-retreat\",\"98\",\"910585\",\"0.0-98.0\",\"\",\"\",\"1-5\",\"4610\",\"39\",\"0\",\"Training\",\"Stims/Figures/86-C-30-1.bmp\",\"None\",\"Left\",\"37\",\"6\",\"15\",\"10\",\"N\",\"J\",\"95\"
\"\",\"\",\"approach-retreat\",\"99\",\"916618\",\"0.0-99.0\",\"\",\"\",\"1-5\",\"4517\",\"40\",\"0\",\"Training\",\"Stims/Figures/87-C-20-4.bmp\",\"None\",\"Up\",\"38\",\"6\",\"16\",\"10\",\"N\",\"J\",\"96\"
\"\",\"\",\"approach-retreat\",\"100\",\"923508\",\"0.0-100.0\",\"\",\"\",\"1-5\",\"5373\",\"40\",\"1\",\"Training\",\"Stims/Figures/7-C-20-4.bmp\",\"None\",\"Down\",\"40\",\"7\",\"1\",\"10\",\"N\",\"J\",\"97\"
\"\",\"\",\"approach-retreat\",\"101\",\"930263\",\"0.0-101.0\",\"\",\"\",\"1-5\",\"5241\",\"39\",\"0\",\"Training\",\"Stims/Figures/139-C-20-2.bmp\",\"None\",\"Left\",\"37\",\"7\",\"2\",\"10\",\"N\",\"J\",\"98\"
\"\",\"\",\"approach-retreat\",\"102\",\"936271\",\"0.0-102.0\",\"\",\"\",\"1-5\",\"4490\",\"37\",\"1\",\"Training\",\"Stims/Figures/111-J-10-3.bmp\",\"None\",\"Right\",\"37\",\"7\",\"3\",\"10\",\"N\",\"J\",\"99\"
\"\",\"\",\"approach-retreat\",\"103\",\"942028\",\"0.0-103.0\",\"\",\"\",\"1-5\",\"4236\",\"37\",\"1\",\"Training\",\"Stims/Figures/86-J-0-1.bmp\",\"None\",\"Right\",\"37\",\"7\",\"4\",\"10\",\"N\",\"J\",\"100\"
\"\",\"\",\"approach-retreat\",\"104\",\"947900\",\"0.0-104.0\",\"\",\"\",\"1-5\",\"4357\",\"39\",\"1\",\"Training\",\"Stims/Figures/111-C-30-3.bmp\",\"None\",\"Right\",\"39\",\"7\",\"5\",\"10\",\"N\",\"J\",\"101\"
\"\",\"\",\"approach-retreat\",\"105\",\"955009\",\"0.0-105.0\",\"\",\"\",\"1-5\",\"5590\",\"40\",\"0\",\"Training\",\"Stims/Figures/84-C-20-2.bmp\",\"None\",\"Up\",\"38\",\"7\",\"6\",\"10\",\"N\",\"J\",\"102\"
\"\",\"\",\"approach-retreat\",\"106\",\"962827\",\"0.0-106.0\",\"\",\"\",\"1-5\",\"6300\",\"38\",\"1\",\"Training\",\"Stims/Figures/84-J-0-2.bmp\",\"None\",\"Down\",\"38\",\"7\",\"7\",\"10\",\"N\",\"J\",\"103\"
\"\",\"\",\"approach-retreat\",\"107\",\"972922\",\"0.0-107.0\",\"\",\"\",\"1-5\",\"8579\",\"40\",\"0\",\"Training\",\"Stims/Figures/87-C-20-4.bmp\",\"None\",\"Up\",\"38\",\"7\",\"8\",\"10\",\"N\",\"J\",\"104\"
\"\",\"\",\"approach-retreat\",\"108\",\"979788\",\"0.0-108.0\",\"\",\"\",\"1-5\",\"5352\",\"38\",\"1\",\"Training\",\"Stims/Figures/44-J-10-3.bmp\",\"None\",\"Down\",\"38\",\"7\",\"9\",\"10\",\"N\",\"J\",\"105\"
\"\",\"\",\"approach-retreat\",\"109\",\"986401\",\"0.0-109.0\",\"\",\"\",\"1-5\",\"5092\",\"37\",\"1\",\"Training\",\"Stims/Figures/44-C-30-3.bmp\",\"None\",\"Left\",\"37\",\"7\",\"10\",\"10\",\"N\",\"J\",\"106\"
\"\",\"\",\"approach-retreat\",\"110\",\"992768\",\"0.0-110.0\",\"\",\"\",\"1-5\",\"4852\",\"39\",\"0\",\"Training\",\"Stims/Figures/27-C-30-1.bmp\",\"None\",\"Left\",\"37\",\"7\",\"11\",\"10\",\"N\",\"J\",\"107\"
\"\",\"\",\"approach-retreat\",\"111\",\"998748\",\"0.0-111.0\",\"\",\"\",\"1-5\",\"4464\",\"40\",\"0\",\"Training\",\"Stims/Figures/86-C-30-1.bmp\",\"None\",\"Up\",\"38\",\"7\",\"12\",\"10\",\"N\",\"J\",\"108\"
\"\",\"\",\"approach-retreat\",\"112\",\"1005247\",\"0.0-112.0\",\"\",\"\",\"1-5\",\"4984\",\"38\",\"1\",\"Training\",\"Stims/Figures/27-J-0-1.bmp\",\"None\",\"Down\",\"38\",\"7\",\"13\",\"10\",\"N\",\"J\",\"109\"
\"\",\"\",\"approach-retreat\",\"113\",\"1011094\",\"0.0-113.0\",\"\",\"\",\"1-5\",\"4324\",\"37\",\"1\",\"Training\",\"Stims/Figures/7-J-10-4.bmp\",\"None\",\"Right\",\"37\",\"7\",\"14\",\"10\",\"N\",\"J\",\"110\"
\"\",\"\",\"approach-retreat\",\"114\",\"1018276\",\"0.0-114.0\",\"\",\"\",\"1-5\",\"5668\",\"40\",\"1\",\"Training\",\"Stims/Figures/87-J-10-4.bmp\",\"None\",\"Up\",\"40\",\"7\",\"15\",\"10\",\"N\",\"J\",\"111\"
\"\",\"\",\"approach-retreat\",\"115\",\"1024574\",\"0.0-115.0\",\"\",\"\",\"1-5\",\"4783\",\"37\",\"0\",\"Training\",\"Stims/Figures/139-J-0-2.bmp\",\"None\",\"Left\",\"39\",\"7\",\"16\",\"10\",\"N\",\"J\",\"112\"
\"\",\"\",\"approach-retreat\",\"116\",\"1032112\",\"0.0-116.0\",\"\",\"\",\"1-5\",\"6022\",\"38\",\"0\",\"Training\",\"Stims/Figures/84-J-0-2.bmp\",\"None\",\"Up\",\"40\",\"8\",\"1\",\"10\",\"N\",\"J\",\"113\"
\"\",\"\",\"approach-retreat\",\"117\",\"1039154\",\"0.0-117.0\",\"\",\"\",\"1-5\",\"5528\",\"38\",\"0\",\"Training\",\"Stims/Figures/27-J-0-1.bmp\",\"None\",\"Up\",\"40\",\"8\",\"2\",\"10\",\"N\",\"J\",\"114\"
\"\",\"\",\"approach-retreat\",\"118\",\"1045130\",\"0.0-118.0\",\"\",\"\",\"1-5\",\"4461\",\"39\",\"0\",\"Training\",\"Stims/Figures/111-J-10-3.bmp\",\"None\",\"Right\",\"37\",\"8\",\"3\",\"10\",\"N\",\"J\",\"115\"
\"\",\"\",\"approach-retreat\",\"119\",\"1051437\",\"0.0-119.0\",\"\",\"\",\"1-5\",\"4792\",\"38\",\"0\",\"Training\",\"Stims/Figures/139-C-20-2.bmp\",\"None\",\"Down\",\"40\",\"8\",\"4\",\"10\",\"N\",\"J\",\"116\"
\"\",\"\",\"approach-retreat\",\"120\",\"1057717\",\"0.0-120.0\",\"\",\"\",\"1-5\",\"4765\",\"37\",\"0\",\"Training\",\"Stims/Figures/7-C-20-4.bmp\",\"None\",\"Right\",\"39\",\"8\",\"5\",\"10\",\"N\",\"J\",\"117\"
\"\",\"\",\"approach-retreat\",\"121\",\"1064247\",\"0.0-121.0\",\"\",\"\",\"1-5\",\"5014\",\"38\",\"1\",\"Training\",\"Stims/Figures/86-J-0-1.bmp\",\"None\",\"Down\",\"38\",\"8\",\"6\",\"10\",\"N\",\"J\",\"118\"
\"\",\"\",\"approach-retreat\",\"122\",\"1071061\",\"0.0-122.0\",\"\",\"\",\"1-5\",\"5297\",\"39\",\"1\",\"Training\",\"Stims/Figures/7-J-10-4.bmp\",\"None\",\"Left\",\"39\",\"8\",\"7\",\"10\",\"N\",\"J\",\"119\"
\"\",\"\",\"approach-retreat\",\"123\",\"1078130\",\"0.0-123.0\",\"\",\"\",\"1-5\",\"5551\",\"39\",\"1\",\"Training\",\"Stims/Figures/111-C-30-3.bmp\",\"None\",\"Right\",\"39\",\"8\",\"8\",\"10\",\"N\",\"J\",\"120\"
\"\",\"\",\"approach-retreat\",\"124\",\"1084029\",\"0.0-124.0\",\"\",\"\",\"1-5\",\"4381\",\"37\",\"0\",\"Training\",\"Stims/Figures/139-J-0-2.bmp\",\"None\",\"Left\",\"39\",\"8\",\"9\",\"10\",\"N\",\"J\",\"121\"
\"\",\"\",\"approach-retreat\",\"125\",\"1089941\",\"0.0-125.0\",\"\",\"\",\"1-5\",\"4398\",\"39\",\"1\",\"Training\",\"Stims/Figures/84-C-20-2.bmp\",\"None\",\"Right\",\"39\",\"8\",\"10\",\"10\",\"N\",\"J\",\"122\"
\"\",\"\",\"approach-retreat\",\"126\",\"1099120\",\"0.0-126.0\",\"\",\"\",\"1-5\",\"7664\",\"39\",\"1\",\"Training\",\"Stims/Figures/44-J-10-3.bmp\",\"None\",\"Left\",\"39\",\"8\",\"11\",\"10\",\"N\",\"J\",\"123\"
\"\",\"\",\"approach-retreat\",\"127\",\"1105640\",\"0.0-127.0\",\"\",\"\",\"1-5\",\"5003\",\"40\",\"1\",\"Training\",\"Stims/Figures/27-C-30-1.bmp\",\"None\",\"Down\",\"40\",\"8\",\"12\",\"10\",\"N\",\"J\",\"124\"
\"\",\"\",\"approach-retreat\",\"128\",\"1112203\",\"0.0-128.0\",\"\",\"\",\"1-5\",\"5046\",\"38\",\"1\",\"Training\",\"Stims/Figures/44-C-30-3.bmp\",\"None\",\"Up\",\"38\",\"8\",\"13\",\"10\",\"N\",\"J\",\"125\"
\"\",\"\",\"approach-retreat\",\"129\",\"1118221\",\"0.0-129.0\",\"\",\"\",\"1-5\",\"4501\",\"37\",\"0\",\"Training\",\"Stims/Figures/87-J-10-4.bmp\",\"None\",\"Left\",\"39\",\"8\",\"14\",\"10\",\"N\",\"J\",\"126\"
\"\",\"\",\"approach-retreat\",\"130\",\"1127057\",\"0.0-130.0\",\"\",\"\",\"1-5\",\"7321\",\"38\",\"1\",\"Training\",\"Stims/Figures/87-C-20-4.bmp\",\"None\",\"Up\",\"38\",\"8\",\"15\",\"10\",\"N\",\"J\",\"127\"
\"\",\"\",\"approach-retreat\",\"131\",\"1133067\",\"0.0-131.0\",\"\",\"\",\"1-5\",\"4489\",\"40\",\"1\",\"Training\",\"Stims/Figures/86-C-30-1.bmp\",\"None\",\"Down\",\"40\",\"8\",\"16\",\"10\",\"N\",\"J\",\"128\"
\"\",\"\",\"approach-retreat\",\"132\",\"1138808\",\"0.0-132.0\",\"\",\"\",\"1-5\",\"4227\",\"40\",\"0\",\"Training\",\"Stims/Figures/87-C-20-4.bmp\",\"None\",\"Up\",\"38\",\"9\",\"1\",\"10\",\"N\",\"J\",\"129\"
\"\",\"\",\"approach-retreat\",\"133\",\"1146935\",\"0.0-133.0\",\"\",\"\",\"1-5\",\"6612\",\"39\",\"1\",\"Training\",\"Stims/Figures/84-J-0-2.bmp\",\"None\",\"Left\",\"39\",\"9\",\"2\",\"10\",\"N\",\"J\",\"130\"
\"\",\"\",\"approach-retreat\",\"134\",\"1153687\",\"0.0-134.0\",\"\",\"\",\"1-5\",\"5237\",\"37\",\"0\",\"Training\",\"Stims/Figures/111-J-10-3.bmp\",\"None\",\"Left\",\"39\",\"9\",\"3\",\"10\",\"N\",\"J\",\"131\"
\"\",\"\",\"approach-retreat\",\"135\",\"1161468\",\"0.0-135.0\",\"\",\"\",\"1-5\",\"6267\",\"37\",\"1\",\"Training\",\"Stims/Figures/86-J-0-1.bmp\",\"None\",\"Right\",\"37\",\"9\",\"4\",\"10\",\"N\",\"J\",\"132\"
\"\",\"\",\"approach-retreat\",\"136\",\"1167133\",\"0.0-136.0\",\"\",\"\",\"1-5\",\"4149\",\"37\",\"0\",\"Training\",\"Stims/Figures/86-C-30-1.bmp\",\"None\",\"Right\",\"39\",\"9\",\"5\",\"10\",\"N\",\"J\",\"133\"
\"\",\"\",\"approach-retreat\",\"137\",\"1173572\",\"0.0-137.0\",\"\",\"\",\"1-5\",\"4923\",\"40\",\"1\",\"Training\",\"Stims/Figures/139-J-0-2.bmp\",\"None\",\"Up\",\"40\",\"9\",\"6\",\"10\",\"N\",\"J\",\"134\"
\"\",\"\",\"approach-retreat\",\"138\",\"1183613\",\"0.0-138.0\",\"\",\"\",\"1-5\",\"8525\",\"38\",\"1\",\"Training\",\"Stims/Figures/7-J-10-4.bmp\",\"None\",\"Down\",\"38\",\"9\",\"7\",\"10\",\"N\",\"J\",\"135\"
\"\",\"\",\"approach-retreat\",\"139\",\"1189729\",\"0.0-139.0\",\"\",\"\",\"1-5\",\"4601\",\"37\",\"1\",\"Training\",\"Stims/Figures/139-C-20-2.bmp\",\"None\",\"Left\",\"37\",\"9\",\"8\",\"10\",\"N\",\"J\",\"136\"
\"\",\"\",\"approach-retreat\",\"140\",\"1196427\",\"0.0-140.0\",\"\",\"\",\"1-5\",\"5182\",\"40\",\"1\",\"Training\",\"Stims/Figures/87-J-10-4.bmp\",\"None\",\"Up\",\"40\",\"9\",\"9\",\"10\",\"N\",\"J\",\"137\"
\"\",\"\",\"approach-retreat\",\"141\",\"1202636\",\"0.0-141.0\",\"\",\"\",\"1-5\",\"4695\",\"39\",\"1\",\"Training\",\"Stims/Figures/111-C-30-3.bmp\",\"None\",\"Right\",\"39\",\"9\",\"10\",\"10\",\"N\",\"J\",\"138\"
\"\",\"\",\"approach-retreat\",\"142\",\"1208657\",\"0.0-142.0\",\"\",\"\",\"1-5\",\"4504\",\"37\",\"0\",\"Training\",\"Stims/Figures/84-C-20-2.bmp\",\"None\",\"Right\",\"39\",\"9\",\"11\",\"10\",\"N\",\"J\",\"139\"
\"\",\"\",\"approach-retreat\",\"143\",\"1215115\",\"0.0-143.0\",\"\",\"\",\"1-5\",\"4943\",\"38\",\"0\",\"Training\",\"Stims/Figures/44-J-10-3.bmp\",\"None\",\"Up\",\"40\",\"9\",\"12\",\"10\",\"N\",\"J\",\"140\"
\"\",\"\",\"approach-retreat\",\"144\",\"1220926\",\"0.0-144.0\",\"\",\"\",\"1-5\",\"4295\",\"38\",\"1\",\"Training\",\"Stims/Figures/27-J-0-1.bmp\",\"None\",\"Down\",\"38\",\"9\",\"13\",\"10\",\"N\",\"J\",\"141\"
\"\",\"\",\"approach-retreat\",\"145\",\"1227770\",\"0.0-145.0\",\"\",\"\",\"1-5\",\"5331\",\"40\",\"1\",\"Training\",\"Stims/Figures/27-C-30-1.bmp\",\"None\",\"Down\",\"40\",\"9\",\"14\",\"10\",\"N\",\"J\",\"142\"
\"\",\"\",\"approach-retreat\",\"146\",\"1233836\",\"0.0-146.0\",\"\",\"\",\"1-5\",\"4547\",\"40\",\"1\",\"Training\",\"Stims/Figures/7-C-20-4.bmp\",\"None\",\"Down\",\"40\",\"9\",\"15\",\"10\",\"N\",\"J\",\"143\"
\"\",\"\",\"approach-retreat\",\"147\",\"1239890\",\"0.0-147.0\",\"\",\"\",\"1-5\",\"4539\",\"37\",\"1\",\"Training\",\"Stims/Figures/44-C-30-3.bmp\",\"None\",\"Left\",\"37\",\"9\",\"16\",\"10\",\"N\",\"J\",\"144\"
\"21511\",\"\",\"instructions\",\"148\",\"1261402\",\"0.0-148.0\",\"[{\"\"page_index\"\":0,\"\"viewing_time\"\":21511}]\",\"\",\"\",\"\",\"\",\"\",\"\",\"\",\"\",\"\",\"\",\"\",\"\",\"\",\"\",\"\",\"\"
\"\",\"\",\"approach-retreat\",\"149\",\"1269095\",\"0.0-149.0\",\"\",\"\",\"1-5\",\"6179\",\"37\",\"1\",\"Testing\",\"Stims/Figures/84-J-0-2.bmp\",\"None\",\"Right\",\"37\",\"1\",\"1\",\"10\",\"N\",\"J\",\"1\"
\"\",\"\",\"approach-retreat\",\"150\",\"1275440\",\"0.0-150.0\",\"\",\"\",\"1-5\",\"4830\",\"37\",\"1\",\"Testing\",\"Stims/Figures/86-J-0-1.bmp\",\"None\",\"Right\",\"37\",\"1\",\"2\",\"10\",\"N\",\"J\",\"2\"
\"\",\"\",\"approach-retreat\",\"151\",\"1282568\",\"0.0-151.0\",\"\",\"\",\"1-5\",\"5609\",\"39\",\"0\",\"Testing\",\"Stims/Figures/44-J-10-3.bmp\",\"None\",\"Right\",\"37\",\"1\",\"3\",\"10\",\"N\",\"J\",\"3\"
\"\",\"\",\"approach-retreat\",\"152\",\"1288821\",\"0.0-152.0\",\"\",\"\",\"1-5\",\"4735\",\"39\",\"0\",\"Testing\",\"Stims/Figures/111-J-10-3.bmp\",\"None\",\"Right\",\"37\",\"1\",\"4\",\"10\",\"N\",\"J\",\"4\"
\"\",\"\",\"approach-retreat\",\"153\",\"1296019\",\"0.0-153.0\",\"\",\"\",\"1-5\",\"5681\",\"38\",\"1\",\"Testing\",\"Stims/Figures/87-J-10-4.bmp\",\"None\",\"Down\",\"38\",\"1\",\"5\",\"10\",\"N\",\"J\",\"5\"
\"\",\"\",\"approach-retreat\",\"154\",\"1302954\",\"0.0-154.0\",\"\",\"\",\"1-5\",\"5418\",\"39\",\"1\",\"Testing\",\"Stims/Figures/27-J-0-1.bmp\",\"None\",\"Left\",\"39\",\"1\",\"6\",\"10\",\"N\",\"J\",\"6\"
\"\",\"\",\"approach-retreat\",\"155\",\"1310894\",\"0.0-155.0\",\"\",\"\",\"1-5\",\"6423\",\"39\",\"0\",\"Testing\",\"Stims/Figures/86-C-30-1.bmp\",\"None\",\"Left\",\"37\",\"1\",\"7\",\"10\",\"N\",\"J\",\"7\"
\"\",\"\",\"approach-retreat\",\"156\",\"1317913\",\"0.0-156.0\",\"\",\"\",\"1-5\",\"5503\",\"37\",\"1\",\"Testing\",\"Stims/Figures/74-C-20-4.bmp\",\"None\",\"Left\",\"37\",\"1\",\"8\",\"10\",\"N\",\"J\",\"8\"
\"\",\"\",\"approach-retreat\",\"157\",\"1325549\",\"0.0-157.0\",\"\",\"\",\"1-5\",\"6118\",\"37\",\"0\",\"Testing\",\"Stims/Figures/71-C-30-1.bmp\",\"None\",\"Right\",\"39\",\"1\",\"9\",\"10\",\"N\",\"J\",\"9\"
\"\",\"\",\"approach-retreat\",\"158\",\"1333319\",\"0.0-158.0\",\"\",\"\",\"1-5\",\"6254\",\"37\",\"1\",\"Testing\",\"Stims/Figures/94-C-20-2.bmp\",\"None\",\"Left\",\"37\",\"1\",\"10\",\"10\",\"N\",\"J\",\"10\"
\"\",\"\",\"approach-retreat\",\"159\",\"1341101\",\"0.0-159.0\",\"\",\"\",\"1-5\",\"6260\",\"37\",\"0\",\"Testing\",\"Stims/Figures/139-C-20-2.bmp\",\"None\",\"Right\",\"39\",\"1\",\"11\",\"10\",\"N\",\"J\",\"11\"
\"\",\"\",\"approach-retreat\",\"160\",\"1348473\",\"0.0-160.0\",\"\",\"\",\"1-5\",\"5858\",\"38\",\"0\",\"Testing\",\"Stims/Figures/87-C-20-4.bmp\",\"None\",\"Down\",\"40\",\"1\",\"12\",\"10\",\"N\",\"J\",\"12\"
\"\",\"\",\"approach-retreat\",\"161\",\"1356939\",\"0.0-161.0\",\"\",\"\",\"1-5\",\"6951\",\"39\",\"0\",\"Testing\",\"Stims/Figures/100-C-30-3.bmp\",\"None\",\"Left\",\"37\",\"1\",\"13\",\"10\",\"N\",\"J\",\"13\"
\"\",\"\",\"approach-retreat\",\"162\",\"1364173\",\"0.0-162.0\",\"\",\"\",\"1-5\",\"5721\",\"38\",\"0\",\"Testing\",\"Stims/Figures/27-C-30-1.bmp\",\"None\",\"Down\",\"40\",\"1\",\"14\",\"10\",\"N\",\"J\",\"14\"
\"\",\"\",\"approach-retreat\",\"163\",\"1370750\",\"0.0-163.0\",\"\",\"\",\"1-5\",\"5061\",\"40\",\"0\",\"Testing\",\"Stims/Figures/84-C-20-2.bmp\",\"None\",\"Up\",\"38\",\"1\",\"15\",\"10\",\"N\",\"J\",\"15\"
\"\",\"\",\"approach-retreat\",\"164\",\"1376821\",\"0.0-164.0\",\"\",\"\",\"1-5\",\"4557\",\"40\",\"1\",\"Testing\",\"Stims/Figures/71-J-0-1.bmp\",\"None\",\"Up\",\"40\",\"1\",\"16\",\"10\",\"N\",\"J\",\"16\"
\"\",\"\",\"approach-retreat\",\"165\",\"1384221\",\"0.0-165.0\",\"\",\"\",\"1-5\",\"5884\",\"38\",\"0\",\"Testing\",\"Stims/Figures/7-C-20-4.bmp\",\"None\",\"Down\",\"40\",\"1\",\"17\",\"10\",\"N\",\"J\",\"17\"
\"\",\"\",\"approach-retreat\",\"166\",\"1390164\",\"0.0-166.0\",\"\",\"\",\"1-5\",\"4426\",\"38\",\"1\",\"Testing\",\"Stims/Figures/7-J-10-4.bmp\",\"None\",\"Down\",\"38\",\"1\",\"18\",\"10\",\"N\",\"J\",\"18\"
\"\",\"\",\"approach-retreat\",\"167\",\"1396918\",\"0.0-167.0\",\"\",\"\",\"1-5\",\"5237\",\"38\",\"0\",\"Testing\",\"Stims/Figures/100-J-10-3.bmp\",\"None\",\"Up\",\"40\",\"1\",\"19\",\"10\",\"N\",\"J\",\"19\"
\"\",\"\",\"approach-retreat\",\"168\",\"1404147\",\"0.0-168.0\",\"\",\"\",\"1-5\",\"5715\",\"38\",\"1\",\"Testing\",\"Stims/Figures/44-C-30-3.bmp\",\"None\",\"Up\",\"38\",\"1\",\"20\",\"10\",\"N\",\"J\",\"20\"
\"\",\"\",\"approach-retreat\",\"169\",\"1411989\",\"0.0-169.0\",\"\",\"\",\"1-5\",\"6328\",\"37\",\"0\",\"Testing\",\"Stims/Figures/94-J-0-2.bmp\",\"None\",\"Left\",\"39\",\"1\",\"21\",\"10\",\"N\",\"J\",\"21\"
\"\",\"\",\"approach-retreat\",\"170\",\"1422014\",\"0.0-170.0\",\"\",\"\",\"1-5\",\"8511\",\"40\",\"0\",\"Testing\",\"Stims/Figures/139-J-0-2.bmp\",\"None\",\"Down\",\"38\",\"1\",\"22\",\"10\",\"N\",\"J\",\"22\"
\"\",\"\",\"approach-retreat\",\"171\",\"1428978\",\"0.0-171.0\",\"\",\"\",\"1-5\",\"5445\",\"40\",\"1\",\"Testing\",\"Stims/Figures/74-J-10-4.bmp\",\"None\",\"Up\",\"40\",\"1\",\"23\",\"10\",\"N\",\"J\",\"23\"
\"\",\"\",\"approach-retreat\",\"172\",\"1437072\",\"0.0-172.0\",\"\",\"\",\"1-5\",\"6578\",\"38\",\"1\",\"Testing\",\"Stims/Figures/111-C-30-3.bmp\",\"None\",\"Up\",\"38\",\"1\",\"24\",\"10\",\"N\",\"J\",\"24\"
\"\",\"\",\"approach-retreat\",\"173\",\"1449770\",\"0.0-173.0\",\"\",\"\",\"1-5\",\"11180\",\"39\",\"0\",\"Testing\",\"Stims/Figures/71-C-30-1.bmp\",\"None\",\"Left\",\"37\",\"2\",\"1\",\"10\",\"N\",\"J\",\"25\"
\"\",\"\",\"approach-retreat\",\"174\",\"1456824\",\"0.0-174.0\",\"\",\"\",\"1-5\",\"5540\",\"40\",\"0\",\"Testing\",\"Stims/Figures/74-J-10-4.bmp\",\"None\",\"Down\",\"38\",\"2\",\"2\",\"10\",\"N\",\"J\",\"26\"
\"\",\"\",\"approach-retreat\",\"175\",\"1462967\",\"0.0-175.0\",\"\",\"\",\"1-5\",\"4630\",\"39\",\"1\",\"Testing\",\"Stims/Figures/7-J-10-4.bmp\",\"None\",\"Left\",\"39\",\"2\",\"3\",\"10\",\"N\",\"J\",\"27\"
\"\",\"\",\"approach-retreat\",\"176\",\"1469904\",\"0.0-176.0\",\"\",\"\",\"1-5\",\"5423\",\"40\",\"0\",\"Testing\",\"Stims/Figures/94-C-20-2.bmp\",\"None\",\"Up\",\"38\",\"2\",\"4\",\"10\",\"N\",\"J\",\"28\"
\"\",\"\",\"approach-retreat\",\"177\",\"1476017\",\"0.0-177.0\",\"\",\"\",\"1-5\",\"4598\",\"40\",\"1\",\"Testing\",\"Stims/Figures/100-J-10-3.bmp\",\"None\",\"Up\",\"40\",\"2\",\"5\",\"10\",\"N\",\"J\",\"29\"
\"\",\"\",\"approach-retreat\",\"178\",\"1482712\",\"0.0-178.0\",\"\",\"\",\"1-5\",\"5177\",\"39\",\"0\",\"Testing\",\"Stims/Figures/94-J-0-2.bmp\",\"None\",\"Right\",\"37\",\"2\",\"6\",\"10\",\"N\",\"J\",\"30\"
\"\",\"\",\"approach-retreat\",\"179\",\"1490248\",\"0.0-179.0\",\"\",\"\",\"1-5\",\"6020\",\"39\",\"1\",\"Testing\",\"Stims/Figures/87-J-10-4.bmp\",\"None\",\"Left\",\"39\",\"2\",\"7\",\"10\",\"N\",\"J\",\"31\"
\"\",\"\",\"approach-retreat\",\"180\",\"1508252\",\"0.0-180.0\",\"\",\"\",\"1-5\",\"16493\",\"40\",\"0\",\"Testing\",\"Stims/Figures/84-C-20-2.bmp\",\"None\",\"Up\",\"38\",\"2\",\"8\",\"10\",\"N\",\"J\",\"32\"
\"\",\"\",\"approach-retreat\",\"181\",\"1517816\",\"0.0-181.0\",\"\",\"\",\"1-5\",\"8050\",\"38\",\"0\",\"Testing\",\"Stims/Figures/74-C-20-4.bmp\",\"None\",\"Down\",\"40\",\"2\",\"9\",\"10\",\"N\",\"J\",\"33\"
\"\",\"\",\"approach-retreat\",\"182\",\"1526547\",\"0.0-182.0\",\"\",\"\",\"1-5\",\"7212\",\"40\",\"1\",\"Testing\",\"Stims/Figures/100-C-30-3.bmp\",\"None\",\"Down\",\"40\",\"2\",\"10\",\"10\",\"N\",\"J\",\"34\"
\"\",\"\",\"approach-retreat\",\"183\",\"1533154\",\"0.0-183.0\",\"\",\"\",\"1-5\",\"5091\",\"40\",\"1\",\"Testing\",\"Stims/Figures/27-J-0-1.bmp\",\"None\",\"Up\",\"40\",\"2\",\"11\",\"10\",\"N\",\"J\",\"35\"
\"\",\"\",\"approach-retreat\",\"184\",\"1539564\",\"0.0-184.0\",\"\",\"\",\"1-5\",\"4889\",\"37\",\"0\",\"Testing\",\"Stims/Figures/111-J-10-3.bmp\",\"None\",\"Left\",\"39\",\"2\",\"12\",\"10\",\"N\",\"J\",\"36\"
\"\",\"\",\"approach-retreat\",\"185\",\"1546077\",\"0.0-185.0\",\"\",\"\",\"1-5\",\"4996\",\"39\",\"1\",\"Testing\",\"Stims/Figures/111-C-30-3.bmp\",\"None\",\"Right\",\"39\",\"2\",\"13\",\"10\",\"N\",\"J\",\"37\"
\"\",\"\",\"approach-retreat\",\"186\",\"1553883\",\"0.0-186.0\",\"\",\"\",\"1-5\",\"6290\",\"37\",\"0\",\"Testing\",\"Stims/Figures/7-C-20-4.bmp\",\"None\",\"Right\",\"39\",\"2\",\"14\",\"10\",\"N\",\"J\",\"38\"
\"\",\"\",\"approach-retreat\",\"187\",\"1560692\",\"0.0-187.0\",\"\",\"\",\"1-5\",\"5291\",\"37\",\"1\",\"Testing\",\"Stims/Figures/84-J-0-2.bmp\",\"None\",\"Right\",\"37\",\"2\",\"15\",\"10\",\"N\",\"J\",\"39\"
\"\",\"\",\"approach-retreat\",\"188\",\"1567198\",\"0.0-188.0\",\"\",\"\",\"1-5\",\"4992\",\"38\",\"1\",\"Testing\",\"Stims/Figures/86-J-0-1.bmp\",\"None\",\"Down\",\"38\",\"2\",\"16\",\"10\",\"N\",\"J\",\"40\"
\"\",\"\",\"approach-retreat\",\"189\",\"1573390\",\"0.0-189.0\",\"\",\"\",\"1-5\",\"4677\",\"39\",\"1\",\"Testing\",\"Stims/Figures/44-C-30-3.bmp\",\"None\",\"Right\",\"39\",\"2\",\"17\",\"10\",\"N\",\"J\",\"41\"
\"\",\"\",\"approach-retreat\",\"190\",\"1580992\",\"0.0-190.0\",\"\",\"\",\"1-5\",\"6082\",\"39\",\"0\",\"Testing\",\"Stims/Figures/139-C-20-2.bmp\",\"None\",\"Left\",\"37\",\"2\",\"18\",\"10\",\"N\",\"J\",\"42\"
\"\",\"\",\"approach-retreat\",\"191\",\"1595374\",\"0.0-191.0\",\"\",\"\",\"1-5\",\"12864\",\"39\",\"0\",\"Testing\",\"Stims/Figures/87-C-20-4.bmp\",\"None\",\"Left\",\"37\",\"2\",\"19\",\"10\",\"N\",\"J\",\"43\"
\"\",\"\",\"approach-retreat\",\"192\",\"1607153\",\"0.0-192.0\",\"\",\"\",\"1-5\",\"10266\",\"40\",\"0\",\"Testing\",\"Stims/Figures/27-C-30-1.bmp\",\"None\",\"Up\",\"38\",\"2\",\"20\",\"10\",\"N\",\"J\",\"44\"
\"\",\"\",\"approach-retreat\",\"193\",\"1613197\",\"0.0-193.0\",\"\",\"\",\"1-5\",\"4530\",\"40\",\"0\",\"Testing\",\"Stims/Figures/71-J-0-1.bmp\",\"None\",\"Down\",\"38\",\"2\",\"21\",\"10\",\"N\",\"J\",\"45\"
\"\",\"\",\"approach-retreat\",\"194\",\"1622180\",\"0.0-194.0\",\"\",\"\",\"1-5\",\"7468\",\"37\",\"0\",\"Testing\",\"Stims/Figures/86-C-30-1.bmp\",\"None\",\"Right\",\"39\",\"2\",\"22\",\"10\",\"N\",\"J\",\"46\"
\"\",\"\",\"approach-retreat\",\"195\",\"1633887\",\"0.0-195.0\",\"\",\"\",\"1-5\",\"10192\",\"38\",\"1\",\"Testing\",\"Stims/Figures/139-J-0-2.bmp\",\"None\",\"Down\",\"38\",\"2\",\"23\",\"10\",\"N\",\"J\",\"47\"
\"\",\"\",\"approach-retreat\",\"196\",\"1642482\",\"0.0-196.0\",\"\",\"\",\"1-5\",\"7081\",\"38\",\"0\",\"Testing\",\"Stims/Figures/44-J-10-3.bmp\",\"None\",\"Up\",\"40\",\"2\",\"24\",\"10\",\"N\",\"J\",\"48\"
\"\",\"\",\"approach-retreat\",\"197\",\"1653276\",\"0.0-197.0\",\"\",\"\",\"1-5\",\"9279\",\"39\",\"0\",\"Testing\",\"Stims/Figures/139-J-0-2.bmp\",\"None\",\"Right\",\"37\",\"3\",\"1\",\"10\",\"N\",\"J\",\"49\"
\"\",\"\",\"approach-retreat\",\"198\",\"1659047\",\"0.0-198.0\",\"\",\"\",\"1-5\",\"4254\",\"39\",\"0\",\"Testing\",\"Stims/Figures/84-C-20-2.bmp\",\"None\",\"Left\",\"37\",\"3\",\"2\",\"10\",\"N\",\"J\",\"50\"
\"\",\"\",\"approach-retreat\",\"199\",\"1665273\",\"0.0-199.0\",\"\",\"\",\"1-5\",\"4711\",\"39\",\"1\",\"Testing\",\"Stims/Figures/94-C-20-2.bmp\",\"None\",\"Right\",\"39\",\"3\",\"3\",\"10\",\"N\",\"J\",\"51\"
\"\",\"\",\"approach-retreat\",\"200\",\"1671408\",\"0.0-200.0\",\"\",\"\",\"1-5\",\"4620\",\"40\",\"0\",\"Testing\",\"Stims/Figures/74-C-20-4.bmp\",\"None\",\"Up\",\"38\",\"3\",\"4\",\"10\",\"N\",\"J\",\"52\"
\"\",\"\",\"approach-retreat\",\"201\",\"1681472\",\"0.0-201.0\",\"\",\"\",\"1-5\",\"8549\",\"39\",\"0\",\"Testing\",\"Stims/Figures/86-C-30-1.bmp\",\"None\",\"Left\",\"37\",\"3\",\"5\",\"10\",\"N\",\"J\",\"53\"
\"\",\"\",\"approach-retreat\",\"202\",\"1695817\",\"0.0-202.0\",\"\",\"\",\"1-5\",\"12828\",\"40\",\"0\",\"Testing\",\"Stims/Figures/86-J-0-1.bmp\",\"None\",\"Down\",\"38\",\"3\",\"6\",\"10\",\"N\",\"J\",\"54\"
\"\",\"\",\"approach-retreat\",\"203\",\"1704245\",\"0.0-203.0\",\"\",\"\",\"1-5\",\"6913\",\"38\",\"0\",\"Testing\",\"Stims/Figures/7-J-10-4.bmp\",\"None\",\"Up\",\"40\",\"3\",\"7\",\"10\",\"N\",\"J\",\"55\"
\"\",\"\",\"approach-retreat\",\"204\",\"1710726\",\"0.0-204.0\",\"\",\"\",\"1-5\",\"4964\",\"37\",\"1\",\"Testing\",\"Stims/Figures/84-J-0-2.bmp\",\"None\",\"Right\",\"37\",\"3\",\"8\",\"10\",\"N\",\"J\",\"56\"
\"\",\"\",\"approach-retreat\",\"205\",\"1717846\",\"0.0-205.0\",\"\",\"\",\"1-5\",\"5603\",\"37\",\"0\",\"Testing\",\"Stims/Figures/94-J-0-2.bmp\",\"None\",\"Left\",\"39\",\"3\",\"9\",\"10\",\"N\",\"J\",\"57\"
\"\",\"\",\"approach-retreat\",\"206\",\"1725739\",\"0.0-206.0\",\"\",\"\",\"1-5\",\"6377\",\"39\",\"0\",\"Testing\",\"Stims/Figures/27-J-0-1.bmp\",\"None\",\"Right\",\"37\",\"3\",\"10\",\"10\",\"N\",\"J\",\"58\"
\"\",\"\",\"approach-retreat\",\"207\",\"1732035\",\"0.0-207.0\",\"\",\"\",\"1-5\",\"4780\",\"39\",\"0\",\"Testing\",\"Stims/Figures/111-J-10-3.bmp\",\"None\",\"Right\",\"37\",\"3\",\"11\",\"10\",\"N\",\"J\",\"59\"
\"\",\"\",\"approach-retreat\",\"208\",\"1739461\",\"0.0-208.0\",\"\",\"\",\"1-5\",\"5910\",\"39\",\"1\",\"Testing\",\"Stims/Figures/100-J-10-3.bmp\",\"None\",\"Left\",\"39\",\"3\",\"12\",\"10\",\"N\",\"J\",\"60\"
\"\",\"\",\"approach-retreat\",\"209\",\"1748892\",\"0.0-209.0\",\"\",\"\",\"1-5\",\"7915\",\"40\",\"1\",\"Testing\",\"Stims/Figures/27-C-30-1.bmp\",\"None\",\"Down\",\"40\",\"3\",\"13\",\"10\",\"N\",\"J\",\"61\"
\"\",\"\",\"approach-retreat\",\"210\",\"1756819\",\"0.0-210.0\",\"\",\"\",\"1-5\",\"6413\",\"38\",\"0\",\"Testing\",\"Stims/Figures/100-C-30-3.bmp\",\"None\",\"Down\",\"40\",\"3\",\"14\",\"10\",\"N\",\"J\",\"62\"
\"\",\"\",\"approach-retreat\",\"211\",\"1764687\",\"0.0-211.0\",\"\",\"\",\"1-5\",\"6354\",\"38\",\"1\",\"Testing\",\"Stims/Figures/44-C-30-3.bmp\",\"None\",\"Up\",\"38\",\"3\",\"15\",\"10\",\"N\",\"J\",\"63\"
\"\",\"\",\"approach-retreat\",\"212\",\"1771901\",\"0.0-212.0\",\"\",\"\",\"1-5\",\"5698\",\"37\",\"0\",\"Testing\",\"Stims/Figures/87-J-10-4.bmp\",\"None\",\"Left\",\"39\",\"3\",\"16\",\"10\",\"N\",\"J\",\"64\"
\"\",\"\",\"approach-retreat\",\"213\",\"1778306\",\"0.0-213.0\",\"\",\"\",\"1-5\",\"4888\",\"38\",\"1\",\"Testing\",\"Stims/Figures/111-C-30-3.bmp\",\"None\",\"Up\",\"38\",\"3\",\"17\",\"10\",\"N\",\"J\",\"65\"
\"\",\"\",\"approach-retreat\",\"214\",\"1793313\",\"0.0-214.0\",\"\",\"\",\"1-5\",\"13491\",\"39\",\"1\",\"Testing\",\"Stims/Figures/139-C-20-2.bmp\",\"None\",\"Right\",\"39\",\"3\",\"18\",\"10\",\"N\",\"J\",\"66\"
\"\",\"\",\"approach-retreat\",\"215\",\"1800042\",\"0.0-215.0\",\"\",\"\",\"1-5\",\"5214\",\"40\",\"0\",\"Testing\",\"Stims/Figures/71-C-30-1.bmp\",\"None\",\"Up\",\"38\",\"3\",\"19\",\"10\",\"N\",\"J\",\"67\"
\"\",\"\",\"approach-retreat\",\"216\",\"1808131\",\"0.0-216.0\",\"\",\"\",\"1-5\",\"6573\",\"40\",\"1\",\"Testing\",\"Stims/Figures/74-J-10-4.bmp\",\"None\",\"Up\",\"40\",\"3\",\"20\",\"10\",\"N\",\"J\",\"68\"
\"\",\"\",\"approach-retreat\",\"217\",\"1817401\",\"0.0-217.0\",\"\",\"\",\"1-5\",\"7752\",\"38\",\"1\",\"Testing\",\"Stims/Figures/71-J-0-1.bmp\",\"None\",\"Down\",\"38\",\"3\",\"21\",\"10\",\"N\",\"J\",\"69\"
\"\",\"\",\"approach-retreat\",\"218\",\"1823954\",\"0.0-218.0\",\"\",\"\",\"1-5\",\"5040\",\"40\",\"0\",\"Testing\",\"Stims/Figures/44-J-10-3.bmp\",\"None\",\"Down\",\"38\",\"3\",\"22\",\"10\",\"N\",\"J\",\"70\"
\"\",\"\",\"approach-retreat\",\"219\",\"1829774\",\"0.0-219.0\",\"\",\"\",\"1-5\",\"4303\",\"38\",\"0\",\"Testing\",\"Stims/Figures/7-C-20-4.bmp\",\"None\",\"Down\",\"40\",\"3\",\"23\",\"10\",\"N\",\"J\",\"71\"
\"\",\"\",\"approach-retreat\",\"220\",\"1837374\",\"0.0-220.0\",\"\",\"\",\"1-5\",\"6083\",\"37\",\"1\",\"Testing\",\"Stims/Figures/87-C-20-4.bmp\",\"None\",\"Left\",\"37\",\"3\",\"24\",\"10\",\"N\",\"J\",\"72\"
\"\",\"\",\"approach-retreat\",\"221\",\"1843312\",\"0.0-221.0\",\"\",\"\",\"1-5\",\"4422\",\"37\",\"1\",\"Testing\",\"Stims/Figures/74-J-10-4.bmp\",\"None\",\"Right\",\"37\",\"4\",\"1\",\"10\",\"N\",\"J\",\"73\"
\"\",\"\",\"approach-retreat\",\"222\",\"1849171\",\"0.0-222.0\",\"\",\"\",\"1-5\",\"4342\",\"39\",\"0\",\"Testing\",\"Stims/Figures/27-J-0-1.bmp\",\"None\",\"Right\",\"37\",\"4\",\"2\",\"10\",\"N\",\"J\",\"74\"
\"\",\"\",\"approach-retreat\",\"223\",\"1859258\",\"0.0-223.0\",\"\",\"\",\"1-5\",\"8571\",\"40\",\"0\",\"Testing\",\"Stims/Figures/7-J-10-4.bmp\",\"None\",\"Down\",\"38\",\"4\",\"3\",\"10\",\"N\",\"J\",\"75\"
\"\",\"\",\"approach-retreat\",\"224\",\"1865045\",\"0.0-224.0\",\"\",\"\",\"1-5\",\"4273\",\"37\",\"0\",\"Testing\",\"Stims/Figures/71-J-0-1.bmp\",\"None\",\"Left\",\"39\",\"4\",\"4\",\"10\",\"N\",\"J\",\"76\"
\"\",\"\",\"approach-retreat\",\"225\",\"1870951\",\"0.0-225.0\",\"\",\"\",\"1-5\",\"4391\",\"38\",\"0\",\"Testing\",\"Stims/Figures/74-C-20-4.bmp\",\"None\",\"Down\",\"40\",\"4\",\"5\",\"10\",\"N\",\"J\",\"77\"
\"\",\"\",\"approach-retreat\",\"226\",\"1877305\",\"0.0-226.0\",\"\",\"\",\"1-5\",\"4842\",\"39\",\"0\",\"Testing\",\"Stims/Figures/7-C-20-4.bmp\",\"None\",\"Left\",\"37\",\"4\",\"6\",\"10\",\"N\",\"J\",\"78\"
\"\",\"\",\"approach-retreat\",\"227\",\"1883229\",\"0.0-227.0\",\"\",\"\",\"1-5\",\"4410\",\"40\",\"0\",\"Testing\",\"Stims/Figures/139-C-20-2.bmp\",\"None\",\"Up\",\"38\",\"4\",\"7\",\"10\",\"N\",\"J\",\"79\"
\"\",\"\",\"approach-retreat\",\"228\",\"1888905\",\"0.0-228.0\",\"\",\"\",\"1-5\",\"4164\",\"38\",\"0\",\"Testing\",\"Stims/Figures/94-J-0-2.bmp\",\"None\",\"Up\",\"40\",\"4\",\"8\",\"10\",\"N\",\"J\",\"80\"
\"\",\"\",\"approach-retreat\",\"229\",\"1895231\",\"0.0-229.0\",\"\",\"\",\"1-5\",\"4811\",\"39\",\"1\",\"Testing\",\"Stims/Figures/139-J-0-2.bmp\",\"None\",\"Left\",\"39\",\"4\",\"9\",\"10\",\"N\",\"J\",\"81\"
\"\",\"\",\"approach-retreat\",\"230\",\"1901801\",\"0.0-230.0\",\"\",\"\",\"1-5\",\"5050\",\"39\",\"1\",\"Testing\",\"Stims/Figures/87-J-10-4.bmp\",\"None\",\"Left\",\"39\",\"4\",\"10\",\"10\",\"N\",\"J\",\"82\"
\"\",\"\",\"approach-retreat\",\"231\",\"1908439\",\"0.0-231.0\",\"\",\"\",\"1-5\",\"5123\",\"40\",\"1\",\"Testing\",\"Stims/Figures/86-C-30-1.bmp\",\"None\",\"Down\",\"40\",\"4\",\"11\",\"10\",\"N\",\"J\",\"83\"
\"\",\"\",\"approach-retreat\",\"232\",\"1915109\",\"0.0-232.0\",\"\",\"\",\"1-5\",\"5155\",\"37\",\"0\",\"Testing\",\"Stims/Figures/44-J-10-3.bmp\",\"None\",\"Left\",\"39\",\"4\",\"12\",\"10\",\"N\",\"J\",\"84\"
\"\",\"\",\"approach-retreat\",\"233\",\"1921678\",\"0.0-233.0\",\"\",\"\",\"1-5\",\"5053\",\"37\",\"1\",\"Testing\",\"Stims/Figures/94-C-20-2.bmp\",\"None\",\"Left\",\"37\",\"4\",\"13\",\"10\",\"N\",\"J\",\"85\"
\"\",\"\",\"approach-retreat\",\"234\",\"1928935\",\"0.0-234.0\",\"\",\"\",\"1-5\",\"5742\",\"37\",\"1\",\"Testing\",\"Stims/Figures/111-J-10-3.bmp\",\"None\",\"Right\",\"37\",\"4\",\"14\",\"10\",\"N\",\"J\",\"86\"
\"\",\"\",\"approach-retreat\",\"235\",\"1935825\",\"0.0-235.0\",\"\",\"\",\"1-5\",\"5373\",\"38\",\"1\",\"Testing\",\"Stims/Figures/27-C-30-1.bmp\",\"None\",\"Up\",\"38\",\"4\",\"15\",\"10\",\"N\",\"J\",\"87\"
\"\",\"\",\"approach-retreat\",\"236\",\"1942213\",\"0.0-236.0\",\"\",\"\",\"1-5\",\"4873\",\"40\",\"0\",\"Testing\",\"Stims/Figures/71-C-30-1.bmp\",\"None\",\"Up\",\"38\",\"4\",\"16\",\"10\",\"N\",\"J\",\"88\"
\"\",\"\",\"approach-retreat\",\"237\",\"1948782\",\"0.0-237.0\",\"\",\"\",\"1-5\",\"5053\",\"37\",\"1\",\"Testing\",\"Stims/Figures/86-J-0-1.bmp\",\"None\",\"Right\",\"37\",\"4\",\"17\",\"10\",\"N\",\"J\",\"89\"
\"\",\"\",\"approach-retreat\",\"238\",\"1954798\",\"0.0-238.0\",\"\",\"\",\"1-5\",\"4502\",\"38\",\"0\",\"Testing\",\"Stims/Figures/87-C-20-4.bmp\",\"None\",\"Down\",\"40\",\"4\",\"18\",\"10\",\"N\",\"J\",\"90\"
\"\",\"\",\"approach-retreat\",\"239\",\"1962273\",\"0.0-239.0\",\"\",\"\",\"1-5\",\"5961\",\"40\",\"1\",\"Testing\",\"Stims/Figures/44-C-30-3.bmp\",\"None\",\"Down\",\"40\",\"4\",\"19\",\"10\",\"N\",\"J\",\"91\"
\"\",\"\",\"approach-retreat\",\"240\",\"1972413\",\"0.0-240.0\",\"\",\"\",\"1-5\",\"8628\",\"40\",\"1\",\"Testing\",\"Stims/Figures/111-C-30-3.bmp\",\"None\",\"Down\",\"40\",\"4\",\"20\",\"10\",\"N\",\"J\",\"92\"
\"\",\"\",\"approach-retreat\",\"241\",\"1978558\",\"0.0-241.0\",\"\",\"\",\"1-5\",\"4628\",\"37\",\"1\",\"Testing\",\"Stims/Figures/100-J-10-3.bmp\",\"None\",\"Right\",\"37\",\"4\",\"21\",\"10\",\"N\",\"J\",\"93\"
\"\",\"\",\"approach-retreat\",\"242\",\"1984873\",\"0.0-242.0\",\"\",\"\",\"1-5\",\"4800\",\"40\",\"0\",\"Testing\",\"Stims/Figures/100-C-30-3.bmp\",\"None\",\"Up\",\"38\",\"4\",\"22\",\"10\",\"N\",\"J\",\"94\"
\"\",\"\",\"approach-retreat\",\"243\",\"1990522\",\"0.0-243.0\",\"\",\"\",\"1-5\",\"4135\",\"37\",\"0\",\"Testing\",\"Stims/Figures/84-C-20-2.bmp\",\"None\",\"Right\",\"39\",\"4\",\"23\",\"10\",\"N\",\"J\",\"95\"
\"\",\"\",\"approach-retreat\",\"244\",\"1996462\",\"0.0-244.0\",\"\",\"\",\"1-5\",\"4423\",\"40\",\"1\",\"Testing\",\"Stims/Figures/84-J-0-2.bmp\",\"None\",\"Up\",\"40\",\"4\",\"24\",\"10\",\"N\",\"J\",\"96\"
\"38415\",\"\",\"survey-text\",\"245\",\"2034888\",\"0.0-245.0\",\"\",\"{\"\"Q0\"\":\"\"1436/17\"\"}\",\"\",\"\",\"\",\"\",\"\",\"\",\"\",\"\",\"\",\"\",\"\",\"\",\"\",\"\",\"\"
