\"rt\",\"key_press\",\"trial_type\",\"trial_index\",\"time_elapsed\",\"internal_node_id\",\"view_history\",\"responses\",\"Id\",\"Rt\",\"ResKeyCode\",\"ResCorr\",\"TrialType2\",\"Image\",\"Label\",\"Location\",\"CorrectResponse\",\"Block\",\"BlockTrial\",\"Condition\",\"LabelType\",\"Subcondition\",\"trialNum\"
\"32880\",\"32\",\"text\",\"0\",\"32884\",\"0.0-0.0-0.0\",\"\",\"\",\"\",\"\",\"\",\"\",\"\",\"\",\"\",\"\",\"\",\"\",\"\",\"\",\"\",\"\",\"\"
\"73102\",\"\",\"instructions\",\"1\",\"105987\",\"0.0-1.0\",\"[{\"\"page_index\"\":0,\"\"viewing_time\"\":73102}]\",\"\",\"\",\"\",\"\",\"\",\"\",\"\",\"\",\"\",\"\",\"\",\"\",\"\",\"\",\"\",\"\"
\"13822\",\"\",\"survey-multi-choice\",\"2\",\"119848\",\"0.0-2.0\",\"\",\"{\"\"Q0\"\":\"\"Da\"\",\"\"Q1\"\":\"\"Da\"\",\"\"Q2\"\":\"\"Da\"\",\"\"Q3\"\":\"\"Da\"\",\"\"Q4\"\":\"\"Da\"\",\"\"Q5\"\":\"\"Da\"\"}\",\"\",\"\",\"\",\"\",\"\",\"\",\"\",\"\",\"\",\"\",\"\",\"\",\"\",\"\",\"\"
\"\",\"\",\"bio\",\"3\",\"127217\",\"0.0-3.0\",\"\",\"{\"\"age\"\":\"\"21\"\",\"\"gender\"\":\"\"f\"\",\"\"specify\"\":\"\"\"\"}\",\"\",\"\",\"\",\"\",\"\",\"\",\"\",\"\",\"\",\"\",\"\",\"\",\"\",\"\",\"\"
\"\",\"\",\"approach-retreat\",\"4\",\"135803\",\"0.0-4.0\",\"\",\"\",\"3-1\",\"7073\",\"39\",\"0\",\"Training\",\"Stims/Figures/118-J-0-2.bmp\",\"namala\",\"Left\",\"37\",\"1\",\"1\",\"9\",\"S\",\"C\",\"1\"
\"\",\"\",\"approach-retreat\",\"5\",\"142337\",\"0.0-5.0\",\"\",\"\",\"3-1\",\"5026\",\"40\",\"0\",\"Training\",\"Stims/Figures/102-J-10-4.bmp\",\"pa:pata\",\"Up\",\"38\",\"1\",\"2\",\"9\",\"P\",\"C\",\"2\"
\"\",\"\",\"approach-retreat\",\"6\",\"147924\",\"0.0-6.0\",\"\",\"\",\"3-1\",\"4079\",\"39\",\"1\",\"Training\",\"Stims/Figures/128-C-30-3.bmp\",\"pa:ka:ka\",\"Left\",\"39\",\"1\",\"3\",\"9\",\"P\",\"C\",\"3\"
\"\",\"\",\"approach-retreat\",\"7\",\"154264\",\"0.0-7.0\",\"\",\"\",\"3-1\",\"4831\",\"37\",\"0\",\"Training\",\"Stims/Figures/128-J-10-3.bmp\",\"ta:kaka\",\"Right\",\"39\",\"1\",\"4\",\"9\",\"P\",\"C\",\"4\"
\"\",\"\",\"approach-retreat\",\"8\",\"160087\",\"0.0-8.0\",\"\",\"\",\"3-1\",\"4315\",\"38\",\"1\",\"Training\",\"Stims/Figures/71-J-0-1.bmp\",\"ta:pata\",\"Up\",\"38\",\"1\",\"5\",\"9\",\"P\",\"C\",\"5\"
\"\",\"\",\"approach-retreat\",\"9\",\"166252\",\"0.0-9.0\",\"\",\"\",\"3-1\",\"4659\",\"40\",\"0\",\"Training\",\"Stims/Figures/102-C-20-4.bmp\",\"za:haza\",\"Down\",\"38\",\"1\",\"6\",\"9\",\"C2\",\"C\",\"6\"
\"\",\"\",\"approach-retreat\",\"10\",\"172275\",\"0.0-10.0\",\"\",\"\",\"3-1\",\"4514\",\"39\",\"0\",\"Training\",\"Stims/Figures/27-J-0-1.bmp\",\"fafava\",\"Left\",\"37\",\"1\",\"7\",\"9\",\"C1\",\"C\",\"7\"
\"\",\"\",\"approach-retreat\",\"11\",\"178457\",\"0.0-11.0\",\"\",\"\",\"3-1\",\"4675\",\"38\",\"1\",\"Training\",\"Stims/Figures/71-C-30-1.bmp\",\"sasaha\",\"Down\",\"38\",\"1\",\"8\",\"9\",\"C2\",\"C\",\"8\"
\"\",\"\",\"approach-retreat\",\"12\",\"184530\",\"0.0-12.0\",\"\",\"\",\"3-1\",\"4565\",\"39\",\"1\",\"Training\",\"Stims/Figures/118-C-20-2.bmp\",\"nalala\",\"Left\",\"39\",\"1\",\"9\",\"9\",\"S\",\"C\",\"9\"
\"\",\"\",\"approach-retreat\",\"13\",\"190913\",\"0.0-13.0\",\"\",\"\",\"3-1\",\"4878\",\"38\",\"0\",\"Training\",\"Stims/Figures/111-J-10-3.bmp\",\"tapa:ka\",\"Down\",\"40\",\"1\",\"10\",\"9\",\"P\",\"C\",\"10\"
\"\",\"\",\"approach-retreat\",\"14\",\"196780\",\"0.0-14.0\",\"\",\"\",\"3-1\",\"4359\",\"37\",\"1\",\"Training\",\"Stims/Figures/111-C-30-3.bmp\",\"paka:ta\",\"Right\",\"37\",\"1\",\"11\",\"9\",\"P\",\"C\",\"11\"
\"\",\"\",\"approach-retreat\",\"15\",\"202426\",\"0.0-15.0\",\"\",\"\",\"3-1\",\"4140\",\"40\",\"1\",\"Training\",\"Stims/Figures/84-C-20-2.bmp\",\"sa:sa:ha\",\"Up\",\"40\",\"1\",\"12\",\"9\",\"C2\",\"C\",\"12\"
\"\",\"\",\"approach-retreat\",\"16\",\"208267\",\"0.0-16.0\",\"\",\"\",\"3-1\",\"4331\",\"37\",\"1\",\"Training\",\"Stims/Figures/27-C-30-1.bmp\",\"mamala\",\"Right\",\"37\",\"1\",\"13\",\"9\",\"S\",\"C\",\"13\"
\"\",\"\",\"approach-retreat\",\"17\",\"213960\",\"0.0-17.0\",\"\",\"\",\"3-1\",\"4187\",\"40\",\"1\",\"Training\",\"Stims/Figures/74-C-20-4.bmp\",\"ma:lana\",\"Up\",\"40\",\"1\",\"14\",\"9\",\"S\",\"C\",\"14\"
\"\",\"\",\"approach-retreat\",\"18\",\"219786\",\"0.0-18.0\",\"\",\"\",\"3-1\",\"4319\",\"40\",\"1\",\"Training\",\"Stims/Figures/74-J-10-4.bmp\",\"na:mala\",\"Down\",\"40\",\"1\",\"15\",\"9\",\"S\",\"C\",\"15\"
\"\",\"\",\"approach-retreat\",\"19\",\"225547\",\"0.0-19.0\",\"\",\"\",\"3-1\",\"4253\",\"39\",\"1\",\"Training\",\"Stims/Figures/84-J-0-2.bmp\",\"fashasha\",\"Right\",\"39\",\"1\",\"16\",\"9\",\"C1\",\"C\",\"16\"
\"\",\"\",\"approach-retreat\",\"20\",\"231280\",\"0.0-20.0\",\"\",\"\",\"3-1\",\"4226\",\"40\",\"1\",\"Training\",\"Stims/Figures/74-J-10-4.bmp\",\"na:mala\",\"Down\",\"40\",\"2\",\"1\",\"9\",\"S\",\"C\",\"17\"
\"\",\"\",\"approach-retreat\",\"21\",\"237077\",\"0.0-21.0\",\"\",\"\",\"3-1\",\"4292\",\"38\",\"1\",\"Training\",\"Stims/Figures/71-J-0-1.bmp\",\"ta:pata\",\"Up\",\"38\",\"2\",\"2\",\"9\",\"P\",\"C\",\"18\"
\"\",\"\",\"approach-retreat\",\"22\",\"242697\",\"0.0-22.0\",\"\",\"\",\"3-1\",\"4112\",\"39\",\"1\",\"Training\",\"Stims/Figures/74-C-20-4.bmp\",\"ma:lana\",\"Left\",\"39\",\"2\",\"3\",\"9\",\"S\",\"C\",\"19\"
\"\",\"\",\"approach-retreat\",\"23\",\"248523\",\"0.0-23.0\",\"\",\"\",\"3-1\",\"4316\",\"39\",\"1\",\"Training\",\"Stims/Figures/128-J-10-3.bmp\",\"ta:kaka\",\"Right\",\"39\",\"2\",\"4\",\"9\",\"P\",\"C\",\"20\"
\"\",\"\",\"approach-retreat\",\"24\",\"254533\",\"0.0-24.0\",\"\",\"\",\"3-1\",\"4502\",\"40\",\"1\",\"Training\",\"Stims/Figures/84-J-0-2.bmp\",\"fashasha\",\"Down\",\"40\",\"2\",\"5\",\"9\",\"C1\",\"C\",\"21\"
\"\",\"\",\"approach-retreat\",\"25\",\"260507\",\"0.0-25.0\",\"\",\"\",\"3-1\",\"4468\",\"39\",\"1\",\"Training\",\"Stims/Figures/71-C-30-1.bmp\",\"sasaha\",\"Left\",\"39\",\"2\",\"6\",\"9\",\"C2\",\"C\",\"22\"
\"\",\"\",\"approach-retreat\",\"26\",\"266531\",\"0.0-26.0\",\"\",\"\",\"3-1\",\"4515\",\"40\",\"1\",\"Training\",\"Stims/Figures/128-C-30-3.bmp\",\"pa:ka:ka\",\"Up\",\"40\",\"2\",\"7\",\"9\",\"P\",\"C\",\"23\"
\"\",\"\",\"approach-retreat\",\"27\",\"272228\",\"0.0-27.0\",\"\",\"\",\"3-1\",\"4192\",\"40\",\"1\",\"Training\",\"Stims/Figures/111-C-30-3.bmp\",\"paka:ta\",\"Up\",\"40\",\"2\",\"8\",\"9\",\"P\",\"C\",\"24\"
\"\",\"\",\"approach-retreat\",\"28\",\"278041\",\"0.0-28.0\",\"\",\"\",\"3-1\",\"4306\",\"39\",\"1\",\"Training\",\"Stims/Figures/111-J-10-3.bmp\",\"tapa:ka\",\"Right\",\"39\",\"2\",\"9\",\"9\",\"P\",\"C\",\"25\"
\"\",\"\",\"approach-retreat\",\"29\",\"283887\",\"0.0-29.0\",\"\",\"\",\"3-1\",\"4337\",\"40\",\"1\",\"Training\",\"Stims/Figures/27-J-0-1.bmp\",\"fafava\",\"Down\",\"40\",\"2\",\"10\",\"9\",\"C1\",\"C\",\"26\"
\"\",\"\",\"approach-retreat\",\"30\",\"289935\",\"0.0-30.0\",\"\",\"\",\"3-1\",\"4539\",\"39\",\"1\",\"Training\",\"Stims/Figures/102-C-20-4.bmp\",\"za:haza\",\"Left\",\"39\",\"2\",\"11\",\"9\",\"C2\",\"C\",\"27\"
\"\",\"\",\"approach-retreat\",\"31\",\"296338\",\"0.0-31.0\",\"\",\"\",\"3-1\",\"4894\",\"37\",\"1\",\"Training\",\"Stims/Figures/102-J-10-4.bmp\",\"pa:pata\",\"Left\",\"37\",\"2\",\"12\",\"9\",\"P\",\"C\",\"28\"
\"\",\"\",\"approach-retreat\",\"32\",\"304237\",\"0.0-32.0\",\"\",\"\",\"3-1\",\"6391\",\"38\",\"1\",\"Training\",\"Stims/Figures/84-C-20-2.bmp\",\"sa:sa:ha\",\"Down\",\"38\",\"2\",\"13\",\"9\",\"C2\",\"C\",\"29\"
\"\",\"\",\"approach-retreat\",\"33\",\"309939\",\"0.0-33.0\",\"\",\"\",\"3-1\",\"4193\",\"39\",\"1\",\"Training\",\"Stims/Figures/118-J-0-2.bmp\",\"namala\",\"Right\",\"39\",\"2\",\"14\",\"9\",\"S\",\"C\",\"30\"
\"\",\"\",\"approach-retreat\",\"34\",\"316575\",\"0.0-34.0\",\"\",\"\",\"3-1\",\"5128\",\"40\",\"1\",\"Training\",\"Stims/Figures/118-C-20-2.bmp\",\"nalala\",\"Up\",\"40\",\"2\",\"15\",\"9\",\"S\",\"C\",\"31\"
\"\",\"\",\"approach-retreat\",\"35\",\"322482\",\"0.0-35.0\",\"\",\"\",\"3-1\",\"4401\",\"37\",\"1\",\"Training\",\"Stims/Figures/27-C-30-1.bmp\",\"mamala\",\"Right\",\"37\",\"2\",\"16\",\"9\",\"S\",\"C\",\"32\"
\"\",\"\",\"approach-retreat\",\"36\",\"328550\",\"0.0-36.0\",\"\",\"\",\"3-1\",\"4561\",\"38\",\"1\",\"Training\",\"Stims/Figures/118-C-20-2.bmp\",\"nalala\",\"Down\",\"38\",\"3\",\"1\",\"9\",\"S\",\"C\",\"33\"
\"\",\"\",\"approach-retreat\",\"37\",\"334171\",\"0.0-37.0\",\"\",\"\",\"3-1\",\"4116\",\"40\",\"1\",\"Training\",\"Stims/Figures/118-J-0-2.bmp\",\"namala\",\"Down\",\"40\",\"3\",\"2\",\"9\",\"S\",\"C\",\"34\"
\"\",\"\",\"approach-retreat\",\"38\",\"340003\",\"0.0-38.0\",\"\",\"\",\"3-1\",\"4323\",\"40\",\"1\",\"Training\",\"Stims/Figures/84-C-20-2.bmp\",\"sa:sa:ha\",\"Up\",\"40\",\"3\",\"3\",\"9\",\"C2\",\"C\",\"35\"
\"\",\"\",\"approach-retreat\",\"39\",\"345864\",\"0.0-39.0\",\"\",\"\",\"3-1\",\"4352\",\"37\",\"1\",\"Training\",\"Stims/Figures/27-C-30-1.bmp\",\"mamala\",\"Right\",\"37\",\"3\",\"4\",\"9\",\"S\",\"C\",\"36\"
\"\",\"\",\"approach-retreat\",\"40\",\"351634\",\"0.0-40.0\",\"\",\"\",\"3-1\",\"4264\",\"40\",\"1\",\"Training\",\"Stims/Figures/27-J-0-1.bmp\",\"fafava\",\"Down\",\"40\",\"3\",\"5\",\"9\",\"C1\",\"C\",\"37\"
\"\",\"\",\"approach-retreat\",\"41\",\"357570\",\"0.0-41.0\",\"\",\"\",\"3-1\",\"4427\",\"38\",\"1\",\"Training\",\"Stims/Figures/111-C-30-3.bmp\",\"paka:ta\",\"Down\",\"38\",\"3\",\"6\",\"9\",\"P\",\"C\",\"38\"
\"\",\"\",\"approach-retreat\",\"42\",\"363550\",\"0.0-42.0\",\"\",\"\",\"3-1\",\"4473\",\"37\",\"1\",\"Training\",\"Stims/Figures/111-J-10-3.bmp\",\"tapa:ka\",\"Left\",\"37\",\"3\",\"7\",\"9\",\"P\",\"C\",\"39\"
\"\",\"\",\"approach-retreat\",\"43\",\"369316\",\"0.0-43.0\",\"\",\"\",\"3-1\",\"4259\",\"37\",\"1\",\"Training\",\"Stims/Figures/71-C-30-1.bmp\",\"sasaha\",\"Right\",\"37\",\"3\",\"8\",\"9\",\"C2\",\"C\",\"40\"
\"\",\"\",\"approach-retreat\",\"44\",\"375696\",\"0.0-44.0\",\"\",\"\",\"3-1\",\"4873\",\"39\",\"1\",\"Training\",\"Stims/Figures/102-C-20-4.bmp\",\"za:haza\",\"Left\",\"39\",\"3\",\"9\",\"9\",\"C2\",\"C\",\"41\"
\"\",\"\",\"approach-retreat\",\"45\",\"382370\",\"0.0-45.0\",\"\",\"\",\"3-1\",\"5169\",\"37\",\"1\",\"Training\",\"Stims/Figures/84-J-0-2.bmp\",\"fashasha\",\"Left\",\"37\",\"3\",\"10\",\"9\",\"C1\",\"C\",\"42\"
\"\",\"\",\"approach-retreat\",\"46\",\"389034\",\"0.0-46.0\",\"\",\"\",\"3-1\",\"5156\",\"39\",\"1\",\"Training\",\"Stims/Figures/74-C-20-4.bmp\",\"ma:lana\",\"Left\",\"39\",\"3\",\"11\",\"9\",\"S\",\"C\",\"43\"
\"\",\"\",\"approach-retreat\",\"47\",\"394854\",\"0.0-47.0\",\"\",\"\",\"3-1\",\"4313\",\"38\",\"1\",\"Training\",\"Stims/Figures/128-J-10-3.bmp\",\"ta:kaka\",\"Up\",\"38\",\"3\",\"12\",\"9\",\"P\",\"C\",\"44\"
\"\",\"\",\"approach-retreat\",\"48\",\"401161\",\"0.0-48.0\",\"\",\"\",\"3-1\",\"4800\",\"38\",\"1\",\"Training\",\"Stims/Figures/74-J-10-4.bmp\",\"na:mala\",\"Up\",\"38\",\"3\",\"13\",\"9\",\"S\",\"C\",\"45\"
\"\",\"\",\"approach-retreat\",\"49\",\"407014\",\"0.0-49.0\",\"\",\"\",\"3-1\",\"4346\",\"38\",\"1\",\"Training\",\"Stims/Figures/71-J-0-1.bmp\",\"ta:pata\",\"Up\",\"38\",\"3\",\"14\",\"9\",\"P\",\"C\",\"46\"
\"\",\"\",\"approach-retreat\",\"50\",\"413321\",\"0.0-50.0\",\"\",\"\",\"3-1\",\"4799\",\"37\",\"1\",\"Training\",\"Stims/Figures/128-C-30-3.bmp\",\"pa:ka:ka\",\"Right\",\"37\",\"3\",\"15\",\"9\",\"P\",\"C\",\"47\"
\"\",\"\",\"approach-retreat\",\"51\",\"419453\",\"0.0-51.0\",\"\",\"\",\"3-1\",\"4625\",\"39\",\"1\",\"Training\",\"Stims/Figures/102-J-10-4.bmp\",\"pa:pata\",\"Right\",\"39\",\"3\",\"16\",\"9\",\"P\",\"C\",\"48\"
\"\",\"\",\"approach-retreat\",\"52\",\"425476\",\"0.0-52.0\",\"\",\"\",\"3-1\",\"4516\",\"39\",\"1\",\"Training\",\"Stims/Figures/118-J-0-2.bmp\",\"namala\",\"Right\",\"39\",\"4\",\"1\",\"9\",\"S\",\"C\",\"49\"
\"\",\"\",\"approach-retreat\",\"53\",\"431441\",\"0.0-53.0\",\"\",\"\",\"3-1\",\"4458\",\"39\",\"1\",\"Training\",\"Stims/Figures/84-C-20-2.bmp\",\"sa:sa:ha\",\"Left\",\"39\",\"4\",\"2\",\"9\",\"C2\",\"C\",\"50\"
\"\",\"\",\"approach-retreat\",\"54\",\"437094\",\"0.0-54.0\",\"\",\"\",\"3-1\",\"4145\",\"38\",\"1\",\"Training\",\"Stims/Figures/74-J-10-4.bmp\",\"na:mala\",\"Up\",\"38\",\"4\",\"3\",\"9\",\"S\",\"C\",\"51\"
\"\",\"\",\"approach-retreat\",\"55\",\"443472\",\"0.0-55.0\",\"\",\"\",\"3-1\",\"4870\",\"40\",\"1\",\"Training\",\"Stims/Figures/128-C-30-3.bmp\",\"pa:ka:ka\",\"Up\",\"40\",\"4\",\"4\",\"9\",\"P\",\"C\",\"52\"
\"\",\"\",\"approach-retreat\",\"56\",\"449715\",\"0.0-56.0\",\"\",\"\",\"3-1\",\"4736\",\"40\",\"1\",\"Training\",\"Stims/Figures/27-J-0-1.bmp\",\"fafava\",\"Down\",\"40\",\"4\",\"5\",\"9\",\"C1\",\"C\",\"53\"
\"\",\"\",\"approach-retreat\",\"57\",\"455850\",\"0.0-57.0\",\"\",\"\",\"3-1\",\"4627\",\"39\",\"1\",\"Training\",\"Stims/Figures/84-J-0-2.bmp\",\"fashasha\",\"Right\",\"39\",\"4\",\"6\",\"9\",\"C1\",\"C\",\"54\"
\"\",\"\",\"approach-retreat\",\"58\",\"462352\",\"0.0-58.0\",\"\",\"\",\"3-1\",\"4994\",\"40\",\"1\",\"Training\",\"Stims/Figures/74-C-20-4.bmp\",\"ma:lana\",\"Up\",\"40\",\"4\",\"7\",\"9\",\"S\",\"C\",\"55\"
\"\",\"\",\"approach-retreat\",\"59\",\"468058\",\"0.0-59.0\",\"\",\"\",\"3-1\",\"4198\",\"40\",\"1\",\"Training\",\"Stims/Figures/128-J-10-3.bmp\",\"ta:kaka\",\"Down\",\"40\",\"4\",\"8\",\"9\",\"P\",\"C\",\"56\"
\"\",\"\",\"approach-retreat\",\"60\",\"473911\",\"0.0-60.0\",\"\",\"\",\"3-1\",\"4346\",\"40\",\"1\",\"Training\",\"Stims/Figures/102-J-10-4.bmp\",\"pa:pata\",\"Down\",\"40\",\"4\",\"9\",\"9\",\"P\",\"C\",\"57\"
\"\",\"\",\"approach-retreat\",\"61\",\"480334\",\"0.0-61.0\",\"\",\"\",\"3-1\",\"4916\",\"39\",\"1\",\"Training\",\"Stims/Figures/71-C-30-1.bmp\",\"sasaha\",\"Left\",\"39\",\"4\",\"10\",\"9\",\"C2\",\"C\",\"58\"
\"\",\"\",\"approach-retreat\",\"62\",\"486327\",\"0.0-62.0\",\"\",\"\",\"3-1\",\"4483\",\"38\",\"1\",\"Training\",\"Stims/Figures/71-J-0-1.bmp\",\"ta:pata\",\"Up\",\"38\",\"4\",\"11\",\"9\",\"P\",\"C\",\"59\"
\"\",\"\",\"approach-retreat\",\"63\",\"492507\",\"0.0-63.0\",\"\",\"\",\"3-1\",\"4674\",\"39\",\"1\",\"Training\",\"Stims/Figures/111-C-30-3.bmp\",\"paka:ta\",\"Left\",\"39\",\"4\",\"12\",\"9\",\"P\",\"C\",\"60\"
\"\",\"\",\"approach-retreat\",\"64\",\"498421\",\"0.0-64.0\",\"\",\"\",\"3-1\",\"4406\",\"39\",\"1\",\"Training\",\"Stims/Figures/27-C-30-1.bmp\",\"mamala\",\"Left\",\"39\",\"4\",\"13\",\"9\",\"S\",\"C\",\"61\"
\"\",\"\",\"approach-retreat\",\"65\",\"504487\",\"0.0-65.0\",\"\",\"\",\"3-1\",\"4556\",\"40\",\"1\",\"Training\",\"Stims/Figures/111-J-10-3.bmp\",\"tapa:ka\",\"Down\",\"40\",\"4\",\"14\",\"9\",\"P\",\"C\",\"62\"
\"\",\"\",\"approach-retreat\",\"66\",\"512186\",\"0.0-66.0\",\"\",\"\",\"3-1\",\"6192\",\"39\",\"0\",\"Training\",\"Stims/Figures/118-C-20-2.bmp\",\"nalala\",\"Right\",\"37\",\"4\",\"15\",\"9\",\"S\",\"C\",\"63\"
\"\",\"\",\"approach-retreat\",\"67\",\"517744\",\"0.0-67.0\",\"\",\"\",\"3-1\",\"4053\",\"39\",\"0\",\"Training\",\"Stims/Figures/102-C-20-4.bmp\",\"za:haza\",\"Right\",\"37\",\"4\",\"16\",\"9\",\"C2\",\"C\",\"64\"
\"\",\"\",\"approach-retreat\",\"68\",\"523567\",\"0.0-68.0\",\"\",\"\",\"3-1\",\"4320\",\"38\",\"1\",\"Training\",\"Stims/Figures/111-J-10-3.bmp\",\"tapa:ka\",\"Up\",\"38\",\"5\",\"1\",\"9\",\"P\",\"C\",\"65\"
\"\",\"\",\"approach-retreat\",\"69\",\"529835\",\"0.0-69.0\",\"\",\"\",\"3-1\",\"4760\",\"37\",\"1\",\"Training\",\"Stims/Figures/71-J-0-1.bmp\",\"ta:pata\",\"Left\",\"37\",\"5\",\"2\",\"9\",\"P\",\"C\",\"66\"
\"\",\"\",\"approach-retreat\",\"70\",\"536023\",\"0.0-70.0\",\"\",\"\",\"3-1\",\"4681\",\"40\",\"1\",\"Training\",\"Stims/Figures/27-J-0-1.bmp\",\"fafava\",\"Down\",\"40\",\"5\",\"3\",\"9\",\"C1\",\"C\",\"67\"
\"\",\"\",\"approach-retreat\",\"71\",\"541961\",\"0.0-71.0\",\"\",\"\",\"3-1\",\"4431\",\"37\",\"1\",\"Training\",\"Stims/Figures/128-C-30-3.bmp\",\"pa:ka:ka\",\"Right\",\"37\",\"5\",\"4\",\"9\",\"P\",\"C\",\"68\"
\"\",\"\",\"approach-retreat\",\"72\",\"547867\",\"0.0-72.0\",\"\",\"\",\"3-1\",\"4398\",\"40\",\"1\",\"Training\",\"Stims/Figures/84-C-20-2.bmp\",\"sa:sa:ha\",\"Up\",\"40\",\"5\",\"5\",\"9\",\"C2\",\"C\",\"69\"
\"\",\"\",\"approach-retreat\",\"73\",\"554005\",\"0.0-73.0\",\"\",\"\",\"3-1\",\"4631\",\"39\",\"1\",\"Training\",\"Stims/Figures/111-C-30-3.bmp\",\"paka:ta\",\"Left\",\"39\",\"5\",\"6\",\"9\",\"P\",\"C\",\"70\"
\"\",\"\",\"approach-retreat\",\"74\",\"562028\",\"0.0-74.0\",\"\",\"\",\"3-1\",\"6515\",\"40\",\"1\",\"Training\",\"Stims/Figures/84-J-0-2.bmp\",\"fashasha\",\"Down\",\"40\",\"5\",\"7\",\"9\",\"C1\",\"C\",\"71\"
\"\",\"\",\"approach-retreat\",\"75\",\"574138\",\"0.0-75.0\",\"\",\"\",\"3-1\",\"10604\",\"39\",\"1\",\"Training\",\"Stims/Figures/128-J-10-3.bmp\",\"ta:kaka\",\"Right\",\"39\",\"5\",\"8\",\"9\",\"P\",\"C\",\"72\"
\"\",\"\",\"approach-retreat\",\"76\",\"580950\",\"0.0-76.0\",\"\",\"\",\"3-1\",\"5308\",\"38\",\"1\",\"Training\",\"Stims/Figures/118-J-0-2.bmp\",\"namala\",\"Up\",\"38\",\"5\",\"9\",\"9\",\"S\",\"C\",\"73\"
\"\",\"\",\"approach-retreat\",\"77\",\"587107\",\"0.0-77.0\",\"\",\"\",\"3-1\",\"4649\",\"37\",\"1\",\"Training\",\"Stims/Figures/74-C-20-4.bmp\",\"ma:lana\",\"Right\",\"37\",\"5\",\"10\",\"9\",\"S\",\"C\",\"74\"
\"\",\"\",\"approach-retreat\",\"78\",\"592819\",\"0.0-78.0\",\"\",\"\",\"3-1\",\"4205\",\"38\",\"1\",\"Training\",\"Stims/Figures/102-C-20-4.bmp\",\"za:haza\",\"Down\",\"38\",\"5\",\"11\",\"9\",\"C2\",\"C\",\"75\"
\"\",\"\",\"approach-retreat\",\"79\",\"598531\",\"0.0-79.0\",\"\",\"\",\"3-1\",\"4205\",\"39\",\"1\",\"Training\",\"Stims/Figures/27-C-30-1.bmp\",\"mamala\",\"Left\",\"39\",\"5\",\"12\",\"9\",\"S\",\"C\",\"76\"
\"\",\"\",\"approach-retreat\",\"80\",\"604109\",\"0.0-80.0\",\"\",\"\",\"3-1\",\"4072\",\"40\",\"1\",\"Training\",\"Stims/Figures/102-J-10-4.bmp\",\"pa:pata\",\"Down\",\"40\",\"5\",\"13\",\"9\",\"P\",\"C\",\"77\"
\"\",\"\",\"approach-retreat\",\"81\",\"610017\",\"0.0-81.0\",\"\",\"\",\"3-1\",\"4399\",\"38\",\"1\",\"Training\",\"Stims/Figures/74-J-10-4.bmp\",\"na:mala\",\"Up\",\"38\",\"5\",\"14\",\"9\",\"S\",\"C\",\"78\"
\"\",\"\",\"approach-retreat\",\"82\",\"615524\",\"0.0-82.0\",\"\",\"\",\"3-1\",\"3999\",\"37\",\"1\",\"Training\",\"Stims/Figures/118-C-20-2.bmp\",\"nalala\",\"Right\",\"37\",\"5\",\"15\",\"9\",\"S\",\"C\",\"79\"
\"\",\"\",\"approach-retreat\",\"83\",\"621305\",\"0.0-83.0\",\"\",\"\",\"3-1\",\"4273\",\"39\",\"1\",\"Training\",\"Stims/Figures/71-C-30-1.bmp\",\"sasaha\",\"Left\",\"39\",\"5\",\"16\",\"9\",\"C2\",\"C\",\"80\"
\"\",\"\",\"approach-retreat\",\"84\",\"626952\",\"0.0-84.0\",\"\",\"\",\"3-1\",\"4140\",\"38\",\"1\",\"Training\",\"Stims/Figures/71-C-30-1.bmp\",\"sasaha\",\"Down\",\"38\",\"6\",\"1\",\"9\",\"C2\",\"C\",\"81\"
\"\",\"\",\"approach-retreat\",\"85\",\"632723\",\"0.0-85.0\",\"\",\"\",\"3-1\",\"4264\",\"38\",\"1\",\"Training\",\"Stims/Figures/71-J-0-1.bmp\",\"ta:pata\",\"Up\",\"38\",\"6\",\"2\",\"9\",\"P\",\"C\",\"82\"
\"\",\"\",\"approach-retreat\",\"86\",\"638283\",\"0.0-86.0\",\"\",\"\",\"3-1\",\"4052\",\"37\",\"1\",\"Training\",\"Stims/Figures/111-C-30-3.bmp\",\"paka:ta\",\"Right\",\"37\",\"6\",\"3\",\"9\",\"P\",\"C\",\"83\"
\"\",\"\",\"approach-retreat\",\"87\",\"644143\",\"0.0-87.0\",\"\",\"\",\"3-1\",\"4354\",\"40\",\"1\",\"Training\",\"Stims/Figures/128-C-30-3.bmp\",\"pa:ka:ka\",\"Up\",\"40\",\"6\",\"4\",\"9\",\"P\",\"C\",\"84\"
\"\",\"\",\"approach-retreat\",\"88\",\"649799\",\"0.0-88.0\",\"\",\"\",\"3-1\",\"4148\",\"39\",\"1\",\"Training\",\"Stims/Figures/84-C-20-2.bmp\",\"sa:sa:ha\",\"Left\",\"39\",\"6\",\"5\",\"9\",\"C2\",\"C\",\"85\"
\"\",\"\",\"approach-retreat\",\"89\",\"655429\",\"0.0-89.0\",\"\",\"\",\"3-1\",\"4123\",\"39\",\"1\",\"Training\",\"Stims/Figures/102-C-20-4.bmp\",\"za:haza\",\"Left\",\"39\",\"6\",\"6\",\"9\",\"C2\",\"C\",\"86\"
\"\",\"\",\"approach-retreat\",\"90\",\"661205\",\"0.0-90.0\",\"\",\"\",\"3-1\",\"4270\",\"40\",\"1\",\"Training\",\"Stims/Figures/118-J-0-2.bmp\",\"namala\",\"Down\",\"40\",\"6\",\"7\",\"9\",\"S\",\"C\",\"87\"
\"\",\"\",\"approach-retreat\",\"91\",\"667053\",\"0.0-91.0\",\"\",\"\",\"3-1\",\"4340\",\"40\",\"1\",\"Training\",\"Stims/Figures/111-J-10-3.bmp\",\"tapa:ka\",\"Down\",\"40\",\"6\",\"8\",\"9\",\"P\",\"C\",\"88\"
\"\",\"\",\"approach-retreat\",\"92\",\"673186\",\"0.0-92.0\",\"\",\"\",\"3-1\",\"4625\",\"39\",\"1\",\"Training\",\"Stims/Figures/27-C-30-1.bmp\",\"mamala\",\"Left\",\"39\",\"6\",\"9\",\"9\",\"S\",\"C\",\"89\"
\"\",\"\",\"approach-retreat\",\"93\",\"679211\",\"0.0-93.0\",\"\",\"\",\"3-1\",\"4518\",\"39\",\"1\",\"Training\",\"Stims/Figures/102-J-10-4.bmp\",\"pa:pata\",\"Right\",\"39\",\"6\",\"10\",\"9\",\"P\",\"C\",\"90\"
\"\",\"\",\"approach-retreat\",\"94\",\"684873\",\"0.0-94.0\",\"\",\"\",\"3-1\",\"4154\",\"38\",\"1\",\"Training\",\"Stims/Figures/128-J-10-3.bmp\",\"ta:kaka\",\"Up\",\"38\",\"6\",\"11\",\"9\",\"P\",\"C\",\"91\"
\"\",\"\",\"approach-retreat\",\"95\",\"691058\",\"0.0-95.0\",\"\",\"\",\"3-1\",\"4679\",\"38\",\"1\",\"Training\",\"Stims/Figures/74-J-10-4.bmp\",\"na:mala\",\"Up\",\"38\",\"6\",\"12\",\"9\",\"S\",\"C\",\"92\"
\"\",\"\",\"approach-retreat\",\"96\",\"698467\",\"0.0-96.0\",\"\",\"\",\"3-1\",\"5900\",\"39\",\"1\",\"Training\",\"Stims/Figures/74-C-20-4.bmp\",\"ma:lana\",\"Left\",\"39\",\"6\",\"13\",\"9\",\"S\",\"C\",\"93\"
\"\",\"\",\"approach-retreat\",\"97\",\"704684\",\"0.0-97.0\",\"\",\"\",\"3-1\",\"4712\",\"40\",\"1\",\"Training\",\"Stims/Figures/84-J-0-2.bmp\",\"fashasha\",\"Down\",\"40\",\"6\",\"14\",\"9\",\"C1\",\"C\",\"94\"
\"\",\"\",\"approach-retreat\",\"98\",\"711097\",\"0.0-98.0\",\"\",\"\",\"3-1\",\"4904\",\"37\",\"1\",\"Training\",\"Stims/Figures/118-C-20-2.bmp\",\"nalala\",\"Right\",\"37\",\"6\",\"15\",\"9\",\"S\",\"C\",\"95\"
\"\",\"\",\"approach-retreat\",\"99\",\"717410\",\"0.0-99.0\",\"\",\"\",\"3-1\",\"4807\",\"39\",\"1\",\"Training\",\"Stims/Figures/27-J-0-1.bmp\",\"fafava\",\"Right\",\"39\",\"6\",\"16\",\"9\",\"C1\",\"C\",\"96\"
\"\",\"\",\"approach-retreat\",\"100\",\"723379\",\"0.0-100.0\",\"\",\"\",\"3-1\",\"4462\",\"39\",\"1\",\"Training\",\"Stims/Figures/102-J-10-4.bmp\",\"pa:pata\",\"Right\",\"39\",\"7\",\"1\",\"9\",\"P\",\"C\",\"97\"
\"\",\"\",\"approach-retreat\",\"101\",\"729775\",\"0.0-101.0\",\"\",\"\",\"3-1\",\"4889\",\"38\",\"1\",\"Training\",\"Stims/Figures/128-J-10-3.bmp\",\"ta:kaka\",\"Up\",\"38\",\"7\",\"2\",\"9\",\"P\",\"C\",\"98\"
\"\",\"\",\"approach-retreat\",\"102\",\"735632\",\"0.0-102.0\",\"\",\"\",\"3-1\",\"4349\",\"40\",\"1\",\"Training\",\"Stims/Figures/102-C-20-4.bmp\",\"za:haza\",\"Up\",\"40\",\"7\",\"3\",\"9\",\"C2\",\"C\",\"99\"
\"\",\"\",\"approach-retreat\",\"103\",\"743630\",\"0.0-103.0\",\"\",\"\",\"3-1\",\"6491\",\"38\",\"1\",\"Training\",\"Stims/Figures/118-C-20-2.bmp\",\"nalala\",\"Down\",\"38\",\"7\",\"4\",\"9\",\"S\",\"C\",\"100\"
\"\",\"\",\"approach-retreat\",\"104\",\"749646\",\"0.0-104.0\",\"\",\"\",\"3-1\",\"4509\",\"39\",\"1\",\"Training\",\"Stims/Figures/111-J-10-3.bmp\",\"tapa:ka\",\"Right\",\"39\",\"7\",\"5\",\"9\",\"P\",\"C\",\"101\"
\"\",\"\",\"approach-retreat\",\"105\",\"756405\",\"0.0-105.0\",\"\",\"\",\"3-1\",\"5251\",\"40\",\"1\",\"Training\",\"Stims/Figures/74-C-20-4.bmp\",\"ma:lana\",\"Up\",\"40\",\"7\",\"6\",\"9\",\"S\",\"C\",\"102\"
\"\",\"\",\"approach-retreat\",\"106\",\"763026\",\"0.0-106.0\",\"\",\"\",\"3-1\",\"5115\",\"37\",\"1\",\"Training\",\"Stims/Figures/27-J-0-1.bmp\",\"fafava\",\"Left\",\"37\",\"7\",\"7\",\"9\",\"C1\",\"C\",\"103\"
\"\",\"\",\"approach-retreat\",\"107\",\"769122\",\"0.0-107.0\",\"\",\"\",\"3-1\",\"4589\",\"37\",\"1\",\"Training\",\"Stims/Figures/71-J-0-1.bmp\",\"ta:pata\",\"Left\",\"37\",\"7\",\"8\",\"9\",\"P\",\"C\",\"104\"
\"\",\"\",\"approach-retreat\",\"108\",\"776467\",\"0.0-108.0\",\"\",\"\",\"3-1\",\"5836\",\"40\",\"1\",\"Training\",\"Stims/Figures/118-J-0-2.bmp\",\"namala\",\"Down\",\"40\",\"7\",\"9\",\"9\",\"S\",\"C\",\"105\"
\"\",\"\",\"approach-retreat\",\"109\",\"782687\",\"0.0-109.0\",\"\",\"\",\"3-1\",\"4713\",\"37\",\"1\",\"Training\",\"Stims/Figures/71-C-30-1.bmp\",\"sasaha\",\"Right\",\"37\",\"7\",\"10\",\"9\",\"C2\",\"C\",\"106\"
\"\",\"\",\"approach-retreat\",\"110\",\"789399\",\"0.0-110.0\",\"\",\"\",\"3-1\",\"5202\",\"39\",\"1\",\"Training\",\"Stims/Figures/27-C-30-1.bmp\",\"mamala\",\"Left\",\"39\",\"7\",\"11\",\"9\",\"S\",\"C\",\"107\"
\"\",\"\",\"approach-retreat\",\"111\",\"794947\",\"0.0-111.0\",\"\",\"\",\"3-1\",\"4039\",\"38\",\"1\",\"Training\",\"Stims/Figures/128-C-30-3.bmp\",\"pa:ka:ka\",\"Down\",\"38\",\"7\",\"12\",\"9\",\"P\",\"C\",\"108\"
\"\",\"\",\"approach-retreat\",\"112\",\"800542\",\"0.0-112.0\",\"\",\"\",\"3-1\",\"4089\",\"37\",\"1\",\"Training\",\"Stims/Figures/74-J-10-4.bmp\",\"na:mala\",\"Left\",\"37\",\"7\",\"13\",\"9\",\"S\",\"C\",\"109\"
\"\",\"\",\"approach-retreat\",\"113\",\"806330\",\"0.0-113.0\",\"\",\"\",\"3-1\",\"4275\",\"40\",\"1\",\"Training\",\"Stims/Figures/84-J-0-2.bmp\",\"fashasha\",\"Down\",\"40\",\"7\",\"14\",\"9\",\"C1\",\"C\",\"110\"
\"\",\"\",\"approach-retreat\",\"114\",\"812432\",\"0.0-114.0\",\"\",\"\",\"3-1\",\"4594\",\"40\",\"1\",\"Training\",\"Stims/Figures/111-C-30-3.bmp\",\"paka:ta\",\"Up\",\"40\",\"7\",\"15\",\"9\",\"P\",\"C\",\"111\"
\"\",\"\",\"approach-retreat\",\"115\",\"818136\",\"0.0-115.0\",\"\",\"\",\"3-1\",\"4197\",\"37\",\"1\",\"Training\",\"Stims/Figures/84-C-20-2.bmp\",\"sa:sa:ha\",\"Right\",\"37\",\"7\",\"16\",\"9\",\"C2\",\"C\",\"112\"
\"\",\"\",\"approach-retreat\",\"116\",\"823699\",\"0.0-116.0\",\"\",\"\",\"3-1\",\"4054\",\"39\",\"0\",\"Training\",\"Stims/Figures/74-C-20-4.bmp\",\"ma:lana\",\"Right\",\"37\",\"8\",\"1\",\"9\",\"S\",\"C\",\"113\"
\"\",\"\",\"approach-retreat\",\"117\",\"829584\",\"0.0-117.0\",\"\",\"\",\"3-1\",\"4377\",\"40\",\"1\",\"Training\",\"Stims/Figures/71-J-0-1.bmp\",\"ta:pata\",\"Down\",\"40\",\"8\",\"2\",\"9\",\"P\",\"C\",\"114\"
\"\",\"\",\"approach-retreat\",\"118\",\"835616\",\"0.0-118.0\",\"\",\"\",\"3-1\",\"4523\",\"40\",\"1\",\"Training\",\"Stims/Figures/27-J-0-1.bmp\",\"fafava\",\"Down\",\"40\",\"8\",\"3\",\"9\",\"C1\",\"C\",\"115\"
\"\",\"\",\"approach-retreat\",\"119\",\"842119\",\"0.0-119.0\",\"\",\"\",\"3-1\",\"4995\",\"40\",\"1\",\"Training\",\"Stims/Figures/27-C-30-1.bmp\",\"mamala\",\"Up\",\"40\",\"8\",\"4\",\"9\",\"S\",\"C\",\"116\"
\"\",\"\",\"approach-retreat\",\"120\",\"848166\",\"0.0-120.0\",\"\",\"\",\"3-1\",\"4540\",\"38\",\"1\",\"Training\",\"Stims/Figures/71-C-30-1.bmp\",\"sasaha\",\"Down\",\"38\",\"8\",\"5\",\"9\",\"C2\",\"C\",\"117\"
\"\",\"\",\"approach-retreat\",\"121\",\"853859\",\"0.0-121.0\",\"\",\"\",\"3-1\",\"4186\",\"39\",\"1\",\"Training\",\"Stims/Figures/102-C-20-4.bmp\",\"za:haza\",\"Left\",\"39\",\"8\",\"6\",\"9\",\"C2\",\"C\",\"118\"
\"\",\"\",\"approach-retreat\",\"122\",\"859560\",\"0.0-122.0\",\"\",\"\",\"3-1\",\"4194\",\"37\",\"1\",\"Training\",\"Stims/Figures/84-C-20-2.bmp\",\"sa:sa:ha\",\"Right\",\"37\",\"8\",\"7\",\"9\",\"C2\",\"C\",\"119\"
\"\",\"\",\"approach-retreat\",\"123\",\"865809\",\"0.0-123.0\",\"\",\"\",\"3-1\",\"4742\",\"37\",\"1\",\"Training\",\"Stims/Figures/128-J-10-3.bmp\",\"ta:kaka\",\"Left\",\"37\",\"8\",\"8\",\"9\",\"P\",\"C\",\"120\"
\"\",\"\",\"approach-retreat\",\"124\",\"872160\",\"0.0-124.0\",\"\",\"\",\"3-1\",\"4844\",\"38\",\"1\",\"Training\",\"Stims/Figures/74-J-10-4.bmp\",\"na:mala\",\"Up\",\"38\",\"8\",\"9\",\"9\",\"S\",\"C\",\"121\"
\"\",\"\",\"approach-retreat\",\"125\",\"877785\",\"0.0-125.0\",\"\",\"\",\"3-1\",\"4118\",\"40\",\"1\",\"Training\",\"Stims/Figures/111-C-30-3.bmp\",\"paka:ta\",\"Up\",\"40\",\"8\",\"10\",\"9\",\"P\",\"C\",\"122\"
\"\",\"\",\"approach-retreat\",\"126\",\"883552\",\"0.0-126.0\",\"\",\"\",\"3-1\",\"4258\",\"38\",\"1\",\"Training\",\"Stims/Figures/128-C-30-3.bmp\",\"pa:ka:ka\",\"Down\",\"38\",\"8\",\"11\",\"9\",\"P\",\"C\",\"123\"
\"\",\"\",\"approach-retreat\",\"127\",\"889521\",\"0.0-127.0\",\"\",\"\",\"3-1\",\"4460\",\"38\",\"1\",\"Training\",\"Stims/Figures/118-J-0-2.bmp\",\"namala\",\"Up\",\"38\",\"8\",\"12\",\"9\",\"S\",\"C\",\"124\"
\"\",\"\",\"approach-retreat\",\"128\",\"895723\",\"0.0-128.0\",\"\",\"\",\"3-1\",\"4698\",\"39\",\"1\",\"Training\",\"Stims/Figures/84-J-0-2.bmp\",\"fashasha\",\"Right\",\"39\",\"8\",\"13\",\"9\",\"C1\",\"C\",\"125\"
\"\",\"\",\"approach-retreat\",\"129\",\"901905\",\"0.0-129.0\",\"\",\"\",\"3-1\",\"4675\",\"37\",\"1\",\"Training\",\"Stims/Figures/111-J-10-3.bmp\",\"tapa:ka\",\"Left\",\"37\",\"8\",\"14\",\"9\",\"P\",\"C\",\"126\"
\"\",\"\",\"approach-retreat\",\"130\",\"907607\",\"0.0-130.0\",\"\",\"\",\"3-1\",\"4193\",\"37\",\"1\",\"Training\",\"Stims/Figures/102-J-10-4.bmp\",\"pa:pata\",\"Left\",\"37\",\"8\",\"15\",\"9\",\"P\",\"C\",\"127\"
\"\",\"\",\"approach-retreat\",\"131\",\"913183\",\"0.0-131.0\",\"\",\"\",\"3-1\",\"4070\",\"39\",\"0\",\"Training\",\"Stims/Figures/118-C-20-2.bmp\",\"nalala\",\"Right\",\"37\",\"8\",\"16\",\"9\",\"S\",\"C\",\"128\"
\"\",\"\",\"approach-retreat\",\"132\",\"918801\",\"0.0-132.0\",\"\",\"\",\"3-1\",\"4110\",\"40\",\"1\",\"Training\",\"Stims/Figures/111-J-10-3.bmp\",\"tapa:ka\",\"Down\",\"40\",\"9\",\"1\",\"9\",\"P\",\"C\",\"129\"
\"\",\"\",\"approach-retreat\",\"133\",\"924914\",\"0.0-133.0\",\"\",\"\",\"3-1\",\"4607\",\"40\",\"1\",\"Training\",\"Stims/Figures/84-J-0-2.bmp\",\"fashasha\",\"Down\",\"40\",\"9\",\"2\",\"9\",\"C1\",\"C\",\"130\"
\"\",\"\",\"approach-retreat\",\"134\",\"930950\",\"0.0-134.0\",\"\",\"\",\"3-1\",\"4529\",\"39\",\"1\",\"Training\",\"Stims/Figures/71-J-0-1.bmp\",\"ta:pata\",\"Right\",\"39\",\"9\",\"3\",\"9\",\"P\",\"C\",\"131\"
\"\",\"\",\"approach-retreat\",\"135\",\"936969\",\"0.0-135.0\",\"\",\"\",\"3-1\",\"4513\",\"37\",\"1\",\"Training\",\"Stims/Figures/74-J-10-4.bmp\",\"na:mala\",\"Left\",\"37\",\"9\",\"4\",\"9\",\"S\",\"C\",\"132\"
\"\",\"\",\"approach-retreat\",\"136\",\"942521\",\"0.0-136.0\",\"\",\"\",\"3-1\",\"4046\",\"39\",\"1\",\"Training\",\"Stims/Figures/128-J-10-3.bmp\",\"ta:kaka\",\"Right\",\"39\",\"9\",\"5\",\"9\",\"P\",\"C\",\"133\"
\"\",\"\",\"approach-retreat\",\"137\",\"948612\",\"0.0-137.0\",\"\",\"\",\"3-1\",\"4584\",\"38\",\"1\",\"Training\",\"Stims/Figures/118-J-0-2.bmp\",\"namala\",\"Up\",\"38\",\"9\",\"6\",\"9\",\"S\",\"C\",\"134\"
\"\",\"\",\"approach-retreat\",\"138\",\"954161\",\"0.0-138.0\",\"\",\"\",\"3-1\",\"4041\",\"38\",\"1\",\"Training\",\"Stims/Figures/27-J-0-1.bmp\",\"fafava\",\"Up\",\"38\",\"9\",\"7\",\"9\",\"C1\",\"C\",\"135\"
\"\",\"\",\"approach-retreat\",\"139\",\"959961\",\"0.0-139.0\",\"\",\"\",\"3-1\",\"4292\",\"40\",\"1\",\"Training\",\"Stims/Figures/27-C-30-1.bmp\",\"mamala\",\"Up\",\"40\",\"9\",\"8\",\"9\",\"S\",\"C\",\"136\"
\"\",\"\",\"approach-retreat\",\"140\",\"965845\",\"0.0-140.0\",\"\",\"\",\"3-1\",\"4377\",\"37\",\"1\",\"Training\",\"Stims/Figures/128-C-30-3.bmp\",\"pa:ka:ka\",\"Right\",\"37\",\"9\",\"9\",\"9\",\"P\",\"C\",\"137\"
\"\",\"\",\"approach-retreat\",\"141\",\"971476\",\"0.0-141.0\",\"\",\"\",\"3-1\",\"4123\",\"39\",\"1\",\"Training\",\"Stims/Figures/84-C-20-2.bmp\",\"sa:sa:ha\",\"Left\",\"39\",\"9\",\"10\",\"9\",\"C2\",\"C\",\"138\"
\"\",\"\",\"approach-retreat\",\"142\",\"977054\",\"0.0-142.0\",\"\",\"\",\"3-1\",\"4074\",\"37\",\"1\",\"Training\",\"Stims/Figures/111-C-30-3.bmp\",\"paka:ta\",\"Right\",\"37\",\"9\",\"11\",\"9\",\"P\",\"C\",\"139\"
\"\",\"\",\"approach-retreat\",\"143\",\"982864\",\"0.0-143.0\",\"\",\"\",\"3-1\",\"4303\",\"40\",\"0\",\"Training\",\"Stims/Figures/118-C-20-2.bmp\",\"nalala\",\"Down\",\"38\",\"9\",\"12\",\"9\",\"S\",\"C\",\"140\"
\"\",\"\",\"approach-retreat\",\"144\",\"988313\",\"0.0-144.0\",\"\",\"\",\"3-1\",\"3942\",\"38\",\"1\",\"Training\",\"Stims/Figures/74-C-20-4.bmp\",\"ma:lana\",\"Down\",\"38\",\"9\",\"13\",\"9\",\"S\",\"C\",\"141\"
\"\",\"\",\"approach-retreat\",\"145\",\"993955\",\"0.0-145.0\",\"\",\"\",\"3-1\",\"4134\",\"40\",\"1\",\"Training\",\"Stims/Figures/102-C-20-4.bmp\",\"za:haza\",\"Up\",\"40\",\"9\",\"14\",\"9\",\"C2\",\"C\",\"142\"
\"\",\"\",\"approach-retreat\",\"146\",\"999519\",\"0.0-146.0\",\"\",\"\",\"3-1\",\"4057\",\"37\",\"1\",\"Training\",\"Stims/Figures/102-J-10-4.bmp\",\"pa:pata\",\"Left\",\"37\",\"9\",\"15\",\"9\",\"P\",\"C\",\"143\"
\"\",\"\",\"approach-retreat\",\"147\",\"1005253\",\"0.0-147.0\",\"\",\"\",\"3-1\",\"4225\",\"39\",\"1\",\"Training\",\"Stims/Figures/71-C-30-1.bmp\",\"sasaha\",\"Left\",\"39\",\"9\",\"16\",\"9\",\"C2\",\"C\",\"144\"
\"9373\",\"\",\"instructions\",\"148\",\"1014626\",\"0.0-148.0\",\"[{\"\"page_index\"\":0,\"\"viewing_time\"\":9372}]\",\"\",\"\",\"\",\"\",\"\",\"\",\"\",\"\",\"\",\"\",\"\",\"\",\"\",\"\",\"\",\"\"
\"\",\"\",\"approach-retreat\",\"149\",\"1020526\",\"0.0-149.0\",\"\",\"\",\"3-1\",\"4395\",\"39\",\"1\",\"Testing\",\"Stims/Figures/118-J-0-2.bmp\",\"namala\",\"Right\",\"39\",\"1\",\"1\",\"9\",\"S\",\"C\",\"1\"
\"\",\"\",\"approach-retreat\",\"150\",\"1026281\",\"0.0-150.0\",\"\",\"\",\"3-1\",\"4249\",\"37\",\"1\",\"Testing\",\"Stims/Figures/27-C-30-1.bmp\",\"mamala\",\"Right\",\"37\",\"1\",\"2\",\"9\",\"S\",\"C\",\"2\"
\"\",\"\",\"approach-retreat\",\"151\",\"1031919\",\"0.0-151.0\",\"\",\"\",\"3-1\",\"4133\",\"40\",\"1\",\"Testing\",\"Stims/Figures/44-J-10-3.bmp\",\"fafa:sha\",\"Down\",\"40\",\"1\",\"3\",\"9\",\"C1\",\"C\",\"3\"
\"\",\"\",\"approach-retreat\",\"152\",\"1037628\",\"0.0-152.0\",\"\",\"\",\"3-1\",\"4204\",\"38\",\"1\",\"Testing\",\"Stims/Figures/86-J-0-1.bmp\",\"nama:la\",\"Up\",\"38\",\"1\",\"4\",\"9\",\"S\",\"C\",\"4\"
\"\",\"\",\"approach-retreat\",\"153\",\"1043370\",\"0.0-153.0\",\"\",\"\",\"3-1\",\"4236\",\"39\",\"1\",\"Testing\",\"Stims/Figures/87-C-20-4.bmp\",\"sa:saha\",\"Left\",\"39\",\"1\",\"5\",\"9\",\"C2\",\"C\",\"5\"
\"\",\"\",\"approach-retreat\",\"154\",\"1048920\",\"0.0-154.0\",\"\",\"\",\"3-1\",\"4044\",\"37\",\"1\",\"Testing\",\"Stims/Figures/27-J-0-1.bmp\",\"fafava\",\"Left\",\"37\",\"1\",\"6\",\"9\",\"C1\",\"C\",\"6\"
\"\",\"\",\"approach-retreat\",\"155\",\"1054454\",\"0.0-155.0\",\"\",\"\",\"3-1\",\"4027\",\"37\",\"1\",\"Testing\",\"Stims/Figures/84-J-0-2.bmp\",\"fashasha\",\"Left\",\"37\",\"1\",\"7\",\"9\",\"C1\",\"C\",\"7\"
\"\",\"\",\"approach-retreat\",\"156\",\"1063194\",\"0.0-156.0\",\"\",\"\",\"3-1\",\"7233\",\"40\",\"1\",\"Testing\",\"Stims/Figures/128-J-10-3.bmp\",\"ta:kaka\",\"Down\",\"40\",\"1\",\"8\",\"9\",\"P\",\"C\",\"8\"
\"\",\"\",\"approach-retreat\",\"157\",\"1068958\",\"0.0-157.0\",\"\",\"\",\"3-1\",\"4258\",\"37\",\"1\",\"Testing\",\"Stims/Figures/71-C-30-1.bmp\",\"sasaha\",\"Right\",\"37\",\"1\",\"9\",\"9\",\"C2\",\"C\",\"9\"
\"\",\"\",\"approach-retreat\",\"158\",\"1074914\",\"0.0-158.0\",\"\",\"\",\"3-1\",\"4449\",\"38\",\"1\",\"Testing\",\"Stims/Figures/128-C-30-3.bmp\",\"pa:ka:ka\",\"Down\",\"38\",\"1\",\"10\",\"9\",\"P\",\"C\",\"10\"
\"\",\"\",\"approach-retreat\",\"159\",\"1080967\",\"0.0-159.0\",\"\",\"\",\"3-1\",\"4547\",\"38\",\"1\",\"Testing\",\"Stims/Figures/84-C-20-2.bmp\",\"sa:sa:ha\",\"Down\",\"38\",\"1\",\"11\",\"9\",\"C2\",\"C\",\"11\"
\"\",\"\",\"approach-retreat\",\"160\",\"1086917\",\"0.0-160.0\",\"\",\"\",\"3-1\",\"4443\",\"40\",\"0\",\"Testing\",\"Stims/Figures/102-J-10-4.bmp\",\"pa:pata\",\"Up\",\"38\",\"1\",\"12\",\"9\",\"P\",\"C\",\"12\"
\"\",\"\",\"approach-retreat\",\"161\",\"1092575\",\"0.0-161.0\",\"\",\"\",\"3-1\",\"4151\",\"39\",\"0\",\"Testing\",\"Stims/Figures/85-J-0-2.bmp\",\"malala\",\"Left\",\"37\",\"1\",\"13\",\"9\",\"S\",\"C\",\"13\"
\"\",\"\",\"approach-retreat\",\"162\",\"1098271\",\"0.0-162.0\",\"\",\"\",\"3-1\",\"4188\",\"38\",\"1\",\"Testing\",\"Stims/Figures/85-C-20-2.bmp\",\"vafa:va\",\"Down\",\"38\",\"1\",\"14\",\"9\",\"C1\",\"C\",\"14\"
\"\",\"\",\"approach-retreat\",\"163\",\"1104491\",\"0.0-163.0\",\"\",\"\",\"3-1\",\"4715\",\"40\",\"1\",\"Testing\",\"Stims/Figures/86-C-30-1.bmp\",\"sahaza\",\"Up\",\"40\",\"1\",\"15\",\"9\",\"C2\",\"C\",\"15\"
\"\",\"\",\"approach-retreat\",\"164\",\"1110320\",\"0.0-164.0\",\"\",\"\",\"3-1\",\"4324\",\"39\",\"1\",\"Testing\",\"Stims/Figures/111-C-30-3.bmp\",\"paka:ta\",\"Left\",\"39\",\"1\",\"16\",\"9\",\"P\",\"C\",\"16\"
\"\",\"\",\"approach-retreat\",\"165\",\"1116081\",\"0.0-165.0\",\"\",\"\",\"3-1\",\"4253\",\"38\",\"1\",\"Testing\",\"Stims/Figures/44-C-30-3.bmp\",\"taka:ka\",\"Down\",\"38\",\"1\",\"17\",\"9\",\"P\",\"C\",\"17\"
\"\",\"\",\"approach-retreat\",\"166\",\"1122986\",\"0.0-166.0\",\"\",\"\",\"3-1\",\"5399\",\"37\",\"0\",\"Testing\",\"Stims/Figures/87-J-10-4.bmp\",\"va:fa:sha\",\"Right\",\"39\",\"1\",\"18\",\"9\",\"C1\",\"C\",\"18\"
\"\",\"\",\"approach-retreat\",\"167\",\"1128755\",\"0.0-167.0\",\"\",\"\",\"3-1\",\"4257\",\"38\",\"1\",\"Testing\",\"Stims/Figures/74-J-10-4.bmp\",\"na:mala\",\"Up\",\"38\",\"1\",\"19\",\"9\",\"S\",\"C\",\"19\"
\"\",\"\",\"approach-retreat\",\"168\",\"1134437\",\"0.0-168.0\",\"\",\"\",\"3-1\",\"4170\",\"38\",\"1\",\"Testing\",\"Stims/Figures/71-J-0-1.bmp\",\"ta:pata\",\"Up\",\"38\",\"1\",\"20\",\"9\",\"P\",\"C\",\"20\"
\"\",\"\",\"approach-retreat\",\"169\",\"1140016\",\"0.0-169.0\",\"\",\"\",\"3-1\",\"4071\",\"37\",\"1\",\"Testing\",\"Stims/Figures/102-C-20-4.bmp\",\"za:haza\",\"Right\",\"37\",\"1\",\"21\",\"9\",\"C2\",\"C\",\"21\"
\"\",\"\",\"approach-retreat\",\"170\",\"1145996\",\"0.0-170.0\",\"\",\"\",\"3-1\",\"4474\",\"39\",\"1\",\"Testing\",\"Stims/Figures/74-C-20-4.bmp\",\"ma:lana\",\"Left\",\"39\",\"1\",\"22\",\"9\",\"S\",\"C\",\"22\"
\"\",\"\",\"approach-retreat\",\"171\",\"1151960\",\"0.0-171.0\",\"\",\"\",\"3-1\",\"4459\",\"40\",\"1\",\"Testing\",\"Stims/Figures/118-C-20-2.bmp\",\"nalala\",\"Up\",\"40\",\"1\",\"23\",\"9\",\"S\",\"C\",\"23\"
\"\",\"\",\"approach-retreat\",\"172\",\"1158189\",\"0.0-172.0\",\"\",\"\",\"3-1\",\"4724\",\"39\",\"1\",\"Testing\",\"Stims/Figures/111-J-10-3.bmp\",\"tapa:ka\",\"Right\",\"39\",\"1\",\"24\",\"9\",\"P\",\"C\",\"24\"
\"\",\"\",\"approach-retreat\",\"173\",\"1164186\",\"0.0-173.0\",\"\",\"\",\"3-1\",\"4490\",\"40\",\"1\",\"Testing\",\"Stims/Figures/71-C-30-1.bmp\",\"sasaha\",\"Up\",\"40\",\"2\",\"1\",\"9\",\"C2\",\"C\",\"25\"
\"\",\"\",\"approach-retreat\",\"174\",\"1170675\",\"0.0-174.0\",\"\",\"\",\"3-1\",\"4979\",\"37\",\"1\",\"Testing\",\"Stims/Figures/111-J-10-3.bmp\",\"tapa:ka\",\"Left\",\"37\",\"2\",\"2\",\"9\",\"P\",\"C\",\"26\"
\"\",\"\",\"approach-retreat\",\"175\",\"1176828\",\"0.0-175.0\",\"\",\"\",\"3-1\",\"4647\",\"39\",\"1\",\"Testing\",\"Stims/Figures/74-J-10-4.bmp\",\"na:mala\",\"Right\",\"39\",\"2\",\"3\",\"9\",\"S\",\"C\",\"27\"
\"\",\"\",\"approach-retreat\",\"176\",\"1183472\",\"0.0-176.0\",\"\",\"\",\"3-1\",\"5136\",\"37\",\"1\",\"Testing\",\"Stims/Figures/102-J-10-4.bmp\",\"pa:pata\",\"Left\",\"37\",\"2\",\"4\",\"9\",\"P\",\"C\",\"28\"
\"\",\"\",\"approach-retreat\",\"177\",\"1189907\",\"0.0-177.0\",\"\",\"\",\"3-1\",\"4930\",\"39\",\"1\",\"Testing\",\"Stims/Figures/27-J-0-1.bmp\",\"fafava\",\"Right\",\"39\",\"2\",\"5\",\"9\",\"C1\",\"C\",\"29\"
\"\",\"\",\"approach-retreat\",\"178\",\"1196446\",\"0.0-178.0\",\"\",\"\",\"3-1\",\"5031\",\"38\",\"1\",\"Testing\",\"Stims/Figures/85-C-20-2.bmp\",\"vafa:va\",\"Down\",\"38\",\"2\",\"6\",\"9\",\"C1\",\"C\",\"30\"
\"\",\"\",\"approach-retreat\",\"179\",\"1202340\",\"0.0-179.0\",\"\",\"\",\"3-1\",\"4390\",\"39\",\"1\",\"Testing\",\"Stims/Figures/86-J-0-1.bmp\",\"nama:la\",\"Right\",\"39\",\"2\",\"7\",\"9\",\"S\",\"C\",\"31\"
\"\",\"\",\"approach-retreat\",\"180\",\"1208097\",\"0.0-180.0\",\"\",\"\",\"3-1\",\"4252\",\"38\",\"1\",\"Testing\",\"Stims/Figures/27-C-30-1.bmp\",\"mamala\",\"Down\",\"38\",\"2\",\"8\",\"9\",\"S\",\"C\",\"32\"
\"\",\"\",\"approach-retreat\",\"181\",\"1214010\",\"0.0-181.0\",\"\",\"\",\"3-1\",\"4408\",\"37\",\"1\",\"Testing\",\"Stims/Figures/71-J-0-1.bmp\",\"ta:pata\",\"Left\",\"37\",\"2\",\"9\",\"9\",\"P\",\"C\",\"33\"
\"\",\"\",\"approach-retreat\",\"182\",\"1219821\",\"0.0-182.0\",\"\",\"\",\"3-1\",\"4305\",\"37\",\"1\",\"Testing\",\"Stims/Figures/118-J-0-2.bmp\",\"namala\",\"Left\",\"37\",\"2\",\"10\",\"9\",\"S\",\"C\",\"34\"
\"\",\"\",\"approach-retreat\",\"183\",\"1226291\",\"0.0-183.0\",\"\",\"\",\"3-1\",\"4965\",\"37\",\"1\",\"Testing\",\"Stims/Figures/85-J-0-2.bmp\",\"malala\",\"Left\",\"37\",\"2\",\"11\",\"9\",\"S\",\"C\",\"35\"
\"\",\"\",\"approach-retreat\",\"184\",\"1232241\",\"0.0-184.0\",\"\",\"\",\"3-1\",\"4443\",\"37\",\"0\",\"Testing\",\"Stims/Figures/128-J-10-3.bmp\",\"ta:kaka\",\"Right\",\"39\",\"2\",\"12\",\"9\",\"P\",\"C\",\"36\"
\"\",\"\",\"approach-retreat\",\"185\",\"1238357\",\"0.0-185.0\",\"\",\"\",\"3-1\",\"4610\",\"39\",\"1\",\"Testing\",\"Stims/Figures/74-C-20-4.bmp\",\"ma:lana\",\"Left\",\"39\",\"2\",\"13\",\"9\",\"S\",\"C\",\"37\"
\"\",\"\",\"approach-retreat\",\"186\",\"1244478\",\"0.0-186.0\",\"\",\"\",\"3-1\",\"4617\",\"40\",\"1\",\"Testing\",\"Stims/Figures/102-C-20-4.bmp\",\"za:haza\",\"Up\",\"40\",\"2\",\"14\",\"9\",\"C2\",\"C\",\"38\"
\"\",\"\",\"approach-retreat\",\"187\",\"1250554\",\"0.0-187.0\",\"\",\"\",\"3-1\",\"4569\",\"40\",\"0\",\"Testing\",\"Stims/Figures/87-J-10-4.bmp\",\"va:fa:sha\",\"Up\",\"38\",\"2\",\"15\",\"9\",\"C1\",\"C\",\"39\"
\"\",\"\",\"approach-retreat\",\"188\",\"1256228\",\"0.0-188.0\",\"\",\"\",\"3-1\",\"4168\",\"37\",\"1\",\"Testing\",\"Stims/Figures/86-C-30-1.bmp\",\"sahaza\",\"Right\",\"37\",\"2\",\"16\",\"9\",\"C2\",\"C\",\"40\"
\"\",\"\",\"approach-retreat\",\"189\",\"1261889\",\"0.0-189.0\",\"\",\"\",\"3-1\",\"4155\",\"38\",\"1\",\"Testing\",\"Stims/Figures/44-C-30-3.bmp\",\"taka:ka\",\"Down\",\"38\",\"2\",\"17\",\"9\",\"P\",\"C\",\"41\"
\"\",\"\",\"approach-retreat\",\"190\",\"1267832\",\"0.0-190.0\",\"\",\"\",\"3-1\",\"4437\",\"37\",\"1\",\"Testing\",\"Stims/Figures/128-C-30-3.bmp\",\"pa:ka:ka\",\"Right\",\"37\",\"2\",\"18\",\"9\",\"P\",\"C\",\"42\"
\"\",\"\",\"approach-retreat\",\"191\",\"1273460\",\"0.0-191.0\",\"\",\"\",\"3-1\",\"4122\",\"38\",\"1\",\"Testing\",\"Stims/Figures/84-J-0-2.bmp\",\"fashasha\",\"Up\",\"38\",\"2\",\"19\",\"9\",\"C1\",\"C\",\"43\"
\"\",\"\",\"approach-retreat\",\"192\",\"1279339\",\"0.0-192.0\",\"\",\"\",\"3-1\",\"4374\",\"38\",\"1\",\"Testing\",\"Stims/Figures/84-C-20-2.bmp\",\"sa:sa:ha\",\"Down\",\"38\",\"2\",\"20\",\"9\",\"C2\",\"C\",\"44\"
\"\",\"\",\"approach-retreat\",\"193\",\"1285270\",\"0.0-193.0\",\"\",\"\",\"3-1\",\"4426\",\"38\",\"1\",\"Testing\",\"Stims/Figures/87-C-20-4.bmp\",\"sa:saha\",\"Down\",\"38\",\"2\",\"21\",\"9\",\"C2\",\"C\",\"45\"
\"\",\"\",\"approach-retreat\",\"194\",\"1291357\",\"0.0-194.0\",\"\",\"\",\"3-1\",\"4581\",\"40\",\"1\",\"Testing\",\"Stims/Figures/44-J-10-3.bmp\",\"fafa:sha\",\"Down\",\"40\",\"2\",\"22\",\"9\",\"C1\",\"C\",\"46\"
\"\",\"\",\"approach-retreat\",\"195\",\"1298053\",\"0.0-195.0\",\"\",\"\",\"3-1\",\"5191\",\"40\",\"1\",\"Testing\",\"Stims/Figures/118-C-20-2.bmp\",\"nalala\",\"Up\",\"40\",\"2\",\"23\",\"9\",\"S\",\"C\",\"47\"
\"\",\"\",\"approach-retreat\",\"196\",\"1303641\",\"0.0-196.0\",\"\",\"\",\"3-1\",\"4083\",\"40\",\"1\",\"Testing\",\"Stims/Figures/111-C-30-3.bmp\",\"paka:ta\",\"Up\",\"40\",\"2\",\"24\",\"9\",\"P\",\"C\",\"48\"
\"\",\"\",\"approach-retreat\",\"197\",\"1309318\",\"0.0-197.0\",\"\",\"\",\"3-1\",\"4172\",\"37\",\"1\",\"Testing\",\"Stims/Figures/74-C-20-4.bmp\",\"ma:lana\",\"Right\",\"37\",\"3\",\"1\",\"9\",\"S\",\"C\",\"49\"
\"\",\"\",\"approach-retreat\",\"198\",\"1315001\",\"0.0-198.0\",\"\",\"\",\"3-1\",\"4178\",\"37\",\"1\",\"Testing\",\"Stims/Figures/44-J-10-3.bmp\",\"fafa:sha\",\"Left\",\"37\",\"3\",\"2\",\"9\",\"C1\",\"C\",\"50\"
\"\",\"\",\"approach-retreat\",\"199\",\"1320916\",\"0.0-199.0\",\"\",\"\",\"3-1\",\"4409\",\"39\",\"1\",\"Testing\",\"Stims/Figures/128-C-30-3.bmp\",\"pa:ka:ka\",\"Left\",\"39\",\"3\",\"3\",\"9\",\"P\",\"C\",\"51\"
\"\",\"\",\"approach-retreat\",\"200\",\"1326480\",\"0.0-200.0\",\"\",\"\",\"3-1\",\"4058\",\"38\",\"1\",\"Testing\",\"Stims/Figures/86-C-30-1.bmp\",\"sahaza\",\"Down\",\"38\",\"3\",\"4\",\"9\",\"C2\",\"C\",\"52\"
\"\",\"\",\"approach-retreat\",\"201\",\"1332149\",\"0.0-201.0\",\"\",\"\",\"3-1\",\"4163\",\"37\",\"1\",\"Testing\",\"Stims/Figures/84-C-20-2.bmp\",\"sa:sa:ha\",\"Right\",\"37\",\"3\",\"5\",\"9\",\"C2\",\"C\",\"53\"
\"\",\"\",\"approach-retreat\",\"202\",\"1338153\",\"0.0-202.0\",\"\",\"\",\"3-1\",\"4499\",\"40\",\"1\",\"Testing\",\"Stims/Figures/128-J-10-3.bmp\",\"ta:kaka\",\"Down\",\"40\",\"3\",\"6\",\"9\",\"P\",\"C\",\"54\"
\"\",\"\",\"approach-retreat\",\"203\",\"1344035\",\"0.0-203.0\",\"\",\"\",\"3-1\",\"4377\",\"37\",\"1\",\"Testing\",\"Stims/Figures/118-J-0-2.bmp\",\"namala\",\"Left\",\"37\",\"3\",\"7\",\"9\",\"S\",\"C\",\"55\"
\"\",\"\",\"approach-retreat\",\"204\",\"1350284\",\"0.0-204.0\",\"\",\"\",\"3-1\",\"4743\",\"38\",\"1\",\"Testing\",\"Stims/Figures/111-J-10-3.bmp\",\"tapa:ka\",\"Up\",\"38\",\"3\",\"8\",\"9\",\"P\",\"C\",\"56\"
\"\",\"\",\"approach-retreat\",\"205\",\"1356056\",\"0.0-205.0\",\"\",\"\",\"3-1\",\"4268\",\"38\",\"1\",\"Testing\",\"Stims/Figures/71-J-0-1.bmp\",\"ta:pata\",\"Up\",\"38\",\"3\",\"9\",\"9\",\"P\",\"C\",\"57\"
\"\",\"\",\"approach-retreat\",\"206\",\"1363083\",\"0.0-206.0\",\"\",\"\",\"3-1\",\"5522\",\"37\",\"1\",\"Testing\",\"Stims/Figures/87-C-20-4.bmp\",\"sa:saha\",\"Right\",\"37\",\"3\",\"10\",\"9\",\"C2\",\"C\",\"58\"
\"\",\"\",\"approach-retreat\",\"207\",\"1369042\",\"0.0-207.0\",\"\",\"\",\"3-1\",\"4453\",\"38\",\"1\",\"Testing\",\"Stims/Figures/85-J-0-2.bmp\",\"malala\",\"Up\",\"38\",\"3\",\"11\",\"9\",\"S\",\"C\",\"59\"
\"\",\"\",\"approach-retreat\",\"208\",\"1375384\",\"0.0-208.0\",\"\",\"\",\"3-1\",\"4837\",\"39\",\"1\",\"Testing\",\"Stims/Figures/74-J-10-4.bmp\",\"na:mala\",\"Right\",\"39\",\"3\",\"12\",\"9\",\"S\",\"C\",\"60\"
\"\",\"\",\"approach-retreat\",\"209\",\"1382388\",\"0.0-209.0\",\"\",\"\",\"3-1\",\"5499\",\"40\",\"1\",\"Testing\",\"Stims/Figures/27-C-30-1.bmp\",\"mamala\",\"Up\",\"40\",\"3\",\"13\",\"9\",\"S\",\"C\",\"61\"
\"\",\"\",\"approach-retreat\",\"210\",\"1388539\",\"0.0-210.0\",\"\",\"\",\"3-1\",\"4645\",\"40\",\"1\",\"Testing\",\"Stims/Figures/84-J-0-2.bmp\",\"fashasha\",\"Down\",\"40\",\"3\",\"14\",\"9\",\"C1\",\"C\",\"62\"
\"\",\"\",\"approach-retreat\",\"211\",\"1394636\",\"0.0-211.0\",\"\",\"\",\"3-1\",\"4592\",\"39\",\"1\",\"Testing\",\"Stims/Figures/102-C-20-4.bmp\",\"za:haza\",\"Left\",\"39\",\"3\",\"15\",\"9\",\"C2\",\"C\",\"63\"
\"\",\"\",\"approach-retreat\",\"212\",\"1400924\",\"0.0-212.0\",\"\",\"\",\"3-1\",\"4783\",\"38\",\"1\",\"Testing\",\"Stims/Figures/85-C-20-2.bmp\",\"vafa:va\",\"Down\",\"38\",\"3\",\"16\",\"9\",\"C1\",\"C\",\"64\"
\"\",\"\",\"approach-retreat\",\"213\",\"1406756\",\"0.0-213.0\",\"\",\"\",\"3-1\",\"4326\",\"40\",\"0\",\"Testing\",\"Stims/Figures/87-J-10-4.bmp\",\"va:fa:sha\",\"Up\",\"38\",\"3\",\"17\",\"9\",\"C1\",\"C\",\"65\"
\"\",\"\",\"approach-retreat\",\"214\",\"1412532\",\"0.0-214.0\",\"\",\"\",\"3-1\",\"4271\",\"40\",\"1\",\"Testing\",\"Stims/Figures/102-J-10-4.bmp\",\"pa:pata\",\"Down\",\"40\",\"3\",\"18\",\"9\",\"P\",\"C\",\"66\"
\"\",\"\",\"approach-retreat\",\"215\",\"1420644\",\"0.0-215.0\",\"\",\"\",\"3-1\",\"6607\",\"37\",\"1\",\"Testing\",\"Stims/Figures/118-C-20-2.bmp\",\"nalala\",\"Right\",\"37\",\"3\",\"19\",\"9\",\"S\",\"C\",\"67\"
\"\",\"\",\"approach-retreat\",\"216\",\"1427659\",\"0.0-216.0\",\"\",\"\",\"3-1\",\"5509\",\"40\",\"1\",\"Testing\",\"Stims/Figures/44-C-30-3.bmp\",\"taka:ka\",\"Up\",\"40\",\"3\",\"20\",\"9\",\"P\",\"C\",\"68\"
\"\",\"\",\"approach-retreat\",\"217\",\"1433619\",\"0.0-217.0\",\"\",\"\",\"3-1\",\"4453\",\"37\",\"1\",\"Testing\",\"Stims/Figures/111-C-30-3.bmp\",\"paka:ta\",\"Right\",\"37\",\"3\",\"21\",\"9\",\"P\",\"C\",\"69\"
\"\",\"\",\"approach-retreat\",\"218\",\"1439357\",\"0.0-218.0\",\"\",\"\",\"3-1\",\"4233\",\"37\",\"1\",\"Testing\",\"Stims/Figures/27-J-0-1.bmp\",\"fafava\",\"Left\",\"37\",\"3\",\"22\",\"9\",\"C1\",\"C\",\"70\"
\"\",\"\",\"approach-retreat\",\"219\",\"1445565\",\"0.0-219.0\",\"\",\"\",\"3-1\",\"4703\",\"38\",\"1\",\"Testing\",\"Stims/Figures/71-C-30-1.bmp\",\"sasaha\",\"Down\",\"38\",\"3\",\"23\",\"9\",\"C2\",\"C\",\"71\"
\"\",\"\",\"approach-retreat\",\"220\",\"1451287\",\"0.0-220.0\",\"\",\"\",\"3-1\",\"4216\",\"37\",\"1\",\"Testing\",\"Stims/Figures/86-J-0-1.bmp\",\"nama:la\",\"Left\",\"37\",\"3\",\"24\",\"9\",\"S\",\"C\",\"72\"
\"\",\"\",\"approach-retreat\",\"221\",\"1456941\",\"0.0-221.0\",\"\",\"\",\"3-1\",\"4147\",\"40\",\"1\",\"Testing\",\"Stims/Figures/71-C-30-1.bmp\",\"sasaha\",\"Up\",\"40\",\"4\",\"1\",\"9\",\"C2\",\"C\",\"73\"
\"\",\"\",\"approach-retreat\",\"222\",\"1462543\",\"0.0-222.0\",\"\",\"\",\"3-1\",\"4095\",\"37\",\"1\",\"Testing\",\"Stims/Figures/102-J-10-4.bmp\",\"pa:pata\",\"Left\",\"37\",\"4\",\"2\",\"9\",\"P\",\"C\",\"74\"
\"\",\"\",\"approach-retreat\",\"223\",\"1468344\",\"0.0-223.0\",\"\",\"\",\"3-1\",\"4295\",\"37\",\"1\",\"Testing\",\"Stims/Figures/71-J-0-1.bmp\",\"ta:pata\",\"Left\",\"37\",\"4\",\"3\",\"9\",\"P\",\"C\",\"75\"
\"\",\"\",\"approach-retreat\",\"224\",\"1474831\",\"0.0-224.0\",\"\",\"\",\"3-1\",\"4979\",\"39\",\"1\",\"Testing\",\"Stims/Figures/74-J-10-4.bmp\",\"na:mala\",\"Right\",\"39\",\"4\",\"4\",\"9\",\"S\",\"C\",\"76\"
\"\",\"\",\"approach-retreat\",\"225\",\"1480808\",\"0.0-225.0\",\"\",\"\",\"3-1\",\"4473\",\"40\",\"1\",\"Testing\",\"Stims/Figures/111-C-30-3.bmp\",\"paka:ta\",\"Up\",\"40\",\"4\",\"5\",\"9\",\"P\",\"C\",\"77\"
\"\",\"\",\"approach-retreat\",\"226\",\"1488090\",\"0.0-226.0\",\"\",\"\",\"3-1\",\"5775\",\"37\",\"1\",\"Testing\",\"Stims/Figures/118-C-20-2.bmp\",\"nalala\",\"Right\",\"37\",\"4\",\"6\",\"9\",\"S\",\"C\",\"78\"
\"\",\"\",\"approach-retreat\",\"227\",\"1494154\",\"0.0-227.0\",\"\",\"\",\"3-1\",\"4558\",\"40\",\"1\",\"Testing\",\"Stims/Figures/84-J-0-2.bmp\",\"fashasha\",\"Down\",\"40\",\"4\",\"7\",\"9\",\"C1\",\"C\",\"79\"
\"\",\"\",\"approach-retreat\",\"228\",\"1499688\",\"0.0-228.0\",\"\",\"\",\"3-1\",\"4029\",\"37\",\"1\",\"Testing\",\"Stims/Figures/128-C-30-3.bmp\",\"pa:ka:ka\",\"Right\",\"37\",\"4\",\"8\",\"9\",\"P\",\"C\",\"80\"
\"\",\"\",\"approach-retreat\",\"229\",\"1506482\",\"0.0-229.0\",\"\",\"\",\"3-1\",\"5288\",\"40\",\"1\",\"Testing\",\"Stims/Figures/111-J-10-3.bmp\",\"tapa:ka\",\"Down\",\"40\",\"4\",\"9\",\"9\",\"P\",\"C\",\"81\"
\"\",\"\",\"approach-retreat\",\"230\",\"1512455\",\"0.0-230.0\",\"\",\"\",\"3-1\",\"4468\",\"38\",\"1\",\"Testing\",\"Stims/Figures/128-J-10-3.bmp\",\"ta:kaka\",\"Up\",\"38\",\"4\",\"10\",\"9\",\"P\",\"C\",\"82\"
\"\",\"\",\"approach-retreat\",\"231\",\"1519503\",\"0.0-231.0\",\"\",\"\",\"3-1\",\"5541\",\"37\",\"1\",\"Testing\",\"Stims/Figures/44-J-10-3.bmp\",\"fafa:sha\",\"Left\",\"37\",\"4\",\"11\",\"9\",\"C1\",\"C\",\"83\"
\"\",\"\",\"approach-retreat\",\"232\",\"1525111\",\"0.0-232.0\",\"\",\"\",\"3-1\",\"4102\",\"39\",\"1\",\"Testing\",\"Stims/Figures/74-C-20-4.bmp\",\"ma:lana\",\"Left\",\"39\",\"4\",\"12\",\"9\",\"S\",\"C\",\"84\"
\"\",\"\",\"approach-retreat\",\"233\",\"1540015\",\"0.0-233.0\",\"\",\"\",\"3-1\",\"13399\",\"39\",\"1\",\"Testing\",\"Stims/Figures/27-C-30-1.bmp\",\"mamala\",\"Left\",\"39\",\"4\",\"13\",\"9\",\"S\",\"C\",\"85\"
\"\",\"\",\"approach-retreat\",\"234\",\"1546460\",\"0.0-234.0\",\"\",\"\",\"3-1\",\"4940\",\"40\",\"1\",\"Testing\",\"Stims/Figures/84-C-20-2.bmp\",\"sa:sa:ha\",\"Up\",\"40\",\"4\",\"14\",\"9\",\"C2\",\"C\",\"86\"
\"\",\"\",\"approach-retreat\",\"235\",\"1552390\",\"0.0-235.0\",\"\",\"\",\"3-1\",\"4424\",\"40\",\"1\",\"Testing\",\"Stims/Figures/85-J-0-2.bmp\",\"malala\",\"Down\",\"40\",\"4\",\"15\",\"9\",\"S\",\"C\",\"87\"
\"\",\"\",\"approach-retreat\",\"236\",\"1558483\",\"0.0-236.0\",\"\",\"\",\"3-1\",\"4587\",\"40\",\"1\",\"Testing\",\"Stims/Figures/86-C-30-1.bmp\",\"sahaza\",\"Up\",\"40\",\"4\",\"16\",\"9\",\"C2\",\"C\",\"88\"
\"\",\"\",\"approach-retreat\",\"237\",\"1564154\",\"0.0-237.0\",\"\",\"\",\"3-1\",\"4167\",\"39\",\"1\",\"Testing\",\"Stims/Figures/87-C-20-4.bmp\",\"sa:saha\",\"Left\",\"39\",\"4\",\"17\",\"9\",\"C2\",\"C\",\"89\"
\"\",\"\",\"approach-retreat\",\"238\",\"1570358\",\"0.0-238.0\",\"\",\"\",\"3-1\",\"4696\",\"37\",\"0\",\"Testing\",\"Stims/Figures/87-J-10-4.bmp\",\"va:fa:sha\",\"Right\",\"39\",\"4\",\"18\",\"9\",\"C1\",\"C\",\"90\"
\"\",\"\",\"approach-retreat\",\"239\",\"1576387\",\"0.0-239.0\",\"\",\"\",\"3-1\",\"4524\",\"40\",\"1\",\"Testing\",\"Stims/Figures/86-J-0-1.bmp\",\"nama:la\",\"Down\",\"40\",\"4\",\"19\",\"9\",\"S\",\"C\",\"91\"
\"\",\"\",\"approach-retreat\",\"240\",\"1582639\",\"0.0-240.0\",\"\",\"\",\"3-1\",\"4745\",\"40\",\"1\",\"Testing\",\"Stims/Figures/102-C-20-4.bmp\",\"za:haza\",\"Up\",\"40\",\"4\",\"20\",\"9\",\"C2\",\"C\",\"92\"
\"\",\"\",\"approach-retreat\",\"241\",\"1588206\",\"0.0-241.0\",\"\",\"\",\"3-1\",\"4063\",\"39\",\"1\",\"Testing\",\"Stims/Figures/118-J-0-2.bmp\",\"namala\",\"Right\",\"39\",\"4\",\"21\",\"9\",\"S\",\"C\",\"93\"
\"\",\"\",\"approach-retreat\",\"242\",\"1593987\",\"0.0-242.0\",\"\",\"\",\"3-1\",\"4274\",\"39\",\"1\",\"Testing\",\"Stims/Figures/27-J-0-1.bmp\",\"fafava\",\"Right\",\"39\",\"4\",\"22\",\"9\",\"C1\",\"C\",\"94\"
\"\",\"\",\"approach-retreat\",\"243\",\"1601130\",\"0.0-243.0\",\"\",\"\",\"3-1\",\"5637\",\"38\",\"1\",\"Testing\",\"Stims/Figures/44-C-30-3.bmp\",\"taka:ka\",\"Down\",\"38\",\"4\",\"23\",\"9\",\"P\",\"C\",\"95\"
\"\",\"\",\"approach-retreat\",\"244\",\"1606903\",\"0.0-244.0\",\"\",\"\",\"3-1\",\"4267\",\"38\",\"1\",\"Testing\",\"Stims/Figures/85-C-20-2.bmp\",\"vafa:va\",\"Down\",\"38\",\"4\",\"24\",\"9\",\"C1\",\"C\",\"96\"
\"30759\",\"\",\"survey-text\",\"245\",\"1637684\",\"0.0-245.0\",\"\",\"{\"\"Q0\"\":\"\"PS160091\"\"}\",\"\",\"\",\"\",\"\",\"\",\"\",\"\",\"\",\"\",\"\",\"\",\"\",\"\",\"\",\"\"
