\"rt\",\"key_press\",\"trial_type\",\"trial_index\",\"time_elapsed\",\"internal_node_id\",\"view_history\",\"responses\",\"Id\",\"Rt\",\"ResKeyCode\",\"ResCorr\",\"TrialType2\",\"Image\",\"Label\",\"Location\",\"CorrectResponse\",\"Block\",\"BlockTrial\",\"Condition\",\"LabelType\",\"Subcondition\",\"trialNum\"
\"11891\",\"32\",\"text\",\"0\",\"11897\",\"0.0-0.0-0.0\",\"\",\"\",\"\",\"\",\"\",\"\",\"\",\"\",\"\",\"\",\"\",\"\",\"\",\"\",\"\",\"\",\"\"
\"73972\",\"\",\"instructions\",\"1\",\"85873\",\"0.0-1.0\",\"[{\"\"page_index\"\":0,\"\"viewing_time\"\":73971}]\",\"\",\"\",\"\",\"\",\"\",\"\",\"\",\"\",\"\",\"\",\"\",\"\",\"\",\"\",\"\",\"\"
\"23217\",\"\",\"survey-multi-choice\",\"2\",\"109135\",\"0.0-2.0\",\"\",\"{\"\"Q0\"\":\"\"Da\"\",\"\"Q1\"\":\"\"Da\"\",\"\"Q2\"\":\"\"Da\"\",\"\"Q3\"\":\"\"Da\"\",\"\"Q4\"\":\"\"Da\"\",\"\"Q5\"\":\"\"Da\"\"}\",\"\",\"\",\"\",\"\",\"\",\"\",\"\",\"\",\"\",\"\",\"\",\"\",\"\",\"\",\"\"
\"\",\"\",\"bio\",\"3\",\"115940\",\"0.0-3.0\",\"\",\"{\"\"age\"\":\"\"21\"\",\"\"gender\"\":\"\"f\"\",\"\"specify\"\":\"\"\"\"}\",\"\",\"\",\"\",\"\",\"\",\"\",\"\",\"\",\"\",\"\",\"\",\"\",\"\",\"\",\"\"
\"\",\"\",\"approach-retreat\",\"4\",\"123967\",\"0.0-4.0\",\"\",\"\",\"3-1\",\"6521\",\"37\",\"1\",\"Training\",\"Stims/Figures/128-C-30-3.bmp\",\"sa:sa:ha\",\"Left\",\"37\",\"1\",\"1\",\"6A\",\"C2\",\"J\",\"1\"
\"\",\"\",\"approach-retreat\",\"5\",\"131192\",\"0.0-5.0\",\"\",\"\",\"3-1\",\"5711\",\"39\",\"1\",\"Training\",\"Stims/Figures/74-C-20-4.bmp\",\"zasa:ha\",\"Right\",\"39\",\"1\",\"2\",\"6A\",\"C2\",\"J\",\"2\"
\"\",\"\",\"approach-retreat\",\"6\",\"137015\",\"0.0-6.0\",\"\",\"\",\"3-1\",\"4310\",\"39\",\"0\",\"Training\",\"Stims/Figures/100-C-30-3.bmp\",\"zahaha\",\"Left\",\"37\",\"1\",\"3\",\"6A\",\"C2\",\"J\",\"3\"
\"\",\"\",\"approach-retreat\",\"7\",\"145119\",\"0.0-7.0\",\"\",\"\",\"3-1\",\"6594\",\"38\",\"1\",\"Training\",\"Stims/Figures/84-C-20-2.bmp\",\"sa:sa:za\",\"Up\",\"38\",\"1\",\"4\",\"6A\",\"C2\",\"J\",\"4\"
\"\",\"\",\"approach-retreat\",\"8\",\"151261\",\"0.0-8.0\",\"\",\"\",\"3-1\",\"4629\",\"39\",\"1\",\"Training\",\"Stims/Figures/27-J-0-1.bmp\",\"fa:sha:va\",\"Left\",\"39\",\"1\",\"5\",\"6A\",\"C1\",\"J\",\"5\"
\"\",\"\",\"approach-retreat\",\"9\",\"157880\",\"0.0-9.0\",\"\",\"\",\"3-1\",\"5106\",\"40\",\"1\",\"Training\",\"Stims/Figures/118-J-0-2.bmp\",\"fa:fa:va\",\"Up\",\"40\",\"1\",\"6\",\"6A\",\"C1\",\"J\",\"6\"
\"\",\"\",\"approach-retreat\",\"10\",\"163836\",\"0.0-10.0\",\"\",\"\",\"3-1\",\"4444\",\"39\",\"0\",\"Training\",\"Stims/Figures/74-J-10-4.bmp\",\"fafa:sha\",\"Right\",\"37\",\"1\",\"7\",\"6A\",\"C1\",\"J\",\"7\"
\"\",\"\",\"approach-retreat\",\"11\",\"169345\",\"0.0-11.0\",\"\",\"\",\"3-1\",\"3995\",\"40\",\"1\",\"Training\",\"Stims/Figures/100-J-10-3.bmp\",\"vafa:sha\",\"Up\",\"40\",\"1\",\"8\",\"6A\",\"C1\",\"J\",\"8\"
\"\",\"\",\"approach-retreat\",\"12\",\"175600\",\"0.0-12.0\",\"\",\"\",\"3-1\",\"4739\",\"40\",\"1\",\"Training\",\"Stims/Figures/57-C-30-1.bmp\",\"zasa:za\",\"Down\",\"40\",\"1\",\"9\",\"6A\",\"C2\",\"J\",\"9\"
\"\",\"\",\"approach-retreat\",\"13\",\"181545\",\"0.0-13.0\",\"\",\"\",\"3-1\",\"4433\",\"39\",\"1\",\"Training\",\"Stims/Figures/57-J-0-1.bmp\",\"va:shava\",\"Left\",\"39\",\"1\",\"10\",\"6A\",\"C1\",\"J\",\"10\"
\"\",\"\",\"approach-retreat\",\"14\",\"190184\",\"0.0-14.0\",\"\",\"\",\"3-1\",\"7128\",\"37\",\"1\",\"Training\",\"Stims/Figures/128-J-10-3.bmp\",\"vashasha\",\"Right\",\"37\",\"1\",\"11\",\"6A\",\"C1\",\"J\",\"11\"
\"\",\"\",\"approach-retreat\",\"15\",\"196791\",\"0.0-15.0\",\"\",\"\",\"3-1\",\"5102\",\"38\",\"1\",\"Training\",\"Stims/Figures/102-J-10-4.bmp\",\"va:fa:sha\",\"Down\",\"38\",\"1\",\"12\",\"6A\",\"C1\",\"J\",\"12\"
\"\",\"\",\"approach-retreat\",\"16\",\"202932\",\"0.0-16.0\",\"\",\"\",\"3-1\",\"4629\",\"40\",\"1\",\"Training\",\"Stims/Figures/102-C-20-4.bmp\",\"za:haza\",\"Down\",\"40\",\"1\",\"13\",\"6A\",\"C2\",\"J\",\"13\"
\"\",\"\",\"approach-retreat\",\"17\",\"209184\",\"0.0-17.0\",\"\",\"\",\"3-1\",\"4738\",\"38\",\"1\",\"Training\",\"Stims/Figures/84-J-0-2.bmp\",\"vafa:va\",\"Down\",\"38\",\"1\",\"14\",\"6A\",\"C1\",\"J\",\"14\"
\"\",\"\",\"approach-retreat\",\"18\",\"216234\",\"0.0-18.0\",\"\",\"\",\"3-1\",\"5537\",\"39\",\"1\",\"Training\",\"Stims/Figures/27-C-30-1.bmp\",\"sasaza\",\"Right\",\"39\",\"1\",\"15\",\"6A\",\"C2\",\"J\",\"15\"
\"\",\"\",\"approach-retreat\",\"19\",\"222483\",\"0.0-19.0\",\"\",\"\",\"3-1\",\"4739\",\"38\",\"1\",\"Training\",\"Stims/Figures/118-C-20-2.bmp\",\"sa:haha\",\"Up\",\"38\",\"1\",\"16\",\"6A\",\"C2\",\"J\",\"16\"
\"\",\"\",\"approach-retreat\",\"20\",\"228697\",\"0.0-20.0\",\"\",\"\",\"3-1\",\"4703\",\"38\",\"1\",\"Training\",\"Stims/Figures/84-J-0-2.bmp\",\"vafa:va\",\"Down\",\"38\",\"2\",\"1\",\"6A\",\"C1\",\"J\",\"17\"
\"\",\"\",\"approach-retreat\",\"21\",\"234437\",\"0.0-21.0\",\"\",\"\",\"3-1\",\"4221\",\"39\",\"1\",\"Training\",\"Stims/Figures/27-J-0-1.bmp\",\"fa:sha:va\",\"Left\",\"39\",\"2\",\"2\",\"6A\",\"C1\",\"J\",\"18\"
\"\",\"\",\"approach-retreat\",\"22\",\"241777\",\"0.0-22.0\",\"\",\"\",\"3-1\",\"5828\",\"39\",\"1\",\"Training\",\"Stims/Figures/118-C-20-2.bmp\",\"sa:haha\",\"Right\",\"39\",\"2\",\"3\",\"6A\",\"C2\",\"J\",\"19\"
\"\",\"\",\"approach-retreat\",\"23\",\"248564\",\"0.0-23.0\",\"\",\"\",\"3-1\",\"5282\",\"37\",\"1\",\"Training\",\"Stims/Figures/57-J-0-1.bmp\",\"va:shava\",\"Right\",\"37\",\"2\",\"4\",\"6A\",\"C1\",\"J\",\"20\"
\"\",\"\",\"approach-retreat\",\"24\",\"254390\",\"0.0-24.0\",\"\",\"\",\"3-1\",\"4320\",\"40\",\"1\",\"Training\",\"Stims/Figures/118-J-0-2.bmp\",\"fa:fa:va\",\"Up\",\"40\",\"2\",\"5\",\"6A\",\"C1\",\"J\",\"21\"
\"\",\"\",\"approach-retreat\",\"25\",\"261006\",\"0.0-25.0\",\"\",\"\",\"3-1\",\"5111\",\"38\",\"1\",\"Training\",\"Stims/Figures/57-C-30-1.bmp\",\"zasa:za\",\"Up\",\"38\",\"2\",\"6\",\"6A\",\"C2\",\"J\",\"22\"
\"\",\"\",\"approach-retreat\",\"26\",\"266678\",\"0.0-26.0\",\"\",\"\",\"3-1\",\"4166\",\"39\",\"1\",\"Training\",\"Stims/Figures/100-J-10-3.bmp\",\"vafa:sha\",\"Left\",\"39\",\"2\",\"7\",\"6A\",\"C1\",\"J\",\"23\"
\"\",\"\",\"approach-retreat\",\"27\",\"272772\",\"0.0-27.0\",\"\",\"\",\"3-1\",\"4588\",\"40\",\"1\",\"Training\",\"Stims/Figures/128-J-10-3.bmp\",\"vashasha\",\"Up\",\"40\",\"2\",\"8\",\"6A\",\"C1\",\"J\",\"24\"
\"\",\"\",\"approach-retreat\",\"28\",\"279064\",\"0.0-28.0\",\"\",\"\",\"3-1\",\"4788\",\"40\",\"1\",\"Training\",\"Stims/Figures/100-C-30-3.bmp\",\"zahaha\",\"Down\",\"40\",\"2\",\"9\",\"6A\",\"C2\",\"J\",\"25\"
\"\",\"\",\"approach-retreat\",\"29\",\"284701\",\"0.0-29.0\",\"\",\"\",\"3-1\",\"4132\",\"39\",\"1\",\"Training\",\"Stims/Figures/102-J-10-4.bmp\",\"va:fa:sha\",\"Left\",\"39\",\"2\",\"10\",\"6A\",\"C1\",\"J\",\"26\"
\"\",\"\",\"approach-retreat\",\"30\",\"290807\",\"0.0-30.0\",\"\",\"\",\"3-1\",\"4601\",\"38\",\"1\",\"Training\",\"Stims/Figures/128-C-30-3.bmp\",\"sa:sa:ha\",\"Up\",\"38\",\"2\",\"11\",\"6A\",\"C2\",\"J\",\"27\"
\"\",\"\",\"approach-retreat\",\"31\",\"296644\",\"0.0-31.0\",\"\",\"\",\"3-1\",\"4334\",\"40\",\"1\",\"Training\",\"Stims/Figures/102-C-20-4.bmp\",\"za:haza\",\"Down\",\"40\",\"2\",\"12\",\"6A\",\"C2\",\"J\",\"28\"
\"\",\"\",\"approach-retreat\",\"32\",\"302288\",\"0.0-32.0\",\"\",\"\",\"3-1\",\"4137\",\"39\",\"0\",\"Training\",\"Stims/Figures/74-J-10-4.bmp\",\"fafa:sha\",\"Right\",\"37\",\"2\",\"13\",\"6A\",\"C1\",\"J\",\"29\"
\"\",\"\",\"approach-retreat\",\"33\",\"308091\",\"0.0-33.0\",\"\",\"\",\"3-1\",\"4299\",\"39\",\"1\",\"Training\",\"Stims/Figures/84-C-20-2.bmp\",\"sa:sa:za\",\"Right\",\"39\",\"2\",\"14\",\"6A\",\"C2\",\"J\",\"30\"
\"\",\"\",\"approach-retreat\",\"34\",\"313812\",\"0.0-34.0\",\"\",\"\",\"3-1\",\"4215\",\"40\",\"1\",\"Training\",\"Stims/Figures/27-C-30-1.bmp\",\"sasaza\",\"Down\",\"40\",\"2\",\"15\",\"6A\",\"C2\",\"J\",\"31\"
\"\",\"\",\"approach-retreat\",\"35\",\"319441\",\"0.0-35.0\",\"\",\"\",\"3-1\",\"4123\",\"37\",\"1\",\"Training\",\"Stims/Figures/74-C-20-4.bmp\",\"zasa:ha\",\"Left\",\"37\",\"2\",\"16\",\"6A\",\"C2\",\"J\",\"32\"
\"\",\"\",\"approach-retreat\",\"36\",\"325748\",\"0.0-36.0\",\"\",\"\",\"3-1\",\"4802\",\"39\",\"1\",\"Training\",\"Stims/Figures/102-J-10-4.bmp\",\"va:fa:sha\",\"Left\",\"39\",\"3\",\"1\",\"6A\",\"C1\",\"J\",\"33\"
\"\",\"\",\"approach-retreat\",\"37\",\"331257\",\"0.0-37.0\",\"\",\"\",\"3-1\",\"4002\",\"40\",\"1\",\"Training\",\"Stims/Figures/100-C-30-3.bmp\",\"zahaha\",\"Down\",\"40\",\"3\",\"2\",\"6A\",\"C2\",\"J\",\"34\"
\"\",\"\",\"approach-retreat\",\"38\",\"336764\",\"0.0-38.0\",\"\",\"\",\"3-1\",\"4001\",\"40\",\"1\",\"Training\",\"Stims/Figures/74-C-20-4.bmp\",\"zasa:ha\",\"Down\",\"40\",\"3\",\"3\",\"6A\",\"C2\",\"J\",\"35\"
\"\",\"\",\"approach-retreat\",\"39\",\"342928\",\"0.0-39.0\",\"\",\"\",\"3-1\",\"4659\",\"38\",\"1\",\"Training\",\"Stims/Figures/27-J-0-1.bmp\",\"fa:sha:va\",\"Down\",\"38\",\"3\",\"4\",\"6A\",\"C1\",\"J\",\"36\"
\"\",\"\",\"approach-retreat\",\"40\",\"349788\",\"0.0-40.0\",\"\",\"\",\"3-1\",\"5345\",\"40\",\"1\",\"Training\",\"Stims/Figures/84-J-0-2.bmp\",\"vafa:va\",\"Up\",\"40\",\"3\",\"5\",\"6A\",\"C1\",\"J\",\"37\"
\"\",\"\",\"approach-retreat\",\"41\",\"355928\",\"0.0-41.0\",\"\",\"\",\"3-1\",\"4630\",\"38\",\"1\",\"Training\",\"Stims/Figures/118-C-20-2.bmp\",\"sa:haha\",\"Up\",\"38\",\"3\",\"6\",\"6A\",\"C2\",\"J\",\"38\"
\"\",\"\",\"approach-retreat\",\"42\",\"362145\",\"0.0-42.0\",\"\",\"\",\"3-1\",\"4706\",\"38\",\"1\",\"Training\",\"Stims/Figures/118-J-0-2.bmp\",\"fa:fa:va\",\"Down\",\"38\",\"3\",\"7\",\"6A\",\"C1\",\"J\",\"39\"
\"\",\"\",\"approach-retreat\",\"43\",\"367734\",\"0.0-43.0\",\"\",\"\",\"3-1\",\"4078\",\"37\",\"1\",\"Training\",\"Stims/Figures/27-C-30-1.bmp\",\"sasaza\",\"Left\",\"37\",\"3\",\"8\",\"6A\",\"C2\",\"J\",\"40\"
\"\",\"\",\"approach-retreat\",\"44\",\"373483\",\"0.0-44.0\",\"\",\"\",\"3-1\",\"4239\",\"37\",\"0\",\"Training\",\"Stims/Figures/57-J-0-1.bmp\",\"va:shava\",\"Left\",\"39\",\"3\",\"9\",\"6A\",\"C1\",\"J\",\"41\"
\"\",\"\",\"approach-retreat\",\"45\",\"379792\",\"0.0-45.0\",\"\",\"\",\"3-1\",\"4805\",\"37\",\"1\",\"Training\",\"Stims/Figures/100-J-10-3.bmp\",\"vafa:sha\",\"Right\",\"37\",\"3\",\"10\",\"6A\",\"C1\",\"J\",\"42\"
\"\",\"\",\"approach-retreat\",\"46\",\"385790\",\"0.0-46.0\",\"\",\"\",\"3-1\",\"4486\",\"40\",\"1\",\"Training\",\"Stims/Figures/128-J-10-3.bmp\",\"vashasha\",\"Up\",\"40\",\"3\",\"11\",\"6A\",\"C1\",\"J\",\"43\"
\"\",\"\",\"approach-retreat\",\"47\",\"391745\",\"0.0-47.0\",\"\",\"\",\"3-1\",\"4445\",\"37\",\"1\",\"Training\",\"Stims/Figures/84-C-20-2.bmp\",\"sa:sa:za\",\"Left\",\"37\",\"3\",\"12\",\"6A\",\"C2\",\"J\",\"44\"
\"\",\"\",\"approach-retreat\",\"48\",\"398474\",\"0.0-48.0\",\"\",\"\",\"3-1\",\"5217\",\"37\",\"1\",\"Training\",\"Stims/Figures/74-J-10-4.bmp\",\"fafa:sha\",\"Right\",\"37\",\"3\",\"13\",\"6A\",\"C1\",\"J\",\"45\"
\"\",\"\",\"approach-retreat\",\"49\",\"404697\",\"0.0-49.0\",\"\",\"\",\"3-1\",\"4710\",\"39\",\"1\",\"Training\",\"Stims/Figures/128-C-30-3.bmp\",\"sa:sa:ha\",\"Right\",\"39\",\"3\",\"14\",\"6A\",\"C2\",\"J\",\"46\"
\"\",\"\",\"approach-retreat\",\"50\",\"410832\",\"0.0-50.0\",\"\",\"\",\"3-1\",\"4623\",\"38\",\"1\",\"Training\",\"Stims/Figures/57-C-30-1.bmp\",\"zasa:za\",\"Up\",\"38\",\"3\",\"15\",\"6A\",\"C2\",\"J\",\"47\"
\"\",\"\",\"approach-retreat\",\"51\",\"417574\",\"0.0-51.0\",\"\",\"\",\"3-1\",\"5230\",\"39\",\"1\",\"Training\",\"Stims/Figures/102-C-20-4.bmp\",\"za:haza\",\"Right\",\"39\",\"3\",\"16\",\"6A\",\"C2\",\"J\",\"48\"
\"\",\"\",\"approach-retreat\",\"52\",\"424554\",\"0.0-52.0\",\"\",\"\",\"3-1\",\"5473\",\"39\",\"1\",\"Training\",\"Stims/Figures/118-J-0-2.bmp\",\"fa:fa:va\",\"Left\",\"39\",\"4\",\"1\",\"6A\",\"C1\",\"J\",\"49\"
\"\",\"\",\"approach-retreat\",\"53\",\"432027\",\"0.0-53.0\",\"\",\"\",\"3-1\",\"5959\",\"39\",\"1\",\"Training\",\"Stims/Figures/102-C-20-4.bmp\",\"za:haza\",\"Right\",\"39\",\"4\",\"2\",\"6A\",\"C2\",\"J\",\"50\"
\"\",\"\",\"approach-retreat\",\"54\",\"437907\",\"0.0-54.0\",\"\",\"\",\"3-1\",\"4367\",\"38\",\"1\",\"Training\",\"Stims/Figures/84-J-0-2.bmp\",\"vafa:va\",\"Down\",\"38\",\"4\",\"3\",\"6A\",\"C1\",\"J\",\"51\"
\"\",\"\",\"approach-retreat\",\"55\",\"444036\",\"0.0-55.0\",\"\",\"\",\"3-1\",\"4618\",\"39\",\"1\",\"Training\",\"Stims/Figures/84-C-20-2.bmp\",\"sa:sa:za\",\"Right\",\"39\",\"4\",\"4\",\"6A\",\"C2\",\"J\",\"52\"
\"\",\"\",\"approach-retreat\",\"56\",\"453536\",\"0.0-56.0\",\"\",\"\",\"3-1\",\"7990\",\"40\",\"1\",\"Training\",\"Stims/Figures/100-C-30-3.bmp\",\"zahaha\",\"Down\",\"40\",\"4\",\"5\",\"6A\",\"C2\",\"J\",\"53\"
\"\",\"\",\"approach-retreat\",\"57\",\"459589\",\"0.0-57.0\",\"\",\"\",\"3-1\",\"4542\",\"38\",\"1\",\"Training\",\"Stims/Figures/57-J-0-1.bmp\",\"va:shava\",\"Down\",\"38\",\"4\",\"6\",\"6A\",\"C1\",\"J\",\"54\"
\"\",\"\",\"approach-retreat\",\"58\",\"465101\",\"0.0-58.0\",\"\",\"\",\"3-1\",\"4002\",\"37\",\"1\",\"Training\",\"Stims/Figures/57-C-30-1.bmp\",\"zasa:za\",\"Left\",\"37\",\"4\",\"7\",\"6A\",\"C2\",\"J\",\"55\"
\"\",\"\",\"approach-retreat\",\"59\",\"471252\",\"0.0-59.0\",\"\",\"\",\"3-1\",\"4639\",\"39\",\"1\",\"Training\",\"Stims/Figures/128-J-10-3.bmp\",\"vashasha\",\"Left\",\"39\",\"4\",\"8\",\"6A\",\"C1\",\"J\",\"56\"
\"\",\"\",\"approach-retreat\",\"60\",\"478725\",\"0.0-60.0\",\"\",\"\",\"3-1\",\"5962\",\"40\",\"1\",\"Training\",\"Stims/Figures/74-J-10-4.bmp\",\"fafa:sha\",\"Up\",\"40\",\"4\",\"9\",\"6A\",\"C1\",\"J\",\"57\"
\"\",\"\",\"approach-retreat\",\"61\",\"484936\",\"0.0-61.0\",\"\",\"\",\"3-1\",\"4699\",\"39\",\"1\",\"Training\",\"Stims/Figures/27-C-30-1.bmp\",\"sasaza\",\"Right\",\"39\",\"4\",\"10\",\"6A\",\"C2\",\"J\",\"58\"
\"\",\"\",\"approach-retreat\",\"62\",\"490867\",\"0.0-62.0\",\"\",\"\",\"3-1\",\"4418\",\"40\",\"1\",\"Training\",\"Stims/Figures/128-C-30-3.bmp\",\"sa:sa:ha\",\"Down\",\"40\",\"4\",\"11\",\"6A\",\"C2\",\"J\",\"59\"
\"\",\"\",\"approach-retreat\",\"63\",\"496471\",\"0.0-63.0\",\"\",\"\",\"3-1\",\"4093\",\"37\",\"1\",\"Training\",\"Stims/Figures/74-C-20-4.bmp\",\"zasa:ha\",\"Left\",\"37\",\"4\",\"12\",\"6A\",\"C2\",\"J\",\"60\"
\"\",\"\",\"approach-retreat\",\"64\",\"502310\",\"0.0-64.0\",\"\",\"\",\"3-1\",\"4328\",\"40\",\"1\",\"Training\",\"Stims/Figures/102-J-10-4.bmp\",\"va:fa:sha\",\"Up\",\"40\",\"4\",\"13\",\"6A\",\"C1\",\"J\",\"61\"
\"\",\"\",\"approach-retreat\",\"65\",\"508435\",\"0.0-65.0\",\"\",\"\",\"3-1\",\"4613\",\"37\",\"1\",\"Training\",\"Stims/Figures/27-J-0-1.bmp\",\"fa:sha:va\",\"Right\",\"37\",\"4\",\"14\",\"6A\",\"C1\",\"J\",\"62\"
\"\",\"\",\"approach-retreat\",\"66\",\"514274\",\"0.0-66.0\",\"\",\"\",\"3-1\",\"4326\",\"40\",\"1\",\"Training\",\"Stims/Figures/100-J-10-3.bmp\",\"vafa:sha\",\"Up\",\"40\",\"4\",\"15\",\"6A\",\"C1\",\"J\",\"63\"
\"\",\"\",\"approach-retreat\",\"67\",\"520885\",\"0.0-67.0\",\"\",\"\",\"3-1\",\"5100\",\"38\",\"1\",\"Training\",\"Stims/Figures/118-C-20-2.bmp\",\"sa:haha\",\"Up\",\"38\",\"4\",\"16\",\"6A\",\"C2\",\"J\",\"64\"
\"\",\"\",\"approach-retreat\",\"68\",\"527025\",\"0.0-68.0\",\"\",\"\",\"3-1\",\"4627\",\"39\",\"1\",\"Training\",\"Stims/Figures/100-C-30-3.bmp\",\"zahaha\",\"Right\",\"39\",\"5\",\"1\",\"6A\",\"C2\",\"J\",\"65\"
\"\",\"\",\"approach-retreat\",\"69\",\"532681\",\"0.0-69.0\",\"\",\"\",\"3-1\",\"4143\",\"38\",\"1\",\"Training\",\"Stims/Figures/118-J-0-2.bmp\",\"fa:fa:va\",\"Down\",\"38\",\"5\",\"2\",\"6A\",\"C1\",\"J\",\"66\"
\"\",\"\",\"approach-retreat\",\"70\",\"539345\",\"0.0-70.0\",\"\",\"\",\"3-1\",\"5152\",\"38\",\"1\",\"Training\",\"Stims/Figures/57-J-0-1.bmp\",\"va:shava\",\"Down\",\"38\",\"5\",\"3\",\"6A\",\"C1\",\"J\",\"67\"
\"\",\"\",\"approach-retreat\",\"71\",\"545125\",\"0.0-71.0\",\"\",\"\",\"3-1\",\"4269\",\"39\",\"1\",\"Training\",\"Stims/Figures/84-C-20-2.bmp\",\"sa:sa:za\",\"Right\",\"39\",\"5\",\"4\",\"6A\",\"C2\",\"J\",\"68\"
\"\",\"\",\"approach-retreat\",\"72\",\"552827\",\"0.0-72.0\",\"\",\"\",\"3-1\",\"6191\",\"38\",\"1\",\"Training\",\"Stims/Figures/118-C-20-2.bmp\",\"sa:haha\",\"Up\",\"38\",\"5\",\"5\",\"6A\",\"C2\",\"J\",\"69\"
\"\",\"\",\"approach-retreat\",\"73\",\"558426\",\"0.0-73.0\",\"\",\"\",\"3-1\",\"4093\",\"39\",\"1\",\"Training\",\"Stims/Figures/74-C-20-4.bmp\",\"zasa:ha\",\"Right\",\"39\",\"5\",\"6\",\"6A\",\"C2\",\"J\",\"70\"
\"\",\"\",\"approach-retreat\",\"74\",\"564332\",\"0.0-74.0\",\"\",\"\",\"3-1\",\"4394\",\"40\",\"1\",\"Training\",\"Stims/Figures/102-J-10-4.bmp\",\"va:fa:sha\",\"Up\",\"40\",\"5\",\"7\",\"6A\",\"C1\",\"J\",\"71\"
\"\",\"\",\"approach-retreat\",\"75\",\"570070\",\"0.0-75.0\",\"\",\"\",\"3-1\",\"4225\",\"37\",\"1\",\"Training\",\"Stims/Figures/27-C-30-1.bmp\",\"sasaza\",\"Left\",\"37\",\"5\",\"8\",\"6A\",\"C2\",\"J\",\"72\"
\"\",\"\",\"approach-retreat\",\"76\",\"575835\",\"0.0-76.0\",\"\",\"\",\"3-1\",\"4253\",\"39\",\"1\",\"Training\",\"Stims/Figures/84-J-0-2.bmp\",\"vafa:va\",\"Left\",\"39\",\"5\",\"9\",\"6A\",\"C1\",\"J\",\"73\"
\"\",\"\",\"approach-retreat\",\"77\",\"581800\",\"0.0-77.0\",\"\",\"\",\"3-1\",\"4451\",\"38\",\"1\",\"Training\",\"Stims/Figures/27-J-0-1.bmp\",\"fa:sha:va\",\"Down\",\"38\",\"5\",\"10\",\"6A\",\"C1\",\"J\",\"74\"
\"\",\"\",\"approach-retreat\",\"78\",\"588058\",\"0.0-78.0\",\"\",\"\",\"3-1\",\"4746\",\"38\",\"1\",\"Training\",\"Stims/Figures/57-C-30-1.bmp\",\"zasa:za\",\"Up\",\"38\",\"5\",\"11\",\"6A\",\"C2\",\"J\",\"75\"
\"\",\"\",\"approach-retreat\",\"79\",\"593926\",\"0.0-79.0\",\"\",\"\",\"3-1\",\"4355\",\"39\",\"1\",\"Training\",\"Stims/Figures/102-C-20-4.bmp\",\"za:haza\",\"Right\",\"39\",\"5\",\"12\",\"6A\",\"C2\",\"J\",\"76\"
\"\",\"\",\"approach-retreat\",\"80\",\"600335\",\"0.0-80.0\",\"\",\"\",\"3-1\",\"4894\",\"38\",\"1\",\"Training\",\"Stims/Figures/128-C-30-3.bmp\",\"sa:sa:ha\",\"Up\",\"38\",\"5\",\"13\",\"6A\",\"C2\",\"J\",\"77\"
\"\",\"\",\"approach-retreat\",\"81\",\"605945\",\"0.0-81.0\",\"\",\"\",\"3-1\",\"4096\",\"39\",\"1\",\"Training\",\"Stims/Figures/128-J-10-3.bmp\",\"vashasha\",\"Left\",\"39\",\"5\",\"14\",\"6A\",\"C1\",\"J\",\"78\"
\"\",\"\",\"approach-retreat\",\"82\",\"611662\",\"0.0-82.0\",\"\",\"\",\"3-1\",\"4207\",\"38\",\"1\",\"Training\",\"Stims/Figures/100-J-10-3.bmp\",\"vafa:sha\",\"Down\",\"38\",\"5\",\"15\",\"6A\",\"C1\",\"J\",\"79\"
\"\",\"\",\"approach-retreat\",\"83\",\"617402\",\"0.0-83.0\",\"\",\"\",\"3-1\",\"4227\",\"39\",\"1\",\"Training\",\"Stims/Figures/74-J-10-4.bmp\",\"fafa:sha\",\"Left\",\"39\",\"5\",\"16\",\"6A\",\"C1\",\"J\",\"80\"
\"\",\"\",\"approach-retreat\",\"84\",\"623537\",\"0.0-84.0\",\"\",\"\",\"3-1\",\"4623\",\"40\",\"1\",\"Training\",\"Stims/Figures/102-C-20-4.bmp\",\"za:haza\",\"Down\",\"40\",\"6\",\"1\",\"6A\",\"C2\",\"J\",\"81\"
\"\",\"\",\"approach-retreat\",\"85\",\"629803\",\"0.0-85.0\",\"\",\"\",\"3-1\",\"4755\",\"37\",\"1\",\"Training\",\"Stims/Figures/102-J-10-4.bmp\",\"va:fa:sha\",\"Right\",\"37\",\"6\",\"2\",\"6A\",\"C1\",\"J\",\"82\"
\"\",\"\",\"approach-retreat\",\"86\",\"637124\",\"0.0-86.0\",\"\",\"\",\"3-1\",\"5808\",\"39\",\"1\",\"Training\",\"Stims/Figures/118-C-20-2.bmp\",\"sa:haha\",\"Right\",\"39\",\"6\",\"3\",\"6A\",\"C2\",\"J\",\"83\"
\"\",\"\",\"approach-retreat\",\"87\",\"642988\",\"0.0-87.0\",\"\",\"\",\"3-1\",\"4351\",\"40\",\"1\",\"Training\",\"Stims/Figures/84-J-0-2.bmp\",\"vafa:va\",\"Up\",\"40\",\"6\",\"4\",\"6A\",\"C1\",\"J\",\"84\"
\"\",\"\",\"approach-retreat\",\"88\",\"649673\",\"0.0-88.0\",\"\",\"\",\"3-1\",\"5172\",\"37\",\"1\",\"Training\",\"Stims/Figures/100-J-10-3.bmp\",\"vafa:sha\",\"Right\",\"37\",\"6\",\"5\",\"6A\",\"C1\",\"J\",\"85\"
\"\",\"\",\"approach-retreat\",\"89\",\"655362\",\"0.0-89.0\",\"\",\"\",\"3-1\",\"4176\",\"37\",\"1\",\"Training\",\"Stims/Figures/74-C-20-4.bmp\",\"zasa:ha\",\"Left\",\"37\",\"6\",\"6\",\"6A\",\"C2\",\"J\",\"86\"
\"\",\"\",\"approach-retreat\",\"90\",\"661374\",\"0.0-90.0\",\"\",\"\",\"3-1\",\"4499\",\"38\",\"1\",\"Training\",\"Stims/Figures/84-C-20-2.bmp\",\"sa:sa:za\",\"Up\",\"38\",\"6\",\"7\",\"6A\",\"C2\",\"J\",\"87\"
\"\",\"\",\"approach-retreat\",\"91\",\"667291\",\"0.0-91.0\",\"\",\"\",\"3-1\",\"4403\",\"40\",\"1\",\"Training\",\"Stims/Figures/57-J-0-1.bmp\",\"va:shava\",\"Up\",\"40\",\"6\",\"8\",\"6A\",\"C1\",\"J\",\"88\"
\"\",\"\",\"approach-retreat\",\"92\",\"673017\",\"0.0-92.0\",\"\",\"\",\"3-1\",\"4213\",\"38\",\"1\",\"Training\",\"Stims/Figures/27-J-0-1.bmp\",\"fa:sha:va\",\"Down\",\"38\",\"6\",\"9\",\"6A\",\"C1\",\"J\",\"89\"
\"\",\"\",\"approach-retreat\",\"93\",\"678846\",\"0.0-93.0\",\"\",\"\",\"3-1\",\"4325\",\"40\",\"1\",\"Training\",\"Stims/Figures/100-C-30-3.bmp\",\"zahaha\",\"Down\",\"40\",\"6\",\"10\",\"6A\",\"C2\",\"J\",\"90\"
\"\",\"\",\"approach-retreat\",\"94\",\"684235\",\"0.0-94.0\",\"\",\"\",\"3-1\",\"3877\",\"37\",\"1\",\"Training\",\"Stims/Figures/128-C-30-3.bmp\",\"sa:sa:ha\",\"Left\",\"37\",\"6\",\"11\",\"6A\",\"C2\",\"J\",\"91\"
\"\",\"\",\"approach-retreat\",\"95\",\"689863\",\"0.0-95.0\",\"\",\"\",\"3-1\",\"4117\",\"39\",\"1\",\"Training\",\"Stims/Figures/27-C-30-1.bmp\",\"sasaza\",\"Right\",\"39\",\"6\",\"12\",\"6A\",\"C2\",\"J\",\"92\"
\"\",\"\",\"approach-retreat\",\"96\",\"695474\",\"0.0-96.0\",\"\",\"\",\"3-1\",\"4099\",\"39\",\"1\",\"Training\",\"Stims/Figures/74-J-10-4.bmp\",\"fafa:sha\",\"Left\",\"39\",\"6\",\"13\",\"6A\",\"C1\",\"J\",\"93\"
\"\",\"\",\"approach-retreat\",\"97\",\"701584\",\"0.0-97.0\",\"\",\"\",\"3-1\",\"4597\",\"37\",\"1\",\"Training\",\"Stims/Figures/57-C-30-1.bmp\",\"zasa:za\",\"Left\",\"37\",\"6\",\"14\",\"6A\",\"C2\",\"J\",\"94\"
\"\",\"\",\"approach-retreat\",\"98\",\"707321\",\"0.0-98.0\",\"\",\"\",\"3-1\",\"4225\",\"40\",\"1\",\"Training\",\"Stims/Figures/128-J-10-3.bmp\",\"vashasha\",\"Up\",\"40\",\"6\",\"15\",\"6A\",\"C1\",\"J\",\"95\"
\"\",\"\",\"approach-retreat\",\"99\",\"713501\",\"0.0-99.0\",\"\",\"\",\"3-1\",\"4668\",\"38\",\"1\",\"Training\",\"Stims/Figures/118-J-0-2.bmp\",\"fa:fa:va\",\"Down\",\"38\",\"6\",\"16\",\"6A\",\"C1\",\"J\",\"96\"
\"\",\"\",\"approach-retreat\",\"100\",\"719132\",\"0.0-100.0\",\"\",\"\",\"3-1\",\"4118\",\"39\",\"1\",\"Training\",\"Stims/Figures/84-J-0-2.bmp\",\"vafa:va\",\"Left\",\"39\",\"7\",\"1\",\"6A\",\"C1\",\"J\",\"97\"
\"\",\"\",\"approach-retreat\",\"101\",\"724611\",\"0.0-101.0\",\"\",\"\",\"3-1\",\"3967\",\"37\",\"1\",\"Training\",\"Stims/Figures/100-C-30-3.bmp\",\"zahaha\",\"Left\",\"37\",\"7\",\"2\",\"6A\",\"C2\",\"J\",\"98\"
\"\",\"\",\"approach-retreat\",\"102\",\"730612\",\"0.0-102.0\",\"\",\"\",\"3-1\",\"4490\",\"38\",\"1\",\"Training\",\"Stims/Figures/128-J-10-3.bmp\",\"vashasha\",\"Down\",\"38\",\"7\",\"3\",\"6A\",\"C1\",\"J\",\"99\"
\"\",\"\",\"approach-retreat\",\"103\",\"736405\",\"0.0-103.0\",\"\",\"\",\"3-1\",\"4281\",\"38\",\"1\",\"Training\",\"Stims/Figures/128-C-30-3.bmp\",\"sa:sa:ha\",\"Up\",\"38\",\"7\",\"4\",\"6A\",\"C2\",\"J\",\"100\"
\"\",\"\",\"approach-retreat\",\"104\",\"742146\",\"0.0-104.0\",\"\",\"\",\"3-1\",\"4229\",\"37\",\"1\",\"Training\",\"Stims/Figures/118-J-0-2.bmp\",\"fa:fa:va\",\"Right\",\"37\",\"7\",\"5\",\"6A\",\"C1\",\"J\",\"101\"
\"\",\"\",\"approach-retreat\",\"105\",\"747896\",\"0.0-105.0\",\"\",\"\",\"3-1\",\"4236\",\"38\",\"1\",\"Training\",\"Stims/Figures/102-C-20-4.bmp\",\"za:haza\",\"Up\",\"38\",\"7\",\"6\",\"6A\",\"C2\",\"J\",\"102\"
\"\",\"\",\"approach-retreat\",\"106\",\"754240\",\"0.0-106.0\",\"\",\"\",\"3-1\",\"4832\",\"37\",\"1\",\"Training\",\"Stims/Figures/74-J-10-4.bmp\",\"fafa:sha\",\"Right\",\"37\",\"7\",\"7\",\"6A\",\"C1\",\"J\",\"103\"
\"\",\"\",\"approach-retreat\",\"107\",\"760348\",\"0.0-107.0\",\"\",\"\",\"3-1\",\"4595\",\"40\",\"1\",\"Training\",\"Stims/Figures/100-J-10-3.bmp\",\"vafa:sha\",\"Up\",\"40\",\"7\",\"8\",\"6A\",\"C1\",\"J\",\"104\"
\"\",\"\",\"approach-retreat\",\"108\",\"765976\",\"0.0-108.0\",\"\",\"\",\"3-1\",\"4117\",\"39\",\"1\",\"Training\",\"Stims/Figures/74-C-20-4.bmp\",\"zasa:ha\",\"Right\",\"39\",\"7\",\"9\",\"6A\",\"C2\",\"J\",\"105\"
\"\",\"\",\"approach-retreat\",\"109\",\"771691\",\"0.0-109.0\",\"\",\"\",\"3-1\",\"4203\",\"40\",\"1\",\"Training\",\"Stims/Figures/118-C-20-2.bmp\",\"sa:haha\",\"Down\",\"40\",\"7\",\"10\",\"6A\",\"C2\",\"J\",\"106\"
\"\",\"\",\"approach-retreat\",\"110\",\"777666\",\"0.0-110.0\",\"\",\"\",\"3-1\",\"4461\",\"38\",\"1\",\"Training\",\"Stims/Figures/27-C-30-1.bmp\",\"sasaza\",\"Up\",\"38\",\"7\",\"11\",\"6A\",\"C2\",\"J\",\"107\"
\"\",\"\",\"approach-retreat\",\"111\",\"783589\",\"0.0-111.0\",\"\",\"\",\"3-1\",\"4412\",\"39\",\"1\",\"Training\",\"Stims/Figures/27-J-0-1.bmp\",\"fa:sha:va\",\"Left\",\"39\",\"7\",\"12\",\"6A\",\"C1\",\"J\",\"108\"
\"\",\"\",\"approach-retreat\",\"112\",\"789673\",\"0.0-112.0\",\"\",\"\",\"3-1\",\"4571\",\"38\",\"1\",\"Training\",\"Stims/Figures/57-J-0-1.bmp\",\"va:shava\",\"Down\",\"38\",\"7\",\"13\",\"6A\",\"C1\",\"J\",\"109\"
\"\",\"\",\"approach-retreat\",\"113\",\"795728\",\"0.0-113.0\",\"\",\"\",\"3-1\",\"4543\",\"37\",\"1\",\"Training\",\"Stims/Figures/102-J-10-4.bmp\",\"va:fa:sha\",\"Right\",\"37\",\"7\",\"14\",\"6A\",\"C1\",\"J\",\"110\"
\"\",\"\",\"approach-retreat\",\"114\",\"801456\",\"0.0-114.0\",\"\",\"\",\"3-1\",\"4218\",\"37\",\"1\",\"Training\",\"Stims/Figures/57-C-30-1.bmp\",\"zasa:za\",\"Left\",\"37\",\"7\",\"15\",\"6A\",\"C2\",\"J\",\"111\"
\"\",\"\",\"approach-retreat\",\"115\",\"807337\",\"0.0-115.0\",\"\",\"\",\"3-1\",\"4368\",\"40\",\"1\",\"Training\",\"Stims/Figures/84-C-20-2.bmp\",\"sa:sa:za\",\"Down\",\"40\",\"7\",\"16\",\"6A\",\"C2\",\"J\",\"112\"
\"\",\"\",\"approach-retreat\",\"116\",\"813212\",\"0.0-116.0\",\"\",\"\",\"3-1\",\"4362\",\"39\",\"1\",\"Training\",\"Stims/Figures/118-C-20-2.bmp\",\"sa:haha\",\"Right\",\"39\",\"8\",\"1\",\"6A\",\"C2\",\"J\",\"113\"
\"\",\"\",\"approach-retreat\",\"117\",\"819044\",\"0.0-117.0\",\"\",\"\",\"3-1\",\"4321\",\"38\",\"1\",\"Training\",\"Stims/Figures/74-C-20-4.bmp\",\"zasa:ha\",\"Up\",\"38\",\"8\",\"2\",\"6A\",\"C2\",\"J\",\"114\"
\"\",\"\",\"approach-retreat\",\"118\",\"824767\",\"0.0-118.0\",\"\",\"\",\"3-1\",\"4210\",\"37\",\"1\",\"Training\",\"Stims/Figures/100-J-10-3.bmp\",\"vafa:sha\",\"Right\",\"37\",\"8\",\"3\",\"6A\",\"C1\",\"J\",\"115\"
\"\",\"\",\"approach-retreat\",\"119\",\"830406\",\"0.0-119.0\",\"\",\"\",\"3-1\",\"4128\",\"38\",\"1\",\"Training\",\"Stims/Figures/102-J-10-4.bmp\",\"va:fa:sha\",\"Down\",\"38\",\"8\",\"4\",\"6A\",\"C1\",\"J\",\"116\"
\"\",\"\",\"approach-retreat\",\"120\",\"836236\",\"0.0-120.0\",\"\",\"\",\"3-1\",\"4318\",\"37\",\"1\",\"Training\",\"Stims/Figures/84-C-20-2.bmp\",\"sa:sa:za\",\"Left\",\"37\",\"8\",\"5\",\"6A\",\"C2\",\"J\",\"117\"
\"\",\"\",\"approach-retreat\",\"121\",\"841949\",\"0.0-121.0\",\"\",\"\",\"3-1\",\"4209\",\"39\",\"1\",\"Training\",\"Stims/Figures/100-C-30-3.bmp\",\"zahaha\",\"Right\",\"39\",\"8\",\"6\",\"6A\",\"C2\",\"J\",\"118\"
\"\",\"\",\"approach-retreat\",\"122\",\"848074\",\"0.0-122.0\",\"\",\"\",\"3-1\",\"4613\",\"37\",\"1\",\"Training\",\"Stims/Figures/74-J-10-4.bmp\",\"fafa:sha\",\"Right\",\"37\",\"8\",\"7\",\"6A\",\"C1\",\"J\",\"119\"
\"\",\"\",\"approach-retreat\",\"123\",\"853743\",\"0.0-123.0\",\"\",\"\",\"3-1\",\"4158\",\"39\",\"1\",\"Training\",\"Stims/Figures/57-J-0-1.bmp\",\"va:shava\",\"Left\",\"39\",\"8\",\"8\",\"6A\",\"C1\",\"J\",\"120\"
\"\",\"\",\"approach-retreat\",\"124\",\"859641\",\"0.0-124.0\",\"\",\"\",\"3-1\",\"4389\",\"40\",\"1\",\"Training\",\"Stims/Figures/57-C-30-1.bmp\",\"zasa:za\",\"Down\",\"40\",\"8\",\"9\",\"6A\",\"C2\",\"J\",\"121\"
\"\",\"\",\"approach-retreat\",\"125\",\"865421\",\"0.0-125.0\",\"\",\"\",\"3-1\",\"4268\",\"38\",\"1\",\"Training\",\"Stims/Figures/128-J-10-3.bmp\",\"vashasha\",\"Down\",\"38\",\"8\",\"10\",\"6A\",\"C1\",\"J\",\"122\"
\"\",\"\",\"approach-retreat\",\"126\",\"871185\",\"0.0-126.0\",\"\",\"\",\"3-1\",\"4250\",\"40\",\"1\",\"Training\",\"Stims/Figures/27-J-0-1.bmp\",\"fa:sha:va\",\"Up\",\"40\",\"8\",\"11\",\"6A\",\"C1\",\"J\",\"123\"
\"\",\"\",\"approach-retreat\",\"127\",\"876956\",\"0.0-127.0\",\"\",\"\",\"3-1\",\"4259\",\"38\",\"1\",\"Training\",\"Stims/Figures/128-C-30-3.bmp\",\"sa:sa:ha\",\"Up\",\"38\",\"8\",\"12\",\"6A\",\"C2\",\"J\",\"124\"
\"\",\"\",\"approach-retreat\",\"128\",\"882660\",\"0.0-128.0\",\"\",\"\",\"3-1\",\"4192\",\"38\",\"1\",\"Training\",\"Stims/Figures/102-C-20-4.bmp\",\"za:haza\",\"Up\",\"38\",\"8\",\"13\",\"6A\",\"C2\",\"J\",\"125\"
\"\",\"\",\"approach-retreat\",\"129\",\"888698\",\"0.0-129.0\",\"\",\"\",\"3-1\",\"4526\",\"38\",\"1\",\"Training\",\"Stims/Figures/84-J-0-2.bmp\",\"vafa:va\",\"Down\",\"38\",\"8\",\"14\",\"6A\",\"C1\",\"J\",\"126\"
\"\",\"\",\"approach-retreat\",\"130\",\"894399\",\"0.0-130.0\",\"\",\"\",\"3-1\",\"4190\",\"37\",\"1\",\"Training\",\"Stims/Figures/27-C-30-1.bmp\",\"sasaza\",\"Left\",\"37\",\"8\",\"15\",\"6A\",\"C2\",\"J\",\"127\"
\"\",\"\",\"approach-retreat\",\"131\",\"900060\",\"0.0-131.0\",\"\",\"\",\"3-1\",\"4148\",\"39\",\"1\",\"Training\",\"Stims/Figures/118-J-0-2.bmp\",\"fa:fa:va\",\"Left\",\"39\",\"8\",\"16\",\"6A\",\"C1\",\"J\",\"128\"
\"\",\"\",\"approach-retreat\",\"132\",\"905789\",\"0.0-132.0\",\"\",\"\",\"3-1\",\"4216\",\"38\",\"1\",\"Training\",\"Stims/Figures/118-C-20-2.bmp\",\"sa:haha\",\"Up\",\"38\",\"9\",\"1\",\"6A\",\"C2\",\"J\",\"129\"
\"\",\"\",\"approach-retreat\",\"133\",\"911356\",\"0.0-133.0\",\"\",\"\",\"3-1\",\"4063\",\"39\",\"1\",\"Training\",\"Stims/Figures/100-C-30-3.bmp\",\"zahaha\",\"Right\",\"39\",\"9\",\"2\",\"6A\",\"C2\",\"J\",\"130\"
\"\",\"\",\"approach-retreat\",\"134\",\"916822\",\"0.0-134.0\",\"\",\"\",\"3-1\",\"3952\",\"39\",\"1\",\"Training\",\"Stims/Figures/74-J-10-4.bmp\",\"fafa:sha\",\"Left\",\"39\",\"9\",\"3\",\"6A\",\"C1\",\"J\",\"131\"
\"\",\"\",\"approach-retreat\",\"135\",\"922994\",\"0.0-135.0\",\"\",\"\",\"3-1\",\"4661\",\"37\",\"1\",\"Training\",\"Stims/Figures/74-C-20-4.bmp\",\"zasa:ha\",\"Left\",\"37\",\"9\",\"4\",\"6A\",\"C2\",\"J\",\"132\"
\"\",\"\",\"approach-retreat\",\"136\",\"929010\",\"0.0-136.0\",\"\",\"\",\"3-1\",\"4504\",\"37\",\"1\",\"Training\",\"Stims/Figures/100-J-10-3.bmp\",\"vafa:sha\",\"Right\",\"37\",\"9\",\"5\",\"6A\",\"C1\",\"J\",\"133\"
\"\",\"\",\"approach-retreat\",\"137\",\"935220\",\"0.0-137.0\",\"\",\"\",\"3-1\",\"4698\",\"38\",\"0\",\"Training\",\"Stims/Figures/84-C-20-2.bmp\",\"sa:sa:za\",\"Down\",\"40\",\"9\",\"6\",\"6A\",\"C2\",\"J\",\"134\"
\"\",\"\",\"approach-retreat\",\"138\",\"940815\",\"0.0-138.0\",\"\",\"\",\"3-1\",\"4084\",\"40\",\"1\",\"Training\",\"Stims/Figures/102-C-20-4.bmp\",\"za:haza\",\"Down\",\"40\",\"9\",\"7\",\"6A\",\"C2\",\"J\",\"135\"
\"\",\"\",\"approach-retreat\",\"139\",\"946691\",\"0.0-139.0\",\"\",\"\",\"3-1\",\"4361\",\"40\",\"1\",\"Training\",\"Stims/Figures/128-C-30-3.bmp\",\"sa:sa:ha\",\"Down\",\"40\",\"9\",\"8\",\"6A\",\"C2\",\"J\",\"136\"
\"\",\"\",\"approach-retreat\",\"140\",\"952475\",\"0.0-140.0\",\"\",\"\",\"3-1\",\"4273\",\"40\",\"1\",\"Training\",\"Stims/Figures/118-J-0-2.bmp\",\"fa:fa:va\",\"Up\",\"40\",\"9\",\"9\",\"6A\",\"C1\",\"J\",\"137\"
\"\",\"\",\"approach-retreat\",\"141\",\"958369\",\"0.0-141.0\",\"\",\"\",\"3-1\",\"4382\",\"40\",\"1\",\"Training\",\"Stims/Figures/84-J-0-2.bmp\",\"vafa:va\",\"Up\",\"40\",\"9\",\"10\",\"6A\",\"C1\",\"J\",\"138\"
\"\",\"\",\"approach-retreat\",\"142\",\"964443\",\"0.0-142.0\",\"\",\"\",\"3-1\",\"4562\",\"39\",\"1\",\"Training\",\"Stims/Figures/27-C-30-1.bmp\",\"sasaza\",\"Right\",\"39\",\"9\",\"11\",\"6A\",\"C2\",\"J\",\"139\"
\"\",\"\",\"approach-retreat\",\"143\",\"970338\",\"0.0-143.0\",\"\",\"\",\"3-1\",\"4382\",\"37\",\"1\",\"Training\",\"Stims/Figures/102-J-10-4.bmp\",\"va:fa:sha\",\"Right\",\"37\",\"9\",\"12\",\"6A\",\"C1\",\"J\",\"140\"
\"\",\"\",\"approach-retreat\",\"144\",\"976080\",\"0.0-144.0\",\"\",\"\",\"3-1\",\"4231\",\"40\",\"1\",\"Training\",\"Stims/Figures/57-C-30-1.bmp\",\"zasa:za\",\"Down\",\"40\",\"9\",\"13\",\"6A\",\"C2\",\"J\",\"141\"
\"\",\"\",\"approach-retreat\",\"145\",\"981818\",\"0.0-145.0\",\"\",\"\",\"3-1\",\"4228\",\"40\",\"1\",\"Training\",\"Stims/Figures/27-J-0-1.bmp\",\"fa:sha:va\",\"Up\",\"40\",\"9\",\"14\",\"6A\",\"C1\",\"J\",\"142\"
\"\",\"\",\"approach-retreat\",\"146\",\"987982\",\"0.0-146.0\",\"\",\"\",\"3-1\",\"4651\",\"39\",\"1\",\"Training\",\"Stims/Figures/57-J-0-1.bmp\",\"va:shava\",\"Left\",\"39\",\"9\",\"15\",\"6A\",\"C1\",\"J\",\"143\"
\"\",\"\",\"approach-retreat\",\"147\",\"993864\",\"0.0-147.0\",\"\",\"\",\"3-1\",\"4369\",\"39\",\"1\",\"Training\",\"Stims/Figures/128-J-10-3.bmp\",\"vashasha\",\"Left\",\"39\",\"9\",\"16\",\"6A\",\"C1\",\"J\",\"144\"
\"12345\",\"\",\"instructions\",\"148\",\"1006211\",\"0.0-148.0\",\"[{\"\"page_index\"\":0,\"\"viewing_time\"\":12344}]\",\"\",\"\",\"\",\"\",\"\",\"\",\"\",\"\",\"\",\"\",\"\",\"\",\"\",\"\",\"\",\"\"
\"\",\"\",\"approach-retreat\",\"149\",\"1013658\",\"0.0-149.0\",\"\",\"\",\"3-1\",\"5937\",\"40\",\"0\",\"Testing\",\"Stims/Figures/84-J-0-2.bmp\",\"vafa:va\",\"Down\",\"38\",\"1\",\"1\",\"6A\",\"C1\",\"J\",\"1\"
\"\",\"\",\"approach-retreat\",\"150\",\"1019975\",\"0.0-150.0\",\"\",\"\",\"3-1\",\"4807\",\"39\",\"1\",\"Testing\",\"Stims/Figures/44-J-10-3.bmp\",\"fashasha\",\"Left\",\"39\",\"1\",\"2\",\"6A\",\"C1\",\"J\",\"2\"
\"\",\"\",\"approach-retreat\",\"151\",\"1026593\",\"0.0-151.0\",\"\",\"\",\"3-1\",\"5109\",\"38\",\"0\",\"Testing\",\"Stims/Figures/57-J-0-1.bmp\",\"va:shava\",\"Up\",\"40\",\"1\",\"3\",\"6A\",\"C1\",\"J\",\"3\"
\"\",\"\",\"approach-retreat\",\"152\",\"1033043\",\"0.0-152.0\",\"\",\"\",\"3-1\",\"4940\",\"39\",\"1\",\"Testing\",\"Stims/Figures/7-C-20-4.bmp\",\"sahaza\",\"Right\",\"39\",\"1\",\"4\",\"6A\",\"C2\",\"J\",\"4\"
\"\",\"\",\"approach-retreat\",\"153\",\"1038703\",\"0.0-153.0\",\"\",\"\",\"3-1\",\"4157\",\"39\",\"0\",\"Testing\",\"Stims/Figures/139-C-20-2.bmp\",\"za:sa:za\",\"Left\",\"37\",\"1\",\"5\",\"6A\",\"C2\",\"J\",\"5\"
\"\",\"\",\"approach-retreat\",\"154\",\"1044444\",\"0.0-154.0\",\"\",\"\",\"3-1\",\"4232\",\"39\",\"1\",\"Testing\",\"Stims/Figures/118-J-0-2.bmp\",\"fa:fa:va\",\"Left\",\"39\",\"1\",\"6\",\"6A\",\"C1\",\"J\",\"6\"
\"\",\"\",\"approach-retreat\",\"155\",\"1050753\",\"0.0-155.0\",\"\",\"\",\"3-1\",\"4798\",\"37\",\"0\",\"Testing\",\"Stims/Figures/44-C-30-3.bmp\",\"sa:haza\",\"Right\",\"39\",\"1\",\"7\",\"6A\",\"C2\",\"J\",\"7\"
\"\",\"\",\"approach-retreat\",\"156\",\"1056627\",\"0.0-156.0\",\"\",\"\",\"3-1\",\"4363\",\"39\",\"0\",\"Testing\",\"Stims/Figures/102-J-10-4.bmp\",\"va:fa:sha\",\"Right\",\"37\",\"1\",\"8\",\"6A\",\"C1\",\"J\",\"8\"
\"\",\"\",\"approach-retreat\",\"157\",\"1062393\",\"0.0-157.0\",\"\",\"\",\"3-1\",\"4258\",\"40\",\"0\",\"Testing\",\"Stims/Figures/74-J-10-4.bmp\",\"fafa:sha\",\"Down\",\"38\",\"1\",\"9\",\"6A\",\"C1\",\"J\",\"9\"
\"\",\"\",\"approach-retreat\",\"158\",\"1068196\",\"0.0-158.0\",\"\",\"\",\"3-1\",\"4292\",\"39\",\"1\",\"Testing\",\"Stims/Figures/27-C-30-1.bmp\",\"sasaza\",\"Right\",\"39\",\"1\",\"10\",\"6A\",\"C2\",\"J\",\"10\"
\"\",\"\",\"approach-retreat\",\"159\",\"1074476\",\"0.0-159.0\",\"\",\"\",\"3-1\",\"4769\",\"38\",\"1\",\"Testing\",\"Stims/Figures/100-C-30-3.bmp\",\"zahaha\",\"Up\",\"38\",\"1\",\"11\",\"6A\",\"C2\",\"J\",\"11\"
\"\",\"\",\"approach-retreat\",\"160\",\"1080261\",\"0.0-160.0\",\"\",\"\",\"3-1\",\"4273\",\"38\",\"1\",\"Testing\",\"Stims/Figures/128-J-10-3.bmp\",\"vashasha\",\"Down\",\"38\",\"1\",\"12\",\"6A\",\"C1\",\"J\",\"12\"
\"\",\"\",\"approach-retreat\",\"161\",\"1085967\",\"0.0-161.0\",\"\",\"\",\"3-1\",\"4197\",\"37\",\"0\",\"Testing\",\"Stims/Figures/102-C-20-4.bmp\",\"za:haza\",\"Right\",\"39\",\"1\",\"13\",\"6A\",\"C2\",\"J\",\"13\"
\"\",\"\",\"approach-retreat\",\"162\",\"1091579\",\"0.0-162.0\",\"\",\"\",\"3-1\",\"4100\",\"38\",\"1\",\"Testing\",\"Stims/Figures/93-J-0-1.bmp\",\"fa:fava\",\"Down\",\"38\",\"1\",\"14\",\"6A\",\"C1\",\"J\",\"14\"
\"\",\"\",\"approach-retreat\",\"163\",\"1097391\",\"0.0-163.0\",\"\",\"\",\"3-1\",\"4301\",\"38\",\"1\",\"Testing\",\"Stims/Figures/118-C-20-2.bmp\",\"sa:haha\",\"Up\",\"38\",\"1\",\"15\",\"6A\",\"C2\",\"J\",\"15\"
\"\",\"\",\"approach-retreat\",\"164\",\"1103317\",\"0.0-164.0\",\"\",\"\",\"3-1\",\"4416\",\"40\",\"1\",\"Testing\",\"Stims/Figures/100-J-10-3.bmp\",\"vafa:sha\",\"Up\",\"40\",\"1\",\"16\",\"6A\",\"C1\",\"J\",\"16\"
\"\",\"\",\"approach-retreat\",\"165\",\"1109057\",\"0.0-165.0\",\"\",\"\",\"3-1\",\"4227\",\"40\",\"0\",\"Testing\",\"Stims/Figures/7-J-10-4.bmp\",\"va:sha:sha\",\"Down\",\"38\",\"1\",\"17\",\"6A\",\"C1\",\"J\",\"17\"
\"\",\"\",\"approach-retreat\",\"166\",\"1114885\",\"0.0-166.0\",\"\",\"\",\"3-1\",\"4318\",\"39\",\"0\",\"Testing\",\"Stims/Figures/128-C-30-3.bmp\",\"sa:sa:ha\",\"Left\",\"37\",\"1\",\"18\",\"6A\",\"C2\",\"J\",\"18\"
\"\",\"\",\"approach-retreat\",\"167\",\"1120909\",\"0.0-167.0\",\"\",\"\",\"3-1\",\"4517\",\"40\",\"0\",\"Testing\",\"Stims/Figures/57-C-30-1.bmp\",\"zasa:za\",\"Up\",\"38\",\"1\",\"19\",\"6A\",\"C2\",\"J\",\"19\"
\"\",\"\",\"approach-retreat\",\"168\",\"1126921\",\"0.0-168.0\",\"\",\"\",\"3-1\",\"4503\",\"38\",\"1\",\"Testing\",\"Stims/Figures/93-C-30-1.bmp\",\"za:saha\",\"Up\",\"38\",\"1\",\"20\",\"6A\",\"C2\",\"J\",\"20\"
\"\",\"\",\"approach-retreat\",\"169\",\"1132598\",\"0.0-169.0\",\"\",\"\",\"3-1\",\"4168\",\"37\",\"1\",\"Testing\",\"Stims/Figures/84-C-20-2.bmp\",\"sa:sa:za\",\"Left\",\"37\",\"1\",\"21\",\"6A\",\"C2\",\"J\",\"21\"
\"\",\"\",\"approach-retreat\",\"170\",\"1138152\",\"0.0-170.0\",\"\",\"\",\"3-1\",\"4044\",\"39\",\"1\",\"Testing\",\"Stims/Figures/27-J-0-1.bmp\",\"fa:sha:va\",\"Left\",\"39\",\"1\",\"22\",\"6A\",\"C1\",\"J\",\"22\"
\"\",\"\",\"approach-retreat\",\"171\",\"1143936\",\"0.0-171.0\",\"\",\"\",\"3-1\",\"4273\",\"37\",\"1\",\"Testing\",\"Stims/Figures/139-J-0-2.bmp\",\"fafasha\",\"Right\",\"37\",\"1\",\"23\",\"6A\",\"C1\",\"J\",\"23\"
\"\",\"\",\"approach-retreat\",\"172\",\"1149413\",\"0.0-172.0\",\"\",\"\",\"3-1\",\"3968\",\"40\",\"1\",\"Testing\",\"Stims/Figures/74-C-20-4.bmp\",\"zasa:ha\",\"Down\",\"40\",\"1\",\"24\",\"6A\",\"C2\",\"J\",\"24\"
\"\",\"\",\"approach-retreat\",\"173\",\"1155122\",\"0.0-173.0\",\"\",\"\",\"3-1\",\"4198\",\"40\",\"1\",\"Testing\",\"Stims/Figures/102-J-10-4.bmp\",\"va:fa:sha\",\"Up\",\"40\",\"2\",\"1\",\"6A\",\"C1\",\"J\",\"25\"
\"\",\"\",\"approach-retreat\",\"174\",\"1160922\",\"0.0-174.0\",\"\",\"\",\"3-1\",\"4292\",\"37\",\"1\",\"Testing\",\"Stims/Figures/128-J-10-3.bmp\",\"vashasha\",\"Right\",\"37\",\"2\",\"2\",\"6A\",\"C1\",\"J\",\"26\"
\"\",\"\",\"approach-retreat\",\"175\",\"1166791\",\"0.0-175.0\",\"\",\"\",\"3-1\",\"4359\",\"38\",\"1\",\"Testing\",\"Stims/Figures/27-J-0-1.bmp\",\"fa:sha:va\",\"Down\",\"38\",\"2\",\"3\",\"6A\",\"C1\",\"J\",\"27\"
\"\",\"\",\"approach-retreat\",\"176\",\"1172740\",\"0.0-176.0\",\"\",\"\",\"3-1\",\"4440\",\"40\",\"1\",\"Testing\",\"Stims/Figures/44-J-10-3.bmp\",\"fashasha\",\"Up\",\"40\",\"2\",\"4\",\"6A\",\"C1\",\"J\",\"28\"
\"\",\"\",\"approach-retreat\",\"177\",\"1178578\",\"0.0-177.0\",\"\",\"\",\"3-1\",\"4328\",\"38\",\"0\",\"Testing\",\"Stims/Figures/74-C-20-4.bmp\",\"zasa:ha\",\"Down\",\"40\",\"2\",\"5\",\"6A\",\"C2\",\"J\",\"29\"
\"\",\"\",\"approach-retreat\",\"178\",\"1184527\",\"0.0-178.0\",\"\",\"\",\"3-1\",\"4440\",\"39\",\"0\",\"Testing\",\"Stims/Figures/93-J-0-1.bmp\",\"fa:fava\",\"Right\",\"37\",\"2\",\"6\",\"6A\",\"C1\",\"J\",\"30\"
\"\",\"\",\"approach-retreat\",\"179\",\"1190191\",\"0.0-179.0\",\"\",\"\",\"3-1\",\"4154\",\"37\",\"1\",\"Testing\",\"Stims/Figures/7-J-10-4.bmp\",\"va:sha:sha\",\"Right\",\"37\",\"2\",\"7\",\"6A\",\"C1\",\"J\",\"31\"
\"\",\"\",\"approach-retreat\",\"180\",\"1195998\",\"0.0-180.0\",\"\",\"\",\"3-1\",\"4297\",\"37\",\"0\",\"Testing\",\"Stims/Figures/139-C-20-2.bmp\",\"za:sa:za\",\"Right\",\"39\",\"2\",\"8\",\"6A\",\"C2\",\"J\",\"32\"
\"\",\"\",\"approach-retreat\",\"181\",\"1201654\",\"0.0-181.0\",\"\",\"\",\"3-1\",\"4147\",\"37\",\"1\",\"Testing\",\"Stims/Figures/27-C-30-1.bmp\",\"sasaza\",\"Left\",\"37\",\"2\",\"9\",\"6A\",\"C2\",\"J\",\"33\"
\"\",\"\",\"approach-retreat\",\"182\",\"1208827\",\"0.0-182.0\",\"\",\"\",\"3-1\",\"5662\",\"40\",\"1\",\"Testing\",\"Stims/Figures/93-C-30-1.bmp\",\"za:saha\",\"Down\",\"40\",\"2\",\"10\",\"6A\",\"C2\",\"J\",\"34\"
\"\",\"\",\"approach-retreat\",\"183\",\"1214433\",\"0.0-183.0\",\"\",\"\",\"3-1\",\"4094\",\"37\",\"1\",\"Testing\",\"Stims/Figures/102-C-20-4.bmp\",\"za:haza\",\"Left\",\"37\",\"2\",\"11\",\"6A\",\"C2\",\"J\",\"35\"
\"\",\"\",\"approach-retreat\",\"184\",\"1220388\",\"0.0-184.0\",\"\",\"\",\"3-1\",\"4448\",\"40\",\"0\",\"Testing\",\"Stims/Figures/128-C-30-3.bmp\",\"sa:sa:ha\",\"Up\",\"38\",\"2\",\"12\",\"6A\",\"C2\",\"J\",\"36\"
\"\",\"\",\"approach-retreat\",\"185\",\"1225775\",\"0.0-185.0\",\"\",\"\",\"3-1\",\"3876\",\"40\",\"1\",\"Testing\",\"Stims/Figures/7-C-20-4.bmp\",\"sahaza\",\"Down\",\"40\",\"2\",\"13\",\"6A\",\"C2\",\"J\",\"37\"
\"\",\"\",\"approach-retreat\",\"186\",\"1231773\",\"0.0-186.0\",\"\",\"\",\"3-1\",\"4488\",\"38\",\"0\",\"Testing\",\"Stims/Figures/118-J-0-2.bmp\",\"fa:fa:va\",\"Up\",\"40\",\"2\",\"14\",\"6A\",\"C1\",\"J\",\"38\"
\"\",\"\",\"approach-retreat\",\"187\",\"1237991\",\"0.0-187.0\",\"\",\"\",\"3-1\",\"4707\",\"39\",\"1\",\"Testing\",\"Stims/Figures/84-C-20-2.bmp\",\"sa:sa:za\",\"Right\",\"39\",\"2\",\"15\",\"6A\",\"C2\",\"J\",\"39\"
\"\",\"\",\"approach-retreat\",\"188\",\"1245220\",\"0.0-188.0\",\"\",\"\",\"3-1\",\"5718\",\"39\",\"1\",\"Testing\",\"Stims/Figures/100-J-10-3.bmp\",\"vafa:sha\",\"Left\",\"39\",\"2\",\"16\",\"6A\",\"C1\",\"J\",\"40\"
\"\",\"\",\"approach-retreat\",\"189\",\"1251407\",\"0.0-189.0\",\"\",\"\",\"3-1\",\"4676\",\"38\",\"0\",\"Testing\",\"Stims/Figures/118-C-20-2.bmp\",\"sa:haha\",\"Down\",\"40\",\"2\",\"17\",\"6A\",\"C2\",\"J\",\"41\"
\"\",\"\",\"approach-retreat\",\"190\",\"1257089\",\"0.0-190.0\",\"\",\"\",\"3-1\",\"4172\",\"39\",\"0\",\"Testing\",\"Stims/Figures/139-J-0-2.bmp\",\"fafasha\",\"Right\",\"37\",\"2\",\"18\",\"6A\",\"C1\",\"J\",\"42\"
\"\",\"\",\"approach-retreat\",\"191\",\"1262946\",\"0.0-191.0\",\"\",\"\",\"3-1\",\"4345\",\"37\",\"1\",\"Testing\",\"Stims/Figures/57-C-30-1.bmp\",\"zasa:za\",\"Left\",\"37\",\"2\",\"19\",\"6A\",\"C2\",\"J\",\"43\"
\"\",\"\",\"approach-retreat\",\"192\",\"1268842\",\"0.0-192.0\",\"\",\"\",\"3-1\",\"4386\",\"38\",\"0\",\"Testing\",\"Stims/Figures/84-J-0-2.bmp\",\"vafa:va\",\"Up\",\"40\",\"2\",\"20\",\"6A\",\"C1\",\"J\",\"44\"
\"\",\"\",\"approach-retreat\",\"193\",\"1274980\",\"0.0-193.0\",\"\",\"\",\"3-1\",\"4627\",\"40\",\"0\",\"Testing\",\"Stims/Figures/74-J-10-4.bmp\",\"fafa:sha\",\"Down\",\"38\",\"2\",\"21\",\"6A\",\"C1\",\"J\",\"45\"
\"\",\"\",\"approach-retreat\",\"194\",\"1281347\",\"0.0-194.0\",\"\",\"\",\"3-1\",\"4860\",\"40\",\"0\",\"Testing\",\"Stims/Figures/44-C-30-3.bmp\",\"sa:haza\",\"Up\",\"38\",\"2\",\"22\",\"6A\",\"C2\",\"J\",\"46\"
\"\",\"\",\"approach-retreat\",\"195\",\"1286886\",\"0.0-195.0\",\"\",\"\",\"3-1\",\"4028\",\"39\",\"0\",\"Testing\",\"Stims/Figures/100-C-30-3.bmp\",\"zahaha\",\"Left\",\"37\",\"2\",\"23\",\"6A\",\"C2\",\"J\",\"47\"
\"\",\"\",\"approach-retreat\",\"196\",\"1292526\",\"0.0-196.0\",\"\",\"\",\"3-1\",\"4129\",\"37\",\"0\",\"Testing\",\"Stims/Figures/57-J-0-1.bmp\",\"va:shava\",\"Left\",\"39\",\"2\",\"24\",\"6A\",\"C1\",\"J\",\"48\"
\"\",\"\",\"approach-retreat\",\"197\",\"1298656\",\"0.0-197.0\",\"\",\"\",\"3-1\",\"4620\",\"38\",\"1\",\"Testing\",\"Stims/Figures/139-C-20-2.bmp\",\"za:sa:za\",\"Up\",\"38\",\"3\",\"1\",\"6A\",\"C2\",\"J\",\"49\"
\"\",\"\",\"approach-retreat\",\"198\",\"1305476\",\"0.0-198.0\",\"\",\"\",\"3-1\",\"5310\",\"38\",\"0\",\"Testing\",\"Stims/Figures/84-J-0-2.bmp\",\"vafa:va\",\"Up\",\"40\",\"3\",\"2\",\"6A\",\"C1\",\"J\",\"50\"
\"\",\"\",\"approach-retreat\",\"199\",\"1312093\",\"0.0-199.0\",\"\",\"\",\"3-1\",\"5108\",\"39\",\"0\",\"Testing\",\"Stims/Figures/27-C-30-1.bmp\",\"sasaza\",\"Left\",\"37\",\"3\",\"3\",\"6A\",\"C2\",\"J\",\"51\"
\"\",\"\",\"approach-retreat\",\"200\",\"1317774\",\"0.0-200.0\",\"\",\"\",\"3-1\",\"4170\",\"39\",\"0\",\"Testing\",\"Stims/Figures/44-C-30-3.bmp\",\"sa:haza\",\"Left\",\"37\",\"3\",\"4\",\"6A\",\"C2\",\"J\",\"52\"
\"\",\"\",\"approach-retreat\",\"201\",\"1323441\",\"0.0-201.0\",\"\",\"\",\"3-1\",\"4156\",\"39\",\"1\",\"Testing\",\"Stims/Figures/102-J-10-4.bmp\",\"va:fa:sha\",\"Left\",\"39\",\"3\",\"5\",\"6A\",\"C1\",\"J\",\"53\"
\"\",\"\",\"approach-retreat\",\"202\",\"1329297\",\"0.0-202.0\",\"\",\"\",\"3-1\",\"4345\",\"38\",\"1\",\"Testing\",\"Stims/Figures/57-C-30-1.bmp\",\"zasa:za\",\"Up\",\"38\",\"3\",\"6\",\"6A\",\"C2\",\"J\",\"54\"
\"\",\"\",\"approach-retreat\",\"203\",\"1335132\",\"0.0-203.0\",\"\",\"\",\"3-1\",\"4322\",\"39\",\"1\",\"Testing\",\"Stims/Figures/84-C-20-2.bmp\",\"sa:sa:za\",\"Right\",\"39\",\"3\",\"7\",\"6A\",\"C2\",\"J\",\"55\"
\"\",\"\",\"approach-retreat\",\"204\",\"1341205\",\"0.0-204.0\",\"\",\"\",\"3-1\",\"4566\",\"37\",\"0\",\"Testing\",\"Stims/Figures/27-J-0-1.bmp\",\"fa:sha:va\",\"Left\",\"39\",\"3\",\"8\",\"6A\",\"C1\",\"J\",\"56\"
\"\",\"\",\"approach-retreat\",\"205\",\"1347613\",\"0.0-205.0\",\"\",\"\",\"3-1\",\"4896\",\"37\",\"0\",\"Testing\",\"Stims/Figures/102-C-20-4.bmp\",\"za:haza\",\"Right\",\"39\",\"3\",\"9\",\"6A\",\"C2\",\"J\",\"57\"
\"\",\"\",\"approach-retreat\",\"206\",\"1353648\",\"0.0-206.0\",\"\",\"\",\"3-1\",\"4523\",\"38\",\"1\",\"Testing\",\"Stims/Figures/128-J-10-3.bmp\",\"vashasha\",\"Down\",\"38\",\"3\",\"10\",\"6A\",\"C1\",\"J\",\"58\"
\"\",\"\",\"approach-retreat\",\"207\",\"1359484\",\"0.0-207.0\",\"\",\"\",\"3-1\",\"4325\",\"38\",\"1\",\"Testing\",\"Stims/Figures/44-J-10-3.bmp\",\"fashasha\",\"Down\",\"38\",\"3\",\"11\",\"6A\",\"C1\",\"J\",\"59\"
\"\",\"\",\"approach-retreat\",\"208\",\"1365287\",\"0.0-208.0\",\"\",\"\",\"3-1\",\"4294\",\"40\",\"1\",\"Testing\",\"Stims/Figures/57-J-0-1.bmp\",\"va:shava\",\"Up\",\"40\",\"3\",\"12\",\"6A\",\"C1\",\"J\",\"60\"
\"\",\"\",\"approach-retreat\",\"209\",\"1370828\",\"0.0-209.0\",\"\",\"\",\"3-1\",\"4029\",\"40\",\"0\",\"Testing\",\"Stims/Figures/100-C-30-3.bmp\",\"zahaha\",\"Up\",\"38\",\"3\",\"13\",\"6A\",\"C2\",\"J\",\"61\"
\"\",\"\",\"approach-retreat\",\"210\",\"1376549\",\"0.0-210.0\",\"\",\"\",\"3-1\",\"4211\",\"40\",\"1\",\"Testing\",\"Stims/Figures/100-J-10-3.bmp\",\"vafa:sha\",\"Up\",\"40\",\"3\",\"14\",\"6A\",\"C1\",\"J\",\"62\"
\"\",\"\",\"approach-retreat\",\"211\",\"1382204\",\"0.0-211.0\",\"\",\"\",\"3-1\",\"4146\",\"37\",\"1\",\"Testing\",\"Stims/Figures/74-J-10-4.bmp\",\"fafa:sha\",\"Right\",\"37\",\"3\",\"15\",\"6A\",\"C1\",\"J\",\"63\"
\"\",\"\",\"approach-retreat\",\"212\",\"1388077\",\"0.0-212.0\",\"\",\"\",\"3-1\",\"4358\",\"38\",\"1\",\"Testing\",\"Stims/Figures/139-J-0-2.bmp\",\"fafasha\",\"Down\",\"38\",\"3\",\"16\",\"6A\",\"C1\",\"J\",\"64\"
\"\",\"\",\"approach-retreat\",\"213\",\"1393751\",\"0.0-213.0\",\"\",\"\",\"3-1\",\"4164\",\"39\",\"1\",\"Testing\",\"Stims/Figures/74-C-20-4.bmp\",\"zasa:ha\",\"Right\",\"39\",\"3\",\"17\",\"6A\",\"C2\",\"J\",\"65\"
\"\",\"\",\"approach-retreat\",\"214\",\"1399993\",\"0.0-214.0\",\"\",\"\",\"3-1\",\"4734\",\"37\",\"0\",\"Testing\",\"Stims/Figures/128-C-30-3.bmp\",\"sa:sa:ha\",\"Right\",\"39\",\"3\",\"18\",\"6A\",\"C2\",\"J\",\"66\"
\"\",\"\",\"approach-retreat\",\"215\",\"1405722\",\"0.0-215.0\",\"\",\"\",\"3-1\",\"4218\",\"40\",\"0\",\"Testing\",\"Stims/Figures/93-J-0-1.bmp\",\"fa:fava\",\"Down\",\"38\",\"3\",\"19\",\"6A\",\"C1\",\"J\",\"67\"
\"\",\"\",\"approach-retreat\",\"216\",\"1411434\",\"0.0-216.0\",\"\",\"\",\"3-1\",\"4202\",\"39\",\"0\",\"Testing\",\"Stims/Figures/118-C-20-2.bmp\",\"sa:haha\",\"Left\",\"37\",\"3\",\"20\",\"6A\",\"C2\",\"J\",\"68\"
\"\",\"\",\"approach-retreat\",\"217\",\"1417282\",\"0.0-217.0\",\"\",\"\",\"3-1\",\"4338\",\"39\",\"1\",\"Testing\",\"Stims/Figures/118-J-0-2.bmp\",\"fa:fa:va\",\"Left\",\"39\",\"3\",\"21\",\"6A\",\"C1\",\"J\",\"69\"
\"\",\"\",\"approach-retreat\",\"218\",\"1423521\",\"0.0-218.0\",\"\",\"\",\"3-1\",\"4729\",\"40\",\"0\",\"Testing\",\"Stims/Figures/7-J-10-4.bmp\",\"va:sha:sha\",\"Down\",\"38\",\"3\",\"22\",\"6A\",\"C1\",\"J\",\"70\"
\"\",\"\",\"approach-retreat\",\"219\",\"1430014\",\"0.0-219.0\",\"\",\"\",\"3-1\",\"4982\",\"38\",\"0\",\"Testing\",\"Stims/Figures/7-C-20-4.bmp\",\"sahaza\",\"Down\",\"40\",\"3\",\"23\",\"6A\",\"C2\",\"J\",\"71\"
\"\",\"\",\"approach-retreat\",\"220\",\"1436314\",\"0.0-220.0\",\"\",\"\",\"3-1\",\"4796\",\"37\",\"0\",\"Testing\",\"Stims/Figures/93-C-30-1.bmp\",\"za:saha\",\"Right\",\"39\",\"3\",\"24\",\"6A\",\"C2\",\"J\",\"72\"
\"\",\"\",\"approach-retreat\",\"221\",\"1442194\",\"0.0-221.0\",\"\",\"\",\"3-1\",\"4369\",\"38\",\"0\",\"Testing\",\"Stims/Figures/93-J-0-1.bmp\",\"fa:fava\",\"Up\",\"40\",\"4\",\"1\",\"6A\",\"C1\",\"J\",\"73\"
\"\",\"\",\"approach-retreat\",\"222\",\"1448213\",\"0.0-222.0\",\"\",\"\",\"3-1\",\"4510\",\"40\",\"0\",\"Testing\",\"Stims/Figures/44-C-30-3.bmp\",\"sa:haza\",\"Up\",\"38\",\"4\",\"2\",\"6A\",\"C2\",\"J\",\"74\"
\"\",\"\",\"approach-retreat\",\"223\",\"1454224\",\"0.0-223.0\",\"\",\"\",\"3-1\",\"4499\",\"37\",\"1\",\"Testing\",\"Stims/Figures/139-J-0-2.bmp\",\"fafasha\",\"Right\",\"37\",\"4\",\"3\",\"6A\",\"C1\",\"J\",\"75\"
\"\",\"\",\"approach-retreat\",\"224\",\"1460277\",\"0.0-224.0\",\"\",\"\",\"3-1\",\"4546\",\"37\",\"0\",\"Testing\",\"Stims/Figures/7-C-20-4.bmp\",\"sahaza\",\"Right\",\"39\",\"4\",\"4\",\"6A\",\"C2\",\"J\",\"76\"
\"\",\"\",\"approach-retreat\",\"225\",\"1466129\",\"0.0-225.0\",\"\",\"\",\"3-1\",\"4336\",\"40\",\"1\",\"Testing\",\"Stims/Figures/118-J-0-2.bmp\",\"fa:fa:va\",\"Up\",\"40\",\"4\",\"5\",\"6A\",\"C1\",\"J\",\"77\"
\"\",\"\",\"approach-retreat\",\"226\",\"1472004\",\"0.0-226.0\",\"\",\"\",\"3-1\",\"4363\",\"40\",\"0\",\"Testing\",\"Stims/Figures/100-C-30-3.bmp\",\"zahaha\",\"Up\",\"38\",\"4\",\"6\",\"6A\",\"C2\",\"J\",\"78\"
\"\",\"\",\"approach-retreat\",\"227\",\"1477898\",\"0.0-227.0\",\"\",\"\",\"3-1\",\"4383\",\"38\",\"1\",\"Testing\",\"Stims/Figures/102-J-10-4.bmp\",\"va:fa:sha\",\"Down\",\"38\",\"4\",\"7\",\"6A\",\"C1\",\"J\",\"79\"
\"\",\"\",\"approach-retreat\",\"228\",\"1483678\",\"0.0-228.0\",\"\",\"\",\"3-1\",\"4271\",\"37\",\"1\",\"Testing\",\"Stims/Figures/27-J-0-1.bmp\",\"fa:sha:va\",\"Right\",\"37\",\"4\",\"8\",\"6A\",\"C1\",\"J\",\"80\"
\"\",\"\",\"approach-retreat\",\"229\",\"1489694\",\"0.0-229.0\",\"\",\"\",\"3-1\",\"4506\",\"38\",\"1\",\"Testing\",\"Stims/Figures/118-C-20-2.bmp\",\"sa:haha\",\"Up\",\"38\",\"4\",\"9\",\"6A\",\"C2\",\"J\",\"81\"
\"\",\"\",\"approach-retreat\",\"230\",\"1495841\",\"0.0-230.0\",\"\",\"\",\"3-1\",\"4636\",\"38\",\"1\",\"Testing\",\"Stims/Figures/128-J-10-3.bmp\",\"vashasha\",\"Down\",\"38\",\"4\",\"10\",\"6A\",\"C1\",\"J\",\"82\"
\"\",\"\",\"approach-retreat\",\"231\",\"1501585\",\"0.0-231.0\",\"\",\"\",\"3-1\",\"4234\",\"38\",\"0\",\"Testing\",\"Stims/Figures/57-J-0-1.bmp\",\"va:shava\",\"Up\",\"40\",\"4\",\"11\",\"6A\",\"C1\",\"J\",\"83\"
\"\",\"\",\"approach-retreat\",\"232\",\"1507265\",\"0.0-232.0\",\"\",\"\",\"3-1\",\"4168\",\"40\",\"1\",\"Testing\",\"Stims/Figures/57-C-30-1.bmp\",\"zasa:za\",\"Down\",\"40\",\"4\",\"12\",\"6A\",\"C2\",\"J\",\"84\"
\"\",\"\",\"approach-retreat\",\"233\",\"1512942\",\"0.0-233.0\",\"\",\"\",\"3-1\",\"4164\",\"37\",\"1\",\"Testing\",\"Stims/Figures/102-C-20-4.bmp\",\"za:haza\",\"Left\",\"37\",\"4\",\"13\",\"6A\",\"C2\",\"J\",\"85\"
\"\",\"\",\"approach-retreat\",\"234\",\"1518531\",\"0.0-234.0\",\"\",\"\",\"3-1\",\"4081\",\"40\",\"1\",\"Testing\",\"Stims/Figures/128-C-30-3.bmp\",\"sa:sa:ha\",\"Down\",\"40\",\"4\",\"14\",\"6A\",\"C2\",\"J\",\"86\"
\"\",\"\",\"approach-retreat\",\"235\",\"1524286\",\"0.0-235.0\",\"\",\"\",\"3-1\",\"4243\",\"37\",\"0\",\"Testing\",\"Stims/Figures/84-J-0-2.bmp\",\"vafa:va\",\"Left\",\"39\",\"4\",\"15\",\"6A\",\"C1\",\"J\",\"87\"
\"\",\"\",\"approach-retreat\",\"236\",\"1529958\",\"0.0-236.0\",\"\",\"\",\"3-1\",\"4161\",\"39\",\"0\",\"Testing\",\"Stims/Figures/7-J-10-4.bmp\",\"va:sha:sha\",\"Right\",\"37\",\"4\",\"16\",\"6A\",\"C1\",\"J\",\"88\"
\"\",\"\",\"approach-retreat\",\"237\",\"1535676\",\"0.0-237.0\",\"\",\"\",\"3-1\",\"4207\",\"37\",\"1\",\"Testing\",\"Stims/Figures/84-C-20-2.bmp\",\"sa:sa:za\",\"Left\",\"37\",\"4\",\"17\",\"6A\",\"C2\",\"J\",\"89\"
\"\",\"\",\"approach-retreat\",\"238\",\"1541437\",\"0.0-238.0\",\"\",\"\",\"3-1\",\"4251\",\"39\",\"1\",\"Testing\",\"Stims/Figures/139-C-20-2.bmp\",\"za:sa:za\",\"Right\",\"39\",\"4\",\"18\",\"6A\",\"C2\",\"J\",\"90\"
\"\",\"\",\"approach-retreat\",\"239\",\"1547291\",\"0.0-239.0\",\"\",\"\",\"3-1\",\"4341\",\"40\",\"1\",\"Testing\",\"Stims/Figures/93-C-30-1.bmp\",\"za:saha\",\"Down\",\"40\",\"4\",\"19\",\"6A\",\"C2\",\"J\",\"91\"
\"\",\"\",\"approach-retreat\",\"240\",\"1552959\",\"0.0-240.0\",\"\",\"\",\"3-1\",\"4158\",\"39\",\"0\",\"Testing\",\"Stims/Figures/74-J-10-4.bmp\",\"fafa:sha\",\"Right\",\"37\",\"4\",\"20\",\"6A\",\"C1\",\"J\",\"92\"
\"\",\"\",\"approach-retreat\",\"241\",\"1558610\",\"0.0-241.0\",\"\",\"\",\"3-1\",\"4140\",\"37\",\"1\",\"Testing\",\"Stims/Figures/74-C-20-4.bmp\",\"zasa:ha\",\"Left\",\"37\",\"4\",\"21\",\"6A\",\"C2\",\"J\",\"93\"
\"\",\"\",\"approach-retreat\",\"242\",\"1564216\",\"0.0-242.0\",\"\",\"\",\"3-1\",\"4096\",\"39\",\"1\",\"Testing\",\"Stims/Figures/100-J-10-3.bmp\",\"vafa:sha\",\"Left\",\"39\",\"4\",\"22\",\"6A\",\"C1\",\"J\",\"94\"
\"\",\"\",\"approach-retreat\",\"243\",\"1569845\",\"0.0-243.0\",\"\",\"\",\"3-1\",\"4120\",\"39\",\"1\",\"Testing\",\"Stims/Figures/44-J-10-3.bmp\",\"fashasha\",\"Left\",\"39\",\"4\",\"23\",\"6A\",\"C1\",\"J\",\"95\"
\"\",\"\",\"approach-retreat\",\"244\",\"1575639\",\"0.0-244.0\",\"\",\"\",\"3-1\",\"4284\",\"40\",\"1\",\"Testing\",\"Stims/Figures/27-C-30-1.bmp\",\"sasaza\",\"Down\",\"40\",\"4\",\"24\",\"6A\",\"C2\",\"J\",\"96\"
\"23649\",\"\",\"survey-text\",\"245\",\"1599295\",\"0.0-245.0\",\"\",\"{\"\"Q0\"\":\"\"PS170060\"\"}\",\"\",\"\",\"\",\"\",\"\",\"\",\"\",\"\",\"\",\"\",\"\",\"\",\"\",\"\",\"\"
