\"rt\",\"key_press\",\"trial_type\",\"trial_index\",\"time_elapsed\",\"internal_node_id\",\"view_history\",\"responses\",\"Id\",\"Rt\",\"ResKeyCode\",\"ResCorr\",\"TrialType2\",\"Image\",\"Label\",\"Location\",\"CorrectResponse\",\"Block\",\"BlockTrial\",\"Condition\",\"LabelType\",\"Subcondition\",\"trialNum\"
\"28617\",\"32\",\"text\",\"0\",\"28619\",\"0.0-0.0-0.0\",\"\",\"\",\"\",\"\",\"\",\"\",\"\",\"\",\"\",\"\",\"\",\"\",\"\",\"\",\"\",\"\",\"\"
\"63201\",\"\",\"instructions\",\"1\",\"91821\",\"0.0-1.0\",\"[{\"\"page_index\"\":0,\"\"viewing_time\"\":63200}]\",\"\",\"\",\"\",\"\",\"\",\"\",\"\",\"\",\"\",\"\",\"\",\"\",\"\",\"\",\"\",\"\"
\"18905\",\"\",\"survey-multi-choice\",\"2\",\"110763\",\"0.0-2.0\",\"\",\"{\"\"Q0\"\":\"\"Da\"\",\"\"Q1\"\":\"\"Da\"\",\"\"Q2\"\":\"\"Da\"\",\"\"Q3\"\":\"\"Da\"\",\"\"Q4\"\":\"\"Da\"\",\"\"Q5\"\":\"\"Da\"\"}\",\"\",\"\",\"\",\"\",\"\",\"\",\"\",\"\",\"\",\"\",\"\",\"\",\"\",\"\",\"\"
\"\",\"\",\"bio\",\"3\",\"123010\",\"0.0-3.0\",\"\",\"{\"\"age\"\":\"\"19\"\",\"\"gender\"\":\"\"f\"\",\"\"specify\"\":\"\"\"\"}\",\"\",\"\",\"\",\"\",\"\",\"\",\"\",\"\",\"\",\"\",\"\",\"\",\"\",\"\",\"\"
\"\",\"\",\"approach-retreat\",\"4\",\"133404\",\"0.0-4.0\",\"\",\"\",\"1-2\",\"8888\",\"39\",\"0\",\"Training\",\"Stims/Figures/84-C-20-2.bmp\",\"fa:fava\",\"Right\",\"37\",\"1\",\"1\",\"8\",\"C1\",\"C\",\"1\"
\"\",\"\",\"approach-retreat\",\"5\",\"140310\",\"0.0-5.0\",\"\",\"\",\"1-2\",\"5396\",\"38\",\"1\",\"Training\",\"Stims/Figures/27-J-0-1.bmp\",\"fa:sha:sha\",\"Up\",\"38\",\"1\",\"2\",\"8\",\"C1\",\"C\",\"2\"
\"\",\"\",\"approach-retreat\",\"6\",\"146749\",\"0.0-6.0\",\"\",\"\",\"1-2\",\"4930\",\"40\",\"0\",\"Training\",\"Stims/Figures/139-J-0-2.bmp\",\"fafava\",\"Up\",\"38\",\"1\",\"3\",\"8\",\"C1\",\"C\",\"3\"
\"\",\"\",\"approach-retreat\",\"7\",\"153856\",\"0.0-7.0\",\"\",\"\",\"1-2\",\"5598\",\"38\",\"0\",\"Training\",\"Stims/Figures/71-J-0-1.bmp\",\"va:fava\",\"Down\",\"40\",\"1\",\"4\",\"8\",\"C1\",\"C\",\"4\"
\"\",\"\",\"approach-retreat\",\"8\",\"160972\",\"0.0-8.0\",\"\",\"\",\"1-2\",\"5609\",\"40\",\"0\",\"Training\",\"Stims/Figures/27-C-30-1.bmp\",\"fasha:va\",\"Down\",\"38\",\"1\",\"5\",\"8\",\"C1\",\"C\",\"5\"
\"\",\"\",\"approach-retreat\",\"9\",\"167420\",\"0.0-9.0\",\"\",\"\",\"1-2\",\"4939\",\"37\",\"0\",\"Training\",\"Stims/Figures/102-J-10-4.bmp\",\"za:sa:ha\",\"Right\",\"39\",\"1\",\"6\",\"8\",\"C2\",\"C\",\"6\"
\"\",\"\",\"approach-retreat\",\"10\",\"173332\",\"0.0-10.0\",\"\",\"\",\"1-2\",\"4405\",\"39\",\"0\",\"Training\",\"Stims/Figures/19-J-10-4.bmp\",\"zasaha\",\"Left\",\"37\",\"1\",\"7\",\"8\",\"C2\",\"C\",\"7\"
\"\",\"\",\"approach-retreat\",\"11\",\"179347\",\"0.0-11.0\",\"\",\"\",\"1-2\",\"4506\",\"37\",\"1\",\"Training\",\"Stims/Figures/84-J-0-2.bmp\",\"fa:fasha\",\"Left\",\"37\",\"1\",\"8\",\"8\",\"C1\",\"C\",\"8\"
\"\",\"\",\"approach-retreat\",\"12\",\"185355\",\"0.0-12.0\",\"\",\"\",\"1-2\",\"4497\",\"38\",\"0\",\"Training\",\"Stims/Figures/144-J-10-3.bmp\",\"zaha:za\",\"Down\",\"40\",\"1\",\"9\",\"8\",\"C2\",\"C\",\"9\"
\"\",\"\",\"approach-retreat\",\"13\",\"192256\",\"0.0-13.0\",\"\",\"\",\"1-2\",\"5391\",\"40\",\"1\",\"Training\",\"Stims/Figures/139-C-20-2.bmp\",\"vasha:sha\",\"Up\",\"40\",\"1\",\"10\",\"8\",\"C1\",\"C\",\"10\"
\"\",\"\",\"approach-retreat\",\"14\",\"198198\",\"0.0-14.0\",\"\",\"\",\"1-2\",\"4427\",\"37\",\"0\",\"Training\",\"Stims/Figures/144-C-30-3.bmp\",\"za:saha\",\"Left\",\"39\",\"1\",\"11\",\"8\",\"C2\",\"C\",\"11\"
\"\",\"\",\"approach-retreat\",\"15\",\"204110\",\"0.0-15.0\",\"\",\"\",\"1-2\",\"4405\",\"39\",\"0\",\"Training\",\"Stims/Figures/71-C-30-1.bmp\",\"va:sha:sha\",\"Right\",\"37\",\"1\",\"12\",\"8\",\"C1\",\"C\",\"12\"
\"\",\"\",\"approach-retreat\",\"16\",\"211097\",\"0.0-16.0\",\"\",\"\",\"1-2\",\"5477\",\"39\",\"1\",\"Training\",\"Stims/Figures/19-C-20-4.bmp\",\"zahaha\",\"Left\",\"39\",\"1\",\"13\",\"8\",\"C2\",\"C\",\"13\"
\"\",\"\",\"approach-retreat\",\"17\",\"217524\",\"0.0-17.0\",\"\",\"\",\"1-2\",\"4919\",\"39\",\"0\",\"Training\",\"Stims/Figures/100-C-30-3.bmp\",\"sa:ha:ha\",\"Right\",\"37\",\"1\",\"14\",\"8\",\"C2\",\"C\",\"14\"
\"\",\"\",\"approach-retreat\",\"18\",\"223456\",\"0.0-18.0\",\"\",\"\",\"1-2\",\"4424\",\"38\",\"0\",\"Training\",\"Stims/Figures/102-C-20-4.bmp\",\"za:saza\",\"Up\",\"40\",\"1\",\"15\",\"8\",\"C2\",\"C\",\"15\"
\"\",\"\",\"approach-retreat\",\"19\",\"232709\",\"0.0-19.0\",\"\",\"\",\"1-2\",\"7743\",\"38\",\"0\",\"Training\",\"Stims/Figures/100-J-10-3.bmp\",\"sasaza\",\"Down\",\"40\",\"1\",\"16\",\"8\",\"C2\",\"C\",\"16\"
\"\",\"\",\"approach-retreat\",\"20\",\"238504\",\"0.0-20.0\",\"\",\"\",\"1-2\",\"4285\",\"38\",\"0\",\"Training\",\"Stims/Figures/71-J-0-1.bmp\",\"va:fava\",\"Down\",\"40\",\"2\",\"1\",\"8\",\"C1\",\"C\",\"17\"
\"\",\"\",\"approach-retreat\",\"21\",\"244523\",\"0.0-21.0\",\"\",\"\",\"1-2\",\"4510\",\"38\",\"1\",\"Training\",\"Stims/Figures/144-C-30-3.bmp\",\"za:saha\",\"Down\",\"38\",\"2\",\"2\",\"8\",\"C2\",\"C\",\"18\"
\"\",\"\",\"approach-retreat\",\"22\",\"250553\",\"0.0-22.0\",\"\",\"\",\"1-2\",\"4521\",\"39\",\"1\",\"Training\",\"Stims/Figures/71-C-30-1.bmp\",\"va:sha:sha\",\"Left\",\"39\",\"2\",\"3\",\"8\",\"C1\",\"C\",\"19\"
\"\",\"\",\"approach-retreat\",\"23\",\"256329\",\"0.0-23.0\",\"\",\"\",\"1-2\",\"4265\",\"39\",\"1\",\"Training\",\"Stims/Figures/102-J-10-4.bmp\",\"za:sa:ha\",\"Right\",\"39\",\"2\",\"4\",\"8\",\"C2\",\"C\",\"20\"
\"\",\"\",\"approach-retreat\",\"24\",\"262218\",\"0.0-24.0\",\"\",\"\",\"1-2\",\"4381\",\"37\",\"1\",\"Training\",\"Stims/Figures/102-C-20-4.bmp\",\"za:saza\",\"Right\",\"37\",\"2\",\"5\",\"8\",\"C2\",\"C\",\"21\"
\"\",\"\",\"approach-retreat\",\"25\",\"268409\",\"0.0-25.0\",\"\",\"\",\"1-2\",\"4680\",\"38\",\"0\",\"Training\",\"Stims/Figures/19-C-20-4.bmp\",\"zahaha\",\"Up\",\"40\",\"2\",\"6\",\"8\",\"C2\",\"C\",\"22\"
\"\",\"\",\"approach-retreat\",\"26\",\"274361\",\"0.0-26.0\",\"\",\"\",\"1-2\",\"4445\",\"38\",\"0\",\"Training\",\"Stims/Figures/19-J-10-4.bmp\",\"zasaha\",\"Down\",\"40\",\"2\",\"7\",\"8\",\"C2\",\"C\",\"23\"
\"\",\"\",\"approach-retreat\",\"27\",\"280093\",\"0.0-27.0\",\"\",\"\",\"1-2\",\"4221\",\"39\",\"0\",\"Training\",\"Stims/Figures/139-J-0-2.bmp\",\"fafava\",\"Left\",\"37\",\"2\",\"8\",\"8\",\"C1\",\"C\",\"24\"
\"\",\"\",\"approach-retreat\",\"28\",\"286044\",\"0.0-28.0\",\"\",\"\",\"1-2\",\"4447\",\"37\",\"1\",\"Training\",\"Stims/Figures/27-C-30-1.bmp\",\"fasha:va\",\"Right\",\"37\",\"2\",\"9\",\"8\",\"C1\",\"C\",\"25\"
\"\",\"\",\"approach-retreat\",\"29\",\"292003\",\"0.0-29.0\",\"\",\"\",\"1-2\",\"4454\",\"39\",\"0\",\"Training\",\"Stims/Figures/144-J-10-3.bmp\",\"zaha:za\",\"Left\",\"37\",\"2\",\"10\",\"8\",\"C2\",\"C\",\"26\"
\"\",\"\",\"approach-retreat\",\"30\",\"297774\",\"0.0-30.0\",\"\",\"\",\"1-2\",\"4261\",\"39\",\"0\",\"Training\",\"Stims/Figures/27-J-0-1.bmp\",\"fa:sha:sha\",\"Left\",\"37\",\"2\",\"11\",\"8\",\"C1\",\"C\",\"27\"
\"\",\"\",\"approach-retreat\",\"31\",\"303432\",\"0.0-31.0\",\"\",\"\",\"1-2\",\"4153\",\"38\",\"1\",\"Training\",\"Stims/Figures/100-C-30-3.bmp\",\"sa:ha:ha\",\"Down\",\"38\",\"2\",\"12\",\"8\",\"C2\",\"C\",\"28\"
\"\",\"\",\"approach-retreat\",\"32\",\"310139\",\"0.0-32.0\",\"\",\"\",\"1-2\",\"5198\",\"39\",\"1\",\"Training\",\"Stims/Figures/84-J-0-2.bmp\",\"fa:fasha\",\"Right\",\"39\",\"2\",\"13\",\"8\",\"C1\",\"C\",\"29\"
\"\",\"\",\"approach-retreat\",\"33\",\"315788\",\"0.0-33.0\",\"\",\"\",\"1-2\",\"4144\",\"38\",\"0\",\"Training\",\"Stims/Figures/139-C-20-2.bmp\",\"vasha:sha\",\"Up\",\"40\",\"2\",\"14\",\"8\",\"C1\",\"C\",\"30\"
\"\",\"\",\"approach-retreat\",\"34\",\"321604\",\"0.0-34.0\",\"\",\"\",\"1-2\",\"4307\",\"40\",\"0\",\"Training\",\"Stims/Figures/100-J-10-3.bmp\",\"sasaza\",\"Up\",\"38\",\"2\",\"15\",\"8\",\"C2\",\"C\",\"31\"
\"\",\"\",\"approach-retreat\",\"35\",\"327554\",\"0.0-35.0\",\"\",\"\",\"1-2\",\"4445\",\"38\",\"0\",\"Training\",\"Stims/Figures/84-C-20-2.bmp\",\"fa:fava\",\"Up\",\"40\",\"2\",\"16\",\"8\",\"C1\",\"C\",\"32\"
\"\",\"\",\"approach-retreat\",\"36\",\"333260\",\"0.0-36.0\",\"\",\"\",\"1-2\",\"4198\",\"40\",\"1\",\"Training\",\"Stims/Figures/19-C-20-4.bmp\",\"zahaha\",\"Up\",\"40\",\"3\",\"1\",\"8\",\"C2\",\"C\",\"33\"
\"\",\"\",\"approach-retreat\",\"37\",\"339605\",\"0.0-37.0\",\"\",\"\",\"1-2\",\"4836\",\"37\",\"0\",\"Training\",\"Stims/Figures/100-J-10-3.bmp\",\"sasaza\",\"Right\",\"39\",\"3\",\"2\",\"8\",\"C2\",\"C\",\"34\"
\"\",\"\",\"approach-retreat\",\"38\",\"345682\",\"0.0-38.0\",\"\",\"\",\"1-2\",\"4567\",\"40\",\"1\",\"Training\",\"Stims/Figures/139-J-0-2.bmp\",\"fafava\",\"Down\",\"40\",\"3\",\"3\",\"8\",\"C1\",\"C\",\"35\"
\"\",\"\",\"approach-retreat\",\"39\",\"351619\",\"0.0-39.0\",\"\",\"\",\"1-2\",\"4428\",\"40\",\"0\",\"Training\",\"Stims/Figures/144-C-30-3.bmp\",\"za:saha\",\"Down\",\"38\",\"3\",\"4\",\"8\",\"C2\",\"C\",\"36\"
\"\",\"\",\"approach-retreat\",\"40\",\"357479\",\"0.0-40.0\",\"\",\"\",\"1-2\",\"4350\",\"39\",\"0\",\"Training\",\"Stims/Figures/71-C-30-1.bmp\",\"va:sha:sha\",\"Right\",\"37\",\"3\",\"5\",\"8\",\"C1\",\"C\",\"37\"
\"\",\"\",\"approach-retreat\",\"41\",\"363843\",\"0.0-41.0\",\"\",\"\",\"1-2\",\"4856\",\"37\",\"1\",\"Training\",\"Stims/Figures/71-J-0-1.bmp\",\"va:fava\",\"Left\",\"37\",\"3\",\"6\",\"8\",\"C1\",\"C\",\"38\"
\"\",\"\",\"approach-retreat\",\"42\",\"369905\",\"0.0-42.0\",\"\",\"\",\"1-2\",\"4553\",\"39\",\"0\",\"Training\",\"Stims/Figures/144-J-10-3.bmp\",\"zaha:za\",\"Left\",\"37\",\"3\",\"7\",\"8\",\"C2\",\"C\",\"39\"
\"\",\"\",\"approach-retreat\",\"43\",\"376507\",\"0.0-43.0\",\"\",\"\",\"1-2\",\"5093\",\"38\",\"1\",\"Training\",\"Stims/Figures/27-J-0-1.bmp\",\"fa:sha:sha\",\"Up\",\"38\",\"3\",\"8\",\"8\",\"C1\",\"C\",\"40\"
\"\",\"\",\"approach-retreat\",\"44\",\"382135\",\"0.0-44.0\",\"\",\"\",\"1-2\",\"4121\",\"39\",\"0\",\"Training\",\"Stims/Figures/139-C-20-2.bmp\",\"vasha:sha\",\"Right\",\"37\",\"3\",\"9\",\"8\",\"C1\",\"C\",\"41\"
\"\",\"\",\"approach-retreat\",\"45\",\"388167\",\"0.0-45.0\",\"\",\"\",\"1-2\",\"4523\",\"40\",\"1\",\"Training\",\"Stims/Figures/27-C-30-1.bmp\",\"fasha:va\",\"Up\",\"40\",\"3\",\"10\",\"8\",\"C1\",\"C\",\"42\"
\"\",\"\",\"approach-retreat\",\"46\",\"394600\",\"0.0-46.0\",\"\",\"\",\"1-2\",\"4925\",\"37\",\"0\",\"Training\",\"Stims/Figures/19-J-10-4.bmp\",\"zasaha\",\"Right\",\"39\",\"3\",\"11\",\"8\",\"C2\",\"C\",\"43\"
\"\",\"\",\"approach-retreat\",\"47\",\"400316\",\"0.0-47.0\",\"\",\"\",\"1-2\",\"4207\",\"39\",\"0\",\"Training\",\"Stims/Figures/102-J-10-4.bmp\",\"za:sa:ha\",\"Left\",\"37\",\"3\",\"12\",\"8\",\"C2\",\"C\",\"44\"
\"\",\"\",\"approach-retreat\",\"48\",\"406484\",\"0.0-48.0\",\"\",\"\",\"1-2\",\"4659\",\"40\",\"0\",\"Training\",\"Stims/Figures/84-C-20-2.bmp\",\"fa:fava\",\"Down\",\"38\",\"3\",\"13\",\"8\",\"C1\",\"C\",\"45\"
\"\",\"\",\"approach-retreat\",\"49\",\"412371\",\"0.0-49.0\",\"\",\"\",\"1-2\",\"4379\",\"37\",\"0\",\"Training\",\"Stims/Figures/102-C-20-4.bmp\",\"za:saza\",\"Left\",\"39\",\"3\",\"14\",\"8\",\"C2\",\"C\",\"46\"
\"\",\"\",\"approach-retreat\",\"50\",\"418094\",\"0.0-50.0\",\"\",\"\",\"1-2\",\"4216\",\"38\",\"0\",\"Training\",\"Stims/Figures/100-C-30-3.bmp\",\"sa:ha:ha\",\"Up\",\"40\",\"3\",\"15\",\"8\",\"C2\",\"C\",\"47\"
\"\",\"\",\"approach-retreat\",\"51\",\"424029\",\"0.0-51.0\",\"\",\"\",\"1-2\",\"4426\",\"40\",\"1\",\"Training\",\"Stims/Figures/84-J-0-2.bmp\",\"fa:fasha\",\"Down\",\"40\",\"3\",\"16\",\"8\",\"C1\",\"C\",\"48\"
\"\",\"\",\"approach-retreat\",\"52\",\"429718\",\"0.0-52.0\",\"\",\"\",\"1-2\",\"4181\",\"38\",\"1\",\"Training\",\"Stims/Figures/71-J-0-1.bmp\",\"va:fava\",\"Up\",\"38\",\"4\",\"1\",\"8\",\"C1\",\"C\",\"49\"
\"\",\"\",\"approach-retreat\",\"53\",\"435413\",\"0.0-53.0\",\"\",\"\",\"1-2\",\"4187\",\"38\",\"0\",\"Training\",\"Stims/Figures/84-C-20-2.bmp\",\"fa:fava\",\"Up\",\"40\",\"4\",\"2\",\"8\",\"C1\",\"C\",\"50\"
\"\",\"\",\"approach-retreat\",\"54\",\"441432\",\"0.0-54.0\",\"\",\"\",\"1-2\",\"4509\",\"37\",\"0\",\"Training\",\"Stims/Figures/139-C-20-2.bmp\",\"vasha:sha\",\"Left\",\"39\",\"4\",\"3\",\"8\",\"C1\",\"C\",\"51\"
\"\",\"\",\"approach-retreat\",\"55\",\"448178\",\"0.0-55.0\",\"\",\"\",\"1-2\",\"5238\",\"37\",\"0\",\"Training\",\"Stims/Figures/100-C-30-3.bmp\",\"sa:ha:ha\",\"Left\",\"39\",\"4\",\"4\",\"8\",\"C2\",\"C\",\"52\"
\"\",\"\",\"approach-retreat\",\"56\",\"454602\",\"0.0-56.0\",\"\",\"\",\"1-2\",\"4917\",\"38\",\"0\",\"Training\",\"Stims/Figures/19-J-10-4.bmp\",\"zasaha\",\"Down\",\"40\",\"4\",\"5\",\"8\",\"C2\",\"C\",\"53\"
\"\",\"\",\"approach-retreat\",\"57\",\"460214\",\"0.0-57.0\",\"\",\"\",\"1-2\",\"4104\",\"39\",\"1\",\"Training\",\"Stims/Figures/139-J-0-2.bmp\",\"fafava\",\"Right\",\"39\",\"4\",\"6\",\"8\",\"C1\",\"C\",\"54\"
\"\",\"\",\"approach-retreat\",\"58\",\"465967\",\"0.0-58.0\",\"\",\"\",\"1-2\",\"4243\",\"38\",\"0\",\"Training\",\"Stims/Figures/102-C-20-4.bmp\",\"za:saza\",\"Up\",\"40\",\"4\",\"7\",\"8\",\"C2\",\"C\",\"55\"
\"\",\"\",\"approach-retreat\",\"59\",\"472753\",\"0.0-59.0\",\"\",\"\",\"1-2\",\"5278\",\"39\",\"1\",\"Training\",\"Stims/Figures/71-C-30-1.bmp\",\"va:sha:sha\",\"Left\",\"39\",\"4\",\"8\",\"8\",\"C1\",\"C\",\"56\"
\"\",\"\",\"approach-retreat\",\"60\",\"479024\",\"0.0-60.0\",\"\",\"\",\"1-2\",\"4763\",\"39\",\"1\",\"Training\",\"Stims/Figures/144-J-10-3.bmp\",\"zaha:za\",\"Right\",\"39\",\"4\",\"9\",\"8\",\"C2\",\"C\",\"57\"
\"\",\"\",\"approach-retreat\",\"61\",\"485059\",\"0.0-61.0\",\"\",\"\",\"1-2\",\"4527\",\"37\",\"1\",\"Training\",\"Stims/Figures/102-J-10-4.bmp\",\"za:sa:ha\",\"Left\",\"37\",\"4\",\"10\",\"8\",\"C2\",\"C\",\"58\"
\"\",\"\",\"approach-retreat\",\"62\",\"491305\",\"0.0-62.0\",\"\",\"\",\"1-2\",\"4737\",\"37\",\"0\",\"Training\",\"Stims/Figures/27-J-0-1.bmp\",\"fa:sha:sha\",\"Right\",\"39\",\"4\",\"11\",\"8\",\"C1\",\"C\",\"59\"
\"\",\"\",\"approach-retreat\",\"63\",\"498284\",\"0.0-63.0\",\"\",\"\",\"1-2\",\"5470\",\"38\",\"1\",\"Training\",\"Stims/Figures/84-J-0-2.bmp\",\"fa:fasha\",\"Up\",\"38\",\"4\",\"12\",\"8\",\"C1\",\"C\",\"60\"
\"\",\"\",\"approach-retreat\",\"64\",\"504346\",\"0.0-64.0\",\"\",\"\",\"1-2\",\"4553\",\"40\",\"0\",\"Training\",\"Stims/Figures/144-C-30-3.bmp\",\"za:saha\",\"Down\",\"38\",\"4\",\"13\",\"8\",\"C2\",\"C\",\"61\"
\"\",\"\",\"approach-retreat\",\"65\",\"510144\",\"0.0-65.0\",\"\",\"\",\"1-2\",\"4288\",\"40\",\"0\",\"Training\",\"Stims/Figures/19-C-20-4.bmp\",\"zahaha\",\"Down\",\"38\",\"4\",\"14\",\"8\",\"C2\",\"C\",\"62\"
\"\",\"\",\"approach-retreat\",\"66\",\"515755\",\"0.0-66.0\",\"\",\"\",\"1-2\",\"4103\",\"38\",\"1\",\"Training\",\"Stims/Figures/27-C-30-1.bmp\",\"fasha:va\",\"Down\",\"38\",\"4\",\"15\",\"8\",\"C1\",\"C\",\"63\"
\"\",\"\",\"approach-retreat\",\"67\",\"521767\",\"0.0-67.0\",\"\",\"\",\"1-2\",\"4506\",\"39\",\"1\",\"Training\",\"Stims/Figures/100-J-10-3.bmp\",\"sasaza\",\"Right\",\"39\",\"4\",\"16\",\"8\",\"C2\",\"C\",\"64\"
\"\",\"\",\"approach-retreat\",\"68\",\"527854\",\"0.0-68.0\",\"\",\"\",\"1-2\",\"4576\",\"40\",\"0\",\"Training\",\"Stims/Figures/102-C-20-4.bmp\",\"za:saza\",\"Down\",\"38\",\"5\",\"1\",\"8\",\"C2\",\"C\",\"65\"
\"\",\"\",\"approach-retreat\",\"69\",\"533530\",\"0.0-69.0\",\"\",\"\",\"1-2\",\"4168\",\"38\",\"0\",\"Training\",\"Stims/Figures/19-C-20-4.bmp\",\"zahaha\",\"Up\",\"40\",\"5\",\"2\",\"8\",\"C2\",\"C\",\"66\"
\"\",\"\",\"approach-retreat\",\"70\",\"539567\",\"0.0-70.0\",\"\",\"\",\"1-2\",\"4529\",\"37\",\"1\",\"Training\",\"Stims/Figures/19-J-10-4.bmp\",\"zasaha\",\"Left\",\"37\",\"5\",\"3\",\"8\",\"C2\",\"C\",\"67\"
\"\",\"\",\"approach-retreat\",\"71\",\"545813\",\"0.0-71.0\",\"\",\"\",\"1-2\",\"4736\",\"39\",\"1\",\"Training\",\"Stims/Figures/71-J-0-1.bmp\",\"va:fava\",\"Right\",\"39\",\"5\",\"4\",\"8\",\"C1\",\"C\",\"68\"
\"\",\"\",\"approach-retreat\",\"72\",\"551642\",\"0.0-72.0\",\"\",\"\",\"1-2\",\"4324\",\"39\",\"1\",\"Training\",\"Stims/Figures/84-J-0-2.bmp\",\"fa:fasha\",\"Right\",\"39\",\"5\",\"5\",\"8\",\"C1\",\"C\",\"69\"
\"\",\"\",\"approach-retreat\",\"73\",\"557331\",\"0.0-73.0\",\"\",\"\",\"1-2\",\"4180\",\"37\",\"0\",\"Training\",\"Stims/Figures/71-C-30-1.bmp\",\"va:sha:sha\",\"Left\",\"39\",\"5\",\"6\",\"8\",\"C1\",\"C\",\"70\"
\"\",\"\",\"approach-retreat\",\"74\",\"563105\",\"0.0-74.0\",\"\",\"\",\"1-2\",\"4267\",\"37\",\"0\",\"Training\",\"Stims/Figures/84-C-20-2.bmp\",\"fa:fava\",\"Left\",\"39\",\"5\",\"7\",\"8\",\"C1\",\"C\",\"71\"
\"\",\"\",\"approach-retreat\",\"75\",\"568929\",\"0.0-75.0\",\"\",\"\",\"1-2\",\"4315\",\"39\",\"0\",\"Training\",\"Stims/Figures/139-C-20-2.bmp\",\"vasha:sha\",\"Right\",\"37\",\"5\",\"8\",\"8\",\"C1\",\"C\",\"72\"
\"\",\"\",\"approach-retreat\",\"76\",\"574825\",\"0.0-76.0\",\"\",\"\",\"1-2\",\"4387\",\"37\",\"1\",\"Training\",\"Stims/Figures/100-C-30-3.bmp\",\"sa:ha:ha\",\"Right\",\"37\",\"5\",\"9\",\"8\",\"C2\",\"C\",\"73\"
\"\",\"\",\"approach-retreat\",\"77\",\"580746\",\"0.0-77.0\",\"\",\"\",\"1-2\",\"4414\",\"40\",\"1\",\"Training\",\"Stims/Figures/144-C-30-3.bmp\",\"za:saha\",\"Up\",\"40\",\"5\",\"10\",\"8\",\"C2\",\"C\",\"74\"
\"\",\"\",\"approach-retreat\",\"78\",\"586515\",\"0.0-78.0\",\"\",\"\",\"1-2\",\"4261\",\"38\",\"0\",\"Training\",\"Stims/Figures/100-J-10-3.bmp\",\"sasaza\",\"Down\",\"40\",\"5\",\"11\",\"8\",\"C2\",\"C\",\"75\"
\"\",\"\",\"approach-retreat\",\"79\",\"592113\",\"0.0-79.0\",\"\",\"\",\"1-2\",\"4090\",\"40\",\"1\",\"Training\",\"Stims/Figures/144-J-10-3.bmp\",\"zaha:za\",\"Down\",\"40\",\"5\",\"12\",\"8\",\"C2\",\"C\",\"76\"
\"\",\"\",\"approach-retreat\",\"80\",\"598147\",\"0.0-80.0\",\"\",\"\",\"1-2\",\"4524\",\"37\",\"1\",\"Training\",\"Stims/Figures/102-J-10-4.bmp\",\"za:sa:ha\",\"Left\",\"37\",\"5\",\"13\",\"8\",\"C2\",\"C\",\"77\"
\"\",\"\",\"approach-retreat\",\"81\",\"603870\",\"0.0-81.0\",\"\",\"\",\"1-2\",\"4214\",\"38\",\"1\",\"Training\",\"Stims/Figures/139-J-0-2.bmp\",\"fafava\",\"Up\",\"38\",\"5\",\"14\",\"8\",\"C1\",\"C\",\"78\"
\"\",\"\",\"approach-retreat\",\"82\",\"610297\",\"0.0-82.0\",\"\",\"\",\"1-2\",\"4916\",\"38\",\"1\",\"Training\",\"Stims/Figures/27-C-30-1.bmp\",\"fasha:va\",\"Down\",\"38\",\"5\",\"15\",\"8\",\"C1\",\"C\",\"79\"
\"\",\"\",\"approach-retreat\",\"83\",\"616257\",\"0.0-83.0\",\"\",\"\",\"1-2\",\"4454\",\"38\",\"1\",\"Training\",\"Stims/Figures/27-J-0-1.bmp\",\"fa:sha:sha\",\"Up\",\"38\",\"5\",\"16\",\"8\",\"C1\",\"C\",\"80\"
\"\",\"\",\"approach-retreat\",\"84\",\"622305\",\"0.0-84.0\",\"\",\"\",\"1-2\",\"4540\",\"40\",\"0\",\"Training\",\"Stims/Figures/71-C-30-1.bmp\",\"va:sha:sha\",\"Down\",\"38\",\"6\",\"1\",\"8\",\"C1\",\"C\",\"81\"
\"\",\"\",\"approach-retreat\",\"85\",\"628451\",\"0.0-85.0\",\"\",\"\",\"1-2\",\"4636\",\"37\",\"0\",\"Training\",\"Stims/Figures/100-J-10-3.bmp\",\"sasaza\",\"Right\",\"39\",\"6\",\"2\",\"8\",\"C2\",\"C\",\"82\"
\"\",\"\",\"approach-retreat\",\"86\",\"634406\",\"0.0-86.0\",\"\",\"\",\"1-2\",\"4448\",\"37\",\"0\",\"Training\",\"Stims/Figures/19-C-20-4.bmp\",\"zahaha\",\"Left\",\"39\",\"6\",\"3\",\"8\",\"C2\",\"C\",\"83\"
\"\",\"\",\"approach-retreat\",\"87\",\"640196\",\"0.0-87.0\",\"\",\"\",\"1-2\",\"4287\",\"38\",\"1\",\"Training\",\"Stims/Figures/139-C-20-2.bmp\",\"vasha:sha\",\"Down\",\"38\",\"6\",\"4\",\"8\",\"C1\",\"C\",\"84\"
\"\",\"\",\"approach-retreat\",\"88\",\"645961\",\"0.0-88.0\",\"\",\"\",\"1-2\",\"4256\",\"38\",\"1\",\"Training\",\"Stims/Figures/139-J-0-2.bmp\",\"fafava\",\"Up\",\"38\",\"6\",\"5\",\"8\",\"C1\",\"C\",\"85\"
\"\",\"\",\"approach-retreat\",\"89\",\"651753\",\"0.0-89.0\",\"\",\"\",\"1-2\",\"4284\",\"37\",\"0\",\"Training\",\"Stims/Figures/102-C-20-4.bmp\",\"za:saza\",\"Left\",\"39\",\"6\",\"6\",\"8\",\"C2\",\"C\",\"86\"
\"\",\"\",\"approach-retreat\",\"90\",\"657484\",\"0.0-90.0\",\"\",\"\",\"1-2\",\"4222\",\"38\",\"1\",\"Training\",\"Stims/Figures/84-J-0-2.bmp\",\"fa:fasha\",\"Up\",\"38\",\"6\",\"7\",\"8\",\"C1\",\"C\",\"87\"
\"\",\"\",\"approach-retreat\",\"91\",\"663293\",\"0.0-91.0\",\"\",\"\",\"1-2\",\"4298\",\"37\",\"0\",\"Training\",\"Stims/Figures/144-C-30-3.bmp\",\"za:saha\",\"Left\",\"39\",\"6\",\"8\",\"8\",\"C2\",\"C\",\"88\"
\"\",\"\",\"approach-retreat\",\"92\",\"669204\",\"0.0-92.0\",\"\",\"\",\"1-2\",\"4402\",\"39\",\"0\",\"Training\",\"Stims/Figures/27-C-30-1.bmp\",\"fasha:va\",\"Right\",\"37\",\"6\",\"9\",\"8\",\"C1\",\"C\",\"89\"
\"\",\"\",\"approach-retreat\",\"93\",\"674996\",\"0.0-93.0\",\"\",\"\",\"1-2\",\"4281\",\"37\",\"0\",\"Training\",\"Stims/Figures/27-J-0-1.bmp\",\"fa:sha:sha\",\"Right\",\"39\",\"6\",\"10\",\"8\",\"C1\",\"C\",\"90\"
\"\",\"\",\"approach-retreat\",\"94\",\"680867\",\"0.0-94.0\",\"\",\"\",\"1-2\",\"4362\",\"37\",\"1\",\"Training\",\"Stims/Figures/84-C-20-2.bmp\",\"fa:fava\",\"Right\",\"37\",\"6\",\"11\",\"8\",\"C1\",\"C\",\"91\"
\"\",\"\",\"approach-retreat\",\"95\",\"686607\",\"0.0-95.0\",\"\",\"\",\"1-2\",\"4232\",\"38\",\"1\",\"Training\",\"Stims/Figures/71-J-0-1.bmp\",\"va:fava\",\"Up\",\"38\",\"6\",\"12\",\"8\",\"C1\",\"C\",\"92\"
\"\",\"\",\"approach-retreat\",\"96\",\"692339\",\"0.0-96.0\",\"\",\"\",\"1-2\",\"4220\",\"38\",\"0\",\"Training\",\"Stims/Figures/144-J-10-3.bmp\",\"zaha:za\",\"Down\",\"40\",\"6\",\"13\",\"8\",\"C2\",\"C\",\"93\"
\"\",\"\",\"approach-retreat\",\"97\",\"698019\",\"0.0-97.0\",\"\",\"\",\"1-2\",\"4174\",\"38\",\"0\",\"Training\",\"Stims/Figures/102-J-10-4.bmp\",\"za:sa:ha\",\"Down\",\"40\",\"6\",\"14\",\"8\",\"C2\",\"C\",\"94\"
\"\",\"\",\"approach-retreat\",\"98\",\"703851\",\"0.0-98.0\",\"\",\"\",\"1-2\",\"4323\",\"39\",\"1\",\"Training\",\"Stims/Figures/100-C-30-3.bmp\",\"sa:ha:ha\",\"Left\",\"39\",\"6\",\"15\",\"8\",\"C2\",\"C\",\"95\"
\"\",\"\",\"approach-retreat\",\"99\",\"709606\",\"0.0-99.0\",\"\",\"\",\"1-2\",\"4249\",\"38\",\"1\",\"Training\",\"Stims/Figures/19-J-10-4.bmp\",\"zasaha\",\"Up\",\"38\",\"6\",\"16\",\"8\",\"C2\",\"C\",\"96\"
\"\",\"\",\"approach-retreat\",\"100\",\"715321\",\"0.0-100.0\",\"\",\"\",\"1-2\",\"4206\",\"38\",\"1\",\"Training\",\"Stims/Figures/139-J-0-2.bmp\",\"fafava\",\"Up\",\"38\",\"7\",\"1\",\"8\",\"C1\",\"C\",\"97\"
\"\",\"\",\"approach-retreat\",\"101\",\"721274\",\"0.0-101.0\",\"\",\"\",\"1-2\",\"4443\",\"39\",\"1\",\"Training\",\"Stims/Figures/144-J-10-3.bmp\",\"zaha:za\",\"Right\",\"39\",\"7\",\"2\",\"8\",\"C2\",\"C\",\"98\"
\"\",\"\",\"approach-retreat\",\"102\",\"726931\",\"0.0-102.0\",\"\",\"\",\"1-2\",\"4147\",\"37\",\"1\",\"Training\",\"Stims/Figures/102-C-20-4.bmp\",\"za:saza\",\"Right\",\"37\",\"7\",\"3\",\"8\",\"C2\",\"C\",\"99\"
\"\",\"\",\"approach-retreat\",\"103\",\"732580\",\"0.0-103.0\",\"\",\"\",\"1-2\",\"4141\",\"38\",\"0\",\"Training\",\"Stims/Figures/84-J-0-2.bmp\",\"fa:fasha\",\"Down\",\"40\",\"7\",\"4\",\"8\",\"C1\",\"C\",\"100\"
\"\",\"\",\"approach-retreat\",\"104\",\"738574\",\"0.0-104.0\",\"\",\"\",\"1-2\",\"4485\",\"39\",\"0\",\"Training\",\"Stims/Figures/27-J-0-1.bmp\",\"fa:sha:sha\",\"Left\",\"37\",\"7\",\"5\",\"8\",\"C1\",\"C\",\"101\"
\"\",\"\",\"approach-retreat\",\"105\",\"744312\",\"0.0-105.0\",\"\",\"\",\"1-2\",\"4234\",\"38\",\"0\",\"Training\",\"Stims/Figures/144-C-30-3.bmp\",\"za:saha\",\"Up\",\"40\",\"7\",\"6\",\"8\",\"C2\",\"C\",\"102\"
\"\",\"\",\"approach-retreat\",\"106\",\"750155\",\"0.0-106.0\",\"\",\"\",\"1-2\",\"4333\",\"38\",\"0\",\"Training\",\"Stims/Figures/102-J-10-4.bmp\",\"za:sa:ha\",\"Down\",\"40\",\"7\",\"7\",\"8\",\"C2\",\"C\",\"103\"
\"\",\"\",\"approach-retreat\",\"107\",\"756551\",\"0.0-107.0\",\"\",\"\",\"1-2\",\"4889\",\"39\",\"1\",\"Training\",\"Stims/Figures/71-J-0-1.bmp\",\"va:fava\",\"Right\",\"39\",\"7\",\"8\",\"8\",\"C1\",\"C\",\"104\"
\"\",\"\",\"approach-retreat\",\"108\",\"762248\",\"0.0-108.0\",\"\",\"\",\"1-2\",\"4189\",\"37\",\"0\",\"Training\",\"Stims/Figures/100-C-30-3.bmp\",\"sa:ha:ha\",\"Left\",\"39\",\"7\",\"9\",\"8\",\"C2\",\"C\",\"105\"
\"\",\"\",\"approach-retreat\",\"109\",\"768064\",\"0.0-109.0\",\"\",\"\",\"1-2\",\"4305\",\"37\",\"0\",\"Training\",\"Stims/Figures/139-C-20-2.bmp\",\"vasha:sha\",\"Left\",\"39\",\"7\",\"10\",\"8\",\"C1\",\"C\",\"106\"
\"\",\"\",\"approach-retreat\",\"110\",\"773915\",\"0.0-110.0\",\"\",\"\",\"1-2\",\"4344\",\"40\",\"0\",\"Training\",\"Stims/Figures/100-J-10-3.bmp\",\"sasaza\",\"Up\",\"38\",\"7\",\"11\",\"8\",\"C2\",\"C\",\"107\"
\"\",\"\",\"approach-retreat\",\"111\",\"779522\",\"0.0-111.0\",\"\",\"\",\"1-2\",\"4099\",\"38\",\"0\",\"Training\",\"Stims/Figures/19-C-20-4.bmp\",\"zahaha\",\"Up\",\"40\",\"7\",\"12\",\"8\",\"C2\",\"C\",\"108\"
\"\",\"\",\"approach-retreat\",\"112\",\"785136\",\"0.0-112.0\",\"\",\"\",\"1-2\",\"4103\",\"37\",\"0\",\"Training\",\"Stims/Figures/84-C-20-2.bmp\",\"fa:fava\",\"Left\",\"39\",\"7\",\"13\",\"8\",\"C1\",\"C\",\"109\"
\"\",\"\",\"approach-retreat\",\"113\",\"790794\",\"0.0-113.0\",\"\",\"\",\"1-2\",\"4147\",\"38\",\"0\",\"Training\",\"Stims/Figures/19-J-10-4.bmp\",\"zasaha\",\"Down\",\"40\",\"7\",\"14\",\"8\",\"C2\",\"C\",\"110\"
\"\",\"\",\"approach-retreat\",\"114\",\"796429\",\"0.0-114.0\",\"\",\"\",\"1-2\",\"4126\",\"39\",\"0\",\"Training\",\"Stims/Figures/27-C-30-1.bmp\",\"fasha:va\",\"Right\",\"37\",\"7\",\"15\",\"8\",\"C1\",\"C\",\"111\"
\"\",\"\",\"approach-retreat\",\"115\",\"802513\",\"0.0-115.0\",\"\",\"\",\"1-2\",\"4575\",\"40\",\"0\",\"Training\",\"Stims/Figures/71-C-30-1.bmp\",\"va:sha:sha\",\"Down\",\"38\",\"7\",\"16\",\"8\",\"C1\",\"C\",\"112\"
\"\",\"\",\"approach-retreat\",\"116\",\"808380\",\"0.0-116.0\",\"\",\"\",\"1-2\",\"4359\",\"37\",\"0\",\"Training\",\"Stims/Figures/19-J-10-4.bmp\",\"zasaha\",\"Right\",\"39\",\"8\",\"1\",\"8\",\"C2\",\"C\",\"113\"
\"\",\"\",\"approach-retreat\",\"117\",\"814198\",\"0.0-117.0\",\"\",\"\",\"1-2\",\"4310\",\"38\",\"0\",\"Training\",\"Stims/Figures/27-C-30-1.bmp\",\"fasha:va\",\"Up\",\"40\",\"8\",\"2\",\"8\",\"C1\",\"C\",\"114\"
\"\",\"\",\"approach-retreat\",\"118\",\"819873\",\"0.0-118.0\",\"\",\"\",\"1-2\",\"4166\",\"37\",\"1\",\"Training\",\"Stims/Figures/139-J-0-2.bmp\",\"fafava\",\"Left\",\"37\",\"8\",\"3\",\"8\",\"C1\",\"C\",\"115\"
\"\",\"\",\"approach-retreat\",\"119\",\"825604\",\"0.0-119.0\",\"\",\"\",\"1-2\",\"4222\",\"38\",\"0\",\"Training\",\"Stims/Figures/144-C-30-3.bmp\",\"za:saha\",\"Up\",\"40\",\"8\",\"4\",\"8\",\"C2\",\"C\",\"116\"
\"\",\"\",\"approach-retreat\",\"120\",\"831315\",\"0.0-120.0\",\"\",\"\",\"1-2\",\"4201\",\"40\",\"0\",\"Training\",\"Stims/Figures/102-C-20-4.bmp\",\"za:saza\",\"Down\",\"38\",\"8\",\"5\",\"8\",\"C2\",\"C\",\"117\"
\"\",\"\",\"approach-retreat\",\"121\",\"837134\",\"0.0-121.0\",\"\",\"\",\"1-2\",\"4308\",\"37\",\"0\",\"Training\",\"Stims/Figures/84-C-20-2.bmp\",\"fa:fava\",\"Left\",\"39\",\"8\",\"6\",\"8\",\"C1\",\"C\",\"118\"
\"\",\"\",\"approach-retreat\",\"122\",\"842848\",\"0.0-122.0\",\"\",\"\",\"1-2\",\"4206\",\"38\",\"0\",\"Training\",\"Stims/Figures/71-C-30-1.bmp\",\"va:sha:sha\",\"Up\",\"40\",\"8\",\"7\",\"8\",\"C1\",\"C\",\"119\"
\"\",\"\",\"approach-retreat\",\"123\",\"848538\",\"0.0-123.0\",\"\",\"\",\"1-2\",\"4179\",\"38\",\"0\",\"Training\",\"Stims/Figures/27-J-0-1.bmp\",\"fa:sha:sha\",\"Down\",\"40\",\"8\",\"8\",\"8\",\"C1\",\"C\",\"120\"
\"\",\"\",\"approach-retreat\",\"124\",\"854272\",\"0.0-124.0\",\"\",\"\",\"1-2\",\"4226\",\"40\",\"0\",\"Training\",\"Stims/Figures/100-C-30-3.bmp\",\"sa:ha:ha\",\"Down\",\"38\",\"8\",\"9\",\"8\",\"C2\",\"C\",\"121\"
\"\",\"\",\"approach-retreat\",\"125\",\"860391\",\"0.0-125.0\",\"\",\"\",\"1-2\",\"4611\",\"39\",\"0\",\"Training\",\"Stims/Figures/19-C-20-4.bmp\",\"zahaha\",\"Right\",\"37\",\"8\",\"10\",\"8\",\"C2\",\"C\",\"122\"
\"\",\"\",\"approach-retreat\",\"126\",\"866781\",\"0.0-126.0\",\"\",\"\",\"1-2\",\"4883\",\"37\",\"0\",\"Training\",\"Stims/Figures/139-C-20-2.bmp\",\"vasha:sha\",\"Left\",\"39\",\"8\",\"11\",\"8\",\"C1\",\"C\",\"123\"
\"\",\"\",\"approach-retreat\",\"127\",\"872471\",\"0.0-127.0\",\"\",\"\",\"1-2\",\"4181\",\"39\",\"1\",\"Training\",\"Stims/Figures/71-J-0-1.bmp\",\"va:fava\",\"Right\",\"39\",\"8\",\"12\",\"8\",\"C1\",\"C\",\"124\"
\"\",\"\",\"approach-retreat\",\"128\",\"878127\",\"0.0-128.0\",\"\",\"\",\"1-2\",\"4148\",\"38\",\"1\",\"Training\",\"Stims/Figures/144-J-10-3.bmp\",\"zaha:za\",\"Up\",\"38\",\"8\",\"13\",\"8\",\"C2\",\"C\",\"125\"
\"\",\"\",\"approach-retreat\",\"129\",\"883781\",\"0.0-129.0\",\"\",\"\",\"1-2\",\"4146\",\"37\",\"1\",\"Training\",\"Stims/Figures/102-J-10-4.bmp\",\"za:sa:ha\",\"Left\",\"37\",\"8\",\"14\",\"8\",\"C2\",\"C\",\"126\"
\"\",\"\",\"approach-retreat\",\"130\",\"889522\",\"0.0-130.0\",\"\",\"\",\"1-2\",\"4228\",\"39\",\"1\",\"Training\",\"Stims/Figures/84-J-0-2.bmp\",\"fa:fasha\",\"Right\",\"39\",\"8\",\"15\",\"8\",\"C1\",\"C\",\"127\"
\"\",\"\",\"approach-retreat\",\"131\",\"895311\",\"0.0-131.0\",\"\",\"\",\"1-2\",\"4282\",\"40\",\"1\",\"Training\",\"Stims/Figures/100-J-10-3.bmp\",\"sasaza\",\"Down\",\"40\",\"8\",\"16\",\"8\",\"C2\",\"C\",\"128\"
\"\",\"\",\"approach-retreat\",\"132\",\"901046\",\"0.0-132.0\",\"\",\"\",\"1-2\",\"4227\",\"37\",\"1\",\"Training\",\"Stims/Figures/139-J-0-2.bmp\",\"fafava\",\"Left\",\"37\",\"9\",\"1\",\"8\",\"C1\",\"C\",\"129\"
\"\",\"\",\"approach-retreat\",\"133\",\"906664\",\"0.0-133.0\",\"\",\"\",\"1-2\",\"4109\",\"39\",\"1\",\"Training\",\"Stims/Figures/27-C-30-1.bmp\",\"fasha:va\",\"Left\",\"39\",\"9\",\"2\",\"8\",\"C1\",\"C\",\"130\"
\"\",\"\",\"approach-retreat\",\"134\",\"912254\",\"0.0-134.0\",\"\",\"\",\"1-2\",\"4083\",\"37\",\"0\",\"Training\",\"Stims/Figures/19-J-10-4.bmp\",\"zasaha\",\"Right\",\"39\",\"9\",\"3\",\"8\",\"C2\",\"C\",\"131\"
\"\",\"\",\"approach-retreat\",\"135\",\"918080\",\"0.0-135.0\",\"\",\"\",\"1-2\",\"4322\",\"40\",\"0\",\"Training\",\"Stims/Figures/84-C-20-2.bmp\",\"fa:fava\",\"Down\",\"38\",\"9\",\"4\",\"8\",\"C1\",\"C\",\"132\"
\"\",\"\",\"approach-retreat\",\"136\",\"923710\",\"0.0-136.0\",\"\",\"\",\"1-2\",\"4121\",\"38\",\"1\",\"Training\",\"Stims/Figures/144-C-30-3.bmp\",\"za:saha\",\"Down\",\"38\",\"9\",\"5\",\"8\",\"C2\",\"C\",\"133\"
\"\",\"\",\"approach-retreat\",\"137\",\"929607\",\"0.0-137.0\",\"\",\"\",\"1-2\",\"4389\",\"40\",\"0\",\"Training\",\"Stims/Figures/100-J-10-3.bmp\",\"sasaza\",\"Up\",\"38\",\"9\",\"6\",\"8\",\"C2\",\"C\",\"134\"
\"\",\"\",\"approach-retreat\",\"138\",\"935386\",\"0.0-138.0\",\"\",\"\",\"1-2\",\"4271\",\"37\",\"0\",\"Training\",\"Stims/Figures/100-C-30-3.bmp\",\"sa:ha:ha\",\"Left\",\"39\",\"9\",\"7\",\"8\",\"C2\",\"C\",\"135\"
\"\",\"\",\"approach-retreat\",\"139\",\"940982\",\"0.0-139.0\",\"\",\"\",\"1-2\",\"4088\",\"37\",\"0\",\"Training\",\"Stims/Figures/144-J-10-3.bmp\",\"zaha:za\",\"Right\",\"39\",\"9\",\"8\",\"8\",\"C2\",\"C\",\"136\"
\"\",\"\",\"approach-retreat\",\"140\",\"946997\",\"0.0-140.0\",\"\",\"\",\"1-2\",\"4506\",\"38\",\"1\",\"Training\",\"Stims/Figures/27-J-0-1.bmp\",\"fa:sha:sha\",\"Up\",\"38\",\"9\",\"9\",\"8\",\"C1\",\"C\",\"137\"
\"\",\"\",\"approach-retreat\",\"141\",\"952748\",\"0.0-141.0\",\"\",\"\",\"1-2\",\"4243\",\"39\",\"1\",\"Training\",\"Stims/Figures/84-J-0-2.bmp\",\"fa:fasha\",\"Right\",\"39\",\"9\",\"10\",\"8\",\"C1\",\"C\",\"138\"
\"\",\"\",\"approach-retreat\",\"142\",\"959132\",\"0.0-142.0\",\"\",\"\",\"1-2\",\"4875\",\"38\",\"1\",\"Training\",\"Stims/Figures/102-J-10-4.bmp\",\"za:sa:ha\",\"Up\",\"38\",\"9\",\"11\",\"8\",\"C2\",\"C\",\"139\"
\"\",\"\",\"approach-retreat\",\"143\",\"965005\",\"0.0-143.0\",\"\",\"\",\"1-2\",\"4363\",\"38\",\"1\",\"Training\",\"Stims/Figures/71-C-30-1.bmp\",\"va:sha:sha\",\"Down\",\"38\",\"9\",\"12\",\"8\",\"C1\",\"C\",\"140\"
\"\",\"\",\"approach-retreat\",\"144\",\"970764\",\"0.0-144.0\",\"\",\"\",\"1-2\",\"4251\",\"38\",\"0\",\"Training\",\"Stims/Figures/102-C-20-4.bmp\",\"za:saza\",\"Up\",\"40\",\"9\",\"13\",\"8\",\"C2\",\"C\",\"141\"
\"\",\"\",\"approach-retreat\",\"145\",\"976701\",\"0.0-145.0\",\"\",\"\",\"1-2\",\"4426\",\"39\",\"1\",\"Training\",\"Stims/Figures/19-C-20-4.bmp\",\"zahaha\",\"Left\",\"39\",\"9\",\"14\",\"8\",\"C2\",\"C\",\"142\"
\"\",\"\",\"approach-retreat\",\"146\",\"982557\",\"0.0-146.0\",\"\",\"\",\"1-2\",\"4348\",\"38\",\"0\",\"Training\",\"Stims/Figures/71-J-0-1.bmp\",\"va:fava\",\"Down\",\"40\",\"9\",\"15\",\"8\",\"C1\",\"C\",\"143\"
\"\",\"\",\"approach-retreat\",\"147\",\"988095\",\"0.0-147.0\",\"\",\"\",\"1-2\",\"4030\",\"39\",\"0\",\"Training\",\"Stims/Figures/139-C-20-2.bmp\",\"vasha:sha\",\"Right\",\"37\",\"9\",\"16\",\"8\",\"C1\",\"C\",\"144\"
\"12214\",\"\",\"instructions\",\"148\",\"1000310\",\"0.0-148.0\",\"[{\"\"page_index\"\":0,\"\"viewing_time\"\":12214}]\",\"\",\"\",\"\",\"\",\"\",\"\",\"\",\"\",\"\",\"\",\"\",\"\",\"\",\"\",\"\",\"\"
\"\",\"\",\"approach-retreat\",\"149\",\"1006289\",\"0.0-149.0\",\"\",\"\",\"1-2\",\"4471\",\"38\",\"1\",\"Testing\",\"Stims/Figures/102-C-20-4.bmp\",\"za:saza\",\"Down\",\"38\",\"1\",\"1\",\"8\",\"C2\",\"C\",\"1\"
\"\",\"\",\"approach-retreat\",\"150\",\"1011944\",\"0.0-150.0\",\"\",\"\",\"1-2\",\"4148\",\"39\",\"1\",\"Testing\",\"Stims/Figures/7-C-20-4.bmp\",\"zahaza\",\"Left\",\"39\",\"1\",\"2\",\"8\",\"C2\",\"C\",\"2\"
\"\",\"\",\"approach-retreat\",\"151\",\"1017583\",\"0.0-151.0\",\"\",\"\",\"1-2\",\"4131\",\"38\",\"0\",\"Testing\",\"Stims/Figures/57-C-30-1.bmp\",\"va:sha:va\",\"Up\",\"40\",\"1\",\"3\",\"8\",\"C1\",\"C\",\"3\"
\"\",\"\",\"approach-retreat\",\"152\",\"1023844\",\"0.0-152.0\",\"\",\"\",\"1-2\",\"4755\",\"37\",\"1\",\"Testing\",\"Stims/Figures/100-C-30-3.bmp\",\"sa:ha:ha\",\"Right\",\"37\",\"1\",\"4\",\"8\",\"C2\",\"C\",\"4\"
\"\",\"\",\"approach-retreat\",\"153\",\"1029694\",\"0.0-153.0\",\"\",\"\",\"1-2\",\"4344\",\"38\",\"0\",\"Testing\",\"Stims/Figures/139-J-0-2.bmp\",\"fafava\",\"Down\",\"40\",\"1\",\"5\",\"8\",\"C1\",\"C\",\"5\"
\"\",\"\",\"approach-retreat\",\"154\",\"1035375\",\"0.0-154.0\",\"\",\"\",\"1-2\",\"4179\",\"38\",\"1\",\"Testing\",\"Stims/Figures/139-C-20-2.bmp\",\"vasha:sha\",\"Down\",\"38\",\"1\",\"6\",\"8\",\"C1\",\"C\",\"6\"
\"\",\"\",\"approach-retreat\",\"155\",\"1041040\",\"0.0-155.0\",\"\",\"\",\"1-2\",\"4158\",\"39\",\"1\",\"Testing\",\"Stims/Figures/85-J-0-2.bmp\",\"fashava\",\"Right\",\"39\",\"1\",\"7\",\"8\",\"C1\",\"C\",\"7\"
\"\",\"\",\"approach-retreat\",\"156\",\"1046695\",\"0.0-156.0\",\"\",\"\",\"1-2\",\"4148\",\"38\",\"1\",\"Testing\",\"Stims/Figures/71-J-0-1.bmp\",\"va:fava\",\"Up\",\"38\",\"1\",\"8\",\"8\",\"C1\",\"C\",\"8\"
\"\",\"\",\"approach-retreat\",\"157\",\"1052387\",\"0.0-157.0\",\"\",\"\",\"1-2\",\"4184\",\"38\",\"0\",\"Testing\",\"Stims/Figures/71-C-30-1.bmp\",\"va:sha:sha\",\"Up\",\"40\",\"1\",\"9\",\"8\",\"C1\",\"C\",\"9\"
\"\",\"\",\"approach-retreat\",\"158\",\"1058723\",\"0.0-158.0\",\"\",\"\",\"1-2\",\"4828\",\"39\",\"0\",\"Testing\",\"Stims/Figures/7-J-10-4.bmp\",\"sahaza\",\"Left\",\"37\",\"1\",\"10\",\"8\",\"C2\",\"C\",\"10\"
\"\",\"\",\"approach-retreat\",\"159\",\"1064498\",\"0.0-159.0\",\"\",\"\",\"1-2\",\"4267\",\"37\",\"1\",\"Testing\",\"Stims/Figures/27-C-30-1.bmp\",\"fasha:va\",\"Right\",\"37\",\"1\",\"11\",\"8\",\"C1\",\"C\",\"11\"
\"\",\"\",\"approach-retreat\",\"160\",\"1070160\",\"0.0-160.0\",\"\",\"\",\"1-2\",\"4156\",\"38\",\"1\",\"Testing\",\"Stims/Figures/57-J-0-1.bmp\",\"vashava\",\"Up\",\"38\",\"1\",\"12\",\"8\",\"C1\",\"C\",\"12\"
\"\",\"\",\"approach-retreat\",\"161\",\"1075951\",\"0.0-161.0\",\"\",\"\",\"1-2\",\"4285\",\"37\",\"1\",\"Testing\",\"Stims/Figures/144-J-10-3.bmp\",\"zaha:za\",\"Left\",\"37\",\"1\",\"13\",\"8\",\"C2\",\"C\",\"13\"
\"\",\"\",\"approach-retreat\",\"162\",\"1081557\",\"0.0-162.0\",\"\",\"\",\"1-2\",\"4099\",\"39\",\"1\",\"Testing\",\"Stims/Figures/19-C-20-4.bmp\",\"zahaha\",\"Left\",\"39\",\"1\",\"14\",\"8\",\"C2\",\"C\",\"14\"
\"\",\"\",\"approach-retreat\",\"163\",\"1087374\",\"0.0-163.0\",\"\",\"\",\"1-2\",\"4311\",\"38\",\"1\",\"Testing\",\"Stims/Figures/19-J-10-4.bmp\",\"zasaha\",\"Up\",\"38\",\"1\",\"15\",\"8\",\"C2\",\"C\",\"15\"
\"\",\"\",\"approach-retreat\",\"164\",\"1093414\",\"0.0-164.0\",\"\",\"\",\"1-2\",\"4534\",\"37\",\"1\",\"Testing\",\"Stims/Figures/84-J-0-2.bmp\",\"fa:fasha\",\"Left\",\"37\",\"1\",\"16\",\"8\",\"C1\",\"C\",\"16\"
\"\",\"\",\"approach-retreat\",\"165\",\"1099345\",\"0.0-165.0\",\"\",\"\",\"1-2\",\"4420\",\"38\",\"0\",\"Testing\",\"Stims/Figures/27-J-0-1.bmp\",\"fa:sha:sha\",\"Down\",\"40\",\"1\",\"17\",\"8\",\"C1\",\"C\",\"17\"
\"\",\"\",\"approach-retreat\",\"166\",\"1105419\",\"0.0-166.0\",\"\",\"\",\"1-2\",\"4566\",\"38\",\"1\",\"Testing\",\"Stims/Figures/84-C-20-2.bmp\",\"fa:fava\",\"Down\",\"38\",\"1\",\"18\",\"8\",\"C1\",\"C\",\"18\"
\"\",\"\",\"approach-retreat\",\"167\",\"1111714\",\"0.0-167.0\",\"\",\"\",\"1-2\",\"4779\",\"40\",\"1\",\"Testing\",\"Stims/Figures/44-C-30-3.bmp\",\"saha:ha\",\"Up\",\"40\",\"1\",\"19\",\"8\",\"C2\",\"C\",\"19\"
\"\",\"\",\"approach-retreat\",\"168\",\"1117538\",\"0.0-168.0\",\"\",\"\",\"1-2\",\"4317\",\"39\",\"1\",\"Testing\",\"Stims/Figures/100-J-10-3.bmp\",\"sasaza\",\"Right\",\"39\",\"1\",\"20\",\"8\",\"C2\",\"C\",\"20\"
\"\",\"\",\"approach-retreat\",\"169\",\"1125332\",\"0.0-169.0\",\"\",\"\",\"1-2\",\"6287\",\"39\",\"0\",\"Testing\",\"Stims/Figures/85-C-20-2.bmp\",\"vafava\",\"Right\",\"37\",\"1\",\"21\",\"8\",\"C1\",\"C\",\"21\"
\"\",\"\",\"approach-retreat\",\"170\",\"1131078\",\"0.0-170.0\",\"\",\"\",\"1-2\",\"4238\",\"39\",\"1\",\"Testing\",\"Stims/Figures/102-J-10-4.bmp\",\"za:sa:ha\",\"Right\",\"39\",\"1\",\"22\",\"8\",\"C2\",\"C\",\"22\"
\"\",\"\",\"approach-retreat\",\"171\",\"1137015\",\"0.0-171.0\",\"\",\"\",\"1-2\",\"4429\",\"37\",\"1\",\"Testing\",\"Stims/Figures/44-J-10-3.bmp\",\"zaha:ha\",\"Left\",\"37\",\"1\",\"23\",\"8\",\"C2\",\"C\",\"23\"
\"\",\"\",\"approach-retreat\",\"172\",\"1142905\",\"0.0-172.0\",\"\",\"\",\"1-2\",\"4383\",\"38\",\"1\",\"Testing\",\"Stims/Figures/144-C-30-3.bmp\",\"za:saha\",\"Down\",\"38\",\"1\",\"24\",\"8\",\"C2\",\"C\",\"24\"
\"\",\"\",\"approach-retreat\",\"173\",\"1148744\",\"0.0-173.0\",\"\",\"\",\"1-2\",\"4332\",\"39\",\"0\",\"Testing\",\"Stims/Figures/57-J-0-1.bmp\",\"vashava\",\"Left\",\"37\",\"2\",\"1\",\"8\",\"C1\",\"C\",\"25\"
\"\",\"\",\"approach-retreat\",\"174\",\"1154691\",\"0.0-174.0\",\"\",\"\",\"1-2\",\"4440\",\"39\",\"0\",\"Testing\",\"Stims/Figures/144-J-10-3.bmp\",\"zaha:za\",\"Left\",\"37\",\"2\",\"2\",\"8\",\"C2\",\"C\",\"26\"
\"\",\"\",\"approach-retreat\",\"175\",\"1160284\",\"0.0-175.0\",\"\",\"\",\"1-2\",\"4086\",\"38\",\"0\",\"Testing\",\"Stims/Figures/71-C-30-1.bmp\",\"va:sha:sha\",\"Up\",\"40\",\"2\",\"3\",\"8\",\"C1\",\"C\",\"27\"
\"\",\"\",\"approach-retreat\",\"176\",\"1165722\",\"0.0-176.0\",\"\",\"\",\"1-2\",\"3931\",\"40\",\"0\",\"Testing\",\"Stims/Figures/44-C-30-3.bmp\",\"saha:ha\",\"Down\",\"38\",\"2\",\"4\",\"8\",\"C2\",\"C\",\"28\"
\"\",\"\",\"approach-retreat\",\"177\",\"1171300\",\"0.0-177.0\",\"\",\"\",\"1-2\",\"4071\",\"37\",\"1\",\"Testing\",\"Stims/Figures/27-J-0-1.bmp\",\"fa:sha:sha\",\"Left\",\"37\",\"2\",\"5\",\"8\",\"C1\",\"C\",\"29\"
\"\",\"\",\"approach-retreat\",\"178\",\"1177021\",\"0.0-178.0\",\"\",\"\",\"1-2\",\"4215\",\"39\",\"1\",\"Testing\",\"Stims/Figures/139-C-20-2.bmp\",\"vasha:sha\",\"Left\",\"39\",\"2\",\"6\",\"8\",\"C1\",\"C\",\"30\"
\"\",\"\",\"approach-retreat\",\"179\",\"1182729\",\"0.0-179.0\",\"\",\"\",\"1-2\",\"4200\",\"38\",\"1\",\"Testing\",\"Stims/Figures/85-C-20-2.bmp\",\"vafava\",\"Down\",\"38\",\"2\",\"7\",\"8\",\"C1\",\"C\",\"31\"
\"\",\"\",\"approach-retreat\",\"180\",\"1188579\",\"0.0-180.0\",\"\",\"\",\"1-2\",\"4343\",\"38\",\"0\",\"Testing\",\"Stims/Figures/85-J-0-2.bmp\",\"fashava\",\"Down\",\"40\",\"2\",\"8\",\"8\",\"C1\",\"C\",\"32\"
\"\",\"\",\"approach-retreat\",\"181\",\"1194167\",\"0.0-181.0\",\"\",\"\",\"1-2\",\"4086\",\"38\",\"0\",\"Testing\",\"Stims/Figures/57-C-30-1.bmp\",\"va:sha:va\",\"Up\",\"40\",\"2\",\"9\",\"8\",\"C1\",\"C\",\"33\"
\"\",\"\",\"approach-retreat\",\"182\",\"1200296\",\"0.0-182.0\",\"\",\"\",\"1-2\",\"4621\",\"39\",\"1\",\"Testing\",\"Stims/Figures/71-J-0-1.bmp\",\"va:fava\",\"Right\",\"39\",\"2\",\"10\",\"8\",\"C1\",\"C\",\"34\"
\"\",\"\",\"approach-retreat\",\"183\",\"1205928\",\"0.0-183.0\",\"\",\"\",\"1-2\",\"4125\",\"38\",\"1\",\"Testing\",\"Stims/Figures/7-J-10-4.bmp\",\"sahaza\",\"Up\",\"38\",\"2\",\"11\",\"8\",\"C2\",\"C\",\"35\"
\"\",\"\",\"approach-retreat\",\"184\",\"1211827\",\"0.0-184.0\",\"\",\"\",\"1-2\",\"4391\",\"37\",\"0\",\"Testing\",\"Stims/Figures/19-J-10-4.bmp\",\"zasaha\",\"Right\",\"39\",\"2\",\"12\",\"8\",\"C2\",\"C\",\"36\"
\"\",\"\",\"approach-retreat\",\"185\",\"1217650\",\"0.0-185.0\",\"\",\"\",\"1-2\",\"4313\",\"39\",\"1\",\"Testing\",\"Stims/Figures/100-J-10-3.bmp\",\"sasaza\",\"Right\",\"39\",\"2\",\"13\",\"8\",\"C2\",\"C\",\"37\"
\"\",\"\",\"approach-retreat\",\"186\",\"1223559\",\"0.0-186.0\",\"\",\"\",\"1-2\",\"4402\",\"38\",\"1\",\"Testing\",\"Stims/Figures/100-C-30-3.bmp\",\"sa:ha:ha\",\"Down\",\"38\",\"2\",\"14\",\"8\",\"C2\",\"C\",\"38\"
\"\",\"\",\"approach-retreat\",\"187\",\"1229444\",\"0.0-187.0\",\"\",\"\",\"1-2\",\"4380\",\"39\",\"0\",\"Testing\",\"Stims/Figures/7-C-20-4.bmp\",\"zahaza\",\"Right\",\"37\",\"2\",\"15\",\"8\",\"C2\",\"C\",\"39\"
\"\",\"\",\"approach-retreat\",\"188\",\"1234991\",\"0.0-188.0\",\"\",\"\",\"1-2\",\"4039\",\"38\",\"0\",\"Testing\",\"Stims/Figures/144-C-30-3.bmp\",\"za:saha\",\"Up\",\"40\",\"2\",\"16\",\"8\",\"C2\",\"C\",\"40\"
\"\",\"\",\"approach-retreat\",\"189\",\"1240420\",\"0.0-189.0\",\"\",\"\",\"1-2\",\"3922\",\"40\",\"1\",\"Testing\",\"Stims/Figures/44-J-10-3.bmp\",\"zaha:ha\",\"Down\",\"40\",\"2\",\"17\",\"8\",\"C2\",\"C\",\"41\"
\"\",\"\",\"approach-retreat\",\"190\",\"1246139\",\"0.0-190.0\",\"\",\"\",\"1-2\",\"4212\",\"39\",\"1\",\"Testing\",\"Stims/Figures/84-C-20-2.bmp\",\"fa:fava\",\"Left\",\"39\",\"2\",\"18\",\"8\",\"C1\",\"C\",\"42\"
\"\",\"\",\"approach-retreat\",\"191\",\"1252081\",\"0.0-191.0\",\"\",\"\",\"1-2\",\"4434\",\"37\",\"0\",\"Testing\",\"Stims/Figures/102-J-10-4.bmp\",\"za:sa:ha\",\"Right\",\"39\",\"2\",\"19\",\"8\",\"C2\",\"C\",\"43\"
\"\",\"\",\"approach-retreat\",\"192\",\"1258354\",\"0.0-192.0\",\"\",\"\",\"1-2\",\"4765\",\"38\",\"1\",\"Testing\",\"Stims/Figures/102-C-20-4.bmp\",\"za:saza\",\"Down\",\"38\",\"2\",\"20\",\"8\",\"C2\",\"C\",\"44\"
\"\",\"\",\"approach-retreat\",\"193\",\"1264227\",\"0.0-193.0\",\"\",\"\",\"1-2\",\"4367\",\"40\",\"1\",\"Testing\",\"Stims/Figures/27-C-30-1.bmp\",\"fasha:va\",\"Up\",\"40\",\"2\",\"21\",\"8\",\"C1\",\"C\",\"45\"
\"\",\"\",\"approach-retreat\",\"194\",\"1269988\",\"0.0-194.0\",\"\",\"\",\"1-2\",\"4253\",\"39\",\"0\",\"Testing\",\"Stims/Figures/139-J-0-2.bmp\",\"fafava\",\"Left\",\"37\",\"2\",\"22\",\"8\",\"C1\",\"C\",\"46\"
\"\",\"\",\"approach-retreat\",\"195\",\"1276612\",\"0.0-195.0\",\"\",\"\",\"1-2\",\"5117\",\"39\",\"1\",\"Testing\",\"Stims/Figures/84-J-0-2.bmp\",\"fa:fasha\",\"Right\",\"39\",\"2\",\"23\",\"8\",\"C1\",\"C\",\"47\"
\"\",\"\",\"approach-retreat\",\"196\",\"1282217\",\"0.0-196.0\",\"\",\"\",\"1-2\",\"4097\",\"38\",\"0\",\"Testing\",\"Stims/Figures/19-C-20-4.bmp\",\"zahaha\",\"Up\",\"40\",\"2\",\"24\",\"8\",\"C2\",\"C\",\"48\"
\"\",\"\",\"approach-retreat\",\"197\",\"1288014\",\"0.0-197.0\",\"\",\"\",\"1-2\",\"4289\",\"39\",\"0\",\"Testing\",\"Stims/Figures/102-C-20-4.bmp\",\"za:saza\",\"Right\",\"37\",\"3\",\"1\",\"8\",\"C2\",\"C\",\"49\"
\"\",\"\",\"approach-retreat\",\"198\",\"1293783\",\"0.0-198.0\",\"\",\"\",\"1-2\",\"4262\",\"39\",\"1\",\"Testing\",\"Stims/Figures/84-J-0-2.bmp\",\"fa:fasha\",\"Right\",\"39\",\"3\",\"2\",\"8\",\"C1\",\"C\",\"50\"
\"\",\"\",\"approach-retreat\",\"199\",\"1299563\",\"0.0-199.0\",\"\",\"\",\"1-2\",\"4274\",\"37\",\"0\",\"Testing\",\"Stims/Figures/27-C-30-1.bmp\",\"fasha:va\",\"Left\",\"39\",\"3\",\"3\",\"8\",\"C1\",\"C\",\"51\"
\"\",\"\",\"approach-retreat\",\"200\",\"1305725\",\"0.0-200.0\",\"\",\"\",\"1-2\",\"4655\",\"38\",\"1\",\"Testing\",\"Stims/Figures/100-J-10-3.bmp\",\"sasaza\",\"Up\",\"38\",\"3\",\"4\",\"8\",\"C2\",\"C\",\"52\"
\"\",\"\",\"approach-retreat\",\"201\",\"1311380\",\"0.0-201.0\",\"\",\"\",\"1-2\",\"4144\",\"40\",\"0\",\"Testing\",\"Stims/Figures/139-C-20-2.bmp\",\"vasha:sha\",\"Down\",\"38\",\"3\",\"5\",\"8\",\"C1\",\"C\",\"53\"
\"\",\"\",\"approach-retreat\",\"202\",\"1317145\",\"0.0-202.0\",\"\",\"\",\"1-2\",\"4258\",\"37\",\"1\",\"Testing\",\"Stims/Figures/102-J-10-4.bmp\",\"za:sa:ha\",\"Left\",\"37\",\"3\",\"6\",\"8\",\"C2\",\"C\",\"54\"
\"\",\"\",\"approach-retreat\",\"203\",\"1323826\",\"0.0-203.0\",\"\",\"\",\"1-2\",\"5174\",\"38\",\"1\",\"Testing\",\"Stims/Figures/44-J-10-3.bmp\",\"zaha:ha\",\"Up\",\"38\",\"3\",\"7\",\"8\",\"C2\",\"C\",\"55\"
\"\",\"\",\"approach-retreat\",\"204\",\"1329731\",\"0.0-204.0\",\"\",\"\",\"1-2\",\"4397\",\"38\",\"0\",\"Testing\",\"Stims/Figures/144-J-10-3.bmp\",\"zaha:za\",\"Down\",\"40\",\"3\",\"8\",\"8\",\"C2\",\"C\",\"56\"
\"\",\"\",\"approach-retreat\",\"205\",\"1335295\",\"0.0-205.0\",\"\",\"\",\"1-2\",\"4056\",\"39\",\"1\",\"Testing\",\"Stims/Figures/71-J-0-1.bmp\",\"va:fava\",\"Right\",\"39\",\"3\",\"9\",\"8\",\"C1\",\"C\",\"57\"
\"\",\"\",\"approach-retreat\",\"206\",\"1340975\",\"0.0-206.0\",\"\",\"\",\"1-2\",\"4175\",\"38\",\"1\",\"Testing\",\"Stims/Figures/85-C-20-2.bmp\",\"vafava\",\"Down\",\"38\",\"3\",\"10\",\"8\",\"C1\",\"C\",\"58\"
\"\",\"\",\"approach-retreat\",\"207\",\"1346748\",\"0.0-207.0\",\"\",\"\",\"1-2\",\"4266\",\"39\",\"0\",\"Testing\",\"Stims/Figures/27-J-0-1.bmp\",\"fa:sha:sha\",\"Left\",\"37\",\"3\",\"11\",\"8\",\"C1\",\"C\",\"59\"
\"\",\"\",\"approach-retreat\",\"208\",\"1352493\",\"0.0-208.0\",\"\",\"\",\"1-2\",\"4238\",\"39\",\"0\",\"Testing\",\"Stims/Figures/7-C-20-4.bmp\",\"zahaza\",\"Right\",\"37\",\"3\",\"12\",\"8\",\"C2\",\"C\",\"60\"
\"\",\"\",\"approach-retreat\",\"209\",\"1357903\",\"0.0-209.0\",\"\",\"\",\"1-2\",\"3904\",\"38\",\"1\",\"Testing\",\"Stims/Figures/19-J-10-4.bmp\",\"zasaha\",\"Up\",\"38\",\"3\",\"13\",\"8\",\"C2\",\"C\",\"61\"
\"\",\"\",\"approach-retreat\",\"210\",\"1363533\",\"0.0-210.0\",\"\",\"\",\"1-2\",\"4120\",\"39\",\"0\",\"Testing\",\"Stims/Figures/71-C-30-1.bmp\",\"va:sha:sha\",\"Right\",\"37\",\"3\",\"14\",\"8\",\"C1\",\"C\",\"62\"
\"\",\"\",\"approach-retreat\",\"211\",\"1369314\",\"0.0-211.0\",\"\",\"\",\"1-2\",\"4274\",\"40\",\"0\",\"Testing\",\"Stims/Figures/100-C-30-3.bmp\",\"sa:ha:ha\",\"Down\",\"38\",\"3\",\"15\",\"8\",\"C2\",\"C\",\"63\"
\"\",\"\",\"approach-retreat\",\"212\",\"1375160\",\"0.0-212.0\",\"\",\"\",\"1-2\",\"4341\",\"37\",\"1\",\"Testing\",\"Stims/Figures/57-C-30-1.bmp\",\"va:sha:va\",\"Right\",\"37\",\"3\",\"16\",\"8\",\"C1\",\"C\",\"64\"
\"\",\"\",\"approach-retreat\",\"213\",\"1380848\",\"0.0-213.0\",\"\",\"\",\"1-2\",\"4180\",\"37\",\"1\",\"Testing\",\"Stims/Figures/57-J-0-1.bmp\",\"vashava\",\"Left\",\"37\",\"3\",\"17\",\"8\",\"C1\",\"C\",\"65\"
\"\",\"\",\"approach-retreat\",\"214\",\"1386735\",\"0.0-214.0\",\"\",\"\",\"1-2\",\"4377\",\"38\",\"1\",\"Testing\",\"Stims/Figures/84-C-20-2.bmp\",\"fa:fava\",\"Down\",\"38\",\"3\",\"18\",\"8\",\"C1\",\"C\",\"66\"
\"\",\"\",\"approach-retreat\",\"215\",\"1392450\",\"0.0-215.0\",\"\",\"\",\"1-2\",\"4207\",\"38\",\"1\",\"Testing\",\"Stims/Figures/44-C-30-3.bmp\",\"saha:ha\",\"Down\",\"38\",\"3\",\"19\",\"8\",\"C2\",\"C\",\"67\"
\"\",\"\",\"approach-retreat\",\"216\",\"1398135\",\"0.0-216.0\",\"\",\"\",\"1-2\",\"4178\",\"38\",\"1\",\"Testing\",\"Stims/Figures/85-J-0-2.bmp\",\"fashava\",\"Up\",\"38\",\"3\",\"20\",\"8\",\"C1\",\"C\",\"68\"
\"\",\"\",\"approach-retreat\",\"217\",\"1403810\",\"0.0-217.0\",\"\",\"\",\"1-2\",\"4168\",\"37\",\"1\",\"Testing\",\"Stims/Figures/139-J-0-2.bmp\",\"fafava\",\"Left\",\"37\",\"3\",\"21\",\"8\",\"C1\",\"C\",\"69\"
\"\",\"\",\"approach-retreat\",\"218\",\"1410583\",\"0.0-218.0\",\"\",\"\",\"1-2\",\"5265\",\"38\",\"1\",\"Testing\",\"Stims/Figures/7-J-10-4.bmp\",\"sahaza\",\"Up\",\"38\",\"3\",\"22\",\"8\",\"C2\",\"C\",\"70\"
\"\",\"\",\"approach-retreat\",\"219\",\"1416221\",\"0.0-219.0\",\"\",\"\",\"1-2\",\"4131\",\"37\",\"0\",\"Testing\",\"Stims/Figures/19-C-20-4.bmp\",\"zahaha\",\"Left\",\"39\",\"3\",\"23\",\"8\",\"C2\",\"C\",\"71\"
\"\",\"\",\"approach-retreat\",\"220\",\"1422935\",\"0.0-220.0\",\"\",\"\",\"1-2\",\"5207\",\"38\",\"0\",\"Testing\",\"Stims/Figures/144-C-30-3.bmp\",\"za:saha\",\"Up\",\"40\",\"3\",\"24\",\"8\",\"C2\",\"C\",\"72\"
\"\",\"\",\"approach-retreat\",\"221\",\"1428639\",\"0.0-221.0\",\"\",\"\",\"1-2\",\"4197\",\"37\",\"0\",\"Testing\",\"Stims/Figures/19-C-20-4.bmp\",\"zahaha\",\"Left\",\"39\",\"4\",\"1\",\"8\",\"C2\",\"C\",\"73\"
\"\",\"\",\"approach-retreat\",\"222\",\"1434392\",\"0.0-222.0\",\"\",\"\",\"1-2\",\"4245\",\"38\",\"1\",\"Testing\",\"Stims/Figures/144-J-10-3.bmp\",\"zaha:za\",\"Up\",\"38\",\"4\",\"2\",\"8\",\"C2\",\"C\",\"74\"
\"\",\"\",\"approach-retreat\",\"223\",\"1440061\",\"0.0-223.0\",\"\",\"\",\"1-2\",\"4161\",\"37\",\"0\",\"Testing\",\"Stims/Figures/57-C-30-1.bmp\",\"va:sha:va\",\"Left\",\"39\",\"4\",\"3\",\"8\",\"C1\",\"C\",\"75\"
\"\",\"\",\"approach-retreat\",\"224\",\"1445779\",\"0.0-224.0\",\"\",\"\",\"1-2\",\"4210\",\"39\",\"0\",\"Testing\",\"Stims/Figures/144-C-30-3.bmp\",\"za:saha\",\"Right\",\"37\",\"4\",\"4\",\"8\",\"C2\",\"C\",\"76\"
\"\",\"\",\"approach-retreat\",\"225\",\"1451630\",\"0.0-225.0\",\"\",\"\",\"1-2\",\"4344\",\"37\",\"0\",\"Testing\",\"Stims/Figures/19-J-10-4.bmp\",\"zasaha\",\"Right\",\"39\",\"4\",\"5\",\"8\",\"C2\",\"C\",\"77\"
\"\",\"\",\"approach-retreat\",\"226\",\"1457355\",\"0.0-226.0\",\"\",\"\",\"1-2\",\"4218\",\"38\",\"0\",\"Testing\",\"Stims/Figures/102-J-10-4.bmp\",\"za:sa:ha\",\"Down\",\"40\",\"4\",\"6\",\"8\",\"C2\",\"C\",\"78\"
\"\",\"\",\"approach-retreat\",\"227\",\"1463011\",\"0.0-227.0\",\"\",\"\",\"1-2\",\"4149\",\"39\",\"1\",\"Testing\",\"Stims/Figures/85-J-0-2.bmp\",\"fashava\",\"Right\",\"39\",\"4\",\"7\",\"8\",\"C1\",\"C\",\"79\"
\"\",\"\",\"approach-retreat\",\"228\",\"1468679\",\"0.0-228.0\",\"\",\"\",\"1-2\",\"4162\",\"38\",\"1\",\"Testing\",\"Stims/Figures/44-J-10-3.bmp\",\"zaha:ha\",\"Up\",\"38\",\"4\",\"8\",\"8\",\"C2\",\"C\",\"80\"
\"\",\"\",\"approach-retreat\",\"229\",\"1474448\",\"0.0-229.0\",\"\",\"\",\"1-2\",\"4261\",\"38\",\"0\",\"Testing\",\"Stims/Figures/71-J-0-1.bmp\",\"va:fava\",\"Down\",\"40\",\"4\",\"9\",\"8\",\"C1\",\"C\",\"81\"
\"\",\"\",\"approach-retreat\",\"230\",\"1480183\",\"0.0-230.0\",\"\",\"\",\"1-2\",\"4228\",\"38\",\"0\",\"Testing\",\"Stims/Figures/139-J-0-2.bmp\",\"fafava\",\"Down\",\"40\",\"4\",\"10\",\"8\",\"C1\",\"C\",\"82\"
\"\",\"\",\"approach-retreat\",\"231\",\"1486168\",\"0.0-231.0\",\"\",\"\",\"1-2\",\"4478\",\"39\",\"1\",\"Testing\",\"Stims/Figures/100-C-30-3.bmp\",\"sa:ha:ha\",\"Left\",\"39\",\"4\",\"11\",\"8\",\"C2\",\"C\",\"83\"
\"\",\"\",\"approach-retreat\",\"232\",\"1491852\",\"0.0-232.0\",\"\",\"\",\"1-2\",\"4177\",\"38\",\"1\",\"Testing\",\"Stims/Figures/7-C-20-4.bmp\",\"zahaza\",\"Down\",\"38\",\"4\",\"12\",\"8\",\"C2\",\"C\",\"84\"
\"\",\"\",\"approach-retreat\",\"233\",\"1497551\",\"0.0-233.0\",\"\",\"\",\"1-2\",\"4192\",\"38\",\"1\",\"Testing\",\"Stims/Figures/139-C-20-2.bmp\",\"vasha:sha\",\"Down\",\"38\",\"4\",\"13\",\"8\",\"C1\",\"C\",\"85\"
\"\",\"\",\"approach-retreat\",\"234\",\"1503271\",\"0.0-234.0\",\"\",\"\",\"1-2\",\"4213\",\"38\",\"0\",\"Testing\",\"Stims/Figures/102-C-20-4.bmp\",\"za:saza\",\"Up\",\"40\",\"4\",\"14\",\"8\",\"C2\",\"C\",\"86\"
\"\",\"\",\"approach-retreat\",\"235\",\"1509243\",\"0.0-235.0\",\"\",\"\",\"1-2\",\"4465\",\"37\",\"1\",\"Testing\",\"Stims/Figures/7-J-10-4.bmp\",\"sahaza\",\"Left\",\"37\",\"4\",\"15\",\"8\",\"C2\",\"C\",\"87\"
\"\",\"\",\"approach-retreat\",\"236\",\"1515469\",\"0.0-236.0\",\"\",\"\",\"1-2\",\"4718\",\"39\",\"1\",\"Testing\",\"Stims/Figures/84-J-0-2.bmp\",\"fa:fasha\",\"Right\",\"39\",\"4\",\"16\",\"8\",\"C1\",\"C\",\"88\"
\"\",\"\",\"approach-retreat\",\"237\",\"1521752\",\"0.0-237.0\",\"\",\"\",\"1-2\",\"4775\",\"38\",\"0\",\"Testing\",\"Stims/Figures/27-J-0-1.bmp\",\"fa:sha:sha\",\"Down\",\"40\",\"4\",\"17\",\"8\",\"C1\",\"C\",\"89\"
\"\",\"\",\"approach-retreat\",\"238\",\"1528103\",\"0.0-238.0\",\"\",\"\",\"1-2\",\"4844\",\"37\",\"1\",\"Testing\",\"Stims/Figures/100-J-10-3.bmp\",\"sasaza\",\"Left\",\"37\",\"4\",\"18\",\"8\",\"C2\",\"C\",\"90\"
\"\",\"\",\"approach-retreat\",\"239\",\"1533740\",\"0.0-239.0\",\"\",\"\",\"1-2\",\"4130\",\"38\",\"1\",\"Testing\",\"Stims/Figures/57-J-0-1.bmp\",\"vashava\",\"Up\",\"38\",\"4\",\"19\",\"8\",\"C1\",\"C\",\"91\"
\"\",\"\",\"approach-retreat\",\"240\",\"1539489\",\"0.0-240.0\",\"\",\"\",\"1-2\",\"4242\",\"38\",\"0\",\"Testing\",\"Stims/Figures/85-C-20-2.bmp\",\"vafava\",\"Up\",\"40\",\"4\",\"20\",\"8\",\"C1\",\"C\",\"92\"
\"\",\"\",\"approach-retreat\",\"241\",\"1545300\",\"0.0-241.0\",\"\",\"\",\"1-2\",\"4304\",\"37\",\"1\",\"Testing\",\"Stims/Figures/44-C-30-3.bmp\",\"saha:ha\",\"Right\",\"37\",\"4\",\"21\",\"8\",\"C2\",\"C\",\"93\"
\"\",\"\",\"approach-retreat\",\"242\",\"1552800\",\"0.0-242.0\",\"\",\"\",\"1-2\",\"5992\",\"38\",\"0\",\"Testing\",\"Stims/Figures/84-C-20-2.bmp\",\"fa:fava\",\"Up\",\"40\",\"4\",\"22\",\"8\",\"C1\",\"C\",\"94\"
\"\",\"\",\"approach-retreat\",\"243\",\"1558531\",\"0.0-243.0\",\"\",\"\",\"1-2\",\"4226\",\"37\",\"0\",\"Testing\",\"Stims/Figures/71-C-30-1.bmp\",\"va:sha:sha\",\"Left\",\"39\",\"4\",\"23\",\"8\",\"C1\",\"C\",\"95\"
\"\",\"\",\"approach-retreat\",\"244\",\"1564132\",\"0.0-244.0\",\"\",\"\",\"1-2\",\"4094\",\"39\",\"0\",\"Testing\",\"Stims/Figures/27-C-30-1.bmp\",\"fasha:va\",\"Right\",\"37\",\"4\",\"24\",\"8\",\"C1\",\"C\",\"96\"
\"24357\",\"\",\"survey-text\",\"245\",\"1588494\",\"0.0-245.0\",\"\",\"{\"\"Q0\"\":\"\"1259/17\"\"}\",\"\",\"\",\"\",\"\",\"\",\"\",\"\",\"\",\"\",\"\",\"\",\"\",\"\",\"\",\"\"
