\"rt\",\"key_press\",\"trial_type\",\"trial_index\",\"time_elapsed\",\"internal_node_id\",\"view_history\",\"responses\",\"Id\",\"Rt\",\"ResKeyCode\",\"ResCorr\",\"TrialType2\",\"Image\",\"Label\",\"Location\",\"CorrectResponse\",\"Block\",\"BlockTrial\",\"Condition\",\"LabelType\",\"Subcondition\",\"trialNum\"
\"41619\",\"32\",\"text\",\"0\",\"41621\",\"0.0-0.0-0.0\",\"\",\"\",\"\",\"\",\"\",\"\",\"\",\"\",\"\",\"\",\"\",\"\",\"\",\"\",\"\",\"\",\"\"
\"48358\",\"\",\"instructions\",\"1\",\"89979\",\"0.0-1.0\",\"[{\"\"page_index\"\":0,\"\"viewing_time\"\":48357}]\",\"\",\"\",\"\",\"\",\"\",\"\",\"\",\"\",\"\",\"\",\"\",\"\",\"\",\"\",\"\",\"\"
\"11459\",\"\",\"survey-multi-choice\",\"2\",\"101482\",\"0.0-2.0\",\"\",\"{\"\"Q0\"\":\"\"Da\"\",\"\"Q1\"\":\"\"Da\"\",\"\"Q2\"\":\"\"Da\"\",\"\"Q3\"\":\"\"Da\"\",\"\"Q4\"\":\"\"Da\"\",\"\"Q5\"\":\"\"Da\"\"}\",\"\",\"\",\"\",\"\",\"\",\"\",\"\",\"\",\"\",\"\",\"\",\"\",\"\",\"\",\"\"
\"\",\"\",\"bio\",\"3\",\"106800\",\"0.0-3.0\",\"\",\"{\"\"age\"\":\"\"21\"\",\"\"gender\"\":\"\"f\"\",\"\"specify\"\":\"\"\"\"}\",\"\",\"\",\"\",\"\",\"\",\"\",\"\",\"\",\"\",\"\",\"\",\"\",\"\",\"\",\"\"
\"\",\"\",\"approach-retreat\",\"4\",\"112863\",\"0.0-4.0\",\"\",\"\",\"1-3\",\"4557\",\"37\",\"0\",\"Training\",\"Stims/Figures/57-C-30-1.bmp\",\"ta:ka:ka\",\"Left\",\"39\",\"1\",\"1\",\"2\",\"P\",\"C\",\"1\"
\"\",\"\",\"approach-retreat\",\"5\",\"118415\",\"0.0-5.0\",\"\",\"\",\"1-3\",\"4048\",\"39\",\"1\",\"Training\",\"Stims/Figures/118-C-20-2.bmp\",\"ta:ka:ka\",\"Left\",\"39\",\"1\",\"2\",\"2\",\"P\",\"C\",\"2\"
\"\",\"\",\"approach-retreat\",\"6\",\"124175\",\"0.0-6.0\",\"\",\"\",\"1-3\",\"4255\",\"38\",\"1\",\"Training\",\"Stims/Figures/100-J-10-3.bmp\",\"ma:la:na\",\"Up\",\"38\",\"1\",\"3\",\"2\",\"S\",\"C\",\"3\"
\"\",\"\",\"approach-retreat\",\"7\",\"130015\",\"0.0-7.0\",\"\",\"\",\"1-3\",\"4336\",\"38\",\"1\",\"Training\",\"Stims/Figures/19-C-20-4.bmp\",\"ta:ka:ka\",\"Down\",\"38\",\"1\",\"4\",\"2\",\"P\",\"C\",\"4\"
\"\",\"\",\"approach-retreat\",\"8\",\"136134\",\"0.0-8.0\",\"\",\"\",\"1-3\",\"4614\",\"38\",\"1\",\"Training\",\"Stims/Figures/74-J-10-4.bmp\",\"ma:la:na\",\"Up\",\"38\",\"1\",\"5\",\"2\",\"S\",\"C\",\"5\"
\"\",\"\",\"approach-retreat\",\"9\",\"142846\",\"0.0-9.0\",\"\",\"\",\"1-3\",\"5207\",\"40\",\"1\",\"Training\",\"Stims/Figures/93-J-0-1.bmp\",\"ma:la:na\",\"Down\",\"40\",\"1\",\"6\",\"2\",\"S\",\"C\",\"6\"
\"\",\"\",\"approach-retreat\",\"10\",\"148685\",\"0.0-10.0\",\"\",\"\",\"1-3\",\"4335\",\"37\",\"1\",\"Training\",\"Stims/Figures/93-C-30-1.bmp\",\"ta:ka:ka\",\"Right\",\"37\",\"1\",\"7\",\"2\",\"P\",\"C\",\"7\"
\"\",\"\",\"approach-retreat\",\"11\",\"154219\",\"0.0-11.0\",\"\",\"\",\"1-3\",\"4023\",\"37\",\"1\",\"Training\",\"Stims/Figures/74-C-20-4.bmp\",\"ta:ka:ka\",\"Right\",\"37\",\"1\",\"8\",\"2\",\"P\",\"C\",\"8\"
\"\",\"\",\"approach-retreat\",\"12\",\"160039\",\"0.0-12.0\",\"\",\"\",\"1-3\",\"4316\",\"40\",\"1\",\"Training\",\"Stims/Figures/85-C-20-2.bmp\",\"ta:ka:ka\",\"Up\",\"40\",\"1\",\"9\",\"2\",\"P\",\"C\",\"9\"
\"\",\"\",\"approach-retreat\",\"13\",\"166168\",\"0.0-13.0\",\"\",\"\",\"1-3\",\"4624\",\"40\",\"1\",\"Training\",\"Stims/Figures/111-J-10-3.bmp\",\"ma:la:na\",\"Down\",\"40\",\"1\",\"10\",\"2\",\"S\",\"C\",\"10\"
\"\",\"\",\"approach-retreat\",\"14\",\"171911\",\"0.0-14.0\",\"\",\"\",\"1-3\",\"4239\",\"38\",\"1\",\"Training\",\"Stims/Figures/118-J-0-2.bmp\",\"ma:la:na\",\"Up\",\"38\",\"1\",\"11\",\"2\",\"S\",\"C\",\"11\"
\"\",\"\",\"approach-retreat\",\"15\",\"177351\",\"0.0-15.0\",\"\",\"\",\"1-3\",\"3935\",\"37\",\"1\",\"Training\",\"Stims/Figures/100-C-30-3.bmp\",\"ta:ka:ka\",\"Right\",\"37\",\"1\",\"12\",\"2\",\"P\",\"C\",\"12\"
\"\",\"\",\"approach-retreat\",\"16\",\"182926\",\"0.0-16.0\",\"\",\"\",\"1-3\",\"4071\",\"37\",\"1\",\"Training\",\"Stims/Figures/19-J-10-4.bmp\",\"ma:la:na\",\"Left\",\"37\",\"1\",\"13\",\"2\",\"S\",\"C\",\"13\"
\"\",\"\",\"approach-retreat\",\"17\",\"188495\",\"0.0-17.0\",\"\",\"\",\"1-3\",\"4064\",\"39\",\"1\",\"Training\",\"Stims/Figures/85-J-0-2.bmp\",\"ma:la:na\",\"Right\",\"39\",\"1\",\"14\",\"2\",\"S\",\"C\",\"14\"
\"\",\"\",\"approach-retreat\",\"18\",\"194238\",\"0.0-18.0\",\"\",\"\",\"1-3\",\"4239\",\"39\",\"1\",\"Training\",\"Stims/Figures/111-C-30-3.bmp\",\"ta:ka:ka\",\"Left\",\"39\",\"1\",\"15\",\"2\",\"P\",\"C\",\"15\"
\"\",\"\",\"approach-retreat\",\"19\",\"199871\",\"0.0-19.0\",\"\",\"\",\"1-3\",\"4128\",\"40\",\"1\",\"Training\",\"Stims/Figures/57-J-0-1.bmp\",\"ma:la:na\",\"Down\",\"40\",\"1\",\"16\",\"2\",\"S\",\"C\",\"16\"
\"\",\"\",\"approach-retreat\",\"20\",\"205478\",\"0.0-20.0\",\"\",\"\",\"1-3\",\"4102\",\"40\",\"0\",\"Training\",\"Stims/Figures/111-C-30-3.bmp\",\"ta:ka:ka\",\"Down\",\"38\",\"2\",\"1\",\"2\",\"P\",\"C\",\"17\"
\"\",\"\",\"approach-retreat\",\"21\",\"211118\",\"0.0-21.0\",\"\",\"\",\"1-3\",\"4136\",\"40\",\"1\",\"Training\",\"Stims/Figures/118-C-20-2.bmp\",\"ta:ka:ka\",\"Up\",\"40\",\"2\",\"2\",\"2\",\"P\",\"C\",\"18\"
\"\",\"\",\"approach-retreat\",\"22\",\"217287\",\"0.0-22.0\",\"\",\"\",\"1-3\",\"4664\",\"38\",\"1\",\"Training\",\"Stims/Figures/57-J-0-1.bmp\",\"ma:la:na\",\"Up\",\"38\",\"2\",\"3\",\"2\",\"S\",\"C\",\"19\"
\"\",\"\",\"approach-retreat\",\"23\",\"223871\",\"0.0-23.0\",\"\",\"\",\"1-3\",\"5080\",\"38\",\"1\",\"Training\",\"Stims/Figures/93-C-30-1.bmp\",\"ta:ka:ka\",\"Down\",\"38\",\"2\",\"4\",\"2\",\"P\",\"C\",\"20\"
\"\",\"\",\"approach-retreat\",\"24\",\"229407\",\"0.0-24.0\",\"\",\"\",\"1-3\",\"4030\",\"37\",\"1\",\"Training\",\"Stims/Figures/85-C-20-2.bmp\",\"ta:ka:ka\",\"Right\",\"37\",\"2\",\"5\",\"2\",\"P\",\"C\",\"21\"
\"\",\"\",\"approach-retreat\",\"25\",\"235070\",\"0.0-25.0\",\"\",\"\",\"1-3\",\"4160\",\"40\",\"1\",\"Training\",\"Stims/Figures/19-J-10-4.bmp\",\"ma:la:na\",\"Down\",\"40\",\"2\",\"6\",\"2\",\"S\",\"C\",\"22\"
\"\",\"\",\"approach-retreat\",\"26\",\"240598\",\"0.0-26.0\",\"\",\"\",\"1-3\",\"4024\",\"37\",\"1\",\"Training\",\"Stims/Figures/57-C-30-1.bmp\",\"ta:ka:ka\",\"Right\",\"37\",\"2\",\"7\",\"2\",\"P\",\"C\",\"23\"
\"\",\"\",\"approach-retreat\",\"27\",\"246287\",\"0.0-27.0\",\"\",\"\",\"1-3\",\"4185\",\"38\",\"1\",\"Training\",\"Stims/Figures/118-J-0-2.bmp\",\"ma:la:na\",\"Up\",\"38\",\"2\",\"8\",\"2\",\"S\",\"C\",\"24\"
\"\",\"\",\"approach-retreat\",\"28\",\"251894\",\"0.0-28.0\",\"\",\"\",\"1-3\",\"4103\",\"40\",\"1\",\"Training\",\"Stims/Figures/100-J-10-3.bmp\",\"ma:la:na\",\"Down\",\"40\",\"2\",\"9\",\"2\",\"S\",\"C\",\"25\"
\"\",\"\",\"approach-retreat\",\"29\",\"257335\",\"0.0-29.0\",\"\",\"\",\"1-3\",\"3937\",\"39\",\"1\",\"Training\",\"Stims/Figures/74-C-20-4.bmp\",\"ta:ka:ka\",\"Left\",\"39\",\"2\",\"10\",\"2\",\"P\",\"C\",\"26\"
\"\",\"\",\"approach-retreat\",\"30\",\"262765\",\"0.0-30.0\",\"\",\"\",\"1-3\",\"3928\",\"37\",\"1\",\"Training\",\"Stims/Figures/85-J-0-2.bmp\",\"ma:la:na\",\"Left\",\"37\",\"2\",\"11\",\"2\",\"S\",\"C\",\"27\"
\"\",\"\",\"approach-retreat\",\"31\",\"268350\",\"0.0-31.0\",\"\",\"\",\"1-3\",\"4080\",\"39\",\"1\",\"Training\",\"Stims/Figures/111-J-10-3.bmp\",\"ma:la:na\",\"Right\",\"39\",\"2\",\"12\",\"2\",\"S\",\"C\",\"28\"
\"\",\"\",\"approach-retreat\",\"32\",\"273797\",\"0.0-32.0\",\"\",\"\",\"1-3\",\"3943\",\"37\",\"1\",\"Training\",\"Stims/Figures/93-J-0-1.bmp\",\"ma:la:na\",\"Left\",\"37\",\"2\",\"13\",\"2\",\"S\",\"C\",\"29\"
\"\",\"\",\"approach-retreat\",\"33\",\"279190\",\"0.0-33.0\",\"\",\"\",\"1-3\",\"3890\",\"37\",\"1\",\"Training\",\"Stims/Figures/100-C-30-3.bmp\",\"ta:ka:ka\",\"Right\",\"37\",\"2\",\"14\",\"2\",\"P\",\"C\",\"30\"
\"\",\"\",\"approach-retreat\",\"34\",\"284870\",\"0.0-34.0\",\"\",\"\",\"1-3\",\"4176\",\"40\",\"1\",\"Training\",\"Stims/Figures/19-C-20-4.bmp\",\"ta:ka:ka\",\"Up\",\"40\",\"2\",\"15\",\"2\",\"P\",\"C\",\"31\"
\"\",\"\",\"approach-retreat\",\"35\",\"290791\",\"0.0-35.0\",\"\",\"\",\"1-3\",\"4417\",\"37\",\"1\",\"Training\",\"Stims/Figures/74-J-10-4.bmp\",\"ma:la:na\",\"Left\",\"37\",\"2\",\"16\",\"2\",\"S\",\"C\",\"32\"
\"\",\"\",\"approach-retreat\",\"36\",\"296374\",\"0.0-36.0\",\"\",\"\",\"1-3\",\"4078\",\"38\",\"1\",\"Training\",\"Stims/Figures/85-J-0-2.bmp\",\"ma:la:na\",\"Up\",\"38\",\"3\",\"1\",\"2\",\"S\",\"C\",\"33\"
\"\",\"\",\"approach-retreat\",\"37\",\"301799\",\"0.0-37.0\",\"\",\"\",\"1-3\",\"3919\",\"37\",\"1\",\"Training\",\"Stims/Figures/100-C-30-3.bmp\",\"ta:ka:ka\",\"Right\",\"37\",\"3\",\"2\",\"2\",\"P\",\"C\",\"34\"
\"\",\"\",\"approach-retreat\",\"38\",\"307316\",\"0.0-38.0\",\"\",\"\",\"1-3\",\"4006\",\"38\",\"1\",\"Training\",\"Stims/Figures/111-C-30-3.bmp\",\"ta:ka:ka\",\"Down\",\"38\",\"3\",\"3\",\"2\",\"P\",\"C\",\"35\"
\"\",\"\",\"approach-retreat\",\"39\",\"312742\",\"0.0-39.0\",\"\",\"\",\"1-3\",\"3922\",\"37\",\"1\",\"Training\",\"Stims/Figures/74-C-20-4.bmp\",\"ta:ka:ka\",\"Right\",\"37\",\"3\",\"4\",\"2\",\"P\",\"C\",\"36\"
\"\",\"\",\"approach-retreat\",\"40\",\"318341\",\"0.0-40.0\",\"\",\"\",\"1-3\",\"4095\",\"38\",\"1\",\"Training\",\"Stims/Figures/111-J-10-3.bmp\",\"ma:la:na\",\"Up\",\"38\",\"3\",\"5\",\"2\",\"S\",\"C\",\"37\"
\"\",\"\",\"approach-retreat\",\"41\",\"323958\",\"0.0-41.0\",\"\",\"\",\"1-3\",\"4113\",\"38\",\"1\",\"Training\",\"Stims/Figures/19-C-20-4.bmp\",\"ta:ka:ka\",\"Down\",\"38\",\"3\",\"6\",\"2\",\"P\",\"C\",\"38\"
\"\",\"\",\"approach-retreat\",\"42\",\"329461\",\"0.0-42.0\",\"\",\"\",\"1-3\",\"3999\",\"39\",\"1\",\"Training\",\"Stims/Figures/93-C-30-1.bmp\",\"ta:ka:ka\",\"Left\",\"39\",\"3\",\"7\",\"2\",\"P\",\"C\",\"39\"
\"\",\"\",\"approach-retreat\",\"43\",\"335127\",\"0.0-43.0\",\"\",\"\",\"1-3\",\"4160\",\"39\",\"1\",\"Training\",\"Stims/Figures/57-C-30-1.bmp\",\"ta:ka:ka\",\"Left\",\"39\",\"3\",\"8\",\"2\",\"P\",\"C\",\"40\"
\"\",\"\",\"approach-retreat\",\"44\",\"340677\",\"0.0-44.0\",\"\",\"\",\"1-3\",\"4047\",\"39\",\"1\",\"Training\",\"Stims/Figures/19-J-10-4.bmp\",\"ma:la:na\",\"Right\",\"39\",\"3\",\"9\",\"2\",\"S\",\"C\",\"41\"
\"\",\"\",\"approach-retreat\",\"45\",\"346239\",\"0.0-45.0\",\"\",\"\",\"1-3\",\"4056\",\"39\",\"1\",\"Training\",\"Stims/Figures/93-J-0-1.bmp\",\"ma:la:na\",\"Right\",\"39\",\"3\",\"10\",\"2\",\"S\",\"C\",\"42\"
\"\",\"\",\"approach-retreat\",\"46\",\"352693\",\"0.0-46.0\",\"\",\"\",\"1-3\",\"4950\",\"38\",\"1\",\"Training\",\"Stims/Figures/57-J-0-1.bmp\",\"ma:la:na\",\"Up\",\"38\",\"3\",\"11\",\"2\",\"S\",\"C\",\"43\"
\"\",\"\",\"approach-retreat\",\"47\",\"359382\",\"0.0-47.0\",\"\",\"\",\"1-3\",\"5184\",\"40\",\"1\",\"Training\",\"Stims/Figures/74-J-10-4.bmp\",\"ma:la:na\",\"Down\",\"40\",\"3\",\"12\",\"2\",\"S\",\"C\",\"44\"
\"\",\"\",\"approach-retreat\",\"48\",\"364828\",\"0.0-48.0\",\"\",\"\",\"1-3\",\"3944\",\"37\",\"1\",\"Training\",\"Stims/Figures/118-J-0-2.bmp\",\"ma:la:na\",\"Left\",\"37\",\"3\",\"13\",\"2\",\"S\",\"C\",\"45\"
\"\",\"\",\"approach-retreat\",\"49\",\"370486\",\"0.0-49.0\",\"\",\"\",\"1-3\",\"4152\",\"40\",\"1\",\"Training\",\"Stims/Figures/100-J-10-3.bmp\",\"ma:la:na\",\"Down\",\"40\",\"3\",\"14\",\"2\",\"S\",\"C\",\"46\"
\"\",\"\",\"approach-retreat\",\"50\",\"376645\",\"0.0-50.0\",\"\",\"\",\"1-3\",\"4656\",\"40\",\"1\",\"Training\",\"Stims/Figures/118-C-20-2.bmp\",\"ta:ka:ka\",\"Up\",\"40\",\"3\",\"15\",\"2\",\"P\",\"C\",\"47\"
\"\",\"\",\"approach-retreat\",\"51\",\"382358\",\"0.0-51.0\",\"\",\"\",\"1-3\",\"4208\",\"39\",\"1\",\"Training\",\"Stims/Figures/85-C-20-2.bmp\",\"ta:ka:ka\",\"Left\",\"39\",\"3\",\"16\",\"2\",\"P\",\"C\",\"48\"
\"\",\"\",\"approach-retreat\",\"52\",\"387885\",\"0.0-52.0\",\"\",\"\",\"1-3\",\"4022\",\"39\",\"1\",\"Training\",\"Stims/Figures/111-C-30-3.bmp\",\"ta:ka:ka\",\"Left\",\"39\",\"4\",\"1\",\"2\",\"P\",\"C\",\"49\"
\"\",\"\",\"approach-retreat\",\"53\",\"393629\",\"0.0-53.0\",\"\",\"\",\"1-3\",\"4240\",\"40\",\"1\",\"Training\",\"Stims/Figures/111-J-10-3.bmp\",\"ma:la:na\",\"Down\",\"40\",\"4\",\"2\",\"2\",\"S\",\"C\",\"50\"
\"\",\"\",\"approach-retreat\",\"54\",\"399317\",\"0.0-54.0\",\"\",\"\",\"1-3\",\"4184\",\"38\",\"1\",\"Training\",\"Stims/Figures/57-J-0-1.bmp\",\"ma:la:na\",\"Up\",\"38\",\"4\",\"3\",\"2\",\"S\",\"C\",\"51\"
\"\",\"\",\"approach-retreat\",\"55\",\"404973\",\"0.0-55.0\",\"\",\"\",\"1-3\",\"4153\",\"37\",\"1\",\"Training\",\"Stims/Figures/118-J-0-2.bmp\",\"ma:la:na\",\"Left\",\"37\",\"4\",\"4\",\"2\",\"S\",\"C\",\"52\"
\"\",\"\",\"approach-retreat\",\"56\",\"410492\",\"0.0-56.0\",\"\",\"\",\"1-3\",\"4016\",\"38\",\"1\",\"Training\",\"Stims/Figures/74-C-20-4.bmp\",\"ta:ka:ka\",\"Down\",\"38\",\"4\",\"5\",\"2\",\"P\",\"C\",\"53\"
\"\",\"\",\"approach-retreat\",\"57\",\"415941\",\"0.0-57.0\",\"\",\"\",\"1-3\",\"3945\",\"37\",\"1\",\"Training\",\"Stims/Figures/74-J-10-4.bmp\",\"ma:la:na\",\"Left\",\"37\",\"4\",\"6\",\"2\",\"S\",\"C\",\"54\"
\"\",\"\",\"approach-retreat\",\"58\",\"421485\",\"0.0-58.0\",\"\",\"\",\"1-3\",\"4039\",\"38\",\"1\",\"Training\",\"Stims/Figures/19-J-10-4.bmp\",\"ma:la:na\",\"Up\",\"38\",\"4\",\"7\",\"2\",\"S\",\"C\",\"55\"
\"\",\"\",\"approach-retreat\",\"59\",\"427381\",\"0.0-59.0\",\"\",\"\",\"1-3\",\"4393\",\"40\",\"1\",\"Training\",\"Stims/Figures/93-J-0-1.bmp\",\"ma:la:na\",\"Down\",\"40\",\"4\",\"8\",\"2\",\"S\",\"C\",\"56\"
\"\",\"\",\"approach-retreat\",\"60\",\"432956\",\"0.0-60.0\",\"\",\"\",\"1-3\",\"4071\",\"40\",\"1\",\"Training\",\"Stims/Figures/57-C-30-1.bmp\",\"ta:ka:ka\",\"Up\",\"40\",\"4\",\"9\",\"2\",\"P\",\"C\",\"57\"
\"\",\"\",\"approach-retreat\",\"61\",\"438444\",\"0.0-61.0\",\"\",\"\",\"1-3\",\"3984\",\"37\",\"1\",\"Training\",\"Stims/Figures/19-C-20-4.bmp\",\"ta:ka:ka\",\"Right\",\"37\",\"4\",\"10\",\"2\",\"P\",\"C\",\"58\"
\"\",\"\",\"approach-retreat\",\"62\",\"443860\",\"0.0-62.0\",\"\",\"\",\"1-3\",\"3910\",\"37\",\"1\",\"Training\",\"Stims/Figures/118-C-20-2.bmp\",\"ta:ka:ka\",\"Right\",\"37\",\"4\",\"11\",\"2\",\"P\",\"C\",\"59\"
\"\",\"\",\"approach-retreat\",\"63\",\"449405\",\"0.0-63.0\",\"\",\"\",\"1-3\",\"4040\",\"38\",\"1\",\"Training\",\"Stims/Figures/100-C-30-3.bmp\",\"ta:ka:ka\",\"Down\",\"38\",\"4\",\"12\",\"2\",\"P\",\"C\",\"60\"
\"\",\"\",\"approach-retreat\",\"64\",\"454902\",\"0.0-64.0\",\"\",\"\",\"1-3\",\"3991\",\"37\",\"1\",\"Training\",\"Stims/Figures/85-C-20-2.bmp\",\"ta:ka:ka\",\"Right\",\"37\",\"4\",\"13\",\"2\",\"P\",\"C\",\"61\"
\"\",\"\",\"approach-retreat\",\"65\",\"460300\",\"0.0-65.0\",\"\",\"\",\"1-3\",\"3894\",\"37\",\"1\",\"Training\",\"Stims/Figures/85-J-0-2.bmp\",\"ma:la:na\",\"Left\",\"37\",\"4\",\"14\",\"2\",\"S\",\"C\",\"62\"
\"\",\"\",\"approach-retreat\",\"66\",\"465885\",\"0.0-66.0\",\"\",\"\",\"1-3\",\"4082\",\"38\",\"1\",\"Training\",\"Stims/Figures/100-J-10-3.bmp\",\"ma:la:na\",\"Up\",\"38\",\"4\",\"15\",\"2\",\"S\",\"C\",\"63\"
\"\",\"\",\"approach-retreat\",\"67\",\"471341\",\"0.0-67.0\",\"\",\"\",\"1-3\",\"3952\",\"37\",\"1\",\"Training\",\"Stims/Figures/93-C-30-1.bmp\",\"ta:ka:ka\",\"Right\",\"37\",\"4\",\"16\",\"2\",\"P\",\"C\",\"64\"
\"\",\"\",\"approach-retreat\",\"68\",\"476773\",\"0.0-68.0\",\"\",\"\",\"1-3\",\"3926\",\"39\",\"1\",\"Training\",\"Stims/Figures/118-J-0-2.bmp\",\"ma:la:na\",\"Right\",\"39\",\"5\",\"1\",\"2\",\"S\",\"C\",\"65\"
\"\",\"\",\"approach-retreat\",\"69\",\"482397\",\"0.0-69.0\",\"\",\"\",\"1-3\",\"4120\",\"39\",\"1\",\"Training\",\"Stims/Figures/57-C-30-1.bmp\",\"ta:ka:ka\",\"Left\",\"39\",\"5\",\"2\",\"2\",\"P\",\"C\",\"66\"
\"\",\"\",\"approach-retreat\",\"70\",\"487956\",\"0.0-70.0\",\"\",\"\",\"1-3\",\"4056\",\"38\",\"1\",\"Training\",\"Stims/Figures/19-J-10-4.bmp\",\"ma:la:na\",\"Up\",\"38\",\"5\",\"3\",\"2\",\"S\",\"C\",\"67\"
\"\",\"\",\"approach-retreat\",\"71\",\"493925\",\"0.0-71.0\",\"\",\"\",\"1-3\",\"4463\",\"37\",\"1\",\"Training\",\"Stims/Figures/93-C-30-1.bmp\",\"ta:ka:ka\",\"Right\",\"37\",\"5\",\"4\",\"2\",\"P\",\"C\",\"68\"
\"\",\"\",\"approach-retreat\",\"72\",\"499444\",\"0.0-72.0\",\"\",\"\",\"1-3\",\"4014\",\"39\",\"1\",\"Training\",\"Stims/Figures/118-C-20-2.bmp\",\"ta:ka:ka\",\"Left\",\"39\",\"5\",\"5\",\"2\",\"P\",\"C\",\"69\"
\"\",\"\",\"approach-retreat\",\"73\",\"504949\",\"0.0-73.0\",\"\",\"\",\"1-3\",\"4001\",\"39\",\"1\",\"Training\",\"Stims/Figures/19-C-20-4.bmp\",\"ta:ka:ka\",\"Left\",\"39\",\"5\",\"6\",\"2\",\"P\",\"C\",\"70\"
\"\",\"\",\"approach-retreat\",\"74\",\"510412\",\"0.0-74.0\",\"\",\"\",\"1-3\",\"3959\",\"37\",\"1\",\"Training\",\"Stims/Figures/85-C-20-2.bmp\",\"ta:ka:ka\",\"Right\",\"37\",\"5\",\"7\",\"2\",\"P\",\"C\",\"71\"
\"\",\"\",\"approach-retreat\",\"75\",\"515989\",\"0.0-75.0\",\"\",\"\",\"1-3\",\"4072\",\"38\",\"1\",\"Training\",\"Stims/Figures/111-C-30-3.bmp\",\"ta:ka:ka\",\"Down\",\"38\",\"5\",\"8\",\"2\",\"P\",\"C\",\"72\"
\"\",\"\",\"approach-retreat\",\"76\",\"522069\",\"0.0-76.0\",\"\",\"\",\"1-3\",\"4576\",\"38\",\"1\",\"Training\",\"Stims/Figures/93-J-0-1.bmp\",\"ma:la:na\",\"Up\",\"38\",\"5\",\"9\",\"2\",\"S\",\"C\",\"73\"
\"\",\"\",\"approach-retreat\",\"77\",\"528141\",\"0.0-77.0\",\"\",\"\",\"1-3\",\"4568\",\"38\",\"1\",\"Training\",\"Stims/Figures/100-J-10-3.bmp\",\"ma:la:na\",\"Up\",\"38\",\"5\",\"10\",\"2\",\"S\",\"C\",\"74\"
\"\",\"\",\"approach-retreat\",\"78\",\"533749\",\"0.0-78.0\",\"\",\"\",\"1-3\",\"4103\",\"38\",\"1\",\"Training\",\"Stims/Figures/111-J-10-3.bmp\",\"ma:la:na\",\"Up\",\"38\",\"5\",\"11\",\"2\",\"S\",\"C\",\"75\"
\"\",\"\",\"approach-retreat\",\"79\",\"539277\",\"0.0-79.0\",\"\",\"\",\"1-3\",\"4023\",\"39\",\"1\",\"Training\",\"Stims/Figures/57-J-0-1.bmp\",\"ma:la:na\",\"Right\",\"39\",\"5\",\"12\",\"2\",\"S\",\"C\",\"76\"
\"\",\"\",\"approach-retreat\",\"80\",\"544820\",\"0.0-80.0\",\"\",\"\",\"1-3\",\"4039\",\"37\",\"1\",\"Training\",\"Stims/Figures/74-J-10-4.bmp\",\"ma:la:na\",\"Left\",\"37\",\"5\",\"13\",\"2\",\"S\",\"C\",\"77\"
\"\",\"\",\"approach-retreat\",\"81\",\"550589\",\"0.0-81.0\",\"\",\"\",\"1-3\",\"4265\",\"38\",\"1\",\"Training\",\"Stims/Figures/74-C-20-4.bmp\",\"ta:ka:ka\",\"Down\",\"38\",\"5\",\"14\",\"2\",\"P\",\"C\",\"78\"
\"\",\"\",\"approach-retreat\",\"82\",\"556260\",\"0.0-82.0\",\"\",\"\",\"1-3\",\"4166\",\"40\",\"1\",\"Training\",\"Stims/Figures/85-J-0-2.bmp\",\"ma:la:na\",\"Down\",\"40\",\"5\",\"15\",\"2\",\"S\",\"C\",\"79\"
\"\",\"\",\"approach-retreat\",\"83\",\"561756\",\"0.0-83.0\",\"\",\"\",\"1-3\",\"3992\",\"38\",\"1\",\"Training\",\"Stims/Figures/100-C-30-3.bmp\",\"ta:ka:ka\",\"Down\",\"38\",\"5\",\"16\",\"2\",\"P\",\"C\",\"80\"
\"\",\"\",\"approach-retreat\",\"84\",\"567356\",\"0.0-84.0\",\"\",\"\",\"1-3\",\"4095\",\"39\",\"1\",\"Training\",\"Stims/Figures/118-C-20-2.bmp\",\"ta:ka:ka\",\"Left\",\"39\",\"6\",\"1\",\"2\",\"P\",\"C\",\"81\"
\"\",\"\",\"approach-retreat\",\"85\",\"573069\",\"0.0-85.0\",\"\",\"\",\"1-3\",\"4209\",\"40\",\"1\",\"Training\",\"Stims/Figures/19-J-10-4.bmp\",\"ma:la:na\",\"Down\",\"40\",\"6\",\"2\",\"2\",\"S\",\"C\",\"82\"
\"\",\"\",\"approach-retreat\",\"86\",\"578700\",\"0.0-86.0\",\"\",\"\",\"1-3\",\"4127\",\"40\",\"1\",\"Training\",\"Stims/Figures/74-C-20-4.bmp\",\"ta:ka:ka\",\"Up\",\"40\",\"6\",\"3\",\"2\",\"P\",\"C\",\"83\"
\"\",\"\",\"approach-retreat\",\"87\",\"584269\",\"0.0-87.0\",\"\",\"\",\"1-3\",\"4063\",\"38\",\"1\",\"Training\",\"Stims/Figures/93-J-0-1.bmp\",\"ma:la:na\",\"Up\",\"38\",\"6\",\"4\",\"2\",\"S\",\"C\",\"84\"
\"\",\"\",\"approach-retreat\",\"88\",\"590036\",\"0.0-88.0\",\"\",\"\",\"1-3\",\"4262\",\"40\",\"0\",\"Training\",\"Stims/Figures/57-C-30-1.bmp\",\"ta:ka:ka\",\"Down\",\"38\",\"6\",\"5\",\"2\",\"P\",\"C\",\"85\"
\"\",\"\",\"approach-retreat\",\"89\",\"596093\",\"0.0-89.0\",\"\",\"\",\"1-3\",\"4552\",\"39\",\"1\",\"Training\",\"Stims/Figures/100-J-10-3.bmp\",\"ma:la:na\",\"Right\",\"39\",\"6\",\"6\",\"2\",\"S\",\"C\",\"86\"
\"\",\"\",\"approach-retreat\",\"90\",\"602091\",\"0.0-90.0\",\"\",\"\",\"1-3\",\"4495\",\"39\",\"1\",\"Training\",\"Stims/Figures/118-J-0-2.bmp\",\"ma:la:na\",\"Right\",\"39\",\"6\",\"7\",\"2\",\"S\",\"C\",\"87\"
\"\",\"\",\"approach-retreat\",\"91\",\"607772\",\"0.0-91.0\",\"\",\"\",\"1-3\",\"4177\",\"40\",\"1\",\"Training\",\"Stims/Figures/57-J-0-1.bmp\",\"ma:la:na\",\"Down\",\"40\",\"6\",\"8\",\"2\",\"S\",\"C\",\"88\"
\"\",\"\",\"approach-retreat\",\"92\",\"613236\",\"0.0-92.0\",\"\",\"\",\"1-3\",\"3959\",\"39\",\"1\",\"Training\",\"Stims/Figures/93-C-30-1.bmp\",\"ta:ka:ka\",\"Left\",\"39\",\"6\",\"9\",\"2\",\"P\",\"C\",\"89\"
\"\",\"\",\"approach-retreat\",\"93\",\"618796\",\"0.0-93.0\",\"\",\"\",\"1-3\",\"4056\",\"37\",\"0\",\"Training\",\"Stims/Figures/100-C-30-3.bmp\",\"ta:ka:ka\",\"Left\",\"39\",\"6\",\"10\",\"2\",\"P\",\"C\",\"90\"
\"\",\"\",\"approach-retreat\",\"94\",\"624316\",\"0.0-94.0\",\"\",\"\",\"1-3\",\"4015\",\"37\",\"1\",\"Training\",\"Stims/Figures/85-J-0-2.bmp\",\"ma:la:na\",\"Left\",\"37\",\"6\",\"11\",\"2\",\"S\",\"C\",\"91\"
\"\",\"\",\"approach-retreat\",\"95\",\"631188\",\"0.0-95.0\",\"\",\"\",\"1-3\",\"5367\",\"40\",\"1\",\"Training\",\"Stims/Figures/111-J-10-3.bmp\",\"ma:la:na\",\"Down\",\"40\",\"6\",\"12\",\"2\",\"S\",\"C\",\"92\"
\"\",\"\",\"approach-retreat\",\"96\",\"636899\",\"0.0-96.0\",\"\",\"\",\"1-3\",\"4206\",\"40\",\"1\",\"Training\",\"Stims/Figures/85-C-20-2.bmp\",\"ta:ka:ka\",\"Up\",\"40\",\"6\",\"13\",\"2\",\"P\",\"C\",\"93\"
\"\",\"\",\"approach-retreat\",\"97\",\"643316\",\"0.0-97.0\",\"\",\"\",\"1-3\",\"4913\",\"38\",\"1\",\"Training\",\"Stims/Figures/74-J-10-4.bmp\",\"ma:la:na\",\"Up\",\"38\",\"6\",\"14\",\"2\",\"S\",\"C\",\"94\"
\"\",\"\",\"approach-retreat\",\"98\",\"649091\",\"0.0-98.0\",\"\",\"\",\"1-3\",\"4271\",\"37\",\"1\",\"Training\",\"Stims/Figures/111-C-30-3.bmp\",\"ta:ka:ka\",\"Right\",\"37\",\"6\",\"15\",\"2\",\"P\",\"C\",\"95\"
\"\",\"\",\"approach-retreat\",\"99\",\"654597\",\"0.0-99.0\",\"\",\"\",\"1-3\",\"4001\",\"37\",\"1\",\"Training\",\"Stims/Figures/19-C-20-4.bmp\",\"ta:ka:ka\",\"Right\",\"37\",\"6\",\"16\",\"2\",\"P\",\"C\",\"96\"
\"\",\"\",\"approach-retreat\",\"100\",\"660275\",\"0.0-100.0\",\"\",\"\",\"1-3\",\"4174\",\"40\",\"1\",\"Training\",\"Stims/Figures/100-J-10-3.bmp\",\"ma:la:na\",\"Down\",\"40\",\"7\",\"1\",\"2\",\"S\",\"C\",\"97\"
\"\",\"\",\"approach-retreat\",\"101\",\"666124\",\"0.0-101.0\",\"\",\"\",\"1-3\",\"4345\",\"38\",\"1\",\"Training\",\"Stims/Figures/74-J-10-4.bmp\",\"ma:la:na\",\"Up\",\"38\",\"7\",\"2\",\"2\",\"S\",\"C\",\"98\"
\"\",\"\",\"approach-retreat\",\"102\",\"671683\",\"0.0-102.0\",\"\",\"\",\"1-3\",\"4054\",\"38\",\"1\",\"Training\",\"Stims/Figures/118-J-0-2.bmp\",\"ma:la:na\",\"Up\",\"38\",\"7\",\"3\",\"2\",\"S\",\"C\",\"99\"
\"\",\"\",\"approach-retreat\",\"103\",\"677196\",\"0.0-103.0\",\"\",\"\",\"1-3\",\"4008\",\"37\",\"1\",\"Training\",\"Stims/Figures/111-J-10-3.bmp\",\"ma:la:na\",\"Left\",\"37\",\"7\",\"4\",\"2\",\"S\",\"C\",\"100\"
\"\",\"\",\"approach-retreat\",\"104\",\"682971\",\"0.0-104.0\",\"\",\"\",\"1-3\",\"4271\",\"40\",\"1\",\"Training\",\"Stims/Figures/19-C-20-4.bmp\",\"ta:ka:ka\",\"Up\",\"40\",\"7\",\"5\",\"2\",\"P\",\"C\",\"101\"
\"\",\"\",\"approach-retreat\",\"105\",\"688652\",\"0.0-105.0\",\"\",\"\",\"1-3\",\"4175\",\"38\",\"1\",\"Training\",\"Stims/Figures/57-C-30-1.bmp\",\"ta:ka:ka\",\"Down\",\"38\",\"7\",\"6\",\"2\",\"P\",\"C\",\"102\"
\"\",\"\",\"approach-retreat\",\"106\",\"694242\",\"0.0-106.0\",\"\",\"\",\"1-3\",\"4087\",\"39\",\"1\",\"Training\",\"Stims/Figures/100-C-30-3.bmp\",\"ta:ka:ka\",\"Left\",\"39\",\"7\",\"7\",\"2\",\"P\",\"C\",\"103\"
\"\",\"\",\"approach-retreat\",\"107\",\"699908\",\"0.0-107.0\",\"\",\"\",\"1-3\",\"4161\",\"39\",\"1\",\"Training\",\"Stims/Figures/118-C-20-2.bmp\",\"ta:ka:ka\",\"Left\",\"39\",\"7\",\"8\",\"2\",\"P\",\"C\",\"104\"
\"\",\"\",\"approach-retreat\",\"108\",\"705445\",\"0.0-108.0\",\"\",\"\",\"1-3\",\"4034\",\"39\",\"1\",\"Training\",\"Stims/Figures/85-J-0-2.bmp\",\"ma:la:na\",\"Right\",\"39\",\"7\",\"9\",\"2\",\"S\",\"C\",\"105\"
\"\",\"\",\"approach-retreat\",\"109\",\"711428\",\"0.0-109.0\",\"\",\"\",\"1-3\",\"4479\",\"40\",\"1\",\"Training\",\"Stims/Figures/93-C-30-1.bmp\",\"ta:ka:ka\",\"Up\",\"40\",\"7\",\"10\",\"2\",\"P\",\"C\",\"106\"
\"\",\"\",\"approach-retreat\",\"110\",\"717067\",\"0.0-110.0\",\"\",\"\",\"1-3\",\"4135\",\"40\",\"1\",\"Training\",\"Stims/Figures/93-J-0-1.bmp\",\"ma:la:na\",\"Down\",\"40\",\"7\",\"11\",\"2\",\"S\",\"C\",\"107\"
\"\",\"\",\"approach-retreat\",\"111\",\"722508\",\"0.0-111.0\",\"\",\"\",\"1-3\",\"3936\",\"39\",\"1\",\"Training\",\"Stims/Figures/57-J-0-1.bmp\",\"ma:la:na\",\"Right\",\"39\",\"7\",\"12\",\"2\",\"S\",\"C\",\"108\"
\"\",\"\",\"approach-retreat\",\"112\",\"727875\",\"0.0-112.0\",\"\",\"\",\"1-3\",\"3863\",\"37\",\"1\",\"Training\",\"Stims/Figures/74-C-20-4.bmp\",\"ta:ka:ka\",\"Right\",\"37\",\"7\",\"13\",\"2\",\"P\",\"C\",\"109\"
\"\",\"\",\"approach-retreat\",\"113\",\"733499\",\"0.0-113.0\",\"\",\"\",\"1-3\",\"4119\",\"39\",\"1\",\"Training\",\"Stims/Figures/111-C-30-3.bmp\",\"ta:ka:ka\",\"Left\",\"39\",\"7\",\"14\",\"2\",\"P\",\"C\",\"110\"
\"\",\"\",\"approach-retreat\",\"114\",\"738948\",\"0.0-114.0\",\"\",\"\",\"1-3\",\"3944\",\"37\",\"1\",\"Training\",\"Stims/Figures/85-C-20-2.bmp\",\"ta:ka:ka\",\"Right\",\"37\",\"7\",\"15\",\"2\",\"P\",\"C\",\"111\"
\"\",\"\",\"approach-retreat\",\"115\",\"745178\",\"0.0-115.0\",\"\",\"\",\"1-3\",\"4728\",\"40\",\"1\",\"Training\",\"Stims/Figures/19-J-10-4.bmp\",\"ma:la:na\",\"Down\",\"40\",\"7\",\"16\",\"2\",\"S\",\"C\",\"112\"
\"\",\"\",\"approach-retreat\",\"116\",\"750650\",\"0.0-116.0\",\"\",\"\",\"1-3\",\"3966\",\"37\",\"1\",\"Training\",\"Stims/Figures/85-C-20-2.bmp\",\"ta:ka:ka\",\"Right\",\"37\",\"8\",\"1\",\"2\",\"P\",\"C\",\"113\"
\"\",\"\",\"approach-retreat\",\"117\",\"756731\",\"0.0-117.0\",\"\",\"\",\"1-3\",\"4575\",\"38\",\"1\",\"Training\",\"Stims/Figures/111-J-10-3.bmp\",\"ma:la:na\",\"Up\",\"38\",\"8\",\"2\",\"2\",\"S\",\"C\",\"114\"
\"\",\"\",\"approach-retreat\",\"118\",\"762379\",\"0.0-118.0\",\"\",\"\",\"1-3\",\"4144\",\"40\",\"1\",\"Training\",\"Stims/Figures/93-J-0-1.bmp\",\"ma:la:na\",\"Down\",\"40\",\"8\",\"3\",\"2\",\"S\",\"C\",\"115\"
\"\",\"\",\"approach-retreat\",\"119\",\"767867\",\"0.0-119.0\",\"\",\"\",\"1-3\",\"3983\",\"37\",\"1\",\"Training\",\"Stims/Figures/118-J-0-2.bmp\",\"ma:la:na\",\"Left\",\"37\",\"8\",\"4\",\"2\",\"S\",\"C\",\"116\"
\"\",\"\",\"approach-retreat\",\"120\",\"773442\",\"0.0-120.0\",\"\",\"\",\"1-3\",\"4070\",\"40\",\"1\",\"Training\",\"Stims/Figures/57-C-30-1.bmp\",\"ta:ka:ka\",\"Up\",\"40\",\"8\",\"5\",\"2\",\"P\",\"C\",\"117\"
\"\",\"\",\"approach-retreat\",\"121\",\"779123\",\"0.0-121.0\",\"\",\"\",\"1-3\",\"4177\",\"38\",\"1\",\"Training\",\"Stims/Figures/19-C-20-4.bmp\",\"ta:ka:ka\",\"Down\",\"38\",\"8\",\"6\",\"2\",\"P\",\"C\",\"118\"
\"\",\"\",\"approach-retreat\",\"122\",\"784938\",\"0.0-122.0\",\"\",\"\",\"1-3\",\"4310\",\"39\",\"1\",\"Training\",\"Stims/Figures/111-C-30-3.bmp\",\"ta:ka:ka\",\"Left\",\"39\",\"8\",\"7\",\"2\",\"P\",\"C\",\"119\"
\"\",\"\",\"approach-retreat\",\"123\",\"790555\",\"0.0-123.0\",\"\",\"\",\"1-3\",\"4112\",\"40\",\"1\",\"Training\",\"Stims/Figures/93-C-30-1.bmp\",\"ta:ka:ka\",\"Up\",\"40\",\"8\",\"8\",\"2\",\"P\",\"C\",\"120\"
\"\",\"\",\"approach-retreat\",\"124\",\"796050\",\"0.0-124.0\",\"\",\"\",\"1-3\",\"3991\",\"37\",\"1\",\"Training\",\"Stims/Figures/74-C-20-4.bmp\",\"ta:ka:ka\",\"Right\",\"37\",\"8\",\"9\",\"2\",\"P\",\"C\",\"121\"
\"\",\"\",\"approach-retreat\",\"125\",\"801747\",\"0.0-125.0\",\"\",\"\",\"1-3\",\"4191\",\"38\",\"1\",\"Training\",\"Stims/Figures/19-J-10-4.bmp\",\"ma:la:na\",\"Up\",\"38\",\"8\",\"10\",\"2\",\"S\",\"C\",\"122\"
\"\",\"\",\"approach-retreat\",\"126\",\"807298\",\"0.0-126.0\",\"\",\"\",\"1-3\",\"4047\",\"39\",\"1\",\"Training\",\"Stims/Figures/85-J-0-2.bmp\",\"ma:la:na\",\"Right\",\"39\",\"8\",\"11\",\"2\",\"S\",\"C\",\"123\"
\"\",\"\",\"approach-retreat\",\"127\",\"812778\",\"0.0-127.0\",\"\",\"\",\"1-3\",\"3976\",\"39\",\"1\",\"Training\",\"Stims/Figures/100-J-10-3.bmp\",\"ma:la:na\",\"Right\",\"39\",\"8\",\"12\",\"2\",\"S\",\"C\",\"124\"
\"\",\"\",\"approach-retreat\",\"128\",\"818505\",\"0.0-128.0\",\"\",\"\",\"1-3\",\"4223\",\"40\",\"1\",\"Training\",\"Stims/Figures/74-J-10-4.bmp\",\"ma:la:na\",\"Down\",\"40\",\"8\",\"13\",\"2\",\"S\",\"C\",\"125\"
\"\",\"\",\"approach-retreat\",\"129\",\"824002\",\"0.0-129.0\",\"\",\"\",\"1-3\",\"3994\",\"39\",\"1\",\"Training\",\"Stims/Figures/100-C-30-3.bmp\",\"ta:ka:ka\",\"Left\",\"39\",\"8\",\"14\",\"2\",\"P\",\"C\",\"126\"
\"\",\"\",\"approach-retreat\",\"130\",\"830234\",\"0.0-130.0\",\"\",\"\",\"1-3\",\"4726\",\"38\",\"1\",\"Training\",\"Stims/Figures/118-C-20-2.bmp\",\"ta:ka:ka\",\"Down\",\"38\",\"8\",\"15\",\"2\",\"P\",\"C\",\"127\"
\"\",\"\",\"approach-retreat\",\"131\",\"835811\",\"0.0-131.0\",\"\",\"\",\"1-3\",\"4072\",\"37\",\"1\",\"Training\",\"Stims/Figures/57-J-0-1.bmp\",\"ma:la:na\",\"Left\",\"37\",\"8\",\"16\",\"2\",\"S\",\"C\",\"128\"
\"\",\"\",\"approach-retreat\",\"132\",\"841626\",\"0.0-132.0\",\"\",\"\",\"1-3\",\"4310\",\"38\",\"1\",\"Training\",\"Stims/Figures/57-J-0-1.bmp\",\"ma:la:na\",\"Up\",\"38\",\"9\",\"1\",\"2\",\"S\",\"C\",\"129\"
\"\",\"\",\"approach-retreat\",\"133\",\"847282\",\"0.0-133.0\",\"\",\"\",\"1-3\",\"4152\",\"39\",\"1\",\"Training\",\"Stims/Figures/85-C-20-2.bmp\",\"ta:ka:ka\",\"Left\",\"39\",\"9\",\"2\",\"2\",\"P\",\"C\",\"130\"
\"\",\"\",\"approach-retreat\",\"134\",\"852762\",\"0.0-134.0\",\"\",\"\",\"1-3\",\"3975\",\"37\",\"1\",\"Training\",\"Stims/Figures/57-C-30-1.bmp\",\"ta:ka:ka\",\"Right\",\"37\",\"9\",\"3\",\"2\",\"P\",\"C\",\"131\"
\"\",\"\",\"approach-retreat\",\"135\",\"858418\",\"0.0-135.0\",\"\",\"\",\"1-3\",\"4153\",\"40\",\"1\",\"Training\",\"Stims/Figures/19-J-10-4.bmp\",\"ma:la:na\",\"Down\",\"40\",\"9\",\"4\",\"2\",\"S\",\"C\",\"132\"
\"\",\"\",\"approach-retreat\",\"136\",\"863881\",\"0.0-136.0\",\"\",\"\",\"1-3\",\"3959\",\"37\",\"1\",\"Training\",\"Stims/Figures/93-J-0-1.bmp\",\"ma:la:na\",\"Left\",\"37\",\"9\",\"5\",\"2\",\"S\",\"C\",\"133\"
\"\",\"\",\"approach-retreat\",\"137\",\"869586\",\"0.0-137.0\",\"\",\"\",\"1-3\",\"4201\",\"39\",\"1\",\"Training\",\"Stims/Figures/85-J-0-2.bmp\",\"ma:la:na\",\"Right\",\"39\",\"9\",\"6\",\"2\",\"S\",\"C\",\"134\"
\"\",\"\",\"approach-retreat\",\"138\",\"875209\",\"0.0-138.0\",\"\",\"\",\"1-3\",\"4120\",\"40\",\"1\",\"Training\",\"Stims/Figures/118-C-20-2.bmp\",\"ta:ka:ka\",\"Up\",\"40\",\"9\",\"7\",\"2\",\"P\",\"C\",\"135\"
\"\",\"\",\"approach-retreat\",\"139\",\"881563\",\"0.0-139.0\",\"\",\"\",\"1-3\",\"4849\",\"40\",\"1\",\"Training\",\"Stims/Figures/74-J-10-4.bmp\",\"ma:la:na\",\"Down\",\"40\",\"9\",\"8\",\"2\",\"S\",\"C\",\"136\"
\"\",\"\",\"approach-retreat\",\"140\",\"886962\",\"0.0-140.0\",\"\",\"\",\"1-3\",\"3894\",\"37\",\"1\",\"Training\",\"Stims/Figures/74-C-20-4.bmp\",\"ta:ka:ka\",\"Right\",\"37\",\"9\",\"9\",\"2\",\"P\",\"C\",\"137\"
\"\",\"\",\"approach-retreat\",\"141\",\"892474\",\"0.0-141.0\",\"\",\"\",\"1-3\",\"4008\",\"39\",\"1\",\"Training\",\"Stims/Figures/111-J-10-3.bmp\",\"ma:la:na\",\"Right\",\"39\",\"9\",\"10\",\"2\",\"S\",\"C\",\"138\"
\"\",\"\",\"approach-retreat\",\"142\",\"898425\",\"0.0-142.0\",\"\",\"\",\"1-3\",\"4447\",\"39\",\"1\",\"Training\",\"Stims/Figures/19-C-20-4.bmp\",\"ta:ka:ka\",\"Left\",\"39\",\"9\",\"11\",\"2\",\"P\",\"C\",\"139\"
\"\",\"\",\"approach-retreat\",\"143\",\"905242\",\"0.0-143.0\",\"\",\"\",\"1-3\",\"5313\",\"38\",\"1\",\"Training\",\"Stims/Figures/118-J-0-2.bmp\",\"ma:la:na\",\"Up\",\"38\",\"9\",\"12\",\"2\",\"S\",\"C\",\"140\"
\"\",\"\",\"approach-retreat\",\"144\",\"910849\",\"0.0-144.0\",\"\",\"\",\"1-3\",\"4102\",\"40\",\"1\",\"Training\",\"Stims/Figures/93-C-30-1.bmp\",\"ta:ka:ka\",\"Up\",\"40\",\"9\",\"13\",\"2\",\"P\",\"C\",\"141\"
\"\",\"\",\"approach-retreat\",\"145\",\"916401\",\"0.0-145.0\",\"\",\"\",\"1-3\",\"4049\",\"38\",\"1\",\"Training\",\"Stims/Figures/100-C-30-3.bmp\",\"ta:ka:ka\",\"Down\",\"38\",\"9\",\"14\",\"2\",\"P\",\"C\",\"142\"
\"\",\"\",\"approach-retreat\",\"146\",\"921993\",\"0.0-146.0\",\"\",\"\",\"1-3\",\"4088\",\"38\",\"1\",\"Training\",\"Stims/Figures/111-C-30-3.bmp\",\"ta:ka:ka\",\"Down\",\"38\",\"9\",\"15\",\"2\",\"P\",\"C\",\"143\"
\"\",\"\",\"approach-retreat\",\"147\",\"928530\",\"0.0-147.0\",\"\",\"\",\"1-3\",\"5032\",\"37\",\"1\",\"Training\",\"Stims/Figures/100-J-10-3.bmp\",\"ma:la:na\",\"Left\",\"37\",\"9\",\"16\",\"2\",\"S\",\"C\",\"144\"
\"10354\",\"\",\"instructions\",\"148\",\"938885\",\"0.0-148.0\",\"[{\"\"page_index\"\":0,\"\"viewing_time\"\":10354}]\",\"\",\"\",\"\",\"\",\"\",\"\",\"\",\"\",\"\",\"\",\"\",\"\",\"\",\"\",\"\",\"\"
\"\",\"\",\"approach-retreat\",\"149\",\"944538\",\"0.0-149.0\",\"\",\"\",\"1-3\",\"4150\",\"40\",\"1\",\"Testing\",\"Stims/Figures/85-J-0-2.bmp\",\"ma:la:na\",\"Down\",\"40\",\"1\",\"1\",\"2\",\"S\",\"C\",\"1\"
\"\",\"\",\"approach-retreat\",\"150\",\"950289\",\"0.0-150.0\",\"\",\"\",\"1-3\",\"4248\",\"39\",\"1\",\"Testing\",\"Stims/Figures/100-J-10-3.bmp\",\"ma:la:na\",\"Right\",\"39\",\"1\",\"2\",\"2\",\"S\",\"C\",\"2\"
\"\",\"\",\"approach-retreat\",\"151\",\"956122\",\"0.0-151.0\",\"\",\"\",\"1-3\",\"4328\",\"38\",\"1\",\"Testing\",\"Stims/Figures/85-C-20-2.bmp\",\"ta:ka:ka\",\"Down\",\"38\",\"1\",\"3\",\"2\",\"P\",\"C\",\"3\"
\"\",\"\",\"approach-retreat\",\"152\",\"961810\",\"0.0-152.0\",\"\",\"\",\"1-3\",\"4183\",\"38\",\"1\",\"Testing\",\"Stims/Figures/118-J-0-2.bmp\",\"ma:la:na\",\"Up\",\"38\",\"1\",\"4\",\"2\",\"S\",\"C\",\"4\"
\"\",\"\",\"approach-retreat\",\"153\",\"967481\",\"0.0-153.0\",\"\",\"\",\"1-3\",\"4169\",\"40\",\"1\",\"Testing\",\"Stims/Figures/7-C-20-4.bmp\",\"ta:ka:ka\",\"Up\",\"40\",\"1\",\"5\",\"2\",\"P\",\"C\",\"5\"
\"\",\"\",\"approach-retreat\",\"154\",\"973193\",\"0.0-154.0\",\"\",\"\",\"1-3\",\"4208\",\"40\",\"1\",\"Testing\",\"Stims/Figures/100-C-30-3.bmp\",\"ta:ka:ka\",\"Up\",\"40\",\"1\",\"6\",\"2\",\"P\",\"C\",\"6\"
\"\",\"\",\"approach-retreat\",\"155\",\"978753\",\"0.0-155.0\",\"\",\"\",\"1-3\",\"4056\",\"37\",\"1\",\"Testing\",\"Stims/Figures/27-J-0-1.bmp\",\"ma:la:na\",\"Left\",\"37\",\"1\",\"7\",\"2\",\"S\",\"C\",\"7\"
\"\",\"\",\"approach-retreat\",\"156\",\"984201\",\"0.0-156.0\",\"\",\"\",\"1-3\",\"3944\",\"39\",\"1\",\"Testing\",\"Stims/Figures/7-J-10-4.bmp\",\"ma:la:na\",\"Right\",\"39\",\"1\",\"8\",\"2\",\"S\",\"C\",\"8\"
\"\",\"\",\"approach-retreat\",\"157\",\"989817\",\"0.0-157.0\",\"\",\"\",\"1-3\",\"4112\",\"37\",\"1\",\"Testing\",\"Stims/Figures/128-J-10-3.bmp\",\"ma:la:na\",\"Left\",\"37\",\"1\",\"9\",\"2\",\"S\",\"C\",\"9\"
\"\",\"\",\"approach-retreat\",\"158\",\"995353\",\"0.0-158.0\",\"\",\"\",\"1-3\",\"4031\",\"39\",\"1\",\"Testing\",\"Stims/Figures/111-C-30-3.bmp\",\"ta:ka:ka\",\"Left\",\"39\",\"1\",\"10\",\"2\",\"P\",\"C\",\"10\"
\"\",\"\",\"approach-retreat\",\"159\",\"1000826\",\"0.0-159.0\",\"\",\"\",\"1-3\",\"3968\",\"39\",\"1\",\"Testing\",\"Stims/Figures/57-J-0-1.bmp\",\"ma:la:na\",\"Right\",\"39\",\"1\",\"11\",\"2\",\"S\",\"C\",\"11\"
\"\",\"\",\"approach-retreat\",\"160\",\"1006609\",\"0.0-160.0\",\"\",\"\",\"1-3\",\"4281\",\"38\",\"1\",\"Testing\",\"Stims/Figures/94-C-20-2.bmp\",\"ta:ka:ka\",\"Down\",\"38\",\"1\",\"12\",\"2\",\"P\",\"C\",\"12\"
\"\",\"\",\"approach-retreat\",\"161\",\"1012137\",\"0.0-161.0\",\"\",\"\",\"1-3\",\"4025\",\"39\",\"1\",\"Testing\",\"Stims/Figures/111-J-10-3.bmp\",\"ma:la:na\",\"Right\",\"39\",\"1\",\"13\",\"2\",\"S\",\"C\",\"13\"
\"\",\"\",\"approach-retreat\",\"162\",\"1017600\",\"0.0-162.0\",\"\",\"\",\"1-3\",\"3959\",\"37\",\"1\",\"Testing\",\"Stims/Figures/27-C-30-1.bmp\",\"ta:ka:ka\",\"Right\",\"37\",\"1\",\"14\",\"2\",\"P\",\"C\",\"14\"
\"\",\"\",\"approach-retreat\",\"163\",\"1023664\",\"0.0-163.0\",\"\",\"\",\"1-3\",\"4561\",\"40\",\"1\",\"Testing\",\"Stims/Figures/128-C-30-3.bmp\",\"ta:ka:ka\",\"Up\",\"40\",\"1\",\"15\",\"2\",\"P\",\"C\",\"15\"
\"\",\"\",\"approach-retreat\",\"164\",\"1029144\",\"0.0-164.0\",\"\",\"\",\"1-3\",\"3976\",\"39\",\"1\",\"Testing\",\"Stims/Figures/57-C-30-1.bmp\",\"ta:ka:ka\",\"Left\",\"39\",\"1\",\"16\",\"2\",\"P\",\"C\",\"16\"
\"\",\"\",\"approach-retreat\",\"165\",\"1034792\",\"0.0-165.0\",\"\",\"\",\"1-3\",\"4144\",\"38\",\"1\",\"Testing\",\"Stims/Figures/93-C-30-1.bmp\",\"ta:ka:ka\",\"Down\",\"38\",\"1\",\"17\",\"2\",\"P\",\"C\",\"17\"
\"\",\"\",\"approach-retreat\",\"166\",\"1040481\",\"0.0-166.0\",\"\",\"\",\"1-3\",\"4184\",\"38\",\"1\",\"Testing\",\"Stims/Figures/93-J-0-1.bmp\",\"ma:la:na\",\"Up\",\"38\",\"1\",\"18\",\"2\",\"S\",\"C\",\"18\"
\"\",\"\",\"approach-retreat\",\"167\",\"1046184\",\"0.0-167.0\",\"\",\"\",\"1-3\",\"4198\",\"40\",\"1\",\"Testing\",\"Stims/Figures/74-J-10-4.bmp\",\"ma:la:na\",\"Down\",\"40\",\"1\",\"19\",\"2\",\"S\",\"C\",\"19\"
\"\",\"\",\"approach-retreat\",\"168\",\"1051871\",\"0.0-168.0\",\"\",\"\",\"1-3\",\"4184\",\"40\",\"1\",\"Testing\",\"Stims/Figures/19-J-10-4.bmp\",\"ma:la:na\",\"Down\",\"40\",\"1\",\"20\",\"2\",\"S\",\"C\",\"20\"
\"\",\"\",\"approach-retreat\",\"169\",\"1057360\",\"0.0-169.0\",\"\",\"\",\"1-3\",\"3985\",\"39\",\"1\",\"Testing\",\"Stims/Figures/19-C-20-4.bmp\",\"ta:ka:ka\",\"Left\",\"39\",\"1\",\"21\",\"2\",\"P\",\"C\",\"21\"
\"\",\"\",\"approach-retreat\",\"170\",\"1063569\",\"0.0-170.0\",\"\",\"\",\"1-3\",\"4705\",\"38\",\"1\",\"Testing\",\"Stims/Figures/94-J-0-2.bmp\",\"ma:la:na\",\"Up\",\"38\",\"1\",\"22\",\"2\",\"S\",\"C\",\"22\"
\"\",\"\",\"approach-retreat\",\"171\",\"1069048\",\"0.0-171.0\",\"\",\"\",\"1-3\",\"3978\",\"37\",\"1\",\"Testing\",\"Stims/Figures/74-C-20-4.bmp\",\"ta:ka:ka\",\"Right\",\"37\",\"1\",\"23\",\"2\",\"P\",\"C\",\"23\"
\"\",\"\",\"approach-retreat\",\"172\",\"1075135\",\"0.0-172.0\",\"\",\"\",\"1-3\",\"4583\",\"37\",\"0\",\"Testing\",\"Stims/Figures/118-C-20-2.bmp\",\"ta:ka:ka\",\"Left\",\"39\",\"1\",\"24\",\"2\",\"P\",\"C\",\"24\"
\"\",\"\",\"approach-retreat\",\"173\",\"1080832\",\"0.0-173.0\",\"\",\"\",\"1-3\",\"4193\",\"38\",\"1\",\"Testing\",\"Stims/Figures/100-J-10-3.bmp\",\"ma:la:na\",\"Up\",\"38\",\"2\",\"1\",\"2\",\"S\",\"C\",\"25\"
\"\",\"\",\"approach-retreat\",\"174\",\"1086520\",\"0.0-174.0\",\"\",\"\",\"1-3\",\"4184\",\"40\",\"1\",\"Testing\",\"Stims/Figures/57-C-30-1.bmp\",\"ta:ka:ka\",\"Up\",\"40\",\"2\",\"2\",\"2\",\"P\",\"C\",\"26\"
\"\",\"\",\"approach-retreat\",\"175\",\"1092232\",\"0.0-175.0\",\"\",\"\",\"1-3\",\"4208\",\"38\",\"1\",\"Testing\",\"Stims/Figures/85-C-20-2.bmp\",\"ta:ka:ka\",\"Down\",\"38\",\"2\",\"3\",\"2\",\"P\",\"C\",\"27\"
\"\",\"\",\"approach-retreat\",\"176\",\"1097824\",\"0.0-176.0\",\"\",\"\",\"1-3\",\"4087\",\"37\",\"1\",\"Testing\",\"Stims/Figures/93-C-30-1.bmp\",\"ta:ka:ka\",\"Right\",\"37\",\"2\",\"4\",\"2\",\"P\",\"C\",\"28\"
\"\",\"\",\"approach-retreat\",\"177\",\"1103328\",\"0.0-177.0\",\"\",\"\",\"1-3\",\"4001\",\"39\",\"0\",\"Testing\",\"Stims/Figures/74-C-20-4.bmp\",\"ta:ka:ka\",\"Right\",\"37\",\"2\",\"5\",\"2\",\"P\",\"C\",\"29\"
\"\",\"\",\"approach-retreat\",\"178\",\"1108919\",\"0.0-178.0\",\"\",\"\",\"1-3\",\"4087\",\"38\",\"1\",\"Testing\",\"Stims/Figures/27-C-30-1.bmp\",\"ta:ka:ka\",\"Down\",\"38\",\"2\",\"6\",\"2\",\"P\",\"C\",\"30\"
\"\",\"\",\"approach-retreat\",\"179\",\"1114393\",\"0.0-179.0\",\"\",\"\",\"1-3\",\"3970\",\"37\",\"1\",\"Testing\",\"Stims/Figures/128-J-10-3.bmp\",\"ma:la:na\",\"Left\",\"37\",\"2\",\"7\",\"2\",\"S\",\"C\",\"31\"
\"\",\"\",\"approach-retreat\",\"180\",\"1119854\",\"0.0-180.0\",\"\",\"\",\"1-3\",\"3960\",\"37\",\"1\",\"Testing\",\"Stims/Figures/93-J-0-1.bmp\",\"ma:la:na\",\"Left\",\"37\",\"2\",\"8\",\"2\",\"S\",\"C\",\"32\"
\"\",\"\",\"approach-retreat\",\"181\",\"1125368\",\"0.0-181.0\",\"\",\"\",\"1-3\",\"4011\",\"39\",\"1\",\"Testing\",\"Stims/Figures/7-J-10-4.bmp\",\"ma:la:na\",\"Right\",\"39\",\"2\",\"9\",\"2\",\"S\",\"C\",\"33\"
\"\",\"\",\"approach-retreat\",\"182\",\"1130824\",\"0.0-182.0\",\"\",\"\",\"1-3\",\"3951\",\"37\",\"1\",\"Testing\",\"Stims/Figures/111-J-10-3.bmp\",\"ma:la:na\",\"Left\",\"37\",\"2\",\"10\",\"2\",\"S\",\"C\",\"34\"
\"\",\"\",\"approach-retreat\",\"183\",\"1136360\",\"0.0-183.0\",\"\",\"\",\"1-3\",\"4033\",\"38\",\"1\",\"Testing\",\"Stims/Figures/7-C-20-4.bmp\",\"ta:ka:ka\",\"Down\",\"38\",\"2\",\"11\",\"2\",\"P\",\"C\",\"35\"
\"\",\"\",\"approach-retreat\",\"184\",\"1142127\",\"0.0-184.0\",\"\",\"\",\"1-3\",\"4265\",\"40\",\"1\",\"Testing\",\"Stims/Figures/19-J-10-4.bmp\",\"ma:la:na\",\"Down\",\"40\",\"2\",\"12\",\"2\",\"S\",\"C\",\"36\"
\"\",\"\",\"approach-retreat\",\"185\",\"1147839\",\"0.0-185.0\",\"\",\"\",\"1-3\",\"4209\",\"40\",\"1\",\"Testing\",\"Stims/Figures/94-C-20-2.bmp\",\"ta:ka:ka\",\"Up\",\"40\",\"2\",\"13\",\"2\",\"P\",\"C\",\"37\"
\"\",\"\",\"approach-retreat\",\"186\",\"1153302\",\"0.0-186.0\",\"\",\"\",\"1-3\",\"3960\",\"37\",\"1\",\"Testing\",\"Stims/Figures/85-J-0-2.bmp\",\"ma:la:na\",\"Left\",\"37\",\"2\",\"14\",\"2\",\"S\",\"C\",\"38\"
\"\",\"\",\"approach-retreat\",\"187\",\"1159087\",\"0.0-187.0\",\"\",\"\",\"1-3\",\"4281\",\"40\",\"1\",\"Testing\",\"Stims/Figures/111-C-30-3.bmp\",\"ta:ka:ka\",\"Up\",\"40\",\"2\",\"15\",\"2\",\"P\",\"C\",\"39\"
\"\",\"\",\"approach-retreat\",\"188\",\"1164511\",\"0.0-188.0\",\"\",\"\",\"1-3\",\"3919\",\"37\",\"1\",\"Testing\",\"Stims/Figures/19-C-20-4.bmp\",\"ta:ka:ka\",\"Right\",\"37\",\"2\",\"16\",\"2\",\"P\",\"C\",\"40\"
\"\",\"\",\"approach-retreat\",\"189\",\"1170215\",\"0.0-189.0\",\"\",\"\",\"1-3\",\"4201\",\"40\",\"1\",\"Testing\",\"Stims/Figures/27-J-0-1.bmp\",\"ma:la:na\",\"Down\",\"40\",\"2\",\"17\",\"2\",\"S\",\"C\",\"41\"
\"\",\"\",\"approach-retreat\",\"190\",\"1175742\",\"0.0-190.0\",\"\",\"\",\"1-3\",\"4024\",\"39\",\"1\",\"Testing\",\"Stims/Figures/100-C-30-3.bmp\",\"ta:ka:ka\",\"Left\",\"39\",\"2\",\"18\",\"2\",\"P\",\"C\",\"42\"
\"\",\"\",\"approach-retreat\",\"191\",\"1181311\",\"0.0-191.0\",\"\",\"\",\"1-3\",\"4065\",\"37\",\"1\",\"Testing\",\"Stims/Figures/118-J-0-2.bmp\",\"ma:la:na\",\"Left\",\"37\",\"2\",\"19\",\"2\",\"S\",\"C\",\"43\"
\"\",\"\",\"approach-retreat\",\"192\",\"1186847\",\"0.0-192.0\",\"\",\"\",\"1-3\",\"4033\",\"40\",\"1\",\"Testing\",\"Stims/Figures/118-C-20-2.bmp\",\"ta:ka:ka\",\"Up\",\"40\",\"2\",\"20\",\"2\",\"P\",\"C\",\"44\"
\"\",\"\",\"approach-retreat\",\"193\",\"1192352\",\"0.0-193.0\",\"\",\"\",\"1-3\",\"4002\",\"37\",\"0\",\"Testing\",\"Stims/Figures/57-J-0-1.bmp\",\"ma:la:na\",\"Right\",\"39\",\"2\",\"21\",\"2\",\"S\",\"C\",\"45\"
\"\",\"\",\"approach-retreat\",\"194\",\"1197840\",\"0.0-194.0\",\"\",\"\",\"1-3\",\"3984\",\"39\",\"1\",\"Testing\",\"Stims/Figures/74-J-10-4.bmp\",\"ma:la:na\",\"Right\",\"39\",\"2\",\"22\",\"2\",\"S\",\"C\",\"46\"
\"\",\"\",\"approach-retreat\",\"195\",\"1204024\",\"0.0-195.0\",\"\",\"\",\"1-3\",\"4680\",\"38\",\"1\",\"Testing\",\"Stims/Figures/128-C-30-3.bmp\",\"ta:ka:ka\",\"Down\",\"38\",\"2\",\"23\",\"2\",\"P\",\"C\",\"47\"
\"\",\"\",\"approach-retreat\",\"196\",\"1209767\",\"0.0-196.0\",\"\",\"\",\"1-3\",\"4239\",\"38\",\"1\",\"Testing\",\"Stims/Figures/94-J-0-2.bmp\",\"ma:la:na\",\"Up\",\"38\",\"2\",\"24\",\"2\",\"S\",\"C\",\"48\"
\"\",\"\",\"approach-retreat\",\"197\",\"1215399\",\"0.0-197.0\",\"\",\"\",\"1-3\",\"4128\",\"38\",\"1\",\"Testing\",\"Stims/Figures/94-J-0-2.bmp\",\"ma:la:na\",\"Up\",\"38\",\"3\",\"1\",\"2\",\"S\",\"C\",\"49\"
\"\",\"\",\"approach-retreat\",\"198\",\"1221286\",\"0.0-198.0\",\"\",\"\",\"1-3\",\"4384\",\"38\",\"1\",\"Testing\",\"Stims/Figures/100-C-30-3.bmp\",\"ta:ka:ka\",\"Down\",\"38\",\"3\",\"2\",\"2\",\"P\",\"C\",\"50\"
\"\",\"\",\"approach-retreat\",\"199\",\"1226855\",\"0.0-199.0\",\"\",\"\",\"1-3\",\"4065\",\"39\",\"1\",\"Testing\",\"Stims/Figures/57-J-0-1.bmp\",\"ma:la:na\",\"Right\",\"39\",\"3\",\"3\",\"2\",\"S\",\"C\",\"51\"
\"\",\"\",\"approach-retreat\",\"200\",\"1232414\",\"0.0-200.0\",\"\",\"\",\"1-3\",\"4056\",\"37\",\"1\",\"Testing\",\"Stims/Figures/19-J-10-4.bmp\",\"ma:la:na\",\"Left\",\"37\",\"3\",\"4\",\"2\",\"S\",\"C\",\"52\"
\"\",\"\",\"approach-retreat\",\"201\",\"1238263\",\"0.0-201.0\",\"\",\"\",\"1-3\",\"4345\",\"40\",\"1\",\"Testing\",\"Stims/Figures/100-J-10-3.bmp\",\"ma:la:na\",\"Down\",\"40\",\"3\",\"5\",\"2\",\"S\",\"C\",\"53\"
\"\",\"\",\"approach-retreat\",\"202\",\"1243751\",\"0.0-202.0\",\"\",\"\",\"1-3\",\"3984\",\"37\",\"1\",\"Testing\",\"Stims/Figures/7-C-20-4.bmp\",\"ta:ka:ka\",\"Right\",\"37\",\"3\",\"6\",\"2\",\"P\",\"C\",\"54\"
\"\",\"\",\"approach-retreat\",\"203\",\"1249535\",\"0.0-203.0\",\"\",\"\",\"1-3\",\"4281\",\"38\",\"1\",\"Testing\",\"Stims/Figures/57-C-30-1.bmp\",\"ta:ka:ka\",\"Down\",\"38\",\"3\",\"7\",\"2\",\"P\",\"C\",\"55\"
\"\",\"\",\"approach-retreat\",\"204\",\"1255254\",\"0.0-204.0\",\"\",\"\",\"1-3\",\"4215\",\"40\",\"1\",\"Testing\",\"Stims/Figures/27-C-30-1.bmp\",\"ta:ka:ka\",\"Up\",\"40\",\"3\",\"8\",\"2\",\"P\",\"C\",\"56\"
\"\",\"\",\"approach-retreat\",\"205\",\"1260819\",\"0.0-205.0\",\"\",\"\",\"1-3\",\"4061\",\"39\",\"1\",\"Testing\",\"Stims/Figures/93-J-0-1.bmp\",\"ma:la:na\",\"Right\",\"39\",\"3\",\"9\",\"2\",\"S\",\"C\",\"57\"
\"\",\"\",\"approach-retreat\",\"206\",\"1266421\",\"0.0-206.0\",\"\",\"\",\"1-3\",\"4100\",\"38\",\"1\",\"Testing\",\"Stims/Figures/85-C-20-2.bmp\",\"ta:ka:ka\",\"Down\",\"38\",\"3\",\"10\",\"2\",\"P\",\"C\",\"58\"
\"\",\"\",\"approach-retreat\",\"207\",\"1271950\",\"0.0-207.0\",\"\",\"\",\"1-3\",\"4025\",\"37\",\"1\",\"Testing\",\"Stims/Figures/74-C-20-4.bmp\",\"ta:ka:ka\",\"Right\",\"37\",\"3\",\"11\",\"2\",\"P\",\"C\",\"59\"
\"\",\"\",\"approach-retreat\",\"208\",\"1277381\",\"0.0-208.0\",\"\",\"\",\"1-3\",\"3928\",\"37\",\"1\",\"Testing\",\"Stims/Figures/118-C-20-2.bmp\",\"ta:ka:ka\",\"Right\",\"37\",\"3\",\"12\",\"2\",\"P\",\"C\",\"60\"
\"\",\"\",\"approach-retreat\",\"209\",\"1282894\",\"0.0-209.0\",\"\",\"\",\"1-3\",\"4009\",\"37\",\"1\",\"Testing\",\"Stims/Figures/74-J-10-4.bmp\",\"ma:la:na\",\"Left\",\"37\",\"3\",\"13\",\"2\",\"S\",\"C\",\"61\"
\"\",\"\",\"approach-retreat\",\"210\",\"1288526\",\"0.0-210.0\",\"\",\"\",\"1-3\",\"4128\",\"37\",\"1\",\"Testing\",\"Stims/Figures/118-J-0-2.bmp\",\"ma:la:na\",\"Left\",\"37\",\"3\",\"14\",\"2\",\"S\",\"C\",\"62\"
\"\",\"\",\"approach-retreat\",\"211\",\"1294142\",\"0.0-211.0\",\"\",\"\",\"1-3\",\"4113\",\"38\",\"1\",\"Testing\",\"Stims/Figures/19-C-20-4.bmp\",\"ta:ka:ka\",\"Down\",\"38\",\"3\",\"15\",\"2\",\"P\",\"C\",\"63\"
\"\",\"\",\"approach-retreat\",\"212\",\"1299662\",\"0.0-212.0\",\"\",\"\",\"1-3\",\"4016\",\"39\",\"1\",\"Testing\",\"Stims/Figures/128-C-30-3.bmp\",\"ta:ka:ka\",\"Left\",\"39\",\"3\",\"16\",\"2\",\"P\",\"C\",\"64\"
\"\",\"\",\"approach-retreat\",\"213\",\"1305461\",\"0.0-213.0\",\"\",\"\",\"1-3\",\"4297\",\"38\",\"1\",\"Testing\",\"Stims/Figures/111-J-10-3.bmp\",\"ma:la:na\",\"Up\",\"38\",\"3\",\"17\",\"2\",\"S\",\"C\",\"65\"
\"\",\"\",\"approach-retreat\",\"214\",\"1311158\",\"0.0-214.0\",\"\",\"\",\"1-3\",\"4194\",\"38\",\"1\",\"Testing\",\"Stims/Figures/7-J-10-4.bmp\",\"ma:la:na\",\"Up\",\"38\",\"3\",\"18\",\"2\",\"S\",\"C\",\"66\"
\"\",\"\",\"approach-retreat\",\"215\",\"1316774\",\"0.0-215.0\",\"\",\"\",\"1-3\",\"4113\",\"38\",\"1\",\"Testing\",\"Stims/Figures/93-C-30-1.bmp\",\"ta:ka:ka\",\"Down\",\"38\",\"3\",\"19\",\"2\",\"P\",\"C\",\"67\"
\"\",\"\",\"approach-retreat\",\"216\",\"1322310\",\"0.0-216.0\",\"\",\"\",\"1-3\",\"4032\",\"39\",\"1\",\"Testing\",\"Stims/Figures/85-J-0-2.bmp\",\"ma:la:na\",\"Right\",\"39\",\"3\",\"20\",\"2\",\"S\",\"C\",\"68\"
\"\",\"\",\"approach-retreat\",\"217\",\"1327951\",\"0.0-217.0\",\"\",\"\",\"1-3\",\"4137\",\"38\",\"1\",\"Testing\",\"Stims/Figures/128-J-10-3.bmp\",\"ma:la:na\",\"Up\",\"38\",\"3\",\"21\",\"2\",\"S\",\"C\",\"69\"
\"\",\"\",\"approach-retreat\",\"218\",\"1333463\",\"0.0-218.0\",\"\",\"\",\"1-3\",\"4007\",\"37\",\"1\",\"Testing\",\"Stims/Figures/27-J-0-1.bmp\",\"ma:la:na\",\"Left\",\"37\",\"3\",\"22\",\"2\",\"S\",\"C\",\"70\"
\"\",\"\",\"approach-retreat\",\"219\",\"1338991\",\"0.0-219.0\",\"\",\"\",\"1-3\",\"4024\",\"39\",\"1\",\"Testing\",\"Stims/Figures/111-C-30-3.bmp\",\"ta:ka:ka\",\"Left\",\"39\",\"3\",\"23\",\"2\",\"P\",\"C\",\"71\"
\"\",\"\",\"approach-retreat\",\"220\",\"1344758\",\"0.0-220.0\",\"\",\"\",\"1-3\",\"4264\",\"40\",\"1\",\"Testing\",\"Stims/Figures/94-C-20-2.bmp\",\"ta:ka:ka\",\"Up\",\"40\",\"3\",\"24\",\"2\",\"P\",\"C\",\"72\"
\"\",\"\",\"approach-retreat\",\"221\",\"1350686\",\"0.0-221.0\",\"\",\"\",\"1-3\",\"4426\",\"38\",\"1\",\"Testing\",\"Stims/Figures/85-C-20-2.bmp\",\"ta:ka:ka\",\"Down\",\"38\",\"4\",\"1\",\"2\",\"P\",\"C\",\"73\"
\"\",\"\",\"approach-retreat\",\"222\",\"1356437\",\"0.0-222.0\",\"\",\"\",\"1-3\",\"4249\",\"40\",\"1\",\"Testing\",\"Stims/Figures/100-C-30-3.bmp\",\"ta:ka:ka\",\"Up\",\"40\",\"4\",\"2\",\"2\",\"P\",\"C\",\"74\"
\"\",\"\",\"approach-retreat\",\"223\",\"1362126\",\"0.0-223.0\",\"\",\"\",\"1-3\",\"4185\",\"40\",\"1\",\"Testing\",\"Stims/Figures/57-C-30-1.bmp\",\"ta:ka:ka\",\"Up\",\"40\",\"4\",\"3\",\"2\",\"P\",\"C\",\"75\"
\"\",\"\",\"approach-retreat\",\"224\",\"1368005\",\"0.0-224.0\",\"\",\"\",\"1-3\",\"4375\",\"38\",\"1\",\"Testing\",\"Stims/Figures/128-J-10-3.bmp\",\"ma:la:na\",\"Up\",\"38\",\"4\",\"4\",\"2\",\"S\",\"C\",\"76\"
\"\",\"\",\"approach-retreat\",\"225\",\"1374412\",\"0.0-225.0\",\"\",\"\",\"1-3\",\"4890\",\"38\",\"1\",\"Testing\",\"Stims/Figures/128-C-30-3.bmp\",\"ta:ka:ka\",\"Down\",\"38\",\"4\",\"5\",\"2\",\"P\",\"C\",\"77\"
\"\",\"\",\"approach-retreat\",\"226\",\"1380262\",\"0.0-226.0\",\"\",\"\",\"1-3\",\"4345\",\"38\",\"1\",\"Testing\",\"Stims/Figures/93-J-0-1.bmp\",\"ma:la:na\",\"Up\",\"38\",\"4\",\"6\",\"2\",\"S\",\"C\",\"78\"
\"\",\"\",\"approach-retreat\",\"227\",\"1385974\",\"0.0-227.0\",\"\",\"\",\"1-3\",\"4208\",\"39\",\"1\",\"Testing\",\"Stims/Figures/27-J-0-1.bmp\",\"ma:la:na\",\"Right\",\"39\",\"4\",\"7\",\"2\",\"S\",\"C\",\"79\"
\"\",\"\",\"approach-retreat\",\"228\",\"1391597\",\"0.0-228.0\",\"\",\"\",\"1-3\",\"4120\",\"37\",\"1\",\"Testing\",\"Stims/Figures/7-J-10-4.bmp\",\"ma:la:na\",\"Left\",\"37\",\"4\",\"8\",\"2\",\"S\",\"C\",\"80\"
\"\",\"\",\"approach-retreat\",\"229\",\"1397437\",\"0.0-229.0\",\"\",\"\",\"1-3\",\"4337\",\"37\",\"1\",\"Testing\",\"Stims/Figures/111-J-10-3.bmp\",\"ma:la:na\",\"Left\",\"37\",\"4\",\"9\",\"2\",\"S\",\"C\",\"81\"
\"\",\"\",\"approach-retreat\",\"230\",\"1402949\",\"0.0-230.0\",\"\",\"\",\"1-3\",\"4008\",\"39\",\"1\",\"Testing\",\"Stims/Figures/19-C-20-4.bmp\",\"ta:ka:ka\",\"Left\",\"39\",\"4\",\"10\",\"2\",\"P\",\"C\",\"82\"
\"\",\"\",\"approach-retreat\",\"231\",\"1408677\",\"0.0-231.0\",\"\",\"\",\"1-3\",\"4224\",\"40\",\"0\",\"Testing\",\"Stims/Figures/118-C-20-2.bmp\",\"ta:ka:ka\",\"Down\",\"38\",\"4\",\"11\",\"2\",\"P\",\"C\",\"83\"
\"\",\"\",\"approach-retreat\",\"232\",\"1414925\",\"0.0-232.0\",\"\",\"\",\"1-3\",\"4743\",\"37\",\"1\",\"Testing\",\"Stims/Figures/74-J-10-4.bmp\",\"ma:la:na\",\"Left\",\"37\",\"4\",\"12\",\"2\",\"S\",\"C\",\"84\"
\"\",\"\",\"approach-retreat\",\"233\",\"1420486\",\"0.0-233.0\",\"\",\"\",\"1-3\",\"4058\",\"37\",\"1\",\"Testing\",\"Stims/Figures/94-C-20-2.bmp\",\"ta:ka:ka\",\"Right\",\"37\",\"4\",\"13\",\"2\",\"P\",\"C\",\"85\"
\"\",\"\",\"approach-retreat\",\"234\",\"1426052\",\"0.0-234.0\",\"\",\"\",\"1-3\",\"4064\",\"37\",\"1\",\"Testing\",\"Stims/Figures/100-J-10-3.bmp\",\"ma:la:na\",\"Left\",\"37\",\"4\",\"14\",\"2\",\"S\",\"C\",\"86\"
\"\",\"\",\"approach-retreat\",\"235\",\"1431581\",\"0.0-235.0\",\"\",\"\",\"1-3\",\"4024\",\"37\",\"1\",\"Testing\",\"Stims/Figures/7-C-20-4.bmp\",\"ta:ka:ka\",\"Right\",\"37\",\"4\",\"15\",\"2\",\"P\",\"C\",\"87\"
\"\",\"\",\"approach-retreat\",\"236\",\"1437109\",\"0.0-236.0\",\"\",\"\",\"1-3\",\"4025\",\"37\",\"1\",\"Testing\",\"Stims/Figures/94-J-0-2.bmp\",\"ma:la:na\",\"Left\",\"37\",\"4\",\"16\",\"2\",\"S\",\"C\",\"88\"
\"\",\"\",\"approach-retreat\",\"237\",\"1442622\",\"0.0-237.0\",\"\",\"\",\"1-3\",\"4008\",\"39\",\"1\",\"Testing\",\"Stims/Figures/118-J-0-2.bmp\",\"ma:la:na\",\"Right\",\"39\",\"4\",\"17\",\"2\",\"S\",\"C\",\"89\"
\"\",\"\",\"approach-retreat\",\"238\",\"1448269\",\"0.0-238.0\",\"\",\"\",\"1-3\",\"4144\",\"38\",\"0\",\"Testing\",\"Stims/Figures/74-C-20-4.bmp\",\"ta:ka:ka\",\"Up\",\"40\",\"4\",\"18\",\"2\",\"P\",\"C\",\"90\"
\"\",\"\",\"approach-retreat\",\"239\",\"1453823\",\"0.0-239.0\",\"\",\"\",\"1-3\",\"4049\",\"39\",\"0\",\"Testing\",\"Stims/Figures/27-C-30-1.bmp\",\"ta:ka:ka\",\"Right\",\"37\",\"4\",\"19\",\"2\",\"P\",\"C\",\"91\"
\"\",\"\",\"approach-retreat\",\"240\",\"1459542\",\"0.0-240.0\",\"\",\"\",\"1-3\",\"4216\",\"38\",\"1\",\"Testing\",\"Stims/Figures/85-J-0-2.bmp\",\"ma:la:na\",\"Up\",\"38\",\"4\",\"20\",\"2\",\"S\",\"C\",\"92\"
\"\",\"\",\"approach-retreat\",\"241\",\"1465277\",\"0.0-241.0\",\"\",\"\",\"1-3\",\"4232\",\"40\",\"0\",\"Testing\",\"Stims/Figures/93-C-30-1.bmp\",\"ta:ka:ka\",\"Down\",\"38\",\"4\",\"21\",\"2\",\"P\",\"C\",\"93\"
\"\",\"\",\"approach-retreat\",\"242\",\"1470805\",\"0.0-242.0\",\"\",\"\",\"1-3\",\"4024\",\"39\",\"1\",\"Testing\",\"Stims/Figures/57-J-0-1.bmp\",\"ma:la:na\",\"Right\",\"39\",\"4\",\"22\",\"2\",\"S\",\"C\",\"94\"
\"\",\"\",\"approach-retreat\",\"243\",\"1476558\",\"0.0-243.0\",\"\",\"\",\"1-3\",\"4249\",\"40\",\"1\",\"Testing\",\"Stims/Figures/19-J-10-4.bmp\",\"ma:la:na\",\"Down\",\"40\",\"4\",\"23\",\"2\",\"S\",\"C\",\"95\"
\"\",\"\",\"approach-retreat\",\"244\",\"1482676\",\"0.0-244.0\",\"\",\"\",\"1-3\",\"4616\",\"38\",\"1\",\"Testing\",\"Stims/Figures/111-C-30-3.bmp\",\"ta:ka:ka\",\"Down\",\"38\",\"4\",\"24\",\"2\",\"P\",\"C\",\"96\"
\"103941\",\"\",\"survey-text\",\"245\",\"1586621\",\"0.0-245.0\",\"\",\"{\"\"Q0\"\":\"\"Ps150076\"\"}\",\"\",\"\",\"\",\"\",\"\",\"\",\"\",\"\",\"\",\"\",\"\",\"\",\"\",\"\",\"\"
