\"rt\",\"key_press\",\"trial_type\",\"trial_index\",\"time_elapsed\",\"internal_node_id\",\"view_history\",\"responses\",\"Id\",\"Rt\",\"ResKeyCode\",\"ResCorr\",\"TrialType2\",\"Image\",\"Label\",\"Location\",\"CorrectResponse\",\"Block\",\"BlockTrial\",\"Condition\",\"LabelType\",\"Subcondition\",\"trialNum\"
\"559496\",\"32\",\"text\",\"0\",\"559499\",\"0.0-0.0-0.0\",\"\",\"\",\"\",\"\",\"\",\"\",\"\",\"\",\"\",\"\",\"\",\"\",\"\",\"\",\"\",\"\",\"\"
\"63357\",\"\",\"instructions\",\"1\",\"622857\",\"0.0-1.0\",\"[{\"\"page_index\"\":0,\"\"viewing_time\"\":63355}]\",\"\",\"\",\"\",\"\",\"\",\"\",\"\",\"\",\"\",\"\",\"\",\"\",\"\",\"\",\"\",\"\"
\"12584\",\"\",\"survey-multi-choice\",\"2\",\"635466\",\"0.0-2.0\",\"\",\"{\"\"Q0\"\":\"\"Da\"\",\"\"Q1\"\":\"\"Da\"\",\"\"Q2\"\":\"\"Da\"\",\"\"Q3\"\":\"\"Da\"\",\"\"Q4\"\":\"\"Da\"\",\"\"Q5\"\":\"\"Da\"\"}\",\"\",\"\",\"\",\"\",\"\",\"\",\"\",\"\",\"\",\"\",\"\",\"\",\"\",\"\",\"\"
\"\",\"\",\"bio\",\"3\",\"646929\",\"0.0-3.0\",\"\",\"{\"\"age\"\":\"\"26\"\",\"\"gender\"\":\"\"f\"\",\"\"specify\"\":\"\"\"\"}\",\"\",\"\",\"\",\"\",\"\",\"\",\"\",\"\",\"\",\"\",\"\",\"\",\"\",\"\",\"\"
\"\",\"\",\"approach-retreat\",\"4\",\"656270\",\"0.0-4.0\",\"\",\"\",\"1-3\",\"7832\",\"39\",\"0\",\"Training\",\"Stims/Figures/128-J-10-3.bmp\",\"fafa:va\",\"Left\",\"37\",\"1\",\"1\",\"3A\",\"C1\",\"C\",\"1\"
\"\",\"\",\"approach-retreat\",\"5\",\"662839\",\"0.0-5.0\",\"\",\"\",\"1-3\",\"5053\",\"37\",\"0\",\"Training\",\"Stims/Figures/118-C-20-2.bmp\",\"za:sa:za\",\"Left\",\"39\",\"1\",\"2\",\"3A\",\"C2\",\"C\",\"2\"
\"\",\"\",\"approach-retreat\",\"6\",\"669669\",\"0.0-6.0\",\"\",\"\",\"1-3\",\"5308\",\"37\",\"0\",\"Training\",\"Stims/Figures/19-J-10-4.bmp\",\"fafa:va\",\"Right\",\"39\",\"1\",\"3\",\"3A\",\"C1\",\"C\",\"3\"
\"\",\"\",\"approach-retreat\",\"7\",\"676149\",\"0.0-7.0\",\"\",\"\",\"1-3\",\"4974\",\"39\",\"1\",\"Training\",\"Stims/Figures/7-C-20-4.bmp\",\"za:sa:za\",\"Left\",\"39\",\"1\",\"4\",\"3A\",\"C2\",\"C\",\"4\"
\"\",\"\",\"approach-retreat\",\"8\",\"682349\",\"0.0-8.0\",\"\",\"\",\"1-3\",\"4687\",\"37\",\"1\",\"Training\",\"Stims/Figures/93-C-30-1.bmp\",\"za:sa:za\",\"Right\",\"37\",\"1\",\"5\",\"3A\",\"C2\",\"C\",\"5\"
\"\",\"\",\"approach-retreat\",\"9\",\"688579\",\"0.0-9.0\",\"\",\"\",\"1-3\",\"4710\",\"39\",\"1\",\"Training\",\"Stims/Figures/27-C-30-1.bmp\",\"za:sa:za\",\"Left\",\"39\",\"1\",\"6\",\"3A\",\"C2\",\"C\",\"6\"
\"\",\"\",\"approach-retreat\",\"10\",\"694439\",\"0.0-10.0\",\"\",\"\",\"1-3\",\"4344\",\"37\",\"1\",\"Training\",\"Stims/Figures/128-C-30-3.bmp\",\"za:sa:za\",\"Right\",\"37\",\"1\",\"7\",\"3A\",\"C2\",\"C\",\"7\"
\"\",\"\",\"approach-retreat\",\"11\",\"701909\",\"0.0-11.0\",\"\",\"\",\"1-3\",\"5947\",\"38\",\"0\",\"Training\",\"Stims/Figures/84-J-0-2.bmp\",\"fafa:va\",\"Down\",\"40\",\"1\",\"8\",\"3A\",\"C1\",\"C\",\"8\"
\"\",\"\",\"approach-retreat\",\"12\",\"708270\",\"0.0-12.0\",\"\",\"\",\"1-3\",\"4838\",\"40\",\"1\",\"Training\",\"Stims/Figures/19-C-20-4.bmp\",\"za:sa:za\",\"Up\",\"40\",\"1\",\"9\",\"3A\",\"C2\",\"C\",\"9\"
\"\",\"\",\"approach-retreat\",\"13\",\"714989\",\"0.0-13.0\",\"\",\"\",\"1-3\",\"5213\",\"40\",\"1\",\"Training\",\"Stims/Figures/7-J-10-4.bmp\",\"fafa:va\",\"Down\",\"40\",\"1\",\"10\",\"3A\",\"C1\",\"C\",\"10\"
\"\",\"\",\"approach-retreat\",\"14\",\"721499\",\"0.0-14.0\",\"\",\"\",\"1-3\",\"4996\",\"39\",\"1\",\"Training\",\"Stims/Figures/27-J-0-1.bmp\",\"fafa:va\",\"Right\",\"39\",\"1\",\"11\",\"3A\",\"C1\",\"C\",\"11\"
\"\",\"\",\"approach-retreat\",\"15\",\"728269\",\"0.0-15.0\",\"\",\"\",\"1-3\",\"5248\",\"38\",\"1\",\"Training\",\"Stims/Figures/44-J-10-3.bmp\",\"fafa:va\",\"Up\",\"38\",\"1\",\"12\",\"3A\",\"C1\",\"C\",\"12\"
\"\",\"\",\"approach-retreat\",\"16\",\"735089\",\"0.0-16.0\",\"\",\"\",\"1-3\",\"5301\",\"38\",\"1\",\"Training\",\"Stims/Figures/44-C-30-3.bmp\",\"za:sa:za\",\"Down\",\"38\",\"1\",\"13\",\"3A\",\"C2\",\"C\",\"13\"
\"\",\"\",\"approach-retreat\",\"17\",\"741529\",\"0.0-17.0\",\"\",\"\",\"1-3\",\"4922\",\"38\",\"1\",\"Training\",\"Stims/Figures/118-J-0-2.bmp\",\"fafa:va\",\"Up\",\"38\",\"1\",\"14\",\"3A\",\"C1\",\"C\",\"14\"
\"\",\"\",\"approach-retreat\",\"18\",\"747899\",\"0.0-18.0\",\"\",\"\",\"1-3\",\"4850\",\"38\",\"1\",\"Training\",\"Stims/Figures/93-J-0-1.bmp\",\"fafa:va\",\"Up\",\"38\",\"1\",\"15\",\"3A\",\"C1\",\"C\",\"15\"
\"\",\"\",\"approach-retreat\",\"19\",\"754519\",\"0.0-19.0\",\"\",\"\",\"1-3\",\"5113\",\"38\",\"1\",\"Training\",\"Stims/Figures/84-C-20-2.bmp\",\"za:sa:za\",\"Down\",\"38\",\"1\",\"16\",\"3A\",\"C2\",\"C\",\"16\"
\"\",\"\",\"approach-retreat\",\"20\",\"761109\",\"0.0-20.0\",\"\",\"\",\"1-3\",\"5068\",\"39\",\"1\",\"Training\",\"Stims/Figures/7-C-20-4.bmp\",\"za:sa:za\",\"Left\",\"39\",\"2\",\"1\",\"3A\",\"C2\",\"C\",\"17\"
\"\",\"\",\"approach-retreat\",\"21\",\"767139\",\"0.0-21.0\",\"\",\"\",\"1-3\",\"4517\",\"40\",\"1\",\"Training\",\"Stims/Figures/44-C-30-3.bmp\",\"za:sa:za\",\"Up\",\"40\",\"2\",\"2\",\"3A\",\"C2\",\"C\",\"18\"
\"\",\"\",\"approach-retreat\",\"22\",\"772889\",\"0.0-22.0\",\"\",\"\",\"1-3\",\"4233\",\"39\",\"1\",\"Training\",\"Stims/Figures/93-C-30-1.bmp\",\"za:sa:za\",\"Left\",\"39\",\"2\",\"3\",\"3A\",\"C2\",\"C\",\"19\"
\"\",\"\",\"approach-retreat\",\"23\",\"779091\",\"0.0-23.0\",\"\",\"\",\"1-3\",\"4700\",\"38\",\"0\",\"Training\",\"Stims/Figures/118-J-0-2.bmp\",\"fafa:va\",\"Down\",\"40\",\"2\",\"4\",\"3A\",\"C1\",\"C\",\"20\"
\"\",\"\",\"approach-retreat\",\"24\",\"785860\",\"0.0-24.0\",\"\",\"\",\"1-3\",\"5247\",\"37\",\"1\",\"Training\",\"Stims/Figures/128-C-30-3.bmp\",\"za:sa:za\",\"Right\",\"37\",\"2\",\"5\",\"3A\",\"C2\",\"C\",\"21\"
\"\",\"\",\"approach-retreat\",\"25\",\"792760\",\"0.0-25.0\",\"\",\"\",\"1-3\",\"5383\",\"37\",\"1\",\"Training\",\"Stims/Figures/93-J-0-1.bmp\",\"fafa:va\",\"Left\",\"37\",\"2\",\"6\",\"3A\",\"C1\",\"C\",\"22\"
\"\",\"\",\"approach-retreat\",\"26\",\"799180\",\"0.0-26.0\",\"\",\"\",\"1-3\",\"4917\",\"37\",\"1\",\"Training\",\"Stims/Figures/84-C-20-2.bmp\",\"za:sa:za\",\"Right\",\"37\",\"2\",\"7\",\"3A\",\"C2\",\"C\",\"23\"
\"\",\"\",\"approach-retreat\",\"27\",\"805659\",\"0.0-27.0\",\"\",\"\",\"1-3\",\"4970\",\"38\",\"1\",\"Training\",\"Stims/Figures/128-J-10-3.bmp\",\"fafa:va\",\"Up\",\"38\",\"2\",\"8\",\"3A\",\"C1\",\"C\",\"24\"
\"\",\"\",\"approach-retreat\",\"28\",\"812110\",\"0.0-28.0\",\"\",\"\",\"1-3\",\"4930\",\"40\",\"1\",\"Training\",\"Stims/Figures/27-C-30-1.bmp\",\"za:sa:za\",\"Up\",\"40\",\"2\",\"9\",\"3A\",\"C2\",\"C\",\"25\"
\"\",\"\",\"approach-retreat\",\"29\",\"818190\",\"0.0-29.0\",\"\",\"\",\"1-3\",\"4574\",\"37\",\"1\",\"Training\",\"Stims/Figures/118-C-20-2.bmp\",\"za:sa:za\",\"Right\",\"37\",\"2\",\"10\",\"3A\",\"C2\",\"C\",\"26\"
\"\",\"\",\"approach-retreat\",\"30\",\"824309\",\"0.0-30.0\",\"\",\"\",\"1-3\",\"4606\",\"37\",\"1\",\"Training\",\"Stims/Figures/19-C-20-4.bmp\",\"za:sa:za\",\"Right\",\"37\",\"2\",\"11\",\"3A\",\"C2\",\"C\",\"27\"
\"\",\"\",\"approach-retreat\",\"31\",\"830719\",\"0.0-31.0\",\"\",\"\",\"1-3\",\"4894\",\"38\",\"1\",\"Training\",\"Stims/Figures/19-J-10-4.bmp\",\"fafa:va\",\"Up\",\"38\",\"2\",\"12\",\"3A\",\"C1\",\"C\",\"28\"
\"\",\"\",\"approach-retreat\",\"32\",\"836730\",\"0.0-32.0\",\"\",\"\",\"1-3\",\"4499\",\"40\",\"1\",\"Training\",\"Stims/Figures/7-J-10-4.bmp\",\"fafa:va\",\"Down\",\"40\",\"2\",\"13\",\"3A\",\"C1\",\"C\",\"29\"
\"\",\"\",\"approach-retreat\",\"33\",\"842790\",\"0.0-33.0\",\"\",\"\",\"1-3\",\"4539\",\"38\",\"0\",\"Training\",\"Stims/Figures/27-J-0-1.bmp\",\"fafa:va\",\"Down\",\"40\",\"2\",\"14\",\"3A\",\"C1\",\"C\",\"30\"
\"\",\"\",\"approach-retreat\",\"34\",\"849510\",\"0.0-34.0\",\"\",\"\",\"1-3\",\"5207\",\"40\",\"1\",\"Training\",\"Stims/Figures/44-J-10-3.bmp\",\"fafa:va\",\"Down\",\"40\",\"2\",\"15\",\"3A\",\"C1\",\"C\",\"31\"
\"\",\"\",\"approach-retreat\",\"35\",\"856720\",\"0.0-35.0\",\"\",\"\",\"1-3\",\"5703\",\"37\",\"1\",\"Training\",\"Stims/Figures/84-J-0-2.bmp\",\"fafa:va\",\"Left\",\"37\",\"2\",\"16\",\"3A\",\"C1\",\"C\",\"32\"
\"\",\"\",\"approach-retreat\",\"36\",\"863989\",\"0.0-36.0\",\"\",\"\",\"1-3\",\"5749\",\"39\",\"0\",\"Training\",\"Stims/Figures/84-C-20-2.bmp\",\"za:sa:za\",\"Right\",\"37\",\"3\",\"1\",\"3A\",\"C2\",\"C\",\"33\"
\"\",\"\",\"approach-retreat\",\"37\",\"870509\",\"0.0-37.0\",\"\",\"\",\"1-3\",\"5012\",\"40\",\"1\",\"Training\",\"Stims/Figures/118-C-20-2.bmp\",\"za:sa:za\",\"Up\",\"40\",\"3\",\"2\",\"3A\",\"C2\",\"C\",\"34\"
\"\",\"\",\"approach-retreat\",\"38\",\"878170\",\"0.0-38.0\",\"\",\"\",\"1-3\",\"6142\",\"39\",\"1\",\"Training\",\"Stims/Figures/27-J-0-1.bmp\",\"fafa:va\",\"Right\",\"39\",\"3\",\"3\",\"3A\",\"C1\",\"C\",\"35\"
\"\",\"\",\"approach-retreat\",\"39\",\"883989\",\"0.0-39.0\",\"\",\"\",\"1-3\",\"4299\",\"38\",\"1\",\"Training\",\"Stims/Figures/7-C-20-4.bmp\",\"za:sa:za\",\"Down\",\"38\",\"3\",\"4\",\"3A\",\"C2\",\"C\",\"36\"
\"\",\"\",\"approach-retreat\",\"40\",\"890449\",\"0.0-40.0\",\"\",\"\",\"1-3\",\"4942\",\"37\",\"1\",\"Training\",\"Stims/Figures/93-J-0-1.bmp\",\"fafa:va\",\"Left\",\"37\",\"3\",\"5\",\"3A\",\"C1\",\"C\",\"37\"
\"\",\"\",\"approach-retreat\",\"41\",\"897230\",\"0.0-41.0\",\"\",\"\",\"1-3\",\"5259\",\"39\",\"1\",\"Training\",\"Stims/Figures/44-J-10-3.bmp\",\"fafa:va\",\"Right\",\"39\",\"3\",\"6\",\"3A\",\"C1\",\"C\",\"38\"
\"\",\"\",\"approach-retreat\",\"42\",\"903530\",\"0.0-42.0\",\"\",\"\",\"1-3\",\"4783\",\"39\",\"1\",\"Training\",\"Stims/Figures/44-C-30-3.bmp\",\"za:sa:za\",\"Left\",\"39\",\"3\",\"7\",\"3A\",\"C2\",\"C\",\"39\"
\"\",\"\",\"approach-retreat\",\"43\",\"909419\",\"0.0-43.0\",\"\",\"\",\"1-3\",\"4386\",\"40\",\"1\",\"Training\",\"Stims/Figures/93-C-30-1.bmp\",\"za:sa:za\",\"Up\",\"40\",\"3\",\"8\",\"3A\",\"C2\",\"C\",\"40\"
\"\",\"\",\"approach-retreat\",\"44\",\"915160\",\"0.0-44.0\",\"\",\"\",\"1-3\",\"4233\",\"40\",\"1\",\"Training\",\"Stims/Figures/128-C-30-3.bmp\",\"za:sa:za\",\"Up\",\"40\",\"3\",\"9\",\"3A\",\"C2\",\"C\",\"41\"
\"\",\"\",\"approach-retreat\",\"45\",\"920900\",\"0.0-45.0\",\"\",\"\",\"1-3\",\"4220\",\"40\",\"1\",\"Training\",\"Stims/Figures/27-C-30-1.bmp\",\"za:sa:za\",\"Up\",\"40\",\"3\",\"10\",\"3A\",\"C2\",\"C\",\"42\"
\"\",\"\",\"approach-retreat\",\"46\",\"927340\",\"0.0-46.0\",\"\",\"\",\"1-3\",\"4929\",\"40\",\"1\",\"Training\",\"Stims/Figures/118-J-0-2.bmp\",\"fafa:va\",\"Down\",\"40\",\"3\",\"11\",\"3A\",\"C1\",\"C\",\"43\"
\"\",\"\",\"approach-retreat\",\"47\",\"933660\",\"0.0-47.0\",\"\",\"\",\"1-3\",\"4817\",\"37\",\"1\",\"Training\",\"Stims/Figures/84-J-0-2.bmp\",\"fafa:va\",\"Left\",\"37\",\"3\",\"12\",\"3A\",\"C1\",\"C\",\"44\"
\"\",\"\",\"approach-retreat\",\"48\",\"940519\",\"0.0-48.0\",\"\",\"\",\"1-3\",\"5353\",\"37\",\"1\",\"Training\",\"Stims/Figures/19-J-10-4.bmp\",\"fafa:va\",\"Left\",\"37\",\"3\",\"13\",\"3A\",\"C1\",\"C\",\"45\"
\"\",\"\",\"approach-retreat\",\"49\",\"946549\",\"0.0-49.0\",\"\",\"\",\"1-3\",\"4524\",\"38\",\"1\",\"Training\",\"Stims/Figures/19-C-20-4.bmp\",\"za:sa:za\",\"Down\",\"38\",\"3\",\"14\",\"3A\",\"C2\",\"C\",\"46\"
\"\",\"\",\"approach-retreat\",\"50\",\"952869\",\"0.0-50.0\",\"\",\"\",\"1-3\",\"4807\",\"39\",\"1\",\"Training\",\"Stims/Figures/7-J-10-4.bmp\",\"fafa:va\",\"Right\",\"39\",\"3\",\"15\",\"3A\",\"C1\",\"C\",\"47\"
\"\",\"\",\"approach-retreat\",\"51\",\"958760\",\"0.0-51.0\",\"\",\"\",\"1-3\",\"4383\",\"40\",\"1\",\"Training\",\"Stims/Figures/128-J-10-3.bmp\",\"fafa:va\",\"Down\",\"40\",\"3\",\"16\",\"3A\",\"C1\",\"C\",\"48\"
\"\",\"\",\"approach-retreat\",\"52\",\"964600\",\"0.0-52.0\",\"\",\"\",\"1-3\",\"4333\",\"40\",\"1\",\"Training\",\"Stims/Figures/128-J-10-3.bmp\",\"fafa:va\",\"Down\",\"40\",\"4\",\"1\",\"3A\",\"C1\",\"C\",\"49\"
\"\",\"\",\"approach-retreat\",\"53\",\"970619\",\"0.0-53.0\",\"\",\"\",\"1-3\",\"4509\",\"40\",\"1\",\"Training\",\"Stims/Figures/93-C-30-1.bmp\",\"za:sa:za\",\"Up\",\"40\",\"4\",\"2\",\"3A\",\"C2\",\"C\",\"50\"
\"\",\"\",\"approach-retreat\",\"54\",\"976390\",\"0.0-54.0\",\"\",\"\",\"1-3\",\"4250\",\"37\",\"1\",\"Training\",\"Stims/Figures/7-C-20-4.bmp\",\"za:sa:za\",\"Right\",\"37\",\"4\",\"3\",\"3A\",\"C2\",\"C\",\"51\"
\"\",\"\",\"approach-retreat\",\"55\",\"981949\",\"0.0-55.0\",\"\",\"\",\"1-3\",\"4038\",\"38\",\"1\",\"Training\",\"Stims/Figures/84-C-20-2.bmp\",\"za:sa:za\",\"Down\",\"38\",\"4\",\"4\",\"3A\",\"C2\",\"C\",\"52\"
\"\",\"\",\"approach-retreat\",\"56\",\"987670\",\"0.0-56.0\",\"\",\"\",\"1-3\",\"4214\",\"40\",\"1\",\"Training\",\"Stims/Figures/27-C-30-1.bmp\",\"za:sa:za\",\"Up\",\"40\",\"4\",\"5\",\"3A\",\"C2\",\"C\",\"53\"
\"\",\"\",\"approach-retreat\",\"57\",\"993309\",\"0.0-57.0\",\"\",\"\",\"1-3\",\"4126\",\"39\",\"1\",\"Training\",\"Stims/Figures/118-C-20-2.bmp\",\"za:sa:za\",\"Left\",\"39\",\"4\",\"6\",\"3A\",\"C2\",\"C\",\"54\"
\"\",\"\",\"approach-retreat\",\"58\",\"999100\",\"0.0-58.0\",\"\",\"\",\"1-3\",\"4271\",\"37\",\"1\",\"Training\",\"Stims/Figures/19-J-10-4.bmp\",\"fafa:va\",\"Left\",\"37\",\"4\",\"7\",\"3A\",\"C1\",\"C\",\"55\"
\"\",\"\",\"approach-retreat\",\"59\",\"1004939\",\"0.0-59.0\",\"\",\"\",\"1-3\",\"4321\",\"37\",\"1\",\"Training\",\"Stims/Figures/93-J-0-1.bmp\",\"fafa:va\",\"Left\",\"37\",\"4\",\"8\",\"3A\",\"C1\",\"C\",\"56\"
\"\",\"\",\"approach-retreat\",\"60\",\"1011020\",\"0.0-60.0\",\"\",\"\",\"1-3\",\"4577\",\"40\",\"1\",\"Training\",\"Stims/Figures/27-J-0-1.bmp\",\"fafa:va\",\"Down\",\"40\",\"4\",\"9\",\"3A\",\"C1\",\"C\",\"57\"
\"\",\"\",\"approach-retreat\",\"61\",\"1016859\",\"0.0-61.0\",\"\",\"\",\"1-3\",\"4337\",\"39\",\"1\",\"Training\",\"Stims/Figures/128-C-30-3.bmp\",\"za:sa:za\",\"Left\",\"39\",\"4\",\"10\",\"3A\",\"C2\",\"C\",\"58\"
\"\",\"\",\"approach-retreat\",\"62\",\"1022900\",\"0.0-62.0\",\"\",\"\",\"1-3\",\"4537\",\"38\",\"1\",\"Training\",\"Stims/Figures/118-J-0-2.bmp\",\"fafa:va\",\"Up\",\"38\",\"4\",\"11\",\"3A\",\"C1\",\"C\",\"59\"
\"\",\"\",\"approach-retreat\",\"63\",\"1029220\",\"0.0-63.0\",\"\",\"\",\"1-3\",\"4816\",\"37\",\"1\",\"Training\",\"Stims/Figures/44-C-30-3.bmp\",\"za:sa:za\",\"Right\",\"37\",\"4\",\"12\",\"3A\",\"C2\",\"C\",\"60\"
\"\",\"\",\"approach-retreat\",\"64\",\"1034719\",\"0.0-64.0\",\"\",\"\",\"1-3\",\"3985\",\"40\",\"1\",\"Training\",\"Stims/Figures/84-J-0-2.bmp\",\"fafa:va\",\"Down\",\"40\",\"4\",\"13\",\"3A\",\"C1\",\"C\",\"61\"
\"\",\"\",\"approach-retreat\",\"65\",\"1040650\",\"0.0-65.0\",\"\",\"\",\"1-3\",\"4412\",\"37\",\"1\",\"Training\",\"Stims/Figures/19-C-20-4.bmp\",\"za:sa:za\",\"Right\",\"37\",\"4\",\"14\",\"3A\",\"C2\",\"C\",\"62\"
\"\",\"\",\"approach-retreat\",\"66\",\"1046279\",\"0.0-66.0\",\"\",\"\",\"1-3\",\"4123\",\"39\",\"1\",\"Training\",\"Stims/Figures/44-J-10-3.bmp\",\"fafa:va\",\"Right\",\"39\",\"4\",\"15\",\"3A\",\"C1\",\"C\",\"63\"
\"\",\"\",\"approach-retreat\",\"67\",\"1052380\",\"0.0-67.0\",\"\",\"\",\"1-3\",\"4582\",\"38\",\"1\",\"Training\",\"Stims/Figures/7-J-10-4.bmp\",\"fafa:va\",\"Up\",\"38\",\"4\",\"16\",\"3A\",\"C1\",\"C\",\"64\"
\"\",\"\",\"approach-retreat\",\"68\",\"1058260\",\"0.0-68.0\",\"\",\"\",\"1-3\",\"4360\",\"40\",\"1\",\"Training\",\"Stims/Figures/118-C-20-2.bmp\",\"za:sa:za\",\"Up\",\"40\",\"5\",\"1\",\"3A\",\"C2\",\"C\",\"65\"
\"\",\"\",\"approach-retreat\",\"69\",\"1063860\",\"0.0-69.0\",\"\",\"\",\"1-3\",\"4097\",\"40\",\"1\",\"Training\",\"Stims/Figures/84-C-20-2.bmp\",\"za:sa:za\",\"Up\",\"40\",\"5\",\"2\",\"3A\",\"C2\",\"C\",\"66\"
\"\",\"\",\"approach-retreat\",\"70\",\"1069499\",\"0.0-70.0\",\"\",\"\",\"1-3\",\"4122\",\"39\",\"1\",\"Training\",\"Stims/Figures/128-C-30-3.bmp\",\"za:sa:za\",\"Left\",\"39\",\"5\",\"3\",\"3A\",\"C2\",\"C\",\"67\"
\"\",\"\",\"approach-retreat\",\"71\",\"1075200\",\"0.0-71.0\",\"\",\"\",\"1-3\",\"4186\",\"39\",\"1\",\"Training\",\"Stims/Figures/19-C-20-4.bmp\",\"za:sa:za\",\"Left\",\"39\",\"5\",\"4\",\"3A\",\"C2\",\"C\",\"68\"
\"\",\"\",\"approach-retreat\",\"72\",\"1080970\",\"0.0-72.0\",\"\",\"\",\"1-3\",\"4260\",\"39\",\"1\",\"Training\",\"Stims/Figures/93-C-30-1.bmp\",\"za:sa:za\",\"Left\",\"39\",\"5\",\"5\",\"3A\",\"C2\",\"C\",\"69\"
\"\",\"\",\"approach-retreat\",\"73\",\"1086660\",\"0.0-73.0\",\"\",\"\",\"1-3\",\"4179\",\"40\",\"1\",\"Training\",\"Stims/Figures/27-C-30-1.bmp\",\"za:sa:za\",\"Up\",\"40\",\"5\",\"6\",\"3A\",\"C2\",\"C\",\"70\"
\"\",\"\",\"approach-retreat\",\"74\",\"1092390\",\"0.0-74.0\",\"\",\"\",\"1-3\",\"4217\",\"40\",\"1\",\"Training\",\"Stims/Figures/7-C-20-4.bmp\",\"za:sa:za\",\"Up\",\"40\",\"5\",\"7\",\"3A\",\"C2\",\"C\",\"71\"
\"\",\"\",\"approach-retreat\",\"75\",\"1098510\",\"0.0-75.0\",\"\",\"\",\"1-3\",\"4616\",\"40\",\"1\",\"Training\",\"Stims/Figures/44-J-10-3.bmp\",\"fafa:va\",\"Down\",\"40\",\"5\",\"8\",\"3A\",\"C1\",\"C\",\"72\"
\"\",\"\",\"approach-retreat\",\"76\",\"1104310\",\"0.0-76.0\",\"\",\"\",\"1-3\",\"4288\",\"40\",\"1\",\"Training\",\"Stims/Figures/19-J-10-4.bmp\",\"fafa:va\",\"Down\",\"40\",\"5\",\"9\",\"3A\",\"C1\",\"C\",\"73\"
\"\",\"\",\"approach-retreat\",\"77\",\"1110300\",\"0.0-77.0\",\"\",\"\",\"1-3\",\"4480\",\"39\",\"1\",\"Training\",\"Stims/Figures/7-J-10-4.bmp\",\"fafa:va\",\"Right\",\"39\",\"5\",\"10\",\"3A\",\"C1\",\"C\",\"74\"
\"\",\"\",\"approach-retreat\",\"78\",\"1115909\",\"0.0-78.0\",\"\",\"\",\"1-3\",\"4105\",\"37\",\"0\",\"Training\",\"Stims/Figures/128-J-10-3.bmp\",\"fafa:va\",\"Right\",\"39\",\"5\",\"11\",\"3A\",\"C1\",\"C\",\"75\"
\"\",\"\",\"approach-retreat\",\"79\",\"1121613\",\"0.0-79.0\",\"\",\"\",\"1-3\",\"4198\",\"40\",\"1\",\"Training\",\"Stims/Figures/27-J-0-1.bmp\",\"fafa:va\",\"Down\",\"40\",\"5\",\"12\",\"3A\",\"C1\",\"C\",\"76\"
\"\",\"\",\"approach-retreat\",\"80\",\"1127230\",\"0.0-80.0\",\"\",\"\",\"1-3\",\"4104\",\"37\",\"1\",\"Training\",\"Stims/Figures/118-J-0-2.bmp\",\"fafa:va\",\"Left\",\"37\",\"5\",\"13\",\"3A\",\"C1\",\"C\",\"77\"
\"\",\"\",\"approach-retreat\",\"81\",\"1132990\",\"0.0-81.0\",\"\",\"\",\"1-3\",\"4256\",\"37\",\"0\",\"Training\",\"Stims/Figures/84-J-0-2.bmp\",\"fafa:va\",\"Right\",\"39\",\"5\",\"14\",\"3A\",\"C1\",\"C\",\"78\"
\"\",\"\",\"approach-retreat\",\"82\",\"1138850\",\"0.0-82.0\",\"\",\"\",\"1-3\",\"4344\",\"39\",\"1\",\"Training\",\"Stims/Figures/93-J-0-1.bmp\",\"fafa:va\",\"Right\",\"39\",\"5\",\"15\",\"3A\",\"C1\",\"C\",\"79\"
\"\",\"\",\"approach-retreat\",\"83\",\"1144700\",\"0.0-83.0\",\"\",\"\",\"1-3\",\"4339\",\"38\",\"1\",\"Training\",\"Stims/Figures/44-C-30-3.bmp\",\"za:sa:za\",\"Down\",\"38\",\"5\",\"16\",\"3A\",\"C2\",\"C\",\"80\"
\"\",\"\",\"approach-retreat\",\"84\",\"1150590\",\"0.0-84.0\",\"\",\"\",\"1-3\",\"4385\",\"39\",\"1\",\"Training\",\"Stims/Figures/19-C-20-4.bmp\",\"za:sa:za\",\"Left\",\"39\",\"6\",\"1\",\"3A\",\"C2\",\"C\",\"81\"
\"\",\"\",\"approach-retreat\",\"85\",\"1156190\",\"0.0-85.0\",\"\",\"\",\"1-3\",\"4078\",\"40\",\"1\",\"Training\",\"Stims/Figures/84-C-20-2.bmp\",\"za:sa:za\",\"Up\",\"40\",\"6\",\"2\",\"3A\",\"C2\",\"C\",\"82\"
\"\",\"\",\"approach-retreat\",\"86\",\"1161870\",\"0.0-86.0\",\"\",\"\",\"1-3\",\"4158\",\"39\",\"1\",\"Training\",\"Stims/Figures/128-C-30-3.bmp\",\"za:sa:za\",\"Left\",\"39\",\"6\",\"3\",\"3A\",\"C2\",\"C\",\"83\"
\"\",\"\",\"approach-retreat\",\"87\",\"1167450\",\"0.0-87.0\",\"\",\"\",\"1-3\",\"4063\",\"38\",\"1\",\"Training\",\"Stims/Figures/7-C-20-4.bmp\",\"za:sa:za\",\"Down\",\"38\",\"6\",\"4\",\"3A\",\"C2\",\"C\",\"84\"
\"\",\"\",\"approach-retreat\",\"88\",\"1173170\",\"0.0-88.0\",\"\",\"\",\"1-3\",\"4199\",\"39\",\"0\",\"Training\",\"Stims/Figures/7-J-10-4.bmp\",\"fafa:va\",\"Left\",\"37\",\"6\",\"5\",\"3A\",\"C1\",\"C\",\"85\"
\"\",\"\",\"approach-retreat\",\"89\",\"1179479\",\"0.0-89.0\",\"\",\"\",\"1-3\",\"4793\",\"39\",\"1\",\"Training\",\"Stims/Figures/27-J-0-1.bmp\",\"fafa:va\",\"Right\",\"39\",\"6\",\"6\",\"3A\",\"C1\",\"C\",\"86\"
\"\",\"\",\"approach-retreat\",\"90\",\"1185729\",\"0.0-90.0\",\"\",\"\",\"1-3\",\"4733\",\"38\",\"1\",\"Training\",\"Stims/Figures/118-C-20-2.bmp\",\"za:sa:za\",\"Down\",\"38\",\"6\",\"7\",\"3A\",\"C2\",\"C\",\"87\"
\"\",\"\",\"approach-retreat\",\"91\",\"1192054\",\"0.0-91.0\",\"\",\"\",\"1-3\",\"4811\",\"38\",\"1\",\"Training\",\"Stims/Figures/118-J-0-2.bmp\",\"fafa:va\",\"Up\",\"38\",\"6\",\"8\",\"3A\",\"C1\",\"C\",\"88\"
\"\",\"\",\"approach-retreat\",\"92\",\"1198550\",\"0.0-92.0\",\"\",\"\",\"1-3\",\"4974\",\"40\",\"1\",\"Training\",\"Stims/Figures/93-C-30-1.bmp\",\"za:sa:za\",\"Up\",\"40\",\"6\",\"9\",\"3A\",\"C2\",\"C\",\"89\"
\"\",\"\",\"approach-retreat\",\"93\",\"1204550\",\"0.0-93.0\",\"\",\"\",\"1-3\",\"4479\",\"38\",\"1\",\"Training\",\"Stims/Figures/27-C-30-1.bmp\",\"za:sa:za\",\"Down\",\"38\",\"6\",\"10\",\"3A\",\"C2\",\"C\",\"90\"
\"\",\"\",\"approach-retreat\",\"94\",\"1210150\",\"0.0-94.0\",\"\",\"\",\"1-3\",\"4087\",\"39\",\"1\",\"Training\",\"Stims/Figures/44-C-30-3.bmp\",\"za:sa:za\",\"Left\",\"39\",\"6\",\"11\",\"3A\",\"C2\",\"C\",\"91\"
\"\",\"\",\"approach-retreat\",\"95\",\"1216420\",\"0.0-95.0\",\"\",\"\",\"1-3\",\"4767\",\"39\",\"1\",\"Training\",\"Stims/Figures/19-J-10-4.bmp\",\"fafa:va\",\"Right\",\"39\",\"6\",\"12\",\"3A\",\"C1\",\"C\",\"92\"
\"\",\"\",\"approach-retreat\",\"96\",\"1223030\",\"0.0-96.0\",\"\",\"\",\"1-3\",\"5097\",\"39\",\"1\",\"Training\",\"Stims/Figures/93-J-0-1.bmp\",\"fafa:va\",\"Right\",\"39\",\"6\",\"13\",\"3A\",\"C1\",\"C\",\"93\"
\"\",\"\",\"approach-retreat\",\"97\",\"1229270\",\"0.0-97.0\",\"\",\"\",\"1-3\",\"4726\",\"38\",\"1\",\"Training\",\"Stims/Figures/44-J-10-3.bmp\",\"fafa:va\",\"Up\",\"38\",\"6\",\"14\",\"3A\",\"C1\",\"C\",\"94\"
\"\",\"\",\"approach-retreat\",\"98\",\"1236000\",\"0.0-98.0\",\"\",\"\",\"1-3\",\"5213\",\"40\",\"1\",\"Training\",\"Stims/Figures/128-J-10-3.bmp\",\"fafa:va\",\"Down\",\"40\",\"6\",\"15\",\"3A\",\"C1\",\"C\",\"95\"
\"\",\"\",\"approach-retreat\",\"99\",\"1242111\",\"0.0-99.0\",\"\",\"\",\"1-3\",\"4605\",\"39\",\"1\",\"Training\",\"Stims/Figures/84-J-0-2.bmp\",\"fafa:va\",\"Right\",\"39\",\"6\",\"16\",\"3A\",\"C1\",\"C\",\"96\"
\"\",\"\",\"approach-retreat\",\"100\",\"1247861\",\"0.0-100.0\",\"\",\"\",\"1-3\",\"4239\",\"38\",\"1\",\"Training\",\"Stims/Figures/27-J-0-1.bmp\",\"fafa:va\",\"Up\",\"38\",\"7\",\"1\",\"3A\",\"C1\",\"C\",\"97\"
\"\",\"\",\"approach-retreat\",\"101\",\"1253790\",\"0.0-101.0\",\"\",\"\",\"1-3\",\"4426\",\"39\",\"1\",\"Training\",\"Stims/Figures/44-J-10-3.bmp\",\"fafa:va\",\"Right\",\"39\",\"7\",\"2\",\"3A\",\"C1\",\"C\",\"98\"
\"\",\"\",\"approach-retreat\",\"102\",\"1259429\",\"0.0-102.0\",\"\",\"\",\"1-3\",\"4135\",\"40\",\"1\",\"Training\",\"Stims/Figures/93-C-30-1.bmp\",\"za:sa:za\",\"Up\",\"40\",\"7\",\"3\",\"3A\",\"C2\",\"C\",\"99\"
\"\",\"\",\"approach-retreat\",\"103\",\"1265510\",\"0.0-103.0\",\"\",\"\",\"1-3\",\"4560\",\"40\",\"1\",\"Training\",\"Stims/Figures/128-C-30-3.bmp\",\"za:sa:za\",\"Up\",\"40\",\"7\",\"4\",\"3A\",\"C2\",\"C\",\"100\"
\"\",\"\",\"approach-retreat\",\"104\",\"1271190\",\"0.0-104.0\",\"\",\"\",\"1-3\",\"4158\",\"37\",\"1\",\"Training\",\"Stims/Figures/19-C-20-4.bmp\",\"za:sa:za\",\"Right\",\"37\",\"7\",\"5\",\"3A\",\"C2\",\"C\",\"101\"
\"\",\"\",\"approach-retreat\",\"105\",\"1277010\",\"0.0-105.0\",\"\",\"\",\"1-3\",\"4303\",\"38\",\"1\",\"Training\",\"Stims/Figures/118-C-20-2.bmp\",\"za:sa:za\",\"Down\",\"38\",\"7\",\"6\",\"3A\",\"C2\",\"C\",\"102\"
\"\",\"\",\"approach-retreat\",\"106\",\"1282750\",\"0.0-106.0\",\"\",\"\",\"1-3\",\"4235\",\"40\",\"1\",\"Training\",\"Stims/Figures/118-J-0-2.bmp\",\"fafa:va\",\"Down\",\"40\",\"7\",\"7\",\"3A\",\"C1\",\"C\",\"103\"
\"\",\"\",\"approach-retreat\",\"107\",\"1288540\",\"0.0-107.0\",\"\",\"\",\"1-3\",\"4271\",\"39\",\"1\",\"Training\",\"Stims/Figures/27-C-30-1.bmp\",\"za:sa:za\",\"Left\",\"39\",\"7\",\"8\",\"3A\",\"C2\",\"C\",\"104\"
\"\",\"\",\"approach-retreat\",\"108\",\"1294210\",\"0.0-108.0\",\"\",\"\",\"1-3\",\"4162\",\"37\",\"1\",\"Training\",\"Stims/Figures/84-J-0-2.bmp\",\"fafa:va\",\"Left\",\"37\",\"7\",\"9\",\"3A\",\"C1\",\"C\",\"105\"
\"\",\"\",\"approach-retreat\",\"109\",\"1299870\",\"0.0-109.0\",\"\",\"\",\"1-3\",\"4147\",\"39\",\"1\",\"Training\",\"Stims/Figures/93-J-0-1.bmp\",\"fafa:va\",\"Right\",\"39\",\"7\",\"10\",\"3A\",\"C1\",\"C\",\"106\"
\"\",\"\",\"approach-retreat\",\"110\",\"1305500\",\"0.0-110.0\",\"\",\"\",\"1-3\",\"4120\",\"38\",\"1\",\"Training\",\"Stims/Figures/7-J-10-4.bmp\",\"fafa:va\",\"Up\",\"38\",\"7\",\"11\",\"3A\",\"C1\",\"C\",\"107\"
\"\",\"\",\"approach-retreat\",\"111\",\"1311240\",\"0.0-111.0\",\"\",\"\",\"1-3\",\"4224\",\"38\",\"1\",\"Training\",\"Stims/Figures/84-C-20-2.bmp\",\"za:sa:za\",\"Down\",\"38\",\"7\",\"12\",\"3A\",\"C2\",\"C\",\"108\"
\"\",\"\",\"approach-retreat\",\"112\",\"1316991\",\"0.0-112.0\",\"\",\"\",\"1-3\",\"4237\",\"37\",\"1\",\"Training\",\"Stims/Figures/128-J-10-3.bmp\",\"fafa:va\",\"Left\",\"37\",\"7\",\"13\",\"3A\",\"C1\",\"C\",\"109\"
\"\",\"\",\"approach-retreat\",\"113\",\"1322841\",\"0.0-113.0\",\"\",\"\",\"1-3\",\"4342\",\"39\",\"0\",\"Training\",\"Stims/Figures/7-C-20-4.bmp\",\"za:sa:za\",\"Right\",\"37\",\"7\",\"14\",\"3A\",\"C2\",\"C\",\"110\"
\"\",\"\",\"approach-retreat\",\"114\",\"1329640\",\"0.0-114.0\",\"\",\"\",\"1-3\",\"5279\",\"40\",\"0\",\"Training\",\"Stims/Figures/44-C-30-3.bmp\",\"za:sa:za\",\"Down\",\"38\",\"7\",\"15\",\"3A\",\"C2\",\"C\",\"111\"
\"\",\"\",\"approach-retreat\",\"115\",\"1335360\",\"0.0-115.0\",\"\",\"\",\"1-3\",\"4214\",\"37\",\"1\",\"Training\",\"Stims/Figures/19-J-10-4.bmp\",\"fafa:va\",\"Left\",\"37\",\"7\",\"16\",\"3A\",\"C1\",\"C\",\"112\"
\"\",\"\",\"approach-retreat\",\"116\",\"1341040\",\"0.0-116.0\",\"\",\"\",\"1-3\",\"4173\",\"39\",\"1\",\"Training\",\"Stims/Figures/19-J-10-4.bmp\",\"fafa:va\",\"Right\",\"39\",\"8\",\"1\",\"3A\",\"C1\",\"C\",\"113\"
\"\",\"\",\"approach-retreat\",\"117\",\"1346760\",\"0.0-117.0\",\"\",\"\",\"1-3\",\"4214\",\"38\",\"1\",\"Training\",\"Stims/Figures/27-C-30-1.bmp\",\"za:sa:za\",\"Down\",\"38\",\"8\",\"2\",\"3A\",\"C2\",\"C\",\"114\"
\"\",\"\",\"approach-retreat\",\"118\",\"1352480\",\"0.0-118.0\",\"\",\"\",\"1-3\",\"4214\",\"38\",\"1\",\"Training\",\"Stims/Figures/118-C-20-2.bmp\",\"za:sa:za\",\"Down\",\"38\",\"8\",\"3\",\"3A\",\"C2\",\"C\",\"115\"
\"\",\"\",\"approach-retreat\",\"119\",\"1358100\",\"0.0-119.0\",\"\",\"\",\"1-3\",\"4101\",\"37\",\"1\",\"Training\",\"Stims/Figures/93-J-0-1.bmp\",\"fafa:va\",\"Left\",\"37\",\"8\",\"4\",\"3A\",\"C1\",\"C\",\"116\"
\"\",\"\",\"approach-retreat\",\"120\",\"1363910\",\"0.0-120.0\",\"\",\"\",\"1-3\",\"4297\",\"40\",\"1\",\"Training\",\"Stims/Figures/93-C-30-1.bmp\",\"za:sa:za\",\"Up\",\"40\",\"8\",\"5\",\"3A\",\"C2\",\"C\",\"117\"
\"\",\"\",\"approach-retreat\",\"121\",\"1369500\",\"0.0-121.0\",\"\",\"\",\"1-3\",\"4086\",\"37\",\"1\",\"Training\",\"Stims/Figures/19-C-20-4.bmp\",\"za:sa:za\",\"Right\",\"37\",\"8\",\"6\",\"3A\",\"C2\",\"C\",\"118\"
\"\",\"\",\"approach-retreat\",\"122\",\"1375140\",\"0.0-122.0\",\"\",\"\",\"1-3\",\"4135\",\"40\",\"1\",\"Training\",\"Stims/Figures/7-C-20-4.bmp\",\"za:sa:za\",\"Up\",\"40\",\"8\",\"7\",\"3A\",\"C2\",\"C\",\"119\"
\"\",\"\",\"approach-retreat\",\"123\",\"1380800\",\"0.0-123.0\",\"\",\"\",\"1-3\",\"4152\",\"40\",\"1\",\"Training\",\"Stims/Figures/128-C-30-3.bmp\",\"za:sa:za\",\"Up\",\"40\",\"8\",\"8\",\"3A\",\"C2\",\"C\",\"120\"
\"\",\"\",\"approach-retreat\",\"124\",\"1386720\",\"0.0-124.0\",\"\",\"\",\"1-3\",\"4405\",\"39\",\"1\",\"Training\",\"Stims/Figures/118-J-0-2.bmp\",\"fafa:va\",\"Right\",\"39\",\"8\",\"9\",\"3A\",\"C1\",\"C\",\"121\"
\"\",\"\",\"approach-retreat\",\"125\",\"1392470\",\"0.0-125.0\",\"\",\"\",\"1-3\",\"4237\",\"38\",\"1\",\"Training\",\"Stims/Figures/128-J-10-3.bmp\",\"fafa:va\",\"Up\",\"38\",\"8\",\"10\",\"3A\",\"C1\",\"C\",\"122\"
\"\",\"\",\"approach-retreat\",\"126\",\"1398080\",\"0.0-126.0\",\"\",\"\",\"1-3\",\"4103\",\"40\",\"1\",\"Training\",\"Stims/Figures/84-J-0-2.bmp\",\"fafa:va\",\"Down\",\"40\",\"8\",\"11\",\"3A\",\"C1\",\"C\",\"123\"
\"\",\"\",\"approach-retreat\",\"127\",\"1403510\",\"0.0-127.0\",\"\",\"\",\"1-3\",\"3910\",\"37\",\"1\",\"Training\",\"Stims/Figures/7-J-10-4.bmp\",\"fafa:va\",\"Left\",\"37\",\"8\",\"12\",\"3A\",\"C1\",\"C\",\"124\"
\"\",\"\",\"approach-retreat\",\"128\",\"1409071\",\"0.0-128.0\",\"\",\"\",\"1-3\",\"4039\",\"37\",\"1\",\"Training\",\"Stims/Figures/44-J-10-3.bmp\",\"fafa:va\",\"Left\",\"37\",\"8\",\"13\",\"3A\",\"C1\",\"C\",\"125\"
\"\",\"\",\"approach-retreat\",\"129\",\"1414710\",\"0.0-129.0\",\"\",\"\",\"1-3\",\"4134\",\"37\",\"1\",\"Training\",\"Stims/Figures/44-C-30-3.bmp\",\"za:sa:za\",\"Right\",\"37\",\"8\",\"14\",\"3A\",\"C2\",\"C\",\"126\"
\"\",\"\",\"approach-retreat\",\"130\",\"1420740\",\"0.0-130.0\",\"\",\"\",\"1-3\",\"4520\",\"39\",\"1\",\"Training\",\"Stims/Figures/84-C-20-2.bmp\",\"za:sa:za\",\"Left\",\"39\",\"8\",\"15\",\"3A\",\"C2\",\"C\",\"127\"
\"\",\"\",\"approach-retreat\",\"131\",\"1426430\",\"0.0-131.0\",\"\",\"\",\"1-3\",\"4184\",\"40\",\"1\",\"Training\",\"Stims/Figures/27-J-0-1.bmp\",\"fafa:va\",\"Down\",\"40\",\"8\",\"16\",\"3A\",\"C1\",\"C\",\"128\"
\"\",\"\",\"approach-retreat\",\"132\",\"1431960\",\"0.0-132.0\",\"\",\"\",\"1-3\",\"4014\",\"40\",\"1\",\"Training\",\"Stims/Figures/44-C-30-3.bmp\",\"za:sa:za\",\"Up\",\"40\",\"9\",\"1\",\"3A\",\"C2\",\"C\",\"129\"
\"\",\"\",\"approach-retreat\",\"133\",\"1437500\",\"0.0-133.0\",\"\",\"\",\"1-3\",\"4037\",\"38\",\"1\",\"Training\",\"Stims/Figures/128-J-10-3.bmp\",\"fafa:va\",\"Up\",\"38\",\"9\",\"2\",\"3A\",\"C1\",\"C\",\"130\"
\"\",\"\",\"approach-retreat\",\"134\",\"1443260\",\"0.0-134.0\",\"\",\"\",\"1-3\",\"4240\",\"38\",\"1\",\"Training\",\"Stims/Figures/84-C-20-2.bmp\",\"za:sa:za\",\"Down\",\"38\",\"9\",\"3\",\"3A\",\"C2\",\"C\",\"131\"
\"\",\"\",\"approach-retreat\",\"135\",\"1448881\",\"0.0-135.0\",\"\",\"\",\"1-3\",\"4105\",\"37\",\"0\",\"Training\",\"Stims/Figures/118-C-20-2.bmp\",\"za:sa:za\",\"Left\",\"39\",\"9\",\"4\",\"3A\",\"C2\",\"C\",\"132\"
\"\",\"\",\"approach-retreat\",\"136\",\"1454390\",\"0.0-136.0\",\"\",\"\",\"1-3\",\"3997\",\"40\",\"1\",\"Training\",\"Stims/Figures/93-C-30-1.bmp\",\"za:sa:za\",\"Up\",\"40\",\"9\",\"5\",\"3A\",\"C2\",\"C\",\"133\"
\"\",\"\",\"approach-retreat\",\"137\",\"1459885\",\"0.0-137.0\",\"\",\"\",\"1-3\",\"3990\",\"37\",\"1\",\"Training\",\"Stims/Figures/118-J-0-2.bmp\",\"fafa:va\",\"Left\",\"37\",\"9\",\"6\",\"3A\",\"C1\",\"C\",\"134\"
\"\",\"\",\"approach-retreat\",\"138\",\"1465390\",\"0.0-138.0\",\"\",\"\",\"1-3\",\"3993\",\"40\",\"1\",\"Training\",\"Stims/Figures/27-J-0-1.bmp\",\"fafa:va\",\"Down\",\"40\",\"9\",\"7\",\"3A\",\"C1\",\"C\",\"135\"
\"\",\"\",\"approach-retreat\",\"139\",\"1471110\",\"0.0-139.0\",\"\",\"\",\"1-3\",\"4202\",\"39\",\"1\",\"Training\",\"Stims/Figures/44-J-10-3.bmp\",\"fafa:va\",\"Right\",\"39\",\"9\",\"8\",\"3A\",\"C1\",\"C\",\"136\"
\"\",\"\",\"approach-retreat\",\"140\",\"1476791\",\"0.0-140.0\",\"\",\"\",\"1-3\",\"4172\",\"39\",\"1\",\"Training\",\"Stims/Figures/84-J-0-2.bmp\",\"fafa:va\",\"Right\",\"39\",\"9\",\"9\",\"3A\",\"C1\",\"C\",\"137\"
\"\",\"\",\"approach-retreat\",\"141\",\"1482351\",\"0.0-141.0\",\"\",\"\",\"1-3\",\"4039\",\"37\",\"1\",\"Training\",\"Stims/Figures/19-J-10-4.bmp\",\"fafa:va\",\"Left\",\"37\",\"9\",\"10\",\"3A\",\"C1\",\"C\",\"138\"
\"\",\"\",\"approach-retreat\",\"142\",\"1487910\",\"0.0-142.0\",\"\",\"\",\"1-3\",\"4055\",\"40\",\"1\",\"Training\",\"Stims/Figures/27-C-30-1.bmp\",\"za:sa:za\",\"Up\",\"40\",\"9\",\"11\",\"3A\",\"C2\",\"C\",\"139\"
\"\",\"\",\"approach-retreat\",\"143\",\"1493814\",\"0.0-143.0\",\"\",\"\",\"1-3\",\"4383\",\"39\",\"0\",\"Training\",\"Stims/Figures/128-C-30-3.bmp\",\"za:sa:za\",\"Right\",\"37\",\"9\",\"12\",\"3A\",\"C2\",\"C\",\"140\"
\"\",\"\",\"approach-retreat\",\"144\",\"1500040\",\"0.0-144.0\",\"\",\"\",\"1-3\",\"4705\",\"38\",\"1\",\"Training\",\"Stims/Figures/7-C-20-4.bmp\",\"za:sa:za\",\"Down\",\"38\",\"9\",\"13\",\"3A\",\"C2\",\"C\",\"141\"
\"\",\"\",\"approach-retreat\",\"145\",\"1505661\",\"0.0-145.0\",\"\",\"\",\"1-3\",\"4101\",\"39\",\"1\",\"Training\",\"Stims/Figures/7-J-10-4.bmp\",\"fafa:va\",\"Right\",\"39\",\"9\",\"14\",\"3A\",\"C1\",\"C\",\"142\"
\"\",\"\",\"approach-retreat\",\"146\",\"1511151\",\"0.0-146.0\",\"\",\"\",\"1-3\",\"3969\",\"37\",\"1\",\"Training\",\"Stims/Figures/93-J-0-1.bmp\",\"fafa:va\",\"Left\",\"37\",\"9\",\"15\",\"3A\",\"C1\",\"C\",\"143\"
\"\",\"\",\"approach-retreat\",\"147\",\"1517030\",\"0.0-147.0\",\"\",\"\",\"1-3\",\"4375\",\"38\",\"1\",\"Training\",\"Stims/Figures/19-C-20-4.bmp\",\"za:sa:za\",\"Down\",\"38\",\"9\",\"16\",\"3A\",\"C2\",\"C\",\"144\"
\"27987\",\"\",\"instructions\",\"148\",\"1545017\",\"0.0-148.0\",\"[{\"\"page_index\"\":0,\"\"viewing_time\"\":27987}]\",\"\",\"\",\"\",\"\",\"\",\"\",\"\",\"\",\"\",\"\",\"\",\"\",\"\",\"\",\"\",\"\"
\"\",\"\",\"approach-retreat\",\"149\",\"1553261\",\"0.0-149.0\",\"\",\"\",\"1-3\",\"6739\",\"39\",\"1\",\"Testing\",\"Stims/Figures/19-C-20-4.bmp\",\"za:sa:za\",\"Left\",\"39\",\"1\",\"1\",\"3A\",\"C2\",\"C\",\"1\"
\"\",\"\",\"approach-retreat\",\"150\",\"1561129\",\"0.0-150.0\",\"\",\"\",\"1-3\",\"6352\",\"39\",\"1\",\"Testing\",\"Stims/Figures/74-C-20-4.bmp\",\"za:sa:za\",\"Left\",\"39\",\"1\",\"2\",\"3A\",\"C2\",\"C\",\"2\"
\"\",\"\",\"approach-retreat\",\"151\",\"1571630\",\"0.0-151.0\",\"\",\"\",\"1-3\",\"8996\",\"40\",\"1\",\"Testing\",\"Stims/Figures/118-J-0-2.bmp\",\"fafa:va\",\"Down\",\"40\",\"1\",\"3\",\"3A\",\"C1\",\"C\",\"3\"
\"\",\"\",\"approach-retreat\",\"152\",\"1581951\",\"0.0-152.0\",\"\",\"\",\"1-3\",\"8815\",\"39\",\"1\",\"Testing\",\"Stims/Figures/93-J-0-1.bmp\",\"fafa:va\",\"Right\",\"39\",\"1\",\"4\",\"3A\",\"C1\",\"C\",\"4\"
\"\",\"\",\"approach-retreat\",\"153\",\"1589181\",\"0.0-153.0\",\"\",\"\",\"1-3\",\"5711\",\"39\",\"0\",\"Testing\",\"Stims/Figures/111-J-10-3.bmp\",\"fafa:va\",\"Left\",\"37\",\"1\",\"5\",\"3A\",\"C1\",\"C\",\"5\"
\"\",\"\",\"approach-retreat\",\"154\",\"1595950\",\"0.0-154.0\",\"\",\"\",\"1-3\",\"5264\",\"38\",\"0\",\"Testing\",\"Stims/Figures/128-C-30-3.bmp\",\"za:sa:za\",\"Up\",\"40\",\"1\",\"6\",\"3A\",\"C2\",\"C\",\"6\"
\"\",\"\",\"approach-retreat\",\"155\",\"1613071\",\"0.0-155.0\",\"\",\"\",\"1-3\",\"15607\",\"39\",\"0\",\"Testing\",\"Stims/Figures/27-C-30-1.bmp\",\"za:sa:za\",\"Right\",\"37\",\"1\",\"7\",\"3A\",\"C2\",\"C\",\"7\"
\"\",\"\",\"approach-retreat\",\"156\",\"1620301\",\"0.0-156.0\",\"\",\"\",\"1-3\",\"5719\",\"37\",\"0\",\"Testing\",\"Stims/Figures/74-J-10-4.bmp\",\"fafa:va\",\"Right\",\"39\",\"1\",\"8\",\"3A\",\"C1\",\"C\",\"8\"
\"\",\"\",\"approach-retreat\",\"157\",\"1632861\",\"0.0-157.0\",\"\",\"\",\"1-3\",\"11042\",\"38\",\"0\",\"Testing\",\"Stims/Figures/57-C-30-1.bmp\",\"za:sa:za\",\"Up\",\"40\",\"1\",\"9\",\"3A\",\"C2\",\"C\",\"9\"
\"\",\"\",\"approach-retreat\",\"158\",\"1640951\",\"0.0-158.0\",\"\",\"\",\"1-3\",\"6577\",\"38\",\"0\",\"Testing\",\"Stims/Figures/139-J-0-2.bmp\",\"fafa:va\",\"Down\",\"40\",\"1\",\"10\",\"3A\",\"C1\",\"C\",\"10\"
\"\",\"\",\"approach-retreat\",\"159\",\"1649700\",\"0.0-159.0\",\"\",\"\",\"1-3\",\"7246\",\"37\",\"1\",\"Testing\",\"Stims/Figures/57-J-0-1.bmp\",\"fafa:va\",\"Left\",\"37\",\"1\",\"11\",\"3A\",\"C1\",\"C\",\"11\"
\"\",\"\",\"approach-retreat\",\"160\",\"1659319\",\"0.0-160.0\",\"\",\"\",\"1-3\",\"8113\",\"40\",\"0\",\"Testing\",\"Stims/Figures/7-C-20-4.bmp\",\"za:sa:za\",\"Down\",\"38\",\"1\",\"12\",\"3A\",\"C2\",\"C\",\"12\"
\"\",\"\",\"approach-retreat\",\"161\",\"1665711\",\"0.0-161.0\",\"\",\"\",\"1-3\",\"4877\",\"37\",\"1\",\"Testing\",\"Stims/Figures/84-C-20-2.bmp\",\"za:sa:za\",\"Right\",\"37\",\"1\",\"13\",\"3A\",\"C2\",\"C\",\"13\"
\"\",\"\",\"approach-retreat\",\"162\",\"1672230\",\"0.0-162.0\",\"\",\"\",\"1-3\",\"5000\",\"38\",\"0\",\"Testing\",\"Stims/Figures/84-J-0-2.bmp\",\"fafa:va\",\"Down\",\"40\",\"1\",\"14\",\"3A\",\"C1\",\"C\",\"14\"
\"\",\"\",\"approach-retreat\",\"163\",\"1679881\",\"0.0-163.0\",\"\",\"\",\"1-3\",\"6143\",\"38\",\"0\",\"Testing\",\"Stims/Figures/44-C-30-3.bmp\",\"za:sa:za\",\"Up\",\"40\",\"1\",\"15\",\"3A\",\"C2\",\"C\",\"15\"
\"\",\"\",\"approach-retreat\",\"164\",\"1688961\",\"0.0-164.0\",\"\",\"\",\"1-3\",\"7565\",\"38\",\"1\",\"Testing\",\"Stims/Figures/27-J-0-1.bmp\",\"fafa:va\",\"Up\",\"38\",\"1\",\"16\",\"3A\",\"C1\",\"C\",\"16\"
\"\",\"\",\"approach-retreat\",\"165\",\"1694871\",\"0.0-165.0\",\"\",\"\",\"1-3\",\"4396\",\"37\",\"1\",\"Testing\",\"Stims/Figures/139-C-20-2.bmp\",\"za:sa:za\",\"Right\",\"37\",\"1\",\"17\",\"3A\",\"C2\",\"C\",\"17\"
\"\",\"\",\"approach-retreat\",\"166\",\"1701381\",\"0.0-166.0\",\"\",\"\",\"1-3\",\"5008\",\"39\",\"1\",\"Testing\",\"Stims/Figures/44-J-10-3.bmp\",\"fafa:va\",\"Right\",\"39\",\"1\",\"18\",\"3A\",\"C1\",\"C\",\"18\"
\"\",\"\",\"approach-retreat\",\"167\",\"1708214\",\"0.0-167.0\",\"\",\"\",\"1-3\",\"5321\",\"40\",\"0\",\"Testing\",\"Stims/Figures/93-C-30-1.bmp\",\"za:sa:za\",\"Down\",\"38\",\"1\",\"19\",\"3A\",\"C2\",\"C\",\"19\"
\"\",\"\",\"approach-retreat\",\"168\",\"1715721\",\"0.0-168.0\",\"\",\"\",\"1-3\",\"5991\",\"37\",\"1\",\"Testing\",\"Stims/Figures/7-J-10-4.bmp\",\"fafa:va\",\"Left\",\"37\",\"1\",\"20\",\"3A\",\"C1\",\"C\",\"20\"
\"\",\"\",\"approach-retreat\",\"169\",\"1721722\",\"0.0-169.0\",\"\",\"\",\"1-3\",\"4484\",\"40\",\"1\",\"Testing\",\"Stims/Figures/118-C-20-2.bmp\",\"za:sa:za\",\"Up\",\"40\",\"1\",\"21\",\"3A\",\"C2\",\"C\",\"21\"
\"\",\"\",\"approach-retreat\",\"170\",\"1728000\",\"0.0-170.0\",\"\",\"\",\"1-3\",\"4765\",\"37\",\"1\",\"Testing\",\"Stims/Figures/19-J-10-4.bmp\",\"fafa:va\",\"Left\",\"37\",\"1\",\"22\",\"3A\",\"C1\",\"C\",\"22\"
\"\",\"\",\"approach-retreat\",\"171\",\"1738281\",\"0.0-171.0\",\"\",\"\",\"1-3\",\"8767\",\"40\",\"1\",\"Testing\",\"Stims/Figures/111-C-30-3.bmp\",\"za:sa:za\",\"Up\",\"40\",\"1\",\"23\",\"3A\",\"C2\",\"C\",\"23\"
\"\",\"\",\"approach-retreat\",\"172\",\"1744911\",\"0.0-172.0\",\"\",\"\",\"1-3\",\"5110\",\"40\",\"1\",\"Testing\",\"Stims/Figures/128-J-10-3.bmp\",\"fafa:va\",\"Down\",\"40\",\"1\",\"24\",\"3A\",\"C1\",\"C\",\"24\"
\"\",\"\",\"approach-retreat\",\"173\",\"1750902\",\"0.0-173.0\",\"\",\"\",\"1-3\",\"4486\",\"37\",\"0\",\"Testing\",\"Stims/Figures/93-C-30-1.bmp\",\"za:sa:za\",\"Left\",\"39\",\"2\",\"1\",\"3A\",\"C2\",\"C\",\"25\"
\"\",\"\",\"approach-retreat\",\"174\",\"1757420\",\"0.0-174.0\",\"\",\"\",\"1-3\",\"5008\",\"38\",\"1\",\"Testing\",\"Stims/Figures/118-C-20-2.bmp\",\"za:sa:za\",\"Down\",\"38\",\"2\",\"2\",\"3A\",\"C2\",\"C\",\"26\"
\"\",\"\",\"approach-retreat\",\"175\",\"1764931\",\"0.0-175.0\",\"\",\"\",\"1-3\",\"5995\",\"38\",\"0\",\"Testing\",\"Stims/Figures/27-C-30-1.bmp\",\"za:sa:za\",\"Up\",\"40\",\"2\",\"3\",\"3A\",\"C2\",\"C\",\"27\"
\"\",\"\",\"approach-retreat\",\"176\",\"1770991\",\"0.0-176.0\",\"\",\"\",\"1-3\",\"4539\",\"39\",\"0\",\"Testing\",\"Stims/Figures/118-J-0-2.bmp\",\"fafa:va\",\"Left\",\"37\",\"2\",\"4\",\"3A\",\"C1\",\"C\",\"28\"
\"\",\"\",\"approach-retreat\",\"177\",\"1777921\",\"0.0-177.0\",\"\",\"\",\"1-3\",\"5415\",\"40\",\"1\",\"Testing\",\"Stims/Figures/128-J-10-3.bmp\",\"fafa:va\",\"Down\",\"40\",\"2\",\"5\",\"3A\",\"C1\",\"C\",\"29\"
\"\",\"\",\"approach-retreat\",\"178\",\"1791172\",\"0.0-178.0\",\"\",\"\",\"1-3\",\"11741\",\"37\",\"1\",\"Testing\",\"Stims/Figures/27-J-0-1.bmp\",\"fafa:va\",\"Left\",\"37\",\"2\",\"6\",\"3A\",\"C1\",\"C\",\"30\"
\"\",\"\",\"approach-retreat\",\"179\",\"1798061\",\"0.0-179.0\",\"\",\"\",\"1-3\",\"5387\",\"38\",\"0\",\"Testing\",\"Stims/Figures/74-J-10-4.bmp\",\"fafa:va\",\"Down\",\"40\",\"2\",\"7\",\"3A\",\"C1\",\"C\",\"31\"
\"\",\"\",\"approach-retreat\",\"180\",\"1805261\",\"0.0-180.0\",\"\",\"\",\"1-3\",\"5697\",\"37\",\"0\",\"Testing\",\"Stims/Figures/57-C-30-1.bmp\",\"za:sa:za\",\"Left\",\"39\",\"2\",\"8\",\"3A\",\"C2\",\"C\",\"32\"
\"\",\"\",\"approach-retreat\",\"181\",\"1813305\",\"0.0-181.0\",\"\",\"\",\"1-3\",\"6537\",\"38\",\"1\",\"Testing\",\"Stims/Figures/44-J-10-3.bmp\",\"fafa:va\",\"Up\",\"38\",\"2\",\"9\",\"3A\",\"C1\",\"C\",\"33\"
\"\",\"\",\"approach-retreat\",\"182\",\"1821141\",\"0.0-182.0\",\"\",\"\",\"1-3\",\"6325\",\"40\",\"1\",\"Testing\",\"Stims/Figures/84-C-20-2.bmp\",\"za:sa:za\",\"Up\",\"40\",\"2\",\"10\",\"3A\",\"C2\",\"C\",\"34\"
\"\",\"\",\"approach-retreat\",\"183\",\"1827811\",\"0.0-183.0\",\"\",\"\",\"1-3\",\"5152\",\"37\",\"1\",\"Testing\",\"Stims/Figures/111-C-30-3.bmp\",\"za:sa:za\",\"Right\",\"37\",\"2\",\"11\",\"3A\",\"C2\",\"C\",\"35\"
\"\",\"\",\"approach-retreat\",\"184\",\"1835261\",\"0.0-184.0\",\"\",\"\",\"1-3\",\"5939\",\"40\",\"1\",\"Testing\",\"Stims/Figures/7-J-10-4.bmp\",\"fafa:va\",\"Down\",\"40\",\"2\",\"12\",\"3A\",\"C1\",\"C\",\"36\"
\"\",\"\",\"approach-retreat\",\"185\",\"1841701\",\"0.0-185.0\",\"\",\"\",\"1-3\",\"4937\",\"37\",\"1\",\"Testing\",\"Stims/Figures/74-C-20-4.bmp\",\"za:sa:za\",\"Right\",\"37\",\"2\",\"13\",\"3A\",\"C2\",\"C\",\"37\"
\"\",\"\",\"approach-retreat\",\"186\",\"1849631\",\"0.0-186.0\",\"\",\"\",\"1-3\",\"6424\",\"39\",\"0\",\"Testing\",\"Stims/Figures/19-C-20-4.bmp\",\"za:sa:za\",\"Right\",\"37\",\"2\",\"14\",\"3A\",\"C2\",\"C\",\"38\"
\"\",\"\",\"approach-retreat\",\"187\",\"1858631\",\"0.0-187.0\",\"\",\"\",\"1-3\",\"7496\",\"37\",\"0\",\"Testing\",\"Stims/Figures/111-J-10-3.bmp\",\"fafa:va\",\"Right\",\"39\",\"2\",\"15\",\"3A\",\"C1\",\"C\",\"39\"
\"\",\"\",\"approach-retreat\",\"188\",\"1864951\",\"0.0-188.0\",\"\",\"\",\"1-3\",\"4816\",\"38\",\"1\",\"Testing\",\"Stims/Figures/19-J-10-4.bmp\",\"fafa:va\",\"Up\",\"38\",\"2\",\"16\",\"3A\",\"C1\",\"C\",\"40\"
\"\",\"\",\"approach-retreat\",\"189\",\"1872921\",\"0.0-189.0\",\"\",\"\",\"1-3\",\"6463\",\"38\",\"0\",\"Testing\",\"Stims/Figures/7-C-20-4.bmp\",\"za:sa:za\",\"Up\",\"40\",\"2\",\"17\",\"3A\",\"C2\",\"C\",\"41\"
\"\",\"\",\"approach-retreat\",\"190\",\"1879671\",\"0.0-190.0\",\"\",\"\",\"1-3\",\"5238\",\"40\",\"0\",\"Testing\",\"Stims/Figures/44-C-30-3.bmp\",\"za:sa:za\",\"Down\",\"38\",\"2\",\"18\",\"3A\",\"C2\",\"C\",\"42\"
\"\",\"\",\"approach-retreat\",\"191\",\"1886721\",\"0.0-191.0\",\"\",\"\",\"1-3\",\"5536\",\"39\",\"1\",\"Testing\",\"Stims/Figures/139-C-20-2.bmp\",\"za:sa:za\",\"Left\",\"39\",\"2\",\"19\",\"3A\",\"C2\",\"C\",\"43\"
\"\",\"\",\"approach-retreat\",\"192\",\"1895311\",\"0.0-192.0\",\"\",\"\",\"1-3\",\"7070\",\"40\",\"1\",\"Testing\",\"Stims/Figures/93-J-0-1.bmp\",\"fafa:va\",\"Down\",\"40\",\"2\",\"20\",\"3A\",\"C1\",\"C\",\"44\"
\"\",\"\",\"approach-retreat\",\"193\",\"1906171\",\"0.0-193.0\",\"\",\"\",\"1-3\",\"9344\",\"37\",\"1\",\"Testing\",\"Stims/Figures/57-J-0-1.bmp\",\"fafa:va\",\"Left\",\"37\",\"2\",\"21\",\"3A\",\"C1\",\"C\",\"45\"
\"\",\"\",\"approach-retreat\",\"194\",\"1913681\",\"0.0-194.0\",\"\",\"\",\"1-3\",\"6003\",\"40\",\"1\",\"Testing\",\"Stims/Figures/128-C-30-3.bmp\",\"za:sa:za\",\"Up\",\"40\",\"2\",\"22\",\"3A\",\"C2\",\"C\",\"46\"
\"\",\"\",\"approach-retreat\",\"195\",\"1919891\",\"0.0-195.0\",\"\",\"\",\"1-3\",\"4701\",\"37\",\"0\",\"Testing\",\"Stims/Figures/139-J-0-2.bmp\",\"fafa:va\",\"Right\",\"39\",\"2\",\"23\",\"3A\",\"C1\",\"C\",\"47\"
\"\",\"\",\"approach-retreat\",\"196\",\"1926941\",\"0.0-196.0\",\"\",\"\",\"1-3\",\"5540\",\"39\",\"1\",\"Testing\",\"Stims/Figures/84-J-0-2.bmp\",\"fafa:va\",\"Right\",\"39\",\"2\",\"24\",\"3A\",\"C1\",\"C\",\"48\"
\"\",\"\",\"approach-retreat\",\"197\",\"1933621\",\"0.0-197.0\",\"\",\"\",\"1-3\",\"5169\",\"37\",\"1\",\"Testing\",\"Stims/Figures/44-J-10-3.bmp\",\"fafa:va\",\"Left\",\"37\",\"3\",\"1\",\"3A\",\"C1\",\"C\",\"49\"
\"\",\"\",\"approach-retreat\",\"198\",\"1939394\",\"0.0-198.0\",\"\",\"\",\"1-3\",\"4257\",\"40\",\"1\",\"Testing\",\"Stims/Figures/74-C-20-4.bmp\",\"za:sa:za\",\"Up\",\"40\",\"3\",\"2\",\"3A\",\"C2\",\"C\",\"50\"
\"\",\"\",\"approach-retreat\",\"199\",\"1945632\",\"0.0-199.0\",\"\",\"\",\"1-3\",\"4732\",\"39\",\"0\",\"Testing\",\"Stims/Figures/74-J-10-4.bmp\",\"fafa:va\",\"Left\",\"37\",\"3\",\"3\",\"3A\",\"C1\",\"C\",\"51\"
\"\",\"\",\"approach-retreat\",\"200\",\"1951921\",\"0.0-200.0\",\"\",\"\",\"1-3\",\"4784\",\"39\",\"0\",\"Testing\",\"Stims/Figures/7-C-20-4.bmp\",\"za:sa:za\",\"Right\",\"37\",\"3\",\"4\",\"3A\",\"C2\",\"C\",\"52\"
\"\",\"\",\"approach-retreat\",\"201\",\"1958451\",\"0.0-201.0\",\"\",\"\",\"1-3\",\"5021\",\"40\",\"0\",\"Testing\",\"Stims/Figures/84-C-20-2.bmp\",\"za:sa:za\",\"Down\",\"38\",\"3\",\"5\",\"3A\",\"C2\",\"C\",\"53\"
\"\",\"\",\"approach-retreat\",\"202\",\"1965362\",\"0.0-202.0\",\"\",\"\",\"1-3\",\"5396\",\"38\",\"1\",\"Testing\",\"Stims/Figures/93-J-0-1.bmp\",\"fafa:va\",\"Up\",\"38\",\"3\",\"6\",\"3A\",\"C1\",\"C\",\"54\"
\"\",\"\",\"approach-retreat\",\"203\",\"1971611\",\"0.0-203.0\",\"\",\"\",\"1-3\",\"4734\",\"39\",\"0\",\"Testing\",\"Stims/Figures/44-C-30-3.bmp\",\"za:sa:za\",\"Right\",\"37\",\"3\",\"7\",\"3A\",\"C2\",\"C\",\"55\"
\"\",\"\",\"approach-retreat\",\"204\",\"1978391\",\"0.0-204.0\",\"\",\"\",\"1-3\",\"5275\",\"38\",\"0\",\"Testing\",\"Stims/Figures/27-J-0-1.bmp\",\"fafa:va\",\"Down\",\"40\",\"3\",\"8\",\"3A\",\"C1\",\"C\",\"56\"
\"\",\"\",\"approach-retreat\",\"205\",\"1984133\",\"0.0-205.0\",\"\",\"\",\"1-3\",\"4239\",\"40\",\"1\",\"Testing\",\"Stims/Figures/57-C-30-1.bmp\",\"za:sa:za\",\"Up\",\"40\",\"3\",\"9\",\"3A\",\"C2\",\"C\",\"57\"
\"\",\"\",\"approach-retreat\",\"206\",\"1990442\",\"0.0-206.0\",\"\",\"\",\"1-3\",\"4801\",\"38\",\"1\",\"Testing\",\"Stims/Figures/111-J-10-3.bmp\",\"fafa:va\",\"Up\",\"38\",\"3\",\"10\",\"3A\",\"C1\",\"C\",\"58\"
\"\",\"\",\"approach-retreat\",\"207\",\"1996691\",\"0.0-207.0\",\"\",\"\",\"1-3\",\"4740\",\"39\",\"1\",\"Testing\",\"Stims/Figures/19-J-10-4.bmp\",\"fafa:va\",\"Right\",\"39\",\"3\",\"11\",\"3A\",\"C1\",\"C\",\"59\"
\"\",\"\",\"approach-retreat\",\"208\",\"2002511\",\"0.0-208.0\",\"\",\"\",\"1-3\",\"4307\",\"37\",\"1\",\"Testing\",\"Stims/Figures/118-C-20-2.bmp\",\"za:sa:za\",\"Right\",\"37\",\"3\",\"12\",\"3A\",\"C2\",\"C\",\"60\"
\"\",\"\",\"approach-retreat\",\"209\",\"2008111\",\"0.0-209.0\",\"\",\"\",\"1-3\",\"4079\",\"39\",\"1\",\"Testing\",\"Stims/Figures/27-C-30-1.bmp\",\"za:sa:za\",\"Left\",\"39\",\"3\",\"13\",\"3A\",\"C2\",\"C\",\"61\"
\"\",\"\",\"approach-retreat\",\"210\",\"2013971\",\"0.0-210.0\",\"\",\"\",\"1-3\",\"4344\",\"40\",\"0\",\"Testing\",\"Stims/Figures/118-J-0-2.bmp\",\"fafa:va\",\"Up\",\"38\",\"3\",\"14\",\"3A\",\"C1\",\"C\",\"62\"
\"\",\"\",\"approach-retreat\",\"211\",\"2019852\",\"0.0-211.0\",\"\",\"\",\"1-3\",\"4362\",\"37\",\"1\",\"Testing\",\"Stims/Figures/84-J-0-2.bmp\",\"fafa:va\",\"Left\",\"37\",\"3\",\"15\",\"3A\",\"C1\",\"C\",\"63\"
\"\",\"\",\"approach-retreat\",\"212\",\"2026012\",\"0.0-212.0\",\"\",\"\",\"1-3\",\"4652\",\"39\",\"0\",\"Testing\",\"Stims/Figures/93-C-30-1.bmp\",\"za:sa:za\",\"Right\",\"37\",\"3\",\"16\",\"3A\",\"C2\",\"C\",\"64\"
\"\",\"\",\"approach-retreat\",\"213\",\"2037962\",\"0.0-213.0\",\"\",\"\",\"1-3\",\"10444\",\"40\",\"1\",\"Testing\",\"Stims/Figures/57-J-0-1.bmp\",\"fafa:va\",\"Down\",\"40\",\"3\",\"17\",\"3A\",\"C1\",\"C\",\"65\"
\"\",\"\",\"approach-retreat\",\"214\",\"2043881\",\"0.0-214.0\",\"\",\"\",\"1-3\",\"4406\",\"38\",\"0\",\"Testing\",\"Stims/Figures/139-J-0-2.bmp\",\"fafa:va\",\"Down\",\"40\",\"3\",\"18\",\"3A\",\"C1\",\"C\",\"66\"
\"\",\"\",\"approach-retreat\",\"215\",\"2049940\",\"0.0-215.0\",\"\",\"\",\"1-3\",\"4549\",\"40\",\"1\",\"Testing\",\"Stims/Figures/7-J-10-4.bmp\",\"fafa:va\",\"Down\",\"40\",\"3\",\"19\",\"3A\",\"C1\",\"C\",\"67\"
\"\",\"\",\"approach-retreat\",\"216\",\"2055873\",\"0.0-216.0\",\"\",\"\",\"1-3\",\"4418\",\"39\",\"0\",\"Testing\",\"Stims/Figures/19-C-20-4.bmp\",\"za:sa:za\",\"Right\",\"37\",\"3\",\"20\",\"3A\",\"C2\",\"C\",\"68\"
\"\",\"\",\"approach-retreat\",\"217\",\"2068681\",\"0.0-217.0\",\"\",\"\",\"1-3\",\"11294\",\"40\",\"0\",\"Testing\",\"Stims/Figures/128-C-30-3.bmp\",\"za:sa:za\",\"Down\",\"38\",\"3\",\"21\",\"3A\",\"C2\",\"C\",\"69\"
\"\",\"\",\"approach-retreat\",\"218\",\"2075121\",\"0.0-218.0\",\"\",\"\",\"1-3\",\"4925\",\"37\",\"1\",\"Testing\",\"Stims/Figures/128-J-10-3.bmp\",\"fafa:va\",\"Left\",\"37\",\"3\",\"22\",\"3A\",\"C1\",\"C\",\"70\"
\"\",\"\",\"approach-retreat\",\"219\",\"2081332\",\"0.0-219.0\",\"\",\"\",\"1-3\",\"4700\",\"37\",\"0\",\"Testing\",\"Stims/Figures/111-C-30-3.bmp\",\"za:sa:za\",\"Left\",\"39\",\"3\",\"23\",\"3A\",\"C2\",\"C\",\"71\"
\"\",\"\",\"approach-retreat\",\"220\",\"2087212\",\"0.0-220.0\",\"\",\"\",\"1-3\",\"4363\",\"40\",\"1\",\"Testing\",\"Stims/Figures/139-C-20-2.bmp\",\"za:sa:za\",\"Up\",\"40\",\"3\",\"24\",\"3A\",\"C2\",\"C\",\"72\"
\"\",\"\",\"approach-retreat\",\"221\",\"2092923\",\"0.0-221.0\",\"\",\"\",\"1-3\",\"4203\",\"37\",\"0\",\"Testing\",\"Stims/Figures/118-J-0-2.bmp\",\"fafa:va\",\"Right\",\"39\",\"4\",\"1\",\"3A\",\"C1\",\"C\",\"73\"
\"\",\"\",\"approach-retreat\",\"222\",\"2098629\",\"0.0-222.0\",\"\",\"\",\"1-3\",\"4188\",\"37\",\"0\",\"Testing\",\"Stims/Figures/74-J-10-4.bmp\",\"fafa:va\",\"Right\",\"39\",\"4\",\"2\",\"3A\",\"C1\",\"C\",\"74\"
\"\",\"\",\"approach-retreat\",\"223\",\"2104421\",\"0.0-223.0\",\"\",\"\",\"1-3\",\"4273\",\"39\",\"1\",\"Testing\",\"Stims/Figures/118-C-20-2.bmp\",\"za:sa:za\",\"Left\",\"39\",\"4\",\"3\",\"3A\",\"C2\",\"C\",\"75\"
\"\",\"\",\"approach-retreat\",\"224\",\"2110122\",\"0.0-224.0\",\"\",\"\",\"1-3\",\"4193\",\"37\",\"1\",\"Testing\",\"Stims/Figures/44-J-10-3.bmp\",\"fafa:va\",\"Left\",\"37\",\"4\",\"4\",\"3A\",\"C1\",\"C\",\"76\"
\"\",\"\",\"approach-retreat\",\"225\",\"2116062\",\"0.0-225.0\",\"\",\"\",\"1-3\",\"4437\",\"37\",\"1\",\"Testing\",\"Stims/Figures/27-J-0-1.bmp\",\"fafa:va\",\"Left\",\"37\",\"4\",\"5\",\"3A\",\"C1\",\"C\",\"77\"
\"\",\"\",\"approach-retreat\",\"226\",\"2122381\",\"0.0-226.0\",\"\",\"\",\"1-3\",\"4817\",\"40\",\"0\",\"Testing\",\"Stims/Figures/111-J-10-3.bmp\",\"fafa:va\",\"Up\",\"38\",\"4\",\"6\",\"3A\",\"C1\",\"C\",\"78\"
\"\",\"\",\"approach-retreat\",\"227\",\"2129292\",\"0.0-227.0\",\"\",\"\",\"1-3\",\"5394\",\"40\",\"0\",\"Testing\",\"Stims/Figures/128-C-30-3.bmp\",\"za:sa:za\",\"Down\",\"38\",\"4\",\"7\",\"3A\",\"C2\",\"C\",\"79\"
\"\",\"\",\"approach-retreat\",\"228\",\"2135442\",\"0.0-228.0\",\"\",\"\",\"1-3\",\"4635\",\"40\",\"1\",\"Testing\",\"Stims/Figures/19-J-10-4.bmp\",\"fafa:va\",\"Down\",\"40\",\"4\",\"8\",\"3A\",\"C1\",\"C\",\"80\"
\"\",\"\",\"approach-retreat\",\"229\",\"2143451\",\"0.0-229.0\",\"\",\"\",\"1-3\",\"6493\",\"39\",\"0\",\"Testing\",\"Stims/Figures/111-C-30-3.bmp\",\"za:sa:za\",\"Right\",\"37\",\"4\",\"9\",\"3A\",\"C2\",\"C\",\"81\"
\"\",\"\",\"approach-retreat\",\"230\",\"2150872\",\"0.0-230.0\",\"\",\"\",\"1-3\",\"5908\",\"37\",\"1\",\"Testing\",\"Stims/Figures/74-C-20-4.bmp\",\"za:sa:za\",\"Right\",\"37\",\"4\",\"10\",\"3A\",\"C2\",\"C\",\"82\"
\"\",\"\",\"approach-retreat\",\"231\",\"2158102\",\"0.0-231.0\",\"\",\"\",\"1-3\",\"5719\",\"38\",\"0\",\"Testing\",\"Stims/Figures/57-J-0-1.bmp\",\"fafa:va\",\"Down\",\"40\",\"4\",\"11\",\"3A\",\"C1\",\"C\",\"83\"
\"\",\"\",\"approach-retreat\",\"232\",\"2167241\",\"0.0-232.0\",\"\",\"\",\"1-3\",\"7634\",\"37\",\"1\",\"Testing\",\"Stims/Figures/7-J-10-4.bmp\",\"fafa:va\",\"Left\",\"37\",\"4\",\"12\",\"3A\",\"C1\",\"C\",\"84\"
\"\",\"\",\"approach-retreat\",\"233\",\"2173862\",\"0.0-233.0\",\"\",\"\",\"1-3\",\"5117\",\"38\",\"1\",\"Testing\",\"Stims/Figures/93-J-0-1.bmp\",\"fafa:va\",\"Up\",\"38\",\"4\",\"13\",\"3A\",\"C1\",\"C\",\"85\"
\"\",\"\",\"approach-retreat\",\"234\",\"2184882\",\"0.0-234.0\",\"\",\"\",\"1-3\",\"9505\",\"40\",\"0\",\"Testing\",\"Stims/Figures/139-J-0-2.bmp\",\"fafa:va\",\"Up\",\"38\",\"4\",\"14\",\"3A\",\"C1\",\"C\",\"86\"
\"\",\"\",\"approach-retreat\",\"235\",\"2190701\",\"0.0-235.0\",\"\",\"\",\"1-3\",\"4300\",\"37\",\"0\",\"Testing\",\"Stims/Figures/7-C-20-4.bmp\",\"za:sa:za\",\"Left\",\"39\",\"4\",\"15\",\"3A\",\"C2\",\"C\",\"87\"
\"\",\"\",\"approach-retreat\",\"236\",\"2198431\",\"0.0-236.0\",\"\",\"\",\"1-3\",\"6217\",\"39\",\"0\",\"Testing\",\"Stims/Figures/44-C-30-3.bmp\",\"za:sa:za\",\"Right\",\"37\",\"4\",\"16\",\"3A\",\"C2\",\"C\",\"88\"
\"\",\"\",\"approach-retreat\",\"237\",\"2204302\",\"0.0-237.0\",\"\",\"\",\"1-3\",\"4359\",\"40\",\"1\",\"Testing\",\"Stims/Figures/139-C-20-2.bmp\",\"za:sa:za\",\"Up\",\"40\",\"4\",\"17\",\"3A\",\"C2\",\"C\",\"89\"
\"\",\"\",\"approach-retreat\",\"238\",\"2212772\",\"0.0-238.0\",\"\",\"\",\"1-3\",\"6954\",\"37\",\"1\",\"Testing\",\"Stims/Figures/84-J-0-2.bmp\",\"fafa:va\",\"Left\",\"37\",\"4\",\"18\",\"3A\",\"C1\",\"C\",\"90\"
\"\",\"\",\"approach-retreat\",\"239\",\"2220662\",\"0.0-239.0\",\"\",\"\",\"1-3\",\"6371\",\"38\",\"0\",\"Testing\",\"Stims/Figures/84-C-20-2.bmp\",\"za:sa:za\",\"Up\",\"40\",\"4\",\"19\",\"3A\",\"C2\",\"C\",\"91\"
\"\",\"\",\"approach-retreat\",\"240\",\"2229830\",\"0.0-240.0\",\"\",\"\",\"1-3\",\"7659\",\"38\",\"1\",\"Testing\",\"Stims/Figures/57-C-30-1.bmp\",\"za:sa:za\",\"Down\",\"38\",\"4\",\"20\",\"3A\",\"C2\",\"C\",\"92\"
\"\",\"\",\"approach-retreat\",\"241\",\"2237261\",\"0.0-241.0\",\"\",\"\",\"1-3\",\"5913\",\"40\",\"0\",\"Testing\",\"Stims/Figures/27-C-30-1.bmp\",\"za:sa:za\",\"Down\",\"38\",\"4\",\"21\",\"3A\",\"C2\",\"C\",\"93\"
\"\",\"\",\"approach-retreat\",\"242\",\"2243301\",\"0.0-242.0\",\"\",\"\",\"1-3\",\"4539\",\"37\",\"0\",\"Testing\",\"Stims/Figures/128-J-10-3.bmp\",\"fafa:va\",\"Right\",\"39\",\"4\",\"22\",\"3A\",\"C1\",\"C\",\"94\"
\"\",\"\",\"approach-retreat\",\"243\",\"2249611\",\"0.0-243.0\",\"\",\"\",\"1-3\",\"4801\",\"38\",\"0\",\"Testing\",\"Stims/Figures/93-C-30-1.bmp\",\"za:sa:za\",\"Up\",\"40\",\"4\",\"23\",\"3A\",\"C2\",\"C\",\"95\"
\"\",\"\",\"approach-retreat\",\"244\",\"2258422\",\"0.0-244.0\",\"\",\"\",\"1-3\",\"7292\",\"40\",\"0\",\"Testing\",\"Stims/Figures/19-C-20-4.bmp\",\"za:sa:za\",\"Down\",\"38\",\"4\",\"24\",\"3A\",\"C2\",\"C\",\"96\"
\"156355\",\"\",\"survey-text\",\"245\",\"2414781\",\"0.0-245.0\",\"\",\"{\"\"Q0\"\":\"\"PS110052\"\"}\",\"\",\"\",\"\",\"\",\"\",\"\",\"\",\"\",\"\",\"\",\"\",\"\",\"\",\"\",\"\"
