\"rt\",\"key_press\",\"trial_type\",\"trial_index\",\"time_elapsed\",\"internal_node_id\",\"view_history\",\"responses\",\"Id\",\"Rt\",\"ResKeyCode\",\"ResCorr\",\"TrialType2\",\"Image\",\"Label\",\"Location\",\"CorrectResponse\",\"Block\",\"BlockTrial\",\"Condition\",\"LabelType\",\"Subcondition\",\"trialNum\"
\"42099\",\"32\",\"text\",\"0\",\"42105\",\"0.0-0.0-0.0\",\"\",\"\",\"\",\"\",\"\",\"\",\"\",\"\",\"\",\"\",\"\",\"\",\"\",\"\",\"\",\"\",\"\"
\"135657\",\"\",\"instructions\",\"1\",\"177767\",\"0.0-1.0\",\"[{\"\"page_index\"\":0,\"\"viewing_time\"\":135656}]\",\"\",\"\",\"\",\"\",\"\",\"\",\"\",\"\",\"\",\"\",\"\",\"\",\"\",\"\",\"\",\"\"
\"25159\",\"\",\"survey-multi-choice\",\"2\",\"202959\",\"0.0-2.0\",\"\",\"{\"\"Q0\"\":\"\"Da\"\",\"\"Q1\"\":\"\"Da\"\",\"\"Q2\"\":\"\"Da\"\",\"\"Q3\"\":\"\"Da\"\",\"\"Q4\"\":\"\"Da\"\",\"\"Q5\"\":\"\"Da\"\"}\",\"\",\"\",\"\",\"\",\"\",\"\",\"\",\"\",\"\",\"\",\"\",\"\",\"\",\"\",\"\"
\"\",\"\",\"bio\",\"3\",\"215116\",\"0.0-3.0\",\"\",\"{\"\"age\"\":\"\"20\"\",\"\"gender\"\":\"\"m\"\",\"\"specify\"\":\"\"\"\"}\",\"\",\"\",\"\",\"\",\"\",\"\",\"\",\"\",\"\",\"\",\"\",\"\",\"\",\"\",\"\"
\"\",\"\",\"approach-retreat\",\"4\",\"222544\",\"0.0-4.0\",\"\",\"\",\"3-2\",\"5921\",\"37\",\"0\",\"Training\",\"Stims/Figures/93-J-0-1.bmp\",\"fa:shasha\",\"Left\",\"39\",\"1\",\"1\",\"8\",\"C1\",\"J\",\"1\"
\"\",\"\",\"approach-retreat\",\"5\",\"229178\",\"0.0-5.0\",\"\",\"\",\"3-2\",\"5122\",\"37\",\"1\",\"Training\",\"Stims/Figures/71-J-0-1.bmp\",\"va:shasha\",\"Right\",\"37\",\"1\",\"2\",\"8\",\"C1\",\"J\",\"2\"
\"\",\"\",\"approach-retreat\",\"6\",\"235599\",\"0.0-6.0\",\"\",\"\",\"3-2\",\"4912\",\"40\",\"1\",\"Training\",\"Stims/Figures/7-J-10-4.bmp\",\"za:ha:ha\",\"Up\",\"40\",\"1\",\"3\",\"8\",\"C2\",\"J\",\"3\"
\"\",\"\",\"approach-retreat\",\"7\",\"241642\",\"0.0-7.0\",\"\",\"\",\"3-2\",\"4536\",\"39\",\"0\",\"Training\",\"Stims/Figures/102-C-20-4.bmp\",\"za:saza\",\"Left\",\"37\",\"1\",\"4\",\"8\",\"C2\",\"J\",\"4\"
\"\",\"\",\"approach-retreat\",\"8\",\"247615\",\"0.0-8.0\",\"\",\"\",\"3-2\",\"4464\",\"38\",\"1\",\"Training\",\"Stims/Figures/100-C-30-3.bmp\",\"saha:ha\",\"Up\",\"38\",\"1\",\"5\",\"8\",\"C2\",\"J\",\"5\"
\"\",\"\",\"approach-retreat\",\"9\",\"253375\",\"0.0-9.0\",\"\",\"\",\"3-2\",\"4255\",\"38\",\"1\",\"Training\",\"Stims/Figures/71-C-30-1.bmp\",\"fasha:sha\",\"Up\",\"38\",\"1\",\"6\",\"8\",\"C1\",\"J\",\"6\"
\"\",\"\",\"approach-retreat\",\"10\",\"259762\",\"0.0-10.0\",\"\",\"\",\"3-2\",\"4876\",\"38\",\"1\",\"Training\",\"Stims/Figures/102-J-10-4.bmp\",\"sa:saza\",\"Down\",\"38\",\"1\",\"7\",\"8\",\"C2\",\"J\",\"7\"
\"\",\"\",\"approach-retreat\",\"11\",\"265695\",\"0.0-11.0\",\"\",\"\",\"3-2\",\"4423\",\"38\",\"1\",\"Training\",\"Stims/Figures/100-J-10-3.bmp\",\"sahaha\",\"Down\",\"38\",\"1\",\"8\",\"8\",\"C2\",\"J\",\"8\"
\"\",\"\",\"approach-retreat\",\"12\",\"271727\",\"0.0-12.0\",\"\",\"\",\"3-2\",\"4524\",\"38\",\"0\",\"Training\",\"Stims/Figures/85-C-20-2.bmp\",\"va:sha:sha\",\"Down\",\"40\",\"1\",\"9\",\"8\",\"C1\",\"J\",\"9\"
\"\",\"\",\"approach-retreat\",\"13\",\"277507\",\"0.0-13.0\",\"\",\"\",\"3-2\",\"4269\",\"37\",\"0\",\"Training\",\"Stims/Figures/7-C-20-4.bmp\",\"sa:sa:za\",\"Right\",\"39\",\"1\",\"10\",\"8\",\"C2\",\"J\",\"10\"
\"\",\"\",\"approach-retreat\",\"14\",\"283743\",\"0.0-14.0\",\"\",\"\",\"3-2\",\"4727\",\"40\",\"0\",\"Training\",\"Stims/Figures/118-J-0-2.bmp\",\"fa:fa:sha\",\"Down\",\"38\",\"1\",\"11\",\"8\",\"C1\",\"J\",\"11\"
\"\",\"\",\"approach-retreat\",\"15\",\"290331\",\"0.0-15.0\",\"\",\"\",\"3-2\",\"5081\",\"37\",\"0\",\"Training\",\"Stims/Figures/128-C-30-3.bmp\",\"za:ha:za\",\"Right\",\"39\",\"1\",\"12\",\"8\",\"C2\",\"J\",\"12\"
\"\",\"\",\"approach-retreat\",\"16\",\"296662\",\"0.0-16.0\",\"\",\"\",\"3-2\",\"4823\",\"38\",\"0\",\"Training\",\"Stims/Figures/85-J-0-2.bmp\",\"fashava\",\"Up\",\"40\",\"1\",\"13\",\"8\",\"C1\",\"J\",\"13\"
\"\",\"\",\"approach-retreat\",\"17\",\"302996\",\"0.0-17.0\",\"\",\"\",\"3-2\",\"4824\",\"39\",\"0\",\"Training\",\"Stims/Figures/128-J-10-3.bmp\",\"sa:saha\",\"Right\",\"37\",\"1\",\"14\",\"8\",\"C2\",\"J\",\"14\"
\"\",\"\",\"approach-retreat\",\"18\",\"310126\",\"0.0-18.0\",\"\",\"\",\"3-2\",\"5622\",\"37\",\"1\",\"Training\",\"Stims/Figures/93-C-30-1.bmp\",\"fa:fasha\",\"Left\",\"37\",\"1\",\"15\",\"8\",\"C1\",\"J\",\"15\"
\"\",\"\",\"approach-retreat\",\"19\",\"316846\",\"0.0-19.0\",\"\",\"\",\"3-2\",\"5212\",\"37\",\"1\",\"Training\",\"Stims/Figures/118-C-20-2.bmp\",\"fa:sha:va\",\"Left\",\"37\",\"1\",\"16\",\"8\",\"C1\",\"J\",\"16\"
\"\",\"\",\"approach-retreat\",\"20\",\"322970\",\"0.0-20.0\",\"\",\"\",\"3-2\",\"4616\",\"40\",\"1\",\"Training\",\"Stims/Figures/85-J-0-2.bmp\",\"fashava\",\"Up\",\"40\",\"2\",\"1\",\"8\",\"C1\",\"J\",\"17\"
\"\",\"\",\"approach-retreat\",\"21\",\"330418\",\"0.0-21.0\",\"\",\"\",\"3-2\",\"5938\",\"37\",\"1\",\"Training\",\"Stims/Figures/85-C-20-2.bmp\",\"va:sha:sha\",\"Left\",\"37\",\"2\",\"2\",\"8\",\"C1\",\"J\",\"18\"
\"\",\"\",\"approach-retreat\",\"22\",\"337808\",\"0.0-22.0\",\"\",\"\",\"3-2\",\"5880\",\"40\",\"0\",\"Training\",\"Stims/Figures/118-J-0-2.bmp\",\"fa:fa:sha\",\"Down\",\"38\",\"2\",\"3\",\"8\",\"C1\",\"J\",\"19\"
\"\",\"\",\"approach-retreat\",\"23\",\"344348\",\"0.0-23.0\",\"\",\"\",\"3-2\",\"5030\",\"40\",\"0\",\"Training\",\"Stims/Figures/7-C-20-4.bmp\",\"sa:sa:za\",\"Up\",\"38\",\"2\",\"4\",\"8\",\"C2\",\"J\",\"20\"
\"\",\"\",\"approach-retreat\",\"24\",\"350883\",\"0.0-24.0\",\"\",\"\",\"3-2\",\"5026\",\"40\",\"1\",\"Training\",\"Stims/Figures/71-C-30-1.bmp\",\"fasha:sha\",\"Down\",\"40\",\"2\",\"5\",\"8\",\"C1\",\"J\",\"21\"
\"\",\"\",\"approach-retreat\",\"25\",\"358089\",\"0.0-25.0\",\"\",\"\",\"3-2\",\"5698\",\"39\",\"1\",\"Training\",\"Stims/Figures/7-J-10-4.bmp\",\"za:ha:ha\",\"Left\",\"39\",\"2\",\"6\",\"8\",\"C2\",\"J\",\"22\"
\"\",\"\",\"approach-retreat\",\"26\",\"364222\",\"0.0-26.0\",\"\",\"\",\"3-2\",\"4624\",\"39\",\"1\",\"Training\",\"Stims/Figures/128-C-30-3.bmp\",\"za:ha:za\",\"Right\",\"39\",\"2\",\"7\",\"8\",\"C2\",\"J\",\"23\"
\"\",\"\",\"approach-retreat\",\"27\",\"372235\",\"0.0-27.0\",\"\",\"\",\"3-2\",\"6503\",\"38\",\"1\",\"Training\",\"Stims/Figures/100-J-10-3.bmp\",\"sahaha\",\"Down\",\"38\",\"2\",\"8\",\"8\",\"C2\",\"J\",\"24\"
\"\",\"\",\"approach-retreat\",\"28\",\"378736\",\"0.0-28.0\",\"\",\"\",\"3-2\",\"4992\",\"37\",\"0\",\"Training\",\"Stims/Figures/102-J-10-4.bmp\",\"sa:saza\",\"Left\",\"39\",\"2\",\"9\",\"8\",\"C2\",\"J\",\"25\"
\"\",\"\",\"approach-retreat\",\"29\",\"385307\",\"0.0-29.0\",\"\",\"\",\"3-2\",\"5061\",\"40\",\"1\",\"Training\",\"Stims/Figures/71-J-0-1.bmp\",\"va:shasha\",\"Up\",\"40\",\"2\",\"10\",\"8\",\"C1\",\"J\",\"26\"
\"\",\"\",\"approach-retreat\",\"30\",\"393864\",\"0.0-30.0\",\"\",\"\",\"3-2\",\"7046\",\"37\",\"1\",\"Training\",\"Stims/Figures/102-C-20-4.bmp\",\"za:saza\",\"Left\",\"37\",\"2\",\"11\",\"8\",\"C2\",\"J\",\"27\"
\"\",\"\",\"approach-retreat\",\"31\",\"403359\",\"0.0-31.0\",\"\",\"\",\"3-2\",\"7987\",\"40\",\"0\",\"Training\",\"Stims/Figures/118-C-20-2.bmp\",\"fa:sha:va\",\"Up\",\"38\",\"2\",\"12\",\"8\",\"C1\",\"J\",\"28\"
\"\",\"\",\"approach-retreat\",\"32\",\"409380\",\"0.0-32.0\",\"\",\"\",\"3-2\",\"4512\",\"40\",\"1\",\"Training\",\"Stims/Figures/100-C-30-3.bmp\",\"saha:ha\",\"Down\",\"40\",\"2\",\"13\",\"8\",\"C2\",\"J\",\"29\"
\"\",\"\",\"approach-retreat\",\"33\",\"415163\",\"0.0-33.0\",\"\",\"\",\"3-2\",\"4276\",\"39\",\"1\",\"Training\",\"Stims/Figures/93-C-30-1.bmp\",\"fa:fasha\",\"Right\",\"39\",\"2\",\"14\",\"8\",\"C1\",\"J\",\"30\"
\"\",\"\",\"approach-retreat\",\"34\",\"420490\",\"0.0-34.0\",\"\",\"\",\"3-2\",\"3818\",\"37\",\"1\",\"Training\",\"Stims/Figures/93-J-0-1.bmp\",\"fa:shasha\",\"Right\",\"37\",\"2\",\"15\",\"8\",\"C1\",\"J\",\"31\"
\"\",\"\",\"approach-retreat\",\"35\",\"426419\",\"0.0-35.0\",\"\",\"\",\"3-2\",\"4420\",\"39\",\"0\",\"Training\",\"Stims/Figures/128-J-10-3.bmp\",\"sa:saha\",\"Right\",\"37\",\"2\",\"16\",\"8\",\"C2\",\"J\",\"32\"
\"\",\"\",\"approach-retreat\",\"36\",\"432847\",\"0.0-36.0\",\"\",\"\",\"3-2\",\"4919\",\"37\",\"1\",\"Training\",\"Stims/Figures/102-J-10-4.bmp\",\"sa:saza\",\"Right\",\"37\",\"3\",\"1\",\"8\",\"C2\",\"J\",\"33\"
\"\",\"\",\"approach-retreat\",\"37\",\"439676\",\"0.0-37.0\",\"\",\"\",\"3-2\",\"5320\",\"40\",\"1\",\"Training\",\"Stims/Figures/100-J-10-3.bmp\",\"sahaha\",\"Up\",\"40\",\"3\",\"2\",\"8\",\"C2\",\"J\",\"34\"
\"\",\"\",\"approach-retreat\",\"38\",\"448323\",\"0.0-38.0\",\"\",\"\",\"3-2\",\"7135\",\"37\",\"1\",\"Training\",\"Stims/Figures/85-C-20-2.bmp\",\"va:sha:sha\",\"Left\",\"37\",\"3\",\"3\",\"8\",\"C1\",\"J\",\"35\"
\"\",\"\",\"approach-retreat\",\"39\",\"454799\",\"0.0-39.0\",\"\",\"\",\"3-2\",\"4966\",\"37\",\"0\",\"Training\",\"Stims/Figures/118-C-20-2.bmp\",\"fa:sha:va\",\"Right\",\"39\",\"3\",\"4\",\"8\",\"C1\",\"J\",\"36\"
\"\",\"\",\"approach-retreat\",\"40\",\"461924\",\"0.0-40.0\",\"\",\"\",\"3-2\",\"5617\",\"38\",\"1\",\"Training\",\"Stims/Figures/100-C-30-3.bmp\",\"saha:ha\",\"Up\",\"38\",\"3\",\"5\",\"8\",\"C2\",\"J\",\"37\"
\"\",\"\",\"approach-retreat\",\"41\",\"467867\",\"0.0-41.0\",\"\",\"\",\"3-2\",\"4435\",\"37\",\"1\",\"Training\",\"Stims/Figures/118-J-0-2.bmp\",\"fa:fa:sha\",\"Right\",\"37\",\"3\",\"6\",\"8\",\"C1\",\"J\",\"38\"
\"\",\"\",\"approach-retreat\",\"42\",\"474138\",\"0.0-42.0\",\"\",\"\",\"3-2\",\"4762\",\"38\",\"1\",\"Training\",\"Stims/Figures/7-C-20-4.bmp\",\"sa:sa:za\",\"Up\",\"38\",\"3\",\"7\",\"8\",\"C2\",\"J\",\"39\"
\"\",\"\",\"approach-retreat\",\"43\",\"479960\",\"0.0-43.0\",\"\",\"\",\"3-2\",\"4315\",\"39\",\"1\",\"Training\",\"Stims/Figures/85-J-0-2.bmp\",\"fashava\",\"Left\",\"39\",\"3\",\"8\",\"8\",\"C1\",\"J\",\"40\"
\"\",\"\",\"approach-retreat\",\"44\",\"485580\",\"0.0-44.0\",\"\",\"\",\"3-2\",\"4110\",\"38\",\"1\",\"Training\",\"Stims/Figures/71-C-30-1.bmp\",\"fasha:sha\",\"Up\",\"38\",\"3\",\"9\",\"8\",\"C1\",\"J\",\"41\"
\"\",\"\",\"approach-retreat\",\"45\",\"491886\",\"0.0-45.0\",\"\",\"\",\"3-2\",\"4800\",\"40\",\"0\",\"Training\",\"Stims/Figures/128-J-10-3.bmp\",\"sa:saha\",\"Down\",\"38\",\"3\",\"10\",\"8\",\"C2\",\"J\",\"42\"
\"\",\"\",\"approach-retreat\",\"46\",\"497778\",\"0.0-46.0\",\"\",\"\",\"3-2\",\"4382\",\"39\",\"1\",\"Training\",\"Stims/Figures/71-J-0-1.bmp\",\"va:shasha\",\"Left\",\"39\",\"3\",\"11\",\"8\",\"C1\",\"J\",\"43\"
\"\",\"\",\"approach-retreat\",\"47\",\"503626\",\"0.0-47.0\",\"\",\"\",\"3-2\",\"4340\",\"38\",\"1\",\"Training\",\"Stims/Figures/93-J-0-1.bmp\",\"fa:shasha\",\"Down\",\"38\",\"3\",\"12\",\"8\",\"C1\",\"J\",\"44\"
\"\",\"\",\"approach-retreat\",\"48\",\"509417\",\"0.0-48.0\",\"\",\"\",\"3-2\",\"4280\",\"39\",\"1\",\"Training\",\"Stims/Figures/7-J-10-4.bmp\",\"za:ha:ha\",\"Left\",\"39\",\"3\",\"13\",\"8\",\"C2\",\"J\",\"45\"
\"\",\"\",\"approach-retreat\",\"49\",\"515153\",\"0.0-49.0\",\"\",\"\",\"3-2\",\"4228\",\"40\",\"1\",\"Training\",\"Stims/Figures/93-C-30-1.bmp\",\"fa:fasha\",\"Down\",\"40\",\"3\",\"14\",\"8\",\"C1\",\"J\",\"46\"
\"\",\"\",\"approach-retreat\",\"50\",\"521082\",\"0.0-50.0\",\"\",\"\",\"3-2\",\"4420\",\"40\",\"1\",\"Training\",\"Stims/Figures/128-C-30-3.bmp\",\"za:ha:za\",\"Down\",\"40\",\"3\",\"15\",\"8\",\"C2\",\"J\",\"47\"
\"\",\"\",\"approach-retreat\",\"51\",\"527026\",\"0.0-51.0\",\"\",\"\",\"3-2\",\"4436\",\"37\",\"0\",\"Training\",\"Stims/Figures/102-C-20-4.bmp\",\"za:saza\",\"Right\",\"39\",\"3\",\"16\",\"8\",\"C2\",\"J\",\"48\"
\"\",\"\",\"approach-retreat\",\"52\",\"532713\",\"0.0-52.0\",\"\",\"\",\"3-2\",\"4178\",\"39\",\"0\",\"Training\",\"Stims/Figures/102-C-20-4.bmp\",\"za:saza\",\"Left\",\"37\",\"4\",\"1\",\"8\",\"C2\",\"J\",\"49\"
\"\",\"\",\"approach-retreat\",\"53\",\"538944\",\"0.0-53.0\",\"\",\"\",\"3-2\",\"4723\",\"40\",\"1\",\"Training\",\"Stims/Figures/85-J-0-2.bmp\",\"fashava\",\"Up\",\"40\",\"4\",\"2\",\"8\",\"C1\",\"J\",\"50\"
\"\",\"\",\"approach-retreat\",\"54\",\"544693\",\"0.0-54.0\",\"\",\"\",\"3-2\",\"4241\",\"39\",\"1\",\"Training\",\"Stims/Figures/7-J-10-4.bmp\",\"za:ha:ha\",\"Left\",\"39\",\"4\",\"3\",\"8\",\"C2\",\"J\",\"51\"
\"\",\"\",\"approach-retreat\",\"55\",\"550590\",\"0.0-55.0\",\"\",\"\",\"3-2\",\"4389\",\"37\",\"0\",\"Training\",\"Stims/Figures/118-C-20-2.bmp\",\"fa:sha:va\",\"Right\",\"39\",\"4\",\"4\",\"8\",\"C1\",\"J\",\"52\"
\"\",\"\",\"approach-retreat\",\"56\",\"556470\",\"0.0-56.0\",\"\",\"\",\"3-2\",\"4375\",\"38\",\"1\",\"Training\",\"Stims/Figures/128-C-30-3.bmp\",\"za:ha:za\",\"Up\",\"38\",\"4\",\"5\",\"8\",\"C2\",\"J\",\"53\"
\"\",\"\",\"approach-retreat\",\"57\",\"563277\",\"0.0-57.0\",\"\",\"\",\"3-2\",\"5298\",\"39\",\"1\",\"Training\",\"Stims/Figures/93-C-30-1.bmp\",\"fa:fasha\",\"Right\",\"39\",\"4\",\"6\",\"8\",\"C1\",\"J\",\"54\"
\"\",\"\",\"approach-retreat\",\"58\",\"569273\",\"0.0-58.0\",\"\",\"\",\"3-2\",\"4487\",\"37\",\"1\",\"Training\",\"Stims/Figures/100-C-30-3.bmp\",\"saha:ha\",\"Left\",\"37\",\"4\",\"7\",\"8\",\"C2\",\"J\",\"55\"
\"\",\"\",\"approach-retreat\",\"59\",\"575036\",\"0.0-59.0\",\"\",\"\",\"3-2\",\"4254\",\"37\",\"1\",\"Training\",\"Stims/Figures/71-J-0-1.bmp\",\"va:shasha\",\"Right\",\"37\",\"4\",\"8\",\"8\",\"C1\",\"J\",\"56\"
\"\",\"\",\"approach-retreat\",\"60\",\"580841\",\"0.0-60.0\",\"\",\"\",\"3-2\",\"4296\",\"39\",\"1\",\"Training\",\"Stims/Figures/71-C-30-1.bmp\",\"fasha:sha\",\"Right\",\"39\",\"4\",\"9\",\"8\",\"C1\",\"J\",\"57\"
\"\",\"\",\"approach-retreat\",\"61\",\"586630\",\"0.0-61.0\",\"\",\"\",\"3-2\",\"4278\",\"40\",\"0\",\"Training\",\"Stims/Figures/102-J-10-4.bmp\",\"sa:saza\",\"Down\",\"38\",\"4\",\"10\",\"8\",\"C2\",\"J\",\"58\"
\"\",\"\",\"approach-retreat\",\"62\",\"592255\",\"0.0-62.0\",\"\",\"\",\"3-2\",\"4116\",\"38\",\"1\",\"Training\",\"Stims/Figures/100-J-10-3.bmp\",\"sahaha\",\"Down\",\"38\",\"4\",\"11\",\"8\",\"C2\",\"J\",\"59\"
\"\",\"\",\"approach-retreat\",\"63\",\"597980\",\"0.0-63.0\",\"\",\"\",\"3-2\",\"4217\",\"38\",\"1\",\"Training\",\"Stims/Figures/7-C-20-4.bmp\",\"sa:sa:za\",\"Up\",\"38\",\"4\",\"12\",\"8\",\"C2\",\"J\",\"60\"
\"\",\"\",\"approach-retreat\",\"64\",\"603621\",\"0.0-64.0\",\"\",\"\",\"3-2\",\"4132\",\"37\",\"1\",\"Training\",\"Stims/Figures/85-C-20-2.bmp\",\"va:sha:sha\",\"Left\",\"37\",\"4\",\"13\",\"8\",\"C1\",\"J\",\"61\"
\"\",\"\",\"approach-retreat\",\"65\",\"609343\",\"0.0-65.0\",\"\",\"\",\"3-2\",\"4213\",\"40\",\"1\",\"Training\",\"Stims/Figures/93-J-0-1.bmp\",\"fa:shasha\",\"Up\",\"40\",\"4\",\"14\",\"8\",\"C1\",\"J\",\"62\"
\"\",\"\",\"approach-retreat\",\"66\",\"614884\",\"0.0-66.0\",\"\",\"\",\"3-2\",\"4033\",\"38\",\"1\",\"Training\",\"Stims/Figures/128-J-10-3.bmp\",\"sa:saha\",\"Down\",\"38\",\"4\",\"15\",\"8\",\"C2\",\"J\",\"63\"
\"\",\"\",\"approach-retreat\",\"67\",\"620485\",\"0.0-67.0\",\"\",\"\",\"3-2\",\"4092\",\"38\",\"1\",\"Training\",\"Stims/Figures/118-J-0-2.bmp\",\"fa:fa:sha\",\"Down\",\"38\",\"4\",\"16\",\"8\",\"C1\",\"J\",\"64\"
\"\",\"\",\"approach-retreat\",\"68\",\"626529\",\"0.0-68.0\",\"\",\"\",\"3-2\",\"4534\",\"38\",\"1\",\"Training\",\"Stims/Figures/128-J-10-3.bmp\",\"sa:saha\",\"Down\",\"38\",\"5\",\"1\",\"8\",\"C2\",\"J\",\"65\"
\"\",\"\",\"approach-retreat\",\"69\",\"632613\",\"0.0-69.0\",\"\",\"\",\"3-2\",\"4571\",\"40\",\"1\",\"Training\",\"Stims/Figures/7-J-10-4.bmp\",\"za:ha:ha\",\"Up\",\"40\",\"5\",\"2\",\"8\",\"C2\",\"J\",\"66\"
\"\",\"\",\"approach-retreat\",\"70\",\"638254\",\"0.0-70.0\",\"\",\"\",\"3-2\",\"4131\",\"40\",\"1\",\"Training\",\"Stims/Figures/85-J-0-2.bmp\",\"fashava\",\"Up\",\"40\",\"5\",\"3\",\"8\",\"C1\",\"J\",\"67\"
\"\",\"\",\"approach-retreat\",\"71\",\"643930\",\"0.0-71.0\",\"\",\"\",\"3-2\",\"4168\",\"37\",\"1\",\"Training\",\"Stims/Figures/118-C-20-2.bmp\",\"fa:sha:va\",\"Left\",\"37\",\"5\",\"4\",\"8\",\"C1\",\"J\",\"68\"
\"\",\"\",\"approach-retreat\",\"72\",\"649826\",\"0.0-72.0\",\"\",\"\",\"3-2\",\"4386\",\"39\",\"1\",\"Training\",\"Stims/Figures/118-J-0-2.bmp\",\"fa:fa:sha\",\"Left\",\"39\",\"5\",\"5\",\"8\",\"C1\",\"J\",\"69\"
\"\",\"\",\"approach-retreat\",\"73\",\"655602\",\"0.0-73.0\",\"\",\"\",\"3-2\",\"4267\",\"39\",\"1\",\"Training\",\"Stims/Figures/102-J-10-4.bmp\",\"sa:saza\",\"Left\",\"39\",\"5\",\"6\",\"8\",\"C2\",\"J\",\"70\"
\"\",\"\",\"approach-retreat\",\"74\",\"661588\",\"0.0-74.0\",\"\",\"\",\"3-2\",\"4477\",\"39\",\"1\",\"Training\",\"Stims/Figures/100-C-30-3.bmp\",\"saha:ha\",\"Right\",\"39\",\"5\",\"7\",\"8\",\"C2\",\"J\",\"71\"
\"\",\"\",\"approach-retreat\",\"75\",\"667424\",\"0.0-75.0\",\"\",\"\",\"3-2\",\"4327\",\"39\",\"1\",\"Training\",\"Stims/Figures/128-C-30-3.bmp\",\"za:ha:za\",\"Right\",\"39\",\"5\",\"8\",\"8\",\"C2\",\"J\",\"72\"
\"\",\"\",\"approach-retreat\",\"76\",\"673105\",\"0.0-76.0\",\"\",\"\",\"3-2\",\"4171\",\"39\",\"0\",\"Training\",\"Stims/Figures/93-J-0-1.bmp\",\"fa:shasha\",\"Right\",\"37\",\"5\",\"9\",\"8\",\"C1\",\"J\",\"73\"
\"\",\"\",\"approach-retreat\",\"77\",\"678723\",\"0.0-77.0\",\"\",\"\",\"3-2\",\"4109\",\"37\",\"1\",\"Training\",\"Stims/Figures/85-C-20-2.bmp\",\"va:sha:sha\",\"Left\",\"37\",\"5\",\"10\",\"8\",\"C1\",\"J\",\"74\"
\"\",\"\",\"approach-retreat\",\"78\",\"684532\",\"0.0-78.0\",\"\",\"\",\"3-2\",\"4302\",\"38\",\"0\",\"Training\",\"Stims/Figures/100-J-10-3.bmp\",\"sahaha\",\"Up\",\"40\",\"5\",\"11\",\"8\",\"C2\",\"J\",\"75\"
\"\",\"\",\"approach-retreat\",\"79\",\"690717\",\"0.0-79.0\",\"\",\"\",\"3-2\",\"4676\",\"40\",\"1\",\"Training\",\"Stims/Figures/71-C-30-1.bmp\",\"fasha:sha\",\"Down\",\"40\",\"5\",\"12\",\"8\",\"C1\",\"J\",\"76\"
\"\",\"\",\"approach-retreat\",\"80\",\"696651\",\"0.0-80.0\",\"\",\"\",\"3-2\",\"4422\",\"37\",\"0\",\"Training\",\"Stims/Figures/93-C-30-1.bmp\",\"fa:fasha\",\"Right\",\"39\",\"5\",\"13\",\"8\",\"C1\",\"J\",\"77\"
\"\",\"\",\"approach-retreat\",\"81\",\"702500\",\"0.0-81.0\",\"\",\"\",\"3-2\",\"4341\",\"40\",\"1\",\"Training\",\"Stims/Figures/71-J-0-1.bmp\",\"va:shasha\",\"Up\",\"40\",\"5\",\"14\",\"8\",\"C1\",\"J\",\"78\"
\"\",\"\",\"approach-retreat\",\"82\",\"708542\",\"0.0-82.0\",\"\",\"\",\"3-2\",\"4533\",\"38\",\"0\",\"Training\",\"Stims/Figures/102-C-20-4.bmp\",\"za:saza\",\"Down\",\"40\",\"5\",\"15\",\"8\",\"C2\",\"J\",\"79\"
\"\",\"\",\"approach-retreat\",\"83\",\"714330\",\"0.0-83.0\",\"\",\"\",\"3-2\",\"4277\",\"38\",\"0\",\"Training\",\"Stims/Figures/7-C-20-4.bmp\",\"sa:sa:za\",\"Down\",\"40\",\"5\",\"16\",\"8\",\"C2\",\"J\",\"80\"
\"\",\"\",\"approach-retreat\",\"84\",\"720492\",\"0.0-84.0\",\"\",\"\",\"3-2\",\"4652\",\"39\",\"1\",\"Training\",\"Stims/Figures/118-J-0-2.bmp\",\"fa:fa:sha\",\"Left\",\"39\",\"6\",\"1\",\"8\",\"C1\",\"J\",\"81\"
\"\",\"\",\"approach-retreat\",\"85\",\"728275\",\"0.0-85.0\",\"\",\"\",\"3-2\",\"6273\",\"40\",\"1\",\"Training\",\"Stims/Figures/71-C-30-1.bmp\",\"fasha:sha\",\"Down\",\"40\",\"6\",\"2\",\"8\",\"C1\",\"J\",\"82\"
\"\",\"\",\"approach-retreat\",\"86\",\"734769\",\"0.0-86.0\",\"\",\"\",\"3-2\",\"4985\",\"37\",\"1\",\"Training\",\"Stims/Figures/102-C-20-4.bmp\",\"za:saza\",\"Left\",\"37\",\"6\",\"3\",\"8\",\"C2\",\"J\",\"83\"
\"\",\"\",\"approach-retreat\",\"87\",\"740344\",\"0.0-87.0\",\"\",\"\",\"3-2\",\"4068\",\"38\",\"1\",\"Training\",\"Stims/Figures/85-C-20-2.bmp\",\"va:sha:sha\",\"Up\",\"38\",\"6\",\"4\",\"8\",\"C1\",\"J\",\"84\"
\"\",\"\",\"approach-retreat\",\"88\",\"746044\",\"0.0-88.0\",\"\",\"\",\"3-2\",\"4191\",\"40\",\"1\",\"Training\",\"Stims/Figures/7-C-20-4.bmp\",\"sa:sa:za\",\"Down\",\"40\",\"6\",\"5\",\"8\",\"C2\",\"J\",\"85\"
\"\",\"\",\"approach-retreat\",\"89\",\"752096\",\"0.0-89.0\",\"\",\"\",\"3-2\",\"4542\",\"39\",\"1\",\"Training\",\"Stims/Figures/100-C-30-3.bmp\",\"saha:ha\",\"Right\",\"39\",\"6\",\"6\",\"8\",\"C2\",\"J\",\"86\"
\"\",\"\",\"approach-retreat\",\"90\",\"757665\",\"0.0-90.0\",\"\",\"\",\"3-2\",\"4061\",\"39\",\"1\",\"Training\",\"Stims/Figures/93-C-30-1.bmp\",\"fa:fasha\",\"Right\",\"39\",\"6\",\"7\",\"8\",\"C1\",\"J\",\"87\"
\"\",\"\",\"approach-retreat\",\"91\",\"763327\",\"0.0-91.0\",\"\",\"\",\"3-2\",\"4152\",\"38\",\"1\",\"Training\",\"Stims/Figures/118-C-20-2.bmp\",\"fa:sha:va\",\"Up\",\"38\",\"6\",\"8\",\"8\",\"C1\",\"J\",\"88\"
\"\",\"\",\"approach-retreat\",\"92\",\"768825\",\"0.0-92.0\",\"\",\"\",\"3-2\",\"3990\",\"37\",\"1\",\"Training\",\"Stims/Figures/71-J-0-1.bmp\",\"va:shasha\",\"Right\",\"37\",\"6\",\"9\",\"8\",\"C1\",\"J\",\"89\"
\"\",\"\",\"approach-retreat\",\"93\",\"774591\",\"0.0-93.0\",\"\",\"\",\"3-2\",\"4259\",\"37\",\"0\",\"Training\",\"Stims/Figures/7-J-10-4.bmp\",\"za:ha:ha\",\"Left\",\"39\",\"6\",\"10\",\"8\",\"C2\",\"J\",\"90\"
\"\",\"\",\"approach-retreat\",\"94\",\"780499\",\"0.0-94.0\",\"\",\"\",\"3-2\",\"4398\",\"40\",\"0\",\"Training\",\"Stims/Figures/85-J-0-2.bmp\",\"fashava\",\"Down\",\"38\",\"6\",\"11\",\"8\",\"C1\",\"J\",\"91\"
\"\",\"\",\"approach-retreat\",\"95\",\"786152\",\"0.0-95.0\",\"\",\"\",\"3-2\",\"4143\",\"39\",\"0\",\"Training\",\"Stims/Figures/128-C-30-3.bmp\",\"za:ha:za\",\"Left\",\"37\",\"6\",\"12\",\"8\",\"C2\",\"J\",\"92\"
\"\",\"\",\"approach-retreat\",\"96\",\"791972\",\"0.0-96.0\",\"\",\"\",\"3-2\",\"4311\",\"37\",\"1\",\"Training\",\"Stims/Figures/102-J-10-4.bmp\",\"sa:saza\",\"Right\",\"37\",\"6\",\"13\",\"8\",\"C2\",\"J\",\"93\"
\"\",\"\",\"approach-retreat\",\"97\",\"797789\",\"0.0-97.0\",\"\",\"\",\"3-2\",\"4309\",\"40\",\"1\",\"Training\",\"Stims/Figures/128-J-10-3.bmp\",\"sa:saha\",\"Up\",\"40\",\"6\",\"14\",\"8\",\"C2\",\"J\",\"94\"
\"\",\"\",\"approach-retreat\",\"98\",\"803509\",\"0.0-98.0\",\"\",\"\",\"3-2\",\"4211\",\"40\",\"0\",\"Training\",\"Stims/Figures/100-J-10-3.bmp\",\"sahaha\",\"Down\",\"38\",\"6\",\"15\",\"8\",\"C2\",\"J\",\"95\"
\"\",\"\",\"approach-retreat\",\"99\",\"809375\",\"0.0-99.0\",\"\",\"\",\"3-2\",\"4357\",\"40\",\"1\",\"Training\",\"Stims/Figures/93-J-0-1.bmp\",\"fa:shasha\",\"Up\",\"40\",\"6\",\"16\",\"8\",\"C1\",\"J\",\"96\"
\"\",\"\",\"approach-retreat\",\"100\",\"815097\",\"0.0-100.0\",\"\",\"\",\"3-2\",\"4212\",\"37\",\"1\",\"Training\",\"Stims/Figures/93-J-0-1.bmp\",\"fa:shasha\",\"Right\",\"37\",\"7\",\"1\",\"8\",\"C1\",\"J\",\"97\"
\"\",\"\",\"approach-retreat\",\"101\",\"820726\",\"0.0-101.0\",\"\",\"\",\"3-2\",\"4122\",\"39\",\"1\",\"Training\",\"Stims/Figures/71-C-30-1.bmp\",\"fasha:sha\",\"Right\",\"39\",\"7\",\"2\",\"8\",\"C1\",\"J\",\"98\"
\"\",\"\",\"approach-retreat\",\"102\",\"826804\",\"0.0-102.0\",\"\",\"\",\"3-2\",\"4570\",\"38\",\"1\",\"Training\",\"Stims/Figures/85-J-0-2.bmp\",\"fashava\",\"Down\",\"38\",\"7\",\"3\",\"8\",\"C1\",\"J\",\"99\"
\"\",\"\",\"approach-retreat\",\"103\",\"833340\",\"0.0-103.0\",\"\",\"\",\"3-2\",\"5027\",\"38\",\"1\",\"Training\",\"Stims/Figures/85-C-20-2.bmp\",\"va:sha:sha\",\"Up\",\"38\",\"7\",\"4\",\"8\",\"C1\",\"J\",\"100\"
\"\",\"\",\"approach-retreat\",\"104\",\"842590\",\"0.0-104.0\",\"\",\"\",\"3-2\",\"7740\",\"39\",\"0\",\"Training\",\"Stims/Figures/100-J-10-3.bmp\",\"sahaha\",\"Right\",\"37\",\"7\",\"5\",\"8\",\"C2\",\"J\",\"101\"
\"\",\"\",\"approach-retreat\",\"105\",\"849676\",\"0.0-105.0\",\"\",\"\",\"3-2\",\"5577\",\"38\",\"0\",\"Training\",\"Stims/Figures/7-C-20-4.bmp\",\"sa:sa:za\",\"Down\",\"40\",\"7\",\"6\",\"8\",\"C2\",\"J\",\"102\"
\"\",\"\",\"approach-retreat\",\"106\",\"857993\",\"0.0-106.0\",\"\",\"\",\"3-2\",\"6808\",\"39\",\"0\",\"Training\",\"Stims/Figures/100-C-30-3.bmp\",\"saha:ha\",\"Left\",\"37\",\"7\",\"7\",\"8\",\"C2\",\"J\",\"103\"
\"\",\"\",\"approach-retreat\",\"107\",\"864456\",\"0.0-107.0\",\"\",\"\",\"3-2\",\"4954\",\"40\",\"0\",\"Training\",\"Stims/Figures/128-J-10-3.bmp\",\"sa:saha\",\"Down\",\"38\",\"7\",\"8\",\"8\",\"C2\",\"J\",\"104\"
\"\",\"\",\"approach-retreat\",\"108\",\"870225\",\"0.0-108.0\",\"\",\"\",\"3-2\",\"4259\",\"37\",\"1\",\"Training\",\"Stims/Figures/128-C-30-3.bmp\",\"za:ha:za\",\"Left\",\"37\",\"7\",\"9\",\"8\",\"C2\",\"J\",\"105\"
\"\",\"\",\"approach-retreat\",\"109\",\"877953\",\"0.0-109.0\",\"\",\"\",\"3-2\",\"6220\",\"38\",\"1\",\"Training\",\"Stims/Figures/118-J-0-2.bmp\",\"fa:fa:sha\",\"Down\",\"38\",\"7\",\"10\",\"8\",\"C1\",\"J\",\"106\"
\"\",\"\",\"approach-retreat\",\"110\",\"883714\",\"0.0-110.0\",\"\",\"\",\"3-2\",\"4252\",\"40\",\"1\",\"Training\",\"Stims/Figures/71-J-0-1.bmp\",\"va:shasha\",\"Up\",\"40\",\"7\",\"11\",\"8\",\"C1\",\"J\",\"107\"
\"\",\"\",\"approach-retreat\",\"111\",\"889577\",\"0.0-111.0\",\"\",\"\",\"3-2\",\"4353\",\"37\",\"1\",\"Training\",\"Stims/Figures/93-C-30-1.bmp\",\"fa:fasha\",\"Left\",\"37\",\"7\",\"12\",\"8\",\"C1\",\"J\",\"108\"
\"\",\"\",\"approach-retreat\",\"112\",\"896050\",\"0.0-112.0\",\"\",\"\",\"3-2\",\"4966\",\"38\",\"1\",\"Training\",\"Stims/Figures/102-C-20-4.bmp\",\"za:saza\",\"Up\",\"38\",\"7\",\"13\",\"8\",\"C2\",\"J\",\"109\"
\"\",\"\",\"approach-retreat\",\"113\",\"901850\",\"0.0-113.0\",\"\",\"\",\"3-2\",\"4291\",\"37\",\"1\",\"Training\",\"Stims/Figures/7-J-10-4.bmp\",\"za:ha:ha\",\"Right\",\"37\",\"7\",\"14\",\"8\",\"C2\",\"J\",\"110\"
\"\",\"\",\"approach-retreat\",\"114\",\"907662\",\"0.0-114.0\",\"\",\"\",\"3-2\",\"4304\",\"37\",\"1\",\"Training\",\"Stims/Figures/118-C-20-2.bmp\",\"fa:sha:va\",\"Left\",\"37\",\"7\",\"15\",\"8\",\"C1\",\"J\",\"111\"
\"\",\"\",\"approach-retreat\",\"115\",\"913381\",\"0.0-115.0\",\"\",\"\",\"3-2\",\"4210\",\"40\",\"1\",\"Training\",\"Stims/Figures/102-J-10-4.bmp\",\"sa:saza\",\"Up\",\"40\",\"7\",\"16\",\"8\",\"C2\",\"J\",\"112\"
\"\",\"\",\"approach-retreat\",\"116\",\"919228\",\"0.0-116.0\",\"\",\"\",\"3-2\",\"4336\",\"40\",\"1\",\"Training\",\"Stims/Figures/128-C-30-3.bmp\",\"za:ha:za\",\"Down\",\"40\",\"8\",\"1\",\"8\",\"C2\",\"J\",\"113\"
\"\",\"\",\"approach-retreat\",\"117\",\"924783\",\"0.0-117.0\",\"\",\"\",\"3-2\",\"4046\",\"38\",\"1\",\"Training\",\"Stims/Figures/100-C-30-3.bmp\",\"saha:ha\",\"Up\",\"38\",\"8\",\"2\",\"8\",\"C2\",\"J\",\"114\"
\"\",\"\",\"approach-retreat\",\"118\",\"930260\",\"0.0-118.0\",\"\",\"\",\"3-2\",\"3966\",\"37\",\"1\",\"Training\",\"Stims/Figures/7-J-10-4.bmp\",\"za:ha:ha\",\"Right\",\"37\",\"8\",\"3\",\"8\",\"C2\",\"J\",\"115\"
\"\",\"\",\"approach-retreat\",\"119\",\"936661\",\"0.0-119.0\",\"\",\"\",\"3-2\",\"4892\",\"39\",\"1\",\"Training\",\"Stims/Figures/102-J-10-4.bmp\",\"sa:saza\",\"Left\",\"39\",\"8\",\"4\",\"8\",\"C2\",\"J\",\"116\"
\"\",\"\",\"approach-retreat\",\"120\",\"942332\",\"0.0-120.0\",\"\",\"\",\"3-2\",\"4162\",\"40\",\"1\",\"Training\",\"Stims/Figures/128-J-10-3.bmp\",\"sa:saha\",\"Up\",\"40\",\"8\",\"5\",\"8\",\"C2\",\"J\",\"117\"
\"\",\"\",\"approach-retreat\",\"121\",\"948556\",\"0.0-121.0\",\"\",\"\",\"3-2\",\"4714\",\"39\",\"1\",\"Training\",\"Stims/Figures/102-C-20-4.bmp\",\"za:saza\",\"Right\",\"39\",\"8\",\"6\",\"8\",\"C2\",\"J\",\"118\"
\"\",\"\",\"approach-retreat\",\"122\",\"954255\",\"0.0-122.0\",\"\",\"\",\"3-2\",\"4190\",\"40\",\"1\",\"Training\",\"Stims/Figures/93-C-30-1.bmp\",\"fa:fasha\",\"Down\",\"40\",\"8\",\"7\",\"8\",\"C1\",\"J\",\"119\"
\"\",\"\",\"approach-retreat\",\"123\",\"959858\",\"0.0-123.0\",\"\",\"\",\"3-2\",\"4094\",\"39\",\"1\",\"Training\",\"Stims/Figures/71-J-0-1.bmp\",\"va:shasha\",\"Left\",\"39\",\"8\",\"8\",\"8\",\"C1\",\"J\",\"120\"
\"\",\"\",\"approach-retreat\",\"124\",\"966643\",\"0.0-124.0\",\"\",\"\",\"3-2\",\"5276\",\"40\",\"0\",\"Training\",\"Stims/Figures/7-C-20-4.bmp\",\"sa:sa:za\",\"Up\",\"38\",\"8\",\"9\",\"8\",\"C2\",\"J\",\"121\"
\"\",\"\",\"approach-retreat\",\"125\",\"972487\",\"0.0-125.0\",\"\",\"\",\"3-2\",\"4336\",\"38\",\"1\",\"Training\",\"Stims/Figures/85-J-0-2.bmp\",\"fashava\",\"Down\",\"38\",\"8\",\"10\",\"8\",\"C1\",\"J\",\"122\"
\"\",\"\",\"approach-retreat\",\"126\",\"978209\",\"0.0-126.0\",\"\",\"\",\"3-2\",\"4213\",\"37\",\"0\",\"Training\",\"Stims/Figures/100-J-10-3.bmp\",\"sahaha\",\"Left\",\"39\",\"8\",\"11\",\"8\",\"C2\",\"J\",\"123\"
\"\",\"\",\"approach-retreat\",\"127\",\"985086\",\"0.0-127.0\",\"\",\"\",\"3-2\",\"5368\",\"39\",\"1\",\"Training\",\"Stims/Figures/85-C-20-2.bmp\",\"va:sha:sha\",\"Right\",\"39\",\"8\",\"12\",\"8\",\"C1\",\"J\",\"124\"
\"\",\"\",\"approach-retreat\",\"128\",\"990887\",\"0.0-128.0\",\"\",\"\",\"3-2\",\"4292\",\"40\",\"1\",\"Training\",\"Stims/Figures/93-J-0-1.bmp\",\"fa:shasha\",\"Up\",\"40\",\"8\",\"13\",\"8\",\"C1\",\"J\",\"125\"
\"\",\"\",\"approach-retreat\",\"129\",\"997022\",\"0.0-129.0\",\"\",\"\",\"3-2\",\"4624\",\"39\",\"1\",\"Training\",\"Stims/Figures/118-C-20-2.bmp\",\"fa:sha:va\",\"Right\",\"39\",\"8\",\"14\",\"8\",\"C1\",\"J\",\"126\"
\"\",\"\",\"approach-retreat\",\"130\",\"1003656\",\"0.0-130.0\",\"\",\"\",\"3-2\",\"5126\",\"38\",\"1\",\"Training\",\"Stims/Figures/118-J-0-2.bmp\",\"fa:fa:sha\",\"Down\",\"38\",\"8\",\"15\",\"8\",\"C1\",\"J\",\"127\"
\"\",\"\",\"approach-retreat\",\"131\",\"1009890\",\"0.0-131.0\",\"\",\"\",\"3-2\",\"4726\",\"39\",\"0\",\"Training\",\"Stims/Figures/71-C-30-1.bmp\",\"fasha:sha\",\"Left\",\"37\",\"8\",\"16\",\"8\",\"C1\",\"J\",\"128\"
\"\",\"\",\"approach-retreat\",\"132\",\"1016026\",\"0.0-132.0\",\"\",\"\",\"3-2\",\"4626\",\"40\",\"1\",\"Training\",\"Stims/Figures/85-C-20-2.bmp\",\"va:sha:sha\",\"Down\",\"40\",\"9\",\"1\",\"8\",\"C1\",\"J\",\"129\"
\"\",\"\",\"approach-retreat\",\"133\",\"1023494\",\"0.0-133.0\",\"\",\"\",\"3-2\",\"5961\",\"38\",\"0\",\"Training\",\"Stims/Figures/100-J-10-3.bmp\",\"sahaha\",\"Up\",\"40\",\"9\",\"2\",\"8\",\"C2\",\"J\",\"130\"
\"\",\"\",\"approach-retreat\",\"134\",\"1029283\",\"0.0-134.0\",\"\",\"\",\"3-2\",\"4279\",\"40\",\"0\",\"Training\",\"Stims/Figures/71-J-0-1.bmp\",\"va:shasha\",\"Down\",\"38\",\"9\",\"3\",\"8\",\"C1\",\"J\",\"131\"
\"\",\"\",\"approach-retreat\",\"135\",\"1035904\",\"0.0-135.0\",\"\",\"\",\"3-2\",\"5111\",\"37\",\"1\",\"Training\",\"Stims/Figures/71-C-30-1.bmp\",\"fasha:sha\",\"Left\",\"37\",\"9\",\"4\",\"8\",\"C1\",\"J\",\"132\"
\"\",\"\",\"approach-retreat\",\"136\",\"1041484\",\"0.0-136.0\",\"\",\"\",\"3-2\",\"4073\",\"37\",\"1\",\"Training\",\"Stims/Figures/128-J-10-3.bmp\",\"sa:saha\",\"Right\",\"37\",\"9\",\"5\",\"8\",\"C2\",\"J\",\"133\"
\"\",\"\",\"approach-retreat\",\"137\",\"1047405\",\"0.0-137.0\",\"\",\"\",\"3-2\",\"4412\",\"40\",\"1\",\"Training\",\"Stims/Figures/85-J-0-2.bmp\",\"fashava\",\"Up\",\"40\",\"9\",\"6\",\"8\",\"C1\",\"J\",\"134\"
\"\",\"\",\"approach-retreat\",\"138\",\"1053006\",\"0.0-138.0\",\"\",\"\",\"3-2\",\"4093\",\"38\",\"0\",\"Training\",\"Stims/Figures/7-C-20-4.bmp\",\"sa:sa:za\",\"Down\",\"40\",\"9\",\"7\",\"8\",\"C2\",\"J\",\"135\"
\"\",\"\",\"approach-retreat\",\"139\",\"1058893\",\"0.0-139.0\",\"\",\"\",\"3-2\",\"4379\",\"39\",\"0\",\"Training\",\"Stims/Figures/118-J-0-2.bmp\",\"fa:fa:sha\",\"Right\",\"37\",\"9\",\"8\",\"8\",\"C1\",\"J\",\"136\"
\"\",\"\",\"approach-retreat\",\"140\",\"1064642\",\"0.0-140.0\",\"\",\"\",\"3-2\",\"4240\",\"38\",\"1\",\"Training\",\"Stims/Figures/128-C-30-3.bmp\",\"za:ha:za\",\"Up\",\"38\",\"9\",\"9\",\"8\",\"C2\",\"J\",\"137\"
\"\",\"\",\"approach-retreat\",\"141\",\"1071438\",\"0.0-141.0\",\"\",\"\",\"3-2\",\"5284\",\"38\",\"1\",\"Training\",\"Stims/Figures/93-J-0-1.bmp\",\"fa:shasha\",\"Down\",\"38\",\"9\",\"10\",\"8\",\"C1\",\"J\",\"138\"
\"\",\"\",\"approach-retreat\",\"142\",\"1077645\",\"0.0-142.0\",\"\",\"\",\"3-2\",\"4699\",\"37\",\"1\",\"Training\",\"Stims/Figures/118-C-20-2.bmp\",\"fa:sha:va\",\"Left\",\"37\",\"9\",\"11\",\"8\",\"C1\",\"J\",\"139\"
\"\",\"\",\"approach-retreat\",\"143\",\"1085494\",\"0.0-143.0\",\"\",\"\",\"3-2\",\"6340\",\"37\",\"1\",\"Training\",\"Stims/Figures/102-C-20-4.bmp\",\"za:saza\",\"Left\",\"37\",\"9\",\"12\",\"8\",\"C2\",\"J\",\"140\"
\"\",\"\",\"approach-retreat\",\"144\",\"1091218\",\"0.0-144.0\",\"\",\"\",\"3-2\",\"4217\",\"37\",\"1\",\"Training\",\"Stims/Figures/7-J-10-4.bmp\",\"za:ha:ha\",\"Right\",\"37\",\"9\",\"13\",\"8\",\"C2\",\"J\",\"141\"
\"\",\"\",\"approach-retreat\",\"145\",\"1097294\",\"0.0-145.0\",\"\",\"\",\"3-2\",\"4567\",\"39\",\"1\",\"Training\",\"Stims/Figures/100-C-30-3.bmp\",\"saha:ha\",\"Right\",\"39\",\"9\",\"14\",\"8\",\"C2\",\"J\",\"142\"
\"\",\"\",\"approach-retreat\",\"146\",\"1103273\",\"0.0-146.0\",\"\",\"\",\"3-2\",\"4469\",\"37\",\"0\",\"Training\",\"Stims/Figures/102-J-10-4.bmp\",\"sa:saza\",\"Left\",\"39\",\"9\",\"15\",\"8\",\"C2\",\"J\",\"143\"
\"\",\"\",\"approach-retreat\",\"147\",\"1108814\",\"0.0-147.0\",\"\",\"\",\"3-2\",\"4032\",\"38\",\"1\",\"Training\",\"Stims/Figures/93-C-30-1.bmp\",\"fa:fasha\",\"Up\",\"38\",\"9\",\"16\",\"8\",\"C1\",\"J\",\"144\"
\"24436\",\"\",\"instructions\",\"148\",\"1133251\",\"0.0-148.0\",\"[{\"\"page_index\"\":0,\"\"viewing_time\"\":24436}]\",\"\",\"\",\"\",\"\",\"\",\"\",\"\",\"\",\"\",\"\",\"\",\"\",\"\",\"\",\"\",\"\"
\"\",\"\",\"approach-retreat\",\"149\",\"1139118\",\"0.0-149.0\",\"\",\"\",\"3-2\",\"4360\",\"39\",\"1\",\"Testing\",\"Stims/Figures/71-C-30-1.bmp\",\"fasha:sha\",\"Right\",\"39\",\"1\",\"1\",\"8\",\"C1\",\"J\",\"1\"
\"\",\"\",\"approach-retreat\",\"150\",\"1145090\",\"0.0-150.0\",\"\",\"\",\"3-2\",\"4465\",\"38\",\"1\",\"Testing\",\"Stims/Figures/7-J-10-4.bmp\",\"za:ha:ha\",\"Down\",\"38\",\"1\",\"2\",\"8\",\"C2\",\"J\",\"2\"
\"\",\"\",\"approach-retreat\",\"151\",\"1150962\",\"0.0-151.0\",\"\",\"\",\"3-2\",\"4364\",\"39\",\"1\",\"Testing\",\"Stims/Figures/100-J-10-3.bmp\",\"sahaha\",\"Left\",\"39\",\"1\",\"3\",\"8\",\"C2\",\"J\",\"3\"
\"\",\"\",\"approach-retreat\",\"152\",\"1156661\",\"0.0-152.0\",\"\",\"\",\"3-2\",\"4191\",\"39\",\"1\",\"Testing\",\"Stims/Figures/128-C-30-3.bmp\",\"za:ha:za\",\"Right\",\"39\",\"1\",\"4\",\"8\",\"C2\",\"J\",\"4\"
\"\",\"\",\"approach-retreat\",\"153\",\"1162515\",\"0.0-153.0\",\"\",\"\",\"3-2\",\"4347\",\"38\",\"1\",\"Testing\",\"Stims/Figures/102-J-10-4.bmp\",\"sa:saza\",\"Down\",\"38\",\"1\",\"5\",\"8\",\"C2\",\"J\",\"5\"
\"\",\"\",\"approach-retreat\",\"154\",\"1168269\",\"0.0-154.0\",\"\",\"\",\"3-2\",\"4244\",\"37\",\"1\",\"Testing\",\"Stims/Figures/71-J-0-1.bmp\",\"va:shasha\",\"Right\",\"37\",\"1\",\"6\",\"8\",\"C1\",\"J\",\"6\"
\"\",\"\",\"approach-retreat\",\"155\",\"1174774\",\"0.0-155.0\",\"\",\"\",\"3-2\",\"4999\",\"37\",\"0\",\"Testing\",\"Stims/Figures/139-C-20-2.bmp\",\"fa:fa:va\",\"Right\",\"39\",\"1\",\"7\",\"8\",\"C1\",\"J\",\"7\"
\"\",\"\",\"approach-retreat\",\"156\",\"1180481\",\"0.0-156.0\",\"\",\"\",\"3-2\",\"4199\",\"37\",\"1\",\"Testing\",\"Stims/Figures/111-C-30-3.bmp\",\"zasaha\",\"Left\",\"37\",\"1\",\"8\",\"8\",\"C2\",\"J\",\"8\"
\"\",\"\",\"approach-retreat\",\"157\",\"1186654\",\"0.0-157.0\",\"\",\"\",\"3-2\",\"4666\",\"40\",\"0\",\"Testing\",\"Stims/Figures/7-C-20-4.bmp\",\"sa:sa:za\",\"Up\",\"38\",\"1\",\"9\",\"8\",\"C2\",\"J\",\"9\"
\"\",\"\",\"approach-retreat\",\"158\",\"1192288\",\"0.0-158.0\",\"\",\"\",\"3-2\",\"4125\",\"38\",\"1\",\"Testing\",\"Stims/Figures/100-C-30-3.bmp\",\"saha:ha\",\"Up\",\"38\",\"1\",\"10\",\"8\",\"C2\",\"J\",\"10\"
\"\",\"\",\"approach-retreat\",\"159\",\"1198107\",\"0.0-159.0\",\"\",\"\",\"3-2\",\"4313\",\"40\",\"1\",\"Testing\",\"Stims/Figures/85-J-0-2.bmp\",\"fashava\",\"Up\",\"40\",\"1\",\"11\",\"8\",\"C1\",\"J\",\"11\"
\"\",\"\",\"approach-retreat\",\"160\",\"1204038\",\"0.0-160.0\",\"\",\"\",\"3-2\",\"4423\",\"37\",\"1\",\"Testing\",\"Stims/Figures/57-C-30-1.bmp\",\"va:sha:va\",\"Left\",\"37\",\"1\",\"12\",\"8\",\"C1\",\"J\",\"12\"
\"\",\"\",\"approach-retreat\",\"161\",\"1209616\",\"0.0-161.0\",\"\",\"\",\"3-2\",\"4067\",\"39\",\"1\",\"Testing\",\"Stims/Figures/102-C-20-4.bmp\",\"za:saza\",\"Right\",\"39\",\"1\",\"13\",\"8\",\"C2\",\"J\",\"13\"
\"\",\"\",\"approach-retreat\",\"162\",\"1215363\",\"0.0-162.0\",\"\",\"\",\"3-2\",\"4238\",\"38\",\"1\",\"Testing\",\"Stims/Figures/118-C-20-2.bmp\",\"fa:sha:va\",\"Up\",\"38\",\"1\",\"14\",\"8\",\"C1\",\"J\",\"14\"
\"\",\"\",\"approach-retreat\",\"163\",\"1220941\",\"0.0-163.0\",\"\",\"\",\"3-2\",\"4070\",\"38\",\"1\",\"Testing\",\"Stims/Figures/93-C-30-1.bmp\",\"fa:fasha\",\"Up\",\"38\",\"1\",\"15\",\"8\",\"C1\",\"J\",\"15\"
\"\",\"\",\"approach-retreat\",\"164\",\"1226676\",\"0.0-164.0\",\"\",\"\",\"3-2\",\"4227\",\"38\",\"1\",\"Testing\",\"Stims/Figures/118-J-0-2.bmp\",\"fa:fa:sha\",\"Down\",\"38\",\"1\",\"16\",\"8\",\"C1\",\"J\",\"16\"
\"\",\"\",\"approach-retreat\",\"165\",\"1232750\",\"0.0-165.0\",\"\",\"\",\"3-2\",\"4563\",\"39\",\"1\",\"Testing\",\"Stims/Figures/87-J-10-4.bmp\",\"sa:sa:ha\",\"Left\",\"39\",\"1\",\"17\",\"8\",\"C2\",\"J\",\"17\"
\"\",\"\",\"approach-retreat\",\"166\",\"1238888\",\"0.0-166.0\",\"\",\"\",\"3-2\",\"4631\",\"38\",\"1\",\"Testing\",\"Stims/Figures/139-J-0-2.bmp\",\"vashava\",\"Down\",\"38\",\"1\",\"18\",\"8\",\"C1\",\"J\",\"18\"
\"\",\"\",\"approach-retreat\",\"167\",\"1244441\",\"0.0-167.0\",\"\",\"\",\"3-2\",\"4039\",\"38\",\"1\",\"Testing\",\"Stims/Figures/111-J-10-3.bmp\",\"zaha:za\",\"Down\",\"38\",\"1\",\"19\",\"8\",\"C2\",\"J\",\"19\"
\"\",\"\",\"approach-retreat\",\"168\",\"1250150\",\"0.0-168.0\",\"\",\"\",\"3-2\",\"4203\",\"38\",\"1\",\"Testing\",\"Stims/Figures/85-C-20-2.bmp\",\"va:sha:sha\",\"Up\",\"38\",\"1\",\"20\",\"8\",\"C1\",\"J\",\"20\"
\"\",\"\",\"approach-retreat\",\"169\",\"1255753\",\"0.0-169.0\",\"\",\"\",\"3-2\",\"4096\",\"39\",\"1\",\"Testing\",\"Stims/Figures/128-J-10-3.bmp\",\"sa:saha\",\"Left\",\"39\",\"1\",\"21\",\"8\",\"C2\",\"J\",\"21\"
\"\",\"\",\"approach-retreat\",\"170\",\"1261335\",\"0.0-170.0\",\"\",\"\",\"3-2\",\"4073\",\"38\",\"1\",\"Testing\",\"Stims/Figures/57-J-0-1.bmp\",\"vashasha\",\"Down\",\"38\",\"1\",\"22\",\"8\",\"C1\",\"J\",\"22\"
\"\",\"\",\"approach-retreat\",\"171\",\"1267020\",\"0.0-171.0\",\"\",\"\",\"3-2\",\"4178\",\"39\",\"1\",\"Testing\",\"Stims/Figures/93-J-0-1.bmp\",\"fa:shasha\",\"Left\",\"39\",\"1\",\"23\",\"8\",\"C1\",\"J\",\"23\"
\"\",\"\",\"approach-retreat\",\"172\",\"1272559\",\"0.0-172.0\",\"\",\"\",\"3-2\",\"4032\",\"39\",\"1\",\"Testing\",\"Stims/Figures/87-C-20-4.bmp\",\"sasa:za\",\"Right\",\"39\",\"1\",\"24\",\"8\",\"C2\",\"J\",\"24\"
\"\",\"\",\"approach-retreat\",\"173\",\"1278296\",\"0.0-173.0\",\"\",\"\",\"3-2\",\"4228\",\"39\",\"1\",\"Testing\",\"Stims/Figures/87-C-20-4.bmp\",\"sasa:za\",\"Right\",\"39\",\"2\",\"1\",\"8\",\"C2\",\"J\",\"25\"
\"\",\"\",\"approach-retreat\",\"174\",\"1284026\",\"0.0-174.0\",\"\",\"\",\"3-2\",\"4223\",\"37\",\"1\",\"Testing\",\"Stims/Figures/111-C-30-3.bmp\",\"zasaha\",\"Left\",\"37\",\"2\",\"2\",\"8\",\"C2\",\"J\",\"26\"
\"\",\"\",\"approach-retreat\",\"175\",\"1289951\",\"0.0-175.0\",\"\",\"\",\"3-2\",\"4417\",\"39\",\"1\",\"Testing\",\"Stims/Figures/57-J-0-1.bmp\",\"vashasha\",\"Left\",\"39\",\"2\",\"3\",\"8\",\"C1\",\"J\",\"27\"
\"\",\"\",\"approach-retreat\",\"176\",\"1298626\",\"0.0-176.0\",\"\",\"\",\"3-2\",\"7168\",\"38\",\"1\",\"Testing\",\"Stims/Figures/87-J-10-4.bmp\",\"sa:sa:ha\",\"Down\",\"38\",\"2\",\"4\",\"8\",\"C2\",\"J\",\"28\"
\"\",\"\",\"approach-retreat\",\"177\",\"1304340\",\"0.0-177.0\",\"\",\"\",\"3-2\",\"4206\",\"40\",\"1\",\"Testing\",\"Stims/Figures/102-C-20-4.bmp\",\"za:saza\",\"Down\",\"40\",\"2\",\"5\",\"8\",\"C2\",\"J\",\"29\"
\"\",\"\",\"approach-retreat\",\"178\",\"1309930\",\"0.0-178.0\",\"\",\"\",\"3-2\",\"4083\",\"37\",\"1\",\"Testing\",\"Stims/Figures/100-J-10-3.bmp\",\"sahaha\",\"Right\",\"37\",\"2\",\"6\",\"8\",\"C2\",\"J\",\"30\"
\"\",\"\",\"approach-retreat\",\"179\",\"1315490\",\"0.0-179.0\",\"\",\"\",\"3-2\",\"4054\",\"39\",\"1\",\"Testing\",\"Stims/Figures/85-C-20-2.bmp\",\"va:sha:sha\",\"Right\",\"39\",\"2\",\"7\",\"8\",\"C1\",\"J\",\"31\"
\"\",\"\",\"approach-retreat\",\"180\",\"1321292\",\"0.0-180.0\",\"\",\"\",\"3-2\",\"4295\",\"39\",\"1\",\"Testing\",\"Stims/Figures/71-C-30-1.bmp\",\"fasha:sha\",\"Right\",\"39\",\"2\",\"8\",\"8\",\"C1\",\"J\",\"32\"
\"\",\"\",\"approach-retreat\",\"181\",\"1327011\",\"0.0-181.0\",\"\",\"\",\"3-2\",\"4211\",\"40\",\"1\",\"Testing\",\"Stims/Figures/57-C-30-1.bmp\",\"va:sha:va\",\"Down\",\"40\",\"2\",\"9\",\"8\",\"C1\",\"J\",\"33\"
\"\",\"\",\"approach-retreat\",\"182\",\"1332941\",\"0.0-182.0\",\"\",\"\",\"3-2\",\"4424\",\"40\",\"1\",\"Testing\",\"Stims/Figures/139-J-0-2.bmp\",\"vashava\",\"Up\",\"40\",\"2\",\"10\",\"8\",\"C1\",\"J\",\"34\"
\"\",\"\",\"approach-retreat\",\"183\",\"1338699\",\"0.0-183.0\",\"\",\"\",\"3-2\",\"4249\",\"37\",\"1\",\"Testing\",\"Stims/Figures/100-C-30-3.bmp\",\"saha:ha\",\"Left\",\"37\",\"2\",\"11\",\"8\",\"C2\",\"J\",\"35\"
\"\",\"\",\"approach-retreat\",\"184\",\"1344468\",\"0.0-184.0\",\"\",\"\",\"3-2\",\"4262\",\"39\",\"1\",\"Testing\",\"Stims/Figures/7-J-10-4.bmp\",\"za:ha:ha\",\"Left\",\"39\",\"2\",\"12\",\"8\",\"C2\",\"J\",\"36\"
\"\",\"\",\"approach-retreat\",\"185\",\"1351582\",\"0.0-185.0\",\"\",\"\",\"3-2\",\"5599\",\"40\",\"1\",\"Testing\",\"Stims/Figures/118-C-20-2.bmp\",\"fa:sha:va\",\"Down\",\"40\",\"2\",\"13\",\"8\",\"C1\",\"J\",\"37\"
\"\",\"\",\"approach-retreat\",\"186\",\"1357462\",\"0.0-186.0\",\"\",\"\",\"3-2\",\"4368\",\"40\",\"1\",\"Testing\",\"Stims/Figures/128-J-10-3.bmp\",\"sa:saha\",\"Up\",\"40\",\"2\",\"14\",\"8\",\"C2\",\"J\",\"38\"
\"\",\"\",\"approach-retreat\",\"187\",\"1363117\",\"0.0-187.0\",\"\",\"\",\"3-2\",\"4144\",\"40\",\"1\",\"Testing\",\"Stims/Figures/93-J-0-1.bmp\",\"fa:shasha\",\"Up\",\"40\",\"2\",\"15\",\"8\",\"C1\",\"J\",\"39\"
\"\",\"\",\"approach-retreat\",\"188\",\"1368738\",\"0.0-188.0\",\"\",\"\",\"3-2\",\"4117\",\"40\",\"1\",\"Testing\",\"Stims/Figures/71-J-0-1.bmp\",\"va:shasha\",\"Up\",\"40\",\"2\",\"16\",\"8\",\"C1\",\"J\",\"40\"
\"\",\"\",\"approach-retreat\",\"189\",\"1374657\",\"0.0-189.0\",\"\",\"\",\"3-2\",\"4412\",\"38\",\"1\",\"Testing\",\"Stims/Figures/139-C-20-2.bmp\",\"fa:fa:va\",\"Up\",\"38\",\"2\",\"17\",\"8\",\"C1\",\"J\",\"41\"
\"\",\"\",\"approach-retreat\",\"190\",\"1381286\",\"0.0-190.0\",\"\",\"\",\"3-2\",\"5121\",\"40\",\"1\",\"Testing\",\"Stims/Figures/93-C-30-1.bmp\",\"fa:fasha\",\"Down\",\"40\",\"2\",\"18\",\"8\",\"C1\",\"J\",\"42\"
\"\",\"\",\"approach-retreat\",\"191\",\"1387177\",\"0.0-191.0\",\"\",\"\",\"3-2\",\"4382\",\"37\",\"1\",\"Testing\",\"Stims/Figures/85-J-0-2.bmp\",\"fashava\",\"Right\",\"37\",\"2\",\"19\",\"8\",\"C1\",\"J\",\"43\"
\"\",\"\",\"approach-retreat\",\"192\",\"1395023\",\"0.0-192.0\",\"\",\"\",\"3-2\",\"6339\",\"37\",\"1\",\"Testing\",\"Stims/Figures/128-C-30-3.bmp\",\"za:ha:za\",\"Left\",\"37\",\"2\",\"20\",\"8\",\"C2\",\"J\",\"44\"
\"\",\"\",\"approach-retreat\",\"193\",\"1401893\",\"0.0-193.0\",\"\",\"\",\"3-2\",\"5362\",\"37\",\"0\",\"Testing\",\"Stims/Figures/111-J-10-3.bmp\",\"zaha:za\",\"Left\",\"39\",\"2\",\"21\",\"8\",\"C2\",\"J\",\"45\"
\"\",\"\",\"approach-retreat\",\"194\",\"1407562\",\"0.0-194.0\",\"\",\"\",\"3-2\",\"4162\",\"40\",\"0\",\"Testing\",\"Stims/Figures/102-J-10-4.bmp\",\"sa:saza\",\"Down\",\"38\",\"2\",\"22\",\"8\",\"C2\",\"J\",\"46\"
\"\",\"\",\"approach-retreat\",\"195\",\"1413363\",\"0.0-195.0\",\"\",\"\",\"3-2\",\"4294\",\"40\",\"0\",\"Testing\",\"Stims/Figures/7-C-20-4.bmp\",\"sa:sa:za\",\"Up\",\"38\",\"2\",\"23\",\"8\",\"C2\",\"J\",\"47\"
\"\",\"\",\"approach-retreat\",\"196\",\"1419051\",\"0.0-196.0\",\"\",\"\",\"3-2\",\"4182\",\"37\",\"1\",\"Testing\",\"Stims/Figures/118-J-0-2.bmp\",\"fa:fa:sha\",\"Right\",\"37\",\"2\",\"24\",\"8\",\"C1\",\"J\",\"48\"
\"\",\"\",\"approach-retreat\",\"197\",\"1425948\",\"0.0-197.0\",\"\",\"\",\"3-2\",\"5389\",\"37\",\"1\",\"Testing\",\"Stims/Figures/102-J-10-4.bmp\",\"sa:saza\",\"Right\",\"37\",\"3\",\"1\",\"8\",\"C2\",\"J\",\"49\"
\"\",\"\",\"approach-retreat\",\"198\",\"1432940\",\"0.0-198.0\",\"\",\"\",\"3-2\",\"5485\",\"39\",\"1\",\"Testing\",\"Stims/Figures/128-C-30-3.bmp\",\"za:ha:za\",\"Right\",\"39\",\"3\",\"2\",\"8\",\"C2\",\"J\",\"50\"
\"\",\"\",\"approach-retreat\",\"199\",\"1438471\",\"0.0-199.0\",\"\",\"\",\"3-2\",\"4028\",\"39\",\"1\",\"Testing\",\"Stims/Figures/57-C-30-1.bmp\",\"va:sha:va\",\"Right\",\"39\",\"3\",\"3\",\"8\",\"C1\",\"J\",\"51\"
\"\",\"\",\"approach-retreat\",\"200\",\"1444437\",\"0.0-200.0\",\"\",\"\",\"3-2\",\"4459\",\"40\",\"1\",\"Testing\",\"Stims/Figures/85-C-20-2.bmp\",\"va:sha:sha\",\"Down\",\"40\",\"3\",\"4\",\"8\",\"C1\",\"J\",\"52\"
\"\",\"\",\"approach-retreat\",\"201\",\"1450225\",\"0.0-201.0\",\"\",\"\",\"3-2\",\"4283\",\"38\",\"1\",\"Testing\",\"Stims/Figures/102-C-20-4.bmp\",\"za:saza\",\"Up\",\"38\",\"3\",\"5\",\"8\",\"C2\",\"J\",\"53\"
\"\",\"\",\"approach-retreat\",\"202\",\"1456075\",\"0.0-202.0\",\"\",\"\",\"3-2\",\"4342\",\"38\",\"1\",\"Testing\",\"Stims/Figures/71-J-0-1.bmp\",\"va:shasha\",\"Down\",\"38\",\"3\",\"6\",\"8\",\"C1\",\"J\",\"54\"
\"\",\"\",\"approach-retreat\",\"203\",\"1462279\",\"0.0-203.0\",\"\",\"\",\"3-2\",\"4697\",\"37\",\"1\",\"Testing\",\"Stims/Figures/118-J-0-2.bmp\",\"fa:fa:sha\",\"Right\",\"37\",\"3\",\"7\",\"8\",\"C1\",\"J\",\"55\"
\"\",\"\",\"approach-retreat\",\"204\",\"1468336\",\"0.0-204.0\",\"\",\"\",\"3-2\",\"4548\",\"39\",\"1\",\"Testing\",\"Stims/Figures/87-J-10-4.bmp\",\"sa:sa:ha\",\"Left\",\"39\",\"3\",\"8\",\"8\",\"C2\",\"J\",\"56\"
\"\",\"\",\"approach-retreat\",\"205\",\"1474138\",\"0.0-205.0\",\"\",\"\",\"3-2\",\"4294\",\"38\",\"1\",\"Testing\",\"Stims/Figures/111-C-30-3.bmp\",\"zasaha\",\"Up\",\"38\",\"3\",\"9\",\"8\",\"C2\",\"J\",\"57\"
\"\",\"\",\"approach-retreat\",\"206\",\"1479774\",\"0.0-206.0\",\"\",\"\",\"3-2\",\"4127\",\"38\",\"1\",\"Testing\",\"Stims/Figures/128-J-10-3.bmp\",\"sa:saha\",\"Down\",\"38\",\"3\",\"10\",\"8\",\"C2\",\"J\",\"58\"
\"\",\"\",\"approach-retreat\",\"207\",\"1486585\",\"0.0-207.0\",\"\",\"\",\"3-2\",\"5303\",\"37\",\"1\",\"Testing\",\"Stims/Figures/111-J-10-3.bmp\",\"zaha:za\",\"Right\",\"37\",\"3\",\"11\",\"8\",\"C2\",\"J\",\"59\"
\"\",\"\",\"approach-retreat\",\"208\",\"1492960\",\"0.0-208.0\",\"\",\"\",\"3-2\",\"4869\",\"38\",\"1\",\"Testing\",\"Stims/Figures/100-J-10-3.bmp\",\"sahaha\",\"Down\",\"38\",\"3\",\"12\",\"8\",\"C2\",\"J\",\"60\"
\"\",\"\",\"approach-retreat\",\"209\",\"1498734\",\"0.0-209.0\",\"\",\"\",\"3-2\",\"4263\",\"39\",\"1\",\"Testing\",\"Stims/Figures/139-J-0-2.bmp\",\"vashava\",\"Left\",\"39\",\"3\",\"13\",\"8\",\"C1\",\"J\",\"61\"
\"\",\"\",\"approach-retreat\",\"210\",\"1504514\",\"0.0-210.0\",\"\",\"\",\"3-2\",\"4272\",\"38\",\"1\",\"Testing\",\"Stims/Figures/7-J-10-4.bmp\",\"za:ha:ha\",\"Down\",\"38\",\"3\",\"14\",\"8\",\"C2\",\"J\",\"62\"
\"\",\"\",\"approach-retreat\",\"211\",\"1510176\",\"0.0-211.0\",\"\",\"\",\"3-2\",\"4152\",\"37\",\"1\",\"Testing\",\"Stims/Figures/87-C-20-4.bmp\",\"sasa:za\",\"Left\",\"37\",\"3\",\"15\",\"8\",\"C2\",\"J\",\"63\"
\"\",\"\",\"approach-retreat\",\"212\",\"1516148\",\"0.0-212.0\",\"\",\"\",\"3-2\",\"4464\",\"39\",\"1\",\"Testing\",\"Stims/Figures/85-J-0-2.bmp\",\"fashava\",\"Left\",\"39\",\"3\",\"16\",\"8\",\"C1\",\"J\",\"64\"
\"\",\"\",\"approach-retreat\",\"213\",\"1521789\",\"0.0-213.0\",\"\",\"\",\"3-2\",\"4134\",\"38\",\"1\",\"Testing\",\"Stims/Figures/139-C-20-2.bmp\",\"fa:fa:va\",\"Up\",\"38\",\"3\",\"17\",\"8\",\"C1\",\"J\",\"65\"
\"\",\"\",\"approach-retreat\",\"214\",\"1527336\",\"0.0-214.0\",\"\",\"\",\"3-2\",\"4041\",\"39\",\"1\",\"Testing\",\"Stims/Figures/71-C-30-1.bmp\",\"fasha:sha\",\"Right\",\"39\",\"3\",\"18\",\"8\",\"C1\",\"J\",\"66\"
\"\",\"\",\"approach-retreat\",\"215\",\"1532949\",\"0.0-215.0\",\"\",\"\",\"3-2\",\"4104\",\"39\",\"1\",\"Testing\",\"Stims/Figures/93-J-0-1.bmp\",\"fa:shasha\",\"Left\",\"39\",\"3\",\"19\",\"8\",\"C1\",\"J\",\"67\"
\"\",\"\",\"approach-retreat\",\"216\",\"1539219\",\"0.0-216.0\",\"\",\"\",\"3-2\",\"4763\",\"40\",\"1\",\"Testing\",\"Stims/Figures/93-C-30-1.bmp\",\"fa:fasha\",\"Down\",\"40\",\"3\",\"20\",\"8\",\"C1\",\"J\",\"68\"
\"\",\"\",\"approach-retreat\",\"217\",\"1545566\",\"0.0-217.0\",\"\",\"\",\"3-2\",\"4840\",\"38\",\"0\",\"Testing\",\"Stims/Figures/57-J-0-1.bmp\",\"vashasha\",\"Up\",\"40\",\"3\",\"21\",\"8\",\"C1\",\"J\",\"69\"
\"\",\"\",\"approach-retreat\",\"218\",\"1551435\",\"0.0-218.0\",\"\",\"\",\"3-2\",\"4363\",\"40\",\"0\",\"Testing\",\"Stims/Figures/100-C-30-3.bmp\",\"saha:ha\",\"Up\",\"38\",\"3\",\"22\",\"8\",\"C2\",\"J\",\"70\"
\"\",\"\",\"approach-retreat\",\"219\",\"1557000\",\"0.0-219.0\",\"\",\"\",\"3-2\",\"4059\",\"39\",\"0\",\"Testing\",\"Stims/Figures/7-C-20-4.bmp\",\"sa:sa:za\",\"Left\",\"37\",\"3\",\"23\",\"8\",\"C2\",\"J\",\"71\"
\"\",\"\",\"approach-retreat\",\"220\",\"1562810\",\"0.0-220.0\",\"\",\"\",\"3-2\",\"4302\",\"40\",\"0\",\"Testing\",\"Stims/Figures/118-C-20-2.bmp\",\"fa:sha:va\",\"Up\",\"38\",\"3\",\"24\",\"8\",\"C1\",\"J\",\"72\"
\"\",\"\",\"approach-retreat\",\"221\",\"1568374\",\"0.0-221.0\",\"\",\"\",\"3-2\",\"4055\",\"37\",\"1\",\"Testing\",\"Stims/Figures/71-C-30-1.bmp\",\"fasha:sha\",\"Left\",\"37\",\"4\",\"1\",\"8\",\"C1\",\"J\",\"73\"
\"\",\"\",\"approach-retreat\",\"222\",\"1573924\",\"0.0-222.0\",\"\",\"\",\"3-2\",\"4042\",\"39\",\"1\",\"Testing\",\"Stims/Figures/100-J-10-3.bmp\",\"sahaha\",\"Left\",\"39\",\"4\",\"2\",\"8\",\"C2\",\"J\",\"74\"
\"\",\"\",\"approach-retreat\",\"223\",\"1579468\",\"0.0-223.0\",\"\",\"\",\"3-2\",\"4037\",\"37\",\"1\",\"Testing\",\"Stims/Figures/87-C-20-4.bmp\",\"sasa:za\",\"Left\",\"37\",\"4\",\"3\",\"8\",\"C2\",\"J\",\"75\"
\"\",\"\",\"approach-retreat\",\"224\",\"1585161\",\"0.0-224.0\",\"\",\"\",\"3-2\",\"4186\",\"38\",\"1\",\"Testing\",\"Stims/Figures/87-J-10-4.bmp\",\"sa:sa:ha\",\"Down\",\"38\",\"4\",\"4\",\"8\",\"C2\",\"J\",\"76\"
\"\",\"\",\"approach-retreat\",\"225\",\"1590640\",\"0.0-225.0\",\"\",\"\",\"3-2\",\"3969\",\"39\",\"1\",\"Testing\",\"Stims/Figures/93-J-0-1.bmp\",\"fa:shasha\",\"Left\",\"39\",\"4\",\"5\",\"8\",\"C1\",\"J\",\"77\"
\"\",\"\",\"approach-retreat\",\"226\",\"1596226\",\"0.0-226.0\",\"\",\"\",\"3-2\",\"4082\",\"37\",\"1\",\"Testing\",\"Stims/Figures/128-J-10-3.bmp\",\"sa:saha\",\"Right\",\"37\",\"4\",\"6\",\"8\",\"C2\",\"J\",\"78\"
\"\",\"\",\"approach-retreat\",\"227\",\"1602849\",\"0.0-227.0\",\"\",\"\",\"3-2\",\"5117\",\"39\",\"1\",\"Testing\",\"Stims/Figures/85-J-0-2.bmp\",\"fashava\",\"Left\",\"39\",\"4\",\"7\",\"8\",\"C1\",\"J\",\"79\"
\"\",\"\",\"approach-retreat\",\"228\",\"1609204\",\"0.0-228.0\",\"\",\"\",\"3-2\",\"4848\",\"40\",\"1\",\"Testing\",\"Stims/Figures/57-C-30-1.bmp\",\"va:sha:va\",\"Down\",\"40\",\"4\",\"8\",\"8\",\"C1\",\"J\",\"80\"
\"\",\"\",\"approach-retreat\",\"229\",\"1615240\",\"0.0-229.0\",\"\",\"\",\"3-2\",\"4530\",\"38\",\"1\",\"Testing\",\"Stims/Figures/139-J-0-2.bmp\",\"vashava\",\"Down\",\"38\",\"4\",\"9\",\"8\",\"C1\",\"J\",\"81\"
\"\",\"\",\"approach-retreat\",\"230\",\"1621657\",\"0.0-230.0\",\"\",\"\",\"3-2\",\"4910\",\"39\",\"1\",\"Testing\",\"Stims/Figures/85-C-20-2.bmp\",\"va:sha:sha\",\"Right\",\"39\",\"4\",\"10\",\"8\",\"C1\",\"J\",\"82\"
\"\",\"\",\"approach-retreat\",\"231\",\"1627540\",\"0.0-231.0\",\"\",\"\",\"3-2\",\"4376\",\"40\",\"0\",\"Testing\",\"Stims/Figures/7-C-20-4.bmp\",\"sa:sa:za\",\"Up\",\"38\",\"4\",\"11\",\"8\",\"C2\",\"J\",\"83\"
\"\",\"\",\"approach-retreat\",\"232\",\"1633749\",\"0.0-232.0\",\"\",\"\",\"3-2\",\"4702\",\"37\",\"1\",\"Testing\",\"Stims/Figures/57-J-0-1.bmp\",\"vashasha\",\"Right\",\"37\",\"4\",\"12\",\"8\",\"C1\",\"J\",\"84\"
\"\",\"\",\"approach-retreat\",\"233\",\"1639573\",\"0.0-233.0\",\"\",\"\",\"3-2\",\"4314\",\"37\",\"1\",\"Testing\",\"Stims/Figures/118-J-0-2.bmp\",\"fa:fa:sha\",\"Right\",\"37\",\"4\",\"13\",\"8\",\"C1\",\"J\",\"85\"
\"\",\"\",\"approach-retreat\",\"234\",\"1645677\",\"0.0-234.0\",\"\",\"\",\"3-2\",\"4602\",\"40\",\"1\",\"Testing\",\"Stims/Figures/71-J-0-1.bmp\",\"va:shasha\",\"Up\",\"40\",\"4\",\"14\",\"8\",\"C1\",\"J\",\"86\"
\"\",\"\",\"approach-retreat\",\"235\",\"1651579\",\"0.0-235.0\",\"\",\"\",\"3-2\",\"4394\",\"38\",\"1\",\"Testing\",\"Stims/Figures/128-C-30-3.bmp\",\"za:ha:za\",\"Up\",\"38\",\"4\",\"15\",\"8\",\"C2\",\"J\",\"87\"
\"\",\"\",\"approach-retreat\",\"236\",\"1658274\",\"0.0-236.0\",\"\",\"\",\"3-2\",\"5188\",\"37\",\"0\",\"Testing\",\"Stims/Figures/118-C-20-2.bmp\",\"fa:sha:va\",\"Right\",\"39\",\"4\",\"16\",\"8\",\"C1\",\"J\",\"88\"
\"\",\"\",\"approach-retreat\",\"237\",\"1664176\",\"0.0-237.0\",\"\",\"\",\"3-2\",\"4396\",\"40\",\"1\",\"Testing\",\"Stims/Figures/102-C-20-4.bmp\",\"za:saza\",\"Down\",\"40\",\"4\",\"17\",\"8\",\"C2\",\"J\",\"89\"
\"\",\"\",\"approach-retreat\",\"238\",\"1670055\",\"0.0-238.0\",\"\",\"\",\"3-2\",\"4371\",\"40\",\"1\",\"Testing\",\"Stims/Figures/111-C-30-3.bmp\",\"zasaha\",\"Down\",\"40\",\"4\",\"18\",\"8\",\"C2\",\"J\",\"90\"
\"\",\"\",\"approach-retreat\",\"239\",\"1676133\",\"0.0-239.0\",\"\",\"\",\"3-2\",\"4569\",\"39\",\"1\",\"Testing\",\"Stims/Figures/7-J-10-4.bmp\",\"za:ha:ha\",\"Left\",\"39\",\"4\",\"19\",\"8\",\"C2\",\"J\",\"91\"
\"\",\"\",\"approach-retreat\",\"240\",\"1681712\",\"0.0-240.0\",\"\",\"\",\"3-2\",\"4070\",\"38\",\"1\",\"Testing\",\"Stims/Figures/100-C-30-3.bmp\",\"saha:ha\",\"Up\",\"38\",\"4\",\"20\",\"8\",\"C2\",\"J\",\"92\"
\"\",\"\",\"approach-retreat\",\"241\",\"1687616\",\"0.0-241.0\",\"\",\"\",\"3-2\",\"4398\",\"39\",\"1\",\"Testing\",\"Stims/Figures/139-C-20-2.bmp\",\"fa:fa:va\",\"Right\",\"39\",\"4\",\"21\",\"8\",\"C1\",\"J\",\"93\"
\"\",\"\",\"approach-retreat\",\"242\",\"1694303\",\"0.0-242.0\",\"\",\"\",\"3-2\",\"5180\",\"38\",\"1\",\"Testing\",\"Stims/Figures/111-J-10-3.bmp\",\"zaha:za\",\"Down\",\"38\",\"4\",\"22\",\"8\",\"C2\",\"J\",\"94\"
\"\",\"\",\"approach-retreat\",\"243\",\"1703272\",\"0.0-243.0\",\"\",\"\",\"3-2\",\"7462\",\"38\",\"1\",\"Testing\",\"Stims/Figures/93-C-30-1.bmp\",\"fa:fasha\",\"Up\",\"38\",\"4\",\"23\",\"8\",\"C1\",\"J\",\"95\"
\"\",\"\",\"approach-retreat\",\"244\",\"1709228\",\"0.0-244.0\",\"\",\"\",\"3-2\",\"4448\",\"40\",\"1\",\"Testing\",\"Stims/Figures/102-J-10-4.bmp\",\"sa:saza\",\"Up\",\"40\",\"4\",\"24\",\"8\",\"C2\",\"J\",\"96\"
\"25652\",\"\",\"survey-text\",\"245\",\"1734886\",\"0.0-245.0\",\"\",\"{\"\"Q0\"\":\"\"PS160050\"\"}\",\"\",\"\",\"\",\"\",\"\",\"\",\"\",\"\",\"\",\"\",\"\",\"\",\"\",\"\",\"\"
