\"rt\",\"key_press\",\"trial_type\",\"trial_index\",\"time_elapsed\",\"internal_node_id\",\"view_history\",\"responses\",\"Id\",\"Rt\",\"ResKeyCode\",\"ResCorr\",\"TrialType2\",\"Image\",\"Label\",\"Location\",\"CorrectResponse\",\"Block\",\"BlockTrial\",\"Condition\",\"LabelType\",\"Subcondition\",\"trialNum\"
\"18897\",\"32\",\"text\",\"0\",\"18902\",\"0.0-0.0-0.0\",\"\",\"\",\"\",\"\",\"\",\"\",\"\",\"\",\"\",\"\",\"\",\"\",\"\",\"\",\"\",\"\",\"\"
\"70489\",\"\",\"instructions\",\"1\",\"89394\",\"0.0-1.0\",\"[{\"\"page_index\"\":0,\"\"viewing_time\"\":70488}]\",\"\",\"\",\"\",\"\",\"\",\"\",\"\",\"\",\"\",\"\",\"\",\"\",\"\",\"\",\"\",\"\"
\"17455\",\"\",\"survey-multi-choice\",\"2\",\"106882\",\"0.0-2.0\",\"\",\"{\"\"Q0\"\":\"\"Da\"\",\"\"Q1\"\":\"\"Da\"\",\"\"Q2\"\":\"\"Da\"\",\"\"Q3\"\":\"\"Da\"\",\"\"Q4\"\":\"\"Da\"\",\"\"Q5\"\":\"\"Da\"\"}\",\"\",\"\",\"\",\"\",\"\",\"\",\"\",\"\",\"\",\"\",\"\",\"\",\"\",\"\",\"\"
\"\",\"\",\"bio\",\"3\",\"112888\",\"0.0-3.0\",\"\",\"{\"\"age\"\":\"\"21\"\",\"\"gender\"\":\"\"f\"\",\"\"specify\"\":\"\"\"\"}\",\"\",\"\",\"\",\"\",\"\",\"\",\"\",\"\",\"\",\"\",\"\",\"\",\"\",\"\",\"\"
\"\",\"\",\"approach-retreat\",\"4\",\"136261\",\"0.0-4.0\",\"\",\"\",\"1-1\",\"21861\",\"40\",\"1\",\"Training\",\"Stims/Figures/100-J-10-3.bmp\",\"za:saza\",\"Up\",\"40\",\"1\",\"1\",\"8\",\"C2\",\"J\",\"1\"
\"\",\"\",\"approach-retreat\",\"5\",\"146543\",\"0.0-5.0\",\"\",\"\",\"1-1\",\"8764\",\"39\",\"1\",\"Training\",\"Stims/Figures/100-C-30-3.bmp\",\"sa:saha\",\"Right\",\"39\",\"1\",\"2\",\"8\",\"C2\",\"J\",\"2\"
\"\",\"\",\"approach-retreat\",\"6\",\"155064\",\"0.0-6.0\",\"\",\"\",\"1-1\",\"6981\",\"37\",\"1\",\"Training\",\"Stims/Figures/94-J-0-2.bmp\",\"fashasha\",\"Right\",\"37\",\"1\",\"3\",\"8\",\"C1\",\"J\",\"3\"
\"\",\"\",\"approach-retreat\",\"7\",\"162178\",\"0.0-7.0\",\"\",\"\",\"1-1\",\"5597\",\"40\",\"1\",\"Training\",\"Stims/Figures/94-C-20-2.bmp\",\"fasha:va\",\"Down\",\"40\",\"1\",\"4\",\"8\",\"C1\",\"J\",\"4\"
\"\",\"\",\"approach-retreat\",\"8\",\"172106\",\"0.0-8.0\",\"\",\"\",\"1-1\",\"8412\",\"39\",\"1\",\"Training\",\"Stims/Figures/44-J-10-3.bmp\",\"zasa:ha\",\"Left\",\"39\",\"1\",\"5\",\"8\",\"C2\",\"J\",\"5\"
\"\",\"\",\"approach-retreat\",\"9\",\"179468\",\"0.0-9.0\",\"\",\"\",\"1-1\",\"5815\",\"40\",\"0\",\"Training\",\"Stims/Figures/71-C-30-1.bmp\",\"fashava\",\"Up\",\"38\",\"1\",\"6\",\"8\",\"C1\",\"J\",\"6\"
\"\",\"\",\"approach-retreat\",\"10\",\"186531\",\"0.0-10.0\",\"\",\"\",\"1-1\",\"5548\",\"38\",\"0\",\"Training\",\"Stims/Figures/7-J-10-4.bmp\",\"sa:sa:za\",\"Up\",\"40\",\"1\",\"7\",\"8\",\"C2\",\"J\",\"7\"
\"\",\"\",\"approach-retreat\",\"11\",\"192776\",\"0.0-11.0\",\"\",\"\",\"1-1\",\"4721\",\"39\",\"1\",\"Training\",\"Stims/Figures/139-C-20-2.bmp\",\"vasha:sha\",\"Right\",\"39\",\"1\",\"8\",\"8\",\"C1\",\"J\",\"8\"
\"\",\"\",\"approach-retreat\",\"12\",\"198665\",\"0.0-12.0\",\"\",\"\",\"1-1\",\"4371\",\"39\",\"0\",\"Training\",\"Stims/Figures/7-C-20-4.bmp\",\"sa:haha\",\"Left\",\"37\",\"1\",\"9\",\"8\",\"C2\",\"J\",\"9\"
\"\",\"\",\"approach-retreat\",\"13\",\"205410\",\"0.0-13.0\",\"\",\"\",\"1-1\",\"5231\",\"38\",\"1\",\"Training\",\"Stims/Figures/102-C-20-4.bmp\",\"zasaha\",\"Up\",\"38\",\"1\",\"10\",\"8\",\"C2\",\"J\",\"10\"
\"\",\"\",\"approach-retreat\",\"14\",\"212157\",\"0.0-14.0\",\"\",\"\",\"1-1\",\"5231\",\"39\",\"0\",\"Training\",\"Stims/Figures/57-J-0-1.bmp\",\"fafasha\",\"Right\",\"37\",\"1\",\"11\",\"8\",\"C1\",\"J\",\"11\"
\"\",\"\",\"approach-retreat\",\"15\",\"218092\",\"0.0-15.0\",\"\",\"\",\"1-1\",\"4423\",\"39\",\"1\",\"Training\",\"Stims/Figures/71-J-0-1.bmp\",\"vafa:sha\",\"Left\",\"39\",\"1\",\"12\",\"8\",\"C1\",\"J\",\"12\"
\"\",\"\",\"approach-retreat\",\"16\",\"224294\",\"0.0-16.0\",\"\",\"\",\"1-1\",\"4688\",\"37\",\"1\",\"Training\",\"Stims/Figures/57-C-30-1.bmp\",\"vafa:va\",\"Left\",\"37\",\"1\",\"13\",\"8\",\"C1\",\"J\",\"13\"
\"\",\"\",\"approach-retreat\",\"17\",\"230124\",\"0.0-17.0\",\"\",\"\",\"1-1\",\"4301\",\"40\",\"0\",\"Training\",\"Stims/Figures/102-J-10-4.bmp\",\"sa:saza\",\"Down\",\"38\",\"1\",\"14\",\"8\",\"C2\",\"J\",\"14\"
\"\",\"\",\"approach-retreat\",\"18\",\"236947\",\"0.0-18.0\",\"\",\"\",\"1-1\",\"5311\",\"38\",\"0\",\"Training\",\"Stims/Figures/44-C-30-3.bmp\",\"sasa:ha\",\"Down\",\"40\",\"1\",\"15\",\"8\",\"C2\",\"J\",\"15\"
\"\",\"\",\"approach-retreat\",\"19\",\"242925\",\"0.0-19.0\",\"\",\"\",\"1-1\",\"4466\",\"40\",\"0\",\"Training\",\"Stims/Figures/139-J-0-2.bmp\",\"va:shasha\",\"Down\",\"38\",\"1\",\"16\",\"8\",\"C1\",\"J\",\"16\"
\"\",\"\",\"approach-retreat\",\"20\",\"249427\",\"0.0-20.0\",\"\",\"\",\"1-1\",\"4968\",\"39\",\"1\",\"Training\",\"Stims/Figures/102-C-20-4.bmp\",\"zasaha\",\"Right\",\"39\",\"2\",\"1\",\"8\",\"C2\",\"J\",\"17\"
\"\",\"\",\"approach-retreat\",\"21\",\"255867\",\"0.0-21.0\",\"\",\"\",\"1-1\",\"4925\",\"37\",\"0\",\"Training\",\"Stims/Figures/57-J-0-1.bmp\",\"fafasha\",\"Left\",\"39\",\"2\",\"2\",\"8\",\"C1\",\"J\",\"18\"
\"\",\"\",\"approach-retreat\",\"22\",\"261762\",\"0.0-22.0\",\"\",\"\",\"1-1\",\"4381\",\"38\",\"1\",\"Training\",\"Stims/Figures/71-C-30-1.bmp\",\"fashava\",\"Up\",\"38\",\"2\",\"3\",\"8\",\"C1\",\"J\",\"19\"
\"\",\"\",\"approach-retreat\",\"23\",\"267769\",\"0.0-23.0\",\"\",\"\",\"1-1\",\"4489\",\"37\",\"0\",\"Training\",\"Stims/Figures/100-J-10-3.bmp\",\"za:saza\",\"Left\",\"39\",\"2\",\"4\",\"8\",\"C2\",\"J\",\"20\"
\"\",\"\",\"approach-retreat\",\"24\",\"274171\",\"0.0-24.0\",\"\",\"\",\"1-1\",\"4890\",\"37\",\"0\",\"Training\",\"Stims/Figures/94-C-20-2.bmp\",\"fasha:va\",\"Right\",\"39\",\"2\",\"5\",\"8\",\"C1\",\"J\",\"21\"
\"\",\"\",\"approach-retreat\",\"25\",\"280155\",\"0.0-25.0\",\"\",\"\",\"1-1\",\"4470\",\"39\",\"0\",\"Training\",\"Stims/Figures/57-C-30-1.bmp\",\"vafa:va\",\"Left\",\"37\",\"2\",\"6\",\"8\",\"C1\",\"J\",\"22\"
\"\",\"\",\"approach-retreat\",\"26\",\"287113\",\"0.0-26.0\",\"\",\"\",\"1-1\",\"5448\",\"38\",\"0\",\"Training\",\"Stims/Figures/139-C-20-2.bmp\",\"vasha:sha\",\"Down\",\"40\",\"2\",\"7\",\"8\",\"C1\",\"J\",\"23\"
\"\",\"\",\"approach-retreat\",\"27\",\"299414\",\"0.0-27.0\",\"\",\"\",\"1-1\",\"10787\",\"38\",\"1\",\"Training\",\"Stims/Figures/139-J-0-2.bmp\",\"va:shasha\",\"Down\",\"38\",\"2\",\"8\",\"8\",\"C1\",\"J\",\"24\"
\"\",\"\",\"approach-retreat\",\"28\",\"305380\",\"0.0-28.0\",\"\",\"\",\"1-1\",\"4450\",\"38\",\"0\",\"Training\",\"Stims/Figures/44-J-10-3.bmp\",\"zasa:ha\",\"Up\",\"40\",\"2\",\"9\",\"8\",\"C2\",\"J\",\"25\"
\"\",\"\",\"approach-retreat\",\"29\",\"312255\",\"0.0-29.0\",\"\",\"\",\"1-1\",\"5360\",\"37\",\"1\",\"Training\",\"Stims/Figures/100-C-30-3.bmp\",\"sa:saha\",\"Left\",\"37\",\"2\",\"10\",\"8\",\"C2\",\"J\",\"26\"
\"\",\"\",\"approach-retreat\",\"30\",\"318954\",\"0.0-30.0\",\"\",\"\",\"1-1\",\"5183\",\"40\",\"1\",\"Training\",\"Stims/Figures/44-C-30-3.bmp\",\"sasa:ha\",\"Down\",\"40\",\"2\",\"11\",\"8\",\"C2\",\"J\",\"27\"
\"\",\"\",\"approach-retreat\",\"31\",\"325039\",\"0.0-31.0\",\"\",\"\",\"1-1\",\"4571\",\"39\",\"0\",\"Training\",\"Stims/Figures/7-J-10-4.bmp\",\"sa:sa:za\",\"Right\",\"37\",\"2\",\"12\",\"8\",\"C2\",\"J\",\"28\"
\"\",\"\",\"approach-retreat\",\"32\",\"330985\",\"0.0-32.0\",\"\",\"\",\"1-1\",\"4434\",\"38\",\"0\",\"Training\",\"Stims/Figures/102-J-10-4.bmp\",\"sa:saza\",\"Up\",\"40\",\"2\",\"13\",\"8\",\"C2\",\"J\",\"29\"
\"\",\"\",\"approach-retreat\",\"33\",\"336903\",\"0.0-33.0\",\"\",\"\",\"1-1\",\"4405\",\"37\",\"1\",\"Training\",\"Stims/Figures/71-J-0-1.bmp\",\"vafa:sha\",\"Right\",\"37\",\"2\",\"14\",\"8\",\"C1\",\"J\",\"30\"
\"\",\"\",\"approach-retreat\",\"34\",\"342781\",\"0.0-34.0\",\"\",\"\",\"1-1\",\"4365\",\"40\",\"1\",\"Training\",\"Stims/Figures/94-J-0-2.bmp\",\"fashasha\",\"Up\",\"40\",\"2\",\"15\",\"8\",\"C1\",\"J\",\"31\"
\"\",\"\",\"approach-retreat\",\"35\",\"348557\",\"0.0-35.0\",\"\",\"\",\"1-1\",\"4251\",\"40\",\"1\",\"Training\",\"Stims/Figures/7-C-20-4.bmp\",\"sa:haha\",\"Down\",\"40\",\"2\",\"16\",\"8\",\"C2\",\"J\",\"32\"
\"\",\"\",\"approach-retreat\",\"36\",\"354538\",\"0.0-36.0\",\"\",\"\",\"1-1\",\"4401\",\"40\",\"1\",\"Training\",\"Stims/Figures/102-J-10-4.bmp\",\"sa:saza\",\"Up\",\"40\",\"3\",\"1\",\"8\",\"C2\",\"J\",\"33\"
\"\",\"\",\"approach-retreat\",\"37\",\"360643\",\"0.0-37.0\",\"\",\"\",\"1-1\",\"4592\",\"37\",\"1\",\"Training\",\"Stims/Figures/100-C-30-3.bmp\",\"sa:saha\",\"Left\",\"37\",\"3\",\"2\",\"8\",\"C2\",\"J\",\"34\"
\"\",\"\",\"approach-retreat\",\"38\",\"367574\",\"0.0-38.0\",\"\",\"\",\"1-1\",\"5396\",\"37\",\"1\",\"Training\",\"Stims/Figures/94-C-20-2.bmp\",\"fasha:va\",\"Left\",\"37\",\"3\",\"3\",\"8\",\"C1\",\"J\",\"35\"
\"\",\"\",\"approach-retreat\",\"39\",\"373905\",\"0.0-39.0\",\"\",\"\",\"1-1\",\"4819\",\"38\",\"0\",\"Training\",\"Stims/Figures/71-J-0-1.bmp\",\"vafa:sha\",\"Up\",\"40\",\"3\",\"4\",\"8\",\"C1\",\"J\",\"36\"
\"\",\"\",\"approach-retreat\",\"40\",\"380351\",\"0.0-40.0\",\"\",\"\",\"1-1\",\"4931\",\"38\",\"1\",\"Training\",\"Stims/Figures/94-J-0-2.bmp\",\"fashasha\",\"Down\",\"38\",\"3\",\"5\",\"8\",\"C1\",\"J\",\"37\"
\"\",\"\",\"approach-retreat\",\"41\",\"386254\",\"0.0-41.0\",\"\",\"\",\"1-1\",\"4370\",\"39\",\"0\",\"Training\",\"Stims/Figures/139-C-20-2.bmp\",\"vasha:sha\",\"Left\",\"37\",\"3\",\"6\",\"8\",\"C1\",\"J\",\"38\"
\"\",\"\",\"approach-retreat\",\"42\",\"392170\",\"0.0-42.0\",\"\",\"\",\"1-1\",\"4373\",\"38\",\"0\",\"Training\",\"Stims/Figures/57-C-30-1.bmp\",\"vafa:va\",\"Down\",\"40\",\"3\",\"7\",\"8\",\"C1\",\"J\",\"39\"
\"\",\"\",\"approach-retreat\",\"43\",\"398061\",\"0.0-43.0\",\"\",\"\",\"1-1\",\"4385\",\"40\",\"1\",\"Training\",\"Stims/Figures/44-J-10-3.bmp\",\"zasa:ha\",\"Up\",\"40\",\"3\",\"8\",\"8\",\"C2\",\"J\",\"40\"
\"\",\"\",\"approach-retreat\",\"44\",\"404558\",\"0.0-44.0\",\"\",\"\",\"1-1\",\"4988\",\"37\",\"1\",\"Training\",\"Stims/Figures/139-J-0-2.bmp\",\"va:shasha\",\"Right\",\"37\",\"3\",\"9\",\"8\",\"C1\",\"J\",\"41\"
\"\",\"\",\"approach-retreat\",\"45\",\"410492\",\"0.0-45.0\",\"\",\"\",\"1-1\",\"4421\",\"37\",\"0\",\"Training\",\"Stims/Figures/7-C-20-4.bmp\",\"sa:haha\",\"Right\",\"39\",\"3\",\"10\",\"8\",\"C2\",\"J\",\"42\"
\"\",\"\",\"approach-retreat\",\"46\",\"416601\",\"0.0-46.0\",\"\",\"\",\"1-1\",\"4597\",\"37\",\"1\",\"Training\",\"Stims/Figures/100-J-10-3.bmp\",\"za:saza\",\"Right\",\"37\",\"3\",\"11\",\"8\",\"C2\",\"J\",\"43\"
\"\",\"\",\"approach-retreat\",\"47\",\"422548\",\"0.0-47.0\",\"\",\"\",\"1-1\",\"4430\",\"39\",\"1\",\"Training\",\"Stims/Figures/102-C-20-4.bmp\",\"zasaha\",\"Right\",\"39\",\"3\",\"12\",\"8\",\"C2\",\"J\",\"44\"
\"\",\"\",\"approach-retreat\",\"48\",\"428428\",\"0.0-48.0\",\"\",\"\",\"1-1\",\"4365\",\"37\",\"1\",\"Training\",\"Stims/Figures/44-C-30-3.bmp\",\"sasa:ha\",\"Left\",\"37\",\"3\",\"13\",\"8\",\"C2\",\"J\",\"45\"
\"\",\"\",\"approach-retreat\",\"49\",\"434343\",\"0.0-49.0\",\"\",\"\",\"1-1\",\"4401\",\"38\",\"0\",\"Training\",\"Stims/Figures/7-J-10-4.bmp\",\"sa:sa:za\",\"Up\",\"40\",\"3\",\"14\",\"8\",\"C2\",\"J\",\"46\"
\"\",\"\",\"approach-retreat\",\"50\",\"443463\",\"0.0-50.0\",\"\",\"\",\"1-1\",\"7608\",\"38\",\"0\",\"Training\",\"Stims/Figures/71-C-30-1.bmp\",\"fashava\",\"Down\",\"40\",\"3\",\"15\",\"8\",\"C1\",\"J\",\"47\"
\"\",\"\",\"approach-retreat\",\"51\",\"449460\",\"0.0-51.0\",\"\",\"\",\"1-1\",\"4485\",\"40\",\"0\",\"Training\",\"Stims/Figures/57-J-0-1.bmp\",\"fafasha\",\"Down\",\"38\",\"3\",\"16\",\"8\",\"C1\",\"J\",\"48\"
\"\",\"\",\"approach-retreat\",\"52\",\"475538\",\"0.0-52.0\",\"\",\"\",\"1-1\",\"24565\",\"37\",\"0\",\"Training\",\"Stims/Figures/7-J-10-4.bmp\",\"sa:sa:za\",\"Left\",\"39\",\"4\",\"1\",\"8\",\"C2\",\"J\",\"49\"
\"\",\"\",\"approach-retreat\",\"53\",\"482305\",\"0.0-53.0\",\"\",\"\",\"1-1\",\"5254\",\"38\",\"0\",\"Training\",\"Stims/Figures/100-J-10-3.bmp\",\"za:saza\",\"Up\",\"40\",\"4\",\"2\",\"8\",\"C2\",\"J\",\"50\"
\"\",\"\",\"approach-retreat\",\"54\",\"488355\",\"0.0-54.0\",\"\",\"\",\"1-1\",\"4536\",\"39\",\"1\",\"Training\",\"Stims/Figures/57-J-0-1.bmp\",\"fafasha\",\"Left\",\"39\",\"4\",\"3\",\"8\",\"C1\",\"J\",\"51\"
\"\",\"\",\"approach-retreat\",\"55\",\"494241\",\"0.0-55.0\",\"\",\"\",\"1-1\",\"4371\",\"38\",\"0\",\"Training\",\"Stims/Figures/139-C-20-2.bmp\",\"vasha:sha\",\"Down\",\"40\",\"4\",\"4\",\"8\",\"C1\",\"J\",\"52\"
\"\",\"\",\"approach-retreat\",\"56\",\"500510\",\"0.0-56.0\",\"\",\"\",\"1-1\",\"4755\",\"37\",\"0\",\"Training\",\"Stims/Figures/102-C-20-4.bmp\",\"zasaha\",\"Right\",\"39\",\"4\",\"5\",\"8\",\"C2\",\"J\",\"53\"
\"\",\"\",\"approach-retreat\",\"57\",\"506446\",\"0.0-57.0\",\"\",\"\",\"1-1\",\"4424\",\"40\",\"1\",\"Training\",\"Stims/Figures/7-C-20-4.bmp\",\"sa:haha\",\"Down\",\"40\",\"4\",\"6\",\"8\",\"C2\",\"J\",\"54\"
\"\",\"\",\"approach-retreat\",\"58\",\"512265\",\"0.0-58.0\",\"\",\"\",\"1-1\",\"4303\",\"37\",\"1\",\"Training\",\"Stims/Figures/71-J-0-1.bmp\",\"vafa:sha\",\"Right\",\"37\",\"4\",\"7\",\"8\",\"C1\",\"J\",\"55\"
\"\",\"\",\"approach-retreat\",\"59\",\"518037\",\"0.0-59.0\",\"\",\"\",\"1-1\",\"4235\",\"40\",\"0\",\"Training\",\"Stims/Figures/57-C-30-1.bmp\",\"vafa:va\",\"Up\",\"38\",\"4\",\"8\",\"8\",\"C1\",\"J\",\"56\"
\"\",\"\",\"approach-retreat\",\"60\",\"524384\",\"0.0-60.0\",\"\",\"\",\"1-1\",\"4833\",\"37\",\"1\",\"Training\",\"Stims/Figures/71-C-30-1.bmp\",\"fashava\",\"Left\",\"37\",\"4\",\"9\",\"8\",\"C1\",\"J\",\"57\"
\"\",\"\",\"approach-retreat\",\"61\",\"530021\",\"0.0-61.0\",\"\",\"\",\"1-1\",\"4122\",\"40\",\"0\",\"Training\",\"Stims/Figures/100-C-30-3.bmp\",\"sa:saha\",\"Up\",\"38\",\"4\",\"10\",\"8\",\"C2\",\"J\",\"58\"
\"\",\"\",\"approach-retreat\",\"62\",\"535943\",\"0.0-62.0\",\"\",\"\",\"1-1\",\"4374\",\"37\",\"1\",\"Training\",\"Stims/Figures/102-J-10-4.bmp\",\"sa:saza\",\"Right\",\"37\",\"4\",\"11\",\"8\",\"C2\",\"J\",\"59\"
\"\",\"\",\"approach-retreat\",\"63\",\"541665\",\"0.0-63.0\",\"\",\"\",\"1-1\",\"4209\",\"40\",\"0\",\"Training\",\"Stims/Figures/44-C-30-3.bmp\",\"sasa:ha\",\"Up\",\"38\",\"4\",\"12\",\"8\",\"C2\",\"J\",\"60\"
\"\",\"\",\"approach-retreat\",\"64\",\"549467\",\"0.0-64.0\",\"\",\"\",\"1-1\",\"6287\",\"38\",\"1\",\"Training\",\"Stims/Figures/44-J-10-3.bmp\",\"zasa:ha\",\"Down\",\"38\",\"4\",\"13\",\"8\",\"C2\",\"J\",\"61\"
\"\",\"\",\"approach-retreat\",\"65\",\"555456\",\"0.0-65.0\",\"\",\"\",\"1-1\",\"4443\",\"39\",\"0\",\"Training\",\"Stims/Figures/94-J-0-2.bmp\",\"fashasha\",\"Right\",\"37\",\"4\",\"14\",\"8\",\"C1\",\"J\",\"62\"
\"\",\"\",\"approach-retreat\",\"66\",\"562512\",\"0.0-66.0\",\"\",\"\",\"1-1\",\"5539\",\"40\",\"1\",\"Training\",\"Stims/Figures/94-C-20-2.bmp\",\"fasha:va\",\"Down\",\"40\",\"4\",\"15\",\"8\",\"C1\",\"J\",\"63\"
\"\",\"\",\"approach-retreat\",\"67\",\"568367\",\"0.0-67.0\",\"\",\"\",\"1-1\",\"4341\",\"37\",\"0\",\"Training\",\"Stims/Figures/139-J-0-2.bmp\",\"va:shasha\",\"Left\",\"39\",\"4\",\"16\",\"8\",\"C1\",\"J\",\"64\"
\"\",\"\",\"approach-retreat\",\"68\",\"574210\",\"0.0-68.0\",\"\",\"\",\"1-1\",\"4329\",\"39\",\"0\",\"Training\",\"Stims/Figures/7-J-10-4.bmp\",\"sa:sa:za\",\"Right\",\"37\",\"5\",\"1\",\"8\",\"C2\",\"J\",\"65\"
\"\",\"\",\"approach-retreat\",\"69\",\"579854\",\"0.0-69.0\",\"\",\"\",\"1-1\",\"4131\",\"40\",\"0\",\"Training\",\"Stims/Figures/44-C-30-3.bmp\",\"sasa:ha\",\"Up\",\"38\",\"5\",\"2\",\"8\",\"C2\",\"J\",\"66\"
\"\",\"\",\"approach-retreat\",\"70\",\"585874\",\"0.0-70.0\",\"\",\"\",\"1-1\",\"4508\",\"39\",\"1\",\"Training\",\"Stims/Figures/7-C-20-4.bmp\",\"sa:haha\",\"Right\",\"39\",\"5\",\"3\",\"8\",\"C2\",\"J\",\"67\"
\"\",\"\",\"approach-retreat\",\"71\",\"591930\",\"0.0-71.0\",\"\",\"\",\"1-1\",\"4541\",\"39\",\"0\",\"Training\",\"Stims/Figures/57-J-0-1.bmp\",\"fafasha\",\"Right\",\"37\",\"5\",\"4\",\"8\",\"C1\",\"J\",\"68\"
\"\",\"\",\"approach-retreat\",\"72\",\"598605\",\"0.0-72.0\",\"\",\"\",\"1-1\",\"5159\",\"38\",\"1\",\"Training\",\"Stims/Figures/71-J-0-1.bmp\",\"vafa:sha\",\"Down\",\"38\",\"5\",\"5\",\"8\",\"C1\",\"J\",\"69\"
\"\",\"\",\"approach-retreat\",\"73\",\"605232\",\"0.0-73.0\",\"\",\"\",\"1-1\",\"5111\",\"37\",\"0\",\"Training\",\"Stims/Figures/71-C-30-1.bmp\",\"fashava\",\"Right\",\"39\",\"5\",\"6\",\"8\",\"C1\",\"J\",\"70\"
\"\",\"\",\"approach-retreat\",\"74\",\"611136\",\"0.0-74.0\",\"\",\"\",\"1-1\",\"4383\",\"39\",\"0\",\"Training\",\"Stims/Figures/57-C-30-1.bmp\",\"vafa:va\",\"Left\",\"37\",\"5\",\"7\",\"8\",\"C1\",\"J\",\"71\"
\"\",\"\",\"approach-retreat\",\"75\",\"617436\",\"0.0-75.0\",\"\",\"\",\"1-1\",\"4785\",\"38\",\"1\",\"Training\",\"Stims/Figures/102-J-10-4.bmp\",\"sa:saza\",\"Down\",\"38\",\"5\",\"8\",\"8\",\"C2\",\"J\",\"72\"
\"\",\"\",\"approach-retreat\",\"76\",\"623815\",\"0.0-76.0\",\"\",\"\",\"1-1\",\"4863\",\"40\",\"1\",\"Training\",\"Stims/Figures/44-J-10-3.bmp\",\"zasa:ha\",\"Up\",\"40\",\"5\",\"9\",\"8\",\"C2\",\"J\",\"73\"
\"\",\"\",\"approach-retreat\",\"77\",\"629643\",\"0.0-77.0\",\"\",\"\",\"1-1\",\"4314\",\"38\",\"0\",\"Training\",\"Stims/Figures/100-C-30-3.bmp\",\"sa:saha\",\"Down\",\"40\",\"5\",\"10\",\"8\",\"C2\",\"J\",\"74\"
\"\",\"\",\"approach-retreat\",\"78\",\"636501\",\"0.0-78.0\",\"\",\"\",\"1-1\",\"5344\",\"40\",\"0\",\"Training\",\"Stims/Figures/139-J-0-2.bmp\",\"va:shasha\",\"Down\",\"38\",\"5\",\"11\",\"8\",\"C1\",\"J\",\"75\"
\"\",\"\",\"approach-retreat\",\"79\",\"650948\",\"0.0-79.0\",\"\",\"\",\"1-1\",\"12935\",\"39\",\"0\",\"Training\",\"Stims/Figures/102-C-20-4.bmp\",\"zasaha\",\"Left\",\"37\",\"5\",\"12\",\"8\",\"C2\",\"J\",\"76\"
\"\",\"\",\"approach-retreat\",\"80\",\"657584\",\"0.0-80.0\",\"\",\"\",\"1-1\",\"5115\",\"38\",\"0\",\"Training\",\"Stims/Figures/94-J-0-2.bmp\",\"fashasha\",\"Up\",\"40\",\"5\",\"13\",\"8\",\"C1\",\"J\",\"77\"
\"\",\"\",\"approach-retreat\",\"81\",\"663470\",\"0.0-81.0\",\"\",\"\",\"1-1\",\"4369\",\"40\",\"0\",\"Training\",\"Stims/Figures/94-C-20-2.bmp\",\"fasha:va\",\"Up\",\"38\",\"5\",\"14\",\"8\",\"C1\",\"J\",\"78\"
\"\",\"\",\"approach-retreat\",\"82\",\"669200\",\"0.0-82.0\",\"\",\"\",\"1-1\",\"4219\",\"39\",\"1\",\"Training\",\"Stims/Figures/100-J-10-3.bmp\",\"za:saza\",\"Left\",\"39\",\"5\",\"15\",\"8\",\"C2\",\"J\",\"79\"
\"\",\"\",\"approach-retreat\",\"83\",\"675152\",\"0.0-83.0\",\"\",\"\",\"1-1\",\"4436\",\"39\",\"0\",\"Training\",\"Stims/Figures/139-C-20-2.bmp\",\"vasha:sha\",\"Left\",\"37\",\"5\",\"16\",\"8\",\"C1\",\"J\",\"80\"
\"\",\"\",\"approach-retreat\",\"84\",\"681513\",\"0.0-84.0\",\"\",\"\",\"1-1\",\"4847\",\"37\",\"1\",\"Training\",\"Stims/Figures/94-C-20-2.bmp\",\"fasha:va\",\"Left\",\"37\",\"6\",\"1\",\"8\",\"C1\",\"J\",\"81\"
\"\",\"\",\"approach-retreat\",\"85\",\"687580\",\"0.0-85.0\",\"\",\"\",\"1-1\",\"4553\",\"38\",\"0\",\"Training\",\"Stims/Figures/100-C-30-3.bmp\",\"sa:saha\",\"Down\",\"40\",\"6\",\"2\",\"8\",\"C2\",\"J\",\"82\"
\"\",\"\",\"approach-retreat\",\"86\",\"693471\",\"0.0-86.0\",\"\",\"\",\"1-1\",\"4378\",\"39\",\"0\",\"Training\",\"Stims/Figures/94-J-0-2.bmp\",\"fashasha\",\"Right\",\"37\",\"6\",\"3\",\"8\",\"C1\",\"J\",\"83\"
\"\",\"\",\"approach-retreat\",\"87\",\"700548\",\"0.0-87.0\",\"\",\"\",\"1-1\",\"5563\",\"40\",\"1\",\"Training\",\"Stims/Figures/100-J-10-3.bmp\",\"za:saza\",\"Up\",\"40\",\"6\",\"4\",\"8\",\"C2\",\"J\",\"84\"
\"\",\"\",\"approach-retreat\",\"88\",\"706649\",\"0.0-88.0\",\"\",\"\",\"1-1\",\"4588\",\"38\",\"1\",\"Training\",\"Stims/Figures/7-J-10-4.bmp\",\"sa:sa:za\",\"Down\",\"38\",\"6\",\"5\",\"8\",\"C2\",\"J\",\"85\"
\"\",\"\",\"approach-retreat\",\"89\",\"712924\",\"0.0-89.0\",\"\",\"\",\"1-1\",\"4760\",\"38\",\"0\",\"Training\",\"Stims/Figures/44-J-10-3.bmp\",\"zasa:ha\",\"Up\",\"40\",\"6\",\"6\",\"8\",\"C2\",\"J\",\"86\"
\"\",\"\",\"approach-retreat\",\"90\",\"718908\",\"0.0-90.0\",\"\",\"\",\"1-1\",\"4472\",\"37\",\"1\",\"Training\",\"Stims/Figures/71-J-0-1.bmp\",\"vafa:sha\",\"Right\",\"37\",\"6\",\"7\",\"8\",\"C1\",\"J\",\"87\"
\"\",\"\",\"approach-retreat\",\"91\",\"724580\",\"0.0-91.0\",\"\",\"\",\"1-1\",\"4158\",\"39\",\"1\",\"Training\",\"Stims/Figures/139-C-20-2.bmp\",\"vasha:sha\",\"Right\",\"39\",\"6\",\"8\",\"8\",\"C1\",\"J\",\"88\"
\"\",\"\",\"approach-retreat\",\"92\",\"730537\",\"0.0-92.0\",\"\",\"\",\"1-1\",\"4442\",\"39\",\"0\",\"Training\",\"Stims/Figures/7-C-20-4.bmp\",\"sa:haha\",\"Left\",\"37\",\"6\",\"9\",\"8\",\"C2\",\"J\",\"89\"
\"\",\"\",\"approach-retreat\",\"93\",\"736254\",\"0.0-93.0\",\"\",\"\",\"1-1\",\"4200\",\"37\",\"1\",\"Training\",\"Stims/Figures/44-C-30-3.bmp\",\"sasa:ha\",\"Left\",\"37\",\"6\",\"10\",\"8\",\"C2\",\"J\",\"90\"
\"\",\"\",\"approach-retreat\",\"94\",\"741930\",\"0.0-94.0\",\"\",\"\",\"1-1\",\"4159\",\"40\",\"0\",\"Training\",\"Stims/Figures/57-C-30-1.bmp\",\"vafa:va\",\"Up\",\"38\",\"6\",\"11\",\"8\",\"C1\",\"J\",\"91\"
\"\",\"\",\"approach-retreat\",\"95\",\"747876\",\"0.0-95.0\",\"\",\"\",\"1-1\",\"4434\",\"38\",\"1\",\"Training\",\"Stims/Figures/57-J-0-1.bmp\",\"fafasha\",\"Down\",\"38\",\"6\",\"12\",\"8\",\"C1\",\"J\",\"92\"
\"\",\"\",\"approach-retreat\",\"96\",\"753603\",\"0.0-96.0\",\"\",\"\",\"1-1\",\"4212\",\"40\",\"0\",\"Training\",\"Stims/Figures/71-C-30-1.bmp\",\"fashava\",\"Up\",\"38\",\"6\",\"13\",\"8\",\"C1\",\"J\",\"93\"
\"\",\"\",\"approach-retreat\",\"97\",\"759304\",\"0.0-97.0\",\"\",\"\",\"1-1\",\"4187\",\"39\",\"0\",\"Training\",\"Stims/Figures/139-J-0-2.bmp\",\"va:shasha\",\"Right\",\"37\",\"6\",\"14\",\"8\",\"C1\",\"J\",\"94\"
\"\",\"\",\"approach-retreat\",\"98\",\"765029\",\"0.0-98.0\",\"\",\"\",\"1-1\",\"4198\",\"40\",\"1\",\"Training\",\"Stims/Figures/102-C-20-4.bmp\",\"zasaha\",\"Down\",\"40\",\"6\",\"15\",\"8\",\"C2\",\"J\",\"95\"
\"\",\"\",\"approach-retreat\",\"99\",\"771299\",\"0.0-99.0\",\"\",\"\",\"1-1\",\"4760\",\"37\",\"0\",\"Training\",\"Stims/Figures/102-J-10-4.bmp\",\"sa:saza\",\"Left\",\"39\",\"6\",\"16\",\"8\",\"C2\",\"J\",\"96\"
\"\",\"\",\"approach-retreat\",\"100\",\"776950\",\"0.0-100.0\",\"\",\"\",\"1-1\",\"4139\",\"39\",\"0\",\"Training\",\"Stims/Figures/7-J-10-4.bmp\",\"sa:sa:za\",\"Right\",\"37\",\"7\",\"1\",\"8\",\"C2\",\"J\",\"97\"
\"\",\"\",\"approach-retreat\",\"101\",\"782713\",\"0.0-101.0\",\"\",\"\",\"1-1\",\"4250\",\"38\",\"1\",\"Training\",\"Stims/Figures/57-J-0-1.bmp\",\"fafasha\",\"Down\",\"38\",\"7\",\"2\",\"8\",\"C1\",\"J\",\"98\"
\"\",\"\",\"approach-retreat\",\"102\",\"788422\",\"0.0-102.0\",\"\",\"\",\"1-1\",\"4189\",\"39\",\"1\",\"Training\",\"Stims/Figures/71-J-0-1.bmp\",\"vafa:sha\",\"Left\",\"39\",\"7\",\"3\",\"8\",\"C1\",\"J\",\"99\"
\"\",\"\",\"approach-retreat\",\"103\",\"793674\",\"0.0-103.0\",\"\",\"\",\"1-1\",\"3735\",\"40\",\"1\",\"Training\",\"Stims/Figures/102-C-20-4.bmp\",\"zasaha\",\"Down\",\"40\",\"7\",\"4\",\"8\",\"C2\",\"J\",\"100\"
\"\",\"\",\"approach-retreat\",\"104\",\"799357\",\"0.0-104.0\",\"\",\"\",\"1-1\",\"4168\",\"39\",\"1\",\"Training\",\"Stims/Figures/7-C-20-4.bmp\",\"sa:haha\",\"Right\",\"39\",\"7\",\"5\",\"8\",\"C2\",\"J\",\"101\"
\"\",\"\",\"approach-retreat\",\"105\",\"805513\",\"0.0-105.0\",\"\",\"\",\"1-1\",\"4641\",\"37\",\"0\",\"Training\",\"Stims/Figures/71-C-30-1.bmp\",\"fashava\",\"Right\",\"39\",\"7\",\"6\",\"8\",\"C1\",\"J\",\"102\"
\"\",\"\",\"approach-retreat\",\"106\",\"811330\",\"0.0-106.0\",\"\",\"\",\"1-1\",\"4305\",\"40\",\"0\",\"Training\",\"Stims/Figures/57-C-30-1.bmp\",\"vafa:va\",\"Up\",\"38\",\"7\",\"7\",\"8\",\"C1\",\"J\",\"103\"
\"\",\"\",\"approach-retreat\",\"107\",\"817097\",\"0.0-107.0\",\"\",\"\",\"1-1\",\"4254\",\"40\",\"0\",\"Training\",\"Stims/Figures/44-C-30-3.bmp\",\"sasa:ha\",\"Up\",\"38\",\"7\",\"8\",\"8\",\"C2\",\"J\",\"104\"
\"\",\"\",\"approach-retreat\",\"108\",\"822849\",\"0.0-108.0\",\"\",\"\",\"1-1\",\"4241\",\"38\",\"1\",\"Training\",\"Stims/Figures/139-C-20-2.bmp\",\"vasha:sha\",\"Up\",\"38\",\"7\",\"9\",\"8\",\"C1\",\"J\",\"105\"
\"\",\"\",\"approach-retreat\",\"109\",\"828508\",\"0.0-109.0\",\"\",\"\",\"1-1\",\"4142\",\"39\",\"0\",\"Training\",\"Stims/Figures/94-J-0-2.bmp\",\"fashasha\",\"Right\",\"37\",\"7\",\"10\",\"8\",\"C1\",\"J\",\"106\"
\"\",\"\",\"approach-retreat\",\"110\",\"834425\",\"0.0-110.0\",\"\",\"\",\"1-1\",\"4401\",\"38\",\"1\",\"Training\",\"Stims/Figures/44-J-10-3.bmp\",\"zasa:ha\",\"Down\",\"38\",\"7\",\"11\",\"8\",\"C2\",\"J\",\"107\"
\"\",\"\",\"approach-retreat\",\"111\",\"840165\",\"0.0-111.0\",\"\",\"\",\"1-1\",\"4225\",\"38\",\"1\",\"Training\",\"Stims/Figures/94-C-20-2.bmp\",\"fasha:va\",\"Up\",\"38\",\"7\",\"12\",\"8\",\"C1\",\"J\",\"108\"
\"\",\"\",\"approach-retreat\",\"112\",\"845744\",\"0.0-112.0\",\"\",\"\",\"1-1\",\"4065\",\"38\",\"0\",\"Training\",\"Stims/Figures/100-C-30-3.bmp\",\"sa:saha\",\"Down\",\"40\",\"7\",\"13\",\"8\",\"C2\",\"J\",\"109\"
\"\",\"\",\"approach-retreat\",\"113\",\"852105\",\"0.0-113.0\",\"\",\"\",\"1-1\",\"4846\",\"39\",\"1\",\"Training\",\"Stims/Figures/102-J-10-4.bmp\",\"sa:saza\",\"Left\",\"39\",\"7\",\"14\",\"8\",\"C2\",\"J\",\"110\"
\"\",\"\",\"approach-retreat\",\"114\",\"857857\",\"0.0-114.0\",\"\",\"\",\"1-1\",\"4235\",\"39\",\"1\",\"Training\",\"Stims/Figures/100-J-10-3.bmp\",\"za:saza\",\"Left\",\"39\",\"7\",\"15\",\"8\",\"C2\",\"J\",\"111\"
\"\",\"\",\"approach-retreat\",\"115\",\"864009\",\"0.0-115.0\",\"\",\"\",\"1-1\",\"4637\",\"37\",\"0\",\"Training\",\"Stims/Figures/139-J-0-2.bmp\",\"va:shasha\",\"Left\",\"39\",\"7\",\"16\",\"8\",\"C1\",\"J\",\"112\"
\"\",\"\",\"approach-retreat\",\"116\",\"869963\",\"0.0-116.0\",\"\",\"\",\"1-1\",\"4439\",\"37\",\"1\",\"Training\",\"Stims/Figures/94-J-0-2.bmp\",\"fashasha\",\"Right\",\"37\",\"8\",\"1\",\"8\",\"C1\",\"J\",\"113\"
\"\",\"\",\"approach-retreat\",\"117\",\"875649\",\"0.0-117.0\",\"\",\"\",\"1-1\",\"4172\",\"38\",\"1\",\"Training\",\"Stims/Figures/7-C-20-4.bmp\",\"sa:haha\",\"Up\",\"38\",\"8\",\"2\",\"8\",\"C2\",\"J\",\"114\"
\"\",\"\",\"approach-retreat\",\"118\",\"881322\",\"0.0-118.0\",\"\",\"\",\"1-1\",\"4160\",\"40\",\"0\",\"Training\",\"Stims/Figures/102-J-10-4.bmp\",\"sa:saza\",\"Down\",\"38\",\"8\",\"3\",\"8\",\"C2\",\"J\",\"115\"
\"\",\"\",\"approach-retreat\",\"119\",\"887085\",\"0.0-119.0\",\"\",\"\",\"1-1\",\"4221\",\"37\",\"1\",\"Training\",\"Stims/Figures/44-C-30-3.bmp\",\"sasa:ha\",\"Left\",\"37\",\"8\",\"4\",\"8\",\"C2\",\"J\",\"116\"
\"\",\"\",\"approach-retreat\",\"120\",\"893351\",\"0.0-120.0\",\"\",\"\",\"1-1\",\"4749\",\"39\",\"1\",\"Training\",\"Stims/Figures/100-C-30-3.bmp\",\"sa:saha\",\"Right\",\"39\",\"8\",\"5\",\"8\",\"C2\",\"J\",\"117\"
\"\",\"\",\"approach-retreat\",\"121\",\"899593\",\"0.0-121.0\",\"\",\"\",\"1-1\",\"4714\",\"37\",\"0\",\"Training\",\"Stims/Figures/57-J-0-1.bmp\",\"fafasha\",\"Left\",\"39\",\"8\",\"6\",\"8\",\"C1\",\"J\",\"118\"
\"\",\"\",\"approach-retreat\",\"122\",\"905572\",\"0.0-122.0\",\"\",\"\",\"1-1\",\"4467\",\"38\",\"1\",\"Training\",\"Stims/Figures/94-C-20-2.bmp\",\"fasha:va\",\"Up\",\"38\",\"8\",\"7\",\"8\",\"C1\",\"J\",\"119\"
\"\",\"\",\"approach-retreat\",\"123\",\"911802\",\"0.0-123.0\",\"\",\"\",\"1-1\",\"4716\",\"38\",\"0\",\"Training\",\"Stims/Figures/71-J-0-1.bmp\",\"vafa:sha\",\"Up\",\"40\",\"8\",\"8\",\"8\",\"C1\",\"J\",\"120\"
\"\",\"\",\"approach-retreat\",\"124\",\"917707\",\"0.0-124.0\",\"\",\"\",\"1-1\",\"4392\",\"37\",\"0\",\"Training\",\"Stims/Figures/102-C-20-4.bmp\",\"zasaha\",\"Right\",\"39\",\"8\",\"9\",\"8\",\"C2\",\"J\",\"121\"
\"\",\"\",\"approach-retreat\",\"125\",\"923427\",\"0.0-125.0\",\"\",\"\",\"1-1\",\"4208\",\"39\",\"0\",\"Training\",\"Stims/Figures/100-J-10-3.bmp\",\"za:saza\",\"Right\",\"37\",\"8\",\"10\",\"8\",\"C2\",\"J\",\"122\"
\"\",\"\",\"approach-retreat\",\"126\",\"929226\",\"0.0-126.0\",\"\",\"\",\"1-1\",\"4286\",\"37\",\"1\",\"Training\",\"Stims/Figures/57-C-30-1.bmp\",\"vafa:va\",\"Left\",\"37\",\"8\",\"11\",\"8\",\"C1\",\"J\",\"123\"
\"\",\"\",\"approach-retreat\",\"127\",\"935026\",\"0.0-127.0\",\"\",\"\",\"1-1\",\"4284\",\"38\",\"0\",\"Training\",\"Stims/Figures/7-J-10-4.bmp\",\"sa:sa:za\",\"Up\",\"40\",\"8\",\"12\",\"8\",\"C2\",\"J\",\"124\"
\"\",\"\",\"approach-retreat\",\"128\",\"940800\",\"0.0-128.0\",\"\",\"\",\"1-1\",\"4262\",\"38\",\"1\",\"Training\",\"Stims/Figures/139-J-0-2.bmp\",\"va:shasha\",\"Down\",\"38\",\"8\",\"13\",\"8\",\"C1\",\"J\",\"125\"
\"\",\"\",\"approach-retreat\",\"129\",\"946518\",\"0.0-129.0\",\"\",\"\",\"1-1\",\"4190\",\"38\",\"1\",\"Training\",\"Stims/Figures/44-J-10-3.bmp\",\"zasa:ha\",\"Down\",\"38\",\"8\",\"14\",\"8\",\"C2\",\"J\",\"126\"
\"\",\"\",\"approach-retreat\",\"130\",\"952243\",\"0.0-130.0\",\"\",\"\",\"1-1\",\"4208\",\"39\",\"0\",\"Training\",\"Stims/Figures/71-C-30-1.bmp\",\"fashava\",\"Left\",\"37\",\"8\",\"15\",\"8\",\"C1\",\"J\",\"127\"
\"\",\"\",\"approach-retreat\",\"131\",\"958000\",\"0.0-131.0\",\"\",\"\",\"1-1\",\"4238\",\"38\",\"0\",\"Training\",\"Stims/Figures/139-C-20-2.bmp\",\"vasha:sha\",\"Down\",\"40\",\"8\",\"16\",\"8\",\"C1\",\"J\",\"128\"
\"\",\"\",\"approach-retreat\",\"132\",\"963600\",\"0.0-132.0\",\"\",\"\",\"1-1\",\"4087\",\"39\",\"1\",\"Training\",\"Stims/Figures/94-J-0-2.bmp\",\"fashasha\",\"Left\",\"39\",\"9\",\"1\",\"8\",\"C1\",\"J\",\"129\"
\"\",\"\",\"approach-retreat\",\"133\",\"969161\",\"0.0-133.0\",\"\",\"\",\"1-1\",\"4048\",\"39\",\"1\",\"Training\",\"Stims/Figures/7-J-10-4.bmp\",\"sa:sa:za\",\"Left\",\"39\",\"9\",\"2\",\"8\",\"C2\",\"J\",\"130\"
\"\",\"\",\"approach-retreat\",\"134\",\"975505\",\"0.0-134.0\",\"\",\"\",\"1-1\",\"4828\",\"39\",\"1\",\"Training\",\"Stims/Figures/57-C-30-1.bmp\",\"vafa:va\",\"Right\",\"39\",\"9\",\"3\",\"8\",\"C1\",\"J\",\"131\"
\"\",\"\",\"approach-retreat\",\"135\",\"981310\",\"0.0-135.0\",\"\",\"\",\"1-1\",\"4288\",\"38\",\"0\",\"Training\",\"Stims/Figures/71-C-30-1.bmp\",\"fashava\",\"Down\",\"40\",\"9\",\"4\",\"8\",\"C1\",\"J\",\"132\"
\"\",\"\",\"approach-retreat\",\"136\",\"987020\",\"0.0-136.0\",\"\",\"\",\"1-1\",\"4199\",\"40\",\"1\",\"Training\",\"Stims/Figures/102-J-10-4.bmp\",\"sa:saza\",\"Up\",\"40\",\"9\",\"5\",\"8\",\"C2\",\"J\",\"133\"
\"\",\"\",\"approach-retreat\",\"137\",\"993225\",\"0.0-137.0\",\"\",\"\",\"1-1\",\"4690\",\"39\",\"0\",\"Training\",\"Stims/Figures/71-J-0-1.bmp\",\"vafa:sha\",\"Right\",\"37\",\"9\",\"6\",\"8\",\"C1\",\"J\",\"134\"
\"\",\"\",\"approach-retreat\",\"138\",\"998834\",\"0.0-138.0\",\"\",\"\",\"1-1\",\"4095\",\"40\",\"1\",\"Training\",\"Stims/Figures/100-J-10-3.bmp\",\"za:saza\",\"Up\",\"40\",\"9\",\"7\",\"8\",\"C2\",\"J\",\"135\"
\"\",\"\",\"approach-retreat\",\"139\",\"1005128\",\"0.0-139.0\",\"\",\"\",\"1-1\",\"4781\",\"38\",\"0\",\"Training\",\"Stims/Figures/102-C-20-4.bmp\",\"zasaha\",\"Down\",\"40\",\"9\",\"8\",\"8\",\"C2\",\"J\",\"136\"
\"\",\"\",\"approach-retreat\",\"140\",\"1010638\",\"0.0-140.0\",\"\",\"\",\"1-1\",\"3997\",\"38\",\"1\",\"Training\",\"Stims/Figures/94-C-20-2.bmp\",\"fasha:va\",\"Up\",\"38\",\"9\",\"9\",\"8\",\"C1\",\"J\",\"137\"
\"\",\"\",\"approach-retreat\",\"141\",\"1017059\",\"0.0-141.0\",\"\",\"\",\"1-1\",\"4903\",\"37\",\"1\",\"Training\",\"Stims/Figures/44-C-30-3.bmp\",\"sasa:ha\",\"Left\",\"37\",\"9\",\"10\",\"8\",\"C2\",\"J\",\"138\"
\"\",\"\",\"approach-retreat\",\"142\",\"1023359\",\"0.0-142.0\",\"\",\"\",\"1-1\",\"4785\",\"38\",\"0\",\"Training\",\"Stims/Figures/100-C-30-3.bmp\",\"sa:saha\",\"Down\",\"40\",\"9\",\"11\",\"8\",\"C2\",\"J\",\"139\"
\"\",\"\",\"approach-retreat\",\"143\",\"1029409\",\"0.0-143.0\",\"\",\"\",\"1-1\",\"4537\",\"39\",\"0\",\"Training\",\"Stims/Figures/57-J-0-1.bmp\",\"fafasha\",\"Right\",\"37\",\"9\",\"12\",\"8\",\"C1\",\"J\",\"140\"
\"\",\"\",\"approach-retreat\",\"144\",\"1035145\",\"0.0-144.0\",\"\",\"\",\"1-1\",\"4225\",\"38\",\"0\",\"Training\",\"Stims/Figures/7-C-20-4.bmp\",\"sa:haha\",\"Down\",\"40\",\"9\",\"13\",\"8\",\"C2\",\"J\",\"141\"
\"\",\"\",\"approach-retreat\",\"145\",\"1040957\",\"0.0-145.0\",\"\",\"\",\"1-1\",\"4281\",\"39\",\"1\",\"Training\",\"Stims/Figures/139-C-20-2.bmp\",\"vasha:sha\",\"Right\",\"39\",\"9\",\"14\",\"8\",\"C1\",\"J\",\"142\"
\"\",\"\",\"approach-retreat\",\"146\",\"1046720\",\"0.0-146.0\",\"\",\"\",\"1-1\",\"4246\",\"40\",\"1\",\"Training\",\"Stims/Figures/44-J-10-3.bmp\",\"zasa:ha\",\"Up\",\"40\",\"9\",\"15\",\"8\",\"C2\",\"J\",\"143\"
\"\",\"\",\"approach-retreat\",\"147\",\"1052704\",\"0.0-147.0\",\"\",\"\",\"1-1\",\"4469\",\"37\",\"0\",\"Training\",\"Stims/Figures/139-J-0-2.bmp\",\"va:shasha\",\"Left\",\"39\",\"9\",\"16\",\"8\",\"C1\",\"J\",\"144\"
\"10288\",\"\",\"instructions\",\"148\",\"1062993\",\"0.0-148.0\",\"[{\"\"page_index\"\":0,\"\"viewing_time\"\":10287}]\",\"\",\"\",\"\",\"\",\"\",\"\",\"\",\"\",\"\",\"\",\"\",\"\",\"\",\"\",\"\",\"\"
\"\",\"\",\"approach-retreat\",\"149\",\"1069775\",\"0.0-149.0\",\"\",\"\",\"1-1\",\"5272\",\"38\",\"1\",\"Testing\",\"Stims/Figures/102-J-10-4.bmp\",\"sa:saza\",\"Down\",\"38\",\"1\",\"1\",\"8\",\"C2\",\"J\",\"1\"
\"\",\"\",\"approach-retreat\",\"150\",\"1077269\",\"0.0-150.0\",\"\",\"\",\"1-1\",\"5983\",\"38\",\"0\",\"Testing\",\"Stims/Figures/57-J-0-1.bmp\",\"fafasha\",\"Up\",\"40\",\"1\",\"2\",\"8\",\"C1\",\"J\",\"2\"
\"\",\"\",\"approach-retreat\",\"151\",\"1083222\",\"0.0-151.0\",\"\",\"\",\"1-1\",\"4443\",\"39\",\"1\",\"Testing\",\"Stims/Figures/85-C-20-2.bmp\",\"fafava\",\"Right\",\"39\",\"1\",\"3\",\"8\",\"C1\",\"J\",\"3\"
\"\",\"\",\"approach-retreat\",\"152\",\"1090917\",\"0.0-152.0\",\"\",\"\",\"1-1\",\"6182\",\"39\",\"0\",\"Testing\",\"Stims/Figures/57-C-30-1.bmp\",\"vafa:va\",\"Left\",\"37\",\"1\",\"4\",\"8\",\"C1\",\"J\",\"4\"
\"\",\"\",\"approach-retreat\",\"153\",\"1097652\",\"0.0-153.0\",\"\",\"\",\"1-1\",\"5223\",\"39\",\"1\",\"Testing\",\"Stims/Figures/94-C-20-2.bmp\",\"fasha:va\",\"Right\",\"39\",\"1\",\"5\",\"8\",\"C1\",\"J\",\"5\"
\"\",\"\",\"approach-retreat\",\"154\",\"1103967\",\"0.0-154.0\",\"\",\"\",\"1-1\",\"4805\",\"38\",\"0\",\"Testing\",\"Stims/Figures/100-C-30-3.bmp\",\"sa:saha\",\"Down\",\"40\",\"1\",\"6\",\"8\",\"C2\",\"J\",\"6\"
\"\",\"\",\"approach-retreat\",\"155\",\"1111498\",\"0.0-155.0\",\"\",\"\",\"1-1\",\"6020\",\"37\",\"1\",\"Testing\",\"Stims/Figures/71-C-30-1.bmp\",\"fashava\",\"Left\",\"37\",\"1\",\"7\",\"8\",\"C1\",\"J\",\"7\"
\"\",\"\",\"approach-retreat\",\"156\",\"1117910\",\"0.0-156.0\",\"\",\"\",\"1-1\",\"4902\",\"40\",\"0\",\"Testing\",\"Stims/Figures/74-C-20-4.bmp\",\"za:haza\",\"Up\",\"38\",\"1\",\"8\",\"8\",\"C2\",\"J\",\"8\"
\"\",\"\",\"approach-retreat\",\"157\",\"1145072\",\"0.0-157.0\",\"\",\"\",\"1-1\",\"25652\",\"38\",\"0\",\"Testing\",\"Stims/Figures/85-J-0-2.bmp\",\"va:fa:sha\",\"Up\",\"40\",\"1\",\"9\",\"8\",\"C1\",\"J\",\"9\"
\"\",\"\",\"approach-retreat\",\"158\",\"1151056\",\"0.0-158.0\",\"\",\"\",\"1-1\",\"4475\",\"39\",\"0\",\"Testing\",\"Stims/Figures/144-C-30-3.bmp\",\"zaha:za\",\"Left\",\"37\",\"1\",\"10\",\"8\",\"C2\",\"J\",\"10\"
\"\",\"\",\"approach-retreat\",\"159\",\"1157278\",\"0.0-159.0\",\"\",\"\",\"1-1\",\"4709\",\"37\",\"1\",\"Testing\",\"Stims/Figures/94-J-0-2.bmp\",\"fashasha\",\"Right\",\"37\",\"1\",\"11\",\"8\",\"C1\",\"J\",\"11\"
\"\",\"\",\"approach-retreat\",\"160\",\"1164543\",\"0.0-160.0\",\"\",\"\",\"1-1\",\"5754\",\"40\",\"1\",\"Testing\",\"Stims/Figures/7-C-20-4.bmp\",\"sa:haha\",\"Down\",\"40\",\"1\",\"12\",\"8\",\"C2\",\"J\",\"12\"
\"\",\"\",\"approach-retreat\",\"161\",\"1170418\",\"0.0-161.0\",\"\",\"\",\"1-1\",\"4365\",\"40\",\"1\",\"Testing\",\"Stims/Figures/144-J-10-3.bmp\",\"za:ha:ha\",\"Up\",\"40\",\"1\",\"13\",\"8\",\"C2\",\"J\",\"13\"
\"\",\"\",\"approach-retreat\",\"162\",\"1176796\",\"0.0-162.0\",\"\",\"\",\"1-1\",\"4867\",\"40\",\"0\",\"Testing\",\"Stims/Figures/139-J-0-2.bmp\",\"va:shasha\",\"Down\",\"38\",\"1\",\"14\",\"8\",\"C1\",\"J\",\"14\"
\"\",\"\",\"approach-retreat\",\"163\",\"1183413\",\"0.0-163.0\",\"\",\"\",\"1-1\",\"5083\",\"39\",\"0\",\"Testing\",\"Stims/Figures/100-J-10-3.bmp\",\"za:saza\",\"Right\",\"37\",\"1\",\"15\",\"8\",\"C2\",\"J\",\"15\"
\"\",\"\",\"approach-retreat\",\"164\",\"1189176\",\"0.0-164.0\",\"\",\"\",\"1-1\",\"4252\",\"40\",\"0\",\"Testing\",\"Stims/Figures/74-J-10-4.bmp\",\"za:saha\",\"Down\",\"38\",\"1\",\"16\",\"8\",\"C2\",\"J\",\"16\"
\"\",\"\",\"approach-retreat\",\"165\",\"1195226\",\"0.0-165.0\",\"\",\"\",\"1-1\",\"4527\",\"37\",\"1\",\"Testing\",\"Stims/Figures/27-J-0-1.bmp\",\"fasha:sha\",\"Right\",\"37\",\"1\",\"17\",\"8\",\"C1\",\"J\",\"17\"
\"\",\"\",\"approach-retreat\",\"166\",\"1202972\",\"0.0-166.0\",\"\",\"\",\"1-1\",\"6236\",\"37\",\"0\",\"Testing\",\"Stims/Figures/7-J-10-4.bmp\",\"sa:sa:za\",\"Left\",\"39\",\"1\",\"18\",\"8\",\"C2\",\"J\",\"18\"
\"\",\"\",\"approach-retreat\",\"167\",\"1209006\",\"0.0-167.0\",\"\",\"\",\"1-1\",\"4515\",\"37\",\"0\",\"Testing\",\"Stims/Figures/71-J-0-1.bmp\",\"vafa:sha\",\"Left\",\"39\",\"1\",\"19\",\"8\",\"C1\",\"J\",\"19\"
\"\",\"\",\"approach-retreat\",\"168\",\"1215706\",\"0.0-168.0\",\"\",\"\",\"1-1\",\"5187\",\"38\",\"0\",\"Testing\",\"Stims/Figures/44-J-10-3.bmp\",\"zasa:ha\",\"Up\",\"40\",\"1\",\"20\",\"8\",\"C2\",\"J\",\"20\"
\"\",\"\",\"approach-retreat\",\"169\",\"1223697\",\"0.0-169.0\",\"\",\"\",\"1-1\",\"6482\",\"40\",\"0\",\"Testing\",\"Stims/Figures/44-C-30-3.bmp\",\"sasa:ha\",\"Up\",\"38\",\"1\",\"21\",\"8\",\"C2\",\"J\",\"21\"
\"\",\"\",\"approach-retreat\",\"170\",\"1230494\",\"0.0-170.0\",\"\",\"\",\"1-1\",\"5286\",\"39\",\"1\",\"Testing\",\"Stims/Figures/102-C-20-4.bmp\",\"zasaha\",\"Right\",\"39\",\"1\",\"22\",\"8\",\"C2\",\"J\",\"22\"
\"\",\"\",\"approach-retreat\",\"171\",\"1237148\",\"0.0-171.0\",\"\",\"\",\"1-1\",\"5144\",\"40\",\"1\",\"Testing\",\"Stims/Figures/139-C-20-2.bmp\",\"vasha:sha\",\"Down\",\"40\",\"1\",\"23\",\"8\",\"C1\",\"J\",\"23\"
\"\",\"\",\"approach-retreat\",\"172\",\"1245391\",\"0.0-172.0\",\"\",\"\",\"1-1\",\"6733\",\"37\",\"1\",\"Testing\",\"Stims/Figures/27-C-30-1.bmp\",\"vashava\",\"Left\",\"37\",\"1\",\"24\",\"8\",\"C1\",\"J\",\"24\"
\"\",\"\",\"approach-retreat\",\"173\",\"1256605\",\"0.0-173.0\",\"\",\"\",\"1-1\",\"9702\",\"38\",\"1\",\"Testing\",\"Stims/Figures/44-J-10-3.bmp\",\"zasa:ha\",\"Down\",\"38\",\"2\",\"1\",\"8\",\"C2\",\"J\",\"25\"
\"\",\"\",\"approach-retreat\",\"174\",\"1263423\",\"0.0-174.0\",\"\",\"\",\"1-1\",\"5308\",\"40\",\"0\",\"Testing\",\"Stims/Figures/71-C-30-1.bmp\",\"fashava\",\"Up\",\"38\",\"2\",\"2\",\"8\",\"C1\",\"J\",\"26\"
\"\",\"\",\"approach-retreat\",\"175\",\"1272149\",\"0.0-175.0\",\"\",\"\",\"1-1\",\"7214\",\"37\",\"0\",\"Testing\",\"Stims/Figures/27-J-0-1.bmp\",\"fasha:sha\",\"Left\",\"39\",\"2\",\"3\",\"8\",\"C1\",\"J\",\"27\"
\"\",\"\",\"approach-retreat\",\"176\",\"1283024\",\"0.0-176.0\",\"\",\"\",\"1-1\",\"9365\",\"38\",\"0\",\"Testing\",\"Stims/Figures/94-C-20-2.bmp\",\"fasha:va\",\"Down\",\"40\",\"2\",\"4\",\"8\",\"C1\",\"J\",\"28\"
\"\",\"\",\"approach-retreat\",\"177\",\"1289406\",\"0.0-177.0\",\"\",\"\",\"1-1\",\"4869\",\"37\",\"0\",\"Testing\",\"Stims/Figures/100-J-10-3.bmp\",\"za:saza\",\"Left\",\"39\",\"2\",\"5\",\"8\",\"C2\",\"J\",\"29\"
\"\",\"\",\"approach-retreat\",\"178\",\"1295301\",\"0.0-178.0\",\"\",\"\",\"1-1\",\"4385\",\"38\",\"0\",\"Testing\",\"Stims/Figures/100-C-30-3.bmp\",\"sa:saha\",\"Down\",\"40\",\"2\",\"6\",\"8\",\"C2\",\"J\",\"30\"
\"\",\"\",\"approach-retreat\",\"179\",\"1301130\",\"0.0-179.0\",\"\",\"\",\"1-1\",\"4318\",\"37\",\"1\",\"Testing\",\"Stims/Figures/94-J-0-2.bmp\",\"fashasha\",\"Right\",\"37\",\"2\",\"7\",\"8\",\"C1\",\"J\",\"31\"
\"\",\"\",\"approach-retreat\",\"180\",\"1306890\",\"0.0-180.0\",\"\",\"\",\"1-1\",\"4249\",\"39\",\"1\",\"Testing\",\"Stims/Figures/144-C-30-3.bmp\",\"zaha:za\",\"Right\",\"39\",\"2\",\"8\",\"8\",\"C2\",\"J\",\"32\"
\"\",\"\",\"approach-retreat\",\"181\",\"1312958\",\"0.0-181.0\",\"\",\"\",\"1-1\",\"4558\",\"38\",\"1\",\"Testing\",\"Stims/Figures/7-C-20-4.bmp\",\"sa:haha\",\"Up\",\"38\",\"2\",\"9\",\"8\",\"C2\",\"J\",\"33\"
\"\",\"\",\"approach-retreat\",\"182\",\"1320758\",\"0.0-182.0\",\"\",\"\",\"1-1\",\"6290\",\"37\",\"1\",\"Testing\",\"Stims/Figures/7-J-10-4.bmp\",\"sa:sa:za\",\"Right\",\"37\",\"2\",\"10\",\"8\",\"C2\",\"J\",\"34\"
\"\",\"\",\"approach-retreat\",\"183\",\"1326876\",\"0.0-183.0\",\"\",\"\",\"1-1\",\"4606\",\"40\",\"1\",\"Testing\",\"Stims/Figures/144-J-10-3.bmp\",\"za:ha:ha\",\"Up\",\"40\",\"2\",\"11\",\"8\",\"C2\",\"J\",\"35\"
\"\",\"\",\"approach-retreat\",\"184\",\"1347311\",\"0.0-184.0\",\"\",\"\",\"1-1\",\"18923\",\"37\",\"1\",\"Testing\",\"Stims/Figures/57-J-0-1.bmp\",\"fafasha\",\"Right\",\"37\",\"2\",\"12\",\"8\",\"C1\",\"J\",\"36\"
\"\",\"\",\"approach-retreat\",\"185\",\"1354227\",\"0.0-185.0\",\"\",\"\",\"1-1\",\"5407\",\"39\",\"0\",\"Testing\",\"Stims/Figures/74-C-20-4.bmp\",\"za:haza\",\"Left\",\"37\",\"2\",\"13\",\"8\",\"C2\",\"J\",\"37\"
\"\",\"\",\"approach-retreat\",\"186\",\"1372937\",\"0.0-186.0\",\"\",\"\",\"1-1\",\"17200\",\"40\",\"0\",\"Testing\",\"Stims/Figures/85-J-0-2.bmp\",\"va:fa:sha\",\"Down\",\"38\",\"2\",\"14\",\"8\",\"C1\",\"J\",\"38\"
\"\",\"\",\"approach-retreat\",\"187\",\"1379028\",\"0.0-187.0\",\"\",\"\",\"1-1\",\"4553\",\"39\",\"1\",\"Testing\",\"Stims/Figures/139-C-20-2.bmp\",\"vasha:sha\",\"Right\",\"39\",\"2\",\"15\",\"8\",\"C1\",\"J\",\"39\"
\"\",\"\",\"approach-retreat\",\"188\",\"1387193\",\"0.0-188.0\",\"\",\"\",\"1-1\",\"6655\",\"37\",\"0\",\"Testing\",\"Stims/Figures/44-C-30-3.bmp\",\"sasa:ha\",\"Right\",\"39\",\"2\",\"16\",\"8\",\"C2\",\"J\",\"40\"
\"\",\"\",\"approach-retreat\",\"189\",\"1394440\",\"0.0-189.0\",\"\",\"\",\"1-1\",\"5738\",\"38\",\"0\",\"Testing\",\"Stims/Figures/102-J-10-4.bmp\",\"sa:saza\",\"Up\",\"40\",\"2\",\"17\",\"8\",\"C2\",\"J\",\"41\"
\"\",\"\",\"approach-retreat\",\"190\",\"1400552\",\"0.0-190.0\",\"\",\"\",\"1-1\",\"4602\",\"40\",\"0\",\"Testing\",\"Stims/Figures/139-J-0-2.bmp\",\"va:shasha\",\"Down\",\"38\",\"2\",\"18\",\"8\",\"C1\",\"J\",\"42\"
\"\",\"\",\"approach-retreat\",\"191\",\"1407386\",\"0.0-191.0\",\"\",\"\",\"1-1\",\"5325\",\"38\",\"1\",\"Testing\",\"Stims/Figures/85-C-20-2.bmp\",\"fafava\",\"Up\",\"38\",\"2\",\"19\",\"8\",\"C1\",\"J\",\"43\"
\"\",\"\",\"approach-retreat\",\"192\",\"1413382\",\"0.0-192.0\",\"\",\"\",\"1-1\",\"4487\",\"40\",\"0\",\"Testing\",\"Stims/Figures/57-C-30-1.bmp\",\"vafa:va\",\"Up\",\"38\",\"2\",\"20\",\"8\",\"C1\",\"J\",\"44\"
\"\",\"\",\"approach-retreat\",\"193\",\"1426075\",\"0.0-193.0\",\"\",\"\",\"1-1\",\"11183\",\"37\",\"0\",\"Testing\",\"Stims/Figures/74-J-10-4.bmp\",\"za:saha\",\"Left\",\"39\",\"2\",\"21\",\"8\",\"C2\",\"J\",\"45\"
\"\",\"\",\"approach-retreat\",\"194\",\"1432242\",\"0.0-194.0\",\"\",\"\",\"1-1\",\"4635\",\"37\",\"0\",\"Testing\",\"Stims/Figures/71-J-0-1.bmp\",\"vafa:sha\",\"Left\",\"39\",\"2\",\"22\",\"8\",\"C1\",\"J\",\"46\"
\"\",\"\",\"approach-retreat\",\"195\",\"1439179\",\"0.0-195.0\",\"\",\"\",\"1-1\",\"5426\",\"39\",\"0\",\"Testing\",\"Stims/Figures/102-C-20-4.bmp\",\"zasaha\",\"Left\",\"37\",\"2\",\"23\",\"8\",\"C2\",\"J\",\"47\"
\"\",\"\",\"approach-retreat\",\"196\",\"1445063\",\"0.0-196.0\",\"\",\"\",\"1-1\",\"4375\",\"40\",\"1\",\"Testing\",\"Stims/Figures/27-C-30-1.bmp\",\"vashava\",\"Down\",\"40\",\"2\",\"24\",\"8\",\"C1\",\"J\",\"48\"
\"\",\"\",\"approach-retreat\",\"197\",\"1450985\",\"0.0-197.0\",\"\",\"\",\"1-1\",\"4413\",\"37\",\"0\",\"Testing\",\"Stims/Figures/100-J-10-3.bmp\",\"za:saza\",\"Left\",\"39\",\"3\",\"1\",\"8\",\"C2\",\"J\",\"49\"
\"\",\"\",\"approach-retreat\",\"198\",\"1456784\",\"0.0-198.0\",\"\",\"\",\"1-1\",\"4289\",\"40\",\"0\",\"Testing\",\"Stims/Figures/7-C-20-4.bmp\",\"sa:haha\",\"Up\",\"38\",\"3\",\"2\",\"8\",\"C2\",\"J\",\"50\"
\"\",\"\",\"approach-retreat\",\"199\",\"1462653\",\"0.0-199.0\",\"\",\"\",\"1-1\",\"4355\",\"40\",\"0\",\"Testing\",\"Stims/Figures/144-C-30-3.bmp\",\"zaha:za\",\"Up\",\"38\",\"3\",\"3\",\"8\",\"C2\",\"J\",\"51\"
\"\",\"\",\"approach-retreat\",\"200\",\"1469222\",\"0.0-200.0\",\"\",\"\",\"1-1\",\"5057\",\"38\",\"0\",\"Testing\",\"Stims/Figures/102-J-10-4.bmp\",\"sa:saza\",\"Up\",\"40\",\"3\",\"4\",\"8\",\"C2\",\"J\",\"52\"
\"\",\"\",\"approach-retreat\",\"201\",\"1476884\",\"0.0-201.0\",\"\",\"\",\"1-1\",\"6153\",\"39\",\"0\",\"Testing\",\"Stims/Figures/100-C-30-3.bmp\",\"sa:saha\",\"Left\",\"37\",\"3\",\"5\",\"8\",\"C2\",\"J\",\"53\"
\"\",\"\",\"approach-retreat\",\"202\",\"1483500\",\"0.0-202.0\",\"\",\"\",\"1-1\",\"5106\",\"37\",\"1\",\"Testing\",\"Stims/Figures/74-J-10-4.bmp\",\"za:saha\",\"Right\",\"37\",\"3\",\"6\",\"8\",\"C2\",\"J\",\"54\"
\"\",\"\",\"approach-retreat\",\"203\",\"1489204\",\"0.0-203.0\",\"\",\"\",\"1-1\",\"4193\",\"40\",\"1\",\"Testing\",\"Stims/Figures/144-J-10-3.bmp\",\"za:ha:ha\",\"Up\",\"40\",\"3\",\"7\",\"8\",\"C2\",\"J\",\"55\"
\"\",\"\",\"approach-retreat\",\"204\",\"1495177\",\"0.0-204.0\",\"\",\"\",\"1-1\",\"4464\",\"38\",\"0\",\"Testing\",\"Stims/Figures/94-C-20-2.bmp\",\"fasha:va\",\"Down\",\"40\",\"3\",\"8\",\"8\",\"C1\",\"J\",\"56\"
\"\",\"\",\"approach-retreat\",\"205\",\"1503722\",\"0.0-205.0\",\"\",\"\",\"1-1\",\"7035\",\"40\",\"0\",\"Testing\",\"Stims/Figures/102-C-20-4.bmp\",\"zasaha\",\"Up\",\"38\",\"3\",\"9\",\"8\",\"C2\",\"J\",\"57\"
\"\",\"\",\"approach-retreat\",\"206\",\"1509658\",\"0.0-206.0\",\"\",\"\",\"1-1\",\"4426\",\"38\",\"1\",\"Testing\",\"Stims/Figures/7-J-10-4.bmp\",\"sa:sa:za\",\"Down\",\"38\",\"3\",\"10\",\"8\",\"C2\",\"J\",\"58\"
\"\",\"\",\"approach-retreat\",\"207\",\"1518695\",\"0.0-207.0\",\"\",\"\",\"1-1\",\"7527\",\"39\",\"0\",\"Testing\",\"Stims/Figures/57-J-0-1.bmp\",\"fafasha\",\"Right\",\"37\",\"3\",\"11\",\"8\",\"C1\",\"J\",\"59\"
\"\",\"\",\"approach-retreat\",\"208\",\"1525831\",\"0.0-208.0\",\"\",\"\",\"1-1\",\"5627\",\"37\",\"0\",\"Testing\",\"Stims/Figures/27-J-0-1.bmp\",\"fasha:sha\",\"Left\",\"39\",\"3\",\"12\",\"8\",\"C1\",\"J\",\"60\"
\"\",\"\",\"approach-retreat\",\"209\",\"1535369\",\"0.0-209.0\",\"\",\"\",\"1-1\",\"8026\",\"37\",\"1\",\"Testing\",\"Stims/Figures/71-C-30-1.bmp\",\"fashava\",\"Left\",\"37\",\"3\",\"13\",\"8\",\"C1\",\"J\",\"61\"
\"\",\"\",\"approach-retreat\",\"210\",\"1544241\",\"0.0-210.0\",\"\",\"\",\"1-1\",\"7362\",\"40\",\"0\",\"Testing\",\"Stims/Figures/85-J-0-2.bmp\",\"va:fa:sha\",\"Down\",\"38\",\"3\",\"14\",\"8\",\"C1\",\"J\",\"62\"
\"\",\"\",\"approach-retreat\",\"211\",\"1550144\",\"0.0-211.0\",\"\",\"\",\"1-1\",\"4366\",\"37\",\"0\",\"Testing\",\"Stims/Figures/44-C-30-3.bmp\",\"sasa:ha\",\"Right\",\"39\",\"3\",\"15\",\"8\",\"C2\",\"J\",\"63\"
\"\",\"\",\"approach-retreat\",\"212\",\"1555915\",\"0.0-212.0\",\"\",\"\",\"1-1\",\"4262\",\"39\",\"1\",\"Testing\",\"Stims/Figures/57-C-30-1.bmp\",\"vafa:va\",\"Right\",\"39\",\"3\",\"16\",\"8\",\"C1\",\"J\",\"64\"
\"\",\"\",\"approach-retreat\",\"213\",\"1562828\",\"0.0-213.0\",\"\",\"\",\"1-1\",\"5402\",\"38\",\"1\",\"Testing\",\"Stims/Figures/44-J-10-3.bmp\",\"zasa:ha\",\"Down\",\"38\",\"3\",\"17\",\"8\",\"C2\",\"J\",\"65\"
\"\",\"\",\"approach-retreat\",\"214\",\"1574340\",\"0.0-214.0\",\"\",\"\",\"1-1\",\"10001\",\"38\",\"0\",\"Testing\",\"Stims/Figures/71-J-0-1.bmp\",\"vafa:sha\",\"Up\",\"40\",\"3\",\"18\",\"8\",\"C1\",\"J\",\"66\"
\"\",\"\",\"approach-retreat\",\"215\",\"1580475\",\"0.0-215.0\",\"\",\"\",\"1-1\",\"4606\",\"39\",\"0\",\"Testing\",\"Stims/Figures/27-C-30-1.bmp\",\"vashava\",\"Left\",\"37\",\"3\",\"19\",\"8\",\"C1\",\"J\",\"67\"
\"\",\"\",\"approach-retreat\",\"216\",\"1587215\",\"0.0-216.0\",\"\",\"\",\"1-1\",\"5213\",\"37\",\"0\",\"Testing\",\"Stims/Figures/85-C-20-2.bmp\",\"fafava\",\"Right\",\"39\",\"3\",\"20\",\"8\",\"C1\",\"J\",\"68\"
\"\",\"\",\"approach-retreat\",\"217\",\"1594766\",\"0.0-217.0\",\"\",\"\",\"1-1\",\"6040\",\"38\",\"0\",\"Testing\",\"Stims/Figures/74-C-20-4.bmp\",\"za:haza\",\"Down\",\"40\",\"3\",\"21\",\"8\",\"C2\",\"J\",\"69\"
\"\",\"\",\"approach-retreat\",\"218\",\"1600596\",\"0.0-218.0\",\"\",\"\",\"1-1\",\"4320\",\"39\",\"1\",\"Testing\",\"Stims/Figures/94-J-0-2.bmp\",\"fashasha\",\"Left\",\"39\",\"3\",\"22\",\"8\",\"C1\",\"J\",\"70\"
\"\",\"\",\"approach-retreat\",\"219\",\"1741533\",\"0.0-219.0\",\"\",\"\",\"1-1\",\"139427\",\"37\",\"1\",\"Testing\",\"Stims/Figures/139-J-0-2.bmp\",\"va:shasha\",\"Right\",\"37\",\"3\",\"23\",\"8\",\"C1\",\"J\",\"71\"
\"\",\"\",\"approach-retreat\",\"220\",\"1757972\",\"0.0-220.0\",\"\",\"\",\"1-1\",\"14928\",\"38\",\"0\",\"Testing\",\"Stims/Figures/139-C-20-2.bmp\",\"vasha:sha\",\"Down\",\"40\",\"3\",\"24\",\"8\",\"C1\",\"J\",\"72\"
\"\",\"\",\"approach-retreat\",\"221\",\"1764185\",\"0.0-221.0\",\"\",\"\",\"1-1\",\"4704\",\"40\",\"0\",\"Testing\",\"Stims/Figures/85-C-20-2.bmp\",\"fafava\",\"Up\",\"38\",\"4\",\"1\",\"8\",\"C1\",\"J\",\"73\"
\"\",\"\",\"approach-retreat\",\"222\",\"1771053\",\"0.0-222.0\",\"\",\"\",\"1-1\",\"5359\",\"37\",\"1\",\"Testing\",\"Stims/Figures/71-J-0-1.bmp\",\"vafa:sha\",\"Right\",\"37\",\"4\",\"2\",\"8\",\"C1\",\"J\",\"74\"
\"\",\"\",\"approach-retreat\",\"223\",\"1777269\",\"0.0-223.0\",\"\",\"\",\"1-1\",\"4705\",\"40\",\"1\",\"Testing\",\"Stims/Figures/44-C-30-3.bmp\",\"sasa:ha\",\"Down\",\"40\",\"4\",\"3\",\"8\",\"C2\",\"J\",\"75\"
\"\",\"\",\"approach-retreat\",\"224\",\"1783593\",\"0.0-224.0\",\"\",\"\",\"1-1\",\"4812\",\"37\",\"0\",\"Testing\",\"Stims/Figures/7-C-20-4.bmp\",\"sa:haha\",\"Right\",\"39\",\"4\",\"4\",\"8\",\"C2\",\"J\",\"76\"
\"\",\"\",\"approach-retreat\",\"225\",\"1789832\",\"0.0-225.0\",\"\",\"\",\"1-1\",\"4729\",\"39\",\"0\",\"Testing\",\"Stims/Figures/100-C-30-3.bmp\",\"sa:saha\",\"Left\",\"37\",\"4\",\"5\",\"8\",\"C2\",\"J\",\"77\"
\"\",\"\",\"approach-retreat\",\"226\",\"1796162\",\"0.0-226.0\",\"\",\"\",\"1-1\",\"4811\",\"37\",\"0\",\"Testing\",\"Stims/Figures/57-J-0-1.bmp\",\"fafasha\",\"Left\",\"39\",\"4\",\"6\",\"8\",\"C1\",\"J\",\"78\"
\"\",\"\",\"approach-retreat\",\"227\",\"1803118\",\"0.0-227.0\",\"\",\"\",\"1-1\",\"5446\",\"40\",\"1\",\"Testing\",\"Stims/Figures/27-J-0-1.bmp\",\"fasha:sha\",\"Up\",\"40\",\"4\",\"7\",\"8\",\"C1\",\"J\",\"79\"
\"\",\"\",\"approach-retreat\",\"228\",\"1810650\",\"0.0-228.0\",\"\",\"\",\"1-1\",\"6022\",\"39\",\"1\",\"Testing\",\"Stims/Figures/44-J-10-3.bmp\",\"zasa:ha\",\"Left\",\"39\",\"4\",\"8\",\"8\",\"C2\",\"J\",\"80\"
\"\",\"\",\"approach-retreat\",\"229\",\"1816681\",\"0.0-229.0\",\"\",\"\",\"1-1\",\"4522\",\"37\",\"0\",\"Testing\",\"Stims/Figures/139-C-20-2.bmp\",\"vasha:sha\",\"Right\",\"39\",\"4\",\"9\",\"8\",\"C1\",\"J\",\"81\"
\"\",\"\",\"approach-retreat\",\"230\",\"1822483\",\"0.0-230.0\",\"\",\"\",\"1-1\",\"4292\",\"40\",\"1\",\"Testing\",\"Stims/Figures/144-J-10-3.bmp\",\"za:ha:ha\",\"Up\",\"40\",\"4\",\"10\",\"8\",\"C2\",\"J\",\"82\"
\"\",\"\",\"approach-retreat\",\"231\",\"1829631\",\"0.0-231.0\",\"\",\"\",\"1-1\",\"5622\",\"40\",\"0\",\"Testing\",\"Stims/Figures/102-J-10-4.bmp\",\"sa:saza\",\"Down\",\"38\",\"4\",\"11\",\"8\",\"C2\",\"J\",\"83\"
\"\",\"\",\"approach-retreat\",\"232\",\"1836281\",\"0.0-232.0\",\"\",\"\",\"1-1\",\"5138\",\"39\",\"1\",\"Testing\",\"Stims/Figures/74-C-20-4.bmp\",\"za:haza\",\"Right\",\"39\",\"4\",\"12\",\"8\",\"C2\",\"J\",\"84\"
\"\",\"\",\"approach-retreat\",\"233\",\"1843384\",\"0.0-233.0\",\"\",\"\",\"1-1\",\"5577\",\"38\",\"0\",\"Testing\",\"Stims/Figures/144-C-30-3.bmp\",\"zaha:za\",\"Down\",\"40\",\"4\",\"13\",\"8\",\"C2\",\"J\",\"85\"
\"\",\"\",\"approach-retreat\",\"234\",\"1852825\",\"0.0-234.0\",\"\",\"\",\"1-1\",\"7931\",\"37\",\"0\",\"Testing\",\"Stims/Figures/139-J-0-2.bmp\",\"va:shasha\",\"Left\",\"39\",\"4\",\"14\",\"8\",\"C1\",\"J\",\"86\"
\"\",\"\",\"approach-retreat\",\"235\",\"1861524\",\"0.0-235.0\",\"\",\"\",\"1-1\",\"7188\",\"38\",\"1\",\"Testing\",\"Stims/Figures/27-C-30-1.bmp\",\"vashava\",\"Up\",\"38\",\"4\",\"15\",\"8\",\"C1\",\"J\",\"87\"
\"\",\"\",\"approach-retreat\",\"236\",\"1869362\",\"0.0-236.0\",\"\",\"\",\"1-1\",\"6329\",\"38\",\"0\",\"Testing\",\"Stims/Figures/57-C-30-1.bmp\",\"vafa:va\",\"Down\",\"40\",\"4\",\"16\",\"8\",\"C1\",\"J\",\"88\"
\"\",\"\",\"approach-retreat\",\"237\",\"1876441\",\"0.0-237.0\",\"\",\"\",\"1-1\",\"5570\",\"39\",\"0\",\"Testing\",\"Stims/Figures/100-J-10-3.bmp\",\"za:saza\",\"Right\",\"37\",\"4\",\"17\",\"8\",\"C2\",\"J\",\"89\"
\"\",\"\",\"approach-retreat\",\"238\",\"1882929\",\"0.0-238.0\",\"\",\"\",\"1-1\",\"4979\",\"39\",\"1\",\"Testing\",\"Stims/Figures/74-J-10-4.bmp\",\"za:saha\",\"Left\",\"39\",\"4\",\"18\",\"8\",\"C2\",\"J\",\"90\"
\"\",\"\",\"approach-retreat\",\"239\",\"1889464\",\"0.0-239.0\",\"\",\"\",\"1-1\",\"5025\",\"38\",\"0\",\"Testing\",\"Stims/Figures/94-J-0-2.bmp\",\"fashasha\",\"Up\",\"40\",\"4\",\"19\",\"8\",\"C1\",\"J\",\"91\"
\"\",\"\",\"approach-retreat\",\"240\",\"1895850\",\"0.0-240.0\",\"\",\"\",\"1-1\",\"4876\",\"37\",\"1\",\"Testing\",\"Stims/Figures/94-C-20-2.bmp\",\"fasha:va\",\"Left\",\"37\",\"4\",\"20\",\"8\",\"C1\",\"J\",\"92\"
\"\",\"\",\"approach-retreat\",\"241\",\"1902301\",\"0.0-241.0\",\"\",\"\",\"1-1\",\"4942\",\"38\",\"1\",\"Testing\",\"Stims/Figures/7-J-10-4.bmp\",\"sa:sa:za\",\"Down\",\"38\",\"4\",\"21\",\"8\",\"C2\",\"J\",\"93\"
\"\",\"\",\"approach-retreat\",\"242\",\"1914096\",\"0.0-242.0\",\"\",\"\",\"1-1\",\"10279\",\"38\",\"0\",\"Testing\",\"Stims/Figures/85-J-0-2.bmp\",\"va:fa:sha\",\"Up\",\"40\",\"4\",\"22\",\"8\",\"C1\",\"J\",\"94\"
\"\",\"\",\"approach-retreat\",\"243\",\"1919906\",\"0.0-243.0\",\"\",\"\",\"1-1\",\"4298\",\"38\",\"0\",\"Testing\",\"Stims/Figures/71-C-30-1.bmp\",\"fashava\",\"Down\",\"40\",\"4\",\"23\",\"8\",\"C1\",\"J\",\"95\"
\"\",\"\",\"approach-retreat\",\"244\",\"1926567\",\"0.0-244.0\",\"\",\"\",\"1-1\",\"5150\",\"37\",\"0\",\"Testing\",\"Stims/Figures/102-C-20-4.bmp\",\"zasaha\",\"Right\",\"39\",\"4\",\"24\",\"8\",\"C2\",\"J\",\"96\"
\"18697\",\"\",\"survey-text\",\"245\",\"1945276\",\"0.0-245.0\",\"\",\"{\"\"Q0\"\":\"\"PS160090\"\"}\",\"\",\"\",\"\",\"\",\"\",\"\",\"\",\"\",\"\",\"\",\"\",\"\",\"\",\"\",\"\"
