\"rt\",\"key_press\",\"trial_type\",\"trial_index\",\"time_elapsed\",\"internal_node_id\",\"view_history\",\"responses\",\"Id\",\"Rt\",\"ResKeyCode\",\"ResCorr\",\"TrialType2\",\"Image\",\"Label\",\"Location\",\"CorrectResponse\",\"Block\",\"BlockTrial\",\"Condition\",\"LabelType\",\"Subcondition\",\"trialNum\"
\"19638\",\"32\",\"text\",\"0\",\"19642\",\"0.0-0.0-0.0\",\"\",\"\",\"\",\"\",\"\",\"\",\"\",\"\",\"\",\"\",\"\",\"\",\"\",\"\",\"\",\"\",\"\"
\"54992\",\"\",\"instructions\",\"1\",\"74638\",\"0.0-1.0\",\"[{\"\"page_index\"\":0,\"\"viewing_time\"\":54992}]\",\"\",\"\",\"\",\"\",\"\",\"\",\"\",\"\",\"\",\"\",\"\",\"\",\"\",\"\",\"\",\"\"
\"9570\",\"\",\"survey-multi-choice\",\"2\",\"84236\",\"0.0-2.0\",\"\",\"{\"\"Q0\"\":\"\"Da\"\",\"\"Q1\"\":\"\"Da\"\",\"\"Q2\"\":\"\"Da\"\",\"\"Q3\"\":\"\"Da\"\",\"\"Q4\"\":\"\"Da\"\",\"\"Q5\"\":\"\"Da\"\"}\",\"\",\"\",\"\",\"\",\"\",\"\",\"\",\"\",\"\",\"\",\"\",\"\",\"\",\"\",\"\"
\"\",\"\",\"bio\",\"3\",\"89771\",\"0.0-3.0\",\"\",\"{\"\"age\"\":\"\"19\"\",\"\"gender\"\":\"\"f\"\",\"\"specify\"\":\"\"\"\"}\",\"\",\"\",\"\",\"\",\"\",\"\",\"\",\"\",\"\",\"\",\"\",\"\",\"\",\"\",\"\"
\"\",\"\",\"approach-retreat\",\"4\",\"101124\",\"0.0-4.0\",\"\",\"\",\"1-4\",\"9834\",\"37\",\"1\",\"Training\",\"Stims/Figures/128-C-30-3.bmp\",\"mala:la\",\"Right\",\"37\",\"1\",\"1\",\"7\",\"S\",\"C\",\"1\"
\"\",\"\",\"approach-retreat\",\"5\",\"111269\",\"0.0-5.0\",\"\",\"\",\"1-4\",\"8632\",\"39\",\"0\",\"Training\",\"Stims/Figures/111-C-30-3.bmp\",\"ma:ma:na\",\"Right\",\"37\",\"1\",\"2\",\"7\",\"S\",\"C\",\"2\"
\"\",\"\",\"approach-retreat\",\"6\",\"122834\",\"0.0-6.0\",\"\",\"\",\"1-4\",\"10060\",\"39\",\"0\",\"Training\",\"Stims/Figures/85-J-0-2.bmp\",\"tapa:ka\",\"Left\",\"37\",\"1\",\"3\",\"7\",\"P\",\"C\",\"3\"
\"\",\"\",\"approach-retreat\",\"7\",\"134432\",\"0.0-7.0\",\"\",\"\",\"1-4\",\"10091\",\"38\",\"1\",\"Training\",\"Stims/Figures/87-J-10-4.bmp\",\"na:lala\",\"Up\",\"38\",\"1\",\"4\",\"7\",\"S\",\"C\",\"4\"
\"\",\"\",\"approach-retreat\",\"8\",\"141818\",\"0.0-8.0\",\"\",\"\",\"1-4\",\"5881\",\"40\",\"0\",\"Training\",\"Stims/Figures/74-C-20-4.bmp\",\"mamala\",\"Down\",\"38\",\"1\",\"5\",\"7\",\"S\",\"C\",\"5\"
\"\",\"\",\"approach-retreat\",\"9\",\"148174\",\"0.0-9.0\",\"\",\"\",\"1-4\",\"4844\",\"40\",\"0\",\"Training\",\"Stims/Figures/128-J-10-3.bmp\",\"mala:na\",\"Up\",\"38\",\"1\",\"6\",\"7\",\"S\",\"C\",\"6\"
\"\",\"\",\"approach-retreat\",\"10\",\"153934\",\"0.0-10.0\",\"\",\"\",\"1-4\",\"4246\",\"39\",\"1\",\"Training\",\"Stims/Figures/57-C-30-1.bmp\",\"papa:ta\",\"Left\",\"39\",\"1\",\"7\",\"7\",\"P\",\"C\",\"7\"
\"\",\"\",\"approach-retreat\",\"11\",\"159828\",\"0.0-11.0\",\"\",\"\",\"1-4\",\"4381\",\"37\",\"1\",\"Training\",\"Stims/Figures/57-J-0-1.bmp\",\"ta:ka:ta\",\"Left\",\"37\",\"1\",\"8\",\"7\",\"P\",\"C\",\"8\"
\"\",\"\",\"approach-retreat\",\"12\",\"166255\",\"0.0-12.0\",\"\",\"\",\"1-4\",\"4914\",\"40\",\"1\",\"Training\",\"Stims/Figures/118-J-0-2.bmp\",\"ta:kata\",\"Down\",\"40\",\"1\",\"9\",\"7\",\"P\",\"C\",\"9\"
\"\",\"\",\"approach-retreat\",\"13\",\"171835\",\"0.0-13.0\",\"\",\"\",\"1-4\",\"4068\",\"40\",\"1\",\"Training\",\"Stims/Figures/85-C-20-2.bmp\",\"taka:ta\",\"Up\",\"40\",\"1\",\"10\",\"7\",\"P\",\"C\",\"10\"
\"\",\"\",\"approach-retreat\",\"14\",\"177788\",\"0.0-14.0\",\"\",\"\",\"1-4\",\"4447\",\"37\",\"1\",\"Training\",\"Stims/Figures/86-J-0-1.bmp\",\"pa:pa:ka\",\"Left\",\"37\",\"1\",\"11\",\"7\",\"P\",\"C\",\"11\"
\"\",\"\",\"approach-retreat\",\"15\",\"183973\",\"0.0-15.0\",\"\",\"\",\"1-4\",\"4678\",\"40\",\"1\",\"Training\",\"Stims/Figures/86-C-30-1.bmp\",\"takata\",\"Up\",\"40\",\"1\",\"12\",\"7\",\"P\",\"C\",\"12\"
\"\",\"\",\"approach-retreat\",\"16\",\"191490\",\"0.0-16.0\",\"\",\"\",\"1-4\",\"6012\",\"37\",\"0\",\"Training\",\"Stims/Figures/111-J-10-3.bmp\",\"ma:lana\",\"Right\",\"39\",\"1\",\"13\",\"7\",\"S\",\"C\",\"13\"
\"\",\"\",\"approach-retreat\",\"17\",\"200345\",\"0.0-17.0\",\"\",\"\",\"1-4\",\"7350\",\"38\",\"1\",\"Training\",\"Stims/Figures/87-C-20-4.bmp\",\"nala:la\",\"Down\",\"38\",\"1\",\"14\",\"7\",\"S\",\"C\",\"14\"
\"\",\"\",\"approach-retreat\",\"18\",\"210153\",\"0.0-18.0\",\"\",\"\",\"1-4\",\"8303\",\"38\",\"0\",\"Training\",\"Stims/Figures/74-J-10-4.bmp\",\"na:lana\",\"Down\",\"40\",\"1\",\"15\",\"7\",\"S\",\"C\",\"15\"
\"\",\"\",\"approach-retreat\",\"19\",\"215887\",\"0.0-19.0\",\"\",\"\",\"1-4\",\"4220\",\"37\",\"1\",\"Training\",\"Stims/Figures/118-C-20-2.bmp\",\"takaka\",\"Right\",\"37\",\"1\",\"16\",\"7\",\"P\",\"C\",\"16\"
\"\",\"\",\"approach-retreat\",\"20\",\"222159\",\"0.0-20.0\",\"\",\"\",\"1-4\",\"4756\",\"40\",\"1\",\"Training\",\"Stims/Figures/128-C-30-3.bmp\",\"mala:la\",\"Up\",\"40\",\"2\",\"1\",\"7\",\"S\",\"C\",\"17\"
\"\",\"\",\"approach-retreat\",\"21\",\"230098\",\"0.0-21.0\",\"\",\"\",\"1-4\",\"6426\",\"37\",\"1\",\"Training\",\"Stims/Figures/118-J-0-2.bmp\",\"ta:kata\",\"Left\",\"37\",\"2\",\"2\",\"7\",\"P\",\"C\",\"18\"
\"\",\"\",\"approach-retreat\",\"22\",\"235785\",\"0.0-22.0\",\"\",\"\",\"1-4\",\"4184\",\"37\",\"0\",\"Training\",\"Stims/Figures/85-C-20-2.bmp\",\"taka:ta\",\"Left\",\"39\",\"2\",\"3\",\"7\",\"P\",\"C\",\"19\"
\"\",\"\",\"approach-retreat\",\"23\",\"241855\",\"0.0-23.0\",\"\",\"\",\"1-4\",\"4564\",\"39\",\"1\",\"Training\",\"Stims/Figures/111-J-10-3.bmp\",\"ma:lana\",\"Right\",\"39\",\"2\",\"4\",\"7\",\"S\",\"C\",\"20\"
\"\",\"\",\"approach-retreat\",\"24\",\"247829\",\"0.0-24.0\",\"\",\"\",\"1-4\",\"4469\",\"40\",\"0\",\"Training\",\"Stims/Figures/57-J-0-1.bmp\",\"ta:ka:ta\",\"Up\",\"38\",\"2\",\"5\",\"7\",\"P\",\"C\",\"21\"
\"\",\"\",\"approach-retreat\",\"25\",\"253714\",\"0.0-25.0\",\"\",\"\",\"1-4\",\"4379\",\"38\",\"1\",\"Training\",\"Stims/Figures/111-C-30-3.bmp\",\"ma:ma:na\",\"Down\",\"38\",\"2\",\"6\",\"7\",\"S\",\"C\",\"22\"
\"\",\"\",\"approach-retreat\",\"26\",\"259466\",\"0.0-26.0\",\"\",\"\",\"1-4\",\"4240\",\"39\",\"1\",\"Training\",\"Stims/Figures/87-C-20-4.bmp\",\"nala:la\",\"Left\",\"39\",\"2\",\"7\",\"7\",\"S\",\"C\",\"23\"
\"\",\"\",\"approach-retreat\",\"27\",\"265016\",\"0.0-27.0\",\"\",\"\",\"1-4\",\"4038\",\"40\",\"1\",\"Training\",\"Stims/Figures/74-J-10-4.bmp\",\"na:lana\",\"Down\",\"40\",\"2\",\"8\",\"7\",\"S\",\"C\",\"24\"
\"\",\"\",\"approach-retreat\",\"28\",\"270771\",\"0.0-28.0\",\"\",\"\",\"1-4\",\"4249\",\"40\",\"1\",\"Training\",\"Stims/Figures/118-C-20-2.bmp\",\"takaka\",\"Up\",\"40\",\"2\",\"9\",\"7\",\"P\",\"C\",\"25\"
\"\",\"\",\"approach-retreat\",\"29\",\"276784\",\"0.0-29.0\",\"\",\"\",\"1-4\",\"4503\",\"38\",\"1\",\"Training\",\"Stims/Figures/57-C-30-1.bmp\",\"papa:ta\",\"Down\",\"38\",\"2\",\"10\",\"7\",\"P\",\"C\",\"26\"
\"\",\"\",\"approach-retreat\",\"30\",\"282331\",\"0.0-30.0\",\"\",\"\",\"1-4\",\"4042\",\"37\",\"0\",\"Training\",\"Stims/Figures/86-J-0-1.bmp\",\"pa:pa:ka\",\"Right\",\"39\",\"2\",\"11\",\"7\",\"P\",\"C\",\"27\"
\"\",\"\",\"approach-retreat\",\"31\",\"287860\",\"0.0-31.0\",\"\",\"\",\"1-4\",\"4024\",\"39\",\"0\",\"Training\",\"Stims/Figures/128-J-10-3.bmp\",\"mala:na\",\"Left\",\"37\",\"2\",\"12\",\"7\",\"S\",\"C\",\"28\"
\"\",\"\",\"approach-retreat\",\"32\",\"293285\",\"0.0-32.0\",\"\",\"\",\"1-4\",\"3913\",\"38\",\"1\",\"Training\",\"Stims/Figures/74-C-20-4.bmp\",\"mamala\",\"Down\",\"38\",\"2\",\"13\",\"7\",\"S\",\"C\",\"29\"
\"\",\"\",\"approach-retreat\",\"33\",\"298777\",\"0.0-33.0\",\"\",\"\",\"1-4\",\"3979\",\"37\",\"1\",\"Training\",\"Stims/Figures/86-C-30-1.bmp\",\"takata\",\"Right\",\"37\",\"2\",\"14\",\"7\",\"P\",\"C\",\"30\"
\"\",\"\",\"approach-retreat\",\"34\",\"304345\",\"0.0-34.0\",\"\",\"\",\"1-4\",\"4062\",\"37\",\"0\",\"Training\",\"Stims/Figures/87-J-10-4.bmp\",\"na:lala\",\"Right\",\"39\",\"2\",\"15\",\"7\",\"S\",\"C\",\"31\"
\"\",\"\",\"approach-retreat\",\"35\",\"310019\",\"0.0-35.0\",\"\",\"\",\"1-4\",\"4163\",\"40\",\"0\",\"Training\",\"Stims/Figures/85-J-0-2.bmp\",\"tapa:ka\",\"Up\",\"38\",\"2\",\"16\",\"7\",\"P\",\"C\",\"32\"
\"\",\"\",\"approach-retreat\",\"36\",\"316790\",\"0.0-36.0\",\"\",\"\",\"1-4\",\"5265\",\"40\",\"1\",\"Training\",\"Stims/Figures/87-C-20-4.bmp\",\"nala:la\",\"Up\",\"40\",\"3\",\"1\",\"7\",\"S\",\"C\",\"33\"
\"\",\"\",\"approach-retreat\",\"37\",\"322380\",\"0.0-37.0\",\"\",\"\",\"1-4\",\"4085\",\"37\",\"0\",\"Training\",\"Stims/Figures/128-J-10-3.bmp\",\"mala:na\",\"Right\",\"39\",\"3\",\"2\",\"7\",\"S\",\"C\",\"34\"
\"\",\"\",\"approach-retreat\",\"38\",\"328002\",\"0.0-38.0\",\"\",\"\",\"1-4\",\"4103\",\"37\",\"1\",\"Training\",\"Stims/Figures/74-C-20-4.bmp\",\"mamala\",\"Right\",\"37\",\"3\",\"3\",\"7\",\"S\",\"C\",\"35\"
\"\",\"\",\"approach-retreat\",\"39\",\"335492\",\"0.0-39.0\",\"\",\"\",\"1-4\",\"5984\",\"39\",\"0\",\"Training\",\"Stims/Figures/57-J-0-1.bmp\",\"ta:ka:ta\",\"Left\",\"37\",\"3\",\"4\",\"7\",\"P\",\"C\",\"36\"
\"\",\"\",\"approach-retreat\",\"40\",\"341256\",\"0.0-40.0\",\"\",\"\",\"1-4\",\"4255\",\"37\",\"0\",\"Training\",\"Stims/Figures/128-C-30-3.bmp\",\"mala:la\",\"Left\",\"39\",\"3\",\"5\",\"7\",\"S\",\"C\",\"37\"
\"\",\"\",\"approach-retreat\",\"41\",\"346924\",\"0.0-41.0\",\"\",\"\",\"1-4\",\"4154\",\"40\",\"0\",\"Training\",\"Stims/Figures/86-J-0-1.bmp\",\"pa:pa:ka\",\"Up\",\"38\",\"3\",\"6\",\"7\",\"P\",\"C\",\"38\"
\"\",\"\",\"approach-retreat\",\"42\",\"352803\",\"0.0-42.0\",\"\",\"\",\"1-4\",\"4368\",\"38\",\"0\",\"Training\",\"Stims/Figures/85-C-20-2.bmp\",\"taka:ta\",\"Up\",\"40\",\"3\",\"7\",\"7\",\"P\",\"C\",\"39\"
\"\",\"\",\"approach-retreat\",\"43\",\"358880\",\"0.0-43.0\",\"\",\"\",\"1-4\",\"4565\",\"40\",\"1\",\"Training\",\"Stims/Figures/118-J-0-2.bmp\",\"ta:kata\",\"Down\",\"40\",\"3\",\"8\",\"7\",\"P\",\"C\",\"40\"
\"\",\"\",\"approach-retreat\",\"44\",\"364677\",\"0.0-44.0\",\"\",\"\",\"1-4\",\"4290\",\"40\",\"1\",\"Training\",\"Stims/Figures/118-C-20-2.bmp\",\"takaka\",\"Up\",\"40\",\"3\",\"9\",\"7\",\"P\",\"C\",\"41\"
\"\",\"\",\"approach-retreat\",\"45\",\"370339\",\"0.0-45.0\",\"\",\"\",\"1-4\",\"4150\",\"37\",\"1\",\"Training\",\"Stims/Figures/86-C-30-1.bmp\",\"takata\",\"Right\",\"37\",\"3\",\"10\",\"7\",\"P\",\"C\",\"42\"
\"\",\"\",\"approach-retreat\",\"46\",\"376410\",\"0.0-46.0\",\"\",\"\",\"1-4\",\"4561\",\"38\",\"0\",\"Training\",\"Stims/Figures/111-J-10-3.bmp\",\"ma:lana\",\"Down\",\"40\",\"3\",\"11\",\"7\",\"S\",\"C\",\"43\"
\"\",\"\",\"approach-retreat\",\"47\",\"382428\",\"0.0-47.0\",\"\",\"\",\"1-4\",\"4512\",\"40\",\"0\",\"Training\",\"Stims/Figures/57-C-30-1.bmp\",\"papa:ta\",\"Down\",\"38\",\"3\",\"12\",\"7\",\"P\",\"C\",\"44\"
\"\",\"\",\"approach-retreat\",\"48\",\"387964\",\"0.0-48.0\",\"\",\"\",\"1-4\",\"4023\",\"37\",\"0\",\"Training\",\"Stims/Figures/85-J-0-2.bmp\",\"tapa:ka\",\"Right\",\"39\",\"3\",\"13\",\"7\",\"P\",\"C\",\"45\"
\"\",\"\",\"approach-retreat\",\"49\",\"394377\",\"0.0-49.0\",\"\",\"\",\"1-4\",\"4909\",\"38\",\"1\",\"Training\",\"Stims/Figures/111-C-30-3.bmp\",\"ma:ma:na\",\"Down\",\"38\",\"3\",\"14\",\"7\",\"S\",\"C\",\"46\"
\"\",\"\",\"approach-retreat\",\"50\",\"401418\",\"0.0-50.0\",\"\",\"\",\"1-4\",\"5530\",\"39\",\"0\",\"Training\",\"Stims/Figures/74-J-10-4.bmp\",\"na:lana\",\"Left\",\"37\",\"3\",\"15\",\"7\",\"S\",\"C\",\"47\"
\"\",\"\",\"approach-retreat\",\"51\",\"409280\",\"0.0-51.0\",\"\",\"\",\"1-4\",\"6351\",\"39\",\"0\",\"Training\",\"Stims/Figures/87-J-10-4.bmp\",\"na:lala\",\"Left\",\"37\",\"3\",\"16\",\"7\",\"S\",\"C\",\"48\"
\"\",\"\",\"approach-retreat\",\"52\",\"414882\",\"0.0-52.0\",\"\",\"\",\"1-4\",\"4088\",\"40\",\"0\",\"Training\",\"Stims/Figures/118-C-20-2.bmp\",\"takaka\",\"Down\",\"38\",\"4\",\"1\",\"7\",\"P\",\"C\",\"49\"
\"\",\"\",\"approach-retreat\",\"53\",\"420596\",\"0.0-53.0\",\"\",\"\",\"1-4\",\"4207\",\"37\",\"0\",\"Training\",\"Stims/Figures/87-J-10-4.bmp\",\"na:lala\",\"Right\",\"39\",\"4\",\"2\",\"7\",\"S\",\"C\",\"50\"
\"\",\"\",\"approach-retreat\",\"54\",\"427293\",\"0.0-54.0\",\"\",\"\",\"1-4\",\"5189\",\"38\",\"0\",\"Training\",\"Stims/Figures/85-C-20-2.bmp\",\"taka:ta\",\"Up\",\"40\",\"4\",\"3\",\"7\",\"P\",\"C\",\"51\"
\"\",\"\",\"approach-retreat\",\"55\",\"433179\",\"0.0-55.0\",\"\",\"\",\"1-4\",\"4353\",\"38\",\"1\",\"Training\",\"Stims/Figures/87-C-20-4.bmp\",\"nala:la\",\"Down\",\"38\",\"4\",\"4\",\"7\",\"S\",\"C\",\"52\"
\"\",\"\",\"approach-retreat\",\"56\",\"438825\",\"0.0-56.0\",\"\",\"\",\"1-4\",\"4132\",\"39\",\"1\",\"Training\",\"Stims/Figures/86-C-30-1.bmp\",\"takata\",\"Left\",\"39\",\"4\",\"5\",\"7\",\"P\",\"C\",\"53\"
\"\",\"\",\"approach-retreat\",\"57\",\"444920\",\"0.0-57.0\",\"\",\"\",\"1-4\",\"4588\",\"37\",\"1\",\"Training\",\"Stims/Figures/111-C-30-3.bmp\",\"ma:ma:na\",\"Right\",\"37\",\"4\",\"6\",\"7\",\"S\",\"C\",\"54\"
\"\",\"\",\"approach-retreat\",\"58\",\"451201\",\"0.0-58.0\",\"\",\"\",\"1-4\",\"4774\",\"38\",\"0\",\"Training\",\"Stims/Figures/111-J-10-3.bmp\",\"ma:lana\",\"Down\",\"40\",\"4\",\"7\",\"7\",\"S\",\"C\",\"55\"
\"\",\"\",\"approach-retreat\",\"59\",\"456991\",\"0.0-59.0\",\"\",\"\",\"1-4\",\"4265\",\"38\",\"0\",\"Training\",\"Stims/Figures/74-J-10-4.bmp\",\"na:lana\",\"Down\",\"40\",\"4\",\"8\",\"7\",\"S\",\"C\",\"56\"
\"\",\"\",\"approach-retreat\",\"60\",\"462683\",\"0.0-60.0\",\"\",\"\",\"1-4\",\"4186\",\"39\",\"0\",\"Training\",\"Stims/Figures/118-J-0-2.bmp\",\"ta:kata\",\"Left\",\"37\",\"4\",\"9\",\"7\",\"P\",\"C\",\"57\"
\"\",\"\",\"approach-retreat\",\"61\",\"470176\",\"0.0-61.0\",\"\",\"\",\"1-4\",\"5986\",\"38\",\"1\",\"Training\",\"Stims/Figures/57-J-0-1.bmp\",\"ta:ka:ta\",\"Up\",\"38\",\"4\",\"10\",\"7\",\"P\",\"C\",\"58\"
\"\",\"\",\"approach-retreat\",\"62\",\"475938\",\"0.0-62.0\",\"\",\"\",\"1-4\",\"4239\",\"37\",\"1\",\"Training\",\"Stims/Figures/57-C-30-1.bmp\",\"papa:ta\",\"Right\",\"37\",\"4\",\"11\",\"7\",\"P\",\"C\",\"59\"
\"\",\"\",\"approach-retreat\",\"63\",\"481815\",\"0.0-63.0\",\"\",\"\",\"1-4\",\"4371\",\"40\",\"0\",\"Training\",\"Stims/Figures/128-J-10-3.bmp\",\"mala:na\",\"Up\",\"38\",\"4\",\"12\",\"7\",\"S\",\"C\",\"60\"
\"\",\"\",\"approach-retreat\",\"64\",\"488311\",\"0.0-64.0\",\"\",\"\",\"1-4\",\"4990\",\"37\",\"0\",\"Training\",\"Stims/Figures/74-C-20-4.bmp\",\"mamala\",\"Left\",\"39\",\"4\",\"13\",\"7\",\"S\",\"C\",\"61\"
\"\",\"\",\"approach-retreat\",\"65\",\"493910\",\"0.0-65.0\",\"\",\"\",\"1-4\",\"4094\",\"38\",\"0\",\"Training\",\"Stims/Figures/128-C-30-3.bmp\",\"mala:la\",\"Up\",\"40\",\"4\",\"14\",\"7\",\"S\",\"C\",\"62\"
\"\",\"\",\"approach-retreat\",\"66\",\"499347\",\"0.0-66.0\",\"\",\"\",\"1-4\",\"3924\",\"39\",\"1\",\"Training\",\"Stims/Figures/86-J-0-1.bmp\",\"pa:pa:ka\",\"Right\",\"39\",\"4\",\"15\",\"7\",\"P\",\"C\",\"63\"
\"\",\"\",\"approach-retreat\",\"67\",\"505358\",\"0.0-67.0\",\"\",\"\",\"1-4\",\"4505\",\"37\",\"1\",\"Training\",\"Stims/Figures/85-J-0-2.bmp\",\"tapa:ka\",\"Left\",\"37\",\"4\",\"16\",\"7\",\"P\",\"C\",\"64\"
\"\",\"\",\"approach-retreat\",\"68\",\"511074\",\"0.0-68.0\",\"\",\"\",\"1-4\",\"4211\",\"39\",\"1\",\"Training\",\"Stims/Figures/85-J-0-2.bmp\",\"tapa:ka\",\"Right\",\"39\",\"5\",\"1\",\"7\",\"P\",\"C\",\"65\"
\"\",\"\",\"approach-retreat\",\"69\",\"517164\",\"0.0-69.0\",\"\",\"\",\"1-4\",\"4576\",\"39\",\"1\",\"Training\",\"Stims/Figures/111-J-10-3.bmp\",\"ma:lana\",\"Right\",\"39\",\"5\",\"2\",\"7\",\"S\",\"C\",\"66\"
\"\",\"\",\"approach-retreat\",\"70\",\"524319\",\"0.0-70.0\",\"\",\"\",\"1-4\",\"5649\",\"40\",\"0\",\"Training\",\"Stims/Figures/74-J-10-4.bmp\",\"na:lana\",\"Up\",\"38\",\"5\",\"3\",\"7\",\"S\",\"C\",\"67\"
\"\",\"\",\"approach-retreat\",\"71\",\"531075\",\"0.0-71.0\",\"\",\"\",\"1-4\",\"5250\",\"40\",\"1\",\"Training\",\"Stims/Figures/57-J-0-1.bmp\",\"ta:ka:ta\",\"Down\",\"40\",\"5\",\"4\",\"7\",\"P\",\"C\",\"68\"
\"\",\"\",\"approach-retreat\",\"72\",\"537492\",\"0.0-72.0\",\"\",\"\",\"1-4\",\"4905\",\"39\",\"1\",\"Training\",\"Stims/Figures/87-C-20-4.bmp\",\"nala:la\",\"Left\",\"39\",\"5\",\"5\",\"7\",\"S\",\"C\",\"69\"
\"\",\"\",\"approach-retreat\",\"73\",\"545664\",\"0.0-73.0\",\"\",\"\",\"1-4\",\"6662\",\"39\",\"1\",\"Training\",\"Stims/Figures/128-C-30-3.bmp\",\"mala:la\",\"Left\",\"39\",\"5\",\"6\",\"7\",\"S\",\"C\",\"70\"
\"\",\"\",\"approach-retreat\",\"74\",\"552173\",\"0.0-74.0\",\"\",\"\",\"1-4\",\"5003\",\"39\",\"0\",\"Training\",\"Stims/Figures/87-J-10-4.bmp\",\"na:lala\",\"Left\",\"37\",\"5\",\"7\",\"7\",\"S\",\"C\",\"71\"
\"\",\"\",\"approach-retreat\",\"75\",\"558099\",\"0.0-75.0\",\"\",\"\",\"1-4\",\"4419\",\"40\",\"0\",\"Training\",\"Stims/Figures/86-J-0-1.bmp\",\"pa:pa:ka\",\"Up\",\"38\",\"5\",\"8\",\"7\",\"P\",\"C\",\"72\"
\"\",\"\",\"approach-retreat\",\"76\",\"564352\",\"0.0-76.0\",\"\",\"\",\"1-4\",\"4748\",\"39\",\"0\",\"Training\",\"Stims/Figures/86-C-30-1.bmp\",\"takata\",\"Right\",\"37\",\"5\",\"9\",\"7\",\"P\",\"C\",\"73\"
\"\",\"\",\"approach-retreat\",\"77\",\"570150\",\"0.0-77.0\",\"\",\"\",\"1-4\",\"4286\",\"40\",\"0\",\"Training\",\"Stims/Figures/118-C-20-2.bmp\",\"takaka\",\"Down\",\"38\",\"5\",\"10\",\"7\",\"P\",\"C\",\"74\"
\"\",\"\",\"approach-retreat\",\"78\",\"576349\",\"0.0-78.0\",\"\",\"\",\"1-4\",\"4686\",\"38\",\"1\",\"Training\",\"Stims/Figures/85-C-20-2.bmp\",\"taka:ta\",\"Down\",\"38\",\"5\",\"11\",\"7\",\"P\",\"C\",\"75\"
\"\",\"\",\"approach-retreat\",\"79\",\"582345\",\"0.0-79.0\",\"\",\"\",\"1-4\",\"4484\",\"39\",\"1\",\"Training\",\"Stims/Figures/128-J-10-3.bmp\",\"mala:na\",\"Right\",\"39\",\"5\",\"12\",\"7\",\"S\",\"C\",\"76\"
\"\",\"\",\"approach-retreat\",\"80\",\"589486\",\"0.0-80.0\",\"\",\"\",\"1-4\",\"5630\",\"38\",\"0\",\"Training\",\"Stims/Figures/111-C-30-3.bmp\",\"ma:ma:na\",\"Up\",\"40\",\"5\",\"13\",\"7\",\"S\",\"C\",\"77\"
\"\",\"\",\"approach-retreat\",\"81\",\"601934\",\"0.0-81.0\",\"\",\"\",\"1-4\",\"10942\",\"39\",\"1\",\"Training\",\"Stims/Figures/57-C-30-1.bmp\",\"papa:ta\",\"Left\",\"39\",\"5\",\"14\",\"7\",\"P\",\"C\",\"78\"
\"\",\"\",\"approach-retreat\",\"82\",\"612279\",\"0.0-82.0\",\"\",\"\",\"1-4\",\"8832\",\"38\",\"0\",\"Training\",\"Stims/Figures/74-C-20-4.bmp\",\"mamala\",\"Up\",\"40\",\"5\",\"15\",\"7\",\"S\",\"C\",\"79\"
\"\",\"\",\"approach-retreat\",\"83\",\"618068\",\"0.0-83.0\",\"\",\"\",\"1-4\",\"4276\",\"38\",\"0\",\"Training\",\"Stims/Figures/118-J-0-2.bmp\",\"ta:kata\",\"Down\",\"40\",\"5\",\"16\",\"7\",\"P\",\"C\",\"80\"
\"\",\"\",\"approach-retreat\",\"84\",\"625526\",\"0.0-84.0\",\"\",\"\",\"1-4\",\"5952\",\"38\",\"0\",\"Training\",\"Stims/Figures/128-C-30-3.bmp\",\"mala:la\",\"Up\",\"40\",\"6\",\"1\",\"7\",\"S\",\"C\",\"81\"
\"\",\"\",\"approach-retreat\",\"85\",\"631946\",\"0.0-85.0\",\"\",\"\",\"1-4\",\"4908\",\"40\",\"1\",\"Training\",\"Stims/Figures/111-C-30-3.bmp\",\"ma:ma:na\",\"Up\",\"40\",\"6\",\"2\",\"7\",\"S\",\"C\",\"82\"
\"\",\"\",\"approach-retreat\",\"86\",\"637998\",\"0.0-86.0\",\"\",\"\",\"1-4\",\"4539\",\"38\",\"0\",\"Training\",\"Stims/Figures/85-C-20-2.bmp\",\"taka:ta\",\"Up\",\"40\",\"6\",\"3\",\"7\",\"P\",\"C\",\"83\"
\"\",\"\",\"approach-retreat\",\"87\",\"644368\",\"0.0-87.0\",\"\",\"\",\"1-4\",\"4865\",\"39\",\"0\",\"Training\",\"Stims/Figures/128-J-10-3.bmp\",\"mala:na\",\"Left\",\"37\",\"6\",\"4\",\"7\",\"S\",\"C\",\"84\"
\"\",\"\",\"approach-retreat\",\"88\",\"651462\",\"0.0-88.0\",\"\",\"\",\"1-4\",\"5585\",\"37\",\"0\",\"Training\",\"Stims/Figures/86-C-30-1.bmp\",\"takata\",\"Left\",\"39\",\"6\",\"5\",\"7\",\"P\",\"C\",\"85\"
\"\",\"\",\"approach-retreat\",\"89\",\"657051\",\"0.0-89.0\",\"\",\"\",\"1-4\",\"4085\",\"40\",\"1\",\"Training\",\"Stims/Figures/57-J-0-1.bmp\",\"ta:ka:ta\",\"Down\",\"40\",\"6\",\"6\",\"7\",\"P\",\"C\",\"86\"
\"\",\"\",\"approach-retreat\",\"90\",\"662437\",\"0.0-90.0\",\"\",\"\",\"1-4\",\"3874\",\"38\",\"1\",\"Training\",\"Stims/Figures/118-C-20-2.bmp\",\"takaka\",\"Down\",\"38\",\"6\",\"7\",\"7\",\"P\",\"C\",\"87\"
\"\",\"\",\"approach-retreat\",\"91\",\"668985\",\"0.0-91.0\",\"\",\"\",\"1-4\",\"5044\",\"39\",\"1\",\"Training\",\"Stims/Figures/111-J-10-3.bmp\",\"ma:lana\",\"Right\",\"39\",\"6\",\"8\",\"7\",\"S\",\"C\",\"88\"
\"\",\"\",\"approach-retreat\",\"92\",\"676269\",\"0.0-92.0\",\"\",\"\",\"1-4\",\"5776\",\"37\",\"0\",\"Training\",\"Stims/Figures/86-J-0-1.bmp\",\"pa:pa:ka\",\"Right\",\"39\",\"6\",\"9\",\"7\",\"P\",\"C\",\"89\"
\"\",\"\",\"approach-retreat\",\"93\",\"683660\",\"0.0-93.0\",\"\",\"\",\"1-4\",\"5878\",\"39\",\"0\",\"Training\",\"Stims/Figures/87-C-20-4.bmp\",\"nala:la\",\"Right\",\"37\",\"6\",\"10\",\"7\",\"S\",\"C\",\"90\"
\"\",\"\",\"approach-retreat\",\"94\",\"694168\",\"0.0-94.0\",\"\",\"\",\"1-4\",\"9002\",\"40\",\"0\",\"Training\",\"Stims/Figures/118-J-0-2.bmp\",\"ta:kata\",\"Up\",\"38\",\"6\",\"11\",\"7\",\"P\",\"C\",\"91\"
\"\",\"\",\"approach-retreat\",\"95\",\"715892\",\"0.0-95.0\",\"\",\"\",\"1-4\",\"20219\",\"37\",\"0\",\"Training\",\"Stims/Figures/74-J-10-4.bmp\",\"na:lana\",\"Right\",\"39\",\"6\",\"12\",\"7\",\"S\",\"C\",\"92\"
\"\",\"\",\"approach-retreat\",\"96\",\"722011\",\"0.0-96.0\",\"\",\"\",\"1-4\",\"4607\",\"40\",\"0\",\"Training\",\"Stims/Figures/57-C-30-1.bmp\",\"papa:ta\",\"Down\",\"38\",\"6\",\"13\",\"7\",\"P\",\"C\",\"93\"
\"\",\"\",\"approach-retreat\",\"97\",\"727838\",\"0.0-97.0\",\"\",\"\",\"1-4\",\"4314\",\"38\",\"1\",\"Training\",\"Stims/Figures/74-C-20-4.bmp\",\"mamala\",\"Down\",\"38\",\"6\",\"14\",\"7\",\"S\",\"C\",\"94\"
\"\",\"\",\"approach-retreat\",\"98\",\"733437\",\"0.0-98.0\",\"\",\"\",\"1-4\",\"4094\",\"39\",\"0\",\"Training\",\"Stims/Figures/85-J-0-2.bmp\",\"tapa:ka\",\"Left\",\"37\",\"6\",\"15\",\"7\",\"P\",\"C\",\"95\"
\"\",\"\",\"approach-retreat\",\"99\",\"738546\",\"0.0-99.0\",\"\",\"\",\"1-4\",\"3599\",\"39\",\"0\",\"Training\",\"Stims/Figures/87-J-10-4.bmp\",\"na:lala\",\"Left\",\"37\",\"6\",\"16\",\"7\",\"S\",\"C\",\"96\"
\"\",\"\",\"approach-retreat\",\"100\",\"745297\",\"0.0-100.0\",\"\",\"\",\"1-4\",\"5246\",\"38\",\"0\",\"Training\",\"Stims/Figures/128-C-30-3.bmp\",\"mala:la\",\"Up\",\"40\",\"7\",\"1\",\"7\",\"S\",\"C\",\"97\"
\"\",\"\",\"approach-retreat\",\"101\",\"751566\",\"0.0-101.0\",\"\",\"\",\"1-4\",\"4755\",\"40\",\"1\",\"Training\",\"Stims/Figures/57-C-30-1.bmp\",\"papa:ta\",\"Up\",\"40\",\"7\",\"2\",\"7\",\"P\",\"C\",\"98\"
\"\",\"\",\"approach-retreat\",\"102\",\"758040\",\"0.0-102.0\",\"\",\"\",\"1-4\",\"4961\",\"38\",\"1\",\"Training\",\"Stims/Figures/85-C-20-2.bmp\",\"taka:ta\",\"Down\",\"38\",\"7\",\"3\",\"7\",\"P\",\"C\",\"99\"
\"\",\"\",\"approach-retreat\",\"103\",\"764104\",\"0.0-103.0\",\"\",\"\",\"1-4\",\"4558\",\"39\",\"1\",\"Training\",\"Stims/Figures/85-J-0-2.bmp\",\"tapa:ka\",\"Right\",\"39\",\"7\",\"4\",\"7\",\"P\",\"C\",\"100\"
\"\",\"\",\"approach-retreat\",\"104\",\"769626\",\"0.0-104.0\",\"\",\"\",\"1-4\",\"4017\",\"37\",\"1\",\"Training\",\"Stims/Figures/118-J-0-2.bmp\",\"ta:kata\",\"Left\",\"37\",\"7\",\"5\",\"7\",\"P\",\"C\",\"101\"
\"\",\"\",\"approach-retreat\",\"105\",\"775725\",\"0.0-105.0\",\"\",\"\",\"1-4\",\"4588\",\"37\",\"1\",\"Training\",\"Stims/Figures/111-C-30-3.bmp\",\"ma:ma:na\",\"Right\",\"37\",\"7\",\"6\",\"7\",\"S\",\"C\",\"102\"
\"\",\"\",\"approach-retreat\",\"106\",\"781376\",\"0.0-106.0\",\"\",\"\",\"1-4\",\"4145\",\"40\",\"1\",\"Training\",\"Stims/Figures/118-C-20-2.bmp\",\"takaka\",\"Up\",\"40\",\"7\",\"7\",\"7\",\"P\",\"C\",\"103\"
\"\",\"\",\"approach-retreat\",\"107\",\"786716\",\"0.0-107.0\",\"\",\"\",\"1-4\",\"3828\",\"37\",\"1\",\"Training\",\"Stims/Figures/87-C-20-4.bmp\",\"nala:la\",\"Right\",\"37\",\"7\",\"8\",\"7\",\"S\",\"C\",\"104\"
\"\",\"\",\"approach-retreat\",\"108\",\"792239\",\"0.0-108.0\",\"\",\"\",\"1-4\",\"4011\",\"39\",\"1\",\"Training\",\"Stims/Figures/86-C-30-1.bmp\",\"takata\",\"Left\",\"39\",\"7\",\"9\",\"7\",\"P\",\"C\",\"105\"
\"\",\"\",\"approach-retreat\",\"109\",\"797858\",\"0.0-109.0\",\"\",\"\",\"1-4\",\"4108\",\"38\",\"0\",\"Training\",\"Stims/Figures/86-J-0-1.bmp\",\"pa:pa:ka\",\"Down\",\"40\",\"7\",\"10\",\"7\",\"P\",\"C\",\"106\"
\"\",\"\",\"approach-retreat\",\"110\",\"803269\",\"0.0-110.0\",\"\",\"\",\"1-4\",\"3899\",\"39\",\"1\",\"Training\",\"Stims/Figures/57-J-0-1.bmp\",\"ta:ka:ta\",\"Right\",\"39\",\"7\",\"11\",\"7\",\"P\",\"C\",\"107\"
\"\",\"\",\"approach-retreat\",\"111\",\"809457\",\"0.0-111.0\",\"\",\"\",\"1-4\",\"4678\",\"40\",\"1\",\"Training\",\"Stims/Figures/87-J-10-4.bmp\",\"na:lala\",\"Down\",\"40\",\"7\",\"12\",\"7\",\"S\",\"C\",\"108\"
\"\",\"\",\"approach-retreat\",\"112\",\"814866\",\"0.0-112.0\",\"\",\"\",\"1-4\",\"3897\",\"38\",\"0\",\"Training\",\"Stims/Figures/74-J-10-4.bmp\",\"na:lana\",\"Down\",\"40\",\"7\",\"13\",\"7\",\"S\",\"C\",\"109\"
\"\",\"\",\"approach-retreat\",\"113\",\"820377\",\"0.0-113.0\",\"\",\"\",\"1-4\",\"3999\",\"39\",\"0\",\"Training\",\"Stims/Figures/128-J-10-3.bmp\",\"mala:na\",\"Left\",\"37\",\"7\",\"14\",\"7\",\"S\",\"C\",\"110\"
\"\",\"\",\"approach-retreat\",\"114\",\"826410\",\"0.0-114.0\",\"\",\"\",\"1-4\",\"4526\",\"40\",\"1\",\"Training\",\"Stims/Figures/74-C-20-4.bmp\",\"mamala\",\"Up\",\"40\",\"7\",\"15\",\"7\",\"S\",\"C\",\"111\"
\"\",\"\",\"approach-retreat\",\"115\",\"840654\",\"0.0-115.0\",\"\",\"\",\"1-4\",\"12739\",\"39\",\"0\",\"Training\",\"Stims/Figures/111-J-10-3.bmp\",\"ma:lana\",\"Left\",\"37\",\"7\",\"16\",\"7\",\"S\",\"C\",\"112\"
\"\",\"\",\"approach-retreat\",\"116\",\"847921\",\"0.0-116.0\",\"\",\"\",\"1-4\",\"5755\",\"38\",\"0\",\"Training\",\"Stims/Figures/85-C-20-2.bmp\",\"taka:ta\",\"Up\",\"40\",\"8\",\"1\",\"7\",\"P\",\"C\",\"113\"
\"\",\"\",\"approach-retreat\",\"117\",\"854018\",\"0.0-117.0\",\"\",\"\",\"1-4\",\"4584\",\"40\",\"1\",\"Training\",\"Stims/Figures/111-J-10-3.bmp\",\"ma:lana\",\"Down\",\"40\",\"8\",\"2\",\"7\",\"S\",\"C\",\"114\"
\"\",\"\",\"approach-retreat\",\"118\",\"860467\",\"0.0-118.0\",\"\",\"\",\"1-4\",\"4942\",\"37\",\"0\",\"Training\",\"Stims/Figures/111-C-30-3.bmp\",\"ma:ma:na\",\"Left\",\"39\",\"8\",\"3\",\"7\",\"S\",\"C\",\"115\"
\"\",\"\",\"approach-retreat\",\"119\",\"866362\",\"0.0-119.0\",\"\",\"\",\"1-4\",\"4389\",\"38\",\"1\",\"Training\",\"Stims/Figures/85-J-0-2.bmp\",\"tapa:ka\",\"Up\",\"38\",\"8\",\"4\",\"7\",\"P\",\"C\",\"116\"
\"\",\"\",\"approach-retreat\",\"120\",\"872247\",\"0.0-120.0\",\"\",\"\",\"1-4\",\"4379\",\"37\",\"1\",\"Training\",\"Stims/Figures/87-J-10-4.bmp\",\"na:lala\",\"Left\",\"37\",\"8\",\"5\",\"7\",\"S\",\"C\",\"117\"
\"\",\"\",\"approach-retreat\",\"121\",\"877814\",\"0.0-121.0\",\"\",\"\",\"1-4\",\"4056\",\"37\",\"0\",\"Training\",\"Stims/Figures/128-J-10-3.bmp\",\"mala:na\",\"Right\",\"39\",\"8\",\"6\",\"7\",\"S\",\"C\",\"118\"
\"\",\"\",\"approach-retreat\",\"122\",\"883478\",\"0.0-122.0\",\"\",\"\",\"1-4\",\"4152\",\"40\",\"1\",\"Training\",\"Stims/Figures/57-J-0-1.bmp\",\"ta:ka:ta\",\"Down\",\"40\",\"8\",\"7\",\"7\",\"P\",\"C\",\"119\"
\"\",\"\",\"approach-retreat\",\"123\",\"888866\",\"0.0-123.0\",\"\",\"\",\"1-4\",\"3883\",\"39\",\"1\",\"Training\",\"Stims/Figures/87-C-20-4.bmp\",\"nala:la\",\"Left\",\"39\",\"8\",\"8\",\"7\",\"S\",\"C\",\"120\"
\"\",\"\",\"approach-retreat\",\"124\",\"894413\",\"0.0-124.0\",\"\",\"\",\"1-4\",\"4040\",\"40\",\"0\",\"Training\",\"Stims/Figures/118-C-20-2.bmp\",\"takaka\",\"Down\",\"38\",\"8\",\"9\",\"7\",\"P\",\"C\",\"121\"
\"\",\"\",\"approach-retreat\",\"125\",\"899930\",\"0.0-125.0\",\"\",\"\",\"1-4\",\"4010\",\"39\",\"1\",\"Training\",\"Stims/Figures/128-C-30-3.bmp\",\"mala:la\",\"Left\",\"39\",\"8\",\"10\",\"7\",\"S\",\"C\",\"122\"
\"\",\"\",\"approach-retreat\",\"126\",\"905416\",\"0.0-126.0\",\"\",\"\",\"1-4\",\"3983\",\"37\",\"0\",\"Training\",\"Stims/Figures/118-J-0-2.bmp\",\"ta:kata\",\"Right\",\"39\",\"8\",\"11\",\"7\",\"P\",\"C\",\"123\"
\"\",\"\",\"approach-retreat\",\"127\",\"910849\",\"0.0-127.0\",\"\",\"\",\"1-4\",\"3927\",\"39\",\"1\",\"Training\",\"Stims/Figures/86-J-0-1.bmp\",\"pa:pa:ka\",\"Right\",\"39\",\"8\",\"12\",\"7\",\"P\",\"C\",\"124\"
\"\",\"\",\"approach-retreat\",\"128\",\"916326\",\"0.0-128.0\",\"\",\"\",\"1-4\",\"3973\",\"37\",\"0\",\"Training\",\"Stims/Figures/74-J-10-4.bmp\",\"na:lana\",\"Right\",\"39\",\"8\",\"13\",\"7\",\"S\",\"C\",\"125\"
\"\",\"\",\"approach-retreat\",\"129\",\"922031\",\"0.0-129.0\",\"\",\"\",\"1-4\",\"4199\",\"40\",\"0\",\"Training\",\"Stims/Figures/86-C-30-1.bmp\",\"takata\",\"Down\",\"38\",\"8\",\"14\",\"7\",\"P\",\"C\",\"126\"
\"\",\"\",\"approach-retreat\",\"130\",\"927900\",\"0.0-130.0\",\"\",\"\",\"1-4\",\"4362\",\"40\",\"1\",\"Training\",\"Stims/Figures/74-C-20-4.bmp\",\"mamala\",\"Up\",\"40\",\"8\",\"15\",\"7\",\"S\",\"C\",\"127\"
\"\",\"\",\"approach-retreat\",\"131\",\"934551\",\"0.0-131.0\",\"\",\"\",\"1-4\",\"5138\",\"38\",\"0\",\"Training\",\"Stims/Figures/57-C-30-1.bmp\",\"papa:ta\",\"Up\",\"40\",\"8\",\"16\",\"7\",\"P\",\"C\",\"128\"
\"\",\"\",\"approach-retreat\",\"132\",\"940012\",\"0.0-132.0\",\"\",\"\",\"1-4\",\"3950\",\"40\",\"1\",\"Training\",\"Stims/Figures/87-J-10-4.bmp\",\"na:lala\",\"Down\",\"40\",\"9\",\"1\",\"7\",\"S\",\"C\",\"129\"
\"\",\"\",\"approach-retreat\",\"133\",\"947411\",\"0.0-133.0\",\"\",\"\",\"1-4\",\"5895\",\"39\",\"0\",\"Training\",\"Stims/Figures/74-C-20-4.bmp\",\"mamala\",\"Right\",\"37\",\"9\",\"2\",\"7\",\"S\",\"C\",\"130\"
\"\",\"\",\"approach-retreat\",\"134\",\"953167\",\"0.0-134.0\",\"\",\"\",\"1-4\",\"4250\",\"37\",\"0\",\"Training\",\"Stims/Figures/111-J-10-3.bmp\",\"ma:lana\",\"Right\",\"39\",\"9\",\"3\",\"7\",\"S\",\"C\",\"131\"
\"\",\"\",\"approach-retreat\",\"135\",\"959640\",\"0.0-135.0\",\"\",\"\",\"1-4\",\"4962\",\"39\",\"0\",\"Training\",\"Stims/Figures/57-C-30-1.bmp\",\"papa:ta\",\"Right\",\"37\",\"9\",\"4\",\"7\",\"P\",\"C\",\"132\"
\"\",\"\",\"approach-retreat\",\"136\",\"965589\",\"0.0-136.0\",\"\",\"\",\"1-4\",\"4437\",\"39\",\"0\",\"Training\",\"Stims/Figures/128-J-10-3.bmp\",\"mala:na\",\"Left\",\"37\",\"9\",\"5\",\"7\",\"S\",\"C\",\"133\"
\"\",\"\",\"approach-retreat\",\"137\",\"971263\",\"0.0-137.0\",\"\",\"\",\"1-4\",\"4162\",\"38\",\"0\",\"Training\",\"Stims/Figures/85-J-0-2.bmp\",\"tapa:ka\",\"Down\",\"40\",\"9\",\"6\",\"7\",\"P\",\"C\",\"134\"
\"\",\"\",\"approach-retreat\",\"138\",\"977500\",\"0.0-138.0\",\"\",\"\",\"1-4\",\"4726\",\"38\",\"0\",\"Training\",\"Stims/Figures/111-C-30-3.bmp\",\"ma:ma:na\",\"Up\",\"40\",\"9\",\"7\",\"7\",\"S\",\"C\",\"135\"
\"\",\"\",\"approach-retreat\",\"139\",\"983034\",\"0.0-139.0\",\"\",\"\",\"1-4\",\"4028\",\"37\",\"0\",\"Training\",\"Stims/Figures/57-J-0-1.bmp\",\"ta:ka:ta\",\"Right\",\"39\",\"9\",\"8\",\"7\",\"P\",\"C\",\"136\"
\"\",\"\",\"approach-retreat\",\"140\",\"990514\",\"0.0-140.0\",\"\",\"\",\"1-4\",\"5947\",\"40\",\"0\",\"Training\",\"Stims/Figures/86-J-0-1.bmp\",\"pa:pa:ka\",\"Up\",\"38\",\"9\",\"9\",\"7\",\"P\",\"C\",\"137\"
\"\",\"\",\"approach-retreat\",\"141\",\"996225\",\"0.0-141.0\",\"\",\"\",\"1-4\",\"4204\",\"38\",\"1\",\"Training\",\"Stims/Figures/128-C-30-3.bmp\",\"mala:la\",\"Down\",\"38\",\"9\",\"10\",\"7\",\"S\",\"C\",\"138\"
\"\",\"\",\"approach-retreat\",\"142\",\"1005253\",\"0.0-142.0\",\"\",\"\",\"1-4\",\"7523\",\"40\",\"1\",\"Training\",\"Stims/Figures/118-C-20-2.bmp\",\"takaka\",\"Up\",\"40\",\"9\",\"11\",\"7\",\"P\",\"C\",\"139\"
\"\",\"\",\"approach-retreat\",\"143\",\"1010955\",\"0.0-143.0\",\"\",\"\",\"1-4\",\"4198\",\"40\",\"1\",\"Training\",\"Stims/Figures/85-C-20-2.bmp\",\"taka:ta\",\"Up\",\"40\",\"9\",\"12\",\"7\",\"P\",\"C\",\"140\"
\"\",\"\",\"approach-retreat\",\"144\",\"1016619\",\"0.0-144.0\",\"\",\"\",\"1-4\",\"4157\",\"39\",\"1\",\"Training\",\"Stims/Figures/87-C-20-4.bmp\",\"nala:la\",\"Left\",\"39\",\"9\",\"13\",\"7\",\"S\",\"C\",\"141\"
\"\",\"\",\"approach-retreat\",\"145\",\"1022310\",\"0.0-145.0\",\"\",\"\",\"1-4\",\"4171\",\"39\",\"0\",\"Training\",\"Stims/Figures/74-J-10-4.bmp\",\"na:lana\",\"Left\",\"37\",\"9\",\"14\",\"7\",\"S\",\"C\",\"142\"
\"\",\"\",\"approach-retreat\",\"146\",\"1028561\",\"0.0-146.0\",\"\",\"\",\"1-4\",\"4715\",\"38\",\"1\",\"Training\",\"Stims/Figures/86-C-30-1.bmp\",\"takata\",\"Down\",\"38\",\"9\",\"15\",\"7\",\"P\",\"C\",\"143\"
\"\",\"\",\"approach-retreat\",\"147\",\"1034248\",\"0.0-147.0\",\"\",\"\",\"1-4\",\"4179\",\"39\",\"0\",\"Training\",\"Stims/Figures/118-J-0-2.bmp\",\"ta:kata\",\"Left\",\"37\",\"9\",\"16\",\"7\",\"P\",\"C\",\"144\"
\"45578\",\"\",\"instructions\",\"148\",\"1079826\",\"0.0-148.0\",\"[{\"\"page_index\"\":0,\"\"viewing_time\"\":45578}]\",\"\",\"\",\"\",\"\",\"\",\"\",\"\",\"\",\"\",\"\",\"\",\"\",\"\",\"\",\"\",\"\"
\"\",\"\",\"approach-retreat\",\"149\",\"1087379\",\"0.0-149.0\",\"\",\"\",\"1-4\",\"6049\",\"40\",\"0\",\"Testing\",\"Stims/Figures/74-J-10-4.bmp\",\"na:lana\",\"Up\",\"38\",\"1\",\"1\",\"7\",\"S\",\"C\",\"1\"
\"\",\"\",\"approach-retreat\",\"150\",\"1094289\",\"0.0-150.0\",\"\",\"\",\"1-4\",\"5406\",\"40\",\"1\",\"Testing\",\"Stims/Figures/27-J-0-1.bmp\",\"ta:pata\",\"Down\",\"40\",\"1\",\"2\",\"7\",\"P\",\"C\",\"2\"
\"\",\"\",\"approach-retreat\",\"151\",\"1100521\",\"0.0-151.0\",\"\",\"\",\"1-4\",\"4719\",\"37\",\"1\",\"Testing\",\"Stims/Figures/102-C-20-4.bmp\",\"nala:na\",\"Right\",\"37\",\"1\",\"3\",\"7\",\"S\",\"C\",\"3\"
\"\",\"\",\"approach-retreat\",\"152\",\"1106319\",\"0.0-152.0\",\"\",\"\",\"1-4\",\"4284\",\"39\",\"0\",\"Testing\",\"Stims/Figures/87-C-20-4.bmp\",\"nala:la\",\"Right\",\"37\",\"1\",\"4\",\"7\",\"S\",\"C\",\"4\"
\"\",\"\",\"approach-retreat\",\"153\",\"1112604\",\"0.0-153.0\",\"\",\"\",\"1-4\",\"4781\",\"38\",\"0\",\"Testing\",\"Stims/Figures/144-J-10-3.bmp\",\"malala\",\"Down\",\"40\",\"1\",\"5\",\"7\",\"S\",\"C\",\"5\"
\"\",\"\",\"approach-retreat\",\"154\",\"1119777\",\"0.0-154.0\",\"\",\"\",\"1-4\",\"5669\",\"40\",\"1\",\"Testing\",\"Stims/Figures/86-C-30-1.bmp\",\"takata\",\"Up\",\"40\",\"1\",\"6\",\"7\",\"P\",\"C\",\"6\"
\"\",\"\",\"approach-retreat\",\"155\",\"1126664\",\"0.0-155.0\",\"\",\"\",\"1-4\",\"5382\",\"37\",\"0\",\"Testing\",\"Stims/Figures/118-J-0-2.bmp\",\"ta:kata\",\"Right\",\"39\",\"1\",\"7\",\"7\",\"P\",\"C\",\"7\"
\"\",\"\",\"approach-retreat\",\"156\",\"1132351\",\"0.0-156.0\",\"\",\"\",\"1-4\",\"4182\",\"38\",\"0\",\"Testing\",\"Stims/Figures/86-J-0-1.bmp\",\"pa:pa:ka\",\"Down\",\"40\",\"1\",\"8\",\"7\",\"P\",\"C\",\"8\"
\"\",\"\",\"approach-retreat\",\"157\",\"1138213\",\"0.0-157.0\",\"\",\"\",\"1-4\",\"4350\",\"39\",\"0\",\"Testing\",\"Stims/Figures/85-J-0-2.bmp\",\"tapa:ka\",\"Left\",\"37\",\"1\",\"9\",\"7\",\"P\",\"C\",\"9\"
\"\",\"\",\"approach-retreat\",\"158\",\"1144737\",\"0.0-158.0\",\"\",\"\",\"1-4\",\"5019\",\"40\",\"1\",\"Testing\",\"Stims/Figures/144-C-30-3.bmp\",\"na:ma:la\",\"Up\",\"40\",\"1\",\"10\",\"7\",\"S\",\"C\",\"10\"
\"\",\"\",\"approach-retreat\",\"159\",\"1150696\",\"0.0-159.0\",\"\",\"\",\"1-4\",\"4453\",\"38\",\"1\",\"Testing\",\"Stims/Figures/128-J-10-3.bmp\",\"mala:na\",\"Up\",\"38\",\"1\",\"11\",\"7\",\"S\",\"C\",\"11\"
\"\",\"\",\"approach-retreat\",\"160\",\"1157145\",\"0.0-160.0\",\"\",\"\",\"1-4\",\"4944\",\"38\",\"0\",\"Testing\",\"Stims/Figures/118-C-20-2.bmp\",\"takaka\",\"Up\",\"40\",\"1\",\"12\",\"7\",\"P\",\"C\",\"12\"
\"\",\"\",\"approach-retreat\",\"161\",\"1163003\",\"0.0-161.0\",\"\",\"\",\"1-4\",\"4355\",\"38\",\"1\",\"Testing\",\"Stims/Figures/74-C-20-4.bmp\",\"mamala\",\"Down\",\"38\",\"1\",\"13\",\"7\",\"S\",\"C\",\"13\"
\"\",\"\",\"approach-retreat\",\"162\",\"1169404\",\"0.0-162.0\",\"\",\"\",\"1-4\",\"4896\",\"37\",\"0\",\"Testing\",\"Stims/Figures/102-J-10-4.bmp\",\"ma:mana\",\"Right\",\"39\",\"1\",\"14\",\"7\",\"S\",\"C\",\"14\"
\"\",\"\",\"approach-retreat\",\"163\",\"1177099\",\"0.0-163.0\",\"\",\"\",\"1-4\",\"6189\",\"39\",\"1\",\"Testing\",\"Stims/Figures/128-C-30-3.bmp\",\"mala:la\",\"Left\",\"39\",\"1\",\"15\",\"7\",\"S\",\"C\",\"15\"
\"\",\"\",\"approach-retreat\",\"164\",\"1183099\",\"0.0-164.0\",\"\",\"\",\"1-4\",\"4496\",\"39\",\"0\",\"Testing\",\"Stims/Figures/27-C-30-1.bmp\",\"pa:kata\",\"Right\",\"37\",\"1\",\"16\",\"7\",\"P\",\"C\",\"16\"
\"\",\"\",\"approach-retreat\",\"165\",\"1189012\",\"0.0-165.0\",\"\",\"\",\"1-4\",\"4406\",\"39\",\"0\",\"Testing\",\"Stims/Figures/94-C-20-2.bmp\",\"pa:ka:ka\",\"Right\",\"37\",\"1\",\"17\",\"7\",\"P\",\"C\",\"17\"
\"\",\"\",\"approach-retreat\",\"166\",\"1196380\",\"0.0-166.0\",\"\",\"\",\"1-4\",\"5850\",\"38\",\"1\",\"Testing\",\"Stims/Figures/111-J-10-3.bmp\",\"ma:lana\",\"Up\",\"38\",\"1\",\"18\",\"7\",\"S\",\"C\",\"18\"
\"\",\"\",\"approach-retreat\",\"167\",\"1202522\",\"0.0-167.0\",\"\",\"\",\"1-4\",\"4632\",\"39\",\"1\",\"Testing\",\"Stims/Figures/111-C-30-3.bmp\",\"ma:ma:na\",\"Left\",\"39\",\"1\",\"19\",\"7\",\"S\",\"C\",\"19\"
\"\",\"\",\"approach-retreat\",\"168\",\"1208196\",\"0.0-168.0\",\"\",\"\",\"1-4\",\"4171\",\"39\",\"0\",\"Testing\",\"Stims/Figures/87-J-10-4.bmp\",\"na:lala\",\"Left\",\"37\",\"1\",\"20\",\"7\",\"S\",\"C\",\"20\"
\"\",\"\",\"approach-retreat\",\"169\",\"1214521\",\"0.0-169.0\",\"\",\"\",\"1-4\",\"4819\",\"37\",\"0\",\"Testing\",\"Stims/Figures/85-C-20-2.bmp\",\"taka:ta\",\"Left\",\"39\",\"1\",\"21\",\"7\",\"P\",\"C\",\"21\"
\"\",\"\",\"approach-retreat\",\"170\",\"1219916\",\"0.0-170.0\",\"\",\"\",\"1-4\",\"3886\",\"40\",\"0\",\"Testing\",\"Stims/Figures/57-C-30-1.bmp\",\"papa:ta\",\"Down\",\"38\",\"1\",\"22\",\"7\",\"P\",\"C\",\"22\"
\"\",\"\",\"approach-retreat\",\"171\",\"1225557\",\"0.0-171.0\",\"\",\"\",\"1-4\",\"4131\",\"39\",\"0\",\"Testing\",\"Stims/Figures/57-J-0-1.bmp\",\"ta:ka:ta\",\"Left\",\"37\",\"1\",\"23\",\"7\",\"P\",\"C\",\"23\"
\"\",\"\",\"approach-retreat\",\"172\",\"1231371\",\"0.0-172.0\",\"\",\"\",\"1-4\",\"4310\",\"38\",\"0\",\"Testing\",\"Stims/Figures/94-J-0-2.bmp\",\"ta:pa:ta\",\"Down\",\"40\",\"1\",\"24\",\"7\",\"P\",\"C\",\"24\"
\"\",\"\",\"approach-retreat\",\"173\",\"1239371\",\"0.0-173.0\",\"\",\"\",\"1-4\",\"6497\",\"39\",\"0\",\"Testing\",\"Stims/Figures/111-C-30-3.bmp\",\"ma:ma:na\",\"Right\",\"37\",\"2\",\"1\",\"7\",\"S\",\"C\",\"25\"
\"\",\"\",\"approach-retreat\",\"174\",\"1245850\",\"0.0-174.0\",\"\",\"\",\"1-4\",\"4974\",\"38\",\"0\",\"Testing\",\"Stims/Figures/85-J-0-2.bmp\",\"tapa:ka\",\"Down\",\"40\",\"2\",\"2\",\"7\",\"P\",\"C\",\"26\"
\"\",\"\",\"approach-retreat\",\"175\",\"1252199\",\"0.0-175.0\",\"\",\"\",\"1-4\",\"4846\",\"39\",\"1\",\"Testing\",\"Stims/Figures/102-C-20-4.bmp\",\"nala:na\",\"Left\",\"39\",\"2\",\"3\",\"7\",\"S\",\"C\",\"27\"
\"\",\"\",\"approach-retreat\",\"176\",\"1258163\",\"0.0-176.0\",\"\",\"\",\"1-4\",\"4459\",\"37\",\"1\",\"Testing\",\"Stims/Figures/74-J-10-4.bmp\",\"na:lana\",\"Left\",\"37\",\"2\",\"4\",\"7\",\"S\",\"C\",\"28\"
\"\",\"\",\"approach-retreat\",\"177\",\"1264235\",\"0.0-177.0\",\"\",\"\",\"1-4\",\"4568\",\"40\",\"1\",\"Testing\",\"Stims/Figures/87-J-10-4.bmp\",\"na:lala\",\"Down\",\"40\",\"2\",\"5\",\"7\",\"S\",\"C\",\"29\"
\"\",\"\",\"approach-retreat\",\"178\",\"1270459\",\"0.0-178.0\",\"\",\"\",\"1-4\",\"4715\",\"39\",\"0\",\"Testing\",\"Stims/Figures/118-J-0-2.bmp\",\"ta:kata\",\"Left\",\"37\",\"2\",\"6\",\"7\",\"P\",\"C\",\"30\"
\"\",\"\",\"approach-retreat\",\"179\",\"1276841\",\"0.0-179.0\",\"\",\"\",\"1-4\",\"4873\",\"38\",\"0\",\"Testing\",\"Stims/Figures/94-J-0-2.bmp\",\"ta:pa:ta\",\"Down\",\"40\",\"2\",\"7\",\"7\",\"P\",\"C\",\"31\"
\"\",\"\",\"approach-retreat\",\"180\",\"1283285\",\"0.0-180.0\",\"\",\"\",\"1-4\",\"4940\",\"38\",\"1\",\"Testing\",\"Stims/Figures/27-C-30-1.bmp\",\"pa:kata\",\"Down\",\"38\",\"2\",\"8\",\"7\",\"P\",\"C\",\"32\"
\"\",\"\",\"approach-retreat\",\"181\",\"1289804\",\"0.0-181.0\",\"\",\"\",\"1-4\",\"5015\",\"40\",\"0\",\"Testing\",\"Stims/Figures/111-J-10-3.bmp\",\"ma:lana\",\"Up\",\"38\",\"2\",\"9\",\"7\",\"S\",\"C\",\"33\"
\"\",\"\",\"approach-retreat\",\"182\",\"1295645\",\"0.0-182.0\",\"\",\"\",\"1-4\",\"4336\",\"40\",\"1\",\"Testing\",\"Stims/Figures/74-C-20-4.bmp\",\"mamala\",\"Up\",\"40\",\"2\",\"10\",\"7\",\"S\",\"C\",\"34\"
\"\",\"\",\"approach-retreat\",\"183\",\"1302755\",\"0.0-183.0\",\"\",\"\",\"1-4\",\"5607\",\"39\",\"0\",\"Testing\",\"Stims/Figures/87-C-20-4.bmp\",\"nala:la\",\"Right\",\"37\",\"2\",\"11\",\"7\",\"S\",\"C\",\"35\"
\"\",\"\",\"approach-retreat\",\"184\",\"1310403\",\"0.0-184.0\",\"\",\"\",\"1-4\",\"6143\",\"39\",\"1\",\"Testing\",\"Stims/Figures/85-C-20-2.bmp\",\"taka:ta\",\"Left\",\"39\",\"2\",\"12\",\"7\",\"P\",\"C\",\"36\"
\"\",\"\",\"approach-retreat\",\"185\",\"1316348\",\"0.0-185.0\",\"\",\"\",\"1-4\",\"4435\",\"40\",\"0\",\"Testing\",\"Stims/Figures/102-J-10-4.bmp\",\"ma:mana\",\"Up\",\"38\",\"2\",\"13\",\"7\",\"S\",\"C\",\"37\"
\"\",\"\",\"approach-retreat\",\"186\",\"1329065\",\"0.0-186.0\",\"\",\"\",\"1-4\",\"11207\",\"37\",\"0\",\"Testing\",\"Stims/Figures/57-C-30-1.bmp\",\"papa:ta\",\"Left\",\"39\",\"2\",\"14\",\"7\",\"P\",\"C\",\"38\"
\"\",\"\",\"approach-retreat\",\"187\",\"1335210\",\"0.0-187.0\",\"\",\"\",\"1-4\",\"4635\",\"37\",\"1\",\"Testing\",\"Stims/Figures/86-C-30-1.bmp\",\"takata\",\"Right\",\"37\",\"2\",\"15\",\"7\",\"P\",\"C\",\"39\"
\"\",\"\",\"approach-retreat\",\"188\",\"1345611\",\"0.0-188.0\",\"\",\"\",\"1-4\",\"8897\",\"40\",\"0\",\"Testing\",\"Stims/Figures/57-J-0-1.bmp\",\"ta:ka:ta\",\"Up\",\"38\",\"2\",\"16\",\"7\",\"P\",\"C\",\"40\"
\"\",\"\",\"approach-retreat\",\"189\",\"1351445\",\"0.0-189.0\",\"\",\"\",\"1-4\",\"4329\",\"37\",\"1\",\"Testing\",\"Stims/Figures/128-C-30-3.bmp\",\"mala:la\",\"Right\",\"37\",\"2\",\"17\",\"7\",\"S\",\"C\",\"41\"
\"\",\"\",\"approach-retreat\",\"190\",\"1357809\",\"0.0-190.0\",\"\",\"\",\"1-4\",\"4858\",\"39\",\"1\",\"Testing\",\"Stims/Figures/128-J-10-3.bmp\",\"mala:na\",\"Right\",\"39\",\"2\",\"18\",\"7\",\"S\",\"C\",\"42\"
\"\",\"\",\"approach-retreat\",\"191\",\"1364175\",\"0.0-191.0\",\"\",\"\",\"1-4\",\"4857\",\"40\",\"0\",\"Testing\",\"Stims/Figures/118-C-20-2.bmp\",\"takaka\",\"Down\",\"38\",\"2\",\"19\",\"7\",\"P\",\"C\",\"43\"
\"\",\"\",\"approach-retreat\",\"192\",\"1372515\",\"0.0-192.0\",\"\",\"\",\"1-4\",\"6834\",\"40\",\"1\",\"Testing\",\"Stims/Figures/27-J-0-1.bmp\",\"ta:pata\",\"Down\",\"40\",\"2\",\"20\",\"7\",\"P\",\"C\",\"44\"
\"\",\"\",\"approach-retreat\",\"193\",\"1382214\",\"0.0-193.0\",\"\",\"\",\"1-4\",\"8189\",\"38\",\"1\",\"Testing\",\"Stims/Figures/86-J-0-1.bmp\",\"pa:pa:ka\",\"Up\",\"38\",\"2\",\"21\",\"7\",\"P\",\"C\",\"45\"
\"\",\"\",\"approach-retreat\",\"194\",\"1388504\",\"0.0-194.0\",\"\",\"\",\"1-4\",\"4780\",\"39\",\"1\",\"Testing\",\"Stims/Figures/144-C-30-3.bmp\",\"na:ma:la\",\"Left\",\"39\",\"2\",\"22\",\"7\",\"S\",\"C\",\"46\"
\"\",\"\",\"approach-retreat\",\"195\",\"1396761\",\"0.0-195.0\",\"\",\"\",\"1-4\",\"6752\",\"40\",\"0\",\"Testing\",\"Stims/Figures/144-J-10-3.bmp\",\"malala\",\"Up\",\"38\",\"2\",\"23\",\"7\",\"S\",\"C\",\"47\"
\"\",\"\",\"approach-retreat\",\"196\",\"1403615\",\"0.0-196.0\",\"\",\"\",\"1-4\",\"5343\",\"37\",\"1\",\"Testing\",\"Stims/Figures/94-C-20-2.bmp\",\"pa:ka:ka\",\"Right\",\"37\",\"2\",\"24\",\"7\",\"P\",\"C\",\"48\"
\"\",\"\",\"approach-retreat\",\"197\",\"1409697\",\"0.0-197.0\",\"\",\"\",\"1-4\",\"4578\",\"40\",\"1\",\"Testing\",\"Stims/Figures/87-C-20-4.bmp\",\"nala:la\",\"Up\",\"40\",\"3\",\"1\",\"7\",\"S\",\"C\",\"49\"
\"\",\"\",\"approach-retreat\",\"198\",\"1415936\",\"0.0-198.0\",\"\",\"\",\"1-4\",\"4729\",\"39\",\"1\",\"Testing\",\"Stims/Figures/144-C-30-3.bmp\",\"na:ma:la\",\"Left\",\"39\",\"3\",\"2\",\"7\",\"S\",\"C\",\"50\"
\"\",\"\",\"approach-retreat\",\"199\",\"1422782\",\"0.0-199.0\",\"\",\"\",\"1-4\",\"5336\",\"38\",\"1\",\"Testing\",\"Stims/Figures/94-J-0-2.bmp\",\"ta:pa:ta\",\"Up\",\"38\",\"3\",\"3\",\"7\",\"P\",\"C\",\"51\"
\"\",\"\",\"approach-retreat\",\"200\",\"1429199\",\"0.0-200.0\",\"\",\"\",\"1-4\",\"4908\",\"40\",\"1\",\"Testing\",\"Stims/Figures/74-J-10-4.bmp\",\"na:lana\",\"Down\",\"40\",\"3\",\"4\",\"7\",\"S\",\"C\",\"52\"
\"\",\"\",\"approach-retreat\",\"201\",\"1435203\",\"0.0-201.0\",\"\",\"\",\"1-4\",\"4494\",\"39\",\"1\",\"Testing\",\"Stims/Figures/85-J-0-2.bmp\",\"tapa:ka\",\"Right\",\"39\",\"3\",\"5\",\"7\",\"P\",\"C\",\"53\"
\"\",\"\",\"approach-retreat\",\"202\",\"1441018\",\"0.0-202.0\",\"\",\"\",\"1-4\",\"4311\",\"40\",\"1\",\"Testing\",\"Stims/Figures/102-C-20-4.bmp\",\"nala:na\",\"Up\",\"40\",\"3\",\"6\",\"7\",\"S\",\"C\",\"54\"
\"\",\"\",\"approach-retreat\",\"203\",\"1446990\",\"0.0-203.0\",\"\",\"\",\"1-4\",\"4468\",\"39\",\"0\",\"Testing\",\"Stims/Figures/102-J-10-4.bmp\",\"ma:mana\",\"Left\",\"37\",\"3\",\"7\",\"7\",\"S\",\"C\",\"55\"
\"\",\"\",\"approach-retreat\",\"204\",\"1455520\",\"0.0-204.0\",\"\",\"\",\"1-4\",\"7020\",\"39\",\"0\",\"Testing\",\"Stims/Figures/85-C-20-2.bmp\",\"taka:ta\",\"Right\",\"37\",\"3\",\"8\",\"7\",\"P\",\"C\",\"56\"
\"\",\"\",\"approach-retreat\",\"205\",\"1463410\",\"0.0-205.0\",\"\",\"\",\"1-4\",\"6386\",\"37\",\"1\",\"Testing\",\"Stims/Figures/87-J-10-4.bmp\",\"na:lala\",\"Left\",\"37\",\"3\",\"9\",\"7\",\"S\",\"C\",\"57\"
\"\",\"\",\"approach-retreat\",\"206\",\"1471749\",\"0.0-206.0\",\"\",\"\",\"1-4\",\"6830\",\"40\",\"0\",\"Testing\",\"Stims/Figures/57-J-0-1.bmp\",\"ta:ka:ta\",\"Up\",\"38\",\"3\",\"10\",\"7\",\"P\",\"C\",\"58\"
\"\",\"\",\"approach-retreat\",\"207\",\"1477523\",\"0.0-207.0\",\"\",\"\",\"1-4\",\"4270\",\"39\",\"1\",\"Testing\",\"Stims/Figures/94-C-20-2.bmp\",\"pa:ka:ka\",\"Left\",\"39\",\"3\",\"11\",\"7\",\"P\",\"C\",\"59\"
\"\",\"\",\"approach-retreat\",\"208\",\"1483592\",\"0.0-208.0\",\"\",\"\",\"1-4\",\"4564\",\"38\",\"1\",\"Testing\",\"Stims/Figures/111-J-10-3.bmp\",\"ma:lana\",\"Up\",\"38\",\"3\",\"12\",\"7\",\"S\",\"C\",\"60\"
\"\",\"\",\"approach-retreat\",\"209\",\"1489614\",\"0.0-209.0\",\"\",\"\",\"1-4\",\"4511\",\"38\",\"0\",\"Testing\",\"Stims/Figures/27-C-30-1.bmp\",\"pa:kata\",\"Up\",\"40\",\"3\",\"13\",\"7\",\"P\",\"C\",\"61\"
\"\",\"\",\"approach-retreat\",\"210\",\"1496231\",\"0.0-210.0\",\"\",\"\",\"1-4\",\"5111\",\"39\",\"1\",\"Testing\",\"Stims/Figures/74-C-20-4.bmp\",\"mamala\",\"Left\",\"39\",\"3\",\"14\",\"7\",\"S\",\"C\",\"62\"
\"\",\"\",\"approach-retreat\",\"211\",\"1507137\",\"0.0-211.0\",\"\",\"\",\"1-4\",\"9395\",\"37\",\"1\",\"Testing\",\"Stims/Figures/111-C-30-3.bmp\",\"ma:ma:na\",\"Right\",\"37\",\"3\",\"15\",\"7\",\"S\",\"C\",\"63\"
\"\",\"\",\"approach-retreat\",\"212\",\"1513817\",\"0.0-212.0\",\"\",\"\",\"1-4\",\"5170\",\"39\",\"0\",\"Testing\",\"Stims/Figures/86-C-30-1.bmp\",\"takata\",\"Right\",\"37\",\"3\",\"16\",\"7\",\"P\",\"C\",\"64\"
\"\",\"\",\"approach-retreat\",\"213\",\"1519844\",\"0.0-213.0\",\"\",\"\",\"1-4\",\"4522\",\"38\",\"1\",\"Testing\",\"Stims/Figures/57-C-30-1.bmp\",\"papa:ta\",\"Down\",\"38\",\"3\",\"17\",\"7\",\"P\",\"C\",\"65\"
\"\",\"\",\"approach-retreat\",\"214\",\"1526661\",\"0.0-214.0\",\"\",\"\",\"1-4\",\"5307\",\"39\",\"1\",\"Testing\",\"Stims/Figures/86-J-0-1.bmp\",\"pa:pa:ka\",\"Right\",\"39\",\"3\",\"18\",\"7\",\"P\",\"C\",\"66\"
\"\",\"\",\"approach-retreat\",\"215\",\"1534802\",\"0.0-215.0\",\"\",\"\",\"1-4\",\"6632\",\"39\",\"1\",\"Testing\",\"Stims/Figures/118-J-0-2.bmp\",\"ta:kata\",\"Right\",\"39\",\"3\",\"19\",\"7\",\"P\",\"C\",\"67\"
\"\",\"\",\"approach-retreat\",\"216\",\"1541510\",\"0.0-216.0\",\"\",\"\",\"1-4\",\"5201\",\"38\",\"1\",\"Testing\",\"Stims/Figures/118-C-20-2.bmp\",\"takaka\",\"Down\",\"38\",\"3\",\"20\",\"7\",\"P\",\"C\",\"68\"
\"\",\"\",\"approach-retreat\",\"217\",\"1547785\",\"0.0-217.0\",\"\",\"\",\"1-4\",\"4766\",\"39\",\"0\",\"Testing\",\"Stims/Figures/27-J-0-1.bmp\",\"ta:pata\",\"Left\",\"37\",\"3\",\"21\",\"7\",\"P\",\"C\",\"69\"
\"\",\"\",\"approach-retreat\",\"218\",\"1554170\",\"0.0-218.0\",\"\",\"\",\"1-4\",\"4875\",\"38\",\"1\",\"Testing\",\"Stims/Figures/128-C-30-3.bmp\",\"mala:la\",\"Down\",\"38\",\"3\",\"22\",\"7\",\"S\",\"C\",\"70\"
\"\",\"\",\"approach-retreat\",\"219\",\"1560302\",\"0.0-219.0\",\"\",\"\",\"1-4\",\"4622\",\"38\",\"0\",\"Testing\",\"Stims/Figures/128-J-10-3.bmp\",\"mala:na\",\"Down\",\"40\",\"3\",\"23\",\"7\",\"S\",\"C\",\"71\"
\"\",\"\",\"approach-retreat\",\"220\",\"1566641\",\"0.0-220.0\",\"\",\"\",\"1-4\",\"4835\",\"40\",\"1\",\"Testing\",\"Stims/Figures/144-J-10-3.bmp\",\"malala\",\"Down\",\"40\",\"3\",\"24\",\"7\",\"S\",\"C\",\"72\"
\"\",\"\",\"approach-retreat\",\"221\",\"1573130\",\"0.0-221.0\",\"\",\"\",\"1-4\",\"4980\",\"39\",\"1\",\"Testing\",\"Stims/Figures/86-C-30-1.bmp\",\"takata\",\"Left\",\"39\",\"4\",\"1\",\"7\",\"P\",\"C\",\"73\"
\"\",\"\",\"approach-retreat\",\"222\",\"1580526\",\"0.0-222.0\",\"\",\"\",\"1-4\",\"5891\",\"39\",\"0\",\"Testing\",\"Stims/Figures/57-J-0-1.bmp\",\"ta:ka:ta\",\"Left\",\"37\",\"4\",\"2\",\"7\",\"P\",\"C\",\"74\"
\"\",\"\",\"approach-retreat\",\"223\",\"1586843\",\"0.0-223.0\",\"\",\"\",\"1-4\",\"4807\",\"37\",\"0\",\"Testing\",\"Stims/Figures/144-J-10-3.bmp\",\"malala\",\"Right\",\"39\",\"4\",\"3\",\"7\",\"S\",\"C\",\"75\"
\"\",\"\",\"approach-retreat\",\"224\",\"1592847\",\"0.0-224.0\",\"\",\"\",\"1-4\",\"4495\",\"37\",\"1\",\"Testing\",\"Stims/Figures/111-C-30-3.bmp\",\"ma:ma:na\",\"Right\",\"37\",\"4\",\"4\",\"7\",\"S\",\"C\",\"76\"
\"\",\"\",\"approach-retreat\",\"225\",\"1599648\",\"0.0-225.0\",\"\",\"\",\"1-4\",\"5295\",\"39\",\"1\",\"Testing\",\"Stims/Figures/128-C-30-3.bmp\",\"mala:la\",\"Left\",\"39\",\"4\",\"5\",\"7\",\"S\",\"C\",\"77\"
\"\",\"\",\"approach-retreat\",\"226\",\"1605497\",\"0.0-226.0\",\"\",\"\",\"1-4\",\"4343\",\"37\",\"0\",\"Testing\",\"Stims/Figures/87-J-10-4.bmp\",\"na:lala\",\"Right\",\"39\",\"4\",\"6\",\"7\",\"S\",\"C\",\"78\"
\"\",\"\",\"approach-retreat\",\"227\",\"1611473\",\"0.0-227.0\",\"\",\"\",\"1-4\",\"4467\",\"40\",\"0\",\"Testing\",\"Stims/Figures/85-C-20-2.bmp\",\"taka:ta\",\"Down\",\"38\",\"4\",\"7\",\"7\",\"P\",\"C\",\"79\"
\"\",\"\",\"approach-retreat\",\"228\",\"1616584\",\"0.0-228.0\",\"\",\"\",\"1-4\",\"3605\",\"40\",\"1\",\"Testing\",\"Stims/Figures/27-C-30-1.bmp\",\"pa:kata\",\"Up\",\"40\",\"4\",\"8\",\"7\",\"P\",\"C\",\"80\"
\"\",\"\",\"approach-retreat\",\"229\",\"1622734\",\"0.0-229.0\",\"\",\"\",\"1-4\",\"4639\",\"40\",\"0\",\"Testing\",\"Stims/Figures/102-C-20-4.bmp\",\"nala:na\",\"Down\",\"38\",\"4\",\"9\",\"7\",\"S\",\"C\",\"81\"
\"\",\"\",\"approach-retreat\",\"230\",\"1628562\",\"0.0-230.0\",\"\",\"\",\"1-4\",\"4318\",\"40\",\"0\",\"Testing\",\"Stims/Figures/85-J-0-2.bmp\",\"tapa:ka\",\"Up\",\"38\",\"4\",\"10\",\"7\",\"P\",\"C\",\"82\"
\"\",\"\",\"approach-retreat\",\"231\",\"1634032\",\"0.0-231.0\",\"\",\"\",\"1-4\",\"3961\",\"40\",\"1\",\"Testing\",\"Stims/Figures/27-J-0-1.bmp\",\"ta:pata\",\"Down\",\"40\",\"4\",\"11\",\"7\",\"P\",\"C\",\"83\"
\"\",\"\",\"approach-retreat\",\"232\",\"1639480\",\"0.0-232.0\",\"\",\"\",\"1-4\",\"3939\",\"38\",\"0\",\"Testing\",\"Stims/Figures/94-C-20-2.bmp\",\"pa:ka:ka\",\"Up\",\"40\",\"4\",\"12\",\"7\",\"P\",\"C\",\"84\"
\"\",\"\",\"approach-retreat\",\"233\",\"1646792\",\"0.0-233.0\",\"\",\"\",\"1-4\",\"5803\",\"40\",\"0\",\"Testing\",\"Stims/Figures/74-J-10-4.bmp\",\"na:lana\",\"Up\",\"38\",\"4\",\"13\",\"7\",\"S\",\"C\",\"85\"
\"\",\"\",\"approach-retreat\",\"234\",\"1653064\",\"0.0-234.0\",\"\",\"\",\"1-4\",\"4763\",\"38\",\"1\",\"Testing\",\"Stims/Figures/86-J-0-1.bmp\",\"pa:pa:ka\",\"Up\",\"38\",\"4\",\"14\",\"7\",\"P\",\"C\",\"86\"
\"\",\"\",\"approach-retreat\",\"235\",\"1659322\",\"0.0-235.0\",\"\",\"\",\"1-4\",\"4754\",\"39\",\"1\",\"Testing\",\"Stims/Figures/87-C-20-4.bmp\",\"nala:la\",\"Left\",\"39\",\"4\",\"15\",\"7\",\"S\",\"C\",\"87\"
\"\",\"\",\"approach-retreat\",\"236\",\"1665492\",\"0.0-236.0\",\"\",\"\",\"1-4\",\"4661\",\"39\",\"1\",\"Testing\",\"Stims/Figures/94-J-0-2.bmp\",\"ta:pa:ta\",\"Right\",\"39\",\"4\",\"16\",\"7\",\"P\",\"C\",\"88\"
\"\",\"\",\"approach-retreat\",\"237\",\"1672311\",\"0.0-237.0\",\"\",\"\",\"1-4\",\"5309\",\"38\",\"0\",\"Testing\",\"Stims/Figures/118-J-0-2.bmp\",\"ta:kata\",\"Down\",\"40\",\"4\",\"17\",\"7\",\"P\",\"C\",\"89\"
\"\",\"\",\"approach-retreat\",\"238\",\"1679183\",\"0.0-238.0\",\"\",\"\",\"1-4\",\"5363\",\"39\",\"0\",\"Testing\",\"Stims/Figures/102-J-10-4.bmp\",\"ma:mana\",\"Left\",\"37\",\"4\",\"18\",\"7\",\"S\",\"C\",\"90\"
\"\",\"\",\"approach-retreat\",\"239\",\"1685358\",\"0.0-239.0\",\"\",\"\",\"1-4\",\"4664\",\"39\",\"0\",\"Testing\",\"Stims/Figures/74-C-20-4.bmp\",\"mamala\",\"Right\",\"37\",\"4\",\"19\",\"7\",\"S\",\"C\",\"91\"
\"\",\"\",\"approach-retreat\",\"240\",\"1691771\",\"0.0-240.0\",\"\",\"\",\"1-4\",\"4905\",\"38\",\"0\",\"Testing\",\"Stims/Figures/128-J-10-3.bmp\",\"mala:na\",\"Down\",\"40\",\"4\",\"20\",\"7\",\"S\",\"C\",\"92\"
\"\",\"\",\"approach-retreat\",\"241\",\"1698028\",\"0.0-241.0\",\"\",\"\",\"1-4\",\"4745\",\"39\",\"0\",\"Testing\",\"Stims/Figures/118-C-20-2.bmp\",\"takaka\",\"Right\",\"37\",\"4\",\"21\",\"7\",\"P\",\"C\",\"93\"
\"\",\"\",\"approach-retreat\",\"242\",\"1704473\",\"0.0-242.0\",\"\",\"\",\"1-4\",\"4935\",\"38\",\"0\",\"Testing\",\"Stims/Figures/111-J-10-3.bmp\",\"ma:lana\",\"Down\",\"40\",\"4\",\"22\",\"7\",\"S\",\"C\",\"94\"
\"\",\"\",\"approach-retreat\",\"243\",\"1710939\",\"0.0-243.0\",\"\",\"\",\"1-4\",\"4963\",\"40\",\"1\",\"Testing\",\"Stims/Figures/144-C-30-3.bmp\",\"na:ma:la\",\"Up\",\"40\",\"4\",\"23\",\"7\",\"S\",\"C\",\"95\"
\"\",\"\",\"approach-retreat\",\"244\",\"1716687\",\"0.0-244.0\",\"\",\"\",\"1-4\",\"4240\",\"39\",\"1\",\"Testing\",\"Stims/Figures/57-C-30-1.bmp\",\"papa:ta\",\"Left\",\"39\",\"4\",\"24\",\"7\",\"P\",\"C\",\"96\"
\"13963\",\"\",\"survey-text\",\"245\",\"1730660\",\"0.0-245.0\",\"\",\"{\"\"Q0\"\":\"\"PS170024\"\"}\",\"\",\"\",\"\",\"\",\"\",\"\",\"\",\"\",\"\",\"\",\"\",\"\",\"\",\"\",\"\"
