\"rt\",\"key_press\",\"trial_type\",\"trial_index\",\"time_elapsed\",\"internal_node_id\",\"view_history\",\"responses\",\"Id\",\"Rt\",\"ResKeyCode\",\"ResCorr\",\"TrialType2\",\"Image\",\"Label\",\"Location\",\"CorrectResponse\",\"Block\",\"BlockTrial\",\"Condition\",\"LabelType\",\"Subcondition\",\"trialNum\"
\"59239\",\"32\",\"text\",\"0\",\"59242\",\"0.0-0.0-0.0\",\"\",\"\",\"\",\"\",\"\",\"\",\"\",\"\",\"\",\"\",\"\",\"\",\"\",\"\",\"\",\"\",\"\"
\"163809\",\"\",\"instructions\",\"1\",\"223054\",\"0.0-1.0\",\"[{\"\"page_index\"\":0,\"\"viewing_time\"\":163808}]\",\"\",\"\",\"\",\"\",\"\",\"\",\"\",\"\",\"\",\"\",\"\",\"\",\"\",\"\",\"\",\"\"
\"69432\",\"\",\"survey-multi-choice\",\"2\",\"292506\",\"0.0-2.0\",\"\",\"{\"\"Q0\"\":\"\"Da\"\",\"\"Q1\"\":\"\"Da\"\",\"\"Q2\"\":\"\"Da\"\",\"\"Q3\"\":\"\"Ne\"\",\"\"Q4\"\":\"\"Da\"\",\"\"Q5\"\":\"\"Da\"\"}\",\"\",\"\",\"\",\"\",\"\",\"\",\"\",\"\",\"\",\"\",\"\",\"\",\"\",\"\",\"\"
\"\",\"\",\"bio\",\"3\",\"306973\",\"0.0-3.0\",\"\",\"{\"\"age\"\":\"\"19\"\",\"\"gender\"\":\"\"f\"\",\"\"specify\"\":\"\"\"\"}\",\"\",\"\",\"\",\"\",\"\",\"\",\"\",\"\",\"\",\"\",\"\",\"\",\"\",\"\",\"\"
\"\",\"\",\"approach-retreat\",\"4\",\"321284\",\"0.0-4.0\",\"\",\"\",\"3-4\",\"12803\",\"40\",\"0\",\"Training\",\"Stims/Figures/144-C-30-3.bmp\",\"ma:la:na\",\"Down\",\"38\",\"1\",\"1\",\"7\",\"S\",\"C\",\"1\"
\"\",\"\",\"approach-retreat\",\"5\",\"328743\",\"0.0-5.0\",\"\",\"\",\"3-4\",\"5955\",\"37\",\"1\",\"Training\",\"Stims/Figures/84-C-20-2.bmp\",\"papata\",\"Right\",\"37\",\"1\",\"2\",\"7\",\"P\",\"C\",\"2\"
\"\",\"\",\"approach-retreat\",\"6\",\"336993\",\"0.0-6.0\",\"\",\"\",\"3-4\",\"6748\",\"39\",\"1\",\"Training\",\"Stims/Figures/57-C-30-1.bmp\",\"tapa:ka\",\"Left\",\"39\",\"1\",\"3\",\"7\",\"P\",\"C\",\"3\"
\"\",\"\",\"approach-retreat\",\"7\",\"345397\",\"0.0-7.0\",\"\",\"\",\"3-4\",\"6899\",\"38\",\"0\",\"Training\",\"Stims/Figures/44-J-10-3.bmp\",\"mama:na\",\"Down\",\"40\",\"1\",\"4\",\"7\",\"S\",\"C\",\"4\"
\"\",\"\",\"approach-retreat\",\"8\",\"353507\",\"0.0-8.0\",\"\",\"\",\"3-4\",\"6604\",\"39\",\"1\",\"Training\",\"Stims/Figures/87-J-10-4.bmp\",\"malana\",\"Right\",\"39\",\"1\",\"5\",\"7\",\"S\",\"C\",\"5\"
\"\",\"\",\"approach-retreat\",\"9\",\"360188\",\"0.0-9.0\",\"\",\"\",\"3-4\",\"5176\",\"37\",\"1\",\"Training\",\"Stims/Figures/74-J-10-4.bmp\",\"na:la:la\",\"Left\",\"37\",\"1\",\"6\",\"7\",\"S\",\"C\",\"6\"
\"\",\"\",\"approach-retreat\",\"10\",\"367706\",\"0.0-10.0\",\"\",\"\",\"3-4\",\"6013\",\"40\",\"0\",\"Training\",\"Stims/Figures/44-C-30-3.bmp\",\"mamana\",\"Down\",\"38\",\"1\",\"7\",\"7\",\"S\",\"C\",\"7\"
\"\",\"\",\"approach-retreat\",\"11\",\"375436\",\"0.0-11.0\",\"\",\"\",\"3-4\",\"6224\",\"38\",\"1\",\"Training\",\"Stims/Figures/139-J-0-2.bmp\",\"pa:pa:ta\",\"Up\",\"38\",\"1\",\"8\",\"7\",\"P\",\"C\",\"8\"
\"\",\"\",\"approach-retreat\",\"12\",\"381837\",\"0.0-12.0\",\"\",\"\",\"3-4\",\"4895\",\"39\",\"0\",\"Training\",\"Stims/Figures/57-J-0-1.bmp\",\"tapaka\",\"Left\",\"37\",\"1\",\"9\",\"7\",\"P\",\"C\",\"9\"
\"\",\"\",\"approach-retreat\",\"13\",\"388286\",\"0.0-13.0\",\"\",\"\",\"3-4\",\"4945\",\"40\",\"1\",\"Training\",\"Stims/Figures/74-C-20-4.bmp\",\"nala:na\",\"Up\",\"40\",\"1\",\"10\",\"7\",\"S\",\"C\",\"10\"
\"\",\"\",\"approach-retreat\",\"14\",\"394506\",\"0.0-14.0\",\"\",\"\",\"3-4\",\"4716\",\"40\",\"0\",\"Training\",\"Stims/Figures/84-J-0-2.bmp\",\"pa:kata\",\"Up\",\"38\",\"1\",\"11\",\"7\",\"P\",\"C\",\"11\"
\"\",\"\",\"approach-retreat\",\"15\",\"400499\",\"0.0-15.0\",\"\",\"\",\"3-4\",\"4489\",\"37\",\"0\",\"Training\",\"Stims/Figures/144-J-10-3.bmp\",\"na:la:na\",\"Right\",\"39\",\"1\",\"12\",\"7\",\"S\",\"C\",\"12\"
\"\",\"\",\"approach-retreat\",\"16\",\"408006\",\"0.0-16.0\",\"\",\"\",\"3-4\",\"6000\",\"40\",\"0\",\"Training\",\"Stims/Figures/71-J-0-1.bmp\",\"ta:kata\",\"Up\",\"38\",\"1\",\"13\",\"7\",\"P\",\"C\",\"13\"
\"\",\"\",\"approach-retreat\",\"17\",\"415158\",\"0.0-17.0\",\"\",\"\",\"3-4\",\"5647\",\"37\",\"1\",\"Training\",\"Stims/Figures/87-C-20-4.bmp\",\"na:ma:na\",\"Right\",\"37\",\"1\",\"14\",\"7\",\"S\",\"C\",\"14\"
\"\",\"\",\"approach-retreat\",\"18\",\"421563\",\"0.0-18.0\",\"\",\"\",\"3-4\",\"4901\",\"37\",\"0\",\"Training\",\"Stims/Figures/139-C-20-2.bmp\",\"paka:ka\",\"Left\",\"39\",\"1\",\"15\",\"7\",\"P\",\"C\",\"15\"
\"\",\"\",\"approach-retreat\",\"19\",\"427790\",\"0.0-19.0\",\"\",\"\",\"3-4\",\"4722\",\"40\",\"0\",\"Training\",\"Stims/Figures/71-C-30-1.bmp\",\"pakata\",\"Down\",\"38\",\"1\",\"16\",\"7\",\"P\",\"C\",\"16\"
\"\",\"\",\"approach-retreat\",\"20\",\"436261\",\"0.0-20.0\",\"\",\"\",\"3-4\",\"6968\",\"39\",\"0\",\"Training\",\"Stims/Figures/139-C-20-2.bmp\",\"paka:ka\",\"Right\",\"37\",\"2\",\"1\",\"7\",\"P\",\"C\",\"17\"
\"\",\"\",\"approach-retreat\",\"21\",\"442558\",\"0.0-21.0\",\"\",\"\",\"3-4\",\"4793\",\"38\",\"1\",\"Training\",\"Stims/Figures/84-C-20-2.bmp\",\"papata\",\"Down\",\"38\",\"2\",\"2\",\"7\",\"P\",\"C\",\"18\"
\"\",\"\",\"approach-retreat\",\"22\",\"448170\",\"0.0-22.0\",\"\",\"\",\"3-4\",\"4108\",\"38\",\"1\",\"Training\",\"Stims/Figures/44-C-30-3.bmp\",\"mamana\",\"Down\",\"38\",\"2\",\"3\",\"7\",\"S\",\"C\",\"19\"
\"\",\"\",\"approach-retreat\",\"23\",\"455350\",\"0.0-23.0\",\"\",\"\",\"3-4\",\"5675\",\"37\",\"1\",\"Training\",\"Stims/Figures/87-C-20-4.bmp\",\"na:ma:na\",\"Right\",\"37\",\"2\",\"4\",\"7\",\"S\",\"C\",\"20\"
\"\",\"\",\"approach-retreat\",\"24\",\"461362\",\"0.0-24.0\",\"\",\"\",\"3-4\",\"4506\",\"40\",\"1\",\"Training\",\"Stims/Figures/144-J-10-3.bmp\",\"na:la:na\",\"Down\",\"40\",\"2\",\"5\",\"7\",\"S\",\"C\",\"21\"
\"\",\"\",\"approach-retreat\",\"25\",\"469275\",\"0.0-25.0\",\"\",\"\",\"3-4\",\"6409\",\"37\",\"1\",\"Training\",\"Stims/Figures/139-J-0-2.bmp\",\"pa:pa:ta\",\"Left\",\"37\",\"2\",\"6\",\"7\",\"P\",\"C\",\"22\"
\"\",\"\",\"approach-retreat\",\"26\",\"475701\",\"0.0-26.0\",\"\",\"\",\"3-4\",\"4921\",\"38\",\"1\",\"Training\",\"Stims/Figures/87-J-10-4.bmp\",\"malana\",\"Up\",\"38\",\"2\",\"7\",\"7\",\"S\",\"C\",\"23\"
\"\",\"\",\"approach-retreat\",\"27\",\"483113\",\"0.0-27.0\",\"\",\"\",\"3-4\",\"5907\",\"38\",\"0\",\"Training\",\"Stims/Figures/74-C-20-4.bmp\",\"nala:na\",\"Up\",\"40\",\"2\",\"8\",\"7\",\"S\",\"C\",\"24\"
\"\",\"\",\"approach-retreat\",\"28\",\"491866\",\"0.0-28.0\",\"\",\"\",\"3-4\",\"7245\",\"38\",\"0\",\"Training\",\"Stims/Figures/71-C-30-1.bmp\",\"pakata\",\"Up\",\"40\",\"2\",\"9\",\"7\",\"P\",\"C\",\"25\"
\"\",\"\",\"approach-retreat\",\"29\",\"497967\",\"0.0-29.0\",\"\",\"\",\"3-4\",\"4598\",\"39\",\"1\",\"Training\",\"Stims/Figures/57-J-0-1.bmp\",\"tapaka\",\"Right\",\"39\",\"2\",\"10\",\"7\",\"P\",\"C\",\"26\"
\"\",\"\",\"approach-retreat\",\"30\",\"503865\",\"0.0-30.0\",\"\",\"\",\"3-4\",\"4393\",\"39\",\"1\",\"Training\",\"Stims/Figures/144-C-30-3.bmp\",\"ma:la:na\",\"Left\",\"39\",\"2\",\"11\",\"7\",\"S\",\"C\",\"27\"
\"\",\"\",\"approach-retreat\",\"31\",\"510097\",\"0.0-31.0\",\"\",\"\",\"3-4\",\"4729\",\"37\",\"1\",\"Training\",\"Stims/Figures/44-J-10-3.bmp\",\"mama:na\",\"Left\",\"37\",\"2\",\"12\",\"7\",\"S\",\"C\",\"28\"
\"\",\"\",\"approach-retreat\",\"32\",\"517173\",\"0.0-32.0\",\"\",\"\",\"3-4\",\"5571\",\"40\",\"1\",\"Training\",\"Stims/Figures/71-J-0-1.bmp\",\"ta:kata\",\"Down\",\"40\",\"2\",\"13\",\"7\",\"P\",\"C\",\"29\"
\"\",\"\",\"approach-retreat\",\"33\",\"526751\",\"0.0-33.0\",\"\",\"\",\"3-4\",\"8072\",\"39\",\"0\",\"Training\",\"Stims/Figures/57-C-30-1.bmp\",\"tapa:ka\",\"Right\",\"37\",\"2\",\"14\",\"7\",\"P\",\"C\",\"30\"
\"\",\"\",\"approach-retreat\",\"34\",\"533679\",\"0.0-34.0\",\"\",\"\",\"3-4\",\"5423\",\"39\",\"0\",\"Training\",\"Stims/Figures/84-J-0-2.bmp\",\"pa:kata\",\"Left\",\"37\",\"2\",\"15\",\"7\",\"P\",\"C\",\"31\"
\"\",\"\",\"approach-retreat\",\"35\",\"541679\",\"0.0-35.0\",\"\",\"\",\"3-4\",\"6495\",\"38\",\"1\",\"Training\",\"Stims/Figures/74-J-10-4.bmp\",\"na:la:la\",\"Up\",\"38\",\"2\",\"16\",\"7\",\"S\",\"C\",\"32\"
\"\",\"\",\"approach-retreat\",\"36\",\"547975\",\"0.0-36.0\",\"\",\"\",\"3-4\",\"4793\",\"38\",\"1\",\"Training\",\"Stims/Figures/144-J-10-3.bmp\",\"na:la:na\",\"Up\",\"38\",\"3\",\"1\",\"7\",\"S\",\"C\",\"33\"
\"\",\"\",\"approach-retreat\",\"37\",\"556471\",\"0.0-37.0\",\"\",\"\",\"3-4\",\"6992\",\"37\",\"1\",\"Training\",\"Stims/Figures/57-J-0-1.bmp\",\"tapaka\",\"Left\",\"37\",\"3\",\"2\",\"7\",\"P\",\"C\",\"34\"
\"\",\"\",\"approach-retreat\",\"38\",\"563976\",\"0.0-38.0\",\"\",\"\",\"3-4\",\"5999\",\"40\",\"1\",\"Training\",\"Stims/Figures/74-J-10-4.bmp\",\"na:la:la\",\"Down\",\"40\",\"3\",\"3\",\"7\",\"S\",\"C\",\"35\"
\"\",\"\",\"approach-retreat\",\"39\",\"571826\",\"0.0-39.0\",\"\",\"\",\"3-4\",\"6345\",\"40\",\"1\",\"Training\",\"Stims/Figures/84-J-0-2.bmp\",\"pa:kata\",\"Down\",\"40\",\"3\",\"4\",\"7\",\"P\",\"C\",\"36\"
\"\",\"\",\"approach-retreat\",\"40\",\"578041\",\"0.0-40.0\",\"\",\"\",\"3-4\",\"4710\",\"38\",\"1\",\"Training\",\"Stims/Figures/71-J-0-1.bmp\",\"ta:kata\",\"Up\",\"38\",\"3\",\"5\",\"7\",\"P\",\"C\",\"37\"
\"\",\"\",\"approach-retreat\",\"41\",\"587551\",\"0.0-41.0\",\"\",\"\",\"3-4\",\"8006\",\"37\",\"1\",\"Training\",\"Stims/Figures/84-C-20-2.bmp\",\"papata\",\"Right\",\"37\",\"3\",\"6\",\"7\",\"P\",\"C\",\"38\"
\"\",\"\",\"approach-retreat\",\"42\",\"596437\",\"0.0-42.0\",\"\",\"\",\"3-4\",\"7382\",\"38\",\"0\",\"Training\",\"Stims/Figures/74-C-20-4.bmp\",\"nala:na\",\"Up\",\"40\",\"3\",\"7\",\"7\",\"S\",\"C\",\"39\"
\"\",\"\",\"approach-retreat\",\"43\",\"605404\",\"0.0-43.0\",\"\",\"\",\"3-4\",\"7461\",\"39\",\"0\",\"Training\",\"Stims/Figures/144-C-30-3.bmp\",\"ma:la:na\",\"Right\",\"37\",\"3\",\"8\",\"7\",\"S\",\"C\",\"40\"
\"\",\"\",\"approach-retreat\",\"44\",\"612179\",\"0.0-44.0\",\"\",\"\",\"3-4\",\"5270\",\"40\",\"0\",\"Training\",\"Stims/Figures/57-C-30-1.bmp\",\"tapa:ka\",\"Down\",\"38\",\"3\",\"9\",\"7\",\"P\",\"C\",\"41\"
\"\",\"\",\"approach-retreat\",\"45\",\"618378\",\"0.0-45.0\",\"\",\"\",\"3-4\",\"4695\",\"37\",\"1\",\"Training\",\"Stims/Figures/44-C-30-3.bmp\",\"mamana\",\"Right\",\"37\",\"3\",\"10\",\"7\",\"S\",\"C\",\"42\"
\"\",\"\",\"approach-retreat\",\"46\",\"627755\",\"0.0-46.0\",\"\",\"\",\"3-4\",\"7872\",\"37\",\"0\",\"Training\",\"Stims/Figures/87-C-20-4.bmp\",\"na:ma:na\",\"Left\",\"39\",\"3\",\"11\",\"7\",\"S\",\"C\",\"43\"
\"\",\"\",\"approach-retreat\",\"47\",\"633644\",\"0.0-47.0\",\"\",\"\",\"3-4\",\"4386\",\"38\",\"1\",\"Training\",\"Stims/Figures/71-C-30-1.bmp\",\"pakata\",\"Down\",\"38\",\"3\",\"12\",\"7\",\"P\",\"C\",\"44\"
\"\",\"\",\"approach-retreat\",\"48\",\"640248\",\"0.0-48.0\",\"\",\"\",\"3-4\",\"5099\",\"39\",\"0\",\"Training\",\"Stims/Figures/139-C-20-2.bmp\",\"paka:ka\",\"Right\",\"37\",\"3\",\"13\",\"7\",\"P\",\"C\",\"45\"
\"\",\"\",\"approach-retreat\",\"49\",\"646847\",\"0.0-49.0\",\"\",\"\",\"3-4\",\"5094\",\"40\",\"0\",\"Training\",\"Stims/Figures/44-J-10-3.bmp\",\"mama:na\",\"Up\",\"38\",\"3\",\"14\",\"7\",\"S\",\"C\",\"46\"
\"\",\"\",\"approach-retreat\",\"50\",\"655361\",\"0.0-50.0\",\"\",\"\",\"3-4\",\"7009\",\"37\",\"1\",\"Training\",\"Stims/Figures/139-J-0-2.bmp\",\"pa:pa:ta\",\"Left\",\"37\",\"3\",\"15\",\"7\",\"P\",\"C\",\"47\"
\"\",\"\",\"approach-retreat\",\"51\",\"662676\",\"0.0-51.0\",\"\",\"\",\"3-4\",\"5811\",\"39\",\"0\",\"Training\",\"Stims/Figures/87-J-10-4.bmp\",\"malana\",\"Left\",\"37\",\"3\",\"16\",\"7\",\"S\",\"C\",\"48\"
\"\",\"\",\"approach-retreat\",\"52\",\"668553\",\"0.0-52.0\",\"\",\"\",\"3-4\",\"4372\",\"37\",\"1\",\"Training\",\"Stims/Figures/139-C-20-2.bmp\",\"paka:ka\",\"Right\",\"37\",\"4\",\"1\",\"7\",\"P\",\"C\",\"49\"
\"\",\"\",\"approach-retreat\",\"53\",\"678238\",\"0.0-53.0\",\"\",\"\",\"3-4\",\"8180\",\"38\",\"1\",\"Training\",\"Stims/Figures/71-C-30-1.bmp\",\"pakata\",\"Down\",\"38\",\"4\",\"2\",\"7\",\"P\",\"C\",\"50\"
\"\",\"\",\"approach-retreat\",\"54\",\"685111\",\"0.0-54.0\",\"\",\"\",\"3-4\",\"5369\",\"39\",\"1\",\"Training\",\"Stims/Figures/144-C-30-3.bmp\",\"ma:la:na\",\"Left\",\"39\",\"4\",\"3\",\"7\",\"S\",\"C\",\"51\"
\"\",\"\",\"approach-retreat\",\"55\",\"694557\",\"0.0-55.0\",\"\",\"\",\"3-4\",\"7940\",\"40\",\"1\",\"Training\",\"Stims/Figures/74-C-20-4.bmp\",\"nala:na\",\"Up\",\"40\",\"4\",\"4\",\"7\",\"S\",\"C\",\"52\"
\"\",\"\",\"approach-retreat\",\"56\",\"700304\",\"0.0-56.0\",\"\",\"\",\"3-4\",\"4242\",\"39\",\"0\",\"Training\",\"Stims/Figures/84-J-0-2.bmp\",\"pa:kata\",\"Left\",\"37\",\"4\",\"5\",\"7\",\"P\",\"C\",\"53\"
\"\",\"\",\"approach-retreat\",\"57\",\"706943\",\"0.0-57.0\",\"\",\"\",\"3-4\",\"5134\",\"37\",\"0\",\"Training\",\"Stims/Figures/57-J-0-1.bmp\",\"tapaka\",\"Right\",\"39\",\"4\",\"6\",\"7\",\"P\",\"C\",\"54\"
\"\",\"\",\"approach-retreat\",\"58\",\"713051\",\"0.0-58.0\",\"\",\"\",\"3-4\",\"4603\",\"39\",\"0\",\"Training\",\"Stims/Figures/144-J-10-3.bmp\",\"na:la:na\",\"Left\",\"37\",\"4\",\"7\",\"7\",\"S\",\"C\",\"55\"
\"\",\"\",\"approach-retreat\",\"59\",\"721434\",\"0.0-59.0\",\"\",\"\",\"3-4\",\"6878\",\"38\",\"0\",\"Training\",\"Stims/Figures/74-J-10-4.bmp\",\"na:la:la\",\"Down\",\"40\",\"4\",\"8\",\"7\",\"S\",\"C\",\"56\"
\"\",\"\",\"approach-retreat\",\"60\",\"727156\",\"0.0-60.0\",\"\",\"\",\"3-4\",\"4219\",\"38\",\"0\",\"Training\",\"Stims/Figures/71-J-0-1.bmp\",\"ta:kata\",\"Down\",\"40\",\"4\",\"9\",\"7\",\"P\",\"C\",\"57\"
\"\",\"\",\"approach-retreat\",\"61\",\"733081\",\"0.0-61.0\",\"\",\"\",\"3-4\",\"4421\",\"37\",\"0\",\"Training\",\"Stims/Figures/87-J-10-4.bmp\",\"malana\",\"Right\",\"39\",\"4\",\"10\",\"7\",\"S\",\"C\",\"58\"
\"\",\"\",\"approach-retreat\",\"62\",\"740132\",\"0.0-62.0\",\"\",\"\",\"3-4\",\"5546\",\"40\",\"1\",\"Training\",\"Stims/Figures/87-C-20-4.bmp\",\"na:ma:na\",\"Up\",\"40\",\"4\",\"11\",\"7\",\"S\",\"C\",\"59\"
\"\",\"\",\"approach-retreat\",\"63\",\"746814\",\"0.0-63.0\",\"\",\"\",\"3-4\",\"5177\",\"40\",\"0\",\"Training\",\"Stims/Figures/44-J-10-3.bmp\",\"mama:na\",\"Up\",\"38\",\"4\",\"12\",\"7\",\"S\",\"C\",\"60\"
\"\",\"\",\"approach-retreat\",\"64\",\"754250\",\"0.0-64.0\",\"\",\"\",\"3-4\",\"5930\",\"39\",\"0\",\"Training\",\"Stims/Figures/57-C-30-1.bmp\",\"tapa:ka\",\"Right\",\"37\",\"4\",\"13\",\"7\",\"P\",\"C\",\"61\"
\"\",\"\",\"approach-retreat\",\"65\",\"760061\",\"0.0-65.0\",\"\",\"\",\"3-4\",\"4308\",\"39\",\"1\",\"Training\",\"Stims/Figures/84-C-20-2.bmp\",\"papata\",\"Left\",\"39\",\"4\",\"14\",\"7\",\"P\",\"C\",\"62\"
\"\",\"\",\"approach-retreat\",\"66\",\"777246\",\"0.0-66.0\",\"\",\"\",\"3-4\",\"15680\",\"38\",\"1\",\"Training\",\"Stims/Figures/139-J-0-2.bmp\",\"pa:pa:ta\",\"Up\",\"38\",\"4\",\"15\",\"7\",\"P\",\"C\",\"63\"
\"\",\"\",\"approach-retreat\",\"67\",\"783202\",\"0.0-67.0\",\"\",\"\",\"3-4\",\"4453\",\"38\",\"1\",\"Training\",\"Stims/Figures/44-C-30-3.bmp\",\"mamana\",\"Down\",\"38\",\"4\",\"16\",\"7\",\"S\",\"C\",\"64\"
\"\",\"\",\"approach-retreat\",\"68\",\"791073\",\"0.0-68.0\",\"\",\"\",\"3-4\",\"6366\",\"38\",\"0\",\"Training\",\"Stims/Figures/57-J-0-1.bmp\",\"tapaka\",\"Down\",\"40\",\"5\",\"1\",\"7\",\"P\",\"C\",\"65\"
\"\",\"\",\"approach-retreat\",\"69\",\"797360\",\"0.0-69.0\",\"\",\"\",\"3-4\",\"4783\",\"38\",\"1\",\"Training\",\"Stims/Figures/87-J-10-4.bmp\",\"malana\",\"Up\",\"38\",\"5\",\"2\",\"7\",\"S\",\"C\",\"66\"
\"\",\"\",\"approach-retreat\",\"70\",\"803013\",\"0.0-70.0\",\"\",\"\",\"3-4\",\"4149\",\"39\",\"1\",\"Training\",\"Stims/Figures/71-J-0-1.bmp\",\"ta:kata\",\"Right\",\"39\",\"5\",\"3\",\"7\",\"P\",\"C\",\"67\"
\"\",\"\",\"approach-retreat\",\"71\",\"808645\",\"0.0-71.0\",\"\",\"\",\"3-4\",\"4127\",\"39\",\"0\",\"Training\",\"Stims/Figures/84-C-20-2.bmp\",\"papata\",\"Right\",\"37\",\"5\",\"4\",\"7\",\"P\",\"C\",\"68\"
\"\",\"\",\"approach-retreat\",\"72\",\"814562\",\"0.0-72.0\",\"\",\"\",\"3-4\",\"4412\",\"37\",\"0\",\"Training\",\"Stims/Figures/139-C-20-2.bmp\",\"paka:ka\",\"Left\",\"39\",\"5\",\"5\",\"7\",\"P\",\"C\",\"69\"
\"\",\"\",\"approach-retreat\",\"73\",\"821591\",\"0.0-73.0\",\"\",\"\",\"3-4\",\"5522\",\"40\",\"0\",\"Training\",\"Stims/Figures/44-J-10-3.bmp\",\"mama:na\",\"Up\",\"38\",\"5\",\"6\",\"7\",\"S\",\"C\",\"70\"
\"\",\"\",\"approach-retreat\",\"74\",\"829039\",\"0.0-74.0\",\"\",\"\",\"3-4\",\"5944\",\"37\",\"1\",\"Training\",\"Stims/Figures/57-C-30-1.bmp\",\"tapa:ka\",\"Right\",\"37\",\"5\",\"7\",\"7\",\"P\",\"C\",\"71\"
\"\",\"\",\"approach-retreat\",\"75\",\"835976\",\"0.0-75.0\",\"\",\"\",\"3-4\",\"5433\",\"40\",\"1\",\"Training\",\"Stims/Figures/139-J-0-2.bmp\",\"pa:pa:ta\",\"Down\",\"40\",\"5\",\"8\",\"7\",\"P\",\"C\",\"72\"
\"\",\"\",\"approach-retreat\",\"76\",\"845730\",\"0.0-76.0\",\"\",\"\",\"3-4\",\"8250\",\"39\",\"0\",\"Training\",\"Stims/Figures/71-C-30-1.bmp\",\"pakata\",\"Right\",\"37\",\"5\",\"9\",\"7\",\"P\",\"C\",\"73\"
\"\",\"\",\"approach-retreat\",\"77\",\"855813\",\"0.0-77.0\",\"\",\"\",\"3-4\",\"8580\",\"40\",\"0\",\"Training\",\"Stims/Figures/144-J-10-3.bmp\",\"na:la:na\",\"Up\",\"38\",\"5\",\"10\",\"7\",\"S\",\"C\",\"74\"
\"\",\"\",\"approach-retreat\",\"78\",\"863717\",\"0.0-78.0\",\"\",\"\",\"3-4\",\"6399\",\"38\",\"1\",\"Training\",\"Stims/Figures/144-C-30-3.bmp\",\"ma:la:na\",\"Down\",\"38\",\"5\",\"11\",\"7\",\"S\",\"C\",\"75\"
\"\",\"\",\"approach-retreat\",\"79\",\"870467\",\"0.0-79.0\",\"\",\"\",\"3-4\",\"5247\",\"39\",\"1\",\"Training\",\"Stims/Figures/87-C-20-4.bmp\",\"na:ma:na\",\"Left\",\"39\",\"5\",\"12\",\"7\",\"S\",\"C\",\"76\"
\"\",\"\",\"approach-retreat\",\"80\",\"876616\",\"0.0-80.0\",\"\",\"\",\"3-4\",\"4643\",\"38\",\"1\",\"Training\",\"Stims/Figures/74-C-20-4.bmp\",\"nala:na\",\"Down\",\"38\",\"5\",\"13\",\"7\",\"S\",\"C\",\"77\"
\"\",\"\",\"approach-retreat\",\"81\",\"882584\",\"0.0-81.0\",\"\",\"\",\"3-4\",\"4462\",\"37\",\"1\",\"Training\",\"Stims/Figures/74-J-10-4.bmp\",\"na:la:la\",\"Left\",\"37\",\"5\",\"14\",\"7\",\"S\",\"C\",\"78\"
\"\",\"\",\"approach-retreat\",\"82\",\"888518\",\"0.0-82.0\",\"\",\"\",\"3-4\",\"4430\",\"37\",\"0\",\"Training\",\"Stims/Figures/44-C-30-3.bmp\",\"mamana\",\"Left\",\"39\",\"5\",\"15\",\"7\",\"S\",\"C\",\"79\"
\"\",\"\",\"approach-retreat\",\"83\",\"894662\",\"0.0-83.0\",\"\",\"\",\"3-4\",\"4638\",\"40\",\"0\",\"Training\",\"Stims/Figures/84-J-0-2.bmp\",\"pa:kata\",\"Up\",\"38\",\"5\",\"16\",\"7\",\"P\",\"C\",\"80\"
\"\",\"\",\"approach-retreat\",\"84\",\"904174\",\"0.0-84.0\",\"\",\"\",\"3-4\",\"8006\",\"39\",\"1\",\"Training\",\"Stims/Figures/144-C-30-3.bmp\",\"ma:la:na\",\"Left\",\"39\",\"6\",\"1\",\"7\",\"S\",\"C\",\"81\"
\"\",\"\",\"approach-retreat\",\"85\",\"913096\",\"0.0-85.0\",\"\",\"\",\"3-4\",\"7419\",\"37\",\"1\",\"Training\",\"Stims/Figures/144-J-10-3.bmp\",\"na:la:na\",\"Left\",\"37\",\"6\",\"2\",\"7\",\"S\",\"C\",\"82\"
\"\",\"\",\"approach-retreat\",\"86\",\"919145\",\"0.0-86.0\",\"\",\"\",\"3-4\",\"4545\",\"38\",\"0\",\"Training\",\"Stims/Figures/44-J-10-3.bmp\",\"mama:na\",\"Down\",\"40\",\"6\",\"3\",\"7\",\"S\",\"C\",\"83\"
\"\",\"\",\"approach-retreat\",\"87\",\"931037\",\"0.0-87.0\",\"\",\"\",\"3-4\",\"10389\",\"38\",\"1\",\"Training\",\"Stims/Figures/87-J-10-4.bmp\",\"malana\",\"Up\",\"38\",\"6\",\"4\",\"7\",\"S\",\"C\",\"84\"
\"\",\"\",\"approach-retreat\",\"88\",\"937324\",\"0.0-88.0\",\"\",\"\",\"3-4\",\"4781\",\"39\",\"1\",\"Training\",\"Stims/Figures/71-J-0-1.bmp\",\"ta:kata\",\"Right\",\"39\",\"6\",\"5\",\"7\",\"P\",\"C\",\"85\"
\"\",\"\",\"approach-retreat\",\"89\",\"950984\",\"0.0-89.0\",\"\",\"\",\"3-4\",\"12154\",\"37\",\"0\",\"Training\",\"Stims/Figures/87-C-20-4.bmp\",\"na:ma:na\",\"Left\",\"39\",\"6\",\"6\",\"7\",\"S\",\"C\",\"86\"
\"\",\"\",\"approach-retreat\",\"90\",\"957440\",\"0.0-90.0\",\"\",\"\",\"3-4\",\"4952\",\"40\",\"0\",\"Training\",\"Stims/Figures/57-C-30-1.bmp\",\"tapa:ka\",\"Down\",\"38\",\"6\",\"7\",\"7\",\"P\",\"C\",\"87\"
\"\",\"\",\"approach-retreat\",\"91\",\"965228\",\"0.0-91.0\",\"\",\"\",\"3-4\",\"6283\",\"40\",\"1\",\"Training\",\"Stims/Figures/84-C-20-2.bmp\",\"papata\",\"Up\",\"40\",\"6\",\"8\",\"7\",\"P\",\"C\",\"88\"
\"\",\"\",\"approach-retreat\",\"92\",\"979456\",\"0.0-92.0\",\"\",\"\",\"3-4\",\"12722\",\"39\",\"1\",\"Training\",\"Stims/Figures/74-J-10-4.bmp\",\"na:la:la\",\"Right\",\"39\",\"6\",\"9\",\"7\",\"S\",\"C\",\"89\"
\"\",\"\",\"approach-retreat\",\"93\",\"985974\",\"0.0-93.0\",\"\",\"\",\"3-4\",\"5013\",\"38\",\"1\",\"Training\",\"Stims/Figures/71-C-30-1.bmp\",\"pakata\",\"Down\",\"38\",\"6\",\"10\",\"7\",\"P\",\"C\",\"90\"
\"\",\"\",\"approach-retreat\",\"94\",\"991944\",\"0.0-94.0\",\"\",\"\",\"3-4\",\"4465\",\"40\",\"0\",\"Training\",\"Stims/Figures/84-J-0-2.bmp\",\"pa:kata\",\"Up\",\"38\",\"6\",\"11\",\"7\",\"P\",\"C\",\"91\"
\"\",\"\",\"approach-retreat\",\"95\",\"998443\",\"0.0-95.0\",\"\",\"\",\"3-4\",\"4996\",\"38\",\"0\",\"Training\",\"Stims/Figures/57-J-0-1.bmp\",\"tapaka\",\"Down\",\"40\",\"6\",\"12\",\"7\",\"P\",\"C\",\"92\"
\"\",\"\",\"approach-retreat\",\"96\",\"1004168\",\"0.0-96.0\",\"\",\"\",\"3-4\",\"4220\",\"39\",\"1\",\"Training\",\"Stims/Figures/139-J-0-2.bmp\",\"pa:pa:ta\",\"Right\",\"39\",\"6\",\"13\",\"7\",\"P\",\"C\",\"93\"
\"\",\"\",\"approach-retreat\",\"97\",\"1011713\",\"0.0-97.0\",\"\",\"\",\"3-4\",\"6039\",\"40\",\"1\",\"Training\",\"Stims/Figures/44-C-30-3.bmp\",\"mamana\",\"Up\",\"40\",\"6\",\"14\",\"7\",\"S\",\"C\",\"94\"
\"\",\"\",\"approach-retreat\",\"98\",\"1018112\",\"0.0-98.0\",\"\",\"\",\"3-4\",\"4894\",\"39\",\"0\",\"Training\",\"Stims/Figures/139-C-20-2.bmp\",\"paka:ka\",\"Right\",\"37\",\"6\",\"15\",\"7\",\"P\",\"C\",\"95\"
\"\",\"\",\"approach-retreat\",\"99\",\"1027743\",\"0.0-99.0\",\"\",\"\",\"3-4\",\"8127\",\"39\",\"1\",\"Training\",\"Stims/Figures/74-C-20-4.bmp\",\"nala:na\",\"Left\",\"39\",\"6\",\"16\",\"7\",\"S\",\"C\",\"96\"
\"\",\"\",\"approach-retreat\",\"100\",\"1034839\",\"0.0-100.0\",\"\",\"\",\"3-4\",\"5591\",\"39\",\"0\",\"Training\",\"Stims/Figures/139-C-20-2.bmp\",\"paka:ka\",\"Right\",\"37\",\"7\",\"1\",\"7\",\"P\",\"C\",\"97\"
\"\",\"\",\"approach-retreat\",\"101\",\"1042757\",\"0.0-101.0\",\"\",\"\",\"3-4\",\"6415\",\"39\",\"1\",\"Training\",\"Stims/Figures/144-J-10-3.bmp\",\"na:la:na\",\"Right\",\"39\",\"7\",\"2\",\"7\",\"S\",\"C\",\"98\"
\"\",\"\",\"approach-retreat\",\"102\",\"1052882\",\"0.0-102.0\",\"\",\"\",\"3-4\",\"8621\",\"37\",\"1\",\"Training\",\"Stims/Figures/71-J-0-1.bmp\",\"ta:kata\",\"Left\",\"37\",\"7\",\"3\",\"7\",\"P\",\"C\",\"99\"
\"\",\"\",\"approach-retreat\",\"103\",\"1067072\",\"0.0-103.0\",\"\",\"\",\"3-4\",\"12686\",\"40\",\"1\",\"Training\",\"Stims/Figures/71-C-30-1.bmp\",\"pakata\",\"Up\",\"40\",\"7\",\"4\",\"7\",\"P\",\"C\",\"100\"
\"\",\"\",\"approach-retreat\",\"104\",\"1073048\",\"0.0-104.0\",\"\",\"\",\"3-4\",\"4472\",\"38\",\"1\",\"Training\",\"Stims/Figures/84-J-0-2.bmp\",\"pa:kata\",\"Up\",\"38\",\"7\",\"5\",\"7\",\"P\",\"C\",\"101\"
\"\",\"\",\"approach-retreat\",\"105\",\"1080060\",\"0.0-105.0\",\"\",\"\",\"3-4\",\"5507\",\"40\",\"1\",\"Training\",\"Stims/Figures/84-C-20-2.bmp\",\"papata\",\"Up\",\"40\",\"7\",\"6\",\"7\",\"P\",\"C\",\"102\"
\"\",\"\",\"approach-retreat\",\"106\",\"1085774\",\"0.0-106.0\",\"\",\"\",\"3-4\",\"4209\",\"39\",\"0\",\"Training\",\"Stims/Figures/87-J-10-4.bmp\",\"malana\",\"Left\",\"37\",\"7\",\"7\",\"7\",\"S\",\"C\",\"103\"
\"\",\"\",\"approach-retreat\",\"107\",\"1091626\",\"0.0-107.0\",\"\",\"\",\"3-4\",\"4349\",\"37\",\"0\",\"Training\",\"Stims/Figures/139-J-0-2.bmp\",\"pa:pa:ta\",\"Right\",\"39\",\"7\",\"8\",\"7\",\"P\",\"C\",\"104\"
\"\",\"\",\"approach-retreat\",\"108\",\"1098021\",\"0.0-108.0\",\"\",\"\",\"3-4\",\"4889\",\"37\",\"1\",\"Training\",\"Stims/Figures/44-C-30-3.bmp\",\"mamana\",\"Right\",\"37\",\"7\",\"9\",\"7\",\"S\",\"C\",\"105\"
\"\",\"\",\"approach-retreat\",\"109\",\"1106339\",\"0.0-109.0\",\"\",\"\",\"3-4\",\"6814\",\"37\",\"1\",\"Training\",\"Stims/Figures/74-J-10-4.bmp\",\"na:la:la\",\"Left\",\"37\",\"7\",\"10\",\"7\",\"S\",\"C\",\"106\"
\"\",\"\",\"approach-retreat\",\"110\",\"1118382\",\"0.0-110.0\",\"\",\"\",\"3-4\",\"10538\",\"40\",\"0\",\"Training\",\"Stims/Figures/74-C-20-4.bmp\",\"nala:na\",\"Down\",\"38\",\"7\",\"11\",\"7\",\"S\",\"C\",\"107\"
\"\",\"\",\"approach-retreat\",\"111\",\"1124136\",\"0.0-111.0\",\"\",\"\",\"3-4\",\"4251\",\"39\",\"1\",\"Training\",\"Stims/Figures/57-C-30-1.bmp\",\"tapa:ka\",\"Left\",\"39\",\"7\",\"12\",\"7\",\"P\",\"C\",\"108\"
\"\",\"\",\"approach-retreat\",\"112\",\"1130510\",\"0.0-112.0\",\"\",\"\",\"3-4\",\"4868\",\"38\",\"0\",\"Training\",\"Stims/Figures/57-J-0-1.bmp\",\"tapaka\",\"Down\",\"40\",\"7\",\"13\",\"7\",\"P\",\"C\",\"109\"
\"\",\"\",\"approach-retreat\",\"113\",\"1138190\",\"0.0-113.0\",\"\",\"\",\"3-4\",\"6173\",\"38\",\"0\",\"Training\",\"Stims/Figures/44-J-10-3.bmp\",\"mama:na\",\"Down\",\"40\",\"7\",\"14\",\"7\",\"S\",\"C\",\"110\"
\"\",\"\",\"approach-retreat\",\"114\",\"1146925\",\"0.0-114.0\",\"\",\"\",\"3-4\",\"7231\",\"40\",\"1\",\"Training\",\"Stims/Figures/87-C-20-4.bmp\",\"na:ma:na\",\"Up\",\"40\",\"7\",\"15\",\"7\",\"S\",\"C\",\"111\"
\"\",\"\",\"approach-retreat\",\"115\",\"1153600\",\"0.0-115.0\",\"\",\"\",\"3-4\",\"5171\",\"38\",\"1\",\"Training\",\"Stims/Figures/144-C-30-3.bmp\",\"ma:la:na\",\"Down\",\"38\",\"7\",\"16\",\"7\",\"S\",\"C\",\"112\"
\"\",\"\",\"approach-retreat\",\"116\",\"1159714\",\"0.0-116.0\",\"\",\"\",\"3-4\",\"4610\",\"37\",\"0\",\"Training\",\"Stims/Figures/44-J-10-3.bmp\",\"mama:na\",\"Right\",\"39\",\"8\",\"1\",\"7\",\"S\",\"C\",\"113\"
\"\",\"\",\"approach-retreat\",\"117\",\"1169281\",\"0.0-117.0\",\"\",\"\",\"3-4\",\"8062\",\"37\",\"0\",\"Training\",\"Stims/Figures/84-C-20-2.bmp\",\"papata\",\"Left\",\"39\",\"8\",\"2\",\"7\",\"P\",\"C\",\"114\"
\"\",\"\",\"approach-retreat\",\"118\",\"1175399\",\"0.0-118.0\",\"\",\"\",\"3-4\",\"4615\",\"40\",\"1\",\"Training\",\"Stims/Figures/71-J-0-1.bmp\",\"ta:kata\",\"Down\",\"40\",\"8\",\"3\",\"7\",\"P\",\"C\",\"115\"
\"\",\"\",\"approach-retreat\",\"119\",\"1181713\",\"0.0-119.0\",\"\",\"\",\"3-4\",\"4809\",\"39\",\"1\",\"Training\",\"Stims/Figures/144-C-30-3.bmp\",\"ma:la:na\",\"Left\",\"39\",\"8\",\"4\",\"7\",\"S\",\"C\",\"116\"
\"\",\"\",\"approach-retreat\",\"120\",\"1190157\",\"0.0-120.0\",\"\",\"\",\"3-4\",\"6939\",\"37\",\"1\",\"Training\",\"Stims/Figures/84-J-0-2.bmp\",\"pa:kata\",\"Left\",\"37\",\"8\",\"5\",\"7\",\"P\",\"C\",\"117\"
\"\",\"\",\"approach-retreat\",\"121\",\"1195945\",\"0.0-121.0\",\"\",\"\",\"3-4\",\"4284\",\"37\",\"1\",\"Training\",\"Stims/Figures/74-J-10-4.bmp\",\"na:la:la\",\"Left\",\"37\",\"8\",\"6\",\"7\",\"S\",\"C\",\"118\"
\"\",\"\",\"approach-retreat\",\"122\",\"1202722\",\"0.0-122.0\",\"\",\"\",\"3-4\",\"5272\",\"40\",\"0\",\"Training\",\"Stims/Figures/139-C-20-2.bmp\",\"paka:ka\",\"Down\",\"38\",\"8\",\"7\",\"7\",\"P\",\"C\",\"119\"
\"\",\"\",\"approach-retreat\",\"123\",\"1209728\",\"0.0-123.0\",\"\",\"\",\"3-4\",\"5502\",\"40\",\"1\",\"Training\",\"Stims/Figures/57-J-0-1.bmp\",\"tapaka\",\"Down\",\"40\",\"8\",\"8\",\"7\",\"P\",\"C\",\"120\"
\"\",\"\",\"approach-retreat\",\"124\",\"1216194\",\"0.0-124.0\",\"\",\"\",\"3-4\",\"4961\",\"40\",\"1\",\"Training\",\"Stims/Figures/44-C-30-3.bmp\",\"mamana\",\"Up\",\"40\",\"8\",\"9\",\"7\",\"S\",\"C\",\"121\"
\"\",\"\",\"approach-retreat\",\"125\",\"1226557\",\"0.0-125.0\",\"\",\"\",\"3-4\",\"8858\",\"40\",\"0\",\"Training\",\"Stims/Figures/74-C-20-4.bmp\",\"nala:na\",\"Down\",\"38\",\"8\",\"10\",\"7\",\"S\",\"C\",\"122\"
\"\",\"\",\"approach-retreat\",\"126\",\"1234707\",\"0.0-126.0\",\"\",\"\",\"3-4\",\"6646\",\"38\",\"0\",\"Training\",\"Stims/Figures/71-C-30-1.bmp\",\"pakata\",\"Up\",\"40\",\"8\",\"11\",\"7\",\"P\",\"C\",\"123\"
\"\",\"\",\"approach-retreat\",\"127\",\"1243105\",\"0.0-127.0\",\"\",\"\",\"3-4\",\"6893\",\"37\",\"0\",\"Training\",\"Stims/Figures/87-J-10-4.bmp\",\"malana\",\"Right\",\"39\",\"8\",\"12\",\"7\",\"S\",\"C\",\"124\"
\"\",\"\",\"approach-retreat\",\"128\",\"1249137\",\"0.0-128.0\",\"\",\"\",\"3-4\",\"4528\",\"37\",\"0\",\"Training\",\"Stims/Figures/144-J-10-3.bmp\",\"na:la:na\",\"Right\",\"39\",\"8\",\"13\",\"7\",\"S\",\"C\",\"125\"
\"\",\"\",\"approach-retreat\",\"129\",\"1261434\",\"0.0-129.0\",\"\",\"\",\"3-4\",\"10792\",\"40\",\"1\",\"Training\",\"Stims/Figures/87-C-20-4.bmp\",\"na:ma:na\",\"Up\",\"40\",\"8\",\"14\",\"7\",\"S\",\"C\",\"126\"
\"\",\"\",\"approach-retreat\",\"130\",\"1273162\",\"0.0-130.0\",\"\",\"\",\"3-4\",\"10224\",\"38\",\"0\",\"Training\",\"Stims/Figures/57-C-30-1.bmp\",\"tapa:ka\",\"Up\",\"40\",\"8\",\"15\",\"7\",\"P\",\"C\",\"127\"
\"\",\"\",\"approach-retreat\",\"131\",\"1279159\",\"0.0-131.0\",\"\",\"\",\"3-4\",\"4492\",\"39\",\"1\",\"Training\",\"Stims/Figures/139-J-0-2.bmp\",\"pa:pa:ta\",\"Right\",\"39\",\"8\",\"16\",\"7\",\"P\",\"C\",\"128\"
\"\",\"\",\"approach-retreat\",\"132\",\"1287006\",\"0.0-132.0\",\"\",\"\",\"3-4\",\"6342\",\"39\",\"1\",\"Training\",\"Stims/Figures/44-C-30-3.bmp\",\"mamana\",\"Left\",\"39\",\"9\",\"1\",\"7\",\"S\",\"C\",\"129\"
\"\",\"\",\"approach-retreat\",\"133\",\"1293596\",\"0.0-133.0\",\"\",\"\",\"3-4\",\"5085\",\"37\",\"0\",\"Training\",\"Stims/Figures/87-J-10-4.bmp\",\"malana\",\"Right\",\"39\",\"9\",\"2\",\"7\",\"S\",\"C\",\"130\"
\"\",\"\",\"approach-retreat\",\"134\",\"1300251\",\"0.0-134.0\",\"\",\"\",\"3-4\",\"5149\",\"40\",\"0\",\"Training\",\"Stims/Figures/144-J-10-3.bmp\",\"na:la:na\",\"Up\",\"38\",\"9\",\"3\",\"7\",\"S\",\"C\",\"131\"
\"\",\"\",\"approach-retreat\",\"135\",\"1316366\",\"0.0-135.0\",\"\",\"\",\"3-4\",\"14609\",\"40\",\"0\",\"Training\",\"Stims/Figures/74-J-10-4.bmp\",\"na:la:la\",\"Up\",\"38\",\"9\",\"4\",\"7\",\"S\",\"C\",\"132\"
\"\",\"\",\"approach-retreat\",\"136\",\"1323028\",\"0.0-136.0\",\"\",\"\",\"3-4\",\"5157\",\"39\",\"1\",\"Training\",\"Stims/Figures/84-C-20-2.bmp\",\"papata\",\"Left\",\"39\",\"9\",\"5\",\"7\",\"P\",\"C\",\"133\"
\"\",\"\",\"approach-retreat\",\"137\",\"1332890\",\"0.0-137.0\",\"\",\"\",\"3-4\",\"8357\",\"40\",\"1\",\"Training\",\"Stims/Figures/57-J-0-1.bmp\",\"tapaka\",\"Down\",\"40\",\"9\",\"6\",\"7\",\"P\",\"C\",\"134\"
\"\",\"\",\"approach-retreat\",\"138\",\"1338663\",\"0.0-138.0\",\"\",\"\",\"3-4\",\"4267\",\"39\",\"1\",\"Training\",\"Stims/Figures/71-J-0-1.bmp\",\"ta:kata\",\"Right\",\"39\",\"9\",\"7\",\"7\",\"P\",\"C\",\"135\"
\"\",\"\",\"approach-retreat\",\"139\",\"1353263\",\"0.0-139.0\",\"\",\"\",\"3-4\",\"13095\",\"38\",\"0\",\"Training\",\"Stims/Figures/87-C-20-4.bmp\",\"na:ma:na\",\"Up\",\"40\",\"9\",\"8\",\"7\",\"S\",\"C\",\"136\"
\"\",\"\",\"approach-retreat\",\"140\",\"1367504\",\"0.0-140.0\",\"\",\"\",\"3-4\",\"12737\",\"40\",\"0\",\"Training\",\"Stims/Figures/57-C-30-1.bmp\",\"tapa:ka\",\"Down\",\"38\",\"9\",\"9\",\"7\",\"P\",\"C\",\"137\"
\"\",\"\",\"approach-retreat\",\"141\",\"1373198\",\"0.0-141.0\",\"\",\"\",\"3-4\",\"4190\",\"37\",\"1\",\"Training\",\"Stims/Figures/44-J-10-3.bmp\",\"mama:na\",\"Left\",\"37\",\"9\",\"10\",\"7\",\"S\",\"C\",\"138\"
\"\",\"\",\"approach-retreat\",\"142\",\"1382131\",\"0.0-142.0\",\"\",\"\",\"3-4\",\"7430\",\"38\",\"1\",\"Training\",\"Stims/Figures/74-C-20-4.bmp\",\"nala:na\",\"Down\",\"38\",\"9\",\"11\",\"7\",\"S\",\"C\",\"139\"
\"\",\"\",\"approach-retreat\",\"143\",\"1388844\",\"0.0-143.0\",\"\",\"\",\"3-4\",\"5209\",\"38\",\"1\",\"Training\",\"Stims/Figures/144-C-30-3.bmp\",\"ma:la:na\",\"Down\",\"38\",\"9\",\"12\",\"7\",\"S\",\"C\",\"140\"
\"\",\"\",\"approach-retreat\",\"144\",\"1394847\",\"0.0-144.0\",\"\",\"\",\"3-4\",\"4499\",\"39\",\"0\",\"Training\",\"Stims/Figures/71-C-30-1.bmp\",\"pakata\",\"Right\",\"37\",\"9\",\"13\",\"7\",\"P\",\"C\",\"141\"
\"\",\"\",\"approach-retreat\",\"145\",\"1400740\",\"0.0-145.0\",\"\",\"\",\"3-4\",\"4387\",\"40\",\"0\",\"Training\",\"Stims/Figures/84-J-0-2.bmp\",\"pa:kata\",\"Up\",\"38\",\"9\",\"14\",\"7\",\"P\",\"C\",\"142\"
\"\",\"\",\"approach-retreat\",\"146\",\"1406971\",\"0.0-146.0\",\"\",\"\",\"3-4\",\"4727\",\"37\",\"1\",\"Training\",\"Stims/Figures/139-C-20-2.bmp\",\"paka:ka\",\"Right\",\"37\",\"9\",\"15\",\"7\",\"P\",\"C\",\"143\"
\"\",\"\",\"approach-retreat\",\"147\",\"1412972\",\"0.0-147.0\",\"\",\"\",\"3-4\",\"4497\",\"37\",\"1\",\"Training\",\"Stims/Figures/139-J-0-2.bmp\",\"pa:pa:ta\",\"Left\",\"37\",\"9\",\"16\",\"7\",\"P\",\"C\",\"144\"
\"15854\",\"\",\"instructions\",\"148\",\"1428826\",\"0.0-148.0\",\"[{\"\"page_index\"\":0,\"\"viewing_time\"\":15854}]\",\"\",\"\",\"\",\"\",\"\",\"\",\"\",\"\",\"\",\"\",\"\",\"\",\"\",\"\",\"\",\"\"
\"\",\"\",\"approach-retreat\",\"149\",\"1442812\",\"0.0-149.0\",\"\",\"\",\"3-4\",\"12482\",\"39\",\"0\",\"Testing\",\"Stims/Figures/87-C-20-4.bmp\",\"na:ma:na\",\"Right\",\"37\",\"1\",\"1\",\"7\",\"S\",\"C\",\"1\"
\"\",\"\",\"approach-retreat\",\"150\",\"1451001\",\"0.0-150.0\",\"\",\"\",\"3-4\",\"6685\",\"38\",\"1\",\"Testing\",\"Stims/Figures/128-C-30-3.bmp\",\"ma:ma:la\",\"Down\",\"38\",\"1\",\"2\",\"7\",\"S\",\"C\",\"2\"
\"\",\"\",\"approach-retreat\",\"151\",\"1457261\",\"0.0-151.0\",\"\",\"\",\"3-4\",\"4755\",\"40\",\"0\",\"Testing\",\"Stims/Figures/144-C-30-3.bmp\",\"ma:la:na\",\"Down\",\"38\",\"1\",\"3\",\"7\",\"S\",\"C\",\"3\"
\"\",\"\",\"approach-retreat\",\"152\",\"1463819\",\"0.0-152.0\",\"\",\"\",\"3-4\",\"5055\",\"39\",\"0\",\"Testing\",\"Stims/Figures/144-J-10-3.bmp\",\"na:la:na\",\"Left\",\"37\",\"1\",\"4\",\"7\",\"S\",\"C\",\"4\"
\"\",\"\",\"approach-retreat\",\"153\",\"1469904\",\"0.0-153.0\",\"\",\"\",\"3-4\",\"4582\",\"40\",\"0\",\"Testing\",\"Stims/Figures/19-C-20-4.bmp\",\"mala:la\",\"Down\",\"38\",\"1\",\"5\",\"7\",\"S\",\"C\",\"5\"
\"\",\"\",\"approach-retreat\",\"154\",\"1476505\",\"0.0-154.0\",\"\",\"\",\"3-4\",\"5094\",\"40\",\"1\",\"Testing\",\"Stims/Figures/57-C-30-1.bmp\",\"tapa:ka\",\"Up\",\"40\",\"1\",\"6\",\"7\",\"P\",\"C\",\"6\"
\"\",\"\",\"approach-retreat\",\"155\",\"1482648\",\"0.0-155.0\",\"\",\"\",\"3-4\",\"4638\",\"39\",\"1\",\"Testing\",\"Stims/Figures/86-J-0-1.bmp\",\"papa:ta\",\"Right\",\"39\",\"1\",\"7\",\"7\",\"P\",\"C\",\"7\"
\"\",\"\",\"approach-retreat\",\"156\",\"1488475\",\"0.0-156.0\",\"\",\"\",\"3-4\",\"4324\",\"38\",\"1\",\"Testing\",\"Stims/Figures/84-C-20-2.bmp\",\"papata\",\"Down\",\"38\",\"1\",\"8\",\"7\",\"P\",\"C\",\"8\"
\"\",\"\",\"approach-retreat\",\"157\",\"1494062\",\"0.0-157.0\",\"\",\"\",\"3-4\",\"4084\",\"40\",\"0\",\"Testing\",\"Stims/Figures/19-J-10-4.bmp\",\"namana\",\"Up\",\"38\",\"1\",\"9\",\"7\",\"S\",\"C\",\"9\"
\"\",\"\",\"approach-retreat\",\"158\",\"1499962\",\"0.0-158.0\",\"\",\"\",\"3-4\",\"4396\",\"37\",\"1\",\"Testing\",\"Stims/Figures/84-J-0-2.bmp\",\"pa:kata\",\"Left\",\"37\",\"1\",\"10\",\"7\",\"P\",\"C\",\"10\"
\"\",\"\",\"approach-retreat\",\"159\",\"1505743\",\"0.0-159.0\",\"\",\"\",\"3-4\",\"4277\",\"38\",\"0\",\"Testing\",\"Stims/Figures/86-C-30-1.bmp\",\"takaka\",\"Up\",\"40\",\"1\",\"11\",\"7\",\"P\",\"C\",\"11\"
\"\",\"\",\"approach-retreat\",\"160\",\"1511724\",\"0.0-160.0\",\"\",\"\",\"3-4\",\"4478\",\"37\",\"1\",\"Testing\",\"Stims/Figures/71-C-30-1.bmp\",\"pakata\",\"Right\",\"37\",\"1\",\"12\",\"7\",\"P\",\"C\",\"12\"
\"\",\"\",\"approach-retreat\",\"161\",\"1517453\",\"0.0-161.0\",\"\",\"\",\"3-4\",\"4225\",\"39\",\"1\",\"Testing\",\"Stims/Figures/74-C-20-4.bmp\",\"nala:na\",\"Left\",\"39\",\"1\",\"13\",\"7\",\"S\",\"C\",\"13\"
\"\",\"\",\"approach-retreat\",\"162\",\"1532363\",\"0.0-162.0\",\"\",\"\",\"3-4\",\"13407\",\"39\",\"1\",\"Testing\",\"Stims/Figures/57-J-0-1.bmp\",\"tapaka\",\"Right\",\"39\",\"1\",\"14\",\"7\",\"P\",\"C\",\"14\"
\"\",\"\",\"approach-retreat\",\"163\",\"1538422\",\"0.0-163.0\",\"\",\"\",\"3-4\",\"4553\",\"39\",\"1\",\"Testing\",\"Stims/Figures/85-C-20-2.bmp\",\"takata\",\"Left\",\"39\",\"1\",\"15\",\"7\",\"P\",\"C\",\"15\"
\"\",\"\",\"approach-retreat\",\"164\",\"1551700\",\"0.0-164.0\",\"\",\"\",\"3-4\",\"11775\",\"40\",\"0\",\"Testing\",\"Stims/Figures/71-J-0-1.bmp\",\"ta:kata\",\"Up\",\"38\",\"1\",\"16\",\"7\",\"P\",\"C\",\"16\"
\"\",\"\",\"approach-retreat\",\"165\",\"1557319\",\"0.0-165.0\",\"\",\"\",\"3-4\",\"4114\",\"38\",\"1\",\"Testing\",\"Stims/Figures/139-C-20-2.bmp\",\"paka:ka\",\"Down\",\"38\",\"1\",\"17\",\"7\",\"P\",\"C\",\"17\"
\"\",\"\",\"approach-retreat\",\"166\",\"1562976\",\"0.0-166.0\",\"\",\"\",\"3-4\",\"4154\",\"39\",\"0\",\"Testing\",\"Stims/Figures/85-J-0-2.bmp\",\"ta:paka\",\"Left\",\"37\",\"1\",\"18\",\"7\",\"P\",\"C\",\"18\"
\"\",\"\",\"approach-retreat\",\"167\",\"1568988\",\"0.0-167.0\",\"\",\"\",\"3-4\",\"4504\",\"40\",\"1\",\"Testing\",\"Stims/Figures/139-J-0-2.bmp\",\"pa:pa:ta\",\"Down\",\"40\",\"1\",\"19\",\"7\",\"P\",\"C\",\"19\"
\"\",\"\",\"approach-retreat\",\"168\",\"1574722\",\"0.0-168.0\",\"\",\"\",\"3-4\",\"4230\",\"39\",\"1\",\"Testing\",\"Stims/Figures/87-J-10-4.bmp\",\"malana\",\"Right\",\"39\",\"1\",\"20\",\"7\",\"S\",\"C\",\"20\"
\"\",\"\",\"approach-retreat\",\"169\",\"1580886\",\"0.0-169.0\",\"\",\"\",\"3-4\",\"4660\",\"40\",\"1\",\"Testing\",\"Stims/Figures/44-C-30-3.bmp\",\"mamana\",\"Up\",\"40\",\"1\",\"21\",\"7\",\"S\",\"C\",\"21\"
\"\",\"\",\"approach-retreat\",\"170\",\"1586829\",\"0.0-170.0\",\"\",\"\",\"3-4\",\"4439\",\"40\",\"0\",\"Testing\",\"Stims/Figures/44-J-10-3.bmp\",\"mama:na\",\"Up\",\"38\",\"1\",\"22\",\"7\",\"S\",\"C\",\"22\"
\"\",\"\",\"approach-retreat\",\"171\",\"1592529\",\"0.0-171.0\",\"\",\"\",\"3-4\",\"4196\",\"39\",\"0\",\"Testing\",\"Stims/Figures/74-J-10-4.bmp\",\"na:la:la\",\"Left\",\"37\",\"1\",\"23\",\"7\",\"S\",\"C\",\"23\"
\"\",\"\",\"approach-retreat\",\"172\",\"1598105\",\"0.0-172.0\",\"\",\"\",\"3-4\",\"4073\",\"39\",\"1\",\"Testing\",\"Stims/Figures/128-J-10-3.bmp\",\"na:mana\",\"Right\",\"39\",\"1\",\"24\",\"7\",\"S\",\"C\",\"24\"
\"\",\"\",\"approach-retreat\",\"173\",\"1603617\",\"0.0-173.0\",\"\",\"\",\"3-4\",\"4007\",\"39\",\"0\",\"Testing\",\"Stims/Figures/144-C-30-3.bmp\",\"ma:la:na\",\"Right\",\"37\",\"2\",\"1\",\"7\",\"S\",\"C\",\"25\"
\"\",\"\",\"approach-retreat\",\"174\",\"1612312\",\"0.0-174.0\",\"\",\"\",\"3-4\",\"7192\",\"37\",\"0\",\"Testing\",\"Stims/Figures/57-C-30-1.bmp\",\"tapa:ka\",\"Left\",\"39\",\"2\",\"2\",\"7\",\"P\",\"C\",\"26\"
\"\",\"\",\"approach-retreat\",\"175\",\"1617857\",\"0.0-175.0\",\"\",\"\",\"3-4\",\"4040\",\"39\",\"1\",\"Testing\",\"Stims/Figures/85-C-20-2.bmp\",\"takata\",\"Left\",\"39\",\"2\",\"3\",\"7\",\"P\",\"C\",\"27\"
\"\",\"\",\"approach-retreat\",\"176\",\"1623578\",\"0.0-176.0\",\"\",\"\",\"3-4\",\"4219\",\"38\",\"1\",\"Testing\",\"Stims/Figures/71-J-0-1.bmp\",\"ta:kata\",\"Up\",\"38\",\"2\",\"4\",\"7\",\"P\",\"C\",\"28\"
\"\",\"\",\"approach-retreat\",\"177\",\"1630298\",\"0.0-177.0\",\"\",\"\",\"3-4\",\"5215\",\"40\",\"0\",\"Testing\",\"Stims/Figures/87-C-20-4.bmp\",\"na:ma:na\",\"Down\",\"38\",\"2\",\"5\",\"7\",\"S\",\"C\",\"29\"
\"\",\"\",\"approach-retreat\",\"178\",\"1637401\",\"0.0-178.0\",\"\",\"\",\"3-4\",\"5600\",\"40\",\"0\",\"Testing\",\"Stims/Figures/57-J-0-1.bmp\",\"tapaka\",\"Up\",\"38\",\"2\",\"6\",\"7\",\"P\",\"C\",\"30\"
\"\",\"\",\"approach-retreat\",\"179\",\"1642862\",\"0.0-179.0\",\"\",\"\",\"3-4\",\"3956\",\"39\",\"0\",\"Testing\",\"Stims/Figures/128-J-10-3.bmp\",\"na:mana\",\"Left\",\"37\",\"2\",\"7\",\"7\",\"S\",\"C\",\"31\"
\"\",\"\",\"approach-retreat\",\"180\",\"1648978\",\"0.0-180.0\",\"\",\"\",\"3-4\",\"4612\",\"37\",\"1\",\"Testing\",\"Stims/Figures/71-C-30-1.bmp\",\"pakata\",\"Right\",\"37\",\"2\",\"8\",\"7\",\"P\",\"C\",\"32\"
\"\",\"\",\"approach-retreat\",\"181\",\"1654745\",\"0.0-181.0\",\"\",\"\",\"3-4\",\"4264\",\"40\",\"0\",\"Testing\",\"Stims/Figures/139-C-20-2.bmp\",\"paka:ka\",\"Down\",\"38\",\"2\",\"9\",\"7\",\"P\",\"C\",\"33\"
\"\",\"\",\"approach-retreat\",\"182\",\"1660374\",\"0.0-182.0\",\"\",\"\",\"3-4\",\"4125\",\"39\",\"1\",\"Testing\",\"Stims/Figures/86-J-0-1.bmp\",\"papa:ta\",\"Right\",\"39\",\"2\",\"10\",\"7\",\"P\",\"C\",\"34\"
\"\",\"\",\"approach-retreat\",\"183\",\"1667556\",\"0.0-183.0\",\"\",\"\",\"3-4\",\"5677\",\"38\",\"0\",\"Testing\",\"Stims/Figures/74-C-20-4.bmp\",\"nala:na\",\"Up\",\"40\",\"2\",\"11\",\"7\",\"S\",\"C\",\"35\"
\"\",\"\",\"approach-retreat\",\"184\",\"1675177\",\"0.0-184.0\",\"\",\"\",\"3-4\",\"6117\",\"38\",\"0\",\"Testing\",\"Stims/Figures/74-J-10-4.bmp\",\"na:la:la\",\"Down\",\"40\",\"2\",\"12\",\"7\",\"S\",\"C\",\"36\"
\"\",\"\",\"approach-retreat\",\"185\",\"1681356\",\"0.0-185.0\",\"\",\"\",\"3-4\",\"4675\",\"37\",\"0\",\"Testing\",\"Stims/Figures/84-C-20-2.bmp\",\"papata\",\"Left\",\"39\",\"2\",\"13\",\"7\",\"P\",\"C\",\"37\"
\"\",\"\",\"approach-retreat\",\"186\",\"1689909\",\"0.0-186.0\",\"\",\"\",\"3-4\",\"7049\",\"40\",\"1\",\"Testing\",\"Stims/Figures/19-C-20-4.bmp\",\"mala:la\",\"Up\",\"40\",\"2\",\"14\",\"7\",\"S\",\"C\",\"38\"
\"\",\"\",\"approach-retreat\",\"187\",\"1703078\",\"0.0-187.0\",\"\",\"\",\"3-4\",\"11665\",\"40\",\"1\",\"Testing\",\"Stims/Figures/128-C-30-3.bmp\",\"ma:ma:la\",\"Up\",\"40\",\"2\",\"15\",\"7\",\"S\",\"C\",\"39\"
\"\",\"\",\"approach-retreat\",\"188\",\"1709735\",\"0.0-188.0\",\"\",\"\",\"3-4\",\"5154\",\"38\",\"0\",\"Testing\",\"Stims/Figures/144-J-10-3.bmp\",\"na:la:na\",\"Down\",\"40\",\"2\",\"16\",\"7\",\"S\",\"C\",\"40\"
\"\",\"\",\"approach-retreat\",\"189\",\"1718002\",\"0.0-189.0\",\"\",\"\",\"3-4\",\"6762\",\"38\",\"1\",\"Testing\",\"Stims/Figures/139-J-0-2.bmp\",\"pa:pa:ta\",\"Up\",\"38\",\"2\",\"17\",\"7\",\"P\",\"C\",\"41\"
\"\",\"\",\"approach-retreat\",\"190\",\"1726820\",\"0.0-190.0\",\"\",\"\",\"3-4\",\"7314\",\"39\",\"0\",\"Testing\",\"Stims/Figures/19-J-10-4.bmp\",\"namana\",\"Left\",\"37\",\"2\",\"18\",\"7\",\"S\",\"C\",\"42\"
\"\",\"\",\"approach-retreat\",\"191\",\"1732773\",\"0.0-191.0\",\"\",\"\",\"3-4\",\"4449\",\"37\",\"1\",\"Testing\",\"Stims/Figures/44-C-30-3.bmp\",\"mamana\",\"Right\",\"37\",\"2\",\"19\",\"7\",\"S\",\"C\",\"43\"
\"\",\"\",\"approach-retreat\",\"192\",\"1741185\",\"0.0-192.0\",\"\",\"\",\"3-4\",\"6907\",\"38\",\"0\",\"Testing\",\"Stims/Figures/87-J-10-4.bmp\",\"malana\",\"Down\",\"40\",\"2\",\"20\",\"7\",\"S\",\"C\",\"44\"
\"\",\"\",\"approach-retreat\",\"193\",\"1748429\",\"0.0-193.0\",\"\",\"\",\"3-4\",\"5739\",\"37\",\"0\",\"Testing\",\"Stims/Figures/84-J-0-2.bmp\",\"pa:kata\",\"Right\",\"39\",\"2\",\"21\",\"7\",\"P\",\"C\",\"45\"
\"\",\"\",\"approach-retreat\",\"194\",\"1755011\",\"0.0-194.0\",\"\",\"\",\"3-4\",\"5079\",\"40\",\"1\",\"Testing\",\"Stims/Figures/44-J-10-3.bmp\",\"mama:na\",\"Down\",\"40\",\"2\",\"22\",\"7\",\"S\",\"C\",\"46\"
\"\",\"\",\"approach-retreat\",\"195\",\"1760876\",\"0.0-195.0\",\"\",\"\",\"3-4\",\"4362\",\"37\",\"0\",\"Testing\",\"Stims/Figures/85-J-0-2.bmp\",\"ta:paka\",\"Right\",\"39\",\"2\",\"23\",\"7\",\"P\",\"C\",\"47\"
\"\",\"\",\"approach-retreat\",\"196\",\"1767714\",\"0.0-196.0\",\"\",\"\",\"3-4\",\"5334\",\"37\",\"0\",\"Testing\",\"Stims/Figures/86-C-30-1.bmp\",\"takaka\",\"Left\",\"39\",\"2\",\"24\",\"7\",\"P\",\"C\",\"48\"
\"\",\"\",\"approach-retreat\",\"197\",\"1773195\",\"0.0-197.0\",\"\",\"\",\"3-4\",\"3979\",\"39\",\"0\",\"Testing\",\"Stims/Figures/74-C-20-4.bmp\",\"nala:na\",\"Right\",\"37\",\"3\",\"1\",\"7\",\"S\",\"C\",\"49\"
\"\",\"\",\"approach-retreat\",\"198\",\"1778975\",\"0.0-198.0\",\"\",\"\",\"3-4\",\"4275\",\"37\",\"0\",\"Testing\",\"Stims/Figures/74-J-10-4.bmp\",\"na:la:la\",\"Right\",\"39\",\"3\",\"2\",\"7\",\"S\",\"C\",\"50\"
\"\",\"\",\"approach-retreat\",\"199\",\"1786277\",\"0.0-199.0\",\"\",\"\",\"3-4\",\"5799\",\"39\",\"1\",\"Testing\",\"Stims/Figures/128-J-10-3.bmp\",\"na:mana\",\"Right\",\"39\",\"3\",\"3\",\"7\",\"S\",\"C\",\"51\"
\"\",\"\",\"approach-retreat\",\"200\",\"1792000\",\"0.0-200.0\",\"\",\"\",\"3-4\",\"4218\",\"38\",\"0\",\"Testing\",\"Stims/Figures/57-J-0-1.bmp\",\"tapaka\",\"Down\",\"40\",\"3\",\"4\",\"7\",\"P\",\"C\",\"52\"
\"\",\"\",\"approach-retreat\",\"201\",\"1804012\",\"0.0-201.0\",\"\",\"\",\"3-4\",\"10508\",\"40\",\"1\",\"Testing\",\"Stims/Figures/144-C-30-3.bmp\",\"ma:la:na\",\"Up\",\"40\",\"3\",\"5\",\"7\",\"S\",\"C\",\"53\"
\"\",\"\",\"approach-retreat\",\"202\",\"1809744\",\"0.0-202.0\",\"\",\"\",\"3-4\",\"4228\",\"37\",\"0\",\"Testing\",\"Stims/Figures/86-C-30-1.bmp\",\"takaka\",\"Left\",\"39\",\"3\",\"6\",\"7\",\"P\",\"C\",\"54\"
\"\",\"\",\"approach-retreat\",\"203\",\"1816960\",\"0.0-203.0\",\"\",\"\",\"3-4\",\"5712\",\"40\",\"1\",\"Testing\",\"Stims/Figures/84-C-20-2.bmp\",\"papata\",\"Up\",\"40\",\"3\",\"7\",\"7\",\"P\",\"C\",\"55\"
\"\",\"\",\"approach-retreat\",\"204\",\"1823891\",\"0.0-204.0\",\"\",\"\",\"3-4\",\"5428\",\"40\",\"0\",\"Testing\",\"Stims/Figures/19-C-20-4.bmp\",\"mala:la\",\"Down\",\"38\",\"3\",\"8\",\"7\",\"S\",\"C\",\"56\"
\"\",\"\",\"approach-retreat\",\"205\",\"1830391\",\"0.0-205.0\",\"\",\"\",\"3-4\",\"4994\",\"39\",\"0\",\"Testing\",\"Stims/Figures/57-C-30-1.bmp\",\"tapa:ka\",\"Right\",\"37\",\"3\",\"9\",\"7\",\"P\",\"C\",\"57\"
\"\",\"\",\"approach-retreat\",\"206\",\"1836881\",\"0.0-206.0\",\"\",\"\",\"3-4\",\"4986\",\"39\",\"0\",\"Testing\",\"Stims/Figures/87-C-20-4.bmp\",\"na:ma:na\",\"Right\",\"37\",\"3\",\"10\",\"7\",\"S\",\"C\",\"58\"
\"\",\"\",\"approach-retreat\",\"207\",\"1842852\",\"0.0-207.0\",\"\",\"\",\"3-4\",\"4467\",\"38\",\"1\",\"Testing\",\"Stims/Figures/85-C-20-2.bmp\",\"takata\",\"Down\",\"38\",\"3\",\"11\",\"7\",\"P\",\"C\",\"59\"
\"\",\"\",\"approach-retreat\",\"208\",\"1849391\",\"0.0-208.0\",\"\",\"\",\"3-4\",\"5036\",\"37\",\"0\",\"Testing\",\"Stims/Figures/139-C-20-2.bmp\",\"paka:ka\",\"Left\",\"39\",\"3\",\"12\",\"7\",\"P\",\"C\",\"60\"
\"\",\"\",\"approach-retreat\",\"209\",\"1859073\",\"0.0-209.0\",\"\",\"\",\"3-4\",\"8179\",\"39\",\"0\",\"Testing\",\"Stims/Figures/86-J-0-1.bmp\",\"papa:ta\",\"Left\",\"37\",\"3\",\"13\",\"7\",\"P\",\"C\",\"61\"
\"\",\"\",\"approach-retreat\",\"210\",\"1865013\",\"0.0-210.0\",\"\",\"\",\"3-4\",\"4436\",\"38\",\"0\",\"Testing\",\"Stims/Figures/44-C-30-3.bmp\",\"mamana\",\"Up\",\"40\",\"3\",\"14\",\"7\",\"S\",\"C\",\"62\"
\"\",\"\",\"approach-retreat\",\"211\",\"1870836\",\"0.0-211.0\",\"\",\"\",\"3-4\",\"4321\",\"39\",\"0\",\"Testing\",\"Stims/Figures/44-J-10-3.bmp\",\"mama:na\",\"Left\",\"37\",\"3\",\"15\",\"7\",\"S\",\"C\",\"63\"
\"\",\"\",\"approach-retreat\",\"212\",\"1876581\",\"0.0-212.0\",\"\",\"\",\"3-4\",\"4242\",\"39\",\"0\",\"Testing\",\"Stims/Figures/84-J-0-2.bmp\",\"pa:kata\",\"Left\",\"37\",\"3\",\"16\",\"7\",\"P\",\"C\",\"64\"
\"\",\"\",\"approach-retreat\",\"213\",\"1882358\",\"0.0-213.0\",\"\",\"\",\"3-4\",\"4273\",\"40\",\"1\",\"Testing\",\"Stims/Figures/139-J-0-2.bmp\",\"pa:pa:ta\",\"Down\",\"40\",\"3\",\"17\",\"7\",\"P\",\"C\",\"65\"
\"\",\"\",\"approach-retreat\",\"214\",\"1895306\",\"0.0-214.0\",\"\",\"\",\"3-4\",\"11444\",\"38\",\"1\",\"Testing\",\"Stims/Figures/19-J-10-4.bmp\",\"namana\",\"Up\",\"38\",\"3\",\"18\",\"7\",\"S\",\"C\",\"66\"
\"\",\"\",\"approach-retreat\",\"215\",\"1901922\",\"0.0-215.0\",\"\",\"\",\"3-4\",\"5111\",\"37\",\"0\",\"Testing\",\"Stims/Figures/71-J-0-1.bmp\",\"ta:kata\",\"Right\",\"39\",\"3\",\"19\",\"7\",\"P\",\"C\",\"67\"
\"\",\"\",\"approach-retreat\",\"216\",\"1912164\",\"0.0-216.0\",\"\",\"\",\"3-4\",\"8737\",\"38\",\"1\",\"Testing\",\"Stims/Figures/144-J-10-3.bmp\",\"na:la:na\",\"Up\",\"38\",\"3\",\"20\",\"7\",\"S\",\"C\",\"68\"
\"\",\"\",\"approach-retreat\",\"217\",\"1919486\",\"0.0-217.0\",\"\",\"\",\"3-4\",\"5818\",\"38\",\"0\",\"Testing\",\"Stims/Figures/128-C-30-3.bmp\",\"ma:ma:la\",\"Up\",\"40\",\"3\",\"21\",\"7\",\"S\",\"C\",\"69\"
\"\",\"\",\"approach-retreat\",\"218\",\"1925480\",\"0.0-218.0\",\"\",\"\",\"3-4\",\"4489\",\"40\",\"1\",\"Testing\",\"Stims/Figures/87-J-10-4.bmp\",\"malana\",\"Down\",\"40\",\"3\",\"22\",\"7\",\"S\",\"C\",\"70\"
\"\",\"\",\"approach-retreat\",\"219\",\"1931519\",\"0.0-219.0\",\"\",\"\",\"3-4\",\"4536\",\"38\",\"1\",\"Testing\",\"Stims/Figures/71-C-30-1.bmp\",\"pakata\",\"Down\",\"38\",\"3\",\"23\",\"7\",\"P\",\"C\",\"71\"
\"\",\"\",\"approach-retreat\",\"220\",\"1940805\",\"0.0-220.0\",\"\",\"\",\"3-4\",\"7781\",\"39\",\"0\",\"Testing\",\"Stims/Figures/85-J-0-2.bmp\",\"ta:paka\",\"Left\",\"37\",\"3\",\"24\",\"7\",\"P\",\"C\",\"72\"
\"\",\"\",\"approach-retreat\",\"221\",\"1950072\",\"0.0-221.0\",\"\",\"\",\"3-4\",\"7763\",\"40\",\"1\",\"Testing\",\"Stims/Figures/84-C-20-2.bmp\",\"papata\",\"Up\",\"40\",\"4\",\"1\",\"7\",\"P\",\"C\",\"73\"
\"\",\"\",\"approach-retreat\",\"222\",\"1956070\",\"0.0-222.0\",\"\",\"\",\"3-4\",\"4495\",\"39\",\"1\",\"Testing\",\"Stims/Figures/19-J-10-4.bmp\",\"namana\",\"Right\",\"39\",\"4\",\"2\",\"7\",\"S\",\"C\",\"74\"
\"\",\"\",\"approach-retreat\",\"223\",\"1963087\",\"0.0-223.0\",\"\",\"\",\"3-4\",\"5513\",\"40\",\"0\",\"Testing\",\"Stims/Figures/71-C-30-1.bmp\",\"pakata\",\"Down\",\"38\",\"4\",\"3\",\"7\",\"P\",\"C\",\"75\"
\"\",\"\",\"approach-retreat\",\"224\",\"1969446\",\"0.0-224.0\",\"\",\"\",\"3-4\",\"4855\",\"39\",\"1\",\"Testing\",\"Stims/Figures/57-J-0-1.bmp\",\"tapaka\",\"Right\",\"39\",\"4\",\"4\",\"7\",\"P\",\"C\",\"76\"
\"\",\"\",\"approach-retreat\",\"225\",\"1980038\",\"0.0-225.0\",\"\",\"\",\"3-4\",\"9089\",\"38\",\"1\",\"Testing\",\"Stims/Figures/128-J-10-3.bmp\",\"na:mana\",\"Up\",\"38\",\"4\",\"5\",\"7\",\"S\",\"C\",\"77\"
\"\",\"\",\"approach-retreat\",\"226\",\"1985572\",\"0.0-226.0\",\"\",\"\",\"3-4\",\"4031\",\"39\",\"0\",\"Testing\",\"Stims/Figures/87-J-10-4.bmp\",\"malana\",\"Left\",\"37\",\"4\",\"6\",\"7\",\"S\",\"C\",\"78\"
\"\",\"\",\"approach-retreat\",\"227\",\"1996607\",\"0.0-227.0\",\"\",\"\",\"3-4\",\"9530\",\"39\",\"0\",\"Testing\",\"Stims/Figures/85-C-20-2.bmp\",\"takata\",\"Right\",\"37\",\"4\",\"7\",\"7\",\"P\",\"C\",\"79\"
\"\",\"\",\"approach-retreat\",\"228\",\"2002457\",\"0.0-228.0\",\"\",\"\",\"3-4\",\"4345\",\"38\",\"0\",\"Testing\",\"Stims/Figures/128-C-30-3.bmp\",\"ma:ma:la\",\"Up\",\"40\",\"4\",\"8\",\"7\",\"S\",\"C\",\"80\"
\"\",\"\",\"approach-retreat\",\"229\",\"2013544\",\"0.0-229.0\",\"\",\"\",\"3-4\",\"9582\",\"38\",\"0\",\"Testing\",\"Stims/Figures/139-C-20-2.bmp\",\"paka:ka\",\"Up\",\"40\",\"4\",\"9\",\"7\",\"P\",\"C\",\"81\"
\"\",\"\",\"approach-retreat\",\"230\",\"2019614\",\"0.0-230.0\",\"\",\"\",\"3-4\",\"4567\",\"40\",\"0\",\"Testing\",\"Stims/Figures/19-C-20-4.bmp\",\"mala:la\",\"Down\",\"38\",\"4\",\"10\",\"7\",\"S\",\"C\",\"82\"
\"\",\"\",\"approach-retreat\",\"231\",\"2025577\",\"0.0-231.0\",\"\",\"\",\"3-4\",\"4460\",\"39\",\"1\",\"Testing\",\"Stims/Figures/57-C-30-1.bmp\",\"tapa:ka\",\"Left\",\"39\",\"4\",\"11\",\"7\",\"P\",\"C\",\"83\"
\"\",\"\",\"approach-retreat\",\"232\",\"2032090\",\"0.0-232.0\",\"\",\"\",\"3-4\",\"5009\",\"39\",\"1\",\"Testing\",\"Stims/Figures/144-C-30-3.bmp\",\"ma:la:na\",\"Left\",\"39\",\"4\",\"12\",\"7\",\"S\",\"C\",\"84\"
\"\",\"\",\"approach-retreat\",\"233\",\"2038290\",\"0.0-233.0\",\"\",\"\",\"3-4\",\"4696\",\"40\",\"0\",\"Testing\",\"Stims/Figures/86-J-0-1.bmp\",\"papa:ta\",\"Up\",\"38\",\"4\",\"13\",\"7\",\"P\",\"C\",\"85\"
\"\",\"\",\"approach-retreat\",\"234\",\"2045382\",\"0.0-234.0\",\"\",\"\",\"3-4\",\"5589\",\"40\",\"0\",\"Testing\",\"Stims/Figures/74-C-20-4.bmp\",\"nala:na\",\"Down\",\"38\",\"4\",\"14\",\"7\",\"S\",\"C\",\"86\"
\"\",\"\",\"approach-retreat\",\"235\",\"2054005\",\"0.0-235.0\",\"\",\"\",\"3-4\",\"7119\",\"39\",\"1\",\"Testing\",\"Stims/Figures/85-J-0-2.bmp\",\"ta:paka\",\"Right\",\"39\",\"4\",\"15\",\"7\",\"P\",\"C\",\"87\"
\"\",\"\",\"approach-retreat\",\"236\",\"2060279\",\"0.0-236.0\",\"\",\"\",\"3-4\",\"4769\",\"40\",\"0\",\"Testing\",\"Stims/Figures/71-J-0-1.bmp\",\"ta:kata\",\"Up\",\"38\",\"4\",\"16\",\"7\",\"P\",\"C\",\"88\"
\"\",\"\",\"approach-retreat\",\"237\",\"2066262\",\"0.0-237.0\",\"\",\"\",\"3-4\",\"4480\",\"39\",\"1\",\"Testing\",\"Stims/Figures/87-C-20-4.bmp\",\"na:ma:na\",\"Left\",\"39\",\"4\",\"17\",\"7\",\"S\",\"C\",\"89\"
\"\",\"\",\"approach-retreat\",\"238\",\"2071847\",\"0.0-238.0\",\"\",\"\",\"3-4\",\"4081\",\"39\",\"0\",\"Testing\",\"Stims/Figures/144-J-10-3.bmp\",\"na:la:na\",\"Left\",\"37\",\"4\",\"18\",\"7\",\"S\",\"C\",\"90\"
\"\",\"\",\"approach-retreat\",\"239\",\"2077485\",\"0.0-239.0\",\"\",\"\",\"3-4\",\"4136\",\"38\",\"0\",\"Testing\",\"Stims/Figures/44-J-10-3.bmp\",\"mama:na\",\"Down\",\"40\",\"4\",\"19\",\"7\",\"S\",\"C\",\"91\"
\"\",\"\",\"approach-retreat\",\"240\",\"2083637\",\"0.0-240.0\",\"\",\"\",\"3-4\",\"4649\",\"37\",\"1\",\"Testing\",\"Stims/Figures/74-J-10-4.bmp\",\"na:la:la\",\"Left\",\"37\",\"4\",\"20\",\"7\",\"S\",\"C\",\"92\"
\"\",\"\",\"approach-retreat\",\"241\",\"2089214\",\"0.0-241.0\",\"\",\"\",\"3-4\",\"4074\",\"38\",\"0\",\"Testing\",\"Stims/Figures/84-J-0-2.bmp\",\"pa:kata\",\"Down\",\"40\",\"4\",\"21\",\"7\",\"P\",\"C\",\"93\"
\"\",\"\",\"approach-retreat\",\"242\",\"2095518\",\"0.0-242.0\",\"\",\"\",\"3-4\",\"4801\",\"39\",\"0\",\"Testing\",\"Stims/Figures/44-C-30-3.bmp\",\"mamana\",\"Right\",\"37\",\"4\",\"22\",\"7\",\"S\",\"C\",\"94\"
\"\",\"\",\"approach-retreat\",\"243\",\"2101058\",\"0.0-243.0\",\"\",\"\",\"3-4\",\"4035\",\"39\",\"0\",\"Testing\",\"Stims/Figures/86-C-30-1.bmp\",\"takaka\",\"Right\",\"37\",\"4\",\"23\",\"7\",\"P\",\"C\",\"95\"
\"\",\"\",\"approach-retreat\",\"244\",\"2109464\",\"0.0-244.0\",\"\",\"\",\"3-4\",\"6903\",\"40\",\"1\",\"Testing\",\"Stims/Figures/139-J-0-2.bmp\",\"pa:pa:ta\",\"Down\",\"40\",\"4\",\"24\",\"7\",\"P\",\"C\",\"96\"
\"93375\",\"\",\"survey-text\",\"245\",\"2202842\",\"0.0-245.0\",\"\",\"{\"\"Q0\"\":\"\"1447\"\"}\",\"\",\"\",\"\",\"\",\"\",\"\",\"\",\"\",\"\",\"\",\"\",\"\",\"\",\"\",\"\"
