\"rt\",\"key_press\",\"trial_type\",\"trial_index\",\"time_elapsed\",\"internal_node_id\",\"view_history\",\"responses\",\"Id\",\"Rt\",\"ResKeyCode\",\"ResCorr\",\"TrialType2\",\"Image\",\"Label\",\"Location\",\"CorrectResponse\",\"Block\",\"BlockTrial\",\"Condition\",\"LabelType\",\"Subcondition\",\"trialNum\"
\"127846\",\"32\",\"text\",\"0\",\"127852\",\"0.0-0.0-0.0\",\"\",\"\",\"\",\"\",\"\",\"\",\"\",\"\",\"\",\"\",\"\",\"\",\"\",\"\",\"\",\"\",\"\"
\"104588\",\"\",\"instructions\",\"1\",\"232445\",\"0.0-1.0\",\"[{\"\"page_index\"\":0,\"\"viewing_time\"\":104587}]\",\"\",\"\",\"\",\"\",\"\",\"\",\"\",\"\",\"\",\"\",\"\",\"\",\"\",\"\",\"\",\"\"
\"44363\",\"\",\"survey-multi-choice\",\"2\",\"276857\",\"0.0-2.0\",\"\",\"{\"\"Q0\"\":\"\"Da\"\",\"\"Q1\"\":\"\"Da\"\",\"\"Q2\"\":\"\"Da\"\",\"\"Q3\"\":\"\"Da\"\",\"\"Q4\"\":\"\"Da\"\",\"\"Q5\"\":\"\"Da\"\"}\",\"\",\"\",\"\",\"\",\"\",\"\",\"\",\"\",\"\",\"\",\"\",\"\",\"\",\"\",\"\"
\"\",\"\",\"bio\",\"3\",\"286510\",\"0.0-3.0\",\"\",\"{\"\"age\"\":\"\"19\"\",\"\"gender\"\":\"\"f\"\",\"\"specify\"\":\"\"\"\"}\",\"\",\"\",\"\",\"\",\"\",\"\",\"\",\"\",\"\",\"\",\"\",\"\",\"\",\"\",\"\"
\"\",\"\",\"approach-retreat\",\"4\",\"295589\",\"0.0-4.0\",\"\",\"\",\"3-5\",\"7529\",\"37\",\"0\",\"Training\",\"Stims/Figures/74-J-10-4.bmp\",\"zasaza\",\"Right\",\"39\",\"1\",\"1\",\"6B\",\"C2\",\"C\",\"1\"
\"\",\"\",\"approach-retreat\",\"5\",\"303092\",\"0.0-5.0\",\"\",\"\",\"3-5\",\"5989\",\"38\",\"0\",\"Training\",\"Stims/Figures/84-C-20-2.bmp\",\"vafa:va\",\"Up\",\"40\",\"1\",\"2\",\"6B\",\"C1\",\"C\",\"2\"
\"\",\"\",\"approach-retreat\",\"6\",\"310694\",\"0.0-6.0\",\"\",\"\",\"3-5\",\"6090\",\"40\",\"0\",\"Training\",\"Stims/Figures/102-C-20-4.bmp\",\"fafasha\",\"Down\",\"38\",\"1\",\"3\",\"6B\",\"C1\",\"C\",\"3\"
\"\",\"\",\"approach-retreat\",\"7\",\"318566\",\"0.0-7.0\",\"\",\"\",\"3-5\",\"6362\",\"37\",\"0\",\"Training\",\"Stims/Figures/128-C-30-3.bmp\",\"fa:fava\",\"Left\",\"39\",\"1\",\"4\",\"6B\",\"C1\",\"C\",\"4\"
\"\",\"\",\"approach-retreat\",\"8\",\"325608\",\"0.0-8.0\",\"\",\"\",\"3-5\",\"5535\",\"39\",\"0\",\"Training\",\"Stims/Figures/100-C-30-3.bmp\",\"fa:fa:sha\",\"Right\",\"37\",\"1\",\"5\",\"6B\",\"C1\",\"C\",\"5\"
\"\",\"\",\"approach-retreat\",\"9\",\"333304\",\"0.0-9.0\",\"\",\"\",\"3-5\",\"6182\",\"39\",\"1\",\"Training\",\"Stims/Figures/71-J-0-1.bmp\",\"sa:haza\",\"Right\",\"39\",\"1\",\"6\",\"6B\",\"C2\",\"C\",\"6\"
\"\",\"\",\"approach-retreat\",\"10\",\"341234\",\"0.0-10.0\",\"\",\"\",\"3-5\",\"6419\",\"38\",\"1\",\"Training\",\"Stims/Figures/86-J-0-1.bmp\",\"sa:sa:ha\",\"Up\",\"38\",\"1\",\"7\",\"6B\",\"C2\",\"C\",\"7\"
\"\",\"\",\"approach-retreat\",\"11\",\"347565\",\"0.0-11.0\",\"\",\"\",\"3-5\",\"4819\",\"37\",\"0\",\"Training\",\"Stims/Figures/84-J-0-2.bmp\",\"sa:ha:ha\",\"Right\",\"39\",\"1\",\"8\",\"6B\",\"C2\",\"C\",\"8\"
\"\",\"\",\"approach-retreat\",\"12\",\"353635\",\"0.0-12.0\",\"\",\"\",\"3-5\",\"4558\",\"40\",\"1\",\"Training\",\"Stims/Figures/100-J-10-3.bmp\",\"za:ha:ha\",\"Down\",\"40\",\"1\",\"9\",\"6B\",\"C2\",\"C\",\"9\"
\"\",\"\",\"approach-retreat\",\"13\",\"359916\",\"0.0-13.0\",\"\",\"\",\"3-5\",\"4770\",\"40\",\"1\",\"Training\",\"Stims/Figures/94-C-20-2.bmp\",\"va:sha:sha\",\"Up\",\"40\",\"1\",\"10\",\"6B\",\"C1\",\"C\",\"10\"
\"\",\"\",\"approach-retreat\",\"14\",\"366405\",\"0.0-14.0\",\"\",\"\",\"3-5\",\"4977\",\"37\",\"0\",\"Training\",\"Stims/Figures/86-C-30-1.bmp\",\"vasha:sha\",\"Left\",\"39\",\"1\",\"11\",\"6B\",\"C1\",\"C\",\"11\"
\"\",\"\",\"approach-retreat\",\"15\",\"372377\",\"0.0-15.0\",\"\",\"\",\"3-5\",\"4460\",\"38\",\"1\",\"Training\",\"Stims/Figures/128-J-10-3.bmp\",\"za:saza\",\"Up\",\"38\",\"1\",\"12\",\"6B\",\"C2\",\"C\",\"12\"
\"\",\"\",\"approach-retreat\",\"16\",\"378396\",\"0.0-16.0\",\"\",\"\",\"3-5\",\"4507\",\"38\",\"0\",\"Training\",\"Stims/Figures/102-J-10-4.bmp\",\"zaha:za\",\"Down\",\"40\",\"1\",\"13\",\"6B\",\"C2\",\"C\",\"13\"
\"\",\"\",\"approach-retreat\",\"17\",\"384929\",\"0.0-17.0\",\"\",\"\",\"3-5\",\"5020\",\"37\",\"0\",\"Training\",\"Stims/Figures/71-C-30-1.bmp\",\"va:fava\",\"Left\",\"39\",\"1\",\"14\",\"6B\",\"C1\",\"C\",\"14\"
\"\",\"\",\"approach-retreat\",\"18\",\"400785\",\"0.0-18.0\",\"\",\"\",\"3-5\",\"14345\",\"38\",\"0\",\"Training\",\"Stims/Figures/94-J-0-2.bmp\",\"zahaza\",\"Down\",\"40\",\"1\",\"15\",\"6B\",\"C2\",\"C\",\"15\"
\"\",\"\",\"approach-retreat\",\"19\",\"407115\",\"0.0-19.0\",\"\",\"\",\"3-5\",\"4818\",\"37\",\"0\",\"Training\",\"Stims/Figures/74-C-20-4.bmp\",\"va:fasha\",\"Left\",\"39\",\"1\",\"16\",\"6B\",\"C1\",\"C\",\"16\"
\"\",\"\",\"approach-retreat\",\"20\",\"417865\",\"0.0-20.0\",\"\",\"\",\"3-5\",\"9240\",\"39\",\"0\",\"Training\",\"Stims/Figures/86-C-30-1.bmp\",\"vasha:sha\",\"Right\",\"37\",\"2\",\"1\",\"6B\",\"C1\",\"C\",\"17\"
\"\",\"\",\"approach-retreat\",\"21\",\"426367\",\"0.0-21.0\",\"\",\"\",\"3-5\",\"6991\",\"40\",\"0\",\"Training\",\"Stims/Figures/94-J-0-2.bmp\",\"zahaza\",\"Up\",\"38\",\"2\",\"2\",\"6B\",\"C2\",\"C\",\"18\"
\"\",\"\",\"approach-retreat\",\"22\",\"432168\",\"0.0-22.0\",\"\",\"\",\"3-5\",\"4289\",\"40\",\"0\",\"Training\",\"Stims/Figures/94-C-20-2.bmp\",\"va:sha:sha\",\"Down\",\"38\",\"2\",\"3\",\"6B\",\"C1\",\"C\",\"19\"
\"\",\"\",\"approach-retreat\",\"23\",\"438477\",\"0.0-23.0\",\"\",\"\",\"3-5\",\"4797\",\"37\",\"0\",\"Training\",\"Stims/Figures/84-C-20-2.bmp\",\"vafa:va\",\"Left\",\"39\",\"2\",\"4\",\"6B\",\"C1\",\"C\",\"20\"
\"\",\"\",\"approach-retreat\",\"24\",\"445530\",\"0.0-24.0\",\"\",\"\",\"3-5\",\"5541\",\"39\",\"1\",\"Training\",\"Stims/Figures/71-C-30-1.bmp\",\"va:fava\",\"Left\",\"39\",\"2\",\"5\",\"6B\",\"C1\",\"C\",\"21\"
\"\",\"\",\"approach-retreat\",\"25\",\"451780\",\"0.0-25.0\",\"\",\"\",\"3-5\",\"4739\",\"40\",\"0\",\"Training\",\"Stims/Figures/128-C-30-3.bmp\",\"fa:fava\",\"Down\",\"38\",\"2\",\"6\",\"6B\",\"C1\",\"C\",\"22\"
\"\",\"\",\"approach-retreat\",\"26\",\"458021\",\"0.0-26.0\",\"\",\"\",\"3-5\",\"4728\",\"40\",\"1\",\"Training\",\"Stims/Figures/102-J-10-4.bmp\",\"zaha:za\",\"Down\",\"40\",\"2\",\"7\",\"6B\",\"C2\",\"C\",\"23\"
\"\",\"\",\"approach-retreat\",\"27\",\"464712\",\"0.0-27.0\",\"\",\"\",\"3-5\",\"5179\",\"39\",\"1\",\"Training\",\"Stims/Figures/74-J-10-4.bmp\",\"zasaza\",\"Right\",\"39\",\"2\",\"8\",\"6B\",\"C2\",\"C\",\"24\"
\"\",\"\",\"approach-retreat\",\"28\",\"472175\",\"0.0-28.0\",\"\",\"\",\"3-5\",\"5952\",\"38\",\"0\",\"Training\",\"Stims/Figures/100-J-10-3.bmp\",\"za:ha:ha\",\"Down\",\"40\",\"2\",\"9\",\"6B\",\"C2\",\"C\",\"25\"
\"\",\"\",\"approach-retreat\",\"29\",\"479026\",\"0.0-29.0\",\"\",\"\",\"3-5\",\"5338\",\"39\",\"1\",\"Training\",\"Stims/Figures/100-C-30-3.bmp\",\"fa:fa:sha\",\"Left\",\"39\",\"2\",\"10\",\"6B\",\"C1\",\"C\",\"26\"
\"\",\"\",\"approach-retreat\",\"30\",\"488073\",\"0.0-30.0\",\"\",\"\",\"3-5\",\"7535\",\"37\",\"0\",\"Training\",\"Stims/Figures/128-J-10-3.bmp\",\"za:saza\",\"Right\",\"39\",\"2\",\"11\",\"6B\",\"C2\",\"C\",\"27\"
\"\",\"\",\"approach-retreat\",\"31\",\"494431\",\"0.0-31.0\",\"\",\"\",\"3-5\",\"4848\",\"37\",\"1\",\"Training\",\"Stims/Figures/71-J-0-1.bmp\",\"sa:haza\",\"Left\",\"37\",\"2\",\"12\",\"6B\",\"C2\",\"C\",\"28\"
\"\",\"\",\"approach-retreat\",\"32\",\"501025\",\"0.0-32.0\",\"\",\"\",\"3-5\",\"5080\",\"38\",\"0\",\"Training\",\"Stims/Figures/74-C-20-4.bmp\",\"va:fasha\",\"Up\",\"40\",\"2\",\"13\",\"6B\",\"C1\",\"C\",\"29\"
\"\",\"\",\"approach-retreat\",\"33\",\"510299\",\"0.0-33.0\",\"\",\"\",\"3-5\",\"7762\",\"39\",\"1\",\"Training\",\"Stims/Figures/86-J-0-1.bmp\",\"sa:sa:ha\",\"Right\",\"39\",\"2\",\"14\",\"6B\",\"C2\",\"C\",\"30\"
\"\",\"\",\"approach-retreat\",\"34\",\"516491\",\"0.0-34.0\",\"\",\"\",\"3-5\",\"4679\",\"40\",\"1\",\"Training\",\"Stims/Figures/102-C-20-4.bmp\",\"fafasha\",\"Up\",\"40\",\"2\",\"15\",\"6B\",\"C1\",\"C\",\"31\"
\"\",\"\",\"approach-retreat\",\"35\",\"522349\",\"0.0-35.0\",\"\",\"\",\"3-5\",\"4345\",\"40\",\"0\",\"Training\",\"Stims/Figures/84-J-0-2.bmp\",\"sa:ha:ha\",\"Up\",\"38\",\"2\",\"16\",\"6B\",\"C2\",\"C\",\"32\"
\"\",\"\",\"approach-retreat\",\"36\",\"529502\",\"0.0-36.0\",\"\",\"\",\"3-5\",\"5642\",\"40\",\"0\",\"Training\",\"Stims/Figures/84-J-0-2.bmp\",\"sa:ha:ha\",\"Up\",\"38\",\"3\",\"1\",\"6B\",\"C2\",\"C\",\"33\"
\"\",\"\",\"approach-retreat\",\"37\",\"537134\",\"0.0-37.0\",\"\",\"\",\"3-5\",\"6119\",\"37\",\"0\",\"Training\",\"Stims/Figures/86-J-0-1.bmp\",\"sa:sa:ha\",\"Right\",\"39\",\"3\",\"2\",\"6B\",\"C2\",\"C\",\"34\"
\"\",\"\",\"approach-retreat\",\"38\",\"543317\",\"0.0-38.0\",\"\",\"\",\"3-5\",\"4670\",\"37\",\"1\",\"Training\",\"Stims/Figures/100-J-10-3.bmp\",\"za:ha:ha\",\"Left\",\"37\",\"3\",\"3\",\"6B\",\"C2\",\"C\",\"35\"
\"\",\"\",\"approach-retreat\",\"39\",\"550857\",\"0.0-39.0\",\"\",\"\",\"3-5\",\"6028\",\"38\",\"1\",\"Training\",\"Stims/Figures/100-C-30-3.bmp\",\"fa:fa:sha\",\"Down\",\"38\",\"3\",\"4\",\"6B\",\"C1\",\"C\",\"36\"
\"\",\"\",\"approach-retreat\",\"40\",\"560455\",\"0.0-40.0\",\"\",\"\",\"3-5\",\"8086\",\"40\",\"1\",\"Training\",\"Stims/Figures/128-C-30-3.bmp\",\"fa:fava\",\"Up\",\"40\",\"3\",\"5\",\"6B\",\"C1\",\"C\",\"37\"
\"\",\"\",\"approach-retreat\",\"41\",\"567084\",\"0.0-41.0\",\"\",\"\",\"3-5\",\"5116\",\"37\",\"1\",\"Training\",\"Stims/Figures/74-C-20-4.bmp\",\"va:fasha\",\"Right\",\"37\",\"3\",\"6\",\"6B\",\"C1\",\"C\",\"38\"
\"\",\"\",\"approach-retreat\",\"42\",\"573917\",\"0.0-42.0\",\"\",\"\",\"3-5\",\"5321\",\"37\",\"1\",\"Training\",\"Stims/Figures/94-J-0-2.bmp\",\"zahaza\",\"Left\",\"37\",\"3\",\"7\",\"6B\",\"C2\",\"C\",\"39\"
\"\",\"\",\"approach-retreat\",\"43\",\"581008\",\"0.0-43.0\",\"\",\"\",\"3-5\",\"5579\",\"37\",\"1\",\"Training\",\"Stims/Figures/86-C-30-1.bmp\",\"vasha:sha\",\"Right\",\"37\",\"3\",\"8\",\"6B\",\"C1\",\"C\",\"40\"
\"\",\"\",\"approach-retreat\",\"44\",\"588110\",\"0.0-44.0\",\"\",\"\",\"3-5\",\"5592\",\"38\",\"1\",\"Training\",\"Stims/Figures/102-C-20-4.bmp\",\"fafasha\",\"Down\",\"38\",\"3\",\"9\",\"6B\",\"C1\",\"C\",\"41\"
\"\",\"\",\"approach-retreat\",\"45\",\"595432\",\"0.0-45.0\",\"\",\"\",\"3-5\",\"5811\",\"40\",\"1\",\"Training\",\"Stims/Figures/128-J-10-3.bmp\",\"za:saza\",\"Down\",\"40\",\"3\",\"10\",\"6B\",\"C2\",\"C\",\"42\"
\"\",\"\",\"approach-retreat\",\"46\",\"603917\",\"0.0-46.0\",\"\",\"\",\"3-5\",\"6972\",\"39\",\"1\",\"Training\",\"Stims/Figures/71-C-30-1.bmp\",\"va:fava\",\"Left\",\"39\",\"3\",\"11\",\"6B\",\"C1\",\"C\",\"43\"
\"\",\"\",\"approach-retreat\",\"47\",\"610558\",\"0.0-47.0\",\"\",\"\",\"3-5\",\"5130\",\"40\",\"1\",\"Training\",\"Stims/Figures/102-J-10-4.bmp\",\"zaha:za\",\"Down\",\"40\",\"3\",\"12\",\"6B\",\"C2\",\"C\",\"44\"
\"\",\"\",\"approach-retreat\",\"48\",\"618983\",\"0.0-48.0\",\"\",\"\",\"3-5\",\"6914\",\"37\",\"1\",\"Training\",\"Stims/Figures/84-C-20-2.bmp\",\"vafa:va\",\"Right\",\"37\",\"3\",\"13\",\"6B\",\"C1\",\"C\",\"45\"
\"\",\"\",\"approach-retreat\",\"49\",\"627597\",\"0.0-49.0\",\"\",\"\",\"3-5\",\"7102\",\"40\",\"1\",\"Training\",\"Stims/Figures/94-C-20-2.bmp\",\"va:sha:sha\",\"Up\",\"40\",\"3\",\"14\",\"6B\",\"C1\",\"C\",\"46\"
\"\",\"\",\"approach-retreat\",\"50\",\"636011\",\"0.0-50.0\",\"\",\"\",\"3-5\",\"6902\",\"37\",\"1\",\"Training\",\"Stims/Figures/74-J-10-4.bmp\",\"zasaza\",\"Left\",\"37\",\"3\",\"15\",\"6B\",\"C2\",\"C\",\"47\"
\"\",\"\",\"approach-retreat\",\"51\",\"647882\",\"0.0-51.0\",\"\",\"\",\"3-5\",\"10357\",\"38\",\"1\",\"Training\",\"Stims/Figures/71-J-0-1.bmp\",\"sa:haza\",\"Up\",\"38\",\"3\",\"16\",\"6B\",\"C2\",\"C\",\"48\"
\"\",\"\",\"approach-retreat\",\"52\",\"655533\",\"0.0-52.0\",\"\",\"\",\"3-5\",\"6141\",\"37\",\"1\",\"Training\",\"Stims/Figures/86-C-30-1.bmp\",\"vasha:sha\",\"Right\",\"37\",\"4\",\"1\",\"6B\",\"C1\",\"C\",\"49\"
\"\",\"\",\"approach-retreat\",\"53\",\"662647\",\"0.0-53.0\",\"\",\"\",\"3-5\",\"5601\",\"38\",\"1\",\"Training\",\"Stims/Figures/71-J-0-1.bmp\",\"sa:haza\",\"Up\",\"38\",\"4\",\"2\",\"6B\",\"C2\",\"C\",\"50\"
\"\",\"\",\"approach-retreat\",\"54\",\"668564\",\"0.0-54.0\",\"\",\"\",\"3-5\",\"4406\",\"38\",\"1\",\"Training\",\"Stims/Figures/86-J-0-1.bmp\",\"sa:sa:ha\",\"Up\",\"38\",\"4\",\"3\",\"6B\",\"C2\",\"C\",\"51\"
\"\",\"\",\"approach-retreat\",\"55\",\"677320\",\"0.0-55.0\",\"\",\"\",\"3-5\",\"7244\",\"38\",\"1\",\"Training\",\"Stims/Figures/102-C-20-4.bmp\",\"fafasha\",\"Down\",\"38\",\"4\",\"4\",\"6B\",\"C1\",\"C\",\"52\"
\"\",\"\",\"approach-retreat\",\"56\",\"684952\",\"0.0-56.0\",\"\",\"\",\"3-5\",\"6118\",\"39\",\"1\",\"Training\",\"Stims/Figures/84-C-20-2.bmp\",\"vafa:va\",\"Left\",\"39\",\"4\",\"5\",\"6B\",\"C1\",\"C\",\"53\"
\"\",\"\",\"approach-retreat\",\"57\",\"693097\",\"0.0-57.0\",\"\",\"\",\"3-5\",\"6635\",\"38\",\"1\",\"Training\",\"Stims/Figures/100-J-10-3.bmp\",\"za:ha:ha\",\"Up\",\"38\",\"4\",\"6\",\"6B\",\"C2\",\"C\",\"54\"
\"\",\"\",\"approach-retreat\",\"58\",\"702572\",\"0.0-58.0\",\"\",\"\",\"3-5\",\"7964\",\"39\",\"1\",\"Training\",\"Stims/Figures/128-C-30-3.bmp\",\"fa:fava\",\"Left\",\"39\",\"4\",\"7\",\"6B\",\"C1\",\"C\",\"55\"
\"\",\"\",\"approach-retreat\",\"59\",\"709345\",\"0.0-59.0\",\"\",\"\",\"3-5\",\"5261\",\"39\",\"1\",\"Training\",\"Stims/Figures/128-J-10-3.bmp\",\"za:saza\",\"Right\",\"39\",\"4\",\"8\",\"6B\",\"C2\",\"C\",\"56\"
\"\",\"\",\"approach-retreat\",\"60\",\"716144\",\"0.0-60.0\",\"\",\"\",\"3-5\",\"5288\",\"38\",\"1\",\"Training\",\"Stims/Figures/94-C-20-2.bmp\",\"va:sha:sha\",\"Down\",\"38\",\"4\",\"9\",\"6B\",\"C1\",\"C\",\"57\"
\"\",\"\",\"approach-retreat\",\"61\",\"722537\",\"0.0-61.0\",\"\",\"\",\"3-5\",\"4880\",\"40\",\"1\",\"Training\",\"Stims/Figures/84-J-0-2.bmp\",\"sa:ha:ha\",\"Down\",\"40\",\"4\",\"10\",\"6B\",\"C2\",\"C\",\"58\"
\"\",\"\",\"approach-retreat\",\"62\",\"732131\",\"0.0-62.0\",\"\",\"\",\"3-5\",\"8082\",\"37\",\"1\",\"Training\",\"Stims/Figures/74-C-20-4.bmp\",\"va:fasha\",\"Right\",\"37\",\"4\",\"11\",\"6B\",\"C1\",\"C\",\"59\"
\"\",\"\",\"approach-retreat\",\"63\",\"739115\",\"0.0-63.0\",\"\",\"\",\"3-5\",\"5471\",\"37\",\"1\",\"Training\",\"Stims/Figures/102-J-10-4.bmp\",\"zaha:za\",\"Left\",\"37\",\"4\",\"12\",\"6B\",\"C2\",\"C\",\"60\"
\"\",\"\",\"approach-retreat\",\"64\",\"745744\",\"0.0-64.0\",\"\",\"\",\"3-5\",\"5116\",\"39\",\"1\",\"Training\",\"Stims/Figures/74-J-10-4.bmp\",\"zasaza\",\"Right\",\"39\",\"4\",\"13\",\"6B\",\"C2\",\"C\",\"61\"
\"\",\"\",\"approach-retreat\",\"65\",\"753779\",\"0.0-65.0\",\"\",\"\",\"3-5\",\"6522\",\"38\",\"1\",\"Training\",\"Stims/Figures/94-J-0-2.bmp\",\"zahaza\",\"Up\",\"38\",\"4\",\"14\",\"6B\",\"C2\",\"C\",\"62\"
\"\",\"\",\"approach-retreat\",\"66\",\"761260\",\"0.0-66.0\",\"\",\"\",\"3-5\",\"5969\",\"38\",\"1\",\"Training\",\"Stims/Figures/71-C-30-1.bmp\",\"va:fava\",\"Down\",\"38\",\"4\",\"15\",\"6B\",\"C1\",\"C\",\"63\"
\"\",\"\",\"approach-retreat\",\"67\",\"769285\",\"0.0-67.0\",\"\",\"\",\"3-5\",\"6514\",\"39\",\"1\",\"Training\",\"Stims/Figures/100-C-30-3.bmp\",\"fa:fa:sha\",\"Left\",\"39\",\"4\",\"16\",\"6B\",\"C1\",\"C\",\"64\"
\"\",\"\",\"approach-retreat\",\"68\",\"776085\",\"0.0-68.0\",\"\",\"\",\"3-5\",\"5289\",\"38\",\"1\",\"Training\",\"Stims/Figures/102-J-10-4.bmp\",\"zaha:za\",\"Up\",\"38\",\"5\",\"1\",\"6B\",\"C2\",\"C\",\"65\"
\"\",\"\",\"approach-retreat\",\"69\",\"783189\",\"0.0-69.0\",\"\",\"\",\"3-5\",\"5593\",\"38\",\"1\",\"Training\",\"Stims/Figures/100-C-30-3.bmp\",\"fa:fa:sha\",\"Down\",\"38\",\"5\",\"2\",\"6B\",\"C1\",\"C\",\"66\"
\"\",\"\",\"approach-retreat\",\"70\",\"792523\",\"0.0-70.0\",\"\",\"\",\"3-5\",\"7822\",\"39\",\"1\",\"Training\",\"Stims/Figures/86-C-30-1.bmp\",\"vasha:sha\",\"Left\",\"39\",\"5\",\"3\",\"6B\",\"C1\",\"C\",\"67\"
\"\",\"\",\"approach-retreat\",\"71\",\"802571\",\"0.0-71.0\",\"\",\"\",\"3-5\",\"8536\",\"37\",\"1\",\"Training\",\"Stims/Figures/74-C-20-4.bmp\",\"va:fasha\",\"Right\",\"37\",\"5\",\"4\",\"6B\",\"C1\",\"C\",\"68\"
\"\",\"\",\"approach-retreat\",\"72\",\"810383\",\"0.0-72.0\",\"\",\"\",\"3-5\",\"6300\",\"39\",\"1\",\"Training\",\"Stims/Figures/84-C-20-2.bmp\",\"vafa:va\",\"Left\",\"39\",\"5\",\"5\",\"6B\",\"C1\",\"C\",\"69\"
\"\",\"\",\"approach-retreat\",\"73\",\"816746\",\"0.0-73.0\",\"\",\"\",\"3-5\",\"4850\",\"39\",\"1\",\"Training\",\"Stims/Figures/71-C-30-1.bmp\",\"va:fava\",\"Left\",\"39\",\"5\",\"6\",\"6B\",\"C1\",\"C\",\"70\"
\"\",\"\",\"approach-retreat\",\"74\",\"824216\",\"0.0-74.0\",\"\",\"\",\"3-5\",\"5959\",\"39\",\"1\",\"Training\",\"Stims/Figures/86-J-0-1.bmp\",\"sa:sa:ha\",\"Right\",\"39\",\"5\",\"7\",\"6B\",\"C2\",\"C\",\"71\"
\"\",\"\",\"approach-retreat\",\"75\",\"831310\",\"0.0-75.0\",\"\",\"\",\"3-5\",\"5582\",\"38\",\"1\",\"Training\",\"Stims/Figures/102-C-20-4.bmp\",\"fafasha\",\"Down\",\"38\",\"5\",\"8\",\"6B\",\"C1\",\"C\",\"72\"
\"\",\"\",\"approach-retreat\",\"76\",\"839062\",\"0.0-76.0\",\"\",\"\",\"3-5\",\"6240\",\"39\",\"1\",\"Training\",\"Stims/Figures/84-J-0-2.bmp\",\"sa:ha:ha\",\"Right\",\"39\",\"5\",\"9\",\"6B\",\"C2\",\"C\",\"73\"
\"\",\"\",\"approach-retreat\",\"77\",\"845665\",\"0.0-77.0\",\"\",\"\",\"3-5\",\"5091\",\"40\",\"1\",\"Training\",\"Stims/Figures/74-J-10-4.bmp\",\"zasaza\",\"Down\",\"40\",\"5\",\"10\",\"6B\",\"C2\",\"C\",\"74\"
\"\",\"\",\"approach-retreat\",\"78\",\"852574\",\"0.0-78.0\",\"\",\"\",\"3-5\",\"5400\",\"38\",\"1\",\"Training\",\"Stims/Figures/100-J-10-3.bmp\",\"za:ha:ha\",\"Up\",\"38\",\"5\",\"11\",\"6B\",\"C2\",\"C\",\"75\"
\"\",\"\",\"approach-retreat\",\"79\",\"858766\",\"0.0-79.0\",\"\",\"\",\"3-5\",\"4679\",\"40\",\"1\",\"Training\",\"Stims/Figures/94-J-0-2.bmp\",\"zahaza\",\"Down\",\"40\",\"5\",\"12\",\"6B\",\"C2\",\"C\",\"76\"
\"\",\"\",\"approach-retreat\",\"80\",\"866339\",\"0.0-80.0\",\"\",\"\",\"3-5\",\"6059\",\"40\",\"1\",\"Training\",\"Stims/Figures/94-C-20-2.bmp\",\"va:sha:sha\",\"Up\",\"40\",\"5\",\"13\",\"6B\",\"C1\",\"C\",\"77\"
\"\",\"\",\"approach-retreat\",\"81\",\"872890\",\"0.0-81.0\",\"\",\"\",\"3-5\",\"5039\",\"39\",\"1\",\"Training\",\"Stims/Figures/71-J-0-1.bmp\",\"sa:haza\",\"Right\",\"39\",\"5\",\"14\",\"6B\",\"C2\",\"C\",\"78\"
\"\",\"\",\"approach-retreat\",\"82\",\"879109\",\"0.0-82.0\",\"\",\"\",\"3-5\",\"4707\",\"38\",\"1\",\"Training\",\"Stims/Figures/128-J-10-3.bmp\",\"za:saza\",\"Up\",\"38\",\"5\",\"15\",\"6B\",\"C2\",\"C\",\"79\"
\"\",\"\",\"approach-retreat\",\"83\",\"890591\",\"0.0-83.0\",\"\",\"\",\"3-5\",\"9968\",\"37\",\"0\",\"Training\",\"Stims/Figures/128-C-30-3.bmp\",\"fa:fava\",\"Left\",\"39\",\"5\",\"16\",\"6B\",\"C1\",\"C\",\"80\"
\"\",\"\",\"approach-retreat\",\"84\",\"904855\",\"0.0-84.0\",\"\",\"\",\"3-5\",\"12753\",\"39\",\"1\",\"Training\",\"Stims/Figures/102-J-10-4.bmp\",\"zaha:za\",\"Right\",\"39\",\"6\",\"1\",\"6B\",\"C2\",\"C\",\"81\"
\"\",\"\",\"approach-retreat\",\"85\",\"911786\",\"0.0-85.0\",\"\",\"\",\"3-5\",\"5417\",\"39\",\"1\",\"Training\",\"Stims/Figures/84-J-0-2.bmp\",\"sa:ha:ha\",\"Right\",\"39\",\"6\",\"2\",\"6B\",\"C2\",\"C\",\"82\"
\"\",\"\",\"approach-retreat\",\"86\",\"920179\",\"0.0-86.0\",\"\",\"\",\"3-5\",\"6882\",\"38\",\"1\",\"Training\",\"Stims/Figures/71-C-30-1.bmp\",\"va:fava\",\"Down\",\"38\",\"6\",\"3\",\"6B\",\"C1\",\"C\",\"83\"
\"\",\"\",\"approach-retreat\",\"87\",\"926710\",\"0.0-87.0\",\"\",\"\",\"3-5\",\"5017\",\"38\",\"1\",\"Training\",\"Stims/Figures/102-C-20-4.bmp\",\"fafasha\",\"Down\",\"38\",\"6\",\"4\",\"6B\",\"C1\",\"C\",\"84\"
\"\",\"\",\"approach-retreat\",\"88\",\"933371\",\"0.0-88.0\",\"\",\"\",\"3-5\",\"5149\",\"37\",\"1\",\"Training\",\"Stims/Figures/71-J-0-1.bmp\",\"sa:haza\",\"Left\",\"37\",\"6\",\"5\",\"6B\",\"C2\",\"C\",\"85\"
\"\",\"\",\"approach-retreat\",\"89\",\"940775\",\"0.0-89.0\",\"\",\"\",\"3-5\",\"5890\",\"39\",\"1\",\"Training\",\"Stims/Figures/86-C-30-1.bmp\",\"vasha:sha\",\"Left\",\"39\",\"6\",\"6\",\"6B\",\"C1\",\"C\",\"86\"
\"\",\"\",\"approach-retreat\",\"90\",\"947075\",\"0.0-90.0\",\"\",\"\",\"3-5\",\"4782\",\"39\",\"1\",\"Training\",\"Stims/Figures/94-C-20-2.bmp\",\"va:sha:sha\",\"Left\",\"39\",\"6\",\"7\",\"6B\",\"C1\",\"C\",\"87\"
\"\",\"\",\"approach-retreat\",\"91\",\"954628\",\"0.0-91.0\",\"\",\"\",\"3-5\",\"6039\",\"37\",\"1\",\"Training\",\"Stims/Figures/74-C-20-4.bmp\",\"va:fasha\",\"Right\",\"37\",\"6\",\"8\",\"6B\",\"C1\",\"C\",\"88\"
\"\",\"\",\"approach-retreat\",\"92\",\"961018\",\"0.0-92.0\",\"\",\"\",\"3-5\",\"4880\",\"37\",\"1\",\"Training\",\"Stims/Figures/84-C-20-2.bmp\",\"vafa:va\",\"Right\",\"37\",\"6\",\"9\",\"6B\",\"C1\",\"C\",\"89\"
\"\",\"\",\"approach-retreat\",\"93\",\"967378\",\"0.0-93.0\",\"\",\"\",\"3-5\",\"4848\",\"39\",\"1\",\"Training\",\"Stims/Figures/100-C-30-3.bmp\",\"fa:fa:sha\",\"Left\",\"39\",\"6\",\"10\",\"6B\",\"C1\",\"C\",\"90\"
\"\",\"\",\"approach-retreat\",\"94\",\"974081\",\"0.0-94.0\",\"\",\"\",\"3-5\",\"5191\",\"40\",\"1\",\"Training\",\"Stims/Figures/128-C-30-3.bmp\",\"fa:fava\",\"Up\",\"40\",\"6\",\"11\",\"6B\",\"C1\",\"C\",\"91\"
\"\",\"\",\"approach-retreat\",\"95\",\"980229\",\"0.0-95.0\",\"\",\"\",\"3-5\",\"4638\",\"38\",\"1\",\"Training\",\"Stims/Figures/74-J-10-4.bmp\",\"zasaza\",\"Up\",\"38\",\"6\",\"12\",\"6B\",\"C2\",\"C\",\"92\"
\"\",\"\",\"approach-retreat\",\"96\",\"986681\",\"0.0-96.0\",\"\",\"\",\"3-5\",\"4939\",\"40\",\"1\",\"Training\",\"Stims/Figures/100-J-10-3.bmp\",\"za:ha:ha\",\"Down\",\"40\",\"6\",\"13\",\"6B\",\"C2\",\"C\",\"93\"
\"\",\"\",\"approach-retreat\",\"97\",\"993162\",\"0.0-97.0\",\"\",\"\",\"3-5\",\"4968\",\"38\",\"1\",\"Training\",\"Stims/Figures/94-J-0-2.bmp\",\"zahaza\",\"Up\",\"38\",\"6\",\"14\",\"6B\",\"C2\",\"C\",\"94\"
\"\",\"\",\"approach-retreat\",\"98\",\"999764\",\"0.0-98.0\",\"\",\"\",\"3-5\",\"5089\",\"40\",\"1\",\"Training\",\"Stims/Figures/128-J-10-3.bmp\",\"za:saza\",\"Down\",\"40\",\"6\",\"15\",\"6B\",\"C2\",\"C\",\"95\"
\"\",\"\",\"approach-retreat\",\"99\",\"1006124\",\"0.0-99.0\",\"\",\"\",\"3-5\",\"4849\",\"38\",\"1\",\"Training\",\"Stims/Figures/86-J-0-1.bmp\",\"sa:sa:ha\",\"Up\",\"38\",\"6\",\"16\",\"6B\",\"C2\",\"C\",\"96\"
\"\",\"\",\"approach-retreat\",\"100\",\"1012335\",\"0.0-100.0\",\"\",\"\",\"3-5\",\"4700\",\"38\",\"1\",\"Training\",\"Stims/Figures/102-J-10-4.bmp\",\"zaha:za\",\"Up\",\"38\",\"7\",\"1\",\"6B\",\"C2\",\"C\",\"97\"
\"\",\"\",\"approach-retreat\",\"101\",\"1018794\",\"0.0-101.0\",\"\",\"\",\"3-5\",\"4948\",\"37\",\"1\",\"Training\",\"Stims/Figures/100-C-30-3.bmp\",\"fa:fa:sha\",\"Right\",\"37\",\"7\",\"2\",\"6B\",\"C1\",\"C\",\"98\"
\"\",\"\",\"approach-retreat\",\"102\",\"1024778\",\"0.0-102.0\",\"\",\"\",\"3-5\",\"4472\",\"37\",\"1\",\"Training\",\"Stims/Figures/74-C-20-4.bmp\",\"va:fasha\",\"Right\",\"37\",\"7\",\"3\",\"6B\",\"C1\",\"C\",\"99\"
\"\",\"\",\"approach-retreat\",\"103\",\"1030925\",\"0.0-103.0\",\"\",\"\",\"3-5\",\"4634\",\"38\",\"1\",\"Training\",\"Stims/Figures/71-J-0-1.bmp\",\"sa:haza\",\"Up\",\"38\",\"7\",\"4\",\"6B\",\"C2\",\"C\",\"100\"
\"\",\"\",\"approach-retreat\",\"104\",\"1037577\",\"0.0-104.0\",\"\",\"\",\"3-5\",\"5143\",\"40\",\"1\",\"Training\",\"Stims/Figures/86-J-0-1.bmp\",\"sa:sa:ha\",\"Down\",\"40\",\"7\",\"5\",\"6B\",\"C2\",\"C\",\"101\"
\"\",\"\",\"approach-retreat\",\"105\",\"1043846\",\"0.0-105.0\",\"\",\"\",\"3-5\",\"4757\",\"38\",\"1\",\"Training\",\"Stims/Figures/100-J-10-3.bmp\",\"za:ha:ha\",\"Up\",\"38\",\"7\",\"6\",\"6B\",\"C2\",\"C\",\"102\"
\"\",\"\",\"approach-retreat\",\"106\",\"1050650\",\"0.0-106.0\",\"\",\"\",\"3-5\",\"5292\",\"38\",\"1\",\"Training\",\"Stims/Figures/94-C-20-2.bmp\",\"va:sha:sha\",\"Down\",\"38\",\"7\",\"7\",\"6B\",\"C1\",\"C\",\"103\"
\"\",\"\",\"approach-retreat\",\"107\",\"1057210\",\"0.0-107.0\",\"\",\"\",\"3-5\",\"5046\",\"39\",\"1\",\"Training\",\"Stims/Figures/102-C-20-4.bmp\",\"fafasha\",\"Left\",\"39\",\"7\",\"8\",\"6B\",\"C1\",\"C\",\"104\"
\"\",\"\",\"approach-retreat\",\"108\",\"1064382\",\"0.0-108.0\",\"\",\"\",\"3-5\",\"5662\",\"40\",\"1\",\"Training\",\"Stims/Figures/84-J-0-2.bmp\",\"sa:ha:ha\",\"Down\",\"40\",\"7\",\"9\",\"6B\",\"C2\",\"C\",\"105\"
\"\",\"\",\"approach-retreat\",\"109\",\"1071052\",\"0.0-109.0\",\"\",\"\",\"3-5\",\"5159\",\"39\",\"1\",\"Training\",\"Stims/Figures/74-J-10-4.bmp\",\"zasaza\",\"Right\",\"39\",\"7\",\"10\",\"6B\",\"C2\",\"C\",\"106\"
\"\",\"\",\"approach-retreat\",\"110\",\"1077093\",\"0.0-110.0\",\"\",\"\",\"3-5\",\"4529\",\"39\",\"1\",\"Training\",\"Stims/Figures/128-J-10-3.bmp\",\"za:saza\",\"Right\",\"39\",\"7\",\"11\",\"6B\",\"C2\",\"C\",\"107\"
\"\",\"\",\"approach-retreat\",\"111\",\"1083284\",\"0.0-111.0\",\"\",\"\",\"3-5\",\"4679\",\"37\",\"1\",\"Training\",\"Stims/Figures/94-J-0-2.bmp\",\"zahaza\",\"Left\",\"37\",\"7\",\"12\",\"6B\",\"C2\",\"C\",\"108\"
\"\",\"\",\"approach-retreat\",\"112\",\"1089734\",\"0.0-112.0\",\"\",\"\",\"3-5\",\"4940\",\"39\",\"1\",\"Training\",\"Stims/Figures/71-C-30-1.bmp\",\"va:fava\",\"Left\",\"39\",\"7\",\"13\",\"6B\",\"C1\",\"C\",\"109\"
\"\",\"\",\"approach-retreat\",\"113\",\"1095543\",\"0.0-113.0\",\"\",\"\",\"3-5\",\"4297\",\"39\",\"1\",\"Training\",\"Stims/Figures/84-C-20-2.bmp\",\"vafa:va\",\"Left\",\"39\",\"7\",\"14\",\"6B\",\"C1\",\"C\",\"110\"
\"\",\"\",\"approach-retreat\",\"114\",\"1102466\",\"0.0-114.0\",\"\",\"\",\"3-5\",\"5411\",\"40\",\"1\",\"Training\",\"Stims/Figures/128-C-30-3.bmp\",\"fa:fava\",\"Up\",\"40\",\"7\",\"15\",\"6B\",\"C1\",\"C\",\"111\"
\"\",\"\",\"approach-retreat\",\"115\",\"1109377\",\"0.0-115.0\",\"\",\"\",\"3-5\",\"5399\",\"38\",\"1\",\"Training\",\"Stims/Figures/86-C-30-1.bmp\",\"vasha:sha\",\"Down\",\"38\",\"7\",\"16\",\"6B\",\"C1\",\"C\",\"112\"
\"\",\"\",\"approach-retreat\",\"116\",\"1116821\",\"0.0-116.0\",\"\",\"\",\"3-5\",\"5933\",\"39\",\"1\",\"Training\",\"Stims/Figures/100-J-10-3.bmp\",\"za:ha:ha\",\"Right\",\"39\",\"8\",\"1\",\"6B\",\"C2\",\"C\",\"113\"
\"\",\"\",\"approach-retreat\",\"117\",\"1122969\",\"0.0-117.0\",\"\",\"\",\"3-5\",\"4636\",\"38\",\"1\",\"Training\",\"Stims/Figures/94-J-0-2.bmp\",\"zahaza\",\"Up\",\"38\",\"8\",\"2\",\"6B\",\"C2\",\"C\",\"114\"
\"\",\"\",\"approach-retreat\",\"118\",\"1129151\",\"0.0-118.0\",\"\",\"\",\"3-5\",\"4670\",\"37\",\"1\",\"Training\",\"Stims/Figures/102-C-20-4.bmp\",\"fafasha\",\"Right\",\"37\",\"8\",\"3\",\"6B\",\"C1\",\"C\",\"115\"
\"\",\"\",\"approach-retreat\",\"119\",\"1136152\",\"0.0-119.0\",\"\",\"\",\"3-5\",\"5489\",\"38\",\"1\",\"Training\",\"Stims/Figures/128-J-10-3.bmp\",\"za:saza\",\"Up\",\"38\",\"8\",\"4\",\"6B\",\"C2\",\"C\",\"116\"
\"\",\"\",\"approach-retreat\",\"120\",\"1142353\",\"0.0-120.0\",\"\",\"\",\"3-5\",\"4689\",\"38\",\"1\",\"Training\",\"Stims/Figures/94-C-20-2.bmp\",\"va:sha:sha\",\"Down\",\"38\",\"8\",\"5\",\"6B\",\"C1\",\"C\",\"117\"
\"\",\"\",\"approach-retreat\",\"121\",\"1148864\",\"0.0-121.0\",\"\",\"\",\"3-5\",\"5000\",\"38\",\"1\",\"Training\",\"Stims/Figures/86-C-30-1.bmp\",\"vasha:sha\",\"Down\",\"38\",\"8\",\"6\",\"6B\",\"C1\",\"C\",\"118\"
\"\",\"\",\"approach-retreat\",\"122\",\"1155927\",\"0.0-122.0\",\"\",\"\",\"3-5\",\"5545\",\"39\",\"1\",\"Training\",\"Stims/Figures/74-C-20-4.bmp\",\"va:fasha\",\"Left\",\"39\",\"8\",\"7\",\"6B\",\"C1\",\"C\",\"119\"
\"\",\"\",\"approach-retreat\",\"123\",\"1162748\",\"0.0-123.0\",\"\",\"\",\"3-5\",\"5309\",\"38\",\"1\",\"Training\",\"Stims/Figures/71-C-30-1.bmp\",\"va:fava\",\"Down\",\"38\",\"8\",\"8\",\"6B\",\"C1\",\"C\",\"120\"
\"\",\"\",\"approach-retreat\",\"124\",\"1169289\",\"0.0-124.0\",\"\",\"\",\"3-5\",\"5030\",\"39\",\"1\",\"Training\",\"Stims/Figures/84-C-20-2.bmp\",\"vafa:va\",\"Left\",\"39\",\"8\",\"9\",\"6B\",\"C1\",\"C\",\"121\"
\"\",\"\",\"approach-retreat\",\"125\",\"1176119\",\"0.0-125.0\",\"\",\"\",\"3-5\",\"5317\",\"37\",\"1\",\"Training\",\"Stims/Figures/100-C-30-3.bmp\",\"fa:fa:sha\",\"Right\",\"37\",\"8\",\"10\",\"6B\",\"C1\",\"C\",\"122\"
\"\",\"\",\"approach-retreat\",\"126\",\"1183173\",\"0.0-126.0\",\"\",\"\",\"3-5\",\"5542\",\"38\",\"1\",\"Training\",\"Stims/Figures/102-J-10-4.bmp\",\"zaha:za\",\"Up\",\"38\",\"8\",\"11\",\"6B\",\"C2\",\"C\",\"123\"
\"\",\"\",\"approach-retreat\",\"127\",\"1189341\",\"0.0-127.0\",\"\",\"\",\"3-5\",\"4656\",\"38\",\"1\",\"Training\",\"Stims/Figures/74-J-10-4.bmp\",\"zasaza\",\"Up\",\"38\",\"8\",\"12\",\"6B\",\"C2\",\"C\",\"124\"
\"\",\"\",\"approach-retreat\",\"128\",\"1200922\",\"0.0-128.0\",\"\",\"\",\"3-5\",\"10069\",\"39\",\"1\",\"Training\",\"Stims/Figures/84-J-0-2.bmp\",\"sa:ha:ha\",\"Right\",\"39\",\"8\",\"13\",\"6B\",\"C2\",\"C\",\"125\"
\"\",\"\",\"approach-retreat\",\"129\",\"1208214\",\"0.0-129.0\",\"\",\"\",\"3-5\",\"5779\",\"39\",\"1\",\"Training\",\"Stims/Figures/128-C-30-3.bmp\",\"fa:fava\",\"Left\",\"39\",\"8\",\"14\",\"6B\",\"C1\",\"C\",\"126\"
\"\",\"\",\"approach-retreat\",\"130\",\"1215006\",\"0.0-130.0\",\"\",\"\",\"3-5\",\"5281\",\"37\",\"1\",\"Training\",\"Stims/Figures/86-J-0-1.bmp\",\"sa:sa:ha\",\"Left\",\"37\",\"8\",\"15\",\"6B\",\"C2\",\"C\",\"127\"
\"\",\"\",\"approach-retreat\",\"131\",\"1223029\",\"0.0-131.0\",\"\",\"\",\"3-5\",\"6510\",\"40\",\"1\",\"Training\",\"Stims/Figures/71-J-0-1.bmp\",\"sa:haza\",\"Down\",\"40\",\"8\",\"16\",\"6B\",\"C2\",\"C\",\"128\"
\"\",\"\",\"approach-retreat\",\"132\",\"1228960\",\"0.0-132.0\",\"\",\"\",\"3-5\",\"4420\",\"39\",\"1\",\"Training\",\"Stims/Figures/102-J-10-4.bmp\",\"zaha:za\",\"Right\",\"39\",\"9\",\"1\",\"6B\",\"C2\",\"C\",\"129\"
\"\",\"\",\"approach-retreat\",\"133\",\"1235290\",\"0.0-133.0\",\"\",\"\",\"3-5\",\"4819\",\"39\",\"1\",\"Training\",\"Stims/Figures/94-C-20-2.bmp\",\"va:sha:sha\",\"Left\",\"39\",\"9\",\"2\",\"6B\",\"C1\",\"C\",\"130\"
\"\",\"\",\"approach-retreat\",\"134\",\"1241000\",\"0.0-134.0\",\"\",\"\",\"3-5\",\"4200\",\"39\",\"1\",\"Training\",\"Stims/Figures/102-C-20-4.bmp\",\"fafasha\",\"Left\",\"39\",\"9\",\"3\",\"6B\",\"C1\",\"C\",\"131\"
\"\",\"\",\"approach-retreat\",\"135\",\"1247450\",\"0.0-135.0\",\"\",\"\",\"3-5\",\"4939\",\"37\",\"1\",\"Training\",\"Stims/Figures/94-J-0-2.bmp\",\"zahaza\",\"Left\",\"37\",\"9\",\"4\",\"6B\",\"C2\",\"C\",\"132\"
\"\",\"\",\"approach-retreat\",\"136\",\"1254111\",\"0.0-136.0\",\"\",\"\",\"3-5\",\"5149\",\"38\",\"1\",\"Training\",\"Stims/Figures/84-J-0-2.bmp\",\"sa:ha:ha\",\"Up\",\"38\",\"9\",\"5\",\"6B\",\"C2\",\"C\",\"133\"
\"\",\"\",\"approach-retreat\",\"137\",\"1260681\",\"0.0-137.0\",\"\",\"\",\"3-5\",\"5057\",\"38\",\"1\",\"Training\",\"Stims/Figures/86-C-30-1.bmp\",\"vasha:sha\",\"Down\",\"38\",\"9\",\"6\",\"6B\",\"C1\",\"C\",\"134\"
\"\",\"\",\"approach-retreat\",\"138\",\"1266863\",\"0.0-138.0\",\"\",\"\",\"3-5\",\"4670\",\"38\",\"1\",\"Training\",\"Stims/Figures/86-J-0-1.bmp\",\"sa:sa:ha\",\"Up\",\"38\",\"9\",\"7\",\"6B\",\"C2\",\"C\",\"135\"
\"\",\"\",\"approach-retreat\",\"139\",\"1274164\",\"0.0-139.0\",\"\",\"\",\"3-5\",\"5792\",\"40\",\"1\",\"Training\",\"Stims/Figures/71-J-0-1.bmp\",\"sa:haza\",\"Down\",\"40\",\"9\",\"8\",\"6B\",\"C2\",\"C\",\"136\"
\"\",\"\",\"approach-retreat\",\"140\",\"1280486\",\"0.0-140.0\",\"\",\"\",\"3-5\",\"4811\",\"39\",\"1\",\"Training\",\"Stims/Figures/128-J-10-3.bmp\",\"za:saza\",\"Right\",\"39\",\"9\",\"9\",\"6B\",\"C2\",\"C\",\"137\"
\"\",\"\",\"approach-retreat\",\"141\",\"1286795\",\"0.0-141.0\",\"\",\"\",\"3-5\",\"4796\",\"37\",\"1\",\"Training\",\"Stims/Figures/100-C-30-3.bmp\",\"fa:fa:sha\",\"Right\",\"37\",\"9\",\"10\",\"6B\",\"C1\",\"C\",\"138\"
\"\",\"\",\"approach-retreat\",\"142\",\"1293229\",\"0.0-142.0\",\"\",\"\",\"3-5\",\"4921\",\"38\",\"1\",\"Training\",\"Stims/Figures/74-J-10-4.bmp\",\"zasaza\",\"Up\",\"38\",\"9\",\"11\",\"6B\",\"C2\",\"C\",\"139\"
\"\",\"\",\"approach-retreat\",\"143\",\"1299529\",\"0.0-143.0\",\"\",\"\",\"3-5\",\"4790\",\"37\",\"1\",\"Training\",\"Stims/Figures/74-C-20-4.bmp\",\"va:fasha\",\"Right\",\"37\",\"9\",\"12\",\"6B\",\"C1\",\"C\",\"140\"
\"\",\"\",\"approach-retreat\",\"144\",\"1306241\",\"0.0-144.0\",\"\",\"\",\"3-5\",\"5199\",\"38\",\"1\",\"Training\",\"Stims/Figures/84-C-20-2.bmp\",\"vafa:va\",\"Down\",\"38\",\"9\",\"13\",\"6B\",\"C1\",\"C\",\"141\"
\"\",\"\",\"approach-retreat\",\"145\",\"1312529\",\"0.0-145.0\",\"\",\"\",\"3-5\",\"4778\",\"40\",\"1\",\"Training\",\"Stims/Figures/71-C-30-1.bmp\",\"va:fava\",\"Up\",\"40\",\"9\",\"14\",\"6B\",\"C1\",\"C\",\"142\"
\"\",\"\",\"approach-retreat\",\"146\",\"1319521\",\"0.0-146.0\",\"\",\"\",\"3-5\",\"5480\",\"40\",\"1\",\"Training\",\"Stims/Figures/100-J-10-3.bmp\",\"za:ha:ha\",\"Down\",\"40\",\"9\",\"15\",\"6B\",\"C2\",\"C\",\"143\"
\"\",\"\",\"approach-retreat\",\"147\",\"1326372\",\"0.0-147.0\",\"\",\"\",\"3-5\",\"5339\",\"39\",\"1\",\"Training\",\"Stims/Figures/128-C-30-3.bmp\",\"fa:fava\",\"Left\",\"39\",\"9\",\"16\",\"6B\",\"C1\",\"C\",\"144\"
\"73426\",\"\",\"instructions\",\"148\",\"1399798\",\"0.0-148.0\",\"[{\"\"page_index\"\":0,\"\"viewing_time\"\":73424}]\",\"\",\"\",\"\",\"\",\"\",\"\",\"\",\"\",\"\",\"\",\"\",\"\",\"\",\"\",\"\",\"\"
\"\",\"\",\"approach-retreat\",\"149\",\"1408249\",\"0.0-149.0\",\"\",\"\",\"3-5\",\"6943\",\"39\",\"1\",\"Testing\",\"Stims/Figures/100-C-30-3.bmp\",\"fa:fa:sha\",\"Left\",\"39\",\"1\",\"1\",\"6B\",\"C1\",\"C\",\"1\"
\"\",\"\",\"approach-retreat\",\"150\",\"1420219\",\"0.0-150.0\",\"\",\"\",\"3-5\",\"10461\",\"38\",\"1\",\"Testing\",\"Stims/Figures/139-C-20-2.bmp\",\"vafava\",\"Down\",\"38\",\"1\",\"2\",\"6B\",\"C1\",\"C\",\"2\"
\"\",\"\",\"approach-retreat\",\"151\",\"1436528\",\"0.0-151.0\",\"\",\"\",\"3-5\",\"14799\",\"39\",\"1\",\"Testing\",\"Stims/Figures/71-J-0-1.bmp\",\"sa:haza\",\"Right\",\"39\",\"1\",\"3\",\"6B\",\"C2\",\"C\",\"3\"
\"\",\"\",\"approach-retreat\",\"152\",\"1443548\",\"0.0-152.0\",\"\",\"\",\"3-5\",\"5511\",\"40\",\"0\",\"Testing\",\"Stims/Figures/84-J-0-2.bmp\",\"sa:ha:ha\",\"Up\",\"38\",\"1\",\"4\",\"6B\",\"C2\",\"C\",\"4\"
\"\",\"\",\"approach-retreat\",\"153\",\"1451793\",\"0.0-153.0\",\"\",\"\",\"3-5\",\"6737\",\"39\",\"0\",\"Testing\",\"Stims/Figures/94-J-0-2.bmp\",\"zahaza\",\"Left\",\"37\",\"1\",\"5\",\"6B\",\"C2\",\"C\",\"5\"
\"\",\"\",\"approach-retreat\",\"154\",\"1458243\",\"0.0-154.0\",\"\",\"\",\"3-5\",\"4941\",\"39\",\"0\",\"Testing\",\"Stims/Figures/94-C-20-2.bmp\",\"va:sha:sha\",\"Right\",\"37\",\"1\",\"6\",\"6B\",\"C1\",\"C\",\"6\"
\"\",\"\",\"approach-retreat\",\"155\",\"1464275\",\"0.0-155.0\",\"\",\"\",\"3-5\",\"4523\",\"38\",\"0\",\"Testing\",\"Stims/Figures/86-C-30-1.bmp\",\"vasha:sha\",\"Up\",\"40\",\"1\",\"7\",\"6B\",\"C1\",\"C\",\"7\"
\"\",\"\",\"approach-retreat\",\"156\",\"1470034\",\"0.0-156.0\",\"\",\"\",\"3-5\",\"4250\",\"39\",\"1\",\"Testing\",\"Stims/Figures/144-J-10-3.bmp\",\"sahaha\",\"Right\",\"39\",\"1\",\"8\",\"6B\",\"C2\",\"C\",\"8\"
\"\",\"\",\"approach-retreat\",\"157\",\"1477166\",\"0.0-157.0\",\"\",\"\",\"3-5\",\"5622\",\"37\",\"1\",\"Testing\",\"Stims/Figures/100-J-10-3.bmp\",\"za:ha:ha\",\"Left\",\"37\",\"1\",\"9\",\"6B\",\"C2\",\"C\",\"9\"
\"\",\"\",\"approach-retreat\",\"158\",\"1489427\",\"0.0-158.0\",\"\",\"\",\"3-5\",\"10753\",\"37\",\"1\",\"Testing\",\"Stims/Figures/74-J-10-4.bmp\",\"zasaza\",\"Left\",\"37\",\"1\",\"10\",\"6B\",\"C2\",\"C\",\"10\"
\"\",\"\",\"approach-retreat\",\"159\",\"1495557\",\"0.0-159.0\",\"\",\"\",\"3-5\",\"4620\",\"38\",\"0\",\"Testing\",\"Stims/Figures/71-C-30-1.bmp\",\"va:fava\",\"Up\",\"40\",\"1\",\"11\",\"6B\",\"C1\",\"C\",\"11\"
\"\",\"\",\"approach-retreat\",\"160\",\"1504603\",\"0.0-160.0\",\"\",\"\",\"3-5\",\"7537\",\"38\",\"1\",\"Testing\",\"Stims/Figures/19-C-20-4.bmp\",\"fasha:va\",\"Down\",\"38\",\"1\",\"12\",\"6B\",\"C1\",\"C\",\"12\"
\"\",\"\",\"approach-retreat\",\"161\",\"1511734\",\"0.0-161.0\",\"\",\"\",\"3-5\",\"5620\",\"40\",\"0\",\"Testing\",\"Stims/Figures/128-C-30-3.bmp\",\"fa:fava\",\"Down\",\"38\",\"1\",\"13\",\"6B\",\"C1\",\"C\",\"13\"
\"\",\"\",\"approach-retreat\",\"162\",\"1519408\",\"0.0-162.0\",\"\",\"\",\"3-5\",\"6165\",\"38\",\"0\",\"Testing\",\"Stims/Figures/102-J-10-4.bmp\",\"zaha:za\",\"Down\",\"40\",\"1\",\"14\",\"6B\",\"C2\",\"C\",\"14\"
\"\",\"\",\"approach-retreat\",\"163\",\"1528272\",\"0.0-163.0\",\"\",\"\",\"3-5\",\"7356\",\"39\",\"0\",\"Testing\",\"Stims/Figures/144-C-30-3.bmp\",\"va:shasha\",\"Right\",\"37\",\"1\",\"15\",\"6B\",\"C1\",\"C\",\"15\"
\"\",\"\",\"approach-retreat\",\"164\",\"1534113\",\"0.0-164.0\",\"\",\"\",\"3-5\",\"4332\",\"40\",\"0\",\"Testing\",\"Stims/Figures/19-J-10-4.bmp\",\"za:haha\",\"Up\",\"38\",\"1\",\"16\",\"6B\",\"C2\",\"C\",\"16\"
\"\",\"\",\"approach-retreat\",\"165\",\"1540421\",\"0.0-165.0\",\"\",\"\",\"3-5\",\"4799\",\"40\",\"0\",\"Testing\",\"Stims/Figures/139-J-0-2.bmp\",\"za:haza\",\"Up\",\"38\",\"1\",\"17\",\"6B\",\"C2\",\"C\",\"17\"
\"\",\"\",\"approach-retreat\",\"166\",\"1546113\",\"0.0-166.0\",\"\",\"\",\"3-5\",\"4182\",\"40\",\"1\",\"Testing\",\"Stims/Figures/74-C-20-4.bmp\",\"va:fasha\",\"Up\",\"40\",\"1\",\"18\",\"6B\",\"C1\",\"C\",\"18\"
\"\",\"\",\"approach-retreat\",\"167\",\"1552843\",\"0.0-167.0\",\"\",\"\",\"3-5\",\"5212\",\"37\",\"0\",\"Testing\",\"Stims/Figures/27-J-0-1.bmp\",\"sasaza\",\"Right\",\"39\",\"1\",\"19\",\"6B\",\"C2\",\"C\",\"19\"
\"\",\"\",\"approach-retreat\",\"168\",\"1560016\",\"0.0-168.0\",\"\",\"\",\"3-5\",\"5665\",\"40\",\"0\",\"Testing\",\"Stims/Figures/27-C-30-1.bmp\",\"fa:fa:va\",\"Down\",\"38\",\"1\",\"20\",\"6B\",\"C1\",\"C\",\"20\"
\"\",\"\",\"approach-retreat\",\"169\",\"1569491\",\"0.0-169.0\",\"\",\"\",\"3-5\",\"7966\",\"37\",\"1\",\"Testing\",\"Stims/Figures/84-C-20-2.bmp\",\"vafa:va\",\"Right\",\"37\",\"1\",\"21\",\"6B\",\"C1\",\"C\",\"21\"
\"\",\"\",\"approach-retreat\",\"170\",\"1577155\",\"0.0-170.0\",\"\",\"\",\"3-5\",\"6155\",\"39\",\"0\",\"Testing\",\"Stims/Figures/86-J-0-1.bmp\",\"sa:sa:ha\",\"Left\",\"37\",\"1\",\"22\",\"6B\",\"C2\",\"C\",\"22\"
\"\",\"\",\"approach-retreat\",\"171\",\"1583134\",\"0.0-171.0\",\"\",\"\",\"3-5\",\"4470\",\"40\",\"0\",\"Testing\",\"Stims/Figures/102-C-20-4.bmp\",\"fafasha\",\"Down\",\"38\",\"1\",\"23\",\"6B\",\"C1\",\"C\",\"23\"
\"\",\"\",\"approach-retreat\",\"172\",\"1590999\",\"0.0-172.0\",\"\",\"\",\"3-5\",\"6356\",\"39\",\"0\",\"Testing\",\"Stims/Figures/128-J-10-3.bmp\",\"za:saza\",\"Left\",\"37\",\"1\",\"24\",\"6B\",\"C2\",\"C\",\"24\"
\"\",\"\",\"approach-retreat\",\"173\",\"1597277\",\"0.0-173.0\",\"\",\"\",\"3-5\",\"4771\",\"37\",\"1\",\"Testing\",\"Stims/Figures/144-J-10-3.bmp\",\"sahaha\",\"Left\",\"37\",\"2\",\"1\",\"6B\",\"C2\",\"C\",\"25\"
\"\",\"\",\"approach-retreat\",\"174\",\"1605743\",\"0.0-174.0\",\"\",\"\",\"3-5\",\"6954\",\"37\",\"1\",\"Testing\",\"Stims/Figures/128-C-30-3.bmp\",\"fa:fava\",\"Right\",\"37\",\"2\",\"2\",\"6B\",\"C1\",\"C\",\"26\"
\"\",\"\",\"approach-retreat\",\"175\",\"1615017\",\"0.0-175.0\",\"\",\"\",\"3-5\",\"7766\",\"37\",\"1\",\"Testing\",\"Stims/Figures/86-J-0-1.bmp\",\"sa:sa:ha\",\"Left\",\"37\",\"2\",\"3\",\"6B\",\"C2\",\"C\",\"27\"
\"\",\"\",\"approach-retreat\",\"176\",\"1621970\",\"0.0-176.0\",\"\",\"\",\"3-5\",\"5444\",\"40\",\"0\",\"Testing\",\"Stims/Figures/139-J-0-2.bmp\",\"za:haza\",\"Up\",\"38\",\"2\",\"4\",\"6B\",\"C2\",\"C\",\"28\"
\"\",\"\",\"approach-retreat\",\"177\",\"1628069\",\"0.0-177.0\",\"\",\"\",\"3-5\",\"4591\",\"40\",\"1\",\"Testing\",\"Stims/Figures/139-C-20-2.bmp\",\"vafava\",\"Up\",\"40\",\"2\",\"5\",\"6B\",\"C1\",\"C\",\"29\"
\"\",\"\",\"approach-retreat\",\"178\",\"1637356\",\"0.0-178.0\",\"\",\"\",\"3-5\",\"7778\",\"38\",\"1\",\"Testing\",\"Stims/Figures/100-C-30-3.bmp\",\"fa:fa:sha\",\"Down\",\"38\",\"2\",\"6\",\"6B\",\"C1\",\"C\",\"30\"
\"\",\"\",\"approach-retreat\",\"179\",\"1644597\",\"0.0-179.0\",\"\",\"\",\"3-5\",\"5733\",\"38\",\"1\",\"Testing\",\"Stims/Figures/71-J-0-1.bmp\",\"sa:haza\",\"Up\",\"38\",\"2\",\"7\",\"6B\",\"C2\",\"C\",\"31\"
\"\",\"\",\"approach-retreat\",\"180\",\"1660715\",\"0.0-180.0\",\"\",\"\",\"3-5\",\"14608\",\"40\",\"1\",\"Testing\",\"Stims/Figures/94-J-0-2.bmp\",\"zahaza\",\"Down\",\"40\",\"2\",\"8\",\"6B\",\"C2\",\"C\",\"32\"
\"\",\"\",\"approach-retreat\",\"181\",\"1666854\",\"0.0-181.0\",\"\",\"\",\"3-5\",\"4631\",\"39\",\"1\",\"Testing\",\"Stims/Figures/86-C-30-1.bmp\",\"vasha:sha\",\"Left\",\"39\",\"2\",\"9\",\"6B\",\"C1\",\"C\",\"33\"
\"\",\"\",\"approach-retreat\",\"182\",\"1678404\",\"0.0-182.0\",\"\",\"\",\"3-5\",\"10040\",\"40\",\"1\",\"Testing\",\"Stims/Figures/19-J-10-4.bmp\",\"za:haha\",\"Down\",\"40\",\"2\",\"10\",\"6B\",\"C2\",\"C\",\"34\"
\"\",\"\",\"approach-retreat\",\"183\",\"1684694\",\"0.0-183.0\",\"\",\"\",\"3-5\",\"4781\",\"39\",\"0\",\"Testing\",\"Stims/Figures/74-J-10-4.bmp\",\"zasaza\",\"Left\",\"37\",\"2\",\"11\",\"6B\",\"C2\",\"C\",\"35\"
\"\",\"\",\"approach-retreat\",\"184\",\"1691206\",\"0.0-184.0\",\"\",\"\",\"3-5\",\"5003\",\"40\",\"1\",\"Testing\",\"Stims/Figures/27-C-30-1.bmp\",\"fa:fa:va\",\"Up\",\"40\",\"2\",\"12\",\"6B\",\"C1\",\"C\",\"36\"
\"\",\"\",\"approach-retreat\",\"185\",\"1701202\",\"0.0-185.0\",\"\",\"\",\"3-5\",\"8486\",\"37\",\"0\",\"Testing\",\"Stims/Figures/102-C-20-4.bmp\",\"fafasha\",\"Left\",\"39\",\"2\",\"13\",\"6B\",\"C1\",\"C\",\"37\"
\"\",\"\",\"approach-retreat\",\"186\",\"1707594\",\"0.0-186.0\",\"\",\"\",\"3-5\",\"4883\",\"38\",\"0\",\"Testing\",\"Stims/Figures/100-J-10-3.bmp\",\"za:ha:ha\",\"Down\",\"40\",\"2\",\"14\",\"6B\",\"C2\",\"C\",\"38\"
\"\",\"\",\"approach-retreat\",\"187\",\"1714965\",\"0.0-187.0\",\"\",\"\",\"3-5\",\"5862\",\"38\",\"1\",\"Testing\",\"Stims/Figures/19-C-20-4.bmp\",\"fasha:va\",\"Down\",\"38\",\"2\",\"15\",\"6B\",\"C1\",\"C\",\"39\"
\"\",\"\",\"approach-retreat\",\"188\",\"1721698\",\"0.0-188.0\",\"\",\"\",\"3-5\",\"5223\",\"40\",\"0\",\"Testing\",\"Stims/Figures/128-J-10-3.bmp\",\"za:saza\",\"Up\",\"38\",\"2\",\"16\",\"6B\",\"C2\",\"C\",\"40\"
\"\",\"\",\"approach-retreat\",\"189\",\"1727917\",\"0.0-189.0\",\"\",\"\",\"3-5\",\"4710\",\"37\",\"1\",\"Testing\",\"Stims/Figures/144-C-30-3.bmp\",\"va:shasha\",\"Right\",\"37\",\"2\",\"17\",\"6B\",\"C1\",\"C\",\"41\"
\"\",\"\",\"approach-retreat\",\"190\",\"1734870\",\"0.0-190.0\",\"\",\"\",\"3-5\",\"5444\",\"40\",\"1\",\"Testing\",\"Stims/Figures/102-J-10-4.bmp\",\"zaha:za\",\"Down\",\"40\",\"2\",\"18\",\"6B\",\"C2\",\"C\",\"42\"
\"\",\"\",\"approach-retreat\",\"191\",\"1740819\",\"0.0-191.0\",\"\",\"\",\"3-5\",\"4440\",\"39\",\"1\",\"Testing\",\"Stims/Figures/84-J-0-2.bmp\",\"sa:ha:ha\",\"Right\",\"39\",\"2\",\"19\",\"6B\",\"C2\",\"C\",\"43\"
\"\",\"\",\"approach-retreat\",\"192\",\"1746770\",\"0.0-192.0\",\"\",\"\",\"3-5\",\"4441\",\"37\",\"1\",\"Testing\",\"Stims/Figures/94-C-20-2.bmp\",\"va:sha:sha\",\"Right\",\"37\",\"2\",\"20\",\"6B\",\"C1\",\"C\",\"44\"
\"\",\"\",\"approach-retreat\",\"193\",\"1752278\",\"0.0-193.0\",\"\",\"\",\"3-5\",\"3999\",\"37\",\"1\",\"Testing\",\"Stims/Figures/84-C-20-2.bmp\",\"vafa:va\",\"Right\",\"37\",\"2\",\"21\",\"6B\",\"C1\",\"C\",\"45\"
\"\",\"\",\"approach-retreat\",\"194\",\"1759240\",\"0.0-194.0\",\"\",\"\",\"3-5\",\"5452\",\"39\",\"1\",\"Testing\",\"Stims/Figures/74-C-20-4.bmp\",\"va:fasha\",\"Left\",\"39\",\"2\",\"22\",\"6B\",\"C1\",\"C\",\"46\"
\"\",\"\",\"approach-retreat\",\"195\",\"1766212\",\"0.0-195.0\",\"\",\"\",\"3-5\",\"5464\",\"37\",\"1\",\"Testing\",\"Stims/Figures/71-C-30-1.bmp\",\"va:fava\",\"Right\",\"37\",\"2\",\"23\",\"6B\",\"C1\",\"C\",\"47\"
\"\",\"\",\"approach-retreat\",\"196\",\"1771973\",\"0.0-196.0\",\"\",\"\",\"3-5\",\"4252\",\"38\",\"1\",\"Testing\",\"Stims/Figures/27-J-0-1.bmp\",\"sasaza\",\"Up\",\"38\",\"2\",\"24\",\"6B\",\"C2\",\"C\",\"48\"
\"\",\"\",\"approach-retreat\",\"197\",\"1777779\",\"0.0-197.0\",\"\",\"\",\"3-5\",\"4299\",\"40\",\"1\",\"Testing\",\"Stims/Figures/139-J-0-2.bmp\",\"za:haza\",\"Down\",\"40\",\"3\",\"1\",\"6B\",\"C2\",\"C\",\"49\"
\"\",\"\",\"approach-retreat\",\"198\",\"1783602\",\"0.0-198.0\",\"\",\"\",\"3-5\",\"4314\",\"39\",\"1\",\"Testing\",\"Stims/Figures/27-J-0-1.bmp\",\"sasaza\",\"Right\",\"39\",\"3\",\"2\",\"6B\",\"C2\",\"C\",\"50\"
\"\",\"\",\"approach-retreat\",\"199\",\"1790151\",\"0.0-199.0\",\"\",\"\",\"3-5\",\"5040\",\"37\",\"1\",\"Testing\",\"Stims/Figures/74-C-20-4.bmp\",\"va:fasha\",\"Right\",\"37\",\"3\",\"3\",\"6B\",\"C1\",\"C\",\"51\"
\"\",\"\",\"approach-retreat\",\"200\",\"1797434\",\"0.0-200.0\",\"\",\"\",\"3-5\",\"5775\",\"38\",\"1\",\"Testing\",\"Stims/Figures/84-C-20-2.bmp\",\"vafa:va\",\"Down\",\"38\",\"3\",\"4\",\"6B\",\"C1\",\"C\",\"52\"
\"\",\"\",\"approach-retreat\",\"201\",\"1804386\",\"0.0-201.0\",\"\",\"\",\"3-5\",\"5442\",\"37\",\"1\",\"Testing\",\"Stims/Figures/128-C-30-3.bmp\",\"fa:fava\",\"Right\",\"37\",\"3\",\"5\",\"6B\",\"C1\",\"C\",\"53\"
\"\",\"\",\"approach-retreat\",\"202\",\"1811037\",\"0.0-202.0\",\"\",\"\",\"3-5\",\"5142\",\"38\",\"1\",\"Testing\",\"Stims/Figures/27-C-30-1.bmp\",\"fa:fa:va\",\"Down\",\"38\",\"3\",\"6\",\"6B\",\"C1\",\"C\",\"54\"
\"\",\"\",\"approach-retreat\",\"203\",\"1816727\",\"0.0-203.0\",\"\",\"\",\"3-5\",\"4182\",\"40\",\"1\",\"Testing\",\"Stims/Figures/86-J-0-1.bmp\",\"sa:sa:ha\",\"Down\",\"40\",\"3\",\"7\",\"6B\",\"C2\",\"C\",\"55\"
\"\",\"\",\"approach-retreat\",\"204\",\"1822778\",\"0.0-204.0\",\"\",\"\",\"3-5\",\"4542\",\"39\",\"1\",\"Testing\",\"Stims/Figures/71-C-30-1.bmp\",\"va:fava\",\"Left\",\"39\",\"3\",\"8\",\"6B\",\"C1\",\"C\",\"56\"
\"\",\"\",\"approach-retreat\",\"205\",\"1828917\",\"0.0-205.0\",\"\",\"\",\"3-5\",\"4632\",\"39\",\"1\",\"Testing\",\"Stims/Figures/71-J-0-1.bmp\",\"sa:haza\",\"Right\",\"39\",\"3\",\"9\",\"6B\",\"C2\",\"C\",\"57\"
\"\",\"\",\"approach-retreat\",\"206\",\"1842340\",\"0.0-206.0\",\"\",\"\",\"3-5\",\"11914\",\"40\",\"1\",\"Testing\",\"Stims/Figures/100-C-30-3.bmp\",\"fa:fa:sha\",\"Up\",\"40\",\"3\",\"10\",\"6B\",\"C1\",\"C\",\"58\"
\"\",\"\",\"approach-retreat\",\"207\",\"1848191\",\"0.0-207.0\",\"\",\"\",\"3-5\",\"4340\",\"40\",\"1\",\"Testing\",\"Stims/Figures/94-C-20-2.bmp\",\"va:sha:sha\",\"Up\",\"40\",\"3\",\"11\",\"6B\",\"C1\",\"C\",\"59\"
\"\",\"\",\"approach-retreat\",\"208\",\"1854202\",\"0.0-208.0\",\"\",\"\",\"3-5\",\"4503\",\"37\",\"1\",\"Testing\",\"Stims/Figures/94-J-0-2.bmp\",\"zahaza\",\"Left\",\"37\",\"3\",\"12\",\"6B\",\"C2\",\"C\",\"60\"
\"\",\"\",\"approach-retreat\",\"209\",\"1859889\",\"0.0-209.0\",\"\",\"\",\"3-5\",\"4178\",\"39\",\"1\",\"Testing\",\"Stims/Figures/128-J-10-3.bmp\",\"za:saza\",\"Right\",\"39\",\"3\",\"13\",\"6B\",\"C2\",\"C\",\"61\"
\"\",\"\",\"approach-retreat\",\"210\",\"1865761\",\"0.0-210.0\",\"\",\"\",\"3-5\",\"4363\",\"40\",\"1\",\"Testing\",\"Stims/Figures/86-C-30-1.bmp\",\"vasha:sha\",\"Up\",\"40\",\"3\",\"14\",\"6B\",\"C1\",\"C\",\"62\"
\"\",\"\",\"approach-retreat\",\"211\",\"1872261\",\"0.0-211.0\",\"\",\"\",\"3-5\",\"4991\",\"39\",\"1\",\"Testing\",\"Stims/Figures/144-C-30-3.bmp\",\"va:shasha\",\"Left\",\"39\",\"3\",\"15\",\"6B\",\"C1\",\"C\",\"63\"
\"\",\"\",\"approach-retreat\",\"212\",\"1878483\",\"0.0-212.0\",\"\",\"\",\"3-5\",\"4712\",\"38\",\"0\",\"Testing\",\"Stims/Figures/100-J-10-3.bmp\",\"za:ha:ha\",\"Down\",\"40\",\"3\",\"16\",\"6B\",\"C2\",\"C\",\"64\"
\"\",\"\",\"approach-retreat\",\"213\",\"1886143\",\"0.0-213.0\",\"\",\"\",\"3-5\",\"6152\",\"39\",\"1\",\"Testing\",\"Stims/Figures/19-C-20-4.bmp\",\"fasha:va\",\"Left\",\"39\",\"3\",\"17\",\"6B\",\"C1\",\"C\",\"65\"
\"\",\"\",\"approach-retreat\",\"214\",\"1891795\",\"0.0-214.0\",\"\",\"\",\"3-5\",\"4143\",\"37\",\"1\",\"Testing\",\"Stims/Figures/19-J-10-4.bmp\",\"za:haha\",\"Left\",\"37\",\"3\",\"18\",\"6B\",\"C2\",\"C\",\"66\"
\"\",\"\",\"approach-retreat\",\"215\",\"1897553\",\"0.0-215.0\",\"\",\"\",\"3-5\",\"4249\",\"38\",\"1\",\"Testing\",\"Stims/Figures/74-J-10-4.bmp\",\"zasaza\",\"Up\",\"38\",\"3\",\"19\",\"6B\",\"C2\",\"C\",\"67\"
\"\",\"\",\"approach-retreat\",\"216\",\"1903715\",\"0.0-216.0\",\"\",\"\",\"3-5\",\"4653\",\"38\",\"1\",\"Testing\",\"Stims/Figures/84-J-0-2.bmp\",\"sa:ha:ha\",\"Up\",\"38\",\"3\",\"20\",\"6B\",\"C2\",\"C\",\"68\"
\"\",\"\",\"approach-retreat\",\"217\",\"1909654\",\"0.0-217.0\",\"\",\"\",\"3-5\",\"4431\",\"40\",\"1\",\"Testing\",\"Stims/Figures/102-C-20-4.bmp\",\"fafasha\",\"Up\",\"40\",\"3\",\"21\",\"6B\",\"C1\",\"C\",\"69\"
\"\",\"\",\"approach-retreat\",\"218\",\"1915935\",\"0.0-218.0\",\"\",\"\",\"3-5\",\"4772\",\"40\",\"1\",\"Testing\",\"Stims/Figures/144-J-10-3.bmp\",\"sahaha\",\"Down\",\"40\",\"3\",\"22\",\"6B\",\"C2\",\"C\",\"70\"
\"\",\"\",\"approach-retreat\",\"219\",\"1922345\",\"0.0-219.0\",\"\",\"\",\"3-5\",\"4900\",\"37\",\"1\",\"Testing\",\"Stims/Figures/102-J-10-4.bmp\",\"zaha:za\",\"Left\",\"37\",\"3\",\"23\",\"6B\",\"C2\",\"C\",\"71\"
\"\",\"\",\"approach-retreat\",\"220\",\"1928497\",\"0.0-220.0\",\"\",\"\",\"3-5\",\"4642\",\"37\",\"1\",\"Testing\",\"Stims/Figures/139-C-20-2.bmp\",\"vafava\",\"Right\",\"37\",\"3\",\"24\",\"6B\",\"C1\",\"C\",\"72\"
\"\",\"\",\"approach-retreat\",\"221\",\"1937581\",\"0.0-221.0\",\"\",\"\",\"3-5\",\"7575\",\"38\",\"1\",\"Testing\",\"Stims/Figures/144-C-30-3.bmp\",\"va:shasha\",\"Down\",\"38\",\"4\",\"1\",\"6B\",\"C1\",\"C\",\"73\"
\"\",\"\",\"approach-retreat\",\"222\",\"1944302\",\"0.0-222.0\",\"\",\"\",\"3-5\",\"5212\",\"40\",\"0\",\"Testing\",\"Stims/Figures/144-J-10-3.bmp\",\"sahaha\",\"Up\",\"38\",\"4\",\"2\",\"6B\",\"C2\",\"C\",\"74\"
\"\",\"\",\"approach-retreat\",\"223\",\"1950653\",\"0.0-223.0\",\"\",\"\",\"3-5\",\"4840\",\"40\",\"1\",\"Testing\",\"Stims/Figures/84-J-0-2.bmp\",\"sa:ha:ha\",\"Down\",\"40\",\"4\",\"3\",\"6B\",\"C2\",\"C\",\"75\"
\"\",\"\",\"approach-retreat\",\"224\",\"1958426\",\"0.0-224.0\",\"\",\"\",\"3-5\",\"6266\",\"37\",\"1\",\"Testing\",\"Stims/Figures/100-C-30-3.bmp\",\"fa:fa:sha\",\"Right\",\"37\",\"4\",\"4\",\"6B\",\"C1\",\"C\",\"76\"
\"\",\"\",\"approach-retreat\",\"225\",\"1964575\",\"0.0-225.0\",\"\",\"\",\"3-5\",\"4640\",\"38\",\"1\",\"Testing\",\"Stims/Figures/102-C-20-4.bmp\",\"fafasha\",\"Down\",\"38\",\"4\",\"5\",\"6B\",\"C1\",\"C\",\"77\"
\"\",\"\",\"approach-retreat\",\"226\",\"1970616\",\"0.0-226.0\",\"\",\"\",\"3-5\",\"4532\",\"39\",\"1\",\"Testing\",\"Stims/Figures/74-C-20-4.bmp\",\"va:fasha\",\"Left\",\"39\",\"4\",\"6\",\"6B\",\"C1\",\"C\",\"78\"
\"\",\"\",\"approach-retreat\",\"227\",\"1977228\",\"0.0-227.0\",\"\",\"\",\"3-5\",\"5103\",\"37\",\"1\",\"Testing\",\"Stims/Figures/27-C-30-1.bmp\",\"fa:fa:va\",\"Right\",\"37\",\"4\",\"7\",\"6B\",\"C1\",\"C\",\"79\"
\"\",\"\",\"approach-retreat\",\"228\",\"1985373\",\"0.0-228.0\",\"\",\"\",\"3-5\",\"6635\",\"38\",\"0\",\"Testing\",\"Stims/Figures/128-J-10-3.bmp\",\"za:saza\",\"Down\",\"40\",\"4\",\"8\",\"6B\",\"C2\",\"C\",\"80\"
\"\",\"\",\"approach-retreat\",\"229\",\"1991071\",\"0.0-229.0\",\"\",\"\",\"3-5\",\"4190\",\"39\",\"0\",\"Testing\",\"Stims/Figures/19-J-10-4.bmp\",\"za:haha\",\"Left\",\"37\",\"4\",\"9\",\"6B\",\"C2\",\"C\",\"81\"
\"\",\"\",\"approach-retreat\",\"230\",\"1997122\",\"0.0-230.0\",\"\",\"\",\"3-5\",\"4542\",\"40\",\"1\",\"Testing\",\"Stims/Figures/139-C-20-2.bmp\",\"vafava\",\"Up\",\"40\",\"4\",\"10\",\"6B\",\"C1\",\"C\",\"82\"
\"\",\"\",\"approach-retreat\",\"231\",\"2005075\",\"0.0-231.0\",\"\",\"\",\"3-5\",\"6444\",\"39\",\"1\",\"Testing\",\"Stims/Figures/71-C-30-1.bmp\",\"va:fava\",\"Left\",\"39\",\"4\",\"11\",\"6B\",\"C1\",\"C\",\"83\"
\"\",\"\",\"approach-retreat\",\"232\",\"2011005\",\"0.0-232.0\",\"\",\"\",\"3-5\",\"4421\",\"39\",\"1\",\"Testing\",\"Stims/Figures/86-J-0-1.bmp\",\"sa:sa:ha\",\"Right\",\"39\",\"4\",\"12\",\"6B\",\"C2\",\"C\",\"84\"
\"\",\"\",\"approach-retreat\",\"233\",\"2018205\",\"0.0-233.0\",\"\",\"\",\"3-5\",\"5692\",\"40\",\"1\",\"Testing\",\"Stims/Figures/19-C-20-4.bmp\",\"fasha:va\",\"Up\",\"40\",\"4\",\"13\",\"6B\",\"C1\",\"C\",\"85\"
\"\",\"\",\"approach-retreat\",\"234\",\"2024517\",\"0.0-234.0\",\"\",\"\",\"3-5\",\"4801\",\"37\",\"1\",\"Testing\",\"Stims/Figures/94-J-0-2.bmp\",\"zahaza\",\"Left\",\"37\",\"4\",\"14\",\"6B\",\"C2\",\"C\",\"86\"
\"\",\"\",\"approach-retreat\",\"235\",\"2030626\",\"0.0-235.0\",\"\",\"\",\"3-5\",\"4602\",\"37\",\"1\",\"Testing\",\"Stims/Figures/71-J-0-1.bmp\",\"sa:haza\",\"Left\",\"37\",\"4\",\"15\",\"6B\",\"C2\",\"C\",\"87\"
\"\",\"\",\"approach-retreat\",\"236\",\"2038902\",\"0.0-236.0\",\"\",\"\",\"3-5\",\"6767\",\"37\",\"0\",\"Testing\",\"Stims/Figures/74-J-10-4.bmp\",\"zasaza\",\"Right\",\"39\",\"4\",\"16\",\"6B\",\"C2\",\"C\",\"88\"
\"\",\"\",\"approach-retreat\",\"237\",\"2045072\",\"0.0-237.0\",\"\",\"\",\"3-5\",\"4661\",\"40\",\"0\",\"Testing\",\"Stims/Figures/102-J-10-4.bmp\",\"zaha:za\",\"Up\",\"38\",\"4\",\"17\",\"6B\",\"C2\",\"C\",\"89\"
\"\",\"\",\"approach-retreat\",\"238\",\"2051092\",\"0.0-238.0\",\"\",\"\",\"3-5\",\"4512\",\"40\",\"1\",\"Testing\",\"Stims/Figures/128-C-30-3.bmp\",\"fa:fava\",\"Up\",\"40\",\"4\",\"18\",\"6B\",\"C1\",\"C\",\"90\"
\"\",\"\",\"approach-retreat\",\"239\",\"2057542\",\"0.0-239.0\",\"\",\"\",\"3-5\",\"4941\",\"39\",\"1\",\"Testing\",\"Stims/Figures/86-C-30-1.bmp\",\"vasha:sha\",\"Left\",\"39\",\"4\",\"19\",\"6B\",\"C1\",\"C\",\"91\"
\"\",\"\",\"approach-retreat\",\"240\",\"2064584\",\"0.0-240.0\",\"\",\"\",\"3-5\",\"5533\",\"39\",\"1\",\"Testing\",\"Stims/Figures/27-J-0-1.bmp\",\"sasaza\",\"Right\",\"39\",\"4\",\"20\",\"6B\",\"C2\",\"C\",\"92\"
\"\",\"\",\"approach-retreat\",\"241\",\"2071827\",\"0.0-241.0\",\"\",\"\",\"3-5\",\"5733\",\"40\",\"0\",\"Testing\",\"Stims/Figures/100-J-10-3.bmp\",\"za:ha:ha\",\"Up\",\"38\",\"4\",\"21\",\"6B\",\"C2\",\"C\",\"93\"
\"\",\"\",\"approach-retreat\",\"242\",\"2078959\",\"0.0-242.0\",\"\",\"\",\"3-5\",\"5624\",\"38\",\"1\",\"Testing\",\"Stims/Figures/94-C-20-2.bmp\",\"va:sha:sha\",\"Down\",\"38\",\"4\",\"22\",\"6B\",\"C1\",\"C\",\"94\"
\"\",\"\",\"approach-retreat\",\"243\",\"2085549\",\"0.0-243.0\",\"\",\"\",\"3-5\",\"5081\",\"39\",\"1\",\"Testing\",\"Stims/Figures/139-J-0-2.bmp\",\"za:haza\",\"Right\",\"39\",\"4\",\"23\",\"6B\",\"C2\",\"C\",\"95\"
\"\",\"\",\"approach-retreat\",\"244\",\"2091700\",\"0.0-244.0\",\"\",\"\",\"3-5\",\"4641\",\"38\",\"1\",\"Testing\",\"Stims/Figures/84-C-20-2.bmp\",\"vafa:va\",\"Down\",\"38\",\"4\",\"24\",\"6B\",\"C1\",\"C\",\"96\"
\"72970\",\"\",\"survey-text\",\"245\",\"2164680\",\"0.0-245.0\",\"\",\"{\"\"Q0\"\":\"\"1418/17\"\"}\",\"\",\"\",\"\",\"\",\"\",\"\",\"\",\"\",\"\",\"\",\"\",\"\",\"\",\"\",\"\"
