\"rt\",\"key_press\",\"trial_type\",\"trial_index\",\"time_elapsed\",\"internal_node_id\",\"view_history\",\"responses\",\"Id\",\"Rt\",\"ResKeyCode\",\"ResCorr\",\"TrialType2\",\"Image\",\"Label\",\"Location\",\"CorrectResponse\",\"Block\",\"BlockTrial\",\"Condition\",\"LabelType\",\"Subcondition\",\"trialNum\"
\"37629\",\"32\",\"text\",\"0\",\"37638\",\"0.0-0.0-0.0\",\"\",\"\",\"\",\"\",\"\",\"\",\"\",\"\",\"\",\"\",\"\",\"\",\"\",\"\",\"\",\"\",\"\"
\"153970\",\"\",\"instructions\",\"1\",\"191610\",\"0.0-1.0\",\"[{\"\"page_index\"\":0,\"\"viewing_time\"\":153970}]\",\"\",\"\",\"\",\"\",\"\",\"\",\"\",\"\",\"\",\"\",\"\",\"\",\"\",\"\",\"\",\"\"
\"41311\",\"\",\"survey-multi-choice\",\"2\",\"232942\",\"0.0-2.0\",\"\",\"{\"\"Q0\"\":\"\"Da\"\",\"\"Q1\"\":\"\"Da\"\",\"\"Q2\"\":\"\"Da\"\",\"\"Q3\"\":\"\"Da\"\",\"\"Q4\"\":\"\"Da\"\",\"\"Q5\"\":\"\"Da\"\"}\",\"\",\"\",\"\",\"\",\"\",\"\",\"\",\"\",\"\",\"\",\"\",\"\",\"\",\"\",\"\"
\"\",\"\",\"bio\",\"3\",\"246409\",\"0.0-3.0\",\"\",\"{\"\"age\"\":\"\"21\"\",\"\"gender\"\":\"\"f\"\",\"\"specify\"\":\"\"\"\"}\",\"\",\"\",\"\",\"\",\"\",\"\",\"\",\"\",\"\",\"\",\"\",\"\",\"\",\"\",\"\"
\"\",\"\",\"approach-retreat\",\"4\",\"257069\",\"0.0-4.0\",\"\",\"\",\"1-3\",\"9146\",\"40\",\"0\",\"Training\",\"Stims/Figures/84-C-20-2.bmp\",\"tapata\",\"Up\",\"38\",\"1\",\"1\",\"7\",\"P\",\"J\",\"1\"
\"\",\"\",\"approach-retreat\",\"5\",\"265575\",\"0.0-5.0\",\"\",\"\",\"1-3\",\"6989\",\"39\",\"0\",\"Training\",\"Stims/Figures/139-C-20-2.bmp\",\"takaka\",\"Left\",\"37\",\"1\",\"2\",\"7\",\"P\",\"J\",\"2\"
\"\",\"\",\"approach-retreat\",\"6\",\"273736\",\"0.0-6.0\",\"\",\"\",\"1-3\",\"6647\",\"37\",\"1\",\"Training\",\"Stims/Figures/111-C-30-3.bmp\",\"na:ma:na\",\"Left\",\"37\",\"1\",\"3\",\"7\",\"S\",\"J\",\"3\"
\"\",\"\",\"approach-retreat\",\"7\",\"280221\",\"0.0-7.0\",\"\",\"\",\"1-3\",\"4968\",\"37\",\"1\",\"Training\",\"Stims/Figures/27-J-0-1.bmp\",\"papata\",\"Right\",\"37\",\"1\",\"4\",\"7\",\"P\",\"J\",\"4\"
\"\",\"\",\"approach-retreat\",\"8\",\"286510\",\"0.0-8.0\",\"\",\"\",\"1-3\",\"4779\",\"40\",\"0\",\"Training\",\"Stims/Figures/27-C-30-1.bmp\",\"papa:ta\",\"Up\",\"38\",\"1\",\"5\",\"7\",\"P\",\"J\",\"5\"
\"\",\"\",\"approach-retreat\",\"9\",\"292996\",\"0.0-9.0\",\"\",\"\",\"1-3\",\"4973\",\"38\",\"0\",\"Training\",\"Stims/Figures/74-C-20-4.bmp\",\"namana\",\"Down\",\"40\",\"1\",\"6\",\"7\",\"S\",\"J\",\"6\"
\"\",\"\",\"approach-retreat\",\"10\",\"299753\",\"0.0-10.0\",\"\",\"\",\"1-3\",\"5247\",\"37\",\"1\",\"Training\",\"Stims/Figures/128-J-10-3.bmp\",\"ma:ma:na\",\"Right\",\"37\",\"1\",\"7\",\"7\",\"S\",\"J\",\"7\"
\"\",\"\",\"approach-retreat\",\"11\",\"306186\",\"0.0-11.0\",\"\",\"\",\"1-3\",\"4924\",\"37\",\"0\",\"Training\",\"Stims/Figures/74-J-10-4.bmp\",\"nala:la\",\"Left\",\"39\",\"1\",\"8\",\"7\",\"S\",\"J\",\"8\"
\"\",\"\",\"approach-retreat\",\"12\",\"312595\",\"0.0-12.0\",\"\",\"\",\"1-3\",\"4895\",\"38\",\"1\",\"Training\",\"Stims/Figures/102-J-10-4.bmp\",\"malana\",\"Down\",\"38\",\"1\",\"9\",\"7\",\"S\",\"J\",\"9\"
\"\",\"\",\"approach-retreat\",\"13\",\"318918\",\"0.0-13.0\",\"\",\"\",\"1-3\",\"4809\",\"38\",\"0\",\"Training\",\"Stims/Figures/84-J-0-2.bmp\",\"ta:kata\",\"Up\",\"40\",\"1\",\"10\",\"7\",\"P\",\"J\",\"10\"
\"\",\"\",\"approach-retreat\",\"14\",\"325208\",\"0.0-14.0\",\"\",\"\",\"1-3\",\"4775\",\"38\",\"1\",\"Training\",\"Stims/Figures/111-J-10-3.bmp\",\"mamala\",\"Down\",\"38\",\"1\",\"11\",\"7\",\"S\",\"J\",\"11\"
\"\",\"\",\"approach-retreat\",\"15\",\"331536\",\"0.0-15.0\",\"\",\"\",\"1-3\",\"4816\",\"39\",\"0\",\"Training\",\"Stims/Figures/57-J-0-1.bmp\",\"pa:pa:ka\",\"Right\",\"37\",\"1\",\"12\",\"7\",\"P\",\"J\",\"12\"
\"\",\"\",\"approach-retreat\",\"16\",\"337364\",\"0.0-16.0\",\"\",\"\",\"1-3\",\"4314\",\"38\",\"0\",\"Training\",\"Stims/Figures/102-C-20-4.bmp\",\"mala:na\",\"Down\",\"40\",\"1\",\"13\",\"7\",\"S\",\"J\",\"13\"
\"\",\"\",\"approach-retreat\",\"17\",\"343974\",\"0.0-17.0\",\"\",\"\",\"1-3\",\"5095\",\"37\",\"1\",\"Training\",\"Stims/Figures/139-J-0-2.bmp\",\"ta:ka:ta\",\"Right\",\"37\",\"1\",\"14\",\"7\",\"P\",\"J\",\"14\"
\"\",\"\",\"approach-retreat\",\"18\",\"350103\",\"0.0-18.0\",\"\",\"\",\"1-3\",\"4619\",\"40\",\"0\",\"Training\",\"Stims/Figures/128-C-30-3.bmp\",\"ma:la:la\",\"Up\",\"38\",\"1\",\"15\",\"7\",\"S\",\"J\",\"15\"
\"\",\"\",\"approach-retreat\",\"19\",\"356872\",\"0.0-19.0\",\"\",\"\",\"1-3\",\"5264\",\"39\",\"0\",\"Training\",\"Stims/Figures/57-C-30-1.bmp\",\"ta:pata\",\"Left\",\"37\",\"1\",\"16\",\"7\",\"P\",\"J\",\"16\"
\"\",\"\",\"approach-retreat\",\"20\",\"363419\",\"0.0-20.0\",\"\",\"\",\"1-3\",\"5029\",\"39\",\"1\",\"Training\",\"Stims/Figures/57-C-30-1.bmp\",\"ta:pata\",\"Right\",\"39\",\"2\",\"1\",\"7\",\"P\",\"J\",\"17\"
\"\",\"\",\"approach-retreat\",\"21\",\"369696\",\"0.0-21.0\",\"\",\"\",\"1-3\",\"4764\",\"40\",\"0\",\"Training\",\"Stims/Figures/128-C-30-3.bmp\",\"ma:la:la\",\"Up\",\"38\",\"2\",\"2\",\"7\",\"S\",\"J\",\"18\"
\"\",\"\",\"approach-retreat\",\"22\",\"376556\",\"0.0-22.0\",\"\",\"\",\"1-3\",\"5351\",\"37\",\"1\",\"Training\",\"Stims/Figures/111-J-10-3.bmp\",\"mamala\",\"Right\",\"37\",\"2\",\"3\",\"7\",\"S\",\"J\",\"19\"
\"\",\"\",\"approach-retreat\",\"23\",\"382782\",\"0.0-23.0\",\"\",\"\",\"1-3\",\"4712\",\"40\",\"1\",\"Training\",\"Stims/Figures/74-C-20-4.bmp\",\"namana\",\"Down\",\"40\",\"2\",\"4\",\"7\",\"S\",\"J\",\"20\"
\"\",\"\",\"approach-retreat\",\"24\",\"389819\",\"0.0-24.0\",\"\",\"\",\"1-3\",\"5528\",\"40\",\"0\",\"Training\",\"Stims/Figures/74-J-10-4.bmp\",\"nala:la\",\"Down\",\"38\",\"2\",\"5\",\"7\",\"S\",\"J\",\"21\"
\"\",\"\",\"approach-retreat\",\"25\",\"396072\",\"0.0-25.0\",\"\",\"\",\"1-3\",\"4748\",\"37\",\"1\",\"Training\",\"Stims/Figures/57-J-0-1.bmp\",\"pa:pa:ka\",\"Right\",\"37\",\"2\",\"6\",\"7\",\"P\",\"J\",\"22\"
\"\",\"\",\"approach-retreat\",\"26\",\"402442\",\"0.0-26.0\",\"\",\"\",\"1-3\",\"4855\",\"38\",\"0\",\"Training\",\"Stims/Figures/102-J-10-4.bmp\",\"malana\",\"Up\",\"40\",\"2\",\"7\",\"7\",\"S\",\"J\",\"23\"
\"\",\"\",\"approach-retreat\",\"27\",\"408467\",\"0.0-27.0\",\"\",\"\",\"1-3\",\"4511\",\"40\",\"1\",\"Training\",\"Stims/Figures/139-C-20-2.bmp\",\"takaka\",\"Down\",\"40\",\"2\",\"8\",\"7\",\"P\",\"J\",\"24\"
\"\",\"\",\"approach-retreat\",\"28\",\"414923\",\"0.0-28.0\",\"\",\"\",\"1-3\",\"4951\",\"37\",\"1\",\"Training\",\"Stims/Figures/102-C-20-4.bmp\",\"mala:na\",\"Left\",\"37\",\"2\",\"9\",\"7\",\"S\",\"J\",\"25\"
\"\",\"\",\"approach-retreat\",\"29\",\"420949\",\"0.0-29.0\",\"\",\"\",\"1-3\",\"4517\",\"38\",\"0\",\"Training\",\"Stims/Figures/84-J-0-2.bmp\",\"ta:kata\",\"Up\",\"40\",\"2\",\"10\",\"7\",\"P\",\"J\",\"26\"
\"\",\"\",\"approach-retreat\",\"30\",\"427023\",\"0.0-30.0\",\"\",\"\",\"1-3\",\"4569\",\"37\",\"1\",\"Training\",\"Stims/Figures/111-C-30-3.bmp\",\"na:ma:na\",\"Left\",\"37\",\"2\",\"11\",\"7\",\"S\",\"J\",\"27\"
\"\",\"\",\"approach-retreat\",\"31\",\"433397\",\"0.0-31.0\",\"\",\"\",\"1-3\",\"4864\",\"37\",\"1\",\"Training\",\"Stims/Figures/139-J-0-2.bmp\",\"ta:ka:ta\",\"Right\",\"37\",\"2\",\"12\",\"7\",\"P\",\"J\",\"28\"
\"\",\"\",\"approach-retreat\",\"32\",\"440827\",\"0.0-32.0\",\"\",\"\",\"1-3\",\"5915\",\"39\",\"0\",\"Training\",\"Stims/Figures/27-C-30-1.bmp\",\"papa:ta\",\"Left\",\"37\",\"2\",\"13\",\"7\",\"P\",\"J\",\"29\"
\"\",\"\",\"approach-retreat\",\"33\",\"447705\",\"0.0-33.0\",\"\",\"\",\"1-3\",\"5360\",\"40\",\"1\",\"Training\",\"Stims/Figures/84-C-20-2.bmp\",\"tapata\",\"Down\",\"40\",\"2\",\"14\",\"7\",\"P\",\"J\",\"30\"
\"\",\"\",\"approach-retreat\",\"34\",\"454612\",\"0.0-34.0\",\"\",\"\",\"1-3\",\"5395\",\"37\",\"0\",\"Training\",\"Stims/Figures/128-J-10-3.bmp\",\"ma:ma:na\",\"Left\",\"39\",\"2\",\"15\",\"7\",\"S\",\"J\",\"31\"
\"\",\"\",\"approach-retreat\",\"35\",\"460584\",\"0.0-35.0\",\"\",\"\",\"1-3\",\"4461\",\"38\",\"0\",\"Training\",\"Stims/Figures/27-J-0-1.bmp\",\"papata\",\"Up\",\"40\",\"2\",\"16\",\"7\",\"P\",\"J\",\"32\"
\"\",\"\",\"approach-retreat\",\"36\",\"466940\",\"0.0-36.0\",\"\",\"\",\"1-3\",\"4844\",\"37\",\"1\",\"Training\",\"Stims/Figures/27-J-0-1.bmp\",\"papata\",\"Right\",\"37\",\"3\",\"1\",\"7\",\"P\",\"J\",\"33\"
\"\",\"\",\"approach-retreat\",\"37\",\"473505\",\"0.0-37.0\",\"\",\"\",\"1-3\",\"5054\",\"37\",\"0\",\"Training\",\"Stims/Figures/57-C-30-1.bmp\",\"ta:pata\",\"Right\",\"39\",\"3\",\"2\",\"7\",\"P\",\"J\",\"34\"
\"\",\"\",\"approach-retreat\",\"38\",\"479680\",\"0.0-38.0\",\"\",\"\",\"1-3\",\"4663\",\"37\",\"1\",\"Training\",\"Stims/Figures/111-C-30-3.bmp\",\"na:ma:na\",\"Left\",\"37\",\"3\",\"3\",\"7\",\"S\",\"J\",\"35\"
\"\",\"\",\"approach-retreat\",\"39\",\"485871\",\"0.0-39.0\",\"\",\"\",\"1-3\",\"4679\",\"40\",\"1\",\"Training\",\"Stims/Figures/139-J-0-2.bmp\",\"ta:ka:ta\",\"Up\",\"40\",\"3\",\"4\",\"7\",\"P\",\"J\",\"36\"
\"\",\"\",\"approach-retreat\",\"40\",\"491940\",\"0.0-40.0\",\"\",\"\",\"1-3\",\"4559\",\"39\",\"1\",\"Training\",\"Stims/Figures/27-C-30-1.bmp\",\"papa:ta\",\"Right\",\"39\",\"3\",\"5\",\"7\",\"P\",\"J\",\"37\"
\"\",\"\",\"approach-retreat\",\"41\",\"497709\",\"0.0-41.0\",\"\",\"\",\"1-3\",\"4256\",\"40\",\"1\",\"Training\",\"Stims/Figures/111-J-10-3.bmp\",\"mamala\",\"Up\",\"40\",\"3\",\"6\",\"7\",\"S\",\"J\",\"38\"
\"\",\"\",\"approach-retreat\",\"42\",\"505203\",\"0.0-42.0\",\"\",\"\",\"1-3\",\"5981\",\"38\",\"0\",\"Training\",\"Stims/Figures/74-J-10-4.bmp\",\"nala:la\",\"Up\",\"40\",\"3\",\"7\",\"7\",\"S\",\"J\",\"39\"
\"\",\"\",\"approach-retreat\",\"43\",\"512084\",\"0.0-43.0\",\"\",\"\",\"1-3\",\"5365\",\"39\",\"1\",\"Training\",\"Stims/Figures/57-J-0-1.bmp\",\"pa:pa:ka\",\"Left\",\"39\",\"3\",\"8\",\"7\",\"P\",\"J\",\"40\"
\"\",\"\",\"approach-retreat\",\"44\",\"517978\",\"0.0-44.0\",\"\",\"\",\"1-3\",\"4384\",\"38\",\"1\",\"Training\",\"Stims/Figures/84-J-0-2.bmp\",\"ta:kata\",\"Down\",\"38\",\"3\",\"9\",\"7\",\"P\",\"J\",\"41\"
\"\",\"\",\"approach-retreat\",\"45\",\"525374\",\"0.0-45.0\",\"\",\"\",\"1-3\",\"5885\",\"40\",\"0\",\"Training\",\"Stims/Figures/128-J-10-3.bmp\",\"ma:ma:na\",\"Down\",\"38\",\"3\",\"10\",\"7\",\"S\",\"J\",\"42\"
\"\",\"\",\"approach-retreat\",\"46\",\"531357\",\"0.0-46.0\",\"\",\"\",\"1-3\",\"4475\",\"39\",\"1\",\"Training\",\"Stims/Figures/102-J-10-4.bmp\",\"malana\",\"Left\",\"39\",\"3\",\"11\",\"7\",\"S\",\"J\",\"43\"
\"\",\"\",\"approach-retreat\",\"47\",\"538459\",\"0.0-47.0\",\"\",\"\",\"1-3\",\"5590\",\"40\",\"1\",\"Training\",\"Stims/Figures/139-C-20-2.bmp\",\"takaka\",\"Down\",\"40\",\"3\",\"12\",\"7\",\"P\",\"J\",\"44\"
\"\",\"\",\"approach-retreat\",\"48\",\"544540\",\"0.0-48.0\",\"\",\"\",\"1-3\",\"4563\",\"37\",\"1\",\"Training\",\"Stims/Figures/84-C-20-2.bmp\",\"tapata\",\"Left\",\"37\",\"3\",\"13\",\"7\",\"P\",\"J\",\"45\"
\"\",\"\",\"approach-retreat\",\"49\",\"550768\",\"0.0-49.0\",\"\",\"\",\"1-3\",\"4713\",\"38\",\"0\",\"Training\",\"Stims/Figures/74-C-20-4.bmp\",\"namana\",\"Down\",\"40\",\"3\",\"14\",\"7\",\"S\",\"J\",\"46\"
\"\",\"\",\"approach-retreat\",\"50\",\"556828\",\"0.0-50.0\",\"\",\"\",\"1-3\",\"4546\",\"40\",\"0\",\"Training\",\"Stims/Figures/128-C-30-3.bmp\",\"ma:la:la\",\"Up\",\"38\",\"3\",\"15\",\"7\",\"S\",\"J\",\"47\"
\"\",\"\",\"approach-retreat\",\"51\",\"563111\",\"0.0-51.0\",\"\",\"\",\"1-3\",\"4770\",\"37\",\"0\",\"Training\",\"Stims/Figures/102-C-20-4.bmp\",\"mala:na\",\"Right\",\"39\",\"3\",\"16\",\"7\",\"S\",\"J\",\"48\"
\"\",\"\",\"approach-retreat\",\"52\",\"569205\",\"0.0-52.0\",\"\",\"\",\"1-3\",\"4584\",\"37\",\"1\",\"Training\",\"Stims/Figures/27-J-0-1.bmp\",\"papata\",\"Right\",\"37\",\"4\",\"1\",\"7\",\"P\",\"J\",\"49\"
\"\",\"\",\"approach-retreat\",\"53\",\"574950\",\"0.0-53.0\",\"\",\"\",\"1-3\",\"4234\",\"37\",\"1\",\"Training\",\"Stims/Figures/57-C-30-1.bmp\",\"ta:pata\",\"Left\",\"37\",\"4\",\"2\",\"7\",\"P\",\"J\",\"50\"
\"\",\"\",\"approach-retreat\",\"54\",\"581178\",\"0.0-54.0\",\"\",\"\",\"1-3\",\"4717\",\"39\",\"1\",\"Training\",\"Stims/Figures/139-J-0-2.bmp\",\"ta:ka:ta\",\"Left\",\"39\",\"4\",\"3\",\"7\",\"P\",\"J\",\"51\"
\"\",\"\",\"approach-retreat\",\"55\",\"587288\",\"0.0-55.0\",\"\",\"\",\"1-3\",\"4599\",\"40\",\"0\",\"Training\",\"Stims/Figures/111-C-30-3.bmp\",\"na:ma:na\",\"Up\",\"38\",\"4\",\"4\",\"7\",\"S\",\"J\",\"52\"
\"\",\"\",\"approach-retreat\",\"56\",\"593510\",\"0.0-56.0\",\"\",\"\",\"1-3\",\"4716\",\"38\",\"0\",\"Training\",\"Stims/Figures/27-C-30-1.bmp\",\"papa:ta\",\"Down\",\"40\",\"4\",\"5\",\"7\",\"P\",\"J\",\"53\"
\"\",\"\",\"approach-retreat\",\"57\",\"599801\",\"0.0-57.0\",\"\",\"\",\"1-3\",\"4787\",\"38\",\"1\",\"Training\",\"Stims/Figures/111-J-10-3.bmp\",\"mamala\",\"Down\",\"38\",\"4\",\"6\",\"7\",\"S\",\"J\",\"54\"
\"\",\"\",\"approach-retreat\",\"58\",\"605611\",\"0.0-58.0\",\"\",\"\",\"1-3\",\"4305\",\"39\",\"1\",\"Training\",\"Stims/Figures/84-C-20-2.bmp\",\"tapata\",\"Right\",\"39\",\"4\",\"7\",\"7\",\"P\",\"J\",\"55\"
\"\",\"\",\"approach-retreat\",\"59\",\"611757\",\"0.0-59.0\",\"\",\"\",\"1-3\",\"4641\",\"39\",\"1\",\"Training\",\"Stims/Figures/128-J-10-3.bmp\",\"ma:ma:na\",\"Left\",\"39\",\"4\",\"8\",\"7\",\"S\",\"J\",\"56\"
\"\",\"\",\"approach-retreat\",\"60\",\"617611\",\"0.0-60.0\",\"\",\"\",\"1-3\",\"4341\",\"38\",\"0\",\"Training\",\"Stims/Figures/57-J-0-1.bmp\",\"pa:pa:ka\",\"Up\",\"40\",\"4\",\"9\",\"7\",\"P\",\"J\",\"57\"
\"\",\"\",\"approach-retreat\",\"61\",\"623449\",\"0.0-61.0\",\"\",\"\",\"1-3\",\"4333\",\"39\",\"0\",\"Training\",\"Stims/Figures/128-C-30-3.bmp\",\"ma:la:la\",\"Left\",\"37\",\"4\",\"10\",\"7\",\"S\",\"J\",\"58\"
\"\",\"\",\"approach-retreat\",\"62\",\"629878\",\"0.0-62.0\",\"\",\"\",\"1-3\",\"4920\",\"40\",\"0\",\"Training\",\"Stims/Figures/74-C-20-4.bmp\",\"namana\",\"Up\",\"38\",\"4\",\"11\",\"7\",\"S\",\"J\",\"59\"
\"\",\"\",\"approach-retreat\",\"63\",\"635858\",\"0.0-63.0\",\"\",\"\",\"1-3\",\"4473\",\"38\",\"0\",\"Training\",\"Stims/Figures/102-C-20-4.bmp\",\"mala:na\",\"Down\",\"40\",\"4\",\"12\",\"7\",\"S\",\"J\",\"60\"
\"\",\"\",\"approach-retreat\",\"64\",\"642779\",\"0.0-64.0\",\"\",\"\",\"1-3\",\"5407\",\"39\",\"0\",\"Training\",\"Stims/Figures/102-J-10-4.bmp\",\"malana\",\"Right\",\"37\",\"4\",\"13\",\"7\",\"S\",\"J\",\"61\"
\"\",\"\",\"approach-retreat\",\"65\",\"648688\",\"0.0-65.0\",\"\",\"\",\"1-3\",\"4395\",\"38\",\"1\",\"Training\",\"Stims/Figures/74-J-10-4.bmp\",\"nala:la\",\"Down\",\"38\",\"4\",\"14\",\"7\",\"S\",\"J\",\"62\"
\"\",\"\",\"approach-retreat\",\"66\",\"655389\",\"0.0-66.0\",\"\",\"\",\"1-3\",\"5187\",\"38\",\"1\",\"Training\",\"Stims/Figures/139-C-20-2.bmp\",\"takaka\",\"Up\",\"38\",\"4\",\"15\",\"7\",\"P\",\"J\",\"63\"
\"\",\"\",\"approach-retreat\",\"67\",\"661541\",\"0.0-67.0\",\"\",\"\",\"1-3\",\"4640\",\"37\",\"1\",\"Training\",\"Stims/Figures/84-J-0-2.bmp\",\"ta:kata\",\"Right\",\"37\",\"4\",\"16\",\"7\",\"P\",\"J\",\"64\"
\"\",\"\",\"approach-retreat\",\"68\",\"667593\",\"0.0-68.0\",\"\",\"\",\"1-3\",\"4542\",\"39\",\"0\",\"Training\",\"Stims/Figures/57-J-0-1.bmp\",\"pa:pa:ka\",\"Right\",\"37\",\"5\",\"1\",\"7\",\"P\",\"J\",\"65\"
\"\",\"\",\"approach-retreat\",\"69\",\"673428\",\"0.0-69.0\",\"\",\"\",\"1-3\",\"4319\",\"37\",\"1\",\"Training\",\"Stims/Figures/102-J-10-4.bmp\",\"malana\",\"Right\",\"37\",\"5\",\"2\",\"7\",\"S\",\"J\",\"66\"
\"\",\"\",\"approach-retreat\",\"70\",\"679536\",\"0.0-70.0\",\"\",\"\",\"1-3\",\"4592\",\"39\",\"1\",\"Training\",\"Stims/Figures/84-J-0-2.bmp\",\"ta:kata\",\"Left\",\"39\",\"5\",\"3\",\"7\",\"P\",\"J\",\"67\"
\"\",\"\",\"approach-retreat\",\"71\",\"685550\",\"0.0-71.0\",\"\",\"\",\"1-3\",\"4498\",\"39\",\"0\",\"Training\",\"Stims/Figures/139-C-20-2.bmp\",\"takaka\",\"Left\",\"37\",\"5\",\"4\",\"7\",\"P\",\"J\",\"68\"
\"\",\"\",\"approach-retreat\",\"72\",\"691302\",\"0.0-72.0\",\"\",\"\",\"1-3\",\"4231\",\"39\",\"0\",\"Training\",\"Stims/Figures/74-C-20-4.bmp\",\"namana\",\"Left\",\"37\",\"5\",\"5\",\"7\",\"S\",\"J\",\"69\"
\"\",\"\",\"approach-retreat\",\"73\",\"697088\",\"0.0-73.0\",\"\",\"\",\"1-3\",\"4273\",\"39\",\"1\",\"Training\",\"Stims/Figures/84-C-20-2.bmp\",\"tapata\",\"Right\",\"39\",\"5\",\"6\",\"7\",\"P\",\"J\",\"70\"
\"\",\"\",\"approach-retreat\",\"74\",\"702846\",\"0.0-74.0\",\"\",\"\",\"1-3\",\"4242\",\"38\",\"1\",\"Training\",\"Stims/Figures/128-J-10-3.bmp\",\"ma:ma:na\",\"Down\",\"38\",\"5\",\"7\",\"7\",\"S\",\"J\",\"71\"
\"\",\"\",\"approach-retreat\",\"75\",\"709012\",\"0.0-75.0\",\"\",\"\",\"1-3\",\"4653\",\"40\",\"1\",\"Training\",\"Stims/Figures/111-C-30-3.bmp\",\"na:ma:na\",\"Down\",\"40\",\"5\",\"8\",\"7\",\"S\",\"J\",\"72\"
\"\",\"\",\"approach-retreat\",\"76\",\"714887\",\"0.0-76.0\",\"\",\"\",\"1-3\",\"4363\",\"38\",\"1\",\"Training\",\"Stims/Figures/57-C-30-1.bmp\",\"ta:pata\",\"Up\",\"38\",\"5\",\"9\",\"7\",\"P\",\"J\",\"73\"
\"\",\"\",\"approach-retreat\",\"77\",\"721215\",\"0.0-77.0\",\"\",\"\",\"1-3\",\"4820\",\"37\",\"1\",\"Training\",\"Stims/Figures/111-J-10-3.bmp\",\"mamala\",\"Right\",\"37\",\"5\",\"10\",\"7\",\"S\",\"J\",\"74\"
\"\",\"\",\"approach-retreat\",\"78\",\"727557\",\"0.0-78.0\",\"\",\"\",\"1-3\",\"4831\",\"40\",\"0\",\"Training\",\"Stims/Figures/102-C-20-4.bmp\",\"mala:na\",\"Up\",\"38\",\"5\",\"11\",\"7\",\"S\",\"J\",\"75\"
\"\",\"\",\"approach-retreat\",\"79\",\"734174\",\"0.0-79.0\",\"\",\"\",\"1-3\",\"5105\",\"38\",\"1\",\"Training\",\"Stims/Figures/139-J-0-2.bmp\",\"ta:ka:ta\",\"Down\",\"38\",\"5\",\"12\",\"7\",\"P\",\"J\",\"76\"
\"\",\"\",\"approach-retreat\",\"80\",\"740064\",\"0.0-80.0\",\"\",\"\",\"1-3\",\"4379\",\"40\",\"0\",\"Training\",\"Stims/Figures/128-C-30-3.bmp\",\"ma:la:la\",\"Up\",\"38\",\"5\",\"13\",\"7\",\"S\",\"J\",\"77\"
\"\",\"\",\"approach-retreat\",\"81\",\"746425\",\"0.0-81.0\",\"\",\"\",\"1-3\",\"4849\",\"38\",\"1\",\"Training\",\"Stims/Figures/27-C-30-1.bmp\",\"papa:ta\",\"Up\",\"38\",\"5\",\"14\",\"7\",\"P\",\"J\",\"78\"
\"\",\"\",\"approach-retreat\",\"82\",\"752800\",\"0.0-82.0\",\"\",\"\",\"1-3\",\"4866\",\"39\",\"1\",\"Training\",\"Stims/Figures/27-J-0-1.bmp\",\"papata\",\"Left\",\"39\",\"5\",\"15\",\"7\",\"P\",\"J\",\"79\"
\"\",\"\",\"approach-retreat\",\"83\",\"759605\",\"0.0-83.0\",\"\",\"\",\"1-3\",\"5293\",\"40\",\"0\",\"Training\",\"Stims/Figures/74-J-10-4.bmp\",\"nala:la\",\"Down\",\"38\",\"5\",\"16\",\"7\",\"S\",\"J\",\"80\"
\"\",\"\",\"approach-retreat\",\"84\",\"765436\",\"0.0-84.0\",\"\",\"\",\"1-3\",\"4317\",\"37\",\"0\",\"Training\",\"Stims/Figures/74-C-20-4.bmp\",\"namana\",\"Right\",\"39\",\"6\",\"1\",\"7\",\"S\",\"J\",\"81\"
\"\",\"\",\"approach-retreat\",\"85\",\"771448\",\"0.0-85.0\",\"\",\"\",\"1-3\",\"4498\",\"40\",\"1\",\"Training\",\"Stims/Figures/84-J-0-2.bmp\",\"ta:kata\",\"Up\",\"40\",\"6\",\"2\",\"7\",\"P\",\"J\",\"82\"
\"\",\"\",\"approach-retreat\",\"86\",\"777224\",\"0.0-86.0\",\"\",\"\",\"1-3\",\"4260\",\"39\",\"1\",\"Training\",\"Stims/Figures/74-J-10-4.bmp\",\"nala:la\",\"Left\",\"39\",\"6\",\"3\",\"7\",\"S\",\"J\",\"83\"
\"\",\"\",\"approach-retreat\",\"87\",\"783057\",\"0.0-87.0\",\"\",\"\",\"1-3\",\"4321\",\"37\",\"0\",\"Training\",\"Stims/Figures/102-C-20-4.bmp\",\"mala:na\",\"Right\",\"39\",\"6\",\"4\",\"7\",\"S\",\"J\",\"84\"
\"\",\"\",\"approach-retreat\",\"88\",\"788694\",\"0.0-88.0\",\"\",\"\",\"1-3\",\"4129\",\"37\",\"1\",\"Training\",\"Stims/Figures/27-C-30-1.bmp\",\"papa:ta\",\"Left\",\"37\",\"6\",\"5\",\"7\",\"P\",\"J\",\"85\"
\"\",\"\",\"approach-retreat\",\"89\",\"794346\",\"0.0-89.0\",\"\",\"\",\"1-3\",\"4136\",\"39\",\"0\",\"Training\",\"Stims/Figures/128-C-30-3.bmp\",\"ma:la:la\",\"Left\",\"37\",\"6\",\"6\",\"7\",\"S\",\"J\",\"86\"
\"\",\"\",\"approach-retreat\",\"90\",\"800200\",\"0.0-90.0\",\"\",\"\",\"1-3\",\"4341\",\"40\",\"1\",\"Training\",\"Stims/Figures/139-C-20-2.bmp\",\"takaka\",\"Down\",\"40\",\"6\",\"7\",\"7\",\"P\",\"J\",\"87\"
\"\",\"\",\"approach-retreat\",\"91\",\"805867\",\"0.0-91.0\",\"\",\"\",\"1-3\",\"4161\",\"37\",\"1\",\"Training\",\"Stims/Figures/128-J-10-3.bmp\",\"ma:ma:na\",\"Right\",\"37\",\"6\",\"8\",\"7\",\"S\",\"J\",\"88\"
\"\",\"\",\"approach-retreat\",\"92\",\"811834\",\"0.0-92.0\",\"\",\"\",\"1-3\",\"4460\",\"40\",\"0\",\"Training\",\"Stims/Figures/57-J-0-1.bmp\",\"pa:pa:ka\",\"Down\",\"38\",\"6\",\"9\",\"7\",\"P\",\"J\",\"89\"
\"\",\"\",\"approach-retreat\",\"93\",\"817421\",\"0.0-93.0\",\"\",\"\",\"1-3\",\"4082\",\"37\",\"1\",\"Training\",\"Stims/Figures/102-J-10-4.bmp\",\"malana\",\"Right\",\"37\",\"6\",\"10\",\"7\",\"S\",\"J\",\"90\"
\"\",\"\",\"approach-retreat\",\"94\",\"823179\",\"0.0-94.0\",\"\",\"\",\"1-3\",\"4244\",\"38\",\"1\",\"Training\",\"Stims/Figures/111-J-10-3.bmp\",\"mamala\",\"Down\",\"38\",\"6\",\"11\",\"7\",\"S\",\"J\",\"91\"
\"\",\"\",\"approach-retreat\",\"95\",\"829580\",\"0.0-95.0\",\"\",\"\",\"1-3\",\"4884\",\"40\",\"0\",\"Training\",\"Stims/Figures/111-C-30-3.bmp\",\"na:ma:na\",\"Up\",\"38\",\"6\",\"12\",\"7\",\"S\",\"J\",\"92\"
\"\",\"\",\"approach-retreat\",\"96\",\"835560\",\"0.0-96.0\",\"\",\"\",\"1-3\",\"4474\",\"40\",\"1\",\"Training\",\"Stims/Figures/139-J-0-2.bmp\",\"ta:ka:ta\",\"Up\",\"40\",\"6\",\"13\",\"7\",\"P\",\"J\",\"93\"
\"\",\"\",\"approach-retreat\",\"97\",\"841184\",\"0.0-97.0\",\"\",\"\",\"1-3\",\"4111\",\"40\",\"0\",\"Training\",\"Stims/Figures/84-C-20-2.bmp\",\"tapata\",\"Up\",\"38\",\"6\",\"14\",\"7\",\"P\",\"J\",\"94\"
\"\",\"\",\"approach-retreat\",\"98\",\"847049\",\"0.0-98.0\",\"\",\"\",\"1-3\",\"4350\",\"37\",\"0\",\"Training\",\"Stims/Figures/27-J-0-1.bmp\",\"papata\",\"Left\",\"39\",\"6\",\"15\",\"7\",\"P\",\"J\",\"95\"
\"\",\"\",\"approach-retreat\",\"99\",\"853220\",\"0.0-99.0\",\"\",\"\",\"1-3\",\"4659\",\"38\",\"0\",\"Training\",\"Stims/Figures/57-C-30-1.bmp\",\"ta:pata\",\"Down\",\"40\",\"6\",\"16\",\"7\",\"P\",\"J\",\"96\"
\"\",\"\",\"approach-retreat\",\"100\",\"859379\",\"0.0-100.0\",\"\",\"\",\"1-3\",\"4645\",\"39\",\"1\",\"Training\",\"Stims/Figures/111-J-10-3.bmp\",\"mamala\",\"Left\",\"39\",\"7\",\"1\",\"7\",\"S\",\"J\",\"97\"
\"\",\"\",\"approach-retreat\",\"101\",\"865256\",\"0.0-101.0\",\"\",\"\",\"1-3\",\"4365\",\"40\",\"1\",\"Training\",\"Stims/Figures/139-J-0-2.bmp\",\"ta:ka:ta\",\"Up\",\"40\",\"7\",\"2\",\"7\",\"P\",\"J\",\"98\"
\"\",\"\",\"approach-retreat\",\"102\",\"870957\",\"0.0-102.0\",\"\",\"\",\"1-3\",\"4188\",\"40\",\"1\",\"Training\",\"Stims/Figures/102-J-10-4.bmp\",\"malana\",\"Up\",\"40\",\"7\",\"3\",\"7\",\"S\",\"J\",\"99\"
\"\",\"\",\"approach-retreat\",\"103\",\"877033\",\"0.0-103.0\",\"\",\"\",\"1-3\",\"4562\",\"39\",\"1\",\"Training\",\"Stims/Figures/74-C-20-4.bmp\",\"namana\",\"Right\",\"39\",\"7\",\"4\",\"7\",\"S\",\"J\",\"100\"
\"\",\"\",\"approach-retreat\",\"104\",\"882788\",\"0.0-104.0\",\"\",\"\",\"1-3\",\"4242\",\"39\",\"1\",\"Training\",\"Stims/Figures/84-J-0-2.bmp\",\"ta:kata\",\"Left\",\"39\",\"7\",\"5\",\"7\",\"P\",\"J\",\"101\"
\"\",\"\",\"approach-retreat\",\"105\",\"888457\",\"0.0-105.0\",\"\",\"\",\"1-3\",\"4157\",\"39\",\"0\",\"Training\",\"Stims/Figures/102-C-20-4.bmp\",\"mala:na\",\"Left\",\"37\",\"7\",\"6\",\"7\",\"S\",\"J\",\"102\"
\"\",\"\",\"approach-retreat\",\"106\",\"894543\",\"0.0-106.0\",\"\",\"\",\"1-3\",\"4573\",\"37\",\"0\",\"Training\",\"Stims/Figures/139-C-20-2.bmp\",\"takaka\",\"Right\",\"39\",\"7\",\"7\",\"7\",\"P\",\"J\",\"103\"
\"\",\"\",\"approach-retreat\",\"107\",\"900142\",\"0.0-107.0\",\"\",\"\",\"1-3\",\"4086\",\"37\",\"1\",\"Training\",\"Stims/Figures/27-C-30-1.bmp\",\"papa:ta\",\"Left\",\"37\",\"7\",\"8\",\"7\",\"P\",\"J\",\"104\"
\"\",\"\",\"approach-retreat\",\"108\",\"905892\",\"0.0-108.0\",\"\",\"\",\"1-3\",\"4235\",\"39\",\"0\",\"Training\",\"Stims/Figures/128-J-10-3.bmp\",\"ma:ma:na\",\"Right\",\"37\",\"7\",\"9\",\"7\",\"S\",\"J\",\"105\"
\"\",\"\",\"approach-retreat\",\"109\",\"911601\",\"0.0-109.0\",\"\",\"\",\"1-3\",\"4195\",\"37\",\"1\",\"Training\",\"Stims/Figures/57-J-0-1.bmp\",\"pa:pa:ka\",\"Right\",\"37\",\"7\",\"10\",\"7\",\"P\",\"J\",\"106\"
\"\",\"\",\"approach-retreat\",\"110\",\"917260\",\"0.0-110.0\",\"\",\"\",\"1-3\",\"4144\",\"38\",\"1\",\"Training\",\"Stims/Figures/74-J-10-4.bmp\",\"nala:la\",\"Down\",\"38\",\"7\",\"11\",\"7\",\"S\",\"J\",\"107\"
\"\",\"\",\"approach-retreat\",\"111\",\"923167\",\"0.0-111.0\",\"\",\"\",\"1-3\",\"4392\",\"40\",\"1\",\"Training\",\"Stims/Figures/128-C-30-3.bmp\",\"ma:la:la\",\"Down\",\"40\",\"7\",\"12\",\"7\",\"S\",\"J\",\"108\"
\"\",\"\",\"approach-retreat\",\"112\",\"929344\",\"0.0-112.0\",\"\",\"\",\"1-3\",\"4663\",\"40\",\"0\",\"Training\",\"Stims/Figures/84-C-20-2.bmp\",\"tapata\",\"Up\",\"38\",\"7\",\"13\",\"7\",\"P\",\"J\",\"109\"
\"\",\"\",\"approach-retreat\",\"113\",\"935955\",\"0.0-113.0\",\"\",\"\",\"1-3\",\"5096\",\"38\",\"0\",\"Training\",\"Stims/Figures/27-J-0-1.bmp\",\"papata\",\"Up\",\"40\",\"7\",\"14\",\"7\",\"P\",\"J\",\"110\"
\"\",\"\",\"approach-retreat\",\"114\",\"941755\",\"0.0-114.0\",\"\",\"\",\"1-3\",\"4286\",\"40\",\"1\",\"Training\",\"Stims/Figures/57-C-30-1.bmp\",\"ta:pata\",\"Down\",\"40\",\"7\",\"15\",\"7\",\"P\",\"J\",\"111\"
\"\",\"\",\"approach-retreat\",\"115\",\"947771\",\"0.0-115.0\",\"\",\"\",\"1-3\",\"4502\",\"38\",\"0\",\"Training\",\"Stims/Figures/111-C-30-3.bmp\",\"na:ma:na\",\"Down\",\"40\",\"7\",\"16\",\"7\",\"S\",\"J\",\"112\"
\"\",\"\",\"approach-retreat\",\"116\",\"953786\",\"0.0-116.0\",\"\",\"\",\"1-3\",\"4501\",\"39\",\"1\",\"Training\",\"Stims/Figures/102-J-10-4.bmp\",\"malana\",\"Left\",\"39\",\"8\",\"1\",\"7\",\"S\",\"J\",\"113\"
\"\",\"\",\"approach-retreat\",\"117\",\"959677\",\"0.0-117.0\",\"\",\"\",\"1-3\",\"4378\",\"37\",\"1\",\"Training\",\"Stims/Figures/57-C-30-1.bmp\",\"ta:pata\",\"Left\",\"37\",\"8\",\"2\",\"7\",\"P\",\"J\",\"114\"
\"\",\"\",\"approach-retreat\",\"118\",\"965602\",\"0.0-118.0\",\"\",\"\",\"1-3\",\"4410\",\"40\",\"0\",\"Training\",\"Stims/Figures/74-J-10-4.bmp\",\"nala:la\",\"Down\",\"38\",\"8\",\"3\",\"7\",\"S\",\"J\",\"115\"
\"\",\"\",\"approach-retreat\",\"119\",\"971091\",\"0.0-119.0\",\"\",\"\",\"1-3\",\"3978\",\"38\",\"1\",\"Training\",\"Stims/Figures/111-J-10-3.bmp\",\"mamala\",\"Down\",\"38\",\"8\",\"4\",\"7\",\"S\",\"J\",\"116\"
\"\",\"\",\"approach-retreat\",\"120\",\"977146\",\"0.0-120.0\",\"\",\"\",\"1-3\",\"4542\",\"38\",\"1\",\"Training\",\"Stims/Figures/27-C-30-1.bmp\",\"papa:ta\",\"Up\",\"38\",\"8\",\"5\",\"7\",\"P\",\"J\",\"117\"
\"\",\"\",\"approach-retreat\",\"121\",\"982890\",\"0.0-121.0\",\"\",\"\",\"1-3\",\"4229\",\"38\",\"0\",\"Training\",\"Stims/Figures/27-J-0-1.bmp\",\"papata\",\"Up\",\"40\",\"8\",\"6\",\"7\",\"P\",\"J\",\"118\"
\"\",\"\",\"approach-retreat\",\"122\",\"988793\",\"0.0-122.0\",\"\",\"\",\"1-3\",\"4390\",\"39\",\"0\",\"Training\",\"Stims/Figures/128-C-30-3.bmp\",\"ma:la:la\",\"Left\",\"37\",\"8\",\"7\",\"7\",\"S\",\"J\",\"119\"
\"\",\"\",\"approach-retreat\",\"123\",\"994672\",\"0.0-123.0\",\"\",\"\",\"1-3\",\"4367\",\"37\",\"0\",\"Training\",\"Stims/Figures/84-C-20-2.bmp\",\"tapata\",\"Right\",\"39\",\"8\",\"8\",\"7\",\"P\",\"J\",\"120\"
\"\",\"\",\"approach-retreat\",\"124\",\"1000614\",\"0.0-124.0\",\"\",\"\",\"1-3\",\"4429\",\"38\",\"1\",\"Training\",\"Stims/Figures/84-J-0-2.bmp\",\"ta:kata\",\"Down\",\"38\",\"8\",\"9\",\"7\",\"P\",\"J\",\"121\"
\"\",\"\",\"approach-retreat\",\"125\",\"1006806\",\"0.0-125.0\",\"\",\"\",\"1-3\",\"4681\",\"39\",\"1\",\"Training\",\"Stims/Figures/128-J-10-3.bmp\",\"ma:ma:na\",\"Left\",\"39\",\"8\",\"10\",\"7\",\"S\",\"J\",\"122\"
\"\",\"\",\"approach-retreat\",\"126\",\"1014159\",\"0.0-126.0\",\"\",\"\",\"1-3\",\"5839\",\"38\",\"1\",\"Training\",\"Stims/Figures/74-C-20-4.bmp\",\"namana\",\"Up\",\"38\",\"8\",\"11\",\"7\",\"S\",\"J\",\"123\"
\"\",\"\",\"approach-retreat\",\"127\",\"1020017\",\"0.0-127.0\",\"\",\"\",\"1-3\",\"4344\",\"40\",\"1\",\"Training\",\"Stims/Figures/111-C-30-3.bmp\",\"na:ma:na\",\"Down\",\"40\",\"8\",\"12\",\"7\",\"S\",\"J\",\"124\"
\"\",\"\",\"approach-retreat\",\"128\",\"1025817\",\"0.0-128.0\",\"\",\"\",\"1-3\",\"4287\",\"37\",\"1\",\"Training\",\"Stims/Figures/139-J-0-2.bmp\",\"ta:ka:ta\",\"Right\",\"37\",\"8\",\"13\",\"7\",\"P\",\"J\",\"125\"
\"\",\"\",\"approach-retreat\",\"129\",\"1033015\",\"0.0-129.0\",\"\",\"\",\"1-3\",\"5686\",\"37\",\"0\",\"Training\",\"Stims/Figures/102-C-20-4.bmp\",\"mala:na\",\"Right\",\"39\",\"8\",\"14\",\"7\",\"S\",\"J\",\"126\"
\"\",\"\",\"approach-retreat\",\"130\",\"1038608\",\"0.0-130.0\",\"\",\"\",\"1-3\",\"4079\",\"37\",\"1\",\"Training\",\"Stims/Figures/57-J-0-1.bmp\",\"pa:pa:ka\",\"Right\",\"37\",\"8\",\"15\",\"7\",\"P\",\"J\",\"127\"
\"\",\"\",\"approach-retreat\",\"131\",\"1044740\",\"0.0-131.0\",\"\",\"\",\"1-3\",\"4617\",\"38\",\"1\",\"Training\",\"Stims/Figures/139-C-20-2.bmp\",\"takaka\",\"Up\",\"38\",\"8\",\"16\",\"7\",\"P\",\"J\",\"128\"
\"\",\"\",\"approach-retreat\",\"132\",\"1051873\",\"0.0-132.0\",\"\",\"\",\"1-3\",\"5616\",\"38\",\"1\",\"Training\",\"Stims/Figures/111-J-10-3.bmp\",\"mamala\",\"Down\",\"38\",\"9\",\"1\",\"7\",\"S\",\"J\",\"129\"
\"\",\"\",\"approach-retreat\",\"133\",\"1057834\",\"0.0-133.0\",\"\",\"\",\"1-3\",\"4447\",\"37\",\"0\",\"Training\",\"Stims/Figures/57-J-0-1.bmp\",\"pa:pa:ka\",\"Left\",\"39\",\"9\",\"2\",\"7\",\"P\",\"J\",\"130\"
\"\",\"\",\"approach-retreat\",\"134\",\"1063746\",\"0.0-134.0\",\"\",\"\",\"1-3\",\"4396\",\"38\",\"1\",\"Training\",\"Stims/Figures/57-C-30-1.bmp\",\"ta:pata\",\"Up\",\"38\",\"9\",\"3\",\"7\",\"P\",\"J\",\"131\"
\"\",\"\",\"approach-retreat\",\"135\",\"1069456\",\"0.0-135.0\",\"\",\"\",\"1-3\",\"4199\",\"39\",\"1\",\"Training\",\"Stims/Figures/74-C-20-4.bmp\",\"namana\",\"Right\",\"39\",\"9\",\"4\",\"7\",\"S\",\"J\",\"132\"
\"\",\"\",\"approach-retreat\",\"136\",\"1075246\",\"0.0-136.0\",\"\",\"\",\"1-3\",\"4279\",\"40\",\"1\",\"Training\",\"Stims/Figures/27-C-30-1.bmp\",\"papa:ta\",\"Down\",\"40\",\"9\",\"5\",\"7\",\"P\",\"J\",\"133\"
\"\",\"\",\"approach-retreat\",\"137\",\"1081035\",\"0.0-137.0\",\"\",\"\",\"1-3\",\"4275\",\"37\",\"0\",\"Training\",\"Stims/Figures/139-J-0-2.bmp\",\"ta:ka:ta\",\"Left\",\"39\",\"9\",\"6\",\"7\",\"P\",\"J\",\"134\"
\"\",\"\",\"approach-retreat\",\"138\",\"1086865\",\"0.0-138.0\",\"\",\"\",\"1-3\",\"4315\",\"38\",\"0\",\"Training\",\"Stims/Figures/102-J-10-4.bmp\",\"malana\",\"Up\",\"40\",\"9\",\"7\",\"7\",\"S\",\"J\",\"135\"
\"\",\"\",\"approach-retreat\",\"139\",\"1092567\",\"0.0-139.0\",\"\",\"\",\"1-3\",\"4189\",\"39\",\"1\",\"Training\",\"Stims/Figures/111-C-30-3.bmp\",\"na:ma:na\",\"Right\",\"39\",\"9\",\"8\",\"7\",\"S\",\"J\",\"136\"
\"\",\"\",\"approach-retreat\",\"140\",\"1098395\",\"0.0-140.0\",\"\",\"\",\"1-3\",\"4313\",\"39\",\"1\",\"Training\",\"Stims/Figures/84-C-20-2.bmp\",\"tapata\",\"Right\",\"39\",\"9\",\"9\",\"7\",\"P\",\"J\",\"137\"
\"\",\"\",\"approach-retreat\",\"141\",\"1104329\",\"0.0-141.0\",\"\",\"\",\"1-3\",\"4420\",\"38\",\"0\",\"Training\",\"Stims/Figures/27-J-0-1.bmp\",\"papata\",\"Up\",\"40\",\"9\",\"10\",\"7\",\"P\",\"J\",\"138\"
\"\",\"\",\"approach-retreat\",\"142\",\"1110229\",\"0.0-142.0\",\"\",\"\",\"1-3\",\"4386\",\"40\",\"1\",\"Training\",\"Stims/Figures/139-C-20-2.bmp\",\"takaka\",\"Down\",\"40\",\"9\",\"11\",\"7\",\"P\",\"J\",\"139\"
\"\",\"\",\"approach-retreat\",\"143\",\"1116315\",\"0.0-143.0\",\"\",\"\",\"1-3\",\"4572\",\"40\",\"1\",\"Training\",\"Stims/Figures/128-J-10-3.bmp\",\"ma:ma:na\",\"Up\",\"40\",\"9\",\"12\",\"7\",\"S\",\"J\",\"140\"
\"\",\"\",\"approach-retreat\",\"144\",\"1122401\",\"0.0-144.0\",\"\",\"\",\"1-3\",\"4572\",\"39\",\"1\",\"Training\",\"Stims/Figures/84-J-0-2.bmp\",\"ta:kata\",\"Left\",\"39\",\"9\",\"13\",\"7\",\"P\",\"J\",\"141\"
\"\",\"\",\"approach-retreat\",\"145\",\"1128083\",\"0.0-145.0\",\"\",\"\",\"1-3\",\"4168\",\"37\",\"0\",\"Training\",\"Stims/Figures/128-C-30-3.bmp\",\"ma:la:la\",\"Right\",\"39\",\"9\",\"14\",\"7\",\"S\",\"J\",\"142\"
\"\",\"\",\"approach-retreat\",\"146\",\"1133752\",\"0.0-146.0\",\"\",\"\",\"1-3\",\"4158\",\"39\",\"1\",\"Training\",\"Stims/Figures/74-J-10-4.bmp\",\"nala:la\",\"Left\",\"39\",\"9\",\"15\",\"7\",\"S\",\"J\",\"143\"
\"\",\"\",\"approach-retreat\",\"147\",\"1140041\",\"0.0-147.0\",\"\",\"\",\"1-3\",\"4777\",\"38\",\"0\",\"Training\",\"Stims/Figures/102-C-20-4.bmp\",\"mala:na\",\"Down\",\"40\",\"9\",\"16\",\"7\",\"S\",\"J\",\"144\"
\"16728\",\"\",\"instructions\",\"148\",\"1156769\",\"0.0-148.0\",\"[{\"\"page_index\"\":0,\"\"viewing_time\"\":16727}]\",\"\",\"\",\"\",\"\",\"\",\"\",\"\",\"\",\"\",\"\",\"\",\"\",\"\",\"\",\"\",\"\"
\"\",\"\",\"approach-retreat\",\"149\",\"1163837\",\"0.0-149.0\",\"\",\"\",\"1-3\",\"5557\",\"38\",\"1\",\"Testing\",\"Stims/Figures/128-J-10-3.bmp\",\"ma:ma:na\",\"Down\",\"38\",\"1\",\"1\",\"7\",\"S\",\"J\",\"1\"
\"\",\"\",\"approach-retreat\",\"150\",\"1169689\",\"0.0-150.0\",\"\",\"\",\"1-3\",\"4338\",\"40\",\"0\",\"Testing\",\"Stims/Figures/139-J-0-2.bmp\",\"ta:ka:ta\",\"Down\",\"38\",\"1\",\"2\",\"7\",\"P\",\"J\",\"2\"
\"\",\"\",\"approach-retreat\",\"151\",\"1176097\",\"0.0-151.0\",\"\",\"\",\"1-3\",\"4893\",\"40\",\"0\",\"Testing\",\"Stims/Figures/71-C-30-1.bmp\",\"ta:kaka\",\"Up\",\"38\",\"1\",\"3\",\"7\",\"P\",\"J\",\"3\"
\"\",\"\",\"approach-retreat\",\"152\",\"1182515\",\"0.0-152.0\",\"\",\"\",\"1-3\",\"4909\",\"37\",\"0\",\"Testing\",\"Stims/Figures/71-J-0-1.bmp\",\"pa:ka:ka\",\"Left\",\"39\",\"1\",\"4\",\"7\",\"P\",\"J\",\"4\"
\"\",\"\",\"approach-retreat\",\"153\",\"1188855\",\"0.0-153.0\",\"\",\"\",\"1-3\",\"4827\",\"39\",\"1\",\"Testing\",\"Stims/Figures/102-J-10-4.bmp\",\"malana\",\"Left\",\"39\",\"1\",\"5\",\"7\",\"S\",\"J\",\"5\"
\"\",\"\",\"approach-retreat\",\"154\",\"1194763\",\"0.0-154.0\",\"\",\"\",\"1-3\",\"4395\",\"37\",\"1\",\"Testing\",\"Stims/Figures/100-C-30-3.bmp\",\"na:la:la\",\"Left\",\"37\",\"1\",\"6\",\"7\",\"S\",\"J\",\"6\"
\"\",\"\",\"approach-retreat\",\"155\",\"1200597\",\"0.0-155.0\",\"\",\"\",\"1-3\",\"4323\",\"40\",\"1\",\"Testing\",\"Stims/Figures/111-J-10-3.bmp\",\"mamala\",\"Up\",\"40\",\"1\",\"7\",\"7\",\"S\",\"J\",\"7\"
\"\",\"\",\"approach-retreat\",\"156\",\"1206719\",\"0.0-156.0\",\"\",\"\",\"1-3\",\"4610\",\"38\",\"0\",\"Testing\",\"Stims/Figures/27-C-30-1.bmp\",\"papa:ta\",\"Down\",\"40\",\"1\",\"8\",\"7\",\"P\",\"J\",\"8\"
\"\",\"\",\"approach-retreat\",\"157\",\"1214831\",\"0.0-157.0\",\"\",\"\",\"1-3\",\"6598\",\"39\",\"0\",\"Testing\",\"Stims/Figures/128-C-30-3.bmp\",\"ma:la:la\",\"Left\",\"37\",\"1\",\"9\",\"7\",\"S\",\"J\",\"9\"
\"\",\"\",\"approach-retreat\",\"158\",\"1220846\",\"0.0-158.0\",\"\",\"\",\"1-3\",\"4504\",\"39\",\"0\",\"Testing\",\"Stims/Figures/100-J-10-3.bmp\",\"ma:la:na\",\"Right\",\"37\",\"1\",\"10\",\"7\",\"S\",\"J\",\"10\"
\"\",\"\",\"approach-retreat\",\"159\",\"1226905\",\"0.0-159.0\",\"\",\"\",\"1-3\",\"4548\",\"39\",\"0\",\"Testing\",\"Stims/Figures/139-C-20-2.bmp\",\"takaka\",\"Left\",\"37\",\"1\",\"11\",\"7\",\"P\",\"J\",\"11\"
\"\",\"\",\"approach-retreat\",\"160\",\"1234447\",\"0.0-160.0\",\"\",\"\",\"1-3\",\"6032\",\"37\",\"1\",\"Testing\",\"Stims/Figures/74-J-10-4.bmp\",\"nala:la\",\"Right\",\"37\",\"1\",\"12\",\"7\",\"S\",\"J\",\"12\"
\"\",\"\",\"approach-retreat\",\"161\",\"1240458\",\"0.0-161.0\",\"\",\"\",\"1-3\",\"4498\",\"40\",\"1\",\"Testing\",\"Stims/Figures/102-C-20-4.bmp\",\"mala:na\",\"Down\",\"40\",\"1\",\"13\",\"7\",\"S\",\"J\",\"13\"
\"\",\"\",\"approach-retreat\",\"162\",\"1248040\",\"0.0-162.0\",\"\",\"\",\"1-3\",\"6071\",\"38\",\"0\",\"Testing\",\"Stims/Figures/57-J-0-1.bmp\",\"pa:pa:ka\",\"Up\",\"40\",\"1\",\"14\",\"7\",\"P\",\"J\",\"14\"
\"\",\"\",\"approach-retreat\",\"163\",\"1253729\",\"0.0-163.0\",\"\",\"\",\"1-3\",\"4175\",\"38\",\"0\",\"Testing\",\"Stims/Figures/87-J-10-4.bmp\",\"na:ma:la\",\"Up\",\"40\",\"1\",\"15\",\"7\",\"S\",\"J\",\"15\"
\"\",\"\",\"approach-retreat\",\"164\",\"1259614\",\"0.0-164.0\",\"\",\"\",\"1-3\",\"4372\",\"37\",\"1\",\"Testing\",\"Stims/Figures/118-C-20-2.bmp\",\"takata\",\"Left\",\"37\",\"1\",\"16\",\"7\",\"P\",\"J\",\"16\"
\"\",\"\",\"approach-retreat\",\"165\",\"1265701\",\"0.0-165.0\",\"\",\"\",\"1-3\",\"4567\",\"40\",\"0\",\"Testing\",\"Stims/Figures/27-J-0-1.bmp\",\"papata\",\"Down\",\"38\",\"1\",\"17\",\"7\",\"P\",\"J\",\"17\"
\"\",\"\",\"approach-retreat\",\"166\",\"1271544\",\"0.0-166.0\",\"\",\"\",\"1-3\",\"4331\",\"40\",\"0\",\"Testing\",\"Stims/Figures/118-J-0-2.bmp\",\"pakaka\",\"Down\",\"38\",\"1\",\"18\",\"7\",\"P\",\"J\",\"18\"
\"\",\"\",\"approach-retreat\",\"167\",\"1277359\",\"0.0-167.0\",\"\",\"\",\"1-3\",\"4277\",\"39\",\"1\",\"Testing\",\"Stims/Figures/57-C-30-1.bmp\",\"ta:pata\",\"Right\",\"39\",\"1\",\"19\",\"7\",\"P\",\"J\",\"19\"
\"\",\"\",\"approach-retreat\",\"168\",\"1283622\",\"0.0-168.0\",\"\",\"\",\"1-3\",\"4752\",\"38\",\"0\",\"Testing\",\"Stims/Figures/84-J-0-2.bmp\",\"ta:kata\",\"Up\",\"40\",\"1\",\"20\",\"7\",\"P\",\"J\",\"20\"
\"\",\"\",\"approach-retreat\",\"169\",\"1289505\",\"0.0-169.0\",\"\",\"\",\"1-3\",\"4373\",\"37\",\"0\",\"Testing\",\"Stims/Figures/111-C-30-3.bmp\",\"na:ma:na\",\"Right\",\"39\",\"1\",\"21\",\"7\",\"S\",\"J\",\"21\"
\"\",\"\",\"approach-retreat\",\"170\",\"1296386\",\"0.0-170.0\",\"\",\"\",\"1-3\",\"5367\",\"40\",\"0\",\"Testing\",\"Stims/Figures/84-C-20-2.bmp\",\"tapata\",\"Up\",\"38\",\"1\",\"22\",\"7\",\"P\",\"J\",\"22\"
\"\",\"\",\"approach-retreat\",\"171\",\"1302059\",\"0.0-171.0\",\"\",\"\",\"1-3\",\"4161\",\"37\",\"0\",\"Testing\",\"Stims/Figures/74-C-20-4.bmp\",\"namana\",\"Right\",\"39\",\"1\",\"23\",\"7\",\"S\",\"J\",\"23\"
\"\",\"\",\"approach-retreat\",\"172\",\"1307862\",\"0.0-172.0\",\"\",\"\",\"1-3\",\"4292\",\"39\",\"1\",\"Testing\",\"Stims/Figures/87-C-20-4.bmp\",\"mala:la\",\"Right\",\"39\",\"1\",\"24\",\"7\",\"S\",\"J\",\"24\"
\"\",\"\",\"approach-retreat\",\"173\",\"1314754\",\"0.0-173.0\",\"\",\"\",\"1-3\",\"5383\",\"40\",\"1\",\"Testing\",\"Stims/Figures/118-C-20-2.bmp\",\"takata\",\"Down\",\"40\",\"2\",\"1\",\"7\",\"P\",\"J\",\"25\"
\"\",\"\",\"approach-retreat\",\"174\",\"1322633\",\"0.0-174.0\",\"\",\"\",\"1-3\",\"6368\",\"39\",\"1\",\"Testing\",\"Stims/Figures/139-C-20-2.bmp\",\"takaka\",\"Right\",\"39\",\"2\",\"2\",\"7\",\"P\",\"J\",\"26\"
\"\",\"\",\"approach-retreat\",\"175\",\"1328331\",\"0.0-175.0\",\"\",\"\",\"1-3\",\"4185\",\"39\",\"1\",\"Testing\",\"Stims/Figures/111-J-10-3.bmp\",\"mamala\",\"Left\",\"39\",\"2\",\"3\",\"7\",\"S\",\"J\",\"27\"
\"\",\"\",\"approach-retreat\",\"176\",\"1334161\",\"0.0-176.0\",\"\",\"\",\"1-3\",\"4320\",\"38\",\"0\",\"Testing\",\"Stims/Figures/71-J-0-1.bmp\",\"pa:ka:ka\",\"Up\",\"40\",\"2\",\"4\",\"7\",\"P\",\"J\",\"28\"
\"\",\"\",\"approach-retreat\",\"177\",\"1339906\",\"0.0-177.0\",\"\",\"\",\"1-3\",\"4236\",\"38\",\"1\",\"Testing\",\"Stims/Figures/87-C-20-4.bmp\",\"mala:la\",\"Up\",\"38\",\"2\",\"5\",\"7\",\"S\",\"J\",\"29\"
\"\",\"\",\"approach-retreat\",\"178\",\"1345639\",\"0.0-178.0\",\"\",\"\",\"1-3\",\"4223\",\"39\",\"0\",\"Testing\",\"Stims/Figures/111-C-30-3.bmp\",\"na:ma:na\",\"Left\",\"37\",\"2\",\"6\",\"7\",\"S\",\"J\",\"30\"
\"\",\"\",\"approach-retreat\",\"179\",\"1353063\",\"0.0-179.0\",\"\",\"\",\"1-3\",\"5913\",\"40\",\"0\",\"Testing\",\"Stims/Figures/139-J-0-2.bmp\",\"ta:ka:ta\",\"Down\",\"38\",\"2\",\"7\",\"7\",\"P\",\"J\",\"31\"
\"\",\"\",\"approach-retreat\",\"180\",\"1359286\",\"0.0-180.0\",\"\",\"\",\"1-3\",\"4711\",\"37\",\"0\",\"Testing\",\"Stims/Figures/27-C-30-1.bmp\",\"papa:ta\",\"Right\",\"39\",\"2\",\"8\",\"7\",\"P\",\"J\",\"32\"
\"\",\"\",\"approach-retreat\",\"181\",\"1365420\",\"0.0-181.0\",\"\",\"\",\"1-3\",\"4613\",\"40\",\"0\",\"Testing\",\"Stims/Figures/84-J-0-2.bmp\",\"ta:kata\",\"Down\",\"38\",\"2\",\"9\",\"7\",\"P\",\"J\",\"33\"
\"\",\"\",\"approach-retreat\",\"182\",\"1372450\",\"0.0-182.0\",\"\",\"\",\"1-3\",\"5522\",\"40\",\"0\",\"Testing\",\"Stims/Figures/74-J-10-4.bmp\",\"nala:la\",\"Down\",\"38\",\"2\",\"10\",\"7\",\"S\",\"J\",\"34\"
\"\",\"\",\"approach-retreat\",\"183\",\"1379527\",\"0.0-183.0\",\"\",\"\",\"1-3\",\"5564\",\"37\",\"0\",\"Testing\",\"Stims/Figures/118-J-0-2.bmp\",\"pakaka\",\"Left\",\"39\",\"2\",\"11\",\"7\",\"P\",\"J\",\"35\"
\"\",\"\",\"approach-retreat\",\"184\",\"1386163\",\"0.0-184.0\",\"\",\"\",\"1-3\",\"5128\",\"40\",\"1\",\"Testing\",\"Stims/Figures/128-J-10-3.bmp\",\"ma:ma:na\",\"Up\",\"40\",\"2\",\"12\",\"7\",\"S\",\"J\",\"36\"
\"\",\"\",\"approach-retreat\",\"185\",\"1392861\",\"0.0-185.0\",\"\",\"\",\"1-3\",\"5185\",\"38\",\"0\",\"Testing\",\"Stims/Figures/100-J-10-3.bmp\",\"ma:la:na\",\"Up\",\"40\",\"2\",\"13\",\"7\",\"S\",\"J\",\"37\"
\"\",\"\",\"approach-retreat\",\"186\",\"1399294\",\"0.0-186.0\",\"\",\"\",\"1-3\",\"4920\",\"37\",\"0\",\"Testing\",\"Stims/Figures/84-C-20-2.bmp\",\"tapata\",\"Right\",\"39\",\"2\",\"14\",\"7\",\"P\",\"J\",\"38\"
\"\",\"\",\"approach-retreat\",\"187\",\"1406294\",\"0.0-187.0\",\"\",\"\",\"1-3\",\"5487\",\"40\",\"0\",\"Testing\",\"Stims/Figures/128-C-30-3.bmp\",\"ma:la:la\",\"Up\",\"38\",\"2\",\"15\",\"7\",\"S\",\"J\",\"39\"
\"\",\"\",\"approach-retreat\",\"188\",\"1412145\",\"0.0-188.0\",\"\",\"\",\"1-3\",\"4339\",\"37\",\"0\",\"Testing\",\"Stims/Figures/57-J-0-1.bmp\",\"pa:pa:ka\",\"Left\",\"39\",\"2\",\"16\",\"7\",\"P\",\"J\",\"40\"
\"\",\"\",\"approach-retreat\",\"189\",\"1418313\",\"0.0-189.0\",\"\",\"\",\"1-3\",\"4654\",\"38\",\"0\",\"Testing\",\"Stims/Figures/74-C-20-4.bmp\",\"namana\",\"Down\",\"40\",\"2\",\"17\",\"7\",\"S\",\"J\",\"41\"
\"\",\"\",\"approach-retreat\",\"190\",\"1424902\",\"0.0-190.0\",\"\",\"\",\"1-3\",\"5076\",\"39\",\"0\",\"Testing\",\"Stims/Figures/57-C-30-1.bmp\",\"ta:pata\",\"Left\",\"37\",\"2\",\"18\",\"7\",\"P\",\"J\",\"42\"
\"\",\"\",\"approach-retreat\",\"191\",\"1430618\",\"0.0-191.0\",\"\",\"\",\"1-3\",\"4203\",\"37\",\"0\",\"Testing\",\"Stims/Figures/71-C-30-1.bmp\",\"ta:kaka\",\"Right\",\"39\",\"2\",\"19\",\"7\",\"P\",\"J\",\"43\"
\"\",\"\",\"approach-retreat\",\"192\",\"1436508\",\"0.0-192.0\",\"\",\"\",\"1-3\",\"4380\",\"39\",\"0\",\"Testing\",\"Stims/Figures/27-J-0-1.bmp\",\"papata\",\"Right\",\"37\",\"2\",\"20\",\"7\",\"P\",\"J\",\"44\"
\"\",\"\",\"approach-retreat\",\"193\",\"1442669\",\"0.0-193.0\",\"\",\"\",\"1-3\",\"4647\",\"40\",\"0\",\"Testing\",\"Stims/Figures/102-C-20-4.bmp\",\"mala:na\",\"Up\",\"38\",\"2\",\"21\",\"7\",\"S\",\"J\",\"45\"
\"\",\"\",\"approach-retreat\",\"194\",\"1448611\",\"0.0-194.0\",\"\",\"\",\"1-3\",\"4433\",\"38\",\"1\",\"Testing\",\"Stims/Figures/102-J-10-4.bmp\",\"malana\",\"Down\",\"38\",\"2\",\"22\",\"7\",\"S\",\"J\",\"46\"
\"\",\"\",\"approach-retreat\",\"195\",\"1456789\",\"0.0-195.0\",\"\",\"\",\"1-3\",\"6667\",\"37\",\"0\",\"Testing\",\"Stims/Figures/87-J-10-4.bmp\",\"na:ma:la\",\"Left\",\"39\",\"2\",\"23\",\"7\",\"S\",\"J\",\"47\"
\"\",\"\",\"approach-retreat\",\"196\",\"1462600\",\"0.0-196.0\",\"\",\"\",\"1-3\",\"4298\",\"39\",\"1\",\"Testing\",\"Stims/Figures/100-C-30-3.bmp\",\"na:la:la\",\"Right\",\"39\",\"2\",\"24\",\"7\",\"S\",\"J\",\"48\"
\"\",\"\",\"approach-retreat\",\"197\",\"1468372\",\"0.0-197.0\",\"\",\"\",\"1-3\",\"4259\",\"40\",\"1\",\"Testing\",\"Stims/Figures/102-C-20-4.bmp\",\"mala:na\",\"Down\",\"40\",\"3\",\"1\",\"7\",\"S\",\"J\",\"49\"
\"\",\"\",\"approach-retreat\",\"198\",\"1475238\",\"0.0-198.0\",\"\",\"\",\"1-3\",\"5352\",\"39\",\"0\",\"Testing\",\"Stims/Figures/84-J-0-2.bmp\",\"ta:kata\",\"Right\",\"37\",\"3\",\"2\",\"7\",\"P\",\"J\",\"50\"
\"\",\"\",\"approach-retreat\",\"199\",\"1481578\",\"0.0-199.0\",\"\",\"\",\"1-3\",\"4826\",\"40\",\"0\",\"Testing\",\"Stims/Figures/139-C-20-2.bmp\",\"takaka\",\"Up\",\"38\",\"3\",\"3\",\"7\",\"P\",\"J\",\"51\"
\"\",\"\",\"approach-retreat\",\"200\",\"1487551\",\"0.0-200.0\",\"\",\"\",\"1-3\",\"4463\",\"40\",\"0\",\"Testing\",\"Stims/Figures/27-J-0-1.bmp\",\"papata\",\"Down\",\"38\",\"3\",\"4\",\"7\",\"P\",\"J\",\"52\"
\"\",\"\",\"approach-retreat\",\"201\",\"1493822\",\"0.0-201.0\",\"\",\"\",\"1-3\",\"4756\",\"37\",\"1\",\"Testing\",\"Stims/Figures/111-J-10-3.bmp\",\"mamala\",\"Right\",\"37\",\"3\",\"5\",\"7\",\"S\",\"J\",\"53\"
\"\",\"\",\"approach-retreat\",\"202\",\"1499660\",\"0.0-202.0\",\"\",\"\",\"1-3\",\"4328\",\"38\",\"0\",\"Testing\",\"Stims/Figures/87-C-20-4.bmp\",\"mala:la\",\"Down\",\"40\",\"3\",\"6\",\"7\",\"S\",\"J\",\"54\"
\"\",\"\",\"approach-retreat\",\"203\",\"1505846\",\"0.0-203.0\",\"\",\"\",\"1-3\",\"4673\",\"39\",\"1\",\"Testing\",\"Stims/Figures/102-J-10-4.bmp\",\"malana\",\"Left\",\"39\",\"3\",\"7\",\"7\",\"S\",\"J\",\"55\"
\"\",\"\",\"approach-retreat\",\"204\",\"1511898\",\"0.0-204.0\",\"\",\"\",\"1-3\",\"4541\",\"39\",\"0\",\"Testing\",\"Stims/Figures/100-J-10-3.bmp\",\"ma:la:na\",\"Right\",\"37\",\"3\",\"8\",\"7\",\"S\",\"J\",\"56\"
\"\",\"\",\"approach-retreat\",\"205\",\"1518586\",\"0.0-205.0\",\"\",\"\",\"1-3\",\"5179\",\"40\",\"0\",\"Testing\",\"Stims/Figures/74-C-20-4.bmp\",\"namana\",\"Up\",\"38\",\"3\",\"9\",\"7\",\"S\",\"J\",\"57\"
\"\",\"\",\"approach-retreat\",\"206\",\"1524377\",\"0.0-206.0\",\"\",\"\",\"1-3\",\"4276\",\"39\",\"1\",\"Testing\",\"Stims/Figures/100-C-30-3.bmp\",\"na:la:la\",\"Right\",\"39\",\"3\",\"10\",\"7\",\"S\",\"J\",\"58\"
\"\",\"\",\"approach-retreat\",\"207\",\"1530051\",\"0.0-207.0\",\"\",\"\",\"1-3\",\"4162\",\"39\",\"0\",\"Testing\",\"Stims/Figures/57-C-30-1.bmp\",\"ta:pata\",\"Left\",\"37\",\"3\",\"11\",\"7\",\"P\",\"J\",\"59\"
\"\",\"\",\"approach-retreat\",\"208\",\"1535795\",\"0.0-208.0\",\"\",\"\",\"1-3\",\"4234\",\"39\",\"1\",\"Testing\",\"Stims/Figures/87-J-10-4.bmp\",\"na:ma:la\",\"Left\",\"39\",\"3\",\"12\",\"7\",\"S\",\"J\",\"60\"
\"\",\"\",\"approach-retreat\",\"209\",\"1542032\",\"0.0-209.0\",\"\",\"\",\"1-3\",\"4724\",\"39\",\"0\",\"Testing\",\"Stims/Figures/71-J-0-1.bmp\",\"pa:ka:ka\",\"Right\",\"37\",\"3\",\"13\",\"7\",\"P\",\"J\",\"61\"
\"\",\"\",\"approach-retreat\",\"210\",\"1548030\",\"0.0-210.0\",\"\",\"\",\"1-3\",\"4486\",\"39\",\"0\",\"Testing\",\"Stims/Figures/111-C-30-3.bmp\",\"na:ma:na\",\"Left\",\"37\",\"3\",\"14\",\"7\",\"S\",\"J\",\"62\"
\"\",\"\",\"approach-retreat\",\"211\",\"1553702\",\"0.0-211.0\",\"\",\"\",\"1-3\",\"4162\",\"38\",\"0\",\"Testing\",\"Stims/Figures/27-C-30-1.bmp\",\"papa:ta\",\"Down\",\"40\",\"3\",\"15\",\"7\",\"P\",\"J\",\"63\"
\"\",\"\",\"approach-retreat\",\"212\",\"1559494\",\"0.0-212.0\",\"\",\"\",\"1-3\",\"4280\",\"40\",\"1\",\"Testing\",\"Stims/Figures/84-C-20-2.bmp\",\"tapata\",\"Down\",\"40\",\"3\",\"16\",\"7\",\"P\",\"J\",\"64\"
\"\",\"\",\"approach-retreat\",\"213\",\"1565146\",\"0.0-213.0\",\"\",\"\",\"1-3\",\"4139\",\"38\",\"0\",\"Testing\",\"Stims/Figures/118-C-20-2.bmp\",\"takata\",\"Down\",\"40\",\"3\",\"17\",\"7\",\"P\",\"J\",\"65\"
\"\",\"\",\"approach-retreat\",\"214\",\"1570916\",\"0.0-214.0\",\"\",\"\",\"1-3\",\"4257\",\"40\",\"0\",\"Testing\",\"Stims/Figures/71-C-30-1.bmp\",\"ta:kaka\",\"Up\",\"38\",\"3\",\"18\",\"7\",\"P\",\"J\",\"66\"
\"\",\"\",\"approach-retreat\",\"215\",\"1576553\",\"0.0-215.0\",\"\",\"\",\"1-3\",\"4126\",\"39\",\"1\",\"Testing\",\"Stims/Figures/57-J-0-1.bmp\",\"pa:pa:ka\",\"Left\",\"39\",\"3\",\"19\",\"7\",\"P\",\"J\",\"67\"
\"\",\"\",\"approach-retreat\",\"216\",\"1582263\",\"0.0-216.0\",\"\",\"\",\"1-3\",\"4197\",\"40\",\"1\",\"Testing\",\"Stims/Figures/74-J-10-4.bmp\",\"nala:la\",\"Up\",\"40\",\"3\",\"20\",\"7\",\"S\",\"J\",\"68\"
\"\",\"\",\"approach-retreat\",\"217\",\"1587974\",\"0.0-217.0\",\"\",\"\",\"1-3\",\"4203\",\"40\",\"1\",\"Testing\",\"Stims/Figures/139-J-0-2.bmp\",\"ta:ka:ta\",\"Up\",\"40\",\"3\",\"21\",\"7\",\"P\",\"J\",\"69\"
\"\",\"\",\"approach-retreat\",\"218\",\"1593775\",\"0.0-218.0\",\"\",\"\",\"1-3\",\"4289\",\"37\",\"0\",\"Testing\",\"Stims/Figures/128-C-30-3.bmp\",\"ma:la:la\",\"Right\",\"39\",\"3\",\"22\",\"7\",\"S\",\"J\",\"70\"
\"\",\"\",\"approach-retreat\",\"219\",\"1599995\",\"0.0-219.0\",\"\",\"\",\"1-3\",\"4709\",\"39\",\"1\",\"Testing\",\"Stims/Figures/128-J-10-3.bmp\",\"ma:ma:na\",\"Left\",\"39\",\"3\",\"23\",\"7\",\"S\",\"J\",\"71\"
\"\",\"\",\"approach-retreat\",\"220\",\"1605992\",\"0.0-220.0\",\"\",\"\",\"1-3\",\"4488\",\"38\",\"0\",\"Testing\",\"Stims/Figures/118-J-0-2.bmp\",\"pakaka\",\"Up\",\"40\",\"3\",\"24\",\"7\",\"P\",\"J\",\"72\"
\"\",\"\",\"approach-retreat\",\"221\",\"1611799\",\"0.0-221.0\",\"\",\"\",\"1-3\",\"4295\",\"38\",\"0\",\"Testing\",\"Stims/Figures/100-J-10-3.bmp\",\"ma:la:na\",\"Up\",\"40\",\"4\",\"1\",\"7\",\"S\",\"J\",\"73\"
\"\",\"\",\"approach-retreat\",\"222\",\"1617656\",\"0.0-222.0\",\"\",\"\",\"1-3\",\"4347\",\"38\",\"0\",\"Testing\",\"Stims/Figures/111-C-30-3.bmp\",\"na:ma:na\",\"Down\",\"40\",\"4\",\"2\",\"7\",\"S\",\"J\",\"74\"
\"\",\"\",\"approach-retreat\",\"223\",\"1623712\",\"0.0-223.0\",\"\",\"\",\"1-3\",\"4553\",\"37\",\"0\",\"Testing\",\"Stims/Figures/111-J-10-3.bmp\",\"mamala\",\"Left\",\"39\",\"4\",\"3\",\"7\",\"S\",\"J\",\"75\"
\"\",\"\",\"approach-retreat\",\"224\",\"1629326\",\"0.0-224.0\",\"\",\"\",\"1-3\",\"4101\",\"37\",\"0\",\"Testing\",\"Stims/Figures/87-C-20-4.bmp\",\"mala:la\",\"Right\",\"39\",\"4\",\"4\",\"7\",\"S\",\"J\",\"76\"
\"\",\"\",\"approach-retreat\",\"225\",\"1635406\",\"0.0-225.0\",\"\",\"\",\"1-3\",\"4570\",\"39\",\"0\",\"Testing\",\"Stims/Figures/118-C-20-2.bmp\",\"takata\",\"Left\",\"37\",\"4\",\"5\",\"7\",\"P\",\"J\",\"77\"
\"\",\"\",\"approach-retreat\",\"226\",\"1641441\",\"0.0-226.0\",\"\",\"\",\"1-3\",\"4523\",\"40\",\"1\",\"Testing\",\"Stims/Figures/128-J-10-3.bmp\",\"ma:ma:na\",\"Up\",\"40\",\"4\",\"6\",\"7\",\"S\",\"J\",\"78\"
\"\",\"\",\"approach-retreat\",\"227\",\"1647161\",\"0.0-227.0\",\"\",\"\",\"1-3\",\"4204\",\"37\",\"1\",\"Testing\",\"Stims/Figures/84-C-20-2.bmp\",\"tapata\",\"Left\",\"37\",\"4\",\"7\",\"7\",\"P\",\"J\",\"79\"
\"\",\"\",\"approach-retreat\",\"228\",\"1653699\",\"0.0-228.0\",\"\",\"\",\"1-3\",\"5025\",\"40\",\"1\",\"Testing\",\"Stims/Figures/102-J-10-4.bmp\",\"malana\",\"Up\",\"40\",\"4\",\"8\",\"7\",\"S\",\"J\",\"80\"
\"\",\"\",\"approach-retreat\",\"229\",\"1659709\",\"0.0-229.0\",\"\",\"\",\"1-3\",\"4498\",\"38\",\"0\",\"Testing\",\"Stims/Figures/128-C-30-3.bmp\",\"ma:la:la\",\"Down\",\"40\",\"4\",\"9\",\"7\",\"S\",\"J\",\"81\"
\"\",\"\",\"approach-retreat\",\"230\",\"1666699\",\"0.0-230.0\",\"\",\"\",\"1-3\",\"5477\",\"39\",\"0\",\"Testing\",\"Stims/Figures/71-J-0-1.bmp\",\"pa:ka:ka\",\"Right\",\"37\",\"4\",\"10\",\"7\",\"P\",\"J\",\"82\"
\"\",\"\",\"approach-retreat\",\"231\",\"1673554\",\"0.0-231.0\",\"\",\"\",\"1-3\",\"5345\",\"40\",\"0\",\"Testing\",\"Stims/Figures/139-J-0-2.bmp\",\"ta:ka:ta\",\"Down\",\"38\",\"4\",\"11\",\"7\",\"P\",\"J\",\"83\"
\"\",\"\",\"approach-retreat\",\"232\",\"1679268\",\"0.0-232.0\",\"\",\"\",\"1-3\",\"4203\",\"40\",\"0\",\"Testing\",\"Stims/Figures/27-J-0-1.bmp\",\"papata\",\"Down\",\"38\",\"4\",\"12\",\"7\",\"P\",\"J\",\"84\"
\"\",\"\",\"approach-retreat\",\"233\",\"1685023\",\"0.0-233.0\",\"\",\"\",\"1-3\",\"4240\",\"40\",\"0\",\"Testing\",\"Stims/Figures/84-J-0-2.bmp\",\"ta:kata\",\"Down\",\"38\",\"4\",\"13\",\"7\",\"P\",\"J\",\"85\"
\"\",\"\",\"approach-retreat\",\"234\",\"1691223\",\"0.0-234.0\",\"\",\"\",\"1-3\",\"4691\",\"37\",\"0\",\"Testing\",\"Stims/Figures/57-C-30-1.bmp\",\"ta:pata\",\"Right\",\"39\",\"4\",\"14\",\"7\",\"P\",\"J\",\"86\"
\"\",\"\",\"approach-retreat\",\"235\",\"1697735\",\"0.0-235.0\",\"\",\"\",\"1-3\",\"5001\",\"39\",\"1\",\"Testing\",\"Stims/Figures/74-J-10-4.bmp\",\"nala:la\",\"Left\",\"39\",\"4\",\"15\",\"7\",\"S\",\"J\",\"87\"
\"\",\"\",\"approach-retreat\",\"236\",\"1703871\",\"0.0-236.0\",\"\",\"\",\"1-3\",\"4625\",\"37\",\"0\",\"Testing\",\"Stims/Figures/118-J-0-2.bmp\",\"pakaka\",\"Left\",\"39\",\"4\",\"16\",\"7\",\"P\",\"J\",\"88\"
\"\",\"\",\"approach-retreat\",\"237\",\"1710934\",\"0.0-237.0\",\"\",\"\",\"1-3\",\"5551\",\"40\",\"1\",\"Testing\",\"Stims/Figures/27-C-30-1.bmp\",\"papa:ta\",\"Down\",\"40\",\"4\",\"17\",\"7\",\"P\",\"J\",\"89\"
\"\",\"\",\"approach-retreat\",\"238\",\"1716483\",\"0.0-238.0\",\"\",\"\",\"1-3\",\"4038\",\"37\",\"0\",\"Testing\",\"Stims/Figures/71-C-30-1.bmp\",\"ta:kaka\",\"Right\",\"39\",\"4\",\"18\",\"7\",\"P\",\"J\",\"90\"
\"\",\"\",\"approach-retreat\",\"239\",\"1722740\",\"0.0-239.0\",\"\",\"\",\"1-3\",\"4745\",\"37\",\"1\",\"Testing\",\"Stims/Figures/87-J-10-4.bmp\",\"na:ma:la\",\"Right\",\"37\",\"4\",\"19\",\"7\",\"S\",\"J\",\"91\"
\"\",\"\",\"approach-retreat\",\"240\",\"1728639\",\"0.0-240.0\",\"\",\"\",\"1-3\",\"4388\",\"37\",\"1\",\"Testing\",\"Stims/Figures/100-C-30-3.bmp\",\"na:la:la\",\"Left\",\"37\",\"4\",\"20\",\"7\",\"S\",\"J\",\"92\"
\"\",\"\",\"approach-retreat\",\"241\",\"1734319\",\"0.0-241.0\",\"\",\"\",\"1-3\",\"4168\",\"40\",\"0\",\"Testing\",\"Stims/Figures/139-C-20-2.bmp\",\"takaka\",\"Up\",\"38\",\"4\",\"21\",\"7\",\"P\",\"J\",\"93\"
\"\",\"\",\"approach-retreat\",\"242\",\"1740145\",\"0.0-242.0\",\"\",\"\",\"1-3\",\"4314\",\"40\",\"0\",\"Testing\",\"Stims/Figures/102-C-20-4.bmp\",\"mala:na\",\"Up\",\"38\",\"4\",\"22\",\"7\",\"S\",\"J\",\"94\"
\"\",\"\",\"approach-retreat\",\"243\",\"1745834\",\"0.0-243.0\",\"\",\"\",\"1-3\",\"4178\",\"39\",\"0\",\"Testing\",\"Stims/Figures/57-J-0-1.bmp\",\"pa:pa:ka\",\"Right\",\"37\",\"4\",\"23\",\"7\",\"P\",\"J\",\"95\"
\"\",\"\",\"approach-retreat\",\"244\",\"1752112\",\"0.0-244.0\",\"\",\"\",\"1-3\",\"4767\",\"38\",\"1\",\"Testing\",\"Stims/Figures/74-C-20-4.bmp\",\"namana\",\"Up\",\"38\",\"4\",\"24\",\"7\",\"S\",\"J\",\"96\"
\"26227\",\"\",\"survey-text\",\"245\",\"1778347\",\"0.0-245.0\",\"\",\"{\"\"Q0\"\":\"\"PS160048\"\"}\",\"\",\"\",\"\",\"\",\"\",\"\",\"\",\"\",\"\",\"\",\"\",\"\",\"\",\"\",\"\"
