\"rt\",\"key_press\",\"trial_type\",\"trial_index\",\"time_elapsed\",\"internal_node_id\",\"view_history\",\"responses\",\"Id\",\"Rt\",\"ResKeyCode\",\"ResCorr\",\"TrialType2\",\"Image\",\"Label\",\"Location\",\"CorrectResponse\",\"Block\",\"BlockTrial\",\"Condition\",\"LabelType\",\"Subcondition\",\"trialNum\"
\"4695028\",\"32\",\"text\",\"0\",\"4695041\",\"0.0-0.0-0.0\",\"\",\"\",\"\",\"\",\"\",\"\",\"\",\"\",\"\",\"\",\"\",\"\",\"\",\"\",\"\",\"\",\"\"
\"69563\",\"\",\"instructions\",\"1\",\"4764617\",\"0.0-1.0\",\"[{\"\"page_index\"\":0,\"\"viewing_time\"\":69559}]\",\"\",\"\",\"\",\"\",\"\",\"\",\"\",\"\",\"\",\"\",\"\",\"\",\"\",\"\",\"\",\"\"
\"30577\",\"\",\"survey-multi-choice\",\"2\",\"4795271\",\"0.0-2.0\",\"\",\"{\"\"Q0\"\":\"\"Da\"\",\"\"Q1\"\":\"\"Da\"\",\"\"Q2\"\":\"\"Da\"\",\"\"Q3\"\":\"\"Da\"\",\"\"Q4\"\":\"\"Da\"\",\"\"Q5\"\":\"\"Da\"\"}\",\"\",\"\",\"\",\"\",\"\",\"\",\"\",\"\",\"\",\"\",\"\",\"\",\"\",\"\",\"\"
\"\",\"\",\"bio\",\"3\",\"4802215\",\"0.0-3.0\",\"\",\"{\"\"age\"\":\"\"21\"\",\"\"gender\"\":\"\"m\"\",\"\"specify\"\":\"\"\"\"}\",\"\",\"\",\"\",\"\",\"\",\"\",\"\",\"\",\"\",\"\",\"\",\"\",\"\",\"\",\"\"
\"\",\"\",\"approach-retreat\",\"4\",\"4810594\",\"0.0-4.0\",\"\",\"\",\"1-3\",\"6851\",\"40\",\"0\",\"Training\",\"Stims/Figures/44-C-30-3.bmp\",\"fafasha\",\"Up\",\"38\",\"1\",\"1\",\"3B\",\"C1\",\"J\",\"1\"
\"\",\"\",\"approach-retreat\",\"5\",\"4818255\",\"0.0-5.0\",\"\",\"\",\"1-3\",\"6143\",\"37\",\"0\",\"Training\",\"Stims/Figures/19-J-10-4.bmp\",\"za:sa:za\",\"Left\",\"39\",\"1\",\"2\",\"3B\",\"C2\",\"J\",\"2\"
\"\",\"\",\"approach-retreat\",\"6\",\"4826439\",\"0.0-6.0\",\"\",\"\",\"1-3\",\"6652\",\"37\",\"1\",\"Training\",\"Stims/Figures/19-C-20-4.bmp\",\"fafasha\",\"Left\",\"37\",\"1\",\"3\",\"3B\",\"C1\",\"J\",\"3\"
\"\",\"\",\"approach-retreat\",\"7\",\"4833237\",\"0.0-7.0\",\"\",\"\",\"1-3\",\"5275\",\"38\",\"1\",\"Training\",\"Stims/Figures/94-J-0-2.bmp\",\"za:sa:za\",\"Down\",\"38\",\"1\",\"4\",\"3B\",\"C2\",\"J\",\"4\"
\"\",\"\",\"approach-retreat\",\"8\",\"4839549\",\"0.0-8.0\",\"\",\"\",\"1-3\",\"4784\",\"37\",\"1\",\"Training\",\"Stims/Figures/102-J-10-4.bmp\",\"za:sa:za\",\"Right\",\"37\",\"1\",\"5\",\"3B\",\"C2\",\"J\",\"5\"
\"\",\"\",\"approach-retreat\",\"9\",\"4845275\",\"0.0-9.0\",\"\",\"\",\"1-3\",\"4215\",\"37\",\"1\",\"Training\",\"Stims/Figures/57-C-30-1.bmp\",\"fafasha\",\"Left\",\"37\",\"1\",\"6\",\"3B\",\"C1\",\"J\",\"6\"
\"\",\"\",\"approach-retreat\",\"10\",\"4851157\",\"0.0-10.0\",\"\",\"\",\"1-3\",\"4360\",\"37\",\"1\",\"Training\",\"Stims/Figures/84-C-20-2.bmp\",\"fafasha\",\"Left\",\"37\",\"1\",\"7\",\"3B\",\"C1\",\"J\",\"7\"
\"\",\"\",\"approach-retreat\",\"11\",\"4856894\",\"0.0-11.0\",\"\",\"\",\"1-3\",\"4227\",\"38\",\"1\",\"Training\",\"Stims/Figures/94-C-20-2.bmp\",\"fafasha\",\"Up\",\"38\",\"1\",\"8\",\"3B\",\"C1\",\"J\",\"8\"
\"\",\"\",\"approach-retreat\",\"12\",\"4862988\",\"0.0-12.0\",\"\",\"\",\"1-3\",\"4572\",\"38\",\"1\",\"Training\",\"Stims/Figures/44-J-10-3.bmp\",\"za:sa:za\",\"Down\",\"38\",\"1\",\"9\",\"3B\",\"C2\",\"J\",\"9\"
\"\",\"\",\"approach-retreat\",\"13\",\"4868625\",\"0.0-13.0\",\"\",\"\",\"1-3\",\"4113\",\"40\",\"1\",\"Training\",\"Stims/Figures/71-J-0-1.bmp\",\"za:sa:za\",\"Up\",\"40\",\"1\",\"10\",\"3B\",\"C2\",\"J\",\"10\"
\"\",\"\",\"approach-retreat\",\"14\",\"4874296\",\"0.0-14.0\",\"\",\"\",\"1-3\",\"4147\",\"39\",\"1\",\"Training\",\"Stims/Figures/71-C-30-1.bmp\",\"fafasha\",\"Right\",\"39\",\"1\",\"11\",\"3B\",\"C1\",\"J\",\"11\"
\"\",\"\",\"approach-retreat\",\"15\",\"4880014\",\"0.0-15.0\",\"\",\"\",\"1-3\",\"4201\",\"38\",\"1\",\"Training\",\"Stims/Figures/84-J-0-2.bmp\",\"za:sa:za\",\"Down\",\"38\",\"1\",\"12\",\"3B\",\"C2\",\"J\",\"12\"
\"\",\"\",\"approach-retreat\",\"16\",\"4885596\",\"0.0-16.0\",\"\",\"\",\"1-3\",\"4067\",\"37\",\"1\",\"Training\",\"Stims/Figures/57-J-0-1.bmp\",\"za:sa:za\",\"Right\",\"37\",\"1\",\"13\",\"3B\",\"C2\",\"J\",\"13\"
\"\",\"\",\"approach-retreat\",\"17\",\"4891188\",\"0.0-17.0\",\"\",\"\",\"1-3\",\"4072\",\"40\",\"0\",\"Training\",\"Stims/Figures/111-C-30-3.bmp\",\"fafasha\",\"Up\",\"38\",\"1\",\"14\",\"3B\",\"C1\",\"J\",\"14\"
\"\",\"\",\"approach-retreat\",\"18\",\"4896755\",\"0.0-18.0\",\"\",\"\",\"1-3\",\"4049\",\"38\",\"1\",\"Training\",\"Stims/Figures/111-J-10-3.bmp\",\"za:sa:za\",\"Down\",\"38\",\"1\",\"15\",\"3B\",\"C2\",\"J\",\"15\"
\"\",\"\",\"approach-retreat\",\"19\",\"4902502\",\"0.0-19.0\",\"\",\"\",\"1-3\",\"4227\",\"39\",\"1\",\"Training\",\"Stims/Figures/102-C-20-4.bmp\",\"fafasha\",\"Right\",\"39\",\"1\",\"16\",\"3B\",\"C1\",\"J\",\"16\"
\"\",\"\",\"approach-retreat\",\"20\",\"4908136\",\"0.0-20.0\",\"\",\"\",\"1-3\",\"4112\",\"38\",\"0\",\"Training\",\"Stims/Figures/19-J-10-4.bmp\",\"za:sa:za\",\"Up\",\"40\",\"2\",\"1\",\"3B\",\"C2\",\"J\",\"17\"
\"\",\"\",\"approach-retreat\",\"21\",\"4913866\",\"0.0-21.0\",\"\",\"\",\"1-3\",\"4211\",\"40\",\"1\",\"Training\",\"Stims/Figures/19-C-20-4.bmp\",\"fafasha\",\"Down\",\"40\",\"2\",\"2\",\"3B\",\"C1\",\"J\",\"18\"
\"\",\"\",\"approach-retreat\",\"22\",\"4919400\",\"0.0-22.0\",\"\",\"\",\"1-3\",\"4017\",\"40\",\"1\",\"Training\",\"Stims/Figures/57-J-0-1.bmp\",\"za:sa:za\",\"Up\",\"40\",\"2\",\"3\",\"3B\",\"C2\",\"J\",\"19\"
\"\",\"\",\"approach-retreat\",\"23\",\"4925004\",\"0.0-23.0\",\"\",\"\",\"1-3\",\"4075\",\"37\",\"1\",\"Training\",\"Stims/Figures/111-J-10-3.bmp\",\"za:sa:za\",\"Right\",\"37\",\"2\",\"4\",\"3B\",\"C2\",\"J\",\"20\"
\"\",\"\",\"approach-retreat\",\"24\",\"4930865\",\"0.0-24.0\",\"\",\"\",\"1-3\",\"4337\",\"40\",\"1\",\"Training\",\"Stims/Figures/57-C-30-1.bmp\",\"fafasha\",\"Down\",\"40\",\"2\",\"5\",\"3B\",\"C1\",\"J\",\"21\"
\"\",\"\",\"approach-retreat\",\"25\",\"4936533\",\"0.0-25.0\",\"\",\"\",\"1-3\",\"4147\",\"37\",\"1\",\"Training\",\"Stims/Figures/84-C-20-2.bmp\",\"fafasha\",\"Left\",\"37\",\"2\",\"6\",\"3B\",\"C1\",\"J\",\"22\"
\"\",\"\",\"approach-retreat\",\"26\",\"4942268\",\"0.0-26.0\",\"\",\"\",\"1-3\",\"4205\",\"38\",\"1\",\"Training\",\"Stims/Figures/94-J-0-2.bmp\",\"za:sa:za\",\"Down\",\"38\",\"2\",\"7\",\"3B\",\"C2\",\"J\",\"23\"
\"\",\"\",\"approach-retreat\",\"27\",\"4949075\",\"0.0-27.0\",\"\",\"\",\"1-3\",\"5280\",\"39\",\"0\",\"Training\",\"Stims/Figures/102-J-10-4.bmp\",\"za:sa:za\",\"Right\",\"37\",\"2\",\"8\",\"3B\",\"C2\",\"J\",\"24\"
\"\",\"\",\"approach-retreat\",\"28\",\"4954744\",\"0.0-28.0\",\"\",\"\",\"1-3\",\"4150\",\"39\",\"1\",\"Training\",\"Stims/Figures/102-C-20-4.bmp\",\"fafasha\",\"Right\",\"39\",\"2\",\"9\",\"3B\",\"C1\",\"J\",\"25\"
\"\",\"\",\"approach-retreat\",\"29\",\"4960321\",\"0.0-29.0\",\"\",\"\",\"1-3\",\"4056\",\"38\",\"1\",\"Training\",\"Stims/Figures/44-C-30-3.bmp\",\"fafasha\",\"Up\",\"38\",\"2\",\"10\",\"3B\",\"C1\",\"J\",\"26\"
\"\",\"\",\"approach-retreat\",\"30\",\"4966936\",\"0.0-30.0\",\"\",\"\",\"1-3\",\"5094\",\"39\",\"1\",\"Training\",\"Stims/Figures/71-J-0-1.bmp\",\"za:sa:za\",\"Left\",\"39\",\"2\",\"11\",\"3B\",\"C2\",\"J\",\"27\"
\"\",\"\",\"approach-retreat\",\"31\",\"4974119\",\"0.0-31.0\",\"\",\"\",\"1-3\",\"5648\",\"39\",\"0\",\"Training\",\"Stims/Figures/44-J-10-3.bmp\",\"za:sa:za\",\"Right\",\"37\",\"2\",\"12\",\"3B\",\"C2\",\"J\",\"28\"
\"\",\"\",\"approach-retreat\",\"32\",\"4980053\",\"0.0-32.0\",\"\",\"\",\"1-3\",\"4417\",\"37\",\"1\",\"Training\",\"Stims/Figures/71-C-30-1.bmp\",\"fafasha\",\"Left\",\"37\",\"2\",\"13\",\"3B\",\"C1\",\"J\",\"29\"
\"\",\"\",\"approach-retreat\",\"33\",\"4987048\",\"0.0-33.0\",\"\",\"\",\"1-3\",\"5474\",\"38\",\"1\",\"Training\",\"Stims/Figures/94-C-20-2.bmp\",\"fafasha\",\"Up\",\"38\",\"2\",\"14\",\"3B\",\"C1\",\"J\",\"30\"
\"\",\"\",\"approach-retreat\",\"34\",\"4992850\",\"0.0-34.0\",\"\",\"\",\"1-3\",\"4281\",\"40\",\"1\",\"Training\",\"Stims/Figures/111-C-30-3.bmp\",\"fafasha\",\"Down\",\"40\",\"2\",\"15\",\"3B\",\"C1\",\"J\",\"31\"
\"\",\"\",\"approach-retreat\",\"35\",\"4998812\",\"0.0-35.0\",\"\",\"\",\"1-3\",\"4443\",\"39\",\"1\",\"Training\",\"Stims/Figures/84-J-0-2.bmp\",\"za:sa:za\",\"Left\",\"39\",\"2\",\"16\",\"3B\",\"C2\",\"J\",\"32\"
\"\",\"\",\"approach-retreat\",\"36\",\"5004529\",\"0.0-36.0\",\"\",\"\",\"1-3\",\"4191\",\"37\",\"1\",\"Training\",\"Stims/Figures/57-J-0-1.bmp\",\"za:sa:za\",\"Right\",\"37\",\"3\",\"1\",\"3B\",\"C2\",\"J\",\"33\"
\"\",\"\",\"approach-retreat\",\"37\",\"5010367\",\"0.0-37.0\",\"\",\"\",\"1-3\",\"4314\",\"37\",\"1\",\"Training\",\"Stims/Figures/19-C-20-4.bmp\",\"fafasha\",\"Left\",\"37\",\"3\",\"2\",\"3B\",\"C1\",\"J\",\"34\"
\"\",\"\",\"approach-retreat\",\"38\",\"5016238\",\"0.0-38.0\",\"\",\"\",\"1-3\",\"4349\",\"40\",\"1\",\"Training\",\"Stims/Figures/84-C-20-2.bmp\",\"fafasha\",\"Down\",\"40\",\"3\",\"3\",\"3B\",\"C1\",\"J\",\"35\"
\"\",\"\",\"approach-retreat\",\"39\",\"5021732\",\"0.0-39.0\",\"\",\"\",\"1-3\",\"3973\",\"40\",\"1\",\"Training\",\"Stims/Figures/111-C-30-3.bmp\",\"fafasha\",\"Down\",\"40\",\"3\",\"4\",\"3B\",\"C1\",\"J\",\"36\"
\"\",\"\",\"approach-retreat\",\"40\",\"5027332\",\"0.0-40.0\",\"\",\"\",\"1-3\",\"4079\",\"39\",\"1\",\"Training\",\"Stims/Figures/44-C-30-3.bmp\",\"fafasha\",\"Right\",\"39\",\"3\",\"5\",\"3B\",\"C1\",\"J\",\"37\"
\"\",\"\",\"approach-retreat\",\"41\",\"5032893\",\"0.0-41.0\",\"\",\"\",\"1-3\",\"4040\",\"37\",\"1\",\"Training\",\"Stims/Figures/57-C-30-1.bmp\",\"fafasha\",\"Left\",\"37\",\"3\",\"6\",\"3B\",\"C1\",\"J\",\"38\"
\"\",\"\",\"approach-retreat\",\"42\",\"5038377\",\"0.0-42.0\",\"\",\"\",\"1-3\",\"3962\",\"38\",\"1\",\"Training\",\"Stims/Figures/71-C-30-1.bmp\",\"fafasha\",\"Up\",\"38\",\"3\",\"7\",\"3B\",\"C1\",\"J\",\"39\"
\"\",\"\",\"approach-retreat\",\"43\",\"5044392\",\"0.0-43.0\",\"\",\"\",\"1-3\",\"4495\",\"38\",\"1\",\"Training\",\"Stims/Figures/84-J-0-2.bmp\",\"za:sa:za\",\"Down\",\"38\",\"3\",\"8\",\"3B\",\"C2\",\"J\",\"40\"
\"\",\"\",\"approach-retreat\",\"44\",\"5050078\",\"0.0-44.0\",\"\",\"\",\"1-3\",\"4168\",\"40\",\"1\",\"Training\",\"Stims/Figures/94-J-0-2.bmp\",\"za:sa:za\",\"Up\",\"40\",\"3\",\"9\",\"3B\",\"C2\",\"J\",\"41\"
\"\",\"\",\"approach-retreat\",\"45\",\"5055580\",\"0.0-45.0\",\"\",\"\",\"1-3\",\"3983\",\"37\",\"1\",\"Training\",\"Stims/Figures/44-J-10-3.bmp\",\"za:sa:za\",\"Right\",\"37\",\"3\",\"10\",\"3B\",\"C2\",\"J\",\"42\"
\"\",\"\",\"approach-retreat\",\"46\",\"5061212\",\"0.0-46.0\",\"\",\"\",\"1-3\",\"4110\",\"37\",\"1\",\"Training\",\"Stims/Figures/94-C-20-2.bmp\",\"fafasha\",\"Left\",\"37\",\"3\",\"11\",\"3B\",\"C1\",\"J\",\"43\"
\"\",\"\",\"approach-retreat\",\"47\",\"5068143\",\"0.0-47.0\",\"\",\"\",\"1-3\",\"5409\",\"37\",\"1\",\"Training\",\"Stims/Figures/19-J-10-4.bmp\",\"za:sa:za\",\"Right\",\"37\",\"3\",\"12\",\"3B\",\"C2\",\"J\",\"44\"
\"\",\"\",\"approach-retreat\",\"48\",\"5073938\",\"0.0-48.0\",\"\",\"\",\"1-3\",\"4273\",\"40\",\"1\",\"Training\",\"Stims/Figures/71-J-0-1.bmp\",\"za:sa:za\",\"Up\",\"40\",\"3\",\"13\",\"3B\",\"C2\",\"J\",\"45\"
\"\",\"\",\"approach-retreat\",\"49\",\"5079699\",\"0.0-49.0\",\"\",\"\",\"1-3\",\"4235\",\"39\",\"1\",\"Training\",\"Stims/Figures/102-J-10-4.bmp\",\"za:sa:za\",\"Left\",\"39\",\"3\",\"14\",\"3B\",\"C2\",\"J\",\"46\"
\"\",\"\",\"approach-retreat\",\"50\",\"5085325\",\"0.0-50.0\",\"\",\"\",\"1-3\",\"4102\",\"40\",\"1\",\"Training\",\"Stims/Figures/102-C-20-4.bmp\",\"fafasha\",\"Down\",\"40\",\"3\",\"15\",\"3B\",\"C1\",\"J\",\"47\"
\"\",\"\",\"approach-retreat\",\"51\",\"5091507\",\"0.0-51.0\",\"\",\"\",\"1-3\",\"4652\",\"40\",\"1\",\"Training\",\"Stims/Figures/111-J-10-3.bmp\",\"za:sa:za\",\"Up\",\"40\",\"3\",\"16\",\"3B\",\"C2\",\"J\",\"48\"
\"\",\"\",\"approach-retreat\",\"52\",\"5097935\",\"0.0-52.0\",\"\",\"\",\"1-3\",\"4901\",\"37\",\"1\",\"Training\",\"Stims/Figures/94-C-20-2.bmp\",\"fafasha\",\"Left\",\"37\",\"4\",\"1\",\"3B\",\"C1\",\"J\",\"49\"
\"\",\"\",\"approach-retreat\",\"53\",\"5103952\",\"0.0-53.0\",\"\",\"\",\"1-3\",\"4490\",\"37\",\"1\",\"Training\",\"Stims/Figures/102-J-10-4.bmp\",\"za:sa:za\",\"Right\",\"37\",\"4\",\"2\",\"3B\",\"C2\",\"J\",\"50\"
\"\",\"\",\"approach-retreat\",\"54\",\"5109667\",\"0.0-54.0\",\"\",\"\",\"1-3\",\"4184\",\"40\",\"1\",\"Training\",\"Stims/Figures/102-C-20-4.bmp\",\"fafasha\",\"Down\",\"40\",\"4\",\"3\",\"3B\",\"C1\",\"J\",\"51\"
\"\",\"\",\"approach-retreat\",\"55\",\"5115482\",\"0.0-55.0\",\"\",\"\",\"1-3\",\"4295\",\"38\",\"1\",\"Training\",\"Stims/Figures/94-J-0-2.bmp\",\"za:sa:za\",\"Down\",\"38\",\"4\",\"4\",\"3B\",\"C2\",\"J\",\"52\"
\"\",\"\",\"approach-retreat\",\"56\",\"5121105\",\"0.0-56.0\",\"\",\"\",\"1-3\",\"4105\",\"37\",\"1\",\"Training\",\"Stims/Figures/57-J-0-1.bmp\",\"za:sa:za\",\"Right\",\"37\",\"4\",\"5\",\"3B\",\"C2\",\"J\",\"53\"
\"\",\"\",\"approach-retreat\",\"57\",\"5127138\",\"0.0-57.0\",\"\",\"\",\"1-3\",\"4498\",\"37\",\"1\",\"Training\",\"Stims/Figures/44-C-30-3.bmp\",\"fafasha\",\"Left\",\"37\",\"4\",\"6\",\"3B\",\"C1\",\"J\",\"54\"
\"\",\"\",\"approach-retreat\",\"58\",\"5133192\",\"0.0-58.0\",\"\",\"\",\"1-3\",\"4533\",\"37\",\"1\",\"Training\",\"Stims/Figures/84-C-20-2.bmp\",\"fafasha\",\"Left\",\"37\",\"4\",\"7\",\"3B\",\"C1\",\"J\",\"55\"
\"\",\"\",\"approach-retreat\",\"59\",\"5139125\",\"0.0-59.0\",\"\",\"\",\"1-3\",\"4411\",\"40\",\"1\",\"Training\",\"Stims/Figures/111-J-10-3.bmp\",\"za:sa:za\",\"Up\",\"40\",\"4\",\"8\",\"3B\",\"C2\",\"J\",\"56\"
\"\",\"\",\"approach-retreat\",\"60\",\"5144897\",\"0.0-60.0\",\"\",\"\",\"1-3\",\"4250\",\"39\",\"1\",\"Training\",\"Stims/Figures/84-J-0-2.bmp\",\"za:sa:za\",\"Left\",\"39\",\"4\",\"9\",\"3B\",\"C2\",\"J\",\"57\"
\"\",\"\",\"approach-retreat\",\"61\",\"5151014\",\"0.0-61.0\",\"\",\"\",\"1-3\",\"4597\",\"38\",\"1\",\"Training\",\"Stims/Figures/71-C-30-1.bmp\",\"fafasha\",\"Up\",\"38\",\"4\",\"10\",\"3B\",\"C1\",\"J\",\"58\"
\"\",\"\",\"approach-retreat\",\"62\",\"5156700\",\"0.0-62.0\",\"\",\"\",\"1-3\",\"4165\",\"38\",\"1\",\"Training\",\"Stims/Figures/57-C-30-1.bmp\",\"fafasha\",\"Up\",\"38\",\"4\",\"11\",\"3B\",\"C1\",\"J\",\"59\"
\"\",\"\",\"approach-retreat\",\"63\",\"5162118\",\"0.0-63.0\",\"\",\"\",\"1-3\",\"3901\",\"40\",\"1\",\"Training\",\"Stims/Figures/19-J-10-4.bmp\",\"za:sa:za\",\"Up\",\"40\",\"4\",\"12\",\"3B\",\"C2\",\"J\",\"60\"
\"\",\"\",\"approach-retreat\",\"64\",\"5167796\",\"0.0-64.0\",\"\",\"\",\"1-3\",\"4146\",\"40\",\"1\",\"Training\",\"Stims/Figures/19-C-20-4.bmp\",\"fafasha\",\"Down\",\"40\",\"4\",\"13\",\"3B\",\"C1\",\"J\",\"61\"
\"\",\"\",\"approach-retreat\",\"65\",\"5173681\",\"0.0-65.0\",\"\",\"\",\"1-3\",\"4355\",\"38\",\"1\",\"Training\",\"Stims/Figures/71-J-0-1.bmp\",\"za:sa:za\",\"Down\",\"38\",\"4\",\"14\",\"3B\",\"C2\",\"J\",\"62\"
\"\",\"\",\"approach-retreat\",\"66\",\"5179426\",\"0.0-66.0\",\"\",\"\",\"1-3\",\"4223\",\"37\",\"1\",\"Training\",\"Stims/Figures/44-J-10-3.bmp\",\"za:sa:za\",\"Right\",\"37\",\"4\",\"15\",\"3B\",\"C2\",\"J\",\"63\"
\"\",\"\",\"approach-retreat\",\"67\",\"5185073\",\"0.0-67.0\",\"\",\"\",\"1-3\",\"4113\",\"39\",\"1\",\"Training\",\"Stims/Figures/111-C-30-3.bmp\",\"fafasha\",\"Right\",\"39\",\"4\",\"16\",\"3B\",\"C1\",\"J\",\"64\"
\"\",\"\",\"approach-retreat\",\"68\",\"5190916\",\"0.0-68.0\",\"\",\"\",\"1-3\",\"4326\",\"37\",\"1\",\"Training\",\"Stims/Figures/19-C-20-4.bmp\",\"fafasha\",\"Left\",\"37\",\"5\",\"1\",\"3B\",\"C1\",\"J\",\"65\"
\"\",\"\",\"approach-retreat\",\"69\",\"5196470\",\"0.0-69.0\",\"\",\"\",\"1-3\",\"4033\",\"38\",\"1\",\"Training\",\"Stims/Figures/57-C-30-1.bmp\",\"fafasha\",\"Up\",\"38\",\"5\",\"2\",\"3B\",\"C1\",\"J\",\"66\"
\"\",\"\",\"approach-retreat\",\"70\",\"5202120\",\"0.0-70.0\",\"\",\"\",\"1-3\",\"4127\",\"40\",\"1\",\"Training\",\"Stims/Figures/94-C-20-2.bmp\",\"fafasha\",\"Down\",\"40\",\"5\",\"3\",\"3B\",\"C1\",\"J\",\"67\"
\"\",\"\",\"approach-retreat\",\"71\",\"5208102\",\"0.0-71.0\",\"\",\"\",\"1-3\",\"4456\",\"40\",\"1\",\"Training\",\"Stims/Figures/111-J-10-3.bmp\",\"za:sa:za\",\"Up\",\"40\",\"5\",\"4\",\"3B\",\"C2\",\"J\",\"68\"
\"\",\"\",\"approach-retreat\",\"72\",\"5213950\",\"0.0-72.0\",\"\",\"\",\"1-3\",\"4326\",\"40\",\"1\",\"Training\",\"Stims/Figures/102-C-20-4.bmp\",\"fafasha\",\"Down\",\"40\",\"5\",\"5\",\"3B\",\"C1\",\"J\",\"69\"
\"\",\"\",\"approach-retreat\",\"73\",\"5219452\",\"0.0-73.0\",\"\",\"\",\"1-3\",\"3981\",\"38\",\"1\",\"Training\",\"Stims/Figures/44-C-30-3.bmp\",\"fafasha\",\"Up\",\"38\",\"5\",\"6\",\"3B\",\"C1\",\"J\",\"70\"
\"\",\"\",\"approach-retreat\",\"74\",\"5225134\",\"0.0-74.0\",\"\",\"\",\"1-3\",\"4161\",\"39\",\"1\",\"Training\",\"Stims/Figures/94-J-0-2.bmp\",\"za:sa:za\",\"Left\",\"39\",\"5\",\"7\",\"3B\",\"C2\",\"J\",\"71\"
\"\",\"\",\"approach-retreat\",\"75\",\"5230832\",\"0.0-75.0\",\"\",\"\",\"1-3\",\"4169\",\"37\",\"1\",\"Training\",\"Stims/Figures/57-J-0-1.bmp\",\"za:sa:za\",\"Right\",\"37\",\"5\",\"8\",\"3B\",\"C2\",\"J\",\"72\"
\"\",\"\",\"approach-retreat\",\"76\",\"5236446\",\"0.0-76.0\",\"\",\"\",\"1-3\",\"4088\",\"37\",\"1\",\"Training\",\"Stims/Figures/44-J-10-3.bmp\",\"za:sa:za\",\"Right\",\"37\",\"5\",\"9\",\"3B\",\"C2\",\"J\",\"73\"
\"\",\"\",\"approach-retreat\",\"77\",\"5241930\",\"0.0-77.0\",\"\",\"\",\"1-3\",\"3955\",\"37\",\"1\",\"Training\",\"Stims/Figures/84-J-0-2.bmp\",\"za:sa:za\",\"Right\",\"37\",\"5\",\"10\",\"3B\",\"C2\",\"J\",\"74\"
\"\",\"\",\"approach-retreat\",\"78\",\"5247686\",\"0.0-78.0\",\"\",\"\",\"1-3\",\"4227\",\"38\",\"1\",\"Training\",\"Stims/Figures/71-C-30-1.bmp\",\"fafasha\",\"Up\",\"38\",\"5\",\"11\",\"3B\",\"C1\",\"J\",\"75\"
\"\",\"\",\"approach-retreat\",\"79\",\"5253291\",\"0.0-79.0\",\"\",\"\",\"1-3\",\"4074\",\"37\",\"1\",\"Training\",\"Stims/Figures/84-C-20-2.bmp\",\"fafasha\",\"Left\",\"37\",\"5\",\"12\",\"3B\",\"C1\",\"J\",\"76\"
\"\",\"\",\"approach-retreat\",\"80\",\"5258987\",\"0.0-80.0\",\"\",\"\",\"1-3\",\"4161\",\"38\",\"1\",\"Training\",\"Stims/Figures/102-J-10-4.bmp\",\"za:sa:za\",\"Down\",\"38\",\"5\",\"13\",\"3B\",\"C2\",\"J\",\"77\"
\"\",\"\",\"approach-retreat\",\"81\",\"5264796\",\"0.0-81.0\",\"\",\"\",\"1-3\",\"4290\",\"39\",\"1\",\"Training\",\"Stims/Figures/111-C-30-3.bmp\",\"fafasha\",\"Right\",\"39\",\"5\",\"14\",\"3B\",\"C1\",\"J\",\"78\"
\"\",\"\",\"approach-retreat\",\"82\",\"5270967\",\"0.0-82.0\",\"\",\"\",\"1-3\",\"4653\",\"39\",\"1\",\"Training\",\"Stims/Figures/71-J-0-1.bmp\",\"za:sa:za\",\"Left\",\"39\",\"5\",\"15\",\"3B\",\"C2\",\"J\",\"79\"
\"\",\"\",\"approach-retreat\",\"83\",\"5277187\",\"0.0-83.0\",\"\",\"\",\"1-3\",\"4703\",\"38\",\"1\",\"Training\",\"Stims/Figures/19-J-10-4.bmp\",\"za:sa:za\",\"Down\",\"38\",\"5\",\"16\",\"3B\",\"C2\",\"J\",\"80\"
\"\",\"\",\"approach-retreat\",\"84\",\"5283198\",\"0.0-84.0\",\"\",\"\",\"1-3\",\"4489\",\"37\",\"1\",\"Training\",\"Stims/Figures/71-C-30-1.bmp\",\"fafasha\",\"Left\",\"37\",\"6\",\"1\",\"3B\",\"C1\",\"J\",\"81\"
\"\",\"\",\"approach-retreat\",\"85\",\"5289711\",\"0.0-85.0\",\"\",\"\",\"1-3\",\"4992\",\"39\",\"1\",\"Training\",\"Stims/Figures/71-J-0-1.bmp\",\"za:sa:za\",\"Left\",\"39\",\"6\",\"2\",\"3B\",\"C2\",\"J\",\"82\"
\"\",\"\",\"approach-retreat\",\"86\",\"5295513\",\"0.0-86.0\",\"\",\"\",\"1-3\",\"4280\",\"40\",\"1\",\"Training\",\"Stims/Figures/44-C-30-3.bmp\",\"fafasha\",\"Down\",\"40\",\"6\",\"3\",\"3B\",\"C1\",\"J\",\"83\"
\"\",\"\",\"approach-retreat\",\"87\",\"5301257\",\"0.0-87.0\",\"\",\"\",\"1-3\",\"4217\",\"39\",\"1\",\"Training\",\"Stims/Figures/57-C-30-1.bmp\",\"fafasha\",\"Right\",\"39\",\"6\",\"4\",\"3B\",\"C1\",\"J\",\"84\"
\"\",\"\",\"approach-retreat\",\"88\",\"5307289\",\"0.0-88.0\",\"\",\"\",\"1-3\",\"4509\",\"38\",\"1\",\"Training\",\"Stims/Figures/102-J-10-4.bmp\",\"za:sa:za\",\"Down\",\"38\",\"6\",\"5\",\"3B\",\"C2\",\"J\",\"85\"
\"\",\"\",\"approach-retreat\",\"89\",\"5312734\",\"0.0-89.0\",\"\",\"\",\"1-3\",\"3912\",\"40\",\"1\",\"Training\",\"Stims/Figures/94-J-0-2.bmp\",\"za:sa:za\",\"Up\",\"40\",\"6\",\"6\",\"3B\",\"C2\",\"J\",\"86\"
\"\",\"\",\"approach-retreat\",\"90\",\"5318350\",\"0.0-90.0\",\"\",\"\",\"1-3\",\"4090\",\"39\",\"1\",\"Training\",\"Stims/Figures/19-C-20-4.bmp\",\"fafasha\",\"Right\",\"39\",\"6\",\"7\",\"3B\",\"C1\",\"J\",\"87\"
\"\",\"\",\"approach-retreat\",\"91\",\"5324281\",\"0.0-91.0\",\"\",\"\",\"1-3\",\"4411\",\"39\",\"1\",\"Training\",\"Stims/Figures/94-C-20-2.bmp\",\"fafasha\",\"Right\",\"39\",\"6\",\"8\",\"3B\",\"C1\",\"J\",\"88\"
\"\",\"\",\"approach-retreat\",\"92\",\"5329945\",\"0.0-92.0\",\"\",\"\",\"1-3\",\"4147\",\"40\",\"1\",\"Training\",\"Stims/Figures/84-C-20-2.bmp\",\"fafasha\",\"Down\",\"40\",\"6\",\"9\",\"3B\",\"C1\",\"J\",\"89\"
\"\",\"\",\"approach-retreat\",\"93\",\"5335682\",\"0.0-93.0\",\"\",\"\",\"1-3\",\"4209\",\"37\",\"1\",\"Training\",\"Stims/Figures/111-J-10-3.bmp\",\"za:sa:za\",\"Right\",\"37\",\"6\",\"10\",\"3B\",\"C2\",\"J\",\"90\"
\"\",\"\",\"approach-retreat\",\"94\",\"5341299\",\"0.0-94.0\",\"\",\"\",\"1-3\",\"4096\",\"38\",\"1\",\"Training\",\"Stims/Figures/102-C-20-4.bmp\",\"fafasha\",\"Up\",\"38\",\"6\",\"11\",\"3B\",\"C1\",\"J\",\"91\"
\"\",\"\",\"approach-retreat\",\"95\",\"5346902\",\"0.0-95.0\",\"\",\"\",\"1-3\",\"4077\",\"39\",\"1\",\"Training\",\"Stims/Figures/44-J-10-3.bmp\",\"za:sa:za\",\"Left\",\"39\",\"6\",\"12\",\"3B\",\"C2\",\"J\",\"92\"
\"\",\"\",\"approach-retreat\",\"96\",\"5352506\",\"0.0-96.0\",\"\",\"\",\"1-3\",\"4079\",\"38\",\"1\",\"Training\",\"Stims/Figures/19-J-10-4.bmp\",\"za:sa:za\",\"Down\",\"38\",\"6\",\"13\",\"3B\",\"C2\",\"J\",\"93\"
\"\",\"\",\"approach-retreat\",\"97\",\"5358690\",\"0.0-97.0\",\"\",\"\",\"1-3\",\"4663\",\"40\",\"1\",\"Training\",\"Stims/Figures/57-J-0-1.bmp\",\"za:sa:za\",\"Up\",\"40\",\"6\",\"14\",\"3B\",\"C2\",\"J\",\"94\"
\"\",\"\",\"approach-retreat\",\"98\",\"5364111\",\"0.0-98.0\",\"\",\"\",\"1-3\",\"3900\",\"40\",\"1\",\"Training\",\"Stims/Figures/84-J-0-2.bmp\",\"za:sa:za\",\"Up\",\"40\",\"6\",\"15\",\"3B\",\"C2\",\"J\",\"95\"
\"\",\"\",\"approach-retreat\",\"99\",\"5369714\",\"0.0-99.0\",\"\",\"\",\"1-3\",\"4082\",\"37\",\"1\",\"Training\",\"Stims/Figures/111-C-30-3.bmp\",\"fafasha\",\"Left\",\"37\",\"6\",\"16\",\"3B\",\"C1\",\"J\",\"96\"
\"\",\"\",\"approach-retreat\",\"100\",\"5375278\",\"0.0-100.0\",\"\",\"\",\"1-3\",\"4029\",\"40\",\"1\",\"Training\",\"Stims/Figures/102-C-20-4.bmp\",\"fafasha\",\"Down\",\"40\",\"7\",\"1\",\"3B\",\"C1\",\"J\",\"97\"
\"\",\"\",\"approach-retreat\",\"101\",\"5380971\",\"0.0-101.0\",\"\",\"\",\"1-3\",\"4166\",\"38\",\"1\",\"Training\",\"Stims/Figures/111-C-30-3.bmp\",\"fafasha\",\"Up\",\"38\",\"7\",\"2\",\"3B\",\"C1\",\"J\",\"98\"
\"\",\"\",\"approach-retreat\",\"102\",\"5387032\",\"0.0-102.0\",\"\",\"\",\"1-3\",\"4539\",\"37\",\"1\",\"Training\",\"Stims/Figures/19-J-10-4.bmp\",\"za:sa:za\",\"Right\",\"37\",\"7\",\"3\",\"3B\",\"C2\",\"J\",\"99\"
\"\",\"\",\"approach-retreat\",\"103\",\"5392739\",\"0.0-103.0\",\"\",\"\",\"1-3\",\"4189\",\"40\",\"1\",\"Training\",\"Stims/Figures/71-J-0-1.bmp\",\"za:sa:za\",\"Up\",\"40\",\"7\",\"4\",\"3B\",\"C2\",\"J\",\"100\"
\"\",\"\",\"approach-retreat\",\"104\",\"5398441\",\"0.0-104.0\",\"\",\"\",\"1-3\",\"4174\",\"37\",\"1\",\"Training\",\"Stims/Figures/44-C-30-3.bmp\",\"fafasha\",\"Left\",\"37\",\"7\",\"5\",\"3B\",\"C1\",\"J\",\"101\"
\"\",\"\",\"approach-retreat\",\"105\",\"5404161\",\"0.0-105.0\",\"\",\"\",\"1-3\",\"4200\",\"37\",\"1\",\"Training\",\"Stims/Figures/94-C-20-2.bmp\",\"fafasha\",\"Left\",\"37\",\"7\",\"6\",\"3B\",\"C1\",\"J\",\"102\"
\"\",\"\",\"approach-retreat\",\"106\",\"5409799\",\"0.0-106.0\",\"\",\"\",\"1-3\",\"4120\",\"39\",\"1\",\"Training\",\"Stims/Figures/94-J-0-2.bmp\",\"za:sa:za\",\"Left\",\"39\",\"7\",\"7\",\"3B\",\"C2\",\"J\",\"103\"
\"\",\"\",\"approach-retreat\",\"107\",\"5415371\",\"0.0-107.0\",\"\",\"\",\"1-3\",\"4037\",\"39\",\"1\",\"Training\",\"Stims/Figures/19-C-20-4.bmp\",\"fafasha\",\"Right\",\"39\",\"7\",\"8\",\"3B\",\"C1\",\"J\",\"104\"
\"\",\"\",\"approach-retreat\",\"108\",\"5420874\",\"0.0-108.0\",\"\",\"\",\"1-3\",\"3967\",\"40\",\"1\",\"Training\",\"Stims/Figures/84-J-0-2.bmp\",\"za:sa:za\",\"Up\",\"40\",\"7\",\"9\",\"3B\",\"C2\",\"J\",\"105\"
\"\",\"\",\"approach-retreat\",\"109\",\"5426665\",\"0.0-109.0\",\"\",\"\",\"1-3\",\"4261\",\"38\",\"1\",\"Training\",\"Stims/Figures/44-J-10-3.bmp\",\"za:sa:za\",\"Down\",\"38\",\"7\",\"10\",\"3B\",\"C2\",\"J\",\"106\"
\"\",\"\",\"approach-retreat\",\"110\",\"5432574\",\"0.0-110.0\",\"\",\"\",\"1-3\",\"4383\",\"38\",\"1\",\"Training\",\"Stims/Figures/111-J-10-3.bmp\",\"za:sa:za\",\"Down\",\"38\",\"7\",\"11\",\"3B\",\"C2\",\"J\",\"107\"
\"\",\"\",\"approach-retreat\",\"111\",\"5438513\",\"0.0-111.0\",\"\",\"\",\"1-3\",\"4418\",\"39\",\"1\",\"Training\",\"Stims/Figures/84-C-20-2.bmp\",\"fafasha\",\"Right\",\"39\",\"7\",\"12\",\"3B\",\"C1\",\"J\",\"108\"
\"\",\"\",\"approach-retreat\",\"112\",\"5444367\",\"0.0-112.0\",\"\",\"\",\"1-3\",\"4334\",\"38\",\"1\",\"Training\",\"Stims/Figures/57-C-30-1.bmp\",\"fafasha\",\"Up\",\"38\",\"7\",\"13\",\"3B\",\"C1\",\"J\",\"109\"
\"\",\"\",\"approach-retreat\",\"113\",\"5450569\",\"0.0-113.0\",\"\",\"\",\"1-3\",\"4672\",\"37\",\"1\",\"Training\",\"Stims/Figures/102-J-10-4.bmp\",\"za:sa:za\",\"Right\",\"37\",\"7\",\"14\",\"3B\",\"C2\",\"J\",\"110\"
\"\",\"\",\"approach-retreat\",\"114\",\"5456200\",\"0.0-114.0\",\"\",\"\",\"1-3\",\"4118\",\"39\",\"1\",\"Training\",\"Stims/Figures/57-J-0-1.bmp\",\"za:sa:za\",\"Left\",\"39\",\"7\",\"15\",\"3B\",\"C2\",\"J\",\"111\"
\"\",\"\",\"approach-retreat\",\"115\",\"5462118\",\"0.0-115.0\",\"\",\"\",\"1-3\",\"4397\",\"40\",\"1\",\"Training\",\"Stims/Figures/71-C-30-1.bmp\",\"fafasha\",\"Down\",\"40\",\"7\",\"16\",\"3B\",\"C1\",\"J\",\"112\"
\"\",\"\",\"approach-retreat\",\"116\",\"5467642\",\"0.0-116.0\",\"\",\"\",\"1-3\",\"4001\",\"40\",\"1\",\"Training\",\"Stims/Figures/102-J-10-4.bmp\",\"za:sa:za\",\"Up\",\"40\",\"8\",\"1\",\"3B\",\"C2\",\"J\",\"113\"
\"\",\"\",\"approach-retreat\",\"117\",\"5473203\",\"0.0-117.0\",\"\",\"\",\"1-3\",\"4040\",\"37\",\"1\",\"Training\",\"Stims/Figures/44-C-30-3.bmp\",\"fafasha\",\"Left\",\"37\",\"8\",\"2\",\"3B\",\"C1\",\"J\",\"114\"
\"\",\"\",\"approach-retreat\",\"118\",\"5478777\",\"0.0-118.0\",\"\",\"\",\"1-3\",\"4052\",\"37\",\"1\",\"Training\",\"Stims/Figures/102-C-20-4.bmp\",\"fafasha\",\"Left\",\"37\",\"8\",\"3\",\"3B\",\"C1\",\"J\",\"115\"
\"\",\"\",\"approach-retreat\",\"119\",\"5484410\",\"0.0-119.0\",\"\",\"\",\"1-3\",\"4102\",\"39\",\"1\",\"Training\",\"Stims/Figures/57-C-30-1.bmp\",\"fafasha\",\"Right\",\"39\",\"8\",\"4\",\"3B\",\"C1\",\"J\",\"116\"
\"\",\"\",\"approach-retreat\",\"120\",\"5490098\",\"0.0-120.0\",\"\",\"\",\"1-3\",\"4167\",\"38\",\"1\",\"Training\",\"Stims/Figures/71-J-0-1.bmp\",\"za:sa:za\",\"Down\",\"38\",\"8\",\"5\",\"3B\",\"C2\",\"J\",\"117\"
\"\",\"\",\"approach-retreat\",\"121\",\"5496329\",\"0.0-121.0\",\"\",\"\",\"1-3\",\"4712\",\"38\",\"1\",\"Training\",\"Stims/Figures/84-J-0-2.bmp\",\"za:sa:za\",\"Down\",\"38\",\"8\",\"6\",\"3B\",\"C2\",\"J\",\"118\"
\"\",\"\",\"approach-retreat\",\"122\",\"5502653\",\"0.0-122.0\",\"\",\"\",\"1-3\",\"4796\",\"39\",\"1\",\"Training\",\"Stims/Figures/111-C-30-3.bmp\",\"fafasha\",\"Right\",\"39\",\"8\",\"7\",\"3B\",\"C1\",\"J\",\"119\"
\"\",\"\",\"approach-retreat\",\"123\",\"5508475\",\"0.0-123.0\",\"\",\"\",\"1-3\",\"4289\",\"38\",\"1\",\"Training\",\"Stims/Figures/94-C-20-2.bmp\",\"fafasha\",\"Up\",\"38\",\"8\",\"8\",\"3B\",\"C1\",\"J\",\"120\"
\"\",\"\",\"approach-retreat\",\"124\",\"5514059\",\"0.0-124.0\",\"\",\"\",\"1-3\",\"4056\",\"37\",\"1\",\"Training\",\"Stims/Figures/57-J-0-1.bmp\",\"za:sa:za\",\"Right\",\"37\",\"8\",\"9\",\"3B\",\"C2\",\"J\",\"121\"
\"\",\"\",\"approach-retreat\",\"125\",\"5519737\",\"0.0-125.0\",\"\",\"\",\"1-3\",\"4150\",\"37\",\"1\",\"Training\",\"Stims/Figures/19-J-10-4.bmp\",\"za:sa:za\",\"Right\",\"37\",\"8\",\"10\",\"3B\",\"C2\",\"J\",\"122\"
\"\",\"\",\"approach-retreat\",\"126\",\"5525508\",\"0.0-126.0\",\"\",\"\",\"1-3\",\"4251\",\"40\",\"1\",\"Training\",\"Stims/Figures/44-J-10-3.bmp\",\"za:sa:za\",\"Up\",\"40\",\"8\",\"11\",\"3B\",\"C2\",\"J\",\"123\"
\"\",\"\",\"approach-retreat\",\"127\",\"5531399\",\"0.0-127.0\",\"\",\"\",\"1-3\",\"4357\",\"39\",\"1\",\"Training\",\"Stims/Figures/111-J-10-3.bmp\",\"za:sa:za\",\"Left\",\"39\",\"8\",\"12\",\"3B\",\"C2\",\"J\",\"124\"
\"\",\"\",\"approach-retreat\",\"128\",\"5537288\",\"0.0-128.0\",\"\",\"\",\"1-3\",\"4366\",\"38\",\"1\",\"Training\",\"Stims/Figures/94-J-0-2.bmp\",\"za:sa:za\",\"Down\",\"38\",\"8\",\"13\",\"3B\",\"C2\",\"J\",\"125\"
\"\",\"\",\"approach-retreat\",\"129\",\"5543231\",\"0.0-129.0\",\"\",\"\",\"1-3\",\"4418\",\"40\",\"1\",\"Training\",\"Stims/Figures/71-C-30-1.bmp\",\"fafasha\",\"Down\",\"40\",\"8\",\"14\",\"3B\",\"C1\",\"J\",\"126\"
\"\",\"\",\"approach-retreat\",\"130\",\"5548897\",\"0.0-130.0\",\"\",\"\",\"1-3\",\"4145\",\"37\",\"1\",\"Training\",\"Stims/Figures/84-C-20-2.bmp\",\"fafasha\",\"Left\",\"37\",\"8\",\"15\",\"3B\",\"C1\",\"J\",\"127\"
\"\",\"\",\"approach-retreat\",\"131\",\"5555056\",\"0.0-131.0\",\"\",\"\",\"1-3\",\"4637\",\"38\",\"1\",\"Training\",\"Stims/Figures/19-C-20-4.bmp\",\"fafasha\",\"Up\",\"38\",\"8\",\"16\",\"3B\",\"C1\",\"J\",\"128\"
\"\",\"\",\"approach-retreat\",\"132\",\"5561284\",\"0.0-132.0\",\"\",\"\",\"1-3\",\"4707\",\"40\",\"1\",\"Training\",\"Stims/Figures/111-J-10-3.bmp\",\"za:sa:za\",\"Up\",\"40\",\"9\",\"1\",\"3B\",\"C2\",\"J\",\"129\"
\"\",\"\",\"approach-retreat\",\"133\",\"5567126\",\"0.0-133.0\",\"\",\"\",\"1-3\",\"4314\",\"40\",\"1\",\"Training\",\"Stims/Figures/94-C-20-2.bmp\",\"fafasha\",\"Down\",\"40\",\"9\",\"2\",\"3B\",\"C1\",\"J\",\"130\"
\"\",\"\",\"approach-retreat\",\"134\",\"5572707\",\"0.0-134.0\",\"\",\"\",\"1-3\",\"4061\",\"38\",\"1\",\"Training\",\"Stims/Figures/57-C-30-1.bmp\",\"fafasha\",\"Up\",\"38\",\"9\",\"3\",\"3B\",\"C1\",\"J\",\"131\"
\"\",\"\",\"approach-retreat\",\"135\",\"5578776\",\"0.0-135.0\",\"\",\"\",\"1-3\",\"4545\",\"38\",\"1\",\"Training\",\"Stims/Figures/19-J-10-4.bmp\",\"za:sa:za\",\"Down\",\"38\",\"9\",\"4\",\"3B\",\"C2\",\"J\",\"132\"
\"\",\"\",\"approach-retreat\",\"136\",\"5584994\",\"0.0-136.0\",\"\",\"\",\"1-3\",\"4700\",\"38\",\"1\",\"Training\",\"Stims/Figures/44-J-10-3.bmp\",\"za:sa:za\",\"Down\",\"38\",\"9\",\"5\",\"3B\",\"C2\",\"J\",\"133\"
\"\",\"\",\"approach-retreat\",\"137\",\"5590950\",\"0.0-137.0\",\"\",\"\",\"1-3\",\"4439\",\"37\",\"1\",\"Training\",\"Stims/Figures/84-J-0-2.bmp\",\"za:sa:za\",\"Right\",\"37\",\"9\",\"6\",\"3B\",\"C2\",\"J\",\"134\"
\"\",\"\",\"approach-retreat\",\"138\",\"5596618\",\"0.0-138.0\",\"\",\"\",\"1-3\",\"4150\",\"39\",\"1\",\"Training\",\"Stims/Figures/71-J-0-1.bmp\",\"za:sa:za\",\"Left\",\"39\",\"9\",\"7\",\"3B\",\"C2\",\"J\",\"135\"
\"\",\"\",\"approach-retreat\",\"139\",\"5602363\",\"0.0-139.0\",\"\",\"\",\"1-3\",\"4217\",\"37\",\"1\",\"Training\",\"Stims/Figures/71-C-30-1.bmp\",\"fafasha\",\"Left\",\"37\",\"9\",\"8\",\"3B\",\"C1\",\"J\",\"136\"
\"\",\"\",\"approach-retreat\",\"140\",\"5608219\",\"0.0-140.0\",\"\",\"\",\"1-3\",\"4336\",\"39\",\"1\",\"Training\",\"Stims/Figures/111-C-30-3.bmp\",\"fafasha\",\"Right\",\"39\",\"9\",\"9\",\"3B\",\"C1\",\"J\",\"137\"
\"\",\"\",\"approach-retreat\",\"141\",\"5613757\",\"0.0-141.0\",\"\",\"\",\"1-3\",\"4017\",\"38\",\"1\",\"Training\",\"Stims/Figures/44-C-30-3.bmp\",\"fafasha\",\"Up\",\"38\",\"9\",\"10\",\"3B\",\"C1\",\"J\",\"138\"
\"\",\"\",\"approach-retreat\",\"142\",\"5619345\",\"0.0-142.0\",\"\",\"\",\"1-3\",\"4067\",\"37\",\"1\",\"Training\",\"Stims/Figures/102-C-20-4.bmp\",\"fafasha\",\"Left\",\"37\",\"9\",\"11\",\"3B\",\"C1\",\"J\",\"139\"
\"\",\"\",\"approach-retreat\",\"143\",\"5624957\",\"0.0-143.0\",\"\",\"\",\"1-3\",\"4091\",\"39\",\"1\",\"Training\",\"Stims/Figures/84-C-20-2.bmp\",\"fafasha\",\"Right\",\"39\",\"9\",\"12\",\"3B\",\"C1\",\"J\",\"140\"
\"\",\"\",\"approach-retreat\",\"144\",\"5630500\",\"0.0-144.0\",\"\",\"\",\"1-3\",\"4020\",\"39\",\"1\",\"Training\",\"Stims/Figures/19-C-20-4.bmp\",\"fafasha\",\"Right\",\"39\",\"9\",\"13\",\"3B\",\"C1\",\"J\",\"141\"
\"\",\"\",\"approach-retreat\",\"145\",\"5636353\",\"0.0-145.0\",\"\",\"\",\"1-3\",\"4328\",\"40\",\"0\",\"Training\",\"Stims/Figures/57-J-0-1.bmp\",\"za:sa:za\",\"Down\",\"38\",\"9\",\"14\",\"3B\",\"C2\",\"J\",\"142\"
\"\",\"\",\"approach-retreat\",\"146\",\"5642291\",\"0.0-146.0\",\"\",\"\",\"1-3\",\"4417\",\"40\",\"1\",\"Training\",\"Stims/Figures/102-J-10-4.bmp\",\"za:sa:za\",\"Up\",\"40\",\"9\",\"15\",\"3B\",\"C2\",\"J\",\"143\"
\"\",\"\",\"approach-retreat\",\"147\",\"5648169\",\"0.0-147.0\",\"\",\"\",\"1-3\",\"4360\",\"39\",\"1\",\"Training\",\"Stims/Figures/94-J-0-2.bmp\",\"za:sa:za\",\"Left\",\"39\",\"9\",\"16\",\"3B\",\"C2\",\"J\",\"144\"
\"11758\",\"\",\"instructions\",\"148\",\"5659929\",\"0.0-148.0\",\"[{\"\"page_index\"\":0,\"\"viewing_time\"\":11756}]\",\"\",\"\",\"\",\"\",\"\",\"\",\"\",\"\",\"\",\"\",\"\",\"\",\"\",\"\",\"\",\"\"
\"\",\"\",\"approach-retreat\",\"149\",\"5666772\",\"0.0-149.0\",\"\",\"\",\"1-3\",\"5324\",\"40\",\"1\",\"Testing\",\"Stims/Figures/85-C-20-2.bmp\",\"fafasha\",\"Down\",\"40\",\"1\",\"1\",\"3B\",\"C1\",\"J\",\"1\"
\"\",\"\",\"approach-retreat\",\"150\",\"5673397\",\"0.0-150.0\",\"\",\"\",\"1-3\",\"5098\",\"40\",\"0\",\"Testing\",\"Stims/Figures/87-C-20-4.bmp\",\"fafasha\",\"Up\",\"38\",\"1\",\"2\",\"3B\",\"C1\",\"J\",\"2\"
\"\",\"\",\"approach-retreat\",\"151\",\"5679640\",\"0.0-151.0\",\"\",\"\",\"1-3\",\"4717\",\"38\",\"0\",\"Testing\",\"Stims/Figures/71-J-0-1.bmp\",\"za:sa:za\",\"Up\",\"40\",\"1\",\"3\",\"3B\",\"C2\",\"J\",\"3\"
\"\",\"\",\"approach-retreat\",\"152\",\"5685313\",\"0.0-152.0\",\"\",\"\",\"1-3\",\"4145\",\"38\",\"0\",\"Testing\",\"Stims/Figures/94-C-20-2.bmp\",\"fafasha\",\"Down\",\"40\",\"1\",\"4\",\"3B\",\"C1\",\"J\",\"4\"
\"\",\"\",\"approach-retreat\",\"153\",\"5691177\",\"0.0-153.0\",\"\",\"\",\"1-3\",\"4337\",\"38\",\"1\",\"Testing\",\"Stims/Figures/19-J-10-4.bmp\",\"za:sa:za\",\"Down\",\"38\",\"1\",\"5\",\"3B\",\"C2\",\"J\",\"5\"
\"\",\"\",\"approach-retreat\",\"154\",\"5696975\",\"0.0-154.0\",\"\",\"\",\"1-3\",\"4271\",\"37\",\"1\",\"Testing\",\"Stims/Figures/57-J-0-1.bmp\",\"za:sa:za\",\"Right\",\"37\",\"1\",\"6\",\"3B\",\"C2\",\"J\",\"6\"
\"\",\"\",\"approach-retreat\",\"155\",\"5702676\",\"0.0-155.0\",\"\",\"\",\"1-3\",\"4172\",\"38\",\"1\",\"Testing\",\"Stims/Figures/71-C-30-1.bmp\",\"fafasha\",\"Up\",\"38\",\"1\",\"7\",\"3B\",\"C1\",\"J\",\"7\"
\"\",\"\",\"approach-retreat\",\"156\",\"5708498\",\"0.0-156.0\",\"\",\"\",\"1-3\",\"4297\",\"38\",\"1\",\"Testing\",\"Stims/Figures/85-J-0-2.bmp\",\"za:sa:za\",\"Down\",\"38\",\"1\",\"8\",\"3B\",\"C2\",\"J\",\"8\"
\"\",\"\",\"approach-retreat\",\"157\",\"5714213\",\"0.0-157.0\",\"\",\"\",\"1-3\",\"4187\",\"39\",\"0\",\"Testing\",\"Stims/Figures/87-J-10-4.bmp\",\"za:sa:za\",\"Right\",\"37\",\"1\",\"9\",\"3B\",\"C2\",\"J\",\"9\"
\"\",\"\",\"approach-retreat\",\"158\",\"5719939\",\"0.0-158.0\",\"\",\"\",\"1-3\",\"4198\",\"37\",\"1\",\"Testing\",\"Stims/Figures/111-C-30-3.bmp\",\"fafasha\",\"Left\",\"37\",\"1\",\"10\",\"3B\",\"C1\",\"J\",\"10\"
\"\",\"\",\"approach-retreat\",\"159\",\"5725590\",\"0.0-159.0\",\"\",\"\",\"1-3\",\"4124\",\"38\",\"0\",\"Testing\",\"Stims/Figures/100-J-10-3.bmp\",\"za:sa:za\",\"Up\",\"40\",\"1\",\"11\",\"3B\",\"C2\",\"J\",\"11\"
\"\",\"\",\"approach-retreat\",\"160\",\"5731221\",\"0.0-160.0\",\"\",\"\",\"1-3\",\"4104\",\"38\",\"1\",\"Testing\",\"Stims/Figures/86-J-0-1.bmp\",\"za:sa:za\",\"Down\",\"38\",\"1\",\"12\",\"3B\",\"C2\",\"J\",\"12\"
\"\",\"\",\"approach-retreat\",\"161\",\"5738363\",\"0.0-161.0\",\"\",\"\",\"1-3\",\"5616\",\"38\",\"1\",\"Testing\",\"Stims/Figures/44-C-30-3.bmp\",\"fafasha\",\"Up\",\"38\",\"1\",\"13\",\"3B\",\"C1\",\"J\",\"13\"
\"\",\"\",\"approach-retreat\",\"162\",\"5744255\",\"0.0-162.0\",\"\",\"\",\"1-3\",\"4365\",\"39\",\"0\",\"Testing\",\"Stims/Figures/100-C-30-3.bmp\",\"fafasha\",\"Left\",\"37\",\"1\",\"14\",\"3B\",\"C1\",\"J\",\"14\"
\"\",\"\",\"approach-retreat\",\"163\",\"5750239\",\"0.0-163.0\",\"\",\"\",\"1-3\",\"4455\",\"37\",\"1\",\"Testing\",\"Stims/Figures/84-J-0-2.bmp\",\"za:sa:za\",\"Right\",\"37\",\"1\",\"15\",\"3B\",\"C2\",\"J\",\"15\"
\"\",\"\",\"approach-retreat\",\"164\",\"5755948\",\"0.0-164.0\",\"\",\"\",\"1-3\",\"4179\",\"38\",\"0\",\"Testing\",\"Stims/Figures/44-J-10-3.bmp\",\"za:sa:za\",\"Up\",\"40\",\"1\",\"16\",\"3B\",\"C2\",\"J\",\"16\"
\"\",\"\",\"approach-retreat\",\"165\",\"5761494\",\"0.0-165.0\",\"\",\"\",\"1-3\",\"4019\",\"37\",\"1\",\"Testing\",\"Stims/Figures/102-J-10-4.bmp\",\"za:sa:za\",\"Right\",\"37\",\"1\",\"17\",\"3B\",\"C2\",\"J\",\"17\"
\"\",\"\",\"approach-retreat\",\"166\",\"5767644\",\"0.0-166.0\",\"\",\"\",\"1-3\",\"4623\",\"37\",\"1\",\"Testing\",\"Stims/Figures/19-C-20-4.bmp\",\"fafasha\",\"Left\",\"37\",\"1\",\"18\",\"3B\",\"C1\",\"J\",\"18\"
\"\",\"\",\"approach-retreat\",\"167\",\"5774042\",\"0.0-167.0\",\"\",\"\",\"1-3\",\"4864\",\"37\",\"0\",\"Testing\",\"Stims/Figures/111-J-10-3.bmp\",\"za:sa:za\",\"Left\",\"39\",\"1\",\"19\",\"3B\",\"C2\",\"J\",\"19\"
\"\",\"\",\"approach-retreat\",\"168\",\"5779838\",\"0.0-168.0\",\"\",\"\",\"1-3\",\"4273\",\"39\",\"0\",\"Testing\",\"Stims/Figures/84-C-20-2.bmp\",\"fafasha\",\"Left\",\"37\",\"1\",\"20\",\"3B\",\"C1\",\"J\",\"20\"
\"\",\"\",\"approach-retreat\",\"169\",\"5785698\",\"0.0-169.0\",\"\",\"\",\"1-3\",\"4335\",\"39\",\"1\",\"Testing\",\"Stims/Figures/57-C-30-1.bmp\",\"fafasha\",\"Right\",\"39\",\"1\",\"21\",\"3B\",\"C1\",\"J\",\"21\"
\"\",\"\",\"approach-retreat\",\"170\",\"5791359\",\"0.0-170.0\",\"\",\"\",\"1-3\",\"4136\",\"39\",\"1\",\"Testing\",\"Stims/Figures/86-C-30-1.bmp\",\"fafasha\",\"Right\",\"39\",\"1\",\"22\",\"3B\",\"C1\",\"J\",\"22\"
\"\",\"\",\"approach-retreat\",\"171\",\"5797169\",\"0.0-171.0\",\"\",\"\",\"1-3\",\"4287\",\"39\",\"1\",\"Testing\",\"Stims/Figures/94-J-0-2.bmp\",\"za:sa:za\",\"Left\",\"39\",\"1\",\"23\",\"3B\",\"C2\",\"J\",\"23\"
\"\",\"\",\"approach-retreat\",\"172\",\"5803908\",\"0.0-172.0\",\"\",\"\",\"1-3\",\"5212\",\"38\",\"0\",\"Testing\",\"Stims/Figures/102-C-20-4.bmp\",\"fafasha\",\"Down\",\"40\",\"1\",\"24\",\"3B\",\"C1\",\"J\",\"24\"
\"\",\"\",\"approach-retreat\",\"173\",\"5809647\",\"0.0-173.0\",\"\",\"\",\"1-3\",\"4213\",\"39\",\"0\",\"Testing\",\"Stims/Figures/87-J-10-4.bmp\",\"za:sa:za\",\"Right\",\"37\",\"2\",\"1\",\"3B\",\"C2\",\"J\",\"25\"
\"\",\"\",\"approach-retreat\",\"174\",\"5815348\",\"0.0-174.0\",\"\",\"\",\"1-3\",\"4179\",\"39\",\"1\",\"Testing\",\"Stims/Figures/85-C-20-2.bmp\",\"fafasha\",\"Right\",\"39\",\"2\",\"2\",\"3B\",\"C1\",\"J\",\"26\"
\"\",\"\",\"approach-retreat\",\"175\",\"5821031\",\"0.0-175.0\",\"\",\"\",\"1-3\",\"4144\",\"37\",\"1\",\"Testing\",\"Stims/Figures/94-J-0-2.bmp\",\"za:sa:za\",\"Right\",\"37\",\"2\",\"3\",\"3B\",\"C2\",\"J\",\"27\"
\"\",\"\",\"approach-retreat\",\"176\",\"5826551\",\"0.0-176.0\",\"\",\"\",\"1-3\",\"4012\",\"38\",\"0\",\"Testing\",\"Stims/Figures/19-C-20-4.bmp\",\"fafasha\",\"Down\",\"40\",\"2\",\"4\",\"3B\",\"C1\",\"J\",\"28\"
\"\",\"\",\"approach-retreat\",\"177\",\"5833032\",\"0.0-177.0\",\"\",\"\",\"1-3\",\"4951\",\"40\",\"0\",\"Testing\",\"Stims/Figures/19-J-10-4.bmp\",\"za:sa:za\",\"Down\",\"38\",\"2\",\"5\",\"3B\",\"C2\",\"J\",\"29\"
\"\",\"\",\"approach-retreat\",\"178\",\"5840121\",\"0.0-178.0\",\"\",\"\",\"1-3\",\"5563\",\"38\",\"0\",\"Testing\",\"Stims/Figures/84-J-0-2.bmp\",\"za:sa:za\",\"Up\",\"40\",\"2\",\"6\",\"3B\",\"C2\",\"J\",\"30\"
\"\",\"\",\"approach-retreat\",\"179\",\"5845824\",\"0.0-179.0\",\"\",\"\",\"1-3\",\"4175\",\"37\",\"1\",\"Testing\",\"Stims/Figures/111-C-30-3.bmp\",\"fafasha\",\"Left\",\"37\",\"2\",\"7\",\"3B\",\"C1\",\"J\",\"31\"
\"\",\"\",\"approach-retreat\",\"180\",\"5851369\",\"0.0-180.0\",\"\",\"\",\"1-3\",\"4020\",\"40\",\"0\",\"Testing\",\"Stims/Figures/87-C-20-4.bmp\",\"fafasha\",\"Up\",\"38\",\"2\",\"8\",\"3B\",\"C1\",\"J\",\"32\"
\"\",\"\",\"approach-retreat\",\"181\",\"5858603\",\"0.0-181.0\",\"\",\"\",\"1-3\",\"5710\",\"39\",\"1\",\"Testing\",\"Stims/Figures/57-J-0-1.bmp\",\"za:sa:za\",\"Left\",\"39\",\"2\",\"9\",\"3B\",\"C2\",\"J\",\"33\"
\"\",\"\",\"approach-retreat\",\"182\",\"5864064\",\"0.0-182.0\",\"\",\"\",\"1-3\",\"3934\",\"39\",\"0\",\"Testing\",\"Stims/Figures/71-J-0-1.bmp\",\"za:sa:za\",\"Right\",\"37\",\"2\",\"10\",\"3B\",\"C2\",\"J\",\"34\"
\"\",\"\",\"approach-retreat\",\"183\",\"5869860\",\"0.0-183.0\",\"\",\"\",\"1-3\",\"4270\",\"39\",\"0\",\"Testing\",\"Stims/Figures/111-J-10-3.bmp\",\"za:sa:za\",\"Right\",\"37\",\"2\",\"11\",\"3B\",\"C2\",\"J\",\"35\"
\"\",\"\",\"approach-retreat\",\"184\",\"5875484\",\"0.0-184.0\",\"\",\"\",\"1-3\",\"4100\",\"40\",\"1\",\"Testing\",\"Stims/Figures/86-C-30-1.bmp\",\"fafasha\",\"Down\",\"40\",\"2\",\"12\",\"3B\",\"C1\",\"J\",\"36\"
\"\",\"\",\"approach-retreat\",\"185\",\"5881171\",\"0.0-185.0\",\"\",\"\",\"1-3\",\"4161\",\"40\",\"1\",\"Testing\",\"Stims/Figures/100-J-10-3.bmp\",\"za:sa:za\",\"Up\",\"40\",\"2\",\"13\",\"3B\",\"C2\",\"J\",\"37\"
\"\",\"\",\"approach-retreat\",\"186\",\"5886792\",\"0.0-186.0\",\"\",\"\",\"1-3\",\"4097\",\"39\",\"1\",\"Testing\",\"Stims/Figures/102-J-10-4.bmp\",\"za:sa:za\",\"Left\",\"39\",\"2\",\"14\",\"3B\",\"C2\",\"J\",\"38\"
\"\",\"\",\"approach-retreat\",\"187\",\"5892615\",\"0.0-187.0\",\"\",\"\",\"1-3\",\"4296\",\"37\",\"1\",\"Testing\",\"Stims/Figures/71-C-30-1.bmp\",\"fafasha\",\"Left\",\"37\",\"2\",\"15\",\"3B\",\"C1\",\"J\",\"39\"
\"\",\"\",\"approach-retreat\",\"188\",\"5898307\",\"0.0-188.0\",\"\",\"\",\"1-3\",\"4166\",\"38\",\"0\",\"Testing\",\"Stims/Figures/94-C-20-2.bmp\",\"fafasha\",\"Down\",\"40\",\"2\",\"16\",\"3B\",\"C1\",\"J\",\"40\"
\"\",\"\",\"approach-retreat\",\"189\",\"5903996\",\"0.0-189.0\",\"\",\"\",\"1-3\",\"4163\",\"40\",\"0\",\"Testing\",\"Stims/Figures/102-C-20-4.bmp\",\"fafasha\",\"Up\",\"38\",\"2\",\"17\",\"3B\",\"C1\",\"J\",\"41\"
\"\",\"\",\"approach-retreat\",\"190\",\"5909902\",\"0.0-190.0\",\"\",\"\",\"1-3\",\"4392\",\"40\",\"0\",\"Testing\",\"Stims/Figures/44-J-10-3.bmp\",\"za:sa:za\",\"Down\",\"38\",\"2\",\"18\",\"3B\",\"C2\",\"J\",\"42\"
\"\",\"\",\"approach-retreat\",\"191\",\"5915603\",\"0.0-191.0\",\"\",\"\",\"1-3\",\"4174\",\"39\",\"0\",\"Testing\",\"Stims/Figures/44-C-30-3.bmp\",\"fafasha\",\"Left\",\"37\",\"2\",\"19\",\"3B\",\"C1\",\"J\",\"43\"
\"\",\"\",\"approach-retreat\",\"192\",\"5921349\",\"0.0-192.0\",\"\",\"\",\"1-3\",\"4219\",\"38\",\"0\",\"Testing\",\"Stims/Figures/86-J-0-1.bmp\",\"za:sa:za\",\"Up\",\"40\",\"2\",\"20\",\"3B\",\"C2\",\"J\",\"44\"
\"\",\"\",\"approach-retreat\",\"193\",\"5926961\",\"0.0-193.0\",\"\",\"\",\"1-3\",\"4105\",\"38\",\"0\",\"Testing\",\"Stims/Figures/85-J-0-2.bmp\",\"za:sa:za\",\"Up\",\"40\",\"2\",\"21\",\"3B\",\"C2\",\"J\",\"45\"
\"\",\"\",\"approach-retreat\",\"194\",\"5932542\",\"0.0-194.0\",\"\",\"\",\"1-3\",\"4054\",\"37\",\"1\",\"Testing\",\"Stims/Figures/84-C-20-2.bmp\",\"fafasha\",\"Left\",\"37\",\"2\",\"22\",\"3B\",\"C1\",\"J\",\"46\"
\"\",\"\",\"approach-retreat\",\"195\",\"5938069\",\"0.0-195.0\",\"\",\"\",\"1-3\",\"4012\",\"39\",\"1\",\"Testing\",\"Stims/Figures/100-C-30-3.bmp\",\"fafasha\",\"Right\",\"39\",\"2\",\"23\",\"3B\",\"C1\",\"J\",\"47\"
\"\",\"\",\"approach-retreat\",\"196\",\"5944488\",\"0.0-196.0\",\"\",\"\",\"1-3\",\"4892\",\"38\",\"0\",\"Testing\",\"Stims/Figures/57-C-30-1.bmp\",\"fafasha\",\"Down\",\"40\",\"2\",\"24\",\"3B\",\"C1\",\"J\",\"48\"
\"\",\"\",\"approach-retreat\",\"197\",\"5950151\",\"0.0-197.0\",\"\",\"\",\"1-3\",\"4136\",\"39\",\"0\",\"Testing\",\"Stims/Figures/85-J-0-2.bmp\",\"za:sa:za\",\"Right\",\"37\",\"3\",\"1\",\"3B\",\"C2\",\"J\",\"49\"
\"\",\"\",\"approach-retreat\",\"198\",\"5955667\",\"0.0-198.0\",\"\",\"\",\"1-3\",\"3991\",\"38\",\"0\",\"Testing\",\"Stims/Figures/44-J-10-3.bmp\",\"za:sa:za\",\"Up\",\"40\",\"3\",\"2\",\"3B\",\"C2\",\"J\",\"50\"
\"\",\"\",\"approach-retreat\",\"199\",\"5961288\",\"0.0-199.0\",\"\",\"\",\"1-3\",\"4097\",\"38\",\"0\",\"Testing\",\"Stims/Figures/111-C-30-3.bmp\",\"fafasha\",\"Down\",\"40\",\"3\",\"3\",\"3B\",\"C1\",\"J\",\"51\"
\"\",\"\",\"approach-retreat\",\"200\",\"5967249\",\"0.0-200.0\",\"\",\"\",\"1-3\",\"4436\",\"40\",\"0\",\"Testing\",\"Stims/Figures/57-J-0-1.bmp\",\"za:sa:za\",\"Down\",\"38\",\"3\",\"4\",\"3B\",\"C2\",\"J\",\"52\"
\"\",\"\",\"approach-retreat\",\"201\",\"5972768\",\"0.0-201.0\",\"\",\"\",\"1-3\",\"3991\",\"38\",\"1\",\"Testing\",\"Stims/Figures/86-C-30-1.bmp\",\"fafasha\",\"Up\",\"38\",\"3\",\"5\",\"3B\",\"C1\",\"J\",\"53\"
\"\",\"\",\"approach-retreat\",\"202\",\"5978327\",\"0.0-202.0\",\"\",\"\",\"1-3\",\"4032\",\"37\",\"1\",\"Testing\",\"Stims/Figures/85-C-20-2.bmp\",\"fafasha\",\"Left\",\"37\",\"3\",\"6\",\"3B\",\"C1\",\"J\",\"54\"
\"\",\"\",\"approach-retreat\",\"203\",\"5983915\",\"0.0-203.0\",\"\",\"\",\"1-3\",\"4059\",\"39\",\"1\",\"Testing\",\"Stims/Figures/84-C-20-2.bmp\",\"fafasha\",\"Right\",\"39\",\"3\",\"7\",\"3B\",\"C1\",\"J\",\"55\"
\"\",\"\",\"approach-retreat\",\"204\",\"5989612\",\"0.0-204.0\",\"\",\"\",\"1-3\",\"4171\",\"37\",\"1\",\"Testing\",\"Stims/Figures/100-J-10-3.bmp\",\"za:sa:za\",\"Right\",\"37\",\"3\",\"8\",\"3B\",\"C2\",\"J\",\"56\"
\"\",\"\",\"approach-retreat\",\"205\",\"5995492\",\"0.0-205.0\",\"\",\"\",\"1-3\",\"4353\",\"38\",\"0\",\"Testing\",\"Stims/Figures/100-C-30-3.bmp\",\"fafasha\",\"Down\",\"40\",\"3\",\"9\",\"3B\",\"C1\",\"J\",\"57\"
\"\",\"\",\"approach-retreat\",\"206\",\"6001211\",\"0.0-206.0\",\"\",\"\",\"1-3\",\"4194\",\"40\",\"0\",\"Testing\",\"Stims/Figures/19-J-10-4.bmp\",\"za:sa:za\",\"Down\",\"38\",\"3\",\"10\",\"3B\",\"C2\",\"J\",\"58\"
\"\",\"\",\"approach-retreat\",\"207\",\"6006757\",\"0.0-207.0\",\"\",\"\",\"1-3\",\"4020\",\"38\",\"0\",\"Testing\",\"Stims/Figures/71-J-0-1.bmp\",\"za:sa:za\",\"Up\",\"40\",\"3\",\"11\",\"3B\",\"C2\",\"J\",\"59\"
\"\",\"\",\"approach-retreat\",\"208\",\"6012372\",\"0.0-208.0\",\"\",\"\",\"1-3\",\"4089\",\"40\",\"1\",\"Testing\",\"Stims/Figures/87-J-10-4.bmp\",\"za:sa:za\",\"Up\",\"40\",\"3\",\"12\",\"3B\",\"C2\",\"J\",\"60\"
\"\",\"\",\"approach-retreat\",\"209\",\"6017982\",\"0.0-209.0\",\"\",\"\",\"1-3\",\"4084\",\"39\",\"0\",\"Testing\",\"Stims/Figures/87-C-20-4.bmp\",\"fafasha\",\"Left\",\"37\",\"3\",\"13\",\"3B\",\"C1\",\"J\",\"61\"
\"\",\"\",\"approach-retreat\",\"210\",\"6023579\",\"0.0-210.0\",\"\",\"\",\"1-3\",\"4072\",\"37\",\"0\",\"Testing\",\"Stims/Figures/84-J-0-2.bmp\",\"za:sa:za\",\"Left\",\"39\",\"3\",\"14\",\"3B\",\"C2\",\"J\",\"62\"
\"\",\"\",\"approach-retreat\",\"211\",\"6029121\",\"0.0-211.0\",\"\",\"\",\"1-3\",\"4018\",\"37\",\"0\",\"Testing\",\"Stims/Figures/94-C-20-2.bmp\",\"fafasha\",\"Right\",\"39\",\"3\",\"15\",\"3B\",\"C1\",\"J\",\"63\"
\"\",\"\",\"approach-retreat\",\"212\",\"6034682\",\"0.0-212.0\",\"\",\"\",\"1-3\",\"4034\",\"38\",\"1\",\"Testing\",\"Stims/Figures/94-J-0-2.bmp\",\"za:sa:za\",\"Down\",\"38\",\"3\",\"16\",\"3B\",\"C2\",\"J\",\"64\"
\"\",\"\",\"approach-retreat\",\"213\",\"6040818\",\"0.0-213.0\",\"\",\"\",\"1-3\",\"4621\",\"37\",\"0\",\"Testing\",\"Stims/Figures/71-C-30-1.bmp\",\"fafasha\",\"Right\",\"39\",\"3\",\"17\",\"3B\",\"C1\",\"J\",\"65\"
\"\",\"\",\"approach-retreat\",\"214\",\"6046624\",\"0.0-214.0\",\"\",\"\",\"1-3\",\"4281\",\"39\",\"1\",\"Testing\",\"Stims/Figures/19-C-20-4.bmp\",\"fafasha\",\"Right\",\"39\",\"3\",\"18\",\"3B\",\"C1\",\"J\",\"66\"
\"\",\"\",\"approach-retreat\",\"215\",\"6052168\",\"0.0-215.0\",\"\",\"\",\"1-3\",\"4019\",\"39\",\"1\",\"Testing\",\"Stims/Figures/111-J-10-3.bmp\",\"za:sa:za\",\"Left\",\"39\",\"3\",\"19\",\"3B\",\"C2\",\"J\",\"67\"
\"\",\"\",\"approach-retreat\",\"216\",\"6057686\",\"0.0-216.0\",\"\",\"\",\"1-3\",\"3994\",\"38\",\"1\",\"Testing\",\"Stims/Figures/44-C-30-3.bmp\",\"fafasha\",\"Up\",\"38\",\"3\",\"20\",\"3B\",\"C1\",\"J\",\"68\"
\"\",\"\",\"approach-retreat\",\"217\",\"6064017\",\"0.0-217.0\",\"\",\"\",\"1-3\",\"4804\",\"40\",\"1\",\"Testing\",\"Stims/Figures/102-J-10-4.bmp\",\"za:sa:za\",\"Up\",\"40\",\"3\",\"21\",\"3B\",\"C2\",\"J\",\"69\"
\"\",\"\",\"approach-retreat\",\"218\",\"6069583\",\"0.0-218.0\",\"\",\"\",\"1-3\",\"4037\",\"39\",\"0\",\"Testing\",\"Stims/Figures/102-C-20-4.bmp\",\"fafasha\",\"Left\",\"37\",\"3\",\"22\",\"3B\",\"C1\",\"J\",\"70\"
\"\",\"\",\"approach-retreat\",\"219\",\"6075254\",\"0.0-219.0\",\"\",\"\",\"1-3\",\"4146\",\"40\",\"0\",\"Testing\",\"Stims/Figures/86-J-0-1.bmp\",\"za:sa:za\",\"Down\",\"38\",\"3\",\"23\",\"3B\",\"C2\",\"J\",\"71\"
\"\",\"\",\"approach-retreat\",\"220\",\"6080882\",\"0.0-220.0\",\"\",\"\",\"1-3\",\"4101\",\"37\",\"1\",\"Testing\",\"Stims/Figures/57-C-30-1.bmp\",\"fafasha\",\"Left\",\"37\",\"3\",\"24\",\"3B\",\"C1\",\"J\",\"72\"
\"\",\"\",\"approach-retreat\",\"221\",\"6086498\",\"0.0-221.0\",\"\",\"\",\"1-3\",\"4081\",\"38\",\"0\",\"Testing\",\"Stims/Figures/71-J-0-1.bmp\",\"za:sa:za\",\"Up\",\"40\",\"4\",\"1\",\"3B\",\"C2\",\"J\",\"73\"
\"\",\"\",\"approach-retreat\",\"222\",\"6092151\",\"0.0-222.0\",\"\",\"\",\"1-3\",\"4126\",\"37\",\"1\",\"Testing\",\"Stims/Figures/84-C-20-2.bmp\",\"fafasha\",\"Left\",\"37\",\"4\",\"2\",\"3B\",\"C1\",\"J\",\"74\"
\"\",\"\",\"approach-retreat\",\"223\",\"6097731\",\"0.0-223.0\",\"\",\"\",\"1-3\",\"4053\",\"39\",\"0\",\"Testing\",\"Stims/Figures/19-J-10-4.bmp\",\"za:sa:za\",\"Right\",\"37\",\"4\",\"3\",\"3B\",\"C2\",\"J\",\"75\"
\"\",\"\",\"approach-retreat\",\"224\",\"6103815\",\"0.0-224.0\",\"\",\"\",\"1-3\",\"4554\",\"38\",\"0\",\"Testing\",\"Stims/Figures/86-J-0-1.bmp\",\"za:sa:za\",\"Up\",\"40\",\"4\",\"4\",\"3B\",\"C2\",\"J\",\"76\"
\"\",\"\",\"approach-retreat\",\"225\",\"6109233\",\"0.0-225.0\",\"\",\"\",\"1-3\",\"3899\",\"40\",\"1\",\"Testing\",\"Stims/Figures/87-J-10-4.bmp\",\"za:sa:za\",\"Up\",\"40\",\"4\",\"5\",\"3B\",\"C2\",\"J\",\"77\"
\"\",\"\",\"approach-retreat\",\"226\",\"6114834\",\"0.0-226.0\",\"\",\"\",\"1-3\",\"4075\",\"38\",\"0\",\"Testing\",\"Stims/Figures/100-C-30-3.bmp\",\"fafasha\",\"Down\",\"40\",\"4\",\"6\",\"3B\",\"C1\",\"J\",\"78\"
\"\",\"\",\"approach-retreat\",\"227\",\"6120402\",\"0.0-227.0\",\"\",\"\",\"1-3\",\"4042\",\"37\",\"0\",\"Testing\",\"Stims/Figures/57-C-30-1.bmp\",\"fafasha\",\"Right\",\"39\",\"4\",\"7\",\"3B\",\"C1\",\"J\",\"79\"
\"\",\"\",\"approach-retreat\",\"228\",\"6125864\",\"0.0-228.0\",\"\",\"\",\"1-3\",\"3937\",\"39\",\"1\",\"Testing\",\"Stims/Figures/57-J-0-1.bmp\",\"za:sa:za\",\"Left\",\"39\",\"4\",\"8\",\"3B\",\"C2\",\"J\",\"80\"
\"\",\"\",\"approach-retreat\",\"229\",\"6131515\",\"0.0-229.0\",\"\",\"\",\"1-3\",\"4126\",\"37\",\"0\",\"Testing\",\"Stims/Figures/94-C-20-2.bmp\",\"fafasha\",\"Right\",\"39\",\"4\",\"9\",\"3B\",\"C1\",\"J\",\"81\"
\"\",\"\",\"approach-retreat\",\"230\",\"6137018\",\"0.0-230.0\",\"\",\"\",\"1-3\",\"3976\",\"40\",\"0\",\"Testing\",\"Stims/Figures/87-C-20-4.bmp\",\"fafasha\",\"Up\",\"38\",\"4\",\"10\",\"3B\",\"C1\",\"J\",\"82\"
\"\",\"\",\"approach-retreat\",\"231\",\"6142718\",\"0.0-231.0\",\"\",\"\",\"1-3\",\"4174\",\"38\",\"1\",\"Testing\",\"Stims/Figures/94-J-0-2.bmp\",\"za:sa:za\",\"Down\",\"38\",\"4\",\"11\",\"3B\",\"C2\",\"J\",\"83\"
\"\",\"\",\"approach-retreat\",\"232\",\"6148433\",\"0.0-232.0\",\"\",\"\",\"1-3\",\"4189\",\"37\",\"1\",\"Testing\",\"Stims/Figures/86-C-30-1.bmp\",\"fafasha\",\"Left\",\"37\",\"4\",\"12\",\"3B\",\"C1\",\"J\",\"84\"
\"\",\"\",\"approach-retreat\",\"233\",\"6154126\",\"0.0-233.0\",\"\",\"\",\"1-3\",\"4166\",\"38\",\"1\",\"Testing\",\"Stims/Figures/100-J-10-3.bmp\",\"za:sa:za\",\"Down\",\"38\",\"4\",\"13\",\"3B\",\"C2\",\"J\",\"85\"
\"\",\"\",\"approach-retreat\",\"234\",\"6159932\",\"0.0-234.0\",\"\",\"\",\"1-3\",\"4280\",\"40\",\"0\",\"Testing\",\"Stims/Figures/44-J-10-3.bmp\",\"za:sa:za\",\"Down\",\"38\",\"4\",\"14\",\"3B\",\"C2\",\"J\",\"86\"
\"\",\"\",\"approach-retreat\",\"235\",\"6165485\",\"0.0-235.0\",\"\",\"\",\"1-3\",\"4028\",\"37\",\"1\",\"Testing\",\"Stims/Figures/19-C-20-4.bmp\",\"fafasha\",\"Left\",\"37\",\"4\",\"15\",\"3B\",\"C1\",\"J\",\"87\"
\"\",\"\",\"approach-retreat\",\"236\",\"6171098\",\"0.0-236.0\",\"\",\"\",\"1-3\",\"4086\",\"40\",\"0\",\"Testing\",\"Stims/Figures/111-C-30-3.bmp\",\"fafasha\",\"Up\",\"38\",\"4\",\"16\",\"3B\",\"C1\",\"J\",\"88\"
\"\",\"\",\"approach-retreat\",\"237\",\"6176746\",\"0.0-237.0\",\"\",\"\",\"1-3\",\"4121\",\"39\",\"1\",\"Testing\",\"Stims/Figures/85-C-20-2.bmp\",\"fafasha\",\"Right\",\"39\",\"4\",\"17\",\"3B\",\"C1\",\"J\",\"89\"
\"\",\"\",\"approach-retreat\",\"238\",\"6182218\",\"0.0-238.0\",\"\",\"\",\"1-3\",\"3945\",\"37\",\"0\",\"Testing\",\"Stims/Figures/102-C-20-4.bmp\",\"fafasha\",\"Right\",\"39\",\"4\",\"18\",\"3B\",\"C1\",\"J\",\"90\"
\"\",\"\",\"approach-retreat\",\"239\",\"6188978\",\"0.0-239.0\",\"\",\"\",\"1-3\",\"5232\",\"40\",\"1\",\"Testing\",\"Stims/Figures/44-C-30-3.bmp\",\"fafasha\",\"Down\",\"40\",\"4\",\"19\",\"3B\",\"C1\",\"J\",\"91\"
\"\",\"\",\"approach-retreat\",\"240\",\"6194740\",\"0.0-240.0\",\"\",\"\",\"1-3\",\"4236\",\"40\",\"0\",\"Testing\",\"Stims/Figures/84-J-0-2.bmp\",\"za:sa:za\",\"Down\",\"38\",\"4\",\"20\",\"3B\",\"C2\",\"J\",\"92\"
\"\",\"\",\"approach-retreat\",\"241\",\"6200480\",\"0.0-241.0\",\"\",\"\",\"1-3\",\"4214\",\"39\",\"1\",\"Testing\",\"Stims/Figures/102-J-10-4.bmp\",\"za:sa:za\",\"Left\",\"39\",\"4\",\"21\",\"3B\",\"C2\",\"J\",\"93\"
\"\",\"\",\"approach-retreat\",\"242\",\"6206096\",\"0.0-242.0\",\"\",\"\",\"1-3\",\"4090\",\"38\",\"0\",\"Testing\",\"Stims/Figures/111-J-10-3.bmp\",\"za:sa:za\",\"Up\",\"40\",\"4\",\"22\",\"3B\",\"C2\",\"J\",\"94\"
\"\",\"\",\"approach-retreat\",\"243\",\"6212593\",\"0.0-243.0\",\"\",\"\",\"1-3\",\"4973\",\"37\",\"0\",\"Testing\",\"Stims/Figures/71-C-30-1.bmp\",\"fafasha\",\"Right\",\"39\",\"4\",\"23\",\"3B\",\"C1\",\"J\",\"95\"
\"\",\"\",\"approach-retreat\",\"244\",\"6218879\",\"0.0-244.0\",\"\",\"\",\"1-3\",\"4759\",\"37\",\"0\",\"Testing\",\"Stims/Figures/85-J-0-2.bmp\",\"za:sa:za\",\"Left\",\"39\",\"4\",\"24\",\"3B\",\"C2\",\"J\",\"96\"
\"33759\",\"\",\"survey-text\",\"245\",\"6252660\",\"0.0-245.0\",\"\",\"{\"\"Q0\"\":\"\"PS170046\"\"}\",\"\",\"\",\"\",\"\",\"\",\"\",\"\",\"\",\"\",\"\",\"\",\"\",\"\",\"\",\"\"
