\"rt\",\"key_press\",\"trial_type\",\"trial_index\",\"time_elapsed\",\"internal_node_id\",\"view_history\",\"responses\",\"Id\",\"Rt\",\"ResKeyCode\",\"ResCorr\",\"TrialType2\",\"Image\",\"Label\",\"Location\",\"CorrectResponse\",\"Block\",\"BlockTrial\",\"Condition\",\"LabelType\",\"Subcondition\",\"trialNum\"
\"110297\",\"32\",\"text\",\"0\",\"111386\",\"0.0-0.0-0.0\",\"\",\"\",\"\",\"\",\"\",\"\",\"\",\"\",\"\",\"\",\"\",\"\",\"\",\"\",\"\",\"\",\"\"
\"86747\",\"\",\"instructions\",\"1\",\"199234\",\"0.0-1.0\",\"[{\"\"page_index\"\":0,\"\"viewing_time\"\":86163}]\",\"\",\"\",\"\",\"\",\"\",\"\",\"\",\"\",\"\",\"\",\"\",\"\",\"\",\"\",\"\",\"\"
\"47068\",\"\",\"survey-multi-choice\",\"2\",\"256621\",\"0.0-2.0\",\"\",\"{\"\"Q0\"\":\"\"Da\"\",\"\"Q1\"\":\"\"Da\"\",\"\"Q2\"\":\"\"Da\"\",\"\"Q3\"\":\"\"Da\"\",\"\"Q4\"\":\"\"Da\"\",\"\"Q5\"\":\"\"Da\"\"}\",\"\",\"\",\"\",\"\",\"\",\"\",\"\",\"\",\"\",\"\",\"\",\"\",\"\",\"\",\"\"
\"\",\"\",\"bio\",\"3\",\"285071\",\"0.0-3.0\",\"\",\"{\"\"age\"\":\"\"20\"\",\"\"gender\"\":\"\"f\"\",\"\"specify\"\":\"\"\"\"}\",\"\",\"\",\"\",\"\",\"\",\"\",\"\",\"\",\"\",\"\",\"\",\"\",\"\",\"\",\"\"
\"\",\"\",\"approach-retreat\",\"4\",\"318969\",\"0.0-4.0\",\"\",\"\",\"3-4\",\"29333\",\"40\",\"0\",\"Training\",\"Stims/Figures/102-J-10-4.bmp\",\"zahaza\",\"Down\",\"38\",\"1\",\"1\",\"6B\",\"C2\",\"J\",\"1\"
\"\",\"\",\"approach-retreat\",\"5\",\"328716\",\"0.0-5.0\",\"\",\"\",\"3-4\",\"7872\",\"40\",\"0\",\"Training\",\"Stims/Figures/102-C-20-4.bmp\",\"vafava\",\"Up\",\"38\",\"1\",\"2\",\"6B\",\"C1\",\"J\",\"2\"
\"\",\"\",\"approach-retreat\",\"6\",\"335904\",\"0.0-6.0\",\"\",\"\",\"3-4\",\"5595\",\"38\",\"0\",\"Training\",\"Stims/Figures/57-C-30-1.bmp\",\"va:fasha\",\"Down\",\"40\",\"1\",\"3\",\"6B\",\"C1\",\"J\",\"3\"
\"\",\"\",\"approach-retreat\",\"7\",\"344432\",\"0.0-7.0\",\"\",\"\",\"3-4\",\"6975\",\"37\",\"0\",\"Training\",\"Stims/Figures/74-C-20-4.bmp\",\"fafasha\",\"Right\",\"39\",\"1\",\"4\",\"6B\",\"C1\",\"J\",\"4\"
\"\",\"\",\"approach-retreat\",\"8\",\"355723\",\"0.0-8.0\",\"\",\"\",\"3-4\",\"9766\",\"39\",\"1\",\"Training\",\"Stims/Figures/144-C-30-3.bmp\",\"va:fa:sha\",\"Right\",\"39\",\"1\",\"5\",\"6B\",\"C1\",\"J\",\"5\"
\"\",\"\",\"approach-retreat\",\"9\",\"363184\",\"0.0-9.0\",\"\",\"\",\"3-4\",\"5942\",\"39\",\"1\",\"Training\",\"Stims/Figures/27-J-0-1.bmp\",\"sa:ha:ha\",\"Left\",\"39\",\"1\",\"6\",\"6B\",\"C2\",\"J\",\"6\"
\"\",\"\",\"approach-retreat\",\"10\",\"369764\",\"0.0-10.0\",\"\",\"\",\"3-4\",\"5031\",\"37\",\"1\",\"Training\",\"Stims/Figures/84-J-0-2.bmp\",\"sasaza\",\"Right\",\"37\",\"1\",\"7\",\"6B\",\"C2\",\"J\",\"7\"
\"\",\"\",\"approach-retreat\",\"11\",\"376714\",\"0.0-11.0\",\"\",\"\",\"3-4\",\"4896\",\"37\",\"0\",\"Training\",\"Stims/Figures/84-C-20-2.bmp\",\"fasha:sha\",\"Right\",\"39\",\"1\",\"8\",\"6B\",\"C1\",\"J\",\"8\"
\"\",\"\",\"approach-retreat\",\"12\",\"383552\",\"0.0-12.0\",\"\",\"\",\"3-4\",\"5325\",\"40\",\"0\",\"Training\",\"Stims/Figures/44-C-30-3.bmp\",\"va:sha:va\",\"Up\",\"38\",\"1\",\"9\",\"6B\",\"C1\",\"J\",\"9\"
\"\",\"\",\"approach-retreat\",\"13\",\"389515\",\"0.0-13.0\",\"\",\"\",\"3-4\",\"4440\",\"39\",\"1\",\"Training\",\"Stims/Figures/144-J-10-3.bmp\",\"za:haha\",\"Left\",\"39\",\"1\",\"10\",\"6B\",\"C2\",\"J\",\"10\"
\"\",\"\",\"approach-retreat\",\"14\",\"395616\",\"0.0-14.0\",\"\",\"\",\"3-4\",\"4588\",\"37\",\"0\",\"Training\",\"Stims/Figures/44-J-10-3.bmp\",\"za:sa:ha\",\"Left\",\"39\",\"1\",\"11\",\"6B\",\"C2\",\"J\",\"11\"
\"\",\"\",\"approach-retreat\",\"15\",\"401610\",\"0.0-15.0\",\"\",\"\",\"3-4\",\"4464\",\"38\",\"1\",\"Training\",\"Stims/Figures/57-J-0-1.bmp\",\"sa:saha\",\"Down\",\"38\",\"1\",\"12\",\"6B\",\"C2\",\"J\",\"12\"
\"\",\"\",\"approach-retreat\",\"16\",\"408729\",\"0.0-16.0\",\"\",\"\",\"3-4\",\"5249\",\"39\",\"0\",\"Training\",\"Stims/Figures/27-C-30-1.bmp\",\"fafava\",\"Left\",\"37\",\"1\",\"13\",\"6B\",\"C1\",\"J\",\"13\"
\"\",\"\",\"approach-retreat\",\"17\",\"415457\",\"0.0-17.0\",\"\",\"\",\"3-4\",\"5192\",\"40\",\"0\",\"Training\",\"Stims/Figures/74-J-10-4.bmp\",\"zasa:ha\",\"Down\",\"38\",\"1\",\"14\",\"6B\",\"C2\",\"J\",\"14\"
\"\",\"\",\"approach-retreat\",\"18\",\"421408\",\"0.0-18.0\",\"\",\"\",\"3-4\",\"4420\",\"40\",\"1\",\"Training\",\"Stims/Figures/85-J-0-2.bmp\",\"sasa:ha\",\"Up\",\"40\",\"1\",\"15\",\"6B\",\"C2\",\"J\",\"15\"
\"\",\"\",\"approach-retreat\",\"19\",\"427358\",\"0.0-19.0\",\"\",\"\",\"3-4\",\"4437\",\"38\",\"1\",\"Training\",\"Stims/Figures/85-C-20-2.bmp\",\"va:shasha\",\"Up\",\"38\",\"1\",\"16\",\"6B\",\"C1\",\"J\",\"16\"
\"\",\"\",\"approach-retreat\",\"20\",\"433257\",\"0.0-20.0\",\"\",\"\",\"3-4\",\"4341\",\"37\",\"1\",\"Training\",\"Stims/Figures/74-C-20-4.bmp\",\"fafasha\",\"Left\",\"37\",\"2\",\"1\",\"6B\",\"C1\",\"J\",\"17\"
\"\",\"\",\"approach-retreat\",\"21\",\"439566\",\"0.0-21.0\",\"\",\"\",\"3-4\",\"4773\",\"38\",\"0\",\"Training\",\"Stims/Figures/84-C-20-2.bmp\",\"fasha:sha\",\"Down\",\"40\",\"2\",\"2\",\"6B\",\"C1\",\"J\",\"18\"
\"\",\"\",\"approach-retreat\",\"22\",\"445357\",\"0.0-22.0\",\"\",\"\",\"3-4\",\"4083\",\"39\",\"1\",\"Training\",\"Stims/Figures/102-J-10-4.bmp\",\"zahaza\",\"Left\",\"39\",\"2\",\"3\",\"6B\",\"C2\",\"J\",\"19\"
\"\",\"\",\"approach-retreat\",\"23\",\"451399\",\"0.0-23.0\",\"\",\"\",\"3-4\",\"4524\",\"39\",\"1\",\"Training\",\"Stims/Figures/144-C-30-3.bmp\",\"va:fa:sha\",\"Right\",\"39\",\"2\",\"4\",\"6B\",\"C1\",\"J\",\"20\"
\"\",\"\",\"approach-retreat\",\"24\",\"457226\",\"0.0-24.0\",\"\",\"\",\"3-4\",\"4302\",\"37\",\"1\",\"Training\",\"Stims/Figures/144-J-10-3.bmp\",\"za:haha\",\"Right\",\"37\",\"2\",\"5\",\"6B\",\"C2\",\"J\",\"21\"
\"\",\"\",\"approach-retreat\",\"25\",\"463092\",\"0.0-25.0\",\"\",\"\",\"3-4\",\"4353\",\"40\",\"1\",\"Training\",\"Stims/Figures/84-J-0-2.bmp\",\"sasaza\",\"Up\",\"40\",\"2\",\"6\",\"6B\",\"C2\",\"J\",\"22\"
\"\",\"\",\"approach-retreat\",\"26\",\"469005\",\"0.0-26.0\",\"\",\"\",\"3-4\",\"4391\",\"37\",\"1\",\"Training\",\"Stims/Figures/44-C-30-3.bmp\",\"va:sha:va\",\"Left\",\"37\",\"2\",\"7\",\"6B\",\"C1\",\"J\",\"23\"
\"\",\"\",\"approach-retreat\",\"27\",\"499772\",\"0.0-27.0\",\"\",\"\",\"3-4\",\"29180\",\"38\",\"0\",\"Training\",\"Stims/Figures/85-C-20-2.bmp\",\"va:shasha\",\"Down\",\"40\",\"2\",\"8\",\"6B\",\"C1\",\"J\",\"24\"
\"\",\"\",\"approach-retreat\",\"28\",\"508885\",\"0.0-28.0\",\"\",\"\",\"3-4\",\"7586\",\"39\",\"1\",\"Training\",\"Stims/Figures/27-J-0-1.bmp\",\"sa:ha:ha\",\"Left\",\"39\",\"2\",\"9\",\"6B\",\"C2\",\"J\",\"25\"
\"\",\"\",\"approach-retreat\",\"29\",\"514847\",\"0.0-29.0\",\"\",\"\",\"3-4\",\"4419\",\"37\",\"1\",\"Training\",\"Stims/Figures/85-J-0-2.bmp\",\"sasa:ha\",\"Right\",\"37\",\"2\",\"10\",\"6B\",\"C2\",\"J\",\"26\"
\"\",\"\",\"approach-retreat\",\"30\",\"527652\",\"0.0-30.0\",\"\",\"\",\"3-4\",\"11181\",\"38\",\"1\",\"Training\",\"Stims/Figures/57-J-0-1.bmp\",\"sa:saha\",\"Down\",\"38\",\"2\",\"11\",\"6B\",\"C2\",\"J\",\"27\"
\"\",\"\",\"approach-retreat\",\"31\",\"533910\",\"0.0-31.0\",\"\",\"\",\"3-4\",\"4745\",\"38\",\"0\",\"Training\",\"Stims/Figures/44-J-10-3.bmp\",\"za:sa:ha\",\"Up\",\"40\",\"2\",\"12\",\"6B\",\"C2\",\"J\",\"28\"
\"\",\"\",\"approach-retreat\",\"32\",\"539877\",\"0.0-32.0\",\"\",\"\",\"3-4\",\"4455\",\"40\",\"0\",\"Training\",\"Stims/Figures/57-C-30-1.bmp\",\"va:fasha\",\"Up\",\"38\",\"2\",\"13\",\"6B\",\"C1\",\"J\",\"29\"
\"\",\"\",\"approach-retreat\",\"33\",\"545642\",\"0.0-33.0\",\"\",\"\",\"3-4\",\"4254\",\"37\",\"0\",\"Training\",\"Stims/Figures/27-C-30-1.bmp\",\"fafava\",\"Right\",\"39\",\"2\",\"14\",\"6B\",\"C1\",\"J\",\"30\"
\"\",\"\",\"approach-retreat\",\"34\",\"551704\",\"0.0-34.0\",\"\",\"\",\"3-4\",\"4551\",\"38\",\"1\",\"Training\",\"Stims/Figures/74-J-10-4.bmp\",\"zasa:ha\",\"Down\",\"38\",\"2\",\"15\",\"6B\",\"C2\",\"J\",\"31\"
\"\",\"\",\"approach-retreat\",\"35\",\"557509\",\"0.0-35.0\",\"\",\"\",\"3-4\",\"4291\",\"40\",\"0\",\"Training\",\"Stims/Figures/102-C-20-4.bmp\",\"vafava\",\"Up\",\"38\",\"2\",\"16\",\"6B\",\"C1\",\"J\",\"32\"
\"\",\"\",\"approach-retreat\",\"36\",\"564422\",\"0.0-36.0\",\"\",\"\",\"3-4\",\"5363\",\"39\",\"1\",\"Training\",\"Stims/Figures/57-J-0-1.bmp\",\"sa:saha\",\"Left\",\"39\",\"3\",\"1\",\"6B\",\"C2\",\"J\",\"33\"
\"\",\"\",\"approach-retreat\",\"37\",\"570318\",\"0.0-37.0\",\"\",\"\",\"3-4\",\"4381\",\"39\",\"1\",\"Training\",\"Stims/Figures/102-C-20-4.bmp\",\"vafava\",\"Right\",\"39\",\"3\",\"2\",\"6B\",\"C1\",\"J\",\"34\"
\"\",\"\",\"approach-retreat\",\"38\",\"578934\",\"0.0-38.0\",\"\",\"\",\"3-4\",\"4385\",\"38\",\"0\",\"Training\",\"Stims/Figures/57-C-30-1.bmp\",\"va:fasha\",\"Down\",\"40\",\"3\",\"3\",\"6B\",\"C1\",\"J\",\"35\"
\"\",\"\",\"approach-retreat\",\"39\",\"585478\",\"0.0-39.0\",\"\",\"\",\"3-4\",\"5032\",\"39\",\"1\",\"Training\",\"Stims/Figures/102-J-10-4.bmp\",\"zahaza\",\"Left\",\"39\",\"3\",\"4\",\"6B\",\"C2\",\"J\",\"36\"
\"\",\"\",\"approach-retreat\",\"40\",\"591719\",\"0.0-40.0\",\"\",\"\",\"3-4\",\"4728\",\"40\",\"0\",\"Training\",\"Stims/Figures/85-C-20-2.bmp\",\"va:shasha\",\"Up\",\"38\",\"3\",\"5\",\"6B\",\"C1\",\"J\",\"37\"
\"\",\"\",\"approach-retreat\",\"41\",\"597760\",\"0.0-41.0\",\"\",\"\",\"3-4\",\"4528\",\"37\",\"1\",\"Training\",\"Stims/Figures/85-J-0-2.bmp\",\"sasa:ha\",\"Right\",\"37\",\"3\",\"6\",\"6B\",\"C2\",\"J\",\"38\"
\"\",\"\",\"approach-retreat\",\"42\",\"603900\",\"0.0-42.0\",\"\",\"\",\"3-4\",\"4605\",\"39\",\"1\",\"Training\",\"Stims/Figures/74-C-20-4.bmp\",\"fafasha\",\"Right\",\"39\",\"3\",\"7\",\"6B\",\"C1\",\"J\",\"39\"
\"\",\"\",\"approach-retreat\",\"43\",\"611012\",\"0.0-43.0\",\"\",\"\",\"3-4\",\"5374\",\"39\",\"1\",\"Training\",\"Stims/Figures/74-J-10-4.bmp\",\"zasa:ha\",\"Left\",\"39\",\"3\",\"8\",\"6B\",\"C2\",\"J\",\"40\"
\"\",\"\",\"approach-retreat\",\"44\",\"618725\",\"0.0-44.0\",\"\",\"\",\"3-4\",\"6146\",\"39\",\"1\",\"Training\",\"Stims/Figures/44-C-30-3.bmp\",\"va:sha:va\",\"Right\",\"39\",\"3\",\"9\",\"6B\",\"C1\",\"J\",\"41\"
\"\",\"\",\"approach-retreat\",\"45\",\"625339\",\"0.0-45.0\",\"\",\"\",\"3-4\",\"5055\",\"37\",\"0\",\"Training\",\"Stims/Figures/84-J-0-2.bmp\",\"sasaza\",\"Left\",\"39\",\"3\",\"10\",\"6B\",\"C2\",\"J\",\"42\"
\"\",\"\",\"approach-retreat\",\"46\",\"631343\",\"0.0-46.0\",\"\",\"\",\"3-4\",\"4326\",\"40\",\"0\",\"Training\",\"Stims/Figures/44-J-10-3.bmp\",\"za:sa:ha\",\"Down\",\"38\",\"3\",\"11\",\"6B\",\"C2\",\"J\",\"43\"
\"\",\"\",\"approach-retreat\",\"47\",\"645239\",\"0.0-47.0\",\"\",\"\",\"3-4\",\"12167\",\"38\",\"1\",\"Training\",\"Stims/Figures/144-C-30-3.bmp\",\"va:fa:sha\",\"Up\",\"38\",\"3\",\"12\",\"6B\",\"C1\",\"J\",\"44\"
\"\",\"\",\"approach-retreat\",\"48\",\"654825\",\"0.0-48.0\",\"\",\"\",\"3-4\",\"8080\",\"40\",\"1\",\"Training\",\"Stims/Figures/84-C-20-2.bmp\",\"fasha:sha\",\"Down\",\"40\",\"3\",\"13\",\"6B\",\"C1\",\"J\",\"45\"
\"\",\"\",\"approach-retreat\",\"49\",\"660505\",\"0.0-49.0\",\"\",\"\",\"3-4\",\"4167\",\"38\",\"1\",\"Training\",\"Stims/Figures/144-J-10-3.bmp\",\"za:haha\",\"Down\",\"38\",\"3\",\"14\",\"6B\",\"C2\",\"J\",\"46\"
\"\",\"\",\"approach-retreat\",\"50\",\"666528\",\"0.0-50.0\",\"\",\"\",\"3-4\",\"4511\",\"40\",\"1\",\"Training\",\"Stims/Figures/27-J-0-1.bmp\",\"sa:ha:ha\",\"Up\",\"40\",\"3\",\"15\",\"6B\",\"C2\",\"J\",\"47\"
\"\",\"\",\"approach-retreat\",\"51\",\"672690\",\"0.0-51.0\",\"\",\"\",\"3-4\",\"4650\",\"38\",\"1\",\"Training\",\"Stims/Figures/27-C-30-1.bmp\",\"fafava\",\"Up\",\"38\",\"3\",\"16\",\"6B\",\"C1\",\"J\",\"48\"
\"\",\"\",\"approach-retreat\",\"52\",\"679050\",\"0.0-52.0\",\"\",\"\",\"3-4\",\"4847\",\"38\",\"1\",\"Training\",\"Stims/Figures/84-J-0-2.bmp\",\"sasaza\",\"Down\",\"38\",\"4\",\"1\",\"6B\",\"C2\",\"J\",\"49\"
\"\",\"\",\"approach-retreat\",\"53\",\"684899\",\"0.0-53.0\",\"\",\"\",\"3-4\",\"4337\",\"40\",\"1\",\"Training\",\"Stims/Figures/84-C-20-2.bmp\",\"fasha:sha\",\"Down\",\"40\",\"4\",\"2\",\"6B\",\"C1\",\"J\",\"50\"
\"\",\"\",\"approach-retreat\",\"54\",\"690656\",\"0.0-54.0\",\"\",\"\",\"3-4\",\"4250\",\"40\",\"1\",\"Training\",\"Stims/Figures/27-C-30-1.bmp\",\"fafava\",\"Down\",\"40\",\"4\",\"3\",\"6B\",\"C1\",\"J\",\"51\"
\"\",\"\",\"approach-retreat\",\"55\",\"696747\",\"0.0-55.0\",\"\",\"\",\"3-4\",\"4578\",\"39\",\"1\",\"Training\",\"Stims/Figures/85-C-20-2.bmp\",\"va:shasha\",\"Right\",\"39\",\"4\",\"4\",\"6B\",\"C1\",\"J\",\"52\"
\"\",\"\",\"approach-retreat\",\"56\",\"702745\",\"0.0-56.0\",\"\",\"\",\"3-4\",\"4362\",\"40\",\"1\",\"Training\",\"Stims/Figures/102-J-10-4.bmp\",\"zahaza\",\"Up\",\"40\",\"4\",\"5\",\"6B\",\"C2\",\"J\",\"53\"
\"\",\"\",\"approach-retreat\",\"57\",\"708706\",\"0.0-57.0\",\"\",\"\",\"3-4\",\"4448\",\"38\",\"1\",\"Training\",\"Stims/Figures/144-C-30-3.bmp\",\"va:fa:sha\",\"Up\",\"38\",\"4\",\"6\",\"6B\",\"C1\",\"J\",\"54\"
\"\",\"\",\"approach-retreat\",\"58\",\"714551\",\"0.0-58.0\",\"\",\"\",\"3-4\",\"4333\",\"39\",\"1\",\"Training\",\"Stims/Figures/44-C-30-3.bmp\",\"va:sha:va\",\"Right\",\"39\",\"4\",\"7\",\"6B\",\"C1\",\"J\",\"55\"
\"\",\"\",\"approach-retreat\",\"59\",\"720769\",\"0.0-59.0\",\"\",\"\",\"3-4\",\"4705\",\"39\",\"1\",\"Training\",\"Stims/Figures/27-J-0-1.bmp\",\"sa:ha:ha\",\"Left\",\"39\",\"4\",\"8\",\"6B\",\"C2\",\"J\",\"56\"
\"\",\"\",\"approach-retreat\",\"60\",\"727244\",\"0.0-60.0\",\"\",\"\",\"3-4\",\"4858\",\"40\",\"1\",\"Training\",\"Stims/Figures/57-J-0-1.bmp\",\"sa:saha\",\"Up\",\"40\",\"4\",\"9\",\"6B\",\"C2\",\"J\",\"57\"
\"\",\"\",\"approach-retreat\",\"61\",\"733050\",\"0.0-61.0\",\"\",\"\",\"3-4\",\"4300\",\"40\",\"1\",\"Training\",\"Stims/Figures/144-J-10-3.bmp\",\"za:haha\",\"Up\",\"40\",\"4\",\"10\",\"6B\",\"C2\",\"J\",\"58\"
\"\",\"\",\"approach-retreat\",\"62\",\"739437\",\"0.0-62.0\",\"\",\"\",\"3-4\",\"4654\",\"39\",\"1\",\"Training\",\"Stims/Figures/44-J-10-3.bmp\",\"za:sa:ha\",\"Left\",\"39\",\"4\",\"11\",\"6B\",\"C2\",\"J\",\"59\"
\"\",\"\",\"approach-retreat\",\"63\",\"746298\",\"0.0-63.0\",\"\",\"\",\"3-4\",\"5096\",\"39\",\"1\",\"Training\",\"Stims/Figures/102-C-20-4.bmp\",\"vafava\",\"Right\",\"39\",\"4\",\"12\",\"6B\",\"C1\",\"J\",\"60\"
\"\",\"\",\"approach-retreat\",\"64\",\"753021\",\"0.0-64.0\",\"\",\"\",\"3-4\",\"5212\",\"40\",\"1\",\"Training\",\"Stims/Figures/74-C-20-4.bmp\",\"fafasha\",\"Down\",\"40\",\"4\",\"13\",\"6B\",\"C1\",\"J\",\"61\"
\"\",\"\",\"approach-retreat\",\"65\",\"759115\",\"0.0-65.0\",\"\",\"\",\"3-4\",\"4581\",\"37\",\"1\",\"Training\",\"Stims/Figures/74-J-10-4.bmp\",\"zasa:ha\",\"Right\",\"37\",\"4\",\"14\",\"6B\",\"C2\",\"J\",\"62\"
\"\",\"\",\"approach-retreat\",\"66\",\"765323\",\"0.0-66.0\",\"\",\"\",\"3-4\",\"4697\",\"39\",\"1\",\"Training\",\"Stims/Figures/85-J-0-2.bmp\",\"sasa:ha\",\"Left\",\"39\",\"4\",\"15\",\"6B\",\"C2\",\"J\",\"63\"
\"\",\"\",\"approach-retreat\",\"67\",\"771291\",\"0.0-67.0\",\"\",\"\",\"3-4\",\"4459\",\"37\",\"1\",\"Training\",\"Stims/Figures/57-C-30-1.bmp\",\"va:fasha\",\"Left\",\"37\",\"4\",\"16\",\"6B\",\"C1\",\"J\",\"64\"
\"\",\"\",\"approach-retreat\",\"68\",\"777249\",\"0.0-68.0\",\"\",\"\",\"3-4\",\"4445\",\"38\",\"1\",\"Training\",\"Stims/Figures/57-C-30-1.bmp\",\"va:fasha\",\"Up\",\"38\",\"5\",\"1\",\"6B\",\"C1\",\"J\",\"65\"
\"\",\"\",\"approach-retreat\",\"69\",\"783335\",\"0.0-69.0\",\"\",\"\",\"3-4\",\"4579\",\"37\",\"1\",\"Training\",\"Stims/Figures/74-C-20-4.bmp\",\"fafasha\",\"Left\",\"37\",\"5\",\"2\",\"6B\",\"C1\",\"J\",\"66\"
\"\",\"\",\"approach-retreat\",\"70\",\"789078\",\"0.0-70.0\",\"\",\"\",\"3-4\",\"4232\",\"40\",\"1\",\"Training\",\"Stims/Figures/102-C-20-4.bmp\",\"vafava\",\"Down\",\"40\",\"5\",\"3\",\"6B\",\"C1\",\"J\",\"67\"
\"\",\"\",\"approach-retreat\",\"71\",\"794991\",\"0.0-71.0\",\"\",\"\",\"3-4\",\"4407\",\"40\",\"1\",\"Training\",\"Stims/Figures/27-C-30-1.bmp\",\"fafava\",\"Down\",\"40\",\"5\",\"4\",\"6B\",\"C1\",\"J\",\"68\"
\"\",\"\",\"approach-retreat\",\"72\",\"800835\",\"0.0-72.0\",\"\",\"\",\"3-4\",\"4332\",\"40\",\"0\",\"Training\",\"Stims/Figures/44-C-30-3.bmp\",\"va:sha:va\",\"Up\",\"38\",\"5\",\"5\",\"6B\",\"C1\",\"J\",\"69\"
\"\",\"\",\"approach-retreat\",\"73\",\"806753\",\"0.0-73.0\",\"\",\"\",\"3-4\",\"4409\",\"39\",\"1\",\"Training\",\"Stims/Figures/144-C-30-3.bmp\",\"va:fa:sha\",\"Right\",\"39\",\"5\",\"6\",\"6B\",\"C1\",\"J\",\"70\"
\"\",\"\",\"approach-retreat\",\"74\",\"812663\",\"0.0-74.0\",\"\",\"\",\"3-4\",\"4403\",\"39\",\"1\",\"Training\",\"Stims/Figures/144-J-10-3.bmp\",\"za:haha\",\"Left\",\"39\",\"5\",\"7\",\"6B\",\"C2\",\"J\",\"71\"
\"\",\"\",\"approach-retreat\",\"75\",\"818338\",\"0.0-75.0\",\"\",\"\",\"3-4\",\"4164\",\"39\",\"1\",\"Training\",\"Stims/Figures/74-J-10-4.bmp\",\"zasa:ha\",\"Left\",\"39\",\"5\",\"8\",\"6B\",\"C2\",\"J\",\"72\"
\"\",\"\",\"approach-retreat\",\"76\",\"824694\",\"0.0-76.0\",\"\",\"\",\"3-4\",\"4605\",\"37\",\"1\",\"Training\",\"Stims/Figures/84-J-0-2.bmp\",\"sasaza\",\"Right\",\"37\",\"5\",\"9\",\"6B\",\"C2\",\"J\",\"73\"
\"\",\"\",\"approach-retreat\",\"77\",\"833588\",\"0.0-77.0\",\"\",\"\",\"3-4\",\"7382\",\"40\",\"1\",\"Training\",\"Stims/Figures/102-J-10-4.bmp\",\"zahaza\",\"Up\",\"40\",\"5\",\"10\",\"6B\",\"C2\",\"J\",\"74\"
\"\",\"\",\"approach-retreat\",\"78\",\"839809\",\"0.0-78.0\",\"\",\"\",\"3-4\",\"4713\",\"39\",\"1\",\"Training\",\"Stims/Figures/84-C-20-2.bmp\",\"fasha:sha\",\"Right\",\"39\",\"5\",\"11\",\"6B\",\"C1\",\"J\",\"75\"
\"\",\"\",\"approach-retreat\",\"79\",\"845713\",\"0.0-79.0\",\"\",\"\",\"3-4\",\"4391\",\"40\",\"1\",\"Training\",\"Stims/Figures/85-C-20-2.bmp\",\"va:shasha\",\"Down\",\"40\",\"5\",\"12\",\"6B\",\"C1\",\"J\",\"76\"
\"\",\"\",\"approach-retreat\",\"80\",\"852495\",\"0.0-80.0\",\"\",\"\",\"3-4\",\"5268\",\"38\",\"1\",\"Training\",\"Stims/Figures/85-J-0-2.bmp\",\"sasa:ha\",\"Down\",\"38\",\"5\",\"13\",\"6B\",\"C2\",\"J\",\"77\"
\"\",\"\",\"approach-retreat\",\"81\",\"858407\",\"0.0-81.0\",\"\",\"\",\"3-4\",\"4400\",\"40\",\"1\",\"Training\",\"Stims/Figures/44-J-10-3.bmp\",\"za:sa:ha\",\"Up\",\"40\",\"5\",\"14\",\"6B\",\"C2\",\"J\",\"78\"
\"\",\"\",\"approach-retreat\",\"82\",\"864056\",\"0.0-82.0\",\"\",\"\",\"3-4\",\"4137\",\"39\",\"1\",\"Training\",\"Stims/Figures/27-J-0-1.bmp\",\"sa:ha:ha\",\"Left\",\"39\",\"5\",\"15\",\"6B\",\"C2\",\"J\",\"79\"
\"\",\"\",\"approach-retreat\",\"83\",\"870034\",\"0.0-83.0\",\"\",\"\",\"3-4\",\"4468\",\"37\",\"1\",\"Training\",\"Stims/Figures/57-J-0-1.bmp\",\"sa:saha\",\"Right\",\"37\",\"5\",\"16\",\"6B\",\"C2\",\"J\",\"80\"
\"\",\"\",\"approach-retreat\",\"84\",\"876777\",\"0.0-84.0\",\"\",\"\",\"3-4\",\"5236\",\"37\",\"1\",\"Training\",\"Stims/Figures/44-C-30-3.bmp\",\"va:sha:va\",\"Left\",\"37\",\"6\",\"1\",\"6B\",\"C1\",\"J\",\"81\"
\"\",\"\",\"approach-retreat\",\"85\",\"883094\",\"0.0-85.0\",\"\",\"\",\"3-4\",\"4805\",\"40\",\"1\",\"Training\",\"Stims/Figures/57-J-0-1.bmp\",\"sa:saha\",\"Up\",\"40\",\"6\",\"2\",\"6B\",\"C2\",\"J\",\"82\"
\"\",\"\",\"approach-retreat\",\"86\",\"889272\",\"0.0-86.0\",\"\",\"\",\"3-4\",\"4668\",\"38\",\"1\",\"Training\",\"Stims/Figures/27-J-0-1.bmp\",\"sa:ha:ha\",\"Down\",\"38\",\"6\",\"3\",\"6B\",\"C2\",\"J\",\"83\"
\"\",\"\",\"approach-retreat\",\"87\",\"895284\",\"0.0-87.0\",\"\",\"\",\"3-4\",\"4499\",\"37\",\"1\",\"Training\",\"Stims/Figures/74-J-10-4.bmp\",\"zasa:ha\",\"Right\",\"37\",\"6\",\"4\",\"6B\",\"C2\",\"J\",\"84\"
\"\",\"\",\"approach-retreat\",\"88\",\"901112\",\"0.0-88.0\",\"\",\"\",\"3-4\",\"4304\",\"40\",\"1\",\"Training\",\"Stims/Figures/85-J-0-2.bmp\",\"sasa:ha\",\"Up\",\"40\",\"6\",\"5\",\"6B\",\"C2\",\"J\",\"85\"
\"\",\"\",\"approach-retreat\",\"89\",\"906969\",\"0.0-89.0\",\"\",\"\",\"3-4\",\"4346\",\"38\",\"1\",\"Training\",\"Stims/Figures/84-J-0-2.bmp\",\"sasaza\",\"Down\",\"38\",\"6\",\"6\",\"6B\",\"C2\",\"J\",\"86\"
\"\",\"\",\"approach-retreat\",\"90\",\"912875\",\"0.0-90.0\",\"\",\"\",\"3-4\",\"4399\",\"40\",\"1\",\"Training\",\"Stims/Figures/27-C-30-1.bmp\",\"fafava\",\"Down\",\"40\",\"6\",\"7\",\"6B\",\"C1\",\"J\",\"87\"
\"\",\"\",\"approach-retreat\",\"91\",\"918610\",\"0.0-91.0\",\"\",\"\",\"3-4\",\"4222\",\"39\",\"1\",\"Training\",\"Stims/Figures/102-C-20-4.bmp\",\"vafava\",\"Right\",\"39\",\"6\",\"8\",\"6B\",\"C1\",\"J\",\"88\"
\"\",\"\",\"approach-retreat\",\"92\",\"924280\",\"0.0-92.0\",\"\",\"\",\"3-4\",\"4158\",\"40\",\"1\",\"Training\",\"Stims/Figures/144-J-10-3.bmp\",\"za:haha\",\"Up\",\"40\",\"6\",\"9\",\"6B\",\"C2\",\"J\",\"89\"
\"\",\"\",\"approach-retreat\",\"93\",\"930067\",\"0.0-93.0\",\"\",\"\",\"3-4\",\"4276\",\"39\",\"1\",\"Training\",\"Stims/Figures/44-J-10-3.bmp\",\"za:sa:ha\",\"Left\",\"39\",\"6\",\"10\",\"6B\",\"C2\",\"J\",\"90\"
\"\",\"\",\"approach-retreat\",\"94\",\"936229\",\"0.0-94.0\",\"\",\"\",\"3-4\",\"4627\",\"38\",\"1\",\"Training\",\"Stims/Figures/85-C-20-2.bmp\",\"va:shasha\",\"Up\",\"38\",\"6\",\"11\",\"6B\",\"C1\",\"J\",\"91\"
\"\",\"\",\"approach-retreat\",\"95\",\"942019\",\"0.0-95.0\",\"\",\"\",\"3-4\",\"4278\",\"39\",\"1\",\"Training\",\"Stims/Figures/57-C-30-1.bmp\",\"va:fasha\",\"Right\",\"39\",\"6\",\"12\",\"6B\",\"C1\",\"J\",\"92\"
\"\",\"\",\"approach-retreat\",\"96\",\"947791\",\"0.0-96.0\",\"\",\"\",\"3-4\",\"4265\",\"39\",\"0\",\"Training\",\"Stims/Figures/74-C-20-4.bmp\",\"fafasha\",\"Left\",\"37\",\"6\",\"13\",\"6B\",\"C1\",\"J\",\"93\"
\"\",\"\",\"approach-retreat\",\"97\",\"954218\",\"0.0-97.0\",\"\",\"\",\"3-4\",\"4914\",\"39\",\"1\",\"Training\",\"Stims/Figures/144-C-30-3.bmp\",\"va:fa:sha\",\"Right\",\"39\",\"6\",\"14\",\"6B\",\"C1\",\"J\",\"94\"
\"\",\"\",\"approach-retreat\",\"98\",\"960737\",\"0.0-98.0\",\"\",\"\",\"3-4\",\"4990\",\"38\",\"1\",\"Training\",\"Stims/Figures/102-J-10-4.bmp\",\"zahaza\",\"Down\",\"38\",\"6\",\"15\",\"6B\",\"C2\",\"J\",\"95\"
\"\",\"\",\"approach-retreat\",\"99\",\"966882\",\"0.0-99.0\",\"\",\"\",\"3-4\",\"4635\",\"39\",\"0\",\"Training\",\"Stims/Figures/84-C-20-2.bmp\",\"fasha:sha\",\"Left\",\"37\",\"6\",\"16\",\"6B\",\"C1\",\"J\",\"96\"
\"\",\"\",\"approach-retreat\",\"100\",\"973311\",\"0.0-100.0\",\"\",\"\",\"3-4\",\"4917\",\"39\",\"1\",\"Training\",\"Stims/Figures/85-J-0-2.bmp\",\"sasa:ha\",\"Left\",\"39\",\"7\",\"1\",\"6B\",\"C2\",\"J\",\"97\"
\"\",\"\",\"approach-retreat\",\"101\",\"979317\",\"0.0-101.0\",\"\",\"\",\"3-4\",\"4494\",\"38\",\"1\",\"Training\",\"Stims/Figures/57-C-30-1.bmp\",\"va:fasha\",\"Up\",\"38\",\"7\",\"2\",\"6B\",\"C1\",\"J\",\"98\"
\"\",\"\",\"approach-retreat\",\"102\",\"985072\",\"0.0-102.0\",\"\",\"\",\"3-4\",\"4244\",\"39\",\"1\",\"Training\",\"Stims/Figures/74-C-20-4.bmp\",\"fafasha\",\"Right\",\"39\",\"7\",\"3\",\"6B\",\"C1\",\"J\",\"99\"
\"\",\"\",\"approach-retreat\",\"103\",\"991460\",\"0.0-103.0\",\"\",\"\",\"3-4\",\"4875\",\"37\",\"1\",\"Training\",\"Stims/Figures/74-J-10-4.bmp\",\"zasa:ha\",\"Right\",\"37\",\"7\",\"4\",\"6B\",\"C2\",\"J\",\"100\"
\"\",\"\",\"approach-retreat\",\"104\",\"997402\",\"0.0-104.0\",\"\",\"\",\"3-4\",\"4437\",\"38\",\"1\",\"Training\",\"Stims/Figures/27-J-0-1.bmp\",\"sa:ha:ha\",\"Down\",\"38\",\"7\",\"5\",\"6B\",\"C2\",\"J\",\"101\"
\"\",\"\",\"approach-retreat\",\"105\",\"1003172\",\"0.0-105.0\",\"\",\"\",\"3-4\",\"4266\",\"40\",\"1\",\"Training\",\"Stims/Figures/57-J-0-1.bmp\",\"sa:saha\",\"Up\",\"40\",\"7\",\"6\",\"6B\",\"C2\",\"J\",\"102\"
\"\",\"\",\"approach-retreat\",\"106\",\"1009220\",\"0.0-106.0\",\"\",\"\",\"3-4\",\"4535\",\"40\",\"1\",\"Training\",\"Stims/Figures/84-C-20-2.bmp\",\"fasha:sha\",\"Down\",\"40\",\"7\",\"7\",\"6B\",\"C1\",\"J\",\"103\"
\"\",\"\",\"approach-retreat\",\"107\",\"1016153\",\"0.0-107.0\",\"\",\"\",\"3-4\",\"5412\",\"40\",\"1\",\"Training\",\"Stims/Figures/102-J-10-4.bmp\",\"zahaza\",\"Up\",\"40\",\"7\",\"8\",\"6B\",\"C2\",\"J\",\"104\"
\"\",\"\",\"approach-retreat\",\"108\",\"1022497\",\"0.0-108.0\",\"\",\"\",\"3-4\",\"4831\",\"37\",\"1\",\"Training\",\"Stims/Figures/44-J-10-3.bmp\",\"za:sa:ha\",\"Right\",\"37\",\"7\",\"9\",\"6B\",\"C2\",\"J\",\"105\"
\"\",\"\",\"approach-retreat\",\"109\",\"1028716\",\"0.0-109.0\",\"\",\"\",\"3-4\",\"4707\",\"37\",\"1\",\"Training\",\"Stims/Figures/44-C-30-3.bmp\",\"va:sha:va\",\"Left\",\"37\",\"7\",\"10\",\"6B\",\"C1\",\"J\",\"106\"
\"\",\"\",\"approach-retreat\",\"110\",\"1034649\",\"0.0-110.0\",\"\",\"\",\"3-4\",\"4428\",\"38\",\"1\",\"Training\",\"Stims/Figures/144-J-10-3.bmp\",\"za:haha\",\"Down\",\"38\",\"7\",\"11\",\"6B\",\"C2\",\"J\",\"107\"
\"\",\"\",\"approach-retreat\",\"111\",\"1040665\",\"0.0-111.0\",\"\",\"\",\"3-4\",\"4507\",\"37\",\"1\",\"Training\",\"Stims/Figures/144-C-30-3.bmp\",\"va:fa:sha\",\"Left\",\"37\",\"7\",\"12\",\"6B\",\"C1\",\"J\",\"108\"
\"\",\"\",\"approach-retreat\",\"112\",\"1046628\",\"0.0-112.0\",\"\",\"\",\"3-4\",\"4459\",\"37\",\"1\",\"Training\",\"Stims/Figures/85-C-20-2.bmp\",\"va:shasha\",\"Left\",\"37\",\"7\",\"13\",\"6B\",\"C1\",\"J\",\"109\"
\"\",\"\",\"approach-retreat\",\"113\",\"1052621\",\"0.0-113.0\",\"\",\"\",\"3-4\",\"4489\",\"37\",\"1\",\"Training\",\"Stims/Figures/84-J-0-2.bmp\",\"sasaza\",\"Right\",\"37\",\"7\",\"14\",\"6B\",\"C2\",\"J\",\"110\"
\"\",\"\",\"approach-retreat\",\"114\",\"1058552\",\"0.0-114.0\",\"\",\"\",\"3-4\",\"4424\",\"40\",\"1\",\"Training\",\"Stims/Figures/102-C-20-4.bmp\",\"vafava\",\"Down\",\"40\",\"7\",\"15\",\"6B\",\"C1\",\"J\",\"111\"
\"\",\"\",\"approach-retreat\",\"115\",\"1064384\",\"0.0-115.0\",\"\",\"\",\"3-4\",\"4321\",\"40\",\"0\",\"Training\",\"Stims/Figures/27-C-30-1.bmp\",\"fafava\",\"Up\",\"38\",\"7\",\"16\",\"6B\",\"C1\",\"J\",\"112\"
\"\",\"\",\"approach-retreat\",\"116\",\"1071669\",\"0.0-116.0\",\"\",\"\",\"3-4\",\"5780\",\"40\",\"1\",\"Training\",\"Stims/Figures/74-J-10-4.bmp\",\"zasa:ha\",\"Up\",\"40\",\"8\",\"1\",\"6B\",\"C2\",\"J\",\"113\"
\"\",\"\",\"approach-retreat\",\"117\",\"1077584\",\"0.0-117.0\",\"\",\"\",\"3-4\",\"4410\",\"37\",\"1\",\"Training\",\"Stims/Figures/84-J-0-2.bmp\",\"sasaza\",\"Right\",\"37\",\"8\",\"2\",\"6B\",\"C2\",\"J\",\"114\"
\"\",\"\",\"approach-retreat\",\"118\",\"1084919\",\"0.0-118.0\",\"\",\"\",\"3-4\",\"5823\",\"37\",\"1\",\"Training\",\"Stims/Figures/102-C-20-4.bmp\",\"vafava\",\"Left\",\"37\",\"8\",\"3\",\"6B\",\"C1\",\"J\",\"115\"
\"\",\"\",\"approach-retreat\",\"119\",\"1090691\",\"0.0-119.0\",\"\",\"\",\"3-4\",\"4264\",\"37\",\"1\",\"Training\",\"Stims/Figures/44-C-30-3.bmp\",\"va:sha:va\",\"Left\",\"37\",\"8\",\"4\",\"6B\",\"C1\",\"J\",\"116\"
\"\",\"\",\"approach-retreat\",\"120\",\"1097760\",\"0.0-120.0\",\"\",\"\",\"3-4\",\"5564\",\"40\",\"1\",\"Training\",\"Stims/Figures/57-C-30-1.bmp\",\"va:fasha\",\"Down\",\"40\",\"8\",\"5\",\"6B\",\"C1\",\"J\",\"117\"
\"\",\"\",\"approach-retreat\",\"121\",\"1103420\",\"0.0-121.0\",\"\",\"\",\"3-4\",\"4154\",\"39\",\"1\",\"Training\",\"Stims/Figures/144-J-10-3.bmp\",\"za:haha\",\"Left\",\"39\",\"8\",\"6\",\"6B\",\"C2\",\"J\",\"118\"
\"\",\"\",\"approach-retreat\",\"122\",\"1109451\",\"0.0-122.0\",\"\",\"\",\"3-4\",\"4527\",\"37\",\"1\",\"Training\",\"Stims/Figures/44-J-10-3.bmp\",\"za:sa:ha\",\"Right\",\"37\",\"8\",\"7\",\"6B\",\"C2\",\"J\",\"119\"
\"\",\"\",\"approach-retreat\",\"123\",\"1115218\",\"0.0-123.0\",\"\",\"\",\"3-4\",\"4262\",\"38\",\"1\",\"Training\",\"Stims/Figures/27-J-0-1.bmp\",\"sa:ha:ha\",\"Down\",\"38\",\"8\",\"8\",\"6B\",\"C2\",\"J\",\"120\"
\"\",\"\",\"approach-retreat\",\"124\",\"1121584\",\"0.0-124.0\",\"\",\"\",\"3-4\",\"4861\",\"38\",\"1\",\"Training\",\"Stims/Figures/144-C-30-3.bmp\",\"va:fa:sha\",\"Up\",\"38\",\"8\",\"9\",\"6B\",\"C1\",\"J\",\"121\"
\"\",\"\",\"approach-retreat\",\"125\",\"1127425\",\"0.0-125.0\",\"\",\"\",\"3-4\",\"4331\",\"40\",\"1\",\"Training\",\"Stims/Figures/85-J-0-2.bmp\",\"sasa:ha\",\"Up\",\"40\",\"8\",\"10\",\"6B\",\"C2\",\"J\",\"122\"
\"\",\"\",\"approach-retreat\",\"126\",\"1134009\",\"0.0-126.0\",\"\",\"\",\"3-4\",\"5076\",\"40\",\"1\",\"Training\",\"Stims/Figures/85-C-20-2.bmp\",\"va:shasha\",\"Down\",\"40\",\"8\",\"11\",\"6B\",\"C1\",\"J\",\"123\"
\"\",\"\",\"approach-retreat\",\"127\",\"1139984\",\"0.0-127.0\",\"\",\"\",\"3-4\",\"4465\",\"38\",\"1\",\"Training\",\"Stims/Figures/84-C-20-2.bmp\",\"fasha:sha\",\"Up\",\"38\",\"8\",\"12\",\"6B\",\"C1\",\"J\",\"124\"
\"\",\"\",\"approach-retreat\",\"128\",\"1145766\",\"0.0-128.0\",\"\",\"\",\"3-4\",\"4272\",\"40\",\"1\",\"Training\",\"Stims/Figures/74-C-20-4.bmp\",\"fafasha\",\"Down\",\"40\",\"8\",\"13\",\"6B\",\"C1\",\"J\",\"125\"
\"\",\"\",\"approach-retreat\",\"129\",\"1151419\",\"0.0-129.0\",\"\",\"\",\"3-4\",\"4148\",\"37\",\"1\",\"Training\",\"Stims/Figures/102-J-10-4.bmp\",\"zahaza\",\"Right\",\"37\",\"8\",\"14\",\"6B\",\"C2\",\"J\",\"126\"
\"\",\"\",\"approach-retreat\",\"130\",\"1158100\",\"0.0-130.0\",\"\",\"\",\"3-4\",\"5170\",\"39\",\"1\",\"Training\",\"Stims/Figures/27-C-30-1.bmp\",\"fafava\",\"Right\",\"39\",\"8\",\"15\",\"6B\",\"C1\",\"J\",\"127\"
\"\",\"\",\"approach-retreat\",\"131\",\"1163915\",\"0.0-131.0\",\"\",\"\",\"3-4\",\"4311\",\"39\",\"1\",\"Training\",\"Stims/Figures/57-J-0-1.bmp\",\"sa:saha\",\"Left\",\"39\",\"8\",\"16\",\"6B\",\"C2\",\"J\",\"128\"
\"\",\"\",\"approach-retreat\",\"132\",\"1169638\",\"0.0-132.0\",\"\",\"\",\"3-4\",\"4216\",\"39\",\"1\",\"Training\",\"Stims/Figures/85-J-0-2.bmp\",\"sasa:ha\",\"Left\",\"39\",\"9\",\"1\",\"6B\",\"C2\",\"J\",\"129\"
\"\",\"\",\"approach-retreat\",\"133\",\"1176719\",\"0.0-133.0\",\"\",\"\",\"3-4\",\"5574\",\"40\",\"1\",\"Training\",\"Stims/Figures/85-C-20-2.bmp\",\"va:shasha\",\"Down\",\"40\",\"9\",\"2\",\"6B\",\"C1\",\"J\",\"130\"
\"\",\"\",\"approach-retreat\",\"134\",\"1183209\",\"0.0-134.0\",\"\",\"\",\"3-4\",\"4977\",\"38\",\"1\",\"Training\",\"Stims/Figures/84-J-0-2.bmp\",\"sasaza\",\"Down\",\"38\",\"9\",\"3\",\"6B\",\"C2\",\"J\",\"131\"
\"\",\"\",\"approach-retreat\",\"135\",\"1188935\",\"0.0-135.0\",\"\",\"\",\"3-4\",\"4218\",\"40\",\"1\",\"Training\",\"Stims/Figures/44-J-10-3.bmp\",\"za:sa:ha\",\"Up\",\"40\",\"9\",\"4\",\"6B\",\"C2\",\"J\",\"132\"
\"\",\"\",\"approach-retreat\",\"136\",\"1194691\",\"0.0-136.0\",\"\",\"\",\"3-4\",\"4244\",\"40\",\"1\",\"Training\",\"Stims/Figures/44-C-30-3.bmp\",\"va:sha:va\",\"Down\",\"40\",\"9\",\"5\",\"6B\",\"C1\",\"J\",\"133\"
\"\",\"\",\"approach-retreat\",\"137\",\"1200541\",\"0.0-137.0\",\"\",\"\",\"3-4\",\"4339\",\"38\",\"1\",\"Training\",\"Stims/Figures/27-J-0-1.bmp\",\"sa:ha:ha\",\"Down\",\"38\",\"9\",\"6\",\"6B\",\"C2\",\"J\",\"134\"
\"\",\"\",\"approach-retreat\",\"138\",\"1206318\",\"0.0-138.0\",\"\",\"\",\"3-4\",\"4272\",\"39\",\"1\",\"Training\",\"Stims/Figures/27-C-30-1.bmp\",\"fafava\",\"Right\",\"39\",\"9\",\"7\",\"6B\",\"C1\",\"J\",\"135\"
\"\",\"\",\"approach-retreat\",\"139\",\"1212027\",\"0.0-139.0\",\"\",\"\",\"3-4\",\"4199\",\"39\",\"1\",\"Training\",\"Stims/Figures/57-C-30-1.bmp\",\"va:fasha\",\"Right\",\"39\",\"9\",\"8\",\"6B\",\"C1\",\"J\",\"136\"
\"\",\"\",\"approach-retreat\",\"140\",\"1217822\",\"0.0-140.0\",\"\",\"\",\"3-4\",\"4283\",\"40\",\"1\",\"Training\",\"Stims/Figures/57-J-0-1.bmp\",\"sa:saha\",\"Up\",\"40\",\"9\",\"9\",\"6B\",\"C2\",\"J\",\"137\"
\"\",\"\",\"approach-retreat\",\"141\",\"1225212\",\"0.0-141.0\",\"\",\"\",\"3-4\",\"5880\",\"37\",\"1\",\"Training\",\"Stims/Figures/74-J-10-4.bmp\",\"zasa:ha\",\"Right\",\"37\",\"9\",\"10\",\"6B\",\"C2\",\"J\",\"138\"
\"\",\"\",\"approach-retreat\",\"142\",\"1232084\",\"0.0-142.0\",\"\",\"\",\"3-4\",\"5359\",\"39\",\"1\",\"Training\",\"Stims/Figures/144-J-10-3.bmp\",\"za:haha\",\"Left\",\"39\",\"9\",\"11\",\"6B\",\"C2\",\"J\",\"139\"
\"\",\"\",\"approach-retreat\",\"143\",\"1238590\",\"0.0-143.0\",\"\",\"\",\"3-4\",\"4994\",\"38\",\"1\",\"Training\",\"Stims/Figures/84-C-20-2.bmp\",\"fasha:sha\",\"Up\",\"38\",\"9\",\"12\",\"6B\",\"C1\",\"J\",\"140\"
\"\",\"\",\"approach-retreat\",\"144\",\"1244460\",\"0.0-144.0\",\"\",\"\",\"3-4\",\"4359\",\"38\",\"1\",\"Training\",\"Stims/Figures/144-C-30-3.bmp\",\"va:fa:sha\",\"Up\",\"38\",\"9\",\"13\",\"6B\",\"C1\",\"J\",\"141\"
\"\",\"\",\"approach-retreat\",\"145\",\"1251082\",\"0.0-145.0\",\"\",\"\",\"3-4\",\"5111\",\"37\",\"1\",\"Training\",\"Stims/Figures/102-C-20-4.bmp\",\"vafava\",\"Left\",\"37\",\"9\",\"14\",\"6B\",\"C1\",\"J\",\"142\"
\"\",\"\",\"approach-retreat\",\"146\",\"1259646\",\"0.0-146.0\",\"\",\"\",\"3-4\",\"7052\",\"39\",\"1\",\"Training\",\"Stims/Figures/102-J-10-4.bmp\",\"zahaza\",\"Left\",\"39\",\"9\",\"15\",\"6B\",\"C2\",\"J\",\"143\"
\"\",\"\",\"approach-retreat\",\"147\",\"1265486\",\"0.0-147.0\",\"\",\"\",\"3-4\",\"4328\",\"39\",\"1\",\"Training\",\"Stims/Figures/74-C-20-4.bmp\",\"fafasha\",\"Right\",\"39\",\"9\",\"16\",\"6B\",\"C1\",\"J\",\"144\"
\"427881\",\"\",\"instructions\",\"148\",\"1693369\",\"0.0-148.0\",\"[{\"\"page_index\"\":0,\"\"viewing_time\"\":427880}]\",\"\",\"\",\"\",\"\",\"\",\"\",\"\",\"\",\"\",\"\",\"\",\"\",\"\",\"\",\"\",\"\"
\"\",\"\",\"approach-retreat\",\"149\",\"1700414\",\"0.0-149.0\",\"\",\"\",\"3-4\",\"5536\",\"38\",\"1\",\"Testing\",\"Stims/Figures/102-C-20-4.bmp\",\"vafava\",\"Up\",\"38\",\"1\",\"1\",\"6B\",\"C1\",\"J\",\"1\"
\"\",\"\",\"approach-retreat\",\"150\",\"1706364\",\"0.0-150.0\",\"\",\"\",\"3-4\",\"4441\",\"40\",\"1\",\"Testing\",\"Stims/Figures/84-J-0-2.bmp\",\"sasaza\",\"Up\",\"40\",\"1\",\"2\",\"6B\",\"C2\",\"J\",\"2\"
\"\",\"\",\"approach-retreat\",\"151\",\"1712434\",\"0.0-151.0\",\"\",\"\",\"3-4\",\"4559\",\"37\",\"1\",\"Testing\",\"Stims/Figures/71-C-30-1.bmp\",\"fa:shava\",\"Left\",\"37\",\"1\",\"3\",\"6B\",\"C1\",\"J\",\"3\"
\"\",\"\",\"approach-retreat\",\"152\",\"1719642\",\"0.0-152.0\",\"\",\"\",\"3-4\",\"5698\",\"38\",\"0\",\"Testing\",\"Stims/Figures/111-J-10-3.bmp\",\"sasaha\",\"Up\",\"40\",\"1\",\"4\",\"6B\",\"C2\",\"J\",\"4\"
\"\",\"\",\"approach-retreat\",\"153\",\"1725619\",\"0.0-153.0\",\"\",\"\",\"3-4\",\"4468\",\"38\",\"1\",\"Testing\",\"Stims/Figures/57-J-0-1.bmp\",\"sa:saha\",\"Down\",\"38\",\"1\",\"5\",\"6B\",\"C2\",\"J\",\"5\"
\"\",\"\",\"approach-retreat\",\"154\",\"1736067\",\"0.0-154.0\",\"\",\"\",\"3-4\",\"8940\",\"38\",\"1\",\"Testing\",\"Stims/Figures/85-J-0-2.bmp\",\"sasa:ha\",\"Down\",\"38\",\"1\",\"6\",\"6B\",\"C2\",\"J\",\"6\"
\"\",\"\",\"approach-retreat\",\"155\",\"1745111\",\"0.0-155.0\",\"\",\"\",\"3-4\",\"7534\",\"39\",\"1\",\"Testing\",\"Stims/Figures/74-J-10-4.bmp\",\"zasa:ha\",\"Left\",\"39\",\"1\",\"7\",\"6B\",\"C2\",\"J\",\"7\"
\"\",\"\",\"approach-retreat\",\"156\",\"1751444\",\"0.0-156.0\",\"\",\"\",\"3-4\",\"4824\",\"39\",\"1\",\"Testing\",\"Stims/Figures/27-C-30-1.bmp\",\"fafava\",\"Right\",\"39\",\"1\",\"8\",\"6B\",\"C1\",\"J\",\"8\"
\"\",\"\",\"approach-retreat\",\"157\",\"1757614\",\"0.0-157.0\",\"\",\"\",\"3-4\",\"4661\",\"37\",\"1\",\"Testing\",\"Stims/Figures/85-C-20-2.bmp\",\"va:shasha\",\"Left\",\"37\",\"1\",\"9\",\"6B\",\"C1\",\"J\",\"9\"
\"\",\"\",\"approach-retreat\",\"158\",\"1765679\",\"0.0-158.0\",\"\",\"\",\"3-4\",\"6554\",\"37\",\"1\",\"Testing\",\"Stims/Figures/144-J-10-3.bmp\",\"za:haha\",\"Right\",\"37\",\"1\",\"10\",\"6B\",\"C2\",\"J\",\"10\"
\"\",\"\",\"approach-retreat\",\"159\",\"1771876\",\"0.0-159.0\",\"\",\"\",\"3-4\",\"4688\",\"38\",\"1\",\"Testing\",\"Stims/Figures/57-C-30-1.bmp\",\"va:fasha\",\"Up\",\"38\",\"1\",\"11\",\"6B\",\"C1\",\"J\",\"11\"
\"\",\"\",\"approach-retreat\",\"160\",\"1777926\",\"0.0-160.0\",\"\",\"\",\"3-4\",\"4541\",\"40\",\"1\",\"Testing\",\"Stims/Figures/111-C-30-3.bmp\",\"vafa:va\",\"Down\",\"40\",\"1\",\"12\",\"6B\",\"C1\",\"J\",\"12\"
\"\",\"\",\"approach-retreat\",\"161\",\"1783909\",\"0.0-161.0\",\"\",\"\",\"3-4\",\"4474\",\"37\",\"1\",\"Testing\",\"Stims/Figures/74-C-20-4.bmp\",\"fafasha\",\"Left\",\"37\",\"1\",\"13\",\"6B\",\"C1\",\"J\",\"13\"
\"\",\"\",\"approach-retreat\",\"162\",\"1789980\",\"0.0-162.0\",\"\",\"\",\"3-4\",\"4561\",\"40\",\"1\",\"Testing\",\"Stims/Figures/44-C-30-3.bmp\",\"va:sha:va\",\"Down\",\"40\",\"1\",\"14\",\"6B\",\"C1\",\"J\",\"14\"
\"\",\"\",\"approach-retreat\",\"163\",\"1796180\",\"0.0-163.0\",\"\",\"\",\"3-4\",\"4692\",\"40\",\"1\",\"Testing\",\"Stims/Figures/44-J-10-3.bmp\",\"za:sa:ha\",\"Up\",\"40\",\"1\",\"15\",\"6B\",\"C2\",\"J\",\"15\"
\"\",\"\",\"approach-retreat\",\"164\",\"1803129\",\"0.0-164.0\",\"\",\"\",\"3-4\",\"5439\",\"37\",\"1\",\"Testing\",\"Stims/Figures/118-J-0-2.bmp\",\"zasaha\",\"Right\",\"37\",\"1\",\"16\",\"6B\",\"C2\",\"J\",\"16\"
\"\",\"\",\"approach-retreat\",\"165\",\"1809245\",\"0.0-165.0\",\"\",\"\",\"3-4\",\"4605\",\"39\",\"1\",\"Testing\",\"Stims/Figures/144-C-30-3.bmp\",\"va:fa:sha\",\"Right\",\"39\",\"1\",\"17\",\"6B\",\"C1\",\"J\",\"17\"
\"\",\"\",\"approach-retreat\",\"166\",\"1815879\",\"0.0-166.0\",\"\",\"\",\"3-4\",\"5123\",\"38\",\"1\",\"Testing\",\"Stims/Figures/71-J-0-1.bmp\",\"zahaha\",\"Down\",\"38\",\"1\",\"18\",\"6B\",\"C2\",\"J\",\"18\"
\"\",\"\",\"approach-retreat\",\"167\",\"1821580\",\"0.0-167.0\",\"\",\"\",\"3-4\",\"4184\",\"39\",\"1\",\"Testing\",\"Stims/Figures/27-J-0-1.bmp\",\"sa:ha:ha\",\"Left\",\"39\",\"1\",\"19\",\"6B\",\"C2\",\"J\",\"19\"
\"\",\"\",\"approach-retreat\",\"168\",\"1827956\",\"0.0-168.0\",\"\",\"\",\"3-4\",\"4866\",\"37\",\"1\",\"Testing\",\"Stims/Figures/102-J-10-4.bmp\",\"zahaza\",\"Right\",\"37\",\"1\",\"20\",\"6B\",\"C2\",\"J\",\"20\"
\"\",\"\",\"approach-retreat\",\"169\",\"1833864\",\"0.0-169.0\",\"\",\"\",\"3-4\",\"4400\",\"37\",\"1\",\"Testing\",\"Stims/Figures/87-C-20-4.bmp\",\"fa:fa:sha\",\"Left\",\"37\",\"1\",\"21\",\"6B\",\"C1\",\"J\",\"21\"
\"\",\"\",\"approach-retreat\",\"170\",\"1839648\",\"0.0-170.0\",\"\",\"\",\"3-4\",\"4274\",\"40\",\"1\",\"Testing\",\"Stims/Figures/118-C-20-2.bmp\",\"fa:sha:sha\",\"Down\",\"40\",\"1\",\"22\",\"6B\",\"C1\",\"J\",\"22\"
\"\",\"\",\"approach-retreat\",\"171\",\"1846912\",\"0.0-171.0\",\"\",\"\",\"3-4\",\"5755\",\"39\",\"0\",\"Testing\",\"Stims/Figures/87-J-10-4.bmp\",\"saha:ha\",\"Right\",\"37\",\"1\",\"23\",\"6B\",\"C2\",\"J\",\"23\"
\"\",\"\",\"approach-retreat\",\"172\",\"1852946\",\"0.0-172.0\",\"\",\"\",\"3-4\",\"4525\",\"38\",\"1\",\"Testing\",\"Stims/Figures/84-C-20-2.bmp\",\"fasha:sha\",\"Up\",\"38\",\"1\",\"24\",\"6B\",\"C1\",\"J\",\"24\"
\"\",\"\",\"approach-retreat\",\"173\",\"1858986\",\"0.0-173.0\",\"\",\"\",\"3-4\",\"4530\",\"38\",\"1\",\"Testing\",\"Stims/Figures/102-C-20-4.bmp\",\"vafava\",\"Up\",\"38\",\"2\",\"1\",\"6B\",\"C1\",\"J\",\"25\"
\"\",\"\",\"approach-retreat\",\"174\",\"1864773\",\"0.0-174.0\",\"\",\"\",\"3-4\",\"4277\",\"40\",\"1\",\"Testing\",\"Stims/Figures/87-C-20-4.bmp\",\"fa:fa:sha\",\"Down\",\"40\",\"2\",\"2\",\"6B\",\"C1\",\"J\",\"26\"
\"\",\"\",\"approach-retreat\",\"175\",\"1870580\",\"0.0-175.0\",\"\",\"\",\"3-4\",\"4297\",\"38\",\"1\",\"Testing\",\"Stims/Figures/44-J-10-3.bmp\",\"za:sa:ha\",\"Down\",\"38\",\"2\",\"3\",\"6B\",\"C2\",\"J\",\"27\"
\"\",\"\",\"approach-retreat\",\"176\",\"1876260\",\"0.0-176.0\",\"\",\"\",\"3-4\",\"4170\",\"40\",\"1\",\"Testing\",\"Stims/Figures/144-J-10-3.bmp\",\"za:haha\",\"Up\",\"40\",\"2\",\"4\",\"6B\",\"C2\",\"J\",\"28\"
\"\",\"\",\"approach-retreat\",\"177\",\"1882264\",\"0.0-177.0\",\"\",\"\",\"3-4\",\"4416\",\"37\",\"1\",\"Testing\",\"Stims/Figures/71-C-30-1.bmp\",\"fa:shava\",\"Left\",\"37\",\"2\",\"5\",\"6B\",\"C1\",\"J\",\"29\"
\"\",\"\",\"approach-retreat\",\"178\",\"1888086\",\"0.0-178.0\",\"\",\"\",\"3-4\",\"4312\",\"39\",\"1\",\"Testing\",\"Stims/Figures/111-C-30-3.bmp\",\"vafa:va\",\"Right\",\"39\",\"2\",\"6\",\"6B\",\"C1\",\"J\",\"30\"
\"\",\"\",\"approach-retreat\",\"179\",\"1894280\",\"0.0-179.0\",\"\",\"\",\"3-4\",\"4686\",\"37\",\"1\",\"Testing\",\"Stims/Figures/44-C-30-3.bmp\",\"va:sha:va\",\"Left\",\"37\",\"2\",\"7\",\"6B\",\"C1\",\"J\",\"31\"
\"\",\"\",\"approach-retreat\",\"180\",\"1900999\",\"0.0-180.0\",\"\",\"\",\"3-4\",\"5211\",\"39\",\"1\",\"Testing\",\"Stims/Figures/144-C-30-3.bmp\",\"va:fa:sha\",\"Right\",\"39\",\"2\",\"8\",\"6B\",\"C1\",\"J\",\"32\"
\"\",\"\",\"approach-retreat\",\"181\",\"1906906\",\"0.0-181.0\",\"\",\"\",\"3-4\",\"4397\",\"38\",\"1\",\"Testing\",\"Stims/Figures/57-C-30-1.bmp\",\"va:fasha\",\"Up\",\"38\",\"2\",\"9\",\"6B\",\"C1\",\"J\",\"33\"
\"\",\"\",\"approach-retreat\",\"182\",\"1912663\",\"0.0-182.0\",\"\",\"\",\"3-4\",\"4248\",\"38\",\"1\",\"Testing\",\"Stims/Figures/102-J-10-4.bmp\",\"zahaza\",\"Down\",\"38\",\"2\",\"10\",\"6B\",\"C2\",\"J\",\"34\"
\"\",\"\",\"approach-retreat\",\"183\",\"1919315\",\"0.0-183.0\",\"\",\"\",\"3-4\",\"5142\",\"37\",\"0\",\"Testing\",\"Stims/Figures/111-J-10-3.bmp\",\"sasaha\",\"Left\",\"39\",\"2\",\"11\",\"6B\",\"C2\",\"J\",\"35\"
\"\",\"\",\"approach-retreat\",\"184\",\"1925258\",\"0.0-184.0\",\"\",\"\",\"3-4\",\"4434\",\"38\",\"1\",\"Testing\",\"Stims/Figures/118-C-20-2.bmp\",\"fa:sha:sha\",\"Up\",\"38\",\"2\",\"12\",\"6B\",\"C1\",\"J\",\"36\"
\"\",\"\",\"approach-retreat\",\"185\",\"1931632\",\"0.0-185.0\",\"\",\"\",\"3-4\",\"4865\",\"37\",\"1\",\"Testing\",\"Stims/Figures/74-C-20-4.bmp\",\"fafasha\",\"Left\",\"37\",\"2\",\"13\",\"6B\",\"C1\",\"J\",\"37\"
\"\",\"\",\"approach-retreat\",\"186\",\"1937481\",\"0.0-186.0\",\"\",\"\",\"3-4\",\"4338\",\"39\",\"1\",\"Testing\",\"Stims/Figures/27-C-30-1.bmp\",\"fafava\",\"Right\",\"39\",\"2\",\"14\",\"6B\",\"C1\",\"J\",\"38\"
\"\",\"\",\"approach-retreat\",\"187\",\"1943849\",\"0.0-187.0\",\"\",\"\",\"3-4\",\"4858\",\"37\",\"1\",\"Testing\",\"Stims/Figures/74-J-10-4.bmp\",\"zasa:ha\",\"Right\",\"37\",\"2\",\"15\",\"6B\",\"C2\",\"J\",\"39\"
\"\",\"\",\"approach-retreat\",\"188\",\"1949976\",\"0.0-188.0\",\"\",\"\",\"3-4\",\"4618\",\"38\",\"1\",\"Testing\",\"Stims/Figures/57-J-0-1.bmp\",\"sa:saha\",\"Down\",\"38\",\"2\",\"16\",\"6B\",\"C2\",\"J\",\"40\"
\"\",\"\",\"approach-retreat\",\"189\",\"1958427\",\"0.0-189.0\",\"\",\"\",\"3-4\",\"6942\",\"40\",\"0\",\"Testing\",\"Stims/Figures/87-J-10-4.bmp\",\"saha:ha\",\"Down\",\"38\",\"2\",\"17\",\"6B\",\"C2\",\"J\",\"41\"
\"\",\"\",\"approach-retreat\",\"190\",\"1964294\",\"0.0-190.0\",\"\",\"\",\"3-4\",\"4357\",\"37\",\"1\",\"Testing\",\"Stims/Figures/84-C-20-2.bmp\",\"fasha:sha\",\"Left\",\"37\",\"2\",\"18\",\"6B\",\"C1\",\"J\",\"42\"
\"\",\"\",\"approach-retreat\",\"191\",\"1970143\",\"0.0-191.0\",\"\",\"\",\"3-4\",\"4339\",\"37\",\"1\",\"Testing\",\"Stims/Figures/84-J-0-2.bmp\",\"sasaza\",\"Right\",\"37\",\"2\",\"19\",\"6B\",\"C2\",\"J\",\"43\"
\"\",\"\",\"approach-retreat\",\"192\",\"1975838\",\"0.0-192.0\",\"\",\"\",\"3-4\",\"4185\",\"39\",\"1\",\"Testing\",\"Stims/Figures/85-J-0-2.bmp\",\"sasa:ha\",\"Left\",\"39\",\"2\",\"20\",\"6B\",\"C2\",\"J\",\"44\"
\"\",\"\",\"approach-retreat\",\"193\",\"1981539\",\"0.0-193.0\",\"\",\"\",\"3-4\",\"4191\",\"38\",\"1\",\"Testing\",\"Stims/Figures/27-J-0-1.bmp\",\"sa:ha:ha\",\"Down\",\"38\",\"2\",\"21\",\"6B\",\"C2\",\"J\",\"45\"
\"\",\"\",\"approach-retreat\",\"194\",\"1987493\",\"0.0-194.0\",\"\",\"\",\"3-4\",\"4445\",\"38\",\"1\",\"Testing\",\"Stims/Figures/85-C-20-2.bmp\",\"va:shasha\",\"Up\",\"38\",\"2\",\"22\",\"6B\",\"C1\",\"J\",\"46\"
\"\",\"\",\"approach-retreat\",\"195\",\"1993600\",\"0.0-195.0\",\"\",\"\",\"3-4\",\"4598\",\"37\",\"1\",\"Testing\",\"Stims/Figures/118-J-0-2.bmp\",\"zasaha\",\"Right\",\"37\",\"2\",\"23\",\"6B\",\"C2\",\"J\",\"47\"
\"\",\"\",\"approach-retreat\",\"196\",\"1999282\",\"0.0-196.0\",\"\",\"\",\"3-4\",\"4173\",\"40\",\"1\",\"Testing\",\"Stims/Figures/71-J-0-1.bmp\",\"zahaha\",\"Up\",\"40\",\"2\",\"24\",\"6B\",\"C2\",\"J\",\"48\"
\"\",\"\",\"approach-retreat\",\"197\",\"2005302\",\"0.0-197.0\",\"\",\"\",\"3-4\",\"4510\",\"40\",\"1\",\"Testing\",\"Stims/Figures/27-C-30-1.bmp\",\"fafava\",\"Down\",\"40\",\"3\",\"1\",\"6B\",\"C1\",\"J\",\"49\"
\"\",\"\",\"approach-retreat\",\"198\",\"2011018\",\"0.0-198.0\",\"\",\"\",\"3-4\",\"4206\",\"39\",\"1\",\"Testing\",\"Stims/Figures/74-J-10-4.bmp\",\"zasa:ha\",\"Left\",\"39\",\"3\",\"2\",\"6B\",\"C2\",\"J\",\"50\"
\"\",\"\",\"approach-retreat\",\"199\",\"2018910\",\"0.0-199.0\",\"\",\"\",\"3-4\",\"6382\",\"37\",\"1\",\"Testing\",\"Stims/Figures/102-J-10-4.bmp\",\"zahaza\",\"Right\",\"37\",\"3\",\"3\",\"6B\",\"C2\",\"J\",\"51\"
\"\",\"\",\"approach-retreat\",\"200\",\"2024877\",\"0.0-200.0\",\"\",\"\",\"3-4\",\"4458\",\"37\",\"1\",\"Testing\",\"Stims/Figures/57-J-0-1.bmp\",\"sa:saha\",\"Right\",\"37\",\"3\",\"4\",\"6B\",\"C2\",\"J\",\"52\"
\"\",\"\",\"approach-retreat\",\"201\",\"2031803\",\"0.0-201.0\",\"\",\"\",\"3-4\",\"5417\",\"39\",\"1\",\"Testing\",\"Stims/Figures/111-J-10-3.bmp\",\"sasaha\",\"Left\",\"39\",\"3\",\"5\",\"6B\",\"C2\",\"J\",\"53\"
\"\",\"\",\"approach-retreat\",\"202\",\"2037723\",\"0.0-202.0\",\"\",\"\",\"3-4\",\"4411\",\"40\",\"1\",\"Testing\",\"Stims/Figures/44-C-30-3.bmp\",\"va:sha:va\",\"Down\",\"40\",\"3\",\"6\",\"6B\",\"C1\",\"J\",\"54\"
\"\",\"\",\"approach-retreat\",\"203\",\"2044126\",\"0.0-203.0\",\"\",\"\",\"3-4\",\"4894\",\"38\",\"1\",\"Testing\",\"Stims/Figures/74-C-20-4.bmp\",\"fafasha\",\"Up\",\"38\",\"3\",\"7\",\"6B\",\"C1\",\"J\",\"55\"
\"\",\"\",\"approach-retreat\",\"204\",\"2049817\",\"0.0-204.0\",\"\",\"\",\"3-4\",\"4183\",\"40\",\"1\",\"Testing\",\"Stims/Figures/27-J-0-1.bmp\",\"sa:ha:ha\",\"Up\",\"40\",\"3\",\"8\",\"6B\",\"C2\",\"J\",\"56\"
\"\",\"\",\"approach-retreat\",\"205\",\"2055553\",\"0.0-205.0\",\"\",\"\",\"3-4\",\"4223\",\"39\",\"1\",\"Testing\",\"Stims/Figures/144-J-10-3.bmp\",\"za:haha\",\"Left\",\"39\",\"3\",\"9\",\"6B\",\"C2\",\"J\",\"57\"
\"\",\"\",\"approach-retreat\",\"206\",\"2061284\",\"0.0-206.0\",\"\",\"\",\"3-4\",\"4222\",\"40\",\"1\",\"Testing\",\"Stims/Figures/87-C-20-4.bmp\",\"fa:fa:sha\",\"Down\",\"40\",\"3\",\"10\",\"6B\",\"C1\",\"J\",\"58\"
\"\",\"\",\"approach-retreat\",\"207\",\"2067082\",\"0.0-207.0\",\"\",\"\",\"3-4\",\"4288\",\"38\",\"1\",\"Testing\",\"Stims/Figures/84-C-20-2.bmp\",\"fasha:sha\",\"Up\",\"38\",\"3\",\"11\",\"6B\",\"C1\",\"J\",\"59\"
\"\",\"\",\"approach-retreat\",\"208\",\"2073037\",\"0.0-208.0\",\"\",\"\",\"3-4\",\"4445\",\"37\",\"1\",\"Testing\",\"Stims/Figures/71-J-0-1.bmp\",\"zahaha\",\"Right\",\"37\",\"3\",\"12\",\"6B\",\"C2\",\"J\",\"60\"
\"\",\"\",\"approach-retreat\",\"209\",\"2079628\",\"0.0-209.0\",\"\",\"\",\"3-4\",\"5080\",\"40\",\"1\",\"Testing\",\"Stims/Figures/85-C-20-2.bmp\",\"va:shasha\",\"Down\",\"40\",\"3\",\"13\",\"6B\",\"C1\",\"J\",\"61\"
\"\",\"\",\"approach-retreat\",\"210\",\"2086477\",\"0.0-210.0\",\"\",\"\",\"3-4\",\"5341\",\"38\",\"1\",\"Testing\",\"Stims/Figures/102-C-20-4.bmp\",\"vafava\",\"Up\",\"38\",\"3\",\"14\",\"6B\",\"C1\",\"J\",\"62\"
\"\",\"\",\"approach-retreat\",\"211\",\"2092802\",\"0.0-211.0\",\"\",\"\",\"3-4\",\"4817\",\"37\",\"1\",\"Testing\",\"Stims/Figures/118-C-20-2.bmp\",\"fa:sha:sha\",\"Left\",\"37\",\"3\",\"15\",\"6B\",\"C1\",\"J\",\"63\"
\"\",\"\",\"approach-retreat\",\"212\",\"2098767\",\"0.0-212.0\",\"\",\"\",\"3-4\",\"4455\",\"38\",\"1\",\"Testing\",\"Stims/Figures/57-C-30-1.bmp\",\"va:fasha\",\"Up\",\"38\",\"3\",\"16\",\"6B\",\"C1\",\"J\",\"64\"
\"\",\"\",\"approach-retreat\",\"213\",\"2105218\",\"0.0-213.0\",\"\",\"\",\"3-4\",\"4942\",\"38\",\"1\",\"Testing\",\"Stims/Figures/44-J-10-3.bmp\",\"za:sa:ha\",\"Down\",\"38\",\"3\",\"17\",\"6B\",\"C2\",\"J\",\"65\"
\"\",\"\",\"approach-retreat\",\"214\",\"2111118\",\"0.0-214.0\",\"\",\"\",\"3-4\",\"4390\",\"37\",\"1\",\"Testing\",\"Stims/Figures/84-J-0-2.bmp\",\"sasaza\",\"Right\",\"37\",\"3\",\"18\",\"6B\",\"C2\",\"J\",\"66\"
\"\",\"\",\"approach-retreat\",\"215\",\"2117145\",\"0.0-215.0\",\"\",\"\",\"3-4\",\"4519\",\"38\",\"1\",\"Testing\",\"Stims/Figures/71-C-30-1.bmp\",\"fa:shava\",\"Up\",\"38\",\"3\",\"19\",\"6B\",\"C1\",\"J\",\"67\"
\"\",\"\",\"approach-retreat\",\"216\",\"2123270\",\"0.0-216.0\",\"\",\"\",\"3-4\",\"4617\",\"37\",\"1\",\"Testing\",\"Stims/Figures/85-J-0-2.bmp\",\"sasa:ha\",\"Right\",\"37\",\"3\",\"20\",\"6B\",\"C2\",\"J\",\"68\"
\"\",\"\",\"approach-retreat\",\"217\",\"2129193\",\"0.0-217.0\",\"\",\"\",\"3-4\",\"4414\",\"37\",\"1\",\"Testing\",\"Stims/Figures/111-C-30-3.bmp\",\"vafa:va\",\"Left\",\"37\",\"3\",\"21\",\"6B\",\"C1\",\"J\",\"69\"
\"\",\"\",\"approach-retreat\",\"218\",\"2135203\",\"0.0-218.0\",\"\",\"\",\"3-4\",\"4498\",\"37\",\"1\",\"Testing\",\"Stims/Figures/144-C-30-3.bmp\",\"va:fa:sha\",\"Left\",\"37\",\"3\",\"22\",\"6B\",\"C1\",\"J\",\"70\"
\"\",\"\",\"approach-retreat\",\"219\",\"2141457\",\"0.0-219.0\",\"\",\"\",\"3-4\",\"4746\",\"37\",\"1\",\"Testing\",\"Stims/Figures/118-J-0-2.bmp\",\"zasaha\",\"Right\",\"37\",\"3\",\"23\",\"6B\",\"C2\",\"J\",\"71\"
\"\",\"\",\"approach-retreat\",\"220\",\"2148425\",\"0.0-220.0\",\"\",\"\",\"3-4\",\"5459\",\"40\",\"0\",\"Testing\",\"Stims/Figures/87-J-10-4.bmp\",\"saha:ha\",\"Down\",\"38\",\"3\",\"24\",\"6B\",\"C2\",\"J\",\"72\"
\"\",\"\",\"approach-retreat\",\"221\",\"2155388\",\"0.0-221.0\",\"\",\"\",\"3-4\",\"5453\",\"38\",\"0\",\"Testing\",\"Stims/Figures/102-J-10-4.bmp\",\"zahaza\",\"Up\",\"40\",\"4\",\"1\",\"6B\",\"C2\",\"J\",\"73\"
\"\",\"\",\"approach-retreat\",\"222\",\"2161246\",\"0.0-222.0\",\"\",\"\",\"3-4\",\"4349\",\"37\",\"1\",\"Testing\",\"Stims/Figures/85-J-0-2.bmp\",\"sasa:ha\",\"Right\",\"37\",\"4\",\"2\",\"6B\",\"C2\",\"J\",\"74\"
\"\",\"\",\"approach-retreat\",\"223\",\"2167291\",\"0.0-223.0\",\"\",\"\",\"3-4\",\"4535\",\"40\",\"1\",\"Testing\",\"Stims/Figures/27-C-30-1.bmp\",\"fafava\",\"Down\",\"40\",\"4\",\"3\",\"6B\",\"C1\",\"J\",\"75\"
\"\",\"\",\"approach-retreat\",\"224\",\"2173183\",\"0.0-224.0\",\"\",\"\",\"3-4\",\"4384\",\"37\",\"1\",\"Testing\",\"Stims/Figures/84-J-0-2.bmp\",\"sasaza\",\"Right\",\"37\",\"4\",\"4\",\"6B\",\"C2\",\"J\",\"76\"
\"\",\"\",\"approach-retreat\",\"225\",\"2179063\",\"0.0-225.0\",\"\",\"\",\"3-4\",\"4371\",\"40\",\"1\",\"Testing\",\"Stims/Figures/118-C-20-2.bmp\",\"fa:sha:sha\",\"Down\",\"40\",\"4\",\"5\",\"6B\",\"C1\",\"J\",\"77\"
\"\",\"\",\"approach-retreat\",\"226\",\"2184991\",\"0.0-226.0\",\"\",\"\",\"3-4\",\"4419\",\"38\",\"1\",\"Testing\",\"Stims/Figures/111-C-30-3.bmp\",\"vafa:va\",\"Up\",\"38\",\"4\",\"6\",\"6B\",\"C1\",\"J\",\"78\"
\"\",\"\",\"approach-retreat\",\"227\",\"2190940\",\"0.0-227.0\",\"\",\"\",\"3-4\",\"4440\",\"37\",\"1\",\"Testing\",\"Stims/Figures/102-C-20-4.bmp\",\"vafava\",\"Left\",\"37\",\"4\",\"7\",\"6B\",\"C1\",\"J\",\"79\"
\"\",\"\",\"approach-retreat\",\"228\",\"2196739\",\"0.0-228.0\",\"\",\"\",\"3-4\",\"4290\",\"39\",\"1\",\"Testing\",\"Stims/Figures/85-C-20-2.bmp\",\"va:shasha\",\"Right\",\"39\",\"4\",\"8\",\"6B\",\"C1\",\"J\",\"80\"
\"\",\"\",\"approach-retreat\",\"229\",\"2203091\",\"0.0-229.0\",\"\",\"\",\"3-4\",\"4843\",\"37\",\"1\",\"Testing\",\"Stims/Figures/57-C-30-1.bmp\",\"va:fasha\",\"Left\",\"37\",\"4\",\"9\",\"6B\",\"C1\",\"J\",\"81\"
\"\",\"\",\"approach-retreat\",\"230\",\"2208785\",\"0.0-230.0\",\"\",\"\",\"3-4\",\"4186\",\"40\",\"1\",\"Testing\",\"Stims/Figures/144-J-10-3.bmp\",\"za:haha\",\"Up\",\"40\",\"4\",\"10\",\"6B\",\"C2\",\"J\",\"82\"
\"\",\"\",\"approach-retreat\",\"231\",\"2214639\",\"0.0-231.0\",\"\",\"\",\"3-4\",\"4344\",\"40\",\"1\",\"Testing\",\"Stims/Figures/144-C-30-3.bmp\",\"va:fa:sha\",\"Down\",\"40\",\"4\",\"11\",\"6B\",\"C1\",\"J\",\"83\"
\"\",\"\",\"approach-retreat\",\"232\",\"2220622\",\"0.0-232.0\",\"\",\"\",\"3-4\",\"4474\",\"39\",\"1\",\"Testing\",\"Stims/Figures/71-J-0-1.bmp\",\"zahaha\",\"Left\",\"39\",\"4\",\"12\",\"6B\",\"C2\",\"J\",\"84\"
\"\",\"\",\"approach-retreat\",\"233\",\"2227337\",\"0.0-233.0\",\"\",\"\",\"3-4\",\"5206\",\"37\",\"0\",\"Testing\",\"Stims/Figures/111-J-10-3.bmp\",\"sasaha\",\"Left\",\"39\",\"4\",\"13\",\"6B\",\"C2\",\"J\",\"85\"
\"\",\"\",\"approach-retreat\",\"234\",\"2233070\",\"0.0-234.0\",\"\",\"\",\"3-4\",\"4224\",\"39\",\"1\",\"Testing\",\"Stims/Figures/118-J-0-2.bmp\",\"zasaha\",\"Left\",\"39\",\"4\",\"14\",\"6B\",\"C2\",\"J\",\"86\"
\"\",\"\",\"approach-retreat\",\"235\",\"2238820\",\"0.0-235.0\",\"\",\"\",\"3-4\",\"4241\",\"40\",\"1\",\"Testing\",\"Stims/Figures/74-J-10-4.bmp\",\"zasa:ha\",\"Up\",\"40\",\"4\",\"15\",\"6B\",\"C2\",\"J\",\"87\"
\"\",\"\",\"approach-retreat\",\"236\",\"2244762\",\"0.0-236.0\",\"\",\"\",\"3-4\",\"4434\",\"38\",\"1\",\"Testing\",\"Stims/Figures/84-C-20-2.bmp\",\"fasha:sha\",\"Up\",\"38\",\"4\",\"16\",\"6B\",\"C1\",\"J\",\"88\"
\"\",\"\",\"approach-retreat\",\"237\",\"2250799\",\"0.0-237.0\",\"\",\"\",\"3-4\",\"4526\",\"40\",\"1\",\"Testing\",\"Stims/Figures/27-J-0-1.bmp\",\"sa:ha:ha\",\"Up\",\"40\",\"4\",\"17\",\"6B\",\"C2\",\"J\",\"89\"
\"\",\"\",\"approach-retreat\",\"238\",\"2256788\",\"0.0-238.0\",\"\",\"\",\"3-4\",\"4477\",\"40\",\"1\",\"Testing\",\"Stims/Figures/87-C-20-4.bmp\",\"fa:fa:sha\",\"Down\",\"40\",\"4\",\"18\",\"6B\",\"C1\",\"J\",\"90\"
\"\",\"\",\"approach-retreat\",\"239\",\"2263274\",\"0.0-239.0\",\"\",\"\",\"3-4\",\"4977\",\"39\",\"1\",\"Testing\",\"Stims/Figures/44-C-30-3.bmp\",\"va:sha:va\",\"Right\",\"39\",\"4\",\"19\",\"6B\",\"C1\",\"J\",\"91\"
\"\",\"\",\"approach-retreat\",\"240\",\"2269319\",\"0.0-240.0\",\"\",\"\",\"3-4\",\"4534\",\"37\",\"1\",\"Testing\",\"Stims/Figures/57-J-0-1.bmp\",\"sa:saha\",\"Right\",\"37\",\"4\",\"20\",\"6B\",\"C2\",\"J\",\"92\"
\"\",\"\",\"approach-retreat\",\"241\",\"2275578\",\"0.0-241.0\",\"\",\"\",\"3-4\",\"4748\",\"37\",\"1\",\"Testing\",\"Stims/Figures/74-C-20-4.bmp\",\"fafasha\",\"Left\",\"37\",\"4\",\"21\",\"6B\",\"C1\",\"J\",\"93\"
\"\",\"\",\"approach-retreat\",\"242\",\"2281988\",\"0.0-242.0\",\"\",\"\",\"3-4\",\"4901\",\"37\",\"1\",\"Testing\",\"Stims/Figures/44-J-10-3.bmp\",\"za:sa:ha\",\"Right\",\"37\",\"4\",\"22\",\"6B\",\"C2\",\"J\",\"94\"
\"\",\"\",\"approach-retreat\",\"243\",\"2287888\",\"0.0-243.0\",\"\",\"\",\"3-4\",\"4390\",\"40\",\"1\",\"Testing\",\"Stims/Figures/71-C-30-1.bmp\",\"fa:shava\",\"Down\",\"40\",\"4\",\"23\",\"6B\",\"C1\",\"J\",\"95\"
\"\",\"\",\"approach-retreat\",\"244\",\"2294140\",\"0.0-244.0\",\"\",\"\",\"3-4\",\"4742\",\"40\",\"0\",\"Testing\",\"Stims/Figures/87-J-10-4.bmp\",\"saha:ha\",\"Down\",\"38\",\"4\",\"24\",\"6B\",\"C2\",\"J\",\"96\"
\"33131\",\"\",\"survey-text\",\"245\",\"2327433\",\"0.0-245.0\",\"\",\"{\"\"Q0\"\":\"\"PS160063\"\"}\",\"\",\"\",\"\",\"\",\"\",\"\",\"\",\"\",\"\",\"\",\"\",\"\",\"\",\"\",\"\"
