\"rt\",\"key_press\",\"trial_type\",\"trial_index\",\"time_elapsed\",\"internal_node_id\",\"view_history\",\"responses\",\"Id\",\"Rt\",\"ResKeyCode\",\"ResCorr\",\"TrialType2\",\"Image\",\"Label\",\"Location\",\"CorrectResponse\",\"Block\",\"BlockTrial\",\"Condition\",\"LabelType\",\"Subcondition\",\"trialNum\"
\"75167\",\"32\",\"text\",\"0\",\"75178\",\"0.0-0.0-0.0\",\"\",\"\",\"\",\"\",\"\",\"\",\"\",\"\",\"\",\"\",\"\",\"\",\"\",\"\",\"\",\"\",\"\"
\"73221\",\"\",\"instructions\",\"1\",\"148402\",\"0.0-1.0\",\"[{\"\"page_index\"\":0,\"\"viewing_time\"\":73218}]\",\"\",\"\",\"\",\"\",\"\",\"\",\"\",\"\",\"\",\"\",\"\",\"\",\"\",\"\",\"\",\"\"
\"27096\",\"\",\"survey-multi-choice\",\"2\",\"175542\",\"0.0-2.0\",\"\",\"{\"\"Q0\"\":\"\"Da\"\",\"\"Q1\"\":\"\"Da\"\",\"\"Q2\"\":\"\"Da\"\",\"\"Q3\"\":\"\"Da\"\",\"\"Q4\"\":\"\"Da\"\",\"\"Q5\"\":\"\"Da\"\"}\",\"\",\"\",\"\",\"\",\"\",\"\",\"\",\"\",\"\",\"\",\"\",\"\",\"\",\"\",\"\"
\"\",\"\",\"bio\",\"3\",\"186688\",\"0.0-3.0\",\"\",\"{\"\"age\"\":\"\"21\"\",\"\"gender\"\":\"\"f\"\",\"\"specify\"\":\"\"\"\"}\",\"\",\"\",\"\",\"\",\"\",\"\",\"\",\"\",\"\",\"\",\"\",\"\",\"\",\"\",\"\"
\"\",\"\",\"approach-retreat\",\"4\",\"198725\",\"0.0-4.0\",\"\",\"\",\"2-2\",\"10523\",\"39\",\"0\",\"Training\",\"Stims/Figures/19-C-20-4.bmp\",\"fafasha\",\"Right\",\"37\",\"1\",\"1\",\"6B\",\"C1\",\"C\",\"1\"
\"\",\"\",\"approach-retreat\",\"5\",\"206801\",\"0.0-5.0\",\"\",\"\",\"2-2\",\"6561\",\"40\",\"1\",\"Training\",\"Stims/Figures/44-C-30-3.bmp\",\"va:fava\",\"Up\",\"40\",\"1\",\"2\",\"6B\",\"C1\",\"C\",\"2\"
\"\",\"\",\"approach-retreat\",\"6\",\"214126\",\"0.0-6.0\",\"\",\"\",\"2-2\",\"5807\",\"37\",\"1\",\"Training\",\"Stims/Figures/118-C-20-2.bmp\",\"fa:shava\",\"Right\",\"37\",\"1\",\"3\",\"6B\",\"C1\",\"C\",\"3\"
\"\",\"\",\"approach-retreat\",\"7\",\"222254\",\"0.0-7.0\",\"\",\"\",\"2-2\",\"6614\",\"37\",\"0\",\"Training\",\"Stims/Figures/93-C-30-1.bmp\",\"vafa:va\",\"Left\",\"39\",\"1\",\"4\",\"6B\",\"C1\",\"C\",\"4\"
\"\",\"\",\"approach-retreat\",\"8\",\"228109\",\"0.0-8.0\",\"\",\"\",\"2-2\",\"4340\",\"39\",\"0\",\"Training\",\"Stims/Figures/44-J-10-3.bmp\",\"zasaha\",\"Left\",\"37\",\"1\",\"5\",\"6B\",\"C2\",\"C\",\"5\"
\"\",\"\",\"approach-retreat\",\"9\",\"234649\",\"0.0-9.0\",\"\",\"\",\"2-2\",\"5028\",\"40\",\"1\",\"Training\",\"Stims/Figures/118-J-0-2.bmp\",\"za:haha\",\"Down\",\"40\",\"1\",\"6\",\"6B\",\"C2\",\"C\",\"6\"
\"\",\"\",\"approach-retreat\",\"10\",\"240894\",\"0.0-10.0\",\"\",\"\",\"2-2\",\"4732\",\"37\",\"0\",\"Training\",\"Stims/Figures/27-C-30-1.bmp\",\"vasha:sha\",\"Left\",\"39\",\"1\",\"7\",\"6B\",\"C1\",\"C\",\"7\"
\"\",\"\",\"approach-retreat\",\"11\",\"246724\",\"0.0-11.0\",\"\",\"\",\"2-2\",\"4314\",\"38\",\"0\",\"Training\",\"Stims/Figures/19-J-10-4.bmp\",\"zahaza\",\"Down\",\"40\",\"1\",\"8\",\"6B\",\"C2\",\"C\",\"8\"
\"\",\"\",\"approach-retreat\",\"12\",\"258117\",\"0.0-12.0\",\"\",\"\",\"2-2\",\"9878\",\"38\",\"1\",\"Training\",\"Stims/Figures/144-C-30-3.bmp\",\"va:sha:sha\",\"Down\",\"38\",\"1\",\"9\",\"6B\",\"C1\",\"C\",\"9\"
\"\",\"\",\"approach-retreat\",\"13\",\"264793\",\"0.0-13.0\",\"\",\"\",\"2-2\",\"5157\",\"39\",\"1\",\"Training\",\"Stims/Figures/84-J-0-2.bmp\",\"zasa:za\",\"Right\",\"39\",\"1\",\"10\",\"6B\",\"C2\",\"C\",\"10\"
\"\",\"\",\"approach-retreat\",\"14\",\"270841\",\"0.0-14.0\",\"\",\"\",\"2-2\",\"4536\",\"38\",\"1\",\"Training\",\"Stims/Figures/93-J-0-1.bmp\",\"za:haza\",\"Up\",\"38\",\"1\",\"11\",\"6B\",\"C2\",\"C\",\"11\"
\"\",\"\",\"approach-retreat\",\"15\",\"276885\",\"0.0-15.0\",\"\",\"\",\"2-2\",\"4533\",\"38\",\"1\",\"Training\",\"Stims/Figures/7-C-20-4.bmp\",\"vafa:sha\",\"Down\",\"38\",\"1\",\"12\",\"6B\",\"C1\",\"C\",\"12\"
\"\",\"\",\"approach-retreat\",\"16\",\"283923\",\"0.0-16.0\",\"\",\"\",\"2-2\",\"5516\",\"39\",\"0\",\"Training\",\"Stims/Figures/7-J-10-4.bmp\",\"za:saha\",\"Left\",\"37\",\"1\",\"13\",\"6B\",\"C2\",\"C\",\"13\"
\"\",\"\",\"approach-retreat\",\"17\",\"291158\",\"0.0-17.0\",\"\",\"\",\"2-2\",\"5720\",\"39\",\"0\",\"Training\",\"Stims/Figures/84-C-20-2.bmp\",\"vafava\",\"Right\",\"37\",\"1\",\"14\",\"6B\",\"C1\",\"C\",\"14\"
\"\",\"\",\"approach-retreat\",\"18\",\"299336\",\"0.0-18.0\",\"\",\"\",\"2-2\",\"6669\",\"38\",\"1\",\"Training\",\"Stims/Figures/144-J-10-3.bmp\",\"zasaza\",\"Up\",\"38\",\"1\",\"15\",\"6B\",\"C2\",\"C\",\"15\"
\"\",\"\",\"approach-retreat\",\"19\",\"305455\",\"0.0-19.0\",\"\",\"\",\"2-2\",\"4606\",\"40\",\"0\",\"Training\",\"Stims/Figures/27-J-0-1.bmp\",\"za:ha:ha\",\"Up\",\"38\",\"1\",\"16\",\"6B\",\"C2\",\"C\",\"16\"
\"\",\"\",\"approach-retreat\",\"20\",\"313827\",\"0.0-20.0\",\"\",\"\",\"2-2\",\"6854\",\"39\",\"1\",\"Training\",\"Stims/Figures/7-C-20-4.bmp\",\"vafa:sha\",\"Left\",\"39\",\"2\",\"1\",\"6B\",\"C1\",\"C\",\"17\"
\"\",\"\",\"approach-retreat\",\"21\",\"327516\",\"0.0-21.0\",\"\",\"\",\"2-2\",\"12170\",\"38\",\"1\",\"Training\",\"Stims/Figures/27-J-0-1.bmp\",\"za:ha:ha\",\"Up\",\"38\",\"2\",\"2\",\"6B\",\"C2\",\"C\",\"18\"
\"\",\"\",\"approach-retreat\",\"22\",\"334373\",\"0.0-22.0\",\"\",\"\",\"2-2\",\"5345\",\"40\",\"1\",\"Training\",\"Stims/Figures/144-C-30-3.bmp\",\"va:sha:sha\",\"Up\",\"40\",\"2\",\"3\",\"6B\",\"C1\",\"C\",\"19\"
\"\",\"\",\"approach-retreat\",\"23\",\"342055\",\"0.0-23.0\",\"\",\"\",\"2-2\",\"6169\",\"37\",\"0\",\"Training\",\"Stims/Figures/19-J-10-4.bmp\",\"zahaza\",\"Right\",\"39\",\"2\",\"4\",\"6B\",\"C2\",\"C\",\"20\"
\"\",\"\",\"approach-retreat\",\"24\",\"349494\",\"0.0-24.0\",\"\",\"\",\"2-2\",\"5929\",\"39\",\"1\",\"Training\",\"Stims/Figures/93-J-0-1.bmp\",\"za:haza\",\"Right\",\"39\",\"2\",\"5\",\"6B\",\"C2\",\"C\",\"21\"
\"\",\"\",\"approach-retreat\",\"25\",\"356838\",\"0.0-25.0\",\"\",\"\",\"2-2\",\"5833\",\"40\",\"0\",\"Training\",\"Stims/Figures/93-C-30-1.bmp\",\"vafa:va\",\"Down\",\"38\",\"2\",\"6\",\"6B\",\"C1\",\"C\",\"22\"
\"\",\"\",\"approach-retreat\",\"26\",\"364766\",\"0.0-26.0\",\"\",\"\",\"2-2\",\"6413\",\"38\",\"0\",\"Training\",\"Stims/Figures/118-J-0-2.bmp\",\"za:haha\",\"Down\",\"40\",\"2\",\"7\",\"6B\",\"C2\",\"C\",\"23\"
\"\",\"\",\"approach-retreat\",\"27\",\"372975\",\"0.0-27.0\",\"\",\"\",\"2-2\",\"6689\",\"40\",\"1\",\"Training\",\"Stims/Figures/27-C-30-1.bmp\",\"vasha:sha\",\"Up\",\"40\",\"2\",\"8\",\"6B\",\"C1\",\"C\",\"24\"
\"\",\"\",\"approach-retreat\",\"28\",\"378631\",\"0.0-28.0\",\"\",\"\",\"2-2\",\"4140\",\"38\",\"1\",\"Training\",\"Stims/Figures/84-C-20-2.bmp\",\"vafava\",\"Down\",\"38\",\"2\",\"9\",\"6B\",\"C1\",\"C\",\"25\"
\"\",\"\",\"approach-retreat\",\"29\",\"384490\",\"0.0-29.0\",\"\",\"\",\"2-2\",\"4348\",\"39\",\"1\",\"Training\",\"Stims/Figures/118-C-20-2.bmp\",\"fa:shava\",\"Left\",\"39\",\"2\",\"10\",\"6B\",\"C1\",\"C\",\"26\"
\"\",\"\",\"approach-retreat\",\"30\",\"390957\",\"0.0-30.0\",\"\",\"\",\"2-2\",\"4947\",\"38\",\"1\",\"Training\",\"Stims/Figures/7-J-10-4.bmp\",\"za:saha\",\"Up\",\"38\",\"2\",\"11\",\"6B\",\"C2\",\"C\",\"27\"
\"\",\"\",\"approach-retreat\",\"31\",\"397100\",\"0.0-31.0\",\"\",\"\",\"2-2\",\"4633\",\"39\",\"1\",\"Training\",\"Stims/Figures/44-C-30-3.bmp\",\"va:fava\",\"Left\",\"39\",\"2\",\"12\",\"6B\",\"C1\",\"C\",\"28\"
\"\",\"\",\"approach-retreat\",\"32\",\"402911\",\"0.0-32.0\",\"\",\"\",\"2-2\",\"4297\",\"37\",\"1\",\"Training\",\"Stims/Figures/84-J-0-2.bmp\",\"zasa:za\",\"Left\",\"37\",\"2\",\"13\",\"6B\",\"C2\",\"C\",\"29\"
\"\",\"\",\"approach-retreat\",\"33\",\"416155\",\"0.0-33.0\",\"\",\"\",\"2-2\",\"11735\",\"39\",\"1\",\"Training\",\"Stims/Figures/144-J-10-3.bmp\",\"zasaza\",\"Right\",\"39\",\"2\",\"14\",\"6B\",\"C2\",\"C\",\"30\"
\"\",\"\",\"approach-retreat\",\"34\",\"425528\",\"0.0-34.0\",\"\",\"\",\"2-2\",\"7862\",\"40\",\"1\",\"Training\",\"Stims/Figures/44-J-10-3.bmp\",\"zasaha\",\"Down\",\"40\",\"2\",\"15\",\"6B\",\"C2\",\"C\",\"31\"
\"\",\"\",\"approach-retreat\",\"35\",\"433191\",\"0.0-35.0\",\"\",\"\",\"2-2\",\"6153\",\"37\",\"1\",\"Training\",\"Stims/Figures/19-C-20-4.bmp\",\"fafasha\",\"Right\",\"37\",\"2\",\"16\",\"6B\",\"C1\",\"C\",\"32\"
\"\",\"\",\"approach-retreat\",\"36\",\"440656\",\"0.0-36.0\",\"\",\"\",\"2-2\",\"5952\",\"38\",\"1\",\"Training\",\"Stims/Figures/7-C-20-4.bmp\",\"vafa:sha\",\"Down\",\"38\",\"3\",\"1\",\"6B\",\"C1\",\"C\",\"33\"
\"\",\"\",\"approach-retreat\",\"37\",\"447842\",\"0.0-37.0\",\"\",\"\",\"2-2\",\"5671\",\"37\",\"1\",\"Training\",\"Stims/Figures/19-J-10-4.bmp\",\"zahaza\",\"Left\",\"37\",\"3\",\"2\",\"6B\",\"C2\",\"C\",\"34\"
\"\",\"\",\"approach-retreat\",\"38\",\"454613\",\"0.0-38.0\",\"\",\"\",\"2-2\",\"5260\",\"38\",\"1\",\"Training\",\"Stims/Figures/118-J-0-2.bmp\",\"za:haha\",\"Up\",\"38\",\"3\",\"3\",\"6B\",\"C2\",\"C\",\"35\"
\"\",\"\",\"approach-retreat\",\"39\",\"463738\",\"0.0-39.0\",\"\",\"\",\"2-2\",\"7614\",\"39\",\"0\",\"Training\",\"Stims/Figures/27-C-30-1.bmp\",\"vasha:sha\",\"Right\",\"37\",\"3\",\"4\",\"6B\",\"C1\",\"C\",\"36\"
\"\",\"\",\"approach-retreat\",\"40\",\"477927\",\"0.0-40.0\",\"\",\"\",\"2-2\",\"12668\",\"37\",\"1\",\"Training\",\"Stims/Figures/144-J-10-3.bmp\",\"zasaza\",\"Left\",\"37\",\"3\",\"5\",\"6B\",\"C2\",\"C\",\"37\"
\"\",\"\",\"approach-retreat\",\"41\",\"491377\",\"0.0-41.0\",\"\",\"\",\"2-2\",\"11943\",\"38\",\"1\",\"Training\",\"Stims/Figures/19-C-20-4.bmp\",\"fafasha\",\"Down\",\"38\",\"3\",\"6\",\"6B\",\"C1\",\"C\",\"38\"
\"\",\"\",\"approach-retreat\",\"42\",\"497121\",\"0.0-42.0\",\"\",\"\",\"2-2\",\"4231\",\"38\",\"0\",\"Training\",\"Stims/Figures/93-C-30-1.bmp\",\"vafa:va\",\"Up\",\"40\",\"3\",\"7\",\"6B\",\"C1\",\"C\",\"39\"
\"\",\"\",\"approach-retreat\",\"43\",\"505613\",\"0.0-43.0\",\"\",\"\",\"2-2\",\"6980\",\"39\",\"0\",\"Training\",\"Stims/Figures/118-C-20-2.bmp\",\"fa:shava\",\"Right\",\"37\",\"3\",\"8\",\"6B\",\"C1\",\"C\",\"40\"
\"\",\"\",\"approach-retreat\",\"44\",\"511531\",\"0.0-44.0\",\"\",\"\",\"2-2\",\"4406\",\"37\",\"1\",\"Training\",\"Stims/Figures/93-J-0-1.bmp\",\"za:haza\",\"Left\",\"37\",\"3\",\"9\",\"6B\",\"C2\",\"C\",\"41\"
\"\",\"\",\"approach-retreat\",\"45\",\"517717\",\"0.0-45.0\",\"\",\"\",\"2-2\",\"4668\",\"40\",\"0\",\"Training\",\"Stims/Figures/84-C-20-2.bmp\",\"vafava\",\"Down\",\"38\",\"3\",\"10\",\"6B\",\"C1\",\"C\",\"42\"
\"\",\"\",\"approach-retreat\",\"46\",\"523391\",\"0.0-46.0\",\"\",\"\",\"2-2\",\"4163\",\"39\",\"1\",\"Training\",\"Stims/Figures/27-J-0-1.bmp\",\"za:ha:ha\",\"Right\",\"39\",\"3\",\"11\",\"6B\",\"C2\",\"C\",\"43\"
\"\",\"\",\"approach-retreat\",\"47\",\"529123\",\"0.0-47.0\",\"\",\"\",\"2-2\",\"4221\",\"38\",\"1\",\"Training\",\"Stims/Figures/44-J-10-3.bmp\",\"zasaha\",\"Up\",\"38\",\"3\",\"12\",\"6B\",\"C2\",\"C\",\"44\"
\"\",\"\",\"approach-retreat\",\"48\",\"534772\",\"0.0-48.0\",\"\",\"\",\"2-2\",\"4139\",\"38\",\"0\",\"Training\",\"Stims/Figures/7-J-10-4.bmp\",\"za:saha\",\"Down\",\"40\",\"3\",\"13\",\"6B\",\"C2\",\"C\",\"45\"
\"\",\"\",\"approach-retreat\",\"49\",\"540529\",\"0.0-49.0\",\"\",\"\",\"2-2\",\"4243\",\"37\",\"1\",\"Training\",\"Stims/Figures/44-C-30-3.bmp\",\"va:fava\",\"Right\",\"37\",\"3\",\"14\",\"6B\",\"C1\",\"C\",\"46\"
\"\",\"\",\"approach-retreat\",\"50\",\"547606\",\"0.0-50.0\",\"\",\"\",\"2-2\",\"5561\",\"39\",\"1\",\"Training\",\"Stims/Figures/144-C-30-3.bmp\",\"va:sha:sha\",\"Left\",\"39\",\"3\",\"15\",\"6B\",\"C1\",\"C\",\"47\"
\"\",\"\",\"approach-retreat\",\"51\",\"554079\",\"0.0-51.0\",\"\",\"\",\"2-2\",\"4958\",\"40\",\"0\",\"Training\",\"Stims/Figures/84-J-0-2.bmp\",\"zasa:za\",\"Up\",\"38\",\"3\",\"16\",\"6B\",\"C2\",\"C\",\"48\"
\"\",\"\",\"approach-retreat\",\"52\",\"560569\",\"0.0-52.0\",\"\",\"\",\"2-2\",\"4970\",\"38\",\"1\",\"Training\",\"Stims/Figures/84-C-20-2.bmp\",\"vafava\",\"Down\",\"38\",\"4\",\"1\",\"6B\",\"C1\",\"C\",\"49\"
\"\",\"\",\"approach-retreat\",\"53\",\"569301\",\"0.0-53.0\",\"\",\"\",\"2-2\",\"7221\",\"39\",\"1\",\"Training\",\"Stims/Figures/27-C-30-1.bmp\",\"vasha:sha\",\"Left\",\"39\",\"4\",\"2\",\"6B\",\"C1\",\"C\",\"50\"
\"\",\"\",\"approach-retreat\",\"54\",\"574887\",\"0.0-54.0\",\"\",\"\",\"2-2\",\"4073\",\"39\",\"1\",\"Training\",\"Stims/Figures/144-C-30-3.bmp\",\"va:sha:sha\",\"Left\",\"39\",\"4\",\"3\",\"6B\",\"C1\",\"C\",\"51\"
\"\",\"\",\"approach-retreat\",\"55\",\"580869\",\"0.0-55.0\",\"\",\"\",\"2-2\",\"4463\",\"38\",\"1\",\"Training\",\"Stims/Figures/118-J-0-2.bmp\",\"za:haha\",\"Up\",\"38\",\"4\",\"4\",\"6B\",\"C2\",\"C\",\"52\"
\"\",\"\",\"approach-retreat\",\"56\",\"589693\",\"0.0-56.0\",\"\",\"\",\"2-2\",\"7313\",\"38\",\"1\",\"Training\",\"Stims/Figures/19-J-10-4.bmp\",\"zahaza\",\"Up\",\"38\",\"4\",\"5\",\"6B\",\"C2\",\"C\",\"53\"
\"\",\"\",\"approach-retreat\",\"57\",\"595567\",\"0.0-57.0\",\"\",\"\",\"2-2\",\"4356\",\"39\",\"1\",\"Training\",\"Stims/Figures/44-J-10-3.bmp\",\"zasaha\",\"Right\",\"39\",\"4\",\"6\",\"6B\",\"C2\",\"C\",\"54\"
\"\",\"\",\"approach-retreat\",\"58\",\"608112\",\"0.0-58.0\",\"\",\"\",\"2-2\",\"11032\",\"39\",\"1\",\"Training\",\"Stims/Figures/7-J-10-4.bmp\",\"za:saha\",\"Right\",\"39\",\"4\",\"7\",\"6B\",\"C2\",\"C\",\"55\"
\"\",\"\",\"approach-retreat\",\"59\",\"614349\",\"0.0-59.0\",\"\",\"\",\"2-2\",\"4719\",\"40\",\"1\",\"Training\",\"Stims/Figures/93-J-0-1.bmp\",\"za:haza\",\"Down\",\"40\",\"4\",\"8\",\"6B\",\"C2\",\"C\",\"56\"
\"\",\"\",\"approach-retreat\",\"60\",\"624656\",\"0.0-60.0\",\"\",\"\",\"2-2\",\"8789\",\"37\",\"1\",\"Training\",\"Stims/Figures/144-J-10-3.bmp\",\"zasaza\",\"Left\",\"37\",\"4\",\"9\",\"6B\",\"C2\",\"C\",\"57\"
\"\",\"\",\"approach-retreat\",\"61\",\"630462\",\"0.0-61.0\",\"\",\"\",\"2-2\",\"4285\",\"37\",\"1\",\"Training\",\"Stims/Figures/93-C-30-1.bmp\",\"vafa:va\",\"Right\",\"37\",\"4\",\"10\",\"6B\",\"C1\",\"C\",\"58\"
\"\",\"\",\"approach-retreat\",\"62\",\"636928\",\"0.0-62.0\",\"\",\"\",\"2-2\",\"4947\",\"37\",\"1\",\"Training\",\"Stims/Figures/44-C-30-3.bmp\",\"va:fava\",\"Right\",\"37\",\"4\",\"11\",\"6B\",\"C1\",\"C\",\"59\"
\"\",\"\",\"approach-retreat\",\"63\",\"642541\",\"0.0-63.0\",\"\",\"\",\"2-2\",\"4100\",\"38\",\"1\",\"Training\",\"Stims/Figures/7-C-20-4.bmp\",\"vafa:sha\",\"Down\",\"38\",\"4\",\"12\",\"6B\",\"C1\",\"C\",\"60\"
\"\",\"\",\"approach-retreat\",\"64\",\"648670\",\"0.0-64.0\",\"\",\"\",\"2-2\",\"4615\",\"37\",\"1\",\"Training\",\"Stims/Figures/27-J-0-1.bmp\",\"za:ha:ha\",\"Left\",\"37\",\"4\",\"13\",\"6B\",\"C2\",\"C\",\"61\"
\"\",\"\",\"approach-retreat\",\"65\",\"654065\",\"0.0-65.0\",\"\",\"\",\"2-2\",\"3874\",\"38\",\"1\",\"Training\",\"Stims/Figures/118-C-20-2.bmp\",\"fa:shava\",\"Down\",\"38\",\"4\",\"14\",\"6B\",\"C1\",\"C\",\"62\"
\"\",\"\",\"approach-retreat\",\"66\",\"662124\",\"0.0-66.0\",\"\",\"\",\"2-2\",\"6545\",\"38\",\"1\",\"Training\",\"Stims/Figures/84-J-0-2.bmp\",\"zasa:za\",\"Up\",\"38\",\"4\",\"15\",\"6B\",\"C2\",\"C\",\"63\"
\"\",\"\",\"approach-retreat\",\"67\",\"667999\",\"0.0-67.0\",\"\",\"\",\"2-2\",\"4357\",\"40\",\"1\",\"Training\",\"Stims/Figures/19-C-20-4.bmp\",\"fafasha\",\"Up\",\"40\",\"4\",\"16\",\"6B\",\"C1\",\"C\",\"64\"
\"\",\"\",\"approach-retreat\",\"68\",\"673708\",\"0.0-68.0\",\"\",\"\",\"2-2\",\"4196\",\"38\",\"1\",\"Training\",\"Stims/Figures/27-J-0-1.bmp\",\"za:ha:ha\",\"Up\",\"38\",\"5\",\"1\",\"6B\",\"C2\",\"C\",\"65\"
\"\",\"\",\"approach-retreat\",\"69\",\"688242\",\"0.0-69.0\",\"\",\"\",\"2-2\",\"13016\",\"37\",\"1\",\"Training\",\"Stims/Figures/7-J-10-4.bmp\",\"za:saha\",\"Left\",\"37\",\"5\",\"2\",\"6B\",\"C2\",\"C\",\"66\"
\"\",\"\",\"approach-retreat\",\"70\",\"694499\",\"0.0-70.0\",\"\",\"\",\"2-2\",\"4740\",\"39\",\"1\",\"Training\",\"Stims/Figures/19-C-20-4.bmp\",\"fafasha\",\"Left\",\"39\",\"5\",\"3\",\"6B\",\"C1\",\"C\",\"67\"
\"\",\"\",\"approach-retreat\",\"71\",\"700542\",\"0.0-71.0\",\"\",\"\",\"2-2\",\"4531\",\"39\",\"1\",\"Training\",\"Stims/Figures/144-C-30-3.bmp\",\"va:sha:sha\",\"Left\",\"39\",\"5\",\"4\",\"6B\",\"C1\",\"C\",\"68\"
\"\",\"\",\"approach-retreat\",\"72\",\"706328\",\"0.0-72.0\",\"\",\"\",\"2-2\",\"4264\",\"38\",\"1\",\"Training\",\"Stims/Figures/93-C-30-1.bmp\",\"vafa:va\",\"Down\",\"38\",\"5\",\"5\",\"6B\",\"C1\",\"C\",\"69\"
\"\",\"\",\"approach-retreat\",\"73\",\"711943\",\"0.0-73.0\",\"\",\"\",\"2-2\",\"4102\",\"39\",\"1\",\"Training\",\"Stims/Figures/44-J-10-3.bmp\",\"zasaha\",\"Right\",\"39\",\"5\",\"6\",\"6B\",\"C2\",\"C\",\"70\"
\"\",\"\",\"approach-retreat\",\"74\",\"717617\",\"0.0-74.0\",\"\",\"\",\"2-2\",\"4162\",\"38\",\"1\",\"Training\",\"Stims/Figures/93-J-0-1.bmp\",\"za:haza\",\"Up\",\"38\",\"5\",\"7\",\"6B\",\"C2\",\"C\",\"71\"
\"\",\"\",\"approach-retreat\",\"75\",\"723197\",\"0.0-75.0\",\"\",\"\",\"2-2\",\"4065\",\"39\",\"1\",\"Training\",\"Stims/Figures/144-J-10-3.bmp\",\"zasaza\",\"Right\",\"39\",\"5\",\"8\",\"6B\",\"C2\",\"C\",\"72\"
\"\",\"\",\"approach-retreat\",\"76\",\"728906\",\"0.0-76.0\",\"\",\"\",\"2-2\",\"4196\",\"37\",\"1\",\"Training\",\"Stims/Figures/118-J-0-2.bmp\",\"za:haha\",\"Left\",\"37\",\"5\",\"9\",\"6B\",\"C2\",\"C\",\"73\"
\"\",\"\",\"approach-retreat\",\"77\",\"739497\",\"0.0-77.0\",\"\",\"\",\"2-2\",\"9082\",\"40\",\"0\",\"Training\",\"Stims/Figures/44-C-30-3.bmp\",\"va:fava\",\"Down\",\"38\",\"5\",\"10\",\"6B\",\"C1\",\"C\",\"74\"
\"\",\"\",\"approach-retreat\",\"78\",\"745521\",\"0.0-78.0\",\"\",\"\",\"2-2\",\"4505\",\"40\",\"1\",\"Training\",\"Stims/Figures/7-C-20-4.bmp\",\"vafa:sha\",\"Up\",\"40\",\"5\",\"11\",\"6B\",\"C1\",\"C\",\"75\"
\"\",\"\",\"approach-retreat\",\"79\",\"755629\",\"0.0-79.0\",\"\",\"\",\"2-2\",\"8598\",\"37\",\"1\",\"Training\",\"Stims/Figures/118-C-20-2.bmp\",\"fa:shava\",\"Right\",\"37\",\"5\",\"12\",\"6B\",\"C1\",\"C\",\"76\"
\"\",\"\",\"approach-retreat\",\"80\",\"761970\",\"0.0-80.0\",\"\",\"\",\"2-2\",\"4828\",\"38\",\"1\",\"Training\",\"Stims/Figures/84-J-0-2.bmp\",\"zasa:za\",\"Up\",\"38\",\"5\",\"13\",\"6B\",\"C2\",\"C\",\"77\"
\"\",\"\",\"approach-retreat\",\"81\",\"768215\",\"0.0-81.0\",\"\",\"\",\"2-2\",\"4727\",\"38\",\"0\",\"Training\",\"Stims/Figures/19-J-10-4.bmp\",\"zahaza\",\"Down\",\"40\",\"5\",\"14\",\"6B\",\"C2\",\"C\",\"78\"
\"\",\"\",\"approach-retreat\",\"82\",\"774026\",\"0.0-82.0\",\"\",\"\",\"2-2\",\"4296\",\"38\",\"1\",\"Training\",\"Stims/Figures/27-C-30-1.bmp\",\"vasha:sha\",\"Down\",\"38\",\"5\",\"15\",\"6B\",\"C1\",\"C\",\"79\"
\"\",\"\",\"approach-retreat\",\"83\",\"780176\",\"0.0-83.0\",\"\",\"\",\"2-2\",\"4630\",\"37\",\"1\",\"Training\",\"Stims/Figures/84-C-20-2.bmp\",\"vafava\",\"Right\",\"37\",\"5\",\"16\",\"6B\",\"C1\",\"C\",\"80\"
\"\",\"\",\"approach-retreat\",\"84\",\"785756\",\"0.0-84.0\",\"\",\"\",\"2-2\",\"4063\",\"37\",\"1\",\"Training\",\"Stims/Figures/19-J-10-4.bmp\",\"zahaza\",\"Left\",\"37\",\"6\",\"1\",\"6B\",\"C2\",\"C\",\"81\"
\"\",\"\",\"approach-retreat\",\"85\",\"791489\",\"0.0-85.0\",\"\",\"\",\"2-2\",\"4215\",\"37\",\"1\",\"Training\",\"Stims/Figures/118-J-0-2.bmp\",\"za:haha\",\"Left\",\"37\",\"6\",\"2\",\"6B\",\"C2\",\"C\",\"82\"
\"\",\"\",\"approach-retreat\",\"86\",\"797082\",\"0.0-86.0\",\"\",\"\",\"2-2\",\"4075\",\"37\",\"0\",\"Training\",\"Stims/Figures/93-C-30-1.bmp\",\"vafa:va\",\"Left\",\"39\",\"6\",\"3\",\"6B\",\"C1\",\"C\",\"83\"
\"\",\"\",\"approach-retreat\",\"87\",\"802993\",\"0.0-87.0\",\"\",\"\",\"2-2\",\"4399\",\"40\",\"1\",\"Training\",\"Stims/Figures/144-C-30-3.bmp\",\"va:sha:sha\",\"Up\",\"40\",\"6\",\"4\",\"6B\",\"C1\",\"C\",\"84\"
\"\",\"\",\"approach-retreat\",\"88\",\"809511\",\"0.0-88.0\",\"\",\"\",\"2-2\",\"5000\",\"40\",\"1\",\"Training\",\"Stims/Figures/19-C-20-4.bmp\",\"fafasha\",\"Up\",\"40\",\"6\",\"5\",\"6B\",\"C1\",\"C\",\"85\"
\"\",\"\",\"approach-retreat\",\"89\",\"814842\",\"0.0-89.0\",\"\",\"\",\"2-2\",\"3815\",\"40\",\"1\",\"Training\",\"Stims/Figures/44-C-30-3.bmp\",\"va:fava\",\"Up\",\"40\",\"6\",\"6\",\"6B\",\"C1\",\"C\",\"86\"
\"\",\"\",\"approach-retreat\",\"90\",\"821740\",\"0.0-90.0\",\"\",\"\",\"2-2\",\"5387\",\"40\",\"1\",\"Training\",\"Stims/Figures/144-J-10-3.bmp\",\"zasaza\",\"Down\",\"40\",\"6\",\"7\",\"6B\",\"C2\",\"C\",\"87\"
\"\",\"\",\"approach-retreat\",\"91\",\"827503\",\"0.0-91.0\",\"\",\"\",\"2-2\",\"4252\",\"37\",\"1\",\"Training\",\"Stims/Figures/84-C-20-2.bmp\",\"vafava\",\"Right\",\"37\",\"6\",\"8\",\"6B\",\"C1\",\"C\",\"88\"
\"\",\"\",\"approach-retreat\",\"92\",\"833685\",\"0.0-92.0\",\"\",\"\",\"2-2\",\"4674\",\"39\",\"1\",\"Training\",\"Stims/Figures/7-J-10-4.bmp\",\"za:saha\",\"Right\",\"39\",\"6\",\"9\",\"6B\",\"C2\",\"C\",\"89\"
\"\",\"\",\"approach-retreat\",\"93\",\"843430\",\"0.0-93.0\",\"\",\"\",\"2-2\",\"8231\",\"40\",\"1\",\"Training\",\"Stims/Figures/27-J-0-1.bmp\",\"za:ha:ha\",\"Down\",\"40\",\"6\",\"10\",\"6B\",\"C2\",\"C\",\"90\"
\"\",\"\",\"approach-retreat\",\"94\",\"851802\",\"0.0-94.0\",\"\",\"\",\"2-2\",\"6862\",\"38\",\"1\",\"Training\",\"Stims/Figures/84-J-0-2.bmp\",\"zasa:za\",\"Up\",\"38\",\"6\",\"11\",\"6B\",\"C2\",\"C\",\"91\"
\"\",\"\",\"approach-retreat\",\"95\",\"858082\",\"0.0-95.0\",\"\",\"\",\"2-2\",\"4764\",\"39\",\"0\",\"Training\",\"Stims/Figures/27-C-30-1.bmp\",\"vasha:sha\",\"Right\",\"37\",\"6\",\"12\",\"6B\",\"C1\",\"C\",\"92\"
\"\",\"\",\"approach-retreat\",\"96\",\"866778\",\"0.0-96.0\",\"\",\"\",\"2-2\",\"7185\",\"37\",\"1\",\"Training\",\"Stims/Figures/44-J-10-3.bmp\",\"zasaha\",\"Left\",\"37\",\"6\",\"13\",\"6B\",\"C2\",\"C\",\"93\"
\"\",\"\",\"approach-retreat\",\"97\",\"873379\",\"0.0-97.0\",\"\",\"\",\"2-2\",\"5086\",\"40\",\"0\",\"Training\",\"Stims/Figures/118-C-20-2.bmp\",\"fa:shava\",\"Down\",\"38\",\"6\",\"14\",\"6B\",\"C1\",\"C\",\"94\"
\"\",\"\",\"approach-retreat\",\"98\",\"881324\",\"0.0-98.0\",\"\",\"\",\"2-2\",\"6433\",\"40\",\"1\",\"Training\",\"Stims/Figures/93-J-0-1.bmp\",\"za:haza\",\"Down\",\"40\",\"6\",\"15\",\"6B\",\"C2\",\"C\",\"95\"
\"\",\"\",\"approach-retreat\",\"99\",\"887554\",\"0.0-99.0\",\"\",\"\",\"2-2\",\"4717\",\"37\",\"1\",\"Training\",\"Stims/Figures/7-C-20-4.bmp\",\"vafa:sha\",\"Right\",\"37\",\"6\",\"16\",\"6B\",\"C1\",\"C\",\"96\"
\"\",\"\",\"approach-retreat\",\"100\",\"895234\",\"0.0-100.0\",\"\",\"\",\"2-2\",\"6166\",\"40\",\"1\",\"Training\",\"Stims/Figures/84-J-0-2.bmp\",\"zasa:za\",\"Down\",\"40\",\"7\",\"1\",\"6B\",\"C2\",\"C\",\"97\"
\"\",\"\",\"approach-retreat\",\"101\",\"901376\",\"0.0-101.0\",\"\",\"\",\"2-2\",\"4626\",\"37\",\"1\",\"Training\",\"Stims/Figures/19-C-20-4.bmp\",\"fafasha\",\"Right\",\"37\",\"7\",\"2\",\"6B\",\"C1\",\"C\",\"98\"
\"\",\"\",\"approach-retreat\",\"102\",\"911065\",\"0.0-102.0\",\"\",\"\",\"2-2\",\"8170\",\"39\",\"1\",\"Training\",\"Stims/Figures/93-J-0-1.bmp\",\"za:haza\",\"Right\",\"39\",\"7\",\"3\",\"6B\",\"C2\",\"C\",\"99\"
\"\",\"\",\"approach-retreat\",\"103\",\"923800\",\"0.0-103.0\",\"\",\"\",\"2-2\",\"11213\",\"38\",\"1\",\"Training\",\"Stims/Figures/7-J-10-4.bmp\",\"za:saha\",\"Up\",\"38\",\"7\",\"4\",\"6B\",\"C2\",\"C\",\"100\"
\"\",\"\",\"approach-retreat\",\"104\",\"929307\",\"0.0-104.0\",\"\",\"\",\"2-2\",\"3987\",\"40\",\"1\",\"Training\",\"Stims/Figures/44-C-30-3.bmp\",\"va:fava\",\"Up\",\"40\",\"7\",\"5\",\"6B\",\"C1\",\"C\",\"101\"
\"\",\"\",\"approach-retreat\",\"105\",\"934751\",\"0.0-105.0\",\"\",\"\",\"2-2\",\"3926\",\"39\",\"1\",\"Training\",\"Stims/Figures/93-C-30-1.bmp\",\"vafa:va\",\"Left\",\"39\",\"7\",\"6\",\"6B\",\"C1\",\"C\",\"102\"
\"\",\"\",\"approach-retreat\",\"106\",\"942424\",\"0.0-106.0\",\"\",\"\",\"2-2\",\"6152\",\"37\",\"1\",\"Training\",\"Stims/Figures/118-C-20-2.bmp\",\"fa:shava\",\"Right\",\"37\",\"7\",\"7\",\"6B\",\"C1\",\"C\",\"103\"
\"\",\"\",\"approach-retreat\",\"107\",\"950835\",\"0.0-107.0\",\"\",\"\",\"2-2\",\"6900\",\"37\",\"1\",\"Training\",\"Stims/Figures/44-J-10-3.bmp\",\"zasaha\",\"Left\",\"37\",\"7\",\"8\",\"6B\",\"C2\",\"C\",\"104\"
\"\",\"\",\"approach-retreat\",\"108\",\"956510\",\"0.0-108.0\",\"\",\"\",\"2-2\",\"4163\",\"39\",\"1\",\"Training\",\"Stims/Figures/144-C-30-3.bmp\",\"va:sha:sha\",\"Left\",\"39\",\"7\",\"9\",\"6B\",\"C1\",\"C\",\"105\"
\"\",\"\",\"approach-retreat\",\"109\",\"964391\",\"0.0-109.0\",\"\",\"\",\"2-2\",\"6367\",\"40\",\"1\",\"Training\",\"Stims/Figures/7-C-20-4.bmp\",\"vafa:sha\",\"Up\",\"40\",\"7\",\"10\",\"6B\",\"C1\",\"C\",\"106\"
\"\",\"\",\"approach-retreat\",\"110\",\"972098\",\"0.0-110.0\",\"\",\"\",\"2-2\",\"6197\",\"37\",\"1\",\"Training\",\"Stims/Figures/19-J-10-4.bmp\",\"zahaza\",\"Left\",\"37\",\"7\",\"11\",\"6B\",\"C2\",\"C\",\"107\"
\"\",\"\",\"approach-retreat\",\"111\",\"979504\",\"0.0-111.0\",\"\",\"\",\"2-2\",\"5886\",\"40\",\"1\",\"Training\",\"Stims/Figures/27-J-0-1.bmp\",\"za:ha:ha\",\"Down\",\"40\",\"7\",\"12\",\"6B\",\"C2\",\"C\",\"108\"
\"\",\"\",\"approach-retreat\",\"112\",\"985202\",\"0.0-112.0\",\"\",\"\",\"2-2\",\"4188\",\"38\",\"1\",\"Training\",\"Stims/Figures/84-C-20-2.bmp\",\"vafava\",\"Down\",\"38\",\"7\",\"13\",\"6B\",\"C1\",\"C\",\"109\"
\"\",\"\",\"approach-retreat\",\"113\",\"991322\",\"0.0-113.0\",\"\",\"\",\"2-2\",\"4606\",\"38\",\"1\",\"Training\",\"Stims/Figures/27-C-30-1.bmp\",\"vasha:sha\",\"Down\",\"38\",\"7\",\"14\",\"6B\",\"C1\",\"C\",\"110\"
\"\",\"\",\"approach-retreat\",\"114\",\"1001411\",\"0.0-114.0\",\"\",\"\",\"2-2\",\"8575\",\"38\",\"1\",\"Training\",\"Stims/Figures/144-J-10-3.bmp\",\"zasaza\",\"Up\",\"38\",\"7\",\"15\",\"6B\",\"C2\",\"C\",\"111\"
\"\",\"\",\"approach-retreat\",\"115\",\"1007776\",\"0.0-115.0\",\"\",\"\",\"2-2\",\"4841\",\"39\",\"1\",\"Training\",\"Stims/Figures/118-J-0-2.bmp\",\"za:haha\",\"Right\",\"39\",\"7\",\"16\",\"6B\",\"C2\",\"C\",\"112\"
\"\",\"\",\"approach-retreat\",\"116\",\"1013534\",\"0.0-116.0\",\"\",\"\",\"2-2\",\"4240\",\"38\",\"1\",\"Training\",\"Stims/Figures/144-C-30-3.bmp\",\"va:sha:sha\",\"Down\",\"38\",\"8\",\"1\",\"6B\",\"C1\",\"C\",\"113\"
\"\",\"\",\"approach-retreat\",\"117\",\"1019213\",\"0.0-117.0\",\"\",\"\",\"2-2\",\"4161\",\"37\",\"1\",\"Training\",\"Stims/Figures/84-C-20-2.bmp\",\"vafava\",\"Right\",\"37\",\"8\",\"2\",\"6B\",\"C1\",\"C\",\"114\"
\"\",\"\",\"approach-retreat\",\"118\",\"1027032\",\"0.0-118.0\",\"\",\"\",\"2-2\",\"6311\",\"40\",\"1\",\"Training\",\"Stims/Figures/93-C-30-1.bmp\",\"vafa:va\",\"Up\",\"40\",\"8\",\"3\",\"6B\",\"C1\",\"C\",\"115\"
\"\",\"\",\"approach-retreat\",\"119\",\"1034759\",\"0.0-119.0\",\"\",\"\",\"2-2\",\"6219\",\"40\",\"1\",\"Training\",\"Stims/Figures/7-J-10-4.bmp\",\"za:saha\",\"Down\",\"40\",\"8\",\"4\",\"6B\",\"C2\",\"C\",\"116\"
\"\",\"\",\"approach-retreat\",\"120\",\"1044341\",\"0.0-120.0\",\"\",\"\",\"2-2\",\"8065\",\"40\",\"1\",\"Training\",\"Stims/Figures/19-C-20-4.bmp\",\"fafasha\",\"Up\",\"40\",\"8\",\"5\",\"6B\",\"C1\",\"C\",\"117\"
\"\",\"\",\"approach-retreat\",\"121\",\"1051841\",\"0.0-121.0\",\"\",\"\",\"2-2\",\"5981\",\"39\",\"1\",\"Training\",\"Stims/Figures/27-J-0-1.bmp\",\"za:ha:ha\",\"Right\",\"39\",\"8\",\"6\",\"6B\",\"C2\",\"C\",\"118\"
\"\",\"\",\"approach-retreat\",\"122\",\"1059557\",\"0.0-122.0\",\"\",\"\",\"2-2\",\"6195\",\"37\",\"1\",\"Training\",\"Stims/Figures/7-C-20-4.bmp\",\"vafa:sha\",\"Right\",\"37\",\"8\",\"7\",\"6B\",\"C1\",\"C\",\"119\"
\"\",\"\",\"approach-retreat\",\"123\",\"1066570\",\"0.0-123.0\",\"\",\"\",\"2-2\",\"5498\",\"38\",\"1\",\"Training\",\"Stims/Figures/144-J-10-3.bmp\",\"zasaza\",\"Up\",\"38\",\"8\",\"8\",\"6B\",\"C2\",\"C\",\"120\"
\"\",\"\",\"approach-retreat\",\"124\",\"1073439\",\"0.0-124.0\",\"\",\"\",\"2-2\",\"5355\",\"40\",\"1\",\"Training\",\"Stims/Figures/118-J-0-2.bmp\",\"za:haha\",\"Down\",\"40\",\"8\",\"9\",\"6B\",\"C2\",\"C\",\"121\"
\"\",\"\",\"approach-retreat\",\"125\",\"1080131\",\"0.0-125.0\",\"\",\"\",\"2-2\",\"5182\",\"37\",\"1\",\"Training\",\"Stims/Figures/84-J-0-2.bmp\",\"zasa:za\",\"Left\",\"37\",\"8\",\"10\",\"6B\",\"C2\",\"C\",\"122\"
\"\",\"\",\"approach-retreat\",\"126\",\"1087372\",\"0.0-126.0\",\"\",\"\",\"2-2\",\"5730\",\"39\",\"1\",\"Training\",\"Stims/Figures/93-J-0-1.bmp\",\"za:haza\",\"Right\",\"39\",\"8\",\"11\",\"6B\",\"C2\",\"C\",\"123\"
\"\",\"\",\"approach-retreat\",\"127\",\"1093214\",\"0.0-127.0\",\"\",\"\",\"2-2\",\"4329\",\"39\",\"1\",\"Training\",\"Stims/Figures/44-C-30-3.bmp\",\"va:fava\",\"Left\",\"39\",\"8\",\"12\",\"6B\",\"C1\",\"C\",\"124\"
\"\",\"\",\"approach-retreat\",\"128\",\"1102855\",\"0.0-128.0\",\"\",\"\",\"2-2\",\"8129\",\"37\",\"1\",\"Training\",\"Stims/Figures/19-J-10-4.bmp\",\"zahaza\",\"Left\",\"37\",\"8\",\"13\",\"6B\",\"C2\",\"C\",\"125\"
\"\",\"\",\"approach-retreat\",\"129\",\"1109353\",\"0.0-129.0\",\"\",\"\",\"2-2\",\"4978\",\"40\",\"1\",\"Training\",\"Stims/Figures/118-C-20-2.bmp\",\"fa:shava\",\"Up\",\"40\",\"8\",\"14\",\"6B\",\"C1\",\"C\",\"126\"
\"\",\"\",\"approach-retreat\",\"130\",\"1121739\",\"0.0-130.0\",\"\",\"\",\"2-2\",\"10863\",\"40\",\"1\",\"Training\",\"Stims/Figures/44-J-10-3.bmp\",\"zasaha\",\"Down\",\"40\",\"8\",\"15\",\"6B\",\"C2\",\"C\",\"127\"
\"\",\"\",\"approach-retreat\",\"131\",\"1128081\",\"0.0-131.0\",\"\",\"\",\"2-2\",\"4830\",\"39\",\"1\",\"Training\",\"Stims/Figures/27-C-30-1.bmp\",\"vasha:sha\",\"Left\",\"39\",\"8\",\"16\",\"6B\",\"C1\",\"C\",\"128\"
\"\",\"\",\"approach-retreat\",\"132\",\"1138275\",\"0.0-132.0\",\"\",\"\",\"2-2\",\"8679\",\"39\",\"1\",\"Training\",\"Stims/Figures/19-C-20-4.bmp\",\"fafasha\",\"Left\",\"39\",\"9\",\"1\",\"6B\",\"C1\",\"C\",\"129\"
\"\",\"\",\"approach-retreat\",\"133\",\"1148263\",\"0.0-133.0\",\"\",\"\",\"2-2\",\"8471\",\"37\",\"1\",\"Training\",\"Stims/Figures/93-C-30-1.bmp\",\"vafa:va\",\"Right\",\"37\",\"9\",\"2\",\"6B\",\"C1\",\"C\",\"130\"
\"\",\"\",\"approach-retreat\",\"134\",\"1160510\",\"0.0-134.0\",\"\",\"\",\"2-2\",\"10728\",\"40\",\"1\",\"Training\",\"Stims/Figures/7-C-20-4.bmp\",\"vafa:sha\",\"Up\",\"40\",\"9\",\"3\",\"6B\",\"C1\",\"C\",\"131\"
\"\",\"\",\"approach-retreat\",\"135\",\"1187850\",\"0.0-135.0\",\"\",\"\",\"2-2\",\"25828\",\"40\",\"1\",\"Training\",\"Stims/Figures/93-J-0-1.bmp\",\"za:haza\",\"Down\",\"40\",\"9\",\"4\",\"6B\",\"C2\",\"C\",\"132\"
\"\",\"\",\"approach-retreat\",\"136\",\"1196463\",\"0.0-136.0\",\"\",\"\",\"2-2\",\"7101\",\"37\",\"1\",\"Training\",\"Stims/Figures/27-J-0-1.bmp\",\"za:ha:ha\",\"Left\",\"37\",\"9\",\"5\",\"6B\",\"C2\",\"C\",\"133\"
\"\",\"\",\"approach-retreat\",\"137\",\"1203879\",\"0.0-137.0\",\"\",\"\",\"2-2\",\"5900\",\"40\",\"1\",\"Training\",\"Stims/Figures/44-J-10-3.bmp\",\"zasaha\",\"Down\",\"40\",\"9\",\"6\",\"6B\",\"C2\",\"C\",\"134\"
\"\",\"\",\"approach-retreat\",\"138\",\"1212928\",\"0.0-138.0\",\"\",\"\",\"2-2\",\"7538\",\"38\",\"1\",\"Training\",\"Stims/Figures/118-J-0-2.bmp\",\"za:haha\",\"Up\",\"38\",\"9\",\"7\",\"6B\",\"C2\",\"C\",\"135\"
\"\",\"\",\"approach-retreat\",\"139\",\"1222391\",\"0.0-139.0\",\"\",\"\",\"2-2\",\"7948\",\"38\",\"1\",\"Training\",\"Stims/Figures/144-C-30-3.bmp\",\"va:sha:sha\",\"Down\",\"38\",\"9\",\"8\",\"6B\",\"C1\",\"C\",\"136\"
\"\",\"\",\"approach-retreat\",\"140\",\"1230749\",\"0.0-140.0\",\"\",\"\",\"2-2\",\"6838\",\"38\",\"1\",\"Training\",\"Stims/Figures/144-J-10-3.bmp\",\"zasaza\",\"Up\",\"38\",\"9\",\"9\",\"6B\",\"C2\",\"C\",\"137\"
\"\",\"\",\"approach-retreat\",\"141\",\"1242280\",\"0.0-141.0\",\"\",\"\",\"2-2\",\"10015\",\"39\",\"1\",\"Training\",\"Stims/Figures/84-J-0-2.bmp\",\"zasa:za\",\"Right\",\"39\",\"9\",\"10\",\"6B\",\"C2\",\"C\",\"138\"
\"\",\"\",\"approach-retreat\",\"142\",\"1261229\",\"0.0-142.0\",\"\",\"\",\"2-2\",\"17436\",\"37\",\"1\",\"Training\",\"Stims/Figures/27-C-30-1.bmp\",\"vasha:sha\",\"Right\",\"37\",\"9\",\"11\",\"6B\",\"C1\",\"C\",\"139\"
\"\",\"\",\"approach-retreat\",\"143\",\"1274853\",\"0.0-143.0\",\"\",\"\",\"2-2\",\"12102\",\"39\",\"1\",\"Training\",\"Stims/Figures/44-C-30-3.bmp\",\"va:fava\",\"Left\",\"39\",\"9\",\"12\",\"6B\",\"C1\",\"C\",\"140\"
\"\",\"\",\"approach-retreat\",\"144\",\"1289752\",\"0.0-144.0\",\"\",\"\",\"2-2\",\"13384\",\"38\",\"1\",\"Training\",\"Stims/Figures/118-C-20-2.bmp\",\"fa:shava\",\"Down\",\"38\",\"9\",\"13\",\"6B\",\"C1\",\"C\",\"141\"
\"\",\"\",\"approach-retreat\",\"145\",\"1299561\",\"0.0-145.0\",\"\",\"\",\"2-2\",\"8300\",\"39\",\"1\",\"Training\",\"Stims/Figures/19-J-10-4.bmp\",\"zahaza\",\"Right\",\"39\",\"9\",\"14\",\"6B\",\"C2\",\"C\",\"142\"
\"\",\"\",\"approach-retreat\",\"146\",\"1306105\",\"0.0-146.0\",\"\",\"\",\"2-2\",\"5033\",\"38\",\"1\",\"Training\",\"Stims/Figures/7-J-10-4.bmp\",\"za:saha\",\"Up\",\"38\",\"9\",\"15\",\"6B\",\"C2\",\"C\",\"143\"
\"\",\"\",\"approach-retreat\",\"147\",\"1315815\",\"0.0-147.0\",\"\",\"\",\"2-2\",\"8189\",\"39\",\"1\",\"Training\",\"Stims/Figures/84-C-20-2.bmp\",\"vafava\",\"Left\",\"39\",\"9\",\"16\",\"6B\",\"C1\",\"C\",\"144\"
\"13947\",\"\",\"instructions\",\"148\",\"1329763\",\"0.0-148.0\",\"[{\"\"page_index\"\":0,\"\"viewing_time\"\":13945}]\",\"\",\"\",\"\",\"\",\"\",\"\",\"\",\"\",\"\",\"\",\"\",\"\",\"\",\"\",\"\",\"\"
\"\",\"\",\"approach-retreat\",\"149\",\"1340260\",\"0.0-149.0\",\"\",\"\",\"2-2\",\"8990\",\"37\",\"1\",\"Testing\",\"Stims/Figures/93-J-0-1.bmp\",\"za:haza\",\"Left\",\"37\",\"1\",\"1\",\"6B\",\"C2\",\"C\",\"1\"
\"\",\"\",\"approach-retreat\",\"150\",\"1346668\",\"0.0-150.0\",\"\",\"\",\"2-2\",\"4887\",\"37\",\"1\",\"Testing\",\"Stims/Figures/86-J-0-1.bmp\",\"za:saza\",\"Left\",\"37\",\"1\",\"2\",\"6B\",\"C2\",\"C\",\"2\"
\"\",\"\",\"approach-retreat\",\"151\",\"1361289\",\"0.0-151.0\",\"\",\"\",\"2-2\",\"13103\",\"40\",\"1\",\"Testing\",\"Stims/Figures/74-J-10-4.bmp\",\"sasa:ha\",\"Down\",\"40\",\"1\",\"3\",\"6B\",\"C2\",\"C\",\"3\"
\"\",\"\",\"approach-retreat\",\"152\",\"1367085\",\"0.0-152.0\",\"\",\"\",\"2-2\",\"4277\",\"38\",\"1\",\"Testing\",\"Stims/Figures/44-J-10-3.bmp\",\"zasaha\",\"Up\",\"38\",\"1\",\"4\",\"6B\",\"C2\",\"C\",\"4\"
\"\",\"\",\"approach-retreat\",\"153\",\"1372776\",\"0.0-153.0\",\"\",\"\",\"2-2\",\"4177\",\"40\",\"1\",\"Testing\",\"Stims/Figures/84-C-20-2.bmp\",\"vafava\",\"Up\",\"40\",\"1\",\"5\",\"6B\",\"C1\",\"C\",\"5\"
\"\",\"\",\"approach-retreat\",\"154\",\"1379124\",\"0.0-154.0\",\"\",\"\",\"2-2\",\"4838\",\"39\",\"0\",\"Testing\",\"Stims/Figures/19-C-20-4.bmp\",\"fafasha\",\"Right\",\"37\",\"1\",\"6\",\"6B\",\"C1\",\"C\",\"6\"
\"\",\"\",\"approach-retreat\",\"155\",\"1385073\",\"0.0-155.0\",\"\",\"\",\"2-2\",\"4440\",\"39\",\"1\",\"Testing\",\"Stims/Figures/86-C-30-1.bmp\",\"fa:sha:va\",\"Left\",\"39\",\"1\",\"7\",\"6B\",\"C1\",\"C\",\"7\"
\"\",\"\",\"approach-retreat\",\"156\",\"1391272\",\"0.0-156.0\",\"\",\"\",\"2-2\",\"4687\",\"40\",\"1\",\"Testing\",\"Stims/Figures/144-C-30-3.bmp\",\"va:sha:sha\",\"Up\",\"40\",\"1\",\"8\",\"6B\",\"C1\",\"C\",\"8\"
\"\",\"\",\"approach-retreat\",\"157\",\"1399020\",\"0.0-157.0\",\"\",\"\",\"2-2\",\"6236\",\"40\",\"1\",\"Testing\",\"Stims/Figures/118-J-0-2.bmp\",\"za:haha\",\"Down\",\"40\",\"1\",\"9\",\"6B\",\"C2\",\"C\",\"9\"
\"\",\"\",\"approach-retreat\",\"158\",\"1406557\",\"0.0-158.0\",\"\",\"\",\"2-2\",\"6021\",\"38\",\"1\",\"Testing\",\"Stims/Figures/85-J-0-2.bmp\",\"zahaha\",\"Up\",\"38\",\"1\",\"10\",\"6B\",\"C2\",\"C\",\"10\"
\"\",\"\",\"approach-retreat\",\"159\",\"1412412\",\"0.0-159.0\",\"\",\"\",\"2-2\",\"4345\",\"39\",\"1\",\"Testing\",\"Stims/Figures/128-C-30-3.bmp\",\"fa:fasha\",\"Left\",\"39\",\"1\",\"11\",\"6B\",\"C1\",\"C\",\"11\"
\"\",\"\",\"approach-retreat\",\"160\",\"1423566\",\"0.0-160.0\",\"\",\"\",\"2-2\",\"9636\",\"39\",\"1\",\"Testing\",\"Stims/Figures/128-J-10-3.bmp\",\"sa:ha:za\",\"Right\",\"39\",\"1\",\"12\",\"6B\",\"C2\",\"C\",\"12\"
\"\",\"\",\"approach-retreat\",\"161\",\"1429227\",\"0.0-161.0\",\"\",\"\",\"2-2\",\"4150\",\"37\",\"1\",\"Testing\",\"Stims/Figures/93-C-30-1.bmp\",\"vafa:va\",\"Right\",\"37\",\"1\",\"13\",\"6B\",\"C1\",\"C\",\"13\"
\"\",\"\",\"approach-retreat\",\"162\",\"1435140\",\"0.0-162.0\",\"\",\"\",\"2-2\",\"4397\",\"39\",\"1\",\"Testing\",\"Stims/Figures/118-C-20-2.bmp\",\"fa:shava\",\"Left\",\"39\",\"1\",\"14\",\"6B\",\"C1\",\"C\",\"14\"
\"\",\"\",\"approach-retreat\",\"163\",\"1441074\",\"0.0-163.0\",\"\",\"\",\"2-2\",\"4420\",\"40\",\"1\",\"Testing\",\"Stims/Figures/44-C-30-3.bmp\",\"va:fava\",\"Up\",\"40\",\"1\",\"15\",\"6B\",\"C1\",\"C\",\"15\"
\"\",\"\",\"approach-retreat\",\"164\",\"1446893\",\"0.0-164.0\",\"\",\"\",\"2-2\",\"4308\",\"37\",\"1\",\"Testing\",\"Stims/Figures/85-C-20-2.bmp\",\"fafa:sha\",\"Right\",\"37\",\"1\",\"16\",\"6B\",\"C1\",\"C\",\"16\"
\"\",\"\",\"approach-retreat\",\"165\",\"1453836\",\"0.0-165.0\",\"\",\"\",\"2-2\",\"5422\",\"40\",\"1\",\"Testing\",\"Stims/Figures/19-J-10-4.bmp\",\"zahaza\",\"Down\",\"40\",\"1\",\"17\",\"6B\",\"C2\",\"C\",\"17\"
\"\",\"\",\"approach-retreat\",\"166\",\"1460505\",\"0.0-166.0\",\"\",\"\",\"2-2\",\"5158\",\"39\",\"1\",\"Testing\",\"Stims/Figures/144-J-10-3.bmp\",\"zasaza\",\"Right\",\"39\",\"1\",\"18\",\"6B\",\"C2\",\"C\",\"18\"
\"\",\"\",\"approach-retreat\",\"167\",\"1466280\",\"0.0-167.0\",\"\",\"\",\"2-2\",\"4254\",\"39\",\"1\",\"Testing\",\"Stims/Figures/74-C-20-4.bmp\",\"fa:shasha\",\"Left\",\"39\",\"1\",\"19\",\"6B\",\"C1\",\"C\",\"19\"
\"\",\"\",\"approach-retreat\",\"168\",\"1471975\",\"0.0-168.0\",\"\",\"\",\"2-2\",\"4187\",\"38\",\"1\",\"Testing\",\"Stims/Figures/27-C-30-1.bmp\",\"vasha:sha\",\"Down\",\"38\",\"1\",\"20\",\"6B\",\"C1\",\"C\",\"20\"
\"\",\"\",\"approach-retreat\",\"169\",\"1477952\",\"0.0-169.0\",\"\",\"\",\"2-2\",\"4457\",\"38\",\"1\",\"Testing\",\"Stims/Figures/7-C-20-4.bmp\",\"vafa:sha\",\"Down\",\"38\",\"1\",\"21\",\"6B\",\"C1\",\"C\",\"21\"
\"\",\"\",\"approach-retreat\",\"170\",\"1488344\",\"0.0-170.0\",\"\",\"\",\"2-2\",\"8877\",\"38\",\"1\",\"Testing\",\"Stims/Figures/84-J-0-2.bmp\",\"zasa:za\",\"Up\",\"38\",\"1\",\"22\",\"6B\",\"C2\",\"C\",\"22\"
\"\",\"\",\"approach-retreat\",\"171\",\"1498511\",\"0.0-171.0\",\"\",\"\",\"2-2\",\"8661\",\"40\",\"1\",\"Testing\",\"Stims/Figures/27-J-0-1.bmp\",\"za:ha:ha\",\"Down\",\"40\",\"1\",\"23\",\"6B\",\"C2\",\"C\",\"23\"
\"\",\"\",\"approach-retreat\",\"172\",\"1506286\",\"0.0-172.0\",\"\",\"\",\"2-2\",\"6258\",\"39\",\"1\",\"Testing\",\"Stims/Figures/7-J-10-4.bmp\",\"za:saha\",\"Right\",\"39\",\"1\",\"24\",\"6B\",\"C2\",\"C\",\"24\"
\"\",\"\",\"approach-retreat\",\"173\",\"1512271\",\"0.0-173.0\",\"\",\"\",\"2-2\",\"4471\",\"40\",\"1\",\"Testing\",\"Stims/Figures/7-C-20-4.bmp\",\"vafa:sha\",\"Up\",\"40\",\"2\",\"1\",\"6B\",\"C1\",\"C\",\"25\"
\"\",\"\",\"approach-retreat\",\"174\",\"1519188\",\"0.0-174.0\",\"\",\"\",\"2-2\",\"5402\",\"40\",\"1\",\"Testing\",\"Stims/Figures/19-J-10-4.bmp\",\"zahaza\",\"Down\",\"40\",\"2\",\"2\",\"6B\",\"C2\",\"C\",\"26\"
\"\",\"\",\"approach-retreat\",\"175\",\"1525649\",\"0.0-175.0\",\"\",\"\",\"2-2\",\"4949\",\"38\",\"1\",\"Testing\",\"Stims/Figures/44-C-30-3.bmp\",\"va:fava\",\"Down\",\"38\",\"2\",\"3\",\"6B\",\"C1\",\"C\",\"27\"
\"\",\"\",\"approach-retreat\",\"176\",\"1534374\",\"0.0-176.0\",\"\",\"\",\"2-2\",\"7208\",\"39\",\"1\",\"Testing\",\"Stims/Figures/44-J-10-3.bmp\",\"zasaha\",\"Right\",\"39\",\"2\",\"4\",\"6B\",\"C2\",\"C\",\"28\"
\"\",\"\",\"approach-retreat\",\"177\",\"1540772\",\"0.0-177.0\",\"\",\"\",\"2-2\",\"4886\",\"38\",\"1\",\"Testing\",\"Stims/Figures/84-C-20-2.bmp\",\"vafava\",\"Down\",\"38\",\"2\",\"5\",\"6B\",\"C1\",\"C\",\"29\"
\"\",\"\",\"approach-retreat\",\"178\",\"1547837\",\"0.0-178.0\",\"\",\"\",\"2-2\",\"5552\",\"39\",\"1\",\"Testing\",\"Stims/Figures/86-J-0-1.bmp\",\"za:saza\",\"Right\",\"39\",\"2\",\"6\",\"6B\",\"C2\",\"C\",\"30\"
\"\",\"\",\"approach-retreat\",\"179\",\"1554351\",\"0.0-179.0\",\"\",\"\",\"2-2\",\"5006\",\"39\",\"1\",\"Testing\",\"Stims/Figures/74-J-10-4.bmp\",\"sasa:ha\",\"Right\",\"39\",\"2\",\"7\",\"6B\",\"C2\",\"C\",\"31\"
\"\",\"\",\"approach-retreat\",\"180\",\"1561464\",\"0.0-180.0\",\"\",\"\",\"2-2\",\"5592\",\"38\",\"1\",\"Testing\",\"Stims/Figures/85-J-0-2.bmp\",\"zahaha\",\"Up\",\"38\",\"2\",\"8\",\"6B\",\"C2\",\"C\",\"32\"
\"\",\"\",\"approach-retreat\",\"181\",\"1568660\",\"0.0-181.0\",\"\",\"\",\"2-2\",\"5677\",\"38\",\"1\",\"Testing\",\"Stims/Figures/118-C-20-2.bmp\",\"fa:shava\",\"Down\",\"38\",\"2\",\"9\",\"6B\",\"C1\",\"C\",\"33\"
\"\",\"\",\"approach-retreat\",\"182\",\"1574945\",\"0.0-182.0\",\"\",\"\",\"2-2\",\"4764\",\"37\",\"1\",\"Testing\",\"Stims/Figures/7-J-10-4.bmp\",\"za:saha\",\"Left\",\"37\",\"2\",\"10\",\"6B\",\"C2\",\"C\",\"34\"
\"\",\"\",\"approach-retreat\",\"183\",\"1585781\",\"0.0-183.0\",\"\",\"\",\"2-2\",\"9325\",\"37\",\"0\",\"Testing\",\"Stims/Figures/19-C-20-4.bmp\",\"fafasha\",\"Left\",\"39\",\"2\",\"11\",\"6B\",\"C1\",\"C\",\"35\"
\"\",\"\",\"approach-retreat\",\"184\",\"1593346\",\"0.0-184.0\",\"\",\"\",\"2-2\",\"6045\",\"40\",\"1\",\"Testing\",\"Stims/Figures/93-J-0-1.bmp\",\"za:haza\",\"Down\",\"40\",\"2\",\"12\",\"6B\",\"C2\",\"C\",\"36\"
\"\",\"\",\"approach-retreat\",\"185\",\"1599391\",\"0.0-185.0\",\"\",\"\",\"2-2\",\"4528\",\"37\",\"1\",\"Testing\",\"Stims/Figures/118-J-0-2.bmp\",\"za:haha\",\"Left\",\"37\",\"2\",\"13\",\"6B\",\"C2\",\"C\",\"37\"
\"\",\"\",\"approach-retreat\",\"186\",\"1607616\",\"0.0-186.0\",\"\",\"\",\"2-2\",\"6716\",\"40\",\"1\",\"Testing\",\"Stims/Figures/93-C-30-1.bmp\",\"vafa:va\",\"Up\",\"40\",\"2\",\"14\",\"6B\",\"C1\",\"C\",\"38\"
\"\",\"\",\"approach-retreat\",\"187\",\"1613265\",\"0.0-187.0\",\"\",\"\",\"2-2\",\"4138\",\"39\",\"1\",\"Testing\",\"Stims/Figures/86-C-30-1.bmp\",\"fa:sha:va\",\"Left\",\"39\",\"2\",\"15\",\"6B\",\"C1\",\"C\",\"39\"
\"\",\"\",\"approach-retreat\",\"188\",\"1620108\",\"0.0-188.0\",\"\",\"\",\"2-2\",\"5328\",\"39\",\"1\",\"Testing\",\"Stims/Figures/84-J-0-2.bmp\",\"zasa:za\",\"Right\",\"39\",\"2\",\"16\",\"6B\",\"C2\",\"C\",\"40\"
\"\",\"\",\"approach-retreat\",\"189\",\"1632475\",\"0.0-189.0\",\"\",\"\",\"2-2\",\"10852\",\"40\",\"1\",\"Testing\",\"Stims/Figures/74-C-20-4.bmp\",\"fa:shasha\",\"Up\",\"40\",\"2\",\"17\",\"6B\",\"C1\",\"C\",\"41\"
\"\",\"\",\"approach-retreat\",\"190\",\"1638516\",\"0.0-190.0\",\"\",\"\",\"2-2\",\"4520\",\"39\",\"1\",\"Testing\",\"Stims/Figures/144-J-10-3.bmp\",\"zasaza\",\"Right\",\"39\",\"2\",\"18\",\"6B\",\"C2\",\"C\",\"42\"
\"\",\"\",\"approach-retreat\",\"191\",\"1644413\",\"0.0-191.0\",\"\",\"\",\"2-2\",\"4386\",\"39\",\"1\",\"Testing\",\"Stims/Figures/128-C-30-3.bmp\",\"fa:fasha\",\"Left\",\"39\",\"2\",\"19\",\"6B\",\"C1\",\"C\",\"43\"
\"\",\"\",\"approach-retreat\",\"192\",\"1650384\",\"0.0-192.0\",\"\",\"\",\"2-2\",\"4449\",\"37\",\"1\",\"Testing\",\"Stims/Figures/27-J-0-1.bmp\",\"za:ha:ha\",\"Left\",\"37\",\"2\",\"20\",\"6B\",\"C2\",\"C\",\"44\"
\"\",\"\",\"approach-retreat\",\"193\",\"1656536\",\"0.0-193.0\",\"\",\"\",\"2-2\",\"4632\",\"38\",\"1\",\"Testing\",\"Stims/Figures/128-J-10-3.bmp\",\"sa:ha:za\",\"Up\",\"38\",\"2\",\"21\",\"6B\",\"C2\",\"C\",\"45\"
\"\",\"\",\"approach-retreat\",\"194\",\"1662119\",\"0.0-194.0\",\"\",\"\",\"2-2\",\"4066\",\"37\",\"1\",\"Testing\",\"Stims/Figures/27-C-30-1.bmp\",\"vasha:sha\",\"Right\",\"37\",\"2\",\"22\",\"6B\",\"C1\",\"C\",\"46\"
\"\",\"\",\"approach-retreat\",\"195\",\"1667870\",\"0.0-195.0\",\"\",\"\",\"2-2\",\"4241\",\"38\",\"1\",\"Testing\",\"Stims/Figures/144-C-30-3.bmp\",\"va:sha:sha\",\"Down\",\"38\",\"2\",\"23\",\"6B\",\"C1\",\"C\",\"47\"
\"\",\"\",\"approach-retreat\",\"196\",\"1674385\",\"0.0-196.0\",\"\",\"\",\"2-2\",\"5003\",\"40\",\"1\",\"Testing\",\"Stims/Figures/85-C-20-2.bmp\",\"fafa:sha\",\"Up\",\"40\",\"2\",\"24\",\"6B\",\"C1\",\"C\",\"48\"
\"\",\"\",\"approach-retreat\",\"197\",\"1681386\",\"0.0-197.0\",\"\",\"\",\"2-2\",\"5482\",\"37\",\"1\",\"Testing\",\"Stims/Figures/144-C-30-3.bmp\",\"va:sha:sha\",\"Right\",\"37\",\"3\",\"1\",\"6B\",\"C1\",\"C\",\"49\"
\"\",\"\",\"approach-retreat\",\"198\",\"1687101\",\"0.0-198.0\",\"\",\"\",\"2-2\",\"4205\",\"40\",\"1\",\"Testing\",\"Stims/Figures/44-C-30-3.bmp\",\"va:fava\",\"Up\",\"40\",\"3\",\"2\",\"6B\",\"C1\",\"C\",\"50\"
\"\",\"\",\"approach-retreat\",\"199\",\"1692844\",\"0.0-199.0\",\"\",\"\",\"2-2\",\"4218\",\"40\",\"1\",\"Testing\",\"Stims/Figures/7-C-20-4.bmp\",\"vafa:sha\",\"Up\",\"40\",\"3\",\"3\",\"6B\",\"C1\",\"C\",\"51\"
\"\",\"\",\"approach-retreat\",\"200\",\"1703687\",\"0.0-200.0\",\"\",\"\",\"2-2\",\"9330\",\"38\",\"1\",\"Testing\",\"Stims/Figures/93-C-30-1.bmp\",\"vafa:va\",\"Down\",\"38\",\"3\",\"4\",\"6B\",\"C1\",\"C\",\"52\"
\"\",\"\",\"approach-retreat\",\"201\",\"1710556\",\"0.0-201.0\",\"\",\"\",\"2-2\",\"5357\",\"37\",\"1\",\"Testing\",\"Stims/Figures/144-J-10-3.bmp\",\"zasaza\",\"Left\",\"37\",\"3\",\"5\",\"6B\",\"C2\",\"C\",\"53\"
\"\",\"\",\"approach-retreat\",\"202\",\"1717503\",\"0.0-202.0\",\"\",\"\",\"2-2\",\"5432\",\"40\",\"1\",\"Testing\",\"Stims/Figures/93-J-0-1.bmp\",\"za:haza\",\"Down\",\"40\",\"3\",\"6\",\"6B\",\"C2\",\"C\",\"54\"
\"\",\"\",\"approach-retreat\",\"203\",\"1727993\",\"0.0-203.0\",\"\",\"\",\"2-2\",\"8978\",\"38\",\"1\",\"Testing\",\"Stims/Figures/118-J-0-2.bmp\",\"za:haha\",\"Up\",\"38\",\"3\",\"7\",\"6B\",\"C2\",\"C\",\"55\"
\"\",\"\",\"approach-retreat\",\"204\",\"1736234\",\"0.0-204.0\",\"\",\"\",\"2-2\",\"6733\",\"40\",\"1\",\"Testing\",\"Stims/Figures/19-J-10-4.bmp\",\"zahaza\",\"Down\",\"40\",\"3\",\"8\",\"6B\",\"C2\",\"C\",\"56\"
\"\",\"\",\"approach-retreat\",\"205\",\"1742494\",\"0.0-205.0\",\"\",\"\",\"2-2\",\"4744\",\"37\",\"1\",\"Testing\",\"Stims/Figures/86-C-30-1.bmp\",\"fa:sha:va\",\"Right\",\"37\",\"3\",\"9\",\"6B\",\"C1\",\"C\",\"57\"
\"\",\"\",\"approach-retreat\",\"206\",\"1749542\",\"0.0-206.0\",\"\",\"\",\"2-2\",\"5542\",\"37\",\"1\",\"Testing\",\"Stims/Figures/27-J-0-1.bmp\",\"za:ha:ha\",\"Left\",\"37\",\"3\",\"10\",\"6B\",\"C2\",\"C\",\"58\"
\"\",\"\",\"approach-retreat\",\"207\",\"1757313\",\"0.0-207.0\",\"\",\"\",\"2-2\",\"6258\",\"39\",\"1\",\"Testing\",\"Stims/Figures/85-C-20-2.bmp\",\"fafa:sha\",\"Left\",\"39\",\"3\",\"11\",\"6B\",\"C1\",\"C\",\"59\"
\"\",\"\",\"approach-retreat\",\"208\",\"1763313\",\"0.0-208.0\",\"\",\"\",\"2-2\",\"4485\",\"38\",\"1\",\"Testing\",\"Stims/Figures/84-C-20-2.bmp\",\"vafava\",\"Down\",\"38\",\"3\",\"12\",\"6B\",\"C1\",\"C\",\"60\"
\"\",\"\",\"approach-retreat\",\"209\",\"1771352\",\"0.0-209.0\",\"\",\"\",\"2-2\",\"6527\",\"40\",\"1\",\"Testing\",\"Stims/Figures/74-J-10-4.bmp\",\"sasa:ha\",\"Down\",\"40\",\"3\",\"13\",\"6B\",\"C2\",\"C\",\"61\"
\"\",\"\",\"approach-retreat\",\"210\",\"1779736\",\"0.0-210.0\",\"\",\"\",\"2-2\",\"6870\",\"39\",\"1\",\"Testing\",\"Stims/Figures/128-J-10-3.bmp\",\"sa:ha:za\",\"Right\",\"39\",\"3\",\"14\",\"6B\",\"C2\",\"C\",\"62\"
\"\",\"\",\"approach-retreat\",\"211\",\"1786478\",\"0.0-211.0\",\"\",\"\",\"2-2\",\"5231\",\"39\",\"1\",\"Testing\",\"Stims/Figures/85-J-0-2.bmp\",\"zahaha\",\"Right\",\"39\",\"3\",\"15\",\"6B\",\"C2\",\"C\",\"63\"
\"\",\"\",\"approach-retreat\",\"212\",\"1796855\",\"0.0-212.0\",\"\",\"\",\"2-2\",\"8858\",\"37\",\"1\",\"Testing\",\"Stims/Figures/74-C-20-4.bmp\",\"fa:shasha\",\"Right\",\"37\",\"3\",\"16\",\"6B\",\"C1\",\"C\",\"64\"
\"\",\"\",\"approach-retreat\",\"213\",\"1805677\",\"0.0-213.0\",\"\",\"\",\"2-2\",\"7312\",\"38\",\"1\",\"Testing\",\"Stims/Figures/7-J-10-4.bmp\",\"za:saha\",\"Up\",\"38\",\"3\",\"17\",\"6B\",\"C2\",\"C\",\"65\"
\"\",\"\",\"approach-retreat\",\"214\",\"1814408\",\"0.0-214.0\",\"\",\"\",\"2-2\",\"7207\",\"38\",\"1\",\"Testing\",\"Stims/Figures/84-J-0-2.bmp\",\"zasa:za\",\"Up\",\"38\",\"3\",\"18\",\"6B\",\"C2\",\"C\",\"66\"
\"\",\"\",\"approach-retreat\",\"215\",\"1820456\",\"0.0-215.0\",\"\",\"\",\"2-2\",\"4537\",\"39\",\"1\",\"Testing\",\"Stims/Figures/27-C-30-1.bmp\",\"vasha:sha\",\"Left\",\"39\",\"3\",\"19\",\"6B\",\"C1\",\"C\",\"67\"
\"\",\"\",\"approach-retreat\",\"216\",\"1836018\",\"0.0-216.0\",\"\",\"\",\"2-2\",\"14041\",\"39\",\"1\",\"Testing\",\"Stims/Figures/128-C-30-3.bmp\",\"fa:fasha\",\"Left\",\"39\",\"3\",\"20\",\"6B\",\"C1\",\"C\",\"68\"
\"\",\"\",\"approach-retreat\",\"217\",\"1841929\",\"0.0-217.0\",\"\",\"\",\"2-2\",\"4397\",\"39\",\"0\",\"Testing\",\"Stims/Figures/19-C-20-4.bmp\",\"fafasha\",\"Right\",\"37\",\"3\",\"21\",\"6B\",\"C1\",\"C\",\"69\"
\"\",\"\",\"approach-retreat\",\"218\",\"1847775\",\"0.0-218.0\",\"\",\"\",\"2-2\",\"4333\",\"39\",\"1\",\"Testing\",\"Stims/Figures/118-C-20-2.bmp\",\"fa:shava\",\"Left\",\"39\",\"3\",\"22\",\"6B\",\"C1\",\"C\",\"70\"
\"\",\"\",\"approach-retreat\",\"219\",\"1853977\",\"0.0-219.0\",\"\",\"\",\"2-2\",\"4687\",\"40\",\"1\",\"Testing\",\"Stims/Figures/86-J-0-1.bmp\",\"za:saza\",\"Down\",\"40\",\"3\",\"23\",\"6B\",\"C2\",\"C\",\"71\"
\"\",\"\",\"approach-retreat\",\"220\",\"1859907\",\"0.0-220.0\",\"\",\"\",\"2-2\",\"4410\",\"38\",\"1\",\"Testing\",\"Stims/Figures/44-J-10-3.bmp\",\"zasaha\",\"Up\",\"38\",\"3\",\"24\",\"6B\",\"C2\",\"C\",\"72\"
\"\",\"\",\"approach-retreat\",\"221\",\"1866449\",\"0.0-221.0\",\"\",\"\",\"2-2\",\"5028\",\"38\",\"1\",\"Testing\",\"Stims/Figures/128-C-30-3.bmp\",\"fa:fasha\",\"Down\",\"38\",\"4\",\"1\",\"6B\",\"C1\",\"C\",\"73\"
\"\",\"\",\"approach-retreat\",\"222\",\"1872507\",\"0.0-222.0\",\"\",\"\",\"2-2\",\"4543\",\"37\",\"1\",\"Testing\",\"Stims/Figures/118-J-0-2.bmp\",\"za:haha\",\"Left\",\"37\",\"4\",\"2\",\"6B\",\"C2\",\"C\",\"74\"
\"\",\"\",\"approach-retreat\",\"223\",\"1878366\",\"0.0-223.0\",\"\",\"\",\"2-2\",\"4342\",\"39\",\"1\",\"Testing\",\"Stims/Figures/74-C-20-4.bmp\",\"fa:shasha\",\"Left\",\"39\",\"4\",\"3\",\"6B\",\"C1\",\"C\",\"75\"
\"\",\"\",\"approach-retreat\",\"224\",\"1884131\",\"0.0-224.0\",\"\",\"\",\"2-2\",\"4255\",\"37\",\"1\",\"Testing\",\"Stims/Figures/19-J-10-4.bmp\",\"zahaza\",\"Left\",\"37\",\"4\",\"4\",\"6B\",\"C2\",\"C\",\"76\"
\"\",\"\",\"approach-retreat\",\"225\",\"1890496\",\"0.0-225.0\",\"\",\"\",\"2-2\",\"4857\",\"38\",\"1\",\"Testing\",\"Stims/Figures/74-J-10-4.bmp\",\"sasa:ha\",\"Up\",\"38\",\"4\",\"5\",\"6B\",\"C2\",\"C\",\"77\"
\"\",\"\",\"approach-retreat\",\"226\",\"1897220\",\"0.0-226.0\",\"\",\"\",\"2-2\",\"5209\",\"40\",\"1\",\"Testing\",\"Stims/Figures/144-C-30-3.bmp\",\"va:sha:sha\",\"Up\",\"40\",\"4\",\"6\",\"6B\",\"C1\",\"C\",\"78\"
\"\",\"\",\"approach-retreat\",\"227\",\"1903392\",\"0.0-227.0\",\"\",\"\",\"2-2\",\"4660\",\"37\",\"1\",\"Testing\",\"Stims/Figures/84-J-0-2.bmp\",\"zasa:za\",\"Left\",\"37\",\"4\",\"7\",\"6B\",\"C2\",\"C\",\"79\"
\"\",\"\",\"approach-retreat\",\"228\",\"1910228\",\"0.0-228.0\",\"\",\"\",\"2-2\",\"5327\",\"38\",\"1\",\"Testing\",\"Stims/Figures/144-J-10-3.bmp\",\"zasaza\",\"Up\",\"38\",\"4\",\"8\",\"6B\",\"C2\",\"C\",\"80\"
\"\",\"\",\"approach-retreat\",\"229\",\"1917671\",\"0.0-229.0\",\"\",\"\",\"2-2\",\"5923\",\"37\",\"1\",\"Testing\",\"Stims/Figures/85-C-20-2.bmp\",\"fafa:sha\",\"Right\",\"37\",\"4\",\"9\",\"6B\",\"C1\",\"C\",\"81\"
\"\",\"\",\"approach-retreat\",\"230\",\"1923855\",\"0.0-230.0\",\"\",\"\",\"2-2\",\"4672\",\"39\",\"1\",\"Testing\",\"Stims/Figures/128-J-10-3.bmp\",\"sa:ha:za\",\"Right\",\"39\",\"4\",\"10\",\"6B\",\"C2\",\"C\",\"82\"
\"\",\"\",\"approach-retreat\",\"231\",\"1929851\",\"0.0-231.0\",\"\",\"\",\"2-2\",\"4486\",\"40\",\"1\",\"Testing\",\"Stims/Figures/118-C-20-2.bmp\",\"fa:shava\",\"Up\",\"40\",\"4\",\"11\",\"6B\",\"C1\",\"C\",\"83\"
\"\",\"\",\"approach-retreat\",\"232\",\"1938167\",\"0.0-232.0\",\"\",\"\",\"2-2\",\"6804\",\"39\",\"1\",\"Testing\",\"Stims/Figures/84-C-20-2.bmp\",\"vafava\",\"Left\",\"39\",\"4\",\"12\",\"6B\",\"C1\",\"C\",\"84\"
\"\",\"\",\"approach-retreat\",\"233\",\"1944779\",\"0.0-233.0\",\"\",\"\",\"2-2\",\"5095\",\"40\",\"1\",\"Testing\",\"Stims/Figures/44-J-10-3.bmp\",\"zasaha\",\"Down\",\"40\",\"4\",\"13\",\"6B\",\"C2\",\"C\",\"85\"
\"\",\"\",\"approach-retreat\",\"234\",\"1950702\",\"0.0-234.0\",\"\",\"\",\"2-2\",\"4405\",\"39\",\"1\",\"Testing\",\"Stims/Figures/7-C-20-4.bmp\",\"vafa:sha\",\"Left\",\"39\",\"4\",\"14\",\"6B\",\"C1\",\"C\",\"86\"
\"\",\"\",\"approach-retreat\",\"235\",\"1956864\",\"0.0-235.0\",\"\",\"\",\"2-2\",\"4643\",\"39\",\"1\",\"Testing\",\"Stims/Figures/85-J-0-2.bmp\",\"zahaha\",\"Right\",\"39\",\"4\",\"15\",\"6B\",\"C2\",\"C\",\"87\"
\"\",\"\",\"approach-retreat\",\"236\",\"1962511\",\"0.0-236.0\",\"\",\"\",\"2-2\",\"4126\",\"40\",\"1\",\"Testing\",\"Stims/Figures/93-C-30-1.bmp\",\"vafa:va\",\"Up\",\"40\",\"4\",\"16\",\"6B\",\"C1\",\"C\",\"88\"
\"\",\"\",\"approach-retreat\",\"237\",\"1968796\",\"0.0-237.0\",\"\",\"\",\"2-2\",\"4771\",\"38\",\"1\",\"Testing\",\"Stims/Figures/93-J-0-1.bmp\",\"za:haza\",\"Up\",\"38\",\"4\",\"17\",\"6B\",\"C2\",\"C\",\"89\"
\"\",\"\",\"approach-retreat\",\"238\",\"1974368\",\"0.0-238.0\",\"\",\"\",\"2-2\",\"4059\",\"37\",\"1\",\"Testing\",\"Stims/Figures/44-C-30-3.bmp\",\"va:fava\",\"Right\",\"37\",\"4\",\"18\",\"6B\",\"C1\",\"C\",\"90\"
\"\",\"\",\"approach-retreat\",\"239\",\"1980512\",\"0.0-239.0\",\"\",\"\",\"2-2\",\"4637\",\"40\",\"1\",\"Testing\",\"Stims/Figures/27-J-0-1.bmp\",\"za:ha:ha\",\"Down\",\"40\",\"4\",\"19\",\"6B\",\"C2\",\"C\",\"91\"
\"\",\"\",\"approach-retreat\",\"240\",\"1986246\",\"0.0-240.0\",\"\",\"\",\"2-2\",\"4226\",\"38\",\"1\",\"Testing\",\"Stims/Figures/27-C-30-1.bmp\",\"vasha:sha\",\"Down\",\"38\",\"4\",\"20\",\"6B\",\"C1\",\"C\",\"92\"
\"\",\"\",\"approach-retreat\",\"241\",\"1996873\",\"0.0-241.0\",\"\",\"\",\"2-2\",\"9103\",\"40\",\"0\",\"Testing\",\"Stims/Figures/19-C-20-4.bmp\",\"fafasha\",\"Down\",\"38\",\"4\",\"21\",\"6B\",\"C1\",\"C\",\"93\"
\"\",\"\",\"approach-retreat\",\"242\",\"2002931\",\"0.0-242.0\",\"\",\"\",\"2-2\",\"4540\",\"38\",\"1\",\"Testing\",\"Stims/Figures/86-C-30-1.bmp\",\"fa:sha:va\",\"Down\",\"38\",\"4\",\"22\",\"6B\",\"C1\",\"C\",\"94\"
\"\",\"\",\"approach-retreat\",\"243\",\"2008829\",\"0.0-243.0\",\"\",\"\",\"2-2\",\"4379\",\"39\",\"1\",\"Testing\",\"Stims/Figures/86-J-0-1.bmp\",\"za:saza\",\"Right\",\"39\",\"4\",\"23\",\"6B\",\"C2\",\"C\",\"95\"
\"\",\"\",\"approach-retreat\",\"244\",\"2017653\",\"0.0-244.0\",\"\",\"\",\"2-2\",\"7316\",\"39\",\"1\",\"Testing\",\"Stims/Figures/7-J-10-4.bmp\",\"za:saha\",\"Right\",\"39\",\"4\",\"24\",\"6B\",\"C2\",\"C\",\"96\"
\"36387\",\"\",\"survey-text\",\"245\",\"2054053\",\"0.0-245.0\",\"\",\"{\"\"Q0\"\":\"\"ps170081\"\"}\",\"\",\"\",\"\",\"\",\"\",\"\",\"\",\"\",\"\",\"\",\"\",\"\",\"\",\"\",\"\"
