\"rt\",\"key_press\",\"trial_type\",\"trial_index\",\"time_elapsed\",\"internal_node_id\",\"view_history\",\"responses\",\"Id\",\"Rt\",\"ResKeyCode\",\"ResCorr\",\"TrialType2\",\"Image\",\"Label\",\"Location\",\"CorrectResponse\",\"Block\",\"BlockTrial\",\"Condition\",\"LabelType\",\"Subcondition\",\"trialNum\"
\"70518\",\"32\",\"text\",\"0\",\"70525\",\"0.0-0.0-0.0\",\"\",\"\",\"\",\"\",\"\",\"\",\"\",\"\",\"\",\"\",\"\",\"\",\"\",\"\",\"\",\"\",\"\"
\"106958\",\"\",\"instructions\",\"1\",\"177487\",\"0.0-1.0\",\"[{\"\"page_index\"\":0,\"\"viewing_time\"\":106957}]\",\"\",\"\",\"\",\"\",\"\",\"\",\"\",\"\",\"\",\"\",\"\",\"\",\"\",\"\",\"\",\"\"
\"43350\",\"\",\"survey-multi-choice\",\"2\",\"220883\",\"0.0-2.0\",\"\",\"{\"\"Q0\"\":\"\"Da\"\",\"\"Q1\"\":\"\"Da\"\",\"\"Q2\"\":\"\"Da\"\",\"\"Q3\"\":\"\"Da\"\",\"\"Q4\"\":\"\"Da\"\",\"\"Q5\"\":\"\"Da\"\"}\",\"\",\"\",\"\",\"\",\"\",\"\",\"\",\"\",\"\",\"\",\"\",\"\",\"\",\"\",\"\"
\"\",\"\",\"bio\",\"3\",\"265674\",\"0.0-3.0\",\"\",\"{\"\"age\"\":\"\"20\"\",\"\"gender\"\":\"\"f\"\",\"\"specify\"\":\"\"\"\"}\",\"\",\"\",\"\",\"\",\"\",\"\",\"\",\"\",\"\",\"\",\"\",\"\",\"\",\"\",\"\"
\"\",\"\",\"approach-retreat\",\"4\",\"282804\",\"0.0-4.0\",\"\",\"\",\"3-2\",\"15580\",\"37\",\"0\",\"Training\",\"Stims/Figures/86-C-30-1.bmp\",\"paka:ka\",\"Right\",\"39\",\"1\",\"1\",\"5\",\"P\",\"J\",\"1\"
\"\",\"\",\"approach-retreat\",\"5\",\"293269\",\"0.0-5.0\",\"\",\"\",\"3-2\",\"8955\",\"39\",\"1\",\"Training\",\"Stims/Figures/94-J-0-2.bmp\",\"na:lala\",\"Left\",\"39\",\"1\",\"2\",\"5\",\"S\",\"J\",\"2\"
\"\",\"\",\"approach-retreat\",\"6\",\"304339\",\"0.0-6.0\",\"\",\"\",\"3-2\",\"9559\",\"40\",\"1\",\"Training\",\"Stims/Figures/74-J-10-4.bmp\",\"na:lana\",\"Up\",\"40\",\"1\",\"3\",\"5\",\"S\",\"J\",\"3\"
\"\",\"\",\"approach-retreat\",\"7\",\"313586\",\"0.0-7.0\",\"\",\"\",\"3-2\",\"7738\",\"37\",\"0\",\"Training\",\"Stims/Figures/139-J-0-2.bmp\",\"mala:na\",\"Left\",\"39\",\"1\",\"4\",\"5\",\"S\",\"J\",\"4\"
\"\",\"\",\"approach-retreat\",\"8\",\"321814\",\"0.0-8.0\",\"\",\"\",\"3-2\",\"6717\",\"38\",\"1\",\"Training\",\"Stims/Figures/87-C-20-4.bmp\",\"ta:pa:ta\",\"Up\",\"38\",\"1\",\"5\",\"5\",\"P\",\"J\",\"5\"
\"\",\"\",\"approach-retreat\",\"9\",\"330874\",\"0.0-9.0\",\"\",\"\",\"3-2\",\"7551\",\"39\",\"1\",\"Training\",\"Stims/Figures/27-C-30-1.bmp\",\"ta:paka\",\"Right\",\"39\",\"1\",\"6\",\"5\",\"P\",\"J\",\"6\"
\"\",\"\",\"approach-retreat\",\"10\",\"338152\",\"0.0-10.0\",\"\",\"\",\"3-2\",\"5768\",\"39\",\"1\",\"Training\",\"Stims/Figures/86-J-0-1.bmp\",\"na:la:la\",\"Left\",\"39\",\"1\",\"7\",\"5\",\"S\",\"J\",\"7\"
\"\",\"\",\"approach-retreat\",\"11\",\"348126\",\"0.0-11.0\",\"\",\"\",\"3-2\",\"8465\",\"38\",\"0\",\"Training\",\"Stims/Figures/44-J-10-3.bmp\",\"mamala\",\"Up\",\"40\",\"1\",\"8\",\"5\",\"S\",\"J\",\"8\"
\"\",\"\",\"approach-retreat\",\"12\",\"357027\",\"0.0-12.0\",\"\",\"\",\"3-2\",\"7390\",\"40\",\"1\",\"Training\",\"Stims/Figures/44-C-30-3.bmp\",\"pa:pata\",\"Down\",\"40\",\"1\",\"9\",\"5\",\"P\",\"J\",\"9\"
\"\",\"\",\"approach-retreat\",\"13\",\"369384\",\"0.0-13.0\",\"\",\"\",\"3-2\",\"10849\",\"40\",\"1\",\"Training\",\"Stims/Figures/87-J-10-4.bmp\",\"ma:la:na\",\"Up\",\"40\",\"1\",\"10\",\"5\",\"S\",\"J\",\"10\"
\"\",\"\",\"approach-retreat\",\"14\",\"376888\",\"0.0-14.0\",\"\",\"\",\"3-2\",\"5993\",\"39\",\"1\",\"Training\",\"Stims/Figures/139-C-20-2.bmp\",\"pa:kaka\",\"Right\",\"39\",\"1\",\"11\",\"5\",\"P\",\"J\",\"11\"
\"\",\"\",\"approach-retreat\",\"15\",\"384337\",\"0.0-15.0\",\"\",\"\",\"3-2\",\"5940\",\"37\",\"1\",\"Training\",\"Stims/Figures/27-J-0-1.bmp\",\"ma:ma:na\",\"Right\",\"37\",\"1\",\"12\",\"5\",\"S\",\"J\",\"12\"
\"\",\"\",\"approach-retreat\",\"16\",\"391925\",\"0.0-16.0\",\"\",\"\",\"3-2\",\"6079\",\"38\",\"0\",\"Training\",\"Stims/Figures/111-C-30-3.bmp\",\"ta:ka:ka\",\"Down\",\"40\",\"1\",\"13\",\"5\",\"P\",\"J\",\"13\"
\"\",\"\",\"approach-retreat\",\"17\",\"400385\",\"0.0-17.0\",\"\",\"\",\"3-2\",\"6951\",\"37\",\"1\",\"Training\",\"Stims/Figures/74-C-20-4.bmp\",\"tapata\",\"Left\",\"37\",\"1\",\"14\",\"5\",\"P\",\"J\",\"14\"
\"\",\"\",\"approach-retreat\",\"18\",\"408148\",\"0.0-18.0\",\"\",\"\",\"3-2\",\"6254\",\"38\",\"1\",\"Training\",\"Stims/Figures/111-J-10-3.bmp\",\"nalala\",\"Down\",\"38\",\"1\",\"15\",\"5\",\"S\",\"J\",\"15\"
\"\",\"\",\"approach-retreat\",\"19\",\"415065\",\"0.0-19.0\",\"\",\"\",\"3-2\",\"5408\",\"40\",\"1\",\"Training\",\"Stims/Figures/94-C-20-2.bmp\",\"pa:ka:ta\",\"Down\",\"40\",\"1\",\"16\",\"5\",\"P\",\"J\",\"16\"
\"\",\"\",\"approach-retreat\",\"20\",\"421686\",\"0.0-20.0\",\"\",\"\",\"3-2\",\"5112\",\"38\",\"1\",\"Training\",\"Stims/Figures/94-J-0-2.bmp\",\"na:lala\",\"Down\",\"38\",\"2\",\"1\",\"5\",\"S\",\"J\",\"17\"
\"\",\"\",\"approach-retreat\",\"21\",\"428191\",\"0.0-21.0\",\"\",\"\",\"3-2\",\"4997\",\"37\",\"1\",\"Training\",\"Stims/Figures/27-J-0-1.bmp\",\"ma:ma:na\",\"Right\",\"37\",\"2\",\"2\",\"5\",\"S\",\"J\",\"18\"
\"\",\"\",\"approach-retreat\",\"22\",\"436886\",\"0.0-22.0\",\"\",\"\",\"3-2\",\"7186\",\"38\",\"1\",\"Training\",\"Stims/Figures/86-C-30-1.bmp\",\"paka:ka\",\"Up\",\"38\",\"2\",\"3\",\"5\",\"P\",\"J\",\"19\"
\"\",\"\",\"approach-retreat\",\"23\",\"444480\",\"0.0-23.0\",\"\",\"\",\"3-2\",\"6084\",\"37\",\"1\",\"Training\",\"Stims/Figures/87-C-20-4.bmp\",\"ta:pa:ta\",\"Left\",\"37\",\"2\",\"4\",\"5\",\"P\",\"J\",\"20\"
\"\",\"\",\"approach-retreat\",\"24\",\"451846\",\"0.0-24.0\",\"\",\"\",\"3-2\",\"5857\",\"38\",\"1\",\"Training\",\"Stims/Figures/139-J-0-2.bmp\",\"mala:na\",\"Down\",\"38\",\"2\",\"5\",\"5\",\"S\",\"J\",\"21\"
\"\",\"\",\"approach-retreat\",\"25\",\"458038\",\"0.0-25.0\",\"\",\"\",\"3-2\",\"4682\",\"38\",\"1\",\"Training\",\"Stims/Figures/44-C-30-3.bmp\",\"pa:pata\",\"Up\",\"38\",\"2\",\"6\",\"5\",\"P\",\"J\",\"22\"
\"\",\"\",\"approach-retreat\",\"26\",\"464458\",\"0.0-26.0\",\"\",\"\",\"3-2\",\"4911\",\"37\",\"1\",\"Training\",\"Stims/Figures/74-J-10-4.bmp\",\"na:lana\",\"Right\",\"37\",\"2\",\"7\",\"5\",\"S\",\"J\",\"23\"
\"\",\"\",\"approach-retreat\",\"27\",\"470887\",\"0.0-27.0\",\"\",\"\",\"3-2\",\"4919\",\"38\",\"1\",\"Training\",\"Stims/Figures/86-J-0-1.bmp\",\"na:la:la\",\"Down\",\"38\",\"2\",\"8\",\"5\",\"S\",\"J\",\"24\"
\"\",\"\",\"approach-retreat\",\"28\",\"477089\",\"0.0-28.0\",\"\",\"\",\"3-2\",\"4690\",\"38\",\"1\",\"Training\",\"Stims/Figures/27-C-30-1.bmp\",\"ta:paka\",\"Up\",\"38\",\"2\",\"9\",\"5\",\"P\",\"J\",\"25\"
\"\",\"\",\"approach-retreat\",\"29\",\"483479\",\"0.0-29.0\",\"\",\"\",\"3-2\",\"4881\",\"39\",\"1\",\"Training\",\"Stims/Figures/111-J-10-3.bmp\",\"nalala\",\"Left\",\"39\",\"2\",\"10\",\"5\",\"S\",\"J\",\"26\"
\"\",\"\",\"approach-retreat\",\"30\",\"489546\",\"0.0-30.0\",\"\",\"\",\"3-2\",\"4558\",\"39\",\"1\",\"Training\",\"Stims/Figures/87-J-10-4.bmp\",\"ma:la:na\",\"Left\",\"39\",\"2\",\"11\",\"5\",\"S\",\"J\",\"27\"
\"\",\"\",\"approach-retreat\",\"31\",\"496681\",\"0.0-31.0\",\"\",\"\",\"3-2\",\"5625\",\"39\",\"1\",\"Training\",\"Stims/Figures/94-C-20-2.bmp\",\"pa:ka:ta\",\"Right\",\"39\",\"2\",\"12\",\"5\",\"P\",\"J\",\"28\"
\"\",\"\",\"approach-retreat\",\"32\",\"503976\",\"0.0-32.0\",\"\",\"\",\"3-2\",\"5786\",\"40\",\"1\",\"Training\",\"Stims/Figures/74-C-20-4.bmp\",\"tapata\",\"Down\",\"40\",\"2\",\"13\",\"5\",\"P\",\"J\",\"29\"
\"\",\"\",\"approach-retreat\",\"33\",\"511122\",\"0.0-33.0\",\"\",\"\",\"3-2\",\"5635\",\"38\",\"0\",\"Training\",\"Stims/Figures/44-J-10-3.bmp\",\"mamala\",\"Up\",\"40\",\"2\",\"14\",\"5\",\"S\",\"J\",\"30\"
\"\",\"\",\"approach-retreat\",\"34\",\"518237\",\"0.0-34.0\",\"\",\"\",\"3-2\",\"5601\",\"39\",\"1\",\"Training\",\"Stims/Figures/139-C-20-2.bmp\",\"pa:kaka\",\"Right\",\"39\",\"2\",\"15\",\"5\",\"P\",\"J\",\"31\"
\"\",\"\",\"approach-retreat\",\"35\",\"524479\",\"0.0-35.0\",\"\",\"\",\"3-2\",\"4733\",\"37\",\"1\",\"Training\",\"Stims/Figures/111-C-30-3.bmp\",\"ta:ka:ka\",\"Left\",\"37\",\"2\",\"16\",\"5\",\"P\",\"J\",\"32\"
\"\",\"\",\"approach-retreat\",\"36\",\"531160\",\"0.0-36.0\",\"\",\"\",\"3-2\",\"5172\",\"40\",\"1\",\"Training\",\"Stims/Figures/111-J-10-3.bmp\",\"nalala\",\"Up\",\"40\",\"3\",\"1\",\"5\",\"S\",\"J\",\"33\"
\"\",\"\",\"approach-retreat\",\"37\",\"537350\",\"0.0-37.0\",\"\",\"\",\"3-2\",\"4679\",\"39\",\"1\",\"Training\",\"Stims/Figures/111-C-30-3.bmp\",\"ta:ka:ka\",\"Right\",\"39\",\"3\",\"2\",\"5\",\"P\",\"J\",\"34\"
\"\",\"\",\"approach-retreat\",\"38\",\"544106\",\"0.0-38.0\",\"\",\"\",\"3-2\",\"5247\",\"39\",\"1\",\"Training\",\"Stims/Figures/94-C-20-2.bmp\",\"pa:ka:ta\",\"Right\",\"39\",\"3\",\"3\",\"5\",\"P\",\"J\",\"35\"
\"\",\"\",\"approach-retreat\",\"39\",\"550121\",\"0.0-39.0\",\"\",\"\",\"3-2\",\"4502\",\"37\",\"1\",\"Training\",\"Stims/Figures/27-J-0-1.bmp\",\"ma:ma:na\",\"Right\",\"37\",\"3\",\"4\",\"5\",\"S\",\"J\",\"36\"
\"\",\"\",\"approach-retreat\",\"40\",\"556263\",\"0.0-40.0\",\"\",\"\",\"3-2\",\"4633\",\"39\",\"1\",\"Training\",\"Stims/Figures/44-J-10-3.bmp\",\"mamala\",\"Left\",\"39\",\"3\",\"5\",\"5\",\"S\",\"J\",\"37\"
\"\",\"\",\"approach-retreat\",\"41\",\"562460\",\"0.0-41.0\",\"\",\"\",\"3-2\",\"4690\",\"38\",\"1\",\"Training\",\"Stims/Figures/86-J-0-1.bmp\",\"na:la:la\",\"Down\",\"38\",\"3\",\"6\",\"5\",\"S\",\"J\",\"38\"
\"\",\"\",\"approach-retreat\",\"42\",\"568409\",\"0.0-42.0\",\"\",\"\",\"3-2\",\"4438\",\"37\",\"1\",\"Training\",\"Stims/Figures/87-C-20-4.bmp\",\"ta:pa:ta\",\"Left\",\"37\",\"3\",\"7\",\"5\",\"P\",\"J\",\"39\"
\"\",\"\",\"approach-retreat\",\"43\",\"574403\",\"0.0-43.0\",\"\",\"\",\"3-2\",\"4486\",\"38\",\"1\",\"Training\",\"Stims/Figures/74-J-10-4.bmp\",\"na:lana\",\"Down\",\"38\",\"3\",\"8\",\"5\",\"S\",\"J\",\"40\"
\"\",\"\",\"approach-retreat\",\"44\",\"580134\",\"0.0-44.0\",\"\",\"\",\"3-2\",\"4223\",\"40\",\"1\",\"Training\",\"Stims/Figures/94-J-0-2.bmp\",\"na:lala\",\"Up\",\"40\",\"3\",\"9\",\"5\",\"S\",\"J\",\"41\"
\"\",\"\",\"approach-retreat\",\"45\",\"586163\",\"0.0-45.0\",\"\",\"\",\"3-2\",\"4520\",\"38\",\"1\",\"Training\",\"Stims/Figures/87-J-10-4.bmp\",\"ma:la:na\",\"Down\",\"38\",\"3\",\"10\",\"5\",\"S\",\"J\",\"42\"
\"\",\"\",\"approach-retreat\",\"46\",\"592086\",\"0.0-46.0\",\"\",\"\",\"3-2\",\"4414\",\"38\",\"1\",\"Training\",\"Stims/Figures/139-J-0-2.bmp\",\"mala:na\",\"Down\",\"38\",\"3\",\"11\",\"5\",\"S\",\"J\",\"43\"
\"\",\"\",\"approach-retreat\",\"47\",\"598308\",\"0.0-47.0\",\"\",\"\",\"3-2\",\"4713\",\"38\",\"1\",\"Training\",\"Stims/Figures/44-C-30-3.bmp\",\"pa:pata\",\"Up\",\"38\",\"3\",\"12\",\"5\",\"P\",\"J\",\"44\"
\"\",\"\",\"approach-retreat\",\"48\",\"604368\",\"0.0-48.0\",\"\",\"\",\"3-2\",\"4552\",\"37\",\"1\",\"Training\",\"Stims/Figures/27-C-30-1.bmp\",\"ta:paka\",\"Left\",\"37\",\"3\",\"13\",\"5\",\"P\",\"J\",\"45\"
\"\",\"\",\"approach-retreat\",\"49\",\"611157\",\"0.0-49.0\",\"\",\"\",\"3-2\",\"5279\",\"37\",\"1\",\"Training\",\"Stims/Figures/139-C-20-2.bmp\",\"pa:kaka\",\"Left\",\"37\",\"3\",\"14\",\"5\",\"P\",\"J\",\"46\"
\"\",\"\",\"approach-retreat\",\"50\",\"617482\",\"0.0-50.0\",\"\",\"\",\"3-2\",\"4814\",\"38\",\"1\",\"Training\",\"Stims/Figures/74-C-20-4.bmp\",\"tapata\",\"Up\",\"38\",\"3\",\"15\",\"5\",\"P\",\"J\",\"47\"
\"\",\"\",\"approach-retreat\",\"51\",\"625422\",\"0.0-51.0\",\"\",\"\",\"3-2\",\"6432\",\"39\",\"1\",\"Training\",\"Stims/Figures/86-C-30-1.bmp\",\"paka:ka\",\"Right\",\"39\",\"3\",\"16\",\"5\",\"P\",\"J\",\"48\"
\"\",\"\",\"approach-retreat\",\"52\",\"632484\",\"0.0-52.0\",\"\",\"\",\"3-2\",\"5554\",\"38\",\"1\",\"Training\",\"Stims/Figures/139-J-0-2.bmp\",\"mala:na\",\"Down\",\"38\",\"4\",\"1\",\"5\",\"S\",\"J\",\"49\"
\"\",\"\",\"approach-retreat\",\"53\",\"638581\",\"0.0-53.0\",\"\",\"\",\"3-2\",\"4588\",\"38\",\"1\",\"Training\",\"Stims/Figures/94-C-20-2.bmp\",\"pa:ka:ta\",\"Up\",\"38\",\"4\",\"2\",\"5\",\"P\",\"J\",\"50\"
\"\",\"\",\"approach-retreat\",\"54\",\"653125\",\"0.0-54.0\",\"\",\"\",\"3-2\",\"13035\",\"40\",\"1\",\"Training\",\"Stims/Figures/44-J-10-3.bmp\",\"mamala\",\"Up\",\"40\",\"4\",\"3\",\"5\",\"S\",\"J\",\"51\"
\"\",\"\",\"approach-retreat\",\"55\",\"659392\",\"0.0-55.0\",\"\",\"\",\"3-2\",\"4759\",\"40\",\"1\",\"Training\",\"Stims/Figures/111-J-10-3.bmp\",\"nalala\",\"Up\",\"40\",\"4\",\"4\",\"5\",\"S\",\"J\",\"52\"
\"\",\"\",\"approach-retreat\",\"56\",\"665615\",\"0.0-56.0\",\"\",\"\",\"3-2\",\"4714\",\"40\",\"1\",\"Training\",\"Stims/Figures/87-C-20-4.bmp\",\"ta:pa:ta\",\"Down\",\"40\",\"4\",\"5\",\"5\",\"P\",\"J\",\"53\"
\"\",\"\",\"approach-retreat\",\"57\",\"671740\",\"0.0-57.0\",\"\",\"\",\"3-2\",\"4616\",\"39\",\"1\",\"Training\",\"Stims/Figures/94-J-0-2.bmp\",\"na:lala\",\"Left\",\"39\",\"4\",\"6\",\"5\",\"S\",\"J\",\"54\"
\"\",\"\",\"approach-retreat\",\"58\",\"677907\",\"0.0-58.0\",\"\",\"\",\"3-2\",\"4657\",\"40\",\"1\",\"Training\",\"Stims/Figures/86-C-30-1.bmp\",\"paka:ka\",\"Down\",\"40\",\"4\",\"7\",\"5\",\"P\",\"J\",\"55\"
\"\",\"\",\"approach-retreat\",\"59\",\"684009\",\"0.0-59.0\",\"\",\"\",\"3-2\",\"4592\",\"37\",\"1\",\"Training\",\"Stims/Figures/44-C-30-3.bmp\",\"pa:pata\",\"Left\",\"37\",\"4\",\"8\",\"5\",\"P\",\"J\",\"56\"
\"\",\"\",\"approach-retreat\",\"60\",\"689972\",\"0.0-60.0\",\"\",\"\",\"3-2\",\"4453\",\"39\",\"1\",\"Training\",\"Stims/Figures/27-J-0-1.bmp\",\"ma:ma:na\",\"Left\",\"39\",\"4\",\"9\",\"5\",\"S\",\"J\",\"57\"
\"\",\"\",\"approach-retreat\",\"61\",\"696191\",\"0.0-61.0\",\"\",\"\",\"3-2\",\"4711\",\"38\",\"1\",\"Training\",\"Stims/Figures/27-C-30-1.bmp\",\"ta:paka\",\"Up\",\"38\",\"4\",\"10\",\"5\",\"P\",\"J\",\"58\"
\"\",\"\",\"approach-retreat\",\"62\",\"703921\",\"0.0-62.0\",\"\",\"\",\"3-2\",\"6222\",\"39\",\"1\",\"Training\",\"Stims/Figures/111-C-30-3.bmp\",\"ta:ka:ka\",\"Right\",\"39\",\"4\",\"11\",\"5\",\"P\",\"J\",\"59\"
\"\",\"\",\"approach-retreat\",\"63\",\"709725\",\"0.0-63.0\",\"\",\"\",\"3-2\",\"4296\",\"39\",\"1\",\"Training\",\"Stims/Figures/74-C-20-4.bmp\",\"tapata\",\"Right\",\"39\",\"4\",\"12\",\"5\",\"P\",\"J\",\"60\"
\"\",\"\",\"approach-retreat\",\"64\",\"715765\",\"0.0-64.0\",\"\",\"\",\"3-2\",\"4529\",\"37\",\"1\",\"Training\",\"Stims/Figures/74-J-10-4.bmp\",\"na:lana\",\"Right\",\"37\",\"4\",\"13\",\"5\",\"S\",\"J\",\"61\"
\"\",\"\",\"approach-retreat\",\"65\",\"721939\",\"0.0-65.0\",\"\",\"\",\"3-2\",\"4666\",\"39\",\"1\",\"Training\",\"Stims/Figures/86-J-0-1.bmp\",\"na:la:la\",\"Left\",\"39\",\"4\",\"14\",\"5\",\"S\",\"J\",\"62\"
\"\",\"\",\"approach-retreat\",\"66\",\"728212\",\"0.0-66.0\",\"\",\"\",\"3-2\",\"4764\",\"40\",\"1\",\"Training\",\"Stims/Figures/139-C-20-2.bmp\",\"pa:kaka\",\"Down\",\"40\",\"4\",\"15\",\"5\",\"P\",\"J\",\"63\"
\"\",\"\",\"approach-retreat\",\"67\",\"734335\",\"0.0-67.0\",\"\",\"\",\"3-2\",\"4611\",\"37\",\"1\",\"Training\",\"Stims/Figures/87-J-10-4.bmp\",\"ma:la:na\",\"Right\",\"37\",\"4\",\"16\",\"5\",\"S\",\"J\",\"64\"
\"\",\"\",\"approach-retreat\",\"68\",\"740040\",\"0.0-68.0\",\"\",\"\",\"3-2\",\"4194\",\"39\",\"1\",\"Training\",\"Stims/Figures/74-C-20-4.bmp\",\"tapata\",\"Right\",\"39\",\"5\",\"1\",\"5\",\"P\",\"J\",\"65\"
\"\",\"\",\"approach-retreat\",\"69\",\"746009\",\"0.0-69.0\",\"\",\"\",\"3-2\",\"4460\",\"40\",\"1\",\"Training\",\"Stims/Figures/94-J-0-2.bmp\",\"na:lala\",\"Up\",\"40\",\"5\",\"2\",\"5\",\"S\",\"J\",\"66\"
\"\",\"\",\"approach-retreat\",\"70\",\"751969\",\"0.0-70.0\",\"\",\"\",\"3-2\",\"4449\",\"40\",\"1\",\"Training\",\"Stims/Figures/111-J-10-3.bmp\",\"nalala\",\"Up\",\"40\",\"5\",\"3\",\"5\",\"S\",\"J\",\"67\"
\"\",\"\",\"approach-retreat\",\"71\",\"758071\",\"0.0-71.0\",\"\",\"\",\"3-2\",\"4593\",\"38\",\"1\",\"Training\",\"Stims/Figures/87-J-10-4.bmp\",\"ma:la:na\",\"Down\",\"38\",\"5\",\"4\",\"5\",\"S\",\"J\",\"68\"
\"\",\"\",\"approach-retreat\",\"72\",\"764847\",\"0.0-72.0\",\"\",\"\",\"3-2\",\"5267\",\"37\",\"1\",\"Training\",\"Stims/Figures/44-J-10-3.bmp\",\"mamala\",\"Right\",\"37\",\"5\",\"5\",\"5\",\"S\",\"J\",\"69\"
\"\",\"\",\"approach-retreat\",\"73\",\"771163\",\"0.0-73.0\",\"\",\"\",\"3-2\",\"4808\",\"40\",\"1\",\"Training\",\"Stims/Figures/139-C-20-2.bmp\",\"pa:kaka\",\"Down\",\"40\",\"5\",\"6\",\"5\",\"P\",\"J\",\"70\"
\"\",\"\",\"approach-retreat\",\"74\",\"777046\",\"0.0-74.0\",\"\",\"\",\"3-2\",\"4374\",\"37\",\"1\",\"Training\",\"Stims/Figures/87-C-20-4.bmp\",\"ta:pa:ta\",\"Left\",\"37\",\"5\",\"7\",\"5\",\"P\",\"J\",\"71\"
\"\",\"\",\"approach-retreat\",\"75\",\"782842\",\"0.0-75.0\",\"\",\"\",\"3-2\",\"4286\",\"40\",\"1\",\"Training\",\"Stims/Figures/86-J-0-1.bmp\",\"na:la:la\",\"Up\",\"40\",\"5\",\"8\",\"5\",\"S\",\"J\",\"72\"
\"\",\"\",\"approach-retreat\",\"76\",\"790274\",\"0.0-76.0\",\"\",\"\",\"3-2\",\"5924\",\"40\",\"1\",\"Training\",\"Stims/Figures/74-J-10-4.bmp\",\"na:lana\",\"Up\",\"40\",\"5\",\"9\",\"5\",\"S\",\"J\",\"73\"
\"\",\"\",\"approach-retreat\",\"77\",\"796095\",\"0.0-77.0\",\"\",\"\",\"3-2\",\"4312\",\"39\",\"1\",\"Training\",\"Stims/Figures/111-C-30-3.bmp\",\"ta:ka:ka\",\"Right\",\"39\",\"5\",\"10\",\"5\",\"P\",\"J\",\"74\"
\"\",\"\",\"approach-retreat\",\"78\",\"802086\",\"0.0-78.0\",\"\",\"\",\"3-2\",\"4482\",\"37\",\"1\",\"Training\",\"Stims/Figures/86-C-30-1.bmp\",\"paka:ka\",\"Left\",\"37\",\"5\",\"11\",\"5\",\"P\",\"J\",\"75\"
\"\",\"\",\"approach-retreat\",\"79\",\"809513\",\"0.0-79.0\",\"\",\"\",\"3-2\",\"5917\",\"39\",\"1\",\"Training\",\"Stims/Figures/27-J-0-1.bmp\",\"ma:ma:na\",\"Left\",\"39\",\"5\",\"12\",\"5\",\"S\",\"J\",\"76\"
\"\",\"\",\"approach-retreat\",\"80\",\"816187\",\"0.0-80.0\",\"\",\"\",\"3-2\",\"5163\",\"38\",\"1\",\"Training\",\"Stims/Figures/139-J-0-2.bmp\",\"mala:na\",\"Down\",\"38\",\"5\",\"13\",\"5\",\"S\",\"J\",\"77\"
\"\",\"\",\"approach-retreat\",\"81\",\"822233\",\"0.0-81.0\",\"\",\"\",\"3-2\",\"4537\",\"37\",\"1\",\"Training\",\"Stims/Figures/44-C-30-3.bmp\",\"pa:pata\",\"Left\",\"37\",\"5\",\"14\",\"5\",\"P\",\"J\",\"78\"
\"\",\"\",\"approach-retreat\",\"82\",\"829158\",\"0.0-82.0\",\"\",\"\",\"3-2\",\"5415\",\"40\",\"1\",\"Training\",\"Stims/Figures/27-C-30-1.bmp\",\"ta:paka\",\"Down\",\"40\",\"5\",\"15\",\"5\",\"P\",\"J\",\"79\"
\"\",\"\",\"approach-retreat\",\"83\",\"834931\",\"0.0-83.0\",\"\",\"\",\"3-2\",\"4264\",\"39\",\"1\",\"Training\",\"Stims/Figures/94-C-20-2.bmp\",\"pa:ka:ta\",\"Right\",\"39\",\"5\",\"16\",\"5\",\"P\",\"J\",\"80\"
\"\",\"\",\"approach-retreat\",\"84\",\"840926\",\"0.0-84.0\",\"\",\"\",\"3-2\",\"4485\",\"40\",\"1\",\"Training\",\"Stims/Figures/94-J-0-2.bmp\",\"na:lala\",\"Up\",\"40\",\"6\",\"1\",\"5\",\"S\",\"J\",\"81\"
\"\",\"\",\"approach-retreat\",\"85\",\"846636\",\"0.0-85.0\",\"\",\"\",\"3-2\",\"4201\",\"39\",\"1\",\"Training\",\"Stims/Figures/94-C-20-2.bmp\",\"pa:ka:ta\",\"Right\",\"39\",\"6\",\"2\",\"5\",\"P\",\"J\",\"82\"
\"\",\"\",\"approach-retreat\",\"86\",\"852639\",\"0.0-86.0\",\"\",\"\",\"3-2\",\"4490\",\"37\",\"1\",\"Training\",\"Stims/Figures/139-C-20-2.bmp\",\"pa:kaka\",\"Left\",\"37\",\"6\",\"3\",\"5\",\"P\",\"J\",\"83\"
\"\",\"\",\"approach-retreat\",\"87\",\"859792\",\"0.0-87.0\",\"\",\"\",\"3-2\",\"5642\",\"39\",\"1\",\"Training\",\"Stims/Figures/111-C-30-3.bmp\",\"ta:ka:ka\",\"Right\",\"39\",\"6\",\"4\",\"5\",\"P\",\"J\",\"84\"
\"\",\"\",\"approach-retreat\",\"88\",\"865452\",\"0.0-88.0\",\"\",\"\",\"3-2\",\"4149\",\"39\",\"1\",\"Training\",\"Stims/Figures/87-C-20-4.bmp\",\"ta:pa:ta\",\"Right\",\"39\",\"6\",\"5\",\"5\",\"P\",\"J\",\"85\"
\"\",\"\",\"approach-retreat\",\"89\",\"871607\",\"0.0-89.0\",\"\",\"\",\"3-2\",\"4645\",\"38\",\"1\",\"Training\",\"Stims/Figures/27-C-30-1.bmp\",\"ta:paka\",\"Up\",\"38\",\"6\",\"6\",\"5\",\"P\",\"J\",\"86\"
\"\",\"\",\"approach-retreat\",\"90\",\"877593\",\"0.0-90.0\",\"\",\"\",\"3-2\",\"4476\",\"38\",\"1\",\"Training\",\"Stims/Figures/86-J-0-1.bmp\",\"na:la:la\",\"Down\",\"38\",\"6\",\"7\",\"5\",\"S\",\"J\",\"87\"
\"\",\"\",\"approach-retreat\",\"91\",\"883571\",\"0.0-91.0\",\"\",\"\",\"3-2\",\"4469\",\"38\",\"1\",\"Training\",\"Stims/Figures/87-J-10-4.bmp\",\"ma:la:na\",\"Down\",\"38\",\"6\",\"8\",\"5\",\"S\",\"J\",\"88\"
\"\",\"\",\"approach-retreat\",\"92\",\"889537\",\"0.0-92.0\",\"\",\"\",\"3-2\",\"4457\",\"38\",\"1\",\"Training\",\"Stims/Figures/44-C-30-3.bmp\",\"pa:pata\",\"Up\",\"38\",\"6\",\"9\",\"5\",\"P\",\"J\",\"89\"
\"\",\"\",\"approach-retreat\",\"93\",\"895705\",\"0.0-93.0\",\"\",\"\",\"3-2\",\"4658\",\"38\",\"1\",\"Training\",\"Stims/Figures/44-J-10-3.bmp\",\"mamala\",\"Down\",\"38\",\"6\",\"10\",\"5\",\"S\",\"J\",\"90\"
\"\",\"\",\"approach-retreat\",\"94\",\"901582\",\"0.0-94.0\",\"\",\"\",\"3-2\",\"4370\",\"37\",\"1\",\"Training\",\"Stims/Figures/86-C-30-1.bmp\",\"paka:ka\",\"Left\",\"37\",\"6\",\"11\",\"5\",\"P\",\"J\",\"91\"
\"\",\"\",\"approach-retreat\",\"95\",\"908445\",\"0.0-95.0\",\"\",\"\",\"3-2\",\"5353\",\"38\",\"1\",\"Training\",\"Stims/Figures/139-J-0-2.bmp\",\"mala:na\",\"Down\",\"38\",\"6\",\"12\",\"5\",\"S\",\"J\",\"92\"
\"\",\"\",\"approach-retreat\",\"96\",\"914346\",\"0.0-96.0\",\"\",\"\",\"3-2\",\"4394\",\"37\",\"1\",\"Training\",\"Stims/Figures/74-J-10-4.bmp\",\"na:lana\",\"Right\",\"37\",\"6\",\"13\",\"5\",\"S\",\"J\",\"93\"
\"\",\"\",\"approach-retreat\",\"97\",\"920423\",\"0.0-97.0\",\"\",\"\",\"3-2\",\"4568\",\"39\",\"1\",\"Training\",\"Stims/Figures/27-J-0-1.bmp\",\"ma:ma:na\",\"Left\",\"39\",\"6\",\"14\",\"5\",\"S\",\"J\",\"94\"
\"\",\"\",\"approach-retreat\",\"98\",\"926426\",\"0.0-98.0\",\"\",\"\",\"3-2\",\"4493\",\"38\",\"1\",\"Training\",\"Stims/Figures/74-C-20-4.bmp\",\"tapata\",\"Up\",\"38\",\"6\",\"15\",\"5\",\"P\",\"J\",\"95\"
\"\",\"\",\"approach-retreat\",\"99\",\"932285\",\"0.0-99.0\",\"\",\"\",\"3-2\",\"4350\",\"39\",\"1\",\"Training\",\"Stims/Figures/111-J-10-3.bmp\",\"nalala\",\"Left\",\"39\",\"6\",\"16\",\"5\",\"S\",\"J\",\"96\"
\"\",\"\",\"approach-retreat\",\"100\",\"938185\",\"0.0-100.0\",\"\",\"\",\"3-2\",\"4391\",\"38\",\"1\",\"Training\",\"Stims/Figures/27-J-0-1.bmp\",\"ma:ma:na\",\"Down\",\"38\",\"7\",\"1\",\"5\",\"S\",\"J\",\"97\"
\"\",\"\",\"approach-retreat\",\"101\",\"944013\",\"0.0-101.0\",\"\",\"\",\"3-2\",\"4319\",\"40\",\"1\",\"Training\",\"Stims/Figures/44-J-10-3.bmp\",\"mamala\",\"Up\",\"40\",\"7\",\"2\",\"5\",\"S\",\"J\",\"98\"
\"\",\"\",\"approach-retreat\",\"102\",\"949915\",\"0.0-102.0\",\"\",\"\",\"3-2\",\"4393\",\"37\",\"1\",\"Training\",\"Stims/Figures/44-C-30-3.bmp\",\"pa:pata\",\"Left\",\"37\",\"7\",\"3\",\"5\",\"P\",\"J\",\"99\"
\"\",\"\",\"approach-retreat\",\"103\",\"956523\",\"0.0-103.0\",\"\",\"\",\"3-2\",\"5099\",\"38\",\"1\",\"Training\",\"Stims/Figures/87-J-10-4.bmp\",\"ma:la:na\",\"Down\",\"38\",\"7\",\"4\",\"5\",\"S\",\"J\",\"100\"
\"\",\"\",\"approach-retreat\",\"104\",\"962382\",\"0.0-104.0\",\"\",\"\",\"3-2\",\"4351\",\"38\",\"1\",\"Training\",\"Stims/Figures/86-C-30-1.bmp\",\"paka:ka\",\"Up\",\"38\",\"7\",\"5\",\"5\",\"P\",\"J\",\"101\"
\"\",\"\",\"approach-retreat\",\"105\",\"968116\",\"0.0-105.0\",\"\",\"\",\"3-2\",\"4225\",\"37\",\"1\",\"Training\",\"Stims/Figures/94-J-0-2.bmp\",\"na:lala\",\"Right\",\"37\",\"7\",\"6\",\"5\",\"S\",\"J\",\"102\"
\"\",\"\",\"approach-retreat\",\"106\",\"973915\",\"0.0-106.0\",\"\",\"\",\"3-2\",\"4289\",\"39\",\"1\",\"Training\",\"Stims/Figures/87-C-20-4.bmp\",\"ta:pa:ta\",\"Right\",\"39\",\"7\",\"7\",\"5\",\"P\",\"J\",\"103\"
\"\",\"\",\"approach-retreat\",\"107\",\"979645\",\"0.0-107.0\",\"\",\"\",\"3-2\",\"4221\",\"40\",\"1\",\"Training\",\"Stims/Figures/111-J-10-3.bmp\",\"nalala\",\"Up\",\"40\",\"7\",\"8\",\"5\",\"S\",\"J\",\"104\"
\"\",\"\",\"approach-retreat\",\"108\",\"985567\",\"0.0-108.0\",\"\",\"\",\"3-2\",\"4412\",\"39\",\"1\",\"Training\",\"Stims/Figures/139-J-0-2.bmp\",\"mala:na\",\"Left\",\"39\",\"7\",\"9\",\"5\",\"S\",\"J\",\"105\"
\"\",\"\",\"approach-retreat\",\"109\",\"991444\",\"0.0-109.0\",\"\",\"\",\"3-2\",\"4369\",\"38\",\"1\",\"Training\",\"Stims/Figures/86-J-0-1.bmp\",\"na:la:la\",\"Down\",\"38\",\"7\",\"10\",\"5\",\"S\",\"J\",\"106\"
\"\",\"\",\"approach-retreat\",\"110\",\"997341\",\"0.0-110.0\",\"\",\"\",\"3-2\",\"4388\",\"37\",\"1\",\"Training\",\"Stims/Figures/27-C-30-1.bmp\",\"ta:paka\",\"Left\",\"37\",\"7\",\"11\",\"5\",\"P\",\"J\",\"107\"
\"\",\"\",\"approach-retreat\",\"111\",\"1003073\",\"0.0-111.0\",\"\",\"\",\"3-2\",\"4223\",\"39\",\"1\",\"Training\",\"Stims/Figures/139-C-20-2.bmp\",\"pa:kaka\",\"Right\",\"39\",\"7\",\"12\",\"5\",\"P\",\"J\",\"108\"
\"\",\"\",\"approach-retreat\",\"112\",\"1009009\",\"0.0-112.0\",\"\",\"\",\"3-2\",\"4426\",\"38\",\"1\",\"Training\",\"Stims/Figures/111-C-30-3.bmp\",\"ta:ka:ka\",\"Up\",\"38\",\"7\",\"13\",\"5\",\"P\",\"J\",\"109\"
\"\",\"\",\"approach-retreat\",\"113\",\"1015602\",\"0.0-113.0\",\"\",\"\",\"3-2\",\"5084\",\"39\",\"1\",\"Training\",\"Stims/Figures/94-C-20-2.bmp\",\"pa:ka:ta\",\"Right\",\"39\",\"7\",\"14\",\"5\",\"P\",\"J\",\"110\"
\"\",\"\",\"approach-retreat\",\"114\",\"1021481\",\"0.0-114.0\",\"\",\"\",\"3-2\",\"4371\",\"38\",\"1\",\"Training\",\"Stims/Figures/74-J-10-4.bmp\",\"na:lana\",\"Down\",\"38\",\"7\",\"15\",\"5\",\"S\",\"J\",\"111\"
\"\",\"\",\"approach-retreat\",\"115\",\"1027285\",\"0.0-115.0\",\"\",\"\",\"3-2\",\"4295\",\"37\",\"1\",\"Training\",\"Stims/Figures/74-C-20-4.bmp\",\"tapata\",\"Left\",\"37\",\"7\",\"16\",\"5\",\"P\",\"J\",\"112\"
\"\",\"\",\"approach-retreat\",\"116\",\"1033210\",\"0.0-116.0\",\"\",\"\",\"3-2\",\"4416\",\"37\",\"1\",\"Training\",\"Stims/Figures/87-J-10-4.bmp\",\"ma:la:na\",\"Right\",\"37\",\"8\",\"1\",\"5\",\"S\",\"J\",\"113\"
\"\",\"\",\"approach-retreat\",\"117\",\"1039117\",\"0.0-117.0\",\"\",\"\",\"3-2\",\"4397\",\"37\",\"1\",\"Training\",\"Stims/Figures/87-C-20-4.bmp\",\"ta:pa:ta\",\"Left\",\"37\",\"8\",\"2\",\"5\",\"P\",\"J\",\"114\"
\"\",\"\",\"approach-retreat\",\"118\",\"1046691\",\"0.0-118.0\",\"\",\"\",\"3-2\",\"6065\",\"40\",\"1\",\"Training\",\"Stims/Figures/27-C-30-1.bmp\",\"ta:paka\",\"Down\",\"40\",\"8\",\"3\",\"5\",\"P\",\"J\",\"115\"
\"\",\"\",\"approach-retreat\",\"119\",\"1052587\",\"0.0-119.0\",\"\",\"\",\"3-2\",\"4386\",\"39\",\"1\",\"Training\",\"Stims/Figures/27-J-0-1.bmp\",\"ma:ma:na\",\"Left\",\"39\",\"8\",\"4\",\"5\",\"S\",\"J\",\"116\"
\"\",\"\",\"approach-retreat\",\"120\",\"1058818\",\"0.0-120.0\",\"\",\"\",\"3-2\",\"4721\",\"38\",\"1\",\"Training\",\"Stims/Figures/111-J-10-3.bmp\",\"nalala\",\"Down\",\"38\",\"8\",\"5\",\"5\",\"S\",\"J\",\"117\"
\"\",\"\",\"approach-retreat\",\"121\",\"1064560\",\"0.0-121.0\",\"\",\"\",\"3-2\",\"4234\",\"40\",\"1\",\"Training\",\"Stims/Figures/44-J-10-3.bmp\",\"mamala\",\"Up\",\"40\",\"8\",\"6\",\"5\",\"S\",\"J\",\"118\"
\"\",\"\",\"approach-retreat\",\"122\",\"1070386\",\"0.0-122.0\",\"\",\"\",\"3-2\",\"4316\",\"40\",\"1\",\"Training\",\"Stims/Figures/94-J-0-2.bmp\",\"na:lala\",\"Up\",\"40\",\"8\",\"7\",\"5\",\"S\",\"J\",\"119\"
\"\",\"\",\"approach-retreat\",\"123\",\"1076311\",\"0.0-123.0\",\"\",\"\",\"3-2\",\"4416\",\"37\",\"1\",\"Training\",\"Stims/Figures/74-J-10-4.bmp\",\"na:lana\",\"Right\",\"37\",\"8\",\"8\",\"5\",\"S\",\"J\",\"120\"
\"\",\"\",\"approach-retreat\",\"124\",\"1082211\",\"0.0-124.0\",\"\",\"\",\"3-2\",\"4391\",\"37\",\"1\",\"Training\",\"Stims/Figures/74-C-20-4.bmp\",\"tapata\",\"Left\",\"37\",\"8\",\"9\",\"5\",\"P\",\"J\",\"121\"
\"\",\"\",\"approach-retreat\",\"125\",\"1088342\",\"0.0-125.0\",\"\",\"\",\"3-2\",\"4623\",\"39\",\"1\",\"Training\",\"Stims/Figures/44-C-30-3.bmp\",\"pa:pata\",\"Right\",\"39\",\"8\",\"10\",\"5\",\"P\",\"J\",\"122\"
\"\",\"\",\"approach-retreat\",\"126\",\"1096004\",\"0.0-126.0\",\"\",\"\",\"3-2\",\"6153\",\"39\",\"1\",\"Training\",\"Stims/Figures/86-C-30-1.bmp\",\"paka:ka\",\"Right\",\"39\",\"8\",\"11\",\"5\",\"P\",\"J\",\"123\"
\"\",\"\",\"approach-retreat\",\"127\",\"1102926\",\"0.0-127.0\",\"\",\"\",\"3-2\",\"5412\",\"40\",\"1\",\"Training\",\"Stims/Figures/94-C-20-2.bmp\",\"pa:ka:ta\",\"Down\",\"40\",\"8\",\"12\",\"5\",\"P\",\"J\",\"124\"
\"\",\"\",\"approach-retreat\",\"128\",\"1108853\",\"0.0-128.0\",\"\",\"\",\"3-2\",\"4418\",\"40\",\"1\",\"Training\",\"Stims/Figures/139-C-20-2.bmp\",\"pa:kaka\",\"Down\",\"40\",\"8\",\"13\",\"5\",\"P\",\"J\",\"125\"
\"\",\"\",\"approach-retreat\",\"129\",\"1116452\",\"0.0-129.0\",\"\",\"\",\"3-2\",\"6090\",\"39\",\"1\",\"Training\",\"Stims/Figures/86-J-0-1.bmp\",\"na:la:la\",\"Left\",\"39\",\"8\",\"14\",\"5\",\"S\",\"J\",\"126\"
\"\",\"\",\"approach-retreat\",\"130\",\"1123335\",\"0.0-130.0\",\"\",\"\",\"3-2\",\"5375\",\"40\",\"1\",\"Training\",\"Stims/Figures/139-J-0-2.bmp\",\"mala:na\",\"Up\",\"40\",\"8\",\"15\",\"5\",\"S\",\"J\",\"127\"
\"\",\"\",\"approach-retreat\",\"131\",\"1130270\",\"0.0-131.0\",\"\",\"\",\"3-2\",\"5426\",\"38\",\"1\",\"Training\",\"Stims/Figures/111-C-30-3.bmp\",\"ta:ka:ka\",\"Up\",\"38\",\"8\",\"16\",\"5\",\"P\",\"J\",\"128\"
\"\",\"\",\"approach-retreat\",\"132\",\"1136146\",\"0.0-132.0\",\"\",\"\",\"3-2\",\"4367\",\"37\",\"1\",\"Training\",\"Stims/Figures/87-C-20-4.bmp\",\"ta:pa:ta\",\"Left\",\"37\",\"9\",\"1\",\"5\",\"P\",\"J\",\"129\"
\"\",\"\",\"approach-retreat\",\"133\",\"1141950\",\"0.0-133.0\",\"\",\"\",\"3-2\",\"4294\",\"38\",\"1\",\"Training\",\"Stims/Figures/111-J-10-3.bmp\",\"nalala\",\"Down\",\"38\",\"9\",\"2\",\"5\",\"S\",\"J\",\"130\"
\"\",\"\",\"approach-retreat\",\"134\",\"1147749\",\"0.0-134.0\",\"\",\"\",\"3-2\",\"4289\",\"39\",\"1\",\"Training\",\"Stims/Figures/111-C-30-3.bmp\",\"ta:ka:ka\",\"Right\",\"39\",\"9\",\"3\",\"5\",\"P\",\"J\",\"131\"
\"\",\"\",\"approach-retreat\",\"135\",\"1153538\",\"0.0-135.0\",\"\",\"\",\"3-2\",\"4280\",\"38\",\"1\",\"Training\",\"Stims/Figures/27-C-30-1.bmp\",\"ta:paka\",\"Up\",\"38\",\"9\",\"4\",\"5\",\"P\",\"J\",\"132\"
\"\",\"\",\"approach-retreat\",\"136\",\"1162345\",\"0.0-136.0\",\"\",\"\",\"3-2\",\"7296\",\"37\",\"1\",\"Training\",\"Stims/Figures/139-J-0-2.bmp\",\"mala:na\",\"Right\",\"37\",\"9\",\"5\",\"5\",\"S\",\"J\",\"133\"
\"\",\"\",\"approach-retreat\",\"137\",\"1169979\",\"0.0-137.0\",\"\",\"\",\"3-2\",\"6126\",\"37\",\"1\",\"Training\",\"Stims/Figures/86-J-0-1.bmp\",\"na:la:la\",\"Right\",\"37\",\"9\",\"6\",\"5\",\"S\",\"J\",\"134\"
\"\",\"\",\"approach-retreat\",\"138\",\"1176014\",\"0.0-138.0\",\"\",\"\",\"3-2\",\"4526\",\"38\",\"1\",\"Training\",\"Stims/Figures/27-J-0-1.bmp\",\"ma:ma:na\",\"Down\",\"38\",\"9\",\"7\",\"5\",\"S\",\"J\",\"135\"
\"\",\"\",\"approach-retreat\",\"139\",\"1181719\",\"0.0-139.0\",\"\",\"\",\"3-2\",\"4195\",\"37\",\"1\",\"Training\",\"Stims/Figures/74-C-20-4.bmp\",\"tapata\",\"Left\",\"37\",\"9\",\"8\",\"5\",\"P\",\"J\",\"136\"
\"\",\"\",\"approach-retreat\",\"140\",\"1187532\",\"0.0-140.0\",\"\",\"\",\"3-2\",\"4303\",\"40\",\"1\",\"Training\",\"Stims/Figures/44-J-10-3.bmp\",\"mamala\",\"Up\",\"40\",\"9\",\"9\",\"5\",\"S\",\"J\",\"137\"
\"\",\"\",\"approach-retreat\",\"141\",\"1193866\",\"0.0-141.0\",\"\",\"\",\"3-2\",\"4826\",\"38\",\"1\",\"Training\",\"Stims/Figures/87-J-10-4.bmp\",\"ma:la:na\",\"Down\",\"38\",\"9\",\"10\",\"5\",\"S\",\"J\",\"138\"
\"\",\"\",\"approach-retreat\",\"142\",\"1200533\",\"0.0-142.0\",\"\",\"\",\"3-2\",\"5158\",\"39\",\"1\",\"Training\",\"Stims/Figures/44-C-30-3.bmp\",\"pa:pata\",\"Right\",\"39\",\"9\",\"11\",\"5\",\"P\",\"J\",\"139\"
\"\",\"\",\"approach-retreat\",\"143\",\"1207380\",\"0.0-143.0\",\"\",\"\",\"3-2\",\"5338\",\"40\",\"1\",\"Training\",\"Stims/Figures/94-J-0-2.bmp\",\"na:lala\",\"Up\",\"40\",\"9\",\"12\",\"5\",\"S\",\"J\",\"140\"
\"\",\"\",\"approach-retreat\",\"144\",\"1213544\",\"0.0-144.0\",\"\",\"\",\"3-2\",\"4655\",\"40\",\"1\",\"Training\",\"Stims/Figures/139-C-20-2.bmp\",\"pa:kaka\",\"Down\",\"40\",\"9\",\"13\",\"5\",\"P\",\"J\",\"141\"
\"\",\"\",\"approach-retreat\",\"145\",\"1219320\",\"0.0-145.0\",\"\",\"\",\"3-2\",\"4266\",\"37\",\"1\",\"Training\",\"Stims/Figures/86-C-30-1.bmp\",\"paka:ka\",\"Left\",\"37\",\"9\",\"14\",\"5\",\"P\",\"J\",\"142\"
\"\",\"\",\"approach-retreat\",\"146\",\"1226991\",\"0.0-146.0\",\"\",\"\",\"3-2\",\"6162\",\"39\",\"1\",\"Training\",\"Stims/Figures/74-J-10-4.bmp\",\"na:lana\",\"Left\",\"39\",\"9\",\"15\",\"5\",\"S\",\"J\",\"143\"
\"\",\"\",\"approach-retreat\",\"147\",\"1233604\",\"0.0-147.0\",\"\",\"\",\"3-2\",\"5105\",\"38\",\"1\",\"Training\",\"Stims/Figures/94-C-20-2.bmp\",\"pa:ka:ta\",\"Up\",\"38\",\"9\",\"16\",\"5\",\"P\",\"J\",\"144\"
\"14233\",\"\",\"instructions\",\"148\",\"1247837\",\"0.0-148.0\",\"[{\"\"page_index\"\":0,\"\"viewing_time\"\":14232}]\",\"\",\"\",\"\",\"\",\"\",\"\",\"\",\"\",\"\",\"\",\"\",\"\",\"\",\"\",\"\",\"\"
\"\",\"\",\"approach-retreat\",\"149\",\"1258019\",\"0.0-149.0\",\"\",\"\",\"3-2\",\"8675\",\"37\",\"1\",\"Testing\",\"Stims/Figures/111-J-10-3.bmp\",\"nalala\",\"Right\",\"37\",\"1\",\"1\",\"5\",\"S\",\"J\",\"1\"
\"\",\"\",\"approach-retreat\",\"150\",\"1263841\",\"0.0-150.0\",\"\",\"\",\"3-2\",\"4314\",\"38\",\"1\",\"Testing\",\"Stims/Figures/27-J-0-1.bmp\",\"ma:ma:na\",\"Down\",\"38\",\"1\",\"2\",\"5\",\"S\",\"J\",\"2\"
\"\",\"\",\"approach-retreat\",\"151\",\"1269702\",\"0.0-151.0\",\"\",\"\",\"3-2\",\"4355\",\"38\",\"0\",\"Testing\",\"Stims/Figures/44-J-10-3.bmp\",\"mamala\",\"Up\",\"40\",\"1\",\"3\",\"5\",\"S\",\"J\",\"3\"
\"\",\"\",\"approach-retreat\",\"152\",\"1275493\",\"0.0-152.0\",\"\",\"\",\"3-2\",\"4284\",\"39\",\"0\",\"Testing\",\"Stims/Figures/74-J-10-4.bmp\",\"na:lana\",\"Right\",\"37\",\"1\",\"4\",\"5\",\"S\",\"J\",\"4\"
\"\",\"\",\"approach-retreat\",\"153\",\"1281646\",\"0.0-153.0\",\"\",\"\",\"3-2\",\"4642\",\"39\",\"0\",\"Testing\",\"Stims/Figures/102-C-20-4.bmp\",\"papa:ta\",\"Left\",\"37\",\"1\",\"5\",\"5\",\"P\",\"J\",\"5\"
\"\",\"\",\"approach-retreat\",\"154\",\"1287535\",\"0.0-154.0\",\"\",\"\",\"3-2\",\"4383\",\"38\",\"1\",\"Testing\",\"Stims/Figures/85-J-0-2.bmp\",\"namala\",\"Down\",\"38\",\"1\",\"6\",\"5\",\"S\",\"J\",\"6\"
\"\",\"\",\"approach-retreat\",\"155\",\"1293243\",\"0.0-155.0\",\"\",\"\",\"3-2\",\"4200\",\"40\",\"0\",\"Testing\",\"Stims/Figures/86-J-0-1.bmp\",\"na:la:la\",\"Down\",\"38\",\"1\",\"7\",\"5\",\"S\",\"J\",\"7\"
\"\",\"\",\"approach-retreat\",\"156\",\"1299082\",\"0.0-156.0\",\"\",\"\",\"3-2\",\"4332\",\"40\",\"0\",\"Testing\",\"Stims/Figures/111-C-30-3.bmp\",\"ta:ka:ka\",\"Up\",\"38\",\"1\",\"8\",\"5\",\"P\",\"J\",\"8\"
\"\",\"\",\"approach-retreat\",\"157\",\"1305018\",\"0.0-157.0\",\"\",\"\",\"3-2\",\"4428\",\"39\",\"1\",\"Testing\",\"Stims/Figures/94-J-0-2.bmp\",\"na:lala\",\"Left\",\"39\",\"1\",\"9\",\"5\",\"S\",\"J\",\"9\"
\"\",\"\",\"approach-retreat\",\"158\",\"1311210\",\"0.0-158.0\",\"\",\"\",\"3-2\",\"4684\",\"37\",\"1\",\"Testing\",\"Stims/Figures/87-C-20-4.bmp\",\"ta:pa:ta\",\"Left\",\"37\",\"1\",\"10\",\"5\",\"P\",\"J\",\"10\"
\"\",\"\",\"approach-retreat\",\"159\",\"1316942\",\"0.0-159.0\",\"\",\"\",\"3-2\",\"4226\",\"37\",\"0\",\"Testing\",\"Stims/Figures/74-C-20-4.bmp\",\"tapata\",\"Right\",\"39\",\"1\",\"11\",\"5\",\"P\",\"J\",\"11\"
\"\",\"\",\"approach-retreat\",\"160\",\"1323424\",\"0.0-160.0\",\"\",\"\",\"3-2\",\"4975\",\"40\",\"1\",\"Testing\",\"Stims/Figures/27-C-30-1.bmp\",\"ta:paka\",\"Down\",\"40\",\"1\",\"12\",\"5\",\"P\",\"J\",\"12\"
\"\",\"\",\"approach-retreat\",\"161\",\"1329956\",\"0.0-161.0\",\"\",\"\",\"3-2\",\"5025\",\"39\",\"0\",\"Testing\",\"Stims/Figures/94-C-20-2.bmp\",\"pa:ka:ta\",\"Left\",\"37\",\"1\",\"13\",\"5\",\"P\",\"J\",\"13\"
\"\",\"\",\"approach-retreat\",\"162\",\"1335611\",\"0.0-162.0\",\"\",\"\",\"3-2\",\"4145\",\"38\",\"0\",\"Testing\",\"Stims/Figures/139-J-0-2.bmp\",\"mala:na\",\"Up\",\"40\",\"1\",\"14\",\"5\",\"S\",\"J\",\"14\"
\"\",\"\",\"approach-retreat\",\"163\",\"1341278\",\"0.0-163.0\",\"\",\"\",\"3-2\",\"4160\",\"37\",\"1\",\"Testing\",\"Stims/Figures/93-C-30-1.bmp\",\"ta:kaka\",\"Left\",\"37\",\"1\",\"15\",\"5\",\"P\",\"J\",\"15\"
\"\",\"\",\"approach-retreat\",\"164\",\"1347018\",\"0.0-164.0\",\"\",\"\",\"3-2\",\"4232\",\"38\",\"0\",\"Testing\",\"Stims/Figures/85-C-20-2.bmp\",\"ta:kata\",\"Down\",\"40\",\"1\",\"16\",\"5\",\"P\",\"J\",\"16\"
\"\",\"\",\"approach-retreat\",\"165\",\"1352639\",\"0.0-165.0\",\"\",\"\",\"3-2\",\"4111\",\"38\",\"0\",\"Testing\",\"Stims/Figures/102-J-10-4.bmp\",\"na:la:na\",\"Up\",\"40\",\"1\",\"17\",\"5\",\"S\",\"J\",\"17\"
\"\",\"\",\"approach-retreat\",\"166\",\"1358412\",\"0.0-166.0\",\"\",\"\",\"3-2\",\"4265\",\"37\",\"1\",\"Testing\",\"Stims/Figures/144-C-30-3.bmp\",\"pa:kata\",\"Left\",\"37\",\"1\",\"18\",\"5\",\"P\",\"J\",\"18\"
\"\",\"\",\"approach-retreat\",\"167\",\"1365815\",\"0.0-167.0\",\"\",\"\",\"3-2\",\"5891\",\"37\",\"0\",\"Testing\",\"Stims/Figures/44-C-30-3.bmp\",\"pa:pata\",\"Right\",\"39\",\"1\",\"19\",\"5\",\"P\",\"J\",\"19\"
\"\",\"\",\"approach-retreat\",\"168\",\"1371638\",\"0.0-168.0\",\"\",\"\",\"3-2\",\"4316\",\"38\",\"0\",\"Testing\",\"Stims/Figures/93-J-0-1.bmp\",\"ma:lana\",\"Up\",\"40\",\"1\",\"20\",\"5\",\"S\",\"J\",\"20\"
\"\",\"\",\"approach-retreat\",\"169\",\"1377431\",\"0.0-169.0\",\"\",\"\",\"3-2\",\"4284\",\"39\",\"1\",\"Testing\",\"Stims/Figures/86-C-30-1.bmp\",\"paka:ka\",\"Right\",\"39\",\"1\",\"21\",\"5\",\"P\",\"J\",\"21\"
\"\",\"\",\"approach-retreat\",\"170\",\"1383524\",\"0.0-170.0\",\"\",\"\",\"3-2\",\"4588\",\"37\",\"1\",\"Testing\",\"Stims/Figures/144-J-10-3.bmp\",\"nama:la\",\"Right\",\"37\",\"1\",\"22\",\"5\",\"S\",\"J\",\"22\"
\"\",\"\",\"approach-retreat\",\"171\",\"1389683\",\"0.0-171.0\",\"\",\"\",\"3-2\",\"4652\",\"38\",\"0\",\"Testing\",\"Stims/Figures/87-J-10-4.bmp\",\"ma:la:na\",\"Up\",\"40\",\"1\",\"23\",\"5\",\"S\",\"J\",\"23\"
\"\",\"\",\"approach-retreat\",\"172\",\"1395462\",\"0.0-172.0\",\"\",\"\",\"3-2\",\"4271\",\"38\",\"0\",\"Testing\",\"Stims/Figures/139-C-20-2.bmp\",\"pa:kaka\",\"Down\",\"40\",\"1\",\"24\",\"5\",\"P\",\"J\",\"24\"
\"\",\"\",\"approach-retreat\",\"173\",\"1401248\",\"0.0-173.0\",\"\",\"\",\"3-2\",\"4279\",\"37\",\"1\",\"Testing\",\"Stims/Figures/144-C-30-3.bmp\",\"pa:kata\",\"Left\",\"37\",\"2\",\"1\",\"5\",\"P\",\"J\",\"25\"
\"\",\"\",\"approach-retreat\",\"174\",\"1406858\",\"0.0-174.0\",\"\",\"\",\"3-2\",\"4103\",\"38\",\"0\",\"Testing\",\"Stims/Figures/44-J-10-3.bmp\",\"mamala\",\"Up\",\"40\",\"2\",\"2\",\"5\",\"S\",\"J\",\"26\"
\"\",\"\",\"approach-retreat\",\"175\",\"1412601\",\"0.0-175.0\",\"\",\"\",\"3-2\",\"4236\",\"38\",\"0\",\"Testing\",\"Stims/Figures/44-C-30-3.bmp\",\"pa:pata\",\"Down\",\"40\",\"2\",\"3\",\"5\",\"P\",\"J\",\"27\"
\"\",\"\",\"approach-retreat\",\"176\",\"1418332\",\"0.0-176.0\",\"\",\"\",\"3-2\",\"4223\",\"40\",\"1\",\"Testing\",\"Stims/Figures/85-C-20-2.bmp\",\"ta:kata\",\"Down\",\"40\",\"2\",\"4\",\"5\",\"P\",\"J\",\"28\"
\"\",\"\",\"approach-retreat\",\"177\",\"1424187\",\"0.0-177.0\",\"\",\"\",\"3-2\",\"4347\",\"38\",\"0\",\"Testing\",\"Stims/Figures/27-C-30-1.bmp\",\"ta:paka\",\"Down\",\"40\",\"2\",\"5\",\"5\",\"P\",\"J\",\"29\"
\"\",\"\",\"approach-retreat\",\"178\",\"1429953\",\"0.0-178.0\",\"\",\"\",\"3-2\",\"4260\",\"39\",\"1\",\"Testing\",\"Stims/Figures/102-C-20-4.bmp\",\"papa:ta\",\"Right\",\"39\",\"2\",\"6\",\"5\",\"P\",\"J\",\"30\"
\"\",\"\",\"approach-retreat\",\"179\",\"1435717\",\"0.0-179.0\",\"\",\"\",\"3-2\",\"4257\",\"38\",\"0\",\"Testing\",\"Stims/Figures/93-J-0-1.bmp\",\"ma:lana\",\"Up\",\"40\",\"2\",\"7\",\"5\",\"S\",\"J\",\"31\"
\"\",\"\",\"approach-retreat\",\"180\",\"1443158\",\"0.0-180.0\",\"\",\"\",\"3-2\",\"5934\",\"37\",\"0\",\"Testing\",\"Stims/Figures/139-C-20-2.bmp\",\"pa:kaka\",\"Right\",\"39\",\"2\",\"8\",\"5\",\"P\",\"J\",\"32\"
\"\",\"\",\"approach-retreat\",\"181\",\"1449005\",\"0.0-181.0\",\"\",\"\",\"3-2\",\"4339\",\"39\",\"0\",\"Testing\",\"Stims/Figures/87-J-10-4.bmp\",\"ma:la:na\",\"Right\",\"37\",\"2\",\"9\",\"5\",\"S\",\"J\",\"33\"
\"\",\"\",\"approach-retreat\",\"182\",\"1454639\",\"0.0-182.0\",\"\",\"\",\"3-2\",\"4127\",\"40\",\"1\",\"Testing\",\"Stims/Figures/102-J-10-4.bmp\",\"na:la:na\",\"Up\",\"40\",\"2\",\"10\",\"5\",\"S\",\"J\",\"34\"
\"\",\"\",\"approach-retreat\",\"183\",\"1460452\",\"0.0-183.0\",\"\",\"\",\"3-2\",\"4305\",\"37\",\"0\",\"Testing\",\"Stims/Figures/94-J-0-2.bmp\",\"na:lala\",\"Left\",\"39\",\"2\",\"11\",\"5\",\"S\",\"J\",\"35\"
\"\",\"\",\"approach-retreat\",\"184\",\"1466791\",\"0.0-184.0\",\"\",\"\",\"3-2\",\"4833\",\"37\",\"1\",\"Testing\",\"Stims/Figures/93-C-30-1.bmp\",\"ta:kaka\",\"Left\",\"37\",\"2\",\"12\",\"5\",\"P\",\"J\",\"36\"
\"\",\"\",\"approach-retreat\",\"185\",\"1472624\",\"0.0-185.0\",\"\",\"\",\"3-2\",\"4327\",\"39\",\"0\",\"Testing\",\"Stims/Figures/85-J-0-2.bmp\",\"namala\",\"Right\",\"37\",\"2\",\"13\",\"5\",\"S\",\"J\",\"37\"
\"\",\"\",\"approach-retreat\",\"186\",\"1478262\",\"0.0-186.0\",\"\",\"\",\"3-2\",\"4130\",\"40\",\"0\",\"Testing\",\"Stims/Figures/144-J-10-3.bmp\",\"nama:la\",\"Down\",\"38\",\"2\",\"14\",\"5\",\"S\",\"J\",\"38\"
\"\",\"\",\"approach-retreat\",\"187\",\"1483888\",\"0.0-187.0\",\"\",\"\",\"3-2\",\"4118\",\"40\",\"1\",\"Testing\",\"Stims/Figures/86-J-0-1.bmp\",\"na:la:la\",\"Up\",\"40\",\"2\",\"15\",\"5\",\"S\",\"J\",\"39\"
\"\",\"\",\"approach-retreat\",\"188\",\"1489624\",\"0.0-188.0\",\"\",\"\",\"3-2\",\"4228\",\"38\",\"0\",\"Testing\",\"Stims/Figures/74-J-10-4.bmp\",\"na:lana\",\"Up\",\"40\",\"2\",\"16\",\"5\",\"S\",\"J\",\"40\"
\"\",\"\",\"approach-retreat\",\"189\",\"1495303\",\"0.0-189.0\",\"\",\"\",\"3-2\",\"4171\",\"37\",\"1\",\"Testing\",\"Stims/Figures/87-C-20-4.bmp\",\"ta:pa:ta\",\"Left\",\"37\",\"2\",\"17\",\"5\",\"P\",\"J\",\"41\"
\"\",\"\",\"approach-retreat\",\"190\",\"1501098\",\"0.0-190.0\",\"\",\"\",\"3-2\",\"4288\",\"40\",\"0\",\"Testing\",\"Stims/Figures/94-C-20-2.bmp\",\"pa:ka:ta\",\"Up\",\"38\",\"2\",\"18\",\"5\",\"P\",\"J\",\"42\"
\"\",\"\",\"approach-retreat\",\"191\",\"1506984\",\"0.0-191.0\",\"\",\"\",\"3-2\",\"4379\",\"37\",\"0\",\"Testing\",\"Stims/Figures/111-J-10-3.bmp\",\"nalala\",\"Left\",\"39\",\"2\",\"19\",\"5\",\"S\",\"J\",\"43\"
\"\",\"\",\"approach-retreat\",\"192\",\"1512880\",\"0.0-192.0\",\"\",\"\",\"3-2\",\"4390\",\"37\",\"1\",\"Testing\",\"Stims/Figures/86-C-30-1.bmp\",\"paka:ka\",\"Left\",\"37\",\"2\",\"20\",\"5\",\"P\",\"J\",\"44\"
\"\",\"\",\"approach-retreat\",\"193\",\"1519019\",\"0.0-193.0\",\"\",\"\",\"3-2\",\"4631\",\"39\",\"0\",\"Testing\",\"Stims/Figures/139-J-0-2.bmp\",\"mala:na\",\"Right\",\"37\",\"2\",\"21\",\"5\",\"S\",\"J\",\"45\"
\"\",\"\",\"approach-retreat\",\"194\",\"1524881\",\"0.0-194.0\",\"\",\"\",\"3-2\",\"4354\",\"38\",\"0\",\"Testing\",\"Stims/Figures/74-C-20-4.bmp\",\"tapata\",\"Down\",\"40\",\"2\",\"22\",\"5\",\"P\",\"J\",\"46\"
\"\",\"\",\"approach-retreat\",\"195\",\"1530640\",\"0.0-195.0\",\"\",\"\",\"3-2\",\"4250\",\"39\",\"0\",\"Testing\",\"Stims/Figures/27-J-0-1.bmp\",\"ma:ma:na\",\"Right\",\"37\",\"2\",\"23\",\"5\",\"S\",\"J\",\"47\"
\"\",\"\",\"approach-retreat\",\"196\",\"1536864\",\"0.0-196.0\",\"\",\"\",\"3-2\",\"4715\",\"38\",\"0\",\"Testing\",\"Stims/Figures/111-C-30-3.bmp\",\"ta:ka:ka\",\"Down\",\"40\",\"2\",\"24\",\"5\",\"P\",\"J\",\"48\"
\"\",\"\",\"approach-retreat\",\"197\",\"1542667\",\"0.0-197.0\",\"\",\"\",\"3-2\",\"4297\",\"38\",\"0\",\"Testing\",\"Stims/Figures/102-C-20-4.bmp\",\"papa:ta\",\"Down\",\"40\",\"3\",\"1\",\"5\",\"P\",\"J\",\"49\"
\"\",\"\",\"approach-retreat\",\"198\",\"1551455\",\"0.0-198.0\",\"\",\"\",\"3-2\",\"7281\",\"38\",\"1\",\"Testing\",\"Stims/Figures/87-J-10-4.bmp\",\"ma:la:na\",\"Down\",\"38\",\"3\",\"2\",\"5\",\"S\",\"J\",\"50\"
\"\",\"\",\"approach-retreat\",\"199\",\"1557840\",\"0.0-199.0\",\"\",\"\",\"3-2\",\"4878\",\"38\",\"0\",\"Testing\",\"Stims/Figures/93-J-0-1.bmp\",\"ma:lana\",\"Up\",\"40\",\"3\",\"3\",\"5\",\"S\",\"J\",\"51\"
\"\",\"\",\"approach-retreat\",\"200\",\"1563975\",\"0.0-200.0\",\"\",\"\",\"3-2\",\"4626\",\"40\",\"0\",\"Testing\",\"Stims/Figures/85-J-0-2.bmp\",\"namala\",\"Down\",\"38\",\"3\",\"4\",\"5\",\"S\",\"J\",\"52\"
\"\",\"\",\"approach-retreat\",\"201\",\"1570801\",\"0.0-201.0\",\"\",\"\",\"3-2\",\"5317\",\"39\",\"1\",\"Testing\",\"Stims/Figures/93-C-30-1.bmp\",\"ta:kaka\",\"Right\",\"39\",\"3\",\"5\",\"5\",\"P\",\"J\",\"53\"
\"\",\"\",\"approach-retreat\",\"202\",\"1577686\",\"0.0-202.0\",\"\",\"\",\"3-2\",\"5378\",\"40\",\"1\",\"Testing\",\"Stims/Figures/111-C-30-3.bmp\",\"ta:ka:ka\",\"Down\",\"40\",\"3\",\"6\",\"5\",\"P\",\"J\",\"54\"
\"\",\"\",\"approach-retreat\",\"203\",\"1583775\",\"0.0-203.0\",\"\",\"\",\"3-2\",\"4583\",\"40\",\"0\",\"Testing\",\"Stims/Figures/44-J-10-3.bmp\",\"mamala\",\"Down\",\"38\",\"3\",\"7\",\"5\",\"S\",\"J\",\"55\"
\"\",\"\",\"approach-retreat\",\"204\",\"1589421\",\"0.0-204.0\",\"\",\"\",\"3-2\",\"4138\",\"40\",\"1\",\"Testing\",\"Stims/Figures/86-J-0-1.bmp\",\"na:la:la\",\"Up\",\"40\",\"3\",\"8\",\"5\",\"S\",\"J\",\"56\"
\"\",\"\",\"approach-retreat\",\"205\",\"1595252\",\"0.0-205.0\",\"\",\"\",\"3-2\",\"4322\",\"37\",\"0\",\"Testing\",\"Stims/Figures/94-J-0-2.bmp\",\"na:lala\",\"Left\",\"39\",\"3\",\"9\",\"5\",\"S\",\"J\",\"57\"
\"\",\"\",\"approach-retreat\",\"206\",\"1601269\",\"0.0-206.0\",\"\",\"\",\"3-2\",\"4512\",\"39\",\"1\",\"Testing\",\"Stims/Figures/87-C-20-4.bmp\",\"ta:pa:ta\",\"Right\",\"39\",\"3\",\"10\",\"5\",\"P\",\"J\",\"58\"
\"\",\"\",\"approach-retreat\",\"207\",\"1607057\",\"0.0-207.0\",\"\",\"\",\"3-2\",\"4281\",\"39\",\"0\",\"Testing\",\"Stims/Figures/139-J-0-2.bmp\",\"mala:na\",\"Right\",\"37\",\"3\",\"11\",\"5\",\"S\",\"J\",\"59\"
\"\",\"\",\"approach-retreat\",\"208\",\"1613213\",\"0.0-208.0\",\"\",\"\",\"3-2\",\"4648\",\"40\",\"1\",\"Testing\",\"Stims/Figures/27-J-0-1.bmp\",\"ma:ma:na\",\"Up\",\"40\",\"3\",\"12\",\"5\",\"S\",\"J\",\"60\"
\"\",\"\",\"approach-retreat\",\"209\",\"1619059\",\"0.0-209.0\",\"\",\"\",\"3-2\",\"4339\",\"37\",\"1\",\"Testing\",\"Stims/Figures/94-C-20-2.bmp\",\"pa:ka:ta\",\"Left\",\"37\",\"3\",\"13\",\"5\",\"P\",\"J\",\"61\"
\"\",\"\",\"approach-retreat\",\"210\",\"1624885\",\"0.0-210.0\",\"\",\"\",\"3-2\",\"4316\",\"37\",\"0\",\"Testing\",\"Stims/Figures/74-J-10-4.bmp\",\"na:lana\",\"Left\",\"39\",\"3\",\"14\",\"5\",\"S\",\"J\",\"62\"
\"\",\"\",\"approach-retreat\",\"211\",\"1630800\",\"0.0-211.0\",\"\",\"\",\"3-2\",\"4408\",\"39\",\"1\",\"Testing\",\"Stims/Figures/27-C-30-1.bmp\",\"ta:paka\",\"Right\",\"39\",\"3\",\"15\",\"5\",\"P\",\"J\",\"63\"
\"\",\"\",\"approach-retreat\",\"212\",\"1636675\",\"0.0-212.0\",\"\",\"\",\"3-2\",\"4367\",\"37\",\"0\",\"Testing\",\"Stims/Figures/144-J-10-3.bmp\",\"nama:la\",\"Left\",\"39\",\"3\",\"16\",\"5\",\"S\",\"J\",\"64\"
\"\",\"\",\"approach-retreat\",\"213\",\"1642453\",\"0.0-213.0\",\"\",\"\",\"3-2\",\"4270\",\"40\",\"1\",\"Testing\",\"Stims/Figures/102-J-10-4.bmp\",\"na:la:na\",\"Up\",\"40\",\"3\",\"17\",\"5\",\"S\",\"J\",\"65\"
\"\",\"\",\"approach-retreat\",\"214\",\"1648333\",\"0.0-214.0\",\"\",\"\",\"3-2\",\"4371\",\"37\",\"1\",\"Testing\",\"Stims/Figures/111-J-10-3.bmp\",\"nalala\",\"Right\",\"37\",\"3\",\"18\",\"5\",\"S\",\"J\",\"66\"
\"\",\"\",\"approach-retreat\",\"215\",\"1654622\",\"0.0-215.0\",\"\",\"\",\"3-2\",\"4781\",\"39\",\"0\",\"Testing\",\"Stims/Figures/85-C-20-2.bmp\",\"ta:kata\",\"Left\",\"37\",\"3\",\"19\",\"5\",\"P\",\"J\",\"67\"
\"\",\"\",\"approach-retreat\",\"216\",\"1660518\",\"0.0-216.0\",\"\",\"\",\"3-2\",\"4388\",\"38\",\"0\",\"Testing\",\"Stims/Figures/86-C-30-1.bmp\",\"paka:ka\",\"Down\",\"40\",\"3\",\"20\",\"5\",\"P\",\"J\",\"68\"
\"\",\"\",\"approach-retreat\",\"217\",\"1666244\",\"0.0-217.0\",\"\",\"\",\"3-2\",\"4219\",\"38\",\"1\",\"Testing\",\"Stims/Figures/44-C-30-3.bmp\",\"pa:pata\",\"Up\",\"38\",\"3\",\"21\",\"5\",\"P\",\"J\",\"69\"
\"\",\"\",\"approach-retreat\",\"218\",\"1673189\",\"0.0-218.0\",\"\",\"\",\"3-2\",\"5439\",\"37\",\"0\",\"Testing\",\"Stims/Figures/144-C-30-3.bmp\",\"pa:kata\",\"Right\",\"39\",\"3\",\"22\",\"5\",\"P\",\"J\",\"70\"
\"\",\"\",\"approach-retreat\",\"219\",\"1682219\",\"0.0-219.0\",\"\",\"\",\"3-2\",\"7525\",\"38\",\"1\",\"Testing\",\"Stims/Figures/74-C-20-4.bmp\",\"tapata\",\"Up\",\"38\",\"3\",\"23\",\"5\",\"P\",\"J\",\"71\"
\"\",\"\",\"approach-retreat\",\"220\",\"1688050\",\"0.0-220.0\",\"\",\"\",\"3-2\",\"4323\",\"37\",\"1\",\"Testing\",\"Stims/Figures/139-C-20-2.bmp\",\"pa:kaka\",\"Left\",\"37\",\"3\",\"24\",\"5\",\"P\",\"J\",\"72\"
\"\",\"\",\"approach-retreat\",\"221\",\"1707434\",\"0.0-221.0\",\"\",\"\",\"3-2\",\"17877\",\"37\",\"0\",\"Testing\",\"Stims/Figures/144-J-10-3.bmp\",\"nama:la\",\"Left\",\"39\",\"4\",\"1\",\"5\",\"S\",\"J\",\"73\"
\"\",\"\",\"approach-retreat\",\"222\",\"1713427\",\"0.0-222.0\",\"\",\"\",\"3-2\",\"4485\",\"37\",\"1\",\"Testing\",\"Stims/Figures/111-J-10-3.bmp\",\"nalala\",\"Right\",\"37\",\"4\",\"2\",\"5\",\"S\",\"J\",\"74\"
\"\",\"\",\"approach-retreat\",\"223\",\"1720599\",\"0.0-223.0\",\"\",\"\",\"3-2\",\"5663\",\"37\",\"0\",\"Testing\",\"Stims/Figures/74-C-20-4.bmp\",\"tapata\",\"Right\",\"39\",\"4\",\"3\",\"5\",\"P\",\"J\",\"75\"
\"\",\"\",\"approach-retreat\",\"224\",\"1726392\",\"0.0-224.0\",\"\",\"\",\"3-2\",\"4285\",\"40\",\"1\",\"Testing\",\"Stims/Figures/87-J-10-4.bmp\",\"ma:la:na\",\"Up\",\"40\",\"4\",\"4\",\"5\",\"S\",\"J\",\"76\"
\"\",\"\",\"approach-retreat\",\"225\",\"1732428\",\"0.0-225.0\",\"\",\"\",\"3-2\",\"4528\",\"37\",\"0\",\"Testing\",\"Stims/Figures/102-J-10-4.bmp\",\"na:la:na\",\"Left\",\"39\",\"4\",\"5\",\"5\",\"S\",\"J\",\"77\"
\"\",\"\",\"approach-retreat\",\"226\",\"1738224\",\"0.0-226.0\",\"\",\"\",\"3-2\",\"4289\",\"38\",\"1\",\"Testing\",\"Stims/Figures/94-J-0-2.bmp\",\"na:lala\",\"Down\",\"38\",\"4\",\"6\",\"5\",\"S\",\"J\",\"78\"
\"\",\"\",\"approach-retreat\",\"227\",\"1744399\",\"0.0-227.0\",\"\",\"\",\"3-2\",\"4667\",\"40\",\"1\",\"Testing\",\"Stims/Figures/44-J-10-3.bmp\",\"mamala\",\"Up\",\"40\",\"4\",\"7\",\"5\",\"S\",\"J\",\"79\"
\"\",\"\",\"approach-retreat\",\"228\",\"1749988\",\"0.0-228.0\",\"\",\"\",\"3-2\",\"4082\",\"40\",\"0\",\"Testing\",\"Stims/Figures/86-C-30-1.bmp\",\"paka:ka\",\"Up\",\"38\",\"4\",\"8\",\"5\",\"P\",\"J\",\"80\"
\"\",\"\",\"approach-retreat\",\"229\",\"1771655\",\"0.0-229.0\",\"\",\"\",\"3-2\",\"20161\",\"40\",\"0\",\"Testing\",\"Stims/Figures/93-J-0-1.bmp\",\"ma:lana\",\"Down\",\"38\",\"4\",\"9\",\"5\",\"S\",\"J\",\"81\"
\"\",\"\",\"approach-retreat\",\"230\",\"1778365\",\"0.0-230.0\",\"\",\"\",\"3-2\",\"5202\",\"38\",\"1\",\"Testing\",\"Stims/Figures/27-J-0-1.bmp\",\"ma:ma:na\",\"Down\",\"38\",\"4\",\"10\",\"5\",\"S\",\"J\",\"82\"
\"\",\"\",\"approach-retreat\",\"231\",\"1784436\",\"0.0-231.0\",\"\",\"\",\"3-2\",\"4565\",\"37\",\"1\",\"Testing\",\"Stims/Figures/74-J-10-4.bmp\",\"na:lana\",\"Right\",\"37\",\"4\",\"11\",\"5\",\"S\",\"J\",\"83\"
\"\",\"\",\"approach-retreat\",\"232\",\"1790927\",\"0.0-232.0\",\"\",\"\",\"3-2\",\"4983\",\"37\",\"1\",\"Testing\",\"Stims/Figures/85-J-0-2.bmp\",\"namala\",\"Right\",\"37\",\"4\",\"12\",\"5\",\"S\",\"J\",\"84\"
\"\",\"\",\"approach-retreat\",\"233\",\"1799135\",\"0.0-233.0\",\"\",\"\",\"3-2\",\"6698\",\"39\",\"0\",\"Testing\",\"Stims/Figures/87-C-20-4.bmp\",\"ta:pa:ta\",\"Left\",\"37\",\"4\",\"13\",\"5\",\"P\",\"J\",\"85\"
\"\",\"\",\"approach-retreat\",\"234\",\"1804947\",\"0.0-234.0\",\"\",\"\",\"3-2\",\"4305\",\"38\",\"0\",\"Testing\",\"Stims/Figures/86-J-0-1.bmp\",\"na:la:la\",\"Up\",\"40\",\"4\",\"14\",\"5\",\"S\",\"J\",\"86\"
\"\",\"\",\"approach-retreat\",\"235\",\"1810646\",\"0.0-235.0\",\"\",\"\",\"3-2\",\"4191\",\"38\",\"1\",\"Testing\",\"Stims/Figures/94-C-20-2.bmp\",\"pa:ka:ta\",\"Up\",\"38\",\"4\",\"15\",\"5\",\"P\",\"J\",\"87\"
\"\",\"\",\"approach-retreat\",\"236\",\"1816686\",\"0.0-236.0\",\"\",\"\",\"3-2\",\"4533\",\"37\",\"1\",\"Testing\",\"Stims/Figures/85-C-20-2.bmp\",\"ta:kata\",\"Left\",\"37\",\"4\",\"16\",\"5\",\"P\",\"J\",\"88\"
\"\",\"\",\"approach-retreat\",\"237\",\"1822431\",\"0.0-237.0\",\"\",\"\",\"3-2\",\"4238\",\"37\",\"1\",\"Testing\",\"Stims/Figures/44-C-30-3.bmp\",\"pa:pata\",\"Left\",\"37\",\"4\",\"17\",\"5\",\"P\",\"J\",\"89\"
\"\",\"\",\"approach-retreat\",\"238\",\"1831641\",\"0.0-238.0\",\"\",\"\",\"3-2\",\"7702\",\"39\",\"1\",\"Testing\",\"Stims/Figures/93-C-30-1.bmp\",\"ta:kaka\",\"Right\",\"39\",\"4\",\"18\",\"5\",\"P\",\"J\",\"90\"
\"\",\"\",\"approach-retreat\",\"239\",\"1837391\",\"0.0-239.0\",\"\",\"\",\"3-2\",\"4241\",\"40\",\"0\",\"Testing\",\"Stims/Figures/139-J-0-2.bmp\",\"mala:na\",\"Down\",\"38\",\"4\",\"19\",\"5\",\"S\",\"J\",\"91\"
\"\",\"\",\"approach-retreat\",\"240\",\"1843069\",\"0.0-240.0\",\"\",\"\",\"3-2\",\"4173\",\"38\",\"0\",\"Testing\",\"Stims/Figures/111-C-30-3.bmp\",\"ta:ka:ka\",\"Down\",\"40\",\"4\",\"20\",\"5\",\"P\",\"J\",\"92\"
\"\",\"\",\"approach-retreat\",\"241\",\"1849273\",\"0.0-241.0\",\"\",\"\",\"3-2\",\"4696\",\"38\",\"0\",\"Testing\",\"Stims/Figures/102-C-20-4.bmp\",\"papa:ta\",\"Down\",\"40\",\"4\",\"21\",\"5\",\"P\",\"J\",\"93\"
\"\",\"\",\"approach-retreat\",\"242\",\"1855977\",\"0.0-242.0\",\"\",\"\",\"3-2\",\"5197\",\"38\",\"1\",\"Testing\",\"Stims/Figures/144-C-30-3.bmp\",\"pa:kata\",\"Up\",\"38\",\"4\",\"22\",\"5\",\"P\",\"J\",\"94\"
\"\",\"\",\"approach-retreat\",\"243\",\"1861868\",\"0.0-243.0\",\"\",\"\",\"3-2\",\"4384\",\"37\",\"1\",\"Testing\",\"Stims/Figures/139-C-20-2.bmp\",\"pa:kaka\",\"Left\",\"37\",\"4\",\"23\",\"5\",\"P\",\"J\",\"95\"
\"\",\"\",\"approach-retreat\",\"244\",\"1867706\",\"0.0-244.0\",\"\",\"\",\"3-2\",\"4329\",\"37\",\"0\",\"Testing\",\"Stims/Figures/27-C-30-1.bmp\",\"ta:paka\",\"Right\",\"39\",\"4\",\"24\",\"5\",\"P\",\"J\",\"96\"
\"21774\",\"\",\"survey-text\",\"245\",\"1889486\",\"0.0-245.0\",\"\",\"{\"\"Q0\"\":\"\"PS170047\"\"}\",\"\",\"\",\"\",\"\",\"\",\"\",\"\",\"\",\"\",\"\",\"\",\"\",\"\",\"\",\"\"
