\"rt\",\"key_press\",\"trial_type\",\"trial_index\",\"time_elapsed\",\"internal_node_id\",\"view_history\",\"responses\",\"Id\",\"Rt\",\"ResKeyCode\",\"ResCorr\",\"TrialType2\",\"Image\",\"Label\",\"Location\",\"CorrectResponse\",\"Block\",\"BlockTrial\",\"Condition\",\"LabelType\",\"Subcondition\",\"trialNum\"
\"89815\",\"32\",\"text\",\"0\",\"89820\",\"0.0-0.0-0.0\",\"\",\"\",\"\",\"\",\"\",\"\",\"\",\"\",\"\",\"\",\"\",\"\",\"\",\"\",\"\",\"\",\"\"
\"95669\",\"\",\"instructions\",\"1\",\"185493\",\"0.0-1.0\",\"[{\"\"page_index\"\":0,\"\"viewing_time\"\":95667}]\",\"\",\"\",\"\",\"\",\"\",\"\",\"\",\"\",\"\",\"\",\"\",\"\",\"\",\"\",\"\",\"\"
\"41920\",\"\",\"survey-multi-choice\",\"2\",\"227451\",\"0.0-2.0\",\"\",\"{\"\"Q0\"\":\"\"Da\"\",\"\"Q1\"\":\"\"Da\"\",\"\"Q2\"\":\"\"Da\"\",\"\"Q3\"\":\"\"Da\"\",\"\"Q4\"\":\"\"Da\"\",\"\"Q5\"\":\"\"Da\"\"}\",\"\",\"\",\"\",\"\",\"\",\"\",\"\",\"\",\"\",\"\",\"\",\"\",\"\",\"\",\"\"
\"\",\"\",\"bio\",\"3\",\"236304\",\"0.0-3.0\",\"\",\"{\"\"age\"\":\"\"19\"\",\"\"gender\"\":\"\"f\"\",\"\"specify\"\":\"\"\"\"}\",\"\",\"\",\"\",\"\",\"\",\"\",\"\",\"\",\"\",\"\",\"\",\"\",\"\",\"\",\"\"
\"\",\"\",\"approach-retreat\",\"4\",\"244342\",\"0.0-4.0\",\"\",\"\",\"2-2\",\"6523\",\"37\",\"1\",\"Training\",\"Stims/Figures/7-J-10-4.bmp\",\"tapa:ka\",\"Right\",\"37\",\"1\",\"1\",\"1\",\"P\",\"J\",\"1\"
\"\",\"\",\"approach-retreat\",\"5\",\"251205\",\"0.0-5.0\",\"\",\"\",\"2-2\",\"5354\",\"38\",\"0\",\"Training\",\"Stims/Figures/44-C-30-3.bmp\",\"mala:na\",\"Down\",\"40\",\"1\",\"2\",\"1\",\"S\",\"J\",\"2\"
\"\",\"\",\"approach-retreat\",\"6\",\"256943\",\"0.0-6.0\",\"\",\"\",\"2-2\",\"4227\",\"37\",\"1\",\"Training\",\"Stims/Figures/144-J-10-3.bmp\",\"tapa:ka\",\"Right\",\"37\",\"1\",\"3\",\"1\",\"P\",\"J\",\"3\"
\"\",\"\",\"approach-retreat\",\"7\",\"263730\",\"0.0-7.0\",\"\",\"\",\"2-2\",\"5276\",\"39\",\"1\",\"Training\",\"Stims/Figures/7-C-20-4.bmp\",\"mala:na\",\"Right\",\"39\",\"1\",\"4\",\"1\",\"S\",\"J\",\"4\"
\"\",\"\",\"approach-retreat\",\"8\",\"270228\",\"0.0-8.0\",\"\",\"\",\"2-2\",\"4988\",\"38\",\"1\",\"Training\",\"Stims/Figures/144-C-30-3.bmp\",\"mala:na\",\"Up\",\"38\",\"1\",\"5\",\"1\",\"S\",\"J\",\"5\"
\"\",\"\",\"approach-retreat\",\"9\",\"276004\",\"0.0-9.0\",\"\",\"\",\"2-2\",\"4265\",\"38\",\"1\",\"Training\",\"Stims/Figures/57-J-0-1.bmp\",\"tapa:ka\",\"Down\",\"38\",\"1\",\"6\",\"1\",\"P\",\"J\",\"6\"
\"\",\"\",\"approach-retreat\",\"10\",\"281689\",\"0.0-10.0\",\"\",\"\",\"2-2\",\"4175\",\"39\",\"1\",\"Training\",\"Stims/Figures/27-C-30-1.bmp\",\"mala:na\",\"Right\",\"39\",\"1\",\"7\",\"1\",\"S\",\"J\",\"7\"
\"\",\"\",\"approach-retreat\",\"11\",\"287744\",\"0.0-11.0\",\"\",\"\",\"2-2\",\"4542\",\"37\",\"1\",\"Training\",\"Stims/Figures/74-C-20-4.bmp\",\"mala:na\",\"Left\",\"37\",\"1\",\"8\",\"1\",\"S\",\"J\",\"8\"
\"\",\"\",\"approach-retreat\",\"12\",\"293452\",\"0.0-12.0\",\"\",\"\",\"2-2\",\"4195\",\"38\",\"1\",\"Training\",\"Stims/Figures/74-J-10-4.bmp\",\"tapa:ka\",\"Down\",\"38\",\"1\",\"9\",\"1\",\"P\",\"J\",\"9\"
\"\",\"\",\"approach-retreat\",\"13\",\"299450\",\"0.0-13.0\",\"\",\"\",\"2-2\",\"4486\",\"38\",\"1\",\"Training\",\"Stims/Figures/139-C-20-2.bmp\",\"mala:na\",\"Up\",\"38\",\"1\",\"10\",\"1\",\"S\",\"J\",\"10\"
\"\",\"\",\"approach-retreat\",\"14\",\"306382\",\"0.0-14.0\",\"\",\"\",\"2-2\",\"5420\",\"40\",\"1\",\"Training\",\"Stims/Figures/139-J-0-2.bmp\",\"tapa:ka\",\"Up\",\"40\",\"1\",\"11\",\"1\",\"P\",\"J\",\"11\"
\"\",\"\",\"approach-retreat\",\"15\",\"312042\",\"0.0-15.0\",\"\",\"\",\"2-2\",\"4155\",\"38\",\"1\",\"Training\",\"Stims/Figures/27-J-0-1.bmp\",\"tapa:ka\",\"Down\",\"38\",\"1\",\"12\",\"1\",\"P\",\"J\",\"12\"
\"\",\"\",\"approach-retreat\",\"16\",\"318966\",\"0.0-16.0\",\"\",\"\",\"2-2\",\"5412\",\"39\",\"1\",\"Training\",\"Stims/Figures/118-J-0-2.bmp\",\"tapa:ka\",\"Left\",\"39\",\"1\",\"13\",\"1\",\"P\",\"J\",\"13\"
\"\",\"\",\"approach-retreat\",\"17\",\"326383\",\"0.0-17.0\",\"\",\"\",\"2-2\",\"5906\",\"38\",\"1\",\"Training\",\"Stims/Figures/118-C-20-2.bmp\",\"mala:na\",\"Up\",\"38\",\"1\",\"14\",\"1\",\"S\",\"J\",\"14\"
\"\",\"\",\"approach-retreat\",\"18\",\"332037\",\"0.0-18.0\",\"\",\"\",\"2-2\",\"4147\",\"39\",\"1\",\"Training\",\"Stims/Figures/44-J-10-3.bmp\",\"tapa:ka\",\"Left\",\"39\",\"1\",\"15\",\"1\",\"P\",\"J\",\"15\"
\"\",\"\",\"approach-retreat\",\"19\",\"338356\",\"0.0-19.0\",\"\",\"\",\"2-2\",\"4808\",\"37\",\"1\",\"Training\",\"Stims/Figures/57-C-30-1.bmp\",\"mala:na\",\"Left\",\"37\",\"1\",\"16\",\"1\",\"S\",\"J\",\"16\"
\"\",\"\",\"approach-retreat\",\"20\",\"344269\",\"0.0-20.0\",\"\",\"\",\"2-2\",\"4402\",\"38\",\"1\",\"Training\",\"Stims/Figures/118-C-20-2.bmp\",\"mala:na\",\"Up\",\"38\",\"2\",\"1\",\"1\",\"S\",\"J\",\"17\"
\"\",\"\",\"approach-retreat\",\"21\",\"349954\",\"0.0-21.0\",\"\",\"\",\"2-2\",\"4174\",\"38\",\"1\",\"Training\",\"Stims/Figures/144-J-10-3.bmp\",\"tapa:ka\",\"Down\",\"38\",\"2\",\"2\",\"1\",\"P\",\"J\",\"18\"
\"\",\"\",\"approach-retreat\",\"22\",\"355620\",\"0.0-22.0\",\"\",\"\",\"2-2\",\"4156\",\"38\",\"1\",\"Training\",\"Stims/Figures/57-J-0-1.bmp\",\"tapa:ka\",\"Down\",\"38\",\"2\",\"3\",\"1\",\"P\",\"J\",\"19\"
\"\",\"\",\"approach-retreat\",\"23\",\"361167\",\"0.0-23.0\",\"\",\"\",\"2-2\",\"4035\",\"37\",\"1\",\"Training\",\"Stims/Figures/74-J-10-4.bmp\",\"tapa:ka\",\"Right\",\"37\",\"2\",\"4\",\"1\",\"P\",\"J\",\"20\"
\"\",\"\",\"approach-retreat\",\"24\",\"366646\",\"0.0-24.0\",\"\",\"\",\"2-2\",\"3969\",\"37\",\"1\",\"Training\",\"Stims/Figures/118-J-0-2.bmp\",\"tapa:ka\",\"Right\",\"37\",\"2\",\"5\",\"1\",\"P\",\"J\",\"21\"
\"\",\"\",\"approach-retreat\",\"25\",\"372276\",\"0.0-25.0\",\"\",\"\",\"2-2\",\"4118\",\"39\",\"1\",\"Training\",\"Stims/Figures/57-C-30-1.bmp\",\"mala:na\",\"Right\",\"39\",\"2\",\"6\",\"1\",\"S\",\"J\",\"22\"
\"\",\"\",\"approach-retreat\",\"26\",\"377934\",\"0.0-26.0\",\"\",\"\",\"2-2\",\"4151\",\"39\",\"1\",\"Training\",\"Stims/Figures/7-J-10-4.bmp\",\"tapa:ka\",\"Left\",\"39\",\"2\",\"7\",\"1\",\"P\",\"J\",\"23\"
\"\",\"\",\"approach-retreat\",\"27\",\"383515\",\"0.0-27.0\",\"\",\"\",\"2-2\",\"4073\",\"38\",\"1\",\"Training\",\"Stims/Figures/44-J-10-3.bmp\",\"tapa:ka\",\"Down\",\"38\",\"2\",\"8\",\"1\",\"P\",\"J\",\"24\"
\"\",\"\",\"approach-retreat\",\"28\",\"389011\",\"0.0-28.0\",\"\",\"\",\"2-2\",\"3990\",\"39\",\"1\",\"Training\",\"Stims/Figures/27-J-0-1.bmp\",\"tapa:ka\",\"Left\",\"39\",\"2\",\"9\",\"1\",\"P\",\"J\",\"25\"
\"\",\"\",\"approach-retreat\",\"29\",\"395421\",\"0.0-29.0\",\"\",\"\",\"2-2\",\"4897\",\"38\",\"1\",\"Training\",\"Stims/Figures/74-C-20-4.bmp\",\"mala:na\",\"Up\",\"38\",\"2\",\"10\",\"1\",\"S\",\"J\",\"26\"
\"\",\"\",\"approach-retreat\",\"30\",\"401120\",\"0.0-30.0\",\"\",\"\",\"2-2\",\"4189\",\"37\",\"1\",\"Training\",\"Stims/Figures/44-C-30-3.bmp\",\"mala:na\",\"Left\",\"37\",\"2\",\"11\",\"1\",\"S\",\"J\",\"27\"
\"\",\"\",\"approach-retreat\",\"31\",\"407245\",\"0.0-31.0\",\"\",\"\",\"2-2\",\"4614\",\"38\",\"1\",\"Training\",\"Stims/Figures/7-C-20-4.bmp\",\"mala:na\",\"Up\",\"38\",\"2\",\"12\",\"1\",\"S\",\"J\",\"28\"
\"\",\"\",\"approach-retreat\",\"32\",\"413051\",\"0.0-32.0\",\"\",\"\",\"2-2\",\"4296\",\"37\",\"1\",\"Training\",\"Stims/Figures/139-J-0-2.bmp\",\"tapa:ka\",\"Right\",\"37\",\"2\",\"13\",\"1\",\"P\",\"J\",\"29\"
\"\",\"\",\"approach-retreat\",\"33\",\"418991\",\"0.0-33.0\",\"\",\"\",\"2-2\",\"4429\",\"38\",\"1\",\"Training\",\"Stims/Figures/144-C-30-3.bmp\",\"mala:na\",\"Up\",\"38\",\"2\",\"14\",\"1\",\"S\",\"J\",\"30\"
\"\",\"\",\"approach-retreat\",\"34\",\"424564\",\"0.0-34.0\",\"\",\"\",\"2-2\",\"4061\",\"37\",\"1\",\"Training\",\"Stims/Figures/139-C-20-2.bmp\",\"mala:na\",\"Left\",\"37\",\"2\",\"15\",\"1\",\"S\",\"J\",\"31\"
\"\",\"\",\"approach-retreat\",\"35\",\"430950\",\"0.0-35.0\",\"\",\"\",\"2-2\",\"4875\",\"40\",\"1\",\"Training\",\"Stims/Figures/27-C-30-1.bmp\",\"mala:na\",\"Down\",\"40\",\"2\",\"16\",\"1\",\"S\",\"J\",\"32\"
\"\",\"\",\"approach-retreat\",\"36\",\"436640\",\"0.0-36.0\",\"\",\"\",\"2-2\",\"4173\",\"39\",\"1\",\"Training\",\"Stims/Figures/118-C-20-2.bmp\",\"mala:na\",\"Right\",\"39\",\"3\",\"1\",\"1\",\"S\",\"J\",\"33\"
\"\",\"\",\"approach-retreat\",\"37\",\"442359\",\"0.0-37.0\",\"\",\"\",\"2-2\",\"4208\",\"37\",\"1\",\"Training\",\"Stims/Figures/144-C-30-3.bmp\",\"mala:na\",\"Left\",\"37\",\"3\",\"2\",\"1\",\"S\",\"J\",\"34\"
\"\",\"\",\"approach-retreat\",\"38\",\"448111\",\"0.0-38.0\",\"\",\"\",\"2-2\",\"4239\",\"39\",\"1\",\"Training\",\"Stims/Figures/27-J-0-1.bmp\",\"tapa:ka\",\"Left\",\"39\",\"3\",\"3\",\"1\",\"P\",\"J\",\"35\"
\"\",\"\",\"approach-retreat\",\"39\",\"453953\",\"0.0-39.0\",\"\",\"\",\"2-2\",\"4332\",\"37\",\"1\",\"Training\",\"Stims/Figures/44-J-10-3.bmp\",\"tapa:ka\",\"Right\",\"37\",\"3\",\"4\",\"1\",\"P\",\"J\",\"36\"
\"\",\"\",\"approach-retreat\",\"40\",\"460018\",\"0.0-40.0\",\"\",\"\",\"2-2\",\"4552\",\"40\",\"1\",\"Training\",\"Stims/Figures/57-J-0-1.bmp\",\"tapa:ka\",\"Up\",\"40\",\"3\",\"5\",\"1\",\"P\",\"J\",\"37\"
\"\",\"\",\"approach-retreat\",\"41\",\"466446\",\"0.0-41.0\",\"\",\"\",\"2-2\",\"4917\",\"37\",\"1\",\"Training\",\"Stims/Figures/74-J-10-4.bmp\",\"tapa:ka\",\"Right\",\"37\",\"3\",\"6\",\"1\",\"P\",\"J\",\"38\"
\"\",\"\",\"approach-retreat\",\"42\",\"472220\",\"0.0-42.0\",\"\",\"\",\"2-2\",\"4264\",\"38\",\"1\",\"Training\",\"Stims/Figures/139-J-0-2.bmp\",\"tapa:ka\",\"Down\",\"38\",\"3\",\"7\",\"1\",\"P\",\"J\",\"39\"
\"\",\"\",\"approach-retreat\",\"43\",\"477997\",\"0.0-43.0\",\"\",\"\",\"2-2\",\"4265\",\"40\",\"1\",\"Training\",\"Stims/Figures/144-J-10-3.bmp\",\"tapa:ka\",\"Up\",\"40\",\"3\",\"8\",\"1\",\"P\",\"J\",\"40\"
\"\",\"\",\"approach-retreat\",\"44\",\"483845\",\"0.0-44.0\",\"\",\"\",\"2-2\",\"4337\",\"38\",\"1\",\"Training\",\"Stims/Figures/27-C-30-1.bmp\",\"mala:na\",\"Up\",\"38\",\"3\",\"9\",\"1\",\"S\",\"J\",\"41\"
\"\",\"\",\"approach-retreat\",\"45\",\"489575\",\"0.0-45.0\",\"\",\"\",\"2-2\",\"4217\",\"38\",\"1\",\"Training\",\"Stims/Figures/118-J-0-2.bmp\",\"tapa:ka\",\"Down\",\"38\",\"3\",\"10\",\"1\",\"P\",\"J\",\"42\"
\"\",\"\",\"approach-retreat\",\"46\",\"495376\",\"0.0-46.0\",\"\",\"\",\"2-2\",\"4296\",\"38\",\"1\",\"Training\",\"Stims/Figures/74-C-20-4.bmp\",\"mala:na\",\"Up\",\"38\",\"3\",\"11\",\"1\",\"S\",\"J\",\"43\"
\"\",\"\",\"approach-retreat\",\"47\",\"500957\",\"0.0-47.0\",\"\",\"\",\"2-2\",\"4069\",\"39\",\"1\",\"Training\",\"Stims/Figures/57-C-30-1.bmp\",\"mala:na\",\"Right\",\"39\",\"3\",\"12\",\"1\",\"S\",\"J\",\"44\"
\"\",\"\",\"approach-retreat\",\"48\",\"507497\",\"0.0-48.0\",\"\",\"\",\"2-2\",\"5029\",\"40\",\"1\",\"Training\",\"Stims/Figures/7-C-20-4.bmp\",\"mala:na\",\"Down\",\"40\",\"3\",\"13\",\"1\",\"S\",\"J\",\"45\"
\"\",\"\",\"approach-retreat\",\"49\",\"513271\",\"0.0-49.0\",\"\",\"\",\"2-2\",\"4262\",\"37\",\"1\",\"Training\",\"Stims/Figures/44-C-30-3.bmp\",\"mala:na\",\"Left\",\"37\",\"3\",\"14\",\"1\",\"S\",\"J\",\"46\"
\"\",\"\",\"approach-retreat\",\"50\",\"519532\",\"0.0-50.0\",\"\",\"\",\"2-2\",\"4749\",\"37\",\"0\",\"Training\",\"Stims/Figures/7-J-10-4.bmp\",\"tapa:ka\",\"Left\",\"39\",\"3\",\"15\",\"1\",\"P\",\"J\",\"47\"
\"\",\"\",\"approach-retreat\",\"51\",\"526469\",\"0.0-51.0\",\"\",\"\",\"2-2\",\"5426\",\"40\",\"1\",\"Training\",\"Stims/Figures/139-C-20-2.bmp\",\"mala:na\",\"Down\",\"40\",\"3\",\"16\",\"1\",\"S\",\"J\",\"48\"
\"\",\"\",\"approach-retreat\",\"52\",\"532074\",\"0.0-52.0\",\"\",\"\",\"2-2\",\"4093\",\"40\",\"1\",\"Training\",\"Stims/Figures/144-C-30-3.bmp\",\"mala:na\",\"Down\",\"40\",\"4\",\"1\",\"1\",\"S\",\"J\",\"49\"
\"\",\"\",\"approach-retreat\",\"53\",\"538204\",\"0.0-53.0\",\"\",\"\",\"2-2\",\"4619\",\"40\",\"1\",\"Training\",\"Stims/Figures/74-J-10-4.bmp\",\"tapa:ka\",\"Up\",\"40\",\"4\",\"2\",\"1\",\"P\",\"J\",\"50\"
\"\",\"\",\"approach-retreat\",\"54\",\"544288\",\"0.0-54.0\",\"\",\"\",\"2-2\",\"4572\",\"39\",\"0\",\"Training\",\"Stims/Figures/44-J-10-3.bmp\",\"tapa:ka\",\"Right\",\"37\",\"4\",\"3\",\"1\",\"P\",\"J\",\"51\"
\"\",\"\",\"approach-retreat\",\"55\",\"551356\",\"0.0-55.0\",\"\",\"\",\"2-2\",\"5557\",\"40\",\"1\",\"Training\",\"Stims/Figures/7-C-20-4.bmp\",\"mala:na\",\"Down\",\"40\",\"4\",\"4\",\"1\",\"S\",\"J\",\"52\"
\"\",\"\",\"approach-retreat\",\"56\",\"558423\",\"0.0-56.0\",\"\",\"\",\"2-2\",\"5555\",\"40\",\"1\",\"Training\",\"Stims/Figures/57-C-30-1.bmp\",\"mala:na\",\"Down\",\"40\",\"4\",\"5\",\"1\",\"S\",\"J\",\"53\"
\"\",\"\",\"approach-retreat\",\"57\",\"564097\",\"0.0-57.0\",\"\",\"\",\"2-2\",\"4162\",\"37\",\"1\",\"Training\",\"Stims/Figures/118-J-0-2.bmp\",\"tapa:ka\",\"Right\",\"37\",\"4\",\"6\",\"1\",\"P\",\"J\",\"54\"
\"\",\"\",\"approach-retreat\",\"58\",\"569935\",\"0.0-58.0\",\"\",\"\",\"2-2\",\"4323\",\"40\",\"1\",\"Training\",\"Stims/Figures/7-J-10-4.bmp\",\"tapa:ka\",\"Up\",\"40\",\"4\",\"7\",\"1\",\"P\",\"J\",\"55\"
\"\",\"\",\"approach-retreat\",\"59\",\"576153\",\"0.0-59.0\",\"\",\"\",\"2-2\",\"4707\",\"38\",\"1\",\"Training\",\"Stims/Figures/139-C-20-2.bmp\",\"mala:na\",\"Up\",\"38\",\"4\",\"8\",\"1\",\"S\",\"J\",\"56\"
\"\",\"\",\"approach-retreat\",\"60\",\"581822\",\"0.0-60.0\",\"\",\"\",\"2-2\",\"4159\",\"37\",\"1\",\"Training\",\"Stims/Figures/27-C-30-1.bmp\",\"mala:na\",\"Left\",\"37\",\"4\",\"9\",\"1\",\"S\",\"J\",\"57\"
\"\",\"\",\"approach-retreat\",\"61\",\"587448\",\"0.0-61.0\",\"\",\"\",\"2-2\",\"4115\",\"37\",\"1\",\"Training\",\"Stims/Figures/74-C-20-4.bmp\",\"mala:na\",\"Left\",\"37\",\"4\",\"10\",\"1\",\"S\",\"J\",\"58\"
\"\",\"\",\"approach-retreat\",\"62\",\"593335\",\"0.0-62.0\",\"\",\"\",\"2-2\",\"4376\",\"39\",\"1\",\"Training\",\"Stims/Figures/139-J-0-2.bmp\",\"tapa:ka\",\"Left\",\"39\",\"4\",\"11\",\"1\",\"P\",\"J\",\"59\"
\"\",\"\",\"approach-retreat\",\"63\",\"599514\",\"0.0-63.0\",\"\",\"\",\"2-2\",\"4669\",\"37\",\"1\",\"Training\",\"Stims/Figures/44-C-30-3.bmp\",\"mala:na\",\"Left\",\"37\",\"4\",\"12\",\"1\",\"S\",\"J\",\"60\"
\"\",\"\",\"approach-retreat\",\"64\",\"605417\",\"0.0-64.0\",\"\",\"\",\"2-2\",\"4397\",\"40\",\"1\",\"Training\",\"Stims/Figures/144-J-10-3.bmp\",\"tapa:ka\",\"Up\",\"40\",\"4\",\"13\",\"1\",\"P\",\"J\",\"61\"
\"\",\"\",\"approach-retreat\",\"65\",\"611221\",\"0.0-65.0\",\"\",\"\",\"2-2\",\"4292\",\"38\",\"1\",\"Training\",\"Stims/Figures/57-J-0-1.bmp\",\"tapa:ka\",\"Down\",\"38\",\"4\",\"14\",\"1\",\"P\",\"J\",\"62\"
\"\",\"\",\"approach-retreat\",\"66\",\"616714\",\"0.0-66.0\",\"\",\"\",\"2-2\",\"3981\",\"37\",\"1\",\"Training\",\"Stims/Figures/27-J-0-1.bmp\",\"tapa:ka\",\"Right\",\"37\",\"4\",\"15\",\"1\",\"P\",\"J\",\"63\"
\"\",\"\",\"approach-retreat\",\"67\",\"622295\",\"0.0-67.0\",\"\",\"\",\"2-2\",\"4069\",\"39\",\"1\",\"Training\",\"Stims/Figures/118-C-20-2.bmp\",\"mala:na\",\"Right\",\"39\",\"4\",\"16\",\"1\",\"S\",\"J\",\"64\"
\"\",\"\",\"approach-retreat\",\"68\",\"628105\",\"0.0-68.0\",\"\",\"\",\"2-2\",\"4298\",\"40\",\"1\",\"Training\",\"Stims/Figures/139-J-0-2.bmp\",\"tapa:ka\",\"Up\",\"40\",\"5\",\"1\",\"1\",\"P\",\"J\",\"65\"
\"\",\"\",\"approach-retreat\",\"69\",\"633779\",\"0.0-69.0\",\"\",\"\",\"2-2\",\"4163\",\"40\",\"1\",\"Training\",\"Stims/Figures/44-J-10-3.bmp\",\"tapa:ka\",\"Up\",\"40\",\"5\",\"2\",\"1\",\"P\",\"J\",\"66\"
\"\",\"\",\"approach-retreat\",\"70\",\"639401\",\"0.0-70.0\",\"\",\"\",\"2-2\",\"4109\",\"37\",\"1\",\"Training\",\"Stims/Figures/144-J-10-3.bmp\",\"tapa:ka\",\"Right\",\"37\",\"5\",\"3\",\"1\",\"P\",\"J\",\"67\"
\"\",\"\",\"approach-retreat\",\"71\",\"645007\",\"0.0-71.0\",\"\",\"\",\"2-2\",\"4097\",\"40\",\"1\",\"Training\",\"Stims/Figures/7-J-10-4.bmp\",\"tapa:ka\",\"Up\",\"40\",\"5\",\"4\",\"1\",\"P\",\"J\",\"68\"
\"\",\"\",\"approach-retreat\",\"72\",\"650598\",\"0.0-72.0\",\"\",\"\",\"2-2\",\"4084\",\"37\",\"1\",\"Training\",\"Stims/Figures/27-J-0-1.bmp\",\"tapa:ka\",\"Right\",\"37\",\"5\",\"5\",\"1\",\"P\",\"J\",\"69\"
\"\",\"\",\"approach-retreat\",\"73\",\"656537\",\"0.0-73.0\",\"\",\"\",\"2-2\",\"4428\",\"40\",\"1\",\"Training\",\"Stims/Figures/144-C-30-3.bmp\",\"mala:na\",\"Down\",\"40\",\"5\",\"6\",\"1\",\"S\",\"J\",\"70\"
\"\",\"\",\"approach-retreat\",\"74\",\"662487\",\"0.0-74.0\",\"\",\"\",\"2-2\",\"4437\",\"39\",\"1\",\"Training\",\"Stims/Figures/74-C-20-4.bmp\",\"mala:na\",\"Right\",\"39\",\"5\",\"7\",\"1\",\"S\",\"J\",\"71\"
\"\",\"\",\"approach-retreat\",\"75\",\"668080\",\"0.0-75.0\",\"\",\"\",\"2-2\",\"4082\",\"37\",\"1\",\"Training\",\"Stims/Figures/118-C-20-2.bmp\",\"mala:na\",\"Left\",\"37\",\"5\",\"8\",\"1\",\"S\",\"J\",\"72\"
\"\",\"\",\"approach-retreat\",\"76\",\"674595\",\"0.0-76.0\",\"\",\"\",\"2-2\",\"5005\",\"37\",\"1\",\"Training\",\"Stims/Figures/74-J-10-4.bmp\",\"tapa:ka\",\"Right\",\"37\",\"5\",\"9\",\"1\",\"P\",\"J\",\"73\"
\"\",\"\",\"approach-retreat\",\"77\",\"681102\",\"0.0-77.0\",\"\",\"\",\"2-2\",\"4996\",\"40\",\"1\",\"Training\",\"Stims/Figures/7-C-20-4.bmp\",\"mala:na\",\"Down\",\"40\",\"5\",\"10\",\"1\",\"S\",\"J\",\"74\"
\"\",\"\",\"approach-retreat\",\"78\",\"686741\",\"0.0-78.0\",\"\",\"\",\"2-2\",\"4128\",\"37\",\"1\",\"Training\",\"Stims/Figures/27-C-30-1.bmp\",\"mala:na\",\"Left\",\"37\",\"5\",\"11\",\"1\",\"S\",\"J\",\"75\"
\"\",\"\",\"approach-retreat\",\"79\",\"692493\",\"0.0-79.0\",\"\",\"\",\"2-2\",\"4242\",\"40\",\"1\",\"Training\",\"Stims/Figures/57-J-0-1.bmp\",\"tapa:ka\",\"Up\",\"40\",\"5\",\"12\",\"1\",\"P\",\"J\",\"76\"
\"\",\"\",\"approach-retreat\",\"80\",\"698822\",\"0.0-80.0\",\"\",\"\",\"2-2\",\"4816\",\"40\",\"1\",\"Training\",\"Stims/Figures/57-C-30-1.bmp\",\"mala:na\",\"Down\",\"40\",\"5\",\"13\",\"1\",\"S\",\"J\",\"77\"
\"\",\"\",\"approach-retreat\",\"81\",\"705056\",\"0.0-81.0\",\"\",\"\",\"2-2\",\"4723\",\"37\",\"1\",\"Training\",\"Stims/Figures/139-C-20-2.bmp\",\"mala:na\",\"Left\",\"37\",\"5\",\"14\",\"1\",\"S\",\"J\",\"78\"
\"\",\"\",\"approach-retreat\",\"82\",\"711306\",\"0.0-82.0\",\"\",\"\",\"2-2\",\"4740\",\"37\",\"0\",\"Training\",\"Stims/Figures/118-J-0-2.bmp\",\"tapa:ka\",\"Left\",\"39\",\"5\",\"15\",\"1\",\"P\",\"J\",\"79\"
\"\",\"\",\"approach-retreat\",\"83\",\"717054\",\"0.0-83.0\",\"\",\"\",\"2-2\",\"4238\",\"40\",\"1\",\"Training\",\"Stims/Figures/44-C-30-3.bmp\",\"mala:na\",\"Down\",\"40\",\"5\",\"16\",\"1\",\"S\",\"J\",\"80\"
\"\",\"\",\"approach-retreat\",\"84\",\"722640\",\"0.0-84.0\",\"\",\"\",\"2-2\",\"4075\",\"37\",\"1\",\"Training\",\"Stims/Figures/144-C-30-3.bmp\",\"mala:na\",\"Left\",\"37\",\"6\",\"1\",\"1\",\"S\",\"J\",\"81\"
\"\",\"\",\"approach-retreat\",\"85\",\"728266\",\"0.0-85.0\",\"\",\"\",\"2-2\",\"4115\",\"39\",\"1\",\"Training\",\"Stims/Figures/44-C-30-3.bmp\",\"mala:na\",\"Right\",\"39\",\"6\",\"2\",\"1\",\"S\",\"J\",\"82\"
\"\",\"\",\"approach-retreat\",\"86\",\"734095\",\"0.0-86.0\",\"\",\"\",\"2-2\",\"4314\",\"38\",\"1\",\"Training\",\"Stims/Figures/57-C-30-1.bmp\",\"mala:na\",\"Up\",\"38\",\"6\",\"3\",\"1\",\"S\",\"J\",\"83\"
\"\",\"\",\"approach-retreat\",\"87\",\"740168\",\"0.0-87.0\",\"\",\"\",\"2-2\",\"4562\",\"38\",\"1\",\"Training\",\"Stims/Figures/144-J-10-3.bmp\",\"tapa:ka\",\"Down\",\"38\",\"6\",\"4\",\"1\",\"P\",\"J\",\"84\"
\"\",\"\",\"approach-retreat\",\"88\",\"747099\",\"0.0-88.0\",\"\",\"\",\"2-2\",\"5419\",\"40\",\"0\",\"Training\",\"Stims/Figures/7-C-20-4.bmp\",\"mala:na\",\"Up\",\"38\",\"6\",\"5\",\"1\",\"S\",\"J\",\"85\"
\"\",\"\",\"approach-retreat\",\"89\",\"753138\",\"0.0-89.0\",\"\",\"\",\"2-2\",\"4528\",\"40\",\"1\",\"Training\",\"Stims/Figures/27-C-30-1.bmp\",\"mala:na\",\"Down\",\"40\",\"6\",\"6\",\"1\",\"S\",\"J\",\"86\"
\"\",\"\",\"approach-retreat\",\"90\",\"758994\",\"0.0-90.0\",\"\",\"\",\"2-2\",\"4344\",\"37\",\"1\",\"Training\",\"Stims/Figures/139-C-20-2.bmp\",\"mala:na\",\"Left\",\"37\",\"6\",\"7\",\"1\",\"S\",\"J\",\"87\"
\"\",\"\",\"approach-retreat\",\"91\",\"764514\",\"0.0-91.0\",\"\",\"\",\"2-2\",\"4008\",\"37\",\"1\",\"Training\",\"Stims/Figures/139-J-0-2.bmp\",\"tapa:ka\",\"Right\",\"37\",\"6\",\"8\",\"1\",\"P\",\"J\",\"88\"
\"\",\"\",\"approach-retreat\",\"92\",\"770725\",\"0.0-92.0\",\"\",\"\",\"2-2\",\"4700\",\"37\",\"1\",\"Training\",\"Stims/Figures/118-C-20-2.bmp\",\"mala:na\",\"Left\",\"37\",\"6\",\"9\",\"1\",\"S\",\"J\",\"89\"
\"\",\"\",\"approach-retreat\",\"93\",\"777280\",\"0.0-93.0\",\"\",\"\",\"2-2\",\"5046\",\"39\",\"1\",\"Training\",\"Stims/Figures/74-C-20-4.bmp\",\"mala:na\",\"Right\",\"39\",\"6\",\"10\",\"1\",\"S\",\"J\",\"90\"
\"\",\"\",\"approach-retreat\",\"94\",\"783912\",\"0.0-94.0\",\"\",\"\",\"2-2\",\"5121\",\"38\",\"1\",\"Training\",\"Stims/Figures/7-J-10-4.bmp\",\"tapa:ka\",\"Down\",\"38\",\"6\",\"11\",\"1\",\"P\",\"J\",\"91\"
\"\",\"\",\"approach-retreat\",\"95\",\"789931\",\"0.0-95.0\",\"\",\"\",\"2-2\",\"4508\",\"40\",\"1\",\"Training\",\"Stims/Figures/27-J-0-1.bmp\",\"tapa:ka\",\"Up\",\"40\",\"6\",\"12\",\"1\",\"P\",\"J\",\"92\"
\"\",\"\",\"approach-retreat\",\"96\",\"795522\",\"0.0-96.0\",\"\",\"\",\"2-2\",\"4078\",\"40\",\"1\",\"Training\",\"Stims/Figures/44-J-10-3.bmp\",\"tapa:ka\",\"Up\",\"40\",\"6\",\"13\",\"1\",\"P\",\"J\",\"93\"
\"\",\"\",\"approach-retreat\",\"97\",\"801519\",\"0.0-97.0\",\"\",\"\",\"2-2\",\"4488\",\"38\",\"1\",\"Training\",\"Stims/Figures/57-J-0-1.bmp\",\"tapa:ka\",\"Down\",\"38\",\"6\",\"14\",\"1\",\"P\",\"J\",\"94\"
\"\",\"\",\"approach-retreat\",\"98\",\"807116\",\"0.0-98.0\",\"\",\"\",\"2-2\",\"4087\",\"39\",\"1\",\"Training\",\"Stims/Figures/74-J-10-4.bmp\",\"tapa:ka\",\"Left\",\"39\",\"6\",\"15\",\"1\",\"P\",\"J\",\"95\"
\"\",\"\",\"approach-retreat\",\"99\",\"812679\",\"0.0-99.0\",\"\",\"\",\"2-2\",\"4050\",\"37\",\"1\",\"Training\",\"Stims/Figures/118-J-0-2.bmp\",\"tapa:ka\",\"Right\",\"37\",\"6\",\"16\",\"1\",\"P\",\"J\",\"96\"
\"\",\"\",\"approach-retreat\",\"100\",\"818381\",\"0.0-100.0\",\"\",\"\",\"2-2\",\"4190\",\"37\",\"1\",\"Training\",\"Stims/Figures/118-C-20-2.bmp\",\"mala:na\",\"Left\",\"37\",\"7\",\"1\",\"1\",\"S\",\"J\",\"97\"
\"\",\"\",\"approach-retreat\",\"101\",\"824371\",\"0.0-101.0\",\"\",\"\",\"2-2\",\"4479\",\"38\",\"1\",\"Training\",\"Stims/Figures/139-C-20-2.bmp\",\"mala:na\",\"Up\",\"38\",\"7\",\"2\",\"1\",\"S\",\"J\",\"98\"
\"\",\"\",\"approach-retreat\",\"102\",\"830160\",\"0.0-102.0\",\"\",\"\",\"2-2\",\"4279\",\"40\",\"1\",\"Training\",\"Stims/Figures/7-C-20-4.bmp\",\"mala:na\",\"Down\",\"40\",\"7\",\"3\",\"1\",\"S\",\"J\",\"99\"
\"\",\"\",\"approach-retreat\",\"103\",\"837587\",\"0.0-103.0\",\"\",\"\",\"2-2\",\"5917\",\"37\",\"0\",\"Training\",\"Stims/Figures/27-J-0-1.bmp\",\"tapa:ka\",\"Left\",\"39\",\"7\",\"4\",\"1\",\"P\",\"J\",\"100\"
\"\",\"\",\"approach-retreat\",\"104\",\"843332\",\"0.0-104.0\",\"\",\"\",\"2-2\",\"4234\",\"39\",\"1\",\"Training\",\"Stims/Figures/44-C-30-3.bmp\",\"mala:na\",\"Right\",\"39\",\"7\",\"5\",\"1\",\"S\",\"J\",\"101\"
\"\",\"\",\"approach-retreat\",\"105\",\"849022\",\"0.0-105.0\",\"\",\"\",\"2-2\",\"4180\",\"38\",\"1\",\"Training\",\"Stims/Figures/74-J-10-4.bmp\",\"tapa:ka\",\"Down\",\"38\",\"7\",\"6\",\"1\",\"P\",\"J\",\"102\"
\"\",\"\",\"approach-retreat\",\"106\",\"855486\",\"0.0-106.0\",\"\",\"\",\"2-2\",\"4952\",\"40\",\"1\",\"Training\",\"Stims/Figures/7-J-10-4.bmp\",\"tapa:ka\",\"Up\",\"40\",\"7\",\"7\",\"1\",\"P\",\"J\",\"103\"
\"\",\"\",\"approach-retreat\",\"107\",\"861495\",\"0.0-107.0\",\"\",\"\",\"2-2\",\"4497\",\"38\",\"1\",\"Training\",\"Stims/Figures/27-C-30-1.bmp\",\"mala:na\",\"Up\",\"38\",\"7\",\"8\",\"1\",\"S\",\"J\",\"104\"
\"\",\"\",\"approach-retreat\",\"108\",\"867075\",\"0.0-108.0\",\"\",\"\",\"2-2\",\"4068\",\"37\",\"1\",\"Training\",\"Stims/Figures/144-J-10-3.bmp\",\"tapa:ka\",\"Right\",\"37\",\"7\",\"9\",\"1\",\"P\",\"J\",\"105\"
\"\",\"\",\"approach-retreat\",\"109\",\"873782\",\"0.0-109.0\",\"\",\"\",\"2-2\",\"5197\",\"38\",\"1\",\"Training\",\"Stims/Figures/57-C-30-1.bmp\",\"mala:na\",\"Up\",\"38\",\"7\",\"10\",\"1\",\"S\",\"J\",\"106\"
\"\",\"\",\"approach-retreat\",\"110\",\"879717\",\"0.0-110.0\",\"\",\"\",\"2-2\",\"4424\",\"37\",\"1\",\"Training\",\"Stims/Figures/74-C-20-4.bmp\",\"mala:na\",\"Left\",\"37\",\"7\",\"11\",\"1\",\"S\",\"J\",\"107\"
\"\",\"\",\"approach-retreat\",\"111\",\"885610\",\"0.0-111.0\",\"\",\"\",\"2-2\",\"4382\",\"38\",\"1\",\"Training\",\"Stims/Figures/118-J-0-2.bmp\",\"tapa:ka\",\"Down\",\"38\",\"7\",\"12\",\"1\",\"P\",\"J\",\"108\"
\"\",\"\",\"approach-retreat\",\"112\",\"891274\",\"0.0-112.0\",\"\",\"\",\"2-2\",\"4151\",\"38\",\"1\",\"Training\",\"Stims/Figures/57-J-0-1.bmp\",\"tapa:ka\",\"Down\",\"38\",\"7\",\"13\",\"1\",\"P\",\"J\",\"109\"
\"\",\"\",\"approach-retreat\",\"113\",\"896748\",\"0.0-113.0\",\"\",\"\",\"2-2\",\"3962\",\"37\",\"1\",\"Training\",\"Stims/Figures/44-J-10-3.bmp\",\"tapa:ka\",\"Right\",\"37\",\"7\",\"14\",\"1\",\"P\",\"J\",\"110\"
\"\",\"\",\"approach-retreat\",\"114\",\"902648\",\"0.0-114.0\",\"\",\"\",\"2-2\",\"4388\",\"39\",\"1\",\"Training\",\"Stims/Figures/144-C-30-3.bmp\",\"mala:na\",\"Right\",\"39\",\"7\",\"15\",\"1\",\"S\",\"J\",\"111\"
\"\",\"\",\"approach-retreat\",\"115\",\"908710\",\"0.0-115.0\",\"\",\"\",\"2-2\",\"4551\",\"39\",\"1\",\"Training\",\"Stims/Figures/139-J-0-2.bmp\",\"tapa:ka\",\"Left\",\"39\",\"7\",\"16\",\"1\",\"P\",\"J\",\"112\"
\"\",\"\",\"approach-retreat\",\"116\",\"914815\",\"0.0-116.0\",\"\",\"\",\"2-2\",\"4595\",\"38\",\"1\",\"Training\",\"Stims/Figures/7-J-10-4.bmp\",\"tapa:ka\",\"Down\",\"38\",\"8\",\"1\",\"1\",\"P\",\"J\",\"113\"
\"\",\"\",\"approach-retreat\",\"117\",\"920500\",\"0.0-117.0\",\"\",\"\",\"2-2\",\"4173\",\"37\",\"1\",\"Training\",\"Stims/Figures/139-J-0-2.bmp\",\"tapa:ka\",\"Right\",\"37\",\"8\",\"2\",\"1\",\"P\",\"J\",\"114\"
\"\",\"\",\"approach-retreat\",\"118\",\"926163\",\"0.0-118.0\",\"\",\"\",\"2-2\",\"4151\",\"39\",\"1\",\"Training\",\"Stims/Figures/57-C-30-1.bmp\",\"mala:na\",\"Right\",\"39\",\"8\",\"3\",\"1\",\"S\",\"J\",\"115\"
\"\",\"\",\"approach-retreat\",\"119\",\"932292\",\"0.0-119.0\",\"\",\"\",\"2-2\",\"4621\",\"38\",\"1\",\"Training\",\"Stims/Figures/27-C-30-1.bmp\",\"mala:na\",\"Up\",\"38\",\"8\",\"4\",\"1\",\"S\",\"J\",\"116\"
\"\",\"\",\"approach-retreat\",\"120\",\"938386\",\"0.0-120.0\",\"\",\"\",\"2-2\",\"4585\",\"40\",\"1\",\"Training\",\"Stims/Figures/44-C-30-3.bmp\",\"mala:na\",\"Down\",\"40\",\"8\",\"5\",\"1\",\"S\",\"J\",\"117\"
\"\",\"\",\"approach-retreat\",\"121\",\"944121\",\"0.0-121.0\",\"\",\"\",\"2-2\",\"4223\",\"37\",\"1\",\"Training\",\"Stims/Figures/74-C-20-4.bmp\",\"mala:na\",\"Left\",\"37\",\"8\",\"6\",\"1\",\"S\",\"J\",\"118\"
\"\",\"\",\"approach-retreat\",\"122\",\"949868\",\"0.0-122.0\",\"\",\"\",\"2-2\",\"4237\",\"40\",\"1\",\"Training\",\"Stims/Figures/74-J-10-4.bmp\",\"tapa:ka\",\"Up\",\"40\",\"8\",\"7\",\"1\",\"P\",\"J\",\"119\"
\"\",\"\",\"approach-retreat\",\"123\",\"956373\",\"0.0-123.0\",\"\",\"\",\"2-2\",\"4994\",\"37\",\"1\",\"Training\",\"Stims/Figures/7-C-20-4.bmp\",\"mala:na\",\"Left\",\"37\",\"8\",\"8\",\"1\",\"S\",\"J\",\"120\"
\"\",\"\",\"approach-retreat\",\"124\",\"963053\",\"0.0-124.0\",\"\",\"\",\"2-2\",\"5170\",\"40\",\"1\",\"Training\",\"Stims/Figures/118-J-0-2.bmp\",\"tapa:ka\",\"Up\",\"40\",\"8\",\"9\",\"1\",\"P\",\"J\",\"121\"
\"\",\"\",\"approach-retreat\",\"125\",\"969566\",\"0.0-125.0\",\"\",\"\",\"2-2\",\"5001\",\"38\",\"1\",\"Training\",\"Stims/Figures/44-J-10-3.bmp\",\"tapa:ka\",\"Down\",\"38\",\"8\",\"10\",\"1\",\"P\",\"J\",\"122\"
\"\",\"\",\"approach-retreat\",\"126\",\"976031\",\"0.0-126.0\",\"\",\"\",\"2-2\",\"4953\",\"39\",\"1\",\"Training\",\"Stims/Figures/139-C-20-2.bmp\",\"mala:na\",\"Right\",\"39\",\"8\",\"11\",\"1\",\"S\",\"J\",\"123\"
\"\",\"\",\"approach-retreat\",\"127\",\"981597\",\"0.0-127.0\",\"\",\"\",\"2-2\",\"4056\",\"39\",\"1\",\"Training\",\"Stims/Figures/27-J-0-1.bmp\",\"tapa:ka\",\"Left\",\"39\",\"8\",\"12\",\"1\",\"P\",\"J\",\"124\"
\"\",\"\",\"approach-retreat\",\"128\",\"987159\",\"0.0-128.0\",\"\",\"\",\"2-2\",\"4051\",\"39\",\"1\",\"Training\",\"Stims/Figures/57-J-0-1.bmp\",\"tapa:ka\",\"Left\",\"39\",\"8\",\"13\",\"1\",\"P\",\"J\",\"125\"
\"\",\"\",\"approach-retreat\",\"129\",\"992858\",\"0.0-129.0\",\"\",\"\",\"2-2\",\"4188\",\"37\",\"0\",\"Training\",\"Stims/Figures/144-C-30-3.bmp\",\"mala:na\",\"Right\",\"39\",\"8\",\"14\",\"1\",\"S\",\"J\",\"126\"
\"\",\"\",\"approach-retreat\",\"130\",\"998553\",\"0.0-130.0\",\"\",\"\",\"2-2\",\"4181\",\"38\",\"1\",\"Training\",\"Stims/Figures/144-J-10-3.bmp\",\"tapa:ka\",\"Down\",\"38\",\"8\",\"15\",\"1\",\"P\",\"J\",\"127\"
\"\",\"\",\"approach-retreat\",\"131\",\"1004873\",\"0.0-131.0\",\"\",\"\",\"2-2\",\"4810\",\"38\",\"1\",\"Training\",\"Stims/Figures/118-C-20-2.bmp\",\"mala:na\",\"Up\",\"38\",\"8\",\"16\",\"1\",\"S\",\"J\",\"128\"
\"\",\"\",\"approach-retreat\",\"132\",\"1010676\",\"0.0-132.0\",\"\",\"\",\"2-2\",\"4292\",\"38\",\"1\",\"Training\",\"Stims/Figures/57-C-30-1.bmp\",\"mala:na\",\"Up\",\"38\",\"9\",\"1\",\"1\",\"S\",\"J\",\"129\"
\"\",\"\",\"approach-retreat\",\"133\",\"1016765\",\"0.0-133.0\",\"\",\"\",\"2-2\",\"4579\",\"39\",\"1\",\"Training\",\"Stims/Figures/144-J-10-3.bmp\",\"tapa:ka\",\"Left\",\"39\",\"9\",\"2\",\"1\",\"P\",\"J\",\"130\"
\"\",\"\",\"approach-retreat\",\"134\",\"1022465\",\"0.0-134.0\",\"\",\"\",\"2-2\",\"4187\",\"38\",\"1\",\"Training\",\"Stims/Figures/144-C-30-3.bmp\",\"mala:na\",\"Up\",\"38\",\"9\",\"3\",\"1\",\"S\",\"J\",\"131\"
\"\",\"\",\"approach-retreat\",\"135\",\"1028282\",\"0.0-135.0\",\"\",\"\",\"2-2\",\"4307\",\"38\",\"1\",\"Training\",\"Stims/Figures/7-J-10-4.bmp\",\"tapa:ka\",\"Down\",\"38\",\"9\",\"4\",\"1\",\"P\",\"J\",\"132\"
\"\",\"\",\"approach-retreat\",\"136\",\"1034179\",\"0.0-136.0\",\"\",\"\",\"2-2\",\"4384\",\"40\",\"1\",\"Training\",\"Stims/Figures/74-J-10-4.bmp\",\"tapa:ka\",\"Up\",\"40\",\"9\",\"5\",\"1\",\"P\",\"J\",\"133\"
\"\",\"\",\"approach-retreat\",\"137\",\"1039884\",\"0.0-137.0\",\"\",\"\",\"2-2\",\"4194\",\"39\",\"1\",\"Training\",\"Stims/Figures/57-J-0-1.bmp\",\"tapa:ka\",\"Left\",\"39\",\"9\",\"6\",\"1\",\"P\",\"J\",\"134\"
\"\",\"\",\"approach-retreat\",\"138\",\"1045607\",\"0.0-138.0\",\"\",\"\",\"2-2\",\"4212\",\"40\",\"1\",\"Training\",\"Stims/Figures/139-J-0-2.bmp\",\"tapa:ka\",\"Up\",\"40\",\"9\",\"7\",\"1\",\"P\",\"J\",\"135\"
\"\",\"\",\"approach-retreat\",\"139\",\"1051711\",\"0.0-139.0\",\"\",\"\",\"2-2\",\"4592\",\"38\",\"1\",\"Training\",\"Stims/Figures/27-J-0-1.bmp\",\"tapa:ka\",\"Down\",\"38\",\"9\",\"8\",\"1\",\"P\",\"J\",\"136\"
\"\",\"\",\"approach-retreat\",\"140\",\"1058217\",\"0.0-140.0\",\"\",\"\",\"2-2\",\"4996\",\"39\",\"1\",\"Training\",\"Stims/Figures/139-C-20-2.bmp\",\"mala:na\",\"Right\",\"39\",\"9\",\"9\",\"1\",\"S\",\"J\",\"137\"
\"\",\"\",\"approach-retreat\",\"141\",\"1065020\",\"0.0-141.0\",\"\",\"\",\"2-2\",\"5292\",\"38\",\"1\",\"Training\",\"Stims/Figures/118-J-0-2.bmp\",\"tapa:ka\",\"Down\",\"38\",\"9\",\"10\",\"1\",\"P\",\"J\",\"138\"
\"\",\"\",\"approach-retreat\",\"142\",\"1071413\",\"0.0-142.0\",\"\",\"\",\"2-2\",\"4880\",\"37\",\"1\",\"Training\",\"Stims/Figures/27-C-30-1.bmp\",\"mala:na\",\"Left\",\"37\",\"9\",\"11\",\"1\",\"S\",\"J\",\"139\"
\"\",\"\",\"approach-retreat\",\"143\",\"1077860\",\"0.0-143.0\",\"\",\"\",\"2-2\",\"4935\",\"37\",\"1\",\"Training\",\"Stims/Figures/44-J-10-3.bmp\",\"tapa:ka\",\"Right\",\"37\",\"9\",\"12\",\"1\",\"P\",\"J\",\"140\"
\"\",\"\",\"approach-retreat\",\"144\",\"1083883\",\"0.0-144.0\",\"\",\"\",\"2-2\",\"4517\",\"39\",\"1\",\"Training\",\"Stims/Figures/7-C-20-4.bmp\",\"mala:na\",\"Right\",\"39\",\"9\",\"13\",\"1\",\"S\",\"J\",\"141\"
\"\",\"\",\"approach-retreat\",\"145\",\"1089922\",\"0.0-145.0\",\"\",\"\",\"2-2\",\"4528\",\"37\",\"1\",\"Training\",\"Stims/Figures/44-C-30-3.bmp\",\"mala:na\",\"Left\",\"37\",\"9\",\"14\",\"1\",\"S\",\"J\",\"142\"
\"\",\"\",\"approach-retreat\",\"146\",\"1095696\",\"0.0-146.0\",\"\",\"\",\"2-2\",\"4262\",\"40\",\"1\",\"Training\",\"Stims/Figures/74-C-20-4.bmp\",\"mala:na\",\"Down\",\"40\",\"9\",\"15\",\"1\",\"S\",\"J\",\"143\"
\"\",\"\",\"approach-retreat\",\"147\",\"1101317\",\"0.0-147.0\",\"\",\"\",\"2-2\",\"4109\",\"39\",\"1\",\"Training\",\"Stims/Figures/118-C-20-2.bmp\",\"mala:na\",\"Right\",\"39\",\"9\",\"16\",\"1\",\"S\",\"J\",\"144\"
\"17193\",\"\",\"instructions\",\"148\",\"1118510\",\"0.0-148.0\",\"[{\"\"page_index\"\":0,\"\"viewing_time\"\":17193}]\",\"\",\"\",\"\",\"\",\"\",\"\",\"\",\"\",\"\",\"\",\"\",\"\",\"\",\"\",\"\",\"\"
\"\",\"\",\"approach-retreat\",\"149\",\"1126055\",\"0.0-149.0\",\"\",\"\",\"2-2\",\"6037\",\"37\",\"0\",\"Testing\",\"Stims/Figures/74-J-10-4.bmp\",\"tapa:ka\",\"Left\",\"39\",\"1\",\"1\",\"1\",\"P\",\"J\",\"1\"
\"\",\"\",\"approach-retreat\",\"150\",\"1132568\",\"0.0-150.0\",\"\",\"\",\"2-2\",\"5005\",\"38\",\"1\",\"Testing\",\"Stims/Figures/27-C-30-1.bmp\",\"mala:na\",\"Up\",\"38\",\"1\",\"2\",\"1\",\"S\",\"J\",\"2\"
\"\",\"\",\"approach-retreat\",\"151\",\"1138447\",\"0.0-151.0\",\"\",\"\",\"2-2\",\"4370\",\"40\",\"1\",\"Testing\",\"Stims/Figures/144-C-30-3.bmp\",\"mala:na\",\"Down\",\"40\",\"1\",\"3\",\"1\",\"S\",\"J\",\"3\"
\"\",\"\",\"approach-retreat\",\"152\",\"1144415\",\"0.0-152.0\",\"\",\"\",\"2-2\",\"4459\",\"39\",\"1\",\"Testing\",\"Stims/Figures/94-J-0-2.bmp\",\"tapa:ka\",\"Left\",\"39\",\"1\",\"4\",\"1\",\"P\",\"J\",\"4\"
\"\",\"\",\"approach-retreat\",\"153\",\"1150062\",\"0.0-153.0\",\"\",\"\",\"2-2\",\"4139\",\"40\",\"1\",\"Testing\",\"Stims/Figures/44-C-30-3.bmp\",\"mala:na\",\"Down\",\"40\",\"1\",\"5\",\"1\",\"S\",\"J\",\"5\"
\"\",\"\",\"approach-retreat\",\"154\",\"1155711\",\"0.0-154.0\",\"\",\"\",\"2-2\",\"4138\",\"39\",\"1\",\"Testing\",\"Stims/Figures/57-C-30-1.bmp\",\"mala:na\",\"Right\",\"39\",\"1\",\"6\",\"1\",\"S\",\"J\",\"6\"
\"\",\"\",\"approach-retreat\",\"155\",\"1161334\",\"0.0-155.0\",\"\",\"\",\"2-2\",\"4115\",\"37\",\"1\",\"Testing\",\"Stims/Figures/7-C-20-4.bmp\",\"mala:na\",\"Left\",\"37\",\"1\",\"7\",\"1\",\"S\",\"J\",\"7\"
\"\",\"\",\"approach-retreat\",\"156\",\"1166923\",\"0.0-156.0\",\"\",\"\",\"2-2\",\"4079\",\"38\",\"1\",\"Testing\",\"Stims/Figures/27-J-0-1.bmp\",\"tapa:ka\",\"Down\",\"38\",\"1\",\"8\",\"1\",\"P\",\"J\",\"8\"
\"\",\"\",\"approach-retreat\",\"157\",\"1173385\",\"0.0-157.0\",\"\",\"\",\"2-2\",\"4953\",\"37\",\"1\",\"Testing\",\"Stims/Figures/139-C-20-2.bmp\",\"mala:na\",\"Left\",\"37\",\"1\",\"9\",\"1\",\"S\",\"J\",\"9\"
\"\",\"\",\"approach-retreat\",\"158\",\"1179025\",\"0.0-158.0\",\"\",\"\",\"2-2\",\"4130\",\"40\",\"1\",\"Testing\",\"Stims/Figures/144-J-10-3.bmp\",\"tapa:ka\",\"Up\",\"40\",\"1\",\"10\",\"1\",\"P\",\"J\",\"10\"
\"\",\"\",\"approach-retreat\",\"159\",\"1184998\",\"0.0-159.0\",\"\",\"\",\"2-2\",\"4464\",\"39\",\"0\",\"Testing\",\"Stims/Figures/19-J-10-4.bmp\",\"tapa:ka\",\"Right\",\"37\",\"1\",\"11\",\"1\",\"P\",\"J\",\"11\"
\"\",\"\",\"approach-retreat\",\"160\",\"1190715\",\"0.0-160.0\",\"\",\"\",\"2-2\",\"4206\",\"40\",\"1\",\"Testing\",\"Stims/Figures/111-J-10-3.bmp\",\"tapa:ka\",\"Up\",\"40\",\"1\",\"12\",\"1\",\"P\",\"J\",\"12\"
\"\",\"\",\"approach-retreat\",\"161\",\"1196567\",\"0.0-161.0\",\"\",\"\",\"2-2\",\"4343\",\"38\",\"1\",\"Testing\",\"Stims/Figures/94-C-20-2.bmp\",\"mala:na\",\"Up\",\"38\",\"1\",\"13\",\"1\",\"S\",\"J\",\"13\"
\"\",\"\",\"approach-retreat\",\"162\",\"1203239\",\"0.0-162.0\",\"\",\"\",\"2-2\",\"5163\",\"37\",\"1\",\"Testing\",\"Stims/Figures/74-C-20-4.bmp\",\"mala:na\",\"Left\",\"37\",\"1\",\"14\",\"1\",\"S\",\"J\",\"14\"
\"\",\"\",\"approach-retreat\",\"163\",\"1208795\",\"0.0-163.0\",\"\",\"\",\"2-2\",\"4047\",\"37\",\"1\",\"Testing\",\"Stims/Figures/118-J-0-2.bmp\",\"tapa:ka\",\"Right\",\"37\",\"1\",\"15\",\"1\",\"P\",\"J\",\"15\"
\"\",\"\",\"approach-retreat\",\"164\",\"1215468\",\"0.0-164.0\",\"\",\"\",\"2-2\",\"5165\",\"38\",\"1\",\"Testing\",\"Stims/Figures/86-C-30-1.bmp\",\"mala:na\",\"Up\",\"38\",\"1\",\"16\",\"1\",\"S\",\"J\",\"16\"
\"\",\"\",\"approach-retreat\",\"165\",\"1221144\",\"0.0-165.0\",\"\",\"\",\"2-2\",\"4165\",\"37\",\"1\",\"Testing\",\"Stims/Figures/44-J-10-3.bmp\",\"tapa:ka\",\"Right\",\"37\",\"1\",\"17\",\"1\",\"P\",\"J\",\"17\"
\"\",\"\",\"approach-retreat\",\"166\",\"1226824\",\"0.0-166.0\",\"\",\"\",\"2-2\",\"4170\",\"39\",\"1\",\"Testing\",\"Stims/Figures/19-C-20-4.bmp\",\"mala:na\",\"Right\",\"39\",\"1\",\"18\",\"1\",\"S\",\"J\",\"18\"
\"\",\"\",\"approach-retreat\",\"167\",\"1232965\",\"0.0-167.0\",\"\",\"\",\"2-2\",\"4626\",\"38\",\"1\",\"Testing\",\"Stims/Figures/86-J-0-1.bmp\",\"tapa:ka\",\"Down\",\"38\",\"1\",\"19\",\"1\",\"P\",\"J\",\"19\"
\"\",\"\",\"approach-retreat\",\"168\",\"1238633\",\"0.0-168.0\",\"\",\"\",\"2-2\",\"4158\",\"37\",\"1\",\"Testing\",\"Stims/Figures/118-C-20-2.bmp\",\"mala:na\",\"Left\",\"37\",\"1\",\"20\",\"1\",\"S\",\"J\",\"20\"
\"\",\"\",\"approach-retreat\",\"169\",\"1244326\",\"0.0-169.0\",\"\",\"\",\"2-2\",\"4184\",\"40\",\"1\",\"Testing\",\"Stims/Figures/7-J-10-4.bmp\",\"tapa:ka\",\"Up\",\"40\",\"1\",\"21\",\"1\",\"P\",\"J\",\"21\"
\"\",\"\",\"approach-retreat\",\"170\",\"1249997\",\"0.0-170.0\",\"\",\"\",\"2-2\",\"4164\",\"38\",\"1\",\"Testing\",\"Stims/Figures/139-J-0-2.bmp\",\"tapa:ka\",\"Down\",\"38\",\"1\",\"22\",\"1\",\"P\",\"J\",\"22\"
\"\",\"\",\"approach-retreat\",\"171\",\"1256176\",\"0.0-171.0\",\"\",\"\",\"2-2\",\"4669\",\"38\",\"1\",\"Testing\",\"Stims/Figures/57-J-0-1.bmp\",\"tapa:ka\",\"Down\",\"38\",\"1\",\"23\",\"1\",\"P\",\"J\",\"23\"
\"\",\"\",\"approach-retreat\",\"172\",\"1261867\",\"0.0-172.0\",\"\",\"\",\"2-2\",\"4182\",\"39\",\"1\",\"Testing\",\"Stims/Figures/111-C-30-3.bmp\",\"mala:na\",\"Right\",\"39\",\"1\",\"24\",\"1\",\"S\",\"J\",\"24\"
\"\",\"\",\"approach-retreat\",\"173\",\"1267490\",\"0.0-173.0\",\"\",\"\",\"2-2\",\"4113\",\"39\",\"1\",\"Testing\",\"Stims/Figures/111-C-30-3.bmp\",\"mala:na\",\"Right\",\"39\",\"2\",\"1\",\"1\",\"S\",\"J\",\"25\"
\"\",\"\",\"approach-retreat\",\"174\",\"1273212\",\"0.0-174.0\",\"\",\"\",\"2-2\",\"4211\",\"40\",\"0\",\"Testing\",\"Stims/Figures/74-J-10-4.bmp\",\"tapa:ka\",\"Down\",\"38\",\"2\",\"2\",\"1\",\"P\",\"J\",\"26\"
\"\",\"\",\"approach-retreat\",\"175\",\"1278949\",\"0.0-175.0\",\"\",\"\",\"2-2\",\"4228\",\"40\",\"1\",\"Testing\",\"Stims/Figures/27-C-30-1.bmp\",\"mala:na\",\"Down\",\"40\",\"2\",\"3\",\"1\",\"S\",\"J\",\"27\"
\"\",\"\",\"approach-retreat\",\"176\",\"1284810\",\"0.0-176.0\",\"\",\"\",\"2-2\",\"4353\",\"37\",\"1\",\"Testing\",\"Stims/Figures/19-C-20-4.bmp\",\"mala:na\",\"Left\",\"37\",\"2\",\"4\",\"1\",\"S\",\"J\",\"28\"
\"\",\"\",\"approach-retreat\",\"177\",\"1290499\",\"0.0-177.0\",\"\",\"\",\"2-2\",\"4180\",\"37\",\"1\",\"Testing\",\"Stims/Figures/139-C-20-2.bmp\",\"mala:na\",\"Left\",\"37\",\"2\",\"5\",\"1\",\"S\",\"J\",\"29\"
\"\",\"\",\"approach-retreat\",\"178\",\"1296028\",\"0.0-178.0\",\"\",\"\",\"2-2\",\"4020\",\"37\",\"1\",\"Testing\",\"Stims/Figures/118-C-20-2.bmp\",\"mala:na\",\"Left\",\"37\",\"2\",\"6\",\"1\",\"S\",\"J\",\"30\"
\"\",\"\",\"approach-retreat\",\"179\",\"1303180\",\"0.0-179.0\",\"\",\"\",\"2-2\",\"5642\",\"40\",\"1\",\"Testing\",\"Stims/Figures/7-J-10-4.bmp\",\"tapa:ka\",\"Up\",\"40\",\"2\",\"7\",\"1\",\"P\",\"J\",\"31\"
\"\",\"\",\"approach-retreat\",\"180\",\"1309177\",\"0.0-180.0\",\"\",\"\",\"2-2\",\"4487\",\"39\",\"1\",\"Testing\",\"Stims/Figures/44-C-30-3.bmp\",\"mala:na\",\"Right\",\"39\",\"2\",\"8\",\"1\",\"S\",\"J\",\"32\"
\"\",\"\",\"approach-retreat\",\"181\",\"1314848\",\"0.0-181.0\",\"\",\"\",\"2-2\",\"4162\",\"40\",\"1\",\"Testing\",\"Stims/Figures/57-J-0-1.bmp\",\"tapa:ka\",\"Up\",\"40\",\"2\",\"9\",\"1\",\"P\",\"J\",\"33\"
\"\",\"\",\"approach-retreat\",\"182\",\"1320597\",\"0.0-182.0\",\"\",\"\",\"2-2\",\"4241\",\"37\",\"1\",\"Testing\",\"Stims/Figures/74-C-20-4.bmp\",\"mala:na\",\"Left\",\"37\",\"2\",\"10\",\"1\",\"S\",\"J\",\"34\"
\"\",\"\",\"approach-retreat\",\"183\",\"1326478\",\"0.0-183.0\",\"\",\"\",\"2-2\",\"4372\",\"38\",\"1\",\"Testing\",\"Stims/Figures/44-J-10-3.bmp\",\"tapa:ka\",\"Down\",\"38\",\"2\",\"11\",\"1\",\"P\",\"J\",\"35\"
\"\",\"\",\"approach-retreat\",\"184\",\"1332928\",\"0.0-184.0\",\"\",\"\",\"2-2\",\"4943\",\"40\",\"0\",\"Testing\",\"Stims/Figures/111-J-10-3.bmp\",\"tapa:ka\",\"Down\",\"38\",\"2\",\"12\",\"1\",\"P\",\"J\",\"36\"
\"\",\"\",\"approach-retreat\",\"185\",\"1338787\",\"0.0-185.0\",\"\",\"\",\"2-2\",\"4348\",\"40\",\"1\",\"Testing\",\"Stims/Figures/139-J-0-2.bmp\",\"tapa:ka\",\"Up\",\"40\",\"2\",\"13\",\"1\",\"P\",\"J\",\"37\"
\"\",\"\",\"approach-retreat\",\"186\",\"1344451\",\"0.0-186.0\",\"\",\"\",\"2-2\",\"4156\",\"40\",\"1\",\"Testing\",\"Stims/Figures/57-C-30-1.bmp\",\"mala:na\",\"Down\",\"40\",\"2\",\"14\",\"1\",\"S\",\"J\",\"38\"
\"\",\"\",\"approach-retreat\",\"187\",\"1350294\",\"0.0-187.0\",\"\",\"\",\"2-2\",\"4336\",\"39\",\"1\",\"Testing\",\"Stims/Figures/94-C-20-2.bmp\",\"mala:na\",\"Right\",\"39\",\"2\",\"15\",\"1\",\"S\",\"J\",\"39\"
\"\",\"\",\"approach-retreat\",\"188\",\"1355982\",\"0.0-188.0\",\"\",\"\",\"2-2\",\"4181\",\"39\",\"1\",\"Testing\",\"Stims/Figures/144-C-30-3.bmp\",\"mala:na\",\"Right\",\"39\",\"2\",\"16\",\"1\",\"S\",\"J\",\"40\"
\"\",\"\",\"approach-retreat\",\"189\",\"1363497\",\"0.0-189.0\",\"\",\"\",\"2-2\",\"6005\",\"39\",\"0\",\"Testing\",\"Stims/Figures/144-J-10-3.bmp\",\"tapa:ka\",\"Right\",\"37\",\"2\",\"17\",\"1\",\"P\",\"J\",\"41\"
\"\",\"\",\"approach-retreat\",\"190\",\"1369181\",\"0.0-190.0\",\"\",\"\",\"2-2\",\"4175\",\"40\",\"1\",\"Testing\",\"Stims/Figures/86-J-0-1.bmp\",\"tapa:ka\",\"Up\",\"40\",\"2\",\"18\",\"1\",\"P\",\"J\",\"42\"
\"\",\"\",\"approach-retreat\",\"191\",\"1374796\",\"0.0-191.0\",\"\",\"\",\"2-2\",\"4105\",\"39\",\"1\",\"Testing\",\"Stims/Figures/118-J-0-2.bmp\",\"tapa:ka\",\"Left\",\"39\",\"2\",\"19\",\"1\",\"P\",\"J\",\"43\"
\"\",\"\",\"approach-retreat\",\"192\",\"1380402\",\"0.0-192.0\",\"\",\"\",\"2-2\",\"4098\",\"39\",\"1\",\"Testing\",\"Stims/Figures/94-J-0-2.bmp\",\"tapa:ka\",\"Left\",\"39\",\"2\",\"20\",\"1\",\"P\",\"J\",\"44\"
\"\",\"\",\"approach-retreat\",\"193\",\"1386087\",\"0.0-193.0\",\"\",\"\",\"2-2\",\"4178\",\"38\",\"0\",\"Testing\",\"Stims/Figures/19-J-10-4.bmp\",\"tapa:ka\",\"Up\",\"40\",\"2\",\"21\",\"1\",\"P\",\"J\",\"45\"
\"\",\"\",\"approach-retreat\",\"194\",\"1392572\",\"0.0-194.0\",\"\",\"\",\"2-2\",\"4976\",\"37\",\"1\",\"Testing\",\"Stims/Figures/27-J-0-1.bmp\",\"tapa:ka\",\"Right\",\"37\",\"2\",\"22\",\"1\",\"P\",\"J\",\"46\"
\"\",\"\",\"approach-retreat\",\"195\",\"1398467\",\"0.0-195.0\",\"\",\"\",\"2-2\",\"4387\",\"40\",\"1\",\"Testing\",\"Stims/Figures/7-C-20-4.bmp\",\"mala:na\",\"Down\",\"40\",\"2\",\"23\",\"1\",\"S\",\"J\",\"47\"
\"\",\"\",\"approach-retreat\",\"196\",\"1404441\",\"0.0-196.0\",\"\",\"\",\"2-2\",\"4466\",\"38\",\"1\",\"Testing\",\"Stims/Figures/86-C-30-1.bmp\",\"mala:na\",\"Up\",\"38\",\"2\",\"24\",\"1\",\"S\",\"J\",\"48\"
\"\",\"\",\"approach-retreat\",\"197\",\"1410063\",\"0.0-197.0\",\"\",\"\",\"2-2\",\"4113\",\"38\",\"1\",\"Testing\",\"Stims/Figures/94-J-0-2.bmp\",\"tapa:ka\",\"Down\",\"38\",\"3\",\"1\",\"1\",\"P\",\"J\",\"49\"
\"\",\"\",\"approach-retreat\",\"198\",\"1415642\",\"0.0-198.0\",\"\",\"\",\"2-2\",\"4068\",\"39\",\"0\",\"Testing\",\"Stims/Figures/111-J-10-3.bmp\",\"tapa:ka\",\"Right\",\"37\",\"3\",\"2\",\"1\",\"P\",\"J\",\"50\"
\"\",\"\",\"approach-retreat\",\"199\",\"1421239\",\"0.0-199.0\",\"\",\"\",\"2-2\",\"4088\",\"40\",\"1\",\"Testing\",\"Stims/Figures/86-J-0-1.bmp\",\"tapa:ka\",\"Up\",\"40\",\"3\",\"3\",\"1\",\"P\",\"J\",\"51\"
\"\",\"\",\"approach-retreat\",\"200\",\"1427679\",\"0.0-200.0\",\"\",\"\",\"2-2\",\"4931\",\"38\",\"1\",\"Testing\",\"Stims/Figures/27-J-0-1.bmp\",\"tapa:ka\",\"Down\",\"38\",\"3\",\"4\",\"1\",\"P\",\"J\",\"52\"
\"\",\"\",\"approach-retreat\",\"201\",\"1433303\",\"0.0-201.0\",\"\",\"\",\"2-2\",\"4113\",\"37\",\"0\",\"Testing\",\"Stims/Figures/144-J-10-3.bmp\",\"tapa:ka\",\"Left\",\"39\",\"3\",\"5\",\"1\",\"P\",\"J\",\"53\"
\"\",\"\",\"approach-retreat\",\"202\",\"1439437\",\"0.0-202.0\",\"\",\"\",\"2-2\",\"4627\",\"37\",\"1\",\"Testing\",\"Stims/Figures/19-C-20-4.bmp\",\"mala:na\",\"Left\",\"37\",\"3\",\"6\",\"1\",\"S\",\"J\",\"54\"
\"\",\"\",\"approach-retreat\",\"203\",\"1445559\",\"0.0-203.0\",\"\",\"\",\"2-2\",\"4613\",\"40\",\"1\",\"Testing\",\"Stims/Figures/118-C-20-2.bmp\",\"mala:na\",\"Down\",\"40\",\"3\",\"7\",\"1\",\"S\",\"J\",\"55\"
\"\",\"\",\"approach-retreat\",\"204\",\"1451216\",\"0.0-204.0\",\"\",\"\",\"2-2\",\"4148\",\"39\",\"1\",\"Testing\",\"Stims/Figures/74-C-20-4.bmp\",\"mala:na\",\"Right\",\"39\",\"3\",\"8\",\"1\",\"S\",\"J\",\"56\"
\"\",\"\",\"approach-retreat\",\"205\",\"1456843\",\"0.0-205.0\",\"\",\"\",\"2-2\",\"4117\",\"40\",\"0\",\"Testing\",\"Stims/Figures/19-J-10-4.bmp\",\"tapa:ka\",\"Down\",\"38\",\"3\",\"9\",\"1\",\"P\",\"J\",\"57\"
\"\",\"\",\"approach-retreat\",\"206\",\"1462931\",\"0.0-206.0\",\"\",\"\",\"2-2\",\"4578\",\"38\",\"1\",\"Testing\",\"Stims/Figures/57-C-30-1.bmp\",\"mala:na\",\"Up\",\"38\",\"3\",\"10\",\"1\",\"S\",\"J\",\"58\"
\"\",\"\",\"approach-retreat\",\"207\",\"1468745\",\"0.0-207.0\",\"\",\"\",\"2-2\",\"4305\",\"39\",\"1\",\"Testing\",\"Stims/Figures/139-J-0-2.bmp\",\"tapa:ka\",\"Left\",\"39\",\"3\",\"11\",\"1\",\"P\",\"J\",\"59\"
\"\",\"\",\"approach-retreat\",\"208\",\"1474294\",\"0.0-208.0\",\"\",\"\",\"2-2\",\"4041\",\"39\",\"1\",\"Testing\",\"Stims/Figures/27-C-30-1.bmp\",\"mala:na\",\"Right\",\"39\",\"3\",\"12\",\"1\",\"S\",\"J\",\"60\"
\"\",\"\",\"approach-retreat\",\"209\",\"1480022\",\"0.0-209.0\",\"\",\"\",\"2-2\",\"4219\",\"40\",\"1\",\"Testing\",\"Stims/Figures/111-C-30-3.bmp\",\"mala:na\",\"Down\",\"40\",\"3\",\"13\",\"1\",\"S\",\"J\",\"61\"
\"\",\"\",\"approach-retreat\",\"210\",\"1486640\",\"0.0-210.0\",\"\",\"\",\"2-2\",\"5110\",\"39\",\"1\",\"Testing\",\"Stims/Figures/7-C-20-4.bmp\",\"mala:na\",\"Right\",\"39\",\"3\",\"14\",\"1\",\"S\",\"J\",\"62\"
\"\",\"\",\"approach-retreat\",\"211\",\"1492361\",\"0.0-211.0\",\"\",\"\",\"2-2\",\"4212\",\"37\",\"1\",\"Testing\",\"Stims/Figures/118-J-0-2.bmp\",\"tapa:ka\",\"Right\",\"37\",\"3\",\"15\",\"1\",\"P\",\"J\",\"63\"
\"\",\"\",\"approach-retreat\",\"212\",\"1499404\",\"0.0-212.0\",\"\",\"\",\"2-2\",\"5534\",\"40\",\"0\",\"Testing\",\"Stims/Figures/74-J-10-4.bmp\",\"tapa:ka\",\"Down\",\"38\",\"3\",\"16\",\"1\",\"P\",\"J\",\"64\"
\"\",\"\",\"approach-retreat\",\"213\",\"1505655\",\"0.0-213.0\",\"\",\"\",\"2-2\",\"4743\",\"38\",\"1\",\"Testing\",\"Stims/Figures/144-C-30-3.bmp\",\"mala:na\",\"Up\",\"38\",\"3\",\"17\",\"1\",\"S\",\"J\",\"65\"
\"\",\"\",\"approach-retreat\",\"214\",\"1511376\",\"0.0-214.0\",\"\",\"\",\"2-2\",\"4211\",\"39\",\"1\",\"Testing\",\"Stims/Figures/57-J-0-1.bmp\",\"tapa:ka\",\"Left\",\"39\",\"3\",\"18\",\"1\",\"P\",\"J\",\"66\"
\"\",\"\",\"approach-retreat\",\"215\",\"1517306\",\"0.0-215.0\",\"\",\"\",\"2-2\",\"4422\",\"40\",\"1\",\"Testing\",\"Stims/Figures/7-J-10-4.bmp\",\"tapa:ka\",\"Up\",\"40\",\"3\",\"19\",\"1\",\"P\",\"J\",\"67\"
\"\",\"\",\"approach-retreat\",\"216\",\"1523328\",\"0.0-216.0\",\"\",\"\",\"2-2\",\"4513\",\"38\",\"1\",\"Testing\",\"Stims/Figures/94-C-20-2.bmp\",\"mala:na\",\"Up\",\"38\",\"3\",\"20\",\"1\",\"S\",\"J\",\"68\"
\"\",\"\",\"approach-retreat\",\"217\",\"1528943\",\"0.0-217.0\",\"\",\"\",\"2-2\",\"4107\",\"39\",\"1\",\"Testing\",\"Stims/Figures/44-C-30-3.bmp\",\"mala:na\",\"Right\",\"39\",\"3\",\"21\",\"1\",\"S\",\"J\",\"69\"
\"\",\"\",\"approach-retreat\",\"218\",\"1534448\",\"0.0-218.0\",\"\",\"\",\"2-2\",\"3997\",\"39\",\"1\",\"Testing\",\"Stims/Figures/44-J-10-3.bmp\",\"tapa:ka\",\"Left\",\"39\",\"3\",\"22\",\"1\",\"P\",\"J\",\"70\"
\"\",\"\",\"approach-retreat\",\"219\",\"1540304\",\"0.0-219.0\",\"\",\"\",\"2-2\",\"4347\",\"37\",\"1\",\"Testing\",\"Stims/Figures/139-C-20-2.bmp\",\"mala:na\",\"Left\",\"37\",\"3\",\"23\",\"1\",\"S\",\"J\",\"71\"
\"\",\"\",\"approach-retreat\",\"220\",\"1546263\",\"0.0-220.0\",\"\",\"\",\"2-2\",\"4450\",\"38\",\"1\",\"Testing\",\"Stims/Figures/86-C-30-1.bmp\",\"mala:na\",\"Up\",\"38\",\"3\",\"24\",\"1\",\"S\",\"J\",\"72\"
\"\",\"\",\"approach-retreat\",\"221\",\"1552233\",\"0.0-221.0\",\"\",\"\",\"2-2\",\"4461\",\"40\",\"1\",\"Testing\",\"Stims/Figures/94-C-20-2.bmp\",\"mala:na\",\"Down\",\"40\",\"4\",\"1\",\"1\",\"S\",\"J\",\"73\"
\"\",\"\",\"approach-retreat\",\"222\",\"1558407\",\"0.0-222.0\",\"\",\"\",\"2-2\",\"4666\",\"39\",\"1\",\"Testing\",\"Stims/Figures/111-C-30-3.bmp\",\"mala:na\",\"Right\",\"39\",\"4\",\"2\",\"1\",\"S\",\"J\",\"74\"
\"\",\"\",\"approach-retreat\",\"223\",\"1563945\",\"0.0-223.0\",\"\",\"\",\"2-2\",\"4029\",\"39\",\"0\",\"Testing\",\"Stims/Figures/19-J-10-4.bmp\",\"tapa:ka\",\"Right\",\"37\",\"4\",\"3\",\"1\",\"P\",\"J\",\"75\"
\"\",\"\",\"approach-retreat\",\"224\",\"1569871\",\"0.0-224.0\",\"\",\"\",\"2-2\",\"4415\",\"38\",\"1\",\"Testing\",\"Stims/Figures/144-C-30-3.bmp\",\"mala:na\",\"Up\",\"38\",\"4\",\"4\",\"1\",\"S\",\"J\",\"76\"
\"\",\"\",\"approach-retreat\",\"225\",\"1575554\",\"0.0-225.0\",\"\",\"\",\"2-2\",\"4175\",\"39\",\"1\",\"Testing\",\"Stims/Figures/44-C-30-3.bmp\",\"mala:na\",\"Right\",\"39\",\"4\",\"5\",\"1\",\"S\",\"J\",\"77\"
\"\",\"\",\"approach-retreat\",\"226\",\"1581072\",\"0.0-226.0\",\"\",\"\",\"2-2\",\"4009\",\"37\",\"1\",\"Testing\",\"Stims/Figures/7-J-10-4.bmp\",\"tapa:ka\",\"Right\",\"37\",\"4\",\"6\",\"1\",\"P\",\"J\",\"78\"
\"\",\"\",\"approach-retreat\",\"227\",\"1586747\",\"0.0-227.0\",\"\",\"\",\"2-2\",\"4169\",\"39\",\"1\",\"Testing\",\"Stims/Figures/74-C-20-4.bmp\",\"mala:na\",\"Right\",\"39\",\"4\",\"7\",\"1\",\"S\",\"J\",\"79\"
\"\",\"\",\"approach-retreat\",\"228\",\"1592383\",\"0.0-228.0\",\"\",\"\",\"2-2\",\"4127\",\"38\",\"1\",\"Testing\",\"Stims/Figures/144-J-10-3.bmp\",\"tapa:ka\",\"Down\",\"38\",\"4\",\"8\",\"1\",\"P\",\"J\",\"80\"
\"\",\"\",\"approach-retreat\",\"229\",\"1598023\",\"0.0-229.0\",\"\",\"\",\"2-2\",\"4132\",\"37\",\"1\",\"Testing\",\"Stims/Figures/57-C-30-1.bmp\",\"mala:na\",\"Left\",\"37\",\"4\",\"9\",\"1\",\"S\",\"J\",\"81\"
\"\",\"\",\"approach-retreat\",\"230\",\"1604226\",\"0.0-230.0\",\"\",\"\",\"2-2\",\"4694\",\"38\",\"1\",\"Testing\",\"Stims/Figures/86-C-30-1.bmp\",\"mala:na\",\"Up\",\"38\",\"4\",\"10\",\"1\",\"S\",\"J\",\"82\"
\"\",\"\",\"approach-retreat\",\"231\",\"1609783\",\"0.0-231.0\",\"\",\"\",\"2-2\",\"4049\",\"39\",\"1\",\"Testing\",\"Stims/Figures/139-J-0-2.bmp\",\"tapa:ka\",\"Left\",\"39\",\"4\",\"11\",\"1\",\"P\",\"J\",\"83\"
\"\",\"\",\"approach-retreat\",\"232\",\"1615513\",\"0.0-232.0\",\"\",\"\",\"2-2\",\"4222\",\"40\",\"1\",\"Testing\",\"Stims/Figures/57-J-0-1.bmp\",\"tapa:ka\",\"Up\",\"40\",\"4\",\"12\",\"1\",\"P\",\"J\",\"84\"
\"\",\"\",\"approach-retreat\",\"233\",\"1621927\",\"0.0-233.0\",\"\",\"\",\"2-2\",\"4904\",\"38\",\"1\",\"Testing\",\"Stims/Figures/7-C-20-4.bmp\",\"mala:na\",\"Up\",\"38\",\"4\",\"13\",\"1\",\"S\",\"J\",\"85\"
\"\",\"\",\"approach-retreat\",\"234\",\"1627400\",\"0.0-234.0\",\"\",\"\",\"2-2\",\"3963\",\"39\",\"1\",\"Testing\",\"Stims/Figures/27-J-0-1.bmp\",\"tapa:ka\",\"Left\",\"39\",\"4\",\"14\",\"1\",\"P\",\"J\",\"86\"
\"\",\"\",\"approach-retreat\",\"235\",\"1634263\",\"0.0-235.0\",\"\",\"\",\"2-2\",\"5352\",\"39\",\"1\",\"Testing\",\"Stims/Figures/74-J-10-4.bmp\",\"tapa:ka\",\"Left\",\"39\",\"4\",\"15\",\"1\",\"P\",\"J\",\"87\"
\"\",\"\",\"approach-retreat\",\"236\",\"1640185\",\"0.0-236.0\",\"\",\"\",\"2-2\",\"4413\",\"40\",\"1\",\"Testing\",\"Stims/Figures/27-C-30-1.bmp\",\"mala:na\",\"Down\",\"40\",\"4\",\"16\",\"1\",\"S\",\"J\",\"88\"
\"\",\"\",\"approach-retreat\",\"237\",\"1646012\",\"0.0-237.0\",\"\",\"\",\"2-2\",\"4317\",\"37\",\"0\",\"Testing\",\"Stims/Figures/111-J-10-3.bmp\",\"tapa:ka\",\"Left\",\"39\",\"4\",\"17\",\"1\",\"P\",\"J\",\"89\"
\"\",\"\",\"approach-retreat\",\"238\",\"1651948\",\"0.0-238.0\",\"\",\"\",\"2-2\",\"4427\",\"38\",\"1\",\"Testing\",\"Stims/Figures/94-J-0-2.bmp\",\"tapa:ka\",\"Down\",\"38\",\"4\",\"18\",\"1\",\"P\",\"J\",\"90\"
\"\",\"\",\"approach-retreat\",\"239\",\"1657604\",\"0.0-239.0\",\"\",\"\",\"2-2\",\"4147\",\"38\",\"1\",\"Testing\",\"Stims/Figures/118-C-20-2.bmp\",\"mala:na\",\"Up\",\"38\",\"4\",\"19\",\"1\",\"S\",\"J\",\"91\"
\"\",\"\",\"approach-retreat\",\"240\",\"1664437\",\"0.0-240.0\",\"\",\"\",\"2-2\",\"5323\",\"37\",\"1\",\"Testing\",\"Stims/Figures/44-J-10-3.bmp\",\"tapa:ka\",\"Right\",\"37\",\"4\",\"20\",\"1\",\"P\",\"J\",\"92\"
\"\",\"\",\"approach-retreat\",\"241\",\"1670085\",\"0.0-241.0\",\"\",\"\",\"2-2\",\"4138\",\"38\",\"1\",\"Testing\",\"Stims/Figures/86-J-0-1.bmp\",\"tapa:ka\",\"Down\",\"38\",\"4\",\"21\",\"1\",\"P\",\"J\",\"93\"
\"\",\"\",\"approach-retreat\",\"242\",\"1675882\",\"0.0-242.0\",\"\",\"\",\"2-2\",\"4288\",\"39\",\"1\",\"Testing\",\"Stims/Figures/118-J-0-2.bmp\",\"tapa:ka\",\"Left\",\"39\",\"4\",\"22\",\"1\",\"P\",\"J\",\"94\"
\"\",\"\",\"approach-retreat\",\"243\",\"1681672\",\"0.0-243.0\",\"\",\"\",\"2-2\",\"4282\",\"40\",\"1\",\"Testing\",\"Stims/Figures/139-C-20-2.bmp\",\"mala:na\",\"Down\",\"40\",\"4\",\"23\",\"1\",\"S\",\"J\",\"95\"
\"\",\"\",\"approach-retreat\",\"244\",\"1687929\",\"0.0-244.0\",\"\",\"\",\"2-2\",\"4748\",\"38\",\"1\",\"Testing\",\"Stims/Figures/19-C-20-4.bmp\",\"mala:na\",\"Up\",\"38\",\"4\",\"24\",\"1\",\"S\",\"J\",\"96\"
\"22735\",\"\",\"survey-text\",\"245\",\"1710672\",\"0.0-245.0\",\"\",\"{\"\"Q0\"\":\"\"PS170025\"\"}\",\"\",\"\",\"\",\"\",\"\",\"\",\"\",\"\",\"\",\"\",\"\",\"\",\"\",\"\",\"\"
