\"rt\",\"key_press\",\"trial_type\",\"trial_index\",\"time_elapsed\",\"internal_node_id\",\"view_history\",\"responses\",\"Id\",\"Rt\",\"ResKeyCode\",\"ResCorr\",\"TrialType2\",\"Image\",\"Label\",\"Location\",\"CorrectResponse\",\"Block\",\"BlockTrial\",\"Condition\",\"LabelType\",\"Subcondition\",\"trialNum\"
\"126096\",\"32\",\"text\",\"0\",\"126110\",\"0.0-0.0-0.0\",\"\",\"\",\"\",\"\",\"\",\"\",\"\",\"\",\"\",\"\",\"\",\"\",\"\",\"\",\"\",\"\",\"\"
\"83288\",\"\",\"instructions\",\"1\",\"209412\",\"0.0-1.0\",\"[{\"\"page_index\"\":0,\"\"viewing_time\"\":83283}]\",\"\",\"\",\"\",\"\",\"\",\"\",\"\",\"\",\"\",\"\",\"\",\"\",\"\",\"\",\"\",\"\"
\"22257\",\"\",\"survey-multi-choice\",\"2\",\"231805\",\"0.0-2.0\",\"\",\"{\"\"Q0\"\":\"\"Da\"\",\"\"Q1\"\":\"\"Da\"\",\"\"Q2\"\":\"\"Da\"\",\"\"Q3\"\":\"\"Da\"\",\"\"Q4\"\":\"\"Da\"\",\"\"Q5\"\":\"\"Da\"\"}\",\"\",\"\",\"\",\"\",\"\",\"\",\"\",\"\",\"\",\"\",\"\",\"\",\"\",\"\",\"\"
\"\",\"\",\"bio\",\"3\",\"244558\",\"0.0-3.0\",\"\",\"{\"\"age\"\":\"\"19\"\",\"\"gender\"\":\"\"f\"\",\"\"specify\"\":\"\"\"\"}\",\"\",\"\",\"\",\"\",\"\",\"\",\"\",\"\",\"\",\"\",\"\",\"\",\"\",\"\",\"\"
\"\",\"\",\"approach-retreat\",\"4\",\"252812\",\"0.0-4.0\",\"\",\"\",\"3-1\",\"6729\",\"38\",\"1\",\"Training\",\"Stims/Figures/85-C-20-2.bmp\",\"ma:lala\",\"Down\",\"38\",\"1\",\"1\",\"4\",\"S\",\"C\",\"1\"
\"\",\"\",\"approach-retreat\",\"5\",\"259817\",\"0.0-5.0\",\"\",\"\",\"3-1\",\"5455\",\"38\",\"1\",\"Training\",\"Stims/Figures/86-J-0-1.bmp\",\"ta:ka:ka\",\"Up\",\"38\",\"1\",\"2\",\"4\",\"P\",\"C\",\"2\"
\"\",\"\",\"approach-retreat\",\"6\",\"265968\",\"0.0-6.0\",\"\",\"\",\"3-1\",\"4604\",\"39\",\"1\",\"Training\",\"Stims/Figures/86-C-30-1.bmp\",\"ma:ma:la\",\"Left\",\"39\",\"1\",\"3\",\"4\",\"S\",\"C\",\"3\"
\"\",\"\",\"approach-retreat\",\"7\",\"271900\",\"0.0-7.0\",\"\",\"\",\"3-1\",\"4386\",\"38\",\"1\",\"Training\",\"Stims/Figures/85-J-0-2.bmp\",\"takaka\",\"Up\",\"38\",\"1\",\"4\",\"4\",\"P\",\"C\",\"4\"
\"\",\"\",\"approach-retreat\",\"8\",\"277965\",\"0.0-8.0\",\"\",\"\",\"3-1\",\"4526\",\"38\",\"1\",\"Training\",\"Stims/Figures/7-C-20-4.bmp\",\"nala:la\",\"Down\",\"38\",\"1\",\"5\",\"4\",\"S\",\"C\",\"5\"
\"\",\"\",\"approach-retreat\",\"9\",\"283893\",\"0.0-9.0\",\"\",\"\",\"3-1\",\"4391\",\"37\",\"0\",\"Training\",\"Stims/Figures/100-J-10-3.bmp\",\"pa:ka:ka\",\"Right\",\"39\",\"1\",\"6\",\"4\",\"P\",\"C\",\"6\"
\"\",\"\",\"approach-retreat\",\"10\",\"290301\",\"0.0-10.0\",\"\",\"\",\"3-1\",\"4867\",\"39\",\"1\",\"Training\",\"Stims/Figures/74-C-20-4.bmp\",\"na:lana\",\"Left\",\"39\",\"1\",\"7\",\"4\",\"S\",\"C\",\"7\"
\"\",\"\",\"approach-retreat\",\"11\",\"296466\",\"0.0-11.0\",\"\",\"\",\"3-1\",\"4615\",\"39\",\"1\",\"Training\",\"Stims/Figures/139-C-20-2.bmp\",\"mama:na\",\"Left\",\"39\",\"1\",\"8\",\"4\",\"S\",\"C\",\"8\"
\"\",\"\",\"approach-retreat\",\"12\",\"303027\",\"0.0-12.0\",\"\",\"\",\"3-1\",\"5018\",\"40\",\"1\",\"Training\",\"Stims/Figures/100-C-30-3.bmp\",\"na:mana\",\"Up\",\"40\",\"1\",\"9\",\"4\",\"S\",\"C\",\"9\"
\"\",\"\",\"approach-retreat\",\"13\",\"308872\",\"0.0-13.0\",\"\",\"\",\"3-1\",\"4301\",\"39\",\"1\",\"Training\",\"Stims/Figures/74-J-10-4.bmp\",\"papa:ta\",\"Right\",\"39\",\"1\",\"10\",\"4\",\"P\",\"C\",\"10\"
\"\",\"\",\"approach-retreat\",\"14\",\"315140\",\"0.0-14.0\",\"\",\"\",\"3-1\",\"4720\",\"38\",\"1\",\"Training\",\"Stims/Figures/57-C-30-1.bmp\",\"ma:mala\",\"Down\",\"38\",\"1\",\"11\",\"4\",\"S\",\"C\",\"11\"
\"\",\"\",\"approach-retreat\",\"15\",\"320978\",\"0.0-15.0\",\"\",\"\",\"3-1\",\"4299\",\"39\",\"1\",\"Training\",\"Stims/Figures/57-J-0-1.bmp\",\"tapa:ta\",\"Right\",\"39\",\"1\",\"12\",\"4\",\"P\",\"C\",\"12\"
\"\",\"\",\"approach-retreat\",\"16\",\"326745\",\"0.0-16.0\",\"\",\"\",\"3-1\",\"4233\",\"37\",\"1\",\"Training\",\"Stims/Figures/7-J-10-4.bmp\",\"paka:ka\",\"Left\",\"37\",\"1\",\"13\",\"4\",\"P\",\"C\",\"13\"
\"\",\"\",\"approach-retreat\",\"17\",\"332521\",\"0.0-17.0\",\"\",\"\",\"3-1\",\"4230\",\"40\",\"1\",\"Training\",\"Stims/Figures/139-J-0-2.bmp\",\"ta:paka\",\"Down\",\"40\",\"1\",\"14\",\"4\",\"P\",\"C\",\"14\"
\"\",\"\",\"approach-retreat\",\"18\",\"338198\",\"0.0-18.0\",\"\",\"\",\"3-1\",\"4138\",\"38\",\"1\",\"Training\",\"Stims/Figures/144-J-10-3.bmp\",\"papa:ka\",\"Up\",\"38\",\"1\",\"15\",\"4\",\"P\",\"C\",\"15\"
\"\",\"\",\"approach-retreat\",\"19\",\"344926\",\"0.0-19.0\",\"\",\"\",\"3-1\",\"5193\",\"37\",\"1\",\"Training\",\"Stims/Figures/144-C-30-3.bmp\",\"malana\",\"Right\",\"37\",\"1\",\"16\",\"4\",\"S\",\"C\",\"16\"
\"\",\"\",\"approach-retreat\",\"20\",\"350930\",\"0.0-20.0\",\"\",\"\",\"3-1\",\"4467\",\"40\",\"1\",\"Training\",\"Stims/Figures/74-J-10-4.bmp\",\"papa:ta\",\"Down\",\"40\",\"2\",\"1\",\"4\",\"P\",\"C\",\"17\"
\"\",\"\",\"approach-retreat\",\"21\",\"356718\",\"0.0-21.0\",\"\",\"\",\"3-1\",\"4247\",\"40\",\"1\",\"Training\",\"Stims/Figures/86-J-0-1.bmp\",\"ta:ka:ka\",\"Down\",\"40\",\"2\",\"2\",\"4\",\"P\",\"C\",\"18\"
\"\",\"\",\"approach-retreat\",\"22\",\"362339\",\"0.0-22.0\",\"\",\"\",\"3-1\",\"4103\",\"38\",\"1\",\"Training\",\"Stims/Figures/7-C-20-4.bmp\",\"nala:la\",\"Down\",\"38\",\"2\",\"3\",\"4\",\"S\",\"C\",\"19\"
\"\",\"\",\"approach-retreat\",\"23\",\"367949\",\"0.0-23.0\",\"\",\"\",\"3-1\",\"4066\",\"40\",\"1\",\"Training\",\"Stims/Figures/100-J-10-3.bmp\",\"pa:ka:ka\",\"Down\",\"40\",\"2\",\"4\",\"4\",\"P\",\"C\",\"20\"
\"\",\"\",\"approach-retreat\",\"24\",\"373724\",\"0.0-24.0\",\"\",\"\",\"3-1\",\"4235\",\"39\",\"0\",\"Training\",\"Stims/Figures/139-C-20-2.bmp\",\"mama:na\",\"Right\",\"37\",\"2\",\"5\",\"4\",\"S\",\"C\",\"21\"
\"\",\"\",\"approach-retreat\",\"25\",\"379465\",\"0.0-25.0\",\"\",\"\",\"3-1\",\"4199\",\"39\",\"1\",\"Training\",\"Stims/Figures/139-J-0-2.bmp\",\"ta:paka\",\"Right\",\"39\",\"2\",\"6\",\"4\",\"P\",\"C\",\"22\"
\"\",\"\",\"approach-retreat\",\"26\",\"385292\",\"0.0-26.0\",\"\",\"\",\"3-1\",\"4282\",\"40\",\"1\",\"Training\",\"Stims/Figures/74-C-20-4.bmp\",\"na:lana\",\"Up\",\"40\",\"2\",\"7\",\"4\",\"S\",\"C\",\"23\"
\"\",\"\",\"approach-retreat\",\"27\",\"390927\",\"0.0-27.0\",\"\",\"\",\"3-1\",\"4094\",\"40\",\"1\",\"Training\",\"Stims/Figures/86-C-30-1.bmp\",\"ma:ma:la\",\"Up\",\"40\",\"2\",\"8\",\"4\",\"S\",\"C\",\"24\"
\"\",\"\",\"approach-retreat\",\"28\",\"396610\",\"0.0-28.0\",\"\",\"\",\"3-1\",\"4140\",\"39\",\"1\",\"Training\",\"Stims/Figures/144-C-30-3.bmp\",\"malana\",\"Left\",\"39\",\"2\",\"9\",\"4\",\"S\",\"C\",\"25\"
\"\",\"\",\"approach-retreat\",\"29\",\"402327\",\"0.0-29.0\",\"\",\"\",\"3-1\",\"4172\",\"39\",\"1\",\"Training\",\"Stims/Figures/7-J-10-4.bmp\",\"paka:ka\",\"Right\",\"39\",\"2\",\"10\",\"4\",\"P\",\"C\",\"26\"
\"\",\"\",\"approach-retreat\",\"30\",\"407955\",\"0.0-30.0\",\"\",\"\",\"3-1\",\"4084\",\"40\",\"1\",\"Training\",\"Stims/Figures/100-C-30-3.bmp\",\"na:mana\",\"Up\",\"40\",\"2\",\"11\",\"4\",\"S\",\"C\",\"27\"
\"\",\"\",\"approach-retreat\",\"31\",\"413990\",\"0.0-31.0\",\"\",\"\",\"3-1\",\"4490\",\"37\",\"1\",\"Training\",\"Stims/Figures/57-C-30-1.bmp\",\"ma:mala\",\"Right\",\"37\",\"2\",\"12\",\"4\",\"S\",\"C\",\"28\"
\"\",\"\",\"approach-retreat\",\"32\",\"419563\",\"0.0-32.0\",\"\",\"\",\"3-1\",\"4032\",\"38\",\"1\",\"Training\",\"Stims/Figures/144-J-10-3.bmp\",\"papa:ka\",\"Up\",\"38\",\"2\",\"13\",\"4\",\"P\",\"C\",\"29\"
\"\",\"\",\"approach-retreat\",\"33\",\"425365\",\"0.0-33.0\",\"\",\"\",\"3-1\",\"4258\",\"37\",\"1\",\"Training\",\"Stims/Figures/57-J-0-1.bmp\",\"tapa:ta\",\"Left\",\"37\",\"2\",\"14\",\"4\",\"P\",\"C\",\"30\"
\"\",\"\",\"approach-retreat\",\"34\",\"431031\",\"0.0-34.0\",\"\",\"\",\"3-1\",\"4122\",\"37\",\"1\",\"Training\",\"Stims/Figures/85-J-0-2.bmp\",\"takaka\",\"Left\",\"37\",\"2\",\"15\",\"4\",\"P\",\"C\",\"31\"
\"\",\"\",\"approach-retreat\",\"35\",\"436662\",\"0.0-35.0\",\"\",\"\",\"3-1\",\"4084\",\"39\",\"1\",\"Training\",\"Stims/Figures/85-C-20-2.bmp\",\"ma:lala\",\"Left\",\"39\",\"2\",\"16\",\"4\",\"S\",\"C\",\"32\"
\"\",\"\",\"approach-retreat\",\"36\",\"442795\",\"0.0-36.0\",\"\",\"\",\"3-1\",\"4598\",\"39\",\"1\",\"Training\",\"Stims/Figures/144-J-10-3.bmp\",\"papa:ka\",\"Right\",\"39\",\"3\",\"1\",\"4\",\"P\",\"C\",\"33\"
\"\",\"\",\"approach-retreat\",\"37\",\"448527\",\"0.0-37.0\",\"\",\"\",\"3-1\",\"4188\",\"38\",\"1\",\"Training\",\"Stims/Figures/100-C-30-3.bmp\",\"na:mana\",\"Down\",\"38\",\"3\",\"2\",\"4\",\"S\",\"C\",\"34\"
\"\",\"\",\"approach-retreat\",\"38\",\"454449\",\"0.0-38.0\",\"\",\"\",\"3-1\",\"4375\",\"38\",\"1\",\"Training\",\"Stims/Figures/7-C-20-4.bmp\",\"nala:la\",\"Down\",\"38\",\"3\",\"3\",\"4\",\"S\",\"C\",\"35\"
\"\",\"\",\"approach-retreat\",\"39\",\"460069\",\"0.0-39.0\",\"\",\"\",\"3-1\",\"4087\",\"37\",\"1\",\"Training\",\"Stims/Figures/57-C-30-1.bmp\",\"ma:mala\",\"Right\",\"37\",\"3\",\"4\",\"4\",\"S\",\"C\",\"36\"
\"\",\"\",\"approach-retreat\",\"40\",\"465701\",\"0.0-40.0\",\"\",\"\",\"3-1\",\"4088\",\"39\",\"1\",\"Training\",\"Stims/Figures/139-C-20-2.bmp\",\"mama:na\",\"Left\",\"39\",\"3\",\"5\",\"4\",\"S\",\"C\",\"37\"
\"\",\"\",\"approach-retreat\",\"41\",\"471783\",\"0.0-41.0\",\"\",\"\",\"3-1\",\"4544\",\"38\",\"1\",\"Training\",\"Stims/Figures/139-J-0-2.bmp\",\"ta:paka\",\"Up\",\"38\",\"3\",\"6\",\"4\",\"P\",\"C\",\"38\"
\"\",\"\",\"approach-retreat\",\"42\",\"477552\",\"0.0-42.0\",\"\",\"\",\"3-1\",\"4228\",\"40\",\"1\",\"Training\",\"Stims/Figures/86-C-30-1.bmp\",\"ma:ma:la\",\"Up\",\"40\",\"3\",\"7\",\"4\",\"S\",\"C\",\"39\"
\"\",\"\",\"approach-retreat\",\"43\",\"483401\",\"0.0-43.0\",\"\",\"\",\"3-1\",\"4313\",\"40\",\"1\",\"Training\",\"Stims/Figures/74-C-20-4.bmp\",\"na:lana\",\"Up\",\"40\",\"3\",\"8\",\"4\",\"S\",\"C\",\"40\"
\"\",\"\",\"approach-retreat\",\"44\",\"488982\",\"0.0-44.0\",\"\",\"\",\"3-1\",\"4043\",\"39\",\"1\",\"Training\",\"Stims/Figures/144-C-30-3.bmp\",\"malana\",\"Left\",\"39\",\"3\",\"9\",\"4\",\"S\",\"C\",\"41\"
\"\",\"\",\"approach-retreat\",\"45\",\"494680\",\"0.0-45.0\",\"\",\"\",\"3-1\",\"4159\",\"37\",\"1\",\"Training\",\"Stims/Figures/100-J-10-3.bmp\",\"pa:ka:ka\",\"Left\",\"37\",\"3\",\"10\",\"4\",\"P\",\"C\",\"42\"
\"\",\"\",\"approach-retreat\",\"46\",\"500387\",\"0.0-46.0\",\"\",\"\",\"3-1\",\"4169\",\"38\",\"1\",\"Training\",\"Stims/Figures/86-J-0-1.bmp\",\"ta:ka:ka\",\"Up\",\"38\",\"3\",\"11\",\"4\",\"P\",\"C\",\"43\"
\"\",\"\",\"approach-retreat\",\"47\",\"506053\",\"0.0-47.0\",\"\",\"\",\"3-1\",\"4121\",\"39\",\"1\",\"Training\",\"Stims/Figures/57-J-0-1.bmp\",\"tapa:ta\",\"Right\",\"39\",\"3\",\"12\",\"4\",\"P\",\"C\",\"44\"
\"\",\"\",\"approach-retreat\",\"48\",\"511779\",\"0.0-48.0\",\"\",\"\",\"3-1\",\"4190\",\"40\",\"1\",\"Training\",\"Stims/Figures/7-J-10-4.bmp\",\"paka:ka\",\"Down\",\"40\",\"3\",\"13\",\"4\",\"P\",\"C\",\"45\"
\"\",\"\",\"approach-retreat\",\"49\",\"517442\",\"0.0-49.0\",\"\",\"\",\"3-1\",\"4126\",\"39\",\"1\",\"Training\",\"Stims/Figures/85-C-20-2.bmp\",\"ma:lala\",\"Left\",\"39\",\"3\",\"14\",\"4\",\"S\",\"C\",\"46\"
\"\",\"\",\"approach-retreat\",\"50\",\"523122\",\"0.0-50.0\",\"\",\"\",\"3-1\",\"4142\",\"40\",\"1\",\"Training\",\"Stims/Figures/74-J-10-4.bmp\",\"papa:ta\",\"Down\",\"40\",\"3\",\"15\",\"4\",\"P\",\"C\",\"47\"
\"\",\"\",\"approach-retreat\",\"51\",\"528791\",\"0.0-51.0\",\"\",\"\",\"3-1\",\"4134\",\"39\",\"1\",\"Training\",\"Stims/Figures/85-J-0-2.bmp\",\"takaka\",\"Right\",\"39\",\"3\",\"16\",\"4\",\"P\",\"C\",\"48\"
\"\",\"\",\"approach-retreat\",\"52\",\"534418\",\"0.0-52.0\",\"\",\"\",\"3-1\",\"4084\",\"37\",\"1\",\"Training\",\"Stims/Figures/86-J-0-1.bmp\",\"ta:ka:ka\",\"Left\",\"37\",\"4\",\"1\",\"4\",\"P\",\"C\",\"49\"
\"\",\"\",\"approach-retreat\",\"53\",\"540211\",\"0.0-53.0\",\"\",\"\",\"3-1\",\"4252\",\"38\",\"1\",\"Training\",\"Stims/Figures/86-C-30-1.bmp\",\"ma:ma:la\",\"Down\",\"38\",\"4\",\"2\",\"4\",\"S\",\"C\",\"50\"
\"\",\"\",\"approach-retreat\",\"54\",\"545818\",\"0.0-54.0\",\"\",\"\",\"3-1\",\"4067\",\"39\",\"1\",\"Training\",\"Stims/Figures/100-J-10-3.bmp\",\"pa:ka:ka\",\"Right\",\"39\",\"4\",\"3\",\"4\",\"P\",\"C\",\"51\"
\"\",\"\",\"approach-retreat\",\"55\",\"551381\",\"0.0-55.0\",\"\",\"\",\"3-1\",\"4023\",\"37\",\"1\",\"Training\",\"Stims/Figures/57-C-30-1.bmp\",\"ma:mala\",\"Right\",\"37\",\"4\",\"4\",\"4\",\"S\",\"C\",\"52\"
\"\",\"\",\"approach-retreat\",\"56\",\"557274\",\"0.0-56.0\",\"\",\"\",\"3-1\",\"4353\",\"40\",\"1\",\"Training\",\"Stims/Figures/74-J-10-4.bmp\",\"papa:ta\",\"Down\",\"40\",\"4\",\"5\",\"4\",\"P\",\"C\",\"53\"
\"\",\"\",\"approach-retreat\",\"57\",\"563017\",\"0.0-57.0\",\"\",\"\",\"3-1\",\"4218\",\"38\",\"1\",\"Training\",\"Stims/Figures/100-C-30-3.bmp\",\"na:mana\",\"Down\",\"38\",\"4\",\"6\",\"4\",\"S\",\"C\",\"54\"
\"\",\"\",\"approach-retreat\",\"58\",\"568702\",\"0.0-58.0\",\"\",\"\",\"3-1\",\"4169\",\"39\",\"1\",\"Training\",\"Stims/Figures/144-C-30-3.bmp\",\"malana\",\"Left\",\"39\",\"4\",\"7\",\"4\",\"S\",\"C\",\"55\"
\"\",\"\",\"approach-retreat\",\"59\",\"574749\",\"0.0-59.0\",\"\",\"\",\"3-1\",\"4502\",\"37\",\"1\",\"Training\",\"Stims/Figures/139-C-20-2.bmp\",\"mama:na\",\"Right\",\"37\",\"4\",\"8\",\"4\",\"S\",\"C\",\"56\"
\"\",\"\",\"approach-retreat\",\"60\",\"580314\",\"0.0-60.0\",\"\",\"\",\"3-1\",\"4026\",\"39\",\"1\",\"Training\",\"Stims/Figures/7-C-20-4.bmp\",\"nala:la\",\"Left\",\"39\",\"4\",\"9\",\"4\",\"S\",\"C\",\"57\"
\"\",\"\",\"approach-retreat\",\"61\",\"586194\",\"0.0-61.0\",\"\",\"\",\"3-1\",\"4332\",\"38\",\"1\",\"Training\",\"Stims/Figures/85-J-0-2.bmp\",\"takaka\",\"Up\",\"38\",\"4\",\"10\",\"4\",\"P\",\"C\",\"58\"
\"\",\"\",\"approach-retreat\",\"62\",\"591909\",\"0.0-62.0\",\"\",\"\",\"3-1\",\"4194\",\"39\",\"1\",\"Training\",\"Stims/Figures/139-J-0-2.bmp\",\"ta:paka\",\"Right\",\"39\",\"4\",\"11\",\"4\",\"P\",\"C\",\"59\"
\"\",\"\",\"approach-retreat\",\"63\",\"597623\",\"0.0-63.0\",\"\",\"\",\"3-1\",\"4174\",\"40\",\"1\",\"Training\",\"Stims/Figures/74-C-20-4.bmp\",\"na:lana\",\"Up\",\"40\",\"4\",\"12\",\"4\",\"S\",\"C\",\"60\"
\"\",\"\",\"approach-retreat\",\"64\",\"603202\",\"0.0-64.0\",\"\",\"\",\"3-1\",\"4036\",\"40\",\"1\",\"Training\",\"Stims/Figures/85-C-20-2.bmp\",\"ma:lala\",\"Up\",\"40\",\"4\",\"13\",\"4\",\"S\",\"C\",\"61\"
\"\",\"\",\"approach-retreat\",\"65\",\"609400\",\"0.0-65.0\",\"\",\"\",\"3-1\",\"4657\",\"38\",\"1\",\"Training\",\"Stims/Figures/57-J-0-1.bmp\",\"tapa:ta\",\"Up\",\"38\",\"4\",\"14\",\"4\",\"P\",\"C\",\"62\"
\"\",\"\",\"approach-retreat\",\"66\",\"615168\",\"0.0-66.0\",\"\",\"\",\"3-1\",\"4231\",\"37\",\"1\",\"Training\",\"Stims/Figures/144-J-10-3.bmp\",\"papa:ka\",\"Left\",\"37\",\"4\",\"15\",\"4\",\"P\",\"C\",\"63\"
\"\",\"\",\"approach-retreat\",\"67\",\"620747\",\"0.0-67.0\",\"\",\"\",\"3-1\",\"4033\",\"40\",\"1\",\"Training\",\"Stims/Figures/7-J-10-4.bmp\",\"paka:ka\",\"Down\",\"40\",\"4\",\"16\",\"4\",\"P\",\"C\",\"64\"
\"\",\"\",\"approach-retreat\",\"68\",\"626413\",\"0.0-68.0\",\"\",\"\",\"3-1\",\"4119\",\"39\",\"1\",\"Training\",\"Stims/Figures/85-C-20-2.bmp\",\"ma:lala\",\"Left\",\"39\",\"5\",\"1\",\"4\",\"S\",\"C\",\"65\"
\"\",\"\",\"approach-retreat\",\"69\",\"632030\",\"0.0-69.0\",\"\",\"\",\"3-1\",\"4082\",\"37\",\"1\",\"Training\",\"Stims/Figures/74-J-10-4.bmp\",\"papa:ta\",\"Left\",\"37\",\"5\",\"2\",\"4\",\"P\",\"C\",\"66\"
\"\",\"\",\"approach-retreat\",\"70\",\"637750\",\"0.0-70.0\",\"\",\"\",\"3-1\",\"4178\",\"38\",\"1\",\"Training\",\"Stims/Figures/7-C-20-4.bmp\",\"nala:la\",\"Down\",\"38\",\"5\",\"3\",\"4\",\"S\",\"C\",\"67\"
\"\",\"\",\"approach-retreat\",\"71\",\"643584\",\"0.0-71.0\",\"\",\"\",\"3-1\",\"4296\",\"38\",\"1\",\"Training\",\"Stims/Figures/7-J-10-4.bmp\",\"paka:ka\",\"Up\",\"38\",\"5\",\"4\",\"4\",\"P\",\"C\",\"68\"
\"\",\"\",\"approach-retreat\",\"72\",\"649294\",\"0.0-72.0\",\"\",\"\",\"3-1\",\"4167\",\"40\",\"1\",\"Training\",\"Stims/Figures/144-C-30-3.bmp\",\"malana\",\"Up\",\"40\",\"5\",\"5\",\"4\",\"S\",\"C\",\"69\"
\"\",\"\",\"approach-retreat\",\"73\",\"654926\",\"0.0-73.0\",\"\",\"\",\"3-1\",\"4097\",\"39\",\"1\",\"Training\",\"Stims/Figures/139-C-20-2.bmp\",\"mama:na\",\"Left\",\"39\",\"5\",\"6\",\"4\",\"S\",\"C\",\"70\"
\"\",\"\",\"approach-retreat\",\"74\",\"661187\",\"0.0-74.0\",\"\",\"\",\"3-1\",\"4716\",\"38\",\"1\",\"Training\",\"Stims/Figures/144-J-10-3.bmp\",\"papa:ka\",\"Up\",\"38\",\"5\",\"7\",\"4\",\"P\",\"C\",\"71\"
\"\",\"\",\"approach-retreat\",\"75\",\"667228\",\"0.0-75.0\",\"\",\"\",\"3-1\",\"4497\",\"39\",\"1\",\"Training\",\"Stims/Figures/100-J-10-3.bmp\",\"pa:ka:ka\",\"Right\",\"39\",\"5\",\"8\",\"4\",\"P\",\"C\",\"72\"
\"\",\"\",\"approach-retreat\",\"76\",\"672734\",\"0.0-76.0\",\"\",\"\",\"3-1\",\"3966\",\"37\",\"1\",\"Training\",\"Stims/Figures/74-C-20-4.bmp\",\"na:lana\",\"Right\",\"37\",\"5\",\"9\",\"4\",\"S\",\"C\",\"73\"
\"\",\"\",\"approach-retreat\",\"77\",\"678374\",\"0.0-77.0\",\"\",\"\",\"3-1\",\"4102\",\"39\",\"1\",\"Training\",\"Stims/Figures/57-J-0-1.bmp\",\"tapa:ta\",\"Right\",\"39\",\"5\",\"10\",\"4\",\"P\",\"C\",\"74\"
\"\",\"\",\"approach-retreat\",\"78\",\"684407\",\"0.0-78.0\",\"\",\"\",\"3-1\",\"4488\",\"39\",\"1\",\"Training\",\"Stims/Figures/57-C-30-1.bmp\",\"ma:mala\",\"Left\",\"39\",\"5\",\"11\",\"4\",\"S\",\"C\",\"75\"
\"\",\"\",\"approach-retreat\",\"79\",\"690043\",\"0.0-79.0\",\"\",\"\",\"3-1\",\"4090\",\"40\",\"1\",\"Training\",\"Stims/Figures/86-J-0-1.bmp\",\"ta:ka:ka\",\"Down\",\"40\",\"5\",\"12\",\"4\",\"P\",\"C\",\"76\"
\"\",\"\",\"approach-retreat\",\"80\",\"696106\",\"0.0-80.0\",\"\",\"\",\"3-1\",\"4525\",\"37\",\"1\",\"Training\",\"Stims/Figures/86-C-30-1.bmp\",\"ma:ma:la\",\"Right\",\"37\",\"5\",\"13\",\"4\",\"S\",\"C\",\"77\"
\"\",\"\",\"approach-retreat\",\"81\",\"701770\",\"0.0-81.0\",\"\",\"\",\"3-1\",\"4125\",\"38\",\"1\",\"Training\",\"Stims/Figures/100-C-30-3.bmp\",\"na:mana\",\"Down\",\"38\",\"5\",\"14\",\"4\",\"S\",\"C\",\"78\"
\"\",\"\",\"approach-retreat\",\"82\",\"707356\",\"0.0-82.0\",\"\",\"\",\"3-1\",\"4046\",\"40\",\"1\",\"Training\",\"Stims/Figures/85-J-0-2.bmp\",\"takaka\",\"Down\",\"40\",\"5\",\"15\",\"4\",\"P\",\"C\",\"79\"
\"\",\"\",\"approach-retreat\",\"83\",\"713082\",\"0.0-83.0\",\"\",\"\",\"3-1\",\"4182\",\"38\",\"1\",\"Training\",\"Stims/Figures/139-J-0-2.bmp\",\"ta:paka\",\"Up\",\"38\",\"5\",\"16\",\"4\",\"P\",\"C\",\"80\"
\"\",\"\",\"approach-retreat\",\"84\",\"718659\",\"0.0-84.0\",\"\",\"\",\"3-1\",\"4046\",\"38\",\"1\",\"Training\",\"Stims/Figures/86-C-30-1.bmp\",\"ma:ma:la\",\"Down\",\"38\",\"6\",\"1\",\"4\",\"S\",\"C\",\"81\"
\"\",\"\",\"approach-retreat\",\"85\",\"724435\",\"0.0-85.0\",\"\",\"\",\"3-1\",\"4258\",\"38\",\"1\",\"Training\",\"Stims/Figures/100-J-10-3.bmp\",\"pa:ka:ka\",\"Up\",\"38\",\"6\",\"2\",\"4\",\"P\",\"C\",\"82\"
\"\",\"\",\"approach-retreat\",\"86\",\"730285\",\"0.0-86.0\",\"\",\"\",\"3-1\",\"4310\",\"37\",\"1\",\"Training\",\"Stims/Figures/100-C-30-3.bmp\",\"na:mana\",\"Right\",\"37\",\"6\",\"3\",\"4\",\"S\",\"C\",\"83\"
\"\",\"\",\"approach-retreat\",\"87\",\"736079\",\"0.0-87.0\",\"\",\"\",\"3-1\",\"4263\",\"37\",\"1\",\"Training\",\"Stims/Figures/139-C-20-2.bmp\",\"mama:na\",\"Right\",\"37\",\"6\",\"4\",\"4\",\"S\",\"C\",\"84\"
\"\",\"\",\"approach-retreat\",\"88\",\"741991\",\"0.0-88.0\",\"\",\"\",\"3-1\",\"4369\",\"37\",\"1\",\"Training\",\"Stims/Figures/86-J-0-1.bmp\",\"ta:ka:ka\",\"Left\",\"37\",\"6\",\"5\",\"4\",\"P\",\"C\",\"85\"
\"\",\"\",\"approach-retreat\",\"89\",\"748446\",\"0.0-89.0\",\"\",\"\",\"3-1\",\"4915\",\"38\",\"1\",\"Training\",\"Stims/Figures/144-C-30-3.bmp\",\"malana\",\"Down\",\"38\",\"6\",\"6\",\"4\",\"S\",\"C\",\"86\"
\"\",\"\",\"approach-retreat\",\"90\",\"754078\",\"0.0-90.0\",\"\",\"\",\"3-1\",\"4094\",\"37\",\"1\",\"Training\",\"Stims/Figures/74-C-20-4.bmp\",\"na:lana\",\"Right\",\"37\",\"6\",\"7\",\"4\",\"S\",\"C\",\"87\"
\"\",\"\",\"approach-retreat\",\"91\",\"759970\",\"0.0-91.0\",\"\",\"\",\"3-1\",\"4347\",\"39\",\"1\",\"Training\",\"Stims/Figures/139-J-0-2.bmp\",\"ta:paka\",\"Right\",\"39\",\"6\",\"8\",\"4\",\"P\",\"C\",\"88\"
\"\",\"\",\"approach-retreat\",\"92\",\"765572\",\"0.0-92.0\",\"\",\"\",\"3-1\",\"4069\",\"40\",\"1\",\"Training\",\"Stims/Figures/57-J-0-1.bmp\",\"tapa:ta\",\"Down\",\"40\",\"6\",\"9\",\"4\",\"P\",\"C\",\"89\"
\"\",\"\",\"approach-retreat\",\"93\",\"771485\",\"0.0-93.0\",\"\",\"\",\"3-1\",\"4369\",\"38\",\"1\",\"Training\",\"Stims/Figures/85-J-0-2.bmp\",\"takaka\",\"Up\",\"38\",\"6\",\"10\",\"4\",\"P\",\"C\",\"90\"
\"\",\"\",\"approach-retreat\",\"94\",\"777918\",\"0.0-94.0\",\"\",\"\",\"3-1\",\"4892\",\"40\",\"1\",\"Training\",\"Stims/Figures/7-C-20-4.bmp\",\"nala:la\",\"Up\",\"40\",\"6\",\"11\",\"4\",\"S\",\"C\",\"91\"
\"\",\"\",\"approach-retreat\",\"95\",\"783516\",\"0.0-95.0\",\"\",\"\",\"3-1\",\"4061\",\"39\",\"1\",\"Training\",\"Stims/Figures/85-C-20-2.bmp\",\"ma:lala\",\"Left\",\"39\",\"6\",\"12\",\"4\",\"S\",\"C\",\"92\"
\"\",\"\",\"approach-retreat\",\"96\",\"789234\",\"0.0-96.0\",\"\",\"\",\"3-1\",\"4175\",\"40\",\"1\",\"Training\",\"Stims/Figures/144-J-10-3.bmp\",\"papa:ka\",\"Down\",\"40\",\"6\",\"13\",\"4\",\"P\",\"C\",\"93\"
\"\",\"\",\"approach-retreat\",\"97\",\"795138\",\"0.0-97.0\",\"\",\"\",\"3-1\",\"4362\",\"38\",\"1\",\"Training\",\"Stims/Figures/7-J-10-4.bmp\",\"paka:ka\",\"Up\",\"38\",\"6\",\"14\",\"4\",\"P\",\"C\",\"94\"
\"\",\"\",\"approach-retreat\",\"98\",\"800977\",\"0.0-98.0\",\"\",\"\",\"3-1\",\"4292\",\"37\",\"1\",\"Training\",\"Stims/Figures/74-J-10-4.bmp\",\"papa:ta\",\"Left\",\"37\",\"6\",\"15\",\"4\",\"P\",\"C\",\"95\"
\"\",\"\",\"approach-retreat\",\"99\",\"806815\",\"0.0-99.0\",\"\",\"\",\"3-1\",\"4295\",\"39\",\"1\",\"Training\",\"Stims/Figures/57-C-30-1.bmp\",\"ma:mala\",\"Left\",\"39\",\"6\",\"16\",\"4\",\"S\",\"C\",\"96\"
\"\",\"\",\"approach-retreat\",\"100\",\"812691\",\"0.0-100.0\",\"\",\"\",\"3-1\",\"4332\",\"38\",\"1\",\"Training\",\"Stims/Figures/85-J-0-2.bmp\",\"takaka\",\"Up\",\"38\",\"7\",\"1\",\"4\",\"P\",\"C\",\"97\"
\"\",\"\",\"approach-retreat\",\"101\",\"818329\",\"0.0-101.0\",\"\",\"\",\"3-1\",\"4118\",\"39\",\"1\",\"Training\",\"Stims/Figures/7-J-10-4.bmp\",\"paka:ka\",\"Right\",\"39\",\"7\",\"2\",\"4\",\"P\",\"C\",\"98\"
\"\",\"\",\"approach-retreat\",\"102\",\"823911\",\"0.0-102.0\",\"\",\"\",\"3-1\",\"4034\",\"39\",\"1\",\"Training\",\"Stims/Figures/7-C-20-4.bmp\",\"nala:la\",\"Left\",\"39\",\"7\",\"3\",\"4\",\"S\",\"C\",\"99\"
\"\",\"\",\"approach-retreat\",\"103\",\"829624\",\"0.0-103.0\",\"\",\"\",\"3-1\",\"4176\",\"37\",\"1\",\"Training\",\"Stims/Figures/100-C-30-3.bmp\",\"na:mana\",\"Right\",\"37\",\"7\",\"4\",\"4\",\"S\",\"C\",\"100\"
\"\",\"\",\"approach-retreat\",\"104\",\"835412\",\"0.0-104.0\",\"\",\"\",\"3-1\",\"4247\",\"37\",\"1\",\"Training\",\"Stims/Figures/57-C-30-1.bmp\",\"ma:mala\",\"Right\",\"37\",\"7\",\"5\",\"4\",\"S\",\"C\",\"101\"
\"\",\"\",\"approach-retreat\",\"105\",\"841107\",\"0.0-105.0\",\"\",\"\",\"3-1\",\"4153\",\"38\",\"1\",\"Training\",\"Stims/Figures/85-C-20-2.bmp\",\"ma:lala\",\"Down\",\"38\",\"7\",\"6\",\"4\",\"S\",\"C\",\"102\"
\"\",\"\",\"approach-retreat\",\"106\",\"846924\",\"0.0-106.0\",\"\",\"\",\"3-1\",\"4270\",\"40\",\"1\",\"Training\",\"Stims/Figures/139-J-0-2.bmp\",\"ta:paka\",\"Down\",\"40\",\"7\",\"7\",\"4\",\"P\",\"C\",\"103\"
\"\",\"\",\"approach-retreat\",\"107\",\"852569\",\"0.0-107.0\",\"\",\"\",\"3-1\",\"4113\",\"38\",\"1\",\"Training\",\"Stims/Figures/74-C-20-4.bmp\",\"na:lana\",\"Down\",\"38\",\"7\",\"8\",\"4\",\"S\",\"C\",\"104\"
\"\",\"\",\"approach-retreat\",\"108\",\"858238\",\"0.0-108.0\",\"\",\"\",\"3-1\",\"4124\",\"40\",\"1\",\"Training\",\"Stims/Figures/144-C-30-3.bmp\",\"malana\",\"Up\",\"40\",\"7\",\"9\",\"4\",\"S\",\"C\",\"105\"
\"\",\"\",\"approach-retreat\",\"109\",\"863884\",\"0.0-109.0\",\"\",\"\",\"3-1\",\"4102\",\"38\",\"1\",\"Training\",\"Stims/Figures/100-J-10-3.bmp\",\"pa:ka:ka\",\"Up\",\"38\",\"7\",\"10\",\"4\",\"P\",\"C\",\"106\"
\"\",\"\",\"approach-retreat\",\"110\",\"869795\",\"0.0-110.0\",\"\",\"\",\"3-1\",\"4370\",\"38\",\"1\",\"Training\",\"Stims/Figures/86-J-0-1.bmp\",\"ta:ka:ka\",\"Up\",\"38\",\"7\",\"11\",\"4\",\"P\",\"C\",\"107\"
\"\",\"\",\"approach-retreat\",\"111\",\"875446\",\"0.0-111.0\",\"\",\"\",\"3-1\",\"4111\",\"40\",\"1\",\"Training\",\"Stims/Figures/144-J-10-3.bmp\",\"papa:ka\",\"Down\",\"40\",\"7\",\"12\",\"4\",\"P\",\"C\",\"108\"
\"\",\"\",\"approach-retreat\",\"112\",\"881350\",\"0.0-112.0\",\"\",\"\",\"3-1\",\"4367\",\"37\",\"1\",\"Training\",\"Stims/Figures/86-C-30-1.bmp\",\"ma:ma:la\",\"Right\",\"37\",\"7\",\"13\",\"4\",\"S\",\"C\",\"109\"
\"\",\"\",\"approach-retreat\",\"113\",\"886928\",\"0.0-113.0\",\"\",\"\",\"3-1\",\"4044\",\"39\",\"1\",\"Training\",\"Stims/Figures/139-C-20-2.bmp\",\"mama:na\",\"Left\",\"39\",\"7\",\"14\",\"4\",\"S\",\"C\",\"110\"
\"\",\"\",\"approach-retreat\",\"114\",\"892571\",\"0.0-114.0\",\"\",\"\",\"3-1\",\"4102\",\"37\",\"1\",\"Training\",\"Stims/Figures/74-J-10-4.bmp\",\"papa:ta\",\"Left\",\"37\",\"7\",\"15\",\"4\",\"P\",\"C\",\"111\"
\"\",\"\",\"approach-retreat\",\"115\",\"898186\",\"0.0-115.0\",\"\",\"\",\"3-1\",\"4075\",\"37\",\"1\",\"Training\",\"Stims/Figures/57-J-0-1.bmp\",\"tapa:ta\",\"Left\",\"37\",\"7\",\"16\",\"4\",\"P\",\"C\",\"112\"
\"\",\"\",\"approach-retreat\",\"116\",\"904023\",\"0.0-116.0\",\"\",\"\",\"3-1\",\"4296\",\"39\",\"1\",\"Training\",\"Stims/Figures/74-C-20-4.bmp\",\"na:lana\",\"Left\",\"39\",\"8\",\"1\",\"4\",\"S\",\"C\",\"113\"
\"\",\"\",\"approach-retreat\",\"117\",\"909693\",\"0.0-117.0\",\"\",\"\",\"3-1\",\"4125\",\"37\",\"1\",\"Training\",\"Stims/Figures/144-C-30-3.bmp\",\"malana\",\"Right\",\"37\",\"8\",\"2\",\"4\",\"S\",\"C\",\"114\"
\"\",\"\",\"approach-retreat\",\"118\",\"915323\",\"0.0-118.0\",\"\",\"\",\"3-1\",\"4087\",\"38\",\"1\",\"Training\",\"Stims/Figures/85-J-0-2.bmp\",\"takaka\",\"Up\",\"38\",\"8\",\"3\",\"4\",\"P\",\"C\",\"115\"
\"\",\"\",\"approach-retreat\",\"119\",\"920993\",\"0.0-119.0\",\"\",\"\",\"3-1\",\"4158\",\"40\",\"1\",\"Training\",\"Stims/Figures/86-C-30-1.bmp\",\"ma:ma:la\",\"Up\",\"40\",\"8\",\"4\",\"4\",\"S\",\"C\",\"116\"
\"\",\"\",\"approach-retreat\",\"120\",\"927095\",\"0.0-120.0\",\"\",\"\",\"3-1\",\"4558\",\"37\",\"1\",\"Training\",\"Stims/Figures/139-J-0-2.bmp\",\"ta:paka\",\"Left\",\"37\",\"8\",\"5\",\"4\",\"P\",\"C\",\"117\"
\"\",\"\",\"approach-retreat\",\"121\",\"933454\",\"0.0-121.0\",\"\",\"\",\"3-1\",\"4819\",\"39\",\"1\",\"Training\",\"Stims/Figures/100-C-30-3.bmp\",\"na:mana\",\"Left\",\"39\",\"8\",\"6\",\"4\",\"S\",\"C\",\"118\"
\"\",\"\",\"approach-retreat\",\"122\",\"939291\",\"0.0-122.0\",\"\",\"\",\"3-1\",\"4307\",\"40\",\"1\",\"Training\",\"Stims/Figures/74-J-10-4.bmp\",\"papa:ta\",\"Down\",\"40\",\"8\",\"7\",\"4\",\"P\",\"C\",\"119\"
\"\",\"\",\"approach-retreat\",\"123\",\"945111\",\"0.0-123.0\",\"\",\"\",\"3-1\",\"4282\",\"40\",\"1\",\"Training\",\"Stims/Figures/100-J-10-3.bmp\",\"pa:ka:ka\",\"Down\",\"40\",\"8\",\"8\",\"4\",\"P\",\"C\",\"120\"
\"\",\"\",\"approach-retreat\",\"124\",\"951006\",\"0.0-124.0\",\"\",\"\",\"3-1\",\"4350\",\"39\",\"1\",\"Training\",\"Stims/Figures/57-J-0-1.bmp\",\"tapa:ta\",\"Right\",\"39\",\"8\",\"9\",\"4\",\"P\",\"C\",\"121\"
\"\",\"\",\"approach-retreat\",\"125\",\"957001\",\"0.0-125.0\",\"\",\"\",\"3-1\",\"4447\",\"40\",\"1\",\"Training\",\"Stims/Figures/7-C-20-4.bmp\",\"nala:la\",\"Up\",\"40\",\"8\",\"10\",\"4\",\"S\",\"C\",\"122\"
\"\",\"\",\"approach-retreat\",\"126\",\"962908\",\"0.0-126.0\",\"\",\"\",\"3-1\",\"4358\",\"37\",\"1\",\"Training\",\"Stims/Figures/57-C-30-1.bmp\",\"ma:mala\",\"Right\",\"37\",\"8\",\"11\",\"4\",\"S\",\"C\",\"123\"
\"\",\"\",\"approach-retreat\",\"127\",\"968944\",\"0.0-127.0\",\"\",\"\",\"3-1\",\"4491\",\"39\",\"1\",\"Training\",\"Stims/Figures/7-J-10-4.bmp\",\"paka:ka\",\"Right\",\"39\",\"8\",\"12\",\"4\",\"P\",\"C\",\"124\"
\"\",\"\",\"approach-retreat\",\"128\",\"974802\",\"0.0-128.0\",\"\",\"\",\"3-1\",\"4314\",\"39\",\"1\",\"Training\",\"Stims/Figures/85-C-20-2.bmp\",\"ma:lala\",\"Left\",\"39\",\"8\",\"13\",\"4\",\"S\",\"C\",\"125\"
\"\",\"\",\"approach-retreat\",\"129\",\"981069\",\"0.0-129.0\",\"\",\"\",\"3-1\",\"4725\",\"40\",\"1\",\"Training\",\"Stims/Figures/139-C-20-2.bmp\",\"mama:na\",\"Up\",\"40\",\"8\",\"14\",\"4\",\"S\",\"C\",\"126\"
\"\",\"\",\"approach-retreat\",\"130\",\"987320\",\"0.0-130.0\",\"\",\"\",\"3-1\",\"4705\",\"40\",\"1\",\"Training\",\"Stims/Figures/86-J-0-1.bmp\",\"ta:ka:ka\",\"Down\",\"40\",\"8\",\"15\",\"4\",\"P\",\"C\",\"127\"
\"\",\"\",\"approach-retreat\",\"131\",\"993014\",\"0.0-131.0\",\"\",\"\",\"3-1\",\"4158\",\"40\",\"1\",\"Training\",\"Stims/Figures/144-J-10-3.bmp\",\"papa:ka\",\"Down\",\"40\",\"8\",\"16\",\"4\",\"P\",\"C\",\"128\"
\"\",\"\",\"approach-retreat\",\"132\",\"999066\",\"0.0-132.0\",\"\",\"\",\"3-1\",\"4475\",\"40\",\"1\",\"Training\",\"Stims/Figures/57-C-30-1.bmp\",\"ma:mala\",\"Up\",\"40\",\"9\",\"1\",\"4\",\"S\",\"C\",\"129\"
\"\",\"\",\"approach-retreat\",\"133\",\"1005150\",\"0.0-133.0\",\"\",\"\",\"3-1\",\"4540\",\"38\",\"1\",\"Training\",\"Stims/Figures/144-C-30-3.bmp\",\"malana\",\"Down\",\"38\",\"9\",\"2\",\"4\",\"S\",\"C\",\"130\"
\"\",\"\",\"approach-retreat\",\"134\",\"1010773\",\"0.0-134.0\",\"\",\"\",\"3-1\",\"4080\",\"39\",\"1\",\"Training\",\"Stims/Figures/85-J-0-2.bmp\",\"takaka\",\"Right\",\"39\",\"9\",\"3\",\"4\",\"P\",\"C\",\"131\"
\"\",\"\",\"approach-retreat\",\"135\",\"1016622\",\"0.0-135.0\",\"\",\"\",\"3-1\",\"4307\",\"37\",\"1\",\"Training\",\"Stims/Figures/74-C-20-4.bmp\",\"na:lana\",\"Right\",\"37\",\"9\",\"4\",\"4\",\"S\",\"C\",\"132\"
\"\",\"\",\"approach-retreat\",\"136\",\"1022673\",\"0.0-136.0\",\"\",\"\",\"3-1\",\"4510\",\"39\",\"1\",\"Training\",\"Stims/Figures/100-C-30-3.bmp\",\"na:mana\",\"Left\",\"39\",\"9\",\"5\",\"4\",\"S\",\"C\",\"133\"
\"\",\"\",\"approach-retreat\",\"137\",\"1028281\",\"0.0-137.0\",\"\",\"\",\"3-1\",\"4063\",\"40\",\"1\",\"Training\",\"Stims/Figures/7-J-10-4.bmp\",\"paka:ka\",\"Down\",\"40\",\"9\",\"6\",\"4\",\"P\",\"C\",\"134\"
\"\",\"\",\"approach-retreat\",\"138\",\"1034480\",\"0.0-138.0\",\"\",\"\",\"3-1\",\"4675\",\"39\",\"1\",\"Training\",\"Stims/Figures/86-J-0-1.bmp\",\"ta:ka:ka\",\"Right\",\"39\",\"9\",\"7\",\"4\",\"P\",\"C\",\"135\"
\"\",\"\",\"approach-retreat\",\"139\",\"1040548\",\"0.0-139.0\",\"\",\"\",\"3-1\",\"4531\",\"39\",\"1\",\"Training\",\"Stims/Figures/100-J-10-3.bmp\",\"pa:ka:ka\",\"Right\",\"39\",\"9\",\"8\",\"4\",\"P\",\"C\",\"136\"
\"\",\"\",\"approach-retreat\",\"140\",\"1046402\",\"0.0-140.0\",\"\",\"\",\"3-1\",\"4309\",\"40\",\"1\",\"Training\",\"Stims/Figures/7-C-20-4.bmp\",\"nala:la\",\"Up\",\"40\",\"9\",\"9\",\"4\",\"S\",\"C\",\"137\"
\"\",\"\",\"approach-retreat\",\"141\",\"1052009\",\"0.0-141.0\",\"\",\"\",\"3-1\",\"4060\",\"37\",\"1\",\"Training\",\"Stims/Figures/144-J-10-3.bmp\",\"papa:ka\",\"Left\",\"37\",\"9\",\"10\",\"4\",\"P\",\"C\",\"138\"
\"\",\"\",\"approach-retreat\",\"142\",\"1057743\",\"0.0-142.0\",\"\",\"\",\"3-1\",\"4188\",\"40\",\"1\",\"Training\",\"Stims/Figures/86-C-30-1.bmp\",\"ma:ma:la\",\"Up\",\"40\",\"9\",\"11\",\"4\",\"S\",\"C\",\"139\"
\"\",\"\",\"approach-retreat\",\"143\",\"1063778\",\"0.0-143.0\",\"\",\"\",\"3-1\",\"4492\",\"38\",\"1\",\"Training\",\"Stims/Figures/139-J-0-2.bmp\",\"ta:paka\",\"Up\",\"38\",\"9\",\"12\",\"4\",\"P\",\"C\",\"140\"
\"\",\"\",\"approach-retreat\",\"144\",\"1069587\",\"0.0-144.0\",\"\",\"\",\"3-1\",\"4263\",\"37\",\"1\",\"Training\",\"Stims/Figures/57-J-0-1.bmp\",\"tapa:ta\",\"Left\",\"37\",\"9\",\"13\",\"4\",\"P\",\"C\",\"141\"
\"\",\"\",\"approach-retreat\",\"145\",\"1075261\",\"0.0-145.0\",\"\",\"\",\"3-1\",\"4137\",\"38\",\"1\",\"Training\",\"Stims/Figures/85-C-20-2.bmp\",\"ma:lala\",\"Down\",\"38\",\"9\",\"14\",\"4\",\"S\",\"C\",\"142\"
\"\",\"\",\"approach-retreat\",\"146\",\"1081031\",\"0.0-146.0\",\"\",\"\",\"3-1\",\"4233\",\"40\",\"1\",\"Training\",\"Stims/Figures/74-J-10-4.bmp\",\"papa:ta\",\"Down\",\"40\",\"9\",\"15\",\"4\",\"P\",\"C\",\"143\"
\"\",\"\",\"approach-retreat\",\"147\",\"1087031\",\"0.0-147.0\",\"\",\"\",\"3-1\",\"4455\",\"37\",\"0\",\"Training\",\"Stims/Figures/139-C-20-2.bmp\",\"mama:na\",\"Left\",\"39\",\"9\",\"16\",\"4\",\"S\",\"C\",\"144\"
\"48080\",\"\",\"instructions\",\"148\",\"1135112\",\"0.0-148.0\",\"[{\"\"page_index\"\":0,\"\"viewing_time\"\":48077}]\",\"\",\"\",\"\",\"\",\"\",\"\",\"\",\"\",\"\",\"\",\"\",\"\",\"\",\"\",\"\",\"\"
\"\",\"\",\"approach-retreat\",\"149\",\"1141525\",\"0.0-149.0\",\"\",\"\",\"3-1\",\"4895\",\"37\",\"1\",\"Testing\",\"Stims/Figures/102-J-10-4.bmp\",\"ta:kaka\",\"Left\",\"37\",\"1\",\"1\",\"4\",\"P\",\"C\",\"1\"
\"\",\"\",\"approach-retreat\",\"150\",\"1147408\",\"0.0-150.0\",\"\",\"\",\"3-1\",\"4357\",\"38\",\"1\",\"Testing\",\"Stims/Figures/57-J-0-1.bmp\",\"tapa:ta\",\"Up\",\"38\",\"1\",\"2\",\"4\",\"P\",\"C\",\"2\"
\"\",\"\",\"approach-retreat\",\"151\",\"1154377\",\"0.0-151.0\",\"\",\"\",\"3-1\",\"5431\",\"38\",\"1\",\"Testing\",\"Stims/Figures/74-J-10-4.bmp\",\"papa:ta\",\"Up\",\"38\",\"1\",\"3\",\"4\",\"P\",\"C\",\"3\"
\"\",\"\",\"approach-retreat\",\"152\",\"1162452\",\"0.0-152.0\",\"\",\"\",\"3-1\",\"6544\",\"40\",\"1\",\"Testing\",\"Stims/Figures/74-C-20-4.bmp\",\"na:lana\",\"Up\",\"40\",\"1\",\"4\",\"4\",\"S\",\"C\",\"4\"
\"\",\"\",\"approach-retreat\",\"153\",\"1170457\",\"0.0-153.0\",\"\",\"\",\"3-1\",\"6475\",\"40\",\"0\",\"Testing\",\"Stims/Figures/7-J-10-4.bmp\",\"paka:ka\",\"Up\",\"38\",\"1\",\"5\",\"4\",\"P\",\"C\",\"5\"
\"\",\"\",\"approach-retreat\",\"154\",\"1176167\",\"0.0-154.0\",\"\",\"\",\"3-1\",\"4180\",\"38\",\"0\",\"Testing\",\"Stims/Figures/111-J-10-3.bmp\",\"papata\",\"Down\",\"40\",\"1\",\"6\",\"4\",\"P\",\"C\",\"6\"
\"\",\"\",\"approach-retreat\",\"155\",\"1181895\",\"0.0-155.0\",\"\",\"\",\"3-1\",\"4198\",\"39\",\"1\",\"Testing\",\"Stims/Figures/139-C-20-2.bmp\",\"mama:na\",\"Left\",\"39\",\"1\",\"7\",\"4\",\"S\",\"C\",\"7\"
\"\",\"\",\"approach-retreat\",\"156\",\"1187682\",\"0.0-156.0\",\"\",\"\",\"3-1\",\"4253\",\"37\",\"1\",\"Testing\",\"Stims/Figures/100-C-30-3.bmp\",\"na:mana\",\"Right\",\"37\",\"1\",\"8\",\"4\",\"S\",\"C\",\"8\"
\"\",\"\",\"approach-retreat\",\"157\",\"1193568\",\"0.0-157.0\",\"\",\"\",\"3-1\",\"4367\",\"38\",\"1\",\"Testing\",\"Stims/Figures/71-C-30-1.bmp\",\"namana\",\"Down\",\"38\",\"1\",\"9\",\"4\",\"S\",\"C\",\"9\"
\"\",\"\",\"approach-retreat\",\"158\",\"1199464\",\"0.0-158.0\",\"\",\"\",\"3-1\",\"4366\",\"38\",\"0\",\"Testing\",\"Stims/Figures/144-J-10-3.bmp\",\"papa:ka\",\"Down\",\"40\",\"1\",\"10\",\"4\",\"P\",\"C\",\"10\"
\"\",\"\",\"approach-retreat\",\"159\",\"1205376\",\"0.0-159.0\",\"\",\"\",\"3-1\",\"4381\",\"40\",\"1\",\"Testing\",\"Stims/Figures/84-J-0-2.bmp\",\"pa:pata\",\"Down\",\"40\",\"1\",\"11\",\"4\",\"P\",\"C\",\"11\"
\"\",\"\",\"approach-retreat\",\"160\",\"1211142\",\"0.0-160.0\",\"\",\"\",\"3-1\",\"4233\",\"39\",\"1\",\"Testing\",\"Stims/Figures/85-J-0-2.bmp\",\"takaka\",\"Right\",\"39\",\"1\",\"12\",\"4\",\"P\",\"C\",\"12\"
\"\",\"\",\"approach-retreat\",\"161\",\"1216872\",\"0.0-161.0\",\"\",\"\",\"3-1\",\"4200\",\"38\",\"1\",\"Testing\",\"Stims/Figures/102-C-20-4.bmp\",\"mala:na\",\"Down\",\"38\",\"1\",\"13\",\"4\",\"S\",\"C\",\"13\"
\"\",\"\",\"approach-retreat\",\"162\",\"1222776\",\"0.0-162.0\",\"\",\"\",\"3-1\",\"4372\",\"38\",\"1\",\"Testing\",\"Stims/Figures/139-J-0-2.bmp\",\"ta:paka\",\"Up\",\"38\",\"1\",\"14\",\"4\",\"P\",\"C\",\"14\"
\"\",\"\",\"approach-retreat\",\"163\",\"1228506\",\"0.0-163.0\",\"\",\"\",\"3-1\",\"4199\",\"37\",\"1\",\"Testing\",\"Stims/Figures/84-C-20-2.bmp\",\"nama:na\",\"Right\",\"37\",\"1\",\"15\",\"4\",\"S\",\"C\",\"15\"
\"\",\"\",\"approach-retreat\",\"164\",\"1234206\",\"0.0-164.0\",\"\",\"\",\"3-1\",\"4168\",\"37\",\"1\",\"Testing\",\"Stims/Figures/111-C-30-3.bmp\",\"nalala\",\"Right\",\"37\",\"1\",\"16\",\"4\",\"S\",\"C\",\"16\"
\"\",\"\",\"approach-retreat\",\"165\",\"1240044\",\"0.0-165.0\",\"\",\"\",\"3-1\",\"4296\",\"40\",\"1\",\"Testing\",\"Stims/Figures/85-C-20-2.bmp\",\"ma:lala\",\"Up\",\"40\",\"1\",\"17\",\"4\",\"S\",\"C\",\"17\"
\"\",\"\",\"approach-retreat\",\"166\",\"1245760\",\"0.0-166.0\",\"\",\"\",\"3-1\",\"4203\",\"38\",\"1\",\"Testing\",\"Stims/Figures/86-C-30-1.bmp\",\"ma:ma:la\",\"Down\",\"38\",\"1\",\"18\",\"4\",\"S\",\"C\",\"18\"
\"\",\"\",\"approach-retreat\",\"167\",\"1251499\",\"0.0-167.0\",\"\",\"\",\"3-1\",\"4191\",\"39\",\"1\",\"Testing\",\"Stims/Figures/86-J-0-1.bmp\",\"ta:ka:ka\",\"Right\",\"39\",\"1\",\"19\",\"4\",\"P\",\"C\",\"19\"
\"\",\"\",\"approach-retreat\",\"168\",\"1257350\",\"0.0-168.0\",\"\",\"\",\"3-1\",\"4323\",\"39\",\"1\",\"Testing\",\"Stims/Figures/144-C-30-3.bmp\",\"malana\",\"Left\",\"39\",\"1\",\"20\",\"4\",\"S\",\"C\",\"20\"
\"\",\"\",\"approach-retreat\",\"169\",\"1263124\",\"0.0-169.0\",\"\",\"\",\"3-1\",\"4244\",\"37\",\"1\",\"Testing\",\"Stims/Figures/71-J-0-1.bmp\",\"pakata\",\"Left\",\"37\",\"1\",\"21\",\"4\",\"P\",\"C\",\"21\"
\"\",\"\",\"approach-retreat\",\"170\",\"1268814\",\"0.0-170.0\",\"\",\"\",\"3-1\",\"4157\",\"39\",\"1\",\"Testing\",\"Stims/Figures/7-C-20-4.bmp\",\"nala:la\",\"Left\",\"39\",\"1\",\"22\",\"4\",\"S\",\"C\",\"22\"
\"\",\"\",\"approach-retreat\",\"171\",\"1274415\",\"0.0-171.0\",\"\",\"\",\"3-1\",\"4069\",\"39\",\"1\",\"Testing\",\"Stims/Figures/57-C-30-1.bmp\",\"ma:mala\",\"Left\",\"39\",\"1\",\"23\",\"4\",\"S\",\"C\",\"23\"
\"\",\"\",\"approach-retreat\",\"172\",\"1283748\",\"0.0-172.0\",\"\",\"\",\"3-1\",\"7815\",\"37\",\"0\",\"Testing\",\"Stims/Figures/100-J-10-3.bmp\",\"pa:ka:ka\",\"Right\",\"39\",\"1\",\"24\",\"4\",\"P\",\"C\",\"24\"
\"\",\"\",\"approach-retreat\",\"173\",\"1290180\",\"0.0-173.0\",\"\",\"\",\"3-1\",\"4901\",\"39\",\"0\",\"Testing\",\"Stims/Figures/111-J-10-3.bmp\",\"papata\",\"Left\",\"37\",\"2\",\"1\",\"4\",\"P\",\"C\",\"25\"
\"\",\"\",\"approach-retreat\",\"174\",\"1296080\",\"0.0-174.0\",\"\",\"\",\"3-1\",\"4366\",\"37\",\"1\",\"Testing\",\"Stims/Figures/139-C-20-2.bmp\",\"mama:na\",\"Right\",\"37\",\"2\",\"2\",\"4\",\"S\",\"C\",\"26\"
\"\",\"\",\"approach-retreat\",\"175\",\"1301788\",\"0.0-175.0\",\"\",\"\",\"3-1\",\"4175\",\"40\",\"0\",\"Testing\",\"Stims/Figures/100-J-10-3.bmp\",\"pa:ka:ka\",\"Up\",\"38\",\"2\",\"3\",\"4\",\"P\",\"C\",\"27\"
\"\",\"\",\"approach-retreat\",\"176\",\"1307347\",\"0.0-176.0\",\"\",\"\",\"3-1\",\"4026\",\"40\",\"1\",\"Testing\",\"Stims/Figures/86-C-30-1.bmp\",\"ma:ma:la\",\"Up\",\"40\",\"2\",\"4\",\"4\",\"S\",\"C\",\"28\"
\"\",\"\",\"approach-retreat\",\"177\",\"1312938\",\"0.0-177.0\",\"\",\"\",\"3-1\",\"4059\",\"37\",\"1\",\"Testing\",\"Stims/Figures/7-C-20-4.bmp\",\"nala:la\",\"Right\",\"37\",\"2\",\"5\",\"4\",\"S\",\"C\",\"29\"
\"\",\"\",\"approach-retreat\",\"178\",\"1318628\",\"0.0-178.0\",\"\",\"\",\"3-1\",\"4122\",\"38\",\"1\",\"Testing\",\"Stims/Figures/85-C-20-2.bmp\",\"ma:lala\",\"Down\",\"38\",\"2\",\"6\",\"4\",\"S\",\"C\",\"30\"
\"\",\"\",\"approach-retreat\",\"179\",\"1324231\",\"0.0-179.0\",\"\",\"\",\"3-1\",\"4070\",\"38\",\"1\",\"Testing\",\"Stims/Figures/74-C-20-4.bmp\",\"na:lana\",\"Down\",\"38\",\"2\",\"7\",\"4\",\"S\",\"C\",\"31\"
\"\",\"\",\"approach-retreat\",\"180\",\"1330258\",\"0.0-180.0\",\"\",\"\",\"3-1\",\"4497\",\"38\",\"0\",\"Testing\",\"Stims/Figures/102-J-10-4.bmp\",\"ta:kaka\",\"Down\",\"40\",\"2\",\"8\",\"4\",\"P\",\"C\",\"32\"
\"\",\"\",\"approach-retreat\",\"181\",\"1338508\",\"0.0-181.0\",\"\",\"\",\"3-1\",\"6716\",\"38\",\"1\",\"Testing\",\"Stims/Figures/74-J-10-4.bmp\",\"papa:ta\",\"Up\",\"38\",\"2\",\"9\",\"4\",\"P\",\"C\",\"33\"
\"\",\"\",\"approach-retreat\",\"182\",\"1344709\",\"0.0-182.0\",\"\",\"\",\"3-1\",\"4669\",\"38\",\"1\",\"Testing\",\"Stims/Figures/85-J-0-2.bmp\",\"takaka\",\"Up\",\"38\",\"2\",\"10\",\"4\",\"P\",\"C\",\"34\"
\"\",\"\",\"approach-retreat\",\"183\",\"1350498\",\"0.0-183.0\",\"\",\"\",\"3-1\",\"4256\",\"37\",\"1\",\"Testing\",\"Stims/Figures/7-J-10-4.bmp\",\"paka:ka\",\"Left\",\"37\",\"2\",\"11\",\"4\",\"P\",\"C\",\"35\"
\"\",\"\",\"approach-retreat\",\"184\",\"1356145\",\"0.0-184.0\",\"\",\"\",\"3-1\",\"4113\",\"38\",\"1\",\"Testing\",\"Stims/Figures/86-J-0-1.bmp\",\"ta:ka:ka\",\"Up\",\"38\",\"2\",\"12\",\"4\",\"P\",\"C\",\"36\"
\"\",\"\",\"approach-retreat\",\"185\",\"1361821\",\"0.0-185.0\",\"\",\"\",\"3-1\",\"4142\",\"39\",\"0\",\"Testing\",\"Stims/Figures/144-J-10-3.bmp\",\"papa:ka\",\"Left\",\"37\",\"2\",\"13\",\"4\",\"P\",\"C\",\"37\"
\"\",\"\",\"approach-retreat\",\"186\",\"1367543\",\"0.0-186.0\",\"\",\"\",\"3-1\",\"4190\",\"37\",\"1\",\"Testing\",\"Stims/Figures/100-C-30-3.bmp\",\"na:mana\",\"Right\",\"37\",\"2\",\"14\",\"4\",\"S\",\"C\",\"38\"
\"\",\"\",\"approach-retreat\",\"187\",\"1373161\",\"0.0-187.0\",\"\",\"\",\"3-1\",\"4083\",\"38\",\"1\",\"Testing\",\"Stims/Figures/111-C-30-3.bmp\",\"nalala\",\"Down\",\"38\",\"2\",\"15\",\"4\",\"S\",\"C\",\"39\"
\"\",\"\",\"approach-retreat\",\"188\",\"1378792\",\"0.0-188.0\",\"\",\"\",\"3-1\",\"4067\",\"39\",\"1\",\"Testing\",\"Stims/Figures/144-C-30-3.bmp\",\"malana\",\"Left\",\"39\",\"2\",\"16\",\"4\",\"S\",\"C\",\"40\"
\"\",\"\",\"approach-retreat\",\"189\",\"1384568\",\"0.0-189.0\",\"\",\"\",\"3-1\",\"4243\",\"40\",\"1\",\"Testing\",\"Stims/Figures/139-J-0-2.bmp\",\"ta:paka\",\"Down\",\"40\",\"2\",\"17\",\"4\",\"P\",\"C\",\"41\"
\"\",\"\",\"approach-retreat\",\"190\",\"1390194\",\"0.0-190.0\",\"\",\"\",\"3-1\",\"4094\",\"37\",\"1\",\"Testing\",\"Stims/Figures/102-C-20-4.bmp\",\"mala:na\",\"Right\",\"37\",\"2\",\"18\",\"4\",\"S\",\"C\",\"42\"
\"\",\"\",\"approach-retreat\",\"191\",\"1395759\",\"0.0-191.0\",\"\",\"\",\"3-1\",\"4032\",\"37\",\"1\",\"Testing\",\"Stims/Figures/71-C-30-1.bmp\",\"namana\",\"Right\",\"37\",\"2\",\"19\",\"4\",\"S\",\"C\",\"43\"
\"\",\"\",\"approach-retreat\",\"192\",\"1401375\",\"0.0-192.0\",\"\",\"\",\"3-1\",\"4083\",\"39\",\"1\",\"Testing\",\"Stims/Figures/84-C-20-2.bmp\",\"nama:na\",\"Left\",\"39\",\"2\",\"20\",\"4\",\"S\",\"C\",\"44\"
\"\",\"\",\"approach-retreat\",\"193\",\"1407032\",\"0.0-193.0\",\"\",\"\",\"3-1\",\"4127\",\"38\",\"1\",\"Testing\",\"Stims/Figures/57-C-30-1.bmp\",\"ma:mala\",\"Down\",\"38\",\"2\",\"21\",\"4\",\"S\",\"C\",\"45\"
\"\",\"\",\"approach-retreat\",\"194\",\"1412717\",\"0.0-194.0\",\"\",\"\",\"3-1\",\"4155\",\"37\",\"1\",\"Testing\",\"Stims/Figures/71-J-0-1.bmp\",\"pakata\",\"Left\",\"37\",\"2\",\"22\",\"4\",\"P\",\"C\",\"46\"
\"\",\"\",\"approach-retreat\",\"195\",\"1419070\",\"0.0-195.0\",\"\",\"\",\"3-1\",\"4818\",\"38\",\"1\",\"Testing\",\"Stims/Figures/84-J-0-2.bmp\",\"pa:pata\",\"Up\",\"38\",\"2\",\"23\",\"4\",\"P\",\"C\",\"47\"
\"\",\"\",\"approach-retreat\",\"196\",\"1424744\",\"0.0-196.0\",\"\",\"\",\"3-1\",\"4141\",\"39\",\"1\",\"Testing\",\"Stims/Figures/57-J-0-1.bmp\",\"tapa:ta\",\"Right\",\"39\",\"2\",\"24\",\"4\",\"P\",\"C\",\"48\"
\"\",\"\",\"approach-retreat\",\"197\",\"1431445\",\"0.0-197.0\",\"\",\"\",\"3-1\",\"5168\",\"40\",\"1\",\"Testing\",\"Stims/Figures/144-J-10-3.bmp\",\"papa:ka\",\"Down\",\"40\",\"3\",\"1\",\"4\",\"P\",\"C\",\"49\"
\"\",\"\",\"approach-retreat\",\"198\",\"1437254\",\"0.0-198.0\",\"\",\"\",\"3-1\",\"4279\",\"40\",\"1\",\"Testing\",\"Stims/Figures/71-C-30-1.bmp\",\"namana\",\"Up\",\"40\",\"3\",\"2\",\"4\",\"S\",\"C\",\"50\"
\"\",\"\",\"approach-retreat\",\"199\",\"1442979\",\"0.0-199.0\",\"\",\"\",\"3-1\",\"4206\",\"40\",\"1\",\"Testing\",\"Stims/Figures/84-C-20-2.bmp\",\"nama:na\",\"Up\",\"40\",\"3\",\"3\",\"4\",\"S\",\"C\",\"51\"
\"\",\"\",\"approach-retreat\",\"200\",\"1448585\",\"0.0-200.0\",\"\",\"\",\"3-1\",\"4072\",\"38\",\"1\",\"Testing\",\"Stims/Figures/85-C-20-2.bmp\",\"ma:lala\",\"Down\",\"38\",\"3\",\"4\",\"4\",\"S\",\"C\",\"52\"
\"\",\"\",\"approach-retreat\",\"201\",\"1454266\",\"0.0-201.0\",\"\",\"\",\"3-1\",\"4143\",\"39\",\"1\",\"Testing\",\"Stims/Figures/57-C-30-1.bmp\",\"ma:mala\",\"Left\",\"39\",\"3\",\"5\",\"4\",\"S\",\"C\",\"53\"
\"\",\"\",\"approach-retreat\",\"202\",\"1459875\",\"0.0-202.0\",\"\",\"\",\"3-1\",\"4077\",\"39\",\"1\",\"Testing\",\"Stims/Figures/100-C-30-3.bmp\",\"na:mana\",\"Left\",\"39\",\"3\",\"6\",\"4\",\"S\",\"C\",\"54\"
\"\",\"\",\"approach-retreat\",\"203\",\"1466265\",\"0.0-203.0\",\"\",\"\",\"3-1\",\"4857\",\"38\",\"1\",\"Testing\",\"Stims/Figures/7-C-20-4.bmp\",\"nala:la\",\"Down\",\"38\",\"3\",\"7\",\"4\",\"S\",\"C\",\"55\"
\"\",\"\",\"approach-retreat\",\"204\",\"1474458\",\"0.0-204.0\",\"\",\"\",\"3-1\",\"6664\",\"37\",\"1\",\"Testing\",\"Stims/Figures/100-J-10-3.bmp\",\"pa:ka:ka\",\"Left\",\"37\",\"3\",\"8\",\"4\",\"P\",\"C\",\"56\"
\"\",\"\",\"approach-retreat\",\"205\",\"1480293\",\"0.0-205.0\",\"\",\"\",\"3-1\",\"4302\",\"39\",\"1\",\"Testing\",\"Stims/Figures/74-J-10-4.bmp\",\"papa:ta\",\"Right\",\"39\",\"3\",\"9\",\"4\",\"P\",\"C\",\"57\"
\"\",\"\",\"approach-retreat\",\"206\",\"1486449\",\"0.0-206.0\",\"\",\"\",\"3-1\",\"4624\",\"38\",\"1\",\"Testing\",\"Stims/Figures/111-J-10-3.bmp\",\"papata\",\"Up\",\"38\",\"3\",\"10\",\"4\",\"P\",\"C\",\"58\"
\"\",\"\",\"approach-retreat\",\"207\",\"1492326\",\"0.0-207.0\",\"\",\"\",\"3-1\",\"4346\",\"37\",\"0\",\"Testing\",\"Stims/Figures/102-J-10-4.bmp\",\"ta:kaka\",\"Right\",\"39\",\"3\",\"11\",\"4\",\"P\",\"C\",\"59\"
\"\",\"\",\"approach-retreat\",\"208\",\"1498279\",\"0.0-208.0\",\"\",\"\",\"3-1\",\"4421\",\"39\",\"1\",\"Testing\",\"Stims/Figures/57-J-0-1.bmp\",\"tapa:ta\",\"Right\",\"39\",\"3\",\"12\",\"4\",\"P\",\"C\",\"60\"
\"\",\"\",\"approach-retreat\",\"209\",\"1507573\",\"0.0-209.0\",\"\",\"\",\"3-1\",\"7758\",\"37\",\"0\",\"Testing\",\"Stims/Figures/7-J-10-4.bmp\",\"paka:ka\",\"Right\",\"39\",\"3\",\"13\",\"4\",\"P\",\"C\",\"61\"
\"\",\"\",\"approach-retreat\",\"210\",\"1513312\",\"0.0-210.0\",\"\",\"\",\"3-1\",\"4207\",\"37\",\"1\",\"Testing\",\"Stims/Figures/139-J-0-2.bmp\",\"ta:paka\",\"Left\",\"37\",\"3\",\"14\",\"4\",\"P\",\"C\",\"62\"
\"\",\"\",\"approach-retreat\",\"211\",\"1519158\",\"0.0-211.0\",\"\",\"\",\"3-1\",\"4314\",\"38\",\"1\",\"Testing\",\"Stims/Figures/86-J-0-1.bmp\",\"ta:ka:ka\",\"Up\",\"38\",\"3\",\"15\",\"4\",\"P\",\"C\",\"63\"
\"\",\"\",\"approach-retreat\",\"212\",\"1524998\",\"0.0-212.0\",\"\",\"\",\"3-1\",\"4308\",\"38\",\"1\",\"Testing\",\"Stims/Figures/139-C-20-2.bmp\",\"mama:na\",\"Down\",\"38\",\"3\",\"16\",\"4\",\"S\",\"C\",\"64\"
\"\",\"\",\"approach-retreat\",\"213\",\"1530763\",\"0.0-213.0\",\"\",\"\",\"3-1\",\"4234\",\"39\",\"1\",\"Testing\",\"Stims/Figures/102-C-20-4.bmp\",\"mala:na\",\"Left\",\"39\",\"3\",\"17\",\"4\",\"S\",\"C\",\"65\"
\"\",\"\",\"approach-retreat\",\"214\",\"1536551\",\"0.0-214.0\",\"\",\"\",\"3-1\",\"4254\",\"40\",\"0\",\"Testing\",\"Stims/Figures/71-J-0-1.bmp\",\"pakata\",\"Up\",\"38\",\"3\",\"18\",\"4\",\"P\",\"C\",\"66\"
\"\",\"\",\"approach-retreat\",\"215\",\"1542330\",\"0.0-215.0\",\"\",\"\",\"3-1\",\"4246\",\"38\",\"1\",\"Testing\",\"Stims/Figures/74-C-20-4.bmp\",\"na:lana\",\"Down\",\"38\",\"3\",\"19\",\"4\",\"S\",\"C\",\"67\"
\"\",\"\",\"approach-retreat\",\"216\",\"1548057\",\"0.0-216.0\",\"\",\"\",\"3-1\",\"4194\",\"37\",\"1\",\"Testing\",\"Stims/Figures/111-C-30-3.bmp\",\"nalala\",\"Right\",\"37\",\"3\",\"20\",\"4\",\"S\",\"C\",\"68\"
\"\",\"\",\"approach-retreat\",\"217\",\"1553876\",\"0.0-217.0\",\"\",\"\",\"3-1\",\"4281\",\"37\",\"1\",\"Testing\",\"Stims/Figures/144-C-30-3.bmp\",\"malana\",\"Right\",\"37\",\"3\",\"21\",\"4\",\"S\",\"C\",\"69\"
\"\",\"\",\"approach-retreat\",\"218\",\"1559596\",\"0.0-218.0\",\"\",\"\",\"3-1\",\"4191\",\"39\",\"1\",\"Testing\",\"Stims/Figures/86-C-30-1.bmp\",\"ma:ma:la\",\"Left\",\"39\",\"3\",\"22\",\"4\",\"S\",\"C\",\"70\"
\"\",\"\",\"approach-retreat\",\"219\",\"1565318\",\"0.0-219.0\",\"\",\"\",\"3-1\",\"4192\",\"40\",\"1\",\"Testing\",\"Stims/Figures/85-J-0-2.bmp\",\"takaka\",\"Down\",\"40\",\"3\",\"23\",\"4\",\"P\",\"C\",\"71\"
\"\",\"\",\"approach-retreat\",\"220\",\"1571350\",\"0.0-220.0\",\"\",\"\",\"3-1\",\"4500\",\"38\",\"1\",\"Testing\",\"Stims/Figures/84-J-0-2.bmp\",\"pa:pata\",\"Up\",\"38\",\"3\",\"24\",\"4\",\"P\",\"C\",\"72\"
\"\",\"\",\"approach-retreat\",\"221\",\"1577111\",\"0.0-221.0\",\"\",\"\",\"3-1\",\"4231\",\"38\",\"1\",\"Testing\",\"Stims/Figures/7-C-20-4.bmp\",\"nala:la\",\"Down\",\"38\",\"4\",\"1\",\"4\",\"S\",\"C\",\"73\"
\"\",\"\",\"approach-retreat\",\"222\",\"1582913\",\"0.0-222.0\",\"\",\"\",\"3-1\",\"4272\",\"37\",\"1\",\"Testing\",\"Stims/Figures/100-C-30-3.bmp\",\"na:mana\",\"Right\",\"37\",\"4\",\"2\",\"4\",\"S\",\"C\",\"74\"
\"\",\"\",\"approach-retreat\",\"223\",\"1588670\",\"0.0-223.0\",\"\",\"\",\"3-1\",\"4225\",\"37\",\"1\",\"Testing\",\"Stims/Figures/57-J-0-1.bmp\",\"tapa:ta\",\"Left\",\"37\",\"4\",\"3\",\"4\",\"P\",\"C\",\"75\"
\"\",\"\",\"approach-retreat\",\"224\",\"1594319\",\"0.0-224.0\",\"\",\"\",\"3-1\",\"4113\",\"39\",\"1\",\"Testing\",\"Stims/Figures/84-J-0-2.bmp\",\"pa:pata\",\"Right\",\"39\",\"4\",\"4\",\"4\",\"P\",\"C\",\"76\"
\"\",\"\",\"approach-retreat\",\"225\",\"1599964\",\"0.0-225.0\",\"\",\"\",\"3-1\",\"4115\",\"37\",\"1\",\"Testing\",\"Stims/Figures/144-C-30-3.bmp\",\"malana\",\"Right\",\"37\",\"4\",\"5\",\"4\",\"S\",\"C\",\"77\"
\"\",\"\",\"approach-retreat\",\"226\",\"1605700\",\"0.0-226.0\",\"\",\"\",\"3-1\",\"4205\",\"37\",\"1\",\"Testing\",\"Stims/Figures/139-J-0-2.bmp\",\"ta:paka\",\"Left\",\"37\",\"4\",\"6\",\"4\",\"P\",\"C\",\"78\"
\"\",\"\",\"approach-retreat\",\"227\",\"1611378\",\"0.0-227.0\",\"\",\"\",\"3-1\",\"4149\",\"40\",\"1\",\"Testing\",\"Stims/Figures/86-J-0-1.bmp\",\"ta:ka:ka\",\"Down\",\"40\",\"4\",\"7\",\"4\",\"P\",\"C\",\"79\"
\"\",\"\",\"approach-retreat\",\"228\",\"1617139\",\"0.0-228.0\",\"\",\"\",\"3-1\",\"4230\",\"38\",\"1\",\"Testing\",\"Stims/Figures/111-J-10-3.bmp\",\"papata\",\"Up\",\"38\",\"4\",\"8\",\"4\",\"P\",\"C\",\"80\"
\"\",\"\",\"approach-retreat\",\"229\",\"1625662\",\"0.0-229.0\",\"\",\"\",\"3-1\",\"6992\",\"40\",\"0\",\"Testing\",\"Stims/Figures/102-J-10-4.bmp\",\"ta:kaka\",\"Up\",\"38\",\"4\",\"9\",\"4\",\"P\",\"C\",\"81\"
\"\",\"\",\"approach-retreat\",\"230\",\"1631379\",\"0.0-230.0\",\"\",\"\",\"3-1\",\"4186\",\"37\",\"1\",\"Testing\",\"Stims/Figures/71-J-0-1.bmp\",\"pakata\",\"Left\",\"37\",\"4\",\"10\",\"4\",\"P\",\"C\",\"82\"
\"\",\"\",\"approach-retreat\",\"231\",\"1637027\",\"0.0-231.0\",\"\",\"\",\"3-1\",\"4116\",\"39\",\"1\",\"Testing\",\"Stims/Figures/74-C-20-4.bmp\",\"na:lana\",\"Left\",\"39\",\"4\",\"11\",\"4\",\"S\",\"C\",\"83\"
\"\",\"\",\"approach-retreat\",\"232\",\"1642806\",\"0.0-232.0\",\"\",\"\",\"3-1\",\"4247\",\"39\",\"1\",\"Testing\",\"Stims/Figures/57-C-30-1.bmp\",\"ma:mala\",\"Left\",\"39\",\"4\",\"12\",\"4\",\"S\",\"C\",\"84\"
\"\",\"\",\"approach-retreat\",\"233\",\"1648589\",\"0.0-233.0\",\"\",\"\",\"3-1\",\"4252\",\"40\",\"0\",\"Testing\",\"Stims/Figures/100-J-10-3.bmp\",\"pa:ka:ka\",\"Up\",\"38\",\"4\",\"13\",\"4\",\"P\",\"C\",\"85\"
\"\",\"\",\"approach-retreat\",\"234\",\"1654165\",\"0.0-234.0\",\"\",\"\",\"3-1\",\"4047\",\"39\",\"1\",\"Testing\",\"Stims/Figures/71-C-30-1.bmp\",\"namana\",\"Left\",\"39\",\"4\",\"14\",\"4\",\"S\",\"C\",\"86\"
\"\",\"\",\"approach-retreat\",\"235\",\"1659850\",\"0.0-235.0\",\"\",\"\",\"3-1\",\"4152\",\"40\",\"1\",\"Testing\",\"Stims/Figures/102-C-20-4.bmp\",\"mala:na\",\"Up\",\"40\",\"4\",\"15\",\"4\",\"S\",\"C\",\"87\"
\"\",\"\",\"approach-retreat\",\"236\",\"1667353\",\"0.0-236.0\",\"\",\"\",\"3-1\",\"5981\",\"40\",\"0\",\"Testing\",\"Stims/Figures/7-J-10-4.bmp\",\"paka:ka\",\"Up\",\"38\",\"4\",\"16\",\"4\",\"P\",\"C\",\"88\"
\"\",\"\",\"approach-retreat\",\"237\",\"1673029\",\"0.0-237.0\",\"\",\"\",\"3-1\",\"4148\",\"38\",\"1\",\"Testing\",\"Stims/Figures/84-C-20-2.bmp\",\"nama:na\",\"Down\",\"38\",\"4\",\"17\",\"4\",\"S\",\"C\",\"89\"
\"\",\"\",\"approach-retreat\",\"238\",\"1678733\",\"0.0-238.0\",\"\",\"\",\"3-1\",\"4174\",\"39\",\"1\",\"Testing\",\"Stims/Figures/74-J-10-4.bmp\",\"papa:ta\",\"Right\",\"39\",\"4\",\"18\",\"4\",\"P\",\"C\",\"90\"
\"\",\"\",\"approach-retreat\",\"239\",\"1684454\",\"0.0-239.0\",\"\",\"\",\"3-1\",\"4190\",\"40\",\"1\",\"Testing\",\"Stims/Figures/144-J-10-3.bmp\",\"papa:ka\",\"Down\",\"40\",\"4\",\"19\",\"4\",\"P\",\"C\",\"91\"
\"\",\"\",\"approach-retreat\",\"240\",\"1690206\",\"0.0-240.0\",\"\",\"\",\"3-1\",\"4224\",\"38\",\"1\",\"Testing\",\"Stims/Figures/139-C-20-2.bmp\",\"mama:na\",\"Down\",\"38\",\"4\",\"20\",\"4\",\"S\",\"C\",\"92\"
\"\",\"\",\"approach-retreat\",\"241\",\"1695904\",\"0.0-241.0\",\"\",\"\",\"3-1\",\"4166\",\"37\",\"1\",\"Testing\",\"Stims/Figures/86-C-30-1.bmp\",\"ma:ma:la\",\"Right\",\"37\",\"4\",\"21\",\"4\",\"S\",\"C\",\"93\"
\"\",\"\",\"approach-retreat\",\"242\",\"1701678\",\"0.0-242.0\",\"\",\"\",\"3-1\",\"4242\",\"40\",\"1\",\"Testing\",\"Stims/Figures/85-C-20-2.bmp\",\"ma:lala\",\"Up\",\"40\",\"4\",\"22\",\"4\",\"S\",\"C\",\"94\"
\"\",\"\",\"approach-retreat\",\"243\",\"1707314\",\"0.0-243.0\",\"\",\"\",\"3-1\",\"4101\",\"40\",\"1\",\"Testing\",\"Stims/Figures/85-J-0-2.bmp\",\"takaka\",\"Down\",\"40\",\"4\",\"23\",\"4\",\"P\",\"C\",\"95\"
\"\",\"\",\"approach-retreat\",\"244\",\"1712888\",\"0.0-244.0\",\"\",\"\",\"3-1\",\"4042\",\"37\",\"1\",\"Testing\",\"Stims/Figures/111-C-30-3.bmp\",\"nalala\",\"Right\",\"37\",\"4\",\"24\",\"4\",\"S\",\"C\",\"96\"
\"21381\",\"\",\"survey-text\",\"245\",\"1734279\",\"0.0-245.0\",\"\",\"{\"\"Q0\"\":\"\"PS170022\"\"}\",\"\",\"\",\"\",\"\",\"\",\"\",\"\",\"\",\"\",\"\",\"\",\"\",\"\",\"\",\"\"
