\"rt\",\"key_press\",\"trial_type\",\"trial_index\",\"time_elapsed\",\"internal_node_id\",\"view_history\",\"responses\",\"Id\",\"Rt\",\"ResKeyCode\",\"ResCorr\",\"TrialType2\",\"Image\",\"Label\",\"Location\",\"CorrectResponse\",\"Block\",\"BlockTrial\",\"Condition\",\"LabelType\",\"Subcondition\",\"trialNum\"
\"51742\",\"32\",\"text\",\"0\",\"51746\",\"0.0-0.0-0.0\",\"\",\"\",\"\",\"\",\"\",\"\",\"\",\"\",\"\",\"\",\"\",\"\",\"\",\"\",\"\",\"\",\"\"
\"75893\",\"\",\"instructions\",\"1\",\"127641\",\"0.0-1.0\",\"[{\"\"page_index\"\":0,\"\"viewing_time\"\":75892}]\",\"\",\"\",\"\",\"\",\"\",\"\",\"\",\"\",\"\",\"\",\"\",\"\",\"\",\"\",\"\",\"\"
\"21830\",\"\",\"survey-multi-choice\",\"2\",\"149507\",\"0.0-2.0\",\"\",\"{\"\"Q0\"\":\"\"Da\"\",\"\"Q1\"\":\"\"Da\"\",\"\"Q2\"\":\"\"Da\"\",\"\"Q3\"\":\"\"Da\"\",\"\"Q4\"\":\"\"Da\"\",\"\"Q5\"\":\"\"Da\"\"}\",\"\",\"\",\"\",\"\",\"\",\"\",\"\",\"\",\"\",\"\",\"\",\"\",\"\",\"\",\"\"
\"\",\"\",\"bio\",\"3\",\"162137\",\"0.0-3.0\",\"\",\"{\"\"age\"\":\"\"19\"\",\"\"gender\"\":\"\"f\"\",\"\"specify\"\":\"\"\"\"}\",\"\",\"\",\"\",\"\",\"\",\"\",\"\",\"\",\"\",\"\",\"\",\"\",\"\",\"\",\"\"
\"\",\"\",\"approach-retreat\",\"4\",\"179884\",\"0.0-4.0\",\"\",\"\",\"2-1\",\"16236\",\"39\",\"0\",\"Training\",\"Stims/Figures/87-C-20-4.bmp\",\"papata\",\"Left\",\"37\",\"1\",\"1\",\"5\",\"P\",\"J\",\"1\"
\"\",\"\",\"approach-retreat\",\"5\",\"190706\",\"0.0-5.0\",\"\",\"\",\"2-1\",\"9312\",\"37\",\"0\",\"Training\",\"Stims/Figures/19-C-20-4.bmp\",\"ta:ka:ta\",\"Right\",\"39\",\"1\",\"2\",\"5\",\"P\",\"J\",\"2\"
\"\",\"\",\"approach-retreat\",\"6\",\"200636\",\"0.0-6.0\",\"\",\"\",\"2-1\",\"8422\",\"37\",\"1\",\"Training\",\"Stims/Figures/57-C-30-1.bmp\",\"tapaka\",\"Left\",\"37\",\"1\",\"3\",\"5\",\"P\",\"J\",\"3\"
\"\",\"\",\"approach-retreat\",\"7\",\"209554\",\"0.0-7.0\",\"\",\"\",\"2-1\",\"7411\",\"39\",\"0\",\"Training\",\"Stims/Figures/27-J-0-1.bmp\",\"nalana\",\"Right\",\"37\",\"1\",\"4\",\"5\",\"S\",\"J\",\"4\"
\"\",\"\",\"approach-retreat\",\"8\",\"218138\",\"0.0-8.0\",\"\",\"\",\"2-1\",\"7075\",\"40\",\"0\",\"Training\",\"Stims/Figures/111-C-30-3.bmp\",\"tapa:ta\",\"Up\",\"38\",\"1\",\"5\",\"5\",\"P\",\"J\",\"5\"
\"\",\"\",\"approach-retreat\",\"9\",\"226248\",\"0.0-9.0\",\"\",\"\",\"2-1\",\"6602\",\"40\",\"0\",\"Training\",\"Stims/Figures/111-J-10-3.bmp\",\"nala:na\",\"Down\",\"38\",\"1\",\"6\",\"5\",\"S\",\"J\",\"6\"
\"\",\"\",\"approach-retreat\",\"10\",\"233713\",\"0.0-10.0\",\"\",\"\",\"2-1\",\"5959\",\"37\",\"0\",\"Training\",\"Stims/Figures/139-C-20-2.bmp\",\"pa:kaka\",\"Right\",\"39\",\"1\",\"7\",\"5\",\"P\",\"J\",\"7\"
\"\",\"\",\"approach-retreat\",\"11\",\"241162\",\"0.0-11.0\",\"\",\"\",\"2-1\",\"5940\",\"40\",\"1\",\"Training\",\"Stims/Figures/144-C-30-3.bmp\",\"takaka\",\"Down\",\"40\",\"1\",\"8\",\"5\",\"P\",\"J\",\"8\"
\"\",\"\",\"approach-retreat\",\"12\",\"253668\",\"0.0-12.0\",\"\",\"\",\"2-1\",\"10997\",\"37\",\"1\",\"Training\",\"Stims/Figures/84-J-0-2.bmp\",\"ma:mana\",\"Right\",\"37\",\"1\",\"9\",\"5\",\"S\",\"J\",\"9\"
\"\",\"\",\"approach-retreat\",\"13\",\"264670\",\"0.0-13.0\",\"\",\"\",\"2-1\",\"9494\",\"38\",\"1\",\"Training\",\"Stims/Figures/139-J-0-2.bmp\",\"na:ma:na\",\"Down\",\"38\",\"1\",\"10\",\"5\",\"S\",\"J\",\"10\"
\"\",\"\",\"approach-retreat\",\"14\",\"271074\",\"0.0-14.0\",\"\",\"\",\"2-1\",\"4896\",\"37\",\"1\",\"Training\",\"Stims/Figures/27-C-30-1.bmp\",\"pa:pa:ka\",\"Left\",\"37\",\"1\",\"11\",\"5\",\"P\",\"J\",\"11\"
\"\",\"\",\"approach-retreat\",\"15\",\"277765\",\"0.0-15.0\",\"\",\"\",\"2-1\",\"5183\",\"40\",\"0\",\"Training\",\"Stims/Figures/19-J-10-4.bmp\",\"na:mana\",\"Down\",\"38\",\"1\",\"12\",\"5\",\"S\",\"J\",\"12\"
\"\",\"\",\"approach-retreat\",\"16\",\"285896\",\"0.0-16.0\",\"\",\"\",\"2-1\",\"6623\",\"40\",\"1\",\"Training\",\"Stims/Figures/144-J-10-3.bmp\",\"malala\",\"Up\",\"40\",\"1\",\"13\",\"5\",\"S\",\"J\",\"13\"
\"\",\"\",\"approach-retreat\",\"17\",\"292964\",\"0.0-17.0\",\"\",\"\",\"2-1\",\"5560\",\"38\",\"0\",\"Training\",\"Stims/Figures/57-J-0-1.bmp\",\"namala\",\"Up\",\"40\",\"1\",\"14\",\"5\",\"S\",\"J\",\"14\"
\"\",\"\",\"approach-retreat\",\"18\",\"299910\",\"0.0-18.0\",\"\",\"\",\"2-1\",\"5438\",\"39\",\"1\",\"Training\",\"Stims/Figures/87-J-10-4.bmp\",\"mama:la\",\"Left\",\"39\",\"1\",\"15\",\"5\",\"S\",\"J\",\"15\"
\"\",\"\",\"approach-retreat\",\"19\",\"306764\",\"0.0-19.0\",\"\",\"\",\"2-1\",\"5346\",\"40\",\"0\",\"Training\",\"Stims/Figures/84-C-20-2.bmp\",\"pa:kata\",\"Up\",\"38\",\"1\",\"16\",\"5\",\"P\",\"J\",\"16\"
\"\",\"\",\"approach-retreat\",\"20\",\"313241\",\"0.0-20.0\",\"\",\"\",\"2-1\",\"4967\",\"39\",\"1\",\"Training\",\"Stims/Figures/139-J-0-2.bmp\",\"na:ma:na\",\"Left\",\"39\",\"2\",\"1\",\"5\",\"S\",\"J\",\"17\"
\"\",\"\",\"approach-retreat\",\"21\",\"319622\",\"0.0-21.0\",\"\",\"\",\"2-1\",\"4872\",\"37\",\"0\",\"Training\",\"Stims/Figures/84-C-20-2.bmp\",\"pa:kata\",\"Right\",\"39\",\"2\",\"2\",\"5\",\"P\",\"J\",\"18\"
\"\",\"\",\"approach-retreat\",\"22\",\"325613\",\"0.0-22.0\",\"\",\"\",\"2-1\",\"4484\",\"38\",\"1\",\"Training\",\"Stims/Figures/111-C-30-3.bmp\",\"tapa:ta\",\"Up\",\"38\",\"2\",\"3\",\"5\",\"P\",\"J\",\"19\"
\"\",\"\",\"approach-retreat\",\"23\",\"331540\",\"0.0-23.0\",\"\",\"\",\"2-1\",\"4418\",\"40\",\"1\",\"Training\",\"Stims/Figures/139-C-20-2.bmp\",\"pa:kaka\",\"Down\",\"40\",\"2\",\"4\",\"5\",\"P\",\"J\",\"20\"
\"\",\"\",\"approach-retreat\",\"24\",\"337792\",\"0.0-24.0\",\"\",\"\",\"2-1\",\"4745\",\"40\",\"1\",\"Training\",\"Stims/Figures/57-C-30-1.bmp\",\"tapaka\",\"Down\",\"40\",\"2\",\"5\",\"5\",\"P\",\"J\",\"21\"
\"\",\"\",\"approach-retreat\",\"25\",\"343887\",\"0.0-25.0\",\"\",\"\",\"2-1\",\"4586\",\"40\",\"1\",\"Training\",\"Stims/Figures/87-J-10-4.bmp\",\"mama:la\",\"Up\",\"40\",\"2\",\"6\",\"5\",\"S\",\"J\",\"22\"
\"\",\"\",\"approach-retreat\",\"26\",\"351168\",\"0.0-26.0\",\"\",\"\",\"2-1\",\"5768\",\"37\",\"0\",\"Training\",\"Stims/Figures/111-J-10-3.bmp\",\"nala:na\",\"Left\",\"39\",\"2\",\"7\",\"5\",\"S\",\"J\",\"23\"
\"\",\"\",\"approach-retreat\",\"27\",\"357377\",\"0.0-27.0\",\"\",\"\",\"2-1\",\"4701\",\"37\",\"0\",\"Training\",\"Stims/Figures/27-C-30-1.bmp\",\"pa:pa:ka\",\"Right\",\"39\",\"2\",\"8\",\"5\",\"P\",\"J\",\"24\"
\"\",\"\",\"approach-retreat\",\"28\",\"363712\",\"0.0-28.0\",\"\",\"\",\"2-1\",\"4828\",\"39\",\"0\",\"Training\",\"Stims/Figures/84-J-0-2.bmp\",\"ma:mana\",\"Right\",\"37\",\"2\",\"9\",\"5\",\"S\",\"J\",\"25\"
\"\",\"\",\"approach-retreat\",\"29\",\"369982\",\"0.0-29.0\",\"\",\"\",\"2-1\",\"4762\",\"37\",\"0\",\"Training\",\"Stims/Figures/87-C-20-4.bmp\",\"papata\",\"Right\",\"39\",\"2\",\"10\",\"5\",\"P\",\"J\",\"26\"
\"\",\"\",\"approach-retreat\",\"30\",\"376612\",\"0.0-30.0\",\"\",\"\",\"2-1\",\"5120\",\"38\",\"0\",\"Training\",\"Stims/Figures/57-J-0-1.bmp\",\"namala\",\"Up\",\"40\",\"2\",\"11\",\"5\",\"S\",\"J\",\"27\"
\"\",\"\",\"approach-retreat\",\"31\",\"382405\",\"0.0-31.0\",\"\",\"\",\"2-1\",\"4285\",\"39\",\"1\",\"Training\",\"Stims/Figures/27-J-0-1.bmp\",\"nalana\",\"Left\",\"39\",\"2\",\"12\",\"5\",\"S\",\"J\",\"28\"
\"\",\"\",\"approach-retreat\",\"32\",\"388432\",\"0.0-32.0\",\"\",\"\",\"2-1\",\"4520\",\"40\",\"1\",\"Training\",\"Stims/Figures/19-C-20-4.bmp\",\"ta:ka:ta\",\"Down\",\"40\",\"2\",\"13\",\"5\",\"P\",\"J\",\"29\"
\"\",\"\",\"approach-retreat\",\"33\",\"394441\",\"0.0-33.0\",\"\",\"\",\"2-1\",\"4502\",\"37\",\"0\",\"Training\",\"Stims/Figures/19-J-10-4.bmp\",\"na:mana\",\"Left\",\"39\",\"2\",\"14\",\"5\",\"S\",\"J\",\"30\"
\"\",\"\",\"approach-retreat\",\"34\",\"400784\",\"0.0-34.0\",\"\",\"\",\"2-1\",\"4834\",\"38\",\"1\",\"Training\",\"Stims/Figures/144-C-30-3.bmp\",\"takaka\",\"Up\",\"38\",\"2\",\"15\",\"5\",\"P\",\"J\",\"31\"
\"\",\"\",\"approach-retreat\",\"35\",\"407137\",\"0.0-35.0\",\"\",\"\",\"2-1\",\"4843\",\"40\",\"0\",\"Training\",\"Stims/Figures/144-J-10-3.bmp\",\"malala\",\"Down\",\"38\",\"2\",\"16\",\"5\",\"S\",\"J\",\"32\"
\"\",\"\",\"approach-retreat\",\"36\",\"413521\",\"0.0-36.0\",\"\",\"\",\"2-1\",\"4876\",\"39\",\"1\",\"Training\",\"Stims/Figures/84-C-20-2.bmp\",\"pa:kata\",\"Right\",\"39\",\"3\",\"1\",\"5\",\"P\",\"J\",\"33\"
\"\",\"\",\"approach-retreat\",\"37\",\"420611\",\"0.0-37.0\",\"\",\"\",\"2-1\",\"5582\",\"40\",\"0\",\"Training\",\"Stims/Figures/87-J-10-4.bmp\",\"mama:la\",\"Down\",\"38\",\"3\",\"2\",\"5\",\"S\",\"J\",\"34\"
\"\",\"\",\"approach-retreat\",\"38\",\"426627\",\"0.0-38.0\",\"\",\"\",\"2-1\",\"4508\",\"40\",\"0\",\"Training\",\"Stims/Figures/84-J-0-2.bmp\",\"ma:mana\",\"Down\",\"38\",\"3\",\"3\",\"5\",\"S\",\"J\",\"35\"
\"\",\"\",\"approach-retreat\",\"39\",\"432632\",\"0.0-39.0\",\"\",\"\",\"2-1\",\"4497\",\"40\",\"1\",\"Training\",\"Stims/Figures/57-J-0-1.bmp\",\"namala\",\"Up\",\"40\",\"3\",\"4\",\"5\",\"S\",\"J\",\"36\"
\"\",\"\",\"approach-retreat\",\"40\",\"438466\",\"0.0-40.0\",\"\",\"\",\"2-1\",\"4326\",\"38\",\"0\",\"Training\",\"Stims/Figures/111-J-10-3.bmp\",\"nala:na\",\"Up\",\"40\",\"3\",\"5\",\"5\",\"S\",\"J\",\"37\"
\"\",\"\",\"approach-retreat\",\"41\",\"444732\",\"0.0-41.0\",\"\",\"\",\"2-1\",\"4759\",\"38\",\"1\",\"Training\",\"Stims/Figures/27-J-0-1.bmp\",\"nalana\",\"Down\",\"38\",\"3\",\"6\",\"5\",\"S\",\"J\",\"38\"
\"\",\"\",\"approach-retreat\",\"42\",\"452387\",\"0.0-42.0\",\"\",\"\",\"2-1\",\"6147\",\"37\",\"1\",\"Training\",\"Stims/Figures/144-J-10-3.bmp\",\"malala\",\"Right\",\"37\",\"3\",\"7\",\"5\",\"S\",\"J\",\"39\"
\"\",\"\",\"approach-retreat\",\"43\",\"458534\",\"0.0-43.0\",\"\",\"\",\"2-1\",\"4640\",\"39\",\"1\",\"Training\",\"Stims/Figures/139-J-0-2.bmp\",\"na:ma:na\",\"Left\",\"39\",\"3\",\"8\",\"5\",\"S\",\"J\",\"40\"
\"\",\"\",\"approach-retreat\",\"44\",\"464778\",\"0.0-44.0\",\"\",\"\",\"2-1\",\"4735\",\"39\",\"0\",\"Training\",\"Stims/Figures/144-C-30-3.bmp\",\"takaka\",\"Left\",\"37\",\"3\",\"9\",\"5\",\"P\",\"J\",\"41\"
\"\",\"\",\"approach-retreat\",\"45\",\"471891\",\"0.0-45.0\",\"\",\"\",\"2-1\",\"5606\",\"38\",\"1\",\"Training\",\"Stims/Figures/139-C-20-2.bmp\",\"pa:kaka\",\"Up\",\"38\",\"3\",\"10\",\"5\",\"P\",\"J\",\"42\"
\"\",\"\",\"approach-retreat\",\"46\",\"477878\",\"0.0-46.0\",\"\",\"\",\"2-1\",\"4480\",\"40\",\"1\",\"Training\",\"Stims/Figures/19-J-10-4.bmp\",\"na:mana\",\"Up\",\"40\",\"3\",\"11\",\"5\",\"S\",\"J\",\"43\"
\"\",\"\",\"approach-retreat\",\"47\",\"484638\",\"0.0-47.0\",\"\",\"\",\"2-1\",\"5252\",\"40\",\"1\",\"Training\",\"Stims/Figures/19-C-20-4.bmp\",\"ta:ka:ta\",\"Down\",\"40\",\"3\",\"12\",\"5\",\"P\",\"J\",\"44\"
\"\",\"\",\"approach-retreat\",\"48\",\"490563\",\"0.0-48.0\",\"\",\"\",\"2-1\",\"4416\",\"39\",\"1\",\"Training\",\"Stims/Figures/57-C-30-1.bmp\",\"tapaka\",\"Right\",\"39\",\"3\",\"13\",\"5\",\"P\",\"J\",\"45\"
\"\",\"\",\"approach-retreat\",\"49\",\"496975\",\"0.0-49.0\",\"\",\"\",\"2-1\",\"4903\",\"37\",\"1\",\"Training\",\"Stims/Figures/27-C-30-1.bmp\",\"pa:pa:ka\",\"Left\",\"37\",\"3\",\"14\",\"5\",\"P\",\"J\",\"46\"
\"\",\"\",\"approach-retreat\",\"50\",\"503218\",\"0.0-50.0\",\"\",\"\",\"2-1\",\"4735\",\"39\",\"0\",\"Training\",\"Stims/Figures/87-C-20-4.bmp\",\"papata\",\"Left\",\"37\",\"3\",\"15\",\"5\",\"P\",\"J\",\"47\"
\"\",\"\",\"approach-retreat\",\"51\",\"510765\",\"0.0-51.0\",\"\",\"\",\"2-1\",\"6039\",\"39\",\"1\",\"Training\",\"Stims/Figures/111-C-30-3.bmp\",\"tapa:ta\",\"Right\",\"39\",\"3\",\"16\",\"5\",\"P\",\"J\",\"48\"
\"\",\"\",\"approach-retreat\",\"52\",\"517300\",\"0.0-52.0\",\"\",\"\",\"2-1\",\"5026\",\"40\",\"0\",\"Training\",\"Stims/Figures/111-C-30-3.bmp\",\"tapa:ta\",\"Up\",\"38\",\"4\",\"1\",\"5\",\"P\",\"J\",\"49\"
\"\",\"\",\"approach-retreat\",\"53\",\"523154\",\"0.0-53.0\",\"\",\"\",\"2-1\",\"4347\",\"37\",\"1\",\"Training\",\"Stims/Figures/139-C-20-2.bmp\",\"pa:kaka\",\"Left\",\"37\",\"4\",\"2\",\"5\",\"P\",\"J\",\"50\"
\"\",\"\",\"approach-retreat\",\"54\",\"528848\",\"0.0-54.0\",\"\",\"\",\"2-1\",\"4185\",\"39\",\"1\",\"Training\",\"Stims/Figures/139-J-0-2.bmp\",\"na:ma:na\",\"Left\",\"39\",\"4\",\"3\",\"5\",\"S\",\"J\",\"51\"
\"\",\"\",\"approach-retreat\",\"55\",\"534820\",\"0.0-55.0\",\"\",\"\",\"2-1\",\"4464\",\"38\",\"1\",\"Training\",\"Stims/Figures/144-C-30-3.bmp\",\"takaka\",\"Up\",\"38\",\"4\",\"4\",\"5\",\"P\",\"J\",\"52\"
\"\",\"\",\"approach-retreat\",\"56\",\"540697\",\"0.0-56.0\",\"\",\"\",\"2-1\",\"4369\",\"38\",\"1\",\"Training\",\"Stims/Figures/57-C-30-1.bmp\",\"tapaka\",\"Up\",\"38\",\"4\",\"5\",\"5\",\"P\",\"J\",\"53\"
\"\",\"\",\"approach-retreat\",\"57\",\"547801\",\"0.0-57.0\",\"\",\"\",\"2-1\",\"5596\",\"38\",\"1\",\"Training\",\"Stims/Figures/84-J-0-2.bmp\",\"ma:mana\",\"Down\",\"38\",\"4\",\"6\",\"5\",\"S\",\"J\",\"54\"
\"\",\"\",\"approach-retreat\",\"58\",\"553651\",\"0.0-58.0\",\"\",\"\",\"2-1\",\"4342\",\"40\",\"1\",\"Training\",\"Stims/Figures/87-C-20-4.bmp\",\"papata\",\"Down\",\"40\",\"4\",\"7\",\"5\",\"P\",\"J\",\"55\"
\"\",\"\",\"approach-retreat\",\"59\",\"560060\",\"0.0-59.0\",\"\",\"\",\"2-1\",\"4901\",\"37\",\"1\",\"Training\",\"Stims/Figures/27-C-30-1.bmp\",\"pa:pa:ka\",\"Left\",\"37\",\"4\",\"8\",\"5\",\"P\",\"J\",\"56\"
\"\",\"\",\"approach-retreat\",\"60\",\"566293\",\"0.0-60.0\",\"\",\"\",\"2-1\",\"4724\",\"37\",\"1\",\"Training\",\"Stims/Figures/27-J-0-1.bmp\",\"nalana\",\"Right\",\"37\",\"4\",\"9\",\"5\",\"S\",\"J\",\"57\"
\"\",\"\",\"approach-retreat\",\"61\",\"572556\",\"0.0-61.0\",\"\",\"\",\"2-1\",\"4755\",\"40\",\"1\",\"Training\",\"Stims/Figures/144-J-10-3.bmp\",\"malala\",\"Up\",\"40\",\"4\",\"10\",\"5\",\"S\",\"J\",\"58\"
\"\",\"\",\"approach-retreat\",\"62\",\"578623\",\"0.0-62.0\",\"\",\"\",\"2-1\",\"4557\",\"40\",\"1\",\"Training\",\"Stims/Figures/19-C-20-4.bmp\",\"ta:ka:ta\",\"Down\",\"40\",\"4\",\"11\",\"5\",\"P\",\"J\",\"59\"
\"\",\"\",\"approach-retreat\",\"63\",\"586861\",\"0.0-63.0\",\"\",\"\",\"2-1\",\"6730\",\"37\",\"1\",\"Training\",\"Stims/Figures/111-J-10-3.bmp\",\"nala:na\",\"Right\",\"37\",\"4\",\"12\",\"5\",\"S\",\"J\",\"60\"
\"\",\"\",\"approach-retreat\",\"64\",\"593028\",\"0.0-64.0\",\"\",\"\",\"2-1\",\"4660\",\"39\",\"1\",\"Training\",\"Stims/Figures/57-J-0-1.bmp\",\"namala\",\"Left\",\"39\",\"4\",\"13\",\"5\",\"S\",\"J\",\"61\"
\"\",\"\",\"approach-retreat\",\"65\",\"598979\",\"0.0-65.0\",\"\",\"\",\"2-1\",\"4441\",\"38\",\"1\",\"Training\",\"Stims/Figures/19-J-10-4.bmp\",\"na:mana\",\"Down\",\"38\",\"4\",\"14\",\"5\",\"S\",\"J\",\"62\"
\"\",\"\",\"approach-retreat\",\"66\",\"606706\",\"0.0-66.0\",\"\",\"\",\"2-1\",\"6219\",\"37\",\"1\",\"Training\",\"Stims/Figures/87-J-10-4.bmp\",\"mama:la\",\"Right\",\"37\",\"4\",\"15\",\"5\",\"S\",\"J\",\"63\"
\"\",\"\",\"approach-retreat\",\"67\",\"613167\",\"0.0-67.0\",\"\",\"\",\"2-1\",\"4954\",\"39\",\"1\",\"Training\",\"Stims/Figures/84-C-20-2.bmp\",\"pa:kata\",\"Right\",\"39\",\"4\",\"16\",\"5\",\"P\",\"J\",\"64\"
\"\",\"\",\"approach-retreat\",\"68\",\"619590\",\"0.0-68.0\",\"\",\"\",\"2-1\",\"4914\",\"38\",\"1\",\"Training\",\"Stims/Figures/111-J-10-3.bmp\",\"nala:na\",\"Down\",\"38\",\"5\",\"1\",\"5\",\"S\",\"J\",\"65\"
\"\",\"\",\"approach-retreat\",\"69\",\"625871\",\"0.0-69.0\",\"\",\"\",\"2-1\",\"4775\",\"40\",\"1\",\"Training\",\"Stims/Figures/27-J-0-1.bmp\",\"nalana\",\"Up\",\"40\",\"5\",\"2\",\"5\",\"S\",\"J\",\"66\"
\"\",\"\",\"approach-retreat\",\"70\",\"632811\",\"0.0-70.0\",\"\",\"\",\"2-1\",\"5431\",\"37\",\"1\",\"Training\",\"Stims/Figures/144-J-10-3.bmp\",\"malala\",\"Right\",\"37\",\"5\",\"3\",\"5\",\"S\",\"J\",\"67\"
\"\",\"\",\"approach-retreat\",\"71\",\"638707\",\"0.0-71.0\",\"\",\"\",\"2-1\",\"4390\",\"40\",\"1\",\"Training\",\"Stims/Figures/139-C-20-2.bmp\",\"pa:kaka\",\"Down\",\"40\",\"5\",\"4\",\"5\",\"P\",\"J\",\"68\"
\"\",\"\",\"approach-retreat\",\"72\",\"645039\",\"0.0-72.0\",\"\",\"\",\"2-1\",\"4825\",\"39\",\"1\",\"Training\",\"Stims/Figures/57-J-0-1.bmp\",\"namala\",\"Left\",\"39\",\"5\",\"5\",\"5\",\"S\",\"J\",\"69\"
\"\",\"\",\"approach-retreat\",\"73\",\"651509\",\"0.0-73.0\",\"\",\"\",\"2-1\",\"4961\",\"39\",\"1\",\"Training\",\"Stims/Figures/57-C-30-1.bmp\",\"tapaka\",\"Right\",\"39\",\"5\",\"6\",\"5\",\"P\",\"J\",\"70\"
\"\",\"\",\"approach-retreat\",\"74\",\"657199\",\"0.0-74.0\",\"\",\"\",\"2-1\",\"4182\",\"39\",\"1\",\"Training\",\"Stims/Figures/27-C-30-1.bmp\",\"pa:pa:ka\",\"Right\",\"39\",\"5\",\"7\",\"5\",\"P\",\"J\",\"71\"
\"\",\"\",\"approach-retreat\",\"75\",\"663062\",\"0.0-75.0\",\"\",\"\",\"2-1\",\"4355\",\"37\",\"1\",\"Training\",\"Stims/Figures/87-J-10-4.bmp\",\"mama:la\",\"Right\",\"37\",\"5\",\"8\",\"5\",\"S\",\"J\",\"72\"
\"\",\"\",\"approach-retreat\",\"76\",\"669328\",\"0.0-76.0\",\"\",\"\",\"2-1\",\"4757\",\"40\",\"1\",\"Training\",\"Stims/Figures/19-J-10-4.bmp\",\"na:mana\",\"Up\",\"40\",\"5\",\"9\",\"5\",\"S\",\"J\",\"73\"
\"\",\"\",\"approach-retreat\",\"77\",\"674854\",\"0.0-77.0\",\"\",\"\",\"2-1\",\"4018\",\"40\",\"1\",\"Training\",\"Stims/Figures/84-J-0-2.bmp\",\"ma:mana\",\"Up\",\"40\",\"5\",\"10\",\"5\",\"S\",\"J\",\"74\"
\"\",\"\",\"approach-retreat\",\"78\",\"681250\",\"0.0-78.0\",\"\",\"\",\"2-1\",\"4887\",\"38\",\"1\",\"Training\",\"Stims/Figures/139-J-0-2.bmp\",\"na:ma:na\",\"Down\",\"38\",\"5\",\"11\",\"5\",\"S\",\"J\",\"75\"
\"\",\"\",\"approach-retreat\",\"79\",\"688065\",\"0.0-79.0\",\"\",\"\",\"2-1\",\"5309\",\"38\",\"1\",\"Training\",\"Stims/Figures/87-C-20-4.bmp\",\"papata\",\"Up\",\"38\",\"5\",\"12\",\"5\",\"P\",\"J\",\"76\"
\"\",\"\",\"approach-retreat\",\"80\",\"693970\",\"0.0-80.0\",\"\",\"\",\"2-1\",\"4396\",\"37\",\"1\",\"Training\",\"Stims/Figures/144-C-30-3.bmp\",\"takaka\",\"Left\",\"37\",\"5\",\"13\",\"5\",\"P\",\"J\",\"77\"
\"\",\"\",\"approach-retreat\",\"81\",\"699881\",\"0.0-81.0\",\"\",\"\",\"2-1\",\"4405\",\"40\",\"1\",\"Training\",\"Stims/Figures/111-C-30-3.bmp\",\"tapa:ta\",\"Down\",\"40\",\"5\",\"14\",\"5\",\"P\",\"J\",\"78\"
\"\",\"\",\"approach-retreat\",\"82\",\"705882\",\"0.0-82.0\",\"\",\"\",\"2-1\",\"4494\",\"37\",\"1\",\"Training\",\"Stims/Figures/84-C-20-2.bmp\",\"pa:kata\",\"Left\",\"37\",\"5\",\"15\",\"5\",\"P\",\"J\",\"79\"
\"\",\"\",\"approach-retreat\",\"83\",\"712281\",\"0.0-83.0\",\"\",\"\",\"2-1\",\"4891\",\"37\",\"1\",\"Training\",\"Stims/Figures/19-C-20-4.bmp\",\"ta:ka:ta\",\"Left\",\"37\",\"5\",\"16\",\"5\",\"P\",\"J\",\"80\"
\"\",\"\",\"approach-retreat\",\"84\",\"718131\",\"0.0-84.0\",\"\",\"\",\"2-1\",\"4343\",\"38\",\"1\",\"Training\",\"Stims/Figures/19-C-20-4.bmp\",\"ta:ka:ta\",\"Up\",\"38\",\"6\",\"1\",\"5\",\"P\",\"J\",\"81\"
\"\",\"\",\"approach-retreat\",\"85\",\"723964\",\"0.0-85.0\",\"\",\"\",\"2-1\",\"4326\",\"39\",\"1\",\"Training\",\"Stims/Figures/139-C-20-2.bmp\",\"pa:kaka\",\"Right\",\"39\",\"6\",\"2\",\"5\",\"P\",\"J\",\"82\"
\"\",\"\",\"approach-retreat\",\"86\",\"729801\",\"0.0-86.0\",\"\",\"\",\"2-1\",\"4329\",\"37\",\"1\",\"Training\",\"Stims/Figures/57-J-0-1.bmp\",\"namala\",\"Right\",\"37\",\"6\",\"3\",\"5\",\"S\",\"J\",\"83\"
\"\",\"\",\"approach-retreat\",\"87\",\"735960\",\"0.0-87.0\",\"\",\"\",\"2-1\",\"4650\",\"38\",\"1\",\"Training\",\"Stims/Figures/87-C-20-4.bmp\",\"papata\",\"Up\",\"38\",\"6\",\"4\",\"5\",\"P\",\"J\",\"84\"
\"\",\"\",\"approach-retreat\",\"88\",\"741765\",\"0.0-88.0\",\"\",\"\",\"2-1\",\"4297\",\"38\",\"1\",\"Training\",\"Stims/Figures/27-C-30-1.bmp\",\"pa:pa:ka\",\"Up\",\"38\",\"6\",\"5\",\"5\",\"P\",\"J\",\"85\"
\"\",\"\",\"approach-retreat\",\"89\",\"747502\",\"0.0-89.0\",\"\",\"\",\"2-1\",\"4231\",\"38\",\"1\",\"Training\",\"Stims/Figures/27-J-0-1.bmp\",\"nalana\",\"Down\",\"38\",\"6\",\"6\",\"5\",\"S\",\"J\",\"86\"
\"\",\"\",\"approach-retreat\",\"90\",\"754120\",\"0.0-90.0\",\"\",\"\",\"2-1\",\"5109\",\"38\",\"1\",\"Training\",\"Stims/Figures/84-C-20-2.bmp\",\"pa:kata\",\"Up\",\"38\",\"6\",\"7\",\"5\",\"P\",\"J\",\"87\"
\"\",\"\",\"approach-retreat\",\"91\",\"759967\",\"0.0-91.0\",\"\",\"\",\"2-1\",\"4339\",\"37\",\"1\",\"Training\",\"Stims/Figures/87-J-10-4.bmp\",\"mama:la\",\"Right\",\"37\",\"6\",\"8\",\"5\",\"S\",\"J\",\"88\"
\"\",\"\",\"approach-retreat\",\"92\",\"766399\",\"0.0-92.0\",\"\",\"\",\"2-1\",\"4924\",\"37\",\"1\",\"Training\",\"Stims/Figures/144-C-30-3.bmp\",\"takaka\",\"Left\",\"37\",\"6\",\"9\",\"5\",\"P\",\"J\",\"89\"
\"\",\"\",\"approach-retreat\",\"93\",\"772345\",\"0.0-93.0\",\"\",\"\",\"2-1\",\"4437\",\"38\",\"1\",\"Training\",\"Stims/Figures/144-J-10-3.bmp\",\"malala\",\"Down\",\"38\",\"6\",\"10\",\"5\",\"S\",\"J\",\"90\"
\"\",\"\",\"approach-retreat\",\"94\",\"778921\",\"0.0-94.0\",\"\",\"\",\"2-1\",\"5067\",\"38\",\"1\",\"Training\",\"Stims/Figures/84-J-0-2.bmp\",\"ma:mana\",\"Down\",\"38\",\"6\",\"11\",\"5\",\"S\",\"J\",\"91\"
\"\",\"\",\"approach-retreat\",\"95\",\"785158\",\"0.0-95.0\",\"\",\"\",\"2-1\",\"4729\",\"40\",\"1\",\"Training\",\"Stims/Figures/57-C-30-1.bmp\",\"tapaka\",\"Down\",\"40\",\"6\",\"12\",\"5\",\"P\",\"J\",\"92\"
\"\",\"\",\"approach-retreat\",\"96\",\"790838\",\"0.0-96.0\",\"\",\"\",\"2-1\",\"4173\",\"39\",\"1\",\"Training\",\"Stims/Figures/139-J-0-2.bmp\",\"na:ma:na\",\"Left\",\"39\",\"6\",\"13\",\"5\",\"S\",\"J\",\"93\"
\"\",\"\",\"approach-retreat\",\"97\",\"796492\",\"0.0-97.0\",\"\",\"\",\"2-1\",\"4143\",\"37\",\"1\",\"Training\",\"Stims/Figures/111-C-30-3.bmp\",\"tapa:ta\",\"Left\",\"37\",\"6\",\"14\",\"5\",\"P\",\"J\",\"94\"
\"\",\"\",\"approach-retreat\",\"98\",\"802370\",\"0.0-98.0\",\"\",\"\",\"2-1\",\"4372\",\"37\",\"1\",\"Training\",\"Stims/Figures/19-J-10-4.bmp\",\"na:mana\",\"Right\",\"37\",\"6\",\"15\",\"5\",\"S\",\"J\",\"95\"
\"\",\"\",\"approach-retreat\",\"99\",\"807956\",\"0.0-99.0\",\"\",\"\",\"2-1\",\"4077\",\"39\",\"1\",\"Training\",\"Stims/Figures/111-J-10-3.bmp\",\"nala:na\",\"Left\",\"39\",\"6\",\"16\",\"5\",\"S\",\"J\",\"96\"
\"\",\"\",\"approach-retreat\",\"100\",\"814170\",\"0.0-100.0\",\"\",\"\",\"2-1\",\"4706\",\"40\",\"1\",\"Training\",\"Stims/Figures/19-J-10-4.bmp\",\"na:mana\",\"Up\",\"40\",\"7\",\"1\",\"5\",\"S\",\"J\",\"97\"
\"\",\"\",\"approach-retreat\",\"101\",\"820346\",\"0.0-101.0\",\"\",\"\",\"2-1\",\"4668\",\"38\",\"1\",\"Training\",\"Stims/Figures/27-J-0-1.bmp\",\"nalana\",\"Down\",\"38\",\"7\",\"2\",\"5\",\"S\",\"J\",\"98\"
\"\",\"\",\"approach-retreat\",\"102\",\"826171\",\"0.0-102.0\",\"\",\"\",\"2-1\",\"4317\",\"37\",\"1\",\"Training\",\"Stims/Figures/111-J-10-3.bmp\",\"nala:na\",\"Right\",\"37\",\"7\",\"3\",\"5\",\"S\",\"J\",\"99\"
\"\",\"\",\"approach-retreat\",\"103\",\"832673\",\"0.0-103.0\",\"\",\"\",\"2-1\",\"4995\",\"37\",\"1\",\"Training\",\"Stims/Figures/57-J-0-1.bmp\",\"namala\",\"Right\",\"37\",\"7\",\"4\",\"5\",\"S\",\"J\",\"100\"
\"\",\"\",\"approach-retreat\",\"104\",\"839296\",\"0.0-104.0\",\"\",\"\",\"2-1\",\"5112\",\"37\",\"1\",\"Training\",\"Stims/Figures/84-J-0-2.bmp\",\"ma:mana\",\"Right\",\"37\",\"7\",\"5\",\"5\",\"S\",\"J\",\"101\"
\"\",\"\",\"approach-retreat\",\"105\",\"844888\",\"0.0-105.0\",\"\",\"\",\"2-1\",\"4086\",\"39\",\"1\",\"Training\",\"Stims/Figures/111-C-30-3.bmp\",\"tapa:ta\",\"Right\",\"39\",\"7\",\"6\",\"5\",\"P\",\"J\",\"102\"
\"\",\"\",\"approach-retreat\",\"106\",\"850669\",\"0.0-106.0\",\"\",\"\",\"2-1\",\"4272\",\"38\",\"1\",\"Training\",\"Stims/Figures/27-C-30-1.bmp\",\"pa:pa:ka\",\"Up\",\"38\",\"7\",\"7\",\"5\",\"P\",\"J\",\"103\"
\"\",\"\",\"approach-retreat\",\"107\",\"856941\",\"0.0-107.0\",\"\",\"\",\"2-1\",\"4763\",\"38\",\"1\",\"Training\",\"Stims/Figures/84-C-20-2.bmp\",\"pa:kata\",\"Up\",\"38\",\"7\",\"8\",\"5\",\"P\",\"J\",\"104\"
\"\",\"\",\"approach-retreat\",\"108\",\"863055\",\"0.0-108.0\",\"\",\"\",\"2-1\",\"4607\",\"40\",\"1\",\"Training\",\"Stims/Figures/57-C-30-1.bmp\",\"tapaka\",\"Down\",\"40\",\"7\",\"9\",\"5\",\"P\",\"J\",\"105\"
\"\",\"\",\"approach-retreat\",\"109\",\"868531\",\"0.0-109.0\",\"\",\"\",\"2-1\",\"3968\",\"39\",\"1\",\"Training\",\"Stims/Figures/144-J-10-3.bmp\",\"malala\",\"Left\",\"39\",\"7\",\"10\",\"5\",\"S\",\"J\",\"106\"
\"\",\"\",\"approach-retreat\",\"110\",\"874166\",\"0.0-110.0\",\"\",\"\",\"2-1\",\"4128\",\"38\",\"0\",\"Training\",\"Stims/Figures/19-C-20-4.bmp\",\"ta:ka:ta\",\"Down\",\"40\",\"7\",\"11\",\"5\",\"P\",\"J\",\"107\"
\"\",\"\",\"approach-retreat\",\"111\",\"880301\",\"0.0-111.0\",\"\",\"\",\"2-1\",\"4627\",\"37\",\"1\",\"Training\",\"Stims/Figures/87-C-20-4.bmp\",\"papata\",\"Left\",\"37\",\"7\",\"12\",\"5\",\"P\",\"J\",\"108\"
\"\",\"\",\"approach-retreat\",\"112\",\"886297\",\"0.0-112.0\",\"\",\"\",\"2-1\",\"4489\",\"37\",\"1\",\"Training\",\"Stims/Figures/139-C-20-2.bmp\",\"pa:kaka\",\"Left\",\"37\",\"7\",\"13\",\"5\",\"P\",\"J\",\"109\"
\"\",\"\",\"approach-retreat\",\"113\",\"892376\",\"0.0-113.0\",\"\",\"\",\"2-1\",\"4570\",\"38\",\"1\",\"Training\",\"Stims/Figures/139-J-0-2.bmp\",\"na:ma:na\",\"Down\",\"38\",\"7\",\"14\",\"5\",\"S\",\"J\",\"110\"
\"\",\"\",\"approach-retreat\",\"114\",\"898707\",\"0.0-114.0\",\"\",\"\",\"2-1\",\"4823\",\"38\",\"1\",\"Training\",\"Stims/Figures/144-C-30-3.bmp\",\"takaka\",\"Up\",\"38\",\"7\",\"15\",\"5\",\"P\",\"J\",\"111\"
\"\",\"\",\"approach-retreat\",\"115\",\"904395\",\"0.0-115.0\",\"\",\"\",\"2-1\",\"4179\",\"39\",\"1\",\"Training\",\"Stims/Figures/87-J-10-4.bmp\",\"mama:la\",\"Left\",\"39\",\"7\",\"16\",\"5\",\"S\",\"J\",\"112\"
\"\",\"\",\"approach-retreat\",\"116\",\"910768\",\"0.0-116.0\",\"\",\"\",\"2-1\",\"4865\",\"39\",\"1\",\"Training\",\"Stims/Figures/144-C-30-3.bmp\",\"takaka\",\"Right\",\"39\",\"8\",\"1\",\"5\",\"P\",\"J\",\"113\"
\"\",\"\",\"approach-retreat\",\"117\",\"916866\",\"0.0-117.0\",\"\",\"\",\"2-1\",\"4590\",\"40\",\"1\",\"Training\",\"Stims/Figures/27-J-0-1.bmp\",\"nalana\",\"Up\",\"40\",\"8\",\"2\",\"5\",\"S\",\"J\",\"114\"
\"\",\"\",\"approach-retreat\",\"118\",\"922854\",\"0.0-118.0\",\"\",\"\",\"2-1\",\"4479\",\"39\",\"1\",\"Training\",\"Stims/Figures/87-J-10-4.bmp\",\"mama:la\",\"Left\",\"39\",\"8\",\"3\",\"5\",\"S\",\"J\",\"115\"
\"\",\"\",\"approach-retreat\",\"119\",\"930775\",\"0.0-119.0\",\"\",\"\",\"2-1\",\"6414\",\"37\",\"1\",\"Training\",\"Stims/Figures/139-J-0-2.bmp\",\"na:ma:na\",\"Right\",\"37\",\"8\",\"4\",\"5\",\"S\",\"J\",\"116\"
\"\",\"\",\"approach-retreat\",\"120\",\"936528\",\"0.0-120.0\",\"\",\"\",\"2-1\",\"4244\",\"38\",\"1\",\"Training\",\"Stims/Figures/27-C-30-1.bmp\",\"pa:pa:ka\",\"Up\",\"38\",\"8\",\"5\",\"5\",\"P\",\"J\",\"117\"
\"\",\"\",\"approach-retreat\",\"121\",\"942511\",\"0.0-121.0\",\"\",\"\",\"2-1\",\"4475\",\"37\",\"1\",\"Training\",\"Stims/Figures/144-J-10-3.bmp\",\"malala\",\"Right\",\"37\",\"8\",\"6\",\"5\",\"S\",\"J\",\"118\"
\"\",\"\",\"approach-retreat\",\"122\",\"948529\",\"0.0-122.0\",\"\",\"\",\"2-1\",\"4511\",\"37\",\"1\",\"Training\",\"Stims/Figures/84-C-20-2.bmp\",\"pa:kata\",\"Left\",\"37\",\"8\",\"7\",\"5\",\"P\",\"J\",\"119\"
\"\",\"\",\"approach-retreat\",\"123\",\"955326\",\"0.0-123.0\",\"\",\"\",\"2-1\",\"5287\",\"39\",\"1\",\"Training\",\"Stims/Figures/111-C-30-3.bmp\",\"tapa:ta\",\"Right\",\"39\",\"8\",\"8\",\"5\",\"P\",\"J\",\"120\"
\"\",\"\",\"approach-retreat\",\"124\",\"960861\",\"0.0-124.0\",\"\",\"\",\"2-1\",\"4027\",\"40\",\"1\",\"Training\",\"Stims/Figures/57-C-30-1.bmp\",\"tapaka\",\"Down\",\"40\",\"8\",\"9\",\"5\",\"P\",\"J\",\"121\"
\"\",\"\",\"approach-retreat\",\"125\",\"967516\",\"0.0-125.0\",\"\",\"\",\"2-1\",\"5145\",\"39\",\"1\",\"Training\",\"Stims/Figures/57-J-0-1.bmp\",\"namala\",\"Left\",\"39\",\"8\",\"10\",\"5\",\"S\",\"J\",\"122\"
\"\",\"\",\"approach-retreat\",\"126\",\"973638\",\"0.0-126.0\",\"\",\"\",\"2-1\",\"4614\",\"38\",\"1\",\"Training\",\"Stims/Figures/139-C-20-2.bmp\",\"pa:kaka\",\"Up\",\"38\",\"8\",\"11\",\"5\",\"P\",\"J\",\"123\"
\"\",\"\",\"approach-retreat\",\"127\",\"979407\",\"0.0-127.0\",\"\",\"\",\"2-1\",\"4261\",\"38\",\"1\",\"Training\",\"Stims/Figures/19-J-10-4.bmp\",\"na:mana\",\"Down\",\"38\",\"8\",\"12\",\"5\",\"S\",\"J\",\"124\"
\"\",\"\",\"approach-retreat\",\"128\",\"985190\",\"0.0-128.0\",\"\",\"\",\"2-1\",\"4275\",\"38\",\"1\",\"Training\",\"Stims/Figures/84-J-0-2.bmp\",\"ma:mana\",\"Down\",\"38\",\"8\",\"13\",\"5\",\"S\",\"J\",\"125\"
\"\",\"\",\"approach-retreat\",\"129\",\"991404\",\"0.0-129.0\",\"\",\"\",\"2-1\",\"4707\",\"40\",\"1\",\"Training\",\"Stims/Figures/111-J-10-3.bmp\",\"nala:na\",\"Up\",\"40\",\"8\",\"14\",\"5\",\"S\",\"J\",\"126\"
\"\",\"\",\"approach-retreat\",\"130\",\"997346\",\"0.0-130.0\",\"\",\"\",\"2-1\",\"4434\",\"37\",\"1\",\"Training\",\"Stims/Figures/19-C-20-4.bmp\",\"ta:ka:ta\",\"Left\",\"37\",\"8\",\"15\",\"5\",\"P\",\"J\",\"127\"
\"\",\"\",\"approach-retreat\",\"131\",\"1004644\",\"0.0-131.0\",\"\",\"\",\"2-1\",\"5790\",\"40\",\"1\",\"Training\",\"Stims/Figures/87-C-20-4.bmp\",\"papata\",\"Down\",\"40\",\"8\",\"16\",\"5\",\"P\",\"J\",\"128\"
\"\",\"\",\"approach-retreat\",\"132\",\"1010450\",\"0.0-132.0\",\"\",\"\",\"2-1\",\"4298\",\"39\",\"1\",\"Training\",\"Stims/Figures/19-J-10-4.bmp\",\"na:mana\",\"Left\",\"39\",\"9\",\"1\",\"5\",\"S\",\"J\",\"129\"
\"\",\"\",\"approach-retreat\",\"133\",\"1017175\",\"0.0-133.0\",\"\",\"\",\"2-1\",\"5216\",\"38\",\"1\",\"Training\",\"Stims/Figures/144-J-10-3.bmp\",\"malala\",\"Down\",\"38\",\"9\",\"2\",\"5\",\"S\",\"J\",\"130\"
\"\",\"\",\"approach-retreat\",\"134\",\"1023499\",\"0.0-134.0\",\"\",\"\",\"2-1\",\"4816\",\"39\",\"1\",\"Training\",\"Stims/Figures/87-C-20-4.bmp\",\"papata\",\"Right\",\"39\",\"9\",\"3\",\"5\",\"P\",\"J\",\"131\"
\"\",\"\",\"approach-retreat\",\"135\",\"1029551\",\"0.0-135.0\",\"\",\"\",\"2-1\",\"4543\",\"38\",\"1\",\"Training\",\"Stims/Figures/84-C-20-2.bmp\",\"pa:kata\",\"Up\",\"38\",\"9\",\"4\",\"5\",\"P\",\"J\",\"132\"
\"\",\"\",\"approach-retreat\",\"136\",\"1036073\",\"0.0-136.0\",\"\",\"\",\"2-1\",\"5015\",\"38\",\"1\",\"Training\",\"Stims/Figures/139-C-20-2.bmp\",\"pa:kaka\",\"Up\",\"38\",\"9\",\"5\",\"5\",\"P\",\"J\",\"133\"
\"\",\"\",\"approach-retreat\",\"137\",\"1041659\",\"0.0-137.0\",\"\",\"\",\"2-1\",\"4079\",\"38\",\"1\",\"Training\",\"Stims/Figures/57-C-30-1.bmp\",\"tapaka\",\"Up\",\"38\",\"9\",\"6\",\"5\",\"P\",\"J\",\"134\"
\"\",\"\",\"approach-retreat\",\"138\",\"1050548\",\"0.0-138.0\",\"\",\"\",\"2-1\",\"7381\",\"40\",\"1\",\"Training\",\"Stims/Figures/111-C-30-3.bmp\",\"tapa:ta\",\"Down\",\"40\",\"9\",\"7\",\"5\",\"P\",\"J\",\"135\"
\"\",\"\",\"approach-retreat\",\"139\",\"1057066\",\"0.0-139.0\",\"\",\"\",\"2-1\",\"5009\",\"40\",\"1\",\"Training\",\"Stims/Figures/144-C-30-3.bmp\",\"takaka\",\"Down\",\"40\",\"9\",\"8\",\"5\",\"P\",\"J\",\"136\"
\"\",\"\",\"approach-retreat\",\"140\",\"1062661\",\"0.0-140.0\",\"\",\"\",\"2-1\",\"4085\",\"39\",\"1\",\"Training\",\"Stims/Figures/84-J-0-2.bmp\",\"ma:mana\",\"Left\",\"39\",\"9\",\"9\",\"5\",\"S\",\"J\",\"137\"
\"\",\"\",\"approach-retreat\",\"141\",\"1068468\",\"0.0-141.0\",\"\",\"\",\"2-1\",\"4300\",\"39\",\"1\",\"Training\",\"Stims/Figures/27-C-30-1.bmp\",\"pa:pa:ka\",\"Right\",\"39\",\"9\",\"10\",\"5\",\"P\",\"J\",\"138\"
\"\",\"\",\"approach-retreat\",\"142\",\"1074298\",\"0.0-142.0\",\"\",\"\",\"2-1\",\"4321\",\"38\",\"0\",\"Training\",\"Stims/Figures/111-J-10-3.bmp\",\"nala:na\",\"Up\",\"40\",\"9\",\"11\",\"5\",\"S\",\"J\",\"139\"
\"\",\"\",\"approach-retreat\",\"143\",\"1079848\",\"0.0-143.0\",\"\",\"\",\"2-1\",\"4042\",\"39\",\"1\",\"Training\",\"Stims/Figures/87-J-10-4.bmp\",\"mama:la\",\"Left\",\"39\",\"9\",\"12\",\"5\",\"S\",\"J\",\"140\"
\"\",\"\",\"approach-retreat\",\"144\",\"1085424\",\"0.0-144.0\",\"\",\"\",\"2-1\",\"4069\",\"39\",\"1\",\"Training\",\"Stims/Figures/27-J-0-1.bmp\",\"nalana\",\"Left\",\"39\",\"9\",\"13\",\"5\",\"S\",\"J\",\"141\"
\"\",\"\",\"approach-retreat\",\"145\",\"1091901\",\"0.0-145.0\",\"\",\"\",\"2-1\",\"4968\",\"39\",\"1\",\"Training\",\"Stims/Figures/19-C-20-4.bmp\",\"ta:ka:ta\",\"Right\",\"39\",\"9\",\"14\",\"5\",\"P\",\"J\",\"142\"
\"\",\"\",\"approach-retreat\",\"146\",\"1097827\",\"0.0-146.0\",\"\",\"\",\"2-1\",\"4418\",\"38\",\"1\",\"Training\",\"Stims/Figures/139-J-0-2.bmp\",\"na:ma:na\",\"Down\",\"38\",\"9\",\"15\",\"5\",\"S\",\"J\",\"143\"
\"\",\"\",\"approach-retreat\",\"147\",\"1103654\",\"0.0-147.0\",\"\",\"\",\"2-1\",\"4320\",\"37\",\"1\",\"Training\",\"Stims/Figures/57-J-0-1.bmp\",\"namala\",\"Right\",\"37\",\"9\",\"16\",\"5\",\"S\",\"J\",\"144\"
\"15333\",\"\",\"instructions\",\"148\",\"1118987\",\"0.0-148.0\",\"[{\"\"page_index\"\":0,\"\"viewing_time\"\":15333}]\",\"\",\"\",\"\",\"\",\"\",\"\",\"\",\"\",\"\",\"\",\"\",\"\",\"\",\"\",\"\",\"\"
\"\",\"\",\"approach-retreat\",\"149\",\"1128389\",\"0.0-149.0\",\"\",\"\",\"2-1\",\"7896\",\"37\",\"1\",\"Testing\",\"Stims/Figures/44-C-30-3.bmp\",\"taka:ta\",\"Left\",\"37\",\"1\",\"1\",\"5\",\"P\",\"J\",\"1\"
\"\",\"\",\"approach-retreat\",\"150\",\"1134433\",\"0.0-150.0\",\"\",\"\",\"2-1\",\"4536\",\"38\",\"1\",\"Testing\",\"Stims/Figures/85-J-0-2.bmp\",\"na:lala\",\"Down\",\"38\",\"1\",\"2\",\"5\",\"S\",\"J\",\"2\"
\"\",\"\",\"approach-retreat\",\"151\",\"1140618\",\"0.0-151.0\",\"\",\"\",\"2-1\",\"4679\",\"37\",\"1\",\"Testing\",\"Stims/Figures/27-J-0-1.bmp\",\"nalana\",\"Right\",\"37\",\"1\",\"3\",\"5\",\"S\",\"J\",\"3\"
\"\",\"\",\"approach-retreat\",\"152\",\"1148380\",\"0.0-152.0\",\"\",\"\",\"2-1\",\"6256\",\"38\",\"1\",\"Testing\",\"Stims/Figures/144-J-10-3.bmp\",\"malala\",\"Down\",\"38\",\"1\",\"4\",\"5\",\"S\",\"J\",\"4\"
\"\",\"\",\"approach-retreat\",\"153\",\"1156835\",\"0.0-153.0\",\"\",\"\",\"2-1\",\"6950\",\"40\",\"1\",\"Testing\",\"Stims/Figures/57-J-0-1.bmp\",\"namala\",\"Up\",\"40\",\"1\",\"5\",\"5\",\"S\",\"J\",\"5\"
\"\",\"\",\"approach-retreat\",\"154\",\"1163227\",\"0.0-154.0\",\"\",\"\",\"2-1\",\"4886\",\"40\",\"0\",\"Testing\",\"Stims/Figures/57-C-30-1.bmp\",\"tapaka\",\"Up\",\"38\",\"1\",\"6\",\"5\",\"P\",\"J\",\"6\"
\"\",\"\",\"approach-retreat\",\"155\",\"1169081\",\"0.0-155.0\",\"\",\"\",\"2-1\",\"4348\",\"39\",\"1\",\"Testing\",\"Stims/Figures/7-C-20-4.bmp\",\"pa:pata\",\"Right\",\"39\",\"1\",\"7\",\"5\",\"P\",\"J\",\"7\"
\"\",\"\",\"approach-retreat\",\"156\",\"1174901\",\"0.0-156.0\",\"\",\"\",\"2-1\",\"4313\",\"38\",\"1\",\"Testing\",\"Stims/Figures/84-J-0-2.bmp\",\"ma:mana\",\"Down\",\"38\",\"1\",\"8\",\"5\",\"S\",\"J\",\"8\"
\"\",\"\",\"approach-retreat\",\"157\",\"1180603\",\"0.0-157.0\",\"\",\"\",\"2-1\",\"4196\",\"39\",\"0\",\"Testing\",\"Stims/Figures/144-C-30-3.bmp\",\"takaka\",\"Left\",\"37\",\"1\",\"9\",\"5\",\"P\",\"J\",\"9\"
\"\",\"\",\"approach-retreat\",\"158\",\"1186706\",\"0.0-158.0\",\"\",\"\",\"2-1\",\"4597\",\"39\",\"0\",\"Testing\",\"Stims/Figures/27-C-30-1.bmp\",\"pa:pa:ka\",\"Left\",\"37\",\"1\",\"10\",\"5\",\"P\",\"J\",\"10\"
\"\",\"\",\"approach-retreat\",\"159\",\"1193857\",\"0.0-159.0\",\"\",\"\",\"2-1\",\"5644\",\"39\",\"0\",\"Testing\",\"Stims/Figures/7-J-10-4.bmp\",\"malana\",\"Right\",\"37\",\"1\",\"11\",\"5\",\"S\",\"J\",\"11\"
\"\",\"\",\"approach-retreat\",\"160\",\"1200303\",\"0.0-160.0\",\"\",\"\",\"2-1\",\"4938\",\"37\",\"1\",\"Testing\",\"Stims/Figures/139-C-20-2.bmp\",\"pa:kaka\",\"Left\",\"37\",\"1\",\"12\",\"5\",\"P\",\"J\",\"12\"
\"\",\"\",\"approach-retreat\",\"161\",\"1206332\",\"0.0-161.0\",\"\",\"\",\"2-1\",\"4522\",\"39\",\"0\",\"Testing\",\"Stims/Figures/44-J-10-3.bmp\",\"ma:la:la\",\"Right\",\"37\",\"1\",\"13\",\"5\",\"S\",\"J\",\"13\"
\"\",\"\",\"approach-retreat\",\"162\",\"1212032\",\"0.0-162.0\",\"\",\"\",\"2-1\",\"4194\",\"37\",\"0\",\"Testing\",\"Stims/Figures/84-C-20-2.bmp\",\"pa:kata\",\"Right\",\"39\",\"1\",\"14\",\"5\",\"P\",\"J\",\"14\"
\"\",\"\",\"approach-retreat\",\"163\",\"1218367\",\"0.0-163.0\",\"\",\"\",\"2-1\",\"4827\",\"38\",\"1\",\"Testing\",\"Stims/Figures/19-J-10-4.bmp\",\"na:mana\",\"Down\",\"38\",\"1\",\"15\",\"5\",\"S\",\"J\",\"15\"
\"\",\"\",\"approach-retreat\",\"164\",\"1224509\",\"0.0-164.0\",\"\",\"\",\"2-1\",\"4636\",\"40\",\"1\",\"Testing\",\"Stims/Figures/85-C-20-2.bmp\",\"papa:ta\",\"Down\",\"40\",\"1\",\"16\",\"5\",\"P\",\"J\",\"16\"
\"\",\"\",\"approach-retreat\",\"165\",\"1230243\",\"0.0-165.0\",\"\",\"\",\"2-1\",\"4225\",\"38\",\"0\",\"Testing\",\"Stims/Figures/139-J-0-2.bmp\",\"na:ma:na\",\"Up\",\"40\",\"1\",\"17\",\"5\",\"S\",\"J\",\"17\"
\"\",\"\",\"approach-retreat\",\"166\",\"1237584\",\"0.0-166.0\",\"\",\"\",\"2-1\",\"5835\",\"40\",\"1\",\"Testing\",\"Stims/Figures/87-J-10-4.bmp\",\"mama:la\",\"Up\",\"40\",\"1\",\"18\",\"5\",\"S\",\"J\",\"18\"
\"\",\"\",\"approach-retreat\",\"167\",\"1243266\",\"0.0-167.0\",\"\",\"\",\"2-1\",\"4170\",\"38\",\"0\",\"Testing\",\"Stims/Figures/71-J-0-1.bmp\",\"nama:na\",\"Up\",\"40\",\"1\",\"19\",\"5\",\"S\",\"J\",\"19\"
\"\",\"\",\"approach-retreat\",\"168\",\"1249349\",\"0.0-168.0\",\"\",\"\",\"2-1\",\"4578\",\"40\",\"0\",\"Testing\",\"Stims/Figures/111-J-10-3.bmp\",\"nala:na\",\"Down\",\"38\",\"1\",\"20\",\"5\",\"S\",\"J\",\"20\"
\"\",\"\",\"approach-retreat\",\"169\",\"1255455\",\"0.0-169.0\",\"\",\"\",\"2-1\",\"4599\",\"40\",\"0\",\"Testing\",\"Stims/Figures/111-C-30-3.bmp\",\"tapa:ta\",\"Up\",\"38\",\"1\",\"21\",\"5\",\"P\",\"J\",\"21\"
\"\",\"\",\"approach-retreat\",\"170\",\"1267605\",\"0.0-170.0\",\"\",\"\",\"2-1\",\"10644\",\"39\",\"1\",\"Testing\",\"Stims/Figures/71-C-30-1.bmp\",\"ta:pa:ta\",\"Right\",\"39\",\"1\",\"22\",\"5\",\"P\",\"J\",\"22\"
\"\",\"\",\"approach-retreat\",\"171\",\"1273149\",\"0.0-171.0\",\"\",\"\",\"2-1\",\"4038\",\"39\",\"0\",\"Testing\",\"Stims/Figures/19-C-20-4.bmp\",\"ta:ka:ta\",\"Left\",\"37\",\"1\",\"23\",\"5\",\"P\",\"J\",\"23\"
\"\",\"\",\"approach-retreat\",\"172\",\"1278796\",\"0.0-172.0\",\"\",\"\",\"2-1\",\"4140\",\"39\",\"0\",\"Testing\",\"Stims/Figures/87-C-20-4.bmp\",\"papata\",\"Left\",\"37\",\"1\",\"24\",\"5\",\"P\",\"J\",\"24\"
\"\",\"\",\"approach-retreat\",\"173\",\"1284503\",\"0.0-173.0\",\"\",\"\",\"2-1\",\"4201\",\"40\",\"0\",\"Testing\",\"Stims/Figures/44-J-10-3.bmp\",\"ma:la:la\",\"Down\",\"38\",\"2\",\"1\",\"5\",\"S\",\"J\",\"25\"
\"\",\"\",\"approach-retreat\",\"174\",\"1292126\",\"0.0-174.0\",\"\",\"\",\"2-1\",\"6113\",\"39\",\"1\",\"Testing\",\"Stims/Figures/7-C-20-4.bmp\",\"pa:pata\",\"Right\",\"39\",\"2\",\"2\",\"5\",\"P\",\"J\",\"26\"
\"\",\"\",\"approach-retreat\",\"175\",\"1298850\",\"0.0-175.0\",\"\",\"\",\"2-1\",\"5217\",\"39\",\"1\",\"Testing\",\"Stims/Figures/57-C-30-1.bmp\",\"tapaka\",\"Right\",\"39\",\"2\",\"3\",\"5\",\"P\",\"J\",\"27\"
\"\",\"\",\"approach-retreat\",\"176\",\"1304631\",\"0.0-176.0\",\"\",\"\",\"2-1\",\"4275\",\"39\",\"1\",\"Testing\",\"Stims/Figures/44-C-30-3.bmp\",\"taka:ta\",\"Right\",\"39\",\"2\",\"4\",\"5\",\"P\",\"J\",\"28\"
\"\",\"\",\"approach-retreat\",\"177\",\"1311302\",\"0.0-177.0\",\"\",\"\",\"2-1\",\"5165\",\"37\",\"0\",\"Testing\",\"Stims/Figures/85-J-0-2.bmp\",\"na:lala\",\"Left\",\"39\",\"2\",\"5\",\"5\",\"S\",\"J\",\"29\"
\"\",\"\",\"approach-retreat\",\"178\",\"1317891\",\"0.0-178.0\",\"\",\"\",\"2-1\",\"5083\",\"37\",\"1\",\"Testing\",\"Stims/Figures/84-J-0-2.bmp\",\"ma:mana\",\"Right\",\"37\",\"2\",\"6\",\"5\",\"S\",\"J\",\"30\"
\"\",\"\",\"approach-retreat\",\"179\",\"1326956\",\"0.0-179.0\",\"\",\"\",\"2-1\",\"7558\",\"40\",\"1\",\"Testing\",\"Stims/Figures/57-J-0-1.bmp\",\"namala\",\"Up\",\"40\",\"2\",\"7\",\"5\",\"S\",\"J\",\"31\"
\"\",\"\",\"approach-retreat\",\"180\",\"1333921\",\"0.0-180.0\",\"\",\"\",\"2-1\",\"5458\",\"40\",\"0\",\"Testing\",\"Stims/Figures/144-C-30-3.bmp\",\"takaka\",\"Up\",\"38\",\"2\",\"8\",\"5\",\"P\",\"J\",\"32\"
\"\",\"\",\"approach-retreat\",\"181\",\"1341890\",\"0.0-181.0\",\"\",\"\",\"2-1\",\"6465\",\"40\",\"1\",\"Testing\",\"Stims/Figures/111-C-30-3.bmp\",\"tapa:ta\",\"Down\",\"40\",\"2\",\"9\",\"5\",\"P\",\"J\",\"33\"
\"\",\"\",\"approach-retreat\",\"182\",\"1348469\",\"0.0-182.0\",\"\",\"\",\"2-1\",\"5072\",\"38\",\"1\",\"Testing\",\"Stims/Figures/19-J-10-4.bmp\",\"na:mana\",\"Down\",\"38\",\"2\",\"10\",\"5\",\"S\",\"J\",\"34\"
\"\",\"\",\"approach-retreat\",\"183\",\"1354211\",\"0.0-183.0\",\"\",\"\",\"2-1\",\"4235\",\"37\",\"0\",\"Testing\",\"Stims/Figures/139-J-0-2.bmp\",\"na:ma:na\",\"Left\",\"39\",\"2\",\"11\",\"5\",\"S\",\"J\",\"35\"
\"\",\"\",\"approach-retreat\",\"184\",\"1362333\",\"0.0-184.0\",\"\",\"\",\"2-1\",\"6616\",\"39\",\"1\",\"Testing\",\"Stims/Figures/111-J-10-3.bmp\",\"nala:na\",\"Left\",\"39\",\"2\",\"12\",\"5\",\"S\",\"J\",\"36\"
\"\",\"\",\"approach-retreat\",\"185\",\"1367817\",\"0.0-185.0\",\"\",\"\",\"2-1\",\"3978\",\"40\",\"0\",\"Testing\",\"Stims/Figures/27-C-30-1.bmp\",\"pa:pa:ka\",\"Up\",\"38\",\"2\",\"13\",\"5\",\"P\",\"J\",\"37\"
\"\",\"\",\"approach-retreat\",\"186\",\"1374878\",\"0.0-186.0\",\"\",\"\",\"2-1\",\"5554\",\"39\",\"0\",\"Testing\",\"Stims/Figures/139-C-20-2.bmp\",\"pa:kaka\",\"Left\",\"37\",\"2\",\"14\",\"5\",\"P\",\"J\",\"38\"
\"\",\"\",\"approach-retreat\",\"187\",\"1380616\",\"0.0-187.0\",\"\",\"\",\"2-1\",\"4232\",\"37\",\"0\",\"Testing\",\"Stims/Figures/84-C-20-2.bmp\",\"pa:kata\",\"Right\",\"39\",\"2\",\"15\",\"5\",\"P\",\"J\",\"39\"
\"\",\"\",\"approach-retreat\",\"188\",\"1386408\",\"0.0-188.0\",\"\",\"\",\"2-1\",\"4285\",\"40\",\"0\",\"Testing\",\"Stims/Figures/71-J-0-1.bmp\",\"nama:na\",\"Down\",\"38\",\"2\",\"16\",\"5\",\"S\",\"J\",\"40\"
\"\",\"\",\"approach-retreat\",\"189\",\"1394990\",\"0.0-189.0\",\"\",\"\",\"2-1\",\"7074\",\"39\",\"1\",\"Testing\",\"Stims/Figures/85-C-20-2.bmp\",\"papa:ta\",\"Right\",\"39\",\"2\",\"17\",\"5\",\"P\",\"J\",\"41\"
\"\",\"\",\"approach-retreat\",\"190\",\"1402679\",\"0.0-190.0\",\"\",\"\",\"2-1\",\"6183\",\"38\",\"0\",\"Testing\",\"Stims/Figures/87-C-20-4.bmp\",\"papata\",\"Down\",\"40\",\"2\",\"18\",\"5\",\"P\",\"J\",\"42\"
\"\",\"\",\"approach-retreat\",\"191\",\"1409138\",\"0.0-191.0\",\"\",\"\",\"2-1\",\"4952\",\"40\",\"0\",\"Testing\",\"Stims/Figures/7-J-10-4.bmp\",\"malana\",\"Down\",\"38\",\"2\",\"19\",\"5\",\"S\",\"J\",\"43\"
\"\",\"\",\"approach-retreat\",\"192\",\"1414766\",\"0.0-192.0\",\"\",\"\",\"2-1\",\"4123\",\"40\",\"0\",\"Testing\",\"Stims/Figures/19-C-20-4.bmp\",\"ta:ka:ta\",\"Up\",\"38\",\"2\",\"20\",\"5\",\"P\",\"J\",\"44\"
\"\",\"\",\"approach-retreat\",\"193\",\"1420480\",\"0.0-193.0\",\"\",\"\",\"2-1\",\"4207\",\"38\",\"0\",\"Testing\",\"Stims/Figures/87-J-10-4.bmp\",\"mama:la\",\"Up\",\"40\",\"2\",\"21\",\"5\",\"S\",\"J\",\"45\"
\"\",\"\",\"approach-retreat\",\"194\",\"1426525\",\"0.0-194.0\",\"\",\"\",\"2-1\",\"4538\",\"37\",\"1\",\"Testing\",\"Stims/Figures/71-C-30-1.bmp\",\"ta:pa:ta\",\"Left\",\"37\",\"2\",\"22\",\"5\",\"P\",\"J\",\"46\"
\"\",\"\",\"approach-retreat\",\"195\",\"1432294\",\"0.0-195.0\",\"\",\"\",\"2-1\",\"4263\",\"37\",\"0\",\"Testing\",\"Stims/Figures/27-J-0-1.bmp\",\"nalana\",\"Left\",\"39\",\"2\",\"23\",\"5\",\"S\",\"J\",\"47\"
\"\",\"\",\"approach-retreat\",\"196\",\"1439091\",\"0.0-196.0\",\"\",\"\",\"2-1\",\"5291\",\"40\",\"1\",\"Testing\",\"Stims/Figures/144-J-10-3.bmp\",\"malala\",\"Up\",\"40\",\"2\",\"24\",\"5\",\"S\",\"J\",\"48\"
\"\",\"\",\"approach-retreat\",\"197\",\"1445468\",\"0.0-197.0\",\"\",\"\",\"2-1\",\"4871\",\"39\",\"1\",\"Testing\",\"Stims/Figures/144-C-30-3.bmp\",\"takaka\",\"Right\",\"39\",\"3\",\"1\",\"5\",\"P\",\"J\",\"49\"
\"\",\"\",\"approach-retreat\",\"198\",\"1454726\",\"0.0-198.0\",\"\",\"\",\"2-1\",\"7750\",\"37\",\"0\",\"Testing\",\"Stims/Figures/19-C-20-4.bmp\",\"ta:ka:ta\",\"Right\",\"39\",\"3\",\"2\",\"5\",\"P\",\"J\",\"50\"
\"\",\"\",\"approach-retreat\",\"199\",\"1460741\",\"0.0-199.0\",\"\",\"\",\"2-1\",\"4508\",\"39\",\"1\",\"Testing\",\"Stims/Figures/27-J-0-1.bmp\",\"nalana\",\"Left\",\"39\",\"3\",\"3\",\"5\",\"S\",\"J\",\"51\"
\"\",\"\",\"approach-retreat\",\"200\",\"1467181\",\"0.0-200.0\",\"\",\"\",\"2-1\",\"4934\",\"39\",\"1\",\"Testing\",\"Stims/Figures/111-J-10-3.bmp\",\"nala:na\",\"Left\",\"39\",\"3\",\"4\",\"5\",\"S\",\"J\",\"52\"
\"\",\"\",\"approach-retreat\",\"201\",\"1473889\",\"0.0-201.0\",\"\",\"\",\"2-1\",\"5203\",\"37\",\"1\",\"Testing\",\"Stims/Figures/85-J-0-2.bmp\",\"na:lala\",\"Right\",\"37\",\"3\",\"5\",\"5\",\"S\",\"J\",\"53\"
\"\",\"\",\"approach-retreat\",\"202\",\"1480953\",\"0.0-202.0\",\"\",\"\",\"2-1\",\"5557\",\"37\",\"0\",\"Testing\",\"Stims/Figures/19-J-10-4.bmp\",\"na:mana\",\"Left\",\"39\",\"3\",\"6\",\"5\",\"S\",\"J\",\"54\"
\"\",\"\",\"approach-retreat\",\"203\",\"1486995\",\"0.0-203.0\",\"\",\"\",\"2-1\",\"4534\",\"40\",\"0\",\"Testing\",\"Stims/Figures/44-J-10-3.bmp\",\"ma:la:la\",\"Down\",\"38\",\"3\",\"7\",\"5\",\"S\",\"J\",\"55\"
\"\",\"\",\"approach-retreat\",\"204\",\"1492514\",\"0.0-204.0\",\"\",\"\",\"2-1\",\"4014\",\"40\",\"1\",\"Testing\",\"Stims/Figures/84-J-0-2.bmp\",\"ma:mana\",\"Up\",\"40\",\"3\",\"8\",\"5\",\"S\",\"J\",\"56\"
\"\",\"\",\"approach-retreat\",\"205\",\"1498183\",\"0.0-205.0\",\"\",\"\",\"2-1\",\"4163\",\"40\",\"0\",\"Testing\",\"Stims/Figures/87-J-10-4.bmp\",\"mama:la\",\"Down\",\"38\",\"3\",\"9\",\"5\",\"S\",\"J\",\"57\"
\"\",\"\",\"approach-retreat\",\"206\",\"1504327\",\"0.0-206.0\",\"\",\"\",\"2-1\",\"4637\",\"39\",\"0\",\"Testing\",\"Stims/Figures/111-C-30-3.bmp\",\"tapa:ta\",\"Left\",\"37\",\"3\",\"10\",\"5\",\"P\",\"J\",\"58\"
\"\",\"\",\"approach-retreat\",\"207\",\"1512801\",\"0.0-207.0\",\"\",\"\",\"2-1\",\"6969\",\"39\",\"0\",\"Testing\",\"Stims/Figures/7-J-10-4.bmp\",\"malana\",\"Right\",\"37\",\"3\",\"11\",\"5\",\"S\",\"J\",\"59\"
\"\",\"\",\"approach-retreat\",\"208\",\"1519552\",\"0.0-208.0\",\"\",\"\",\"2-1\",\"5246\",\"40\",\"0\",\"Testing\",\"Stims/Figures/71-J-0-1.bmp\",\"nama:na\",\"Down\",\"38\",\"3\",\"12\",\"5\",\"S\",\"J\",\"60\"
\"\",\"\",\"approach-retreat\",\"209\",\"1526288\",\"0.0-209.0\",\"\",\"\",\"2-1\",\"5229\",\"37\",\"0\",\"Testing\",\"Stims/Figures/57-C-30-1.bmp\",\"tapaka\",\"Right\",\"39\",\"3\",\"13\",\"5\",\"P\",\"J\",\"61\"
\"\",\"\",\"approach-retreat\",\"210\",\"1532179\",\"0.0-210.0\",\"\",\"\",\"2-1\",\"4384\",\"40\",\"1\",\"Testing\",\"Stims/Figures/44-C-30-3.bmp\",\"taka:ta\",\"Down\",\"40\",\"3\",\"14\",\"5\",\"P\",\"J\",\"62\"
\"\",\"\",\"approach-retreat\",\"211\",\"1537769\",\"0.0-211.0\",\"\",\"\",\"2-1\",\"4083\",\"37\",\"1\",\"Testing\",\"Stims/Figures/85-C-20-2.bmp\",\"papa:ta\",\"Left\",\"37\",\"3\",\"15\",\"5\",\"P\",\"J\",\"63\"
\"\",\"\",\"approach-retreat\",\"212\",\"1544954\",\"0.0-212.0\",\"\",\"\",\"2-1\",\"5679\",\"40\",\"0\",\"Testing\",\"Stims/Figures/87-C-20-4.bmp\",\"papata\",\"Up\",\"38\",\"3\",\"16\",\"5\",\"P\",\"J\",\"64\"
\"\",\"\",\"approach-retreat\",\"213\",\"1551237\",\"0.0-213.0\",\"\",\"\",\"2-1\",\"4777\",\"38\",\"1\",\"Testing\",\"Stims/Figures/7-C-20-4.bmp\",\"pa:pata\",\"Up\",\"38\",\"3\",\"17\",\"5\",\"P\",\"J\",\"65\"
\"\",\"\",\"approach-retreat\",\"214\",\"1557466\",\"0.0-214.0\",\"\",\"\",\"2-1\",\"4722\",\"37\",\"1\",\"Testing\",\"Stims/Figures/71-C-30-1.bmp\",\"ta:pa:ta\",\"Left\",\"37\",\"3\",\"18\",\"5\",\"P\",\"J\",\"66\"
\"\",\"\",\"approach-retreat\",\"215\",\"1563516\",\"0.0-215.0\",\"\",\"\",\"2-1\",\"4544\",\"39\",\"0\",\"Testing\",\"Stims/Figures/139-J-0-2.bmp\",\"na:ma:na\",\"Right\",\"37\",\"3\",\"19\",\"5\",\"S\",\"J\",\"67\"
\"\",\"\",\"approach-retreat\",\"216\",\"1570569\",\"0.0-216.0\",\"\",\"\",\"2-1\",\"5548\",\"38\",\"1\",\"Testing\",\"Stims/Figures/139-C-20-2.bmp\",\"pa:kaka\",\"Up\",\"38\",\"3\",\"20\",\"5\",\"P\",\"J\",\"68\"
\"\",\"\",\"approach-retreat\",\"217\",\"1576742\",\"0.0-217.0\",\"\",\"\",\"2-1\",\"4666\",\"40\",\"0\",\"Testing\",\"Stims/Figures/57-J-0-1.bmp\",\"namala\",\"Down\",\"38\",\"3\",\"21\",\"5\",\"S\",\"J\",\"69\"
\"\",\"\",\"approach-retreat\",\"218\",\"1582990\",\"0.0-218.0\",\"\",\"\",\"2-1\",\"4742\",\"40\",\"0\",\"Testing\",\"Stims/Figures/27-C-30-1.bmp\",\"pa:pa:ka\",\"Up\",\"38\",\"3\",\"22\",\"5\",\"P\",\"J\",\"70\"
\"\",\"\",\"approach-retreat\",\"219\",\"1589006\",\"0.0-219.0\",\"\",\"\",\"2-1\",\"4506\",\"38\",\"0\",\"Testing\",\"Stims/Figures/84-C-20-2.bmp\",\"pa:kata\",\"Down\",\"40\",\"3\",\"23\",\"5\",\"P\",\"J\",\"71\"
\"\",\"\",\"approach-retreat\",\"220\",\"1595098\",\"0.0-220.0\",\"\",\"\",\"2-1\",\"4586\",\"40\",\"1\",\"Testing\",\"Stims/Figures/144-J-10-3.bmp\",\"malala\",\"Up\",\"40\",\"3\",\"24\",\"5\",\"S\",\"J\",\"72\"
\"\",\"\",\"approach-retreat\",\"221\",\"1601293\",\"0.0-221.0\",\"\",\"\",\"2-1\",\"4690\",\"37\",\"0\",\"Testing\",\"Stims/Figures/139-J-0-2.bmp\",\"na:ma:na\",\"Left\",\"39\",\"4\",\"1\",\"5\",\"S\",\"J\",\"73\"
\"\",\"\",\"approach-retreat\",\"222\",\"1608694\",\"0.0-222.0\",\"\",\"\",\"2-1\",\"5893\",\"40\",\"0\",\"Testing\",\"Stims/Figures/57-J-0-1.bmp\",\"namala\",\"Down\",\"38\",\"4\",\"2\",\"5\",\"S\",\"J\",\"74\"
\"\",\"\",\"approach-retreat\",\"223\",\"1614369\",\"0.0-223.0\",\"\",\"\",\"2-1\",\"4170\",\"40\",\"1\",\"Testing\",\"Stims/Figures/71-J-0-1.bmp\",\"nama:na\",\"Up\",\"40\",\"4\",\"3\",\"5\",\"S\",\"J\",\"75\"
\"\",\"\",\"approach-retreat\",\"224\",\"1622002\",\"0.0-224.0\",\"\",\"\",\"2-1\",\"6127\",\"39\",\"1\",\"Testing\",\"Stims/Figures/144-C-30-3.bmp\",\"takaka\",\"Right\",\"39\",\"4\",\"4\",\"5\",\"P\",\"J\",\"76\"
\"\",\"\",\"approach-retreat\",\"225\",\"1628598\",\"0.0-225.0\",\"\",\"\",\"2-1\",\"5089\",\"40\",\"1\",\"Testing\",\"Stims/Figures/44-C-30-3.bmp\",\"taka:ta\",\"Down\",\"40\",\"4\",\"5\",\"5\",\"P\",\"J\",\"77\"
\"\",\"\",\"approach-retreat\",\"226\",\"1635108\",\"0.0-226.0\",\"\",\"\",\"2-1\",\"5004\",\"40\",\"0\",\"Testing\",\"Stims/Figures/84-C-20-2.bmp\",\"pa:kata\",\"Up\",\"38\",\"4\",\"6\",\"5\",\"P\",\"J\",\"78\"
\"\",\"\",\"approach-retreat\",\"227\",\"1642979\",\"0.0-227.0\",\"\",\"\",\"2-1\",\"6365\",\"40\",\"0\",\"Testing\",\"Stims/Figures/87-C-20-4.bmp\",\"papata\",\"Up\",\"38\",\"4\",\"7\",\"5\",\"P\",\"J\",\"79\"
\"\",\"\",\"approach-retreat\",\"228\",\"1649064\",\"0.0-228.0\",\"\",\"\",\"2-1\",\"4579\",\"37\",\"0\",\"Testing\",\"Stims/Figures/85-J-0-2.bmp\",\"na:lala\",\"Left\",\"39\",\"4\",\"8\",\"5\",\"S\",\"J\",\"80\"
\"\",\"\",\"approach-retreat\",\"229\",\"1655105\",\"0.0-229.0\",\"\",\"\",\"2-1\",\"4534\",\"37\",\"1\",\"Testing\",\"Stims/Figures/139-C-20-2.bmp\",\"pa:kaka\",\"Left\",\"37\",\"4\",\"9\",\"5\",\"P\",\"J\",\"81\"
\"\",\"\",\"approach-retreat\",\"230\",\"1661108\",\"0.0-230.0\",\"\",\"\",\"2-1\",\"4496\",\"40\",\"0\",\"Testing\",\"Stims/Figures/71-C-30-1.bmp\",\"ta:pa:ta\",\"Up\",\"38\",\"4\",\"10\",\"5\",\"P\",\"J\",\"82\"
\"\",\"\",\"approach-retreat\",\"231\",\"1670627\",\"0.0-231.0\",\"\",\"\",\"2-1\",\"8014\",\"39\",\"0\",\"Testing\",\"Stims/Figures/19-J-10-4.bmp\",\"na:mana\",\"Right\",\"37\",\"4\",\"11\",\"5\",\"S\",\"J\",\"83\"
\"\",\"\",\"approach-retreat\",\"232\",\"1676235\",\"0.0-232.0\",\"\",\"\",\"2-1\",\"4102\",\"40\",\"0\",\"Testing\",\"Stims/Figures/7-C-20-4.bmp\",\"pa:pata\",\"Up\",\"38\",\"4\",\"12\",\"5\",\"P\",\"J\",\"84\"
\"\",\"\",\"approach-retreat\",\"233\",\"1685077\",\"0.0-233.0\",\"\",\"\",\"2-1\",\"7336\",\"37\",\"1\",\"Testing\",\"Stims/Figures/27-J-0-1.bmp\",\"nalana\",\"Right\",\"37\",\"4\",\"13\",\"5\",\"S\",\"J\",\"85\"
\"\",\"\",\"approach-retreat\",\"234\",\"1690495\",\"0.0-234.0\",\"\",\"\",\"2-1\",\"3910\",\"39\",\"0\",\"Testing\",\"Stims/Figures/85-C-20-2.bmp\",\"papa:ta\",\"Left\",\"37\",\"4\",\"14\",\"5\",\"P\",\"J\",\"86\"
\"\",\"\",\"approach-retreat\",\"235\",\"1696844\",\"0.0-235.0\",\"\",\"\",\"2-1\",\"4843\",\"37\",\"0\",\"Testing\",\"Stims/Figures/27-C-30-1.bmp\",\"pa:pa:ka\",\"Right\",\"39\",\"4\",\"15\",\"5\",\"P\",\"J\",\"87\"
\"\",\"\",\"approach-retreat\",\"236\",\"1702662\",\"0.0-236.0\",\"\",\"\",\"2-1\",\"4312\",\"40\",\"0\",\"Testing\",\"Stims/Figures/111-C-30-3.bmp\",\"tapa:ta\",\"Up\",\"38\",\"4\",\"16\",\"5\",\"P\",\"J\",\"88\"
\"\",\"\",\"approach-retreat\",\"237\",\"1709675\",\"0.0-237.0\",\"\",\"\",\"2-1\",\"5508\",\"38\",\"0\",\"Testing\",\"Stims/Figures/19-C-20-4.bmp\",\"ta:ka:ta\",\"Down\",\"40\",\"4\",\"17\",\"5\",\"P\",\"J\",\"89\"
\"\",\"\",\"approach-retreat\",\"238\",\"1716014\",\"0.0-238.0\",\"\",\"\",\"2-1\",\"4833\",\"40\",\"0\",\"Testing\",\"Stims/Figures/111-J-10-3.bmp\",\"nala:na\",\"Down\",\"38\",\"4\",\"18\",\"5\",\"S\",\"J\",\"90\"
\"\",\"\",\"approach-retreat\",\"239\",\"1722159\",\"0.0-239.0\",\"\",\"\",\"2-1\",\"4640\",\"39\",\"1\",\"Testing\",\"Stims/Figures/144-J-10-3.bmp\",\"malala\",\"Left\",\"39\",\"4\",\"19\",\"5\",\"S\",\"J\",\"91\"
\"\",\"\",\"approach-retreat\",\"240\",\"1728820\",\"0.0-240.0\",\"\",\"\",\"2-1\",\"5155\",\"37\",\"1\",\"Testing\",\"Stims/Figures/84-J-0-2.bmp\",\"ma:mana\",\"Right\",\"37\",\"4\",\"20\",\"5\",\"S\",\"J\",\"92\"
\"\",\"\",\"approach-retreat\",\"241\",\"1735272\",\"0.0-241.0\",\"\",\"\",\"2-1\",\"4946\",\"37\",\"0\",\"Testing\",\"Stims/Figures/7-J-10-4.bmp\",\"malana\",\"Left\",\"39\",\"4\",\"21\",\"5\",\"S\",\"J\",\"93\"
\"\",\"\",\"approach-retreat\",\"242\",\"1742339\",\"0.0-242.0\",\"\",\"\",\"2-1\",\"5560\",\"40\",\"0\",\"Testing\",\"Stims/Figures/87-J-10-4.bmp\",\"mama:la\",\"Down\",\"38\",\"4\",\"22\",\"5\",\"S\",\"J\",\"94\"
\"\",\"\",\"approach-retreat\",\"243\",\"1748503\",\"0.0-243.0\",\"\",\"\",\"2-1\",\"4657\",\"39\",\"0\",\"Testing\",\"Stims/Figures/44-J-10-3.bmp\",\"ma:la:la\",\"Right\",\"37\",\"4\",\"23\",\"5\",\"S\",\"J\",\"95\"
\"\",\"\",\"approach-retreat\",\"244\",\"1755378\",\"0.0-244.0\",\"\",\"\",\"2-1\",\"5368\",\"40\",\"1\",\"Testing\",\"Stims/Figures/57-C-30-1.bmp\",\"tapaka\",\"Down\",\"40\",\"4\",\"24\",\"5\",\"P\",\"J\",\"96\"
\"21197\",\"\",\"survey-text\",\"245\",\"1776581\",\"0.0-245.0\",\"\",\"{\"\"Q0\"\":\"\"PS170048\"\"}\",\"\",\"\",\"\",\"\",\"\",\"\",\"\",\"\",\"\",\"\",\"\",\"\",\"\",\"\",\"\"
