\"rt\",\"key_press\",\"trial_type\",\"trial_index\",\"time_elapsed\",\"internal_node_id\",\"view_history\",\"responses\",\"Id\",\"Rt\",\"ResKeyCode\",\"ResCorr\",\"TrialType2\",\"Image\",\"Label\",\"Location\",\"CorrectResponse\",\"Block\",\"BlockTrial\",\"Condition\",\"LabelType\",\"Subcondition\",\"trialNum\"
\"268862\",\"32\",\"text\",\"0\",\"268867\",\"0.0-0.0-0.0\",\"\",\"\",\"\",\"\",\"\",\"\",\"\",\"\",\"\",\"\",\"\",\"\",\"\",\"\",\"\",\"\",\"\"
\"101014\",\"\",\"instructions\",\"1\",\"369884\",\"0.0-1.0\",\"[{\"\"page_index\"\":0,\"\"viewing_time\"\":101014}]\",\"\",\"\",\"\",\"\",\"\",\"\",\"\",\"\",\"\",\"\",\"\",\"\",\"\",\"\",\"\",\"\"
\"22059\",\"\",\"survey-multi-choice\",\"2\",\"392081\",\"0.0-2.0\",\"\",\"{\"\"Q0\"\":\"\"Da\"\",\"\"Q1\"\":\"\"Da\"\",\"\"Q2\"\":\"\"Da\"\",\"\"Q3\"\":\"\"Da\"\",\"\"Q4\"\":\"\"Da\"\",\"\"Q5\"\":\"\"Da\"\"}\",\"\",\"\",\"\",\"\",\"\",\"\",\"\",\"\",\"\",\"\",\"\",\"\",\"\",\"\",\"\"
\"\",\"\",\"bio\",\"3\",\"418809\",\"0.0-3.0\",\"\",\"{\"\"age\"\":\"\"21\"\",\"\"gender\"\":\"\"f\"\",\"\"specify\"\":\"\"\"\"}\",\"\",\"\",\"\",\"\",\"\",\"\",\"\",\"\",\"\",\"\",\"\",\"\",\"\",\"\",\"\"
\"\",\"\",\"approach-retreat\",\"4\",\"432154\",\"0.0-4.0\",\"\",\"\",\"2-2\",\"11668\",\"38\",\"1\",\"Training\",\"Stims/Figures/111-C-30-3.bmp\",\"pa:ka:ka\",\"Up\",\"38\",\"1\",\"1\",\"9\",\"P\",\"J\",\"1\"
\"\",\"\",\"approach-retreat\",\"5\",\"442547\",\"0.0-5.0\",\"\",\"\",\"2-2\",\"8799\",\"38\",\"1\",\"Training\",\"Stims/Figures/118-J-0-2.bmp\",\"zasaza\",\"Down\",\"38\",\"1\",\"2\",\"9\",\"C2\",\"J\",\"2\"
\"\",\"\",\"approach-retreat\",\"6\",\"452384\",\"0.0-6.0\",\"\",\"\",\"2-2\",\"8227\",\"39\",\"1\",\"Training\",\"Stims/Figures/87-C-20-4.bmp\",\"vashava\",\"Right\",\"39\",\"1\",\"3\",\"9\",\"C1\",\"J\",\"3\"
\"\",\"\",\"approach-retreat\",\"7\",\"461757\",\"0.0-7.0\",\"\",\"\",\"2-2\",\"7781\",\"37\",\"1\",\"Training\",\"Stims/Figures/139-C-20-2.bmp\",\"fafava\",\"Left\",\"37\",\"1\",\"4\",\"9\",\"C1\",\"J\",\"4\"
\"\",\"\",\"approach-retreat\",\"8\",\"469180\",\"0.0-8.0\",\"\",\"\",\"2-2\",\"5873\",\"37\",\"1\",\"Training\",\"Stims/Figures/118-C-20-2.bmp\",\"zaha:za\",\"Left\",\"37\",\"1\",\"5\",\"9\",\"C2\",\"J\",\"5\"
\"\",\"\",\"approach-retreat\",\"9\",\"475648\",\"0.0-9.0\",\"\",\"\",\"2-2\",\"4939\",\"37\",\"0\",\"Training\",\"Stims/Figures/71-C-30-1.bmp\",\"pakata\",\"Right\",\"39\",\"1\",\"6\",\"9\",\"P\",\"J\",\"6\"
\"\",\"\",\"approach-retreat\",\"10\",\"482933\",\"0.0-10.0\",\"\",\"\",\"2-2\",\"5640\",\"39\",\"1\",\"Training\",\"Stims/Figures/144-C-30-3.bmp\",\"fasha:sha\",\"Right\",\"39\",\"1\",\"7\",\"9\",\"C1\",\"J\",\"7\"
\"\",\"\",\"approach-retreat\",\"11\",\"489542\",\"0.0-11.0\",\"\",\"\",\"2-2\",\"5079\",\"37\",\"0\",\"Training\",\"Stims/Figures/102-J-10-4.bmp\",\"nalala\",\"Left\",\"39\",\"1\",\"8\",\"9\",\"S\",\"J\",\"8\"
\"\",\"\",\"approach-retreat\",\"12\",\"496161\",\"0.0-12.0\",\"\",\"\",\"2-2\",\"5058\",\"39\",\"0\",\"Training\",\"Stims/Figures/144-J-10-3.bmp\",\"za:haha\",\"Right\",\"37\",\"1\",\"9\",\"9\",\"C2\",\"J\",\"9\"
\"\",\"\",\"approach-retreat\",\"13\",\"502115\",\"0.0-13.0\",\"\",\"\",\"2-2\",\"4395\",\"40\",\"0\",\"Training\",\"Stims/Figures/111-J-10-3.bmp\",\"na:la:na\",\"Down\",\"38\",\"1\",\"10\",\"9\",\"S\",\"J\",\"10\"
\"\",\"\",\"approach-retreat\",\"14\",\"508595\",\"0.0-14.0\",\"\",\"\",\"2-2\",\"4926\",\"40\",\"0\",\"Training\",\"Stims/Figures/93-J-0-1.bmp\",\"zahaha\",\"Down\",\"38\",\"1\",\"11\",\"9\",\"C2\",\"J\",\"11\"
\"\",\"\",\"approach-retreat\",\"15\",\"515873\",\"0.0-15.0\",\"\",\"\",\"2-2\",\"5738\",\"40\",\"0\",\"Training\",\"Stims/Figures/93-C-30-1.bmp\",\"pa:ka:ta\",\"Up\",\"38\",\"1\",\"12\",\"9\",\"P\",\"J\",\"12\"
\"\",\"\",\"approach-retreat\",\"16\",\"529337\",\"0.0-16.0\",\"\",\"\",\"2-2\",\"11952\",\"40\",\"1\",\"Training\",\"Stims/Figures/139-J-0-2.bmp\",\"va:fa:sha\",\"Up\",\"40\",\"1\",\"13\",\"9\",\"C1\",\"J\",\"13\"
\"\",\"\",\"approach-retreat\",\"17\",\"539122\",\"0.0-17.0\",\"\",\"\",\"2-2\",\"8263\",\"40\",\"1\",\"Training\",\"Stims/Figures/87-J-10-4.bmp\",\"ta:ka:ta\",\"Up\",\"40\",\"1\",\"14\",\"9\",\"P\",\"J\",\"14\"
\"\",\"\",\"approach-retreat\",\"18\",\"546429\",\"0.0-18.0\",\"\",\"\",\"2-2\",\"5789\",\"37\",\"1\",\"Training\",\"Stims/Figures/102-C-20-4.bmp\",\"fa:sha:va\",\"Left\",\"37\",\"1\",\"15\",\"9\",\"C1\",\"J\",\"15\"
\"\",\"\",\"approach-retreat\",\"19\",\"552408\",\"0.0-19.0\",\"\",\"\",\"2-2\",\"4452\",\"38\",\"1\",\"Training\",\"Stims/Figures/71-J-0-1.bmp\",\"vafa:sha\",\"Down\",\"38\",\"1\",\"16\",\"9\",\"C1\",\"J\",\"16\"
\"\",\"\",\"approach-retreat\",\"20\",\"558562\",\"0.0-20.0\",\"\",\"\",\"2-2\",\"4626\",\"40\",\"0\",\"Training\",\"Stims/Figures/93-C-30-1.bmp\",\"pa:ka:ta\",\"Up\",\"38\",\"2\",\"1\",\"9\",\"P\",\"J\",\"17\"
\"\",\"\",\"approach-retreat\",\"21\",\"564988\",\"0.0-21.0\",\"\",\"\",\"2-2\",\"4901\",\"40\",\"1\",\"Training\",\"Stims/Figures/87-C-20-4.bmp\",\"vashava\",\"Down\",\"40\",\"2\",\"2\",\"9\",\"C1\",\"J\",\"18\"
\"\",\"\",\"approach-retreat\",\"22\",\"570974\",\"0.0-22.0\",\"\",\"\",\"2-2\",\"4462\",\"37\",\"1\",\"Training\",\"Stims/Figures/139-C-20-2.bmp\",\"fafava\",\"Left\",\"37\",\"2\",\"3\",\"9\",\"C1\",\"J\",\"19\"
\"\",\"\",\"approach-retreat\",\"23\",\"577763\",\"0.0-23.0\",\"\",\"\",\"2-2\",\"5277\",\"39\",\"1\",\"Training\",\"Stims/Figures/102-C-20-4.bmp\",\"fa:sha:va\",\"Right\",\"39\",\"2\",\"4\",\"9\",\"C1\",\"J\",\"20\"
\"\",\"\",\"approach-retreat\",\"24\",\"586335\",\"0.0-24.0\",\"\",\"\",\"2-2\",\"7043\",\"38\",\"0\",\"Training\",\"Stims/Figures/144-J-10-3.bmp\",\"za:haha\",\"Up\",\"40\",\"2\",\"5\",\"9\",\"C2\",\"J\",\"21\"
\"\",\"\",\"approach-retreat\",\"25\",\"592604\",\"0.0-25.0\",\"\",\"\",\"2-2\",\"4742\",\"39\",\"0\",\"Training\",\"Stims/Figures/139-J-0-2.bmp\",\"va:fa:sha\",\"Right\",\"37\",\"2\",\"6\",\"9\",\"C1\",\"J\",\"22\"
\"\",\"\",\"approach-retreat\",\"26\",\"601624\",\"0.0-26.0\",\"\",\"\",\"2-2\",\"7496\",\"37\",\"1\",\"Training\",\"Stims/Figures/144-C-30-3.bmp\",\"fasha:sha\",\"Left\",\"37\",\"2\",\"7\",\"9\",\"C1\",\"J\",\"23\"
\"\",\"\",\"approach-retreat\",\"27\",\"607572\",\"0.0-27.0\",\"\",\"\",\"2-2\",\"4422\",\"40\",\"1\",\"Training\",\"Stims/Figures/111-C-30-3.bmp\",\"pa:ka:ka\",\"Down\",\"40\",\"2\",\"8\",\"9\",\"P\",\"J\",\"24\"
\"\",\"\",\"approach-retreat\",\"28\",\"613530\",\"0.0-28.0\",\"\",\"\",\"2-2\",\"4433\",\"40\",\"0\",\"Training\",\"Stims/Figures/93-J-0-1.bmp\",\"zahaha\",\"Down\",\"38\",\"2\",\"9\",\"9\",\"C2\",\"J\",\"25\"
\"\",\"\",\"approach-retreat\",\"29\",\"619222\",\"0.0-29.0\",\"\",\"\",\"2-2\",\"4162\",\"38\",\"1\",\"Training\",\"Stims/Figures/118-J-0-2.bmp\",\"zasaza\",\"Down\",\"38\",\"2\",\"10\",\"9\",\"C2\",\"J\",\"26\"
\"\",\"\",\"approach-retreat\",\"30\",\"624974\",\"0.0-30.0\",\"\",\"\",\"2-2\",\"4228\",\"37\",\"0\",\"Training\",\"Stims/Figures/87-J-10-4.bmp\",\"ta:ka:ta\",\"Left\",\"39\",\"2\",\"11\",\"9\",\"P\",\"J\",\"27\"
\"\",\"\",\"approach-retreat\",\"31\",\"630873\",\"0.0-31.0\",\"\",\"\",\"2-2\",\"4381\",\"38\",\"1\",\"Training\",\"Stims/Figures/118-C-20-2.bmp\",\"zaha:za\",\"Up\",\"38\",\"2\",\"12\",\"9\",\"C2\",\"J\",\"28\"
\"\",\"\",\"approach-retreat\",\"32\",\"637804\",\"0.0-32.0\",\"\",\"\",\"2-2\",\"5405\",\"38\",\"1\",\"Training\",\"Stims/Figures/71-C-30-1.bmp\",\"pakata\",\"Up\",\"38\",\"2\",\"13\",\"9\",\"P\",\"J\",\"29\"
\"\",\"\",\"approach-retreat\",\"33\",\"644075\",\"0.0-33.0\",\"\",\"\",\"2-2\",\"4747\",\"37\",\"0\",\"Training\",\"Stims/Figures/111-J-10-3.bmp\",\"na:la:na\",\"Left\",\"39\",\"2\",\"14\",\"9\",\"S\",\"J\",\"30\"
\"\",\"\",\"approach-retreat\",\"34\",\"651438\",\"0.0-34.0\",\"\",\"\",\"2-2\",\"5846\",\"37\",\"1\",\"Training\",\"Stims/Figures/102-J-10-4.bmp\",\"nalala\",\"Right\",\"37\",\"2\",\"15\",\"9\",\"S\",\"J\",\"31\"
\"\",\"\",\"approach-retreat\",\"35\",\"660454\",\"0.0-35.0\",\"\",\"\",\"2-2\",\"7486\",\"37\",\"1\",\"Training\",\"Stims/Figures/71-J-0-1.bmp\",\"vafa:sha\",\"Right\",\"37\",\"2\",\"16\",\"9\",\"C1\",\"J\",\"32\"
\"\",\"\",\"approach-retreat\",\"36\",\"667104\",\"0.0-36.0\",\"\",\"\",\"2-2\",\"5133\",\"38\",\"1\",\"Training\",\"Stims/Figures/144-C-30-3.bmp\",\"fasha:sha\",\"Up\",\"38\",\"3\",\"1\",\"9\",\"C1\",\"J\",\"33\"
\"\",\"\",\"approach-retreat\",\"37\",\"674787\",\"0.0-37.0\",\"\",\"\",\"2-2\",\"6139\",\"39\",\"1\",\"Training\",\"Stims/Figures/118-J-0-2.bmp\",\"zasaza\",\"Left\",\"39\",\"3\",\"2\",\"9\",\"C2\",\"J\",\"34\"
\"\",\"\",\"approach-retreat\",\"38\",\"682548\",\"0.0-38.0\",\"\",\"\",\"2-2\",\"6229\",\"39\",\"0\",\"Training\",\"Stims/Figures/71-J-0-1.bmp\",\"vafa:sha\",\"Right\",\"37\",\"3\",\"3\",\"9\",\"C1\",\"J\",\"35\"
\"\",\"\",\"approach-retreat\",\"39\",\"689475\",\"0.0-39.0\",\"\",\"\",\"2-2\",\"5389\",\"38\",\"1\",\"Training\",\"Stims/Figures/93-J-0-1.bmp\",\"zahaha\",\"Down\",\"38\",\"3\",\"4\",\"9\",\"C2\",\"J\",\"36\"
\"\",\"\",\"approach-retreat\",\"40\",\"695384\",\"0.0-40.0\",\"\",\"\",\"2-2\",\"4376\",\"40\",\"1\",\"Training\",\"Stims/Figures/111-C-30-3.bmp\",\"pa:ka:ka\",\"Down\",\"40\",\"3\",\"5\",\"9\",\"P\",\"J\",\"37\"
\"\",\"\",\"approach-retreat\",\"41\",\"704219\",\"0.0-41.0\",\"\",\"\",\"2-2\",\"7282\",\"38\",\"1\",\"Training\",\"Stims/Figures/144-J-10-3.bmp\",\"za:haha\",\"Down\",\"38\",\"3\",\"6\",\"9\",\"C2\",\"J\",\"38\"
\"\",\"\",\"approach-retreat\",\"42\",\"710438\",\"0.0-42.0\",\"\",\"\",\"2-2\",\"4701\",\"38\",\"0\",\"Training\",\"Stims/Figures/111-J-10-3.bmp\",\"na:la:na\",\"Up\",\"40\",\"3\",\"7\",\"9\",\"S\",\"J\",\"39\"
\"\",\"\",\"approach-retreat\",\"43\",\"717570\",\"0.0-43.0\",\"\",\"\",\"2-2\",\"5608\",\"40\",\"0\",\"Training\",\"Stims/Figures/71-C-30-1.bmp\",\"pakata\",\"Up\",\"38\",\"3\",\"8\",\"9\",\"P\",\"J\",\"40\"
\"\",\"\",\"approach-retreat\",\"44\",\"727237\",\"0.0-44.0\",\"\",\"\",\"2-2\",\"8140\",\"40\",\"0\",\"Training\",\"Stims/Figures/87-C-20-4.bmp\",\"vashava\",\"Up\",\"38\",\"3\",\"9\",\"9\",\"C1\",\"J\",\"41\"
\"\",\"\",\"approach-retreat\",\"45\",\"733051\",\"0.0-45.0\",\"\",\"\",\"2-2\",\"4307\",\"37\",\"0\",\"Training\",\"Stims/Figures/102-J-10-4.bmp\",\"nalala\",\"Left\",\"39\",\"3\",\"10\",\"9\",\"S\",\"J\",\"42\"
\"\",\"\",\"approach-retreat\",\"46\",\"738987\",\"0.0-46.0\",\"\",\"\",\"2-2\",\"4422\",\"37\",\"1\",\"Training\",\"Stims/Figures/87-J-10-4.bmp\",\"ta:ka:ta\",\"Right\",\"37\",\"3\",\"11\",\"9\",\"P\",\"J\",\"43\"
\"\",\"\",\"approach-retreat\",\"47\",\"744789\",\"0.0-47.0\",\"\",\"\",\"2-2\",\"4280\",\"39\",\"1\",\"Training\",\"Stims/Figures/102-C-20-4.bmp\",\"fa:sha:va\",\"Right\",\"39\",\"3\",\"12\",\"9\",\"C1\",\"J\",\"44\"
\"\",\"\",\"approach-retreat\",\"48\",\"752318\",\"0.0-48.0\",\"\",\"\",\"2-2\",\"6012\",\"37\",\"1\",\"Training\",\"Stims/Figures/93-C-30-1.bmp\",\"pa:ka:ta\",\"Left\",\"37\",\"3\",\"13\",\"9\",\"P\",\"J\",\"45\"
\"\",\"\",\"approach-retreat\",\"49\",\"760717\",\"0.0-49.0\",\"\",\"\",\"2-2\",\"6873\",\"37\",\"0\",\"Training\",\"Stims/Figures/139-J-0-2.bmp\",\"va:fa:sha\",\"Left\",\"39\",\"3\",\"14\",\"9\",\"C1\",\"J\",\"46\"
\"\",\"\",\"approach-retreat\",\"50\",\"767478\",\"0.0-50.0\",\"\",\"\",\"2-2\",\"5234\",\"37\",\"0\",\"Training\",\"Stims/Figures/118-C-20-2.bmp\",\"zaha:za\",\"Right\",\"39\",\"3\",\"15\",\"9\",\"C2\",\"J\",\"47\"
\"\",\"\",\"approach-retreat\",\"51\",\"773393\",\"0.0-51.0\",\"\",\"\",\"2-2\",\"4388\",\"38\",\"0\",\"Training\",\"Stims/Figures/139-C-20-2.bmp\",\"fafava\",\"Down\",\"40\",\"3\",\"16\",\"9\",\"C1\",\"J\",\"48\"
\"\",\"\",\"approach-retreat\",\"52\",\"779299\",\"0.0-52.0\",\"\",\"\",\"2-2\",\"4396\",\"38\",\"1\",\"Training\",\"Stims/Figures/111-C-30-3.bmp\",\"pa:ka:ka\",\"Up\",\"38\",\"4\",\"1\",\"9\",\"P\",\"J\",\"49\"
\"\",\"\",\"approach-retreat\",\"53\",\"785717\",\"0.0-53.0\",\"\",\"\",\"2-2\",\"4901\",\"37\",\"0\",\"Training\",\"Stims/Figures/102-C-20-4.bmp\",\"fa:sha:va\",\"Right\",\"39\",\"4\",\"2\",\"9\",\"C1\",\"J\",\"50\"
\"\",\"\",\"approach-retreat\",\"54\",\"792033\",\"0.0-54.0\",\"\",\"\",\"2-2\",\"4804\",\"37\",\"1\",\"Training\",\"Stims/Figures/144-C-30-3.bmp\",\"fasha:sha\",\"Left\",\"37\",\"4\",\"3\",\"9\",\"C1\",\"J\",\"51\"
\"\",\"\",\"approach-retreat\",\"55\",\"797761\",\"0.0-55.0\",\"\",\"\",\"2-2\",\"4211\",\"37\",\"0\",\"Training\",\"Stims/Figures/93-C-30-1.bmp\",\"pa:ka:ta\",\"Right\",\"39\",\"4\",\"4\",\"9\",\"P\",\"J\",\"52\"
\"\",\"\",\"approach-retreat\",\"56\",\"804785\",\"0.0-56.0\",\"\",\"\",\"2-2\",\"5511\",\"39\",\"1\",\"Training\",\"Stims/Figures/87-J-10-4.bmp\",\"ta:ka:ta\",\"Left\",\"39\",\"4\",\"5\",\"9\",\"P\",\"J\",\"53\"
\"\",\"\",\"approach-retreat\",\"57\",\"811604\",\"0.0-57.0\",\"\",\"\",\"2-2\",\"5301\",\"37\",\"0\",\"Training\",\"Stims/Figures/87-C-20-4.bmp\",\"vashava\",\"Right\",\"39\",\"4\",\"6\",\"9\",\"C1\",\"J\",\"54\"
\"\",\"\",\"approach-retreat\",\"58\",\"819000\",\"0.0-58.0\",\"\",\"\",\"2-2\",\"5873\",\"40\",\"0\",\"Training\",\"Stims/Figures/71-J-0-1.bmp\",\"vafa:sha\",\"Down\",\"38\",\"4\",\"7\",\"9\",\"C1\",\"J\",\"55\"
\"\",\"\",\"approach-retreat\",\"59\",\"825049\",\"0.0-59.0\",\"\",\"\",\"2-2\",\"4534\",\"40\",\"0\",\"Training\",\"Stims/Figures/71-C-30-1.bmp\",\"pakata\",\"Up\",\"38\",\"4\",\"8\",\"9\",\"P\",\"J\",\"56\"
\"\",\"\",\"approach-retreat\",\"60\",\"831122\",\"0.0-60.0\",\"\",\"\",\"2-2\",\"4564\",\"39\",\"0\",\"Training\",\"Stims/Figures/139-C-20-2.bmp\",\"fafava\",\"Left\",\"37\",\"4\",\"9\",\"9\",\"C1\",\"J\",\"57\"
\"\",\"\",\"approach-retreat\",\"61\",\"837569\",\"0.0-61.0\",\"\",\"\",\"2-2\",\"4933\",\"40\",\"1\",\"Training\",\"Stims/Figures/111-J-10-3.bmp\",\"na:la:na\",\"Up\",\"40\",\"4\",\"10\",\"9\",\"S\",\"J\",\"58\"
\"\",\"\",\"approach-retreat\",\"62\",\"843337\",\"0.0-62.0\",\"\",\"\",\"2-2\",\"4254\",\"39\",\"0\",\"Training\",\"Stims/Figures/144-J-10-3.bmp\",\"za:haha\",\"Right\",\"37\",\"4\",\"11\",\"9\",\"C2\",\"J\",\"59\"
\"\",\"\",\"approach-retreat\",\"63\",\"849548\",\"0.0-63.0\",\"\",\"\",\"2-2\",\"4695\",\"39\",\"1\",\"Training\",\"Stims/Figures/118-J-0-2.bmp\",\"zasaza\",\"Left\",\"39\",\"4\",\"12\",\"9\",\"C2\",\"J\",\"60\"
\"\",\"\",\"approach-retreat\",\"64\",\"856878\",\"0.0-64.0\",\"\",\"\",\"2-2\",\"5813\",\"38\",\"1\",\"Training\",\"Stims/Figures/139-J-0-2.bmp\",\"va:fa:sha\",\"Down\",\"38\",\"4\",\"13\",\"9\",\"C1\",\"J\",\"61\"
\"\",\"\",\"approach-retreat\",\"65\",\"862286\",\"0.0-65.0\",\"\",\"\",\"2-2\",\"3883\",\"38\",\"0\",\"Training\",\"Stims/Figures/118-C-20-2.bmp\",\"zaha:za\",\"Down\",\"40\",\"4\",\"14\",\"9\",\"C2\",\"J\",\"62\"
\"\",\"\",\"approach-retreat\",\"66\",\"868712\",\"0.0-66.0\",\"\",\"\",\"2-2\",\"4890\",\"38\",\"1\",\"Training\",\"Stims/Figures/102-J-10-4.bmp\",\"nalala\",\"Down\",\"38\",\"4\",\"15\",\"9\",\"S\",\"J\",\"63\"
\"\",\"\",\"approach-retreat\",\"67\",\"874894\",\"0.0-67.0\",\"\",\"\",\"2-2\",\"4649\",\"40\",\"1\",\"Training\",\"Stims/Figures/93-J-0-1.bmp\",\"zahaha\",\"Up\",\"40\",\"4\",\"16\",\"9\",\"C2\",\"J\",\"64\"
\"\",\"\",\"approach-retreat\",\"68\",\"880776\",\"0.0-68.0\",\"\",\"\",\"2-2\",\"4364\",\"38\",\"1\",\"Training\",\"Stims/Figures/93-J-0-1.bmp\",\"zahaha\",\"Down\",\"38\",\"5\",\"1\",\"9\",\"C2\",\"J\",\"65\"
\"\",\"\",\"approach-retreat\",\"69\",\"886512\",\"0.0-69.0\",\"\",\"\",\"2-2\",\"4218\",\"37\",\"1\",\"Training\",\"Stims/Figures/144-C-30-3.bmp\",\"fasha:sha\",\"Left\",\"37\",\"5\",\"2\",\"9\",\"C1\",\"J\",\"66\"
\"\",\"\",\"approach-retreat\",\"70\",\"893064\",\"0.0-70.0\",\"\",\"\",\"2-2\",\"5036\",\"40\",\"0\",\"Training\",\"Stims/Figures/139-J-0-2.bmp\",\"va:fa:sha\",\"Down\",\"38\",\"5\",\"3\",\"9\",\"C1\",\"J\",\"67\"
\"\",\"\",\"approach-retreat\",\"71\",\"899377\",\"0.0-71.0\",\"\",\"\",\"2-2\",\"4796\",\"37\",\"1\",\"Training\",\"Stims/Figures/111-J-10-3.bmp\",\"na:la:na\",\"Right\",\"37\",\"5\",\"4\",\"9\",\"S\",\"J\",\"68\"
\"\",\"\",\"approach-retreat\",\"72\",\"906228\",\"0.0-72.0\",\"\",\"\",\"2-2\",\"5330\",\"38\",\"1\",\"Training\",\"Stims/Figures/87-C-20-4.bmp\",\"vashava\",\"Up\",\"38\",\"5\",\"5\",\"9\",\"C1\",\"J\",\"69\"
\"\",\"\",\"approach-retreat\",\"73\",\"912040\",\"0.0-73.0\",\"\",\"\",\"2-2\",\"4295\",\"38\",\"0\",\"Training\",\"Stims/Figures/118-C-20-2.bmp\",\"zaha:za\",\"Down\",\"40\",\"5\",\"6\",\"9\",\"C2\",\"J\",\"70\"
\"\",\"\",\"approach-retreat\",\"74\",\"917820\",\"0.0-74.0\",\"\",\"\",\"2-2\",\"4265\",\"37\",\"0\",\"Training\",\"Stims/Figures/139-C-20-2.bmp\",\"fafava\",\"Right\",\"39\",\"5\",\"7\",\"9\",\"C1\",\"J\",\"71\"
\"\",\"\",\"approach-retreat\",\"75\",\"925559\",\"0.0-75.0\",\"\",\"\",\"2-2\",\"6221\",\"39\",\"1\",\"Training\",\"Stims/Figures/111-C-30-3.bmp\",\"pa:ka:ka\",\"Right\",\"39\",\"5\",\"8\",\"9\",\"P\",\"J\",\"72\"
\"\",\"\",\"approach-retreat\",\"76\",\"932393\",\"0.0-76.0\",\"\",\"\",\"2-2\",\"5323\",\"40\",\"1\",\"Training\",\"Stims/Figures/102-J-10-4.bmp\",\"nalala\",\"Up\",\"40\",\"5\",\"9\",\"9\",\"S\",\"J\",\"73\"
\"\",\"\",\"approach-retreat\",\"77\",\"938360\",\"0.0-77.0\",\"\",\"\",\"2-2\",\"4458\",\"37\",\"1\",\"Training\",\"Stims/Figures/118-J-0-2.bmp\",\"zasaza\",\"Right\",\"37\",\"5\",\"10\",\"9\",\"C2\",\"J\",\"74\"
\"\",\"\",\"approach-retreat\",\"78\",\"945208\",\"0.0-78.0\",\"\",\"\",\"2-2\",\"5339\",\"39\",\"1\",\"Training\",\"Stims/Figures/144-J-10-3.bmp\",\"za:haha\",\"Left\",\"39\",\"5\",\"11\",\"9\",\"C2\",\"J\",\"75\"
\"\",\"\",\"approach-retreat\",\"79\",\"951840\",\"0.0-79.0\",\"\",\"\",\"2-2\",\"5121\",\"37\",\"0\",\"Training\",\"Stims/Figures/87-J-10-4.bmp\",\"ta:ka:ta\",\"Left\",\"39\",\"5\",\"12\",\"9\",\"P\",\"J\",\"76\"
\"\",\"\",\"approach-retreat\",\"80\",\"958378\",\"0.0-80.0\",\"\",\"\",\"2-2\",\"5009\",\"40\",\"0\",\"Training\",\"Stims/Figures/102-C-20-4.bmp\",\"fa:sha:va\",\"Up\",\"38\",\"5\",\"13\",\"9\",\"C1\",\"J\",\"77\"
\"\",\"\",\"approach-retreat\",\"81\",\"964894\",\"0.0-81.0\",\"\",\"\",\"2-2\",\"5002\",\"38\",\"1\",\"Training\",\"Stims/Figures/93-C-30-1.bmp\",\"pa:ka:ta\",\"Up\",\"38\",\"5\",\"14\",\"9\",\"P\",\"J\",\"78\"
\"\",\"\",\"approach-retreat\",\"82\",\"970912\",\"0.0-82.0\",\"\",\"\",\"2-2\",\"4504\",\"37\",\"1\",\"Training\",\"Stims/Figures/71-C-30-1.bmp\",\"pakata\",\"Left\",\"37\",\"5\",\"15\",\"9\",\"P\",\"J\",\"79\"
\"\",\"\",\"approach-retreat\",\"83\",\"977075\",\"0.0-83.0\",\"\",\"\",\"2-2\",\"4651\",\"38\",\"1\",\"Training\",\"Stims/Figures/71-J-0-1.bmp\",\"vafa:sha\",\"Down\",\"38\",\"5\",\"16\",\"9\",\"C1\",\"J\",\"80\"
\"\",\"\",\"approach-retreat\",\"84\",\"983991\",\"0.0-84.0\",\"\",\"\",\"2-2\",\"5394\",\"37\",\"1\",\"Training\",\"Stims/Figures/144-J-10-3.bmp\",\"za:haha\",\"Right\",\"37\",\"6\",\"1\",\"9\",\"C2\",\"J\",\"81\"
\"\",\"\",\"approach-retreat\",\"85\",\"990323\",\"0.0-85.0\",\"\",\"\",\"2-2\",\"4813\",\"39\",\"1\",\"Training\",\"Stims/Figures/139-C-20-2.bmp\",\"fafava\",\"Right\",\"39\",\"6\",\"2\",\"9\",\"C1\",\"J\",\"82\"
\"\",\"\",\"approach-retreat\",\"86\",\"996223\",\"0.0-86.0\",\"\",\"\",\"2-2\",\"4385\",\"40\",\"1\",\"Training\",\"Stims/Figures/93-J-0-1.bmp\",\"zahaha\",\"Up\",\"40\",\"6\",\"3\",\"9\",\"C2\",\"J\",\"83\"
\"\",\"\",\"approach-retreat\",\"87\",\"1003373\",\"0.0-87.0\",\"\",\"\",\"2-2\",\"5634\",\"38\",\"1\",\"Training\",\"Stims/Figures/118-C-20-2.bmp\",\"zaha:za\",\"Up\",\"38\",\"6\",\"4\",\"9\",\"C2\",\"J\",\"84\"
\"\",\"\",\"approach-retreat\",\"88\",\"1009141\",\"0.0-88.0\",\"\",\"\",\"2-2\",\"4252\",\"40\",\"1\",\"Training\",\"Stims/Figures/71-C-30-1.bmp\",\"pakata\",\"Down\",\"40\",\"6\",\"5\",\"9\",\"P\",\"J\",\"85\"
\"\",\"\",\"approach-retreat\",\"89\",\"1015609\",\"0.0-89.0\",\"\",\"\",\"2-2\",\"4956\",\"40\",\"0\",\"Training\",\"Stims/Figures/87-J-10-4.bmp\",\"ta:ka:ta\",\"Down\",\"38\",\"6\",\"6\",\"9\",\"P\",\"J\",\"86\"
\"\",\"\",\"approach-retreat\",\"90\",\"1021523\",\"0.0-90.0\",\"\",\"\",\"2-2\",\"4403\",\"39\",\"0\",\"Training\",\"Stims/Figures/111-J-10-3.bmp\",\"na:la:na\",\"Right\",\"37\",\"6\",\"7\",\"9\",\"S\",\"J\",\"87\"
\"\",\"\",\"approach-retreat\",\"91\",\"1028630\",\"0.0-91.0\",\"\",\"\",\"2-2\",\"5595\",\"39\",\"0\",\"Training\",\"Stims/Figures/71-J-0-1.bmp\",\"vafa:sha\",\"Right\",\"37\",\"6\",\"8\",\"9\",\"C1\",\"J\",\"88\"
\"\",\"\",\"approach-retreat\",\"92\",\"1035038\",\"0.0-92.0\",\"\",\"\",\"2-2\",\"4890\",\"38\",\"1\",\"Training\",\"Stims/Figures/87-C-20-4.bmp\",\"vashava\",\"Up\",\"38\",\"6\",\"9\",\"9\",\"C1\",\"J\",\"89\"
\"\",\"\",\"approach-retreat\",\"93\",\"1041705\",\"0.0-93.0\",\"\",\"\",\"2-2\",\"5144\",\"40\",\"1\",\"Training\",\"Stims/Figures/102-C-20-4.bmp\",\"fa:sha:va\",\"Down\",\"40\",\"6\",\"10\",\"9\",\"C1\",\"J\",\"90\"
\"\",\"\",\"approach-retreat\",\"94\",\"1047676\",\"0.0-94.0\",\"\",\"\",\"2-2\",\"4460\",\"37\",\"1\",\"Training\",\"Stims/Figures/93-C-30-1.bmp\",\"pa:ka:ta\",\"Left\",\"37\",\"6\",\"11\",\"9\",\"P\",\"J\",\"91\"
\"\",\"\",\"approach-retreat\",\"95\",\"1053304\",\"0.0-95.0\",\"\",\"\",\"2-2\",\"4117\",\"39\",\"1\",\"Training\",\"Stims/Figures/102-J-10-4.bmp\",\"nalala\",\"Left\",\"39\",\"6\",\"12\",\"9\",\"S\",\"J\",\"92\"
\"\",\"\",\"approach-retreat\",\"96\",\"1061521\",\"0.0-96.0\",\"\",\"\",\"2-2\",\"6694\",\"38\",\"0\",\"Training\",\"Stims/Figures/144-C-30-3.bmp\",\"fasha:sha\",\"Down\",\"40\",\"6\",\"13\",\"9\",\"C1\",\"J\",\"93\"
\"\",\"\",\"approach-retreat\",\"97\",\"1068236\",\"0.0-97.0\",\"\",\"\",\"2-2\",\"5200\",\"39\",\"0\",\"Training\",\"Stims/Figures/111-C-30-3.bmp\",\"pa:ka:ka\",\"Left\",\"37\",\"6\",\"14\",\"9\",\"P\",\"J\",\"94\"
\"\",\"\",\"approach-retreat\",\"98\",\"1074154\",\"0.0-98.0\",\"\",\"\",\"2-2\",\"4409\",\"39\",\"1\",\"Training\",\"Stims/Figures/139-J-0-2.bmp\",\"va:fa:sha\",\"Left\",\"39\",\"6\",\"15\",\"9\",\"C1\",\"J\",\"95\"
\"\",\"\",\"approach-retreat\",\"99\",\"1080102\",\"0.0-99.0\",\"\",\"\",\"2-2\",\"4434\",\"40\",\"1\",\"Training\",\"Stims/Figures/118-J-0-2.bmp\",\"zasaza\",\"Up\",\"40\",\"6\",\"16\",\"9\",\"C2\",\"J\",\"96\"
\"\",\"\",\"approach-retreat\",\"100\",\"1087350\",\"0.0-100.0\",\"\",\"\",\"2-2\",\"5724\",\"37\",\"0\",\"Training\",\"Stims/Figures/144-J-10-3.bmp\",\"za:haha\",\"Left\",\"39\",\"7\",\"1\",\"9\",\"C2\",\"J\",\"97\"
\"\",\"\",\"approach-retreat\",\"101\",\"1093075\",\"0.0-101.0\",\"\",\"\",\"2-2\",\"4205\",\"40\",\"0\",\"Training\",\"Stims/Figures/87-J-10-4.bmp\",\"ta:ka:ta\",\"Down\",\"38\",\"7\",\"2\",\"9\",\"P\",\"J\",\"98\"
\"\",\"\",\"approach-retreat\",\"102\",\"1098754\",\"0.0-102.0\",\"\",\"\",\"2-2\",\"4156\",\"37\",\"1\",\"Training\",\"Stims/Figures/93-C-30-1.bmp\",\"pa:ka:ta\",\"Left\",\"37\",\"7\",\"3\",\"9\",\"P\",\"J\",\"99\"
\"\",\"\",\"approach-retreat\",\"103\",\"1105391\",\"0.0-103.0\",\"\",\"\",\"2-2\",\"5114\",\"37\",\"0\",\"Training\",\"Stims/Figures/139-C-20-2.bmp\",\"fafava\",\"Right\",\"39\",\"7\",\"4\",\"9\",\"C1\",\"J\",\"100\"
\"\",\"\",\"approach-retreat\",\"104\",\"1112399\",\"0.0-104.0\",\"\",\"\",\"2-2\",\"5493\",\"39\",\"1\",\"Training\",\"Stims/Figures/102-C-20-4.bmp\",\"fa:sha:va\",\"Right\",\"39\",\"7\",\"5\",\"9\",\"C1\",\"J\",\"101\"
\"\",\"\",\"approach-retreat\",\"105\",\"1117919\",\"0.0-105.0\",\"\",\"\",\"2-2\",\"4008\",\"37\",\"1\",\"Training\",\"Stims/Figures/102-J-10-4.bmp\",\"nalala\",\"Right\",\"37\",\"7\",\"6\",\"9\",\"S\",\"J\",\"102\"
\"\",\"\",\"approach-retreat\",\"106\",\"1124888\",\"0.0-106.0\",\"\",\"\",\"2-2\",\"5453\",\"39\",\"0\",\"Training\",\"Stims/Figures/139-J-0-2.bmp\",\"va:fa:sha\",\"Right\",\"37\",\"7\",\"7\",\"9\",\"C1\",\"J\",\"103\"
\"\",\"\",\"approach-retreat\",\"107\",\"1130619\",\"0.0-107.0\",\"\",\"\",\"2-2\",\"4224\",\"38\",\"1\",\"Training\",\"Stims/Figures/118-J-0-2.bmp\",\"zasaza\",\"Down\",\"38\",\"7\",\"8\",\"9\",\"C2\",\"J\",\"104\"
\"\",\"\",\"approach-retreat\",\"108\",\"1136501\",\"0.0-108.0\",\"\",\"\",\"2-2\",\"4372\",\"37\",\"1\",\"Training\",\"Stims/Figures/71-C-30-1.bmp\",\"pakata\",\"Left\",\"37\",\"7\",\"9\",\"9\",\"P\",\"J\",\"105\"
\"\",\"\",\"approach-retreat\",\"109\",\"1142753\",\"0.0-109.0\",\"\",\"\",\"2-2\",\"4732\",\"38\",\"0\",\"Training\",\"Stims/Figures/71-J-0-1.bmp\",\"vafa:sha\",\"Up\",\"40\",\"7\",\"10\",\"9\",\"C1\",\"J\",\"106\"
\"\",\"\",\"approach-retreat\",\"110\",\"1148587\",\"0.0-110.0\",\"\",\"\",\"2-2\",\"4319\",\"38\",\"0\",\"Training\",\"Stims/Figures/111-J-10-3.bmp\",\"na:la:na\",\"Up\",\"40\",\"7\",\"11\",\"9\",\"S\",\"J\",\"107\"
\"\",\"\",\"approach-retreat\",\"111\",\"1154152\",\"0.0-111.0\",\"\",\"\",\"2-2\",\"4056\",\"40\",\"1\",\"Training\",\"Stims/Figures/93-J-0-1.bmp\",\"zahaha\",\"Up\",\"40\",\"7\",\"12\",\"9\",\"C2\",\"J\",\"108\"
\"\",\"\",\"approach-retreat\",\"112\",\"1160483\",\"0.0-112.0\",\"\",\"\",\"2-2\",\"4813\",\"39\",\"0\",\"Training\",\"Stims/Figures/144-C-30-3.bmp\",\"fasha:sha\",\"Left\",\"37\",\"7\",\"13\",\"9\",\"C1\",\"J\",\"109\"
\"\",\"\",\"approach-retreat\",\"113\",\"1166350\",\"0.0-113.0\",\"\",\"\",\"2-2\",\"4350\",\"40\",\"1\",\"Training\",\"Stims/Figures/111-C-30-3.bmp\",\"pa:ka:ka\",\"Down\",\"40\",\"7\",\"14\",\"9\",\"P\",\"J\",\"110\"
\"\",\"\",\"approach-retreat\",\"114\",\"1172284\",\"0.0-114.0\",\"\",\"\",\"2-2\",\"4416\",\"40\",\"0\",\"Training\",\"Stims/Figures/118-C-20-2.bmp\",\"zaha:za\",\"Up\",\"38\",\"7\",\"15\",\"9\",\"C2\",\"J\",\"111\"
\"\",\"\",\"approach-retreat\",\"115\",\"1177969\",\"0.0-115.0\",\"\",\"\",\"2-2\",\"4165\",\"38\",\"0\",\"Training\",\"Stims/Figures/87-C-20-4.bmp\",\"vashava\",\"Down\",\"40\",\"7\",\"16\",\"9\",\"C1\",\"J\",\"112\"
\"\",\"\",\"approach-retreat\",\"116\",\"1184450\",\"0.0-116.0\",\"\",\"\",\"2-2\",\"4961\",\"39\",\"0\",\"Training\",\"Stims/Figures/144-C-30-3.bmp\",\"fasha:sha\",\"Left\",\"37\",\"8\",\"1\",\"9\",\"C1\",\"J\",\"113\"
\"\",\"\",\"approach-retreat\",\"117\",\"1190281\",\"0.0-117.0\",\"\",\"\",\"2-2\",\"4309\",\"39\",\"1\",\"Training\",\"Stims/Figures/71-C-30-1.bmp\",\"pakata\",\"Right\",\"39\",\"8\",\"2\",\"9\",\"P\",\"J\",\"114\"
\"\",\"\",\"approach-retreat\",\"118\",\"1195933\",\"0.0-118.0\",\"\",\"\",\"2-2\",\"4135\",\"38\",\"1\",\"Training\",\"Stims/Figures/102-J-10-4.bmp\",\"nalala\",\"Down\",\"38\",\"8\",\"3\",\"9\",\"S\",\"J\",\"115\"
\"\",\"\",\"approach-retreat\",\"119\",\"1202967\",\"0.0-119.0\",\"\",\"\",\"2-2\",\"5520\",\"39\",\"0\",\"Training\",\"Stims/Figures/139-C-20-2.bmp\",\"fafava\",\"Left\",\"37\",\"8\",\"4\",\"9\",\"C1\",\"J\",\"116\"
\"\",\"\",\"approach-retreat\",\"120\",\"1208968\",\"0.0-120.0\",\"\",\"\",\"2-2\",\"4478\",\"39\",\"0\",\"Training\",\"Stims/Figures/139-J-0-2.bmp\",\"va:fa:sha\",\"Right\",\"37\",\"8\",\"5\",\"9\",\"C1\",\"J\",\"117\"
\"\",\"\",\"approach-retreat\",\"121\",\"1214883\",\"0.0-121.0\",\"\",\"\",\"2-2\",\"4407\",\"38\",\"1\",\"Training\",\"Stims/Figures/71-J-0-1.bmp\",\"vafa:sha\",\"Down\",\"38\",\"8\",\"6\",\"9\",\"C1\",\"J\",\"118\"
\"\",\"\",\"approach-retreat\",\"122\",\"1220647\",\"0.0-122.0\",\"\",\"\",\"2-2\",\"4254\",\"40\",\"1\",\"Training\",\"Stims/Figures/118-J-0-2.bmp\",\"zasaza\",\"Up\",\"40\",\"8\",\"7\",\"9\",\"C2\",\"J\",\"119\"
\"\",\"\",\"approach-retreat\",\"123\",\"1226817\",\"0.0-123.0\",\"\",\"\",\"2-2\",\"4646\",\"39\",\"0\",\"Training\",\"Stims/Figures/87-C-20-4.bmp\",\"vashava\",\"Left\",\"37\",\"8\",\"8\",\"9\",\"C1\",\"J\",\"120\"
\"\",\"\",\"approach-retreat\",\"124\",\"1233132\",\"0.0-124.0\",\"\",\"\",\"2-2\",\"4808\",\"39\",\"0\",\"Training\",\"Stims/Figures/111-J-10-3.bmp\",\"na:la:na\",\"Right\",\"37\",\"8\",\"9\",\"9\",\"S\",\"J\",\"121\"
\"\",\"\",\"approach-retreat\",\"125\",\"1238830\",\"0.0-125.0\",\"\",\"\",\"2-2\",\"4185\",\"38\",\"1\",\"Training\",\"Stims/Figures/93-C-30-1.bmp\",\"pa:ka:ta\",\"Up\",\"38\",\"8\",\"10\",\"9\",\"P\",\"J\",\"122\"
\"\",\"\",\"approach-retreat\",\"126\",\"1244718\",\"0.0-126.0\",\"\",\"\",\"2-2\",\"4380\",\"38\",\"0\",\"Training\",\"Stims/Figures/102-C-20-4.bmp\",\"fa:sha:va\",\"Down\",\"40\",\"8\",\"11\",\"9\",\"C1\",\"J\",\"123\"
\"\",\"\",\"approach-retreat\",\"127\",\"1250647\",\"0.0-127.0\",\"\",\"\",\"2-2\",\"4411\",\"39\",\"0\",\"Training\",\"Stims/Figures/87-J-10-4.bmp\",\"ta:ka:ta\",\"Right\",\"37\",\"8\",\"12\",\"9\",\"P\",\"J\",\"124\"
\"\",\"\",\"approach-retreat\",\"128\",\"1256263\",\"0.0-128.0\",\"\",\"\",\"2-2\",\"4096\",\"38\",\"1\",\"Training\",\"Stims/Figures/93-J-0-1.bmp\",\"zahaha\",\"Down\",\"38\",\"8\",\"13\",\"9\",\"C2\",\"J\",\"125\"
\"\",\"\",\"approach-retreat\",\"129\",\"1262914\",\"0.0-129.0\",\"\",\"\",\"2-2\",\"5138\",\"38\",\"1\",\"Training\",\"Stims/Figures/111-C-30-3.bmp\",\"pa:ka:ka\",\"Up\",\"38\",\"8\",\"14\",\"9\",\"P\",\"J\",\"126\"
\"\",\"\",\"approach-retreat\",\"130\",\"1269211\",\"0.0-130.0\",\"\",\"\",\"2-2\",\"4785\",\"40\",\"0\",\"Training\",\"Stims/Figures/118-C-20-2.bmp\",\"zaha:za\",\"Up\",\"38\",\"8\",\"15\",\"9\",\"C2\",\"J\",\"127\"
\"\",\"\",\"approach-retreat\",\"131\",\"1275414\",\"0.0-131.0\",\"\",\"\",\"2-2\",\"4696\",\"39\",\"1\",\"Training\",\"Stims/Figures/144-J-10-3.bmp\",\"za:haha\",\"Left\",\"39\",\"8\",\"16\",\"9\",\"C2\",\"J\",\"128\"
\"\",\"\",\"approach-retreat\",\"132\",\"1281145\",\"0.0-132.0\",\"\",\"\",\"2-2\",\"4215\",\"39\",\"1\",\"Training\",\"Stims/Figures/118-J-0-2.bmp\",\"zasaza\",\"Left\",\"39\",\"9\",\"1\",\"9\",\"C2\",\"J\",\"129\"
\"\",\"\",\"approach-retreat\",\"133\",\"1287845\",\"0.0-133.0\",\"\",\"\",\"2-2\",\"5178\",\"37\",\"0\",\"Training\",\"Stims/Figures/139-C-20-2.bmp\",\"fafava\",\"Right\",\"39\",\"9\",\"2\",\"9\",\"C1\",\"J\",\"130\"
\"\",\"\",\"approach-retreat\",\"134\",\"1296947\",\"0.0-134.0\",\"\",\"\",\"2-2\",\"7584\",\"37\",\"0\",\"Training\",\"Stims/Figures/102-C-20-4.bmp\",\"fa:sha:va\",\"Right\",\"39\",\"9\",\"3\",\"9\",\"C1\",\"J\",\"131\"
\"\",\"\",\"approach-retreat\",\"135\",\"1302594\",\"0.0-135.0\",\"\",\"\",\"2-2\",\"4134\",\"39\",\"1\",\"Training\",\"Stims/Figures/71-C-30-1.bmp\",\"pakata\",\"Right\",\"39\",\"9\",\"4\",\"9\",\"P\",\"J\",\"132\"
\"\",\"\",\"approach-retreat\",\"136\",\"1308978\",\"0.0-136.0\",\"\",\"\",\"2-2\",\"4861\",\"40\",\"1\",\"Training\",\"Stims/Figures/102-J-10-4.bmp\",\"nalala\",\"Up\",\"40\",\"9\",\"5\",\"9\",\"S\",\"J\",\"133\"
\"\",\"\",\"approach-retreat\",\"137\",\"1314654\",\"0.0-137.0\",\"\",\"\",\"2-2\",\"4155\",\"37\",\"1\",\"Training\",\"Stims/Figures/93-C-30-1.bmp\",\"pa:ka:ta\",\"Left\",\"37\",\"9\",\"6\",\"9\",\"P\",\"J\",\"134\"
\"\",\"\",\"approach-retreat\",\"138\",\"1320665\",\"0.0-138.0\",\"\",\"\",\"2-2\",\"4489\",\"38\",\"0\",\"Training\",\"Stims/Figures/71-J-0-1.bmp\",\"vafa:sha\",\"Up\",\"40\",\"9\",\"7\",\"9\",\"C1\",\"J\",\"135\"
\"\",\"\",\"approach-retreat\",\"139\",\"1326476\",\"0.0-139.0\",\"\",\"\",\"2-2\",\"4302\",\"40\",\"1\",\"Training\",\"Stims/Figures/144-J-10-3.bmp\",\"za:haha\",\"Up\",\"40\",\"9\",\"8\",\"9\",\"C2\",\"J\",\"136\"
\"\",\"\",\"approach-retreat\",\"140\",\"1333294\",\"0.0-140.0\",\"\",\"\",\"2-2\",\"5299\",\"40\",\"1\",\"Training\",\"Stims/Figures/87-C-20-4.bmp\",\"vashava\",\"Down\",\"40\",\"9\",\"9\",\"9\",\"C1\",\"J\",\"137\"
\"\",\"\",\"approach-retreat\",\"141\",\"1339559\",\"0.0-141.0\",\"\",\"\",\"2-2\",\"4747\",\"39\",\"1\",\"Training\",\"Stims/Figures/87-J-10-4.bmp\",\"ta:ka:ta\",\"Left\",\"39\",\"9\",\"10\",\"9\",\"P\",\"J\",\"138\"
\"\",\"\",\"approach-retreat\",\"142\",\"1345304\",\"0.0-142.0\",\"\",\"\",\"2-2\",\"4210\",\"38\",\"0\",\"Training\",\"Stims/Figures/118-C-20-2.bmp\",\"zaha:za\",\"Down\",\"40\",\"9\",\"11\",\"9\",\"C2\",\"J\",\"139\"
\"\",\"\",\"approach-retreat\",\"143\",\"1351510\",\"0.0-143.0\",\"\",\"\",\"2-2\",\"4682\",\"38\",\"1\",\"Training\",\"Stims/Figures/111-C-30-3.bmp\",\"pa:ka:ka\",\"Up\",\"38\",\"9\",\"12\",\"9\",\"P\",\"J\",\"140\"
\"\",\"\",\"approach-retreat\",\"144\",\"1357596\",\"0.0-144.0\",\"\",\"\",\"2-2\",\"4564\",\"40\",\"0\",\"Training\",\"Stims/Figures/139-J-0-2.bmp\",\"va:fa:sha\",\"Down\",\"38\",\"9\",\"13\",\"9\",\"C1\",\"J\",\"141\"
\"\",\"\",\"approach-retreat\",\"145\",\"1364576\",\"0.0-145.0\",\"\",\"\",\"2-2\",\"5464\",\"37\",\"1\",\"Training\",\"Stims/Figures/111-J-10-3.bmp\",\"na:la:na\",\"Right\",\"37\",\"9\",\"14\",\"9\",\"S\",\"J\",\"142\"
\"\",\"\",\"approach-retreat\",\"146\",\"1370175\",\"0.0-146.0\",\"\",\"\",\"2-2\",\"4077\",\"38\",\"1\",\"Training\",\"Stims/Figures/93-J-0-1.bmp\",\"zahaha\",\"Down\",\"38\",\"9\",\"15\",\"9\",\"C2\",\"J\",\"143\"
\"\",\"\",\"approach-retreat\",\"147\",\"1379177\",\"0.0-147.0\",\"\",\"\",\"2-2\",\"7481\",\"39\",\"0\",\"Training\",\"Stims/Figures/144-C-30-3.bmp\",\"fasha:sha\",\"Left\",\"37\",\"9\",\"16\",\"9\",\"C1\",\"J\",\"144\"
\"13113\",\"\",\"instructions\",\"148\",\"1392290\",\"0.0-148.0\",\"[{\"\"page_index\"\":0,\"\"viewing_time\"\":13113}]\",\"\",\"\",\"\",\"\",\"\",\"\",\"\",\"\",\"\",\"\",\"\",\"\",\"\",\"\",\"\",\"\"
\"\",\"\",\"approach-retreat\",\"149\",\"1402117\",\"0.0-149.0\",\"\",\"\",\"2-2\",\"8326\",\"39\",\"1\",\"Testing\",\"Stims/Figures/94-J-0-2.bmp\",\"sa:ha:ha\",\"Left\",\"39\",\"1\",\"1\",\"9\",\"C2\",\"J\",\"1\"
\"\",\"\",\"approach-retreat\",\"150\",\"1409725\",\"0.0-150.0\",\"\",\"\",\"2-2\",\"6087\",\"40\",\"0\",\"Testing\",\"Stims/Figures/57-C-30-1.bmp\",\"papata\",\"Up\",\"38\",\"1\",\"2\",\"9\",\"P\",\"J\",\"2\"
\"\",\"\",\"approach-retreat\",\"151\",\"1416715\",\"0.0-151.0\",\"\",\"\",\"2-2\",\"5483\",\"38\",\"0\",\"Testing\",\"Stims/Figures/111-J-10-3.bmp\",\"na:la:na\",\"Up\",\"40\",\"1\",\"3\",\"9\",\"S\",\"J\",\"3\"
\"\",\"\",\"approach-retreat\",\"152\",\"1424163\",\"0.0-152.0\",\"\",\"\",\"2-2\",\"5936\",\"39\",\"0\",\"Testing\",\"Stims/Figures/118-C-20-2.bmp\",\"zaha:za\",\"Left\",\"37\",\"1\",\"4\",\"9\",\"C2\",\"J\",\"4\"
\"\",\"\",\"approach-retreat\",\"153\",\"1437413\",\"0.0-153.0\",\"\",\"\",\"2-2\",\"11737\",\"40\",\"0\",\"Testing\",\"Stims/Figures/139-J-0-2.bmp\",\"va:fa:sha\",\"Down\",\"38\",\"1\",\"5\",\"9\",\"C1\",\"J\",\"5\"
\"\",\"\",\"approach-retreat\",\"154\",\"1450023\",\"0.0-154.0\",\"\",\"\",\"2-2\",\"11103\",\"39\",\"0\",\"Testing\",\"Stims/Figures/139-C-20-2.bmp\",\"fafava\",\"Left\",\"37\",\"1\",\"6\",\"9\",\"C1\",\"J\",\"6\"
\"\",\"\",\"approach-retreat\",\"155\",\"1461310\",\"0.0-155.0\",\"\",\"\",\"2-2\",\"9771\",\"37\",\"0\",\"Testing\",\"Stims/Figures/93-C-30-1.bmp\",\"pa:ka:ta\",\"Right\",\"39\",\"1\",\"7\",\"9\",\"P\",\"J\",\"7\"
\"\",\"\",\"approach-retreat\",\"156\",\"1472527\",\"0.0-156.0\",\"\",\"\",\"2-2\",\"9696\",\"39\",\"0\",\"Testing\",\"Stims/Figures/87-C-20-4.bmp\",\"vashava\",\"Left\",\"37\",\"1\",\"8\",\"9\",\"C1\",\"J\",\"8\"
\"\",\"\",\"approach-retreat\",\"157\",\"1480480\",\"0.0-157.0\",\"\",\"\",\"2-2\",\"6447\",\"40\",\"1\",\"Testing\",\"Stims/Figures/71-C-30-1.bmp\",\"pakata\",\"Down\",\"40\",\"1\",\"9\",\"9\",\"P\",\"J\",\"9\"
\"\",\"\",\"approach-retreat\",\"158\",\"1491060\",\"0.0-158.0\",\"\",\"\",\"2-2\",\"9070\",\"39\",\"1\",\"Testing\",\"Stims/Figures/128-C-30-3.bmp\",\"va:shasha\",\"Right\",\"39\",\"1\",\"10\",\"9\",\"C1\",\"J\",\"10\"
\"\",\"\",\"approach-retreat\",\"159\",\"1507812\",\"0.0-159.0\",\"\",\"\",\"2-2\",\"15249\",\"37\",\"0\",\"Testing\",\"Stims/Figures/118-J-0-2.bmp\",\"zasaza\",\"Left\",\"39\",\"1\",\"11\",\"9\",\"C2\",\"J\",\"11\"
\"\",\"\",\"approach-retreat\",\"160\",\"1519066\",\"0.0-160.0\",\"\",\"\",\"2-2\",\"9745\",\"40\",\"0\",\"Testing\",\"Stims/Figures/128-J-10-3.bmp\",\"mama:na\",\"Down\",\"38\",\"1\",\"12\",\"9\",\"S\",\"J\",\"12\"
\"\",\"\",\"approach-retreat\",\"161\",\"1526394\",\"0.0-161.0\",\"\",\"\",\"2-2\",\"5824\",\"39\",\"0\",\"Testing\",\"Stims/Figures/102-C-20-4.bmp\",\"fa:sha:va\",\"Left\",\"37\",\"1\",\"13\",\"9\",\"C1\",\"J\",\"13\"
\"\",\"\",\"approach-retreat\",\"162\",\"1537065\",\"0.0-162.0\",\"\",\"\",\"2-2\",\"9171\",\"40\",\"1\",\"Testing\",\"Stims/Figures/7-C-20-4.bmp\",\"va:sha:sha\",\"Down\",\"40\",\"1\",\"14\",\"9\",\"C1\",\"J\",\"14\"
\"\",\"\",\"approach-retreat\",\"163\",\"1550440\",\"0.0-163.0\",\"\",\"\",\"2-2\",\"11869\",\"40\",\"1\",\"Testing\",\"Stims/Figures/144-C-30-3.bmp\",\"fasha:sha\",\"Down\",\"40\",\"1\",\"15\",\"9\",\"C1\",\"J\",\"15\"
\"\",\"\",\"approach-retreat\",\"164\",\"1557773\",\"0.0-164.0\",\"\",\"\",\"2-2\",\"5823\",\"40\",\"1\",\"Testing\",\"Stims/Figures/87-J-10-4.bmp\",\"ta:ka:ta\",\"Up\",\"40\",\"1\",\"16\",\"9\",\"P\",\"J\",\"16\"
\"\",\"\",\"approach-retreat\",\"165\",\"1564612\",\"0.0-165.0\",\"\",\"\",\"2-2\",\"5333\",\"38\",\"1\",\"Testing\",\"Stims/Figures/94-C-20-2.bmp\",\"mama:la\",\"Up\",\"38\",\"1\",\"17\",\"9\",\"S\",\"J\",\"17\"
\"\",\"\",\"approach-retreat\",\"166\",\"1571857\",\"0.0-166.0\",\"\",\"\",\"2-2\",\"5745\",\"39\",\"1\",\"Testing\",\"Stims/Figures/111-C-30-3.bmp\",\"pa:ka:ka\",\"Right\",\"39\",\"1\",\"18\",\"9\",\"P\",\"J\",\"18\"
\"\",\"\",\"approach-retreat\",\"167\",\"1579073\",\"0.0-167.0\",\"\",\"\",\"2-2\",\"5688\",\"38\",\"0\",\"Testing\",\"Stims/Figures/7-J-10-4.bmp\",\"ma:la:la\",\"Up\",\"40\",\"1\",\"19\",\"9\",\"S\",\"J\",\"19\"
\"\",\"\",\"approach-retreat\",\"168\",\"1585873\",\"0.0-168.0\",\"\",\"\",\"2-2\",\"5297\",\"40\",\"0\",\"Testing\",\"Stims/Figures/93-J-0-1.bmp\",\"zahaha\",\"Down\",\"38\",\"1\",\"20\",\"9\",\"C2\",\"J\",\"20\"
\"\",\"\",\"approach-retreat\",\"169\",\"1592224\",\"0.0-169.0\",\"\",\"\",\"2-2\",\"4836\",\"37\",\"1\",\"Testing\",\"Stims/Figures/71-J-0-1.bmp\",\"vafa:sha\",\"Right\",\"37\",\"1\",\"21\",\"9\",\"C1\",\"J\",\"21\"
\"\",\"\",\"approach-retreat\",\"170\",\"1600127\",\"0.0-170.0\",\"\",\"\",\"2-2\",\"6388\",\"39\",\"0\",\"Testing\",\"Stims/Figures/57-J-0-1.bmp\",\"fasha:va\",\"Right\",\"37\",\"1\",\"22\",\"9\",\"C1\",\"J\",\"22\"
\"\",\"\",\"approach-retreat\",\"171\",\"1605972\",\"0.0-171.0\",\"\",\"\",\"2-2\",\"4333\",\"40\",\"1\",\"Testing\",\"Stims/Figures/102-J-10-4.bmp\",\"nalala\",\"Up\",\"40\",\"1\",\"23\",\"9\",\"S\",\"J\",\"23\"
\"\",\"\",\"approach-retreat\",\"172\",\"1615895\",\"0.0-172.0\",\"\",\"\",\"2-2\",\"8423\",\"37\",\"1\",\"Testing\",\"Stims/Figures/144-J-10-3.bmp\",\"za:haha\",\"Right\",\"37\",\"1\",\"24\",\"9\",\"C2\",\"J\",\"24\"
\"\",\"\",\"approach-retreat\",\"173\",\"1622608\",\"0.0-173.0\",\"\",\"\",\"2-2\",\"5206\",\"40\",\"0\",\"Testing\",\"Stims/Figures/57-J-0-1.bmp\",\"fasha:va\",\"Down\",\"38\",\"2\",\"1\",\"9\",\"C1\",\"J\",\"25\"
\"\",\"\",\"approach-retreat\",\"174\",\"1633705\",\"0.0-174.0\",\"\",\"\",\"2-2\",\"9586\",\"38\",\"1\",\"Testing\",\"Stims/Figures/87-C-20-4.bmp\",\"vashava\",\"Up\",\"38\",\"2\",\"2\",\"9\",\"C1\",\"J\",\"26\"
\"\",\"\",\"approach-retreat\",\"175\",\"1640972\",\"0.0-175.0\",\"\",\"\",\"2-2\",\"5765\",\"37\",\"0\",\"Testing\",\"Stims/Figures/128-J-10-3.bmp\",\"mama:na\",\"Left\",\"39\",\"2\",\"3\",\"9\",\"S\",\"J\",\"27\"
\"\",\"\",\"approach-retreat\",\"176\",\"1649636\",\"0.0-176.0\",\"\",\"\",\"2-2\",\"7154\",\"40\",\"0\",\"Testing\",\"Stims/Figures/7-C-20-4.bmp\",\"va:sha:sha\",\"Up\",\"38\",\"2\",\"4\",\"9\",\"C1\",\"J\",\"28\"
\"\",\"\",\"approach-retreat\",\"177\",\"1661369\",\"0.0-177.0\",\"\",\"\",\"2-2\",\"10217\",\"37\",\"0\",\"Testing\",\"Stims/Figures/139-J-0-2.bmp\",\"va:fa:sha\",\"Left\",\"39\",\"2\",\"5\",\"9\",\"C1\",\"J\",\"29\"
\"\",\"\",\"approach-retreat\",\"178\",\"1667681\",\"0.0-178.0\",\"\",\"\",\"2-2\",\"4790\",\"38\",\"1\",\"Testing\",\"Stims/Figures/118-C-20-2.bmp\",\"zaha:za\",\"Up\",\"38\",\"2\",\"6\",\"9\",\"C2\",\"J\",\"30\"
\"\",\"\",\"approach-retreat\",\"179\",\"1677984\",\"0.0-179.0\",\"\",\"\",\"2-2\",\"8803\",\"40\",\"0\",\"Testing\",\"Stims/Figures/93-J-0-1.bmp\",\"zahaha\",\"Down\",\"38\",\"2\",\"7\",\"9\",\"C2\",\"J\",\"31\"
\"\",\"\",\"approach-retreat\",\"180\",\"1684651\",\"0.0-180.0\",\"\",\"\",\"2-2\",\"5158\",\"39\",\"1\",\"Testing\",\"Stims/Figures/102-J-10-4.bmp\",\"nalala\",\"Left\",\"39\",\"2\",\"8\",\"9\",\"S\",\"J\",\"32\"
\"\",\"\",\"approach-retreat\",\"181\",\"1691902\",\"0.0-181.0\",\"\",\"\",\"2-2\",\"5750\",\"37\",\"1\",\"Testing\",\"Stims/Figures/7-J-10-4.bmp\",\"ma:la:la\",\"Right\",\"37\",\"2\",\"9\",\"9\",\"S\",\"J\",\"33\"
\"\",\"\",\"approach-retreat\",\"182\",\"1704586\",\"0.0-182.0\",\"\",\"\",\"2-2\",\"11169\",\"40\",\"1\",\"Testing\",\"Stims/Figures/128-C-30-3.bmp\",\"va:shasha\",\"Down\",\"40\",\"2\",\"10\",\"9\",\"C1\",\"J\",\"34\"
\"\",\"\",\"approach-retreat\",\"183\",\"1710368\",\"0.0-183.0\",\"\",\"\",\"2-2\",\"4275\",\"39\",\"1\",\"Testing\",\"Stims/Figures/111-C-30-3.bmp\",\"pa:ka:ka\",\"Right\",\"39\",\"2\",\"11\",\"9\",\"P\",\"J\",\"35\"
\"\",\"\",\"approach-retreat\",\"184\",\"1722383\",\"0.0-184.0\",\"\",\"\",\"2-2\",\"10505\",\"38\",\"0\",\"Testing\",\"Stims/Figures/139-C-20-2.bmp\",\"fafava\",\"Down\",\"40\",\"2\",\"12\",\"9\",\"C1\",\"J\",\"36\"
\"\",\"\",\"approach-retreat\",\"185\",\"1728301\",\"0.0-185.0\",\"\",\"\",\"2-2\",\"4402\",\"37\",\"0\",\"Testing\",\"Stims/Figures/94-J-0-2.bmp\",\"sa:ha:ha\",\"Left\",\"39\",\"2\",\"13\",\"9\",\"C2\",\"J\",\"37\"
\"\",\"\",\"approach-retreat\",\"186\",\"1734501\",\"0.0-186.0\",\"\",\"\",\"2-2\",\"4687\",\"39\",\"1\",\"Testing\",\"Stims/Figures/87-J-10-4.bmp\",\"ta:ka:ta\",\"Left\",\"39\",\"2\",\"14\",\"9\",\"P\",\"J\",\"38\"
\"\",\"\",\"approach-retreat\",\"187\",\"1742866\",\"0.0-187.0\",\"\",\"\",\"2-2\",\"6859\",\"38\",\"1\",\"Testing\",\"Stims/Figures/118-J-0-2.bmp\",\"zasaza\",\"Down\",\"38\",\"2\",\"15\",\"9\",\"C2\",\"J\",\"39\"
\"\",\"\",\"approach-retreat\",\"188\",\"1752028\",\"0.0-188.0\",\"\",\"\",\"2-2\",\"7649\",\"40\",\"0\",\"Testing\",\"Stims/Figures/93-C-30-1.bmp\",\"pa:ka:ta\",\"Up\",\"38\",\"2\",\"16\",\"9\",\"P\",\"J\",\"40\"
\"\",\"\",\"approach-retreat\",\"189\",\"1761334\",\"0.0-189.0\",\"\",\"\",\"2-2\",\"7802\",\"38\",\"1\",\"Testing\",\"Stims/Figures/144-C-30-3.bmp\",\"fasha:sha\",\"Up\",\"38\",\"2\",\"17\",\"9\",\"C1\",\"J\",\"41\"
\"\",\"\",\"approach-retreat\",\"190\",\"1768601\",\"0.0-190.0\",\"\",\"\",\"2-2\",\"5764\",\"40\",\"0\",\"Testing\",\"Stims/Figures/71-J-0-1.bmp\",\"vafa:sha\",\"Down\",\"38\",\"2\",\"18\",\"9\",\"C1\",\"J\",\"42\"
\"\",\"\",\"approach-retreat\",\"191\",\"1774515\",\"0.0-191.0\",\"\",\"\",\"2-2\",\"4405\",\"39\",\"1\",\"Testing\",\"Stims/Figures/71-C-30-1.bmp\",\"pakata\",\"Right\",\"39\",\"2\",\"19\",\"9\",\"P\",\"J\",\"43\"
\"\",\"\",\"approach-retreat\",\"192\",\"1781565\",\"0.0-192.0\",\"\",\"\",\"2-2\",\"5540\",\"39\",\"1\",\"Testing\",\"Stims/Figures/57-C-30-1.bmp\",\"papata\",\"Right\",\"39\",\"2\",\"20\",\"9\",\"P\",\"J\",\"44\"
\"\",\"\",\"approach-retreat\",\"193\",\"1808948\",\"0.0-193.0\",\"\",\"\",\"2-2\",\"25876\",\"39\",\"0\",\"Testing\",\"Stims/Figures/144-J-10-3.bmp\",\"za:haha\",\"Right\",\"37\",\"2\",\"21\",\"9\",\"C2\",\"J\",\"45\"
\"\",\"\",\"approach-retreat\",\"194\",\"1816543\",\"0.0-194.0\",\"\",\"\",\"2-2\",\"6085\",\"39\",\"0\",\"Testing\",\"Stims/Figures/102-C-20-4.bmp\",\"fa:sha:va\",\"Left\",\"37\",\"2\",\"22\",\"9\",\"C1\",\"J\",\"46\"
\"\",\"\",\"approach-retreat\",\"195\",\"1822464\",\"0.0-195.0\",\"\",\"\",\"2-2\",\"4409\",\"39\",\"1\",\"Testing\",\"Stims/Figures/94-C-20-2.bmp\",\"mama:la\",\"Right\",\"39\",\"2\",\"23\",\"9\",\"S\",\"J\",\"47\"
\"\",\"\",\"approach-retreat\",\"196\",\"1828308\",\"0.0-196.0\",\"\",\"\",\"2-2\",\"4338\",\"38\",\"0\",\"Testing\",\"Stims/Figures/111-J-10-3.bmp\",\"na:la:na\",\"Up\",\"40\",\"2\",\"24\",\"9\",\"S\",\"J\",\"48\"
\"\",\"\",\"approach-retreat\",\"197\",\"1834013\",\"0.0-197.0\",\"\",\"\",\"2-2\",\"4194\",\"40\",\"0\",\"Testing\",\"Stims/Figures/7-C-20-4.bmp\",\"va:sha:sha\",\"Up\",\"38\",\"3\",\"1\",\"9\",\"C1\",\"J\",\"49\"
\"\",\"\",\"approach-retreat\",\"198\",\"1839730\",\"0.0-198.0\",\"\",\"\",\"2-2\",\"4204\",\"40\",\"1\",\"Testing\",\"Stims/Figures/7-J-10-4.bmp\",\"ma:la:la\",\"Up\",\"40\",\"3\",\"2\",\"9\",\"S\",\"J\",\"50\"
\"\",\"\",\"approach-retreat\",\"199\",\"1848185\",\"0.0-199.0\",\"\",\"\",\"2-2\",\"6949\",\"38\",\"0\",\"Testing\",\"Stims/Figures/87-C-20-4.bmp\",\"vashava\",\"Down\",\"40\",\"3\",\"3\",\"9\",\"C1\",\"J\",\"51\"
\"\",\"\",\"approach-retreat\",\"200\",\"1853837\",\"0.0-200.0\",\"\",\"\",\"2-2\",\"4143\",\"37\",\"1\",\"Testing\",\"Stims/Figures/94-C-20-2.bmp\",\"mama:la\",\"Left\",\"37\",\"3\",\"4\",\"9\",\"S\",\"J\",\"52\"
\"\",\"\",\"approach-retreat\",\"201\",\"1860479\",\"0.0-201.0\",\"\",\"\",\"2-2\",\"5129\",\"38\",\"0\",\"Testing\",\"Stims/Figures/139-J-0-2.bmp\",\"va:fa:sha\",\"Up\",\"40\",\"3\",\"5\",\"9\",\"C1\",\"J\",\"53\"
\"\",\"\",\"approach-retreat\",\"202\",\"1866595\",\"0.0-202.0\",\"\",\"\",\"2-2\",\"4613\",\"40\",\"0\",\"Testing\",\"Stims/Figures/144-C-30-3.bmp\",\"fasha:sha\",\"Up\",\"38\",\"3\",\"6\",\"9\",\"C1\",\"J\",\"54\"
\"\",\"\",\"approach-retreat\",\"203\",\"1876179\",\"0.0-203.0\",\"\",\"\",\"2-2\",\"8078\",\"40\",\"0\",\"Testing\",\"Stims/Figures/71-C-30-1.bmp\",\"pakata\",\"Up\",\"38\",\"3\",\"7\",\"9\",\"P\",\"J\",\"55\"
\"\",\"\",\"approach-retreat\",\"204\",\"1881911\",\"0.0-204.0\",\"\",\"\",\"2-2\",\"4217\",\"39\",\"0\",\"Testing\",\"Stims/Figures/94-J-0-2.bmp\",\"sa:ha:ha\",\"Right\",\"37\",\"3\",\"8\",\"9\",\"C2\",\"J\",\"56\"
\"\",\"\",\"approach-retreat\",\"205\",\"1887660\",\"0.0-205.0\",\"\",\"\",\"2-2\",\"4234\",\"40\",\"1\",\"Testing\",\"Stims/Figures/118-C-20-2.bmp\",\"zaha:za\",\"Down\",\"40\",\"3\",\"9\",\"9\",\"C2\",\"J\",\"57\"
\"\",\"\",\"approach-retreat\",\"206\",\"1893629\",\"0.0-206.0\",\"\",\"\",\"2-2\",\"4453\",\"38\",\"1\",\"Testing\",\"Stims/Figures/87-J-10-4.bmp\",\"ta:ka:ta\",\"Down\",\"38\",\"3\",\"10\",\"9\",\"P\",\"J\",\"58\"
\"\",\"\",\"approach-retreat\",\"207\",\"1899427\",\"0.0-207.0\",\"\",\"\",\"2-2\",\"4297\",\"39\",\"1\",\"Testing\",\"Stims/Figures/111-C-30-3.bmp\",\"pa:ka:ka\",\"Right\",\"39\",\"3\",\"11\",\"9\",\"P\",\"J\",\"59\"
\"\",\"\",\"approach-retreat\",\"208\",\"1906261\",\"0.0-208.0\",\"\",\"\",\"2-2\",\"5328\",\"39\",\"1\",\"Testing\",\"Stims/Figures/139-C-20-2.bmp\",\"fafava\",\"Right\",\"39\",\"3\",\"12\",\"9\",\"C1\",\"J\",\"60\"
\"\",\"\",\"approach-retreat\",\"209\",\"1913105\",\"0.0-209.0\",\"\",\"\",\"2-2\",\"5328\",\"40\",\"0\",\"Testing\",\"Stims/Figures/118-J-0-2.bmp\",\"zasaza\",\"Down\",\"38\",\"3\",\"13\",\"9\",\"C2\",\"J\",\"61\"
\"\",\"\",\"approach-retreat\",\"210\",\"1918975\",\"0.0-210.0\",\"\",\"\",\"2-2\",\"4365\",\"39\",\"0\",\"Testing\",\"Stims/Figures/144-J-10-3.bmp\",\"za:haha\",\"Right\",\"37\",\"3\",\"14\",\"9\",\"C2\",\"J\",\"62\"
\"\",\"\",\"approach-retreat\",\"211\",\"1924658\",\"0.0-211.0\",\"\",\"\",\"2-2\",\"4171\",\"38\",\"1\",\"Testing\",\"Stims/Figures/128-J-10-3.bmp\",\"mama:na\",\"Down\",\"38\",\"3\",\"15\",\"9\",\"S\",\"J\",\"63\"
\"\",\"\",\"approach-retreat\",\"212\",\"1930460\",\"0.0-212.0\",\"\",\"\",\"2-2\",\"4293\",\"39\",\"0\",\"Testing\",\"Stims/Figures/102-C-20-4.bmp\",\"fa:sha:va\",\"Left\",\"37\",\"3\",\"16\",\"9\",\"C1\",\"J\",\"64\"
\"\",\"\",\"approach-retreat\",\"213\",\"1936275\",\"0.0-213.0\",\"\",\"\",\"2-2\",\"4314\",\"38\",\"0\",\"Testing\",\"Stims/Figures/93-J-0-1.bmp\",\"zahaha\",\"Up\",\"40\",\"3\",\"17\",\"9\",\"C2\",\"J\",\"65\"
\"\",\"\",\"approach-retreat\",\"214\",\"1943151\",\"0.0-214.0\",\"\",\"\",\"2-2\",\"5377\",\"39\",\"1\",\"Testing\",\"Stims/Figures/71-J-0-1.bmp\",\"vafa:sha\",\"Left\",\"39\",\"3\",\"18\",\"9\",\"C1\",\"J\",\"66\"
\"\",\"\",\"approach-retreat\",\"215\",\"1948861\",\"0.0-215.0\",\"\",\"\",\"2-2\",\"4194\",\"37\",\"0\",\"Testing\",\"Stims/Figures/93-C-30-1.bmp\",\"pa:ka:ta\",\"Right\",\"39\",\"3\",\"19\",\"9\",\"P\",\"J\",\"67\"
\"\",\"\",\"approach-retreat\",\"216\",\"1954667\",\"0.0-216.0\",\"\",\"\",\"2-2\",\"4296\",\"37\",\"0\",\"Testing\",\"Stims/Figures/57-J-0-1.bmp\",\"fasha:va\",\"Left\",\"39\",\"3\",\"20\",\"9\",\"C1\",\"J\",\"68\"
\"\",\"\",\"approach-retreat\",\"217\",\"1960842\",\"0.0-217.0\",\"\",\"\",\"2-2\",\"4659\",\"38\",\"0\",\"Testing\",\"Stims/Figures/128-C-30-3.bmp\",\"va:shasha\",\"Down\",\"40\",\"3\",\"21\",\"9\",\"C1\",\"J\",\"69\"
\"\",\"\",\"approach-retreat\",\"218\",\"1966699\",\"0.0-218.0\",\"\",\"\",\"2-2\",\"4345\",\"37\",\"0\",\"Testing\",\"Stims/Figures/111-J-10-3.bmp\",\"na:la:na\",\"Left\",\"39\",\"3\",\"22\",\"9\",\"S\",\"J\",\"70\"
\"\",\"\",\"approach-retreat\",\"219\",\"1972257\",\"0.0-219.0\",\"\",\"\",\"2-2\",\"4051\",\"39\",\"1\",\"Testing\",\"Stims/Figures/102-J-10-4.bmp\",\"nalala\",\"Left\",\"39\",\"3\",\"23\",\"9\",\"S\",\"J\",\"71\"
\"\",\"\",\"approach-retreat\",\"220\",\"1978791\",\"0.0-220.0\",\"\",\"\",\"2-2\",\"5031\",\"37\",\"0\",\"Testing\",\"Stims/Figures/57-C-30-1.bmp\",\"papata\",\"Right\",\"39\",\"3\",\"24\",\"9\",\"P\",\"J\",\"72\"
\"\",\"\",\"approach-retreat\",\"221\",\"1985175\",\"0.0-221.0\",\"\",\"\",\"2-2\",\"4879\",\"40\",\"0\",\"Testing\",\"Stims/Figures/102-J-10-4.bmp\",\"nalala\",\"Down\",\"38\",\"4\",\"1\",\"9\",\"S\",\"J\",\"73\"
\"\",\"\",\"approach-retreat\",\"222\",\"1990906\",\"0.0-222.0\",\"\",\"\",\"2-2\",\"4219\",\"38\",\"0\",\"Testing\",\"Stims/Figures/111-J-10-3.bmp\",\"na:la:na\",\"Up\",\"40\",\"4\",\"2\",\"9\",\"S\",\"J\",\"74\"
\"\",\"\",\"approach-retreat\",\"223\",\"1996556\",\"0.0-223.0\",\"\",\"\",\"2-2\",\"4127\",\"39\",\"0\",\"Testing\",\"Stims/Figures/93-C-30-1.bmp\",\"pa:ka:ta\",\"Left\",\"37\",\"4\",\"3\",\"9\",\"P\",\"J\",\"75\"
\"\",\"\",\"approach-retreat\",\"224\",\"2002257\",\"0.0-224.0\",\"\",\"\",\"2-2\",\"4182\",\"38\",\"0\",\"Testing\",\"Stims/Figures/139-J-0-2.bmp\",\"va:fa:sha\",\"Up\",\"40\",\"4\",\"4\",\"9\",\"C1\",\"J\",\"76\"
\"\",\"\",\"approach-retreat\",\"225\",\"2008086\",\"0.0-225.0\",\"\",\"\",\"2-2\",\"4329\",\"40\",\"0\",\"Testing\",\"Stims/Figures/87-C-20-4.bmp\",\"vashava\",\"Up\",\"38\",\"4\",\"5\",\"9\",\"C1\",\"J\",\"77\"
\"\",\"\",\"approach-retreat\",\"226\",\"2014774\",\"0.0-226.0\",\"\",\"\",\"2-2\",\"5175\",\"37\",\"1\",\"Testing\",\"Stims/Figures/128-J-10-3.bmp\",\"mama:na\",\"Right\",\"37\",\"4\",\"6\",\"9\",\"S\",\"J\",\"78\"
\"\",\"\",\"approach-retreat\",\"227\",\"2020622\",\"0.0-227.0\",\"\",\"\",\"2-2\",\"4341\",\"38\",\"0\",\"Testing\",\"Stims/Figures/94-J-0-2.bmp\",\"sa:ha:ha\",\"Up\",\"40\",\"4\",\"7\",\"9\",\"C2\",\"J\",\"79\"
\"\",\"\",\"approach-retreat\",\"228\",\"2026922\",\"0.0-228.0\",\"\",\"\",\"2-2\",\"4797\",\"39\",\"1\",\"Testing\",\"Stims/Figures/71-J-0-1.bmp\",\"vafa:sha\",\"Left\",\"39\",\"4\",\"8\",\"9\",\"C1\",\"J\",\"80\"
\"\",\"\",\"approach-retreat\",\"229\",\"2032522\",\"0.0-229.0\",\"\",\"\",\"2-2\",\"4095\",\"37\",\"1\",\"Testing\",\"Stims/Figures/87-J-10-4.bmp\",\"ta:ka:ta\",\"Right\",\"37\",\"4\",\"9\",\"9\",\"P\",\"J\",\"81\"
\"\",\"\",\"approach-retreat\",\"230\",\"2039643\",\"0.0-230.0\",\"\",\"\",\"2-2\",\"5604\",\"39\",\"0\",\"Testing\",\"Stims/Figures/102-C-20-4.bmp\",\"fa:sha:va\",\"Left\",\"37\",\"4\",\"10\",\"9\",\"C1\",\"J\",\"82\"
\"\",\"\",\"approach-retreat\",\"231\",\"2046954\",\"0.0-231.0\",\"\",\"\",\"2-2\",\"5801\",\"40\",\"1\",\"Testing\",\"Stims/Figures/139-C-20-2.bmp\",\"fafava\",\"Down\",\"40\",\"4\",\"11\",\"9\",\"C1\",\"J\",\"83\"
\"\",\"\",\"approach-retreat\",\"232\",\"2052754\",\"0.0-232.0\",\"\",\"\",\"2-2\",\"4294\",\"38\",\"0\",\"Testing\",\"Stims/Figures/128-C-30-3.bmp\",\"va:shasha\",\"Down\",\"40\",\"4\",\"12\",\"9\",\"C1\",\"J\",\"84\"
\"\",\"\",\"approach-retreat\",\"233\",\"2058570\",\"0.0-233.0\",\"\",\"\",\"2-2\",\"4310\",\"39\",\"0\",\"Testing\",\"Stims/Figures/93-J-0-1.bmp\",\"zahaha\",\"Right\",\"37\",\"4\",\"13\",\"9\",\"C2\",\"J\",\"85\"
\"\",\"\",\"approach-retreat\",\"234\",\"2066803\",\"0.0-234.0\",\"\",\"\",\"2-2\",\"6719\",\"39\",\"0\",\"Testing\",\"Stims/Figures/57-J-0-1.bmp\",\"fasha:va\",\"Right\",\"37\",\"4\",\"14\",\"9\",\"C1\",\"J\",\"86\"
\"\",\"\",\"approach-retreat\",\"235\",\"2072540\",\"0.0-235.0\",\"\",\"\",\"2-2\",\"4214\",\"37\",\"1\",\"Testing\",\"Stims/Figures/94-C-20-2.bmp\",\"mama:la\",\"Left\",\"37\",\"4\",\"15\",\"9\",\"S\",\"J\",\"87\"
\"\",\"\",\"approach-retreat\",\"236\",\"2078402\",\"0.0-236.0\",\"\",\"\",\"2-2\",\"4342\",\"38\",\"1\",\"Testing\",\"Stims/Figures/111-C-30-3.bmp\",\"pa:ka:ka\",\"Up\",\"38\",\"4\",\"16\",\"9\",\"P\",\"J\",\"88\"
\"\",\"\",\"approach-retreat\",\"237\",\"2084385\",\"0.0-237.0\",\"\",\"\",\"2-2\",\"4470\",\"38\",\"0\",\"Testing\",\"Stims/Figures/71-C-30-1.bmp\",\"pakata\",\"Down\",\"40\",\"4\",\"17\",\"9\",\"P\",\"J\",\"89\"
\"\",\"\",\"approach-retreat\",\"238\",\"2090254\",\"0.0-238.0\",\"\",\"\",\"2-2\",\"4361\",\"39\",\"1\",\"Testing\",\"Stims/Figures/144-C-30-3.bmp\",\"fasha:sha\",\"Right\",\"39\",\"4\",\"18\",\"9\",\"C1\",\"J\",\"90\"
\"\",\"\",\"approach-retreat\",\"239\",\"2096106\",\"0.0-239.0\",\"\",\"\",\"2-2\",\"4343\",\"37\",\"1\",\"Testing\",\"Stims/Figures/118-C-20-2.bmp\",\"zaha:za\",\"Left\",\"37\",\"4\",\"19\",\"9\",\"C2\",\"J\",\"91\"
\"\",\"\",\"approach-retreat\",\"240\",\"2102604\",\"0.0-240.0\",\"\",\"\",\"2-2\",\"4997\",\"40\",\"0\",\"Testing\",\"Stims/Figures/144-J-10-3.bmp\",\"za:haha\",\"Down\",\"38\",\"4\",\"20\",\"9\",\"C2\",\"J\",\"92\"
\"\",\"\",\"approach-retreat\",\"241\",\"2108601\",\"0.0-241.0\",\"\",\"\",\"2-2\",\"4484\",\"39\",\"0\",\"Testing\",\"Stims/Figures/118-J-0-2.bmp\",\"zasaza\",\"Right\",\"37\",\"4\",\"21\",\"9\",\"C2\",\"J\",\"93\"
\"\",\"\",\"approach-retreat\",\"242\",\"2115617\",\"0.0-242.0\",\"\",\"\",\"2-2\",\"5501\",\"40\",\"0\",\"Testing\",\"Stims/Figures/57-C-30-1.bmp\",\"papata\",\"Up\",\"38\",\"4\",\"22\",\"9\",\"P\",\"J\",\"94\"
\"\",\"\",\"approach-retreat\",\"243\",\"2121539\",\"0.0-243.0\",\"\",\"\",\"2-2\",\"4408\",\"38\",\"1\",\"Testing\",\"Stims/Figures/7-J-10-4.bmp\",\"ma:la:la\",\"Down\",\"38\",\"4\",\"23\",\"9\",\"S\",\"J\",\"95\"
\"\",\"\",\"approach-retreat\",\"244\",\"2127301\",\"0.0-244.0\",\"\",\"\",\"2-2\",\"4247\",\"39\",\"0\",\"Testing\",\"Stims/Figures/7-C-20-4.bmp\",\"va:sha:sha\",\"Left\",\"37\",\"4\",\"24\",\"9\",\"C1\",\"J\",\"96\"
\"29138\",\"\",\"survey-text\",\"245\",\"2156443\",\"0.0-245.0\",\"\",\"{\"\"Q0\"\":\"\"PS160072\"\"}\",\"\",\"\",\"\",\"\",\"\",\"\",\"\",\"\",\"\",\"\",\"\",\"\",\"\",\"\",\"\"
