\"rt\",\"key_press\",\"trial_type\",\"trial_index\",\"time_elapsed\",\"internal_node_id\",\"view_history\",\"responses\",\"Id\",\"Rt\",\"ResKeyCode\",\"ResCorr\",\"TrialType2\",\"Image\",\"Label\",\"Location\",\"CorrectResponse\",\"Block\",\"BlockTrial\",\"Condition\",\"LabelType\",\"Subcondition\",\"trialNum\"
\"70036\",\"32\",\"text\",\"0\",\"70056\",\"0.0-0.0-0.0\",\"\",\"\",\"\",\"\",\"\",\"\",\"\",\"\",\"\",\"\",\"\",\"\",\"\",\"\",\"\",\"\",\"\"
\"94386\",\"\",\"instructions\",\"1\",\"164452\",\"0.0-1.0\",\"[{\"\"page_index\"\":0,\"\"viewing_time\"\":94382}]\",\"\",\"\",\"\",\"\",\"\",\"\",\"\",\"\",\"\",\"\",\"\",\"\",\"\",\"\",\"\",\"\"
\"26713\",\"\",\"survey-multi-choice\",\"2\",\"191341\",\"0.0-2.0\",\"\",\"{\"\"Q0\"\":\"\"Da\"\",\"\"Q1\"\":\"\"Da\"\",\"\"Q2\"\":\"\"Da\"\",\"\"Q3\"\":\"\"Da\"\",\"\"Q4\"\":\"\"Da\"\",\"\"Q5\"\":\"\"Da\"\"}\",\"\",\"\",\"\",\"\",\"\",\"\",\"\",\"\",\"\",\"\",\"\",\"\",\"\",\"\",\"\"
\"\",\"\",\"bio\",\"3\",\"199269\",\"0.0-3.0\",\"\",\"{\"\"age\"\":\"\"20\"\",\"\"gender\"\":\"\"f\"\",\"\"specify\"\":\"\"\"\"}\",\"\",\"\",\"\",\"\",\"\",\"\",\"\",\"\",\"\",\"\",\"\",\"\",\"\",\"\",\"\"
\"\",\"\",\"approach-retreat\",\"4\",\"207639\",\"0.0-4.0\",\"\",\"\",\"3-1\",\"6822\",\"40\",\"0\",\"Training\",\"Stims/Figures/118-C-20-2.bmp\",\"None\",\"Up\",\"38\",\"1\",\"1\",\"10\",\"N\",\"J\",\"1\"
\"\",\"\",\"approach-retreat\",\"5\",\"214945\",\"0.0-5.0\",\"\",\"\",\"3-1\",\"5768\",\"38\",\"0\",\"Training\",\"Stims/Figures/27-J-0-1.bmp\",\"None\",\"Up\",\"40\",\"1\",\"2\",\"10\",\"N\",\"J\",\"2\"
\"\",\"\",\"approach-retreat\",\"6\",\"220714\",\"0.0-6.0\",\"\",\"\",\"3-1\",\"4240\",\"38\",\"0\",\"Training\",\"Stims/Figures/94-J-0-2.bmp\",\"None\",\"Up\",\"40\",\"1\",\"3\",\"10\",\"N\",\"J\",\"3\"
\"\",\"\",\"approach-retreat\",\"7\",\"226209\",\"0.0-7.0\",\"\",\"\",\"3-1\",\"3966\",\"38\",\"1\",\"Training\",\"Stims/Figures/94-C-20-2.bmp\",\"None\",\"Up\",\"38\",\"1\",\"4\",\"10\",\"N\",\"J\",\"4\"
\"\",\"\",\"approach-retreat\",\"8\",\"234388\",\"0.0-8.0\",\"\",\"\",\"3-1\",\"6648\",\"37\",\"0\",\"Training\",\"Stims/Figures/102-J-10-4.bmp\",\"None\",\"Left\",\"39\",\"1\",\"5\",\"10\",\"N\",\"J\",\"5\"
\"\",\"\",\"approach-retreat\",\"9\",\"242984\",\"0.0-9.0\",\"\",\"\",\"3-1\",\"7065\",\"40\",\"1\",\"Training\",\"Stims/Figures/74-C-20-4.bmp\",\"None\",\"Down\",\"40\",\"1\",\"6\",\"10\",\"N\",\"J\",\"6\"
\"\",\"\",\"approach-retreat\",\"10\",\"250120\",\"0.0-10.0\",\"\",\"\",\"3-1\",\"5602\",\"39\",\"0\",\"Training\",\"Stims/Figures/102-C-20-4.bmp\",\"None\",\"Left\",\"37\",\"1\",\"7\",\"10\",\"N\",\"J\",\"7\"
\"\",\"\",\"approach-retreat\",\"11\",\"256636\",\"0.0-11.0\",\"\",\"\",\"3-1\",\"4983\",\"40\",\"1\",\"Training\",\"Stims/Figures/144-C-30-3.bmp\",\"None\",\"Down\",\"40\",\"1\",\"8\",\"10\",\"N\",\"J\",\"8\"
\"\",\"\",\"approach-retreat\",\"12\",\"265015\",\"0.0-12.0\",\"\",\"\",\"3-1\",\"6842\",\"37\",\"0\",\"Training\",\"Stims/Figures/144-J-10-3.bmp\",\"None\",\"Left\",\"39\",\"1\",\"9\",\"10\",\"N\",\"J\",\"9\"
\"\",\"\",\"approach-retreat\",\"13\",\"272290\",\"0.0-13.0\",\"\",\"\",\"3-1\",\"5746\",\"39\",\"0\",\"Training\",\"Stims/Figures/111-J-10-3.bmp\",\"None\",\"Right\",\"37\",\"1\",\"10\",\"10\",\"N\",\"J\",\"10\"
\"\",\"\",\"approach-retreat\",\"14\",\"280156\",\"0.0-14.0\",\"\",\"\",\"3-1\",\"6334\",\"40\",\"0\",\"Training\",\"Stims/Figures/74-J-10-4.bmp\",\"None\",\"Down\",\"38\",\"1\",\"11\",\"10\",\"N\",\"J\",\"11\"
\"\",\"\",\"approach-retreat\",\"15\",\"287144\",\"0.0-15.0\",\"\",\"\",\"3-1\",\"5460\",\"39\",\"1\",\"Training\",\"Stims/Figures/86-C-30-1.bmp\",\"None\",\"Right\",\"39\",\"1\",\"12\",\"10\",\"N\",\"J\",\"12\"
\"\",\"\",\"approach-retreat\",\"16\",\"293512\",\"0.0-16.0\",\"\",\"\",\"3-1\",\"4839\",\"37\",\"0\",\"Training\",\"Stims/Figures/27-C-30-1.bmp\",\"None\",\"Right\",\"39\",\"1\",\"13\",\"10\",\"N\",\"J\",\"13\"
\"\",\"\",\"approach-retreat\",\"17\",\"300067\",\"0.0-17.0\",\"\",\"\",\"3-1\",\"5025\",\"39\",\"0\",\"Training\",\"Stims/Figures/118-J-0-2.bmp\",\"None\",\"Right\",\"37\",\"1\",\"14\",\"10\",\"N\",\"J\",\"14\"
\"\",\"\",\"approach-retreat\",\"18\",\"306296\",\"0.0-18.0\",\"\",\"\",\"3-1\",\"4702\",\"39\",\"0\",\"Training\",\"Stims/Figures/111-C-30-3.bmp\",\"None\",\"Left\",\"37\",\"1\",\"15\",\"10\",\"N\",\"J\",\"15\"
\"\",\"\",\"approach-retreat\",\"19\",\"312339\",\"0.0-19.0\",\"\",\"\",\"3-1\",\"4509\",\"40\",\"0\",\"Training\",\"Stims/Figures/86-J-0-1.bmp\",\"None\",\"Down\",\"38\",\"1\",\"16\",\"10\",\"N\",\"J\",\"16\"
\"\",\"\",\"approach-retreat\",\"20\",\"318143\",\"0.0-20.0\",\"\",\"\",\"3-1\",\"4274\",\"40\",\"0\",\"Training\",\"Stims/Figures/74-C-20-4.bmp\",\"None\",\"Up\",\"38\",\"2\",\"1\",\"10\",\"N\",\"J\",\"17\"
\"\",\"\",\"approach-retreat\",\"21\",\"324347\",\"0.0-21.0\",\"\",\"\",\"3-1\",\"4673\",\"38\",\"0\",\"Training\",\"Stims/Figures/118-J-0-2.bmp\",\"None\",\"Up\",\"40\",\"2\",\"2\",\"10\",\"N\",\"J\",\"18\"
\"\",\"\",\"approach-retreat\",\"22\",\"330774\",\"0.0-22.0\",\"\",\"\",\"3-1\",\"4897\",\"40\",\"0\",\"Training\",\"Stims/Figures/86-J-0-1.bmp\",\"None\",\"Down\",\"38\",\"2\",\"3\",\"10\",\"N\",\"J\",\"19\"
\"\",\"\",\"approach-retreat\",\"23\",\"337422\",\"0.0-23.0\",\"\",\"\",\"3-1\",\"5120\",\"38\",\"0\",\"Training\",\"Stims/Figures/144-C-30-3.bmp\",\"None\",\"Down\",\"40\",\"2\",\"4\",\"10\",\"N\",\"J\",\"20\"
\"\",\"\",\"approach-retreat\",\"24\",\"344346\",\"0.0-24.0\",\"\",\"\",\"3-1\",\"5393\",\"38\",\"1\",\"Training\",\"Stims/Figures/111-J-10-3.bmp\",\"None\",\"Down\",\"38\",\"2\",\"5\",\"10\",\"N\",\"J\",\"21\"
\"\",\"\",\"approach-retreat\",\"25\",\"350962\",\"0.0-25.0\",\"\",\"\",\"3-1\",\"5083\",\"39\",\"0\",\"Training\",\"Stims/Figures/102-C-20-4.bmp\",\"None\",\"Left\",\"37\",\"2\",\"6\",\"10\",\"N\",\"J\",\"22\"
\"\",\"\",\"approach-retreat\",\"26\",\"357421\",\"0.0-26.0\",\"\",\"\",\"3-1\",\"4926\",\"39\",\"1\",\"Training\",\"Stims/Figures/94-J-0-2.bmp\",\"None\",\"Left\",\"39\",\"2\",\"7\",\"10\",\"N\",\"J\",\"23\"
\"\",\"\",\"approach-retreat\",\"27\",\"363720\",\"0.0-27.0\",\"\",\"\",\"3-1\",\"4768\",\"38\",\"0\",\"Training\",\"Stims/Figures/118-C-20-2.bmp\",\"None\",\"Down\",\"40\",\"2\",\"8\",\"10\",\"N\",\"J\",\"24\"
\"\",\"\",\"approach-retreat\",\"28\",\"370076\",\"0.0-28.0\",\"\",\"\",\"3-1\",\"4824\",\"37\",\"1\",\"Training\",\"Stims/Figures/144-J-10-3.bmp\",\"None\",\"Right\",\"37\",\"2\",\"9\",\"10\",\"N\",\"J\",\"25\"
\"\",\"\",\"approach-retreat\",\"29\",\"376053\",\"0.0-29.0\",\"\",\"\",\"3-1\",\"4447\",\"39\",\"0\",\"Training\",\"Stims/Figures/86-C-30-1.bmp\",\"None\",\"Left\",\"37\",\"2\",\"10\",\"10\",\"N\",\"J\",\"26\"
\"\",\"\",\"approach-retreat\",\"30\",\"382144\",\"0.0-30.0\",\"\",\"\",\"3-1\",\"4563\",\"37\",\"0\",\"Training\",\"Stims/Figures/94-C-20-2.bmp\",\"None\",\"Right\",\"39\",\"2\",\"11\",\"10\",\"N\",\"J\",\"27\"
\"\",\"\",\"approach-retreat\",\"31\",\"388081\",\"0.0-31.0\",\"\",\"\",\"3-1\",\"4402\",\"40\",\"0\",\"Training\",\"Stims/Figures/111-C-30-3.bmp\",\"None\",\"Up\",\"38\",\"2\",\"12\",\"10\",\"N\",\"J\",\"28\"
\"\",\"\",\"approach-retreat\",\"32\",\"394526\",\"0.0-32.0\",\"\",\"\",\"3-1\",\"4914\",\"39\",\"1\",\"Training\",\"Stims/Figures/27-C-30-1.bmp\",\"None\",\"Right\",\"39\",\"2\",\"13\",\"10\",\"N\",\"J\",\"29\"
\"\",\"\",\"approach-retreat\",\"33\",\"400902\",\"0.0-33.0\",\"\",\"\",\"3-1\",\"4845\",\"38\",\"0\",\"Training\",\"Stims/Figures/102-J-10-4.bmp\",\"None\",\"Up\",\"40\",\"2\",\"14\",\"10\",\"N\",\"J\",\"30\"
\"\",\"\",\"approach-retreat\",\"34\",\"406875\",\"0.0-34.0\",\"\",\"\",\"3-1\",\"4446\",\"39\",\"1\",\"Training\",\"Stims/Figures/27-J-0-1.bmp\",\"None\",\"Left\",\"39\",\"2\",\"15\",\"10\",\"N\",\"J\",\"31\"
\"\",\"\",\"approach-retreat\",\"35\",\"413063\",\"0.0-35.0\",\"\",\"\",\"3-1\",\"4656\",\"39\",\"0\",\"Training\",\"Stims/Figures/74-J-10-4.bmp\",\"None\",\"Right\",\"37\",\"2\",\"16\",\"10\",\"N\",\"J\",\"32\"
\"\",\"\",\"approach-retreat\",\"36\",\"419034\",\"0.0-36.0\",\"\",\"\",\"3-1\",\"4441\",\"37\",\"1\",\"Training\",\"Stims/Figures/74-J-10-4.bmp\",\"None\",\"Right\",\"37\",\"3\",\"1\",\"10\",\"N\",\"J\",\"33\"
\"\",\"\",\"approach-retreat\",\"37\",\"424970\",\"0.0-37.0\",\"\",\"\",\"3-1\",\"4406\",\"39\",\"1\",\"Training\",\"Stims/Figures/144-J-10-3.bmp\",\"None\",\"Left\",\"39\",\"3\",\"2\",\"10\",\"N\",\"J\",\"34\"
\"\",\"\",\"approach-retreat\",\"38\",\"431067\",\"0.0-38.0\",\"\",\"\",\"3-1\",\"4565\",\"40\",\"1\",\"Training\",\"Stims/Figures/94-J-0-2.bmp\",\"None\",\"Up\",\"40\",\"3\",\"3\",\"10\",\"N\",\"J\",\"35\"
\"\",\"\",\"approach-retreat\",\"39\",\"437345\",\"0.0-39.0\",\"\",\"\",\"3-1\",\"4735\",\"39\",\"1\",\"Training\",\"Stims/Figures/86-C-30-1.bmp\",\"None\",\"Right\",\"39\",\"3\",\"4\",\"10\",\"N\",\"J\",\"36\"
\"\",\"\",\"approach-retreat\",\"40\",\"444097\",\"0.0-40.0\",\"\",\"\",\"3-1\",\"5220\",\"39\",\"1\",\"Training\",\"Stims/Figures/102-C-20-4.bmp\",\"None\",\"Right\",\"39\",\"3\",\"5\",\"10\",\"N\",\"J\",\"37\"
\"\",\"\",\"approach-retreat\",\"41\",\"450234\",\"0.0-41.0\",\"\",\"\",\"3-1\",\"4609\",\"38\",\"0\",\"Training\",\"Stims/Figures/118-C-20-2.bmp\",\"None\",\"Down\",\"40\",\"3\",\"6\",\"10\",\"N\",\"J\",\"38\"
\"\",\"\",\"approach-retreat\",\"42\",\"456307\",\"0.0-42.0\",\"\",\"\",\"3-1\",\"4544\",\"40\",\"0\",\"Training\",\"Stims/Figures/74-C-20-4.bmp\",\"None\",\"Up\",\"38\",\"3\",\"7\",\"10\",\"N\",\"J\",\"39\"
\"\",\"\",\"approach-retreat\",\"43\",\"462219\",\"0.0-43.0\",\"\",\"\",\"3-1\",\"4385\",\"39\",\"0\",\"Training\",\"Stims/Figures/111-C-30-3.bmp\",\"None\",\"Left\",\"37\",\"3\",\"8\",\"10\",\"N\",\"J\",\"40\"
\"\",\"\",\"approach-retreat\",\"44\",\"468762\",\"0.0-44.0\",\"\",\"\",\"3-1\",\"5012\",\"37\",\"1\",\"Training\",\"Stims/Figures/86-J-0-1.bmp\",\"None\",\"Right\",\"37\",\"3\",\"9\",\"10\",\"N\",\"J\",\"41\"
\"\",\"\",\"approach-retreat\",\"45\",\"475671\",\"0.0-45.0\",\"\",\"\",\"3-1\",\"5378\",\"39\",\"1\",\"Training\",\"Stims/Figures/27-J-0-1.bmp\",\"None\",\"Left\",\"39\",\"3\",\"10\",\"10\",\"N\",\"J\",\"42\"
\"\",\"\",\"approach-retreat\",\"46\",\"481694\",\"0.0-46.0\",\"\",\"\",\"3-1\",\"4492\",\"38\",\"0\",\"Training\",\"Stims/Figures/144-C-30-3.bmp\",\"None\",\"Down\",\"40\",\"3\",\"11\",\"10\",\"N\",\"J\",\"43\"
\"\",\"\",\"approach-retreat\",\"47\",\"487698\",\"0.0-47.0\",\"\",\"\",\"3-1\",\"4477\",\"38\",\"1\",\"Training\",\"Stims/Figures/118-J-0-2.bmp\",\"None\",\"Down\",\"38\",\"3\",\"12\",\"10\",\"N\",\"J\",\"44\"
\"\",\"\",\"approach-retreat\",\"48\",\"493496\",\"0.0-48.0\",\"\",\"\",\"3-1\",\"4268\",\"38\",\"1\",\"Training\",\"Stims/Figures/111-J-10-3.bmp\",\"None\",\"Down\",\"38\",\"3\",\"13\",\"10\",\"N\",\"J\",\"45\"
\"\",\"\",\"approach-retreat\",\"49\",\"499747\",\"0.0-49.0\",\"\",\"\",\"3-1\",\"4719\",\"40\",\"0\",\"Training\",\"Stims/Figures/27-C-30-1.bmp\",\"None\",\"Up\",\"38\",\"3\",\"14\",\"10\",\"N\",\"J\",\"46\"
\"\",\"\",\"approach-retreat\",\"50\",\"505667\",\"0.0-50.0\",\"\",\"\",\"3-1\",\"4392\",\"40\",\"1\",\"Training\",\"Stims/Figures/102-J-10-4.bmp\",\"None\",\"Up\",\"40\",\"3\",\"15\",\"10\",\"N\",\"J\",\"47\"
\"\",\"\",\"approach-retreat\",\"51\",\"511827\",\"0.0-51.0\",\"\",\"\",\"3-1\",\"4633\",\"37\",\"1\",\"Training\",\"Stims/Figures/94-C-20-2.bmp\",\"None\",\"Left\",\"37\",\"3\",\"16\",\"10\",\"N\",\"J\",\"48\"
\"\",\"\",\"approach-retreat\",\"52\",\"519341\",\"0.0-52.0\",\"\",\"\",\"3-1\",\"5981\",\"40\",\"1\",\"Training\",\"Stims/Figures/74-C-20-4.bmp\",\"None\",\"Down\",\"40\",\"4\",\"1\",\"10\",\"N\",\"J\",\"49\"
\"\",\"\",\"approach-retreat\",\"53\",\"525654\",\"0.0-53.0\",\"\",\"\",\"3-1\",\"4779\",\"37\",\"0\",\"Training\",\"Stims/Figures/74-J-10-4.bmp\",\"None\",\"Left\",\"39\",\"4\",\"2\",\"10\",\"N\",\"J\",\"50\"
\"\",\"\",\"approach-retreat\",\"54\",\"531600\",\"0.0-54.0\",\"\",\"\",\"3-1\",\"4418\",\"37\",\"0\",\"Training\",\"Stims/Figures/111-C-30-3.bmp\",\"None\",\"Right\",\"39\",\"4\",\"3\",\"10\",\"N\",\"J\",\"51\"
\"\",\"\",\"approach-retreat\",\"55\",\"537730\",\"0.0-55.0\",\"\",\"\",\"3-1\",\"4601\",\"40\",\"1\",\"Training\",\"Stims/Figures/111-J-10-3.bmp\",\"None\",\"Up\",\"40\",\"4\",\"4\",\"10\",\"N\",\"J\",\"52\"
\"\",\"\",\"approach-retreat\",\"56\",\"543683\",\"0.0-56.0\",\"\",\"\",\"3-1\",\"4422\",\"37\",\"0\",\"Training\",\"Stims/Figures/102-C-20-4.bmp\",\"None\",\"Right\",\"39\",\"4\",\"5\",\"10\",\"N\",\"J\",\"53\"
\"\",\"\",\"approach-retreat\",\"57\",\"549643\",\"0.0-57.0\",\"\",\"\",\"3-1\",\"4430\",\"40\",\"1\",\"Training\",\"Stims/Figures/86-J-0-1.bmp\",\"None\",\"Up\",\"40\",\"4\",\"6\",\"10\",\"N\",\"J\",\"54\"
\"\",\"\",\"approach-retreat\",\"58\",\"555871\",\"0.0-58.0\",\"\",\"\",\"3-1\",\"4699\",\"39\",\"1\",\"Training\",\"Stims/Figures/102-J-10-4.bmp\",\"None\",\"Left\",\"39\",\"4\",\"7\",\"10\",\"N\",\"J\",\"55\"
\"\",\"\",\"approach-retreat\",\"59\",\"562251\",\"0.0-59.0\",\"\",\"\",\"3-1\",\"4851\",\"38\",\"0\",\"Training\",\"Stims/Figures/118-C-20-2.bmp\",\"None\",\"Down\",\"40\",\"4\",\"8\",\"10\",\"N\",\"J\",\"56\"
\"\",\"\",\"approach-retreat\",\"60\",\"568180\",\"0.0-60.0\",\"\",\"\",\"3-1\",\"4401\",\"38\",\"0\",\"Training\",\"Stims/Figures/144-C-30-3.bmp\",\"None\",\"Down\",\"40\",\"4\",\"9\",\"10\",\"N\",\"J\",\"57\"
\"\",\"\",\"approach-retreat\",\"61\",\"574211\",\"0.0-61.0\",\"\",\"\",\"3-1\",\"4503\",\"37\",\"0\",\"Training\",\"Stims/Figures/94-J-0-2.bmp\",\"None\",\"Left\",\"39\",\"4\",\"10\",\"10\",\"N\",\"J\",\"58\"
\"\",\"\",\"approach-retreat\",\"62\",\"580131\",\"0.0-62.0\",\"\",\"\",\"3-1\",\"4388\",\"38\",\"1\",\"Training\",\"Stims/Figures/86-C-30-1.bmp\",\"None\",\"Up\",\"38\",\"4\",\"11\",\"10\",\"N\",\"J\",\"59\"
\"\",\"\",\"approach-retreat\",\"63\",\"586005\",\"0.0-63.0\",\"\",\"\",\"3-1\",\"4340\",\"40\",\"0\",\"Training\",\"Stims/Figures/27-J-0-1.bmp\",\"None\",\"Down\",\"38\",\"4\",\"12\",\"10\",\"N\",\"J\",\"60\"
\"\",\"\",\"approach-retreat\",\"64\",\"591886\",\"0.0-64.0\",\"\",\"\",\"3-1\",\"4348\",\"39\",\"0\",\"Training\",\"Stims/Figures/27-C-30-1.bmp\",\"None\",\"Left\",\"37\",\"4\",\"13\",\"10\",\"N\",\"J\",\"61\"
\"\",\"\",\"approach-retreat\",\"65\",\"597613\",\"0.0-65.0\",\"\",\"\",\"3-1\",\"4198\",\"39\",\"0\",\"Training\",\"Stims/Figures/118-J-0-2.bmp\",\"None\",\"Right\",\"37\",\"4\",\"14\",\"10\",\"N\",\"J\",\"62\"
\"\",\"\",\"approach-retreat\",\"66\",\"603040\",\"0.0-66.0\",\"\",\"\",\"3-1\",\"3898\",\"37\",\"1\",\"Training\",\"Stims/Figures/144-J-10-3.bmp\",\"None\",\"Right\",\"37\",\"4\",\"15\",\"10\",\"N\",\"J\",\"63\"
\"\",\"\",\"approach-retreat\",\"67\",\"609990\",\"0.0-67.0\",\"\",\"\",\"3-1\",\"5422\",\"40\",\"0\",\"Training\",\"Stims/Figures/94-C-20-2.bmp\",\"None\",\"Up\",\"38\",\"4\",\"16\",\"10\",\"N\",\"J\",\"64\"
\"\",\"\",\"approach-retreat\",\"68\",\"615939\",\"0.0-68.0\",\"\",\"\",\"3-1\",\"4421\",\"38\",\"0\",\"Training\",\"Stims/Figures/27-C-30-1.bmp\",\"None\",\"Down\",\"40\",\"5\",\"1\",\"10\",\"N\",\"J\",\"65\"
\"\",\"\",\"approach-retreat\",\"69\",\"622369\",\"0.0-69.0\",\"\",\"\",\"3-1\",\"4901\",\"39\",\"1\",\"Training\",\"Stims/Figures/102-C-20-4.bmp\",\"None\",\"Right\",\"39\",\"5\",\"2\",\"10\",\"N\",\"J\",\"66\"
\"\",\"\",\"approach-retreat\",\"70\",\"628180\",\"0.0-70.0\",\"\",\"\",\"3-1\",\"4277\",\"37\",\"1\",\"Training\",\"Stims/Figures/74-J-10-4.bmp\",\"None\",\"Right\",\"37\",\"5\",\"3\",\"10\",\"N\",\"J\",\"67\"
\"\",\"\",\"approach-retreat\",\"71\",\"634342\",\"0.0-71.0\",\"\",\"\",\"3-1\",\"4632\",\"40\",\"1\",\"Training\",\"Stims/Figures/111-J-10-3.bmp\",\"None\",\"Up\",\"40\",\"5\",\"4\",\"10\",\"N\",\"J\",\"68\"
\"\",\"\",\"approach-retreat\",\"72\",\"641256\",\"0.0-72.0\",\"\",\"\",\"3-1\",\"5384\",\"38\",\"1\",\"Training\",\"Stims/Figures/102-J-10-4.bmp\",\"None\",\"Down\",\"38\",\"5\",\"5\",\"10\",\"N\",\"J\",\"69\"
\"\",\"\",\"approach-retreat\",\"73\",\"648034\",\"0.0-73.0\",\"\",\"\",\"3-1\",\"5246\",\"39\",\"0\",\"Training\",\"Stims/Figures/118-J-0-2.bmp\",\"None\",\"Right\",\"37\",\"5\",\"6\",\"10\",\"N\",\"J\",\"70\"
\"\",\"\",\"approach-retreat\",\"74\",\"654202\",\"0.0-74.0\",\"\",\"\",\"3-1\",\"4639\",\"39\",\"0\",\"Training\",\"Stims/Figures/86-C-30-1.bmp\",\"None\",\"Left\",\"37\",\"5\",\"7\",\"10\",\"N\",\"J\",\"71\"
\"\",\"\",\"approach-retreat\",\"75\",\"660207\",\"0.0-75.0\",\"\",\"\",\"3-1\",\"4475\",\"38\",\"0\",\"Training\",\"Stims/Figures/111-C-30-3.bmp\",\"None\",\"Down\",\"40\",\"5\",\"8\",\"10\",\"N\",\"J\",\"72\"
\"\",\"\",\"approach-retreat\",\"76\",\"666324\",\"0.0-76.0\",\"\",\"\",\"3-1\",\"4589\",\"39\",\"0\",\"Training\",\"Stims/Figures/74-C-20-4.bmp\",\"None\",\"Left\",\"37\",\"5\",\"9\",\"10\",\"N\",\"J\",\"73\"
\"\",\"\",\"approach-retreat\",\"77\",\"672708\",\"0.0-77.0\",\"\",\"\",\"3-1\",\"4853\",\"37\",\"0\",\"Training\",\"Stims/Figures/94-J-0-2.bmp\",\"None\",\"Left\",\"39\",\"5\",\"10\",\"10\",\"N\",\"J\",\"74\"
\"\",\"\",\"approach-retreat\",\"78\",\"678802\",\"0.0-78.0\",\"\",\"\",\"3-1\",\"4561\",\"38\",\"1\",\"Training\",\"Stims/Figures/86-J-0-1.bmp\",\"None\",\"Down\",\"38\",\"5\",\"11\",\"10\",\"N\",\"J\",\"75\"
\"\",\"\",\"approach-retreat\",\"79\",\"685010\",\"0.0-79.0\",\"\",\"\",\"3-1\",\"4674\",\"37\",\"1\",\"Training\",\"Stims/Figures/144-J-10-3.bmp\",\"None\",\"Right\",\"37\",\"5\",\"12\",\"10\",\"N\",\"J\",\"76\"
\"\",\"\",\"approach-retreat\",\"80\",\"690729\",\"0.0-80.0\",\"\",\"\",\"3-1\",\"4180\",\"40\",\"0\",\"Training\",\"Stims/Figures/94-C-20-2.bmp\",\"None\",\"Up\",\"38\",\"5\",\"13\",\"10\",\"N\",\"J\",\"77\"
\"\",\"\",\"approach-retreat\",\"81\",\"696974\",\"0.0-81.0\",\"\",\"\",\"3-1\",\"4717\",\"37\",\"1\",\"Training\",\"Stims/Figures/118-C-20-2.bmp\",\"None\",\"Left\",\"37\",\"5\",\"14\",\"10\",\"N\",\"J\",\"78\"
\"\",\"\",\"approach-retreat\",\"82\",\"703252\",\"0.0-82.0\",\"\",\"\",\"3-1\",\"4739\",\"40\",\"1\",\"Training\",\"Stims/Figures/27-J-0-1.bmp\",\"None\",\"Up\",\"40\",\"5\",\"15\",\"10\",\"N\",\"J\",\"79\"
\"\",\"\",\"approach-retreat\",\"83\",\"709942\",\"0.0-83.0\",\"\",\"\",\"3-1\",\"5157\",\"38\",\"1\",\"Training\",\"Stims/Figures/144-C-30-3.bmp\",\"None\",\"Up\",\"38\",\"5\",\"16\",\"10\",\"N\",\"J\",\"80\"
\"\",\"\",\"approach-retreat\",\"84\",\"719541\",\"0.0-84.0\",\"\",\"\",\"3-1\",\"8067\",\"39\",\"1\",\"Training\",\"Stims/Figures/94-J-0-2.bmp\",\"None\",\"Left\",\"39\",\"6\",\"1\",\"10\",\"N\",\"J\",\"81\"
\"\",\"\",\"approach-retreat\",\"85\",\"726088\",\"0.0-85.0\",\"\",\"\",\"3-1\",\"5018\",\"40\",\"1\",\"Training\",\"Stims/Figures/94-C-20-2.bmp\",\"None\",\"Down\",\"40\",\"6\",\"2\",\"10\",\"N\",\"J\",\"82\"
\"\",\"\",\"approach-retreat\",\"86\",\"733964\",\"0.0-86.0\",\"\",\"\",\"3-1\",\"6344\",\"37\",\"1\",\"Training\",\"Stims/Figures/102-C-20-4.bmp\",\"None\",\"Left\",\"37\",\"6\",\"3\",\"10\",\"N\",\"J\",\"83\"
\"\",\"\",\"approach-retreat\",\"87\",\"740752\",\"0.0-87.0\",\"\",\"\",\"3-1\",\"5260\",\"40\",\"0\",\"Training\",\"Stims/Figures/102-J-10-4.bmp\",\"None\",\"Down\",\"38\",\"6\",\"4\",\"10\",\"N\",\"J\",\"84\"
\"\",\"\",\"approach-retreat\",\"88\",\"746772\",\"0.0-88.0\",\"\",\"\",\"3-1\",\"4490\",\"37\",\"1\",\"Training\",\"Stims/Figures/27-J-0-1.bmp\",\"None\",\"Right\",\"37\",\"6\",\"5\",\"10\",\"N\",\"J\",\"85\"
\"\",\"\",\"approach-retreat\",\"89\",\"753233\",\"0.0-89.0\",\"\",\"\",\"3-1\",\"4932\",\"38\",\"1\",\"Training\",\"Stims/Figures/144-C-30-3.bmp\",\"None\",\"Up\",\"38\",\"6\",\"6\",\"10\",\"N\",\"J\",\"86\"
\"\",\"\",\"approach-retreat\",\"90\",\"760409\",\"0.0-90.0\",\"\",\"\",\"3-1\",\"5645\",\"40\",\"0\",\"Training\",\"Stims/Figures/74-J-10-4.bmp\",\"None\",\"Down\",\"38\",\"6\",\"7\",\"10\",\"N\",\"J\",\"87\"
\"\",\"\",\"approach-retreat\",\"91\",\"767058\",\"0.0-91.0\",\"\",\"\",\"3-1\",\"5122\",\"37\",\"1\",\"Training\",\"Stims/Figures/86-C-30-1.bmp\",\"None\",\"Left\",\"37\",\"6\",\"8\",\"10\",\"N\",\"J\",\"88\"
\"\",\"\",\"approach-retreat\",\"92\",\"773143\",\"0.0-92.0\",\"\",\"\",\"3-1\",\"4555\",\"40\",\"1\",\"Training\",\"Stims/Figures/86-J-0-1.bmp\",\"None\",\"Up\",\"40\",\"6\",\"9\",\"10\",\"N\",\"J\",\"89\"
\"\",\"\",\"approach-retreat\",\"93\",\"781549\",\"0.0-93.0\",\"\",\"\",\"3-1\",\"6876\",\"39\",\"1\",\"Training\",\"Stims/Figures/74-C-20-4.bmp\",\"None\",\"Right\",\"39\",\"6\",\"10\",\"10\",\"N\",\"J\",\"90\"
\"\",\"\",\"approach-retreat\",\"94\",\"787478\",\"0.0-94.0\",\"\",\"\",\"3-1\",\"4401\",\"38\",\"1\",\"Training\",\"Stims/Figures/111-C-30-3.bmp\",\"None\",\"Up\",\"38\",\"6\",\"11\",\"10\",\"N\",\"J\",\"91\"
\"\",\"\",\"approach-retreat\",\"95\",\"793528\",\"0.0-95.0\",\"\",\"\",\"3-1\",\"4518\",\"37\",\"1\",\"Training\",\"Stims/Figures/118-J-0-2.bmp\",\"None\",\"Right\",\"37\",\"6\",\"12\",\"10\",\"N\",\"J\",\"92\"
\"\",\"\",\"approach-retreat\",\"96\",\"799459\",\"0.0-96.0\",\"\",\"\",\"3-1\",\"4399\",\"38\",\"1\",\"Training\",\"Stims/Figures/144-J-10-3.bmp\",\"None\",\"Down\",\"38\",\"6\",\"13\",\"10\",\"N\",\"J\",\"93\"
\"\",\"\",\"approach-retreat\",\"97\",\"805431\",\"0.0-97.0\",\"\",\"\",\"3-1\",\"4443\",\"39\",\"1\",\"Training\",\"Stims/Figures/111-J-10-3.bmp\",\"None\",\"Left\",\"39\",\"6\",\"14\",\"10\",\"N\",\"J\",\"94\"
\"\",\"\",\"approach-retreat\",\"98\",\"811855\",\"0.0-98.0\",\"\",\"\",\"3-1\",\"4890\",\"39\",\"1\",\"Training\",\"Stims/Figures/27-C-30-1.bmp\",\"None\",\"Right\",\"39\",\"6\",\"15\",\"10\",\"N\",\"J\",\"95\"
\"\",\"\",\"approach-retreat\",\"99\",\"817937\",\"0.0-99.0\",\"\",\"\",\"3-1\",\"4551\",\"38\",\"1\",\"Training\",\"Stims/Figures/118-C-20-2.bmp\",\"None\",\"Up\",\"38\",\"6\",\"16\",\"10\",\"N\",\"J\",\"96\"
\"\",\"\",\"approach-retreat\",\"100\",\"827478\",\"0.0-100.0\",\"\",\"\",\"3-1\",\"8011\",\"40\",\"1\",\"Training\",\"Stims/Figures/27-J-0-1.bmp\",\"None\",\"Up\",\"40\",\"7\",\"1\",\"10\",\"N\",\"J\",\"97\"
\"\",\"\",\"approach-retreat\",\"101\",\"833561\",\"0.0-101.0\",\"\",\"\",\"3-1\",\"4554\",\"39\",\"1\",\"Training\",\"Stims/Figures/144-C-30-3.bmp\",\"None\",\"Right\",\"39\",\"7\",\"2\",\"10\",\"N\",\"J\",\"98\"
\"\",\"\",\"approach-retreat\",\"102\",\"839538\",\"0.0-102.0\",\"\",\"\",\"3-1\",\"4447\",\"39\",\"1\",\"Training\",\"Stims/Figures/94-C-20-2.bmp\",\"None\",\"Right\",\"39\",\"7\",\"3\",\"10\",\"N\",\"J\",\"99\"
\"\",\"\",\"approach-retreat\",\"103\",\"845876\",\"0.0-103.0\",\"\",\"\",\"3-1\",\"4808\",\"38\",\"1\",\"Training\",\"Stims/Figures/118-J-0-2.bmp\",\"None\",\"Down\",\"38\",\"7\",\"4\",\"10\",\"N\",\"J\",\"100\"
\"\",\"\",\"approach-retreat\",\"104\",\"854226\",\"0.0-104.0\",\"\",\"\",\"3-1\",\"6821\",\"38\",\"1\",\"Training\",\"Stims/Figures/86-J-0-1.bmp\",\"None\",\"Down\",\"38\",\"7\",\"5\",\"10\",\"N\",\"J\",\"101\"
\"\",\"\",\"approach-retreat\",\"105\",\"859963\",\"0.0-105.0\",\"\",\"\",\"3-1\",\"4208\",\"40\",\"1\",\"Training\",\"Stims/Figures/74-C-20-4.bmp\",\"None\",\"Down\",\"40\",\"7\",\"6\",\"10\",\"N\",\"J\",\"102\"
\"\",\"\",\"approach-retreat\",\"106\",\"869183\",\"0.0-106.0\",\"\",\"\",\"3-1\",\"7693\",\"39\",\"1\",\"Training\",\"Stims/Figures/102-C-20-4.bmp\",\"None\",\"Right\",\"39\",\"7\",\"7\",\"10\",\"N\",\"J\",\"103\"
\"\",\"\",\"approach-retreat\",\"107\",\"875171\",\"0.0-107.0\",\"\",\"\",\"3-1\",\"4458\",\"39\",\"0\",\"Training\",\"Stims/Figures/27-C-30-1.bmp\",\"None\",\"Left\",\"37\",\"7\",\"8\",\"10\",\"N\",\"J\",\"104\"
\"\",\"\",\"approach-retreat\",\"108\",\"882005\",\"0.0-108.0\",\"\",\"\",\"3-1\",\"5304\",\"37\",\"1\",\"Training\",\"Stims/Figures/118-C-20-2.bmp\",\"None\",\"Left\",\"37\",\"7\",\"9\",\"10\",\"N\",\"J\",\"105\"
\"\",\"\",\"approach-retreat\",\"109\",\"888937\",\"0.0-109.0\",\"\",\"\",\"3-1\",\"5402\",\"38\",\"1\",\"Training\",\"Stims/Figures/86-C-30-1.bmp\",\"None\",\"Up\",\"38\",\"7\",\"10\",\"10\",\"N\",\"J\",\"106\"
\"\",\"\",\"approach-retreat\",\"110\",\"896620\",\"0.0-110.0\",\"\",\"\",\"3-1\",\"6148\",\"40\",\"0\",\"Training\",\"Stims/Figures/102-J-10-4.bmp\",\"None\",\"Down\",\"38\",\"7\",\"11\",\"10\",\"N\",\"J\",\"107\"
\"\",\"\",\"approach-retreat\",\"111\",\"902423\",\"0.0-111.0\",\"\",\"\",\"3-1\",\"4270\",\"40\",\"1\",\"Training\",\"Stims/Figures/94-J-0-2.bmp\",\"None\",\"Up\",\"40\",\"7\",\"12\",\"10\",\"N\",\"J\",\"108\"
\"\",\"\",\"approach-retreat\",\"112\",\"909792\",\"0.0-112.0\",\"\",\"\",\"3-1\",\"5837\",\"37\",\"0\",\"Training\",\"Stims/Figures/111-J-10-3.bmp\",\"None\",\"Left\",\"39\",\"7\",\"13\",\"10\",\"N\",\"J\",\"109\"
\"\",\"\",\"approach-retreat\",\"113\",\"916463\",\"0.0-113.0\",\"\",\"\",\"3-1\",\"5140\",\"37\",\"1\",\"Training\",\"Stims/Figures/74-J-10-4.bmp\",\"None\",\"Right\",\"37\",\"7\",\"14\",\"10\",\"N\",\"J\",\"110\"
\"\",\"\",\"approach-retreat\",\"114\",\"922216\",\"0.0-114.0\",\"\",\"\",\"3-1\",\"4224\",\"40\",\"1\",\"Training\",\"Stims/Figures/144-J-10-3.bmp\",\"None\",\"Up\",\"40\",\"7\",\"15\",\"10\",\"N\",\"J\",\"111\"
\"\",\"\",\"approach-retreat\",\"115\",\"928797\",\"0.0-115.0\",\"\",\"\",\"3-1\",\"5050\",\"37\",\"1\",\"Training\",\"Stims/Figures/111-C-30-3.bmp\",\"None\",\"Left\",\"37\",\"7\",\"16\",\"10\",\"N\",\"J\",\"112\"
\"\",\"\",\"approach-retreat\",\"116\",\"935416\",\"0.0-116.0\",\"\",\"\",\"3-1\",\"5087\",\"40\",\"0\",\"Training\",\"Stims/Figures/74-J-10-4.bmp\",\"None\",\"Down\",\"38\",\"8\",\"1\",\"10\",\"N\",\"J\",\"113\"
\"\",\"\",\"approach-retreat\",\"117\",\"942253\",\"0.0-117.0\",\"\",\"\",\"3-1\",\"5306\",\"38\",\"1\",\"Training\",\"Stims/Figures/86-J-0-1.bmp\",\"None\",\"Down\",\"38\",\"8\",\"2\",\"10\",\"N\",\"J\",\"114\"
\"\",\"\",\"approach-retreat\",\"118\",\"948375\",\"0.0-118.0\",\"\",\"\",\"3-1\",\"4589\",\"39\",\"1\",\"Training\",\"Stims/Figures/144-J-10-3.bmp\",\"None\",\"Left\",\"39\",\"8\",\"3\",\"10\",\"N\",\"J\",\"115\"
\"\",\"\",\"approach-retreat\",\"119\",\"954345\",\"0.0-119.0\",\"\",\"\",\"3-1\",\"4440\",\"38\",\"0\",\"Training\",\"Stims/Figures/111-J-10-3.bmp\",\"None\",\"Up\",\"40\",\"8\",\"4\",\"10\",\"N\",\"J\",\"116\"
\"\",\"\",\"approach-retreat\",\"120\",\"959784\",\"0.0-120.0\",\"\",\"\",\"3-1\",\"3910\",\"40\",\"1\",\"Training\",\"Stims/Figures/118-J-0-2.bmp\",\"None\",\"Up\",\"40\",\"8\",\"5\",\"10\",\"N\",\"J\",\"117\"
\"\",\"\",\"approach-retreat\",\"121\",\"965654\",\"0.0-121.0\",\"\",\"\",\"3-1\",\"4340\",\"39\",\"1\",\"Training\",\"Stims/Figures/118-C-20-2.bmp\",\"None\",\"Right\",\"39\",\"8\",\"6\",\"10\",\"N\",\"J\",\"118\"
\"\",\"\",\"approach-retreat\",\"122\",\"971453\",\"0.0-122.0\",\"\",\"\",\"3-1\",\"4262\",\"37\",\"1\",\"Training\",\"Stims/Figures/86-C-30-1.bmp\",\"None\",\"Left\",\"37\",\"8\",\"7\",\"10\",\"N\",\"J\",\"119\"
\"\",\"\",\"approach-retreat\",\"123\",\"977501\",\"0.0-123.0\",\"\",\"\",\"3-1\",\"4515\",\"40\",\"1\",\"Training\",\"Stims/Figures/27-C-30-1.bmp\",\"None\",\"Down\",\"40\",\"8\",\"8\",\"10\",\"N\",\"J\",\"120\"
\"\",\"\",\"approach-retreat\",\"124\",\"985034\",\"0.0-124.0\",\"\",\"\",\"3-1\",\"6003\",\"37\",\"1\",\"Training\",\"Stims/Figures/94-J-0-2.bmp\",\"None\",\"Right\",\"37\",\"8\",\"9\",\"10\",\"N\",\"J\",\"121\"
\"\",\"\",\"approach-retreat\",\"125\",\"991944\",\"0.0-125.0\",\"\",\"\",\"3-1\",\"5380\",\"37\",\"0\",\"Training\",\"Stims/Figures/111-C-30-3.bmp\",\"None\",\"Right\",\"39\",\"8\",\"10\",\"10\",\"N\",\"J\",\"122\"
\"\",\"\",\"approach-retreat\",\"126\",\"997925\",\"0.0-126.0\",\"\",\"\",\"3-1\",\"4452\",\"37\",\"1\",\"Training\",\"Stims/Figures/94-C-20-2.bmp\",\"None\",\"Left\",\"37\",\"8\",\"11\",\"10\",\"N\",\"J\",\"123\"
\"\",\"\",\"approach-retreat\",\"127\",\"1006001\",\"0.0-127.0\",\"\",\"\",\"3-1\",\"6543\",\"38\",\"1\",\"Training\",\"Stims/Figures/102-C-20-4.bmp\",\"None\",\"Up\",\"38\",\"8\",\"12\",\"10\",\"N\",\"J\",\"124\"
\"\",\"\",\"approach-retreat\",\"128\",\"1014506\",\"0.0-128.0\",\"\",\"\",\"3-1\",\"6977\",\"40\",\"1\",\"Training\",\"Stims/Figures/144-C-30-3.bmp\",\"None\",\"Down\",\"40\",\"8\",\"13\",\"10\",\"N\",\"J\",\"125\"
\"\",\"\",\"approach-retreat\",\"129\",\"1021758\",\"0.0-129.0\",\"\",\"\",\"3-1\",\"5717\",\"40\",\"0\",\"Training\",\"Stims/Figures/74-C-20-4.bmp\",\"None\",\"Up\",\"38\",\"8\",\"14\",\"10\",\"N\",\"J\",\"126\"
\"\",\"\",\"approach-retreat\",\"130\",\"1028795\",\"0.0-130.0\",\"\",\"\",\"3-1\",\"5508\",\"37\",\"1\",\"Training\",\"Stims/Figures/27-J-0-1.bmp\",\"None\",\"Right\",\"37\",\"8\",\"15\",\"10\",\"N\",\"J\",\"127\"
\"\",\"\",\"approach-retreat\",\"131\",\"1035662\",\"0.0-131.0\",\"\",\"\",\"3-1\",\"5331\",\"39\",\"1\",\"Training\",\"Stims/Figures/102-J-10-4.bmp\",\"None\",\"Left\",\"39\",\"8\",\"16\",\"10\",\"N\",\"J\",\"128\"
\"\",\"\",\"approach-retreat\",\"132\",\"1042384\",\"0.0-132.0\",\"\",\"\",\"3-1\",\"5194\",\"38\",\"1\",\"Training\",\"Stims/Figures/74-C-20-4.bmp\",\"None\",\"Up\",\"38\",\"9\",\"1\",\"10\",\"N\",\"J\",\"129\"
\"\",\"\",\"approach-retreat\",\"133\",\"1050658\",\"0.0-133.0\",\"\",\"\",\"3-1\",\"6746\",\"37\",\"1\",\"Training\",\"Stims/Figures/74-J-10-4.bmp\",\"None\",\"Right\",\"37\",\"9\",\"2\",\"10\",\"N\",\"J\",\"130\"
\"\",\"\",\"approach-retreat\",\"134\",\"1056925\",\"0.0-134.0\",\"\",\"\",\"3-1\",\"4736\",\"38\",\"1\",\"Training\",\"Stims/Figures/86-J-0-1.bmp\",\"None\",\"Down\",\"38\",\"9\",\"3\",\"10\",\"N\",\"J\",\"131\"
\"\",\"\",\"approach-retreat\",\"135\",\"1062865\",\"0.0-135.0\",\"\",\"\",\"3-1\",\"4407\",\"40\",\"1\",\"Training\",\"Stims/Figures/144-J-10-3.bmp\",\"None\",\"Up\",\"40\",\"9\",\"4\",\"10\",\"N\",\"J\",\"132\"
\"\",\"\",\"approach-retreat\",\"136\",\"1068706\",\"0.0-136.0\",\"\",\"\",\"3-1\",\"4311\",\"37\",\"1\",\"Training\",\"Stims/Figures/86-C-30-1.bmp\",\"None\",\"Left\",\"37\",\"9\",\"5\",\"10\",\"N\",\"J\",\"133\"
\"\",\"\",\"approach-retreat\",\"137\",\"1074652\",\"0.0-137.0\",\"\",\"\",\"3-1\",\"4415\",\"40\",\"0\",\"Training\",\"Stims/Figures/102-C-20-4.bmp\",\"None\",\"Up\",\"38\",\"9\",\"6\",\"10\",\"N\",\"J\",\"134\"
\"\",\"\",\"approach-retreat\",\"138\",\"1080727\",\"0.0-138.0\",\"\",\"\",\"3-1\",\"4544\",\"39\",\"0\",\"Training\",\"Stims/Figures/102-J-10-4.bmp\",\"None\",\"Right\",\"37\",\"9\",\"7\",\"10\",\"N\",\"J\",\"135\"
\"\",\"\",\"approach-retreat\",\"139\",\"1086671\",\"0.0-139.0\",\"\",\"\",\"3-1\",\"4411\",\"37\",\"1\",\"Training\",\"Stims/Figures/94-J-0-2.bmp\",\"None\",\"Right\",\"37\",\"9\",\"8\",\"10\",\"N\",\"J\",\"136\"
\"\",\"\",\"approach-retreat\",\"140\",\"1093764\",\"0.0-140.0\",\"\",\"\",\"3-1\",\"5564\",\"37\",\"1\",\"Training\",\"Stims/Figures/144-C-30-3.bmp\",\"None\",\"Left\",\"37\",\"9\",\"9\",\"10\",\"N\",\"J\",\"137\"
\"\",\"\",\"approach-retreat\",\"141\",\"1099985\",\"0.0-141.0\",\"\",\"\",\"3-1\",\"4692\",\"38\",\"1\",\"Training\",\"Stims/Figures/27-C-30-1.bmp\",\"None\",\"Up\",\"38\",\"9\",\"10\",\"10\",\"N\",\"J\",\"138\"
\"\",\"\",\"approach-retreat\",\"142\",\"1107003\",\"0.0-142.0\",\"\",\"\",\"3-1\",\"5489\",\"40\",\"1\",\"Training\",\"Stims/Figures/94-C-20-2.bmp\",\"None\",\"Down\",\"40\",\"9\",\"11\",\"10\",\"N\",\"J\",\"139\"
\"\",\"\",\"approach-retreat\",\"143\",\"1112924\",\"0.0-143.0\",\"\",\"\",\"3-1\",\"4389\",\"40\",\"1\",\"Training\",\"Stims/Figures/118-C-20-2.bmp\",\"None\",\"Down\",\"40\",\"9\",\"12\",\"10\",\"N\",\"J\",\"140\"
\"\",\"\",\"approach-retreat\",\"144\",\"1120058\",\"0.0-144.0\",\"\",\"\",\"3-1\",\"5607\",\"39\",\"1\",\"Training\",\"Stims/Figures/118-J-0-2.bmp\",\"None\",\"Left\",\"39\",\"9\",\"13\",\"10\",\"N\",\"J\",\"141\"
\"\",\"\",\"approach-retreat\",\"145\",\"1126593\",\"0.0-145.0\",\"\",\"\",\"3-1\",\"5003\",\"40\",\"0\",\"Training\",\"Stims/Figures/27-J-0-1.bmp\",\"None\",\"Down\",\"38\",\"9\",\"14\",\"10\",\"N\",\"J\",\"142\"
\"\",\"\",\"approach-retreat\",\"146\",\"1133898\",\"0.0-146.0\",\"\",\"\",\"3-1\",\"5773\",\"37\",\"0\",\"Training\",\"Stims/Figures/111-C-30-3.bmp\",\"None\",\"Right\",\"39\",\"9\",\"15\",\"10\",\"N\",\"J\",\"143\"
\"\",\"\",\"approach-retreat\",\"147\",\"1139773\",\"0.0-147.0\",\"\",\"\",\"3-1\",\"4344\",\"39\",\"1\",\"Training\",\"Stims/Figures/111-J-10-3.bmp\",\"None\",\"Left\",\"39\",\"9\",\"16\",\"10\",\"N\",\"J\",\"144\"
\"12450\",\"\",\"instructions\",\"148\",\"1152224\",\"0.0-148.0\",\"[{\"\"page_index\"\":0,\"\"viewing_time\"\":12448}]\",\"\",\"\",\"\",\"\",\"\",\"\",\"\",\"\",\"\",\"\",\"\",\"\",\"\",\"\",\"\",\"\"
\"\",\"\",\"approach-retreat\",\"149\",\"1160454\",\"0.0-149.0\",\"\",\"\",\"3-1\",\"6703\",\"39\",\"0\",\"Testing\",\"Stims/Figures/74-J-10-4.bmp\",\"None\",\"Right\",\"37\",\"1\",\"1\",\"10\",\"N\",\"J\",\"1\"
\"\",\"\",\"approach-retreat\",\"150\",\"1166905\",\"0.0-150.0\",\"\",\"\",\"3-1\",\"4930\",\"39\",\"1\",\"Testing\",\"Stims/Figures/57-J-0-1.bmp\",\"None\",\"Left\",\"39\",\"1\",\"2\",\"10\",\"N\",\"J\",\"2\"
\"\",\"\",\"approach-retreat\",\"151\",\"1175042\",\"0.0-151.0\",\"\",\"\",\"3-1\",\"6609\",\"37\",\"0\",\"Testing\",\"Stims/Figures/7-J-10-4.bmp\",\"None\",\"Left\",\"39\",\"1\",\"3\",\"10\",\"N\",\"J\",\"3\"
\"\",\"\",\"approach-retreat\",\"152\",\"1181435\",\"0.0-152.0\",\"\",\"\",\"3-1\",\"4865\",\"40\",\"1\",\"Testing\",\"Stims/Figures/27-C-30-1.bmp\",\"None\",\"Down\",\"40\",\"1\",\"4\",\"10\",\"N\",\"J\",\"4\"
\"\",\"\",\"approach-retreat\",\"153\",\"1187583\",\"0.0-153.0\",\"\",\"\",\"3-1\",\"4619\",\"37\",\"1\",\"Testing\",\"Stims/Figures/74-C-20-4.bmp\",\"None\",\"Left\",\"37\",\"1\",\"5\",\"10\",\"N\",\"J\",\"5\"
\"\",\"\",\"approach-retreat\",\"154\",\"1193536\",\"0.0-154.0\",\"\",\"\",\"3-1\",\"4423\",\"37\",\"1\",\"Testing\",\"Stims/Figures/86-J-0-1.bmp\",\"None\",\"Right\",\"37\",\"1\",\"6\",\"10\",\"N\",\"J\",\"6\"
\"\",\"\",\"approach-retreat\",\"155\",\"1199801\",\"0.0-155.0\",\"\",\"\",\"3-1\",\"4738\",\"38\",\"1\",\"Testing\",\"Stims/Figures/94-C-20-2.bmp\",\"None\",\"Up\",\"38\",\"1\",\"7\",\"10\",\"N\",\"J\",\"7\"
\"\",\"\",\"approach-retreat\",\"156\",\"1205622\",\"0.0-156.0\",\"\",\"\",\"3-1\",\"4290\",\"39\",\"1\",\"Testing\",\"Stims/Figures/111-C-30-3.bmp\",\"None\",\"Right\",\"39\",\"1\",\"8\",\"10\",\"N\",\"J\",\"8\"
\"\",\"\",\"approach-retreat\",\"157\",\"1213513\",\"0.0-157.0\",\"\",\"\",\"3-1\",\"6359\",\"37\",\"1\",\"Testing\",\"Stims/Figures/102-J-10-4.bmp\",\"None\",\"Right\",\"37\",\"1\",\"9\",\"10\",\"N\",\"J\",\"9\"
\"\",\"\",\"approach-retreat\",\"158\",\"1219219\",\"0.0-158.0\",\"\",\"\",\"3-1\",\"4177\",\"39\",\"1\",\"Testing\",\"Stims/Figures/86-C-30-1.bmp\",\"None\",\"Right\",\"39\",\"1\",\"10\",\"10\",\"N\",\"J\",\"10\"
\"\",\"\",\"approach-retreat\",\"159\",\"1225243\",\"0.0-159.0\",\"\",\"\",\"3-1\",\"4496\",\"38\",\"1\",\"Testing\",\"Stims/Figures/128-C-30-3.bmp\",\"None\",\"Up\",\"38\",\"1\",\"11\",\"10\",\"N\",\"J\",\"11\"
\"\",\"\",\"approach-retreat\",\"160\",\"1231198\",\"0.0-160.0\",\"\",\"\",\"3-1\",\"4425\",\"39\",\"1\",\"Testing\",\"Stims/Figures/128-J-10-3.bmp\",\"None\",\"Left\",\"39\",\"1\",\"12\",\"10\",\"N\",\"J\",\"12\"
\"\",\"\",\"approach-retreat\",\"161\",\"1237099\",\"0.0-161.0\",\"\",\"\",\"3-1\",\"4373\",\"37\",\"1\",\"Testing\",\"Stims/Figures/7-C-20-4.bmp\",\"None\",\"Left\",\"37\",\"1\",\"13\",\"10\",\"N\",\"J\",\"13\"
\"\",\"\",\"approach-retreat\",\"162\",\"1243440\",\"0.0-162.0\",\"\",\"\",\"3-1\",\"4813\",\"40\",\"1\",\"Testing\",\"Stims/Figures/102-C-20-4.bmp\",\"None\",\"Down\",\"40\",\"1\",\"14\",\"10\",\"N\",\"J\",\"14\"
\"\",\"\",\"approach-retreat\",\"163\",\"1249379\",\"0.0-163.0\",\"\",\"\",\"3-1\",\"4413\",\"38\",\"1\",\"Testing\",\"Stims/Figures/94-J-0-2.bmp\",\"None\",\"Down\",\"38\",\"1\",\"15\",\"10\",\"N\",\"J\",\"15\"
\"\",\"\",\"approach-retreat\",\"164\",\"1255744\",\"0.0-164.0\",\"\",\"\",\"3-1\",\"4836\",\"38\",\"1\",\"Testing\",\"Stims/Figures/57-C-30-1.bmp\",\"None\",\"Up\",\"38\",\"1\",\"16\",\"10\",\"N\",\"J\",\"16\"
\"\",\"\",\"approach-retreat\",\"165\",\"1261835\",\"0.0-165.0\",\"\",\"\",\"3-1\",\"4561\",\"38\",\"1\",\"Testing\",\"Stims/Figures/27-J-0-1.bmp\",\"None\",\"Down\",\"38\",\"1\",\"17\",\"10\",\"N\",\"J\",\"17\"
\"\",\"\",\"approach-retreat\",\"166\",\"1267768\",\"0.0-166.0\",\"\",\"\",\"3-1\",\"4403\",\"37\",\"1\",\"Testing\",\"Stims/Figures/144-J-10-3.bmp\",\"None\",\"Right\",\"37\",\"1\",\"18\",\"10\",\"N\",\"J\",\"18\"
\"\",\"\",\"approach-retreat\",\"167\",\"1274176\",\"0.0-167.0\",\"\",\"\",\"3-1\",\"4876\",\"40\",\"1\",\"Testing\",\"Stims/Figures/85-C-20-2.bmp\",\"None\",\"Down\",\"40\",\"1\",\"19\",\"10\",\"N\",\"J\",\"19\"
\"\",\"\",\"approach-retreat\",\"168\",\"1280257\",\"0.0-168.0\",\"\",\"\",\"3-1\",\"4551\",\"38\",\"1\",\"Testing\",\"Stims/Figures/85-J-0-2.bmp\",\"None\",\"Down\",\"38\",\"1\",\"20\",\"10\",\"N\",\"J\",\"20\"
\"\",\"\",\"approach-retreat\",\"169\",\"1288337\",\"0.0-169.0\",\"\",\"\",\"3-1\",\"6550\",\"38\",\"1\",\"Testing\",\"Stims/Figures/144-C-30-3.bmp\",\"None\",\"Up\",\"38\",\"1\",\"21\",\"10\",\"N\",\"J\",\"21\"
\"\",\"\",\"approach-retreat\",\"170\",\"1294421\",\"0.0-170.0\",\"\",\"\",\"3-1\",\"4555\",\"40\",\"1\",\"Testing\",\"Stims/Figures/111-J-10-3.bmp\",\"None\",\"Up\",\"40\",\"1\",\"22\",\"10\",\"N\",\"J\",\"22\"
\"\",\"\",\"approach-retreat\",\"171\",\"1300260\",\"0.0-171.0\",\"\",\"\",\"3-1\",\"4311\",\"39\",\"1\",\"Testing\",\"Stims/Figures/118-J-0-2.bmp\",\"None\",\"Left\",\"39\",\"1\",\"23\",\"10\",\"N\",\"J\",\"23\"
\"\",\"\",\"approach-retreat\",\"172\",\"1306305\",\"0.0-172.0\",\"\",\"\",\"3-1\",\"4515\",\"38\",\"1\",\"Testing\",\"Stims/Figures/118-C-20-2.bmp\",\"None\",\"Up\",\"38\",\"1\",\"24\",\"10\",\"N\",\"J\",\"24\"
\"\",\"\",\"approach-retreat\",\"173\",\"1312190\",\"0.0-173.0\",\"\",\"\",\"3-1\",\"4355\",\"39\",\"0\",\"Testing\",\"Stims/Figures/128-J-10-3.bmp\",\"None\",\"Right\",\"37\",\"2\",\"1\",\"10\",\"N\",\"J\",\"25\"
\"\",\"\",\"approach-retreat\",\"174\",\"1318077\",\"0.0-174.0\",\"\",\"\",\"3-1\",\"4358\",\"39\",\"1\",\"Testing\",\"Stims/Figures/57-C-30-1.bmp\",\"None\",\"Right\",\"39\",\"2\",\"2\",\"10\",\"N\",\"J\",\"26\"
\"\",\"\",\"approach-retreat\",\"175\",\"1324220\",\"0.0-175.0\",\"\",\"\",\"3-1\",\"4612\",\"37\",\"1\",\"Testing\",\"Stims/Figures/27-C-30-1.bmp\",\"None\",\"Left\",\"37\",\"2\",\"3\",\"10\",\"N\",\"J\",\"27\"
\"\",\"\",\"approach-retreat\",\"176\",\"1330008\",\"0.0-176.0\",\"\",\"\",\"3-1\",\"4259\",\"39\",\"1\",\"Testing\",\"Stims/Figures/144-J-10-3.bmp\",\"None\",\"Left\",\"39\",\"2\",\"4\",\"10\",\"N\",\"J\",\"28\"
\"\",\"\",\"approach-retreat\",\"177\",\"1336059\",\"0.0-177.0\",\"\",\"\",\"3-1\",\"4523\",\"37\",\"1\",\"Testing\",\"Stims/Figures/111-C-30-3.bmp\",\"None\",\"Left\",\"37\",\"2\",\"5\",\"10\",\"N\",\"J\",\"29\"
\"\",\"\",\"approach-retreat\",\"178\",\"1342360\",\"0.0-178.0\",\"\",\"\",\"3-1\",\"4773\",\"38\",\"1\",\"Testing\",\"Stims/Figures/86-J-0-1.bmp\",\"None\",\"Down\",\"38\",\"2\",\"6\",\"10\",\"N\",\"J\",\"30\"
\"\",\"\",\"approach-retreat\",\"179\",\"1348374\",\"0.0-179.0\",\"\",\"\",\"3-1\",\"4486\",\"37\",\"0\",\"Testing\",\"Stims/Figures/7-J-10-4.bmp\",\"None\",\"Left\",\"39\",\"2\",\"7\",\"10\",\"N\",\"J\",\"31\"
\"\",\"\",\"approach-retreat\",\"180\",\"1354238\",\"0.0-180.0\",\"\",\"\",\"3-1\",\"4335\",\"39\",\"1\",\"Testing\",\"Stims/Figures/86-C-30-1.bmp\",\"None\",\"Right\",\"39\",\"2\",\"8\",\"10\",\"N\",\"J\",\"32\"
\"\",\"\",\"approach-retreat\",\"181\",\"1360489\",\"0.0-181.0\",\"\",\"\",\"3-1\",\"4721\",\"40\",\"1\",\"Testing\",\"Stims/Figures/74-C-20-4.bmp\",\"None\",\"Down\",\"40\",\"2\",\"9\",\"10\",\"N\",\"J\",\"33\"
\"\",\"\",\"approach-retreat\",\"182\",\"1366389\",\"0.0-182.0\",\"\",\"\",\"3-1\",\"4371\",\"37\",\"1\",\"Testing\",\"Stims/Figures/57-J-0-1.bmp\",\"None\",\"Right\",\"37\",\"2\",\"10\",\"10\",\"N\",\"J\",\"34\"
\"\",\"\",\"approach-retreat\",\"183\",\"1372945\",\"0.0-183.0\",\"\",\"\",\"3-1\",\"5027\",\"37\",\"1\",\"Testing\",\"Stims/Figures/111-J-10-3.bmp\",\"None\",\"Right\",\"37\",\"2\",\"11\",\"10\",\"N\",\"J\",\"35\"
\"\",\"\",\"approach-retreat\",\"184\",\"1380889\",\"0.0-184.0\",\"\",\"\",\"3-1\",\"6417\",\"38\",\"1\",\"Testing\",\"Stims/Figures/102-J-10-4.bmp\",\"None\",\"Down\",\"38\",\"2\",\"12\",\"10\",\"N\",\"J\",\"36\"
\"\",\"\",\"approach-retreat\",\"185\",\"1387116\",\"0.0-185.0\",\"\",\"\",\"3-1\",\"4696\",\"38\",\"1\",\"Testing\",\"Stims/Figures/118-C-20-2.bmp\",\"None\",\"Up\",\"38\",\"2\",\"13\",\"10\",\"N\",\"J\",\"37\"
\"\",\"\",\"approach-retreat\",\"186\",\"1393142\",\"0.0-186.0\",\"\",\"\",\"3-1\",\"4500\",\"37\",\"0\",\"Testing\",\"Stims/Figures/74-J-10-4.bmp\",\"None\",\"Left\",\"39\",\"2\",\"14\",\"10\",\"N\",\"J\",\"38\"
\"\",\"\",\"approach-retreat\",\"187\",\"1399301\",\"0.0-187.0\",\"\",\"\",\"3-1\",\"4628\",\"40\",\"1\",\"Testing\",\"Stims/Figures/85-J-0-2.bmp\",\"None\",\"Up\",\"40\",\"2\",\"15\",\"10\",\"N\",\"J\",\"39\"
\"\",\"\",\"approach-retreat\",\"188\",\"1405869\",\"0.0-188.0\",\"\",\"\",\"3-1\",\"5040\",\"37\",\"1\",\"Testing\",\"Stims/Figures/144-C-30-3.bmp\",\"None\",\"Left\",\"37\",\"2\",\"16\",\"10\",\"N\",\"J\",\"40\"
\"\",\"\",\"approach-retreat\",\"189\",\"1411777\",\"0.0-189.0\",\"\",\"\",\"3-1\",\"4378\",\"40\",\"1\",\"Testing\",\"Stims/Figures/27-J-0-1.bmp\",\"None\",\"Up\",\"40\",\"2\",\"17\",\"10\",\"N\",\"J\",\"41\"
\"\",\"\",\"approach-retreat\",\"190\",\"1417605\",\"0.0-190.0\",\"\",\"\",\"3-1\",\"4298\",\"39\",\"1\",\"Testing\",\"Stims/Figures/7-C-20-4.bmp\",\"None\",\"Right\",\"39\",\"2\",\"18\",\"10\",\"N\",\"J\",\"42\"
\"\",\"\",\"approach-retreat\",\"191\",\"1423587\",\"0.0-191.0\",\"\",\"\",\"3-1\",\"4446\",\"38\",\"1\",\"Testing\",\"Stims/Figures/118-J-0-2.bmp\",\"None\",\"Down\",\"38\",\"2\",\"19\",\"10\",\"N\",\"J\",\"43\"
\"\",\"\",\"approach-retreat\",\"192\",\"1429685\",\"0.0-192.0\",\"\",\"\",\"3-1\",\"4568\",\"40\",\"1\",\"Testing\",\"Stims/Figures/85-C-20-2.bmp\",\"None\",\"Down\",\"40\",\"2\",\"20\",\"10\",\"N\",\"J\",\"44\"
\"\",\"\",\"approach-retreat\",\"193\",\"1435639\",\"0.0-193.0\",\"\",\"\",\"3-1\",\"4424\",\"40\",\"1\",\"Testing\",\"Stims/Figures/94-J-0-2.bmp\",\"None\",\"Up\",\"40\",\"2\",\"21\",\"10\",\"N\",\"J\",\"45\"
\"\",\"\",\"approach-retreat\",\"194\",\"1442241\",\"0.0-194.0\",\"\",\"\",\"3-1\",\"5073\",\"40\",\"0\",\"Testing\",\"Stims/Figures/128-C-30-3.bmp\",\"None\",\"Up\",\"38\",\"2\",\"22\",\"10\",\"N\",\"J\",\"46\"
\"\",\"\",\"approach-retreat\",\"195\",\"1448357\",\"0.0-195.0\",\"\",\"\",\"3-1\",\"4589\",\"40\",\"0\",\"Testing\",\"Stims/Figures/94-C-20-2.bmp\",\"None\",\"Up\",\"38\",\"2\",\"23\",\"10\",\"N\",\"J\",\"47\"
\"\",\"\",\"approach-retreat\",\"196\",\"1454810\",\"0.0-196.0\",\"\",\"\",\"3-1\",\"4925\",\"40\",\"1\",\"Testing\",\"Stims/Figures/102-C-20-4.bmp\",\"None\",\"Down\",\"40\",\"2\",\"24\",\"10\",\"N\",\"J\",\"48\"
\"\",\"\",\"approach-retreat\",\"197\",\"1460729\",\"0.0-197.0\",\"\",\"\",\"3-1\",\"4390\",\"40\",\"0\",\"Testing\",\"Stims/Figures/7-C-20-4.bmp\",\"None\",\"Up\",\"38\",\"3\",\"1\",\"10\",\"N\",\"J\",\"49\"
\"\",\"\",\"approach-retreat\",\"198\",\"1466673\",\"0.0-198.0\",\"\",\"\",\"3-1\",\"4414\",\"40\",\"1\",\"Testing\",\"Stims/Figures/57-C-30-1.bmp\",\"None\",\"Down\",\"40\",\"3\",\"2\",\"10\",\"N\",\"J\",\"50\"
\"\",\"\",\"approach-retreat\",\"199\",\"1473437\",\"0.0-199.0\",\"\",\"\",\"3-1\",\"5234\",\"38\",\"1\",\"Testing\",\"Stims/Figures/118-J-0-2.bmp\",\"None\",\"Down\",\"38\",\"3\",\"3\",\"10\",\"N\",\"J\",\"51\"
\"\",\"\",\"approach-retreat\",\"200\",\"1479169\",\"0.0-200.0\",\"\",\"\",\"3-1\",\"4203\",\"40\",\"1\",\"Testing\",\"Stims/Figures/118-C-20-2.bmp\",\"None\",\"Down\",\"40\",\"3\",\"4\",\"10\",\"N\",\"J\",\"52\"
\"\",\"\",\"approach-retreat\",\"201\",\"1485832\",\"0.0-201.0\",\"\",\"\",\"3-1\",\"5134\",\"38\",\"0\",\"Testing\",\"Stims/Figures/111-J-10-3.bmp\",\"None\",\"Up\",\"40\",\"3\",\"5\",\"10\",\"N\",\"J\",\"53\"
\"\",\"\",\"approach-retreat\",\"202\",\"1491291\",\"0.0-202.0\",\"\",\"\",\"3-1\",\"3930\",\"38\",\"1\",\"Testing\",\"Stims/Figures/57-J-0-1.bmp\",\"None\",\"Down\",\"38\",\"3\",\"6\",\"10\",\"N\",\"J\",\"54\"
\"\",\"\",\"approach-retreat\",\"203\",\"1498694\",\"0.0-203.0\",\"\",\"\",\"3-1\",\"5872\",\"37\",\"1\",\"Testing\",\"Stims/Figures/102-C-20-4.bmp\",\"None\",\"Left\",\"37\",\"3\",\"7\",\"10\",\"N\",\"J\",\"55\"
\"\",\"\",\"approach-retreat\",\"204\",\"1505796\",\"0.0-204.0\",\"\",\"\",\"3-1\",\"5572\",\"39\",\"0\",\"Testing\",\"Stims/Figures/7-J-10-4.bmp\",\"None\",\"Right\",\"37\",\"3\",\"8\",\"10\",\"N\",\"J\",\"56\"
\"\",\"\",\"approach-retreat\",\"205\",\"1512652\",\"0.0-205.0\",\"\",\"\",\"3-1\",\"5328\",\"37\",\"0\",\"Testing\",\"Stims/Figures/128-J-10-3.bmp\",\"None\",\"Left\",\"39\",\"3\",\"9\",\"10\",\"N\",\"J\",\"57\"
\"\",\"\",\"approach-retreat\",\"206\",\"1518552\",\"0.0-206.0\",\"\",\"\",\"3-1\",\"4371\",\"39\",\"0\",\"Testing\",\"Stims/Figures/74-J-10-4.bmp\",\"None\",\"Right\",\"37\",\"3\",\"10\",\"10\",\"N\",\"J\",\"58\"
\"\",\"\",\"approach-retreat\",\"207\",\"1524781\",\"0.0-207.0\",\"\",\"\",\"3-1\",\"4702\",\"38\",\"1\",\"Testing\",\"Stims/Figures/94-J-0-2.bmp\",\"None\",\"Down\",\"38\",\"3\",\"11\",\"10\",\"N\",\"J\",\"59\"
\"\",\"\",\"approach-retreat\",\"208\",\"1530502\",\"0.0-208.0\",\"\",\"\",\"3-1\",\"4193\",\"39\",\"1\",\"Testing\",\"Stims/Figures/111-C-30-3.bmp\",\"None\",\"Right\",\"39\",\"3\",\"12\",\"10\",\"N\",\"J\",\"60\"
\"\",\"\",\"approach-retreat\",\"209\",\"1538135\",\"0.0-209.0\",\"\",\"\",\"3-1\",\"6105\",\"37\",\"0\",\"Testing\",\"Stims/Figures/85-J-0-2.bmp\",\"None\",\"Left\",\"39\",\"3\",\"13\",\"10\",\"N\",\"J\",\"61\"
\"\",\"\",\"approach-retreat\",\"210\",\"1546475\",\"0.0-210.0\",\"\",\"\",\"3-1\",\"6808\",\"38\",\"1\",\"Testing\",\"Stims/Figures/27-C-30-1.bmp\",\"None\",\"Up\",\"38\",\"3\",\"14\",\"10\",\"N\",\"J\",\"62\"
\"\",\"\",\"approach-retreat\",\"211\",\"1551671\",\"0.0-211.0\",\"\",\"\",\"3-1\",\"3670\",\"37\",\"0\",\"Testing\",\"Stims/Figures/144-J-10-3.bmp\",\"None\",\"Left\",\"39\",\"3\",\"15\",\"10\",\"N\",\"J\",\"63\"
\"\",\"\",\"approach-retreat\",\"212\",\"1559654\",\"0.0-212.0\",\"\",\"\",\"3-1\",\"6452\",\"37\",\"0\",\"Testing\",\"Stims/Figures/94-C-20-2.bmp\",\"None\",\"Right\",\"39\",\"3\",\"16\",\"10\",\"N\",\"J\",\"64\"
\"\",\"\",\"approach-retreat\",\"213\",\"1565803\",\"0.0-213.0\",\"\",\"\",\"3-1\",\"4620\",\"38\",\"0\",\"Testing\",\"Stims/Figures/128-C-30-3.bmp\",\"None\",\"Down\",\"40\",\"3\",\"17\",\"10\",\"N\",\"J\",\"65\"
\"\",\"\",\"approach-retreat\",\"214\",\"1573153\",\"0.0-214.0\",\"\",\"\",\"3-1\",\"5823\",\"38\",\"1\",\"Testing\",\"Stims/Figures/144-C-30-3.bmp\",\"None\",\"Up\",\"38\",\"3\",\"18\",\"10\",\"N\",\"J\",\"66\"
\"\",\"\",\"approach-retreat\",\"215\",\"1581130\",\"0.0-215.0\",\"\",\"\",\"3-1\",\"6448\",\"39\",\"1\",\"Testing\",\"Stims/Figures/102-J-10-4.bmp\",\"None\",\"Left\",\"39\",\"3\",\"19\",\"10\",\"N\",\"J\",\"67\"
\"\",\"\",\"approach-retreat\",\"216\",\"1587067\",\"0.0-216.0\",\"\",\"\",\"3-1\",\"4408\",\"38\",\"1\",\"Testing\",\"Stims/Figures/85-C-20-2.bmp\",\"None\",\"Up\",\"38\",\"3\",\"20\",\"10\",\"N\",\"J\",\"68\"
\"\",\"\",\"approach-retreat\",\"217\",\"1593344\",\"0.0-217.0\",\"\",\"\",\"3-1\",\"4750\",\"40\",\"1\",\"Testing\",\"Stims/Figures/86-J-0-1.bmp\",\"None\",\"Up\",\"40\",\"3\",\"21\",\"10\",\"N\",\"J\",\"69\"
\"\",\"\",\"approach-retreat\",\"218\",\"1599410\",\"0.0-218.0\",\"\",\"\",\"3-1\",\"4537\",\"37\",\"1\",\"Testing\",\"Stims/Figures/27-J-0-1.bmp\",\"None\",\"Right\",\"37\",\"3\",\"22\",\"10\",\"N\",\"J\",\"70\"
\"\",\"\",\"approach-retreat\",\"219\",\"1605127\",\"0.0-219.0\",\"\",\"\",\"3-1\",\"4188\",\"39\",\"1\",\"Testing\",\"Stims/Figures/74-C-20-4.bmp\",\"None\",\"Right\",\"39\",\"3\",\"23\",\"10\",\"N\",\"J\",\"71\"
\"\",\"\",\"approach-retreat\",\"220\",\"1611988\",\"0.0-220.0\",\"\",\"\",\"3-1\",\"5332\",\"37\",\"1\",\"Testing\",\"Stims/Figures/86-C-30-1.bmp\",\"None\",\"Left\",\"37\",\"3\",\"24\",\"10\",\"N\",\"J\",\"72\"
\"\",\"\",\"approach-retreat\",\"221\",\"1621058\",\"0.0-221.0\",\"\",\"\",\"3-1\",\"7543\",\"37\",\"1\",\"Testing\",\"Stims/Figures/94-C-20-2.bmp\",\"None\",\"Left\",\"37\",\"4\",\"1\",\"10\",\"N\",\"J\",\"73\"
\"\",\"\",\"approach-retreat\",\"222\",\"1631385\",\"0.0-222.0\",\"\",\"\",\"3-1\",\"8799\",\"37\",\"1\",\"Testing\",\"Stims/Figures/85-J-0-2.bmp\",\"None\",\"Right\",\"37\",\"4\",\"2\",\"10\",\"N\",\"J\",\"74\"
\"\",\"\",\"approach-retreat\",\"223\",\"1637784\",\"0.0-223.0\",\"\",\"\",\"3-1\",\"4868\",\"40\",\"1\",\"Testing\",\"Stims/Figures/118-J-0-2.bmp\",\"None\",\"Up\",\"40\",\"4\",\"3\",\"10\",\"N\",\"J\",\"75\"
\"\",\"\",\"approach-retreat\",\"224\",\"1643717\",\"0.0-224.0\",\"\",\"\",\"3-1\",\"4402\",\"39\",\"1\",\"Testing\",\"Stims/Figures/86-J-0-1.bmp\",\"None\",\"Left\",\"39\",\"4\",\"4\",\"10\",\"N\",\"J\",\"76\"
\"\",\"\",\"approach-retreat\",\"225\",\"1650158\",\"0.0-225.0\",\"\",\"\",\"3-1\",\"4914\",\"37\",\"1\",\"Testing\",\"Stims/Figures/102-C-20-4.bmp\",\"None\",\"Left\",\"37\",\"4\",\"5\",\"10\",\"N\",\"J\",\"77\"
\"\",\"\",\"approach-retreat\",\"226\",\"1656284\",\"0.0-226.0\",\"\",\"\",\"3-1\",\"4598\",\"39\",\"0\",\"Testing\",\"Stims/Figures/128-J-10-3.bmp\",\"None\",\"Right\",\"37\",\"4\",\"6\",\"10\",\"N\",\"J\",\"78\"
\"\",\"\",\"approach-retreat\",\"227\",\"1663916\",\"0.0-227.0\",\"\",\"\",\"3-1\",\"6104\",\"38\",\"1\",\"Testing\",\"Stims/Figures/57-C-30-1.bmp\",\"None\",\"Up\",\"38\",\"4\",\"7\",\"10\",\"N\",\"J\",\"79\"
\"\",\"\",\"approach-retreat\",\"228\",\"1669743\",\"0.0-228.0\",\"\",\"\",\"3-1\",\"4298\",\"39\",\"1\",\"Testing\",\"Stims/Figures/111-J-10-3.bmp\",\"None\",\"Left\",\"39\",\"4\",\"8\",\"10\",\"N\",\"J\",\"80\"
\"\",\"\",\"approach-retreat\",\"229\",\"1675609\",\"0.0-229.0\",\"\",\"\",\"3-1\",\"4337\",\"40\",\"1\",\"Testing\",\"Stims/Figures/57-J-0-1.bmp\",\"None\",\"Up\",\"40\",\"4\",\"9\",\"10\",\"N\",\"J\",\"81\"
\"\",\"\",\"approach-retreat\",\"230\",\"1682584\",\"0.0-230.0\",\"\",\"\",\"3-1\",\"5439\",\"38\",\"0\",\"Testing\",\"Stims/Figures/7-J-10-4.bmp\",\"None\",\"Up\",\"40\",\"4\",\"10\",\"10\",\"N\",\"J\",\"82\"
\"\",\"\",\"approach-retreat\",\"231\",\"1689708\",\"0.0-231.0\",\"\",\"\",\"3-1\",\"5595\",\"40\",\"1\",\"Testing\",\"Stims/Figures/74-J-10-4.bmp\",\"None\",\"Up\",\"40\",\"4\",\"11\",\"10\",\"N\",\"J\",\"83\"
\"\",\"\",\"approach-retreat\",\"232\",\"1696099\",\"0.0-232.0\",\"\",\"\",\"3-1\",\"4863\",\"40\",\"1\",\"Testing\",\"Stims/Figures/85-C-20-2.bmp\",\"None\",\"Down\",\"40\",\"4\",\"12\",\"10\",\"N\",\"J\",\"84\"
\"\",\"\",\"approach-retreat\",\"233\",\"1703041\",\"0.0-233.0\",\"\",\"\",\"3-1\",\"5414\",\"39\",\"0\",\"Testing\",\"Stims/Figures/102-J-10-4.bmp\",\"None\",\"Right\",\"37\",\"4\",\"13\",\"10\",\"N\",\"J\",\"85\"
\"\",\"\",\"approach-retreat\",\"234\",\"1709518\",\"0.0-234.0\",\"\",\"\",\"3-1\",\"4950\",\"37\",\"0\",\"Testing\",\"Stims/Figures/7-C-20-4.bmp\",\"None\",\"Right\",\"39\",\"4\",\"14\",\"10\",\"N\",\"J\",\"86\"
\"\",\"\",\"approach-retreat\",\"235\",\"1715713\",\"0.0-235.0\",\"\",\"\",\"3-1\",\"4670\",\"40\",\"1\",\"Testing\",\"Stims/Figures/118-C-20-2.bmp\",\"None\",\"Down\",\"40\",\"4\",\"15\",\"10\",\"N\",\"J\",\"87\"
\"\",\"\",\"approach-retreat\",\"236\",\"1722308\",\"0.0-236.0\",\"\",\"\",\"3-1\",\"5067\",\"38\",\"0\",\"Testing\",\"Stims/Figures/74-C-20-4.bmp\",\"None\",\"Down\",\"40\",\"4\",\"16\",\"10\",\"N\",\"J\",\"88\"
\"\",\"\",\"approach-retreat\",\"237\",\"1729692\",\"0.0-237.0\",\"\",\"\",\"3-1\",\"5855\",\"37\",\"1\",\"Testing\",\"Stims/Figures/86-C-30-1.bmp\",\"None\",\"Left\",\"37\",\"4\",\"17\",\"10\",\"N\",\"J\",\"89\"
\"\",\"\",\"approach-retreat\",\"238\",\"1735820\",\"0.0-238.0\",\"\",\"\",\"3-1\",\"4598\",\"40\",\"1\",\"Testing\",\"Stims/Figures/27-C-30-1.bmp\",\"None\",\"Down\",\"40\",\"4\",\"18\",\"10\",\"N\",\"J\",\"90\"
\"\",\"\",\"approach-retreat\",\"239\",\"1742735\",\"0.0-239.0\",\"\",\"\",\"3-1\",\"5386\",\"39\",\"1\",\"Testing\",\"Stims/Figures/111-C-30-3.bmp\",\"None\",\"Right\",\"39\",\"4\",\"19\",\"10\",\"N\",\"J\",\"91\"
\"\",\"\",\"approach-retreat\",\"240\",\"1748579\",\"0.0-240.0\",\"\",\"\",\"3-1\",\"4315\",\"37\",\"1\",\"Testing\",\"Stims/Figures/144-J-10-3.bmp\",\"None\",\"Right\",\"37\",\"4\",\"20\",\"10\",\"N\",\"J\",\"92\"
\"\",\"\",\"approach-retreat\",\"241\",\"1754392\",\"0.0-241.0\",\"\",\"\",\"3-1\",\"4285\",\"40\",\"1\",\"Testing\",\"Stims/Figures/128-C-30-3.bmp\",\"None\",\"Down\",\"40\",\"4\",\"21\",\"10\",\"N\",\"J\",\"93\"
\"\",\"\",\"approach-retreat\",\"242\",\"1760840\",\"0.0-242.0\",\"\",\"\",\"3-1\",\"4919\",\"40\",\"1\",\"Testing\",\"Stims/Figures/144-C-30-3.bmp\",\"None\",\"Down\",\"40\",\"4\",\"22\",\"10\",\"N\",\"J\",\"94\"
\"\",\"\",\"approach-retreat\",\"243\",\"1766992\",\"0.0-243.0\",\"\",\"\",\"3-1\",\"4622\",\"39\",\"1\",\"Testing\",\"Stims/Figures/94-J-0-2.bmp\",\"None\",\"Left\",\"39\",\"4\",\"23\",\"10\",\"N\",\"J\",\"95\"
\"\",\"\",\"approach-retreat\",\"244\",\"1772949\",\"0.0-244.0\",\"\",\"\",\"3-1\",\"4428\",\"40\",\"1\",\"Testing\",\"Stims/Figures/27-J-0-1.bmp\",\"None\",\"Up\",\"40\",\"4\",\"24\",\"10\",\"N\",\"J\",\"96\"
\"43209\",\"\",\"survey-text\",\"245\",\"1816181\",\"0.0-245.0\",\"\",\"{\"\"Q0\"\":\"\"PS170007\"\"}\",\"\",\"\",\"\",\"\",\"\",\"\",\"\",\"\",\"\",\"\",\"\",\"\",\"\",\"\",\"\"
