\"rt\",\"key_press\",\"trial_type\",\"trial_index\",\"time_elapsed\",\"internal_node_id\",\"view_history\",\"responses\",\"Id\",\"Rt\",\"ResKeyCode\",\"ResCorr\",\"TrialType2\",\"Image\",\"Label\",\"Location\",\"CorrectResponse\",\"Block\",\"BlockTrial\",\"Condition\",\"LabelType\",\"Subcondition\",\"trialNum\"
\"62361\",\"32\",\"text\",\"0\",\"62364\",\"0.0-0.0-0.0\",\"\",\"\",\"\",\"\",\"\",\"\",\"\",\"\",\"\",\"\",\"\",\"\",\"\",\"\",\"\",\"\",\"\"
\"72293\",\"\",\"instructions\",\"1\",\"134660\",\"0.0-1.0\",\"[{\"\"page_index\"\":0,\"\"viewing_time\"\":72292}]\",\"\",\"\",\"\",\"\",\"\",\"\",\"\",\"\",\"\",\"\",\"\",\"\",\"\",\"\",\"\",\"\"
\"37048\",\"\",\"survey-multi-choice\",\"2\",\"171742\",\"0.0-2.0\",\"\",\"{\"\"Q0\"\":\"\"Da\"\",\"\"Q1\"\":\"\"Da\"\",\"\"Q2\"\":\"\"Da\"\",\"\"Q3\"\":\"\"Da\"\",\"\"Q4\"\":\"\"Da\"\",\"\"Q5\"\":\"\"Da\"\"}\",\"\",\"\",\"\",\"\",\"\",\"\",\"\",\"\",\"\",\"\",\"\",\"\",\"\",\"\",\"\"
\"\",\"\",\"bio\",\"3\",\"187887\",\"0.0-3.0\",\"\",\"{\"\"age\"\":\"\"22\"\",\"\"gender\"\":\"\"f\"\",\"\"specify\"\":\"\"\"\"}\",\"\",\"\",\"\",\"\",\"\",\"\",\"\",\"\",\"\",\"\",\"\",\"\",\"\",\"\",\"\"
\"\",\"\",\"approach-retreat\",\"4\",\"197779\",\"0.0-4.0\",\"\",\"\",\"1-5\",\"8382\",\"39\",\"0\",\"Training\",\"Stims/Figures/102-C-20-4.bmp\",\"zasaha\",\"Left\",\"37\",\"1\",\"1\",\"8\",\"C2\",\"J\",\"1\"
\"\",\"\",\"approach-retreat\",\"5\",\"205924\",\"0.0-5.0\",\"\",\"\",\"1-5\",\"6627\",\"40\",\"0\",\"Training\",\"Stims/Figures/94-C-20-2.bmp\",\"fasha:va\",\"Up\",\"38\",\"1\",\"2\",\"8\",\"C1\",\"J\",\"2\"
\"\",\"\",\"approach-retreat\",\"6\",\"213021\",\"0.0-6.0\",\"\",\"\",\"1-5\",\"5582\",\"38\",\"0\",\"Training\",\"Stims/Figures/71-C-30-1.bmp\",\"fashava\",\"Down\",\"40\",\"1\",\"3\",\"8\",\"C1\",\"J\",\"3\"
\"\",\"\",\"approach-retreat\",\"7\",\"219182\",\"0.0-7.0\",\"\",\"\",\"1-5\",\"4643\",\"40\",\"1\",\"Training\",\"Stims/Figures/71-J-0-1.bmp\",\"vafa:sha\",\"Up\",\"40\",\"1\",\"4\",\"8\",\"C1\",\"J\",\"4\"
\"\",\"\",\"approach-retreat\",\"8\",\"225876\",\"0.0-8.0\",\"\",\"\",\"1-5\",\"5185\",\"39\",\"1\",\"Training\",\"Stims/Figures/94-J-0-2.bmp\",\"fashasha\",\"Left\",\"39\",\"1\",\"5\",\"8\",\"C1\",\"J\",\"5\"
\"\",\"\",\"approach-retreat\",\"9\",\"233152\",\"0.0-9.0\",\"\",\"\",\"1-5\",\"5763\",\"39\",\"1\",\"Training\",\"Stims/Figures/100-C-30-3.bmp\",\"sa:saha\",\"Right\",\"39\",\"1\",\"6\",\"8\",\"C2\",\"J\",\"6\"
\"\",\"\",\"approach-retreat\",\"10\",\"241367\",\"0.0-10.0\",\"\",\"\",\"1-5\",\"6695\",\"40\",\"0\",\"Training\",\"Stims/Figures/7-J-10-4.bmp\",\"sa:sa:za\",\"Down\",\"38\",\"1\",\"7\",\"8\",\"C2\",\"J\",\"7\"
\"\",\"\",\"approach-retreat\",\"11\",\"247878\",\"0.0-11.0\",\"\",\"\",\"1-5\",\"4997\",\"40\",\"1\",\"Training\",\"Stims/Figures/57-J-0-1.bmp\",\"fafasha\",\"Up\",\"40\",\"1\",\"8\",\"8\",\"C1\",\"J\",\"8\"
\"\",\"\",\"approach-retreat\",\"12\",\"259171\",\"0.0-12.0\",\"\",\"\",\"1-5\",\"9776\",\"37\",\"0\",\"Training\",\"Stims/Figures/139-J-0-2.bmp\",\"va:shasha\",\"Left\",\"39\",\"1\",\"9\",\"8\",\"C1\",\"J\",\"9\"
\"\",\"\",\"approach-retreat\",\"13\",\"265698\",\"0.0-13.0\",\"\",\"\",\"1-5\",\"5009\",\"39\",\"0\",\"Training\",\"Stims/Figures/57-C-30-1.bmp\",\"vafa:va\",\"Left\",\"37\",\"1\",\"10\",\"8\",\"C1\",\"J\",\"10\"
\"\",\"\",\"approach-retreat\",\"14\",\"272454\",\"0.0-14.0\",\"\",\"\",\"1-5\",\"5248\",\"37\",\"0\",\"Training\",\"Stims/Figures/44-C-30-3.bmp\",\"sasa:ha\",\"Right\",\"39\",\"1\",\"11\",\"8\",\"C2\",\"J\",\"11\"
\"\",\"\",\"approach-retreat\",\"15\",\"280094\",\"0.0-15.0\",\"\",\"\",\"1-5\",\"6125\",\"40\",\"0\",\"Training\",\"Stims/Figures/7-C-20-4.bmp\",\"sa:haha\",\"Up\",\"38\",\"1\",\"12\",\"8\",\"C2\",\"J\",\"12\"
\"\",\"\",\"approach-retreat\",\"16\",\"288391\",\"0.0-16.0\",\"\",\"\",\"1-5\",\"6783\",\"40\",\"0\",\"Training\",\"Stims/Figures/102-J-10-4.bmp\",\"sa:saza\",\"Down\",\"38\",\"1\",\"13\",\"8\",\"C2\",\"J\",\"13\"
\"\",\"\",\"approach-retreat\",\"17\",\"295831\",\"0.0-17.0\",\"\",\"\",\"1-5\",\"5925\",\"39\",\"0\",\"Training\",\"Stims/Figures/44-J-10-3.bmp\",\"zasa:ha\",\"Right\",\"37\",\"1\",\"14\",\"8\",\"C2\",\"J\",\"14\"
\"\",\"\",\"approach-retreat\",\"18\",\"301943\",\"0.0-18.0\",\"\",\"\",\"1-5\",\"4601\",\"40\",\"0\",\"Training\",\"Stims/Figures/100-J-10-3.bmp\",\"za:saza\",\"Down\",\"38\",\"1\",\"15\",\"8\",\"C2\",\"J\",\"15\"
\"\",\"\",\"approach-retreat\",\"19\",\"310416\",\"0.0-19.0\",\"\",\"\",\"1-5\",\"6959\",\"37\",\"0\",\"Training\",\"Stims/Figures/139-C-20-2.bmp\",\"vasha:sha\",\"Right\",\"39\",\"1\",\"16\",\"8\",\"C1\",\"J\",\"16\"
\"\",\"\",\"approach-retreat\",\"20\",\"317165\",\"0.0-20.0\",\"\",\"\",\"1-5\",\"5236\",\"38\",\"0\",\"Training\",\"Stims/Figures/100-C-30-3.bmp\",\"sa:saha\",\"Down\",\"40\",\"2\",\"1\",\"8\",\"C2\",\"J\",\"17\"
\"\",\"\",\"approach-retreat\",\"21\",\"323461\",\"0.0-21.0\",\"\",\"\",\"1-5\",\"4779\",\"37\",\"0\",\"Training\",\"Stims/Figures/7-C-20-4.bmp\",\"sa:haha\",\"Right\",\"39\",\"2\",\"2\",\"8\",\"C2\",\"J\",\"18\"
\"\",\"\",\"approach-retreat\",\"22\",\"329817\",\"0.0-22.0\",\"\",\"\",\"1-5\",\"4845\",\"40\",\"0\",\"Training\",\"Stims/Figures/139-J-0-2.bmp\",\"va:shasha\",\"Down\",\"38\",\"2\",\"3\",\"8\",\"C1\",\"J\",\"19\"
\"\",\"\",\"approach-retreat\",\"23\",\"336129\",\"0.0-23.0\",\"\",\"\",\"1-5\",\"4797\",\"39\",\"1\",\"Training\",\"Stims/Figures/94-C-20-2.bmp\",\"fasha:va\",\"Right\",\"39\",\"2\",\"4\",\"8\",\"C1\",\"J\",\"20\"
\"\",\"\",\"approach-retreat\",\"24\",\"341983\",\"0.0-24.0\",\"\",\"\",\"1-5\",\"4338\",\"39\",\"1\",\"Training\",\"Stims/Figures/102-C-20-4.bmp\",\"zasaha\",\"Right\",\"39\",\"2\",\"5\",\"8\",\"C2\",\"J\",\"21\"
\"\",\"\",\"approach-retreat\",\"25\",\"348377\",\"0.0-25.0\",\"\",\"\",\"1-5\",\"4875\",\"40\",\"0\",\"Training\",\"Stims/Figures/71-J-0-1.bmp\",\"vafa:sha\",\"Down\",\"38\",\"2\",\"6\",\"8\",\"C1\",\"J\",\"22\"
\"\",\"\",\"approach-retreat\",\"26\",\"354451\",\"0.0-26.0\",\"\",\"\",\"1-5\",\"4562\",\"37\",\"1\",\"Training\",\"Stims/Figures/71-C-30-1.bmp\",\"fashava\",\"Left\",\"37\",\"2\",\"7\",\"8\",\"C1\",\"J\",\"23\"
\"\",\"\",\"approach-retreat\",\"27\",\"360313\",\"0.0-27.0\",\"\",\"\",\"1-5\",\"4347\",\"39\",\"0\",\"Training\",\"Stims/Figures/102-J-10-4.bmp\",\"sa:saza\",\"Right\",\"37\",\"2\",\"8\",\"8\",\"C2\",\"J\",\"24\"
\"\",\"\",\"approach-retreat\",\"28\",\"366968\",\"0.0-28.0\",\"\",\"\",\"1-5\",\"5140\",\"40\",\"1\",\"Training\",\"Stims/Figures/7-J-10-4.bmp\",\"sa:sa:za\",\"Up\",\"40\",\"2\",\"9\",\"8\",\"C2\",\"J\",\"25\"
\"\",\"\",\"approach-retreat\",\"29\",\"373560\",\"0.0-29.0\",\"\",\"\",\"1-5\",\"5077\",\"39\",\"1\",\"Training\",\"Stims/Figures/94-J-0-2.bmp\",\"fashasha\",\"Left\",\"39\",\"2\",\"10\",\"8\",\"C1\",\"J\",\"26\"
\"\",\"\",\"approach-retreat\",\"30\",\"380019\",\"0.0-30.0\",\"\",\"\",\"1-5\",\"4944\",\"37\",\"0\",\"Training\",\"Stims/Figures/44-J-10-3.bmp\",\"zasa:ha\",\"Left\",\"39\",\"2\",\"11\",\"8\",\"C2\",\"J\",\"27\"
\"\",\"\",\"approach-retreat\",\"31\",\"386024\",\"0.0-31.0\",\"\",\"\",\"1-5\",\"4492\",\"40\",\"0\",\"Training\",\"Stims/Figures/44-C-30-3.bmp\",\"sasa:ha\",\"Up\",\"38\",\"2\",\"12\",\"8\",\"C2\",\"J\",\"28\"
\"\",\"\",\"approach-retreat\",\"32\",\"391881\",\"0.0-32.0\",\"\",\"\",\"1-5\",\"4343\",\"39\",\"0\",\"Training\",\"Stims/Figures/139-C-20-2.bmp\",\"vasha:sha\",\"Left\",\"37\",\"2\",\"13\",\"8\",\"C1\",\"J\",\"29\"
\"\",\"\",\"approach-retreat\",\"33\",\"397788\",\"0.0-33.0\",\"\",\"\",\"1-5\",\"4392\",\"40\",\"1\",\"Training\",\"Stims/Figures/57-J-0-1.bmp\",\"fafasha\",\"Up\",\"40\",\"2\",\"14\",\"8\",\"C1\",\"J\",\"30\"
\"\",\"\",\"approach-retreat\",\"34\",\"403492\",\"0.0-34.0\",\"\",\"\",\"1-5\",\"4188\",\"40\",\"0\",\"Training\",\"Stims/Figures/57-C-30-1.bmp\",\"vafa:va\",\"Up\",\"38\",\"2\",\"15\",\"8\",\"C1\",\"J\",\"31\"
\"\",\"\",\"approach-retreat\",\"35\",\"409209\",\"0.0-35.0\",\"\",\"\",\"1-5\",\"4202\",\"40\",\"0\",\"Training\",\"Stims/Figures/100-J-10-3.bmp\",\"za:saza\",\"Down\",\"38\",\"2\",\"16\",\"8\",\"C2\",\"J\",\"32\"
\"\",\"\",\"approach-retreat\",\"36\",\"415235\",\"0.0-36.0\",\"\",\"\",\"1-5\",\"4513\",\"39\",\"1\",\"Training\",\"Stims/Figures/100-C-30-3.bmp\",\"sa:saha\",\"Right\",\"39\",\"3\",\"1\",\"8\",\"C2\",\"J\",\"33\"
\"\",\"\",\"approach-retreat\",\"37\",\"422552\",\"0.0-37.0\",\"\",\"\",\"1-5\",\"5802\",\"39\",\"1\",\"Training\",\"Stims/Figures/44-C-30-3.bmp\",\"sasa:ha\",\"Right\",\"39\",\"3\",\"2\",\"8\",\"C2\",\"J\",\"34\"
\"\",\"\",\"approach-retreat\",\"38\",\"429586\",\"0.0-38.0\",\"\",\"\",\"1-5\",\"5518\",\"40\",\"1\",\"Training\",\"Stims/Figures/100-J-10-3.bmp\",\"za:saza\",\"Up\",\"40\",\"3\",\"3\",\"8\",\"C2\",\"J\",\"35\"
\"\",\"\",\"approach-retreat\",\"39\",\"435337\",\"0.0-39.0\",\"\",\"\",\"1-5\",\"4233\",\"39\",\"0\",\"Training\",\"Stims/Figures/71-C-30-1.bmp\",\"fashava\",\"Left\",\"37\",\"3\",\"4\",\"8\",\"C1\",\"J\",\"36\"
\"\",\"\",\"approach-retreat\",\"40\",\"441122\",\"0.0-40.0\",\"\",\"\",\"1-5\",\"4274\",\"40\",\"0\",\"Training\",\"Stims/Figures/71-J-0-1.bmp\",\"vafa:sha\",\"Down\",\"38\",\"3\",\"5\",\"8\",\"C1\",\"J\",\"37\"
\"\",\"\",\"approach-retreat\",\"41\",\"446828\",\"0.0-41.0\",\"\",\"\",\"1-5\",\"4192\",\"40\",\"0\",\"Training\",\"Stims/Figures/7-J-10-4.bmp\",\"sa:sa:za\",\"Down\",\"38\",\"3\",\"6\",\"8\",\"C2\",\"J\",\"38\"
\"\",\"\",\"approach-retreat\",\"42\",\"453405\",\"0.0-42.0\",\"\",\"\",\"1-5\",\"5063\",\"38\",\"1\",\"Training\",\"Stims/Figures/44-J-10-3.bmp\",\"zasa:ha\",\"Down\",\"38\",\"3\",\"7\",\"8\",\"C2\",\"J\",\"39\"
\"\",\"\",\"approach-retreat\",\"43\",\"460169\",\"0.0-43.0\",\"\",\"\",\"1-5\",\"5252\",\"38\",\"1\",\"Training\",\"Stims/Figures/94-C-20-2.bmp\",\"fasha:va\",\"Up\",\"38\",\"3\",\"8\",\"8\",\"C1\",\"J\",\"40\"
\"\",\"\",\"approach-retreat\",\"44\",\"467580\",\"0.0-44.0\",\"\",\"\",\"1-5\",\"5896\",\"39\",\"0\",\"Training\",\"Stims/Figures/7-C-20-4.bmp\",\"sa:haha\",\"Left\",\"37\",\"3\",\"9\",\"8\",\"C2\",\"J\",\"41\"
\"\",\"\",\"approach-retreat\",\"45\",\"473682\",\"0.0-45.0\",\"\",\"\",\"1-5\",\"4588\",\"37\",\"0\",\"Training\",\"Stims/Figures/57-J-0-1.bmp\",\"fafasha\",\"Left\",\"39\",\"3\",\"10\",\"8\",\"C1\",\"J\",\"42\"
\"\",\"\",\"approach-retreat\",\"46\",\"479529\",\"0.0-46.0\",\"\",\"\",\"1-5\",\"4333\",\"39\",\"1\",\"Training\",\"Stims/Figures/102-J-10-4.bmp\",\"sa:saza\",\"Left\",\"39\",\"3\",\"11\",\"8\",\"C2\",\"J\",\"43\"
\"\",\"\",\"approach-retreat\",\"47\",\"485628\",\"0.0-47.0\",\"\",\"\",\"1-5\",\"4585\",\"37\",\"1\",\"Training\",\"Stims/Figures/94-J-0-2.bmp\",\"fashasha\",\"Right\",\"37\",\"3\",\"12\",\"8\",\"C1\",\"J\",\"44\"
\"\",\"\",\"approach-retreat\",\"48\",\"491624\",\"0.0-48.0\",\"\",\"\",\"1-5\",\"4475\",\"40\",\"0\",\"Training\",\"Stims/Figures/102-C-20-4.bmp\",\"zasaha\",\"Up\",\"38\",\"3\",\"13\",\"8\",\"C2\",\"J\",\"45\"
\"\",\"\",\"approach-retreat\",\"49\",\"497661\",\"0.0-49.0\",\"\",\"\",\"1-5\",\"4524\",\"37\",\"0\",\"Training\",\"Stims/Figures/139-C-20-2.bmp\",\"vasha:sha\",\"Right\",\"39\",\"3\",\"14\",\"8\",\"C1\",\"J\",\"46\"
\"\",\"\",\"approach-retreat\",\"50\",\"504246\",\"0.0-50.0\",\"\",\"\",\"1-5\",\"5070\",\"38\",\"0\",\"Training\",\"Stims/Figures/57-C-30-1.bmp\",\"vafa:va\",\"Down\",\"40\",\"3\",\"15\",\"8\",\"C1\",\"J\",\"47\"
\"\",\"\",\"approach-retreat\",\"51\",\"510183\",\"0.0-51.0\",\"\",\"\",\"1-5\",\"4424\",\"40\",\"1\",\"Training\",\"Stims/Figures/139-J-0-2.bmp\",\"va:shasha\",\"Up\",\"40\",\"3\",\"16\",\"8\",\"C1\",\"J\",\"48\"
\"\",\"\",\"approach-retreat\",\"52\",\"516599\",\"0.0-52.0\",\"\",\"\",\"1-5\",\"4910\",\"38\",\"1\",\"Training\",\"Stims/Figures/44-J-10-3.bmp\",\"zasa:ha\",\"Down\",\"38\",\"4\",\"1\",\"8\",\"C2\",\"J\",\"49\"
\"\",\"\",\"approach-retreat\",\"53\",\"522164\",\"0.0-53.0\",\"\",\"\",\"1-5\",\"4048\",\"40\",\"1\",\"Training\",\"Stims/Figures/44-C-30-3.bmp\",\"sasa:ha\",\"Down\",\"40\",\"4\",\"2\",\"8\",\"C2\",\"J\",\"50\"
\"\",\"\",\"approach-retreat\",\"54\",\"531019\",\"0.0-54.0\",\"\",\"\",\"1-5\",\"7341\",\"38\",\"1\",\"Training\",\"Stims/Figures/139-C-20-2.bmp\",\"vasha:sha\",\"Up\",\"38\",\"4\",\"3\",\"8\",\"C1\",\"J\",\"51\"
\"\",\"\",\"approach-retreat\",\"55\",\"537309\",\"0.0-55.0\",\"\",\"\",\"1-5\",\"4772\",\"38\",\"1\",\"Training\",\"Stims/Figures/94-C-20-2.bmp\",\"fasha:va\",\"Up\",\"38\",\"4\",\"4\",\"8\",\"C1\",\"J\",\"52\"
\"\",\"\",\"approach-retreat\",\"56\",\"542940\",\"0.0-56.0\",\"\",\"\",\"1-5\",\"4118\",\"40\",\"0\",\"Training\",\"Stims/Figures/7-J-10-4.bmp\",\"sa:sa:za\",\"Down\",\"38\",\"4\",\"5\",\"8\",\"C2\",\"J\",\"53\"
\"\",\"\",\"approach-retreat\",\"57\",\"548817\",\"0.0-57.0\",\"\",\"\",\"1-5\",\"4363\",\"40\",\"1\",\"Training\",\"Stims/Figures/100-J-10-3.bmp\",\"za:saza\",\"Up\",\"40\",\"4\",\"6\",\"8\",\"C2\",\"J\",\"54\"
\"\",\"\",\"approach-retreat\",\"58\",\"555989\",\"0.0-58.0\",\"\",\"\",\"1-5\",\"5656\",\"39\",\"1\",\"Training\",\"Stims/Figures/7-C-20-4.bmp\",\"sa:haha\",\"Right\",\"39\",\"4\",\"7\",\"8\",\"C2\",\"J\",\"55\"
\"\",\"\",\"approach-retreat\",\"59\",\"562193\",\"0.0-59.0\",\"\",\"\",\"1-5\",\"4699\",\"37\",\"1\",\"Training\",\"Stims/Figures/71-J-0-1.bmp\",\"vafa:sha\",\"Right\",\"37\",\"4\",\"8\",\"8\",\"C1\",\"J\",\"56\"
\"\",\"\",\"approach-retreat\",\"60\",\"568067\",\"0.0-60.0\",\"\",\"\",\"1-5\",\"4367\",\"39\",\"0\",\"Training\",\"Stims/Figures/102-J-10-4.bmp\",\"sa:saza\",\"Right\",\"37\",\"4\",\"9\",\"8\",\"C2\",\"J\",\"57\"
\"\",\"\",\"approach-retreat\",\"61\",\"573960\",\"0.0-61.0\",\"\",\"\",\"1-5\",\"4380\",\"38\",\"1\",\"Training\",\"Stims/Figures/57-C-30-1.bmp\",\"vafa:va\",\"Up\",\"38\",\"4\",\"10\",\"8\",\"C1\",\"J\",\"58\"
\"\",\"\",\"approach-retreat\",\"62\",\"579941\",\"0.0-62.0\",\"\",\"\",\"1-5\",\"4467\",\"37\",\"1\",\"Training\",\"Stims/Figures/94-J-0-2.bmp\",\"fashasha\",\"Right\",\"37\",\"4\",\"11\",\"8\",\"C1\",\"J\",\"59\"
\"\",\"\",\"approach-retreat\",\"63\",\"585690\",\"0.0-63.0\",\"\",\"\",\"1-5\",\"4234\",\"39\",\"0\",\"Training\",\"Stims/Figures/102-C-20-4.bmp\",\"zasaha\",\"Left\",\"37\",\"4\",\"12\",\"8\",\"C2\",\"J\",\"60\"
\"\",\"\",\"approach-retreat\",\"64\",\"591424\",\"0.0-64.0\",\"\",\"\",\"1-5\",\"4220\",\"39\",\"0\",\"Training\",\"Stims/Figures/71-C-30-1.bmp\",\"fashava\",\"Left\",\"37\",\"4\",\"13\",\"8\",\"C1\",\"J\",\"61\"
\"\",\"\",\"approach-retreat\",\"65\",\"597504\",\"0.0-65.0\",\"\",\"\",\"1-5\",\"4571\",\"38\",\"1\",\"Training\",\"Stims/Figures/139-J-0-2.bmp\",\"va:shasha\",\"Down\",\"38\",\"4\",\"14\",\"8\",\"C1\",\"J\",\"62\"
\"\",\"\",\"approach-retreat\",\"66\",\"603054\",\"0.0-66.0\",\"\",\"\",\"1-5\",\"4033\",\"39\",\"0\",\"Training\",\"Stims/Figures/100-C-30-3.bmp\",\"sa:saha\",\"Left\",\"37\",\"4\",\"15\",\"8\",\"C2\",\"J\",\"63\"
\"\",\"\",\"approach-retreat\",\"67\",\"608858\",\"0.0-67.0\",\"\",\"\",\"1-5\",\"4292\",\"39\",\"1\",\"Training\",\"Stims/Figures/57-J-0-1.bmp\",\"fafasha\",\"Left\",\"39\",\"4\",\"16\",\"8\",\"C1\",\"J\",\"64\"
\"\",\"\",\"approach-retreat\",\"68\",\"614562\",\"0.0-68.0\",\"\",\"\",\"1-5\",\"4190\",\"37\",\"1\",\"Training\",\"Stims/Figures/57-C-30-1.bmp\",\"vafa:va\",\"Left\",\"37\",\"5\",\"1\",\"8\",\"C1\",\"J\",\"65\"
\"\",\"\",\"approach-retreat\",\"69\",\"620459\",\"0.0-69.0\",\"\",\"\",\"1-5\",\"4380\",\"39\",\"0\",\"Training\",\"Stims/Figures/102-J-10-4.bmp\",\"sa:saza\",\"Right\",\"37\",\"5\",\"2\",\"8\",\"C2\",\"J\",\"66\"
\"\",\"\",\"approach-retreat\",\"70\",\"626777\",\"0.0-70.0\",\"\",\"\",\"1-5\",\"4804\",\"38\",\"1\",\"Training\",\"Stims/Figures/94-J-0-2.bmp\",\"fashasha\",\"Down\",\"38\",\"5\",\"3\",\"8\",\"C1\",\"J\",\"67\"
\"\",\"\",\"approach-retreat\",\"71\",\"632492\",\"0.0-71.0\",\"\",\"\",\"1-5\",\"4201\",\"39\",\"0\",\"Training\",\"Stims/Figures/7-J-10-4.bmp\",\"sa:sa:za\",\"Right\",\"37\",\"5\",\"4\",\"8\",\"C2\",\"J\",\"68\"
\"\",\"\",\"approach-retreat\",\"72\",\"638134\",\"0.0-72.0\",\"\",\"\",\"1-5\",\"4127\",\"39\",\"1\",\"Training\",\"Stims/Figures/100-J-10-3.bmp\",\"za:saza\",\"Left\",\"39\",\"5\",\"5\",\"8\",\"C2\",\"J\",\"69\"
\"\",\"\",\"approach-retreat\",\"73\",\"644305\",\"0.0-73.0\",\"\",\"\",\"1-5\",\"4658\",\"38\",\"1\",\"Training\",\"Stims/Figures/44-J-10-3.bmp\",\"zasa:ha\",\"Down\",\"38\",\"5\",\"6\",\"8\",\"C2\",\"J\",\"70\"
\"\",\"\",\"approach-retreat\",\"74\",\"650232\",\"0.0-74.0\",\"\",\"\",\"1-5\",\"4420\",\"40\",\"1\",\"Training\",\"Stims/Figures/57-J-0-1.bmp\",\"fafasha\",\"Up\",\"40\",\"5\",\"7\",\"8\",\"C1\",\"J\",\"71\"
\"\",\"\",\"approach-retreat\",\"75\",\"656146\",\"0.0-75.0\",\"\",\"\",\"1-5\",\"4404\",\"37\",\"1\",\"Training\",\"Stims/Figures/139-J-0-2.bmp\",\"va:shasha\",\"Right\",\"37\",\"5\",\"8\",\"8\",\"C1\",\"J\",\"72\"
\"\",\"\",\"approach-retreat\",\"76\",\"662011\",\"0.0-76.0\",\"\",\"\",\"1-5\",\"4347\",\"37\",\"1\",\"Training\",\"Stims/Figures/100-C-30-3.bmp\",\"sa:saha\",\"Left\",\"37\",\"5\",\"9\",\"8\",\"C2\",\"J\",\"73\"
\"\",\"\",\"approach-retreat\",\"77\",\"668318\",\"0.0-77.0\",\"\",\"\",\"1-5\",\"4785\",\"38\",\"1\",\"Training\",\"Stims/Figures/139-C-20-2.bmp\",\"vasha:sha\",\"Up\",\"38\",\"5\",\"10\",\"8\",\"C1\",\"J\",\"74\"
\"\",\"\",\"approach-retreat\",\"78\",\"674568\",\"0.0-78.0\",\"\",\"\",\"1-5\",\"4743\",\"38\",\"1\",\"Training\",\"Stims/Figures/44-C-30-3.bmp\",\"sasa:ha\",\"Up\",\"38\",\"5\",\"11\",\"8\",\"C2\",\"J\",\"75\"
\"\",\"\",\"approach-retreat\",\"79\",\"681992\",\"0.0-79.0\",\"\",\"\",\"1-5\",\"5910\",\"37\",\"0\",\"Training\",\"Stims/Figures/7-C-20-4.bmp\",\"sa:haha\",\"Right\",\"39\",\"5\",\"12\",\"8\",\"C2\",\"J\",\"76\"
\"\",\"\",\"approach-retreat\",\"80\",\"687774\",\"0.0-80.0\",\"\",\"\",\"1-5\",\"4246\",\"38\",\"0\",\"Training\",\"Stims/Figures/102-C-20-4.bmp\",\"zasaha\",\"Down\",\"40\",\"5\",\"13\",\"8\",\"C2\",\"J\",\"77\"
\"\",\"\",\"approach-retreat\",\"81\",\"693652\",\"0.0-81.0\",\"\",\"\",\"1-5\",\"4363\",\"40\",\"0\",\"Training\",\"Stims/Figures/94-C-20-2.bmp\",\"fasha:va\",\"Up\",\"38\",\"5\",\"14\",\"8\",\"C1\",\"J\",\"78\"
\"\",\"\",\"approach-retreat\",\"82\",\"699488\",\"0.0-82.0\",\"\",\"\",\"1-5\",\"4330\",\"37\",\"1\",\"Training\",\"Stims/Figures/71-C-30-1.bmp\",\"fashava\",\"Left\",\"37\",\"5\",\"15\",\"8\",\"C1\",\"J\",\"79\"
\"\",\"\",\"approach-retreat\",\"83\",\"705501\",\"0.0-83.0\",\"\",\"\",\"1-5\",\"4494\",\"38\",\"1\",\"Training\",\"Stims/Figures/71-J-0-1.bmp\",\"vafa:sha\",\"Down\",\"38\",\"5\",\"16\",\"8\",\"C1\",\"J\",\"80\"
\"\",\"\",\"approach-retreat\",\"84\",\"711821\",\"0.0-84.0\",\"\",\"\",\"1-5\",\"4802\",\"38\",\"0\",\"Training\",\"Stims/Figures/102-C-20-4.bmp\",\"zasaha\",\"Down\",\"40\",\"6\",\"1\",\"8\",\"C2\",\"J\",\"81\"
\"\",\"\",\"approach-retreat\",\"85\",\"717518\",\"0.0-85.0\",\"\",\"\",\"1-5\",\"4183\",\"40\",\"1\",\"Training\",\"Stims/Figures/139-C-20-2.bmp\",\"vasha:sha\",\"Down\",\"40\",\"6\",\"2\",\"8\",\"C1\",\"J\",\"82\"
\"\",\"\",\"approach-retreat\",\"86\",\"723228\",\"0.0-86.0\",\"\",\"\",\"1-5\",\"4195\",\"38\",\"1\",\"Training\",\"Stims/Figures/71-J-0-1.bmp\",\"vafa:sha\",\"Down\",\"38\",\"6\",\"3\",\"8\",\"C1\",\"J\",\"83\"
\"\",\"\",\"approach-retreat\",\"87\",\"729132\",\"0.0-87.0\",\"\",\"\",\"1-5\",\"4390\",\"39\",\"1\",\"Training\",\"Stims/Figures/102-J-10-4.bmp\",\"sa:saza\",\"Left\",\"39\",\"6\",\"4\",\"8\",\"C2\",\"J\",\"84\"
\"\",\"\",\"approach-retreat\",\"88\",\"736562\",\"0.0-88.0\",\"\",\"\",\"1-5\",\"5913\",\"39\",\"1\",\"Training\",\"Stims/Figures/44-C-30-3.bmp\",\"sasa:ha\",\"Right\",\"39\",\"6\",\"5\",\"8\",\"C2\",\"J\",\"85\"
\"\",\"\",\"approach-retreat\",\"89\",\"742255\",\"0.0-89.0\",\"\",\"\",\"1-5\",\"4178\",\"39\",\"1\",\"Training\",\"Stims/Figures/44-J-10-3.bmp\",\"zasa:ha\",\"Left\",\"39\",\"6\",\"6\",\"8\",\"C2\",\"J\",\"86\"
\"\",\"\",\"approach-retreat\",\"90\",\"748016\",\"0.0-90.0\",\"\",\"\",\"1-5\",\"4252\",\"37\",\"1\",\"Training\",\"Stims/Figures/94-C-20-2.bmp\",\"fasha:va\",\"Left\",\"37\",\"6\",\"7\",\"8\",\"C1\",\"J\",\"87\"
\"\",\"\",\"approach-retreat\",\"91\",\"754131\",\"0.0-91.0\",\"\",\"\",\"1-5\",\"4605\",\"37\",\"1\",\"Training\",\"Stims/Figures/139-J-0-2.bmp\",\"va:shasha\",\"Right\",\"37\",\"6\",\"8\",\"8\",\"C1\",\"J\",\"88\"
\"\",\"\",\"approach-retreat\",\"92\",\"760419\",\"0.0-92.0\",\"\",\"\",\"1-5\",\"4772\",\"38\",\"0\",\"Training\",\"Stims/Figures/7-J-10-4.bmp\",\"sa:sa:za\",\"Up\",\"40\",\"6\",\"9\",\"8\",\"C2\",\"J\",\"89\"
\"\",\"\",\"approach-retreat\",\"93\",\"766438\",\"0.0-93.0\",\"\",\"\",\"1-5\",\"4504\",\"38\",\"1\",\"Training\",\"Stims/Figures/7-C-20-4.bmp\",\"sa:haha\",\"Up\",\"38\",\"6\",\"10\",\"8\",\"C2\",\"J\",\"90\"
\"\",\"\",\"approach-retreat\",\"94\",\"772836\",\"0.0-94.0\",\"\",\"\",\"1-5\",\"4885\",\"39\",\"1\",\"Training\",\"Stims/Figures/100-J-10-3.bmp\",\"za:saza\",\"Left\",\"39\",\"6\",\"11\",\"8\",\"C2\",\"J\",\"91\"
\"\",\"\",\"approach-retreat\",\"95\",\"778860\",\"0.0-95.0\",\"\",\"\",\"1-5\",\"4511\",\"39\",\"1\",\"Training\",\"Stims/Figures/100-C-30-3.bmp\",\"sa:saha\",\"Right\",\"39\",\"6\",\"12\",\"8\",\"C2\",\"J\",\"92\"
\"\",\"\",\"approach-retreat\",\"96\",\"784757\",\"0.0-96.0\",\"\",\"\",\"1-5\",\"4384\",\"40\",\"1\",\"Training\",\"Stims/Figures/94-J-0-2.bmp\",\"fashasha\",\"Up\",\"40\",\"6\",\"13\",\"8\",\"C1\",\"J\",\"93\"
\"\",\"\",\"approach-retreat\",\"97\",\"790655\",\"0.0-97.0\",\"\",\"\",\"1-5\",\"4384\",\"40\",\"1\",\"Training\",\"Stims/Figures/71-C-30-1.bmp\",\"fashava\",\"Down\",\"40\",\"6\",\"14\",\"8\",\"C1\",\"J\",\"94\"
\"\",\"\",\"approach-retreat\",\"98\",\"796677\",\"0.0-98.0\",\"\",\"\",\"1-5\",\"4491\",\"38\",\"1\",\"Training\",\"Stims/Figures/57-C-30-1.bmp\",\"vafa:va\",\"Up\",\"38\",\"6\",\"15\",\"8\",\"C1\",\"J\",\"95\"
\"\",\"\",\"approach-retreat\",\"99\",\"802463\",\"0.0-99.0\",\"\",\"\",\"1-5\",\"4272\",\"37\",\"1\",\"Training\",\"Stims/Figures/57-J-0-1.bmp\",\"fafasha\",\"Right\",\"37\",\"6\",\"16\",\"8\",\"C1\",\"J\",\"96\"
\"\",\"\",\"approach-retreat\",\"100\",\"808733\",\"0.0-100.0\",\"\",\"\",\"1-5\",\"4757\",\"37\",\"1\",\"Training\",\"Stims/Figures/102-C-20-4.bmp\",\"zasaha\",\"Left\",\"37\",\"7\",\"1\",\"8\",\"C2\",\"J\",\"97\"
\"\",\"\",\"approach-retreat\",\"101\",\"814904\",\"0.0-101.0\",\"\",\"\",\"1-5\",\"4657\",\"39\",\"1\",\"Training\",\"Stims/Figures/139-C-20-2.bmp\",\"vasha:sha\",\"Right\",\"39\",\"7\",\"2\",\"8\",\"C1\",\"J\",\"98\"
\"\",\"\",\"approach-retreat\",\"102\",\"820702\",\"0.0-102.0\",\"\",\"\",\"1-5\",\"4280\",\"39\",\"1\",\"Training\",\"Stims/Figures/57-J-0-1.bmp\",\"fafasha\",\"Left\",\"39\",\"7\",\"3\",\"8\",\"C1\",\"J\",\"99\"
\"\",\"\",\"approach-retreat\",\"103\",\"827099\",\"0.0-103.0\",\"\",\"\",\"1-5\",\"4883\",\"40\",\"1\",\"Training\",\"Stims/Figures/7-C-20-4.bmp\",\"sa:haha\",\"Down\",\"40\",\"7\",\"4\",\"8\",\"C2\",\"J\",\"100\"
\"\",\"\",\"approach-retreat\",\"104\",\"833334\",\"0.0-104.0\",\"\",\"\",\"1-5\",\"4721\",\"40\",\"1\",\"Training\",\"Stims/Figures/94-J-0-2.bmp\",\"fashasha\",\"Up\",\"40\",\"7\",\"5\",\"8\",\"C1\",\"J\",\"101\"
\"\",\"\",\"approach-retreat\",\"105\",\"839229\",\"0.0-105.0\",\"\",\"\",\"1-5\",\"4378\",\"37\",\"1\",\"Training\",\"Stims/Figures/57-C-30-1.bmp\",\"vafa:va\",\"Left\",\"37\",\"7\",\"6\",\"8\",\"C1\",\"J\",\"102\"
\"\",\"\",\"approach-retreat\",\"106\",\"845778\",\"0.0-106.0\",\"\",\"\",\"1-5\",\"5033\",\"40\",\"1\",\"Training\",\"Stims/Figures/102-J-10-4.bmp\",\"sa:saza\",\"Up\",\"40\",\"7\",\"7\",\"8\",\"C2\",\"J\",\"103\"
\"\",\"\",\"approach-retreat\",\"107\",\"851765\",\"0.0-107.0\",\"\",\"\",\"1-5\",\"4473\",\"38\",\"1\",\"Training\",\"Stims/Figures/7-J-10-4.bmp\",\"sa:sa:za\",\"Down\",\"38\",\"7\",\"8\",\"8\",\"C2\",\"J\",\"104\"
\"\",\"\",\"approach-retreat\",\"108\",\"860308\",\"0.0-108.0\",\"\",\"\",\"1-5\",\"7027\",\"38\",\"1\",\"Training\",\"Stims/Figures/71-C-30-1.bmp\",\"fashava\",\"Up\",\"38\",\"7\",\"9\",\"8\",\"C1\",\"J\",\"105\"
\"\",\"\",\"approach-retreat\",\"109\",\"869206\",\"0.0-109.0\",\"\",\"\",\"1-5\",\"7386\",\"39\",\"0\",\"Training\",\"Stims/Figures/100-J-10-3.bmp\",\"za:saza\",\"Right\",\"37\",\"7\",\"10\",\"8\",\"C2\",\"J\",\"106\"
\"\",\"\",\"approach-retreat\",\"110\",\"875715\",\"0.0-110.0\",\"\",\"\",\"1-5\",\"4994\",\"40\",\"0\",\"Training\",\"Stims/Figures/139-J-0-2.bmp\",\"va:shasha\",\"Down\",\"38\",\"7\",\"11\",\"8\",\"C1\",\"J\",\"107\"
\"\",\"\",\"approach-retreat\",\"111\",\"882979\",\"0.0-111.0\",\"\",\"\",\"1-5\",\"5752\",\"39\",\"1\",\"Training\",\"Stims/Figures/100-C-30-3.bmp\",\"sa:saha\",\"Right\",\"39\",\"7\",\"12\",\"8\",\"C2\",\"J\",\"108\"
\"\",\"\",\"approach-retreat\",\"112\",\"888742\",\"0.0-112.0\",\"\",\"\",\"1-5\",\"4249\",\"39\",\"1\",\"Training\",\"Stims/Figures/44-J-10-3.bmp\",\"zasa:ha\",\"Left\",\"39\",\"7\",\"13\",\"8\",\"C2\",\"J\",\"109\"
\"\",\"\",\"approach-retreat\",\"113\",\"894477\",\"0.0-113.0\",\"\",\"\",\"1-5\",\"4220\",\"38\",\"1\",\"Training\",\"Stims/Figures/94-C-20-2.bmp\",\"fasha:va\",\"Up\",\"38\",\"7\",\"14\",\"8\",\"C1\",\"J\",\"110\"
\"\",\"\",\"approach-retreat\",\"114\",\"900503\",\"0.0-114.0\",\"\",\"\",\"1-5\",\"4513\",\"39\",\"1\",\"Training\",\"Stims/Figures/44-C-30-3.bmp\",\"sasa:ha\",\"Right\",\"39\",\"7\",\"15\",\"8\",\"C2\",\"J\",\"111\"
\"\",\"\",\"approach-retreat\",\"115\",\"906215\",\"0.0-115.0\",\"\",\"\",\"1-5\",\"4197\",\"38\",\"1\",\"Training\",\"Stims/Figures/71-J-0-1.bmp\",\"vafa:sha\",\"Down\",\"38\",\"7\",\"16\",\"8\",\"C1\",\"J\",\"112\"
\"\",\"\",\"approach-retreat\",\"116\",\"912035\",\"0.0-116.0\",\"\",\"\",\"1-5\",\"4311\",\"40\",\"1\",\"Training\",\"Stims/Figures/71-C-30-1.bmp\",\"fashava\",\"Down\",\"40\",\"8\",\"1\",\"8\",\"C1\",\"J\",\"113\"
\"\",\"\",\"approach-retreat\",\"117\",\"918156\",\"0.0-117.0\",\"\",\"\",\"1-5\",\"4608\",\"37\",\"1\",\"Training\",\"Stims/Figures/102-C-20-4.bmp\",\"zasaha\",\"Left\",\"37\",\"8\",\"2\",\"8\",\"C2\",\"J\",\"114\"
\"\",\"\",\"approach-retreat\",\"118\",\"923883\",\"0.0-118.0\",\"\",\"\",\"1-5\",\"4208\",\"39\",\"1\",\"Training\",\"Stims/Figures/57-C-30-1.bmp\",\"vafa:va\",\"Right\",\"39\",\"8\",\"3\",\"8\",\"C1\",\"J\",\"115\"
\"\",\"\",\"approach-retreat\",\"119\",\"929635\",\"0.0-119.0\",\"\",\"\",\"1-5\",\"4237\",\"40\",\"1\",\"Training\",\"Stims/Figures/94-C-20-2.bmp\",\"fasha:va\",\"Down\",\"40\",\"8\",\"4\",\"8\",\"C1\",\"J\",\"116\"
\"\",\"\",\"approach-retreat\",\"120\",\"935488\",\"0.0-120.0\",\"\",\"\",\"1-5\",\"4337\",\"38\",\"1\",\"Training\",\"Stims/Figures/94-J-0-2.bmp\",\"fashasha\",\"Down\",\"38\",\"8\",\"5\",\"8\",\"C1\",\"J\",\"117\"
\"\",\"\",\"approach-retreat\",\"121\",\"941246\",\"0.0-121.0\",\"\",\"\",\"1-5\",\"4240\",\"40\",\"1\",\"Training\",\"Stims/Figures/7-J-10-4.bmp\",\"sa:sa:za\",\"Up\",\"40\",\"8\",\"6\",\"8\",\"C2\",\"J\",\"118\"
\"\",\"\",\"approach-retreat\",\"122\",\"946910\",\"0.0-122.0\",\"\",\"\",\"1-5\",\"4149\",\"38\",\"1\",\"Training\",\"Stims/Figures/44-C-30-3.bmp\",\"sasa:ha\",\"Up\",\"38\",\"8\",\"7\",\"8\",\"C2\",\"J\",\"119\"
\"\",\"\",\"approach-retreat\",\"123\",\"952593\",\"0.0-123.0\",\"\",\"\",\"1-5\",\"4164\",\"40\",\"1\",\"Training\",\"Stims/Figures/100-C-30-3.bmp\",\"sa:saha\",\"Down\",\"40\",\"8\",\"8\",\"8\",\"C2\",\"J\",\"120\"
\"\",\"\",\"approach-retreat\",\"124\",\"959336\",\"0.0-124.0\",\"\",\"\",\"1-5\",\"5236\",\"40\",\"1\",\"Training\",\"Stims/Figures/44-J-10-3.bmp\",\"zasa:ha\",\"Up\",\"40\",\"8\",\"9\",\"8\",\"C2\",\"J\",\"121\"
\"\",\"\",\"approach-retreat\",\"125\",\"965783\",\"0.0-125.0\",\"\",\"\",\"1-5\",\"4932\",\"37\",\"1\",\"Training\",\"Stims/Figures/139-C-20-2.bmp\",\"vasha:sha\",\"Left\",\"37\",\"8\",\"10\",\"8\",\"C1\",\"J\",\"122\"
\"\",\"\",\"approach-retreat\",\"126\",\"972175\",\"0.0-126.0\",\"\",\"\",\"1-5\",\"4878\",\"37\",\"1\",\"Training\",\"Stims/Figures/100-J-10-3.bmp\",\"za:saza\",\"Right\",\"37\",\"8\",\"11\",\"8\",\"C2\",\"J\",\"123\"
\"\",\"\",\"approach-retreat\",\"127\",\"978060\",\"0.0-127.0\",\"\",\"\",\"1-5\",\"4370\",\"37\",\"1\",\"Training\",\"Stims/Figures/139-J-0-2.bmp\",\"va:shasha\",\"Right\",\"37\",\"8\",\"12\",\"8\",\"C1\",\"J\",\"124\"
\"\",\"\",\"approach-retreat\",\"128\",\"984274\",\"0.0-128.0\",\"\",\"\",\"1-5\",\"4694\",\"37\",\"1\",\"Training\",\"Stims/Figures/57-J-0-1.bmp\",\"fafasha\",\"Right\",\"37\",\"8\",\"13\",\"8\",\"C1\",\"J\",\"125\"
\"\",\"\",\"approach-retreat\",\"129\",\"990344\",\"0.0-129.0\",\"\",\"\",\"1-5\",\"4563\",\"40\",\"1\",\"Training\",\"Stims/Figures/71-J-0-1.bmp\",\"vafa:sha\",\"Up\",\"40\",\"8\",\"14\",\"8\",\"C1\",\"J\",\"126\"
\"\",\"\",\"approach-retreat\",\"130\",\"995944\",\"0.0-130.0\",\"\",\"\",\"1-5\",\"4093\",\"37\",\"1\",\"Training\",\"Stims/Figures/7-C-20-4.bmp\",\"sa:haha\",\"Left\",\"37\",\"8\",\"15\",\"8\",\"C2\",\"J\",\"127\"
\"\",\"\",\"approach-retreat\",\"131\",\"1002252\",\"0.0-131.0\",\"\",\"\",\"1-5\",\"4794\",\"39\",\"1\",\"Training\",\"Stims/Figures/102-J-10-4.bmp\",\"sa:saza\",\"Left\",\"39\",\"8\",\"16\",\"8\",\"C2\",\"J\",\"128\"
\"\",\"\",\"approach-retreat\",\"132\",\"1008181\",\"0.0-132.0\",\"\",\"\",\"1-5\",\"4417\",\"38\",\"1\",\"Training\",\"Stims/Figures/44-J-10-3.bmp\",\"zasa:ha\",\"Down\",\"38\",\"9\",\"1\",\"8\",\"C2\",\"J\",\"129\"
\"\",\"\",\"approach-retreat\",\"133\",\"1015218\",\"0.0-133.0\",\"\",\"\",\"1-5\",\"5523\",\"37\",\"1\",\"Training\",\"Stims/Figures/94-J-0-2.bmp\",\"fashasha\",\"Right\",\"37\",\"9\",\"2\",\"8\",\"C1\",\"J\",\"130\"
\"\",\"\",\"approach-retreat\",\"134\",\"1021083\",\"0.0-134.0\",\"\",\"\",\"1-5\",\"4352\",\"39\",\"1\",\"Training\",\"Stims/Figures/94-C-20-2.bmp\",\"fasha:va\",\"Right\",\"39\",\"9\",\"3\",\"8\",\"C1\",\"J\",\"131\"
\"\",\"\",\"approach-retreat\",\"135\",\"1027383\",\"0.0-135.0\",\"\",\"\",\"1-5\",\"4785\",\"40\",\"1\",\"Training\",\"Stims/Figures/100-C-30-3.bmp\",\"sa:saha\",\"Down\",\"40\",\"9\",\"4\",\"8\",\"C2\",\"J\",\"132\"
\"\",\"\",\"approach-retreat\",\"136\",\"1033246\",\"0.0-136.0\",\"\",\"\",\"1-5\",\"4345\",\"38\",\"1\",\"Training\",\"Stims/Figures/102-J-10-4.bmp\",\"sa:saza\",\"Down\",\"38\",\"9\",\"5\",\"8\",\"C2\",\"J\",\"133\"
\"\",\"\",\"approach-retreat\",\"137\",\"1039169\",\"0.0-137.0\",\"\",\"\",\"1-5\",\"4411\",\"37\",\"1\",\"Training\",\"Stims/Figures/100-J-10-3.bmp\",\"za:saza\",\"Right\",\"37\",\"9\",\"6\",\"8\",\"C2\",\"J\",\"134\"
\"\",\"\",\"approach-retreat\",\"138\",\"1045120\",\"0.0-138.0\",\"\",\"\",\"1-5\",\"4439\",\"38\",\"1\",\"Training\",\"Stims/Figures/102-C-20-4.bmp\",\"zasaha\",\"Up\",\"38\",\"9\",\"7\",\"8\",\"C2\",\"J\",\"135\"
\"\",\"\",\"approach-retreat\",\"139\",\"1052148\",\"0.0-139.0\",\"\",\"\",\"1-5\",\"5510\",\"37\",\"1\",\"Training\",\"Stims/Figures/7-C-20-4.bmp\",\"sa:haha\",\"Left\",\"37\",\"9\",\"8\",\"8\",\"C2\",\"J\",\"136\"
\"\",\"\",\"approach-retreat\",\"140\",\"1057896\",\"0.0-140.0\",\"\",\"\",\"1-5\",\"4232\",\"38\",\"0\",\"Training\",\"Stims/Figures/7-J-10-4.bmp\",\"sa:sa:za\",\"Up\",\"40\",\"9\",\"9\",\"8\",\"C2\",\"J\",\"137\"
\"\",\"\",\"approach-retreat\",\"141\",\"1064003\",\"0.0-141.0\",\"\",\"\",\"1-5\",\"4593\",\"38\",\"1\",\"Training\",\"Stims/Figures/57-C-30-1.bmp\",\"vafa:va\",\"Up\",\"38\",\"9\",\"10\",\"8\",\"C1\",\"J\",\"138\"
\"\",\"\",\"approach-retreat\",\"142\",\"1069846\",\"0.0-142.0\",\"\",\"\",\"1-5\",\"4338\",\"37\",\"1\",\"Training\",\"Stims/Figures/44-C-30-3.bmp\",\"sasa:ha\",\"Left\",\"37\",\"9\",\"11\",\"8\",\"C2\",\"J\",\"139\"
\"\",\"\",\"approach-retreat\",\"143\",\"1075996\",\"0.0-143.0\",\"\",\"\",\"1-5\",\"4634\",\"39\",\"1\",\"Training\",\"Stims/Figures/139-J-0-2.bmp\",\"va:shasha\",\"Left\",\"39\",\"9\",\"12\",\"8\",\"C1\",\"J\",\"140\"
\"\",\"\",\"approach-retreat\",\"144\",\"1081997\",\"0.0-144.0\",\"\",\"\",\"1-5\",\"4485\",\"40\",\"1\",\"Training\",\"Stims/Figures/71-J-0-1.bmp\",\"vafa:sha\",\"Up\",\"40\",\"9\",\"13\",\"8\",\"C1\",\"J\",\"141\"
\"\",\"\",\"approach-retreat\",\"145\",\"1087911\",\"0.0-145.0\",\"\",\"\",\"1-5\",\"4399\",\"37\",\"1\",\"Training\",\"Stims/Figures/57-J-0-1.bmp\",\"fafasha\",\"Right\",\"37\",\"9\",\"14\",\"8\",\"C1\",\"J\",\"142\"
\"\",\"\",\"approach-retreat\",\"146\",\"1094625\",\"0.0-146.0\",\"\",\"\",\"1-5\",\"5199\",\"37\",\"1\",\"Training\",\"Stims/Figures/71-C-30-1.bmp\",\"fashava\",\"Left\",\"37\",\"9\",\"15\",\"8\",\"C1\",\"J\",\"143\"
\"\",\"\",\"approach-retreat\",\"147\",\"1101106\",\"0.0-147.0\",\"\",\"\",\"1-5\",\"4966\",\"40\",\"1\",\"Training\",\"Stims/Figures/139-C-20-2.bmp\",\"vasha:sha\",\"Down\",\"40\",\"9\",\"16\",\"8\",\"C1\",\"J\",\"144\"
\"18602\",\"\",\"instructions\",\"148\",\"1119708\",\"0.0-148.0\",\"[{\"\"page_index\"\":0,\"\"viewing_time\"\":18601}]\",\"\",\"\",\"\",\"\",\"\",\"\",\"\",\"\",\"\",\"\",\"\",\"\",\"\",\"\",\"\",\"\"
\"\",\"\",\"approach-retreat\",\"149\",\"1126482\",\"0.0-149.0\",\"\",\"\",\"1-5\",\"5263\",\"40\",\"1\",\"Testing\",\"Stims/Figures/71-C-30-1.bmp\",\"fashava\",\"Down\",\"40\",\"1\",\"1\",\"8\",\"C1\",\"J\",\"1\"
\"\",\"\",\"approach-retreat\",\"150\",\"1132539\",\"0.0-150.0\",\"\",\"\",\"1-5\",\"4544\",\"39\",\"1\",\"Testing\",\"Stims/Figures/100-C-30-3.bmp\",\"sa:saha\",\"Right\",\"39\",\"1\",\"2\",\"8\",\"C2\",\"J\",\"2\"
\"\",\"\",\"approach-retreat\",\"151\",\"1138801\",\"0.0-151.0\",\"\",\"\",\"1-5\",\"4751\",\"40\",\"0\",\"Testing\",\"Stims/Figures/74-J-10-4.bmp\",\"za:saha\",\"Down\",\"38\",\"1\",\"3\",\"8\",\"C2\",\"J\",\"3\"
\"\",\"\",\"approach-retreat\",\"152\",\"1144737\",\"0.0-152.0\",\"\",\"\",\"1-5\",\"4428\",\"37\",\"1\",\"Testing\",\"Stims/Figures/74-C-20-4.bmp\",\"za:haza\",\"Left\",\"37\",\"1\",\"4\",\"8\",\"C2\",\"J\",\"4\"
\"\",\"\",\"approach-retreat\",\"153\",\"1150708\",\"0.0-153.0\",\"\",\"\",\"1-5\",\"4460\",\"38\",\"1\",\"Testing\",\"Stims/Figures/27-C-30-1.bmp\",\"vashava\",\"Up\",\"38\",\"1\",\"5\",\"8\",\"C1\",\"J\",\"5\"
\"\",\"\",\"approach-retreat\",\"154\",\"1156530\",\"0.0-154.0\",\"\",\"\",\"1-5\",\"4309\",\"39\",\"1\",\"Testing\",\"Stims/Figures/94-C-20-2.bmp\",\"fasha:va\",\"Right\",\"39\",\"1\",\"6\",\"8\",\"C1\",\"J\",\"6\"
\"\",\"\",\"approach-retreat\",\"155\",\"1162418\",\"0.0-155.0\",\"\",\"\",\"1-5\",\"4377\",\"40\",\"1\",\"Testing\",\"Stims/Figures/57-C-30-1.bmp\",\"vafa:va\",\"Down\",\"40\",\"1\",\"7\",\"8\",\"C1\",\"J\",\"7\"
\"\",\"\",\"approach-retreat\",\"156\",\"1168834\",\"0.0-156.0\",\"\",\"\",\"1-5\",\"4902\",\"39\",\"1\",\"Testing\",\"Stims/Figures/44-C-30-3.bmp\",\"sasa:ha\",\"Right\",\"39\",\"1\",\"8\",\"8\",\"C2\",\"J\",\"8\"
\"\",\"\",\"approach-retreat\",\"157\",\"1174711\",\"0.0-157.0\",\"\",\"\",\"1-5\",\"4363\",\"38\",\"1\",\"Testing\",\"Stims/Figures/85-C-20-2.bmp\",\"fafava\",\"Up\",\"38\",\"1\",\"9\",\"8\",\"C1\",\"J\",\"9\"
\"\",\"\",\"approach-retreat\",\"158\",\"1182278\",\"0.0-158.0\",\"\",\"\",\"1-5\",\"6056\",\"38\",\"1\",\"Testing\",\"Stims/Figures/102-C-20-4.bmp\",\"zasaha\",\"Up\",\"38\",\"1\",\"10\",\"8\",\"C2\",\"J\",\"10\"
\"\",\"\",\"approach-retreat\",\"159\",\"1188345\",\"0.0-159.0\",\"\",\"\",\"1-5\",\"4553\",\"39\",\"1\",\"Testing\",\"Stims/Figures/139-J-0-2.bmp\",\"va:shasha\",\"Left\",\"39\",\"1\",\"11\",\"8\",\"C1\",\"J\",\"11\"
\"\",\"\",\"approach-retreat\",\"160\",\"1194145\",\"0.0-160.0\",\"\",\"\",\"1-5\",\"4290\",\"39\",\"1\",\"Testing\",\"Stims/Figures/139-C-20-2.bmp\",\"vasha:sha\",\"Right\",\"39\",\"1\",\"12\",\"8\",\"C1\",\"J\",\"12\"
\"\",\"\",\"approach-retreat\",\"161\",\"1199926\",\"0.0-161.0\",\"\",\"\",\"1-5\",\"4267\",\"39\",\"1\",\"Testing\",\"Stims/Figures/94-J-0-2.bmp\",\"fashasha\",\"Left\",\"39\",\"1\",\"13\",\"8\",\"C1\",\"J\",\"13\"
\"\",\"\",\"approach-retreat\",\"162\",\"1206124\",\"0.0-162.0\",\"\",\"\",\"1-5\",\"4686\",\"38\",\"1\",\"Testing\",\"Stims/Figures/7-J-10-4.bmp\",\"sa:sa:za\",\"Down\",\"38\",\"1\",\"14\",\"8\",\"C2\",\"J\",\"14\"
\"\",\"\",\"approach-retreat\",\"163\",\"1211844\",\"0.0-163.0\",\"\",\"\",\"1-5\",\"4207\",\"40\",\"1\",\"Testing\",\"Stims/Figures/102-J-10-4.bmp\",\"sa:saza\",\"Up\",\"40\",\"1\",\"15\",\"8\",\"C2\",\"J\",\"15\"
\"\",\"\",\"approach-retreat\",\"164\",\"1217803\",\"0.0-164.0\",\"\",\"\",\"1-5\",\"4448\",\"39\",\"1\",\"Testing\",\"Stims/Figures/57-J-0-1.bmp\",\"fafasha\",\"Left\",\"39\",\"1\",\"16\",\"8\",\"C1\",\"J\",\"16\"
\"\",\"\",\"approach-retreat\",\"165\",\"1223489\",\"0.0-165.0\",\"\",\"\",\"1-5\",\"4171\",\"40\",\"1\",\"Testing\",\"Stims/Figures/44-J-10-3.bmp\",\"zasa:ha\",\"Up\",\"40\",\"1\",\"17\",\"8\",\"C2\",\"J\",\"17\"
\"\",\"\",\"approach-retreat\",\"166\",\"1229364\",\"0.0-166.0\",\"\",\"\",\"1-5\",\"4363\",\"37\",\"1\",\"Testing\",\"Stims/Figures/100-J-10-3.bmp\",\"za:saza\",\"Right\",\"37\",\"1\",\"18\",\"8\",\"C2\",\"J\",\"18\"
\"\",\"\",\"approach-retreat\",\"167\",\"1235103\",\"0.0-167.0\",\"\",\"\",\"1-5\",\"4219\",\"37\",\"1\",\"Testing\",\"Stims/Figures/27-J-0-1.bmp\",\"fasha:sha\",\"Right\",\"37\",\"1\",\"19\",\"8\",\"C1\",\"J\",\"19\"
\"\",\"\",\"approach-retreat\",\"168\",\"1241188\",\"0.0-168.0\",\"\",\"\",\"1-5\",\"4570\",\"38\",\"1\",\"Testing\",\"Stims/Figures/71-J-0-1.bmp\",\"vafa:sha\",\"Down\",\"38\",\"1\",\"20\",\"8\",\"C1\",\"J\",\"20\"
\"\",\"\",\"approach-retreat\",\"169\",\"1247058\",\"0.0-169.0\",\"\",\"\",\"1-5\",\"4362\",\"37\",\"1\",\"Testing\",\"Stims/Figures/144-C-30-3.bmp\",\"zaha:za\",\"Left\",\"37\",\"1\",\"21\",\"8\",\"C2\",\"J\",\"21\"
\"\",\"\",\"approach-retreat\",\"170\",\"1253814\",\"0.0-170.0\",\"\",\"\",\"1-5\",\"5245\",\"40\",\"0\",\"Testing\",\"Stims/Figures/144-J-10-3.bmp\",\"za:ha:ha\",\"Down\",\"38\",\"1\",\"22\",\"8\",\"C2\",\"J\",\"22\"
\"\",\"\",\"approach-retreat\",\"171\",\"1259515\",\"0.0-171.0\",\"\",\"\",\"1-5\",\"4190\",\"37\",\"1\",\"Testing\",\"Stims/Figures/7-C-20-4.bmp\",\"sa:haha\",\"Left\",\"37\",\"1\",\"23\",\"8\",\"C2\",\"J\",\"23\"
\"\",\"\",\"approach-retreat\",\"172\",\"1265613\",\"0.0-172.0\",\"\",\"\",\"1-5\",\"4584\",\"40\",\"1\",\"Testing\",\"Stims/Figures/85-J-0-2.bmp\",\"va:fa:sha\",\"Up\",\"40\",\"1\",\"24\",\"8\",\"C1\",\"J\",\"24\"
\"\",\"\",\"approach-retreat\",\"173\",\"1273408\",\"0.0-173.0\",\"\",\"\",\"1-5\",\"6282\",\"38\",\"1\",\"Testing\",\"Stims/Figures/27-J-0-1.bmp\",\"fasha:sha\",\"Down\",\"38\",\"2\",\"1\",\"8\",\"C1\",\"J\",\"25\"
\"\",\"\",\"approach-retreat\",\"174\",\"1279610\",\"0.0-174.0\",\"\",\"\",\"1-5\",\"4690\",\"38\",\"1\",\"Testing\",\"Stims/Figures/44-C-30-3.bmp\",\"sasa:ha\",\"Up\",\"38\",\"2\",\"2\",\"8\",\"C2\",\"J\",\"26\"
\"\",\"\",\"approach-retreat\",\"175\",\"1285441\",\"0.0-175.0\",\"\",\"\",\"1-5\",\"4319\",\"39\",\"1\",\"Testing\",\"Stims/Figures/71-C-30-1.bmp\",\"fashava\",\"Right\",\"39\",\"2\",\"3\",\"8\",\"C1\",\"J\",\"27\"
\"\",\"\",\"approach-retreat\",\"176\",\"1291349\",\"0.0-176.0\",\"\",\"\",\"1-5\",\"4398\",\"37\",\"1\",\"Testing\",\"Stims/Figures/85-J-0-2.bmp\",\"va:fa:sha\",\"Right\",\"37\",\"2\",\"4\",\"8\",\"C1\",\"J\",\"28\"
\"\",\"\",\"approach-retreat\",\"177\",\"1297503\",\"0.0-177.0\",\"\",\"\",\"1-5\",\"4642\",\"37\",\"1\",\"Testing\",\"Stims/Figures/102-C-20-4.bmp\",\"zasaha\",\"Left\",\"37\",\"2\",\"5\",\"8\",\"C2\",\"J\",\"29\"
\"\",\"\",\"approach-retreat\",\"178\",\"1303466\",\"0.0-178.0\",\"\",\"\",\"1-5\",\"4451\",\"37\",\"1\",\"Testing\",\"Stims/Figures/94-C-20-2.bmp\",\"fasha:va\",\"Left\",\"37\",\"2\",\"6\",\"8\",\"C1\",\"J\",\"30\"
\"\",\"\",\"approach-retreat\",\"179\",\"1309458\",\"0.0-179.0\",\"\",\"\",\"1-5\",\"4479\",\"38\",\"1\",\"Testing\",\"Stims/Figures/57-C-30-1.bmp\",\"vafa:va\",\"Up\",\"38\",\"2\",\"7\",\"8\",\"C1\",\"J\",\"31\"
\"\",\"\",\"approach-retreat\",\"180\",\"1315314\",\"0.0-180.0\",\"\",\"\",\"1-5\",\"4345\",\"40\",\"1\",\"Testing\",\"Stims/Figures/100-J-10-3.bmp\",\"za:saza\",\"Up\",\"40\",\"2\",\"8\",\"8\",\"C2\",\"J\",\"32\"
\"\",\"\",\"approach-retreat\",\"181\",\"1321044\",\"0.0-181.0\",\"\",\"\",\"1-5\",\"4219\",\"37\",\"1\",\"Testing\",\"Stims/Figures/7-C-20-4.bmp\",\"sa:haha\",\"Left\",\"37\",\"2\",\"9\",\"8\",\"C2\",\"J\",\"33\"
\"\",\"\",\"approach-retreat\",\"182\",\"1327212\",\"0.0-182.0\",\"\",\"\",\"1-5\",\"4659\",\"39\",\"1\",\"Testing\",\"Stims/Figures/85-C-20-2.bmp\",\"fafava\",\"Right\",\"39\",\"2\",\"10\",\"8\",\"C1\",\"J\",\"34\"
\"\",\"\",\"approach-retreat\",\"183\",\"1332950\",\"0.0-183.0\",\"\",\"\",\"1-5\",\"4227\",\"37\",\"1\",\"Testing\",\"Stims/Figures/71-J-0-1.bmp\",\"vafa:sha\",\"Right\",\"37\",\"2\",\"11\",\"8\",\"C1\",\"J\",\"35\"
\"\",\"\",\"approach-retreat\",\"184\",\"1338673\",\"0.0-184.0\",\"\",\"\",\"1-5\",\"4210\",\"40\",\"1\",\"Testing\",\"Stims/Figures/139-J-0-2.bmp\",\"va:shasha\",\"Up\",\"40\",\"2\",\"12\",\"8\",\"C1\",\"J\",\"36\"
\"\",\"\",\"approach-retreat\",\"185\",\"1345226\",\"0.0-185.0\",\"\",\"\",\"1-5\",\"5044\",\"40\",\"1\",\"Testing\",\"Stims/Figures/144-C-30-3.bmp\",\"zaha:za\",\"Down\",\"40\",\"2\",\"13\",\"8\",\"C2\",\"J\",\"37\"
\"\",\"\",\"approach-retreat\",\"186\",\"1350946\",\"0.0-186.0\",\"\",\"\",\"1-5\",\"4212\",\"40\",\"1\",\"Testing\",\"Stims/Figures/44-J-10-3.bmp\",\"zasa:ha\",\"Up\",\"40\",\"2\",\"14\",\"8\",\"C2\",\"J\",\"38\"
\"\",\"\",\"approach-retreat\",\"187\",\"1356812\",\"0.0-187.0\",\"\",\"\",\"1-5\",\"4354\",\"40\",\"1\",\"Testing\",\"Stims/Figures/139-C-20-2.bmp\",\"vasha:sha\",\"Down\",\"40\",\"2\",\"15\",\"8\",\"C1\",\"J\",\"39\"
\"\",\"\",\"approach-retreat\",\"188\",\"1363082\",\"0.0-188.0\",\"\",\"\",\"1-5\",\"4759\",\"37\",\"1\",\"Testing\",\"Stims/Figures/102-J-10-4.bmp\",\"sa:saza\",\"Right\",\"37\",\"2\",\"16\",\"8\",\"C2\",\"J\",\"40\"
\"\",\"\",\"approach-retreat\",\"189\",\"1369059\",\"0.0-189.0\",\"\",\"\",\"1-5\",\"4467\",\"37\",\"0\",\"Testing\",\"Stims/Figures/74-J-10-4.bmp\",\"za:saha\",\"Left\",\"39\",\"2\",\"17\",\"8\",\"C2\",\"J\",\"41\"
\"\",\"\",\"approach-retreat\",\"190\",\"1375219\",\"0.0-190.0\",\"\",\"\",\"1-5\",\"4650\",\"38\",\"1\",\"Testing\",\"Stims/Figures/57-J-0-1.bmp\",\"fafasha\",\"Down\",\"38\",\"2\",\"18\",\"8\",\"C1\",\"J\",\"42\"
\"\",\"\",\"approach-retreat\",\"191\",\"1381566\",\"0.0-191.0\",\"\",\"\",\"1-5\",\"4836\",\"39\",\"1\",\"Testing\",\"Stims/Figures/94-J-0-2.bmp\",\"fashasha\",\"Left\",\"39\",\"2\",\"19\",\"8\",\"C1\",\"J\",\"43\"
\"\",\"\",\"approach-retreat\",\"192\",\"1387851\",\"0.0-192.0\",\"\",\"\",\"1-5\",\"4758\",\"38\",\"0\",\"Testing\",\"Stims/Figures/144-J-10-3.bmp\",\"za:ha:ha\",\"Up\",\"40\",\"2\",\"20\",\"8\",\"C2\",\"J\",\"44\"
\"\",\"\",\"approach-retreat\",\"193\",\"1393809\",\"0.0-193.0\",\"\",\"\",\"1-5\",\"4448\",\"40\",\"1\",\"Testing\",\"Stims/Figures/27-C-30-1.bmp\",\"vashava\",\"Down\",\"40\",\"2\",\"21\",\"8\",\"C1\",\"J\",\"45\"
\"\",\"\",\"approach-retreat\",\"194\",\"1400116\",\"0.0-194.0\",\"\",\"\",\"1-5\",\"4794\",\"39\",\"0\",\"Testing\",\"Stims/Figures/7-J-10-4.bmp\",\"sa:sa:za\",\"Right\",\"37\",\"2\",\"22\",\"8\",\"C2\",\"J\",\"46\"
\"\",\"\",\"approach-retreat\",\"195\",\"1406040\",\"0.0-195.0\",\"\",\"\",\"1-5\",\"4402\",\"40\",\"1\",\"Testing\",\"Stims/Figures/100-C-30-3.bmp\",\"sa:saha\",\"Down\",\"40\",\"2\",\"23\",\"8\",\"C2\",\"J\",\"47\"
\"\",\"\",\"approach-retreat\",\"196\",\"1411997\",\"0.0-196.0\",\"\",\"\",\"1-5\",\"4444\",\"37\",\"1\",\"Testing\",\"Stims/Figures/74-C-20-4.bmp\",\"za:haza\",\"Left\",\"37\",\"2\",\"24\",\"8\",\"C2\",\"J\",\"48\"
\"\",\"\",\"approach-retreat\",\"197\",\"1417795\",\"0.0-197.0\",\"\",\"\",\"1-5\",\"4288\",\"37\",\"1\",\"Testing\",\"Stims/Figures/85-C-20-2.bmp\",\"fafava\",\"Left\",\"37\",\"3\",\"1\",\"8\",\"C1\",\"J\",\"49\"
\"\",\"\",\"approach-retreat\",\"198\",\"1423637\",\"0.0-198.0\",\"\",\"\",\"1-5\",\"4332\",\"39\",\"1\",\"Testing\",\"Stims/Figures/57-J-0-1.bmp\",\"fafasha\",\"Left\",\"39\",\"3\",\"2\",\"8\",\"C1\",\"J\",\"50\"
\"\",\"\",\"approach-retreat\",\"199\",\"1429413\",\"0.0-199.0\",\"\",\"\",\"1-5\",\"4267\",\"40\",\"1\",\"Testing\",\"Stims/Figures/100-C-30-3.bmp\",\"sa:saha\",\"Down\",\"40\",\"3\",\"3\",\"8\",\"C2\",\"J\",\"51\"
\"\",\"\",\"approach-retreat\",\"200\",\"1435694\",\"0.0-200.0\",\"\",\"\",\"1-5\",\"4769\",\"39\",\"1\",\"Testing\",\"Stims/Figures/94-C-20-2.bmp\",\"fasha:va\",\"Right\",\"39\",\"3\",\"4\",\"8\",\"C1\",\"J\",\"52\"
\"\",\"\",\"approach-retreat\",\"201\",\"1441733\",\"0.0-201.0\",\"\",\"\",\"1-5\",\"4527\",\"37\",\"1\",\"Testing\",\"Stims/Figures/139-J-0-2.bmp\",\"va:shasha\",\"Right\",\"37\",\"3\",\"5\",\"8\",\"C1\",\"J\",\"53\"
\"\",\"\",\"approach-retreat\",\"202\",\"1447378\",\"0.0-202.0\",\"\",\"\",\"1-5\",\"4132\",\"40\",\"1\",\"Testing\",\"Stims/Figures/144-J-10-3.bmp\",\"za:ha:ha\",\"Up\",\"40\",\"3\",\"6\",\"8\",\"C2\",\"J\",\"54\"
\"\",\"\",\"approach-retreat\",\"203\",\"1453077\",\"0.0-203.0\",\"\",\"\",\"1-5\",\"4189\",\"40\",\"1\",\"Testing\",\"Stims/Figures/71-J-0-1.bmp\",\"vafa:sha\",\"Up\",\"40\",\"3\",\"7\",\"8\",\"C1\",\"J\",\"55\"
\"\",\"\",\"approach-retreat\",\"204\",\"1459221\",\"0.0-204.0\",\"\",\"\",\"1-5\",\"4633\",\"40\",\"1\",\"Testing\",\"Stims/Figures/7-C-20-4.bmp\",\"sa:haha\",\"Down\",\"40\",\"3\",\"8\",\"8\",\"C2\",\"J\",\"56\"
\"\",\"\",\"approach-retreat\",\"205\",\"1467008\",\"0.0-205.0\",\"\",\"\",\"1-5\",\"6273\",\"40\",\"1\",\"Testing\",\"Stims/Figures/144-C-30-3.bmp\",\"zaha:za\",\"Down\",\"40\",\"3\",\"9\",\"8\",\"C2\",\"J\",\"57\"
\"\",\"\",\"approach-retreat\",\"206\",\"1472852\",\"0.0-206.0\",\"\",\"\",\"1-5\",\"4330\",\"39\",\"1\",\"Testing\",\"Stims/Figures/27-J-0-1.bmp\",\"fasha:sha\",\"Left\",\"39\",\"3\",\"10\",\"8\",\"C1\",\"J\",\"58\"
\"\",\"\",\"approach-retreat\",\"207\",\"1478535\",\"0.0-207.0\",\"\",\"\",\"1-5\",\"4164\",\"40\",\"1\",\"Testing\",\"Stims/Figures/44-J-10-3.bmp\",\"zasa:ha\",\"Up\",\"40\",\"3\",\"11\",\"8\",\"C2\",\"J\",\"59\"
\"\",\"\",\"approach-retreat\",\"208\",\"1484418\",\"0.0-208.0\",\"\",\"\",\"1-5\",\"4373\",\"39\",\"1\",\"Testing\",\"Stims/Figures/71-C-30-1.bmp\",\"fashava\",\"Right\",\"39\",\"3\",\"12\",\"8\",\"C1\",\"J\",\"60\"
\"\",\"\",\"approach-retreat\",\"209\",\"1490194\",\"0.0-209.0\",\"\",\"\",\"1-5\",\"4264\",\"40\",\"1\",\"Testing\",\"Stims/Figures/57-C-30-1.bmp\",\"vafa:va\",\"Down\",\"40\",\"3\",\"13\",\"8\",\"C1\",\"J\",\"61\"
\"\",\"\",\"approach-retreat\",\"210\",\"1496662\",\"0.0-210.0\",\"\",\"\",\"1-5\",\"4956\",\"38\",\"1\",\"Testing\",\"Stims/Figures/100-J-10-3.bmp\",\"za:saza\",\"Down\",\"38\",\"3\",\"14\",\"8\",\"C2\",\"J\",\"62\"
\"\",\"\",\"approach-retreat\",\"211\",\"1502204\",\"0.0-211.0\",\"\",\"\",\"1-5\",\"4029\",\"40\",\"1\",\"Testing\",\"Stims/Figures/94-J-0-2.bmp\",\"fashasha\",\"Up\",\"40\",\"3\",\"15\",\"8\",\"C1\",\"J\",\"63\"
\"\",\"\",\"approach-retreat\",\"212\",\"1507774\",\"0.0-212.0\",\"\",\"\",\"1-5\",\"4064\",\"40\",\"1\",\"Testing\",\"Stims/Figures/7-J-10-4.bmp\",\"sa:sa:za\",\"Up\",\"40\",\"3\",\"16\",\"8\",\"C2\",\"J\",\"64\"
\"\",\"\",\"approach-retreat\",\"213\",\"1513691\",\"0.0-213.0\",\"\",\"\",\"1-5\",\"4403\",\"37\",\"1\",\"Testing\",\"Stims/Figures/102-J-10-4.bmp\",\"sa:saza\",\"Right\",\"37\",\"3\",\"17\",\"8\",\"C2\",\"J\",\"65\"
\"\",\"\",\"approach-retreat\",\"214\",\"1519325\",\"0.0-214.0\",\"\",\"\",\"1-5\",\"4121\",\"40\",\"1\",\"Testing\",\"Stims/Figures/85-J-0-2.bmp\",\"va:fa:sha\",\"Up\",\"40\",\"3\",\"18\",\"8\",\"C1\",\"J\",\"66\"
\"\",\"\",\"approach-retreat\",\"215\",\"1525577\",\"0.0-215.0\",\"\",\"\",\"1-5\",\"4740\",\"40\",\"1\",\"Testing\",\"Stims/Figures/44-C-30-3.bmp\",\"sasa:ha\",\"Down\",\"40\",\"3\",\"19\",\"8\",\"C2\",\"J\",\"67\"
\"\",\"\",\"approach-retreat\",\"216\",\"1531418\",\"0.0-216.0\",\"\",\"\",\"1-5\",\"4331\",\"37\",\"1\",\"Testing\",\"Stims/Figures/139-C-20-2.bmp\",\"vasha:sha\",\"Left\",\"37\",\"3\",\"20\",\"8\",\"C1\",\"J\",\"68\"
\"\",\"\",\"approach-retreat\",\"217\",\"1537131\",\"0.0-217.0\",\"\",\"\",\"1-5\",\"4203\",\"37\",\"0\",\"Testing\",\"Stims/Figures/74-J-10-4.bmp\",\"za:saha\",\"Left\",\"39\",\"3\",\"21\",\"8\",\"C2\",\"J\",\"69\"
\"\",\"\",\"approach-retreat\",\"218\",\"1542858\",\"0.0-218.0\",\"\",\"\",\"1-5\",\"4209\",\"37\",\"1\",\"Testing\",\"Stims/Figures/102-C-20-4.bmp\",\"zasaha\",\"Left\",\"37\",\"3\",\"22\",\"8\",\"C2\",\"J\",\"70\"
\"\",\"\",\"approach-retreat\",\"219\",\"1548725\",\"0.0-219.0\",\"\",\"\",\"1-5\",\"4357\",\"39\",\"1\",\"Testing\",\"Stims/Figures/27-C-30-1.bmp\",\"vashava\",\"Right\",\"39\",\"3\",\"23\",\"8\",\"C1\",\"J\",\"71\"
\"\",\"\",\"approach-retreat\",\"220\",\"1554407\",\"0.0-220.0\",\"\",\"\",\"1-5\",\"4172\",\"39\",\"1\",\"Testing\",\"Stims/Figures/74-C-20-4.bmp\",\"za:haza\",\"Right\",\"39\",\"3\",\"24\",\"8\",\"C2\",\"J\",\"72\"
\"\",\"\",\"approach-retreat\",\"221\",\"1560105\",\"0.0-221.0\",\"\",\"\",\"1-5\",\"4187\",\"40\",\"1\",\"Testing\",\"Stims/Figures/57-J-0-1.bmp\",\"fafasha\",\"Up\",\"40\",\"4\",\"1\",\"8\",\"C1\",\"J\",\"73\"
\"\",\"\",\"approach-retreat\",\"222\",\"1566115\",\"0.0-222.0\",\"\",\"\",\"1-5\",\"4498\",\"38\",\"1\",\"Testing\",\"Stims/Figures/139-J-0-2.bmp\",\"va:shasha\",\"Down\",\"38\",\"4\",\"2\",\"8\",\"C1\",\"J\",\"74\"
\"\",\"\",\"approach-retreat\",\"223\",\"1571890\",\"0.0-223.0\",\"\",\"\",\"1-5\",\"4263\",\"40\",\"1\",\"Testing\",\"Stims/Figures/144-C-30-3.bmp\",\"zaha:za\",\"Down\",\"40\",\"4\",\"3\",\"8\",\"C2\",\"J\",\"75\"
\"\",\"\",\"approach-retreat\",\"224\",\"1578227\",\"0.0-224.0\",\"\",\"\",\"1-5\",\"4824\",\"37\",\"1\",\"Testing\",\"Stims/Figures/94-J-0-2.bmp\",\"fashasha\",\"Right\",\"37\",\"4\",\"4\",\"8\",\"C1\",\"J\",\"76\"
\"\",\"\",\"approach-retreat\",\"225\",\"1584177\",\"0.0-225.0\",\"\",\"\",\"1-5\",\"4441\",\"37\",\"1\",\"Testing\",\"Stims/Figures/27-C-30-1.bmp\",\"vashava\",\"Left\",\"37\",\"4\",\"5\",\"8\",\"C1\",\"J\",\"77\"
\"\",\"\",\"approach-retreat\",\"226\",\"1590033\",\"0.0-226.0\",\"\",\"\",\"1-5\",\"4351\",\"39\",\"0\",\"Testing\",\"Stims/Figures/74-J-10-4.bmp\",\"za:saha\",\"Right\",\"37\",\"4\",\"6\",\"8\",\"C2\",\"J\",\"78\"
\"\",\"\",\"approach-retreat\",\"227\",\"1595828\",\"0.0-227.0\",\"\",\"\",\"1-5\",\"4284\",\"38\",\"1\",\"Testing\",\"Stims/Figures/7-C-20-4.bmp\",\"sa:haha\",\"Up\",\"38\",\"4\",\"7\",\"8\",\"C2\",\"J\",\"79\"
\"\",\"\",\"approach-retreat\",\"228\",\"1601928\",\"0.0-228.0\",\"\",\"\",\"1-5\",\"4590\",\"38\",\"1\",\"Testing\",\"Stims/Figures/100-C-30-3.bmp\",\"sa:saha\",\"Up\",\"38\",\"4\",\"8\",\"8\",\"C2\",\"J\",\"80\"
\"\",\"\",\"approach-retreat\",\"229\",\"1607560\",\"0.0-229.0\",\"\",\"\",\"1-5\",\"4122\",\"39\",\"1\",\"Testing\",\"Stims/Figures/85-C-20-2.bmp\",\"fafava\",\"Right\",\"39\",\"4\",\"9\",\"8\",\"C1\",\"J\",\"81\"
\"\",\"\",\"approach-retreat\",\"230\",\"1613355\",\"0.0-230.0\",\"\",\"\",\"1-5\",\"4284\",\"39\",\"1\",\"Testing\",\"Stims/Figures/7-J-10-4.bmp\",\"sa:sa:za\",\"Left\",\"39\",\"4\",\"10\",\"8\",\"C2\",\"J\",\"82\"
\"\",\"\",\"approach-retreat\",\"231\",\"1619228\",\"0.0-231.0\",\"\",\"\",\"1-5\",\"4362\",\"38\",\"1\",\"Testing\",\"Stims/Figures/85-J-0-2.bmp\",\"va:fa:sha\",\"Down\",\"38\",\"4\",\"11\",\"8\",\"C1\",\"J\",\"83\"
\"\",\"\",\"approach-retreat\",\"232\",\"1625148\",\"0.0-232.0\",\"\",\"\",\"1-5\",\"4404\",\"39\",\"1\",\"Testing\",\"Stims/Figures/27-J-0-1.bmp\",\"fasha:sha\",\"Left\",\"39\",\"4\",\"12\",\"8\",\"C1\",\"J\",\"84\"
\"\",\"\",\"approach-retreat\",\"233\",\"1633288\",\"0.0-233.0\",\"\",\"\",\"1-5\",\"6628\",\"38\",\"0\",\"Testing\",\"Stims/Figures/144-J-10-3.bmp\",\"za:ha:ha\",\"Up\",\"40\",\"4\",\"13\",\"8\",\"C2\",\"J\",\"85\"
\"\",\"\",\"approach-retreat\",\"234\",\"1639139\",\"0.0-234.0\",\"\",\"\",\"1-5\",\"4341\",\"37\",\"1\",\"Testing\",\"Stims/Figures/102-C-20-4.bmp\",\"zasaha\",\"Left\",\"37\",\"4\",\"14\",\"8\",\"C2\",\"J\",\"86\"
\"\",\"\",\"approach-retreat\",\"235\",\"1645383\",\"0.0-235.0\",\"\",\"\",\"1-5\",\"4732\",\"40\",\"1\",\"Testing\",\"Stims/Figures/71-C-30-1.bmp\",\"fashava\",\"Down\",\"40\",\"4\",\"15\",\"8\",\"C1\",\"J\",\"87\"
\"\",\"\",\"approach-retreat\",\"236\",\"1651118\",\"0.0-236.0\",\"\",\"\",\"1-5\",\"4223\",\"39\",\"1\",\"Testing\",\"Stims/Figures/102-J-10-4.bmp\",\"sa:saza\",\"Left\",\"39\",\"4\",\"16\",\"8\",\"C2\",\"J\",\"88\"
\"\",\"\",\"approach-retreat\",\"237\",\"1656797\",\"0.0-237.0\",\"\",\"\",\"1-5\",\"4163\",\"39\",\"1\",\"Testing\",\"Stims/Figures/139-C-20-2.bmp\",\"vasha:sha\",\"Right\",\"39\",\"4\",\"17\",\"8\",\"C1\",\"J\",\"89\"
\"\",\"\",\"approach-retreat\",\"238\",\"1663229\",\"0.0-238.0\",\"\",\"\",\"1-5\",\"4923\",\"38\",\"1\",\"Testing\",\"Stims/Figures/71-J-0-1.bmp\",\"vafa:sha\",\"Down\",\"38\",\"4\",\"18\",\"8\",\"C1\",\"J\",\"90\"
\"\",\"\",\"approach-retreat\",\"239\",\"1670225\",\"0.0-239.0\",\"\",\"\",\"1-5\",\"5483\",\"37\",\"1\",\"Testing\",\"Stims/Figures/44-J-10-3.bmp\",\"zasa:ha\",\"Right\",\"37\",\"4\",\"19\",\"8\",\"C2\",\"J\",\"91\"
\"\",\"\",\"approach-retreat\",\"240\",\"1676170\",\"0.0-240.0\",\"\",\"\",\"1-5\",\"4433\",\"37\",\"1\",\"Testing\",\"Stims/Figures/74-C-20-4.bmp\",\"za:haza\",\"Left\",\"37\",\"4\",\"20\",\"8\",\"C2\",\"J\",\"92\"
\"\",\"\",\"approach-retreat\",\"241\",\"1681909\",\"0.0-241.0\",\"\",\"\",\"1-5\",\"4234\",\"39\",\"1\",\"Testing\",\"Stims/Figures/57-C-30-1.bmp\",\"vafa:va\",\"Right\",\"39\",\"4\",\"21\",\"8\",\"C1\",\"J\",\"93\"
\"\",\"\",\"approach-retreat\",\"242\",\"1687907\",\"0.0-242.0\",\"\",\"\",\"1-5\",\"4487\",\"38\",\"1\",\"Testing\",\"Stims/Figures/94-C-20-2.bmp\",\"fasha:va\",\"Up\",\"38\",\"4\",\"22\",\"8\",\"C1\",\"J\",\"94\"
\"\",\"\",\"approach-retreat\",\"243\",\"1693827\",\"0.0-243.0\",\"\",\"\",\"1-5\",\"4409\",\"38\",\"1\",\"Testing\",\"Stims/Figures/100-J-10-3.bmp\",\"za:saza\",\"Down\",\"38\",\"4\",\"23\",\"8\",\"C2\",\"J\",\"95\"
\"\",\"\",\"approach-retreat\",\"244\",\"1700349\",\"0.0-244.0\",\"\",\"\",\"1-5\",\"5010\",\"38\",\"1\",\"Testing\",\"Stims/Figures/44-C-30-3.bmp\",\"sasa:ha\",\"Up\",\"38\",\"4\",\"24\",\"8\",\"C2\",\"J\",\"96\"
\"191948\",\"\",\"survey-text\",\"245\",\"1892305\",\"0.0-245.0\",\"\",\"{\"\"Q0\"\":\"\"PS140057\"\"}\",\"\",\"\",\"\",\"\",\"\",\"\",\"\",\"\",\"\",\"\",\"\",\"\",\"\",\"\",\"\"
