\"rt\",\"key_press\",\"trial_type\",\"trial_index\",\"time_elapsed\",\"internal_node_id\",\"view_history\",\"responses\",\"Id\",\"Rt\",\"ResKeyCode\",\"ResCorr\",\"TrialType2\",\"Image\",\"Label\",\"Location\",\"CorrectResponse\",\"Block\",\"BlockTrial\",\"Condition\",\"LabelType\",\"Subcondition\",\"trialNum\"
\"53151\",\"32\",\"text\",\"0\",\"53183\",\"0.0-0.0-0.0\",\"\",\"\",\"\",\"\",\"\",\"\",\"\",\"\",\"\",\"\",\"\",\"\",\"\",\"\",\"\",\"\",\"\"
\"75147\",\"\",\"instructions\",\"1\",\"128340\",\"0.0-1.0\",\"[{\"\"page_index\"\":0,\"\"viewing_time\"\":75143}]\",\"\",\"\",\"\",\"\",\"\",\"\",\"\",\"\",\"\",\"\",\"\",\"\",\"\",\"\",\"\",\"\"
\"20845\",\"\",\"survey-multi-choice\",\"2\",\"149280\",\"0.0-2.0\",\"\",\"{\"\"Q0\"\":\"\"Da\"\",\"\"Q1\"\":\"\"Da\"\",\"\"Q2\"\":\"\"Da\"\",\"\"Q3\"\":\"\"Da\"\",\"\"Q4\"\":\"\"Da\"\",\"\"Q5\"\":\"\"Da\"\"}\",\"\",\"\",\"\",\"\",\"\",\"\",\"\",\"\",\"\",\"\",\"\",\"\",\"\",\"\",\"\"
\"\",\"\",\"bio\",\"3\",\"158624\",\"0.0-3.0\",\"\",\"{\"\"age\"\":\"\"20\"\",\"\"gender\"\":\"\"f\"\",\"\"specify\"\":\"\"\"\"}\",\"\",\"\",\"\",\"\",\"\",\"\",\"\",\"\",\"\",\"\",\"\",\"\",\"\",\"\",\"\"
\"\",\"\",\"approach-retreat\",\"4\",\"172071\",\"0.0-4.0\",\"\",\"\",\"1-4\",\"11933\",\"37\",\"0\",\"Training\",\"Stims/Figures/7-J-10-4.bmp\",\"nalana\",\"Right\",\"39\",\"1\",\"1\",\"5\",\"S\",\"C\",\"1\"
\"\",\"\",\"approach-retreat\",\"5\",\"180430\",\"0.0-5.0\",\"\",\"\",\"1-4\",\"6829\",\"40\",\"0\",\"Training\",\"Stims/Figures/144-J-10-3.bmp\",\"na:lana\",\"Up\",\"38\",\"1\",\"2\",\"5\",\"S\",\"C\",\"2\"
\"\",\"\",\"approach-retreat\",\"6\",\"187539\",\"0.0-6.0\",\"\",\"\",\"1-4\",\"5571\",\"38\",\"1\",\"Training\",\"Stims/Figures/111-C-30-3.bmp\",\"papata\",\"Down\",\"38\",\"1\",\"3\",\"5\",\"P\",\"C\",\"3\"
\"\",\"\",\"approach-retreat\",\"7\",\"196082\",\"0.0-7.0\",\"\",\"\",\"1-4\",\"7028\",\"40\",\"1\",\"Training\",\"Stims/Figures/85-J-0-2.bmp\",\"ma:la:na\",\"Down\",\"40\",\"1\",\"4\",\"5\",\"S\",\"C\",\"4\"
\"\",\"\",\"approach-retreat\",\"8\",\"207597\",\"0.0-8.0\",\"\",\"\",\"1-4\",\"9986\",\"38\",\"1\",\"Training\",\"Stims/Figures/87-J-10-4.bmp\",\"mamana\",\"Up\",\"38\",\"1\",\"5\",\"5\",\"S\",\"C\",\"5\"
\"\",\"\",\"approach-retreat\",\"9\",\"216686\",\"0.0-9.0\",\"\",\"\",\"1-4\",\"7558\",\"39\",\"1\",\"Training\",\"Stims/Figures/93-J-0-1.bmp\",\"mala:na\",\"Right\",\"39\",\"1\",\"6\",\"5\",\"S\",\"C\",\"6\"
\"\",\"\",\"approach-retreat\",\"10\",\"224140\",\"0.0-10.0\",\"\",\"\",\"1-4\",\"5923\",\"37\",\"1\",\"Training\",\"Stims/Figures/27-J-0-1.bmp\",\"mamala\",\"Left\",\"37\",\"1\",\"7\",\"5\",\"S\",\"C\",\"7\"
\"\",\"\",\"approach-retreat\",\"11\",\"231650\",\"0.0-11.0\",\"\",\"\",\"1-4\",\"5981\",\"39\",\"1\",\"Training\",\"Stims/Figures/111-J-10-3.bmp\",\"ma:mana\",\"Right\",\"39\",\"1\",\"8\",\"5\",\"S\",\"C\",\"8\"
\"\",\"\",\"approach-retreat\",\"12\",\"243259\",\"0.0-12.0\",\"\",\"\",\"1-4\",\"10071\",\"39\",\"0\",\"Training\",\"Stims/Figures/118-C-20-2.bmp\",\"pa:kaka\",\"Right\",\"37\",\"1\",\"9\",\"5\",\"P\",\"C\",\"9\"
\"\",\"\",\"approach-retreat\",\"13\",\"249589\",\"0.0-13.0\",\"\",\"\",\"1-4\",\"4797\",\"40\",\"1\",\"Training\",\"Stims/Figures/87-C-20-4.bmp\",\"pa:pa:ka\",\"Up\",\"40\",\"1\",\"10\",\"5\",\"P\",\"C\",\"10\"
\"\",\"\",\"approach-retreat\",\"14\",\"258868\",\"0.0-14.0\",\"\",\"\",\"1-4\",\"7757\",\"40\",\"1\",\"Training\",\"Stims/Figures/118-J-0-2.bmp\",\"ma:la:la\",\"Down\",\"40\",\"1\",\"11\",\"5\",\"S\",\"C\",\"11\"
\"\",\"\",\"approach-retreat\",\"15\",\"266122\",\"0.0-15.0\",\"\",\"\",\"1-4\",\"5722\",\"39\",\"1\",\"Training\",\"Stims/Figures/27-C-30-1.bmp\",\"pa:ka:ta\",\"Left\",\"39\",\"1\",\"12\",\"5\",\"P\",\"C\",\"12\"
\"\",\"\",\"approach-retreat\",\"16\",\"271539\",\"0.0-16.0\",\"\",\"\",\"1-4\",\"3882\",\"39\",\"1\",\"Training\",\"Stims/Figures/144-C-30-3.bmp\",\"takata\",\"Left\",\"39\",\"1\",\"13\",\"5\",\"P\",\"C\",\"13\"
\"\",\"\",\"approach-retreat\",\"17\",\"277477\",\"0.0-17.0\",\"\",\"\",\"1-4\",\"4411\",\"39\",\"1\",\"Training\",\"Stims/Figures/93-C-30-1.bmp\",\"ta:kaka\",\"Left\",\"39\",\"1\",\"14\",\"5\",\"P\",\"C\",\"14\"
\"\",\"\",\"approach-retreat\",\"18\",\"284166\",\"0.0-18.0\",\"\",\"\",\"1-4\",\"5175\",\"40\",\"1\",\"Training\",\"Stims/Figures/7-C-20-4.bmp\",\"pakaka\",\"Up\",\"40\",\"1\",\"15\",\"5\",\"P\",\"C\",\"15\"
\"\",\"\",\"approach-retreat\",\"19\",\"291334\",\"0.0-19.0\",\"\",\"\",\"1-4\",\"5636\",\"38\",\"1\",\"Training\",\"Stims/Figures/85-C-20-2.bmp\",\"ta:kata\",\"Down\",\"38\",\"1\",\"16\",\"5\",\"P\",\"C\",\"16\"
\"\",\"\",\"approach-retreat\",\"20\",\"297576\",\"0.0-20.0\",\"\",\"\",\"1-4\",\"4710\",\"40\",\"1\",\"Training\",\"Stims/Figures/144-J-10-3.bmp\",\"na:lana\",\"Down\",\"40\",\"2\",\"1\",\"5\",\"S\",\"C\",\"17\"
\"\",\"\",\"approach-retreat\",\"21\",\"306227\",\"0.0-21.0\",\"\",\"\",\"1-4\",\"7124\",\"39\",\"1\",\"Training\",\"Stims/Figures/93-J-0-1.bmp\",\"mala:na\",\"Right\",\"39\",\"2\",\"2\",\"5\",\"S\",\"C\",\"18\"
\"\",\"\",\"approach-retreat\",\"22\",\"312589\",\"0.0-22.0\",\"\",\"\",\"1-4\",\"4828\",\"39\",\"1\",\"Training\",\"Stims/Figures/111-J-10-3.bmp\",\"ma:mana\",\"Right\",\"39\",\"2\",\"3\",\"5\",\"S\",\"C\",\"19\"
\"\",\"\",\"approach-retreat\",\"23\",\"317976\",\"0.0-23.0\",\"\",\"\",\"1-4\",\"3877\",\"37\",\"1\",\"Training\",\"Stims/Figures/27-C-30-1.bmp\",\"pa:ka:ta\",\"Right\",\"37\",\"2\",\"4\",\"5\",\"P\",\"C\",\"20\"
\"\",\"\",\"approach-retreat\",\"24\",\"323970\",\"0.0-24.0\",\"\",\"\",\"1-4\",\"4465\",\"37\",\"1\",\"Training\",\"Stims/Figures/87-J-10-4.bmp\",\"mamana\",\"Left\",\"37\",\"2\",\"5\",\"5\",\"S\",\"C\",\"21\"
\"\",\"\",\"approach-retreat\",\"25\",\"331451\",\"0.0-25.0\",\"\",\"\",\"1-4\",\"5955\",\"39\",\"1\",\"Training\",\"Stims/Figures/111-C-30-3.bmp\",\"papata\",\"Left\",\"39\",\"2\",\"6\",\"5\",\"P\",\"C\",\"22\"
\"\",\"\",\"approach-retreat\",\"26\",\"337645\",\"0.0-26.0\",\"\",\"\",\"1-4\",\"4657\",\"40\",\"1\",\"Training\",\"Stims/Figures/7-C-20-4.bmp\",\"pakaka\",\"Up\",\"40\",\"2\",\"7\",\"5\",\"P\",\"C\",\"23\"
\"\",\"\",\"approach-retreat\",\"27\",\"343581\",\"0.0-27.0\",\"\",\"\",\"1-4\",\"4404\",\"39\",\"1\",\"Training\",\"Stims/Figures/87-C-20-4.bmp\",\"pa:pa:ka\",\"Left\",\"39\",\"2\",\"8\",\"5\",\"P\",\"C\",\"24\"
\"\",\"\",\"approach-retreat\",\"28\",\"349315\",\"0.0-28.0\",\"\",\"\",\"1-4\",\"4203\",\"38\",\"1\",\"Training\",\"Stims/Figures/93-C-30-1.bmp\",\"ta:kaka\",\"Down\",\"38\",\"2\",\"9\",\"5\",\"P\",\"C\",\"25\"
\"\",\"\",\"approach-retreat\",\"29\",\"355708\",\"0.0-29.0\",\"\",\"\",\"1-4\",\"4868\",\"40\",\"1\",\"Training\",\"Stims/Figures/85-C-20-2.bmp\",\"ta:kata\",\"Up\",\"40\",\"2\",\"10\",\"5\",\"P\",\"C\",\"26\"
\"\",\"\",\"approach-retreat\",\"30\",\"361420\",\"0.0-30.0\",\"\",\"\",\"1-4\",\"4196\",\"40\",\"1\",\"Training\",\"Stims/Figures/144-C-30-3.bmp\",\"takata\",\"Up\",\"40\",\"2\",\"11\",\"5\",\"P\",\"C\",\"27\"
\"\",\"\",\"approach-retreat\",\"31\",\"372345\",\"0.0-31.0\",\"\",\"\",\"1-4\",\"9412\",\"38\",\"1\",\"Training\",\"Stims/Figures/7-J-10-4.bmp\",\"nalana\",\"Up\",\"38\",\"2\",\"12\",\"5\",\"S\",\"C\",\"28\"
\"\",\"\",\"approach-retreat\",\"32\",\"379106\",\"0.0-32.0\",\"\",\"\",\"1-4\",\"5231\",\"40\",\"1\",\"Training\",\"Stims/Figures/27-J-0-1.bmp\",\"mamala\",\"Down\",\"40\",\"2\",\"13\",\"5\",\"S\",\"C\",\"29\"
\"\",\"\",\"approach-retreat\",\"33\",\"386082\",\"0.0-33.0\",\"\",\"\",\"1-4\",\"5449\",\"39\",\"1\",\"Training\",\"Stims/Figures/85-J-0-2.bmp\",\"ma:la:na\",\"Right\",\"39\",\"2\",\"14\",\"5\",\"S\",\"C\",\"30\"
\"\",\"\",\"approach-retreat\",\"34\",\"392159\",\"0.0-34.0\",\"\",\"\",\"1-4\",\"4550\",\"40\",\"1\",\"Training\",\"Stims/Figures/118-J-0-2.bmp\",\"ma:la:la\",\"Down\",\"40\",\"2\",\"15\",\"5\",\"S\",\"C\",\"31\"
\"\",\"\",\"approach-retreat\",\"35\",\"397777\",\"0.0-35.0\",\"\",\"\",\"1-4\",\"4098\",\"39\",\"1\",\"Training\",\"Stims/Figures/118-C-20-2.bmp\",\"pa:kaka\",\"Left\",\"39\",\"2\",\"16\",\"5\",\"P\",\"C\",\"32\"
\"\",\"\",\"approach-retreat\",\"36\",\"406189\",\"0.0-36.0\",\"\",\"\",\"1-4\",\"6886\",\"37\",\"1\",\"Training\",\"Stims/Figures/144-J-10-3.bmp\",\"na:lana\",\"Left\",\"37\",\"3\",\"1\",\"5\",\"S\",\"C\",\"33\"
\"\",\"\",\"approach-retreat\",\"37\",\"412413\",\"0.0-37.0\",\"\",\"\",\"1-4\",\"4692\",\"37\",\"1\",\"Training\",\"Stims/Figures/87-J-10-4.bmp\",\"mamana\",\"Left\",\"37\",\"3\",\"2\",\"5\",\"S\",\"C\",\"34\"
\"\",\"\",\"approach-retreat\",\"38\",\"419407\",\"0.0-38.0\",\"\",\"\",\"1-4\",\"5481\",\"39\",\"1\",\"Training\",\"Stims/Figures/7-J-10-4.bmp\",\"nalana\",\"Right\",\"39\",\"3\",\"3\",\"5\",\"S\",\"C\",\"35\"
\"\",\"\",\"approach-retreat\",\"39\",\"427854\",\"0.0-39.0\",\"\",\"\",\"1-4\",\"6920\",\"40\",\"1\",\"Training\",\"Stims/Figures/118-C-20-2.bmp\",\"pa:kaka\",\"Up\",\"40\",\"3\",\"4\",\"5\",\"P\",\"C\",\"36\"
\"\",\"\",\"approach-retreat\",\"40\",\"433780\",\"0.0-40.0\",\"\",\"\",\"1-4\",\"4393\",\"37\",\"1\",\"Training\",\"Stims/Figures/118-J-0-2.bmp\",\"ma:la:la\",\"Left\",\"37\",\"3\",\"5\",\"5\",\"S\",\"C\",\"37\"
\"\",\"\",\"approach-retreat\",\"41\",\"442482\",\"0.0-41.0\",\"\",\"\",\"1-4\",\"7167\",\"37\",\"1\",\"Training\",\"Stims/Figures/85-C-20-2.bmp\",\"ta:kata\",\"Right\",\"37\",\"3\",\"6\",\"5\",\"P\",\"C\",\"38\"
\"\",\"\",\"approach-retreat\",\"42\",\"450304\",\"0.0-42.0\",\"\",\"\",\"1-4\",\"6281\",\"37\",\"1\",\"Training\",\"Stims/Figures/7-C-20-4.bmp\",\"pakaka\",\"Right\",\"37\",\"3\",\"7\",\"5\",\"P\",\"C\",\"39\"
\"\",\"\",\"approach-retreat\",\"43\",\"456283\",\"0.0-43.0\",\"\",\"\",\"1-4\",\"4452\",\"37\",\"1\",\"Training\",\"Stims/Figures/111-C-30-3.bmp\",\"papata\",\"Right\",\"37\",\"3\",\"8\",\"5\",\"P\",\"C\",\"40\"
\"\",\"\",\"approach-retreat\",\"44\",\"463016\",\"0.0-44.0\",\"\",\"\",\"1-4\",\"5195\",\"40\",\"1\",\"Training\",\"Stims/Figures/93-J-0-1.bmp\",\"mala:na\",\"Down\",\"40\",\"3\",\"9\",\"5\",\"S\",\"C\",\"41\"
\"\",\"\",\"approach-retreat\",\"45\",\"468639\",\"0.0-45.0\",\"\",\"\",\"1-4\",\"4095\",\"40\",\"1\",\"Training\",\"Stims/Figures/85-J-0-2.bmp\",\"ma:la:na\",\"Down\",\"40\",\"3\",\"10\",\"5\",\"S\",\"C\",\"42\"
\"\",\"\",\"approach-retreat\",\"46\",\"474933\",\"0.0-46.0\",\"\",\"\",\"1-4\",\"4755\",\"38\",\"1\",\"Training\",\"Stims/Figures/111-J-10-3.bmp\",\"ma:mana\",\"Up\",\"38\",\"3\",\"11\",\"5\",\"S\",\"C\",\"43\"
\"\",\"\",\"approach-retreat\",\"47\",\"484690\",\"0.0-47.0\",\"\",\"\",\"1-4\",\"8227\",\"40\",\"1\",\"Training\",\"Stims/Figures/93-C-30-1.bmp\",\"ta:kaka\",\"Up\",\"40\",\"3\",\"12\",\"5\",\"P\",\"C\",\"44\"
\"\",\"\",\"approach-retreat\",\"48\",\"490396\",\"0.0-48.0\",\"\",\"\",\"1-4\",\"4195\",\"40\",\"1\",\"Training\",\"Stims/Figures/87-C-20-4.bmp\",\"pa:pa:ka\",\"Up\",\"40\",\"3\",\"13\",\"5\",\"P\",\"C\",\"45\"
\"\",\"\",\"approach-retreat\",\"49\",\"497251\",\"0.0-49.0\",\"\",\"\",\"1-4\",\"5341\",\"40\",\"1\",\"Training\",\"Stims/Figures/27-J-0-1.bmp\",\"mamala\",\"Down\",\"40\",\"3\",\"14\",\"5\",\"S\",\"C\",\"46\"
\"\",\"\",\"approach-retreat\",\"50\",\"503263\",\"0.0-50.0\",\"\",\"\",\"1-4\",\"4502\",\"38\",\"1\",\"Training\",\"Stims/Figures/27-C-30-1.bmp\",\"pa:ka:ta\",\"Down\",\"38\",\"3\",\"15\",\"5\",\"P\",\"C\",\"47\"
\"\",\"\",\"approach-retreat\",\"51\",\"511070\",\"0.0-51.0\",\"\",\"\",\"1-4\",\"6266\",\"39\",\"1\",\"Training\",\"Stims/Figures/144-C-30-3.bmp\",\"takata\",\"Left\",\"39\",\"3\",\"16\",\"5\",\"P\",\"C\",\"48\"
\"\",\"\",\"approach-retreat\",\"52\",\"517082\",\"0.0-52.0\",\"\",\"\",\"1-4\",\"4477\",\"37\",\"1\",\"Training\",\"Stims/Figures/7-C-20-4.bmp\",\"pakaka\",\"Right\",\"37\",\"4\",\"1\",\"5\",\"P\",\"C\",\"49\"
\"\",\"\",\"approach-retreat\",\"53\",\"523808\",\"0.0-53.0\",\"\",\"\",\"1-4\",\"5195\",\"37\",\"1\",\"Training\",\"Stims/Figures/111-C-30-3.bmp\",\"papata\",\"Right\",\"37\",\"4\",\"2\",\"5\",\"P\",\"C\",\"50\"
\"\",\"\",\"approach-retreat\",\"54\",\"530949\",\"0.0-54.0\",\"\",\"\",\"1-4\",\"5611\",\"38\",\"1\",\"Training\",\"Stims/Figures/118-C-20-2.bmp\",\"pa:kaka\",\"Down\",\"38\",\"4\",\"3\",\"5\",\"P\",\"C\",\"51\"
\"\",\"\",\"approach-retreat\",\"55\",\"538721\",\"0.0-55.0\",\"\",\"\",\"1-4\",\"6243\",\"39\",\"1\",\"Training\",\"Stims/Figures/85-J-0-2.bmp\",\"ma:la:na\",\"Right\",\"39\",\"4\",\"4\",\"5\",\"S\",\"C\",\"52\"
\"\",\"\",\"approach-retreat\",\"56\",\"544892\",\"0.0-56.0\",\"\",\"\",\"1-4\",\"4634\",\"39\",\"1\",\"Training\",\"Stims/Figures/118-J-0-2.bmp\",\"ma:la:la\",\"Right\",\"39\",\"4\",\"5\",\"5\",\"S\",\"C\",\"53\"
\"\",\"\",\"approach-retreat\",\"57\",\"551073\",\"0.0-57.0\",\"\",\"\",\"1-4\",\"4673\",\"39\",\"1\",\"Training\",\"Stims/Figures/85-C-20-2.bmp\",\"ta:kata\",\"Left\",\"39\",\"4\",\"6\",\"5\",\"P\",\"C\",\"54\"
\"\",\"\",\"approach-retreat\",\"58\",\"557200\",\"0.0-58.0\",\"\",\"\",\"1-4\",\"4595\",\"40\",\"0\",\"Training\",\"Stims/Figures/144-J-10-3.bmp\",\"na:lana\",\"Up\",\"38\",\"4\",\"7\",\"5\",\"S\",\"C\",\"55\"
\"\",\"\",\"approach-retreat\",\"59\",\"562938\",\"0.0-59.0\",\"\",\"\",\"1-4\",\"4214\",\"39\",\"0\",\"Training\",\"Stims/Figures/111-J-10-3.bmp\",\"ma:mana\",\"Left\",\"37\",\"4\",\"8\",\"5\",\"S\",\"C\",\"56\"
\"\",\"\",\"approach-retreat\",\"60\",\"568536\",\"0.0-60.0\",\"\",\"\",\"1-4\",\"4079\",\"37\",\"0\",\"Training\",\"Stims/Figures/27-C-30-1.bmp\",\"pa:ka:ta\",\"Left\",\"39\",\"4\",\"9\",\"5\",\"P\",\"C\",\"57\"
\"\",\"\",\"approach-retreat\",\"61\",\"580126\",\"0.0-61.0\",\"\",\"\",\"1-4\",\"10037\",\"40\",\"1\",\"Training\",\"Stims/Figures/87-J-10-4.bmp\",\"mamana\",\"Down\",\"40\",\"4\",\"10\",\"5\",\"S\",\"C\",\"58\"
\"\",\"\",\"approach-retreat\",\"62\",\"585660\",\"0.0-62.0\",\"\",\"\",\"1-4\",\"3999\",\"40\",\"1\",\"Training\",\"Stims/Figures/93-J-0-1.bmp\",\"mala:na\",\"Down\",\"40\",\"4\",\"11\",\"5\",\"S\",\"C\",\"59\"
\"\",\"\",\"approach-retreat\",\"63\",\"591477\",\"0.0-63.0\",\"\",\"\",\"1-4\",\"4306\",\"37\",\"1\",\"Training\",\"Stims/Figures/27-J-0-1.bmp\",\"mamala\",\"Left\",\"37\",\"4\",\"12\",\"5\",\"S\",\"C\",\"60\"
\"\",\"\",\"approach-retreat\",\"64\",\"598322\",\"0.0-64.0\",\"\",\"\",\"1-4\",\"5316\",\"38\",\"1\",\"Training\",\"Stims/Figures/7-J-10-4.bmp\",\"nalana\",\"Up\",\"38\",\"4\",\"13\",\"5\",\"S\",\"C\",\"61\"
\"\",\"\",\"approach-retreat\",\"65\",\"604979\",\"0.0-65.0\",\"\",\"\",\"1-4\",\"5127\",\"38\",\"1\",\"Training\",\"Stims/Figures/93-C-30-1.bmp\",\"ta:kaka\",\"Down\",\"38\",\"4\",\"14\",\"5\",\"P\",\"C\",\"62\"
\"\",\"\",\"approach-retreat\",\"66\",\"612244\",\"0.0-66.0\",\"\",\"\",\"1-4\",\"5753\",\"40\",\"1\",\"Training\",\"Stims/Figures/87-C-20-4.bmp\",\"pa:pa:ka\",\"Up\",\"40\",\"4\",\"15\",\"5\",\"P\",\"C\",\"63\"
\"\",\"\",\"approach-retreat\",\"67\",\"621889\",\"0.0-67.0\",\"\",\"\",\"1-4\",\"8115\",\"40\",\"1\",\"Training\",\"Stims/Figures/144-C-30-3.bmp\",\"takata\",\"Up\",\"40\",\"4\",\"16\",\"5\",\"P\",\"C\",\"64\"
\"\",\"\",\"approach-retreat\",\"68\",\"628966\",\"0.0-68.0\",\"\",\"\",\"1-4\",\"5542\",\"39\",\"0\",\"Training\",\"Stims/Figures/144-J-10-3.bmp\",\"na:lana\",\"Left\",\"37\",\"5\",\"1\",\"5\",\"S\",\"C\",\"65\"
\"\",\"\",\"approach-retreat\",\"69\",\"636762\",\"0.0-69.0\",\"\",\"\",\"1-4\",\"6269\",\"38\",\"0\",\"Training\",\"Stims/Figures/7-C-20-4.bmp\",\"pakaka\",\"Up\",\"40\",\"5\",\"2\",\"5\",\"P\",\"C\",\"66\"
\"\",\"\",\"approach-retreat\",\"70\",\"642341\",\"0.0-70.0\",\"\",\"\",\"1-4\",\"4043\",\"40\",\"1\",\"Training\",\"Stims/Figures/118-C-20-2.bmp\",\"pa:kaka\",\"Up\",\"40\",\"5\",\"3\",\"5\",\"P\",\"C\",\"67\"
\"\",\"\",\"approach-retreat\",\"71\",\"650138\",\"0.0-71.0\",\"\",\"\",\"1-4\",\"6282\",\"39\",\"1\",\"Training\",\"Stims/Figures/87-C-20-4.bmp\",\"pa:pa:ka\",\"Left\",\"39\",\"5\",\"4\",\"5\",\"P\",\"C\",\"68\"
\"\",\"\",\"approach-retreat\",\"72\",\"655770\",\"0.0-72.0\",\"\",\"\",\"1-4\",\"4090\",\"37\",\"1\",\"Training\",\"Stims/Figures/27-J-0-1.bmp\",\"mamala\",\"Left\",\"37\",\"5\",\"5\",\"5\",\"S\",\"C\",\"69\"
\"\",\"\",\"approach-retreat\",\"73\",\"663520\",\"0.0-73.0\",\"\",\"\",\"1-4\",\"6224\",\"40\",\"1\",\"Training\",\"Stims/Figures/7-J-10-4.bmp\",\"nalana\",\"Down\",\"40\",\"5\",\"6\",\"5\",\"S\",\"C\",\"70\"
\"\",\"\",\"approach-retreat\",\"74\",\"675848\",\"0.0-74.0\",\"\",\"\",\"1-4\",\"10801\",\"38\",\"0\",\"Training\",\"Stims/Figures/85-C-20-2.bmp\",\"ta:kata\",\"Up\",\"40\",\"5\",\"7\",\"5\",\"P\",\"C\",\"71\"
\"\",\"\",\"approach-retreat\",\"75\",\"681668\",\"0.0-75.0\",\"\",\"\",\"1-4\",\"4287\",\"37\",\"1\",\"Training\",\"Stims/Figures/144-C-30-3.bmp\",\"takata\",\"Right\",\"37\",\"5\",\"8\",\"5\",\"P\",\"C\",\"72\"
\"\",\"\",\"approach-retreat\",\"76\",\"687824\",\"0.0-76.0\",\"\",\"\",\"1-4\",\"4637\",\"40\",\"1\",\"Training\",\"Stims/Figures/118-J-0-2.bmp\",\"ma:la:la\",\"Down\",\"40\",\"5\",\"9\",\"5\",\"S\",\"C\",\"73\"
\"\",\"\",\"approach-retreat\",\"77\",\"696891\",\"0.0-77.0\",\"\",\"\",\"1-4\",\"7534\",\"37\",\"1\",\"Training\",\"Stims/Figures/27-C-30-1.bmp\",\"pa:ka:ta\",\"Right\",\"37\",\"5\",\"10\",\"5\",\"P\",\"C\",\"74\"
\"\",\"\",\"approach-retreat\",\"78\",\"702672\",\"0.0-78.0\",\"\",\"\",\"1-4\",\"4249\",\"40\",\"1\",\"Training\",\"Stims/Figures/87-J-10-4.bmp\",\"mamana\",\"Down\",\"40\",\"5\",\"11\",\"5\",\"S\",\"C\",\"75\"
\"\",\"\",\"approach-retreat\",\"79\",\"711501\",\"0.0-79.0\",\"\",\"\",\"1-4\",\"7289\",\"39\",\"1\",\"Training\",\"Stims/Figures/93-J-0-1.bmp\",\"mala:na\",\"Right\",\"39\",\"5\",\"12\",\"5\",\"S\",\"C\",\"76\"
\"\",\"\",\"approach-retreat\",\"80\",\"718686\",\"0.0-80.0\",\"\",\"\",\"1-4\",\"5651\",\"38\",\"1\",\"Training\",\"Stims/Figures/111-J-10-3.bmp\",\"ma:mana\",\"Up\",\"38\",\"5\",\"13\",\"5\",\"S\",\"C\",\"77\"
\"\",\"\",\"approach-retreat\",\"81\",\"727962\",\"0.0-81.0\",\"\",\"\",\"1-4\",\"7751\",\"39\",\"1\",\"Training\",\"Stims/Figures/85-J-0-2.bmp\",\"ma:la:na\",\"Right\",\"39\",\"5\",\"14\",\"5\",\"S\",\"C\",\"78\"
\"\",\"\",\"approach-retreat\",\"82\",\"734499\",\"0.0-82.0\",\"\",\"\",\"1-4\",\"5008\",\"39\",\"1\",\"Training\",\"Stims/Figures/93-C-30-1.bmp\",\"ta:kaka\",\"Left\",\"39\",\"5\",\"15\",\"5\",\"P\",\"C\",\"79\"
\"\",\"\",\"approach-retreat\",\"83\",\"741426\",\"0.0-83.0\",\"\",\"\",\"1-4\",\"5400\",\"38\",\"1\",\"Training\",\"Stims/Figures/111-C-30-3.bmp\",\"papata\",\"Down\",\"38\",\"5\",\"16\",\"5\",\"P\",\"C\",\"80\"
\"\",\"\",\"approach-retreat\",\"84\",\"748125\",\"0.0-84.0\",\"\",\"\",\"1-4\",\"5170\",\"39\",\"1\",\"Training\",\"Stims/Figures/7-C-20-4.bmp\",\"pakaka\",\"Left\",\"39\",\"6\",\"1\",\"5\",\"P\",\"C\",\"81\"
\"\",\"\",\"approach-retreat\",\"85\",\"754397\",\"0.0-85.0\",\"\",\"\",\"1-4\",\"4745\",\"38\",\"1\",\"Training\",\"Stims/Figures/144-J-10-3.bmp\",\"na:lana\",\"Up\",\"38\",\"6\",\"2\",\"5\",\"S\",\"C\",\"82\"
\"\",\"\",\"approach-retreat\",\"86\",\"761327\",\"0.0-86.0\",\"\",\"\",\"1-4\",\"5402\",\"39\",\"1\",\"Training\",\"Stims/Figures/7-J-10-4.bmp\",\"nalana\",\"Right\",\"39\",\"6\",\"3\",\"5\",\"S\",\"C\",\"83\"
\"\",\"\",\"approach-retreat\",\"87\",\"767739\",\"0.0-87.0\",\"\",\"\",\"1-4\",\"4898\",\"39\",\"1\",\"Training\",\"Stims/Figures/85-J-0-2.bmp\",\"ma:la:na\",\"Right\",\"39\",\"6\",\"4\",\"5\",\"S\",\"C\",\"84\"
\"\",\"\",\"approach-retreat\",\"88\",\"776046\",\"0.0-88.0\",\"\",\"\",\"1-4\",\"6776\",\"37\",\"1\",\"Training\",\"Stims/Figures/111-J-10-3.bmp\",\"ma:mana\",\"Left\",\"37\",\"6\",\"5\",\"5\",\"S\",\"C\",\"85\"
\"\",\"\",\"approach-retreat\",\"89\",\"783147\",\"0.0-89.0\",\"\",\"\",\"1-4\",\"5574\",\"40\",\"1\",\"Training\",\"Stims/Figures/93-C-30-1.bmp\",\"ta:kaka\",\"Up\",\"40\",\"6\",\"6\",\"5\",\"P\",\"C\",\"86\"
\"\",\"\",\"approach-retreat\",\"90\",\"790879\",\"0.0-90.0\",\"\",\"\",\"1-4\",\"6223\",\"39\",\"1\",\"Training\",\"Stims/Figures/118-J-0-2.bmp\",\"ma:la:la\",\"Right\",\"39\",\"6\",\"7\",\"5\",\"S\",\"C\",\"87\"
\"\",\"\",\"approach-retreat\",\"91\",\"797989\",\"0.0-91.0\",\"\",\"\",\"1-4\",\"5575\",\"39\",\"1\",\"Training\",\"Stims/Figures/87-C-20-4.bmp\",\"pa:pa:ka\",\"Left\",\"39\",\"6\",\"8\",\"5\",\"P\",\"C\",\"88\"
\"\",\"\",\"approach-retreat\",\"92\",\"803879\",\"0.0-92.0\",\"\",\"\",\"1-4\",\"4352\",\"40\",\"1\",\"Training\",\"Stims/Figures/93-J-0-1.bmp\",\"mala:na\",\"Down\",\"40\",\"6\",\"9\",\"5\",\"S\",\"C\",\"89\"
\"\",\"\",\"approach-retreat\",\"93\",\"810107\",\"0.0-93.0\",\"\",\"\",\"1-4\",\"4704\",\"40\",\"1\",\"Training\",\"Stims/Figures/144-C-30-3.bmp\",\"takata\",\"Up\",\"40\",\"6\",\"10\",\"5\",\"P\",\"C\",\"90\"
\"\",\"\",\"approach-retreat\",\"94\",\"815832\",\"0.0-94.0\",\"\",\"\",\"1-4\",\"4212\",\"37\",\"1\",\"Training\",\"Stims/Figures/111-C-30-3.bmp\",\"papata\",\"Right\",\"37\",\"6\",\"11\",\"5\",\"P\",\"C\",\"91\"
\"\",\"\",\"approach-retreat\",\"95\",\"822057\",\"0.0-95.0\",\"\",\"\",\"1-4\",\"4715\",\"38\",\"1\",\"Training\",\"Stims/Figures/27-C-30-1.bmp\",\"pa:ka:ta\",\"Down\",\"38\",\"6\",\"12\",\"5\",\"P\",\"C\",\"92\"
\"\",\"\",\"approach-retreat\",\"96\",\"828418\",\"0.0-96.0\",\"\",\"\",\"1-4\",\"4829\",\"39\",\"1\",\"Training\",\"Stims/Figures/85-C-20-2.bmp\",\"ta:kata\",\"Left\",\"39\",\"6\",\"13\",\"5\",\"P\",\"C\",\"93\"
\"\",\"\",\"approach-retreat\",\"97\",\"834890\",\"0.0-97.0\",\"\",\"\",\"1-4\",\"4944\",\"40\",\"1\",\"Training\",\"Stims/Figures/118-C-20-2.bmp\",\"pa:kaka\",\"Up\",\"40\",\"6\",\"14\",\"5\",\"P\",\"C\",\"94\"
\"\",\"\",\"approach-retreat\",\"98\",\"841177\",\"0.0-98.0\",\"\",\"\",\"1-4\",\"4772\",\"40\",\"1\",\"Training\",\"Stims/Figures/27-J-0-1.bmp\",\"mamala\",\"Down\",\"40\",\"6\",\"15\",\"5\",\"S\",\"C\",\"95\"
\"\",\"\",\"approach-retreat\",\"99\",\"846957\",\"0.0-99.0\",\"\",\"\",\"1-4\",\"4250\",\"40\",\"1\",\"Training\",\"Stims/Figures/87-J-10-4.bmp\",\"mamana\",\"Down\",\"40\",\"6\",\"16\",\"5\",\"S\",\"C\",\"96\"
\"\",\"\",\"approach-retreat\",\"100\",\"852539\",\"0.0-100.0\",\"\",\"\",\"1-4\",\"4057\",\"40\",\"1\",\"Training\",\"Stims/Figures/118-J-0-2.bmp\",\"ma:la:la\",\"Down\",\"40\",\"7\",\"1\",\"5\",\"S\",\"C\",\"97\"
\"\",\"\",\"approach-retreat\",\"101\",\"859626\",\"0.0-101.0\",\"\",\"\",\"1-4\",\"5563\",\"39\",\"1\",\"Training\",\"Stims/Figures/93-C-30-1.bmp\",\"ta:kaka\",\"Left\",\"39\",\"7\",\"2\",\"5\",\"P\",\"C\",\"98\"
\"\",\"\",\"approach-retreat\",\"102\",\"865311\",\"0.0-102.0\",\"\",\"\",\"1-4\",\"4165\",\"39\",\"1\",\"Training\",\"Stims/Figures/27-C-30-1.bmp\",\"pa:ka:ta\",\"Left\",\"39\",\"7\",\"3\",\"5\",\"P\",\"C\",\"99\"
\"\",\"\",\"approach-retreat\",\"103\",\"872918\",\"0.0-103.0\",\"\",\"\",\"1-4\",\"6098\",\"38\",\"1\",\"Training\",\"Stims/Figures/7-J-10-4.bmp\",\"nalana\",\"Up\",\"38\",\"7\",\"4\",\"5\",\"S\",\"C\",\"100\"
\"\",\"\",\"approach-retreat\",\"104\",\"878799\",\"0.0-104.0\",\"\",\"\",\"1-4\",\"4363\",\"37\",\"1\",\"Training\",\"Stims/Figures/118-C-20-2.bmp\",\"pa:kaka\",\"Right\",\"37\",\"7\",\"5\",\"5\",\"P\",\"C\",\"101\"
\"\",\"\",\"approach-retreat\",\"105\",\"886551\",\"0.0-105.0\",\"\",\"\",\"1-4\",\"6239\",\"37\",\"1\",\"Training\",\"Stims/Figures/93-J-0-1.bmp\",\"mala:na\",\"Left\",\"37\",\"7\",\"6\",\"5\",\"S\",\"C\",\"102\"
\"\",\"\",\"approach-retreat\",\"106\",\"894876\",\"0.0-106.0\",\"\",\"\",\"1-4\",\"6795\",\"37\",\"1\",\"Training\",\"Stims/Figures/87-C-20-4.bmp\",\"pa:pa:ka\",\"Right\",\"37\",\"7\",\"7\",\"5\",\"P\",\"C\",\"103\"
\"\",\"\",\"approach-retreat\",\"107\",\"901581\",\"0.0-107.0\",\"\",\"\",\"1-4\",\"5180\",\"38\",\"1\",\"Training\",\"Stims/Figures/7-C-20-4.bmp\",\"pakaka\",\"Down\",\"38\",\"7\",\"8\",\"5\",\"P\",\"C\",\"104\"
\"\",\"\",\"approach-retreat\",\"108\",\"910966\",\"0.0-108.0\",\"\",\"\",\"1-4\",\"7862\",\"37\",\"1\",\"Training\",\"Stims/Figures/27-J-0-1.bmp\",\"mamala\",\"Left\",\"37\",\"7\",\"9\",\"5\",\"S\",\"C\",\"105\"
\"\",\"\",\"approach-retreat\",\"109\",\"916805\",\"0.0-109.0\",\"\",\"\",\"1-4\",\"4313\",\"40\",\"1\",\"Training\",\"Stims/Figures/85-J-0-2.bmp\",\"ma:la:na\",\"Down\",\"40\",\"7\",\"10\",\"5\",\"S\",\"C\",\"106\"
\"\",\"\",\"approach-retreat\",\"110\",\"922200\",\"0.0-110.0\",\"\",\"\",\"1-4\",\"3873\",\"38\",\"1\",\"Training\",\"Stims/Figures/85-C-20-2.bmp\",\"ta:kata\",\"Down\",\"38\",\"7\",\"11\",\"5\",\"P\",\"C\",\"107\"
\"\",\"\",\"approach-retreat\",\"111\",\"929452\",\"0.0-111.0\",\"\",\"\",\"1-4\",\"5716\",\"40\",\"0\",\"Training\",\"Stims/Figures/144-J-10-3.bmp\",\"na:lana\",\"Up\",\"38\",\"7\",\"12\",\"5\",\"S\",\"C\",\"108\"
\"\",\"\",\"approach-retreat\",\"112\",\"935242\",\"0.0-112.0\",\"\",\"\",\"1-4\",\"4279\",\"38\",\"1\",\"Training\",\"Stims/Figures/111-J-10-3.bmp\",\"ma:mana\",\"Up\",\"38\",\"7\",\"13\",\"5\",\"S\",\"C\",\"109\"
\"\",\"\",\"approach-retreat\",\"113\",\"941554\",\"0.0-113.0\",\"\",\"\",\"1-4\",\"4790\",\"38\",\"0\",\"Training\",\"Stims/Figures/111-C-30-3.bmp\",\"papata\",\"Up\",\"40\",\"7\",\"14\",\"5\",\"P\",\"C\",\"110\"
\"\",\"\",\"approach-retreat\",\"114\",\"948171\",\"0.0-114.0\",\"\",\"\",\"1-4\",\"5090\",\"37\",\"1\",\"Training\",\"Stims/Figures/144-C-30-3.bmp\",\"takata\",\"Right\",\"37\",\"7\",\"15\",\"5\",\"P\",\"C\",\"111\"
\"\",\"\",\"approach-retreat\",\"115\",\"955160\",\"0.0-115.0\",\"\",\"\",\"1-4\",\"5463\",\"39\",\"1\",\"Training\",\"Stims/Figures/87-J-10-4.bmp\",\"mamana\",\"Right\",\"39\",\"7\",\"16\",\"5\",\"S\",\"C\",\"112\"
\"\",\"\",\"approach-retreat\",\"116\",\"962811\",\"0.0-116.0\",\"\",\"\",\"1-4\",\"6138\",\"37\",\"1\",\"Training\",\"Stims/Figures/85-J-0-2.bmp\",\"ma:la:na\",\"Left\",\"37\",\"8\",\"1\",\"5\",\"S\",\"C\",\"113\"
\"\",\"\",\"approach-retreat\",\"117\",\"969200\",\"0.0-117.0\",\"\",\"\",\"1-4\",\"4864\",\"38\",\"1\",\"Training\",\"Stims/Figures/118-C-20-2.bmp\",\"pa:kaka\",\"Down\",\"38\",\"8\",\"2\",\"5\",\"P\",\"C\",\"114\"
\"\",\"\",\"approach-retreat\",\"118\",\"975537\",\"0.0-118.0\",\"\",\"\",\"1-4\",\"4804\",\"37\",\"1\",\"Training\",\"Stims/Figures/7-C-20-4.bmp\",\"pakaka\",\"Right\",\"37\",\"8\",\"3\",\"5\",\"P\",\"C\",\"115\"
\"\",\"\",\"approach-retreat\",\"119\",\"981590\",\"0.0-119.0\",\"\",\"\",\"1-4\",\"4527\",\"39\",\"1\",\"Training\",\"Stims/Figures/87-J-10-4.bmp\",\"mamana\",\"Right\",\"39\",\"8\",\"4\",\"5\",\"S\",\"C\",\"116\"
\"\",\"\",\"approach-retreat\",\"120\",\"987522\",\"0.0-120.0\",\"\",\"\",\"1-4\",\"4412\",\"39\",\"1\",\"Training\",\"Stims/Figures/111-C-30-3.bmp\",\"papata\",\"Left\",\"39\",\"8\",\"5\",\"5\",\"P\",\"C\",\"117\"
\"\",\"\",\"approach-retreat\",\"121\",\"995991\",\"0.0-121.0\",\"\",\"\",\"1-4\",\"6950\",\"37\",\"1\",\"Training\",\"Stims/Figures/27-C-30-1.bmp\",\"pa:ka:ta\",\"Right\",\"37\",\"8\",\"6\",\"5\",\"P\",\"C\",\"118\"
\"\",\"\",\"approach-retreat\",\"122\",\"1005336\",\"0.0-122.0\",\"\",\"\",\"1-4\",\"7820\",\"40\",\"1\",\"Training\",\"Stims/Figures/85-C-20-2.bmp\",\"ta:kata\",\"Up\",\"40\",\"8\",\"7\",\"5\",\"P\",\"C\",\"119\"
\"\",\"\",\"approach-retreat\",\"123\",\"1011137\",\"0.0-123.0\",\"\",\"\",\"1-4\",\"4281\",\"39\",\"1\",\"Training\",\"Stims/Figures/87-C-20-4.bmp\",\"pa:pa:ka\",\"Left\",\"39\",\"8\",\"8\",\"5\",\"P\",\"C\",\"120\"
\"\",\"\",\"approach-retreat\",\"124\",\"1018481\",\"0.0-124.0\",\"\",\"\",\"1-4\",\"5830\",\"38\",\"1\",\"Training\",\"Stims/Figures/93-J-0-1.bmp\",\"mala:na\",\"Up\",\"38\",\"8\",\"9\",\"5\",\"S\",\"C\",\"121\"
\"\",\"\",\"approach-retreat\",\"125\",\"1025996\",\"0.0-125.0\",\"\",\"\",\"1-4\",\"5979\",\"38\",\"1\",\"Training\",\"Stims/Figures/111-J-10-3.bmp\",\"ma:mana\",\"Up\",\"38\",\"8\",\"10\",\"5\",\"S\",\"C\",\"122\"
\"\",\"\",\"approach-retreat\",\"126\",\"1032006\",\"0.0-126.0\",\"\",\"\",\"1-4\",\"4484\",\"40\",\"1\",\"Training\",\"Stims/Figures/27-J-0-1.bmp\",\"mamala\",\"Down\",\"40\",\"8\",\"11\",\"5\",\"S\",\"C\",\"123\"
\"\",\"\",\"approach-retreat\",\"127\",\"1037852\",\"0.0-127.0\",\"\",\"\",\"1-4\",\"4314\",\"37\",\"1\",\"Training\",\"Stims/Figures/118-J-0-2.bmp\",\"ma:la:la\",\"Left\",\"37\",\"8\",\"12\",\"5\",\"S\",\"C\",\"124\"
\"\",\"\",\"approach-retreat\",\"128\",\"1044688\",\"0.0-128.0\",\"\",\"\",\"1-4\",\"5310\",\"37\",\"1\",\"Training\",\"Stims/Figures/144-C-30-3.bmp\",\"takata\",\"Right\",\"37\",\"8\",\"13\",\"5\",\"P\",\"C\",\"125\"
\"\",\"\",\"approach-retreat\",\"129\",\"1050973\",\"0.0-129.0\",\"\",\"\",\"1-4\",\"4762\",\"40\",\"1\",\"Training\",\"Stims/Figures/144-J-10-3.bmp\",\"na:lana\",\"Down\",\"40\",\"8\",\"14\",\"5\",\"S\",\"C\",\"126\"
\"\",\"\",\"approach-retreat\",\"130\",\"1057778\",\"0.0-130.0\",\"\",\"\",\"1-4\",\"5287\",\"38\",\"1\",\"Training\",\"Stims/Figures/7-J-10-4.bmp\",\"nalana\",\"Up\",\"38\",\"8\",\"15\",\"5\",\"S\",\"C\",\"127\"
\"\",\"\",\"approach-retreat\",\"131\",\"1065653\",\"0.0-131.0\",\"\",\"\",\"1-4\",\"6353\",\"38\",\"1\",\"Training\",\"Stims/Figures/93-C-30-1.bmp\",\"ta:kaka\",\"Down\",\"38\",\"8\",\"16\",\"5\",\"P\",\"C\",\"128\"
\"\",\"\",\"approach-retreat\",\"132\",\"1071504\",\"0.0-132.0\",\"\",\"\",\"1-4\",\"4333\",\"39\",\"1\",\"Training\",\"Stims/Figures/7-J-10-4.bmp\",\"nalana\",\"Right\",\"39\",\"9\",\"1\",\"5\",\"S\",\"C\",\"129\"
\"\",\"\",\"approach-retreat\",\"133\",\"1077103\",\"0.0-133.0\",\"\",\"\",\"1-4\",\"4075\",\"40\",\"1\",\"Training\",\"Stims/Figures/87-C-20-4.bmp\",\"pa:pa:ka\",\"Up\",\"40\",\"9\",\"2\",\"5\",\"P\",\"C\",\"130\"
\"\",\"\",\"approach-retreat\",\"134\",\"1082921\",\"0.0-134.0\",\"\",\"\",\"1-4\",\"4278\",\"39\",\"1\",\"Training\",\"Stims/Figures/93-C-30-1.bmp\",\"ta:kaka\",\"Left\",\"39\",\"9\",\"3\",\"5\",\"P\",\"C\",\"131\"
\"\",\"\",\"approach-retreat\",\"135\",\"1089987\",\"0.0-135.0\",\"\",\"\",\"1-4\",\"5557\",\"38\",\"1\",\"Training\",\"Stims/Figures/27-C-30-1.bmp\",\"pa:ka:ta\",\"Down\",\"38\",\"9\",\"4\",\"5\",\"P\",\"C\",\"132\"
\"\",\"\",\"approach-retreat\",\"136\",\"1097348\",\"0.0-136.0\",\"\",\"\",\"1-4\",\"5830\",\"37\",\"1\",\"Training\",\"Stims/Figures/93-J-0-1.bmp\",\"mala:na\",\"Left\",\"37\",\"9\",\"5\",\"5\",\"S\",\"C\",\"133\"
\"\",\"\",\"approach-retreat\",\"137\",\"1105446\",\"0.0-137.0\",\"\",\"\",\"1-4\",\"6565\",\"37\",\"1\",\"Training\",\"Stims/Figures/118-J-0-2.bmp\",\"ma:la:la\",\"Left\",\"37\",\"9\",\"6\",\"5\",\"S\",\"C\",\"134\"
\"\",\"\",\"approach-retreat\",\"138\",\"1112173\",\"0.0-138.0\",\"\",\"\",\"1-4\",\"5219\",\"38\",\"1\",\"Training\",\"Stims/Figures/111-J-10-3.bmp\",\"ma:mana\",\"Up\",\"38\",\"9\",\"7\",\"5\",\"S\",\"C\",\"135\"
\"\",\"\",\"approach-retreat\",\"139\",\"1119473\",\"0.0-139.0\",\"\",\"\",\"1-4\",\"5791\",\"40\",\"1\",\"Training\",\"Stims/Figures/144-J-10-3.bmp\",\"na:lana\",\"Down\",\"40\",\"9\",\"8\",\"5\",\"S\",\"C\",\"136\"
\"\",\"\",\"approach-retreat\",\"140\",\"1125178\",\"0.0-140.0\",\"\",\"\",\"1-4\",\"4173\",\"40\",\"1\",\"Training\",\"Stims/Figures/27-J-0-1.bmp\",\"mamala\",\"Down\",\"40\",\"9\",\"9\",\"5\",\"S\",\"C\",\"137\"
\"\",\"\",\"approach-retreat\",\"141\",\"1134595\",\"0.0-141.0\",\"\",\"\",\"1-4\",\"7895\",\"40\",\"1\",\"Training\",\"Stims/Figures/111-C-30-3.bmp\",\"papata\",\"Up\",\"40\",\"9\",\"10\",\"5\",\"P\",\"C\",\"138\"
\"\",\"\",\"approach-retreat\",\"142\",\"1143136\",\"0.0-142.0\",\"\",\"\",\"1-4\",\"7011\",\"39\",\"1\",\"Training\",\"Stims/Figures/87-J-10-4.bmp\",\"mamana\",\"Right\",\"39\",\"9\",\"11\",\"5\",\"S\",\"C\",\"139\"
\"\",\"\",\"approach-retreat\",\"143\",\"1150341\",\"0.0-143.0\",\"\",\"\",\"1-4\",\"5683\",\"39\",\"0\",\"Training\",\"Stims/Figures/7-C-20-4.bmp\",\"pakaka\",\"Right\",\"37\",\"9\",\"12\",\"5\",\"P\",\"C\",\"140\"
\"\",\"\",\"approach-retreat\",\"144\",\"1156185\",\"0.0-144.0\",\"\",\"\",\"1-4\",\"4326\",\"39\",\"1\",\"Training\",\"Stims/Figures/85-J-0-2.bmp\",\"ma:la:na\",\"Right\",\"39\",\"9\",\"13\",\"5\",\"S\",\"C\",\"141\"
\"\",\"\",\"approach-retreat\",\"145\",\"1161944\",\"0.0-145.0\",\"\",\"\",\"1-4\",\"4232\",\"40\",\"1\",\"Training\",\"Stims/Figures/144-C-30-3.bmp\",\"takata\",\"Up\",\"40\",\"9\",\"14\",\"5\",\"P\",\"C\",\"142\"
\"\",\"\",\"approach-retreat\",\"146\",\"1167665\",\"0.0-146.0\",\"\",\"\",\"1-4\",\"4204\",\"39\",\"1\",\"Training\",\"Stims/Figures/85-C-20-2.bmp\",\"ta:kata\",\"Left\",\"39\",\"9\",\"15\",\"5\",\"P\",\"C\",\"143\"
\"\",\"\",\"approach-retreat\",\"147\",\"1174205\",\"0.0-147.0\",\"\",\"\",\"1-4\",\"5007\",\"38\",\"1\",\"Training\",\"Stims/Figures/118-C-20-2.bmp\",\"pa:kaka\",\"Down\",\"38\",\"9\",\"16\",\"5\",\"P\",\"C\",\"144\"
\"129741\",\"\",\"instructions\",\"148\",\"1303947\",\"0.0-148.0\",\"[{\"\"page_index\"\":0,\"\"viewing_time\"\":129739}]\",\"\",\"\",\"\",\"\",\"\",\"\",\"\",\"\",\"\",\"\",\"\",\"\",\"\",\"\",\"\",\"\"
\"\",\"\",\"approach-retreat\",\"149\",\"1311099\",\"0.0-149.0\",\"\",\"\",\"1-4\",\"5620\",\"40\",\"0\",\"Testing\",\"Stims/Figures/100-J-10-3.bmp\",\"mama:na\",\"Up\",\"38\",\"1\",\"1\",\"5\",\"S\",\"C\",\"1\"
\"\",\"\",\"approach-retreat\",\"150\",\"1318708\",\"0.0-150.0\",\"\",\"\",\"1-4\",\"6074\",\"40\",\"1\",\"Testing\",\"Stims/Figures/93-J-0-1.bmp\",\"mala:na\",\"Down\",\"40\",\"1\",\"2\",\"5\",\"S\",\"C\",\"2\"
\"\",\"\",\"approach-retreat\",\"151\",\"1324701\",\"0.0-151.0\",\"\",\"\",\"1-4\",\"4479\",\"37\",\"1\",\"Testing\",\"Stims/Figures/93-C-30-1.bmp\",\"ta:kaka\",\"Right\",\"37\",\"1\",\"3\",\"5\",\"P\",\"C\",\"3\"
\"\",\"\",\"approach-retreat\",\"152\",\"1330667\",\"0.0-152.0\",\"\",\"\",\"1-4\",\"4428\",\"39\",\"1\",\"Testing\",\"Stims/Figures/86-J-0-1.bmp\",\"nama:na\",\"Right\",\"39\",\"1\",\"4\",\"5\",\"S\",\"C\",\"4\"
\"\",\"\",\"approach-retreat\",\"153\",\"1336433\",\"0.0-153.0\",\"\",\"\",\"1-4\",\"4239\",\"37\",\"0\",\"Testing\",\"Stims/Figures/87-J-10-4.bmp\",\"mamana\",\"Right\",\"39\",\"1\",\"5\",\"5\",\"S\",\"C\",\"5\"
\"\",\"\",\"approach-retreat\",\"154\",\"1342264\",\"0.0-154.0\",\"\",\"\",\"1-4\",\"4298\",\"39\",\"1\",\"Testing\",\"Stims/Figures/86-C-30-1.bmp\",\"tapa:ka\",\"Left\",\"39\",\"1\",\"6\",\"5\",\"P\",\"C\",\"6\"
\"\",\"\",\"approach-retreat\",\"155\",\"1348048\",\"0.0-155.0\",\"\",\"\",\"1-4\",\"4269\",\"40\",\"1\",\"Testing\",\"Stims/Figures/74-C-20-4.bmp\",\"tapata\",\"Up\",\"40\",\"1\",\"7\",\"5\",\"P\",\"C\",\"7\"
\"\",\"\",\"approach-retreat\",\"156\",\"1354045\",\"0.0-156.0\",\"\",\"\",\"1-4\",\"4463\",\"37\",\"1\",\"Testing\",\"Stims/Figures/85-C-20-2.bmp\",\"ta:kata\",\"Right\",\"37\",\"1\",\"8\",\"5\",\"P\",\"C\",\"8\"
\"\",\"\",\"approach-retreat\",\"157\",\"1361525\",\"0.0-157.0\",\"\",\"\",\"1-4\",\"5961\",\"40\",\"1\",\"Testing\",\"Stims/Figures/118-J-0-2.bmp\",\"ma:la:la\",\"Down\",\"40\",\"1\",\"9\",\"5\",\"S\",\"C\",\"9\"
\"\",\"\",\"approach-retreat\",\"158\",\"1367735\",\"0.0-158.0\",\"\",\"\",\"1-4\",\"4675\",\"40\",\"1\",\"Testing\",\"Stims/Figures/87-C-20-4.bmp\",\"pa:pa:ka\",\"Up\",\"40\",\"1\",\"10\",\"5\",\"P\",\"C\",\"10\"
\"\",\"\",\"approach-retreat\",\"159\",\"1373640\",\"0.0-159.0\",\"\",\"\",\"1-4\",\"4372\",\"37\",\"1\",\"Testing\",\"Stims/Figures/94-J-0-2.bmp\",\"ma:ma:na\",\"Left\",\"37\",\"1\",\"11\",\"5\",\"S\",\"C\",\"11\"
\"\",\"\",\"approach-retreat\",\"160\",\"1379562\",\"0.0-160.0\",\"\",\"\",\"1-4\",\"4384\",\"39\",\"0\",\"Testing\",\"Stims/Figures/7-J-10-4.bmp\",\"nalana\",\"Left\",\"37\",\"1\",\"12\",\"5\",\"S\",\"C\",\"12\"
\"\",\"\",\"approach-retreat\",\"161\",\"1385464\",\"0.0-161.0\",\"\",\"\",\"1-4\",\"4367\",\"40\",\"1\",\"Testing\",\"Stims/Figures/111-C-30-3.bmp\",\"papata\",\"Up\",\"40\",\"1\",\"13\",\"5\",\"P\",\"C\",\"13\"
\"\",\"\",\"approach-retreat\",\"162\",\"1391784\",\"0.0-162.0\",\"\",\"\",\"1-4\",\"4786\",\"37\",\"1\",\"Testing\",\"Stims/Figures/7-C-20-4.bmp\",\"pakaka\",\"Right\",\"37\",\"1\",\"14\",\"5\",\"P\",\"C\",\"14\"
\"\",\"\",\"approach-retreat\",\"163\",\"1398098\",\"0.0-163.0\",\"\",\"\",\"1-4\",\"4773\",\"38\",\"1\",\"Testing\",\"Stims/Figures/144-C-30-3.bmp\",\"takata\",\"Down\",\"38\",\"1\",\"15\",\"5\",\"P\",\"C\",\"15\"
\"\",\"\",\"approach-retreat\",\"164\",\"1405368\",\"0.0-164.0\",\"\",\"\",\"1-4\",\"5738\",\"39\",\"1\",\"Testing\",\"Stims/Figures/100-C-30-3.bmp\",\"pa:ka:ka\",\"Left\",\"39\",\"1\",\"16\",\"5\",\"P\",\"C\",\"16\"
\"\",\"\",\"approach-retreat\",\"165\",\"1415374\",\"0.0-165.0\",\"\",\"\",\"1-4\",\"8459\",\"40\",\"1\",\"Testing\",\"Stims/Figures/144-J-10-3.bmp\",\"na:lana\",\"Down\",\"40\",\"1\",\"17\",\"5\",\"S\",\"C\",\"17\"
\"\",\"\",\"approach-retreat\",\"166\",\"1421379\",\"0.0-166.0\",\"\",\"\",\"1-4\",\"4467\",\"39\",\"0\",\"Testing\",\"Stims/Figures/111-J-10-3.bmp\",\"ma:mana\",\"Left\",\"37\",\"1\",\"18\",\"5\",\"S\",\"C\",\"18\"
\"\",\"\",\"approach-retreat\",\"167\",\"1427760\",\"0.0-167.0\",\"\",\"\",\"1-4\",\"4833\",\"39\",\"1\",\"Testing\",\"Stims/Figures/74-J-10-4.bmp\",\"ma:lala\",\"Right\",\"39\",\"1\",\"19\",\"5\",\"S\",\"C\",\"19\"
\"\",\"\",\"approach-retreat\",\"168\",\"1433795\",\"0.0-168.0\",\"\",\"\",\"1-4\",\"4500\",\"40\",\"1\",\"Testing\",\"Stims/Figures/118-C-20-2.bmp\",\"pa:kaka\",\"Up\",\"40\",\"1\",\"20\",\"5\",\"P\",\"C\",\"20\"
\"\",\"\",\"approach-retreat\",\"169\",\"1440448\",\"0.0-169.0\",\"\",\"\",\"1-4\",\"5123\",\"38\",\"1\",\"Testing\",\"Stims/Figures/27-C-30-1.bmp\",\"pa:ka:ta\",\"Down\",\"38\",\"1\",\"21\",\"5\",\"P\",\"C\",\"21\"
\"\",\"\",\"approach-retreat\",\"170\",\"1447156\",\"0.0-170.0\",\"\",\"\",\"1-4\",\"5182\",\"40\",\"1\",\"Testing\",\"Stims/Figures/27-J-0-1.bmp\",\"mamala\",\"Down\",\"40\",\"1\",\"22\",\"5\",\"S\",\"C\",\"22\"
\"\",\"\",\"approach-retreat\",\"171\",\"1457038\",\"0.0-171.0\",\"\",\"\",\"1-4\",\"8349\",\"39\",\"1\",\"Testing\",\"Stims/Figures/94-C-20-2.bmp\",\"taka:ta\",\"Left\",\"39\",\"1\",\"23\",\"5\",\"P\",\"C\",\"23\"
\"\",\"\",\"approach-retreat\",\"172\",\"1465083\",\"0.0-172.0\",\"\",\"\",\"1-4\",\"6509\",\"38\",\"1\",\"Testing\",\"Stims/Figures/85-J-0-2.bmp\",\"ma:la:na\",\"Up\",\"38\",\"1\",\"24\",\"5\",\"S\",\"C\",\"24\"
\"\",\"\",\"approach-retreat\",\"173\",\"1472923\",\"0.0-173.0\",\"\",\"\",\"1-4\",\"6309\",\"38\",\"0\",\"Testing\",\"Stims/Figures/111-J-10-3.bmp\",\"ma:mana\",\"Down\",\"40\",\"2\",\"1\",\"5\",\"S\",\"C\",\"25\"
\"\",\"\",\"approach-retreat\",\"174\",\"1478669\",\"0.0-174.0\",\"\",\"\",\"1-4\",\"4206\",\"38\",\"1\",\"Testing\",\"Stims/Figures/93-C-30-1.bmp\",\"ta:kaka\",\"Down\",\"38\",\"2\",\"2\",\"5\",\"P\",\"C\",\"26\"
\"\",\"\",\"approach-retreat\",\"175\",\"1484452\",\"0.0-175.0\",\"\",\"\",\"1-4\",\"4249\",\"40\",\"1\",\"Testing\",\"Stims/Figures/27-C-30-1.bmp\",\"pa:ka:ta\",\"Up\",\"40\",\"2\",\"3\",\"5\",\"P\",\"C\",\"27\"
\"\",\"\",\"approach-retreat\",\"176\",\"1490335\",\"0.0-176.0\",\"\",\"\",\"1-4\",\"4349\",\"37\",\"1\",\"Testing\",\"Stims/Figures/144-J-10-3.bmp\",\"na:lana\",\"Left\",\"37\",\"2\",\"4\",\"5\",\"S\",\"C\",\"28\"
\"\",\"\",\"approach-retreat\",\"177\",\"1496232\",\"0.0-177.0\",\"\",\"\",\"1-4\",\"4359\",\"37\",\"0\",\"Testing\",\"Stims/Figures/27-J-0-1.bmp\",\"mamala\",\"Right\",\"39\",\"2\",\"5\",\"5\",\"S\",\"C\",\"29\"
\"\",\"\",\"approach-retreat\",\"178\",\"1502319\",\"0.0-178.0\",\"\",\"\",\"1-4\",\"4560\",\"38\",\"1\",\"Testing\",\"Stims/Figures/74-J-10-4.bmp\",\"ma:lala\",\"Up\",\"38\",\"2\",\"6\",\"5\",\"S\",\"C\",\"30\"
\"\",\"\",\"approach-retreat\",\"179\",\"1508185\",\"0.0-179.0\",\"\",\"\",\"1-4\",\"4330\",\"38\",\"1\",\"Testing\",\"Stims/Figures/94-C-20-2.bmp\",\"taka:ta\",\"Down\",\"38\",\"2\",\"7\",\"5\",\"P\",\"C\",\"31\"
\"\",\"\",\"approach-retreat\",\"180\",\"1515025\",\"0.0-180.0\",\"\",\"\",\"1-4\",\"5309\",\"39\",\"1\",\"Testing\",\"Stims/Figures/85-J-0-2.bmp\",\"ma:la:na\",\"Right\",\"39\",\"2\",\"8\",\"5\",\"S\",\"C\",\"32\"
\"\",\"\",\"approach-retreat\",\"181\",\"1520916\",\"0.0-181.0\",\"\",\"\",\"1-4\",\"4353\",\"39\",\"1\",\"Testing\",\"Stims/Figures/87-C-20-4.bmp\",\"pa:pa:ka\",\"Left\",\"39\",\"2\",\"9\",\"5\",\"P\",\"C\",\"33\"
\"\",\"\",\"approach-retreat\",\"182\",\"1527789\",\"0.0-182.0\",\"\",\"\",\"1-4\",\"5310\",\"39\",\"1\",\"Testing\",\"Stims/Figures/94-J-0-2.bmp\",\"ma:ma:na\",\"Right\",\"39\",\"2\",\"10\",\"5\",\"S\",\"C\",\"34\"
\"\",\"\",\"approach-retreat\",\"183\",\"1533681\",\"0.0-183.0\",\"\",\"\",\"1-4\",\"4352\",\"38\",\"1\",\"Testing\",\"Stims/Figures/86-J-0-1.bmp\",\"nama:na\",\"Up\",\"38\",\"2\",\"11\",\"5\",\"S\",\"C\",\"35\"
\"\",\"\",\"approach-retreat\",\"184\",\"1539295\",\"0.0-184.0\",\"\",\"\",\"1-4\",\"4081\",\"40\",\"1\",\"Testing\",\"Stims/Figures/7-C-20-4.bmp\",\"pakaka\",\"Up\",\"40\",\"2\",\"12\",\"5\",\"P\",\"C\",\"36\"
\"\",\"\",\"approach-retreat\",\"185\",\"1545445\",\"0.0-185.0\",\"\",\"\",\"1-4\",\"4634\",\"40\",\"1\",\"Testing\",\"Stims/Figures/144-C-30-3.bmp\",\"takata\",\"Up\",\"40\",\"2\",\"13\",\"5\",\"P\",\"C\",\"37\"
\"\",\"\",\"approach-retreat\",\"186\",\"1553084\",\"0.0-186.0\",\"\",\"\",\"1-4\",\"6095\",\"39\",\"0\",\"Testing\",\"Stims/Figures/87-J-10-4.bmp\",\"mamana\",\"Left\",\"37\",\"2\",\"14\",\"5\",\"S\",\"C\",\"38\"
\"\",\"\",\"approach-retreat\",\"187\",\"1560455\",\"0.0-187.0\",\"\",\"\",\"1-4\",\"5835\",\"39\",\"1\",\"Testing\",\"Stims/Figures/93-J-0-1.bmp\",\"mala:na\",\"Right\",\"39\",\"2\",\"15\",\"5\",\"S\",\"C\",\"39\"
\"\",\"\",\"approach-retreat\",\"188\",\"1568239\",\"0.0-188.0\",\"\",\"\",\"1-4\",\"6273\",\"39\",\"1\",\"Testing\",\"Stims/Figures/85-C-20-2.bmp\",\"ta:kata\",\"Left\",\"39\",\"2\",\"16\",\"5\",\"P\",\"C\",\"40\"
\"\",\"\",\"approach-retreat\",\"189\",\"1576346\",\"0.0-189.0\",\"\",\"\",\"1-4\",\"6580\",\"38\",\"1\",\"Testing\",\"Stims/Figures/100-C-30-3.bmp\",\"pa:ka:ka\",\"Down\",\"38\",\"2\",\"17\",\"5\",\"P\",\"C\",\"41\"
\"\",\"\",\"approach-retreat\",\"190\",\"1583808\",\"0.0-190.0\",\"\",\"\",\"1-4\",\"5930\",\"37\",\"1\",\"Testing\",\"Stims/Figures/100-J-10-3.bmp\",\"mama:na\",\"Left\",\"37\",\"2\",\"18\",\"5\",\"S\",\"C\",\"42\"
\"\",\"\",\"approach-retreat\",\"191\",\"1589612\",\"0.0-191.0\",\"\",\"\",\"1-4\",\"4276\",\"39\",\"1\",\"Testing\",\"Stims/Figures/74-C-20-4.bmp\",\"tapata\",\"Left\",\"39\",\"2\",\"19\",\"5\",\"P\",\"C\",\"43\"
\"\",\"\",\"approach-retreat\",\"192\",\"1596393\",\"0.0-192.0\",\"\",\"\",\"1-4\",\"5260\",\"39\",\"1\",\"Testing\",\"Stims/Figures/118-J-0-2.bmp\",\"ma:la:la\",\"Right\",\"39\",\"2\",\"20\",\"5\",\"S\",\"C\",\"44\"
\"\",\"\",\"approach-retreat\",\"193\",\"1603394\",\"0.0-193.0\",\"\",\"\",\"1-4\",\"5465\",\"40\",\"1\",\"Testing\",\"Stims/Figures/118-C-20-2.bmp\",\"pa:kaka\",\"Up\",\"40\",\"2\",\"21\",\"5\",\"P\",\"C\",\"45\"
\"\",\"\",\"approach-retreat\",\"194\",\"1609211\",\"0.0-194.0\",\"\",\"\",\"1-4\",\"4290\",\"38\",\"1\",\"Testing\",\"Stims/Figures/111-C-30-3.bmp\",\"papata\",\"Down\",\"38\",\"2\",\"22\",\"5\",\"P\",\"C\",\"46\"
\"\",\"\",\"approach-retreat\",\"195\",\"1618232\",\"0.0-195.0\",\"\",\"\",\"1-4\",\"7491\",\"39\",\"1\",\"Testing\",\"Stims/Figures/7-J-10-4.bmp\",\"nalana\",\"Right\",\"39\",\"2\",\"23\",\"5\",\"S\",\"C\",\"47\"
\"\",\"\",\"approach-retreat\",\"196\",\"1624023\",\"0.0-196.0\",\"\",\"\",\"1-4\",\"4253\",\"38\",\"1\",\"Testing\",\"Stims/Figures/86-C-30-1.bmp\",\"tapa:ka\",\"Down\",\"38\",\"2\",\"24\",\"5\",\"P\",\"C\",\"48\"
\"\",\"\",\"approach-retreat\",\"197\",\"1629926\",\"0.0-197.0\",\"\",\"\",\"1-4\",\"4363\",\"37\",\"1\",\"Testing\",\"Stims/Figures/100-C-30-3.bmp\",\"pa:ka:ka\",\"Right\",\"37\",\"3\",\"1\",\"5\",\"P\",\"C\",\"49\"
\"\",\"\",\"approach-retreat\",\"198\",\"1635912\",\"0.0-198.0\",\"\",\"\",\"1-4\",\"4459\",\"40\",\"1\",\"Testing\",\"Stims/Figures/118-J-0-2.bmp\",\"ma:la:la\",\"Down\",\"40\",\"3\",\"2\",\"5\",\"S\",\"C\",\"50\"
\"\",\"\",\"approach-retreat\",\"199\",\"1642241\",\"0.0-199.0\",\"\",\"\",\"1-4\",\"4796\",\"37\",\"1\",\"Testing\",\"Stims/Figures/94-J-0-2.bmp\",\"ma:ma:na\",\"Left\",\"37\",\"3\",\"3\",\"5\",\"S\",\"C\",\"51\"
\"\",\"\",\"approach-retreat\",\"200\",\"1648176\",\"0.0-200.0\",\"\",\"\",\"1-4\",\"4394\",\"37\",\"1\",\"Testing\",\"Stims/Figures/93-J-0-1.bmp\",\"mala:na\",\"Left\",\"37\",\"3\",\"4\",\"5\",\"S\",\"C\",\"52\"
\"\",\"\",\"approach-retreat\",\"201\",\"1654509\",\"0.0-201.0\",\"\",\"\",\"1-4\",\"4791\",\"37\",\"1\",\"Testing\",\"Stims/Figures/86-C-30-1.bmp\",\"tapa:ka\",\"Right\",\"37\",\"3\",\"5\",\"5\",\"P\",\"C\",\"53\"
\"\",\"\",\"approach-retreat\",\"202\",\"1663541\",\"0.0-202.0\",\"\",\"\",\"1-4\",\"7497\",\"38\",\"1\",\"Testing\",\"Stims/Figures/100-J-10-3.bmp\",\"mama:na\",\"Up\",\"38\",\"3\",\"6\",\"5\",\"S\",\"C\",\"54\"
\"\",\"\",\"approach-retreat\",\"203\",\"1669255\",\"0.0-203.0\",\"\",\"\",\"1-4\",\"4169\",\"40\",\"1\",\"Testing\",\"Stims/Figures/85-C-20-2.bmp\",\"ta:kata\",\"Up\",\"40\",\"3\",\"7\",\"5\",\"P\",\"C\",\"55\"
\"\",\"\",\"approach-retreat\",\"204\",\"1675720\",\"0.0-204.0\",\"\",\"\",\"1-4\",\"4933\",\"39\",\"1\",\"Testing\",\"Stims/Figures/111-J-10-3.bmp\",\"ma:mana\",\"Right\",\"39\",\"3\",\"8\",\"5\",\"S\",\"C\",\"56\"
\"\",\"\",\"approach-retreat\",\"205\",\"1682036\",\"0.0-205.0\",\"\",\"\",\"1-4\",\"4789\",\"38\",\"1\",\"Testing\",\"Stims/Figures/94-C-20-2.bmp\",\"taka:ta\",\"Down\",\"38\",\"3\",\"9\",\"5\",\"P\",\"C\",\"57\"
\"\",\"\",\"approach-retreat\",\"206\",\"1688379\",\"0.0-206.0\",\"\",\"\",\"1-4\",\"4808\",\"40\",\"0\",\"Testing\",\"Stims/Figures/74-J-10-4.bmp\",\"ma:lala\",\"Up\",\"38\",\"3\",\"10\",\"5\",\"S\",\"C\",\"58\"
\"\",\"\",\"approach-retreat\",\"207\",\"1696364\",\"0.0-207.0\",\"\",\"\",\"1-4\",\"6448\",\"39\",\"1\",\"Testing\",\"Stims/Figures/85-J-0-2.bmp\",\"ma:la:na\",\"Right\",\"39\",\"3\",\"11\",\"5\",\"S\",\"C\",\"59\"
\"\",\"\",\"approach-retreat\",\"208\",\"1703079\",\"0.0-208.0\",\"\",\"\",\"1-4\",\"5178\",\"38\",\"1\",\"Testing\",\"Stims/Figures/144-C-30-3.bmp\",\"takata\",\"Down\",\"38\",\"3\",\"12\",\"5\",\"P\",\"C\",\"60\"
\"\",\"\",\"approach-retreat\",\"209\",\"1710545\",\"0.0-209.0\",\"\",\"\",\"1-4\",\"5931\",\"40\",\"1\",\"Testing\",\"Stims/Figures/7-C-20-4.bmp\",\"pakaka\",\"Up\",\"40\",\"3\",\"13\",\"5\",\"P\",\"C\",\"61\"
\"\",\"\",\"approach-retreat\",\"210\",\"1716263\",\"0.0-210.0\",\"\",\"\",\"1-4\",\"4185\",\"40\",\"1\",\"Testing\",\"Stims/Figures/27-C-30-1.bmp\",\"pa:ka:ta\",\"Up\",\"40\",\"3\",\"14\",\"5\",\"P\",\"C\",\"62\"
\"\",\"\",\"approach-retreat\",\"211\",\"1722646\",\"0.0-211.0\",\"\",\"\",\"1-4\",\"4848\",\"37\",\"1\",\"Testing\",\"Stims/Figures/74-C-20-4.bmp\",\"tapata\",\"Right\",\"37\",\"3\",\"15\",\"5\",\"P\",\"C\",\"63\"
\"\",\"\",\"approach-retreat\",\"212\",\"1729193\",\"0.0-212.0\",\"\",\"\",\"1-4\",\"5012\",\"39\",\"1\",\"Testing\",\"Stims/Figures/93-C-30-1.bmp\",\"ta:kaka\",\"Left\",\"39\",\"3\",\"16\",\"5\",\"P\",\"C\",\"64\"
\"\",\"\",\"approach-retreat\",\"213\",\"1738286\",\"0.0-213.0\",\"\",\"\",\"1-4\",\"7576\",\"37\",\"1\",\"Testing\",\"Stims/Figures/87-J-10-4.bmp\",\"mamana\",\"Left\",\"37\",\"3\",\"17\",\"5\",\"S\",\"C\",\"65\"
\"\",\"\",\"approach-retreat\",\"214\",\"1744511\",\"0.0-214.0\",\"\",\"\",\"1-4\",\"4688\",\"38\",\"1\",\"Testing\",\"Stims/Figures/111-C-30-3.bmp\",\"papata\",\"Down\",\"38\",\"3\",\"18\",\"5\",\"P\",\"C\",\"66\"
\"\",\"\",\"approach-retreat\",\"215\",\"1750324\",\"0.0-215.0\",\"\",\"\",\"1-4\",\"4278\",\"37\",\"1\",\"Testing\",\"Stims/Figures/87-C-20-4.bmp\",\"pa:pa:ka\",\"Right\",\"37\",\"3\",\"19\",\"5\",\"P\",\"C\",\"67\"
\"\",\"\",\"approach-retreat\",\"216\",\"1757640\",\"0.0-216.0\",\"\",\"\",\"1-4\",\"5786\",\"38\",\"0\",\"Testing\",\"Stims/Figures/144-J-10-3.bmp\",\"na:lana\",\"Down\",\"40\",\"3\",\"20\",\"5\",\"S\",\"C\",\"68\"
\"\",\"\",\"approach-retreat\",\"217\",\"1765165\",\"0.0-217.0\",\"\",\"\",\"1-4\",\"5987\",\"39\",\"1\",\"Testing\",\"Stims/Figures/118-C-20-2.bmp\",\"pa:kaka\",\"Left\",\"39\",\"3\",\"21\",\"5\",\"P\",\"C\",\"69\"
\"\",\"\",\"approach-retreat\",\"218\",\"1772293\",\"0.0-218.0\",\"\",\"\",\"1-4\",\"5609\",\"37\",\"1\",\"Testing\",\"Stims/Figures/86-J-0-1.bmp\",\"nama:na\",\"Left\",\"37\",\"3\",\"22\",\"5\",\"S\",\"C\",\"70\"
\"\",\"\",\"approach-retreat\",\"219\",\"1780535\",\"0.0-219.0\",\"\",\"\",\"1-4\",\"6704\",\"38\",\"1\",\"Testing\",\"Stims/Figures/7-J-10-4.bmp\",\"nalana\",\"Up\",\"38\",\"3\",\"23\",\"5\",\"S\",\"C\",\"71\"
\"\",\"\",\"approach-retreat\",\"220\",\"1787939\",\"0.0-220.0\",\"\",\"\",\"1-4\",\"5879\",\"40\",\"1\",\"Testing\",\"Stims/Figures/27-J-0-1.bmp\",\"mamala\",\"Down\",\"40\",\"3\",\"24\",\"5\",\"S\",\"C\",\"72\"
\"\",\"\",\"approach-retreat\",\"221\",\"1797381\",\"0.0-221.0\",\"\",\"\",\"1-4\",\"7900\",\"37\",\"1\",\"Testing\",\"Stims/Figures/111-J-10-3.bmp\",\"ma:mana\",\"Left\",\"37\",\"4\",\"1\",\"5\",\"S\",\"C\",\"73\"
\"\",\"\",\"approach-retreat\",\"222\",\"1803227\",\"0.0-222.0\",\"\",\"\",\"1-4\",\"4306\",\"40\",\"1\",\"Testing\",\"Stims/Figures/85-J-0-2.bmp\",\"ma:la:na\",\"Down\",\"40\",\"4\",\"2\",\"5\",\"S\",\"C\",\"74\"
\"\",\"\",\"approach-retreat\",\"223\",\"1809206\",\"0.0-223.0\",\"\",\"\",\"1-4\",\"4441\",\"40\",\"1\",\"Testing\",\"Stims/Figures/87-C-20-4.bmp\",\"pa:pa:ka\",\"Up\",\"40\",\"4\",\"3\",\"5\",\"P\",\"C\",\"75\"
\"\",\"\",\"approach-retreat\",\"224\",\"1820888\",\"0.0-224.0\",\"\",\"\",\"1-4\",\"10141\",\"38\",\"1\",\"Testing\",\"Stims/Figures/86-J-0-1.bmp\",\"nama:na\",\"Up\",\"38\",\"4\",\"4\",\"5\",\"S\",\"C\",\"76\"
\"\",\"\",\"approach-retreat\",\"225\",\"1830064\",\"0.0-225.0\",\"\",\"\",\"1-4\",\"7641\",\"37\",\"0\",\"Testing\",\"Stims/Figures/100-J-10-3.bmp\",\"mama:na\",\"Right\",\"39\",\"4\",\"5\",\"5\",\"S\",\"C\",\"77\"
\"\",\"\",\"approach-retreat\",\"226\",\"1835864\",\"0.0-226.0\",\"\",\"\",\"1-4\",\"4290\",\"38\",\"1\",\"Testing\",\"Stims/Figures/94-C-20-2.bmp\",\"taka:ta\",\"Down\",\"38\",\"4\",\"6\",\"5\",\"P\",\"C\",\"78\"
\"\",\"\",\"approach-retreat\",\"227\",\"1841932\",\"0.0-227.0\",\"\",\"\",\"1-4\",\"4536\",\"37\",\"1\",\"Testing\",\"Stims/Figures/144-C-30-3.bmp\",\"takata\",\"Right\",\"37\",\"4\",\"7\",\"5\",\"P\",\"C\",\"79\"
\"\",\"\",\"approach-retreat\",\"228\",\"1849760\",\"0.0-228.0\",\"\",\"\",\"1-4\",\"6298\",\"37\",\"1\",\"Testing\",\"Stims/Figures/7-C-20-4.bmp\",\"pakaka\",\"Right\",\"37\",\"4\",\"8\",\"5\",\"P\",\"C\",\"80\"
\"\",\"\",\"approach-retreat\",\"229\",\"1856459\",\"0.0-229.0\",\"\",\"\",\"1-4\",\"5159\",\"38\",\"1\",\"Testing\",\"Stims/Figures/111-C-30-3.bmp\",\"papata\",\"Down\",\"38\",\"4\",\"9\",\"5\",\"P\",\"C\",\"81\"
\"\",\"\",\"approach-retreat\",\"230\",\"1862229\",\"0.0-230.0\",\"\",\"\",\"1-4\",\"4242\",\"40\",\"1\",\"Testing\",\"Stims/Figures/86-C-30-1.bmp\",\"tapa:ka\",\"Up\",\"40\",\"4\",\"10\",\"5\",\"P\",\"C\",\"82\"
\"\",\"\",\"approach-retreat\",\"231\",\"1868869\",\"0.0-231.0\",\"\",\"\",\"1-4\",\"5104\",\"37\",\"1\",\"Testing\",\"Stims/Figures/118-C-20-2.bmp\",\"pa:kaka\",\"Right\",\"37\",\"4\",\"11\",\"5\",\"P\",\"C\",\"83\"
\"\",\"\",\"approach-retreat\",\"232\",\"1874983\",\"0.0-232.0\",\"\",\"\",\"1-4\",\"4585\",\"39\",\"1\",\"Testing\",\"Stims/Figures/94-J-0-2.bmp\",\"ma:ma:na\",\"Right\",\"39\",\"4\",\"12\",\"5\",\"S\",\"C\",\"84\"
\"\",\"\",\"approach-retreat\",\"233\",\"1884946\",\"0.0-233.0\",\"\",\"\",\"1-4\",\"8429\",\"39\",\"0\",\"Testing\",\"Stims/Figures/87-J-10-4.bmp\",\"mamana\",\"Left\",\"37\",\"4\",\"13\",\"5\",\"S\",\"C\",\"85\"
\"\",\"\",\"approach-retreat\",\"234\",\"1891013\",\"0.0-234.0\",\"\",\"\",\"1-4\",\"4516\",\"39\",\"1\",\"Testing\",\"Stims/Figures/93-J-0-1.bmp\",\"mala:na\",\"Right\",\"39\",\"4\",\"14\",\"5\",\"S\",\"C\",\"86\"
\"\",\"\",\"approach-retreat\",\"235\",\"1897749\",\"0.0-235.0\",\"\",\"\",\"1-4\",\"5215\",\"38\",\"1\",\"Testing\",\"Stims/Figures/27-J-0-1.bmp\",\"mamala\",\"Up\",\"38\",\"4\",\"15\",\"5\",\"S\",\"C\",\"87\"
\"\",\"\",\"approach-retreat\",\"236\",\"1903764\",\"0.0-236.0\",\"\",\"\",\"1-4\",\"4481\",\"39\",\"1\",\"Testing\",\"Stims/Figures/93-C-30-1.bmp\",\"ta:kaka\",\"Left\",\"39\",\"4\",\"16\",\"5\",\"P\",\"C\",\"88\"
\"\",\"\",\"approach-retreat\",\"237\",\"1912045\",\"0.0-237.0\",\"\",\"\",\"1-4\",\"6744\",\"39\",\"0\",\"Testing\",\"Stims/Figures/74-J-10-4.bmp\",\"ma:lala\",\"Left\",\"37\",\"4\",\"17\",\"5\",\"S\",\"C\",\"89\"
\"\",\"\",\"approach-retreat\",\"238\",\"1918250\",\"0.0-238.0\",\"\",\"\",\"1-4\",\"4684\",\"37\",\"0\",\"Testing\",\"Stims/Figures/85-C-20-2.bmp\",\"ta:kata\",\"Left\",\"39\",\"4\",\"18\",\"5\",\"P\",\"C\",\"90\"
\"\",\"\",\"approach-retreat\",\"239\",\"1924153\",\"0.0-239.0\",\"\",\"\",\"1-4\",\"4375\",\"38\",\"1\",\"Testing\",\"Stims/Figures/27-C-30-1.bmp\",\"pa:ka:ta\",\"Down\",\"38\",\"4\",\"19\",\"5\",\"P\",\"C\",\"91\"
\"\",\"\",\"approach-retreat\",\"240\",\"1930090\",\"0.0-240.0\",\"\",\"\",\"1-4\",\"4411\",\"38\",\"1\",\"Testing\",\"Stims/Figures/100-C-30-3.bmp\",\"pa:ka:ka\",\"Down\",\"38\",\"4\",\"20\",\"5\",\"P\",\"C\",\"92\"
\"\",\"\",\"approach-retreat\",\"241\",\"1937296\",\"0.0-241.0\",\"\",\"\",\"1-4\",\"5684\",\"40\",\"0\",\"Testing\",\"Stims/Figures/7-J-10-4.bmp\",\"nalana\",\"Up\",\"38\",\"4\",\"21\",\"5\",\"S\",\"C\",\"93\"
\"\",\"\",\"approach-retreat\",\"242\",\"1943106\",\"0.0-242.0\",\"\",\"\",\"1-4\",\"4274\",\"39\",\"1\",\"Testing\",\"Stims/Figures/74-C-20-4.bmp\",\"tapata\",\"Left\",\"39\",\"4\",\"22\",\"5\",\"P\",\"C\",\"94\"
\"\",\"\",\"approach-retreat\",\"243\",\"1948955\",\"0.0-243.0\",\"\",\"\",\"1-4\",\"4328\",\"38\",\"1\",\"Testing\",\"Stims/Figures/118-J-0-2.bmp\",\"ma:la:la\",\"Up\",\"38\",\"4\",\"23\",\"5\",\"S\",\"C\",\"95\"
\"\",\"\",\"approach-retreat\",\"244\",\"1955884\",\"0.0-244.0\",\"\",\"\",\"1-4\",\"5398\",\"38\",\"0\",\"Testing\",\"Stims/Figures/144-J-10-3.bmp\",\"na:lana\",\"Down\",\"40\",\"4\",\"24\",\"5\",\"S\",\"C\",\"96\"
\"63052\",\"\",\"survey-text\",\"245\",\"2018960\",\"0.0-245.0\",\"\",\"{\"\"Q0\"\":\"\"PS160047\"\"}\",\"\",\"\",\"\",\"\",\"\",\"\",\"\",\"\",\"\",\"\",\"\",\"\",\"\",\"\",\"\"
