\"rt\",\"key_press\",\"trial_type\",\"trial_index\",\"time_elapsed\",\"internal_node_id\",\"view_history\",\"responses\",\"Id\",\"Rt\",\"ResKeyCode\",\"ResCorr\",\"TrialType2\",\"Image\",\"Label\",\"Location\",\"CorrectResponse\",\"Block\",\"BlockTrial\",\"Condition\",\"LabelType\",\"Subcondition\",\"trialNum\"
\"96863\",\"32\",\"text\",\"0\",\"96864\",\"0.0-0.0-0.0\",\"\",\"\",\"\",\"\",\"\",\"\",\"\",\"\",\"\",\"\",\"\",\"\",\"\",\"\",\"\",\"\",\"\"
\"91631\",\"\",\"instructions\",\"1\",\"188496\",\"0.0-1.0\",\"[{\"\"page_index\"\":0,\"\"viewing_time\"\":91630}]\",\"\",\"\",\"\",\"\",\"\",\"\",\"\",\"\",\"\",\"\",\"\",\"\",\"\",\"\",\"\",\"\"
\"49079\",\"\",\"survey-multi-choice\",\"2\",\"237585\",\"0.0-2.0\",\"\",\"{\"\"Q0\"\":\"\"Da\"\",\"\"Q1\"\":\"\"Da\"\",\"\"Q2\"\":\"\"Da\"\",\"\"Q3\"\":\"\"Da\"\",\"\"Q4\"\":\"\"Da\"\",\"\"Q5\"\":\"\"Da\"\"}\",\"\",\"\",\"\",\"\",\"\",\"\",\"\",\"\",\"\",\"\",\"\",\"\",\"\",\"\",\"\"
\"\",\"\",\"bio\",\"3\",\"249223\",\"0.0-3.0\",\"\",\"{\"\"age\"\":\"\"20\"\",\"\"gender\"\":\"\"f\"\",\"\"specify\"\":\"\"\"\"}\",\"\",\"\",\"\",\"\",\"\",\"\",\"\",\"\",\"\",\"\",\"\",\"\",\"\",\"\",\"\"
\"\",\"\",\"approach-retreat\",\"4\",\"281124\",\"0.0-4.0\",\"\",\"\",\"1-5\",\"30398\",\"40\",\"0\",\"Training\",\"Stims/Figures/118-C-20-2.bmp\",\"ta:ka:ka\",\"Down\",\"38\",\"1\",\"1\",\"2\",\"P\",\"C\",\"1\"
\"\",\"\",\"approach-retreat\",\"5\",\"291140\",\"0.0-5.0\",\"\",\"\",\"1-5\",\"8512\",\"38\",\"1\",\"Training\",\"Stims/Figures/74-C-20-4.bmp\",\"ta:ka:ka\",\"Down\",\"38\",\"1\",\"2\",\"2\",\"P\",\"C\",\"2\"
\"\",\"\",\"approach-retreat\",\"6\",\"300459\",\"0.0-6.0\",\"\",\"\",\"1-5\",\"7818\",\"40\",\"0\",\"Training\",\"Stims/Figures/93-J-0-1.bmp\",\"ma:la:na\",\"Up\",\"38\",\"1\",\"3\",\"2\",\"S\",\"C\",\"3\"
\"\",\"\",\"approach-retreat\",\"7\",\"310460\",\"0.0-7.0\",\"\",\"\",\"1-5\",\"8496\",\"39\",\"1\",\"Training\",\"Stims/Figures/85-J-0-2.bmp\",\"ma:la:na\",\"Right\",\"39\",\"1\",\"4\",\"2\",\"S\",\"C\",\"4\"
\"\",\"\",\"approach-retreat\",\"8\",\"319443\",\"0.0-8.0\",\"\",\"\",\"1-5\",\"7481\",\"40\",\"0\",\"Training\",\"Stims/Figures/111-C-30-3.bmp\",\"ta:ka:ka\",\"Down\",\"38\",\"1\",\"5\",\"2\",\"P\",\"C\",\"5\"
\"\",\"\",\"approach-retreat\",\"9\",\"326699\",\"0.0-9.0\",\"\",\"\",\"1-5\",\"5752\",\"38\",\"1\",\"Training\",\"Stims/Figures/19-J-10-4.bmp\",\"ma:la:na\",\"Up\",\"38\",\"1\",\"6\",\"2\",\"S\",\"C\",\"6\"
\"\",\"\",\"approach-retreat\",\"10\",\"336323\",\"0.0-10.0\",\"\",\"\",\"1-5\",\"8122\",\"38\",\"0\",\"Training\",\"Stims/Figures/19-C-20-4.bmp\",\"ta:ka:ka\",\"Up\",\"40\",\"1\",\"7\",\"2\",\"P\",\"C\",\"7\"
\"\",\"\",\"approach-retreat\",\"11\",\"348710\",\"0.0-11.0\",\"\",\"\",\"1-5\",\"10883\",\"39\",\"0\",\"Training\",\"Stims/Figures/74-J-10-4.bmp\",\"ma:la:na\",\"Left\",\"37\",\"1\",\"8\",\"2\",\"S\",\"C\",\"8\"
\"\",\"\",\"approach-retreat\",\"12\",\"379524\",\"0.0-12.0\",\"\",\"\",\"1-5\",\"29313\",\"39\",\"1\",\"Training\",\"Stims/Figures/100-C-30-3.bmp\",\"ta:ka:ka\",\"Left\",\"39\",\"1\",\"9\",\"2\",\"P\",\"C\",\"9\"
\"\",\"\",\"approach-retreat\",\"13\",\"391492\",\"0.0-13.0\",\"\",\"\",\"1-5\",\"10465\",\"39\",\"1\",\"Training\",\"Stims/Figures/118-J-0-2.bmp\",\"ma:la:na\",\"Right\",\"39\",\"1\",\"10\",\"2\",\"S\",\"C\",\"10\"
\"\",\"\",\"approach-retreat\",\"14\",\"399868\",\"0.0-14.0\",\"\",\"\",\"1-5\",\"6874\",\"37\",\"1\",\"Training\",\"Stims/Figures/111-J-10-3.bmp\",\"ma:la:na\",\"Left\",\"37\",\"1\",\"11\",\"2\",\"S\",\"C\",\"11\"
\"\",\"\",\"approach-retreat\",\"15\",\"407621\",\"0.0-15.0\",\"\",\"\",\"1-5\",\"6248\",\"39\",\"1\",\"Training\",\"Stims/Figures/93-C-30-1.bmp\",\"ta:ka:ka\",\"Left\",\"39\",\"1\",\"12\",\"2\",\"P\",\"C\",\"12\"
\"\",\"\",\"approach-retreat\",\"16\",\"425820\",\"0.0-16.0\",\"\",\"\",\"1-5\",\"16696\",\"38\",\"1\",\"Training\",\"Stims/Figures/100-J-10-3.bmp\",\"ma:la:na\",\"Up\",\"38\",\"1\",\"13\",\"2\",\"S\",\"C\",\"13\"
\"\",\"\",\"approach-retreat\",\"17\",\"434900\",\"0.0-17.0\",\"\",\"\",\"1-5\",\"7577\",\"38\",\"1\",\"Training\",\"Stims/Figures/85-C-20-2.bmp\",\"ta:ka:ka\",\"Down\",\"38\",\"1\",\"14\",\"2\",\"P\",\"C\",\"14\"
\"\",\"\",\"approach-retreat\",\"18\",\"443444\",\"0.0-18.0\",\"\",\"\",\"1-5\",\"7041\",\"39\",\"1\",\"Training\",\"Stims/Figures/57-J-0-1.bmp\",\"ma:la:na\",\"Right\",\"39\",\"1\",\"15\",\"2\",\"S\",\"C\",\"15\"
\"\",\"\",\"approach-retreat\",\"19\",\"451572\",\"0.0-19.0\",\"\",\"\",\"1-5\",\"6624\",\"39\",\"0\",\"Training\",\"Stims/Figures/57-C-30-1.bmp\",\"ta:ka:ka\",\"Right\",\"37\",\"1\",\"16\",\"2\",\"P\",\"C\",\"16\"
\"\",\"\",\"approach-retreat\",\"20\",\"461275\",\"0.0-20.0\",\"\",\"\",\"1-5\",\"8201\",\"40\",\"1\",\"Training\",\"Stims/Figures/74-J-10-4.bmp\",\"ma:la:na\",\"Down\",\"40\",\"2\",\"1\",\"2\",\"S\",\"C\",\"17\"
\"\",\"\",\"approach-retreat\",\"21\",\"470637\",\"0.0-21.0\",\"\",\"\",\"1-5\",\"7858\",\"39\",\"1\",\"Training\",\"Stims/Figures/93-J-0-1.bmp\",\"ma:la:na\",\"Right\",\"39\",\"2\",\"2\",\"2\",\"S\",\"C\",\"18\"
\"\",\"\",\"approach-retreat\",\"22\",\"477933\",\"0.0-22.0\",\"\",\"\",\"1-5\",\"5792\",\"37\",\"1\",\"Training\",\"Stims/Figures/111-J-10-3.bmp\",\"ma:la:na\",\"Left\",\"37\",\"2\",\"3\",\"2\",\"S\",\"C\",\"19\"
\"\",\"\",\"approach-retreat\",\"23\",\"485469\",\"0.0-23.0\",\"\",\"\",\"1-5\",\"6034\",\"37\",\"1\",\"Training\",\"Stims/Figures/100-J-10-3.bmp\",\"ma:la:na\",\"Left\",\"37\",\"2\",\"4\",\"2\",\"S\",\"C\",\"20\"
\"\",\"\",\"approach-retreat\",\"24\",\"492693\",\"0.0-24.0\",\"\",\"\",\"1-5\",\"5722\",\"40\",\"1\",\"Training\",\"Stims/Figures/85-J-0-2.bmp\",\"ma:la:na\",\"Down\",\"40\",\"2\",\"5\",\"2\",\"S\",\"C\",\"21\"
\"\",\"\",\"approach-retreat\",\"25\",\"501156\",\"0.0-25.0\",\"\",\"\",\"1-5\",\"6961\",\"40\",\"1\",\"Training\",\"Stims/Figures/85-C-20-2.bmp\",\"ta:ka:ka\",\"Up\",\"40\",\"2\",\"6\",\"2\",\"P\",\"C\",\"22\"
\"\",\"\",\"approach-retreat\",\"26\",\"511804\",\"0.0-26.0\",\"\",\"\",\"1-5\",\"9146\",\"37\",\"1\",\"Training\",\"Stims/Figures/118-J-0-2.bmp\",\"ma:la:na\",\"Left\",\"37\",\"2\",\"7\",\"2\",\"S\",\"C\",\"23\"
\"\",\"\",\"approach-retreat\",\"27\",\"521853\",\"0.0-27.0\",\"\",\"\",\"1-5\",\"8545\",\"38\",\"1\",\"Training\",\"Stims/Figures/57-J-0-1.bmp\",\"ma:la:na\",\"Up\",\"38\",\"2\",\"8\",\"2\",\"S\",\"C\",\"24\"
\"\",\"\",\"approach-retreat\",\"28\",\"529125\",\"0.0-28.0\",\"\",\"\",\"1-5\",\"5769\",\"40\",\"0\",\"Training\",\"Stims/Figures/118-C-20-2.bmp\",\"ta:ka:ka\",\"Down\",\"38\",\"2\",\"9\",\"2\",\"P\",\"C\",\"25\"
\"\",\"\",\"approach-retreat\",\"29\",\"540629\",\"0.0-29.0\",\"\",\"\",\"1-5\",\"10001\",\"39\",\"0\",\"Training\",\"Stims/Figures/19-C-20-4.bmp\",\"ta:ka:ka\",\"Right\",\"37\",\"2\",\"10\",\"2\",\"P\",\"C\",\"26\"
\"\",\"\",\"approach-retreat\",\"30\",\"552196\",\"0.0-30.0\",\"\",\"\",\"1-5\",\"10066\",\"37\",\"1\",\"Training\",\"Stims/Figures/93-C-30-1.bmp\",\"ta:ka:ka\",\"Right\",\"37\",\"2\",\"11\",\"2\",\"P\",\"C\",\"27\"
\"\",\"\",\"approach-retreat\",\"31\",\"559725\",\"0.0-31.0\",\"\",\"\",\"1-5\",\"6025\",\"38\",\"1\",\"Training\",\"Stims/Figures/111-C-30-3.bmp\",\"ta:ka:ka\",\"Down\",\"38\",\"2\",\"12\",\"2\",\"P\",\"C\",\"28\"
\"\",\"\",\"approach-retreat\",\"32\",\"567332\",\"0.0-32.0\",\"\",\"\",\"1-5\",\"6105\",\"39\",\"1\",\"Training\",\"Stims/Figures/57-C-30-1.bmp\",\"ta:ka:ka\",\"Left\",\"39\",\"2\",\"13\",\"2\",\"P\",\"C\",\"29\"
\"\",\"\",\"approach-retreat\",\"33\",\"575413\",\"0.0-33.0\",\"\",\"\",\"1-5\",\"6578\",\"39\",\"1\",\"Training\",\"Stims/Figures/19-J-10-4.bmp\",\"ma:la:na\",\"Right\",\"39\",\"2\",\"14\",\"2\",\"S\",\"C\",\"30\"
\"\",\"\",\"approach-retreat\",\"34\",\"581837\",\"0.0-34.0\",\"\",\"\",\"1-5\",\"4920\",\"40\",\"1\",\"Training\",\"Stims/Figures/74-C-20-4.bmp\",\"ta:ka:ka\",\"Up\",\"40\",\"2\",\"15\",\"2\",\"P\",\"C\",\"31\"
\"\",\"\",\"approach-retreat\",\"35\",\"588388\",\"0.0-35.0\",\"\",\"\",\"1-5\",\"5048\",\"40\",\"1\",\"Training\",\"Stims/Figures/100-C-30-3.bmp\",\"ta:ka:ka\",\"Up\",\"40\",\"2\",\"16\",\"2\",\"P\",\"C\",\"32\"
\"\",\"\",\"approach-retreat\",\"36\",\"595197\",\"0.0-36.0\",\"\",\"\",\"1-5\",\"5307\",\"38\",\"1\",\"Training\",\"Stims/Figures/85-J-0-2.bmp\",\"ma:la:na\",\"Up\",\"38\",\"3\",\"1\",\"2\",\"S\",\"C\",\"33\"
\"\",\"\",\"approach-retreat\",\"37\",\"605181\",\"0.0-37.0\",\"\",\"\",\"1-5\",\"8480\",\"37\",\"1\",\"Training\",\"Stims/Figures/111-C-30-3.bmp\",\"ta:ka:ka\",\"Right\",\"37\",\"3\",\"2\",\"2\",\"P\",\"C\",\"34\"
\"\",\"\",\"approach-retreat\",\"38\",\"611989\",\"0.0-38.0\",\"\",\"\",\"1-5\",\"5305\",\"38\",\"1\",\"Training\",\"Stims/Figures/74-C-20-4.bmp\",\"ta:ka:ka\",\"Down\",\"38\",\"3\",\"3\",\"2\",\"P\",\"C\",\"35\"
\"\",\"\",\"approach-retreat\",\"39\",\"620052\",\"0.0-39.0\",\"\",\"\",\"1-5\",\"6561\",\"38\",\"1\",\"Training\",\"Stims/Figures/74-J-10-4.bmp\",\"ma:la:na\",\"Up\",\"38\",\"3\",\"4\",\"2\",\"S\",\"C\",\"36\"
\"\",\"\",\"approach-retreat\",\"40\",\"625764\",\"0.0-40.0\",\"\",\"\",\"1-5\",\"4209\",\"38\",\"1\",\"Training\",\"Stims/Figures/118-J-0-2.bmp\",\"ma:la:na\",\"Up\",\"38\",\"3\",\"5\",\"2\",\"S\",\"C\",\"37\"
\"\",\"\",\"approach-retreat\",\"41\",\"632364\",\"0.0-41.0\",\"\",\"\",\"1-5\",\"5098\",\"37\",\"1\",\"Training\",\"Stims/Figures/19-J-10-4.bmp\",\"ma:la:na\",\"Left\",\"37\",\"3\",\"6\",\"2\",\"S\",\"C\",\"38\"
\"\",\"\",\"approach-retreat\",\"42\",\"638380\",\"0.0-42.0\",\"\",\"\",\"1-5\",\"4512\",\"37\",\"1\",\"Training\",\"Stims/Figures/93-C-30-1.bmp\",\"ta:ka:ka\",\"Right\",\"37\",\"3\",\"7\",\"2\",\"P\",\"C\",\"39\"
\"\",\"\",\"approach-retreat\",\"43\",\"645236\",\"0.0-43.0\",\"\",\"\",\"1-5\",\"5353\",\"39\",\"1\",\"Training\",\"Stims/Figures/100-J-10-3.bmp\",\"ma:la:na\",\"Right\",\"39\",\"3\",\"8\",\"2\",\"S\",\"C\",\"40\"
\"\",\"\",\"approach-retreat\",\"44\",\"654516\",\"0.0-44.0\",\"\",\"\",\"1-5\",\"7778\",\"39\",\"1\",\"Training\",\"Stims/Figures/118-C-20-2.bmp\",\"ta:ka:ka\",\"Left\",\"39\",\"3\",\"9\",\"2\",\"P\",\"C\",\"41\"
\"\",\"\",\"approach-retreat\",\"45\",\"660476\",\"0.0-45.0\",\"\",\"\",\"1-5\",\"4457\",\"40\",\"1\",\"Training\",\"Stims/Figures/93-J-0-1.bmp\",\"ma:la:na\",\"Down\",\"40\",\"3\",\"10\",\"2\",\"S\",\"C\",\"42\"
\"\",\"\",\"approach-retreat\",\"46\",\"670380\",\"0.0-46.0\",\"\",\"\",\"1-5\",\"8401\",\"37\",\"1\",\"Training\",\"Stims/Figures/19-C-20-4.bmp\",\"ta:ka:ka\",\"Right\",\"37\",\"3\",\"11\",\"2\",\"P\",\"C\",\"43\"
\"\",\"\",\"approach-retreat\",\"47\",\"678267\",\"0.0-47.0\",\"\",\"\",\"1-5\",\"6384\",\"38\",\"1\",\"Training\",\"Stims/Figures/100-C-30-3.bmp\",\"ta:ka:ka\",\"Down\",\"38\",\"3\",\"12\",\"2\",\"P\",\"C\",\"44\"
\"\",\"\",\"approach-retreat\",\"48\",\"684228\",\"0.0-48.0\",\"\",\"\",\"1-5\",\"4457\",\"39\",\"1\",\"Training\",\"Stims/Figures/85-C-20-2.bmp\",\"ta:ka:ka\",\"Left\",\"39\",\"3\",\"13\",\"2\",\"P\",\"C\",\"45\"
\"\",\"\",\"approach-retreat\",\"49\",\"691803\",\"0.0-49.0\",\"\",\"\",\"1-5\",\"6073\",\"37\",\"1\",\"Training\",\"Stims/Figures/57-J-0-1.bmp\",\"ma:la:na\",\"Left\",\"37\",\"3\",\"14\",\"2\",\"S\",\"C\",\"46\"
\"\",\"\",\"approach-retreat\",\"50\",\"698564\",\"0.0-50.0\",\"\",\"\",\"1-5\",\"5257\",\"40\",\"1\",\"Training\",\"Stims/Figures/111-J-10-3.bmp\",\"ma:la:na\",\"Down\",\"40\",\"3\",\"15\",\"2\",\"S\",\"C\",\"47\"
\"\",\"\",\"approach-retreat\",\"51\",\"704555\",\"0.0-51.0\",\"\",\"\",\"1-5\",\"4488\",\"40\",\"1\",\"Training\",\"Stims/Figures/57-C-30-1.bmp\",\"ta:ka:ka\",\"Up\",\"40\",\"3\",\"16\",\"2\",\"P\",\"C\",\"48\"
\"\",\"\",\"approach-retreat\",\"52\",\"711779\",\"0.0-52.0\",\"\",\"\",\"1-5\",\"5722\",\"39\",\"1\",\"Training\",\"Stims/Figures/57-J-0-1.bmp\",\"ma:la:na\",\"Right\",\"39\",\"4\",\"1\",\"2\",\"S\",\"C\",\"49\"
\"\",\"\",\"approach-retreat\",\"53\",\"720549\",\"0.0-53.0\",\"\",\"\",\"1-5\",\"7266\",\"38\",\"1\",\"Training\",\"Stims/Figures/74-C-20-4.bmp\",\"ta:ka:ka\",\"Down\",\"38\",\"4\",\"2\",\"2\",\"P\",\"C\",\"50\"
\"\",\"\",\"approach-retreat\",\"54\",\"728412\",\"0.0-54.0\",\"\",\"\",\"1-5\",\"6359\",\"39\",\"1\",\"Training\",\"Stims/Figures/111-J-10-3.bmp\",\"ma:la:na\",\"Right\",\"39\",\"4\",\"3\",\"2\",\"S\",\"C\",\"51\"
\"\",\"\",\"approach-retreat\",\"55\",\"734461\",\"0.0-55.0\",\"\",\"\",\"1-5\",\"4546\",\"37\",\"1\",\"Training\",\"Stims/Figures/85-C-20-2.bmp\",\"ta:ka:ka\",\"Right\",\"37\",\"4\",\"4\",\"2\",\"P\",\"C\",\"52\"
\"\",\"\",\"approach-retreat\",\"56\",\"742069\",\"0.0-56.0\",\"\",\"\",\"1-5\",\"6105\",\"38\",\"1\",\"Training\",\"Stims/Figures/19-J-10-4.bmp\",\"ma:la:na\",\"Up\",\"38\",\"4\",\"5\",\"2\",\"S\",\"C\",\"53\"
\"\",\"\",\"approach-retreat\",\"57\",\"747708\",\"0.0-57.0\",\"\",\"\",\"1-5\",\"4137\",\"38\",\"1\",\"Training\",\"Stims/Figures/93-J-0-1.bmp\",\"ma:la:na\",\"Up\",\"38\",\"4\",\"6\",\"2\",\"S\",\"C\",\"54\"
\"\",\"\",\"approach-retreat\",\"58\",\"753901\",\"0.0-58.0\",\"\",\"\",\"1-5\",\"4690\",\"38\",\"1\",\"Training\",\"Stims/Figures/19-C-20-4.bmp\",\"ta:ka:ka\",\"Down\",\"38\",\"4\",\"7\",\"2\",\"P\",\"C\",\"55\"
\"\",\"\",\"approach-retreat\",\"59\",\"761571\",\"0.0-59.0\",\"\",\"\",\"1-5\",\"6168\",\"37\",\"1\",\"Training\",\"Stims/Figures/100-J-10-3.bmp\",\"ma:la:na\",\"Left\",\"37\",\"4\",\"8\",\"2\",\"S\",\"C\",\"56\"
\"\",\"\",\"approach-retreat\",\"60\",\"767588\",\"0.0-60.0\",\"\",\"\",\"1-5\",\"4514\",\"37\",\"1\",\"Training\",\"Stims/Figures/118-J-0-2.bmp\",\"ma:la:na\",\"Left\",\"37\",\"4\",\"9\",\"2\",\"S\",\"C\",\"57\"
\"\",\"\",\"approach-retreat\",\"61\",\"773789\",\"0.0-61.0\",\"\",\"\",\"1-5\",\"4697\",\"38\",\"1\",\"Training\",\"Stims/Figures/57-C-30-1.bmp\",\"ta:ka:ka\",\"Down\",\"38\",\"4\",\"10\",\"2\",\"P\",\"C\",\"58\"
\"\",\"\",\"approach-retreat\",\"62\",\"779740\",\"0.0-62.0\",\"\",\"\",\"1-5\",\"4449\",\"38\",\"1\",\"Training\",\"Stims/Figures/118-C-20-2.bmp\",\"ta:ka:ka\",\"Down\",\"38\",\"4\",\"11\",\"2\",\"P\",\"C\",\"59\"
\"\",\"\",\"approach-retreat\",\"63\",\"786029\",\"0.0-63.0\",\"\",\"\",\"1-5\",\"4785\",\"38\",\"1\",\"Training\",\"Stims/Figures/85-J-0-2.bmp\",\"ma:la:na\",\"Up\",\"38\",\"4\",\"12\",\"2\",\"S\",\"C\",\"60\"
\"\",\"\",\"approach-retreat\",\"64\",\"791917\",\"0.0-64.0\",\"\",\"\",\"1-5\",\"4385\",\"37\",\"1\",\"Training\",\"Stims/Figures/93-C-30-1.bmp\",\"ta:ka:ka\",\"Right\",\"37\",\"4\",\"13\",\"2\",\"P\",\"C\",\"61\"
\"\",\"\",\"approach-retreat\",\"65\",\"799492\",\"0.0-65.0\",\"\",\"\",\"1-5\",\"6072\",\"39\",\"1\",\"Training\",\"Stims/Figures/100-C-30-3.bmp\",\"ta:ka:ka\",\"Left\",\"39\",\"4\",\"14\",\"2\",\"P\",\"C\",\"62\"
\"\",\"\",\"approach-retreat\",\"66\",\"806821\",\"0.0-66.0\",\"\",\"\",\"1-5\",\"5826\",\"37\",\"1\",\"Training\",\"Stims/Figures/74-J-10-4.bmp\",\"ma:la:na\",\"Left\",\"37\",\"4\",\"15\",\"2\",\"S\",\"C\",\"63\"
\"\",\"\",\"approach-retreat\",\"67\",\"814660\",\"0.0-67.0\",\"\",\"\",\"1-5\",\"6337\",\"40\",\"1\",\"Training\",\"Stims/Figures/111-C-30-3.bmp\",\"ta:ka:ka\",\"Up\",\"40\",\"4\",\"16\",\"2\",\"P\",\"C\",\"64\"
\"\",\"\",\"approach-retreat\",\"68\",\"820580\",\"0.0-68.0\",\"\",\"\",\"1-5\",\"4418\",\"40\",\"1\",\"Training\",\"Stims/Figures/85-C-20-2.bmp\",\"ta:ka:ka\",\"Up\",\"40\",\"5\",\"1\",\"2\",\"P\",\"C\",\"65\"
\"\",\"\",\"approach-retreat\",\"69\",\"827212\",\"0.0-69.0\",\"\",\"\",\"1-5\",\"5129\",\"37\",\"1\",\"Training\",\"Stims/Figures/74-J-10-4.bmp\",\"ma:la:na\",\"Left\",\"37\",\"5\",\"2\",\"2\",\"S\",\"C\",\"66\"
\"\",\"\",\"approach-retreat\",\"70\",\"836677\",\"0.0-70.0\",\"\",\"\",\"1-5\",\"7962\",\"40\",\"1\",\"Training\",\"Stims/Figures/19-J-10-4.bmp\",\"ma:la:na\",\"Down\",\"40\",\"5\",\"3\",\"2\",\"S\",\"C\",\"67\"
\"\",\"\",\"approach-retreat\",\"71\",\"843532\",\"0.0-71.0\",\"\",\"\",\"1-5\",\"5352\",\"39\",\"1\",\"Training\",\"Stims/Figures/118-J-0-2.bmp\",\"ma:la:na\",\"Right\",\"39\",\"5\",\"4\",\"2\",\"S\",\"C\",\"68\"
\"\",\"\",\"approach-retreat\",\"72\",\"851212\",\"0.0-72.0\",\"\",\"\",\"1-5\",\"6176\",\"37\",\"1\",\"Training\",\"Stims/Figures/118-C-20-2.bmp\",\"ta:ka:ka\",\"Right\",\"37\",\"5\",\"5\",\"2\",\"P\",\"C\",\"69\"
\"\",\"\",\"approach-retreat\",\"73\",\"858244\",\"0.0-73.0\",\"\",\"\",\"1-5\",\"5529\",\"40\",\"1\",\"Training\",\"Stims/Figures/57-J-0-1.bmp\",\"ma:la:na\",\"Down\",\"40\",\"5\",\"6\",\"2\",\"S\",\"C\",\"70\"
\"\",\"\",\"approach-retreat\",\"74\",\"865245\",\"0.0-74.0\",\"\",\"\",\"1-5\",\"5497\",\"40\",\"1\",\"Training\",\"Stims/Figures/100-C-30-3.bmp\",\"ta:ka:ka\",\"Up\",\"40\",\"5\",\"7\",\"2\",\"P\",\"C\",\"71\"
\"\",\"\",\"approach-retreat\",\"75\",\"871444\",\"0.0-75.0\",\"\",\"\",\"1-5\",\"4696\",\"37\",\"1\",\"Training\",\"Stims/Figures/100-J-10-3.bmp\",\"ma:la:na\",\"Left\",\"37\",\"5\",\"8\",\"2\",\"S\",\"C\",\"72\"
\"\",\"\",\"approach-retreat\",\"76\",\"878524\",\"0.0-76.0\",\"\",\"\",\"1-5\",\"5578\",\"40\",\"1\",\"Training\",\"Stims/Figures/19-C-20-4.bmp\",\"ta:ka:ka\",\"Up\",\"40\",\"5\",\"9\",\"2\",\"P\",\"C\",\"73\"
\"\",\"\",\"approach-retreat\",\"77\",\"885747\",\"0.0-77.0\",\"\",\"\",\"1-5\",\"5721\",\"37\",\"1\",\"Training\",\"Stims/Figures/93-J-0-1.bmp\",\"ma:la:na\",\"Left\",\"37\",\"5\",\"10\",\"2\",\"S\",\"C\",\"74\"
\"\",\"\",\"approach-retreat\",\"78\",\"893140\",\"0.0-78.0\",\"\",\"\",\"1-5\",\"5890\",\"37\",\"1\",\"Training\",\"Stims/Figures/85-J-0-2.bmp\",\"ma:la:na\",\"Left\",\"37\",\"5\",\"11\",\"2\",\"S\",\"C\",\"75\"
\"\",\"\",\"approach-retreat\",\"79\",\"901260\",\"0.0-79.0\",\"\",\"\",\"1-5\",\"6618\",\"37\",\"1\",\"Training\",\"Stims/Figures/57-C-30-1.bmp\",\"ta:ka:ka\",\"Right\",\"37\",\"5\",\"12\",\"2\",\"P\",\"C\",\"76\"
\"\",\"\",\"approach-retreat\",\"80\",\"909412\",\"0.0-80.0\",\"\",\"\",\"1-5\",\"6649\",\"38\",\"1\",\"Training\",\"Stims/Figures/74-C-20-4.bmp\",\"ta:ka:ka\",\"Down\",\"38\",\"5\",\"13\",\"2\",\"P\",\"C\",\"77\"
\"\",\"\",\"approach-retreat\",\"81\",\"919901\",\"0.0-81.0\",\"\",\"\",\"1-5\",\"8985\",\"40\",\"1\",\"Training\",\"Stims/Figures/111-J-10-3.bmp\",\"ma:la:na\",\"Down\",\"40\",\"5\",\"14\",\"2\",\"S\",\"C\",\"78\"
\"\",\"\",\"approach-retreat\",\"82\",\"930397\",\"0.0-82.0\",\"\",\"\",\"1-5\",\"8992\",\"40\",\"1\",\"Training\",\"Stims/Figures/111-C-30-3.bmp\",\"ta:ka:ka\",\"Up\",\"40\",\"5\",\"15\",\"2\",\"P\",\"C\",\"79\"
\"\",\"\",\"approach-retreat\",\"83\",\"937899\",\"0.0-83.0\",\"\",\"\",\"1-5\",\"6001\",\"37\",\"1\",\"Training\",\"Stims/Figures/93-C-30-1.bmp\",\"ta:ka:ka\",\"Right\",\"37\",\"5\",\"16\",\"2\",\"P\",\"C\",\"80\"
\"\",\"\",\"approach-retreat\",\"84\",\"944116\",\"0.0-84.0\",\"\",\"\",\"1-5\",\"4713\",\"38\",\"1\",\"Training\",\"Stims/Figures/118-J-0-2.bmp\",\"ma:la:na\",\"Up\",\"38\",\"6\",\"1\",\"2\",\"S\",\"C\",\"81\"
\"\",\"\",\"approach-retreat\",\"85\",\"950757\",\"0.0-85.0\",\"\",\"\",\"1-5\",\"5137\",\"40\",\"1\",\"Training\",\"Stims/Figures/111-J-10-3.bmp\",\"ma:la:na\",\"Down\",\"40\",\"6\",\"2\",\"2\",\"S\",\"C\",\"82\"
\"\",\"\",\"approach-retreat\",\"86\",\"958107\",\"0.0-86.0\",\"\",\"\",\"1-5\",\"5849\",\"38\",\"1\",\"Training\",\"Stims/Figures/19-C-20-4.bmp\",\"ta:ka:ka\",\"Down\",\"38\",\"6\",\"3\",\"2\",\"P\",\"C\",\"83\"
\"\",\"\",\"approach-retreat\",\"87\",\"964333\",\"0.0-87.0\",\"\",\"\",\"1-5\",\"4722\",\"39\",\"1\",\"Training\",\"Stims/Figures/74-C-20-4.bmp\",\"ta:ka:ka\",\"Left\",\"39\",\"6\",\"4\",\"2\",\"P\",\"C\",\"84\"
\"\",\"\",\"approach-retreat\",\"88\",\"976757\",\"0.0-88.0\",\"\",\"\",\"1-5\",\"10920\",\"38\",\"1\",\"Training\",\"Stims/Figures/85-J-0-2.bmp\",\"ma:la:na\",\"Up\",\"38\",\"6\",\"5\",\"2\",\"S\",\"C\",\"85\"
\"\",\"\",\"approach-retreat\",\"89\",\"983108\",\"0.0-89.0\",\"\",\"\",\"1-5\",\"4849\",\"37\",\"1\",\"Training\",\"Stims/Figures/93-C-30-1.bmp\",\"ta:ka:ka\",\"Right\",\"37\",\"6\",\"6\",\"2\",\"P\",\"C\",\"86\"
\"\",\"\",\"approach-retreat\",\"90\",\"992620\",\"0.0-90.0\",\"\",\"\",\"1-5\",\"8009\",\"38\",\"1\",\"Training\",\"Stims/Figures/57-J-0-1.bmp\",\"ma:la:na\",\"Up\",\"38\",\"6\",\"7\",\"2\",\"S\",\"C\",\"87\"
\"\",\"\",\"approach-retreat\",\"91\",\"999284\",\"0.0-91.0\",\"\",\"\",\"1-5\",\"5162\",\"39\",\"1\",\"Training\",\"Stims/Figures/111-C-30-3.bmp\",\"ta:ka:ka\",\"Left\",\"39\",\"6\",\"8\",\"2\",\"P\",\"C\",\"88\"
\"\",\"\",\"approach-retreat\",\"92\",\"1008189\",\"0.0-92.0\",\"\",\"\",\"1-5\",\"7401\",\"39\",\"1\",\"Training\",\"Stims/Figures/100-J-10-3.bmp\",\"ma:la:na\",\"Right\",\"39\",\"6\",\"9\",\"2\",\"S\",\"C\",\"89\"
\"\",\"\",\"approach-retreat\",\"93\",\"1015860\",\"0.0-93.0\",\"\",\"\",\"1-5\",\"6168\",\"37\",\"1\",\"Training\",\"Stims/Figures/93-J-0-1.bmp\",\"ma:la:na\",\"Left\",\"37\",\"6\",\"10\",\"2\",\"S\",\"C\",\"90\"
\"\",\"\",\"approach-retreat\",\"94\",\"1025285\",\"0.0-94.0\",\"\",\"\",\"1-5\",\"7921\",\"38\",\"1\",\"Training\",\"Stims/Figures/74-J-10-4.bmp\",\"ma:la:na\",\"Up\",\"38\",\"6\",\"11\",\"2\",\"S\",\"C\",\"91\"
\"\",\"\",\"approach-retreat\",\"95\",\"1032444\",\"0.0-95.0\",\"\",\"\",\"1-5\",\"5656\",\"39\",\"1\",\"Training\",\"Stims/Figures/19-J-10-4.bmp\",\"ma:la:na\",\"Right\",\"39\",\"6\",\"12\",\"2\",\"S\",\"C\",\"92\"
\"\",\"\",\"approach-retreat\",\"96\",\"1039637\",\"0.0-96.0\",\"\",\"\",\"1-5\",\"5689\",\"38\",\"1\",\"Training\",\"Stims/Figures/100-C-30-3.bmp\",\"ta:ka:ka\",\"Down\",\"38\",\"6\",\"13\",\"2\",\"P\",\"C\",\"93\"
\"\",\"\",\"approach-retreat\",\"97\",\"1048740\",\"0.0-97.0\",\"\",\"\",\"1-5\",\"7601\",\"37\",\"1\",\"Training\",\"Stims/Figures/118-C-20-2.bmp\",\"ta:ka:ka\",\"Right\",\"37\",\"6\",\"14\",\"2\",\"P\",\"C\",\"94\"
\"\",\"\",\"approach-retreat\",\"98\",\"1056116\",\"0.0-98.0\",\"\",\"\",\"1-5\",\"5873\",\"38\",\"1\",\"Training\",\"Stims/Figures/85-C-20-2.bmp\",\"ta:ka:ka\",\"Down\",\"38\",\"6\",\"15\",\"2\",\"P\",\"C\",\"95\"
\"\",\"\",\"approach-retreat\",\"99\",\"1070596\",\"0.0-99.0\",\"\",\"\",\"1-5\",\"12978\",\"39\",\"1\",\"Training\",\"Stims/Figures/57-C-30-1.bmp\",\"ta:ka:ka\",\"Left\",\"39\",\"6\",\"16\",\"2\",\"P\",\"C\",\"96\"
\"\",\"\",\"approach-retreat\",\"100\",\"1076628\",\"0.0-100.0\",\"\",\"\",\"1-5\",\"4529\",\"37\",\"1\",\"Training\",\"Stims/Figures/118-J-0-2.bmp\",\"ma:la:na\",\"Left\",\"37\",\"7\",\"1\",\"2\",\"S\",\"C\",\"97\"
\"\",\"\",\"approach-retreat\",\"101\",\"1083291\",\"0.0-101.0\",\"\",\"\",\"1-5\",\"5160\",\"40\",\"1\",\"Training\",\"Stims/Figures/111-J-10-3.bmp\",\"ma:la:na\",\"Down\",\"40\",\"7\",\"2\",\"2\",\"S\",\"C\",\"98\"
\"\",\"\",\"approach-retreat\",\"102\",\"1089445\",\"0.0-102.0\",\"\",\"\",\"1-5\",\"4652\",\"39\",\"1\",\"Training\",\"Stims/Figures/85-J-0-2.bmp\",\"ma:la:na\",\"Right\",\"39\",\"7\",\"3\",\"2\",\"S\",\"C\",\"99\"
\"\",\"\",\"approach-retreat\",\"103\",\"1095909\",\"0.0-103.0\",\"\",\"\",\"1-5\",\"4961\",\"37\",\"1\",\"Training\",\"Stims/Figures/57-J-0-1.bmp\",\"ma:la:na\",\"Left\",\"37\",\"7\",\"4\",\"2\",\"S\",\"C\",\"100\"
\"\",\"\",\"approach-retreat\",\"104\",\"1101845\",\"0.0-104.0\",\"\",\"\",\"1-5\",\"4433\",\"38\",\"1\",\"Training\",\"Stims/Figures/74-J-10-4.bmp\",\"ma:la:na\",\"Up\",\"38\",\"7\",\"5\",\"2\",\"S\",\"C\",\"101\"
\"\",\"\",\"approach-retreat\",\"105\",\"1108957\",\"0.0-105.0\",\"\",\"\",\"1-5\",\"5609\",\"39\",\"0\",\"Training\",\"Stims/Figures/19-C-20-4.bmp\",\"ta:ka:ka\",\"Right\",\"37\",\"7\",\"6\",\"2\",\"P\",\"C\",\"102\"
\"\",\"\",\"approach-retreat\",\"106\",\"1117156\",\"0.0-106.0\",\"\",\"\",\"1-5\",\"6697\",\"38\",\"1\",\"Training\",\"Stims/Figures/100-C-30-3.bmp\",\"ta:ka:ka\",\"Down\",\"38\",\"7\",\"7\",\"2\",\"P\",\"C\",\"103\"
\"\",\"\",\"approach-retreat\",\"107\",\"1122924\",\"0.0-107.0\",\"\",\"\",\"1-5\",\"4265\",\"38\",\"1\",\"Training\",\"Stims/Figures/93-J-0-1.bmp\",\"ma:la:na\",\"Up\",\"38\",\"7\",\"8\",\"2\",\"S\",\"C\",\"104\"
\"\",\"\",\"approach-retreat\",\"108\",\"1128708\",\"0.0-108.0\",\"\",\"\",\"1-5\",\"4281\",\"38\",\"1\",\"Training\",\"Stims/Figures/111-C-30-3.bmp\",\"ta:ka:ka\",\"Down\",\"38\",\"7\",\"9\",\"2\",\"P\",\"C\",\"105\"
\"\",\"\",\"approach-retreat\",\"109\",\"1135061\",\"0.0-109.0\",\"\",\"\",\"1-5\",\"4848\",\"39\",\"1\",\"Training\",\"Stims/Figures/100-J-10-3.bmp\",\"ma:la:na\",\"Right\",\"39\",\"7\",\"10\",\"2\",\"S\",\"C\",\"106\"
\"\",\"\",\"approach-retreat\",\"110\",\"1142453\",\"0.0-110.0\",\"\",\"\",\"1-5\",\"5890\",\"39\",\"1\",\"Training\",\"Stims/Figures/19-J-10-4.bmp\",\"ma:la:na\",\"Right\",\"39\",\"7\",\"11\",\"2\",\"S\",\"C\",\"107\"
\"\",\"\",\"approach-retreat\",\"111\",\"1148333\",\"0.0-111.0\",\"\",\"\",\"1-5\",\"4378\",\"39\",\"1\",\"Training\",\"Stims/Figures/57-C-30-1.bmp\",\"ta:ka:ka\",\"Left\",\"39\",\"7\",\"12\",\"2\",\"P\",\"C\",\"108\"
\"\",\"\",\"approach-retreat\",\"112\",\"1153996\",\"0.0-112.0\",\"\",\"\",\"1-5\",\"4160\",\"38\",\"1\",\"Training\",\"Stims/Figures/93-C-30-1.bmp\",\"ta:ka:ka\",\"Down\",\"38\",\"7\",\"13\",\"2\",\"P\",\"C\",\"109\"
\"\",\"\",\"approach-retreat\",\"113\",\"1159765\",\"0.0-113.0\",\"\",\"\",\"1-5\",\"4266\",\"40\",\"1\",\"Training\",\"Stims/Figures/85-C-20-2.bmp\",\"ta:ka:ka\",\"Up\",\"40\",\"7\",\"14\",\"2\",\"P\",\"C\",\"110\"
\"\",\"\",\"approach-retreat\",\"114\",\"1165406\",\"0.0-114.0\",\"\",\"\",\"1-5\",\"4136\",\"40\",\"1\",\"Training\",\"Stims/Figures/74-C-20-4.bmp\",\"ta:ka:ka\",\"Up\",\"40\",\"7\",\"15\",\"2\",\"P\",\"C\",\"111\"
\"\",\"\",\"approach-retreat\",\"115\",\"1171461\",\"0.0-115.0\",\"\",\"\",\"1-5\",\"4553\",\"39\",\"1\",\"Training\",\"Stims/Figures/118-C-20-2.bmp\",\"ta:ka:ka\",\"Left\",\"39\",\"7\",\"16\",\"2\",\"P\",\"C\",\"112\"
\"\",\"\",\"approach-retreat\",\"116\",\"1178892\",\"0.0-116.0\",\"\",\"\",\"1-5\",\"5929\",\"40\",\"1\",\"Training\",\"Stims/Figures/118-J-0-2.bmp\",\"ma:la:na\",\"Down\",\"40\",\"8\",\"1\",\"2\",\"S\",\"C\",\"113\"
\"\",\"\",\"approach-retreat\",\"117\",\"1185308\",\"0.0-117.0\",\"\",\"\",\"1-5\",\"4913\",\"37\",\"1\",\"Training\",\"Stims/Figures/111-C-30-3.bmp\",\"ta:ka:ka\",\"Right\",\"37\",\"8\",\"2\",\"2\",\"P\",\"C\",\"114\"
\"\",\"\",\"approach-retreat\",\"118\",\"1192341\",\"0.0-118.0\",\"\",\"\",\"1-5\",\"5529\",\"39\",\"1\",\"Training\",\"Stims/Figures/93-C-30-1.bmp\",\"ta:ka:ka\",\"Left\",\"39\",\"8\",\"3\",\"2\",\"P\",\"C\",\"115\"
\"\",\"\",\"approach-retreat\",\"119\",\"1198157\",\"0.0-119.0\",\"\",\"\",\"1-5\",\"4313\",\"38\",\"1\",\"Training\",\"Stims/Figures/74-J-10-4.bmp\",\"ma:la:na\",\"Up\",\"38\",\"8\",\"4\",\"2\",\"S\",\"C\",\"116\"
\"\",\"\",\"approach-retreat\",\"120\",\"1204653\",\"0.0-120.0\",\"\",\"\",\"1-5\",\"4993\",\"37\",\"1\",\"Training\",\"Stims/Figures/57-C-30-1.bmp\",\"ta:ka:ka\",\"Right\",\"37\",\"8\",\"5\",\"2\",\"P\",\"C\",\"117\"
\"\",\"\",\"approach-retreat\",\"121\",\"1210893\",\"0.0-121.0\",\"\",\"\",\"1-5\",\"4737\",\"39\",\"1\",\"Training\",\"Stims/Figures/100-J-10-3.bmp\",\"ma:la:na\",\"Right\",\"39\",\"8\",\"6\",\"2\",\"S\",\"C\",\"118\"
\"\",\"\",\"approach-retreat\",\"122\",\"1217310\",\"0.0-122.0\",\"\",\"\",\"1-5\",\"4913\",\"40\",\"1\",\"Training\",\"Stims/Figures/93-J-0-1.bmp\",\"ma:la:na\",\"Down\",\"40\",\"8\",\"7\",\"2\",\"S\",\"C\",\"119\"
\"\",\"\",\"approach-retreat\",\"123\",\"1223428\",\"0.0-123.0\",\"\",\"\",\"1-5\",\"4616\",\"38\",\"1\",\"Training\",\"Stims/Figures/85-C-20-2.bmp\",\"ta:ka:ka\",\"Down\",\"38\",\"8\",\"8\",\"2\",\"P\",\"C\",\"120\"
\"\",\"\",\"approach-retreat\",\"124\",\"1229453\",\"0.0-124.0\",\"\",\"\",\"1-5\",\"4523\",\"40\",\"1\",\"Training\",\"Stims/Figures/118-C-20-2.bmp\",\"ta:ka:ka\",\"Up\",\"40\",\"8\",\"9\",\"2\",\"P\",\"C\",\"121\"
\"\",\"\",\"approach-retreat\",\"125\",\"1235061\",\"0.0-125.0\",\"\",\"\",\"1-5\",\"4104\",\"37\",\"1\",\"Training\",\"Stims/Figures/74-C-20-4.bmp\",\"ta:ka:ka\",\"Right\",\"37\",\"8\",\"10\",\"2\",\"P\",\"C\",\"122\"
\"\",\"\",\"approach-retreat\",\"126\",\"1240924\",\"0.0-126.0\",\"\",\"\",\"1-5\",\"4361\",\"37\",\"1\",\"Training\",\"Stims/Figures/57-J-0-1.bmp\",\"ma:la:na\",\"Left\",\"37\",\"8\",\"11\",\"2\",\"S\",\"C\",\"123\"
\"\",\"\",\"approach-retreat\",\"127\",\"1248381\",\"0.0-127.0\",\"\",\"\",\"1-5\",\"5954\",\"38\",\"1\",\"Training\",\"Stims/Figures/19-J-10-4.bmp\",\"ma:la:na\",\"Up\",\"38\",\"8\",\"12\",\"2\",\"S\",\"C\",\"124\"
\"\",\"\",\"approach-retreat\",\"128\",\"1254684\",\"0.0-128.0\",\"\",\"\",\"1-5\",\"4801\",\"40\",\"1\",\"Training\",\"Stims/Figures/111-J-10-3.bmp\",\"ma:la:na\",\"Down\",\"40\",\"8\",\"13\",\"2\",\"S\",\"C\",\"125\"
\"\",\"\",\"approach-retreat\",\"129\",\"1262300\",\"0.0-129.0\",\"\",\"\",\"1-5\",\"6114\",\"39\",\"1\",\"Training\",\"Stims/Figures/19-C-20-4.bmp\",\"ta:ka:ka\",\"Left\",\"39\",\"8\",\"14\",\"2\",\"P\",\"C\",\"126\"
\"\",\"\",\"approach-retreat\",\"130\",\"1267989\",\"0.0-130.0\",\"\",\"\",\"1-5\",\"4186\",\"40\",\"1\",\"Training\",\"Stims/Figures/100-C-30-3.bmp\",\"ta:ka:ka\",\"Up\",\"40\",\"8\",\"15\",\"2\",\"P\",\"C\",\"127\"
\"\",\"\",\"approach-retreat\",\"131\",\"1273749\",\"0.0-131.0\",\"\",\"\",\"1-5\",\"4256\",\"37\",\"1\",\"Training\",\"Stims/Figures/85-J-0-2.bmp\",\"ma:la:na\",\"Left\",\"37\",\"8\",\"16\",\"2\",\"S\",\"C\",\"128\"
\"\",\"\",\"approach-retreat\",\"132\",\"1280589\",\"0.0-132.0\",\"\",\"\",\"1-5\",\"5337\",\"38\",\"1\",\"Training\",\"Stims/Figures/93-C-30-1.bmp\",\"ta:ka:ka\",\"Down\",\"38\",\"9\",\"1\",\"2\",\"P\",\"C\",\"129\"
\"\",\"\",\"approach-retreat\",\"133\",\"1286997\",\"0.0-133.0\",\"\",\"\",\"1-5\",\"4905\",\"37\",\"1\",\"Training\",\"Stims/Figures/57-J-0-1.bmp\",\"ma:la:na\",\"Left\",\"37\",\"9\",\"2\",\"2\",\"S\",\"C\",\"130\"
\"\",\"\",\"approach-retreat\",\"134\",\"1292685\",\"0.0-134.0\",\"\",\"\",\"1-5\",\"4186\",\"39\",\"1\",\"Training\",\"Stims/Figures/85-C-20-2.bmp\",\"ta:ka:ka\",\"Left\",\"39\",\"9\",\"3\",\"2\",\"P\",\"C\",\"131\"
\"\",\"\",\"approach-retreat\",\"135\",\"1305582\",\"0.0-135.0\",\"\",\"\",\"1-5\",\"11393\",\"37\",\"1\",\"Training\",\"Stims/Figures/100-J-10-3.bmp\",\"ma:la:na\",\"Left\",\"37\",\"9\",\"4\",\"2\",\"S\",\"C\",\"132\"
\"\",\"\",\"approach-retreat\",\"136\",\"1311557\",\"0.0-136.0\",\"\",\"\",\"1-5\",\"4472\",\"38\",\"1\",\"Training\",\"Stims/Figures/74-C-20-4.bmp\",\"ta:ka:ka\",\"Down\",\"38\",\"9\",\"5\",\"2\",\"P\",\"C\",\"133\"
\"\",\"\",\"approach-retreat\",\"137\",\"1317212\",\"0.0-137.0\",\"\",\"\",\"1-5\",\"4153\",\"38\",\"1\",\"Training\",\"Stims/Figures/111-J-10-3.bmp\",\"ma:la:na\",\"Up\",\"38\",\"9\",\"6\",\"2\",\"S\",\"C\",\"134\"
\"\",\"\",\"approach-retreat\",\"138\",\"1323613\",\"0.0-138.0\",\"\",\"\",\"1-5\",\"4897\",\"37\",\"1\",\"Training\",\"Stims/Figures/100-C-30-3.bmp\",\"ta:ka:ka\",\"Right\",\"37\",\"9\",\"7\",\"2\",\"P\",\"C\",\"135\"
\"\",\"\",\"approach-retreat\",\"139\",\"1330397\",\"0.0-139.0\",\"\",\"\",\"1-5\",\"5281\",\"39\",\"1\",\"Training\",\"Stims/Figures/111-C-30-3.bmp\",\"ta:ka:ka\",\"Left\",\"39\",\"9\",\"8\",\"2\",\"P\",\"C\",\"136\"
\"\",\"\",\"approach-retreat\",\"140\",\"1336101\",\"0.0-140.0\",\"\",\"\",\"1-5\",\"4201\",\"38\",\"1\",\"Training\",\"Stims/Figures/118-C-20-2.bmp\",\"ta:ka:ka\",\"Down\",\"38\",\"9\",\"9\",\"2\",\"P\",\"C\",\"137\"
\"\",\"\",\"approach-retreat\",\"141\",\"1341789\",\"0.0-141.0\",\"\",\"\",\"1-5\",\"4185\",\"39\",\"1\",\"Training\",\"Stims/Figures/74-J-10-4.bmp\",\"ma:la:na\",\"Right\",\"39\",\"9\",\"10\",\"2\",\"S\",\"C\",\"138\"
\"\",\"\",\"approach-retreat\",\"142\",\"1347445\",\"0.0-142.0\",\"\",\"\",\"1-5\",\"4152\",\"38\",\"1\",\"Training\",\"Stims/Figures/118-J-0-2.bmp\",\"ma:la:na\",\"Up\",\"38\",\"9\",\"11\",\"2\",\"S\",\"C\",\"139\"
\"\",\"\",\"approach-retreat\",\"143\",\"1353046\",\"0.0-143.0\",\"\",\"\",\"1-5\",\"4098\",\"40\",\"1\",\"Training\",\"Stims/Figures/19-C-20-4.bmp\",\"ta:ka:ka\",\"Up\",\"40\",\"9\",\"12\",\"2\",\"P\",\"C\",\"140\"
\"\",\"\",\"approach-retreat\",\"144\",\"1358820\",\"0.0-144.0\",\"\",\"\",\"1-5\",\"4272\",\"39\",\"1\",\"Training\",\"Stims/Figures/19-J-10-4.bmp\",\"ma:la:na\",\"Right\",\"39\",\"9\",\"13\",\"2\",\"S\",\"C\",\"141\"
\"\",\"\",\"approach-retreat\",\"145\",\"1364796\",\"0.0-145.0\",\"\",\"\",\"1-5\",\"4473\",\"38\",\"1\",\"Training\",\"Stims/Figures/93-J-0-1.bmp\",\"ma:la:na\",\"Up\",\"38\",\"9\",\"14\",\"2\",\"S\",\"C\",\"142\"
\"\",\"\",\"approach-retreat\",\"146\",\"1370484\",\"0.0-146.0\",\"\",\"\",\"1-5\",\"4186\",\"39\",\"1\",\"Training\",\"Stims/Figures/85-J-0-2.bmp\",\"ma:la:na\",\"Right\",\"39\",\"9\",\"15\",\"2\",\"S\",\"C\",\"143\"
\"\",\"\",\"approach-retreat\",\"147\",\"1376509\",\"0.0-147.0\",\"\",\"\",\"1-5\",\"4522\",\"38\",\"1\",\"Training\",\"Stims/Figures/57-C-30-1.bmp\",\"ta:ka:ka\",\"Down\",\"38\",\"9\",\"16\",\"2\",\"P\",\"C\",\"144\"
\"54515\",\"\",\"instructions\",\"148\",\"1431025\",\"0.0-148.0\",\"[{\"\"page_index\"\":0,\"\"viewing_time\"\":54515}]\",\"\",\"\",\"\",\"\",\"\",\"\",\"\",\"\",\"\",\"\",\"\",\"\",\"\",\"\",\"\",\"\"
\"\",\"\",\"approach-retreat\",\"149\",\"1440052\",\"0.0-149.0\",\"\",\"\",\"1-5\",\"7526\",\"38\",\"1\",\"Testing\",\"Stims/Figures/94-C-20-2.bmp\",\"ta:ka:ka\",\"Down\",\"38\",\"1\",\"1\",\"2\",\"P\",\"C\",\"1\"
\"\",\"\",\"approach-retreat\",\"150\",\"1445893\",\"0.0-150.0\",\"\",\"\",\"1-5\",\"4336\",\"39\",\"1\",\"Testing\",\"Stims/Figures/94-J-0-2.bmp\",\"ma:la:na\",\"Right\",\"39\",\"1\",\"2\",\"2\",\"S\",\"C\",\"2\"
\"\",\"\",\"approach-retreat\",\"151\",\"1451636\",\"0.0-151.0\",\"\",\"\",\"1-5\",\"4241\",\"39\",\"1\",\"Testing\",\"Stims/Figures/19-J-10-4.bmp\",\"ma:la:na\",\"Right\",\"39\",\"1\",\"3\",\"2\",\"S\",\"C\",\"3\"
\"\",\"\",\"approach-retreat\",\"152\",\"1457580\",\"0.0-152.0\",\"\",\"\",\"1-5\",\"4442\",\"38\",\"1\",\"Testing\",\"Stims/Figures/74-C-20-4.bmp\",\"ta:ka:ka\",\"Down\",\"38\",\"1\",\"4\",\"2\",\"P\",\"C\",\"4\"
\"\",\"\",\"approach-retreat\",\"153\",\"1466724\",\"0.0-153.0\",\"\",\"\",\"1-5\",\"7641\",\"38\",\"0\",\"Testing\",\"Stims/Figures/19-C-20-4.bmp\",\"ta:ka:ka\",\"Up\",\"40\",\"1\",\"5\",\"2\",\"P\",\"C\",\"5\"
\"\",\"\",\"approach-retreat\",\"154\",\"1472612\",\"0.0-154.0\",\"\",\"\",\"1-5\",\"4387\",\"38\",\"1\",\"Testing\",\"Stims/Figures/128-C-30-3.bmp\",\"ta:ka:ka\",\"Down\",\"38\",\"1\",\"6\",\"2\",\"P\",\"C\",\"6\"
\"\",\"\",\"approach-retreat\",\"155\",\"1478348\",\"0.0-155.0\",\"\",\"\",\"1-5\",\"4233\",\"39\",\"0\",\"Testing\",\"Stims/Figures/57-J-0-1.bmp\",\"ma:la:na\",\"Left\",\"37\",\"1\",\"7\",\"2\",\"S\",\"C\",\"7\"
\"\",\"\",\"approach-retreat\",\"156\",\"1485597\",\"0.0-156.0\",\"\",\"\",\"1-5\",\"5745\",\"39\",\"1\",\"Testing\",\"Stims/Figures/128-J-10-3.bmp\",\"ma:la:na\",\"Right\",\"39\",\"1\",\"8\",\"2\",\"S\",\"C\",\"8\"
\"\",\"\",\"approach-retreat\",\"157\",\"1492013\",\"0.0-157.0\",\"\",\"\",\"1-5\",\"4912\",\"40\",\"1\",\"Testing\",\"Stims/Figures/27-C-30-1.bmp\",\"ta:ka:ka\",\"Up\",\"40\",\"1\",\"9\",\"2\",\"P\",\"C\",\"9\"
\"\",\"\",\"approach-retreat\",\"158\",\"1498021\",\"0.0-158.0\",\"\",\"\",\"1-5\",\"4506\",\"39\",\"1\",\"Testing\",\"Stims/Figures/85-C-20-2.bmp\",\"ta:ka:ka\",\"Left\",\"39\",\"1\",\"10\",\"2\",\"P\",\"C\",\"10\"
\"\",\"\",\"approach-retreat\",\"159\",\"1503677\",\"0.0-159.0\",\"\",\"\",\"1-5\",\"4153\",\"38\",\"1\",\"Testing\",\"Stims/Figures/118-J-0-2.bmp\",\"ma:la:na\",\"Up\",\"38\",\"1\",\"11\",\"2\",\"S\",\"C\",\"11\"
\"\",\"\",\"approach-retreat\",\"160\",\"1515277\",\"0.0-160.0\",\"\",\"\",\"1-5\",\"10099\",\"40\",\"1\",\"Testing\",\"Stims/Figures/111-J-10-3.bmp\",\"ma:la:na\",\"Down\",\"40\",\"1\",\"12\",\"2\",\"S\",\"C\",\"12\"
\"\",\"\",\"approach-retreat\",\"161\",\"1522197\",\"0.0-161.0\",\"\",\"\",\"1-5\",\"5417\",\"40\",\"1\",\"Testing\",\"Stims/Figures/27-J-0-1.bmp\",\"ma:la:na\",\"Down\",\"40\",\"1\",\"13\",\"2\",\"S\",\"C\",\"13\"
\"\",\"\",\"approach-retreat\",\"162\",\"1527932\",\"0.0-162.0\",\"\",\"\",\"1-5\",\"4234\",\"40\",\"1\",\"Testing\",\"Stims/Figures/93-C-30-1.bmp\",\"ta:ka:ka\",\"Up\",\"40\",\"1\",\"14\",\"2\",\"P\",\"C\",\"14\"
\"\",\"\",\"approach-retreat\",\"163\",\"1534277\",\"0.0-163.0\",\"\",\"\",\"1-5\",\"4841\",\"39\",\"1\",\"Testing\",\"Stims/Figures/7-C-20-4.bmp\",\"ta:ka:ka\",\"Left\",\"39\",\"1\",\"15\",\"2\",\"P\",\"C\",\"15\"
\"\",\"\",\"approach-retreat\",\"164\",\"1542053\",\"0.0-164.0\",\"\",\"\",\"1-5\",\"6272\",\"37\",\"1\",\"Testing\",\"Stims/Figures/57-C-30-1.bmp\",\"ta:ka:ka\",\"Right\",\"37\",\"1\",\"16\",\"2\",\"P\",\"C\",\"16\"
\"\",\"\",\"approach-retreat\",\"165\",\"1551477\",\"0.0-165.0\",\"\",\"\",\"1-5\",\"7921\",\"40\",\"1\",\"Testing\",\"Stims/Figures/118-C-20-2.bmp\",\"ta:ka:ka\",\"Up\",\"40\",\"1\",\"17\",\"2\",\"P\",\"C\",\"17\"
\"\",\"\",\"approach-retreat\",\"166\",\"1557764\",\"0.0-166.0\",\"\",\"\",\"1-5\",\"4786\",\"39\",\"1\",\"Testing\",\"Stims/Figures/111-C-30-3.bmp\",\"ta:ka:ka\",\"Left\",\"39\",\"1\",\"18\",\"2\",\"P\",\"C\",\"18\"
\"\",\"\",\"approach-retreat\",\"167\",\"1563581\",\"0.0-167.0\",\"\",\"\",\"1-5\",\"4312\",\"38\",\"1\",\"Testing\",\"Stims/Figures/85-J-0-2.bmp\",\"ma:la:na\",\"Up\",\"38\",\"1\",\"19\",\"2\",\"S\",\"C\",\"19\"
\"\",\"\",\"approach-retreat\",\"168\",\"1578260\",\"0.0-168.0\",\"\",\"\",\"1-5\",\"13177\",\"39\",\"1\",\"Testing\",\"Stims/Figures/74-J-10-4.bmp\",\"ma:la:na\",\"Right\",\"39\",\"1\",\"20\",\"2\",\"S\",\"C\",\"20\"
\"\",\"\",\"approach-retreat\",\"169\",\"1590621\",\"0.0-169.0\",\"\",\"\",\"1-5\",\"10857\",\"40\",\"1\",\"Testing\",\"Stims/Figures/100-J-10-3.bmp\",\"ma:la:na\",\"Down\",\"40\",\"1\",\"21\",\"2\",\"S\",\"C\",\"21\"
\"\",\"\",\"approach-retreat\",\"170\",\"1600349\",\"0.0-170.0\",\"\",\"\",\"1-5\",\"8224\",\"37\",\"1\",\"Testing\",\"Stims/Figures/7-J-10-4.bmp\",\"ma:la:na\",\"Left\",\"37\",\"1\",\"22\",\"2\",\"S\",\"C\",\"22\"
\"\",\"\",\"approach-retreat\",\"171\",\"1606533\",\"0.0-171.0\",\"\",\"\",\"1-5\",\"4682\",\"39\",\"1\",\"Testing\",\"Stims/Figures/93-J-0-1.bmp\",\"ma:la:na\",\"Right\",\"39\",\"1\",\"23\",\"2\",\"S\",\"C\",\"23\"
\"\",\"\",\"approach-retreat\",\"172\",\"1613045\",\"0.0-172.0\",\"\",\"\",\"1-5\",\"5009\",\"39\",\"1\",\"Testing\",\"Stims/Figures/100-C-30-3.bmp\",\"ta:ka:ka\",\"Left\",\"39\",\"1\",\"24\",\"2\",\"P\",\"C\",\"24\"
\"\",\"\",\"approach-retreat\",\"173\",\"1619838\",\"0.0-173.0\",\"\",\"\",\"1-5\",\"5290\",\"37\",\"0\",\"Testing\",\"Stims/Figures/19-J-10-4.bmp\",\"ma:la:na\",\"Right\",\"39\",\"2\",\"1\",\"2\",\"S\",\"C\",\"25\"
\"\",\"\",\"approach-retreat\",\"174\",\"1626269\",\"0.0-174.0\",\"\",\"\",\"1-5\",\"4928\",\"40\",\"1\",\"Testing\",\"Stims/Figures/74-C-20-4.bmp\",\"ta:ka:ka\",\"Up\",\"40\",\"2\",\"2\",\"2\",\"P\",\"C\",\"26\"
\"\",\"\",\"approach-retreat\",\"175\",\"1632909\",\"0.0-175.0\",\"\",\"\",\"1-5\",\"5137\",\"40\",\"1\",\"Testing\",\"Stims/Figures/27-C-30-1.bmp\",\"ta:ka:ka\",\"Up\",\"40\",\"2\",\"3\",\"2\",\"P\",\"C\",\"27\"
\"\",\"\",\"approach-retreat\",\"176\",\"1639733\",\"0.0-176.0\",\"\",\"\",\"1-5\",\"5321\",\"38\",\"1\",\"Testing\",\"Stims/Figures/85-J-0-2.bmp\",\"ma:la:na\",\"Up\",\"38\",\"2\",\"4\",\"2\",\"S\",\"C\",\"28\"
\"\",\"\",\"approach-retreat\",\"177\",\"1649029\",\"0.0-177.0\",\"\",\"\",\"1-5\",\"7793\",\"39\",\"1\",\"Testing\",\"Stims/Figures/7-J-10-4.bmp\",\"ma:la:na\",\"Right\",\"39\",\"2\",\"5\",\"2\",\"S\",\"C\",\"29\"
\"\",\"\",\"approach-retreat\",\"178\",\"1654485\",\"0.0-178.0\",\"\",\"\",\"1-5\",\"3953\",\"39\",\"1\",\"Testing\",\"Stims/Figures/57-J-0-1.bmp\",\"ma:la:na\",\"Right\",\"39\",\"2\",\"6\",\"2\",\"S\",\"C\",\"30\"
\"\",\"\",\"approach-retreat\",\"179\",\"1661308\",\"0.0-179.0\",\"\",\"\",\"1-5\",\"5321\",\"39\",\"1\",\"Testing\",\"Stims/Figures/100-C-30-3.bmp\",\"ta:ka:ka\",\"Left\",\"39\",\"2\",\"7\",\"2\",\"P\",\"C\",\"31\"
\"\",\"\",\"approach-retreat\",\"180\",\"1667229\",\"0.0-180.0\",\"\",\"\",\"1-5\",\"4418\",\"37\",\"1\",\"Testing\",\"Stims/Figures/27-J-0-1.bmp\",\"ma:la:na\",\"Left\",\"37\",\"2\",\"8\",\"2\",\"S\",\"C\",\"32\"
\"\",\"\",\"approach-retreat\",\"181\",\"1674093\",\"0.0-181.0\",\"\",\"\",\"1-5\",\"5362\",\"39\",\"1\",\"Testing\",\"Stims/Figures/85-C-20-2.bmp\",\"ta:ka:ka\",\"Left\",\"39\",\"2\",\"9\",\"2\",\"P\",\"C\",\"33\"
\"\",\"\",\"approach-retreat\",\"182\",\"1685701\",\"0.0-182.0\",\"\",\"\",\"1-5\",\"10105\",\"39\",\"1\",\"Testing\",\"Stims/Figures/111-J-10-3.bmp\",\"ma:la:na\",\"Right\",\"39\",\"2\",\"10\",\"2\",\"S\",\"C\",\"34\"
\"\",\"\",\"approach-retreat\",\"183\",\"1694757\",\"0.0-183.0\",\"\",\"\",\"1-5\",\"7553\",\"40\",\"1\",\"Testing\",\"Stims/Figures/128-J-10-3.bmp\",\"ma:la:na\",\"Down\",\"40\",\"2\",\"11\",\"2\",\"S\",\"C\",\"35\"
\"\",\"\",\"approach-retreat\",\"184\",\"1700629\",\"0.0-184.0\",\"\",\"\",\"1-5\",\"4370\",\"39\",\"1\",\"Testing\",\"Stims/Figures/118-J-0-2.bmp\",\"ma:la:na\",\"Right\",\"39\",\"2\",\"12\",\"2\",\"S\",\"C\",\"36\"
\"\",\"\",\"approach-retreat\",\"185\",\"1706501\",\"0.0-185.0\",\"\",\"\",\"1-5\",\"4369\",\"40\",\"1\",\"Testing\",\"Stims/Figures/94-C-20-2.bmp\",\"ta:ka:ka\",\"Up\",\"40\",\"2\",\"13\",\"2\",\"P\",\"C\",\"37\"
\"\",\"\",\"approach-retreat\",\"186\",\"1713116\",\"0.0-186.0\",\"\",\"\",\"1-5\",\"5113\",\"37\",\"1\",\"Testing\",\"Stims/Figures/111-C-30-3.bmp\",\"ta:ka:ka\",\"Right\",\"37\",\"2\",\"14\",\"2\",\"P\",\"C\",\"38\"
\"\",\"\",\"approach-retreat\",\"187\",\"1719133\",\"0.0-187.0\",\"\",\"\",\"1-5\",\"4514\",\"37\",\"1\",\"Testing\",\"Stims/Figures/94-J-0-2.bmp\",\"ma:la:na\",\"Left\",\"37\",\"2\",\"15\",\"2\",\"S\",\"C\",\"39\"
\"\",\"\",\"approach-retreat\",\"188\",\"1726525\",\"0.0-188.0\",\"\",\"\",\"1-5\",\"5889\",\"40\",\"1\",\"Testing\",\"Stims/Figures/93-C-30-1.bmp\",\"ta:ka:ka\",\"Up\",\"40\",\"2\",\"16\",\"2\",\"P\",\"C\",\"40\"
\"\",\"\",\"approach-retreat\",\"189\",\"1733452\",\"0.0-189.0\",\"\",\"\",\"1-5\",\"5425\",\"38\",\"1\",\"Testing\",\"Stims/Figures/74-J-10-4.bmp\",\"ma:la:na\",\"Up\",\"38\",\"2\",\"17\",\"2\",\"S\",\"C\",\"41\"
\"\",\"\",\"approach-retreat\",\"190\",\"1742445\",\"0.0-190.0\",\"\",\"\",\"1-5\",\"7490\",\"38\",\"1\",\"Testing\",\"Stims/Figures/19-C-20-4.bmp\",\"ta:ka:ka\",\"Down\",\"38\",\"2\",\"18\",\"2\",\"P\",\"C\",\"42\"
\"\",\"\",\"approach-retreat\",\"191\",\"1748326\",\"0.0-191.0\",\"\",\"\",\"1-5\",\"4378\",\"39\",\"0\",\"Testing\",\"Stims/Figures/100-J-10-3.bmp\",\"ma:la:na\",\"Left\",\"37\",\"2\",\"19\",\"2\",\"S\",\"C\",\"43\"
\"\",\"\",\"approach-retreat\",\"192\",\"1755181\",\"0.0-192.0\",\"\",\"\",\"1-5\",\"5353\",\"38\",\"1\",\"Testing\",\"Stims/Figures/7-C-20-4.bmp\",\"ta:ka:ka\",\"Down\",\"38\",\"2\",\"20\",\"2\",\"P\",\"C\",\"44\"
\"\",\"\",\"approach-retreat\",\"193\",\"1761093\",\"0.0-193.0\",\"\",\"\",\"1-5\",\"4410\",\"38\",\"1\",\"Testing\",\"Stims/Figures/57-C-30-1.bmp\",\"ta:ka:ka\",\"Down\",\"38\",\"2\",\"21\",\"2\",\"P\",\"C\",\"45\"
\"\",\"\",\"approach-retreat\",\"194\",\"1766709\",\"0.0-194.0\",\"\",\"\",\"1-5\",\"4113\",\"38\",\"1\",\"Testing\",\"Stims/Figures/128-C-30-3.bmp\",\"ta:ka:ka\",\"Down\",\"38\",\"2\",\"22\",\"2\",\"P\",\"C\",\"46\"
\"\",\"\",\"approach-retreat\",\"195\",\"1772709\",\"0.0-195.0\",\"\",\"\",\"1-5\",\"4497\",\"39\",\"1\",\"Testing\",\"Stims/Figures/118-C-20-2.bmp\",\"ta:ka:ka\",\"Left\",\"39\",\"2\",\"23\",\"2\",\"P\",\"C\",\"47\"
\"\",\"\",\"approach-retreat\",\"196\",\"1778485\",\"0.0-196.0\",\"\",\"\",\"1-5\",\"4273\",\"40\",\"1\",\"Testing\",\"Stims/Figures/93-J-0-1.bmp\",\"ma:la:na\",\"Down\",\"40\",\"2\",\"24\",\"2\",\"S\",\"C\",\"48\"
\"\",\"\",\"approach-retreat\",\"197\",\"1784364\",\"0.0-197.0\",\"\",\"\",\"1-5\",\"4377\",\"40\",\"0\",\"Testing\",\"Stims/Figures/128-J-10-3.bmp\",\"ma:la:na\",\"Up\",\"38\",\"3\",\"1\",\"2\",\"S\",\"C\",\"49\"
\"\",\"\",\"approach-retreat\",\"198\",\"1794109\",\"0.0-198.0\",\"\",\"\",\"1-5\",\"8243\",\"37\",\"1\",\"Testing\",\"Stims/Figures/57-C-30-1.bmp\",\"ta:ka:ka\",\"Right\",\"37\",\"3\",\"2\",\"2\",\"P\",\"C\",\"50\"
\"\",\"\",\"approach-retreat\",\"199\",\"1799829\",\"0.0-199.0\",\"\",\"\",\"1-5\",\"4219\",\"38\",\"1\",\"Testing\",\"Stims/Figures/85-J-0-2.bmp\",\"ma:la:na\",\"Up\",\"38\",\"3\",\"3\",\"2\",\"S\",\"C\",\"51\"
\"\",\"\",\"approach-retreat\",\"200\",\"1805597\",\"0.0-200.0\",\"\",\"\",\"1-5\",\"4265\",\"38\",\"1\",\"Testing\",\"Stims/Figures/85-C-20-2.bmp\",\"ta:ka:ka\",\"Down\",\"38\",\"3\",\"4\",\"2\",\"P\",\"C\",\"52\"
\"\",\"\",\"approach-retreat\",\"201\",\"1812790\",\"0.0-201.0\",\"\",\"\",\"1-5\",\"5691\",\"39\",\"0\",\"Testing\",\"Stims/Figures/19-J-10-4.bmp\",\"ma:la:na\",\"Left\",\"37\",\"3\",\"5\",\"2\",\"S\",\"C\",\"53\"
\"\",\"\",\"approach-retreat\",\"202\",\"1818662\",\"0.0-202.0\",\"\",\"\",\"1-5\",\"4370\",\"38\",\"1\",\"Testing\",\"Stims/Figures/118-C-20-2.bmp\",\"ta:ka:ka\",\"Down\",\"38\",\"3\",\"6\",\"2\",\"P\",\"C\",\"54\"
\"\",\"\",\"approach-retreat\",\"203\",\"1824405\",\"0.0-203.0\",\"\",\"\",\"1-5\",\"4242\",\"37\",\"1\",\"Testing\",\"Stims/Figures/128-C-30-3.bmp\",\"ta:ka:ka\",\"Right\",\"37\",\"3\",\"7\",\"2\",\"P\",\"C\",\"55\"
\"\",\"\",\"approach-retreat\",\"204\",\"1830197\",\"0.0-204.0\",\"\",\"\",\"1-5\",\"4289\",\"40\",\"1\",\"Testing\",\"Stims/Figures/19-C-20-4.bmp\",\"ta:ka:ka\",\"Up\",\"40\",\"3\",\"8\",\"2\",\"P\",\"C\",\"56\"
\"\",\"\",\"approach-retreat\",\"205\",\"1836389\",\"0.0-205.0\",\"\",\"\",\"1-5\",\"4689\",\"37\",\"1\",\"Testing\",\"Stims/Figures/118-J-0-2.bmp\",\"ma:la:na\",\"Left\",\"37\",\"3\",\"9\",\"2\",\"S\",\"C\",\"57\"
\"\",\"\",\"approach-retreat\",\"206\",\"1842485\",\"0.0-206.0\",\"\",\"\",\"1-5\",\"4594\",\"37\",\"1\",\"Testing\",\"Stims/Figures/100-C-30-3.bmp\",\"ta:ka:ka\",\"Right\",\"37\",\"3\",\"10\",\"2\",\"P\",\"C\",\"58\"
\"\",\"\",\"approach-retreat\",\"207\",\"1848189\",\"0.0-207.0\",\"\",\"\",\"1-5\",\"4201\",\"37\",\"1\",\"Testing\",\"Stims/Figures/27-J-0-1.bmp\",\"ma:la:na\",\"Left\",\"37\",\"3\",\"11\",\"2\",\"S\",\"C\",\"59\"
\"\",\"\",\"approach-retreat\",\"208\",\"1854566\",\"0.0-208.0\",\"\",\"\",\"1-5\",\"4875\",\"38\",\"1\",\"Testing\",\"Stims/Figures/27-C-30-1.bmp\",\"ta:ka:ka\",\"Down\",\"38\",\"3\",\"12\",\"2\",\"P\",\"C\",\"60\"
\"\",\"\",\"approach-retreat\",\"209\",\"1863349\",\"0.0-209.0\",\"\",\"\",\"1-5\",\"7282\",\"39\",\"0\",\"Testing\",\"Stims/Figures/111-J-10-3.bmp\",\"ma:la:na\",\"Left\",\"37\",\"3\",\"13\",\"2\",\"S\",\"C\",\"61\"
\"\",\"\",\"approach-retreat\",\"210\",\"1869478\",\"0.0-210.0\",\"\",\"\",\"1-5\",\"4625\",\"40\",\"1\",\"Testing\",\"Stims/Figures/94-J-0-2.bmp\",\"ma:la:na\",\"Down\",\"40\",\"3\",\"14\",\"2\",\"S\",\"C\",\"62\"
\"\",\"\",\"approach-retreat\",\"211\",\"1875341\",\"0.0-211.0\",\"\",\"\",\"1-5\",\"4361\",\"37\",\"1\",\"Testing\",\"Stims/Figures/93-C-30-1.bmp\",\"ta:ka:ka\",\"Right\",\"37\",\"3\",\"15\",\"2\",\"P\",\"C\",\"63\"
\"\",\"\",\"approach-retreat\",\"212\",\"1881093\",\"0.0-212.0\",\"\",\"\",\"1-5\",\"4251\",\"37\",\"0\",\"Testing\",\"Stims/Figures/100-J-10-3.bmp\",\"ma:la:na\",\"Right\",\"39\",\"3\",\"16\",\"2\",\"S\",\"C\",\"64\"
\"\",\"\",\"approach-retreat\",\"213\",\"1890518\",\"0.0-213.0\",\"\",\"\",\"1-5\",\"7921\",\"40\",\"0\",\"Testing\",\"Stims/Figures/7-J-10-4.bmp\",\"ma:la:na\",\"Up\",\"38\",\"3\",\"17\",\"2\",\"S\",\"C\",\"65\"
\"\",\"\",\"approach-retreat\",\"214\",\"1896212\",\"0.0-214.0\",\"\",\"\",\"1-5\",\"4193\",\"39\",\"0\",\"Testing\",\"Stims/Figures/93-J-0-1.bmp\",\"ma:la:na\",\"Left\",\"37\",\"3\",\"18\",\"2\",\"S\",\"C\",\"66\"
\"\",\"\",\"approach-retreat\",\"215\",\"1903749\",\"0.0-215.0\",\"\",\"\",\"1-5\",\"6033\",\"38\",\"1\",\"Testing\",\"Stims/Figures/7-C-20-4.bmp\",\"ta:ka:ka\",\"Down\",\"38\",\"3\",\"19\",\"2\",\"P\",\"C\",\"67\"
\"\",\"\",\"approach-retreat\",\"216\",\"1909325\",\"0.0-216.0\",\"\",\"\",\"1-5\",\"4073\",\"40\",\"1\",\"Testing\",\"Stims/Figures/57-J-0-1.bmp\",\"ma:la:na\",\"Down\",\"40\",\"3\",\"20\",\"2\",\"S\",\"C\",\"68\"
\"\",\"\",\"approach-retreat\",\"217\",\"1917454\",\"0.0-217.0\",\"\",\"\",\"1-5\",\"6626\",\"40\",\"0\",\"Testing\",\"Stims/Figures/74-J-10-4.bmp\",\"ma:la:na\",\"Up\",\"38\",\"3\",\"21\",\"2\",\"S\",\"C\",\"69\"
\"\",\"\",\"approach-retreat\",\"218\",\"1923574\",\"0.0-218.0\",\"\",\"\",\"1-5\",\"4617\",\"37\",\"1\",\"Testing\",\"Stims/Figures/111-C-30-3.bmp\",\"ta:ka:ka\",\"Right\",\"37\",\"3\",\"22\",\"2\",\"P\",\"C\",\"70\"
\"\",\"\",\"approach-retreat\",\"219\",\"1932573\",\"0.0-219.0\",\"\",\"\",\"1-5\",\"7497\",\"40\",\"1\",\"Testing\",\"Stims/Figures/74-C-20-4.bmp\",\"ta:ka:ka\",\"Up\",\"40\",\"3\",\"23\",\"2\",\"P\",\"C\",\"71\"
\"\",\"\",\"approach-retreat\",\"220\",\"1938558\",\"0.0-220.0\",\"\",\"\",\"1-5\",\"4482\",\"39\",\"1\",\"Testing\",\"Stims/Figures/94-C-20-2.bmp\",\"ta:ka:ka\",\"Left\",\"39\",\"3\",\"24\",\"2\",\"P\",\"C\",\"72\"
\"\",\"\",\"approach-retreat\",\"221\",\"1944277\",\"0.0-221.0\",\"\",\"\",\"1-5\",\"4217\",\"40\",\"1\",\"Testing\",\"Stims/Figures/85-C-20-2.bmp\",\"ta:ka:ka\",\"Up\",\"40\",\"4\",\"1\",\"2\",\"P\",\"C\",\"73\"
\"\",\"\",\"approach-retreat\",\"222\",\"1950037\",\"0.0-222.0\",\"\",\"\",\"1-5\",\"4258\",\"37\",\"1\",\"Testing\",\"Stims/Figures/27-C-30-1.bmp\",\"ta:ka:ka\",\"Right\",\"37\",\"4\",\"2\",\"2\",\"P\",\"C\",\"74\"
\"\",\"\",\"approach-retreat\",\"223\",\"1955893\",\"0.0-223.0\",\"\",\"\",\"1-5\",\"4355\",\"39\",\"1\",\"Testing\",\"Stims/Figures/7-C-20-4.bmp\",\"ta:ka:ka\",\"Left\",\"39\",\"4\",\"3\",\"2\",\"P\",\"C\",\"75\"
\"\",\"\",\"approach-retreat\",\"224\",\"1961589\",\"0.0-224.0\",\"\",\"\",\"1-5\",\"4193\",\"37\",\"1\",\"Testing\",\"Stims/Figures/93-C-30-1.bmp\",\"ta:ka:ka\",\"Right\",\"37\",\"4\",\"4\",\"2\",\"P\",\"C\",\"76\"
\"\",\"\",\"approach-retreat\",\"225\",\"1967461\",\"0.0-225.0\",\"\",\"\",\"1-5\",\"4369\",\"39\",\"1\",\"Testing\",\"Stims/Figures/74-C-20-4.bmp\",\"ta:ka:ka\",\"Left\",\"39\",\"4\",\"5\",\"2\",\"P\",\"C\",\"77\"
\"\",\"\",\"approach-retreat\",\"226\",\"1973437\",\"0.0-226.0\",\"\",\"\",\"1-5\",\"4473\",\"38\",\"1\",\"Testing\",\"Stims/Figures/111-C-30-3.bmp\",\"ta:ka:ka\",\"Down\",\"38\",\"4\",\"6\",\"2\",\"P\",\"C\",\"78\"
\"\",\"\",\"approach-retreat\",\"227\",\"1979204\",\"0.0-227.0\",\"\",\"\",\"1-5\",\"4267\",\"39\",\"0\",\"Testing\",\"Stims/Figures/74-J-10-4.bmp\",\"ma:la:na\",\"Left\",\"37\",\"4\",\"7\",\"2\",\"S\",\"C\",\"79\"
\"\",\"\",\"approach-retreat\",\"228\",\"1985085\",\"0.0-228.0\",\"\",\"\",\"1-5\",\"4378\",\"39\",\"1\",\"Testing\",\"Stims/Figures/57-C-30-1.bmp\",\"ta:ka:ka\",\"Left\",\"39\",\"4\",\"8\",\"2\",\"P\",\"C\",\"80\"
\"\",\"\",\"approach-retreat\",\"229\",\"1991012\",\"0.0-229.0\",\"\",\"\",\"1-5\",\"4426\",\"37\",\"1\",\"Testing\",\"Stims/Figures/27-J-0-1.bmp\",\"ma:la:na\",\"Left\",\"37\",\"4\",\"9\",\"2\",\"S\",\"C\",\"81\"
\"\",\"\",\"approach-retreat\",\"230\",\"2000462\",\"0.0-230.0\",\"\",\"\",\"1-5\",\"7945\",\"40\",\"1\",\"Testing\",\"Stims/Figures/19-C-20-4.bmp\",\"ta:ka:ka\",\"Up\",\"40\",\"4\",\"10\",\"2\",\"P\",\"C\",\"82\"
\"\",\"\",\"approach-retreat\",\"231\",\"2006653\",\"0.0-231.0\",\"\",\"\",\"1-5\",\"4687\",\"40\",\"1\",\"Testing\",\"Stims/Figures/85-J-0-2.bmp\",\"ma:la:na\",\"Down\",\"40\",\"4\",\"11\",\"2\",\"S\",\"C\",\"83\"
\"\",\"\",\"approach-retreat\",\"232\",\"2013061\",\"0.0-232.0\",\"\",\"\",\"1-5\",\"4906\",\"40\",\"0\",\"Testing\",\"Stims/Figures/100-J-10-3.bmp\",\"ma:la:na\",\"Up\",\"38\",\"4\",\"12\",\"2\",\"S\",\"C\",\"84\"
\"\",\"\",\"approach-retreat\",\"233\",\"2019492\",\"0.0-233.0\",\"\",\"\",\"1-5\",\"4929\",\"38\",\"1\",\"Testing\",\"Stims/Figures/94-J-0-2.bmp\",\"ma:la:na\",\"Up\",\"38\",\"4\",\"13\",\"2\",\"S\",\"C\",\"85\"
\"\",\"\",\"approach-retreat\",\"234\",\"2025532\",\"0.0-234.0\",\"\",\"\",\"1-5\",\"4537\",\"38\",\"0\",\"Testing\",\"Stims/Figures/19-J-10-4.bmp\",\"ma:la:na\",\"Down\",\"40\",\"4\",\"14\",\"2\",\"S\",\"C\",\"86\"
\"\",\"\",\"approach-retreat\",\"235\",\"2032844\",\"0.0-235.0\",\"\",\"\",\"1-5\",\"5810\",\"39\",\"1\",\"Testing\",\"Stims/Figures/57-J-0-1.bmp\",\"ma:la:na\",\"Right\",\"39\",\"4\",\"15\",\"2\",\"S\",\"C\",\"87\"
\"\",\"\",\"approach-retreat\",\"236\",\"2040029\",\"0.0-236.0\",\"\",\"\",\"1-5\",\"5682\",\"38\",\"0\",\"Testing\",\"Stims/Figures/7-J-10-4.bmp\",\"ma:la:na\",\"Down\",\"40\",\"4\",\"16\",\"2\",\"S\",\"C\",\"88\"
\"\",\"\",\"approach-retreat\",\"237\",\"2047182\",\"0.0-237.0\",\"\",\"\",\"1-5\",\"5650\",\"38\",\"0\",\"Testing\",\"Stims/Figures/111-J-10-3.bmp\",\"ma:la:na\",\"Down\",\"40\",\"4\",\"17\",\"2\",\"S\",\"C\",\"89\"
\"\",\"\",\"approach-retreat\",\"238\",\"2054572\",\"0.0-238.0\",\"\",\"\",\"1-5\",\"5890\",\"37\",\"1\",\"Testing\",\"Stims/Figures/100-C-30-3.bmp\",\"ta:ka:ka\",\"Right\",\"37\",\"4\",\"18\",\"2\",\"P\",\"C\",\"90\"
\"\",\"\",\"approach-retreat\",\"239\",\"2062373\",\"0.0-239.0\",\"\",\"\",\"1-5\",\"6296\",\"39\",\"1\",\"Testing\",\"Stims/Figures/93-J-0-1.bmp\",\"ma:la:na\",\"Right\",\"39\",\"4\",\"19\",\"2\",\"S\",\"C\",\"91\"
\"\",\"\",\"approach-retreat\",\"240\",\"2071501\",\"0.0-240.0\",\"\",\"\",\"1-5\",\"7626\",\"37\",\"1\",\"Testing\",\"Stims/Figures/118-J-0-2.bmp\",\"ma:la:na\",\"Left\",\"37\",\"4\",\"20\",\"2\",\"S\",\"C\",\"92\"
\"\",\"\",\"approach-retreat\",\"241\",\"2077860\",\"0.0-241.0\",\"\",\"\",\"1-5\",\"4858\",\"38\",\"1\",\"Testing\",\"Stims/Figures/128-C-30-3.bmp\",\"ta:ka:ka\",\"Down\",\"38\",\"4\",\"21\",\"2\",\"P\",\"C\",\"93\"
\"\",\"\",\"approach-retreat\",\"242\",\"2085213\",\"0.0-242.0\",\"\",\"\",\"1-5\",\"5850\",\"40\",\"0\",\"Testing\",\"Stims/Figures/128-J-10-3.bmp\",\"ma:la:na\",\"Up\",\"38\",\"4\",\"22\",\"2\",\"S\",\"C\",\"94\"
\"\",\"\",\"approach-retreat\",\"243\",\"2091380\",\"0.0-243.0\",\"\",\"\",\"1-5\",\"4665\",\"37\",\"1\",\"Testing\",\"Stims/Figures/118-C-20-2.bmp\",\"ta:ka:ka\",\"Right\",\"37\",\"4\",\"23\",\"2\",\"P\",\"C\",\"95\"
\"\",\"\",\"approach-retreat\",\"244\",\"2097077\",\"0.0-244.0\",\"\",\"\",\"1-5\",\"4194\",\"40\",\"1\",\"Testing\",\"Stims/Figures/94-C-20-2.bmp\",\"ta:ka:ka\",\"Up\",\"40\",\"4\",\"24\",\"2\",\"P\",\"C\",\"96\"
\"34602\",\"\",\"survey-text\",\"245\",\"2131682\",\"0.0-245.0\",\"\",\"{\"\"Q0\"\":\"\"PS160082\"\"}\",\"\",\"\",\"\",\"\",\"\",\"\",\"\",\"\",\"\",\"\",\"\",\"\",\"\",\"\",\"\"
