\"rt\",\"key_press\",\"trial_type\",\"trial_index\",\"time_elapsed\",\"internal_node_id\",\"view_history\",\"responses\",\"Id\",\"Rt\",\"ResKeyCode\",\"ResCorr\",\"TrialType2\",\"Image\",\"Label\",\"Location\",\"CorrectResponse\",\"Block\",\"BlockTrial\",\"Condition\",\"LabelType\",\"Subcondition\",\"trialNum\"
\"87853\",\"32\",\"text\",\"0\",\"87858\",\"0.0-0.0-0.0\",\"\",\"\",\"\",\"\",\"\",\"\",\"\",\"\",\"\",\"\",\"\",\"\",\"\",\"\",\"\",\"\",\"\"
\"143197\",\"\",\"instructions\",\"1\",\"231057\",\"0.0-1.0\",\"[{\"\"page_index\"\":0,\"\"viewing_time\"\":143195}]\",\"\",\"\",\"\",\"\",\"\",\"\",\"\",\"\",\"\",\"\",\"\",\"\",\"\",\"\",\"\",\"\"
\"34016\",\"\",\"survey-multi-choice\",\"2\",\"265116\",\"0.0-2.0\",\"\",\"{\"\"Q0\"\":\"\"Da\"\",\"\"Q1\"\":\"\"Da\"\",\"\"Q2\"\":\"\"Da\"\",\"\"Q3\"\":\"\"Da\"\",\"\"Q4\"\":\"\"Da\"\",\"\"Q5\"\":\"\"Da\"\"}\",\"\",\"\",\"\",\"\",\"\",\"\",\"\",\"\",\"\",\"\",\"\",\"\",\"\",\"\",\"\"
\"\",\"\",\"bio\",\"3\",\"274501\",\"0.0-3.0\",\"\",\"{\"\"age\"\":\"\"20\"\",\"\"gender\"\":\"\"f\"\",\"\"specify\"\":\"\"\"\"}\",\"\",\"\",\"\",\"\",\"\",\"\",\"\",\"\",\"\",\"\",\"\",\"\",\"\",\"\",\"\"
\"\",\"\",\"approach-retreat\",\"4\",\"293085\",\"0.0-4.0\",\"\",\"\",\"3-3\",\"17071\",\"38\",\"0\",\"Training\",\"Stims/Figures/139-C-20-2.bmp\",\"ma:la:la\",\"Down\",\"40\",\"1\",\"1\",\"1\",\"S\",\"J\",\"1\"
\"\",\"\",\"approach-retreat\",\"5\",\"300867\",\"0.0-5.0\",\"\",\"\",\"3-3\",\"6273\",\"37\",\"1\",\"Training\",\"Stims/Figures/100-J-10-3.bmp\",\"ta:kaka\",\"Right\",\"37\",\"1\",\"2\",\"1\",\"P\",\"J\",\"2\"
\"\",\"\",\"approach-retreat\",\"6\",\"308186\",\"0.0-6.0\",\"\",\"\",\"3-3\",\"5810\",\"40\",\"1\",\"Training\",\"Stims/Figures/71-J-0-1.bmp\",\"ta:kaka\",\"Up\",\"40\",\"1\",\"3\",\"1\",\"P\",\"J\",\"3\"
\"\",\"\",\"approach-retreat\",\"7\",\"314331\",\"0.0-7.0\",\"\",\"\",\"3-3\",\"4637\",\"39\",\"1\",\"Training\",\"Stims/Figures/87-J-10-4.bmp\",\"ta:kaka\",\"Left\",\"39\",\"1\",\"4\",\"1\",\"P\",\"J\",\"4\"
\"\",\"\",\"approach-retreat\",\"8\",\"320442\",\"0.0-8.0\",\"\",\"\",\"3-3\",\"4603\",\"39\",\"1\",\"Training\",\"Stims/Figures/74-J-10-4.bmp\",\"ta:kaka\",\"Left\",\"39\",\"1\",\"5\",\"1\",\"P\",\"J\",\"5\"
\"\",\"\",\"approach-retreat\",\"9\",\"327307\",\"0.0-9.0\",\"\",\"\",\"3-3\",\"5356\",\"37\",\"1\",\"Training\",\"Stims/Figures/94-J-0-2.bmp\",\"ta:kaka\",\"Right\",\"37\",\"1\",\"6\",\"1\",\"P\",\"J\",\"6\"
\"\",\"\",\"approach-retreat\",\"10\",\"334202\",\"0.0-10.0\",\"\",\"\",\"3-3\",\"5387\",\"40\",\"0\",\"Training\",\"Stims/Figures/144-C-30-3.bmp\",\"ma:la:la\",\"Up\",\"38\",\"1\",\"7\",\"1\",\"S\",\"J\",\"7\"
\"\",\"\",\"approach-retreat\",\"11\",\"340219\",\"0.0-11.0\",\"\",\"\",\"3-3\",\"4507\",\"39\",\"1\",\"Training\",\"Stims/Figures/139-J-0-2.bmp\",\"ta:kaka\",\"Left\",\"39\",\"1\",\"8\",\"1\",\"P\",\"J\",\"8\"
\"\",\"\",\"approach-retreat\",\"12\",\"347057\",\"0.0-12.0\",\"\",\"\",\"3-3\",\"5327\",\"39\",\"1\",\"Training\",\"Stims/Figures/94-C-20-2.bmp\",\"ma:la:la\",\"Right\",\"39\",\"1\",\"9\",\"1\",\"S\",\"J\",\"9\"
\"\",\"\",\"approach-retreat\",\"13\",\"353794\",\"0.0-13.0\",\"\",\"\",\"3-3\",\"5229\",\"37\",\"1\",\"Training\",\"Stims/Figures/74-C-20-4.bmp\",\"ma:la:la\",\"Left\",\"37\",\"1\",\"10\",\"1\",\"S\",\"J\",\"10\"
\"\",\"\",\"approach-retreat\",\"14\",\"360203\",\"0.0-14.0\",\"\",\"\",\"3-3\",\"4900\",\"40\",\"1\",\"Training\",\"Stims/Figures/100-C-30-3.bmp\",\"ma:la:la\",\"Down\",\"40\",\"1\",\"11\",\"1\",\"S\",\"J\",\"11\"
\"\",\"\",\"approach-retreat\",\"15\",\"367106\",\"0.0-15.0\",\"\",\"\",\"3-3\",\"5397\",\"38\",\"1\",\"Training\",\"Stims/Figures/57-J-0-1.bmp\",\"ta:kaka\",\"Down\",\"38\",\"1\",\"12\",\"1\",\"P\",\"J\",\"12\"
\"\",\"\",\"approach-retreat\",\"16\",\"376042\",\"0.0-16.0\",\"\",\"\",\"3-3\",\"7428\",\"38\",\"1\",\"Training\",\"Stims/Figures/87-C-20-4.bmp\",\"ma:la:la\",\"Up\",\"38\",\"1\",\"13\",\"1\",\"S\",\"J\",\"13\"
\"\",\"\",\"approach-retreat\",\"17\",\"382234\",\"0.0-17.0\",\"\",\"\",\"3-3\",\"4684\",\"38\",\"1\",\"Training\",\"Stims/Figures/57-C-30-1.bmp\",\"ma:la:la\",\"Up\",\"38\",\"1\",\"14\",\"1\",\"S\",\"J\",\"14\"
\"\",\"\",\"approach-retreat\",\"18\",\"388769\",\"0.0-18.0\",\"\",\"\",\"3-3\",\"5027\",\"37\",\"1\",\"Training\",\"Stims/Figures/144-J-10-3.bmp\",\"ta:kaka\",\"Right\",\"37\",\"1\",\"15\",\"1\",\"P\",\"J\",\"15\"
\"\",\"\",\"approach-retreat\",\"19\",\"395578\",\"0.0-19.0\",\"\",\"\",\"3-3\",\"5300\",\"40\",\"1\",\"Training\",\"Stims/Figures/71-C-30-1.bmp\",\"ma:la:la\",\"Down\",\"40\",\"1\",\"16\",\"1\",\"S\",\"J\",\"16\"
\"\",\"\",\"approach-retreat\",\"20\",\"401978\",\"0.0-20.0\",\"\",\"\",\"3-3\",\"4890\",\"38\",\"1\",\"Training\",\"Stims/Figures/100-C-30-3.bmp\",\"ma:la:la\",\"Up\",\"38\",\"2\",\"1\",\"1\",\"S\",\"J\",\"17\"
\"\",\"\",\"approach-retreat\",\"21\",\"409018\",\"0.0-21.0\",\"\",\"\",\"3-3\",\"5533\",\"37\",\"1\",\"Training\",\"Stims/Figures/94-C-20-2.bmp\",\"ma:la:la\",\"Left\",\"37\",\"2\",\"2\",\"1\",\"S\",\"J\",\"18\"
\"\",\"\",\"approach-retreat\",\"22\",\"415946\",\"0.0-22.0\",\"\",\"\",\"3-3\",\"5419\",\"40\",\"1\",\"Training\",\"Stims/Figures/74-J-10-4.bmp\",\"ta:kaka\",\"Up\",\"40\",\"2\",\"3\",\"1\",\"P\",\"J\",\"19\"
\"\",\"\",\"approach-retreat\",\"23\",\"422650\",\"0.0-23.0\",\"\",\"\",\"3-3\",\"5196\",\"40\",\"1\",\"Training\",\"Stims/Figures/139-C-20-2.bmp\",\"ma:la:la\",\"Down\",\"40\",\"2\",\"4\",\"1\",\"S\",\"J\",\"20\"
\"\",\"\",\"approach-retreat\",\"24\",\"428625\",\"0.0-24.0\",\"\",\"\",\"3-3\",\"4467\",\"40\",\"1\",\"Training\",\"Stims/Figures/144-C-30-3.bmp\",\"ma:la:la\",\"Down\",\"40\",\"2\",\"5\",\"1\",\"S\",\"J\",\"21\"
\"\",\"\",\"approach-retreat\",\"25\",\"435409\",\"0.0-25.0\",\"\",\"\",\"3-3\",\"5277\",\"39\",\"1\",\"Training\",\"Stims/Figures/57-C-30-1.bmp\",\"ma:la:la\",\"Right\",\"39\",\"2\",\"6\",\"1\",\"S\",\"J\",\"22\"
\"\",\"\",\"approach-retreat\",\"26\",\"441537\",\"0.0-26.0\",\"\",\"\",\"3-3\",\"4619\",\"37\",\"1\",\"Training\",\"Stims/Figures/100-J-10-3.bmp\",\"ta:kaka\",\"Right\",\"37\",\"2\",\"7\",\"1\",\"P\",\"J\",\"23\"
\"\",\"\",\"approach-retreat\",\"27\",\"447843\",\"0.0-27.0\",\"\",\"\",\"3-3\",\"4798\",\"39\",\"1\",\"Training\",\"Stims/Figures/144-J-10-3.bmp\",\"ta:kaka\",\"Left\",\"39\",\"2\",\"8\",\"1\",\"P\",\"J\",\"24\"
\"\",\"\",\"approach-retreat\",\"28\",\"453962\",\"0.0-28.0\",\"\",\"\",\"3-3\",\"4611\",\"39\",\"1\",\"Training\",\"Stims/Figures/57-J-0-1.bmp\",\"ta:kaka\",\"Left\",\"39\",\"2\",\"9\",\"1\",\"P\",\"J\",\"25\"
\"\",\"\",\"approach-retreat\",\"29\",\"460930\",\"0.0-29.0\",\"\",\"\",\"3-3\",\"5460\",\"40\",\"1\",\"Training\",\"Stims/Figures/71-C-30-1.bmp\",\"ma:la:la\",\"Down\",\"40\",\"2\",\"10\",\"1\",\"S\",\"J\",\"26\"
\"\",\"\",\"approach-retreat\",\"30\",\"468177\",\"0.0-30.0\",\"\",\"\",\"3-3\",\"5738\",\"39\",\"1\",\"Training\",\"Stims/Figures/74-C-20-4.bmp\",\"ma:la:la\",\"Right\",\"39\",\"2\",\"11\",\"1\",\"S\",\"J\",\"27\"
\"\",\"\",\"approach-retreat\",\"31\",\"475123\",\"0.0-31.0\",\"\",\"\",\"3-3\",\"5438\",\"37\",\"1\",\"Training\",\"Stims/Figures/87-C-20-4.bmp\",\"ma:la:la\",\"Left\",\"37\",\"2\",\"12\",\"1\",\"S\",\"J\",\"28\"
\"\",\"\",\"approach-retreat\",\"32\",\"482481\",\"0.0-32.0\",\"\",\"\",\"3-3\",\"5851\",\"40\",\"1\",\"Training\",\"Stims/Figures/87-J-10-4.bmp\",\"ta:kaka\",\"Up\",\"40\",\"2\",\"13\",\"1\",\"P\",\"J\",\"29\"
\"\",\"\",\"approach-retreat\",\"33\",\"488523\",\"0.0-33.0\",\"\",\"\",\"3-3\",\"4533\",\"40\",\"1\",\"Training\",\"Stims/Figures/71-J-0-1.bmp\",\"ta:kaka\",\"Up\",\"40\",\"2\",\"14\",\"1\",\"P\",\"J\",\"30\"
\"\",\"\",\"approach-retreat\",\"34\",\"494874\",\"0.0-34.0\",\"\",\"\",\"3-3\",\"4839\",\"38\",\"1\",\"Training\",\"Stims/Figures/94-J-0-2.bmp\",\"ta:kaka\",\"Down\",\"38\",\"2\",\"15\",\"1\",\"P\",\"J\",\"31\"
\"\",\"\",\"approach-retreat\",\"35\",\"501235\",\"0.0-35.0\",\"\",\"\",\"3-3\",\"4851\",\"37\",\"1\",\"Training\",\"Stims/Figures/139-J-0-2.bmp\",\"ta:kaka\",\"Right\",\"37\",\"2\",\"16\",\"1\",\"P\",\"J\",\"32\"
\"\",\"\",\"approach-retreat\",\"36\",\"507194\",\"0.0-36.0\",\"\",\"\",\"3-3\",\"4450\",\"38\",\"1\",\"Training\",\"Stims/Figures/74-J-10-4.bmp\",\"ta:kaka\",\"Down\",\"38\",\"3\",\"1\",\"1\",\"P\",\"J\",\"33\"
\"\",\"\",\"approach-retreat\",\"37\",\"513387\",\"0.0-37.0\",\"\",\"\",\"3-3\",\"4685\",\"39\",\"1\",\"Training\",\"Stims/Figures/139-J-0-2.bmp\",\"ta:kaka\",\"Left\",\"39\",\"3\",\"2\",\"1\",\"P\",\"J\",\"34\"
\"\",\"\",\"approach-retreat\",\"38\",\"519355\",\"0.0-38.0\",\"\",\"\",\"3-3\",\"4460\",\"40\",\"1\",\"Training\",\"Stims/Figures/94-J-0-2.bmp\",\"ta:kaka\",\"Up\",\"40\",\"3\",\"3\",\"1\",\"P\",\"J\",\"35\"
\"\",\"\",\"approach-retreat\",\"39\",\"525250\",\"0.0-39.0\",\"\",\"\",\"3-3\",\"4387\",\"40\",\"1\",\"Training\",\"Stims/Figures/87-J-10-4.bmp\",\"ta:kaka\",\"Up\",\"40\",\"3\",\"4\",\"1\",\"P\",\"J\",\"36\"
\"\",\"\",\"approach-retreat\",\"40\",\"533171\",\"0.0-40.0\",\"\",\"\",\"3-3\",\"6410\",\"39\",\"1\",\"Training\",\"Stims/Figures/74-C-20-4.bmp\",\"ma:la:la\",\"Right\",\"39\",\"3\",\"5\",\"1\",\"S\",\"J\",\"37\"
\"\",\"\",\"approach-retreat\",\"41\",\"540628\",\"0.0-41.0\",\"\",\"\",\"3-3\",\"5950\",\"40\",\"1\",\"Training\",\"Stims/Figures/87-C-20-4.bmp\",\"ma:la:la\",\"Down\",\"40\",\"3\",\"6\",\"1\",\"S\",\"J\",\"38\"
\"\",\"\",\"approach-retreat\",\"42\",\"546890\",\"0.0-42.0\",\"\",\"\",\"3-3\",\"4754\",\"37\",\"1\",\"Training\",\"Stims/Figures/100-C-30-3.bmp\",\"ma:la:la\",\"Left\",\"37\",\"3\",\"7\",\"1\",\"S\",\"J\",\"39\"
\"\",\"\",\"approach-retreat\",\"43\",\"554187\",\"0.0-43.0\",\"\",\"\",\"3-3\",\"5790\",\"37\",\"1\",\"Training\",\"Stims/Figures/144-J-10-3.bmp\",\"ta:kaka\",\"Right\",\"37\",\"3\",\"8\",\"1\",\"P\",\"J\",\"40\"
\"\",\"\",\"approach-retreat\",\"44\",\"561274\",\"0.0-44.0\",\"\",\"\",\"3-3\",\"5580\",\"40\",\"1\",\"Training\",\"Stims/Figures/71-J-0-1.bmp\",\"ta:kaka\",\"Up\",\"40\",\"3\",\"9\",\"1\",\"P\",\"J\",\"41\"
\"\",\"\",\"approach-retreat\",\"45\",\"568099\",\"0.0-45.0\",\"\",\"\",\"3-3\",\"5316\",\"39\",\"1\",\"Training\",\"Stims/Figures/94-C-20-2.bmp\",\"ma:la:la\",\"Right\",\"39\",\"3\",\"10\",\"1\",\"S\",\"J\",\"42\"
\"\",\"\",\"approach-retreat\",\"46\",\"575730\",\"0.0-46.0\",\"\",\"\",\"3-3\",\"6123\",\"38\",\"1\",\"Training\",\"Stims/Figures/57-C-30-1.bmp\",\"ma:la:la\",\"Up\",\"38\",\"3\",\"11\",\"1\",\"S\",\"J\",\"43\"
\"\",\"\",\"approach-retreat\",\"47\",\"583227\",\"0.0-47.0\",\"\",\"\",\"3-3\",\"5988\",\"39\",\"1\",\"Training\",\"Stims/Figures/57-J-0-1.bmp\",\"ta:kaka\",\"Left\",\"39\",\"3\",\"12\",\"1\",\"P\",\"J\",\"44\"
\"\",\"\",\"approach-retreat\",\"48\",\"589578\",\"0.0-48.0\",\"\",\"\",\"3-3\",\"4843\",\"38\",\"1\",\"Training\",\"Stims/Figures/100-J-10-3.bmp\",\"ta:kaka\",\"Down\",\"38\",\"3\",\"13\",\"1\",\"P\",\"J\",\"45\"
\"\",\"\",\"approach-retreat\",\"49\",\"596356\",\"0.0-49.0\",\"\",\"\",\"3-3\",\"5269\",\"40\",\"1\",\"Training\",\"Stims/Figures/139-C-20-2.bmp\",\"ma:la:la\",\"Down\",\"40\",\"3\",\"14\",\"1\",\"S\",\"J\",\"46\"
\"\",\"\",\"approach-retreat\",\"50\",\"605203\",\"0.0-50.0\",\"\",\"\",\"3-3\",\"7339\",\"39\",\"1\",\"Training\",\"Stims/Figures/144-C-30-3.bmp\",\"ma:la:la\",\"Right\",\"39\",\"3\",\"15\",\"1\",\"S\",\"J\",\"47\"
\"\",\"\",\"approach-retreat\",\"51\",\"611604\",\"0.0-51.0\",\"\",\"\",\"3-3\",\"4891\",\"37\",\"1\",\"Training\",\"Stims/Figures/71-C-30-1.bmp\",\"ma:la:la\",\"Left\",\"37\",\"3\",\"16\",\"1\",\"S\",\"J\",\"48\"
\"\",\"\",\"approach-retreat\",\"52\",\"617722\",\"0.0-52.0\",\"\",\"\",\"3-3\",\"4610\",\"37\",\"1\",\"Training\",\"Stims/Figures/139-C-20-2.bmp\",\"ma:la:la\",\"Left\",\"37\",\"4\",\"1\",\"1\",\"S\",\"J\",\"49\"
\"\",\"\",\"approach-retreat\",\"53\",\"624131\",\"0.0-53.0\",\"\",\"\",\"3-3\",\"4901\",\"40\",\"1\",\"Training\",\"Stims/Figures/139-J-0-2.bmp\",\"ta:kaka\",\"Up\",\"40\",\"4\",\"2\",\"1\",\"P\",\"J\",\"50\"
\"\",\"\",\"approach-retreat\",\"54\",\"630282\",\"0.0-54.0\",\"\",\"\",\"3-3\",\"4643\",\"37\",\"1\",\"Training\",\"Stims/Figures/144-C-30-3.bmp\",\"ma:la:la\",\"Left\",\"37\",\"4\",\"3\",\"1\",\"S\",\"J\",\"51\"
\"\",\"\",\"approach-retreat\",\"55\",\"636970\",\"0.0-55.0\",\"\",\"\",\"3-3\",\"5179\",\"39\",\"1\",\"Training\",\"Stims/Figures/87-C-20-4.bmp\",\"ma:la:la\",\"Right\",\"39\",\"4\",\"4\",\"1\",\"S\",\"J\",\"52\"
\"\",\"\",\"approach-retreat\",\"56\",\"643594\",\"0.0-56.0\",\"\",\"\",\"3-3\",\"5116\",\"37\",\"1\",\"Training\",\"Stims/Figures/74-J-10-4.bmp\",\"ta:kaka\",\"Right\",\"37\",\"4\",\"5\",\"1\",\"P\",\"J\",\"53\"
\"\",\"\",\"approach-retreat\",\"57\",\"650164\",\"0.0-57.0\",\"\",\"\",\"3-3\",\"5061\",\"40\",\"1\",\"Training\",\"Stims/Figures/94-C-20-2.bmp\",\"ma:la:la\",\"Down\",\"40\",\"4\",\"6\",\"1\",\"S\",\"J\",\"54\"
\"\",\"\",\"approach-retreat\",\"58\",\"658834\",\"0.0-58.0\",\"\",\"\",\"3-3\",\"7161\",\"40\",\"1\",\"Training\",\"Stims/Figures/71-J-0-1.bmp\",\"ta:kaka\",\"Up\",\"40\",\"4\",\"7\",\"1\",\"P\",\"J\",\"55\"
\"\",\"\",\"approach-retreat\",\"59\",\"665059\",\"0.0-59.0\",\"\",\"\",\"3-3\",\"4716\",\"38\",\"1\",\"Training\",\"Stims/Figures/57-J-0-1.bmp\",\"ta:kaka\",\"Down\",\"38\",\"4\",\"8\",\"1\",\"P\",\"J\",\"56\"
\"\",\"\",\"approach-retreat\",\"60\",\"671346\",\"0.0-60.0\",\"\",\"\",\"3-3\",\"4778\",\"40\",\"1\",\"Training\",\"Stims/Figures/94-J-0-2.bmp\",\"ta:kaka\",\"Up\",\"40\",\"4\",\"9\",\"1\",\"P\",\"J\",\"57\"
\"\",\"\",\"approach-retreat\",\"61\",\"677684\",\"0.0-61.0\",\"\",\"\",\"3-3\",\"4828\",\"37\",\"0\",\"Training\",\"Stims/Figures/71-C-30-1.bmp\",\"ma:la:la\",\"Right\",\"39\",\"4\",\"10\",\"1\",\"S\",\"J\",\"58\"
\"\",\"\",\"approach-retreat\",\"62\",\"684155\",\"0.0-62.0\",\"\",\"\",\"3-3\",\"4963\",\"40\",\"0\",\"Training\",\"Stims/Figures/87-J-10-4.bmp\",\"ta:kaka\",\"Down\",\"38\",\"4\",\"11\",\"1\",\"P\",\"J\",\"59\"
\"\",\"\",\"approach-retreat\",\"63\",\"690514\",\"0.0-63.0\",\"\",\"\",\"3-3\",\"4850\",\"40\",\"1\",\"Training\",\"Stims/Figures/100-C-30-3.bmp\",\"ma:la:la\",\"Down\",\"40\",\"4\",\"12\",\"1\",\"S\",\"J\",\"60\"
\"\",\"\",\"approach-retreat\",\"64\",\"697354\",\"0.0-64.0\",\"\",\"\",\"3-3\",\"5332\",\"39\",\"1\",\"Training\",\"Stims/Figures/57-C-30-1.bmp\",\"ma:la:la\",\"Right\",\"39\",\"4\",\"13\",\"1\",\"S\",\"J\",\"61\"
\"\",\"\",\"approach-retreat\",\"65\",\"703643\",\"0.0-65.0\",\"\",\"\",\"3-3\",\"4781\",\"40\",\"1\",\"Training\",\"Stims/Figures/144-J-10-3.bmp\",\"ta:kaka\",\"Up\",\"40\",\"4\",\"14\",\"1\",\"P\",\"J\",\"62\"
\"\",\"\",\"approach-retreat\",\"66\",\"711401\",\"0.0-66.0\",\"\",\"\",\"3-3\",\"6251\",\"39\",\"1\",\"Training\",\"Stims/Figures/100-J-10-3.bmp\",\"ta:kaka\",\"Left\",\"39\",\"4\",\"15\",\"1\",\"P\",\"J\",\"63\"
\"\",\"\",\"approach-retreat\",\"67\",\"717524\",\"0.0-67.0\",\"\",\"\",\"3-3\",\"4612\",\"37\",\"1\",\"Training\",\"Stims/Figures/74-C-20-4.bmp\",\"ma:la:la\",\"Left\",\"37\",\"4\",\"16\",\"1\",\"S\",\"J\",\"64\"
\"\",\"\",\"approach-retreat\",\"68\",\"725171\",\"0.0-68.0\",\"\",\"\",\"3-3\",\"6138\",\"39\",\"1\",\"Training\",\"Stims/Figures/144-J-10-3.bmp\",\"ta:kaka\",\"Left\",\"39\",\"5\",\"1\",\"1\",\"P\",\"J\",\"65\"
\"\",\"\",\"approach-retreat\",\"69\",\"731524\",\"0.0-69.0\",\"\",\"\",\"3-3\",\"4845\",\"37\",\"1\",\"Training\",\"Stims/Figures/87-C-20-4.bmp\",\"ma:la:la\",\"Left\",\"37\",\"5\",\"2\",\"1\",\"S\",\"J\",\"66\"
\"\",\"\",\"approach-retreat\",\"70\",\"738619\",\"0.0-70.0\",\"\",\"\",\"3-3\",\"5587\",\"39\",\"1\",\"Training\",\"Stims/Figures/144-C-30-3.bmp\",\"ma:la:la\",\"Right\",\"39\",\"5\",\"3\",\"1\",\"S\",\"J\",\"67\"
\"\",\"\",\"approach-retreat\",\"71\",\"746115\",\"0.0-71.0\",\"\",\"\",\"3-3\",\"5988\",\"37\",\"1\",\"Training\",\"Stims/Figures/74-J-10-4.bmp\",\"ta:kaka\",\"Right\",\"37\",\"5\",\"4\",\"1\",\"P\",\"J\",\"68\"
\"\",\"\",\"approach-retreat\",\"72\",\"753227\",\"0.0-72.0\",\"\",\"\",\"3-3\",\"5603\",\"40\",\"1\",\"Training\",\"Stims/Figures/94-J-0-2.bmp\",\"ta:kaka\",\"Up\",\"40\",\"5\",\"5\",\"1\",\"P\",\"J\",\"69\"
\"\",\"\",\"approach-retreat\",\"73\",\"759403\",\"0.0-73.0\",\"\",\"\",\"3-3\",\"4668\",\"37\",\"1\",\"Training\",\"Stims/Figures/71-J-0-1.bmp\",\"ta:kaka\",\"Right\",\"37\",\"5\",\"6\",\"1\",\"P\",\"J\",\"70\"
\"\",\"\",\"approach-retreat\",\"74\",\"766555\",\"0.0-74.0\",\"\",\"\",\"3-3\",\"5642\",\"40\",\"1\",\"Training\",\"Stims/Figures/74-C-20-4.bmp\",\"ma:la:la\",\"Down\",\"40\",\"5\",\"7\",\"1\",\"S\",\"J\",\"71\"
\"\",\"\",\"approach-retreat\",\"75\",\"773499\",\"0.0-75.0\",\"\",\"\",\"3-3\",\"5437\",\"38\",\"1\",\"Training\",\"Stims/Figures/94-C-20-2.bmp\",\"ma:la:la\",\"Up\",\"38\",\"5\",\"8\",\"1\",\"S\",\"J\",\"72\"
\"\",\"\",\"approach-retreat\",\"76\",\"780154\",\"0.0-76.0\",\"\",\"\",\"3-3\",\"5147\",\"37\",\"1\",\"Training\",\"Stims/Figures/100-C-30-3.bmp\",\"ma:la:la\",\"Left\",\"37\",\"5\",\"9\",\"1\",\"S\",\"J\",\"73\"
\"\",\"\",\"approach-retreat\",\"77\",\"786283\",\"0.0-77.0\",\"\",\"\",\"3-3\",\"4619\",\"39\",\"1\",\"Training\",\"Stims/Figures/71-C-30-1.bmp\",\"ma:la:la\",\"Right\",\"39\",\"5\",\"10\",\"1\",\"S\",\"J\",\"74\"
\"\",\"\",\"approach-retreat\",\"78\",\"793090\",\"0.0-78.0\",\"\",\"\",\"3-3\",\"5299\",\"40\",\"1\",\"Training\",\"Stims/Figures/139-C-20-2.bmp\",\"ma:la:la\",\"Down\",\"40\",\"5\",\"11\",\"1\",\"S\",\"J\",\"75\"
\"\",\"\",\"approach-retreat\",\"79\",\"799363\",\"0.0-79.0\",\"\",\"\",\"3-3\",\"4764\",\"38\",\"1\",\"Training\",\"Stims/Figures/87-J-10-4.bmp\",\"ta:kaka\",\"Down\",\"38\",\"5\",\"12\",\"1\",\"P\",\"J\",\"76\"
\"\",\"\",\"approach-retreat\",\"80\",\"805714\",\"0.0-80.0\",\"\",\"\",\"3-3\",\"4848\",\"40\",\"1\",\"Training\",\"Stims/Figures/139-J-0-2.bmp\",\"ta:kaka\",\"Up\",\"40\",\"5\",\"13\",\"1\",\"P\",\"J\",\"77\"
\"\",\"\",\"approach-retreat\",\"81\",\"812667\",\"0.0-81.0\",\"\",\"\",\"3-3\",\"5444\",\"37\",\"1\",\"Training\",\"Stims/Figures/57-C-30-1.bmp\",\"ma:la:la\",\"Left\",\"37\",\"5\",\"14\",\"1\",\"S\",\"J\",\"78\"
\"\",\"\",\"approach-retreat\",\"82\",\"818947\",\"0.0-82.0\",\"\",\"\",\"3-3\",\"4771\",\"40\",\"1\",\"Training\",\"Stims/Figures/100-J-10-3.bmp\",\"ta:kaka\",\"Up\",\"40\",\"5\",\"15\",\"1\",\"P\",\"J\",\"79\"
\"\",\"\",\"approach-retreat\",\"83\",\"827788\",\"0.0-83.0\",\"\",\"\",\"3-3\",\"7333\",\"38\",\"1\",\"Training\",\"Stims/Figures/57-J-0-1.bmp\",\"ta:kaka\",\"Down\",\"38\",\"5\",\"16\",\"1\",\"P\",\"J\",\"80\"
\"\",\"\",\"approach-retreat\",\"84\",\"834010\",\"0.0-84.0\",\"\",\"\",\"3-3\",\"4714\",\"37\",\"1\",\"Training\",\"Stims/Figures/94-J-0-2.bmp\",\"ta:kaka\",\"Right\",\"37\",\"6\",\"1\",\"1\",\"P\",\"J\",\"81\"
\"\",\"\",\"approach-retreat\",\"85\",\"840475\",\"0.0-85.0\",\"\",\"\",\"3-3\",\"4956\",\"40\",\"1\",\"Training\",\"Stims/Figures/94-C-20-2.bmp\",\"ma:la:la\",\"Down\",\"40\",\"6\",\"2\",\"1\",\"S\",\"J\",\"82\"
\"\",\"\",\"approach-retreat\",\"86\",\"847122\",\"0.0-86.0\",\"\",\"\",\"3-3\",\"5140\",\"38\",\"1\",\"Training\",\"Stims/Figures/139-J-0-2.bmp\",\"ta:kaka\",\"Down\",\"38\",\"6\",\"3\",\"1\",\"P\",\"J\",\"83\"
\"\",\"\",\"approach-retreat\",\"87\",\"854459\",\"0.0-87.0\",\"\",\"\",\"3-3\",\"5829\",\"40\",\"1\",\"Training\",\"Stims/Figures/139-C-20-2.bmp\",\"ma:la:la\",\"Down\",\"40\",\"6\",\"4\",\"1\",\"S\",\"J\",\"84\"
\"\",\"\",\"approach-retreat\",\"88\",\"861666\",\"0.0-88.0\",\"\",\"\",\"3-3\",\"5699\",\"38\",\"1\",\"Training\",\"Stims/Figures/57-C-30-1.bmp\",\"ma:la:la\",\"Up\",\"38\",\"6\",\"5\",\"1\",\"S\",\"J\",\"85\"
\"\",\"\",\"approach-retreat\",\"89\",\"867700\",\"0.0-89.0\",\"\",\"\",\"3-3\",\"4524\",\"40\",\"1\",\"Training\",\"Stims/Figures/144-J-10-3.bmp\",\"ta:kaka\",\"Up\",\"40\",\"6\",\"6\",\"1\",\"P\",\"J\",\"86\"
\"\",\"\",\"approach-retreat\",\"90\",\"873634\",\"0.0-90.0\",\"\",\"\",\"3-3\",\"4426\",\"38\",\"1\",\"Training\",\"Stims/Figures/74-C-20-4.bmp\",\"ma:la:la\",\"Up\",\"38\",\"6\",\"7\",\"1\",\"S\",\"J\",\"87\"
\"\",\"\",\"approach-retreat\",\"91\",\"880124\",\"0.0-91.0\",\"\",\"\",\"3-3\",\"4981\",\"39\",\"1\",\"Training\",\"Stims/Figures/87-J-10-4.bmp\",\"ta:kaka\",\"Left\",\"39\",\"6\",\"8\",\"1\",\"P\",\"J\",\"88\"
\"\",\"\",\"approach-retreat\",\"92\",\"886371\",\"0.0-92.0\",\"\",\"\",\"3-3\",\"4739\",\"40\",\"1\",\"Training\",\"Stims/Figures/100-C-30-3.bmp\",\"ma:la:la\",\"Down\",\"40\",\"6\",\"9\",\"1\",\"S\",\"J\",\"89\"
\"\",\"\",\"approach-retreat\",\"93\",\"893035\",\"0.0-93.0\",\"\",\"\",\"3-3\",\"5156\",\"37\",\"1\",\"Training\",\"Stims/Figures/100-J-10-3.bmp\",\"ta:kaka\",\"Right\",\"37\",\"6\",\"10\",\"1\",\"P\",\"J\",\"90\"
\"\",\"\",\"approach-retreat\",\"94\",\"899035\",\"0.0-94.0\",\"\",\"\",\"3-3\",\"4490\",\"39\",\"1\",\"Training\",\"Stims/Figures/74-J-10-4.bmp\",\"ta:kaka\",\"Left\",\"39\",\"6\",\"11\",\"1\",\"P\",\"J\",\"91\"
\"\",\"\",\"approach-retreat\",\"95\",\"906860\",\"0.0-95.0\",\"\",\"\",\"3-3\",\"6316\",\"39\",\"1\",\"Training\",\"Stims/Figures/144-C-30-3.bmp\",\"ma:la:la\",\"Right\",\"39\",\"6\",\"12\",\"1\",\"S\",\"J\",\"92\"
\"\",\"\",\"approach-retreat\",\"96\",\"913163\",\"0.0-96.0\",\"\",\"\",\"3-3\",\"4795\",\"37\",\"1\",\"Training\",\"Stims/Figures/87-C-20-4.bmp\",\"ma:la:la\",\"Left\",\"37\",\"6\",\"13\",\"1\",\"S\",\"J\",\"93\"
\"\",\"\",\"approach-retreat\",\"97\",\"919467\",\"0.0-97.0\",\"\",\"\",\"3-3\",\"4796\",\"37\",\"1\",\"Training\",\"Stims/Figures/71-C-30-1.bmp\",\"ma:la:la\",\"Left\",\"37\",\"6\",\"14\",\"1\",\"S\",\"J\",\"94\"
\"\",\"\",\"approach-retreat\",\"98\",\"925635\",\"0.0-98.0\",\"\",\"\",\"3-3\",\"4659\",\"37\",\"1\",\"Training\",\"Stims/Figures/57-J-0-1.bmp\",\"ta:kaka\",\"Right\",\"37\",\"6\",\"15\",\"1\",\"P\",\"J\",\"95\"
\"\",\"\",\"approach-retreat\",\"99\",\"932178\",\"0.0-99.0\",\"\",\"\",\"3-3\",\"5037\",\"40\",\"1\",\"Training\",\"Stims/Figures/71-J-0-1.bmp\",\"ta:kaka\",\"Up\",\"40\",\"6\",\"16\",\"1\",\"P\",\"J\",\"96\"
\"\",\"\",\"approach-retreat\",\"100\",\"938570\",\"0.0-100.0\",\"\",\"\",\"3-3\",\"4884\",\"39\",\"1\",\"Training\",\"Stims/Figures/144-J-10-3.bmp\",\"ta:kaka\",\"Left\",\"39\",\"7\",\"1\",\"1\",\"P\",\"J\",\"97\"
\"\",\"\",\"approach-retreat\",\"101\",\"945595\",\"0.0-101.0\",\"\",\"\",\"3-3\",\"5517\",\"38\",\"0\",\"Training\",\"Stims/Figures/57-C-30-1.bmp\",\"ma:la:la\",\"Down\",\"40\",\"7\",\"2\",\"1\",\"S\",\"J\",\"98\"
\"\",\"\",\"approach-retreat\",\"102\",\"951858\",\"0.0-102.0\",\"\",\"\",\"3-3\",\"4755\",\"37\",\"1\",\"Training\",\"Stims/Figures/71-J-0-1.bmp\",\"ta:kaka\",\"Right\",\"37\",\"7\",\"3\",\"1\",\"P\",\"J\",\"99\"
\"\",\"\",\"approach-retreat\",\"103\",\"958683\",\"0.0-103.0\",\"\",\"\",\"3-3\",\"5316\",\"39\",\"1\",\"Training\",\"Stims/Figures/139-C-20-2.bmp\",\"ma:la:la\",\"Right\",\"39\",\"7\",\"4\",\"1\",\"S\",\"J\",\"100\"
\"\",\"\",\"approach-retreat\",\"104\",\"965979\",\"0.0-104.0\",\"\",\"\",\"3-3\",\"5788\",\"37\",\"1\",\"Training\",\"Stims/Figures/144-C-30-3.bmp\",\"ma:la:la\",\"Left\",\"37\",\"7\",\"5\",\"1\",\"S\",\"J\",\"101\"
\"\",\"\",\"approach-retreat\",\"105\",\"972715\",\"0.0-105.0\",\"\",\"\",\"3-3\",\"5229\",\"38\",\"1\",\"Training\",\"Stims/Figures/139-J-0-2.bmp\",\"ta:kaka\",\"Down\",\"38\",\"7\",\"6\",\"1\",\"P\",\"J\",\"102\"
\"\",\"\",\"approach-retreat\",\"106\",\"979210\",\"0.0-106.0\",\"\",\"\",\"3-3\",\"4986\",\"40\",\"1\",\"Training\",\"Stims/Figures/71-C-30-1.bmp\",\"ma:la:la\",\"Down\",\"40\",\"7\",\"7\",\"1\",\"S\",\"J\",\"103\"
\"\",\"\",\"approach-retreat\",\"107\",\"985482\",\"0.0-107.0\",\"\",\"\",\"3-3\",\"4764\",\"39\",\"1\",\"Training\",\"Stims/Figures/100-J-10-3.bmp\",\"ta:kaka\",\"Left\",\"39\",\"7\",\"8\",\"1\",\"P\",\"J\",\"104\"
\"\",\"\",\"approach-retreat\",\"108\",\"992419\",\"0.0-108.0\",\"\",\"\",\"3-3\",\"5427\",\"37\",\"1\",\"Training\",\"Stims/Figures/87-J-10-4.bmp\",\"ta:kaka\",\"Right\",\"37\",\"7\",\"9\",\"1\",\"P\",\"J\",\"105\"
\"\",\"\",\"approach-retreat\",\"109\",\"998531\",\"0.0-109.0\",\"\",\"\",\"3-3\",\"4604\",\"40\",\"1\",\"Training\",\"Stims/Figures/74-J-10-4.bmp\",\"ta:kaka\",\"Up\",\"40\",\"7\",\"10\",\"1\",\"P\",\"J\",\"106\"
\"\",\"\",\"approach-retreat\",\"110\",\"1004579\",\"0.0-110.0\",\"\",\"\",\"3-3\",\"4540\",\"38\",\"1\",\"Training\",\"Stims/Figures/74-C-20-4.bmp\",\"ma:la:la\",\"Up\",\"38\",\"7\",\"11\",\"1\",\"S\",\"J\",\"107\"
\"\",\"\",\"approach-retreat\",\"111\",\"1010611\",\"0.0-111.0\",\"\",\"\",\"3-3\",\"4524\",\"38\",\"1\",\"Training\",\"Stims/Figures/87-C-20-4.bmp\",\"ma:la:la\",\"Up\",\"38\",\"7\",\"12\",\"1\",\"S\",\"J\",\"108\"
\"\",\"\",\"approach-retreat\",\"112\",\"1016514\",\"0.0-112.0\",\"\",\"\",\"3-3\",\"4395\",\"40\",\"1\",\"Training\",\"Stims/Figures/94-J-0-2.bmp\",\"ta:kaka\",\"Up\",\"40\",\"7\",\"13\",\"1\",\"P\",\"J\",\"109\"
\"\",\"\",\"approach-retreat\",\"113\",\"1023532\",\"0.0-113.0\",\"\",\"\",\"3-3\",\"5508\",\"39\",\"1\",\"Training\",\"Stims/Figures/94-C-20-2.bmp\",\"ma:la:la\",\"Right\",\"39\",\"7\",\"14\",\"1\",\"S\",\"J\",\"110\"
\"\",\"\",\"approach-retreat\",\"114\",\"1029875\",\"0.0-114.0\",\"\",\"\",\"3-3\",\"4835\",\"39\",\"1\",\"Training\",\"Stims/Figures/57-J-0-1.bmp\",\"ta:kaka\",\"Left\",\"39\",\"7\",\"15\",\"1\",\"P\",\"J\",\"111\"
\"\",\"\",\"approach-retreat\",\"115\",\"1037323\",\"0.0-115.0\",\"\",\"\",\"3-3\",\"5939\",\"40\",\"1\",\"Training\",\"Stims/Figures/100-C-30-3.bmp\",\"ma:la:la\",\"Down\",\"40\",\"7\",\"16\",\"1\",\"S\",\"J\",\"112\"
\"\",\"\",\"approach-retreat\",\"116\",\"1043291\",\"0.0-116.0\",\"\",\"\",\"3-3\",\"4459\",\"38\",\"1\",\"Training\",\"Stims/Figures/87-J-10-4.bmp\",\"ta:kaka\",\"Down\",\"38\",\"8\",\"1\",\"1\",\"P\",\"J\",\"113\"
\"\",\"\",\"approach-retreat\",\"117\",\"1050107\",\"0.0-117.0\",\"\",\"\",\"3-3\",\"5305\",\"40\",\"1\",\"Training\",\"Stims/Figures/144-C-30-3.bmp\",\"ma:la:la\",\"Down\",\"40\",\"8\",\"2\",\"1\",\"S\",\"J\",\"114\"
\"\",\"\",\"approach-retreat\",\"118\",\"1056186\",\"0.0-118.0\",\"\",\"\",\"3-3\",\"4570\",\"37\",\"1\",\"Training\",\"Stims/Figures/100-J-10-3.bmp\",\"ta:kaka\",\"Right\",\"37\",\"8\",\"3\",\"1\",\"P\",\"J\",\"115\"
\"\",\"\",\"approach-retreat\",\"119\",\"1063283\",\"0.0-119.0\",\"\",\"\",\"3-3\",\"5588\",\"37\",\"1\",\"Training\",\"Stims/Figures/87-C-20-4.bmp\",\"ma:la:la\",\"Left\",\"37\",\"8\",\"4\",\"1\",\"S\",\"J\",\"116\"
\"\",\"\",\"approach-retreat\",\"120\",\"1070858\",\"0.0-120.0\",\"\",\"\",\"3-3\",\"6066\",\"40\",\"1\",\"Training\",\"Stims/Figures/94-J-0-2.bmp\",\"ta:kaka\",\"Up\",\"40\",\"8\",\"5\",\"1\",\"P\",\"J\",\"117\"
\"\",\"\",\"approach-retreat\",\"121\",\"1078195\",\"0.0-121.0\",\"\",\"\",\"3-3\",\"5828\",\"40\",\"1\",\"Training\",\"Stims/Figures/100-C-30-3.bmp\",\"ma:la:la\",\"Down\",\"40\",\"8\",\"6\",\"1\",\"S\",\"J\",\"118\"
\"\",\"\",\"approach-retreat\",\"122\",\"1084290\",\"0.0-122.0\",\"\",\"\",\"3-3\",\"4587\",\"40\",\"1\",\"Training\",\"Stims/Figures/57-J-0-1.bmp\",\"ta:kaka\",\"Up\",\"40\",\"8\",\"7\",\"1\",\"P\",\"J\",\"119\"
\"\",\"\",\"approach-retreat\",\"123\",\"1089883\",\"0.0-123.0\",\"\",\"\",\"3-3\",\"4084\",\"40\",\"1\",\"Training\",\"Stims/Figures/74-J-10-4.bmp\",\"ta:kaka\",\"Up\",\"40\",\"8\",\"8\",\"1\",\"P\",\"J\",\"120\"
\"\",\"\",\"approach-retreat\",\"124\",\"1096811\",\"0.0-124.0\",\"\",\"\",\"3-3\",\"5419\",\"37\",\"1\",\"Training\",\"Stims/Figures/71-J-0-1.bmp\",\"ta:kaka\",\"Right\",\"37\",\"8\",\"9\",\"1\",\"P\",\"J\",\"121\"
\"\",\"\",\"approach-retreat\",\"125\",\"1103979\",\"0.0-125.0\",\"\",\"\",\"3-3\",\"5660\",\"40\",\"1\",\"Training\",\"Stims/Figures/94-C-20-2.bmp\",\"ma:la:la\",\"Down\",\"40\",\"8\",\"10\",\"1\",\"S\",\"J\",\"122\"
\"\",\"\",\"approach-retreat\",\"126\",\"1110419\",\"0.0-126.0\",\"\",\"\",\"3-3\",\"4932\",\"37\",\"1\",\"Training\",\"Stims/Figures/71-C-30-1.bmp\",\"ma:la:la\",\"Left\",\"37\",\"8\",\"11\",\"1\",\"S\",\"J\",\"123\"
\"\",\"\",\"approach-retreat\",\"127\",\"1117018\",\"0.0-127.0\",\"\",\"\",\"3-3\",\"5091\",\"40\",\"1\",\"Training\",\"Stims/Figures/139-J-0-2.bmp\",\"ta:kaka\",\"Up\",\"40\",\"8\",\"12\",\"1\",\"P\",\"J\",\"124\"
\"\",\"\",\"approach-retreat\",\"128\",\"1123898\",\"0.0-128.0\",\"\",\"\",\"3-3\",\"5371\",\"37\",\"1\",\"Training\",\"Stims/Figures/139-C-20-2.bmp\",\"ma:la:la\",\"Left\",\"37\",\"8\",\"13\",\"1\",\"S\",\"J\",\"125\"
\"\",\"\",\"approach-retreat\",\"129\",\"1130859\",\"0.0-129.0\",\"\",\"\",\"3-3\",\"5453\",\"39\",\"1\",\"Training\",\"Stims/Figures/57-C-30-1.bmp\",\"ma:la:la\",\"Right\",\"39\",\"8\",\"14\",\"1\",\"S\",\"J\",\"126\"
\"\",\"\",\"approach-retreat\",\"130\",\"1136962\",\"0.0-130.0\",\"\",\"\",\"3-3\",\"4594\",\"37\",\"1\",\"Training\",\"Stims/Figures/144-J-10-3.bmp\",\"ta:kaka\",\"Right\",\"37\",\"8\",\"15\",\"1\",\"P\",\"J\",\"127\"
\"\",\"\",\"approach-retreat\",\"131\",\"1142987\",\"0.0-131.0\",\"\",\"\",\"3-3\",\"4517\",\"37\",\"1\",\"Training\",\"Stims/Figures/74-C-20-4.bmp\",\"ma:la:la\",\"Left\",\"37\",\"8\",\"16\",\"1\",\"S\",\"J\",\"128\"
\"\",\"\",\"approach-retreat\",\"132\",\"1148939\",\"0.0-132.0\",\"\",\"\",\"3-3\",\"4442\",\"37\",\"1\",\"Training\",\"Stims/Figures/139-J-0-2.bmp\",\"ta:kaka\",\"Right\",\"37\",\"9\",\"1\",\"1\",\"P\",\"J\",\"129\"
\"\",\"\",\"approach-retreat\",\"133\",\"1155667\",\"0.0-133.0\",\"\",\"\",\"3-3\",\"5219\",\"38\",\"1\",\"Training\",\"Stims/Figures/144-J-10-3.bmp\",\"ta:kaka\",\"Down\",\"38\",\"9\",\"2\",\"1\",\"P\",\"J\",\"130\"
\"\",\"\",\"approach-retreat\",\"134\",\"1162122\",\"0.0-134.0\",\"\",\"\",\"3-3\",\"4947\",\"38\",\"1\",\"Training\",\"Stims/Figures/57-C-30-1.bmp\",\"ma:la:la\",\"Up\",\"38\",\"9\",\"3\",\"1\",\"S\",\"J\",\"131\"
\"\",\"\",\"approach-retreat\",\"135\",\"1169011\",\"0.0-135.0\",\"\",\"\",\"3-3\",\"5380\",\"39\",\"1\",\"Training\",\"Stims/Figures/74-J-10-4.bmp\",\"ta:kaka\",\"Left\",\"39\",\"9\",\"4\",\"1\",\"P\",\"J\",\"132\"
\"\",\"\",\"approach-retreat\",\"136\",\"1176442\",\"0.0-136.0\",\"\",\"\",\"3-3\",\"5922\",\"38\",\"1\",\"Training\",\"Stims/Figures/74-C-20-4.bmp\",\"ma:la:la\",\"Up\",\"38\",\"9\",\"5\",\"1\",\"S\",\"J\",\"133\"
\"\",\"\",\"approach-retreat\",\"137\",\"1182467\",\"0.0-137.0\",\"\",\"\",\"3-3\",\"4517\",\"38\",\"1\",\"Training\",\"Stims/Figures/71-J-0-1.bmp\",\"ta:kaka\",\"Down\",\"38\",\"9\",\"6\",\"1\",\"P\",\"J\",\"134\"
\"\",\"\",\"approach-retreat\",\"138\",\"1189666\",\"0.0-138.0\",\"\",\"\",\"3-3\",\"5691\",\"37\",\"0\",\"Training\",\"Stims/Figures/94-J-0-2.bmp\",\"ta:kaka\",\"Left\",\"39\",\"9\",\"7\",\"1\",\"P\",\"J\",\"135\"
\"\",\"\",\"approach-retreat\",\"139\",\"1195563\",\"0.0-139.0\",\"\",\"\",\"3-3\",\"4389\",\"37\",\"1\",\"Training\",\"Stims/Figures/71-C-30-1.bmp\",\"ma:la:la\",\"Left\",\"37\",\"9\",\"8\",\"1\",\"S\",\"J\",\"136\"
\"\",\"\",\"approach-retreat\",\"140\",\"1202675\",\"0.0-140.0\",\"\",\"\",\"3-3\",\"5603\",\"37\",\"1\",\"Training\",\"Stims/Figures/87-J-10-4.bmp\",\"ta:kaka\",\"Right\",\"37\",\"9\",\"9\",\"1\",\"P\",\"J\",\"137\"
\"\",\"\",\"approach-retreat\",\"141\",\"1210380\",\"0.0-141.0\",\"\",\"\",\"3-3\",\"6197\",\"38\",\"1\",\"Training\",\"Stims/Figures/139-C-20-2.bmp\",\"ma:la:la\",\"Up\",\"38\",\"9\",\"10\",\"1\",\"S\",\"J\",\"138\"
\"\",\"\",\"approach-retreat\",\"142\",\"1218620\",\"0.0-142.0\",\"\",\"\",\"3-3\",\"6728\",\"37\",\"1\",\"Training\",\"Stims/Figures/87-C-20-4.bmp\",\"ma:la:la\",\"Left\",\"37\",\"9\",\"11\",\"1\",\"S\",\"J\",\"139\"
\"\",\"\",\"approach-retreat\",\"143\",\"1226551\",\"0.0-143.0\",\"\",\"\",\"3-3\",\"6422\",\"38\",\"1\",\"Training\",\"Stims/Figures/57-J-0-1.bmp\",\"ta:kaka\",\"Down\",\"38\",\"9\",\"12\",\"1\",\"P\",\"J\",\"140\"
\"\",\"\",\"approach-retreat\",\"144\",\"1233227\",\"0.0-144.0\",\"\",\"\",\"3-3\",\"5167\",\"39\",\"1\",\"Training\",\"Stims/Figures/144-C-30-3.bmp\",\"ma:la:la\",\"Right\",\"39\",\"9\",\"13\",\"1\",\"S\",\"J\",\"141\"
\"\",\"\",\"approach-retreat\",\"145\",\"1241083\",\"0.0-145.0\",\"\",\"\",\"3-3\",\"6349\",\"39\",\"1\",\"Training\",\"Stims/Figures/100-C-30-3.bmp\",\"ma:la:la\",\"Right\",\"39\",\"9\",\"14\",\"1\",\"S\",\"J\",\"142\"
\"\",\"\",\"approach-retreat\",\"146\",\"1247818\",\"0.0-146.0\",\"\",\"\",\"3-3\",\"5228\",\"40\",\"1\",\"Training\",\"Stims/Figures/94-C-20-2.bmp\",\"ma:la:la\",\"Down\",\"40\",\"9\",\"15\",\"1\",\"S\",\"J\",\"143\"
\"\",\"\",\"approach-retreat\",\"147\",\"1255859\",\"0.0-147.0\",\"\",\"\",\"3-3\",\"6532\",\"40\",\"1\",\"Training\",\"Stims/Figures/100-J-10-3.bmp\",\"ta:kaka\",\"Up\",\"40\",\"9\",\"16\",\"1\",\"P\",\"J\",\"144\"
\"41140\",\"\",\"instructions\",\"148\",\"1296999\",\"0.0-148.0\",\"[{\"\"page_index\"\":0,\"\"viewing_time\"\":41139}]\",\"\",\"\",\"\",\"\",\"\",\"\",\"\",\"\",\"\",\"\",\"\",\"\",\"\",\"\",\"\",\"\"
\"\",\"\",\"approach-retreat\",\"149\",\"1307002\",\"0.0-149.0\",\"\",\"\",\"3-3\",\"8496\",\"40\",\"1\",\"Testing\",\"Stims/Figures/7-C-20-4.bmp\",\"ma:la:la\",\"Down\",\"40\",\"1\",\"1\",\"1\",\"S\",\"J\",\"1\"
\"\",\"\",\"approach-retreat\",\"150\",\"1314826\",\"0.0-150.0\",\"\",\"\",\"3-3\",\"6318\",\"37\",\"1\",\"Testing\",\"Stims/Figures/139-C-20-2.bmp\",\"ma:la:la\",\"Left\",\"37\",\"1\",\"2\",\"1\",\"S\",\"J\",\"2\"
\"\",\"\",\"approach-retreat\",\"151\",\"1321441\",\"0.0-151.0\",\"\",\"\",\"3-3\",\"5109\",\"39\",\"0\",\"Testing\",\"Stims/Figures/57-J-0-1.bmp\",\"ta:kaka\",\"Right\",\"37\",\"1\",\"3\",\"1\",\"P\",\"J\",\"3\"
\"\",\"\",\"approach-retreat\",\"152\",\"1327875\",\"0.0-152.0\",\"\",\"\",\"3-3\",\"4926\",\"40\",\"1\",\"Testing\",\"Stims/Figures/57-C-30-1.bmp\",\"ma:la:la\",\"Down\",\"40\",\"1\",\"4\",\"1\",\"S\",\"J\",\"4\"
\"\",\"\",\"approach-retreat\",\"153\",\"1334449\",\"0.0-153.0\",\"\",\"\",\"3-3\",\"5068\",\"40\",\"0\",\"Testing\",\"Stims/Figures/94-C-20-2.bmp\",\"ma:la:la\",\"Up\",\"38\",\"1\",\"5\",\"1\",\"S\",\"J\",\"5\"
\"\",\"\",\"approach-retreat\",\"154\",\"1340858\",\"0.0-154.0\",\"\",\"\",\"3-3\",\"4901\",\"38\",\"1\",\"Testing\",\"Stims/Figures/74-C-20-4.bmp\",\"ma:la:la\",\"Up\",\"38\",\"1\",\"6\",\"1\",\"S\",\"J\",\"6\"
\"\",\"\",\"approach-retreat\",\"155\",\"1347058\",\"0.0-155.0\",\"\",\"\",\"3-3\",\"4692\",\"38\",\"1\",\"Testing\",\"Stims/Figures/100-J-10-3.bmp\",\"ta:kaka\",\"Down\",\"38\",\"1\",\"7\",\"1\",\"P\",\"J\",\"7\"
\"\",\"\",\"approach-retreat\",\"156\",\"1353121\",\"0.0-156.0\",\"\",\"\",\"3-3\",\"4557\",\"37\",\"0\",\"Testing\",\"Stims/Figures/144-C-30-3.bmp\",\"ma:la:la\",\"Right\",\"39\",\"1\",\"8\",\"1\",\"S\",\"J\",\"8\"
\"\",\"\",\"approach-retreat\",\"157\",\"1359210\",\"0.0-157.0\",\"\",\"\",\"3-3\",\"4581\",\"38\",\"1\",\"Testing\",\"Stims/Figures/71-J-0-1.bmp\",\"ta:kaka\",\"Down\",\"38\",\"1\",\"9\",\"1\",\"P\",\"J\",\"9\"
\"\",\"\",\"approach-retreat\",\"158\",\"1365347\",\"0.0-158.0\",\"\",\"\",\"3-3\",\"4630\",\"40\",\"0\",\"Testing\",\"Stims/Figures/74-J-10-4.bmp\",\"ta:kaka\",\"Down\",\"38\",\"1\",\"10\",\"1\",\"P\",\"J\",\"10\"
\"\",\"\",\"approach-retreat\",\"159\",\"1372811\",\"0.0-159.0\",\"\",\"\",\"3-3\",\"5957\",\"37\",\"1\",\"Testing\",\"Stims/Figures/85-C-20-2.bmp\",\"ma:la:la\",\"Left\",\"37\",\"1\",\"11\",\"1\",\"S\",\"J\",\"11\"
\"\",\"\",\"approach-retreat\",\"160\",\"1380939\",\"0.0-160.0\",\"\",\"\",\"3-3\",\"6621\",\"38\",\"1\",\"Testing\",\"Stims/Figures/87-C-20-4.bmp\",\"ma:la:la\",\"Up\",\"38\",\"1\",\"12\",\"1\",\"S\",\"J\",\"12\"
\"\",\"\",\"approach-retreat\",\"161\",\"1387459\",\"0.0-161.0\",\"\",\"\",\"3-3\",\"5012\",\"37\",\"1\",\"Testing\",\"Stims/Figures/93-C-30-1.bmp\",\"ma:la:la\",\"Left\",\"37\",\"1\",\"13\",\"1\",\"S\",\"J\",\"13\"
\"\",\"\",\"approach-retreat\",\"162\",\"1397339\",\"0.0-162.0\",\"\",\"\",\"3-3\",\"8373\",\"39\",\"1\",\"Testing\",\"Stims/Figures/71-C-30-1.bmp\",\"ma:la:la\",\"Right\",\"39\",\"1\",\"14\",\"1\",\"S\",\"J\",\"14\"
\"\",\"\",\"approach-retreat\",\"163\",\"1403778\",\"0.0-163.0\",\"\",\"\",\"3-3\",\"4931\",\"38\",\"1\",\"Testing\",\"Stims/Figures/139-J-0-2.bmp\",\"ta:kaka\",\"Down\",\"38\",\"1\",\"15\",\"1\",\"P\",\"J\",\"15\"
\"\",\"\",\"approach-retreat\",\"164\",\"1410867\",\"0.0-164.0\",\"\",\"\",\"3-3\",\"5581\",\"37\",\"1\",\"Testing\",\"Stims/Figures/94-J-0-2.bmp\",\"ta:kaka\",\"Right\",\"37\",\"1\",\"16\",\"1\",\"P\",\"J\",\"16\"
\"\",\"\",\"approach-retreat\",\"165\",\"1417314\",\"0.0-165.0\",\"\",\"\",\"3-3\",\"4938\",\"39\",\"0\",\"Testing\",\"Stims/Figures/85-J-0-2.bmp\",\"ta:kaka\",\"Right\",\"37\",\"1\",\"17\",\"1\",\"P\",\"J\",\"17\"
\"\",\"\",\"approach-retreat\",\"166\",\"1426035\",\"0.0-166.0\",\"\",\"\",\"3-3\",\"7214\",\"38\",\"0\",\"Testing\",\"Stims/Figures/128-J-10-3.bmp\",\"ta:kaka\",\"Up\",\"40\",\"1\",\"18\",\"1\",\"P\",\"J\",\"18\"
\"\",\"\",\"approach-retreat\",\"167\",\"1433002\",\"0.0-167.0\",\"\",\"\",\"3-3\",\"5455\",\"37\",\"0\",\"Testing\",\"Stims/Figures/93-J-0-1.bmp\",\"ta:kaka\",\"Left\",\"39\",\"1\",\"19\",\"1\",\"P\",\"J\",\"19\"
\"\",\"\",\"approach-retreat\",\"168\",\"1438963\",\"0.0-168.0\",\"\",\"\",\"3-3\",\"4454\",\"40\",\"1\",\"Testing\",\"Stims/Figures/144-J-10-3.bmp\",\"ta:kaka\",\"Up\",\"40\",\"1\",\"20\",\"1\",\"P\",\"J\",\"20\"
\"\",\"\",\"approach-retreat\",\"169\",\"1445242\",\"0.0-169.0\",\"\",\"\",\"3-3\",\"4774\",\"37\",\"0\",\"Testing\",\"Stims/Figures/7-J-10-4.bmp\",\"ta:kaka\",\"Left\",\"39\",\"1\",\"21\",\"1\",\"P\",\"J\",\"21\"
\"\",\"\",\"approach-retreat\",\"170\",\"1451379\",\"0.0-170.0\",\"\",\"\",\"3-3\",\"4629\",\"37\",\"1\",\"Testing\",\"Stims/Figures/100-C-30-3.bmp\",\"ma:la:la\",\"Left\",\"37\",\"1\",\"22\",\"1\",\"S\",\"J\",\"22\"
\"\",\"\",\"approach-retreat\",\"171\",\"1458090\",\"0.0-171.0\",\"\",\"\",\"3-3\",\"5205\",\"39\",\"0\",\"Testing\",\"Stims/Figures/87-J-10-4.bmp\",\"ta:kaka\",\"Right\",\"37\",\"1\",\"23\",\"1\",\"P\",\"J\",\"23\"
\"\",\"\",\"approach-retreat\",\"172\",\"1464291\",\"0.0-172.0\",\"\",\"\",\"3-3\",\"4693\",\"40\",\"0\",\"Testing\",\"Stims/Figures/128-C-30-3.bmp\",\"ma:la:la\",\"Up\",\"38\",\"1\",\"24\",\"1\",\"S\",\"J\",\"24\"
\"\",\"\",\"approach-retreat\",\"173\",\"1470570\",\"0.0-173.0\",\"\",\"\",\"3-3\",\"4768\",\"37\",\"1\",\"Testing\",\"Stims/Figures/57-J-0-1.bmp\",\"ta:kaka\",\"Right\",\"37\",\"2\",\"1\",\"1\",\"P\",\"J\",\"25\"
\"\",\"\",\"approach-retreat\",\"174\",\"1477003\",\"0.0-174.0\",\"\",\"\",\"3-3\",\"4925\",\"40\",\"0\",\"Testing\",\"Stims/Figures/85-J-0-2.bmp\",\"ta:kaka\",\"Down\",\"38\",\"2\",\"2\",\"1\",\"P\",\"J\",\"26\"
\"\",\"\",\"approach-retreat\",\"175\",\"1487315\",\"0.0-175.0\",\"\",\"\",\"3-3\",\"8805\",\"37\",\"0\",\"Testing\",\"Stims/Figures/71-C-30-1.bmp\",\"ma:la:la\",\"Right\",\"39\",\"2\",\"3\",\"1\",\"S\",\"J\",\"27\"
\"\",\"\",\"approach-retreat\",\"176\",\"1493587\",\"0.0-176.0\",\"\",\"\",\"3-3\",\"4764\",\"38\",\"0\",\"Testing\",\"Stims/Figures/74-J-10-4.bmp\",\"ta:kaka\",\"Up\",\"40\",\"2\",\"4\",\"1\",\"P\",\"J\",\"28\"
\"\",\"\",\"approach-retreat\",\"177\",\"1499739\",\"0.0-177.0\",\"\",\"\",\"3-3\",\"4645\",\"37\",\"1\",\"Testing\",\"Stims/Figures/74-C-20-4.bmp\",\"ma:la:la\",\"Left\",\"37\",\"2\",\"5\",\"1\",\"S\",\"J\",\"29\"
\"\",\"\",\"approach-retreat\",\"178\",\"1506507\",\"0.0-178.0\",\"\",\"\",\"3-3\",\"5261\",\"37\",\"1\",\"Testing\",\"Stims/Figures/144-J-10-3.bmp\",\"ta:kaka\",\"Right\",\"37\",\"2\",\"6\",\"1\",\"P\",\"J\",\"30\"
\"\",\"\",\"approach-retreat\",\"179\",\"1512923\",\"0.0-179.0\",\"\",\"\",\"3-3\",\"4910\",\"39\",\"0\",\"Testing\",\"Stims/Figures/128-C-30-3.bmp\",\"ma:la:la\",\"Left\",\"37\",\"2\",\"7\",\"1\",\"S\",\"J\",\"31\"
\"\",\"\",\"approach-retreat\",\"180\",\"1519210\",\"0.0-180.0\",\"\",\"\",\"3-3\",\"4780\",\"38\",\"0\",\"Testing\",\"Stims/Figures/100-C-30-3.bmp\",\"ma:la:la\",\"Down\",\"40\",\"2\",\"8\",\"1\",\"S\",\"J\",\"32\"
\"\",\"\",\"approach-retreat\",\"181\",\"1524955\",\"0.0-181.0\",\"\",\"\",\"3-3\",\"4238\",\"37\",\"1\",\"Testing\",\"Stims/Figures/85-C-20-2.bmp\",\"ma:la:la\",\"Left\",\"37\",\"2\",\"9\",\"1\",\"S\",\"J\",\"33\"
\"\",\"\",\"approach-retreat\",\"182\",\"1531170\",\"0.0-182.0\",\"\",\"\",\"3-3\",\"4709\",\"40\",\"0\",\"Testing\",\"Stims/Figures/7-J-10-4.bmp\",\"ta:kaka\",\"Down\",\"38\",\"2\",\"10\",\"1\",\"P\",\"J\",\"34\"
\"\",\"\",\"approach-retreat\",\"183\",\"1539563\",\"0.0-183.0\",\"\",\"\",\"3-3\",\"6885\",\"39\",\"0\",\"Testing\",\"Stims/Figures/71-J-0-1.bmp\",\"ta:kaka\",\"Right\",\"37\",\"2\",\"11\",\"1\",\"P\",\"J\",\"35\"
\"\",\"\",\"approach-retreat\",\"184\",\"1546266\",\"0.0-184.0\",\"\",\"\",\"3-3\",\"5197\",\"40\",\"1\",\"Testing\",\"Stims/Figures/87-C-20-4.bmp\",\"ma:la:la\",\"Down\",\"40\",\"2\",\"12\",\"1\",\"S\",\"J\",\"36\"
\"\",\"\",\"approach-retreat\",\"185\",\"1552931\",\"0.0-185.0\",\"\",\"\",\"3-3\",\"5158\",\"38\",\"0\",\"Testing\",\"Stims/Figures/93-J-0-1.bmp\",\"ta:kaka\",\"Up\",\"40\",\"2\",\"13\",\"1\",\"P\",\"J\",\"37\"
\"\",\"\",\"approach-retreat\",\"186\",\"1559715\",\"0.0-186.0\",\"\",\"\",\"3-3\",\"5275\",\"37\",\"1\",\"Testing\",\"Stims/Figures/7-C-20-4.bmp\",\"ma:la:la\",\"Left\",\"37\",\"2\",\"14\",\"1\",\"S\",\"J\",\"38\"
\"\",\"\",\"approach-retreat\",\"187\",\"1566010\",\"0.0-187.0\",\"\",\"\",\"3-3\",\"4790\",\"40\",\"0\",\"Testing\",\"Stims/Figures/139-C-20-2.bmp\",\"ma:la:la\",\"Up\",\"38\",\"2\",\"15\",\"1\",\"S\",\"J\",\"39\"
\"\",\"\",\"approach-retreat\",\"188\",\"1571986\",\"0.0-188.0\",\"\",\"\",\"3-3\",\"4468\",\"38\",\"0\",\"Testing\",\"Stims/Figures/87-J-10-4.bmp\",\"ta:kaka\",\"Up\",\"40\",\"2\",\"16\",\"1\",\"P\",\"J\",\"40\"
\"\",\"\",\"approach-retreat\",\"189\",\"1578443\",\"0.0-189.0\",\"\",\"\",\"3-3\",\"4950\",\"39\",\"1\",\"Testing\",\"Stims/Figures/93-C-30-1.bmp\",\"ma:la:la\",\"Right\",\"39\",\"2\",\"17\",\"1\",\"S\",\"J\",\"41\"
\"\",\"\",\"approach-retreat\",\"190\",\"1585034\",\"0.0-190.0\",\"\",\"\",\"3-3\",\"5084\",\"39\",\"1\",\"Testing\",\"Stims/Figures/94-C-20-2.bmp\",\"ma:la:la\",\"Right\",\"39\",\"2\",\"18\",\"1\",\"S\",\"J\",\"42\"
\"\",\"\",\"approach-retreat\",\"191\",\"1591243\",\"0.0-191.0\",\"\",\"\",\"3-3\",\"4702\",\"39\",\"1\",\"Testing\",\"Stims/Figures/128-J-10-3.bmp\",\"ta:kaka\",\"Left\",\"39\",\"2\",\"19\",\"1\",\"P\",\"J\",\"43\"
\"\",\"\",\"approach-retreat\",\"192\",\"1597954\",\"0.0-192.0\",\"\",\"\",\"3-3\",\"5204\",\"40\",\"1\",\"Testing\",\"Stims/Figures/94-J-0-2.bmp\",\"ta:kaka\",\"Up\",\"40\",\"2\",\"20\",\"1\",\"P\",\"J\",\"44\"
\"\",\"\",\"approach-retreat\",\"193\",\"1604171\",\"0.0-193.0\",\"\",\"\",\"3-3\",\"4711\",\"38\",\"0\",\"Testing\",\"Stims/Figures/144-C-30-3.bmp\",\"ma:la:la\",\"Down\",\"40\",\"2\",\"21\",\"1\",\"S\",\"J\",\"45\"
\"\",\"\",\"approach-retreat\",\"194\",\"1610667\",\"0.0-194.0\",\"\",\"\",\"3-3\",\"4989\",\"38\",\"0\",\"Testing\",\"Stims/Figures/57-C-30-1.bmp\",\"ma:la:la\",\"Down\",\"40\",\"2\",\"22\",\"1\",\"S\",\"J\",\"46\"
\"\",\"\",\"approach-retreat\",\"195\",\"1616883\",\"0.0-195.0\",\"\",\"\",\"3-3\",\"4710\",\"37\",\"0\",\"Testing\",\"Stims/Figures/100-J-10-3.bmp\",\"ta:kaka\",\"Left\",\"39\",\"2\",\"23\",\"1\",\"P\",\"J\",\"47\"
\"\",\"\",\"approach-retreat\",\"196\",\"1623219\",\"0.0-196.0\",\"\",\"\",\"3-3\",\"4829\",\"38\",\"0\",\"Testing\",\"Stims/Figures/139-J-0-2.bmp\",\"ta:kaka\",\"Up\",\"40\",\"2\",\"24\",\"1\",\"P\",\"J\",\"48\"
\"\",\"\",\"approach-retreat\",\"197\",\"1629724\",\"0.0-197.0\",\"\",\"\",\"3-3\",\"4998\",\"38\",\"1\",\"Testing\",\"Stims/Figures/128-C-30-3.bmp\",\"ma:la:la\",\"Up\",\"38\",\"3\",\"1\",\"1\",\"S\",\"J\",\"49\"
\"\",\"\",\"approach-retreat\",\"198\",\"1637267\",\"0.0-198.0\",\"\",\"\",\"3-3\",\"6036\",\"39\",\"0\",\"Testing\",\"Stims/Figures/74-J-10-4.bmp\",\"ta:kaka\",\"Right\",\"37\",\"3\",\"2\",\"1\",\"P\",\"J\",\"50\"
\"\",\"\",\"approach-retreat\",\"199\",\"1643516\",\"0.0-199.0\",\"\",\"\",\"3-3\",\"4742\",\"37\",\"0\",\"Testing\",\"Stims/Figures/144-C-30-3.bmp\",\"ma:la:la\",\"Right\",\"39\",\"3\",\"3\",\"1\",\"S\",\"J\",\"51\"
\"\",\"\",\"approach-retreat\",\"200\",\"1649699\",\"0.0-200.0\",\"\",\"\",\"3-3\",\"4676\",\"37\",\"0\",\"Testing\",\"Stims/Figures/7-J-10-4.bmp\",\"ta:kaka\",\"Left\",\"39\",\"3\",\"4\",\"1\",\"P\",\"J\",\"52\"
\"\",\"\",\"approach-retreat\",\"201\",\"1655882\",\"0.0-201.0\",\"\",\"\",\"3-3\",\"4678\",\"37\",\"0\",\"Testing\",\"Stims/Figures/128-J-10-3.bmp\",\"ta:kaka\",\"Left\",\"39\",\"3\",\"5\",\"1\",\"P\",\"J\",\"53\"
\"\",\"\",\"approach-retreat\",\"202\",\"1663107\",\"0.0-202.0\",\"\",\"\",\"3-3\",\"5717\",\"40\",\"1\",\"Testing\",\"Stims/Figures/94-J-0-2.bmp\",\"ta:kaka\",\"Up\",\"40\",\"3\",\"6\",\"1\",\"P\",\"J\",\"54\"
\"\",\"\",\"approach-retreat\",\"203\",\"1668802\",\"0.0-203.0\",\"\",\"\",\"3-3\",\"4189\",\"37\",\"1\",\"Testing\",\"Stims/Figures/85-C-20-2.bmp\",\"ma:la:la\",\"Left\",\"37\",\"3\",\"7\",\"1\",\"S\",\"J\",\"55\"
\"\",\"\",\"approach-retreat\",\"204\",\"1677307\",\"0.0-204.0\",\"\",\"\",\"3-3\",\"6996\",\"38\",\"0\",\"Testing\",\"Stims/Figures/87-J-10-4.bmp\",\"ta:kaka\",\"Up\",\"40\",\"3\",\"8\",\"1\",\"P\",\"J\",\"56\"
\"\",\"\",\"approach-retreat\",\"205\",\"1684700\",\"0.0-205.0\",\"\",\"\",\"3-3\",\"5885\",\"40\",\"1\",\"Testing\",\"Stims/Figures/100-C-30-3.bmp\",\"ma:la:la\",\"Down\",\"40\",\"3\",\"9\",\"1\",\"S\",\"J\",\"57\"
\"\",\"\",\"approach-retreat\",\"206\",\"1692154\",\"0.0-206.0\",\"\",\"\",\"3-3\",\"5948\",\"40\",\"1\",\"Testing\",\"Stims/Figures/139-C-20-2.bmp\",\"ma:la:la\",\"Down\",\"40\",\"3\",\"10\",\"1\",\"S\",\"J\",\"58\"
\"\",\"\",\"approach-retreat\",\"207\",\"1699452\",\"0.0-207.0\",\"\",\"\",\"3-3\",\"5790\",\"38\",\"1\",\"Testing\",\"Stims/Figures/7-C-20-4.bmp\",\"ma:la:la\",\"Up\",\"38\",\"3\",\"11\",\"1\",\"S\",\"J\",\"59\"
\"\",\"\",\"approach-retreat\",\"208\",\"1705571\",\"0.0-208.0\",\"\",\"\",\"3-3\",\"4612\",\"40\",\"1\",\"Testing\",\"Stims/Figures/144-J-10-3.bmp\",\"ta:kaka\",\"Up\",\"40\",\"3\",\"12\",\"1\",\"P\",\"J\",\"60\"
\"\",\"\",\"approach-retreat\",\"209\",\"1711963\",\"0.0-209.0\",\"\",\"\",\"3-3\",\"4885\",\"39\",\"1\",\"Testing\",\"Stims/Figures/139-J-0-2.bmp\",\"ta:kaka\",\"Left\",\"39\",\"3\",\"13\",\"1\",\"P\",\"J\",\"61\"
\"\",\"\",\"approach-retreat\",\"210\",\"1718954\",\"0.0-210.0\",\"\",\"\",\"3-3\",\"5484\",\"39\",\"1\",\"Testing\",\"Stims/Figures/57-C-30-1.bmp\",\"ma:la:la\",\"Right\",\"39\",\"3\",\"14\",\"1\",\"S\",\"J\",\"62\"
\"\",\"\",\"approach-retreat\",\"211\",\"1726675\",\"0.0-211.0\",\"\",\"\",\"3-3\",\"6214\",\"40\",\"1\",\"Testing\",\"Stims/Figures/71-C-30-1.bmp\",\"ma:la:la\",\"Down\",\"40\",\"3\",\"15\",\"1\",\"S\",\"J\",\"63\"
\"\",\"\",\"approach-retreat\",\"212\",\"1733018\",\"0.0-212.0\",\"\",\"\",\"3-3\",\"4836\",\"37\",\"1\",\"Testing\",\"Stims/Figures/93-C-30-1.bmp\",\"ma:la:la\",\"Left\",\"37\",\"3\",\"16\",\"1\",\"S\",\"J\",\"64\"
\"\",\"\",\"approach-retreat\",\"213\",\"1740699\",\"0.0-213.0\",\"\",\"\",\"3-3\",\"6174\",\"39\",\"0\",\"Testing\",\"Stims/Figures/87-C-20-4.bmp\",\"ma:la:la\",\"Left\",\"37\",\"3\",\"17\",\"1\",\"S\",\"J\",\"65\"
\"\",\"\",\"approach-retreat\",\"214\",\"1747129\",\"0.0-214.0\",\"\",\"\",\"3-3\",\"4925\",\"40\",\"0\",\"Testing\",\"Stims/Figures/100-J-10-3.bmp\",\"ta:kaka\",\"Down\",\"38\",\"3\",\"18\",\"1\",\"P\",\"J\",\"66\"
\"\",\"\",\"approach-retreat\",\"215\",\"1753179\",\"0.0-215.0\",\"\",\"\",\"3-3\",\"4542\",\"40\",\"0\",\"Testing\",\"Stims/Figures/93-J-0-1.bmp\",\"ta:kaka\",\"Down\",\"38\",\"3\",\"19\",\"1\",\"P\",\"J\",\"67\"
\"\",\"\",\"approach-retreat\",\"216\",\"1762251\",\"0.0-216.0\",\"\",\"\",\"3-3\",\"7564\",\"40\",\"1\",\"Testing\",\"Stims/Figures/74-C-20-4.bmp\",\"ma:la:la\",\"Down\",\"40\",\"3\",\"20\",\"1\",\"S\",\"J\",\"68\"
\"\",\"\",\"approach-retreat\",\"217\",\"1768595\",\"0.0-217.0\",\"\",\"\",\"3-3\",\"4838\",\"37\",\"1\",\"Testing\",\"Stims/Figures/71-J-0-1.bmp\",\"ta:kaka\",\"Right\",\"37\",\"3\",\"21\",\"1\",\"P\",\"J\",\"69\"
\"\",\"\",\"approach-retreat\",\"218\",\"1775514\",\"0.0-218.0\",\"\",\"\",\"3-3\",\"5412\",\"39\",\"0\",\"Testing\",\"Stims/Figures/85-J-0-2.bmp\",\"ta:kaka\",\"Right\",\"37\",\"3\",\"22\",\"1\",\"P\",\"J\",\"70\"
\"\",\"\",\"approach-retreat\",\"219\",\"1782627\",\"0.0-219.0\",\"\",\"\",\"3-3\",\"5605\",\"40\",\"1\",\"Testing\",\"Stims/Figures/57-J-0-1.bmp\",\"ta:kaka\",\"Up\",\"40\",\"3\",\"23\",\"1\",\"P\",\"J\",\"71\"
\"\",\"\",\"approach-retreat\",\"220\",\"1788842\",\"0.0-220.0\",\"\",\"\",\"3-3\",\"4708\",\"39\",\"1\",\"Testing\",\"Stims/Figures/94-C-20-2.bmp\",\"ma:la:la\",\"Right\",\"39\",\"3\",\"24\",\"1\",\"S\",\"J\",\"72\"
\"\",\"\",\"approach-retreat\",\"221\",\"1795331\",\"0.0-221.0\",\"\",\"\",\"3-3\",\"4981\",\"37\",\"1\",\"Testing\",\"Stims/Figures/74-C-20-4.bmp\",\"ma:la:la\",\"Left\",\"37\",\"4\",\"1\",\"1\",\"S\",\"J\",\"73\"
\"\",\"\",\"approach-retreat\",\"222\",\"1801883\",\"0.0-222.0\",\"\",\"\",\"3-3\",\"5045\",\"38\",\"0\",\"Testing\",\"Stims/Figures/139-J-0-2.bmp\",\"ta:kaka\",\"Up\",\"40\",\"4\",\"2\",\"1\",\"P\",\"J\",\"74\"
\"\",\"\",\"approach-retreat\",\"223\",\"1810635\",\"0.0-223.0\",\"\",\"\",\"3-3\",\"7246\",\"40\",\"1\",\"Testing\",\"Stims/Figures/100-C-30-3.bmp\",\"ma:la:la\",\"Down\",\"40\",\"4\",\"3\",\"1\",\"S\",\"J\",\"75\"
\"\",\"\",\"approach-retreat\",\"224\",\"1821083\",\"0.0-224.0\",\"\",\"\",\"3-3\",\"8940\",\"37\",\"1\",\"Testing\",\"Stims/Figures/57-J-0-1.bmp\",\"ta:kaka\",\"Right\",\"37\",\"4\",\"4\",\"1\",\"P\",\"J\",\"76\"
\"\",\"\",\"approach-retreat\",\"225\",\"1827154\",\"0.0-225.0\",\"\",\"\",\"3-3\",\"4564\",\"37\",\"0\",\"Testing\",\"Stims/Figures/74-J-10-4.bmp\",\"ta:kaka\",\"Left\",\"39\",\"4\",\"5\",\"1\",\"P\",\"J\",\"77\"
\"\",\"\",\"approach-retreat\",\"226\",\"1833730\",\"0.0-226.0\",\"\",\"\",\"3-3\",\"5070\",\"37\",\"1\",\"Testing\",\"Stims/Figures/139-C-20-2.bmp\",\"ma:la:la\",\"Left\",\"37\",\"4\",\"6\",\"1\",\"S\",\"J\",\"78\"
\"\",\"\",\"approach-retreat\",\"227\",\"1840122\",\"0.0-227.0\",\"\",\"\",\"3-3\",\"4886\",\"37\",\"1\",\"Testing\",\"Stims/Figures/94-J-0-2.bmp\",\"ta:kaka\",\"Right\",\"37\",\"4\",\"7\",\"1\",\"P\",\"J\",\"79\"
\"\",\"\",\"approach-retreat\",\"228\",\"1846211\",\"0.0-228.0\",\"\",\"\",\"3-3\",\"4582\",\"40\",\"1\",\"Testing\",\"Stims/Figures/85-C-20-2.bmp\",\"ma:la:la\",\"Down\",\"40\",\"4\",\"8\",\"1\",\"S\",\"J\",\"80\"
\"\",\"\",\"approach-retreat\",\"229\",\"1852339\",\"0.0-229.0\",\"\",\"\",\"3-3\",\"4621\",\"40\",\"0\",\"Testing\",\"Stims/Figures/144-C-30-3.bmp\",\"ma:la:la\",\"Up\",\"38\",\"4\",\"9\",\"1\",\"S\",\"J\",\"81\"
\"\",\"\",\"approach-retreat\",\"230\",\"1859468\",\"0.0-230.0\",\"\",\"\",\"3-3\",\"5623\",\"40\",\"0\",\"Testing\",\"Stims/Figures/87-C-20-4.bmp\",\"ma:la:la\",\"Up\",\"38\",\"4\",\"10\",\"1\",\"S\",\"J\",\"82\"
\"\",\"\",\"approach-retreat\",\"231\",\"1866267\",\"0.0-231.0\",\"\",\"\",\"3-3\",\"5292\",\"38\",\"0\",\"Testing\",\"Stims/Figures/93-J-0-1.bmp\",\"ta:kaka\",\"Up\",\"40\",\"4\",\"11\",\"1\",\"P\",\"J\",\"83\"
\"\",\"\",\"approach-retreat\",\"232\",\"1873723\",\"0.0-232.0\",\"\",\"\",\"3-3\",\"5949\",\"38\",\"1\",\"Testing\",\"Stims/Figures/128-C-30-3.bmp\",\"ma:la:la\",\"Up\",\"38\",\"4\",\"12\",\"1\",\"S\",\"J\",\"84\"
\"\",\"\",\"approach-retreat\",\"233\",\"1880915\",\"0.0-233.0\",\"\",\"\",\"3-3\",\"5682\",\"39\",\"1\",\"Testing\",\"Stims/Figures/94-C-20-2.bmp\",\"ma:la:la\",\"Right\",\"39\",\"4\",\"13\",\"1\",\"S\",\"J\",\"85\"
\"\",\"\",\"approach-retreat\",\"234\",\"1887339\",\"0.0-234.0\",\"\",\"\",\"3-3\",\"4919\",\"38\",\"0\",\"Testing\",\"Stims/Figures/57-C-30-1.bmp\",\"ma:la:la\",\"Down\",\"40\",\"4\",\"14\",\"1\",\"S\",\"J\",\"86\"
\"\",\"\",\"approach-retreat\",\"235\",\"1894659\",\"0.0-235.0\",\"\",\"\",\"3-3\",\"5814\",\"40\",\"0\",\"Testing\",\"Stims/Figures/128-J-10-3.bmp\",\"ta:kaka\",\"Down\",\"38\",\"4\",\"15\",\"1\",\"P\",\"J\",\"87\"
\"\",\"\",\"approach-retreat\",\"236\",\"1900611\",\"0.0-236.0\",\"\",\"\",\"3-3\",\"4446\",\"40\",\"1\",\"Testing\",\"Stims/Figures/144-J-10-3.bmp\",\"ta:kaka\",\"Up\",\"40\",\"4\",\"16\",\"1\",\"P\",\"J\",\"88\"
\"\",\"\",\"approach-retreat\",\"237\",\"1909418\",\"0.0-237.0\",\"\",\"\",\"3-3\",\"7301\",\"40\",\"1\",\"Testing\",\"Stims/Figures/71-C-30-1.bmp\",\"ma:la:la\",\"Down\",\"40\",\"4\",\"17\",\"1\",\"S\",\"J\",\"89\"
\"\",\"\",\"approach-retreat\",\"238\",\"1922291\",\"0.0-238.0\",\"\",\"\",\"3-3\",\"11367\",\"39\",\"0\",\"Testing\",\"Stims/Figures/85-J-0-2.bmp\",\"ta:kaka\",\"Right\",\"37\",\"4\",\"18\",\"1\",\"P\",\"J\",\"90\"
\"\",\"\",\"approach-retreat\",\"239\",\"1931971\",\"0.0-239.0\",\"\",\"\",\"3-3\",\"8172\",\"39\",\"1\",\"Testing\",\"Stims/Figures/71-J-0-1.bmp\",\"ta:kaka\",\"Left\",\"39\",\"4\",\"19\",\"1\",\"P\",\"J\",\"91\"
\"\",\"\",\"approach-retreat\",\"240\",\"1939668\",\"0.0-240.0\",\"\",\"\",\"3-3\",\"6190\",\"37\",\"0\",\"Testing\",\"Stims/Figures/7-J-10-4.bmp\",\"ta:kaka\",\"Left\",\"39\",\"4\",\"20\",\"1\",\"P\",\"J\",\"92\"
\"\",\"\",\"approach-retreat\",\"241\",\"1947091\",\"0.0-241.0\",\"\",\"\",\"3-3\",\"5915\",\"39\",\"1\",\"Testing\",\"Stims/Figures/93-C-30-1.bmp\",\"ma:la:la\",\"Right\",\"39\",\"4\",\"21\",\"1\",\"S\",\"J\",\"93\"
\"\",\"\",\"approach-retreat\",\"242\",\"1954683\",\"0.0-242.0\",\"\",\"\",\"3-3\",\"6085\",\"39\",\"1\",\"Testing\",\"Stims/Figures/100-J-10-3.bmp\",\"ta:kaka\",\"Left\",\"39\",\"4\",\"22\",\"1\",\"P\",\"J\",\"94\"
\"\",\"\",\"approach-retreat\",\"243\",\"1962538\",\"0.0-243.0\",\"\",\"\",\"3-3\",\"6348\",\"37\",\"1\",\"Testing\",\"Stims/Figures/87-J-10-4.bmp\",\"ta:kaka\",\"Right\",\"37\",\"4\",\"23\",\"1\",\"P\",\"J\",\"95\"
\"\",\"\",\"approach-retreat\",\"244\",\"1968611\",\"0.0-244.0\",\"\",\"\",\"3-3\",\"4566\",\"40\",\"1\",\"Testing\",\"Stims/Figures/7-C-20-4.bmp\",\"ma:la:la\",\"Down\",\"40\",\"4\",\"24\",\"1\",\"S\",\"J\",\"96\"
\"84991\",\"\",\"survey-text\",\"245\",\"2053608\",\"0.0-245.0\",\"\",\"{\"\"Q0\"\":\"\"1239/2017\"\"}\",\"\",\"\",\"\",\"\",\"\",\"\",\"\",\"\",\"\",\"\",\"\",\"\",\"\",\"\",\"\"
