\"rt\",\"key_press\",\"trial_type\",\"trial_index\",\"time_elapsed\",\"internal_node_id\",\"view_history\",\"responses\",\"Id\",\"Rt\",\"ResKeyCode\",\"ResCorr\",\"TrialType2\",\"Image\",\"Label\",\"Location\",\"CorrectResponse\",\"Block\",\"BlockTrial\",\"Condition\",\"LabelType\",\"Subcondition\",\"trialNum\"
\"27845\",\"32\",\"text\",\"0\",\"27857\",\"0.0-0.0-0.0\",\"\",\"\",\"\",\"\",\"\",\"\",\"\",\"\",\"\",\"\",\"\",\"\",\"\",\"\",\"\",\"\",\"\"
\"77397\",\"\",\"instructions\",\"1\",\"105266\",\"0.0-1.0\",\"[{\"\"page_index\"\":0,\"\"viewing_time\"\":77394}]\",\"\",\"\",\"\",\"\",\"\",\"\",\"\",\"\",\"\",\"\",\"\",\"\",\"\",\"\",\"\",\"\"
\"17297\",\"\",\"survey-multi-choice\",\"2\",\"122667\",\"0.0-2.0\",\"\",\"{\"\"Q0\"\":\"\"Da\"\",\"\"Q1\"\":\"\"Da\"\",\"\"Q2\"\":\"\"Da\"\",\"\"Q3\"\":\"\"Da\"\",\"\"Q4\"\":\"\"Da\"\",\"\"Q5\"\":\"\"Da\"\"}\",\"\",\"\",\"\",\"\",\"\",\"\",\"\",\"\",\"\",\"\",\"\",\"\",\"\",\"\",\"\"
\"\",\"\",\"bio\",\"3\",\"131310\",\"0.0-3.0\",\"\",\"{\"\"age\"\":\"\"20\"\",\"\"gender\"\":\"\"f\"\",\"\"specify\"\":\"\"\"\"}\",\"\",\"\",\"\",\"\",\"\",\"\",\"\",\"\",\"\",\"\",\"\",\"\",\"\",\"\",\"\"
\"\",\"\",\"approach-retreat\",\"4\",\"145603\",\"0.0-4.0\",\"\",\"\",\"2-3\",\"12770\",\"38\",\"1\",\"Training\",\"Stims/Figures/102-J-10-4.bmp\",\"None\",\"Up\",\"38\",\"1\",\"1\",\"10\",\"N\",\"C\",\"1\"
\"\",\"\",\"approach-retreat\",\"5\",\"155300\",\"0.0-5.0\",\"\",\"\",\"2-3\",\"8159\",\"39\",\"0\",\"Training\",\"Stims/Figures/111-J-10-3.bmp\",\"None\",\"Left\",\"37\",\"1\",\"2\",\"10\",\"N\",\"C\",\"2\"
\"\",\"\",\"approach-retreat\",\"6\",\"161751\",\"0.0-6.0\",\"\",\"\",\"2-3\",\"4921\",\"39\",\"1\",\"Training\",\"Stims/Figures/7-J-10-4.bmp\",\"None\",\"Right\",\"39\",\"1\",\"3\",\"10\",\"N\",\"C\",\"3\"
\"\",\"\",\"approach-retreat\",\"7\",\"167513\",\"0.0-7.0\",\"\",\"\",\"2-3\",\"4229\",\"39\",\"0\",\"Training\",\"Stims/Figures/84-C-20-2.bmp\",\"None\",\"Right\",\"37\",\"1\",\"4\",\"10\",\"N\",\"C\",\"4\"
\"\",\"\",\"approach-retreat\",\"8\",\"175368\",\"0.0-8.0\",\"\",\"\",\"2-3\",\"6322\",\"40\",\"1\",\"Training\",\"Stims/Figures/144-J-10-3.bmp\",\"None\",\"Down\",\"40\",\"1\",\"5\",\"10\",\"N\",\"C\",\"5\"
\"\",\"\",\"approach-retreat\",\"9\",\"183307\",\"0.0-9.0\",\"\",\"\",\"2-3\",\"6406\",\"38\",\"0\",\"Training\",\"Stims/Figures/139-C-20-2.bmp\",\"None\",\"Up\",\"40\",\"1\",\"6\",\"10\",\"N\",\"C\",\"6\"
\"\",\"\",\"approach-retreat\",\"10\",\"189377\",\"0.0-10.0\",\"\",\"\",\"2-3\",\"4538\",\"38\",\"0\",\"Training\",\"Stims/Figures/71-J-0-1.bmp\",\"None\",\"Down\",\"40\",\"1\",\"7\",\"10\",\"N\",\"C\",\"7\"
\"\",\"\",\"approach-retreat\",\"11\",\"196221\",\"0.0-11.0\",\"\",\"\",\"2-3\",\"5309\",\"40\",\"1\",\"Training\",\"Stims/Figures/71-C-30-1.bmp\",\"None\",\"Up\",\"40\",\"1\",\"8\",\"10\",\"N\",\"C\",\"8\"
\"\",\"\",\"approach-retreat\",\"12\",\"203483\",\"0.0-12.0\",\"\",\"\",\"2-3\",\"5732\",\"39\",\"1\",\"Training\",\"Stims/Figures/86-C-30-1.bmp\",\"None\",\"Left\",\"39\",\"1\",\"9\",\"10\",\"N\",\"C\",\"9\"
\"\",\"\",\"approach-retreat\",\"13\",\"211928\",\"0.0-13.0\",\"\",\"\",\"2-3\",\"6915\",\"38\",\"1\",\"Training\",\"Stims/Figures/7-C-20-4.bmp\",\"None\",\"Down\",\"38\",\"1\",\"10\",\"10\",\"N\",\"C\",\"10\"
\"\",\"\",\"approach-retreat\",\"14\",\"218460\",\"0.0-14.0\",\"\",\"\",\"2-3\",\"5007\",\"39\",\"1\",\"Training\",\"Stims/Figures/102-C-20-4.bmp\",\"None\",\"Left\",\"39\",\"1\",\"11\",\"10\",\"N\",\"C\",\"11\"
\"\",\"\",\"approach-retreat\",\"15\",\"224983\",\"0.0-15.0\",\"\",\"\",\"2-3\",\"4997\",\"37\",\"1\",\"Training\",\"Stims/Figures/111-C-30-3.bmp\",\"None\",\"Right\",\"37\",\"1\",\"12\",\"10\",\"N\",\"C\",\"12\"
\"\",\"\",\"approach-retreat\",\"16\",\"231749\",\"0.0-16.0\",\"\",\"\",\"2-3\",\"5235\",\"39\",\"1\",\"Training\",\"Stims/Figures/139-J-0-2.bmp\",\"None\",\"Right\",\"39\",\"1\",\"13\",\"10\",\"N\",\"C\",\"13\"
\"\",\"\",\"approach-retreat\",\"17\",\"238234\",\"0.0-17.0\",\"\",\"\",\"2-3\",\"4957\",\"39\",\"1\",\"Training\",\"Stims/Figures/144-C-30-3.bmp\",\"None\",\"Left\",\"39\",\"1\",\"14\",\"10\",\"N\",\"C\",\"14\"
\"\",\"\",\"approach-retreat\",\"18\",\"244838\",\"0.0-18.0\",\"\",\"\",\"2-3\",\"5074\",\"40\",\"1\",\"Training\",\"Stims/Figures/84-J-0-2.bmp\",\"None\",\"Down\",\"40\",\"1\",\"15\",\"10\",\"N\",\"C\",\"15\"
\"\",\"\",\"approach-retreat\",\"19\",\"252386\",\"0.0-19.0\",\"\",\"\",\"2-3\",\"6020\",\"38\",\"1\",\"Training\",\"Stims/Figures/86-J-0-1.bmp\",\"None\",\"Up\",\"38\",\"1\",\"16\",\"10\",\"N\",\"C\",\"16\"
\"\",\"\",\"approach-retreat\",\"20\",\"260986\",\"0.0-20.0\",\"\",\"\",\"2-3\",\"7071\",\"39\",\"1\",\"Training\",\"Stims/Figures/7-J-10-4.bmp\",\"None\",\"Right\",\"39\",\"2\",\"1\",\"10\",\"N\",\"C\",\"17\"
\"\",\"\",\"approach-retreat\",\"21\",\"268108\",\"0.0-21.0\",\"\",\"\",\"2-3\",\"5592\",\"38\",\"1\",\"Training\",\"Stims/Figures/84-J-0-2.bmp\",\"None\",\"Up\",\"38\",\"2\",\"2\",\"10\",\"N\",\"C\",\"18\"
\"\",\"\",\"approach-retreat\",\"22\",\"276512\",\"0.0-22.0\",\"\",\"\",\"2-3\",\"6875\",\"39\",\"1\",\"Training\",\"Stims/Figures/84-C-20-2.bmp\",\"None\",\"Left\",\"39\",\"2\",\"3\",\"10\",\"N\",\"C\",\"19\"
\"\",\"\",\"approach-retreat\",\"23\",\"282753\",\"0.0-23.0\",\"\",\"\",\"2-3\",\"4712\",\"38\",\"1\",\"Training\",\"Stims/Figures/144-C-30-3.bmp\",\"None\",\"Down\",\"38\",\"2\",\"4\",\"10\",\"N\",\"C\",\"20\"
\"\",\"\",\"approach-retreat\",\"24\",\"289060\",\"0.0-24.0\",\"\",\"\",\"2-3\",\"4775\",\"39\",\"1\",\"Training\",\"Stims/Figures/111-C-30-3.bmp\",\"None\",\"Left\",\"39\",\"2\",\"5\",\"10\",\"N\",\"C\",\"21\"
\"\",\"\",\"approach-retreat\",\"25\",\"294650\",\"0.0-25.0\",\"\",\"\",\"2-3\",\"4059\",\"38\",\"1\",\"Training\",\"Stims/Figures/7-C-20-4.bmp\",\"None\",\"Down\",\"38\",\"2\",\"6\",\"10\",\"N\",\"C\",\"22\"
\"\",\"\",\"approach-retreat\",\"26\",\"307497\",\"0.0-26.0\",\"\",\"\",\"2-3\",\"11315\",\"40\",\"0\",\"Training\",\"Stims/Figures/111-J-10-3.bmp\",\"None\",\"Up\",\"38\",\"2\",\"7\",\"10\",\"N\",\"C\",\"23\"
\"\",\"\",\"approach-retreat\",\"27\",\"314079\",\"0.0-27.0\",\"\",\"\",\"2-3\",\"5052\",\"37\",\"1\",\"Training\",\"Stims/Figures/71-J-0-1.bmp\",\"None\",\"Left\",\"37\",\"2\",\"8\",\"10\",\"N\",\"C\",\"24\"
\"\",\"\",\"approach-retreat\",\"28\",\"320521\",\"0.0-28.0\",\"\",\"\",\"2-3\",\"4911\",\"37\",\"1\",\"Training\",\"Stims/Figures/86-C-30-1.bmp\",\"None\",\"Right\",\"37\",\"2\",\"9\",\"10\",\"N\",\"C\",\"25\"
\"\",\"\",\"approach-retreat\",\"29\",\"326746\",\"0.0-29.0\",\"\",\"\",\"2-3\",\"4696\",\"39\",\"1\",\"Training\",\"Stims/Figures/144-J-10-3.bmp\",\"None\",\"Right\",\"39\",\"2\",\"10\",\"10\",\"N\",\"C\",\"26\"
\"\",\"\",\"approach-retreat\",\"30\",\"334432\",\"0.0-30.0\",\"\",\"\",\"2-3\",\"6156\",\"39\",\"1\",\"Training\",\"Stims/Figures/102-J-10-4.bmp\",\"None\",\"Right\",\"39\",\"2\",\"11\",\"10\",\"N\",\"C\",\"27\"
\"\",\"\",\"approach-retreat\",\"31\",\"342687\",\"0.0-31.0\",\"\",\"\",\"2-3\",\"6723\",\"40\",\"0\",\"Training\",\"Stims/Figures/102-C-20-4.bmp\",\"None\",\"Down\",\"38\",\"2\",\"12\",\"10\",\"N\",\"C\",\"28\"
\"\",\"\",\"approach-retreat\",\"32\",\"349209\",\"0.0-32.0\",\"\",\"\",\"2-3\",\"4992\",\"40\",\"1\",\"Training\",\"Stims/Figures/71-C-30-1.bmp\",\"None\",\"Up\",\"40\",\"2\",\"13\",\"10\",\"N\",\"C\",\"29\"
\"\",\"\",\"approach-retreat\",\"33\",\"356059\",\"0.0-33.0\",\"\",\"\",\"2-3\",\"5323\",\"40\",\"1\",\"Training\",\"Stims/Figures/86-J-0-1.bmp\",\"None\",\"Down\",\"40\",\"2\",\"14\",\"10\",\"N\",\"C\",\"30\"
\"\",\"\",\"approach-retreat\",\"34\",\"363007\",\"0.0-34.0\",\"\",\"\",\"2-3\",\"5419\",\"40\",\"1\",\"Training\",\"Stims/Figures/139-C-20-2.bmp\",\"None\",\"Up\",\"40\",\"2\",\"15\",\"10\",\"N\",\"C\",\"31\"
\"\",\"\",\"approach-retreat\",\"35\",\"368998\",\"0.0-35.0\",\"\",\"\",\"2-3\",\"4461\",\"37\",\"1\",\"Training\",\"Stims/Figures/139-J-0-2.bmp\",\"None\",\"Left\",\"37\",\"2\",\"16\",\"10\",\"N\",\"C\",\"32\"
\"\",\"\",\"approach-retreat\",\"36\",\"375600\",\"0.0-36.0\",\"\",\"\",\"2-3\",\"5071\",\"38\",\"1\",\"Training\",\"Stims/Figures/144-C-30-3.bmp\",\"None\",\"Down\",\"38\",\"3\",\"1\",\"10\",\"N\",\"C\",\"33\"
\"\",\"\",\"approach-retreat\",\"37\",\"382182\",\"0.0-37.0\",\"\",\"\",\"2-3\",\"5051\",\"38\",\"1\",\"Training\",\"Stims/Figures/71-J-0-1.bmp\",\"None\",\"Up\",\"38\",\"3\",\"2\",\"10\",\"N\",\"C\",\"34\"
\"\",\"\",\"approach-retreat\",\"38\",\"388619\",\"0.0-38.0\",\"\",\"\",\"2-3\",\"4907\",\"38\",\"1\",\"Training\",\"Stims/Figures/86-J-0-1.bmp\",\"None\",\"Up\",\"38\",\"3\",\"3\",\"10\",\"N\",\"C\",\"35\"
\"\",\"\",\"approach-retreat\",\"39\",\"395362\",\"0.0-39.0\",\"\",\"\",\"2-3\",\"5212\",\"37\",\"1\",\"Training\",\"Stims/Figures/139-C-20-2.bmp\",\"None\",\"Right\",\"37\",\"3\",\"4\",\"10\",\"N\",\"C\",\"36\"
\"\",\"\",\"approach-retreat\",\"40\",\"403189\",\"0.0-40.0\",\"\",\"\",\"2-3\",\"6296\",\"38\",\"1\",\"Training\",\"Stims/Figures/7-C-20-4.bmp\",\"None\",\"Down\",\"38\",\"3\",\"5\",\"10\",\"N\",\"C\",\"37\"
\"\",\"\",\"approach-retreat\",\"41\",\"409312\",\"0.0-41.0\",\"\",\"\",\"2-3\",\"4592\",\"39\",\"0\",\"Training\",\"Stims/Figures/144-J-10-3.bmp\",\"None\",\"Left\",\"37\",\"3\",\"6\",\"10\",\"N\",\"C\",\"38\"
\"\",\"\",\"approach-retreat\",\"42\",\"418249\",\"0.0-42.0\",\"\",\"\",\"2-3\",\"7409\",\"39\",\"1\",\"Training\",\"Stims/Figures/102-C-20-4.bmp\",\"None\",\"Left\",\"39\",\"3\",\"7\",\"10\",\"N\",\"C\",\"39\"
\"\",\"\",\"approach-retreat\",\"43\",\"424221\",\"0.0-43.0\",\"\",\"\",\"2-3\",\"4427\",\"38\",\"0\",\"Training\",\"Stims/Figures/111-J-10-3.bmp\",\"None\",\"Down\",\"40\",\"3\",\"8\",\"10\",\"N\",\"C\",\"40\"
\"\",\"\",\"approach-retreat\",\"44\",\"432333\",\"0.0-44.0\",\"\",\"\",\"2-3\",\"6581\",\"40\",\"1\",\"Training\",\"Stims/Figures/86-C-30-1.bmp\",\"None\",\"Up\",\"40\",\"3\",\"9\",\"10\",\"N\",\"C\",\"41\"
\"\",\"\",\"approach-retreat\",\"45\",\"442964\",\"0.0-45.0\",\"\",\"\",\"2-3\",\"9103\",\"40\",\"1\",\"Training\",\"Stims/Figures/84-C-20-2.bmp\",\"None\",\"Up\",\"40\",\"3\",\"10\",\"10\",\"N\",\"C\",\"42\"
\"\",\"\",\"approach-retreat\",\"46\",\"449313\",\"0.0-46.0\",\"\",\"\",\"2-3\",\"4817\",\"37\",\"1\",\"Training\",\"Stims/Figures/102-J-10-4.bmp\",\"None\",\"Left\",\"37\",\"3\",\"11\",\"10\",\"N\",\"C\",\"43\"
\"\",\"\",\"approach-retreat\",\"47\",\"455740\",\"0.0-47.0\",\"\",\"\",\"2-3\",\"4896\",\"39\",\"1\",\"Training\",\"Stims/Figures/139-J-0-2.bmp\",\"None\",\"Right\",\"39\",\"3\",\"12\",\"10\",\"N\",\"C\",\"44\"
\"\",\"\",\"approach-retreat\",\"48\",\"464541\",\"0.0-48.0\",\"\",\"\",\"2-3\",\"7271\",\"39\",\"1\",\"Training\",\"Stims/Figures/71-C-30-1.bmp\",\"None\",\"Left\",\"39\",\"3\",\"13\",\"10\",\"N\",\"C\",\"45\"
\"\",\"\",\"approach-retreat\",\"49\",\"471175\",\"0.0-49.0\",\"\",\"\",\"2-3\",\"5104\",\"39\",\"1\",\"Training\",\"Stims/Figures/84-J-0-2.bmp\",\"None\",\"Right\",\"39\",\"3\",\"14\",\"10\",\"N\",\"C\",\"46\"
\"\",\"\",\"approach-retreat\",\"50\",\"478774\",\"0.0-50.0\",\"\",\"\",\"2-3\",\"6071\",\"40\",\"1\",\"Training\",\"Stims/Figures/7-J-10-4.bmp\",\"None\",\"Down\",\"40\",\"3\",\"15\",\"10\",\"N\",\"C\",\"47\"
\"\",\"\",\"approach-retreat\",\"51\",\"489304\",\"0.0-51.0\",\"\",\"\",\"2-3\",\"9001\",\"39\",\"0\",\"Training\",\"Stims/Figures/111-C-30-3.bmp\",\"None\",\"Right\",\"37\",\"3\",\"16\",\"10\",\"N\",\"C\",\"48\"
\"\",\"\",\"approach-retreat\",\"52\",\"495860\",\"0.0-52.0\",\"\",\"\",\"2-3\",\"5025\",\"39\",\"1\",\"Training\",\"Stims/Figures/84-C-20-2.bmp\",\"None\",\"Left\",\"39\",\"4\",\"1\",\"10\",\"N\",\"C\",\"49\"
\"\",\"\",\"approach-retreat\",\"53\",\"503590\",\"0.0-53.0\",\"\",\"\",\"2-3\",\"6201\",\"39\",\"1\",\"Training\",\"Stims/Figures/71-J-0-1.bmp\",\"None\",\"Right\",\"39\",\"4\",\"2\",\"10\",\"N\",\"C\",\"50\"
\"\",\"\",\"approach-retreat\",\"54\",\"511996\",\"0.0-54.0\",\"\",\"\",\"2-3\",\"6877\",\"40\",\"1\",\"Training\",\"Stims/Figures/144-J-10-3.bmp\",\"None\",\"Down\",\"40\",\"4\",\"3\",\"10\",\"N\",\"C\",\"51\"
\"\",\"\",\"approach-retreat\",\"55\",\"518980\",\"0.0-55.0\",\"\",\"\",\"2-3\",\"5461\",\"37\",\"1\",\"Training\",\"Stims/Figures/7-J-10-4.bmp\",\"None\",\"Left\",\"37\",\"4\",\"4\",\"10\",\"N\",\"C\",\"52\"
\"\",\"\",\"approach-retreat\",\"56\",\"526436\",\"0.0-56.0\",\"\",\"\",\"2-3\",\"5926\",\"38\",\"1\",\"Training\",\"Stims/Figures/84-J-0-2.bmp\",\"None\",\"Up\",\"38\",\"4\",\"5\",\"10\",\"N\",\"C\",\"53\"
\"\",\"\",\"approach-retreat\",\"57\",\"532588\",\"0.0-57.0\",\"\",\"\",\"2-3\",\"4622\",\"37\",\"1\",\"Training\",\"Stims/Figures/111-C-30-3.bmp\",\"None\",\"Right\",\"37\",\"4\",\"6\",\"10\",\"N\",\"C\",\"54\"
\"\",\"\",\"approach-retreat\",\"58\",\"542569\",\"0.0-58.0\",\"\",\"\",\"2-3\",\"8452\",\"40\",\"1\",\"Training\",\"Stims/Figures/139-C-20-2.bmp\",\"None\",\"Up\",\"40\",\"4\",\"7\",\"10\",\"N\",\"C\",\"55\"
\"\",\"\",\"approach-retreat\",\"59\",\"549272\",\"0.0-59.0\",\"\",\"\",\"2-3\",\"5172\",\"37\",\"1\",\"Training\",\"Stims/Figures/86-J-0-1.bmp\",\"None\",\"Left\",\"37\",\"4\",\"8\",\"10\",\"N\",\"C\",\"56\"
\"\",\"\",\"approach-retreat\",\"60\",\"555640\",\"0.0-60.0\",\"\",\"\",\"2-3\",\"4838\",\"39\",\"1\",\"Training\",\"Stims/Figures/71-C-30-1.bmp\",\"None\",\"Left\",\"39\",\"4\",\"9\",\"10\",\"N\",\"C\",\"57\"
\"\",\"\",\"approach-retreat\",\"61\",\"561593\",\"0.0-61.0\",\"\",\"\",\"2-3\",\"4426\",\"38\",\"1\",\"Training\",\"Stims/Figures/7-C-20-4.bmp\",\"None\",\"Down\",\"38\",\"4\",\"10\",\"10\",\"N\",\"C\",\"58\"
\"\",\"\",\"approach-retreat\",\"62\",\"569861\",\"0.0-62.0\",\"\",\"\",\"2-3\",\"6736\",\"39\",\"1\",\"Training\",\"Stims/Figures/139-J-0-2.bmp\",\"None\",\"Right\",\"39\",\"4\",\"11\",\"10\",\"N\",\"C\",\"59\"
\"\",\"\",\"approach-retreat\",\"63\",\"575868\",\"0.0-63.0\",\"\",\"\",\"2-3\",\"4480\",\"40\",\"1\",\"Training\",\"Stims/Figures/144-C-30-3.bmp\",\"None\",\"Up\",\"40\",\"4\",\"12\",\"10\",\"N\",\"C\",\"60\"
\"\",\"\",\"approach-retreat\",\"64\",\"581874\",\"0.0-64.0\",\"\",\"\",\"2-3\",\"4476\",\"40\",\"0\",\"Training\",\"Stims/Figures/111-J-10-3.bmp\",\"None\",\"Up\",\"38\",\"4\",\"13\",\"10\",\"N\",\"C\",\"61\"
\"\",\"\",\"approach-retreat\",\"65\",\"588756\",\"0.0-65.0\",\"\",\"\",\"2-3\",\"5355\",\"38\",\"1\",\"Training\",\"Stims/Figures/102-C-20-4.bmp\",\"None\",\"Down\",\"38\",\"4\",\"14\",\"10\",\"N\",\"C\",\"62\"
\"\",\"\",\"approach-retreat\",\"66\",\"594988\",\"0.0-66.0\",\"\",\"\",\"2-3\",\"4703\",\"37\",\"1\",\"Training\",\"Stims/Figures/86-C-30-1.bmp\",\"None\",\"Right\",\"37\",\"4\",\"15\",\"10\",\"N\",\"C\",\"63\"
\"\",\"\",\"approach-retreat\",\"67\",\"600945\",\"0.0-67.0\",\"\",\"\",\"2-3\",\"4428\",\"40\",\"1\",\"Training\",\"Stims/Figures/102-J-10-4.bmp\",\"None\",\"Down\",\"40\",\"4\",\"16\",\"10\",\"N\",\"C\",\"64\"
\"\",\"\",\"approach-retreat\",\"68\",\"608553\",\"0.0-68.0\",\"\",\"\",\"2-3\",\"6079\",\"38\",\"1\",\"Training\",\"Stims/Figures/102-J-10-4.bmp\",\"None\",\"Up\",\"38\",\"5\",\"1\",\"10\",\"N\",\"C\",\"65\"
\"\",\"\",\"approach-retreat\",\"69\",\"614652\",\"0.0-69.0\",\"\",\"\",\"2-3\",\"4568\",\"39\",\"1\",\"Training\",\"Stims/Figures/86-J-0-1.bmp\",\"None\",\"Right\",\"39\",\"5\",\"2\",\"10\",\"N\",\"C\",\"66\"
\"\",\"\",\"approach-retreat\",\"70\",\"620676\",\"0.0-70.0\",\"\",\"\",\"2-3\",\"4496\",\"39\",\"1\",\"Training\",\"Stims/Figures/7-J-10-4.bmp\",\"None\",\"Right\",\"39\",\"5\",\"3\",\"10\",\"N\",\"C\",\"67\"
\"\",\"\",\"approach-retreat\",\"71\",\"626824\",\"0.0-71.0\",\"\",\"\",\"2-3\",\"4617\",\"40\",\"1\",\"Training\",\"Stims/Figures/144-J-10-3.bmp\",\"None\",\"Down\",\"40\",\"5\",\"4\",\"10\",\"N\",\"C\",\"68\"
\"\",\"\",\"approach-retreat\",\"72\",\"635574\",\"0.0-72.0\",\"\",\"\",\"2-3\",\"7218\",\"37\",\"0\",\"Training\",\"Stims/Figures/139-C-20-2.bmp\",\"None\",\"Left\",\"39\",\"5\",\"5\",\"10\",\"N\",\"C\",\"69\"
\"\",\"\",\"approach-retreat\",\"73\",\"641363\",\"0.0-73.0\",\"\",\"\",\"2-3\",\"4260\",\"38\",\"1\",\"Training\",\"Stims/Figures/102-C-20-4.bmp\",\"None\",\"Down\",\"38\",\"5\",\"6\",\"10\",\"N\",\"C\",\"70\"
\"\",\"\",\"approach-retreat\",\"74\",\"647272\",\"0.0-74.0\",\"\",\"\",\"2-3\",\"4378\",\"39\",\"1\",\"Training\",\"Stims/Figures/71-J-0-1.bmp\",\"None\",\"Right\",\"39\",\"5\",\"7\",\"10\",\"N\",\"C\",\"71\"
\"\",\"\",\"approach-retreat\",\"75\",\"653806\",\"0.0-75.0\",\"\",\"\",\"2-3\",\"5005\",\"40\",\"1\",\"Training\",\"Stims/Figures/84-J-0-2.bmp\",\"None\",\"Down\",\"40\",\"5\",\"8\",\"10\",\"N\",\"C\",\"72\"
\"\",\"\",\"approach-retreat\",\"76\",\"661208\",\"0.0-76.0\",\"\",\"\",\"2-3\",\"5881\",\"40\",\"1\",\"Training\",\"Stims/Figures/86-C-30-1.bmp\",\"None\",\"Up\",\"40\",\"5\",\"9\",\"10\",\"N\",\"C\",\"73\"
\"\",\"\",\"approach-retreat\",\"77\",\"668590\",\"0.0-77.0\",\"\",\"\",\"2-3\",\"5853\",\"39\",\"1\",\"Training\",\"Stims/Figures/7-C-20-4.bmp\",\"None\",\"Left\",\"39\",\"5\",\"10\",\"10\",\"N\",\"C\",\"74\"
\"\",\"\",\"approach-retreat\",\"78\",\"674553\",\"0.0-78.0\",\"\",\"\",\"2-3\",\"4433\",\"37\",\"1\",\"Training\",\"Stims/Figures/111-J-10-3.bmp\",\"None\",\"Left\",\"37\",\"5\",\"11\",\"10\",\"N\",\"C\",\"75\"
\"\",\"\",\"approach-retreat\",\"79\",\"683048\",\"0.0-79.0\",\"\",\"\",\"2-3\",\"6965\",\"38\",\"0\",\"Training\",\"Stims/Figures/111-C-30-3.bmp\",\"None\",\"Up\",\"40\",\"5\",\"12\",\"10\",\"N\",\"C\",\"76\"
\"\",\"\",\"approach-retreat\",\"80\",\"691399\",\"0.0-80.0\",\"\",\"\",\"2-3\",\"6819\",\"37\",\"1\",\"Training\",\"Stims/Figures/84-C-20-2.bmp\",\"None\",\"Right\",\"37\",\"5\",\"13\",\"10\",\"N\",\"C\",\"77\"
\"\",\"\",\"approach-retreat\",\"81\",\"697246\",\"0.0-81.0\",\"\",\"\",\"2-3\",\"4319\",\"40\",\"1\",\"Training\",\"Stims/Figures/71-C-30-1.bmp\",\"None\",\"Up\",\"40\",\"5\",\"14\",\"10\",\"N\",\"C\",\"78\"
\"\",\"\",\"approach-retreat\",\"82\",\"703182\",\"0.0-82.0\",\"\",\"\",\"2-3\",\"4405\",\"40\",\"1\",\"Training\",\"Stims/Figures/139-J-0-2.bmp\",\"None\",\"Down\",\"40\",\"5\",\"15\",\"10\",\"N\",\"C\",\"79\"
\"\",\"\",\"approach-retreat\",\"83\",\"710572\",\"0.0-83.0\",\"\",\"\",\"2-3\",\"5863\",\"39\",\"1\",\"Training\",\"Stims/Figures/144-C-30-3.bmp\",\"None\",\"Left\",\"39\",\"5\",\"16\",\"10\",\"N\",\"C\",\"80\"
\"\",\"\",\"approach-retreat\",\"84\",\"716500\",\"0.0-84.0\",\"\",\"\",\"2-3\",\"4396\",\"39\",\"1\",\"Training\",\"Stims/Figures/71-C-30-1.bmp\",\"None\",\"Left\",\"39\",\"6\",\"1\",\"10\",\"N\",\"C\",\"81\"
\"\",\"\",\"approach-retreat\",\"85\",\"722583\",\"0.0-85.0\",\"\",\"\",\"2-3\",\"4555\",\"40\",\"1\",\"Training\",\"Stims/Figures/139-J-0-2.bmp\",\"None\",\"Down\",\"40\",\"6\",\"2\",\"10\",\"N\",\"C\",\"82\"
\"\",\"\",\"approach-retreat\",\"86\",\"739002\",\"0.0-86.0\",\"\",\"\",\"2-3\",\"14888\",\"39\",\"1\",\"Training\",\"Stims/Figures/139-C-20-2.bmp\",\"None\",\"Left\",\"39\",\"6\",\"3\",\"10\",\"N\",\"C\",\"83\"
\"\",\"\",\"approach-retreat\",\"87\",\"745966\",\"0.0-87.0\",\"\",\"\",\"2-3\",\"5435\",\"39\",\"1\",\"Training\",\"Stims/Figures/71-J-0-1.bmp\",\"None\",\"Right\",\"39\",\"6\",\"4\",\"10\",\"N\",\"C\",\"84\"
\"\",\"\",\"approach-retreat\",\"88\",\"753388\",\"0.0-88.0\",\"\",\"\",\"2-3\",\"5893\",\"38\",\"1\",\"Training\",\"Stims/Figures/86-J-0-1.bmp\",\"None\",\"Up\",\"38\",\"6\",\"5\",\"10\",\"N\",\"C\",\"85\"
\"\",\"\",\"approach-retreat\",\"89\",\"759327\",\"0.0-89.0\",\"\",\"\",\"2-3\",\"4410\",\"39\",\"1\",\"Training\",\"Stims/Figures/102-J-10-4.bmp\",\"None\",\"Right\",\"39\",\"6\",\"6\",\"10\",\"N\",\"C\",\"86\"
\"\",\"\",\"approach-retreat\",\"90\",\"766687\",\"0.0-90.0\",\"\",\"\",\"2-3\",\"5833\",\"38\",\"1\",\"Training\",\"Stims/Figures/7-C-20-4.bmp\",\"None\",\"Down\",\"38\",\"6\",\"7\",\"10\",\"N\",\"C\",\"87\"
\"\",\"\",\"approach-retreat\",\"91\",\"773979\",\"0.0-91.0\",\"\",\"\",\"2-3\",\"5761\",\"38\",\"1\",\"Training\",\"Stims/Figures/86-C-30-1.bmp\",\"None\",\"Down\",\"38\",\"6\",\"8\",\"10\",\"N\",\"C\",\"88\"
\"\",\"\",\"approach-retreat\",\"92\",\"780224\",\"0.0-92.0\",\"\",\"\",\"2-3\",\"4716\",\"37\",\"0\",\"Training\",\"Stims/Figures/102-C-20-4.bmp\",\"None\",\"Left\",\"39\",\"6\",\"9\",\"10\",\"N\",\"C\",\"89\"
\"\",\"\",\"approach-retreat\",\"93\",\"786019\",\"0.0-93.0\",\"\",\"\",\"2-3\",\"4276\",\"39\",\"1\",\"Training\",\"Stims/Figures/144-J-10-3.bmp\",\"None\",\"Right\",\"39\",\"6\",\"10\",\"10\",\"N\",\"C\",\"90\"
\"\",\"\",\"approach-retreat\",\"94\",\"792235\",\"0.0-94.0\",\"\",\"\",\"2-3\",\"4687\",\"38\",\"1\",\"Training\",\"Stims/Figures/111-J-10-3.bmp\",\"None\",\"Up\",\"38\",\"6\",\"11\",\"10\",\"N\",\"C\",\"91\"
\"\",\"\",\"approach-retreat\",\"95\",\"798401\",\"0.0-95.0\",\"\",\"\",\"2-3\",\"4638\",\"37\",\"1\",\"Training\",\"Stims/Figures/111-C-30-3.bmp\",\"None\",\"Right\",\"37\",\"6\",\"12\",\"10\",\"N\",\"C\",\"92\"
\"\",\"\",\"approach-retreat\",\"96\",\"804696\",\"0.0-96.0\",\"\",\"\",\"2-3\",\"4763\",\"40\",\"1\",\"Training\",\"Stims/Figures/84-C-20-2.bmp\",\"None\",\"Up\",\"40\",\"6\",\"13\",\"10\",\"N\",\"C\",\"93\"
\"\",\"\",\"approach-retreat\",\"97\",\"813947\",\"0.0-97.0\",\"\",\"\",\"2-3\",\"7723\",\"38\",\"1\",\"Training\",\"Stims/Figures/7-J-10-4.bmp\",\"None\",\"Up\",\"38\",\"6\",\"14\",\"10\",\"N\",\"C\",\"94\"
\"\",\"\",\"approach-retreat\",\"98\",\"820179\",\"0.0-98.0\",\"\",\"\",\"2-3\",\"4719\",\"39\",\"1\",\"Training\",\"Stims/Figures/144-C-30-3.bmp\",\"None\",\"Left\",\"39\",\"6\",\"15\",\"10\",\"N\",\"C\",\"95\"
\"\",\"\",\"approach-retreat\",\"99\",\"827756\",\"0.0-99.0\",\"\",\"\",\"2-3\",\"6047\",\"40\",\"1\",\"Training\",\"Stims/Figures/84-J-0-2.bmp\",\"None\",\"Down\",\"40\",\"6\",\"16\",\"10\",\"N\",\"C\",\"96\"
\"\",\"\",\"approach-retreat\",\"100\",\"837708\",\"0.0-100.0\",\"\",\"\",\"2-3\",\"8425\",\"40\",\"1\",\"Training\",\"Stims/Figures/102-C-20-4.bmp\",\"None\",\"Up\",\"40\",\"7\",\"1\",\"10\",\"N\",\"C\",\"97\"
\"\",\"\",\"approach-retreat\",\"101\",\"845274\",\"0.0-101.0\",\"\",\"\",\"2-3\",\"6033\",\"37\",\"1\",\"Training\",\"Stims/Figures/86-J-0-1.bmp\",\"None\",\"Left\",\"37\",\"7\",\"2\",\"10\",\"N\",\"C\",\"98\"
\"\",\"\",\"approach-retreat\",\"102\",\"852028\",\"0.0-102.0\",\"\",\"\",\"2-3\",\"5226\",\"39\",\"1\",\"Training\",\"Stims/Figures/86-C-30-1.bmp\",\"None\",\"Left\",\"39\",\"7\",\"3\",\"10\",\"N\",\"C\",\"99\"
\"\",\"\",\"approach-retreat\",\"103\",\"862282\",\"0.0-103.0\",\"\",\"\",\"2-3\",\"8723\",\"38\",\"1\",\"Training\",\"Stims/Figures/7-C-20-4.bmp\",\"None\",\"Down\",\"38\",\"7\",\"4\",\"10\",\"N\",\"C\",\"100\"
\"\",\"\",\"approach-retreat\",\"104\",\"868034\",\"0.0-104.0\",\"\",\"\",\"2-3\",\"4220\",\"40\",\"1\",\"Training\",\"Stims/Figures/111-J-10-3.bmp\",\"None\",\"Down\",\"40\",\"7\",\"5\",\"10\",\"N\",\"C\",\"101\"
\"\",\"\",\"approach-retreat\",\"105\",\"874196\",\"0.0-105.0\",\"\",\"\",\"2-3\",\"4633\",\"37\",\"1\",\"Training\",\"Stims/Figures/111-C-30-3.bmp\",\"None\",\"Right\",\"37\",\"7\",\"6\",\"10\",\"N\",\"C\",\"102\"
\"\",\"\",\"approach-retreat\",\"106\",\"879891\",\"0.0-106.0\",\"\",\"\",\"2-3\",\"4164\",\"39\",\"1\",\"Training\",\"Stims/Figures/144-C-30-3.bmp\",\"None\",\"Left\",\"39\",\"7\",\"7\",\"10\",\"N\",\"C\",\"103\"
\"\",\"\",\"approach-retreat\",\"107\",\"886806\",\"0.0-107.0\",\"\",\"\",\"2-3\",\"5387\",\"38\",\"1\",\"Training\",\"Stims/Figures/71-J-0-1.bmp\",\"None\",\"Up\",\"38\",\"7\",\"8\",\"10\",\"N\",\"C\",\"104\"
\"\",\"\",\"approach-retreat\",\"108\",\"892724\",\"0.0-108.0\",\"\",\"\",\"2-3\",\"4388\",\"38\",\"1\",\"Training\",\"Stims/Figures/7-J-10-4.bmp\",\"None\",\"Up\",\"38\",\"7\",\"9\",\"10\",\"N\",\"C\",\"105\"
\"\",\"\",\"approach-retreat\",\"109\",\"898504\",\"0.0-109.0\",\"\",\"\",\"2-3\",\"4248\",\"37\",\"1\",\"Training\",\"Stims/Figures/71-C-30-1.bmp\",\"None\",\"Right\",\"37\",\"7\",\"10\",\"10\",\"N\",\"C\",\"106\"
\"\",\"\",\"approach-retreat\",\"110\",\"904338\",\"0.0-110.0\",\"\",\"\",\"2-3\",\"4304\",\"39\",\"1\",\"Training\",\"Stims/Figures/102-J-10-4.bmp\",\"None\",\"Right\",\"39\",\"7\",\"11\",\"10\",\"N\",\"C\",\"107\"
\"\",\"\",\"approach-retreat\",\"111\",\"911796\",\"0.0-111.0\",\"\",\"\",\"2-3\",\"5928\",\"39\",\"0\",\"Training\",\"Stims/Figures/84-C-20-2.bmp\",\"None\",\"Right\",\"37\",\"7\",\"12\",\"10\",\"N\",\"C\",\"108\"
\"\",\"\",\"approach-retreat\",\"112\",\"918463\",\"0.0-112.0\",\"\",\"\",\"2-3\",\"5137\",\"38\",\"1\",\"Training\",\"Stims/Figures/139-C-20-2.bmp\",\"None\",\"Down\",\"38\",\"7\",\"13\",\"10\",\"N\",\"C\",\"109\"
\"\",\"\",\"approach-retreat\",\"113\",\"924278\",\"0.0-113.0\",\"\",\"\",\"2-3\",\"4284\",\"37\",\"1\",\"Training\",\"Stims/Figures/144-J-10-3.bmp\",\"None\",\"Left\",\"37\",\"7\",\"14\",\"10\",\"N\",\"C\",\"110\"
\"\",\"\",\"approach-retreat\",\"114\",\"930068\",\"0.0-114.0\",\"\",\"\",\"2-3\",\"4260\",\"40\",\"1\",\"Training\",\"Stims/Figures/139-J-0-2.bmp\",\"None\",\"Down\",\"40\",\"7\",\"15\",\"10\",\"N\",\"C\",\"111\"
\"\",\"\",\"approach-retreat\",\"115\",\"936884\",\"0.0-115.0\",\"\",\"\",\"2-3\",\"5286\",\"38\",\"1\",\"Training\",\"Stims/Figures/84-J-0-2.bmp\",\"None\",\"Up\",\"38\",\"7\",\"16\",\"10\",\"N\",\"C\",\"112\"
\"\",\"\",\"approach-retreat\",\"116\",\"943583\",\"0.0-116.0\",\"\",\"\",\"2-3\",\"5170\",\"37\",\"1\",\"Training\",\"Stims/Figures/144-C-30-3.bmp\",\"None\",\"Right\",\"37\",\"8\",\"1\",\"10\",\"N\",\"C\",\"113\"
\"\",\"\",\"approach-retreat\",\"117\",\"949673\",\"0.0-117.0\",\"\",\"\",\"2-3\",\"4560\",\"40\",\"1\",\"Training\",\"Stims/Figures/144-J-10-3.bmp\",\"None\",\"Down\",\"40\",\"8\",\"2\",\"10\",\"N\",\"C\",\"114\"
\"\",\"\",\"approach-retreat\",\"118\",\"955394\",\"0.0-118.0\",\"\",\"\",\"2-3\",\"4194\",\"39\",\"1\",\"Training\",\"Stims/Figures/111-C-30-3.bmp\",\"None\",\"Left\",\"39\",\"8\",\"3\",\"10\",\"N\",\"C\",\"115\"
\"\",\"\",\"approach-retreat\",\"119\",\"961719\",\"0.0-119.0\",\"\",\"\",\"2-3\",\"4796\",\"40\",\"1\",\"Training\",\"Stims/Figures/84-C-20-2.bmp\",\"None\",\"Up\",\"40\",\"8\",\"4\",\"10\",\"N\",\"C\",\"116\"
\"\",\"\",\"approach-retreat\",\"120\",\"967799\",\"0.0-120.0\",\"\",\"\",\"2-3\",\"4547\",\"40\",\"1\",\"Training\",\"Stims/Figures/71-C-30-1.bmp\",\"None\",\"Up\",\"40\",\"8\",\"5\",\"10\",\"N\",\"C\",\"117\"
\"\",\"\",\"approach-retreat\",\"121\",\"975268\",\"0.0-121.0\",\"\",\"\",\"2-3\",\"5938\",\"40\",\"1\",\"Training\",\"Stims/Figures/139-C-20-2.bmp\",\"None\",\"Up\",\"40\",\"8\",\"6\",\"10\",\"N\",\"C\",\"118\"
\"\",\"\",\"approach-retreat\",\"122\",\"981950\",\"0.0-122.0\",\"\",\"\",\"2-3\",\"5152\",\"39\",\"1\",\"Training\",\"Stims/Figures/86-J-0-1.bmp\",\"None\",\"Right\",\"39\",\"8\",\"7\",\"10\",\"N\",\"C\",\"119\"
\"\",\"\",\"approach-retreat\",\"123\",\"988841\",\"0.0-123.0\",\"\",\"\",\"2-3\",\"5359\",\"39\",\"1\",\"Training\",\"Stims/Figures/102-J-10-4.bmp\",\"None\",\"Right\",\"39\",\"8\",\"8\",\"10\",\"N\",\"C\",\"120\"
\"\",\"\",\"approach-retreat\",\"124\",\"995003\",\"0.0-124.0\",\"\",\"\",\"2-3\",\"4634\",\"37\",\"1\",\"Training\",\"Stims/Figures/84-J-0-2.bmp\",\"None\",\"Left\",\"37\",\"8\",\"9\",\"10\",\"N\",\"C\",\"121\"
\"\",\"\",\"approach-retreat\",\"125\",\"1005274\",\"0.0-125.0\",\"\",\"\",\"2-3\",\"8741\",\"38\",\"1\",\"Training\",\"Stims/Figures/7-C-20-4.bmp\",\"None\",\"Down\",\"38\",\"8\",\"10\",\"10\",\"N\",\"C\",\"122\"
\"\",\"\",\"approach-retreat\",\"126\",\"1011017\",\"0.0-126.0\",\"\",\"\",\"2-3\",\"4212\",\"40\",\"1\",\"Training\",\"Stims/Figures/7-J-10-4.bmp\",\"None\",\"Down\",\"40\",\"8\",\"11\",\"10\",\"N\",\"C\",\"123\"
\"\",\"\",\"approach-retreat\",\"127\",\"1017650\",\"0.0-127.0\",\"\",\"\",\"2-3\",\"5103\",\"38\",\"1\",\"Training\",\"Stims/Figures/111-J-10-3.bmp\",\"None\",\"Up\",\"38\",\"8\",\"12\",\"10\",\"N\",\"C\",\"124\"
\"\",\"\",\"approach-retreat\",\"128\",\"1024338\",\"0.0-128.0\",\"\",\"\",\"2-3\",\"5158\",\"40\",\"1\",\"Training\",\"Stims/Figures/139-J-0-2.bmp\",\"None\",\"Down\",\"40\",\"8\",\"13\",\"10\",\"N\",\"C\",\"125\"
\"\",\"\",\"approach-retreat\",\"129\",\"1030958\",\"0.0-129.0\",\"\",\"\",\"2-3\",\"5087\",\"39\",\"1\",\"Training\",\"Stims/Figures/71-J-0-1.bmp\",\"None\",\"Right\",\"39\",\"8\",\"14\",\"10\",\"N\",\"C\",\"126\"
\"\",\"\",\"approach-retreat\",\"130\",\"1036996\",\"0.0-130.0\",\"\",\"\",\"2-3\",\"4508\",\"39\",\"1\",\"Training\",\"Stims/Figures/86-C-30-1.bmp\",\"None\",\"Left\",\"39\",\"8\",\"15\",\"10\",\"N\",\"C\",\"127\"
\"\",\"\",\"approach-retreat\",\"131\",\"1044222\",\"0.0-131.0\",\"\",\"\",\"2-3\",\"5692\",\"37\",\"0\",\"Training\",\"Stims/Figures/102-C-20-4.bmp\",\"None\",\"Left\",\"39\",\"8\",\"16\",\"10\",\"N\",\"C\",\"128\"
\"\",\"\",\"approach-retreat\",\"132\",\"1049969\",\"0.0-132.0\",\"\",\"\",\"2-3\",\"4216\",\"38\",\"1\",\"Training\",\"Stims/Figures/7-J-10-4.bmp\",\"None\",\"Up\",\"38\",\"9\",\"1\",\"10\",\"N\",\"C\",\"129\"
\"\",\"\",\"approach-retreat\",\"133\",\"1055829\",\"0.0-133.0\",\"\",\"\",\"2-3\",\"4331\",\"38\",\"1\",\"Training\",\"Stims/Figures/102-J-10-4.bmp\",\"None\",\"Up\",\"38\",\"9\",\"2\",\"10\",\"N\",\"C\",\"130\"
\"\",\"\",\"approach-retreat\",\"134\",\"1062053\",\"0.0-134.0\",\"\",\"\",\"2-3\",\"4694\",\"39\",\"1\",\"Training\",\"Stims/Figures/102-C-20-4.bmp\",\"None\",\"Left\",\"39\",\"9\",\"3\",\"10\",\"N\",\"C\",\"131\"
\"\",\"\",\"approach-retreat\",\"135\",\"1067833\",\"0.0-135.0\",\"\",\"\",\"2-3\",\"4250\",\"38\",\"1\",\"Training\",\"Stims/Figures/71-J-0-1.bmp\",\"None\",\"Up\",\"38\",\"9\",\"4\",\"10\",\"N\",\"C\",\"132\"
\"\",\"\",\"approach-retreat\",\"136\",\"1074940\",\"0.0-136.0\",\"\",\"\",\"2-3\",\"5574\",\"37\",\"1\",\"Training\",\"Stims/Figures/7-C-20-4.bmp\",\"None\",\"Right\",\"37\",\"9\",\"5\",\"10\",\"N\",\"C\",\"133\"
\"\",\"\",\"approach-retreat\",\"137\",\"1083015\",\"0.0-137.0\",\"\",\"\",\"2-3\",\"6545\",\"40\",\"1\",\"Training\",\"Stims/Figures/144-J-10-3.bmp\",\"None\",\"Down\",\"40\",\"9\",\"6\",\"10\",\"N\",\"C\",\"134\"
\"\",\"\",\"approach-retreat\",\"138\",\"1088766\",\"0.0-138.0\",\"\",\"\",\"2-3\",\"4222\",\"38\",\"1\",\"Training\",\"Stims/Figures/111-C-30-3.bmp\",\"None\",\"Down\",\"38\",\"9\",\"7\",\"10\",\"N\",\"C\",\"135\"
\"\",\"\",\"approach-retreat\",\"139\",\"1094437\",\"0.0-139.0\",\"\",\"\",\"2-3\",\"4143\",\"40\",\"1\",\"Training\",\"Stims/Figures/111-J-10-3.bmp\",\"None\",\"Down\",\"40\",\"9\",\"8\",\"10\",\"N\",\"C\",\"136\"
\"\",\"\",\"approach-retreat\",\"140\",\"1100920\",\"0.0-140.0\",\"\",\"\",\"2-3\",\"4953\",\"39\",\"1\",\"Training\",\"Stims/Figures/71-C-30-1.bmp\",\"None\",\"Left\",\"39\",\"9\",\"9\",\"10\",\"N\",\"C\",\"137\"
\"\",\"\",\"approach-retreat\",\"141\",\"1108152\",\"0.0-141.0\",\"\",\"\",\"2-3\",\"5701\",\"37\",\"1\",\"Training\",\"Stims/Figures/86-C-30-1.bmp\",\"None\",\"Right\",\"37\",\"9\",\"10\",\"10\",\"N\",\"C\",\"138\"
\"\",\"\",\"approach-retreat\",\"142\",\"1115537\",\"0.0-142.0\",\"\",\"\",\"2-3\",\"5857\",\"37\",\"1\",\"Training\",\"Stims/Figures/144-C-30-3.bmp\",\"None\",\"Right\",\"37\",\"9\",\"11\",\"10\",\"N\",\"C\",\"139\"
\"\",\"\",\"approach-retreat\",\"143\",\"1123292\",\"0.0-143.0\",\"\",\"\",\"2-3\",\"6225\",\"39\",\"1\",\"Training\",\"Stims/Figures/84-C-20-2.bmp\",\"None\",\"Left\",\"39\",\"9\",\"12\",\"10\",\"N\",\"C\",\"140\"
\"\",\"\",\"approach-retreat\",\"144\",\"1129483\",\"0.0-144.0\",\"\",\"\",\"2-3\",\"4662\",\"37\",\"1\",\"Training\",\"Stims/Figures/86-J-0-1.bmp\",\"None\",\"Left\",\"37\",\"9\",\"13\",\"10\",\"N\",\"C\",\"141\"
\"\",\"\",\"approach-retreat\",\"145\",\"1137888\",\"0.0-145.0\",\"\",\"\",\"2-3\",\"6873\",\"37\",\"1\",\"Training\",\"Stims/Figures/139-C-20-2.bmp\",\"None\",\"Right\",\"37\",\"9\",\"14\",\"10\",\"N\",\"C\",\"142\"
\"\",\"\",\"approach-retreat\",\"146\",\"1144245\",\"0.0-146.0\",\"\",\"\",\"2-3\",\"4826\",\"38\",\"1\",\"Training\",\"Stims/Figures/139-J-0-2.bmp\",\"None\",\"Up\",\"38\",\"9\",\"15\",\"10\",\"N\",\"C\",\"143\"
\"\",\"\",\"approach-retreat\",\"147\",\"1150179\",\"0.0-147.0\",\"\",\"\",\"2-3\",\"4402\",\"40\",\"1\",\"Training\",\"Stims/Figures/84-J-0-2.bmp\",\"None\",\"Down\",\"40\",\"9\",\"16\",\"10\",\"N\",\"C\",\"144\"
\"29701\",\"\",\"instructions\",\"148\",\"1179882\",\"0.0-148.0\",\"[{\"\"page_index\"\":0,\"\"viewing_time\"\":29700}]\",\"\",\"\",\"\",\"\",\"\",\"\",\"\",\"\",\"\",\"\",\"\",\"\",\"\",\"\",\"\",\"\"
\"\",\"\",\"approach-retreat\",\"149\",\"1188420\",\"0.0-149.0\",\"\",\"\",\"2-3\",\"7010\",\"40\",\"1\",\"Testing\",\"Stims/Figures/74-C-20-4.bmp\",\"None\",\"Up\",\"40\",\"1\",\"1\",\"10\",\"N\",\"C\",\"1\"
\"\",\"\",\"approach-retreat\",\"150\",\"1196747\",\"0.0-150.0\",\"\",\"\",\"2-3\",\"6783\",\"37\",\"1\",\"Testing\",\"Stims/Figures/139-C-20-2.bmp\",\"None\",\"Right\",\"37\",\"1\",\"2\",\"10\",\"N\",\"C\",\"2\"
\"\",\"\",\"approach-retreat\",\"151\",\"1202558\",\"0.0-151.0\",\"\",\"\",\"2-3\",\"4281\",\"40\",\"1\",\"Testing\",\"Stims/Figures/102-J-10-4.bmp\",\"None\",\"Down\",\"40\",\"1\",\"3\",\"10\",\"N\",\"C\",\"3\"
\"\",\"\",\"approach-retreat\",\"152\",\"1208770\",\"0.0-152.0\",\"\",\"\",\"2-3\",\"4683\",\"37\",\"1\",\"Testing\",\"Stims/Figures/86-C-30-1.bmp\",\"None\",\"Right\",\"37\",\"1\",\"4\",\"10\",\"N\",\"C\",\"4\"
\"\",\"\",\"approach-retreat\",\"153\",\"1214766\",\"0.0-153.0\",\"\",\"\",\"2-3\",\"4465\",\"37\",\"1\",\"Testing\",\"Stims/Figures/7-C-20-4.bmp\",\"None\",\"Right\",\"37\",\"1\",\"5\",\"10\",\"N\",\"C\",\"5\"
\"\",\"\",\"approach-retreat\",\"154\",\"1221232\",\"0.0-154.0\",\"\",\"\",\"2-3\",\"4937\",\"37\",\"1\",\"Testing\",\"Stims/Figures/93-J-0-1.bmp\",\"None\",\"Left\",\"37\",\"1\",\"6\",\"10\",\"N\",\"C\",\"6\"
\"\",\"\",\"approach-retreat\",\"155\",\"1227284\",\"0.0-155.0\",\"\",\"\",\"2-3\",\"4523\",\"37\",\"1\",\"Testing\",\"Stims/Figures/144-C-30-3.bmp\",\"None\",\"Right\",\"37\",\"1\",\"7\",\"10\",\"N\",\"C\",\"7\"
\"\",\"\",\"approach-retreat\",\"156\",\"1233382\",\"0.0-156.0\",\"\",\"\",\"2-3\",\"4569\",\"39\",\"1\",\"Testing\",\"Stims/Figures/74-J-10-4.bmp\",\"None\",\"Right\",\"39\",\"1\",\"8\",\"10\",\"N\",\"C\",\"8\"
\"\",\"\",\"approach-retreat\",\"157\",\"1239563\",\"0.0-157.0\",\"\",\"\",\"2-3\",\"4650\",\"38\",\"1\",\"Testing\",\"Stims/Figures/84-J-0-2.bmp\",\"None\",\"Up\",\"38\",\"1\",\"9\",\"10\",\"N\",\"C\",\"9\"
\"\",\"\",\"approach-retreat\",\"158\",\"1245832\",\"0.0-158.0\",\"\",\"\",\"2-3\",\"4738\",\"38\",\"1\",\"Testing\",\"Stims/Figures/94-C-20-2.bmp\",\"None\",\"Down\",\"38\",\"1\",\"10\",\"10\",\"N\",\"C\",\"10\"
\"\",\"\",\"approach-retreat\",\"159\",\"1252143\",\"0.0-159.0\",\"\",\"\",\"2-3\",\"4781\",\"37\",\"1\",\"Testing\",\"Stims/Figures/111-J-10-3.bmp\",\"None\",\"Left\",\"37\",\"1\",\"11\",\"10\",\"N\",\"C\",\"11\"
\"\",\"\",\"approach-retreat\",\"160\",\"1258612\",\"0.0-160.0\",\"\",\"\",\"2-3\",\"4937\",\"39\",\"1\",\"Testing\",\"Stims/Figures/44-C-30-3.bmp\",\"None\",\"Left\",\"39\",\"1\",\"12\",\"10\",\"N\",\"C\",\"12\"
\"\",\"\",\"approach-retreat\",\"161\",\"1267305\",\"0.0-161.0\",\"\",\"\",\"2-3\",\"7164\",\"38\",\"1\",\"Testing\",\"Stims/Figures/44-J-10-3.bmp\",\"None\",\"Up\",\"38\",\"1\",\"13\",\"10\",\"N\",\"C\",\"13\"
\"\",\"\",\"approach-retreat\",\"162\",\"1273545\",\"0.0-162.0\",\"\",\"\",\"2-3\",\"4713\",\"37\",\"1\",\"Testing\",\"Stims/Figures/86-J-0-1.bmp\",\"None\",\"Left\",\"37\",\"1\",\"14\",\"10\",\"N\",\"C\",\"14\"
\"\",\"\",\"approach-retreat\",\"163\",\"1279690\",\"0.0-163.0\",\"\",\"\",\"2-3\",\"4618\",\"38\",\"1\",\"Testing\",\"Stims/Figures/102-C-20-4.bmp\",\"None\",\"Down\",\"38\",\"1\",\"15\",\"10\",\"N\",\"C\",\"15\"
\"\",\"\",\"approach-retreat\",\"164\",\"1285986\",\"0.0-164.0\",\"\",\"\",\"2-3\",\"4764\",\"38\",\"0\",\"Testing\",\"Stims/Figures/144-J-10-3.bmp\",\"None\",\"Down\",\"40\",\"1\",\"16\",\"10\",\"N\",\"C\",\"16\"
\"\",\"\",\"approach-retreat\",\"165\",\"1293701\",\"0.0-165.0\",\"\",\"\",\"2-3\",\"6186\",\"39\",\"1\",\"Testing\",\"Stims/Figures/93-C-30-1.bmp\",\"None\",\"Left\",\"39\",\"1\",\"17\",\"10\",\"N\",\"C\",\"17\"
\"\",\"\",\"approach-retreat\",\"166\",\"1301508\",\"0.0-166.0\",\"\",\"\",\"2-3\",\"6277\",\"37\",\"1\",\"Testing\",\"Stims/Figures/84-C-20-2.bmp\",\"None\",\"Right\",\"37\",\"1\",\"18\",\"10\",\"N\",\"C\",\"18\"
\"\",\"\",\"approach-retreat\",\"167\",\"1308175\",\"0.0-167.0\",\"\",\"\",\"2-3\",\"5136\",\"38\",\"1\",\"Testing\",\"Stims/Figures/139-J-0-2.bmp\",\"None\",\"Up\",\"38\",\"1\",\"19\",\"10\",\"N\",\"C\",\"19\"
\"\",\"\",\"approach-retreat\",\"168\",\"1315420\",\"0.0-168.0\",\"\",\"\",\"2-3\",\"5716\",\"37\",\"1\",\"Testing\",\"Stims/Figures/71-J-0-1.bmp\",\"None\",\"Left\",\"37\",\"1\",\"20\",\"10\",\"N\",\"C\",\"20\"
\"\",\"\",\"approach-retreat\",\"169\",\"1321985\",\"0.0-169.0\",\"\",\"\",\"2-3\",\"5037\",\"40\",\"1\",\"Testing\",\"Stims/Figures/71-C-30-1.bmp\",\"None\",\"Up\",\"40\",\"1\",\"21\",\"10\",\"N\",\"C\",\"21\"
\"\",\"\",\"approach-retreat\",\"170\",\"1328756\",\"0.0-170.0\",\"\",\"\",\"2-3\",\"5243\",\"38\",\"1\",\"Testing\",\"Stims/Figures/111-C-30-3.bmp\",\"None\",\"Down\",\"38\",\"1\",\"22\",\"10\",\"N\",\"C\",\"22\"
\"\",\"\",\"approach-retreat\",\"171\",\"1334776\",\"0.0-171.0\",\"\",\"\",\"2-3\",\"4489\",\"40\",\"1\",\"Testing\",\"Stims/Figures/94-J-0-2.bmp\",\"None\",\"Down\",\"40\",\"1\",\"23\",\"10\",\"N\",\"C\",\"23\"
\"\",\"\",\"approach-retreat\",\"172\",\"1341010\",\"0.0-172.0\",\"\",\"\",\"2-3\",\"4706\",\"38\",\"1\",\"Testing\",\"Stims/Figures/7-J-10-4.bmp\",\"None\",\"Up\",\"38\",\"1\",\"24\",\"10\",\"N\",\"C\",\"24\"
\"\",\"\",\"approach-retreat\",\"173\",\"1347166\",\"0.0-173.0\",\"\",\"\",\"2-3\",\"4628\",\"38\",\"1\",\"Testing\",\"Stims/Figures/44-J-10-3.bmp\",\"None\",\"Up\",\"38\",\"2\",\"1\",\"10\",\"N\",\"C\",\"25\"
\"\",\"\",\"approach-retreat\",\"174\",\"1353995\",\"0.0-174.0\",\"\",\"\",\"2-3\",\"5300\",\"39\",\"1\",\"Testing\",\"Stims/Figures/86-J-0-1.bmp\",\"None\",\"Right\",\"39\",\"2\",\"2\",\"10\",\"N\",\"C\",\"26\"
\"\",\"\",\"approach-retreat\",\"175\",\"1361197\",\"0.0-175.0\",\"\",\"\",\"2-3\",\"5669\",\"38\",\"1\",\"Testing\",\"Stims/Figures/74-C-20-4.bmp\",\"None\",\"Down\",\"38\",\"2\",\"3\",\"10\",\"N\",\"C\",\"27\"
\"\",\"\",\"approach-retreat\",\"176\",\"1369112\",\"0.0-176.0\",\"\",\"\",\"2-3\",\"6386\",\"40\",\"1\",\"Testing\",\"Stims/Figures/102-C-20-4.bmp\",\"None\",\"Up\",\"40\",\"2\",\"4\",\"10\",\"N\",\"C\",\"28\"
\"\",\"\",\"approach-retreat\",\"177\",\"1375419\",\"0.0-177.0\",\"\",\"\",\"2-3\",\"4779\",\"40\",\"1\",\"Testing\",\"Stims/Figures/84-J-0-2.bmp\",\"None\",\"Down\",\"40\",\"2\",\"5\",\"10\",\"N\",\"C\",\"29\"
\"\",\"\",\"approach-retreat\",\"178\",\"1381592\",\"0.0-178.0\",\"\",\"\",\"2-3\",\"4644\",\"37\",\"1\",\"Testing\",\"Stims/Figures/144-C-30-3.bmp\",\"None\",\"Right\",\"37\",\"2\",\"6\",\"10\",\"N\",\"C\",\"30\"
\"\",\"\",\"approach-retreat\",\"179\",\"1388164\",\"0.0-179.0\",\"\",\"\",\"2-3\",\"5044\",\"37\",\"1\",\"Testing\",\"Stims/Figures/139-J-0-2.bmp\",\"None\",\"Left\",\"37\",\"2\",\"7\",\"10\",\"N\",\"C\",\"31\"
\"\",\"\",\"approach-retreat\",\"180\",\"1394368\",\"0.0-180.0\",\"\",\"\",\"2-3\",\"4673\",\"37\",\"1\",\"Testing\",\"Stims/Figures/71-J-0-1.bmp\",\"None\",\"Left\",\"37\",\"2\",\"8\",\"10\",\"N\",\"C\",\"32\"
\"\",\"\",\"approach-retreat\",\"181\",\"1409008\",\"0.0-181.0\",\"\",\"\",\"2-3\",\"13110\",\"37\",\"1\",\"Testing\",\"Stims/Figures/44-C-30-3.bmp\",\"None\",\"Right\",\"37\",\"2\",\"9\",\"10\",\"N\",\"C\",\"33\"
\"\",\"\",\"approach-retreat\",\"182\",\"1415461\",\"0.0-182.0\",\"\",\"\",\"2-3\",\"4924\",\"40\",\"1\",\"Testing\",\"Stims/Figures/84-C-20-2.bmp\",\"None\",\"Up\",\"40\",\"2\",\"10\",\"10\",\"N\",\"C\",\"34\"
\"\",\"\",\"approach-retreat\",\"183\",\"1422432\",\"0.0-183.0\",\"\",\"\",\"2-3\",\"5440\",\"39\",\"1\",\"Testing\",\"Stims/Figures/7-C-20-4.bmp\",\"None\",\"Left\",\"39\",\"2\",\"11\",\"10\",\"N\",\"C\",\"35\"
\"\",\"\",\"approach-retreat\",\"184\",\"1429960\",\"0.0-184.0\",\"\",\"\",\"2-3\",\"5994\",\"40\",\"0\",\"Testing\",\"Stims/Figures/111-J-10-3.bmp\",\"None\",\"Up\",\"38\",\"2\",\"12\",\"10\",\"N\",\"C\",\"36\"
\"\",\"\",\"approach-retreat\",\"185\",\"1436312\",\"0.0-185.0\",\"\",\"\",\"2-3\",\"4822\",\"37\",\"1\",\"Testing\",\"Stims/Figures/111-C-30-3.bmp\",\"None\",\"Right\",\"37\",\"2\",\"13\",\"10\",\"N\",\"C\",\"37\"
\"\",\"\",\"approach-retreat\",\"186\",\"1442590\",\"0.0-186.0\",\"\",\"\",\"2-3\",\"4748\",\"40\",\"1\",\"Testing\",\"Stims/Figures/7-J-10-4.bmp\",\"None\",\"Down\",\"40\",\"2\",\"14\",\"10\",\"N\",\"C\",\"38\"
\"\",\"\",\"approach-retreat\",\"187\",\"1448856\",\"0.0-187.0\",\"\",\"\",\"2-3\",\"4738\",\"39\",\"1\",\"Testing\",\"Stims/Figures/139-C-20-2.bmp\",\"None\",\"Left\",\"39\",\"2\",\"15\",\"10\",\"N\",\"C\",\"39\"
\"\",\"\",\"approach-retreat\",\"188\",\"1455274\",\"0.0-188.0\",\"\",\"\",\"2-3\",\"4889\",\"39\",\"1\",\"Testing\",\"Stims/Figures/86-C-30-1.bmp\",\"None\",\"Left\",\"39\",\"2\",\"16\",\"10\",\"N\",\"C\",\"40\"
\"\",\"\",\"approach-retreat\",\"189\",\"1463842\",\"0.0-189.0\",\"\",\"\",\"2-3\",\"7037\",\"38\",\"1\",\"Testing\",\"Stims/Figures/74-J-10-4.bmp\",\"None\",\"Up\",\"38\",\"2\",\"17\",\"10\",\"N\",\"C\",\"41\"
\"\",\"\",\"approach-retreat\",\"190\",\"1470218\",\"0.0-190.0\",\"\",\"\",\"2-3\",\"4838\",\"40\",\"1\",\"Testing\",\"Stims/Figures/93-C-30-1.bmp\",\"None\",\"Up\",\"40\",\"2\",\"18\",\"10\",\"N\",\"C\",\"42\"
\"\",\"\",\"approach-retreat\",\"191\",\"1476492\",\"0.0-191.0\",\"\",\"\",\"2-3\",\"4762\",\"40\",\"1\",\"Testing\",\"Stims/Figures/93-J-0-1.bmp\",\"None\",\"Down\",\"40\",\"2\",\"19\",\"10\",\"N\",\"C\",\"43\"
\"\",\"\",\"approach-retreat\",\"192\",\"1484344\",\"0.0-192.0\",\"\",\"\",\"2-3\",\"6322\",\"37\",\"1\",\"Testing\",\"Stims/Figures/71-C-30-1.bmp\",\"None\",\"Right\",\"37\",\"2\",\"20\",\"10\",\"N\",\"C\",\"44\"
\"\",\"\",\"approach-retreat\",\"193\",\"1490610\",\"0.0-193.0\",\"\",\"\",\"2-3\",\"4735\",\"38\",\"1\",\"Testing\",\"Stims/Figures/94-C-20-2.bmp\",\"None\",\"Down\",\"38\",\"2\",\"21\",\"10\",\"N\",\"C\",\"45\"
\"\",\"\",\"approach-retreat\",\"194\",\"1498992\",\"0.0-194.0\",\"\",\"\",\"2-3\",\"6851\",\"39\",\"1\",\"Testing\",\"Stims/Figures/144-J-10-3.bmp\",\"None\",\"Right\",\"39\",\"2\",\"22\",\"10\",\"N\",\"C\",\"46\"
\"\",\"\",\"approach-retreat\",\"195\",\"1505786\",\"0.0-195.0\",\"\",\"\",\"2-3\",\"5267\",\"37\",\"1\",\"Testing\",\"Stims/Figures/94-J-0-2.bmp\",\"None\",\"Left\",\"37\",\"2\",\"23\",\"10\",\"N\",\"C\",\"47\"
\"\",\"\",\"approach-retreat\",\"196\",\"1513092\",\"0.0-196.0\",\"\",\"\",\"2-3\",\"5776\",\"40\",\"1\",\"Testing\",\"Stims/Figures/102-J-10-4.bmp\",\"None\",\"Down\",\"40\",\"2\",\"24\",\"10\",\"N\",\"C\",\"48\"
\"\",\"\",\"approach-retreat\",\"197\",\"1519789\",\"0.0-197.0\",\"\",\"\",\"2-3\",\"5172\",\"40\",\"1\",\"Testing\",\"Stims/Figures/71-J-0-1.bmp\",\"None\",\"Down\",\"40\",\"3\",\"1\",\"10\",\"N\",\"C\",\"49\"
\"\",\"\",\"approach-retreat\",\"198\",\"1526233\",\"0.0-198.0\",\"\",\"\",\"2-3\",\"4913\",\"39\",\"1\",\"Testing\",\"Stims/Figures/102-C-20-4.bmp\",\"None\",\"Left\",\"39\",\"3\",\"2\",\"10\",\"N\",\"C\",\"50\"
\"\",\"\",\"approach-retreat\",\"199\",\"1532354\",\"0.0-199.0\",\"\",\"\",\"2-3\",\"4590\",\"39\",\"1\",\"Testing\",\"Stims/Figures/139-C-20-2.bmp\",\"None\",\"Left\",\"39\",\"3\",\"3\",\"10\",\"N\",\"C\",\"51\"
\"\",\"\",\"approach-retreat\",\"200\",\"1538679\",\"0.0-200.0\",\"\",\"\",\"2-3\",\"4796\",\"40\",\"1\",\"Testing\",\"Stims/Figures/86-J-0-1.bmp\",\"None\",\"Down\",\"40\",\"3\",\"4\",\"10\",\"N\",\"C\",\"52\"
\"\",\"\",\"approach-retreat\",\"201\",\"1546388\",\"0.0-201.0\",\"\",\"\",\"2-3\",\"6179\",\"37\",\"1\",\"Testing\",\"Stims/Figures/44-J-10-3.bmp\",\"None\",\"Left\",\"37\",\"3\",\"5\",\"10\",\"N\",\"C\",\"53\"
\"\",\"\",\"approach-retreat\",\"202\",\"1552493\",\"0.0-202.0\",\"\",\"\",\"2-3\",\"4576\",\"38\",\"1\",\"Testing\",\"Stims/Figures/84-C-20-2.bmp\",\"None\",\"Down\",\"38\",\"3\",\"6\",\"10\",\"N\",\"C\",\"54\"
\"\",\"\",\"approach-retreat\",\"203\",\"1566104\",\"0.0-203.0\",\"\",\"\",\"2-3\",\"12081\",\"39\",\"1\",\"Testing\",\"Stims/Figures/7-J-10-4.bmp\",\"None\",\"Right\",\"39\",\"3\",\"7\",\"10\",\"N\",\"C\",\"55\"
\"\",\"\",\"approach-retreat\",\"204\",\"1574114\",\"0.0-204.0\",\"\",\"\",\"2-3\",\"6480\",\"37\",\"1\",\"Testing\",\"Stims/Figures/74-J-10-4.bmp\",\"None\",\"Left\",\"37\",\"3\",\"8\",\"10\",\"N\",\"C\",\"56\"
\"\",\"\",\"approach-retreat\",\"205\",\"1583123\",\"0.0-205.0\",\"\",\"\",\"2-3\",\"7480\",\"39\",\"1\",\"Testing\",\"Stims/Figures/144-C-30-3.bmp\",\"None\",\"Left\",\"39\",\"3\",\"9\",\"10\",\"N\",\"C\",\"57\"
\"\",\"\",\"approach-retreat\",\"206\",\"1589437\",\"0.0-206.0\",\"\",\"\",\"2-3\",\"4784\",\"40\",\"1\",\"Testing\",\"Stims/Figures/111-C-30-3.bmp\",\"None\",\"Up\",\"40\",\"3\",\"10\",\"10\",\"N\",\"C\",\"58\"
\"\",\"\",\"approach-retreat\",\"207\",\"1596542\",\"0.0-207.0\",\"\",\"\",\"2-3\",\"5577\",\"40\",\"1\",\"Testing\",\"Stims/Figures/93-J-0-1.bmp\",\"None\",\"Down\",\"40\",\"3\",\"11\",\"10\",\"N\",\"C\",\"59\"
\"\",\"\",\"approach-retreat\",\"208\",\"1602633\",\"0.0-208.0\",\"\",\"\",\"2-3\",\"4564\",\"39\",\"1\",\"Testing\",\"Stims/Figures/102-J-10-4.bmp\",\"None\",\"Right\",\"39\",\"3\",\"12\",\"10\",\"N\",\"C\",\"60\"
\"\",\"\",\"approach-retreat\",\"209\",\"1608814\",\"0.0-209.0\",\"\",\"\",\"2-3\",\"4650\",\"38\",\"1\",\"Testing\",\"Stims/Figures/144-J-10-3.bmp\",\"None\",\"Up\",\"38\",\"3\",\"13\",\"10\",\"N\",\"C\",\"61\"
\"\",\"\",\"approach-retreat\",\"210\",\"1614893\",\"0.0-210.0\",\"\",\"\",\"2-3\",\"4551\",\"39\",\"1\",\"Testing\",\"Stims/Figures/84-J-0-2.bmp\",\"None\",\"Right\",\"39\",\"3\",\"14\",\"10\",\"N\",\"C\",\"62\"
\"\",\"\",\"approach-retreat\",\"211\",\"1621271\",\"0.0-211.0\",\"\",\"\",\"2-3\",\"4850\",\"40\",\"1\",\"Testing\",\"Stims/Figures/94-C-20-2.bmp\",\"None\",\"Up\",\"40\",\"3\",\"15\",\"10\",\"N\",\"C\",\"63\"
\"\",\"\",\"approach-retreat\",\"212\",\"1627516\",\"0.0-212.0\",\"\",\"\",\"2-3\",\"4735\",\"37\",\"1\",\"Testing\",\"Stims/Figures/86-C-30-1.bmp\",\"None\",\"Right\",\"37\",\"3\",\"16\",\"10\",\"N\",\"C\",\"64\"
\"\",\"\",\"approach-retreat\",\"213\",\"1633896\",\"0.0-213.0\",\"\",\"\",\"2-3\",\"4846\",\"37\",\"1\",\"Testing\",\"Stims/Figures/139-J-0-2.bmp\",\"None\",\"Left\",\"37\",\"3\",\"17\",\"10\",\"N\",\"C\",\"65\"
\"\",\"\",\"approach-retreat\",\"214\",\"1640106\",\"0.0-214.0\",\"\",\"\",\"2-3\",\"4682\",\"39\",\"1\",\"Testing\",\"Stims/Figures/111-J-10-3.bmp\",\"None\",\"Right\",\"39\",\"3\",\"18\",\"10\",\"N\",\"C\",\"66\"
\"\",\"\",\"approach-retreat\",\"215\",\"1646466\",\"0.0-215.0\",\"\",\"\",\"2-3\",\"4830\",\"40\",\"1\",\"Testing\",\"Stims/Figures/74-C-20-4.bmp\",\"None\",\"Up\",\"40\",\"3\",\"19\",\"10\",\"N\",\"C\",\"67\"
\"\",\"\",\"approach-retreat\",\"216\",\"1652252\",\"0.0-216.0\",\"\",\"\",\"2-3\",\"4263\",\"37\",\"1\",\"Testing\",\"Stims/Figures/93-C-30-1.bmp\",\"None\",\"Right\",\"37\",\"3\",\"20\",\"10\",\"N\",\"C\",\"68\"
\"\",\"\",\"approach-retreat\",\"217\",\"1658051\",\"0.0-217.0\",\"\",\"\",\"2-3\",\"4269\",\"40\",\"1\",\"Testing\",\"Stims/Figures/44-C-30-3.bmp\",\"None\",\"Up\",\"40\",\"3\",\"21\",\"10\",\"N\",\"C\",\"69\"
\"\",\"\",\"approach-retreat\",\"218\",\"1663832\",\"0.0-218.0\",\"\",\"\",\"2-3\",\"4254\",\"40\",\"1\",\"Testing\",\"Stims/Figures/94-J-0-2.bmp\",\"None\",\"Down\",\"40\",\"3\",\"22\",\"10\",\"N\",\"C\",\"70\"
\"\",\"\",\"approach-retreat\",\"219\",\"1669992\",\"0.0-219.0\",\"\",\"\",\"2-3\",\"4631\",\"40\",\"1\",\"Testing\",\"Stims/Figures/71-C-30-1.bmp\",\"None\",\"Up\",\"40\",\"3\",\"23\",\"10\",\"N\",\"C\",\"71\"
\"\",\"\",\"approach-retreat\",\"220\",\"1681192\",\"0.0-220.0\",\"\",\"\",\"2-3\",\"9670\",\"40\",\"0\",\"Testing\",\"Stims/Figures/7-C-20-4.bmp\",\"None\",\"Down\",\"38\",\"3\",\"24\",\"10\",\"N\",\"C\",\"72\"
\"\",\"\",\"approach-retreat\",\"221\",\"1690400\",\"0.0-221.0\",\"\",\"\",\"2-3\",\"7681\",\"38\",\"1\",\"Testing\",\"Stims/Figures/7-C-20-4.bmp\",\"None\",\"Down\",\"38\",\"4\",\"1\",\"10\",\"N\",\"C\",\"73\"
\"\",\"\",\"approach-retreat\",\"222\",\"1698072\",\"0.0-222.0\",\"\",\"\",\"2-3\",\"6141\",\"39\",\"1\",\"Testing\",\"Stims/Figures/74-J-10-4.bmp\",\"None\",\"Right\",\"39\",\"4\",\"2\",\"10\",\"N\",\"C\",\"74\"
\"\",\"\",\"approach-retreat\",\"223\",\"1704176\",\"0.0-223.0\",\"\",\"\",\"2-3\",\"4576\",\"37\",\"1\",\"Testing\",\"Stims/Figures/102-J-10-4.bmp\",\"None\",\"Left\",\"37\",\"4\",\"3\",\"10\",\"N\",\"C\",\"75\"
\"\",\"\",\"approach-retreat\",\"224\",\"1710703\",\"0.0-224.0\",\"\",\"\",\"2-3\",\"4994\",\"39\",\"1\",\"Testing\",\"Stims/Figures/94-C-20-2.bmp\",\"None\",\"Left\",\"39\",\"4\",\"4\",\"10\",\"N\",\"C\",\"76\"
\"\",\"\",\"approach-retreat\",\"225\",\"1719575\",\"0.0-225.0\",\"\",\"\",\"2-3\",\"7343\",\"38\",\"1\",\"Testing\",\"Stims/Figures/93-C-30-1.bmp\",\"None\",\"Down\",\"38\",\"4\",\"5\",\"10\",\"N\",\"C\",\"77\"
\"\",\"\",\"approach-retreat\",\"226\",\"1725961\",\"0.0-226.0\",\"\",\"\",\"2-3\",\"4859\",\"37\",\"1\",\"Testing\",\"Stims/Figures/86-C-30-1.bmp\",\"None\",\"Right\",\"37\",\"4\",\"6\",\"10\",\"N\",\"C\",\"78\"
\"\",\"\",\"approach-retreat\",\"227\",\"1732593\",\"0.0-227.0\",\"\",\"\",\"2-3\",\"5103\",\"38\",\"1\",\"Testing\",\"Stims/Figures/111-C-30-3.bmp\",\"None\",\"Down\",\"38\",\"4\",\"7\",\"10\",\"N\",\"C\",\"79\"
\"\",\"\",\"approach-retreat\",\"228\",\"1738446\",\"0.0-228.0\",\"\",\"\",\"2-3\",\"4325\",\"37\",\"1\",\"Testing\",\"Stims/Figures/86-J-0-1.bmp\",\"None\",\"Left\",\"37\",\"4\",\"8\",\"10\",\"N\",\"C\",\"80\"
\"\",\"\",\"approach-retreat\",\"229\",\"1745145\",\"0.0-229.0\",\"\",\"\",\"2-3\",\"5170\",\"38\",\"1\",\"Testing\",\"Stims/Figures/44-J-10-3.bmp\",\"None\",\"Up\",\"38\",\"4\",\"9\",\"10\",\"N\",\"C\",\"81\"
\"\",\"\",\"approach-retreat\",\"230\",\"1751517\",\"0.0-230.0\",\"\",\"\",\"2-3\",\"4840\",\"37\",\"1\",\"Testing\",\"Stims/Figures/144-J-10-3.bmp\",\"None\",\"Left\",\"37\",\"4\",\"10\",\"10\",\"N\",\"C\",\"82\"
\"\",\"\",\"approach-retreat\",\"231\",\"1758339\",\"0.0-231.0\",\"\",\"\",\"2-3\",\"5292\",\"38\",\"1\",\"Testing\",\"Stims/Figures/84-C-20-2.bmp\",\"None\",\"Down\",\"38\",\"4\",\"11\",\"10\",\"N\",\"C\",\"83\"
\"\",\"\",\"approach-retreat\",\"232\",\"1766135\",\"0.0-232.0\",\"\",\"\",\"2-3\",\"6265\",\"38\",\"1\",\"Testing\",\"Stims/Figures/111-J-10-3.bmp\",\"None\",\"Up\",\"38\",\"4\",\"12\",\"10\",\"N\",\"C\",\"84\"
\"\",\"\",\"approach-retreat\",\"233\",\"1772963\",\"0.0-233.0\",\"\",\"\",\"2-3\",\"5300\",\"38\",\"1\",\"Testing\",\"Stims/Figures/93-J-0-1.bmp\",\"None\",\"Up\",\"38\",\"4\",\"13\",\"10\",\"N\",\"C\",\"85\"
\"\",\"\",\"approach-retreat\",\"234\",\"1779344\",\"0.0-234.0\",\"\",\"\",\"2-3\",\"4853\",\"39\",\"1\",\"Testing\",\"Stims/Figures/74-C-20-4.bmp\",\"None\",\"Left\",\"39\",\"4\",\"14\",\"10\",\"N\",\"C\",\"86\"
\"\",\"\",\"approach-retreat\",\"235\",\"1785493\",\"0.0-235.0\",\"\",\"\",\"2-3\",\"4621\",\"38\",\"1\",\"Testing\",\"Stims/Figures/44-C-30-3.bmp\",\"None\",\"Down\",\"38\",\"4\",\"15\",\"10\",\"N\",\"C\",\"87\"
\"\",\"\",\"approach-retreat\",\"236\",\"1792341\",\"0.0-236.0\",\"\",\"\",\"2-3\",\"5318\",\"40\",\"1\",\"Testing\",\"Stims/Figures/139-J-0-2.bmp\",\"None\",\"Down\",\"40\",\"4\",\"16\",\"10\",\"N\",\"C\",\"88\"
\"\",\"\",\"approach-retreat\",\"237\",\"1799189\",\"0.0-237.0\",\"\",\"\",\"2-3\",\"5318\",\"38\",\"1\",\"Testing\",\"Stims/Figures/84-J-0-2.bmp\",\"None\",\"Up\",\"38\",\"4\",\"17\",\"10\",\"N\",\"C\",\"89\"
\"\",\"\",\"approach-retreat\",\"238\",\"1805978\",\"0.0-238.0\",\"\",\"\",\"2-3\",\"5260\",\"37\",\"1\",\"Testing\",\"Stims/Figures/144-C-30-3.bmp\",\"None\",\"Right\",\"37\",\"4\",\"18\",\"10\",\"N\",\"C\",\"90\"
\"\",\"\",\"approach-retreat\",\"239\",\"1812304\",\"0.0-239.0\",\"\",\"\",\"2-3\",\"4796\",\"37\",\"1\",\"Testing\",\"Stims/Figures/94-J-0-2.bmp\",\"None\",\"Left\",\"37\",\"4\",\"19\",\"10\",\"N\",\"C\",\"91\"
\"\",\"\",\"approach-retreat\",\"240\",\"1819971\",\"0.0-240.0\",\"\",\"\",\"2-3\",\"6140\",\"40\",\"1\",\"Testing\",\"Stims/Figures/71-C-30-1.bmp\",\"None\",\"Up\",\"40\",\"4\",\"20\",\"10\",\"N\",\"C\",\"92\"
\"\",\"\",\"approach-retreat\",\"241\",\"1826891\",\"0.0-241.0\",\"\",\"\",\"2-3\",\"5391\",\"37\",\"1\",\"Testing\",\"Stims/Figures/139-C-20-2.bmp\",\"None\",\"Right\",\"37\",\"4\",\"21\",\"10\",\"N\",\"C\",\"93\"
\"\",\"\",\"approach-retreat\",\"242\",\"1833157\",\"0.0-242.0\",\"\",\"\",\"2-3\",\"4739\",\"39\",\"1\",\"Testing\",\"Stims/Figures/71-J-0-1.bmp\",\"None\",\"Right\",\"39\",\"4\",\"22\",\"10\",\"N\",\"C\",\"94\"
\"\",\"\",\"approach-retreat\",\"243\",\"1839452\",\"0.0-243.0\",\"\",\"\",\"2-3\",\"4769\",\"39\",\"1\",\"Testing\",\"Stims/Figures/7-J-10-4.bmp\",\"None\",\"Right\",\"39\",\"4\",\"23\",\"10\",\"N\",\"C\",\"95\"
\"\",\"\",\"approach-retreat\",\"244\",\"1847121\",\"0.0-244.0\",\"\",\"\",\"2-3\",\"6137\",\"40\",\"1\",\"Testing\",\"Stims/Figures/102-C-20-4.bmp\",\"None\",\"Up\",\"40\",\"4\",\"24\",\"10\",\"N\",\"C\",\"96\"
\"34924\",\"\",\"survey-text\",\"245\",\"1882062\",\"0.0-245.0\",\"\",\"{\"\"Q0\"\":\"\"PS160037\"\"}\",\"\",\"\",\"\",\"\",\"\",\"\",\"\",\"\",\"\",\"\",\"\",\"\",\"\",\"\",\"\"
