\"rt\",\"key_press\",\"trial_type\",\"trial_index\",\"time_elapsed\",\"internal_node_id\",\"view_history\",\"responses\",\"Id\",\"Rt\",\"ResKeyCode\",\"ResCorr\",\"TrialType2\",\"Image\",\"Label\",\"Location\",\"CorrectResponse\",\"Block\",\"BlockTrial\",\"Condition\",\"LabelType\",\"Subcondition\",\"trialNum\"
\"29712\",\"32\",\"text\",\"0\",\"29713\",\"0.0-0.0-0.0\",\"\",\"\",\"\",\"\",\"\",\"\",\"\",\"\",\"\",\"\",\"\",\"\",\"\",\"\",\"\",\"\",\"\"
\"52362\",\"\",\"instructions\",\"1\",\"82077\",\"0.0-1.0\",\"[{\"\"page_index\"\":0,\"\"viewing_time\"\":52361}]\",\"\",\"\",\"\",\"\",\"\",\"\",\"\",\"\",\"\",\"\",\"\",\"\",\"\",\"\",\"\",\"\"
\"28418\",\"\",\"survey-multi-choice\",\"2\",\"110515\",\"0.0-2.0\",\"\",\"{\"\"Q0\"\":\"\"Da\"\",\"\"Q1\"\":\"\"Da\"\",\"\"Q2\"\":\"\"Da\"\",\"\"Q3\"\":\"\"Da\"\",\"\"Q4\"\":\"\"Da\"\",\"\"Q5\"\":\"\"Da\"\"}\",\"\",\"\",\"\",\"\",\"\",\"\",\"\",\"\",\"\",\"\",\"\",\"\",\"\",\"\",\"\"
\"\",\"\",\"bio\",\"3\",\"119835\",\"0.0-3.0\",\"\",\"{\"\"age\"\":\"\"20\"\",\"\"gender\"\":\"\"f\"\",\"\"specify\"\":\"\"\"\"}\",\"\",\"\",\"\",\"\",\"\",\"\",\"\",\"\",\"\",\"\",\"\",\"\",\"\",\"\",\"\"
\"\",\"\",\"approach-retreat\",\"4\",\"129593\",\"0.0-4.0\",\"\",\"\",\"1-1\",\"8253\",\"40\",\"0\",\"Training\",\"Stims/Figures/86-C-30-1.bmp\",\"None\",\"Up\",\"38\",\"1\",\"1\",\"10\",\"N\",\"J\",\"1\"
\"\",\"\",\"approach-retreat\",\"5\",\"136136\",\"0.0-5.0\",\"\",\"\",\"1-1\",\"5038\",\"37\",\"1\",\"Training\",\"Stims/Figures/7-J-10-4.bmp\",\"None\",\"Right\",\"37\",\"1\",\"2\",\"10\",\"N\",\"J\",\"2\"
\"\",\"\",\"approach-retreat\",\"6\",\"142774\",\"0.0-6.0\",\"\",\"\",\"1-1\",\"5132\",\"39\",\"1\",\"Training\",\"Stims/Figures/139-J-0-2.bmp\",\"None\",\"Left\",\"39\",\"1\",\"3\",\"10\",\"N\",\"J\",\"3\"
\"\",\"\",\"approach-retreat\",\"7\",\"149526\",\"0.0-7.0\",\"\",\"\",\"1-1\",\"5249\",\"40\",\"0\",\"Training\",\"Stims/Figures/87-J-10-4.bmp\",\"None\",\"Down\",\"38\",\"1\",\"4\",\"10\",\"N\",\"J\",\"4\"
\"\",\"\",\"approach-retreat\",\"8\",\"155333\",\"0.0-8.0\",\"\",\"\",\"1-1\",\"4303\",\"40\",\"0\",\"Training\",\"Stims/Figures/44-C-30-3.bmp\",\"None\",\"Up\",\"38\",\"1\",\"5\",\"10\",\"N\",\"J\",\"5\"
\"\",\"\",\"approach-retreat\",\"9\",\"161066\",\"0.0-9.0\",\"\",\"\",\"1-1\",\"4230\",\"40\",\"0\",\"Training\",\"Stims/Figures/7-C-20-4.bmp\",\"None\",\"Up\",\"38\",\"1\",\"6\",\"10\",\"N\",\"J\",\"6\"
\"\",\"\",\"approach-retreat\",\"10\",\"167039\",\"0.0-10.0\",\"\",\"\",\"1-1\",\"4469\",\"37\",\"0\",\"Training\",\"Stims/Figures/139-C-20-2.bmp\",\"None\",\"Right\",\"39\",\"1\",\"7\",\"10\",\"N\",\"J\",\"7\"
\"\",\"\",\"approach-retreat\",\"11\",\"173053\",\"0.0-11.0\",\"\",\"\",\"1-1\",\"4510\",\"40\",\"0\",\"Training\",\"Stims/Figures/84-J-0-2.bmp\",\"None\",\"Down\",\"38\",\"1\",\"8\",\"10\",\"N\",\"J\",\"8\"
\"\",\"\",\"approach-retreat\",\"12\",\"178768\",\"0.0-12.0\",\"\",\"\",\"1-1\",\"4211\",\"39\",\"0\",\"Training\",\"Stims/Figures/111-C-30-3.bmp\",\"None\",\"Left\",\"37\",\"1\",\"9\",\"10\",\"N\",\"J\",\"9\"
\"\",\"\",\"approach-retreat\",\"13\",\"184606\",\"0.0-13.0\",\"\",\"\",\"1-1\",\"4337\",\"37\",\"1\",\"Training\",\"Stims/Figures/44-J-10-3.bmp\",\"None\",\"Right\",\"37\",\"1\",\"10\",\"10\",\"N\",\"J\",\"10\"
\"\",\"\",\"approach-retreat\",\"14\",\"190444\",\"0.0-14.0\",\"\",\"\",\"1-1\",\"4333\",\"38\",\"0\",\"Training\",\"Stims/Figures/87-C-20-4.bmp\",\"None\",\"Down\",\"40\",\"1\",\"11\",\"10\",\"N\",\"J\",\"11\"
\"\",\"\",\"approach-retreat\",\"15\",\"196495\",\"0.0-15.0\",\"\",\"\",\"1-1\",\"4547\",\"39\",\"0\",\"Training\",\"Stims/Figures/84-C-20-2.bmp\",\"None\",\"Left\",\"37\",\"1\",\"12\",\"10\",\"N\",\"J\",\"12\"
\"\",\"\",\"approach-retreat\",\"16\",\"202203\",\"0.0-16.0\",\"\",\"\",\"1-1\",\"4206\",\"40\",\"1\",\"Training\",\"Stims/Figures/111-J-10-3.bmp\",\"None\",\"Up\",\"40\",\"1\",\"13\",\"10\",\"N\",\"J\",\"13\"
\"\",\"\",\"approach-retreat\",\"17\",\"208760\",\"0.0-17.0\",\"\",\"\",\"1-1\",\"5054\",\"39\",\"1\",\"Training\",\"Stims/Figures/86-J-0-1.bmp\",\"None\",\"Left\",\"39\",\"1\",\"14\",\"10\",\"N\",\"J\",\"14\"
\"\",\"\",\"approach-retreat\",\"18\",\"215665\",\"0.0-18.0\",\"\",\"\",\"1-1\",\"5401\",\"38\",\"0\",\"Training\",\"Stims/Figures/27-C-30-1.bmp\",\"None\",\"Down\",\"40\",\"1\",\"15\",\"10\",\"N\",\"J\",\"15\"
\"\",\"\",\"approach-retreat\",\"19\",\"221566\",\"0.0-19.0\",\"\",\"\",\"1-1\",\"4395\",\"37\",\"1\",\"Training\",\"Stims/Figures/27-J-0-1.bmp\",\"None\",\"Right\",\"37\",\"1\",\"16\",\"10\",\"N\",\"J\",\"16\"
\"\",\"\",\"approach-retreat\",\"20\",\"227313\",\"0.0-20.0\",\"\",\"\",\"1-1\",\"4242\",\"38\",\"1\",\"Training\",\"Stims/Figures/86-J-0-1.bmp\",\"None\",\"Down\",\"38\",\"2\",\"1\",\"10\",\"N\",\"J\",\"17\"
\"\",\"\",\"approach-retreat\",\"21\",\"233258\",\"0.0-21.0\",\"\",\"\",\"1-1\",\"4442\",\"40\",\"1\",\"Training\",\"Stims/Figures/84-J-0-2.bmp\",\"None\",\"Up\",\"40\",\"2\",\"2\",\"10\",\"N\",\"J\",\"18\"
\"\",\"\",\"approach-retreat\",\"22\",\"238919\",\"0.0-22.0\",\"\",\"\",\"1-1\",\"4157\",\"40\",\"0\",\"Training\",\"Stims/Figures/87-J-10-4.bmp\",\"None\",\"Down\",\"38\",\"2\",\"3\",\"10\",\"N\",\"J\",\"19\"
\"\",\"\",\"approach-retreat\",\"23\",\"244935\",\"0.0-23.0\",\"\",\"\",\"1-1\",\"4513\",\"37\",\"1\",\"Training\",\"Stims/Figures/27-J-0-1.bmp\",\"None\",\"Right\",\"37\",\"2\",\"4\",\"10\",\"N\",\"J\",\"20\"
\"\",\"\",\"approach-retreat\",\"24\",\"251203\",\"0.0-24.0\",\"\",\"\",\"1-1\",\"4764\",\"39\",\"0\",\"Training\",\"Stims/Figures/87-C-20-4.bmp\",\"None\",\"Left\",\"37\",\"2\",\"5\",\"10\",\"N\",\"J\",\"21\"
\"\",\"\",\"approach-retreat\",\"25\",\"257052\",\"0.0-25.0\",\"\",\"\",\"1-1\",\"4344\",\"37\",\"1\",\"Training\",\"Stims/Figures/27-C-30-1.bmp\",\"None\",\"Left\",\"37\",\"2\",\"6\",\"10\",\"N\",\"J\",\"22\"
\"\",\"\",\"approach-retreat\",\"26\",\"262760\",\"0.0-26.0\",\"\",\"\",\"1-1\",\"4205\",\"39\",\"1\",\"Training\",\"Stims/Figures/7-J-10-4.bmp\",\"None\",\"Left\",\"39\",\"2\",\"7\",\"10\",\"N\",\"J\",\"23\"
\"\",\"\",\"approach-retreat\",\"27\",\"268520\",\"0.0-27.0\",\"\",\"\",\"1-1\",\"4256\",\"37\",\"0\",\"Training\",\"Stims/Figures/7-C-20-4.bmp\",\"None\",\"Right\",\"39\",\"2\",\"8\",\"10\",\"N\",\"J\",\"24\"
\"\",\"\",\"approach-retreat\",\"28\",\"274839\",\"0.0-28.0\",\"\",\"\",\"1-1\",\"4815\",\"39\",\"0\",\"Training\",\"Stims/Figures/44-C-30-3.bmp\",\"None\",\"Left\",\"37\",\"2\",\"9\",\"10\",\"N\",\"J\",\"25\"
\"\",\"\",\"approach-retreat\",\"29\",\"280602\",\"0.0-29.0\",\"\",\"\",\"1-1\",\"4260\",\"38\",\"0\",\"Training\",\"Stims/Figures/111-C-30-3.bmp\",\"None\",\"Down\",\"40\",\"2\",\"10\",\"10\",\"N\",\"J\",\"26\"
\"\",\"\",\"approach-retreat\",\"30\",\"286556\",\"0.0-30.0\",\"\",\"\",\"1-1\",\"4450\",\"40\",\"1\",\"Training\",\"Stims/Figures/86-C-30-1.bmp\",\"None\",\"Down\",\"40\",\"2\",\"11\",\"10\",\"N\",\"J\",\"27\"
\"\",\"\",\"approach-retreat\",\"31\",\"293307\",\"0.0-31.0\",\"\",\"\",\"1-1\",\"5247\",\"38\",\"1\",\"Training\",\"Stims/Figures/84-C-20-2.bmp\",\"None\",\"Up\",\"38\",\"2\",\"12\",\"10\",\"N\",\"J\",\"28\"
\"\",\"\",\"approach-retreat\",\"32\",\"299217\",\"0.0-32.0\",\"\",\"\",\"1-1\",\"4405\",\"40\",\"1\",\"Training\",\"Stims/Figures/44-J-10-3.bmp\",\"None\",\"Up\",\"40\",\"2\",\"13\",\"10\",\"N\",\"J\",\"29\"
\"\",\"\",\"approach-retreat\",\"33\",\"305535\",\"0.0-33.0\",\"\",\"\",\"1-1\",\"4816\",\"37\",\"0\",\"Training\",\"Stims/Figures/139-C-20-2.bmp\",\"None\",\"Right\",\"39\",\"2\",\"14\",\"10\",\"N\",\"J\",\"30\"
\"\",\"\",\"approach-retreat\",\"34\",\"311821\",\"0.0-34.0\",\"\",\"\",\"1-1\",\"4781\",\"38\",\"0\",\"Training\",\"Stims/Figures/111-J-10-3.bmp\",\"None\",\"Up\",\"40\",\"2\",\"15\",\"10\",\"N\",\"J\",\"31\"
\"\",\"\",\"approach-retreat\",\"35\",\"319907\",\"0.0-35.0\",\"\",\"\",\"1-1\",\"6583\",\"39\",\"0\",\"Training\",\"Stims/Figures/139-J-0-2.bmp\",\"None\",\"Right\",\"37\",\"2\",\"16\",\"10\",\"N\",\"J\",\"32\"
\"\",\"\",\"approach-retreat\",\"36\",\"325732\",\"0.0-36.0\",\"\",\"\",\"1-1\",\"4321\",\"39\",\"1\",\"Training\",\"Stims/Figures/86-J-0-1.bmp\",\"None\",\"Left\",\"39\",\"3\",\"1\",\"10\",\"N\",\"J\",\"33\"
\"\",\"\",\"approach-retreat\",\"37\",\"331683\",\"0.0-37.0\",\"\",\"\",\"1-1\",\"4446\",\"38\",\"1\",\"Training\",\"Stims/Figures/44-J-10-3.bmp\",\"None\",\"Down\",\"38\",\"3\",\"2\",\"10\",\"N\",\"J\",\"34\"
\"\",\"\",\"approach-retreat\",\"38\",\"337760\",\"0.0-38.0\",\"\",\"\",\"1-1\",\"4573\",\"40\",\"1\",\"Training\",\"Stims/Figures/84-J-0-2.bmp\",\"None\",\"Up\",\"40\",\"3\",\"3\",\"10\",\"N\",\"J\",\"35\"
\"\",\"\",\"approach-retreat\",\"39\",\"343899\",\"0.0-39.0\",\"\",\"\",\"1-1\",\"4635\",\"37\",\"0\",\"Training\",\"Stims/Figures/7-C-20-4.bmp\",\"None\",\"Right\",\"39\",\"3\",\"4\",\"10\",\"N\",\"J\",\"36\"
\"\",\"\",\"approach-retreat\",\"40\",\"349803\",\"0.0-40.0\",\"\",\"\",\"1-1\",\"4400\",\"37\",\"1\",\"Training\",\"Stims/Figures/87-C-20-4.bmp\",\"None\",\"Left\",\"37\",\"3\",\"5\",\"10\",\"N\",\"J\",\"37\"
\"\",\"\",\"approach-retreat\",\"41\",\"355838\",\"0.0-41.0\",\"\",\"\",\"1-1\",\"4532\",\"38\",\"1\",\"Training\",\"Stims/Figures/87-J-10-4.bmp\",\"None\",\"Down\",\"38\",\"3\",\"6\",\"10\",\"N\",\"J\",\"38\"
\"\",\"\",\"approach-retreat\",\"42\",\"361397\",\"0.0-42.0\",\"\",\"\",\"1-1\",\"4056\",\"40\",\"1\",\"Training\",\"Stims/Figures/86-C-30-1.bmp\",\"None\",\"Down\",\"40\",\"3\",\"7\",\"10\",\"N\",\"J\",\"39\"
\"\",\"\",\"approach-retreat\",\"43\",\"367274\",\"0.0-43.0\",\"\",\"\",\"1-1\",\"4372\",\"39\",\"0\",\"Training\",\"Stims/Figures/111-J-10-3.bmp\",\"None\",\"Right\",\"37\",\"3\",\"8\",\"10\",\"N\",\"J\",\"40\"
\"\",\"\",\"approach-retreat\",\"44\",\"372886\",\"0.0-44.0\",\"\",\"\",\"1-1\",\"4109\",\"37\",\"1\",\"Training\",\"Stims/Figures/7-J-10-4.bmp\",\"None\",\"Right\",\"37\",\"3\",\"9\",\"10\",\"N\",\"J\",\"41\"
\"\",\"\",\"approach-retreat\",\"45\",\"378578\",\"0.0-45.0\",\"\",\"\",\"1-1\",\"4188\",\"40\",\"0\",\"Training\",\"Stims/Figures/27-C-30-1.bmp\",\"None\",\"Up\",\"38\",\"3\",\"10\",\"10\",\"N\",\"J\",\"42\"
\"\",\"\",\"approach-retreat\",\"46\",\"384698\",\"0.0-46.0\",\"\",\"\",\"1-1\",\"4615\",\"40\",\"1\",\"Training\",\"Stims/Figures/111-C-30-3.bmp\",\"None\",\"Down\",\"40\",\"3\",\"11\",\"10\",\"N\",\"J\",\"43\"
\"\",\"\",\"approach-retreat\",\"47\",\"390442\",\"0.0-47.0\",\"\",\"\",\"1-1\",\"4240\",\"38\",\"1\",\"Training\",\"Stims/Figures/84-C-20-2.bmp\",\"None\",\"Up\",\"38\",\"3\",\"12\",\"10\",\"N\",\"J\",\"44\"
\"\",\"\",\"approach-retreat\",\"48\",\"396141\",\"0.0-48.0\",\"\",\"\",\"1-1\",\"4196\",\"39\",\"1\",\"Training\",\"Stims/Figures/44-C-30-3.bmp\",\"None\",\"Right\",\"39\",\"3\",\"13\",\"10\",\"N\",\"J\",\"45\"
\"\",\"\",\"approach-retreat\",\"49\",\"401964\",\"0.0-49.0\",\"\",\"\",\"1-1\",\"4320\",\"39\",\"0\",\"Training\",\"Stims/Figures/139-C-20-2.bmp\",\"None\",\"Left\",\"37\",\"3\",\"14\",\"10\",\"N\",\"J\",\"46\"
\"\",\"\",\"approach-retreat\",\"50\",\"407831\",\"0.0-50.0\",\"\",\"\",\"1-1\",\"4363\",\"38\",\"0\",\"Training\",\"Stims/Figures/139-J-0-2.bmp\",\"None\",\"Up\",\"40\",\"3\",\"15\",\"10\",\"N\",\"J\",\"47\"
\"\",\"\",\"approach-retreat\",\"51\",\"413815\",\"0.0-51.0\",\"\",\"\",\"1-1\",\"4480\",\"37\",\"0\",\"Training\",\"Stims/Figures/27-J-0-1.bmp\",\"None\",\"Left\",\"39\",\"3\",\"16\",\"10\",\"N\",\"J\",\"48\"
\"\",\"\",\"approach-retreat\",\"52\",\"419710\",\"0.0-52.0\",\"\",\"\",\"1-1\",\"4391\",\"37\",\"1\",\"Training\",\"Stims/Figures/139-J-0-2.bmp\",\"None\",\"Right\",\"37\",\"4\",\"1\",\"10\",\"N\",\"J\",\"49\"
\"\",\"\",\"approach-retreat\",\"53\",\"425604\",\"0.0-53.0\",\"\",\"\",\"1-1\",\"4391\",\"37\",\"1\",\"Training\",\"Stims/Figures/86-C-30-1.bmp\",\"None\",\"Left\",\"37\",\"4\",\"2\",\"10\",\"N\",\"J\",\"50\"
\"\",\"\",\"approach-retreat\",\"54\",\"431265\",\"0.0-54.0\",\"\",\"\",\"1-1\",\"4157\",\"40\",\"1\",\"Training\",\"Stims/Figures/111-C-30-3.bmp\",\"None\",\"Down\",\"40\",\"4\",\"3\",\"10\",\"N\",\"J\",\"51\"
\"\",\"\",\"approach-retreat\",\"55\",\"437023\",\"0.0-55.0\",\"\",\"\",\"1-1\",\"4255\",\"38\",\"1\",\"Training\",\"Stims/Figures/86-J-0-1.bmp\",\"None\",\"Down\",\"38\",\"4\",\"4\",\"10\",\"N\",\"J\",\"52\"
\"\",\"\",\"approach-retreat\",\"56\",\"444355\",\"0.0-56.0\",\"\",\"\",\"1-1\",\"5828\",\"39\",\"1\",\"Training\",\"Stims/Figures/87-J-10-4.bmp\",\"None\",\"Left\",\"39\",\"4\",\"5\",\"10\",\"N\",\"J\",\"53\"
\"\",\"\",\"approach-retreat\",\"57\",\"450223\",\"0.0-57.0\",\"\",\"\",\"1-1\",\"4365\",\"40\",\"0\",\"Training\",\"Stims/Figures/87-C-20-4.bmp\",\"None\",\"Up\",\"38\",\"4\",\"6\",\"10\",\"N\",\"J\",\"54\"
\"\",\"\",\"approach-retreat\",\"58\",\"456091\",\"0.0-58.0\",\"\",\"\",\"1-1\",\"4365\",\"40\",\"1\",\"Training\",\"Stims/Figures/84-J-0-2.bmp\",\"None\",\"Up\",\"40\",\"4\",\"7\",\"10\",\"N\",\"J\",\"55\"
\"\",\"\",\"approach-retreat\",\"59\",\"463114\",\"0.0-59.0\",\"\",\"\",\"1-1\",\"5518\",\"37\",\"1\",\"Training\",\"Stims/Figures/7-J-10-4.bmp\",\"None\",\"Right\",\"37\",\"4\",\"8\",\"10\",\"N\",\"J\",\"56\"
\"\",\"\",\"approach-retreat\",\"60\",\"468712\",\"0.0-60.0\",\"\",\"\",\"1-1\",\"4095\",\"37\",\"1\",\"Training\",\"Stims/Figures/139-C-20-2.bmp\",\"None\",\"Left\",\"37\",\"4\",\"9\",\"10\",\"N\",\"J\",\"57\"
\"\",\"\",\"approach-retreat\",\"61\",\"474440\",\"0.0-61.0\",\"\",\"\",\"1-1\",\"4224\",\"40\",\"1\",\"Training\",\"Stims/Figures/44-J-10-3.bmp\",\"None\",\"Up\",\"40\",\"4\",\"10\",\"10\",\"N\",\"J\",\"58\"
\"\",\"\",\"approach-retreat\",\"62\",\"480485\",\"0.0-62.0\",\"\",\"\",\"1-1\",\"4542\",\"37\",\"1\",\"Training\",\"Stims/Figures/111-J-10-3.bmp\",\"None\",\"Right\",\"37\",\"4\",\"11\",\"10\",\"N\",\"J\",\"59\"
\"\",\"\",\"approach-retreat\",\"63\",\"486197\",\"0.0-63.0\",\"\",\"\",\"1-1\",\"4209\",\"40\",\"1\",\"Training\",\"Stims/Figures/27-C-30-1.bmp\",\"None\",\"Down\",\"40\",\"4\",\"12\",\"10\",\"N\",\"J\",\"60\"
\"\",\"\",\"approach-retreat\",\"64\",\"492469\",\"0.0-64.0\",\"\",\"\",\"1-1\",\"4770\",\"39\",\"1\",\"Training\",\"Stims/Figures/27-J-0-1.bmp\",\"None\",\"Left\",\"39\",\"4\",\"13\",\"10\",\"N\",\"J\",\"61\"
\"\",\"\",\"approach-retreat\",\"65\",\"498187\",\"0.0-65.0\",\"\",\"\",\"1-1\",\"4214\",\"37\",\"0\",\"Training\",\"Stims/Figures/7-C-20-4.bmp\",\"None\",\"Right\",\"39\",\"4\",\"14\",\"10\",\"N\",\"J\",\"62\"
\"\",\"\",\"approach-retreat\",\"66\",\"503991\",\"0.0-66.0\",\"\",\"\",\"1-1\",\"4301\",\"38\",\"1\",\"Training\",\"Stims/Figures/84-C-20-2.bmp\",\"None\",\"Up\",\"38\",\"4\",\"15\",\"10\",\"N\",\"J\",\"63\"
\"\",\"\",\"approach-retreat\",\"67\",\"509703\",\"0.0-67.0\",\"\",\"\",\"1-1\",\"4207\",\"40\",\"1\",\"Training\",\"Stims/Figures/44-C-30-3.bmp\",\"None\",\"Down\",\"40\",\"4\",\"16\",\"10\",\"N\",\"J\",\"64\"
\"\",\"\",\"approach-retreat\",\"68\",\"515488\",\"0.0-68.0\",\"\",\"\",\"1-1\",\"4282\",\"38\",\"1\",\"Training\",\"Stims/Figures/87-J-10-4.bmp\",\"None\",\"Down\",\"38\",\"5\",\"1\",\"10\",\"N\",\"J\",\"65\"
\"\",\"\",\"approach-retreat\",\"69\",\"521136\",\"0.0-69.0\",\"\",\"\",\"1-1\",\"4146\",\"37\",\"1\",\"Training\",\"Stims/Figures/139-J-0-2.bmp\",\"None\",\"Right\",\"37\",\"5\",\"2\",\"10\",\"N\",\"J\",\"66\"
\"\",\"\",\"approach-retreat\",\"70\",\"527113\",\"0.0-70.0\",\"\",\"\",\"1-1\",\"4474\",\"40\",\"1\",\"Training\",\"Stims/Figures/139-C-20-2.bmp\",\"None\",\"Down\",\"40\",\"5\",\"3\",\"10\",\"N\",\"J\",\"67\"
\"\",\"\",\"approach-retreat\",\"71\",\"533167\",\"0.0-71.0\",\"\",\"\",\"1-1\",\"4550\",\"38\",\"1\",\"Training\",\"Stims/Figures/111-C-30-3.bmp\",\"None\",\"Up\",\"38\",\"5\",\"4\",\"10\",\"N\",\"J\",\"68\"
\"\",\"\",\"approach-retreat\",\"72\",\"539324\",\"0.0-72.0\",\"\",\"\",\"1-1\",\"4653\",\"39\",\"1\",\"Training\",\"Stims/Figures/84-J-0-2.bmp\",\"None\",\"Left\",\"39\",\"5\",\"5\",\"10\",\"N\",\"J\",\"69\"
\"\",\"\",\"approach-retreat\",\"73\",\"544971\",\"0.0-73.0\",\"\",\"\",\"1-1\",\"4144\",\"40\",\"1\",\"Training\",\"Stims/Figures/27-J-0-1.bmp\",\"None\",\"Up\",\"40\",\"5\",\"6\",\"10\",\"N\",\"J\",\"70\"
\"\",\"\",\"approach-retreat\",\"74\",\"551544\",\"0.0-74.0\",\"\",\"\",\"1-1\",\"5069\",\"39\",\"1\",\"Training\",\"Stims/Figures/84-C-20-2.bmp\",\"None\",\"Right\",\"39\",\"5\",\"7\",\"10\",\"N\",\"J\",\"71\"
\"\",\"\",\"approach-retreat\",\"75\",\"557892\",\"0.0-75.0\",\"\",\"\",\"1-1\",\"4844\",\"37\",\"1\",\"Training\",\"Stims/Figures/27-C-30-1.bmp\",\"None\",\"Left\",\"37\",\"5\",\"8\",\"10\",\"N\",\"J\",\"72\"
\"\",\"\",\"approach-retreat\",\"76\",\"564415\",\"0.0-76.0\",\"\",\"\",\"1-1\",\"5018\",\"40\",\"0\",\"Training\",\"Stims/Figures/111-J-10-3.bmp\",\"None\",\"Down\",\"38\",\"5\",\"9\",\"10\",\"N\",\"J\",\"73\"
\"\",\"\",\"approach-retreat\",\"77\",\"570086\",\"0.0-77.0\",\"\",\"\",\"1-1\",\"4167\",\"39\",\"1\",\"Training\",\"Stims/Figures/87-C-20-4.bmp\",\"None\",\"Right\",\"39\",\"5\",\"10\",\"10\",\"N\",\"J\",\"74\"
\"\",\"\",\"approach-retreat\",\"78\",\"576118\",\"0.0-78.0\",\"\",\"\",\"1-1\",\"4527\",\"39\",\"1\",\"Training\",\"Stims/Figures/86-C-30-1.bmp\",\"None\",\"Right\",\"39\",\"5\",\"11\",\"10\",\"N\",\"J\",\"75\"
\"\",\"\",\"approach-retreat\",\"79\",\"582036\",\"0.0-79.0\",\"\",\"\",\"1-1\",\"4414\",\"39\",\"1\",\"Training\",\"Stims/Figures/44-J-10-3.bmp\",\"None\",\"Left\",\"39\",\"5\",\"12\",\"10\",\"N\",\"J\",\"76\"
\"\",\"\",\"approach-retreat\",\"80\",\"587955\",\"0.0-80.0\",\"\",\"\",\"1-1\",\"4415\",\"38\",\"1\",\"Training\",\"Stims/Figures/44-C-30-3.bmp\",\"None\",\"Up\",\"38\",\"5\",\"13\",\"10\",\"N\",\"J\",\"77\"
\"\",\"\",\"approach-retreat\",\"81\",\"593789\",\"0.0-81.0\",\"\",\"\",\"1-1\",\"4331\",\"37\",\"1\",\"Training\",\"Stims/Figures/7-C-20-4.bmp\",\"None\",\"Left\",\"37\",\"5\",\"14\",\"10\",\"N\",\"J\",\"78\"
\"\",\"\",\"approach-retreat\",\"82\",\"599728\",\"0.0-82.0\",\"\",\"\",\"1-1\",\"4434\",\"38\",\"1\",\"Training\",\"Stims/Figures/7-J-10-4.bmp\",\"None\",\"Down\",\"38\",\"5\",\"15\",\"10\",\"N\",\"J\",\"79\"
\"\",\"\",\"approach-retreat\",\"83\",\"605477\",\"0.0-83.0\",\"\",\"\",\"1-1\",\"4244\",\"40\",\"1\",\"Training\",\"Stims/Figures/86-J-0-1.bmp\",\"None\",\"Up\",\"40\",\"5\",\"16\",\"10\",\"N\",\"J\",\"80\"
\"\",\"\",\"approach-retreat\",\"84\",\"611967\",\"0.0-84.0\",\"\",\"\",\"1-1\",\"4987\",\"39\",\"1\",\"Training\",\"Stims/Figures/84-J-0-2.bmp\",\"None\",\"Left\",\"39\",\"6\",\"1\",\"10\",\"N\",\"J\",\"81\"
\"\",\"\",\"approach-retreat\",\"85\",\"619820\",\"0.0-85.0\",\"\",\"\",\"1-1\",\"6349\",\"39\",\"1\",\"Training\",\"Stims/Figures/87-C-20-4.bmp\",\"None\",\"Right\",\"39\",\"6\",\"2\",\"10\",\"N\",\"J\",\"82\"
\"\",\"\",\"approach-retreat\",\"86\",\"626040\",\"0.0-86.0\",\"\",\"\",\"1-1\",\"4716\",\"37\",\"1\",\"Training\",\"Stims/Figures/87-J-10-4.bmp\",\"None\",\"Right\",\"37\",\"6\",\"3\",\"10\",\"N\",\"J\",\"83\"
\"\",\"\",\"approach-retreat\",\"87\",\"631790\",\"0.0-87.0\",\"\",\"\",\"1-1\",\"4245\",\"38\",\"1\",\"Training\",\"Stims/Figures/27-J-0-1.bmp\",\"None\",\"Down\",\"38\",\"6\",\"4\",\"10\",\"N\",\"J\",\"84\"
\"\",\"\",\"approach-retreat\",\"88\",\"638630\",\"0.0-88.0\",\"\",\"\",\"1-1\",\"5336\",\"38\",\"1\",\"Training\",\"Stims/Figures/27-C-30-1.bmp\",\"None\",\"Up\",\"38\",\"6\",\"5\",\"10\",\"N\",\"J\",\"85\"
\"\",\"\",\"approach-retreat\",\"89\",\"644521\",\"0.0-89.0\",\"\",\"\",\"1-1\",\"4389\",\"39\",\"1\",\"Training\",\"Stims/Figures/84-C-20-2.bmp\",\"None\",\"Right\",\"39\",\"6\",\"6\",\"10\",\"N\",\"J\",\"86\"
\"\",\"\",\"approach-retreat\",\"90\",\"651106\",\"0.0-90.0\",\"\",\"\",\"1-1\",\"5081\",\"38\",\"1\",\"Training\",\"Stims/Figures/7-J-10-4.bmp\",\"None\",\"Down\",\"38\",\"6\",\"7\",\"10\",\"N\",\"J\",\"87\"
\"\",\"\",\"approach-retreat\",\"91\",\"656812\",\"0.0-91.0\",\"\",\"\",\"1-1\",\"4202\",\"40\",\"1\",\"Training\",\"Stims/Figures/86-C-30-1.bmp\",\"None\",\"Down\",\"40\",\"6\",\"8\",\"10\",\"N\",\"J\",\"88\"
\"\",\"\",\"approach-retreat\",\"92\",\"662551\",\"0.0-92.0\",\"\",\"\",\"1-1\",\"4235\",\"40\",\"1\",\"Training\",\"Stims/Figures/44-J-10-3.bmp\",\"None\",\"Up\",\"40\",\"6\",\"9\",\"10\",\"N\",\"J\",\"89\"
\"\",\"\",\"approach-retreat\",\"93\",\"668389\",\"0.0-93.0\",\"\",\"\",\"1-1\",\"4335\",\"38\",\"1\",\"Training\",\"Stims/Figures/111-J-10-3.bmp\",\"None\",\"Down\",\"38\",\"6\",\"10\",\"10\",\"N\",\"J\",\"90\"
\"\",\"\",\"approach-retreat\",\"94\",\"675158\",\"0.0-94.0\",\"\",\"\",\"1-1\",\"5265\",\"38\",\"1\",\"Training\",\"Stims/Figures/44-C-30-3.bmp\",\"None\",\"Up\",\"38\",\"6\",\"11\",\"10\",\"N\",\"J\",\"91\"
\"\",\"\",\"approach-retreat\",\"95\",\"681155\",\"0.0-95.0\",\"\",\"\",\"1-1\",\"4495\",\"39\",\"1\",\"Training\",\"Stims/Figures/111-C-30-3.bmp\",\"None\",\"Right\",\"39\",\"6\",\"12\",\"10\",\"N\",\"J\",\"92\"
\"\",\"\",\"approach-retreat\",\"96\",\"688486\",\"0.0-96.0\",\"\",\"\",\"1-1\",\"5828\",\"38\",\"1\",\"Training\",\"Stims/Figures/139-C-20-2.bmp\",\"None\",\"Up\",\"38\",\"6\",\"13\",\"10\",\"N\",\"J\",\"93\"
\"\",\"\",\"approach-retreat\",\"97\",\"694280\",\"0.0-97.0\",\"\",\"\",\"1-1\",\"4290\",\"39\",\"1\",\"Training\",\"Stims/Figures/86-J-0-1.bmp\",\"None\",\"Left\",\"39\",\"6\",\"14\",\"10\",\"N\",\"J\",\"94\"
\"\",\"\",\"approach-retreat\",\"98\",\"700040\",\"0.0-98.0\",\"\",\"\",\"1-1\",\"4256\",\"39\",\"1\",\"Training\",\"Stims/Figures/139-J-0-2.bmp\",\"None\",\"Left\",\"39\",\"6\",\"15\",\"10\",\"N\",\"J\",\"95\"
\"\",\"\",\"approach-retreat\",\"99\",\"705851\",\"0.0-99.0\",\"\",\"\",\"1-1\",\"4308\",\"37\",\"1\",\"Training\",\"Stims/Figures/7-C-20-4.bmp\",\"None\",\"Left\",\"37\",\"6\",\"16\",\"10\",\"N\",\"J\",\"96\"
\"\",\"\",\"approach-retreat\",\"100\",\"711527\",\"0.0-100.0\",\"\",\"\",\"1-1\",\"4173\",\"40\",\"1\",\"Training\",\"Stims/Figures/27-J-0-1.bmp\",\"None\",\"Up\",\"40\",\"7\",\"1\",\"10\",\"N\",\"J\",\"97\"
\"\",\"\",\"approach-retreat\",\"101\",\"717150\",\"0.0-101.0\",\"\",\"\",\"1-1\",\"4120\",\"37\",\"1\",\"Training\",\"Stims/Figures/86-C-30-1.bmp\",\"None\",\"Left\",\"37\",\"7\",\"2\",\"10\",\"N\",\"J\",\"98\"
\"\",\"\",\"approach-retreat\",\"102\",\"722941\",\"0.0-102.0\",\"\",\"\",\"1-1\",\"4286\",\"39\",\"1\",\"Training\",\"Stims/Figures/7-C-20-4.bmp\",\"None\",\"Right\",\"39\",\"7\",\"3\",\"10\",\"N\",\"J\",\"99\"
\"\",\"\",\"approach-retreat\",\"103\",\"728827\",\"0.0-103.0\",\"\",\"\",\"1-1\",\"4382\",\"40\",\"1\",\"Training\",\"Stims/Figures/27-C-30-1.bmp\",\"None\",\"Down\",\"40\",\"7\",\"4\",\"10\",\"N\",\"J\",\"100\"
\"\",\"\",\"approach-retreat\",\"104\",\"735022\",\"0.0-104.0\",\"\",\"\",\"1-1\",\"4691\",\"39\",\"0\",\"Training\",\"Stims/Figures/7-J-10-4.bmp\",\"None\",\"Right\",\"37\",\"7\",\"5\",\"10\",\"N\",\"J\",\"101\"
\"\",\"\",\"approach-retreat\",\"105\",\"740713\",\"0.0-105.0\",\"\",\"\",\"1-1\",\"4187\",\"40\",\"1\",\"Training\",\"Stims/Figures/111-C-30-3.bmp\",\"None\",\"Down\",\"40\",\"7\",\"6\",\"10\",\"N\",\"J\",\"102\"
\"\",\"\",\"approach-retreat\",\"106\",\"746774\",\"0.0-106.0\",\"\",\"\",\"1-1\",\"4557\",\"40\",\"1\",\"Training\",\"Stims/Figures/139-J-0-2.bmp\",\"None\",\"Up\",\"40\",\"7\",\"7\",\"10\",\"N\",\"J\",\"103\"
\"\",\"\",\"approach-retreat\",\"107\",\"752376\",\"0.0-107.0\",\"\",\"\",\"1-1\",\"4099\",\"40\",\"1\",\"Training\",\"Stims/Figures/111-J-10-3.bmp\",\"None\",\"Up\",\"40\",\"7\",\"8\",\"10\",\"N\",\"J\",\"104\"
\"\",\"\",\"approach-retreat\",\"108\",\"760817\",\"0.0-108.0\",\"\",\"\",\"1-1\",\"6937\",\"38\",\"1\",\"Training\",\"Stims/Figures/87-C-20-4.bmp\",\"None\",\"Up\",\"38\",\"7\",\"9\",\"10\",\"N\",\"J\",\"105\"
\"\",\"\",\"approach-retreat\",\"109\",\"766471\",\"0.0-109.0\",\"\",\"\",\"1-1\",\"4151\",\"39\",\"1\",\"Training\",\"Stims/Figures/84-J-0-2.bmp\",\"None\",\"Left\",\"39\",\"7\",\"10\",\"10\",\"N\",\"J\",\"106\"
\"\",\"\",\"approach-retreat\",\"110\",\"772439\",\"0.0-110.0\",\"\",\"\",\"1-1\",\"4464\",\"39\",\"1\",\"Training\",\"Stims/Figures/87-J-10-4.bmp\",\"None\",\"Left\",\"39\",\"7\",\"11\",\"10\",\"N\",\"J\",\"107\"
\"\",\"\",\"approach-retreat\",\"111\",\"778371\",\"0.0-111.0\",\"\",\"\",\"1-1\",\"4429\",\"37\",\"1\",\"Training\",\"Stims/Figures/86-J-0-1.bmp\",\"None\",\"Right\",\"37\",\"7\",\"12\",\"10\",\"N\",\"J\",\"108\"
\"\",\"\",\"approach-retreat\",\"112\",\"784098\",\"0.0-112.0\",\"\",\"\",\"1-1\",\"4224\",\"40\",\"1\",\"Training\",\"Stims/Figures/139-C-20-2.bmp\",\"None\",\"Down\",\"40\",\"7\",\"13\",\"10\",\"N\",\"J\",\"109\"
\"\",\"\",\"approach-retreat\",\"113\",\"791844\",\"0.0-113.0\",\"\",\"\",\"1-1\",\"6243\",\"38\",\"1\",\"Training\",\"Stims/Figures/44-J-10-3.bmp\",\"None\",\"Down\",\"38\",\"7\",\"14\",\"10\",\"N\",\"J\",\"110\"
\"\",\"\",\"approach-retreat\",\"114\",\"797499\",\"0.0-114.0\",\"\",\"\",\"1-1\",\"4151\",\"37\",\"1\",\"Training\",\"Stims/Figures/44-C-30-3.bmp\",\"None\",\"Left\",\"37\",\"7\",\"15\",\"10\",\"N\",\"J\",\"111\"
\"\",\"\",\"approach-retreat\",\"115\",\"803420\",\"0.0-115.0\",\"\",\"\",\"1-1\",\"4417\",\"39\",\"1\",\"Training\",\"Stims/Figures/84-C-20-2.bmp\",\"None\",\"Right\",\"39\",\"7\",\"16\",\"10\",\"N\",\"J\",\"112\"
\"\",\"\",\"approach-retreat\",\"116\",\"809167\",\"0.0-116.0\",\"\",\"\",\"1-1\",\"4243\",\"40\",\"1\",\"Training\",\"Stims/Figures/84-C-20-2.bmp\",\"None\",\"Down\",\"40\",\"8\",\"1\",\"10\",\"N\",\"J\",\"113\"
\"\",\"\",\"approach-retreat\",\"117\",\"815245\",\"0.0-117.0\",\"\",\"\",\"1-1\",\"4574\",\"37\",\"1\",\"Training\",\"Stims/Figures/111-C-30-3.bmp\",\"None\",\"Left\",\"37\",\"8\",\"2\",\"10\",\"N\",\"J\",\"114\"
\"\",\"\",\"approach-retreat\",\"118\",\"820727\",\"0.0-118.0\",\"\",\"\",\"1-1\",\"3978\",\"37\",\"1\",\"Training\",\"Stims/Figures/111-J-10-3.bmp\",\"None\",\"Right\",\"37\",\"8\",\"3\",\"10\",\"N\",\"J\",\"115\"
\"\",\"\",\"approach-retreat\",\"119\",\"826257\",\"0.0-119.0\",\"\",\"\",\"1-1\",\"4028\",\"39\",\"1\",\"Training\",\"Stims/Figures/87-C-20-4.bmp\",\"None\",\"Right\",\"39\",\"8\",\"4\",\"10\",\"N\",\"J\",\"116\"
\"\",\"\",\"approach-retreat\",\"120\",\"831844\",\"0.0-120.0\",\"\",\"\",\"1-1\",\"4082\",\"40\",\"1\",\"Training\",\"Stims/Figures/139-J-0-2.bmp\",\"None\",\"Up\",\"40\",\"8\",\"5\",\"10\",\"N\",\"J\",\"117\"
\"\",\"\",\"approach-retreat\",\"121\",\"837585\",\"0.0-121.0\",\"\",\"\",\"1-1\",\"4238\",\"40\",\"1\",\"Training\",\"Stims/Figures/86-C-30-1.bmp\",\"None\",\"Down\",\"40\",\"8\",\"6\",\"10\",\"N\",\"J\",\"118\"
\"\",\"\",\"approach-retreat\",\"122\",\"846934\",\"0.0-122.0\",\"\",\"\",\"1-1\",\"7845\",\"40\",\"1\",\"Training\",\"Stims/Figures/27-J-0-1.bmp\",\"None\",\"Up\",\"40\",\"8\",\"7\",\"10\",\"N\",\"J\",\"119\"
\"\",\"\",\"approach-retreat\",\"123\",\"852501\",\"0.0-123.0\",\"\",\"\",\"1-1\",\"4064\",\"37\",\"1\",\"Training\",\"Stims/Figures/87-J-10-4.bmp\",\"None\",\"Right\",\"37\",\"8\",\"8\",\"10\",\"N\",\"J\",\"120\"
\"\",\"\",\"approach-retreat\",\"124\",\"858248\",\"0.0-124.0\",\"\",\"\",\"1-1\",\"4242\",\"40\",\"1\",\"Training\",\"Stims/Figures/27-C-30-1.bmp\",\"None\",\"Down\",\"40\",\"8\",\"9\",\"10\",\"N\",\"J\",\"121\"
\"\",\"\",\"approach-retreat\",\"125\",\"863819\",\"0.0-125.0\",\"\",\"\",\"1-1\",\"4069\",\"37\",\"1\",\"Training\",\"Stims/Figures/139-C-20-2.bmp\",\"None\",\"Left\",\"37\",\"8\",\"10\",\"10\",\"N\",\"J\",\"122\"
\"\",\"\",\"approach-retreat\",\"126\",\"869319\",\"0.0-126.0\",\"\",\"\",\"1-1\",\"3997\",\"37\",\"1\",\"Training\",\"Stims/Figures/86-J-0-1.bmp\",\"None\",\"Right\",\"37\",\"8\",\"11\",\"10\",\"N\",\"J\",\"123\"
\"\",\"\",\"approach-retreat\",\"127\",\"874900\",\"0.0-127.0\",\"\",\"\",\"1-1\",\"4074\",\"40\",\"1\",\"Training\",\"Stims/Figures/84-J-0-2.bmp\",\"None\",\"Up\",\"40\",\"8\",\"12\",\"10\",\"N\",\"J\",\"124\"
\"\",\"\",\"approach-retreat\",\"128\",\"880353\",\"0.0-128.0\",\"\",\"\",\"1-1\",\"3950\",\"40\",\"1\",\"Training\",\"Stims/Figures/44-C-30-3.bmp\",\"None\",\"Down\",\"40\",\"8\",\"13\",\"10\",\"N\",\"J\",\"125\"
\"\",\"\",\"approach-retreat\",\"129\",\"885922\",\"0.0-129.0\",\"\",\"\",\"1-1\",\"4065\",\"39\",\"1\",\"Training\",\"Stims/Figures/44-J-10-3.bmp\",\"None\",\"Left\",\"39\",\"8\",\"14\",\"10\",\"N\",\"J\",\"126\"
\"\",\"\",\"approach-retreat\",\"130\",\"891726\",\"0.0-130.0\",\"\",\"\",\"1-1\",\"4300\",\"38\",\"1\",\"Training\",\"Stims/Figures/7-C-20-4.bmp\",\"None\",\"Up\",\"38\",\"8\",\"15\",\"10\",\"N\",\"J\",\"127\"
\"\",\"\",\"approach-retreat\",\"131\",\"897307\",\"0.0-131.0\",\"\",\"\",\"1-1\",\"4077\",\"39\",\"1\",\"Training\",\"Stims/Figures/7-J-10-4.bmp\",\"None\",\"Left\",\"39\",\"8\",\"16\",\"10\",\"N\",\"J\",\"128\"
\"\",\"\",\"approach-retreat\",\"132\",\"902886\",\"0.0-132.0\",\"\",\"\",\"1-1\",\"4076\",\"40\",\"1\",\"Training\",\"Stims/Figures/27-J-0-1.bmp\",\"None\",\"Up\",\"40\",\"9\",\"1\",\"10\",\"N\",\"J\",\"129\"
\"\",\"\",\"approach-retreat\",\"133\",\"909232\",\"0.0-133.0\",\"\",\"\",\"1-1\",\"4842\",\"40\",\"1\",\"Training\",\"Stims/Figures/44-C-30-3.bmp\",\"None\",\"Down\",\"40\",\"9\",\"2\",\"10\",\"N\",\"J\",\"130\"
\"\",\"\",\"approach-retreat\",\"134\",\"914681\",\"0.0-134.0\",\"\",\"\",\"1-1\",\"3945\",\"39\",\"1\",\"Training\",\"Stims/Figures/87-J-10-4.bmp\",\"None\",\"Left\",\"39\",\"9\",\"3\",\"10\",\"N\",\"J\",\"131\"
\"\",\"\",\"approach-retreat\",\"135\",\"920264\",\"0.0-135.0\",\"\",\"\",\"1-1\",\"4080\",\"37\",\"1\",\"Training\",\"Stims/Figures/86-C-30-1.bmp\",\"None\",\"Left\",\"37\",\"9\",\"4\",\"10\",\"N\",\"J\",\"132\"
\"\",\"\",\"approach-retreat\",\"136\",\"925886\",\"0.0-136.0\",\"\",\"\",\"1-1\",\"4118\",\"37\",\"0\",\"Training\",\"Stims/Figures/7-C-20-4.bmp\",\"None\",\"Right\",\"39\",\"9\",\"5\",\"10\",\"N\",\"J\",\"133\"
\"\",\"\",\"approach-retreat\",\"137\",\"931750\",\"0.0-137.0\",\"\",\"\",\"1-1\",\"4362\",\"38\",\"1\",\"Training\",\"Stims/Figures/84-C-20-2.bmp\",\"None\",\"Up\",\"38\",\"9\",\"6\",\"10\",\"N\",\"J\",\"134\"
\"\",\"\",\"approach-retreat\",\"138\",\"937679\",\"0.0-138.0\",\"\",\"\",\"1-1\",\"4425\",\"40\",\"1\",\"Training\",\"Stims/Figures/84-J-0-2.bmp\",\"None\",\"Up\",\"40\",\"9\",\"7\",\"10\",\"N\",\"J\",\"135\"
\"\",\"\",\"approach-retreat\",\"139\",\"943304\",\"0.0-139.0\",\"\",\"\",\"1-1\",\"4122\",\"37\",\"1\",\"Training\",\"Stims/Figures/139-J-0-2.bmp\",\"None\",\"Right\",\"37\",\"9\",\"8\",\"10\",\"N\",\"J\",\"136\"
\"\",\"\",\"approach-retreat\",\"140\",\"949271\",\"0.0-140.0\",\"\",\"\",\"1-1\",\"4464\",\"39\",\"1\",\"Training\",\"Stims/Figures/139-C-20-2.bmp\",\"None\",\"Right\",\"39\",\"9\",\"9\",\"10\",\"N\",\"J\",\"137\"
\"\",\"\",\"approach-retreat\",\"141\",\"955056\",\"0.0-141.0\",\"\",\"\",\"1-1\",\"4281\",\"38\",\"1\",\"Training\",\"Stims/Figures/7-J-10-4.bmp\",\"None\",\"Down\",\"38\",\"9\",\"10\",\"10\",\"N\",\"J\",\"138\"
\"\",\"\",\"approach-retreat\",\"142\",\"960825\",\"0.0-142.0\",\"\",\"\",\"1-1\",\"4267\",\"38\",\"1\",\"Training\",\"Stims/Figures/111-J-10-3.bmp\",\"None\",\"Down\",\"38\",\"9\",\"11\",\"10\",\"N\",\"J\",\"139\"
\"\",\"\",\"approach-retreat\",\"143\",\"966398\",\"0.0-143.0\",\"\",\"\",\"1-1\",\"4069\",\"37\",\"1\",\"Training\",\"Stims/Figures/86-J-0-1.bmp\",\"None\",\"Right\",\"37\",\"9\",\"12\",\"10\",\"N\",\"J\",\"140\"
\"\",\"\",\"approach-retreat\",\"144\",\"972234\",\"0.0-144.0\",\"\",\"\",\"1-1\",\"4332\",\"39\",\"1\",\"Training\",\"Stims/Figures/44-J-10-3.bmp\",\"None\",\"Left\",\"39\",\"9\",\"13\",\"10\",\"N\",\"J\",\"141\"
\"\",\"\",\"approach-retreat\",\"145\",\"978386\",\"0.0-145.0\",\"\",\"\",\"1-1\",\"4648\",\"37\",\"1\",\"Training\",\"Stims/Figures/87-C-20-4.bmp\",\"None\",\"Left\",\"37\",\"9\",\"14\",\"10\",\"N\",\"J\",\"142\"
\"\",\"\",\"approach-retreat\",\"146\",\"984302\",\"0.0-146.0\",\"\",\"\",\"1-1\",\"4413\",\"38\",\"1\",\"Training\",\"Stims/Figures/27-C-30-1.bmp\",\"None\",\"Up\",\"38\",\"9\",\"15\",\"10\",\"N\",\"J\",\"143\"
\"\",\"\",\"approach-retreat\",\"147\",\"989883\",\"0.0-147.0\",\"\",\"\",\"1-1\",\"4076\",\"40\",\"1\",\"Training\",\"Stims/Figures/111-C-30-3.bmp\",\"None\",\"Down\",\"40\",\"9\",\"16\",\"10\",\"N\",\"J\",\"144\"
\"14258\",\"\",\"instructions\",\"148\",\"1004141\",\"0.0-148.0\",\"[{\"\"page_index\"\":0,\"\"viewing_time\"\":14258}]\",\"\",\"\",\"\",\"\",\"\",\"\",\"\",\"\",\"\",\"\",\"\",\"\",\"\",\"\",\"\",\"\"
\"\",\"\",\"approach-retreat\",\"149\",\"1011080\",\"0.0-149.0\",\"\",\"\",\"1-1\",\"5436\",\"39\",\"1\",\"Testing\",\"Stims/Figures/87-C-20-4.bmp\",\"None\",\"Right\",\"39\",\"1\",\"1\",\"10\",\"N\",\"J\",\"1\"
\"\",\"\",\"approach-retreat\",\"150\",\"1016969\",\"0.0-150.0\",\"\",\"\",\"1-1\",\"4386\",\"38\",\"1\",\"Testing\",\"Stims/Figures/86-C-30-1.bmp\",\"None\",\"Up\",\"38\",\"1\",\"2\",\"10\",\"N\",\"J\",\"2\"
\"\",\"\",\"approach-retreat\",\"151\",\"1023302\",\"0.0-151.0\",\"\",\"\",\"1-1\",\"4827\",\"38\",\"1\",\"Testing\",\"Stims/Figures/86-J-0-1.bmp\",\"None\",\"Down\",\"38\",\"1\",\"3\",\"10\",\"N\",\"J\",\"3\"
\"\",\"\",\"approach-retreat\",\"152\",\"1028888\",\"0.0-152.0\",\"\",\"\",\"1-1\",\"4083\",\"37\",\"1\",\"Testing\",\"Stims/Figures/94-C-20-2.bmp\",\"None\",\"Left\",\"37\",\"1\",\"4\",\"10\",\"N\",\"J\",\"4\"
\"\",\"\",\"approach-retreat\",\"153\",\"1035263\",\"0.0-153.0\",\"\",\"\",\"1-1\",\"4870\",\"40\",\"1\",\"Testing\",\"Stims/Figures/111-C-30-3.bmp\",\"None\",\"Down\",\"40\",\"1\",\"5\",\"10\",\"N\",\"J\",\"5\"
\"\",\"\",\"approach-retreat\",\"154\",\"1041080\",\"0.0-154.0\",\"\",\"\",\"1-1\",\"4314\",\"39\",\"1\",\"Testing\",\"Stims/Figures/100-C-30-3.bmp\",\"None\",\"Right\",\"39\",\"1\",\"6\",\"10\",\"N\",\"J\",\"6\"
\"\",\"\",\"approach-retreat\",\"155\",\"1047005\",\"0.0-155.0\",\"\",\"\",\"1-1\",\"4421\",\"37\",\"1\",\"Testing\",\"Stims/Figures/94-J-0-2.bmp\",\"None\",\"Right\",\"37\",\"1\",\"7\",\"10\",\"N\",\"J\",\"7\"
\"\",\"\",\"approach-retreat\",\"156\",\"1053446\",\"0.0-156.0\",\"\",\"\",\"1-1\",\"4936\",\"39\",\"1\",\"Testing\",\"Stims/Figures/71-J-0-1.bmp\",\"None\",\"Left\",\"39\",\"1\",\"8\",\"10\",\"N\",\"J\",\"8\"
\"\",\"\",\"approach-retreat\",\"157\",\"1059149\",\"0.0-157.0\",\"\",\"\",\"1-1\",\"4199\",\"40\",\"1\",\"Testing\",\"Stims/Figures/111-J-10-3.bmp\",\"None\",\"Up\",\"40\",\"1\",\"9\",\"10\",\"N\",\"J\",\"9\"
\"\",\"\",\"approach-retreat\",\"158\",\"1066881\",\"0.0-158.0\",\"\",\"\",\"1-1\",\"6229\",\"38\",\"0\",\"Testing\",\"Stims/Figures/7-J-10-4.bmp\",\"None\",\"Up\",\"40\",\"1\",\"10\",\"10\",\"N\",\"J\",\"10\"
\"\",\"\",\"approach-retreat\",\"159\",\"1072983\",\"0.0-159.0\",\"\",\"\",\"1-1\",\"4598\",\"37\",\"1\",\"Testing\",\"Stims/Figures/44-C-30-3.bmp\",\"None\",\"Left\",\"37\",\"1\",\"11\",\"10\",\"N\",\"J\",\"11\"
\"\",\"\",\"approach-retreat\",\"160\",\"1079430\",\"0.0-160.0\",\"\",\"\",\"1-1\",\"4943\",\"39\",\"1\",\"Testing\",\"Stims/Figures/87-J-10-4.bmp\",\"None\",\"Left\",\"39\",\"1\",\"12\",\"10\",\"N\",\"J\",\"12\"
\"\",\"\",\"approach-retreat\",\"161\",\"1085216\",\"0.0-161.0\",\"\",\"\",\"1-1\",\"4283\",\"37\",\"1\",\"Testing\",\"Stims/Figures/74-J-10-4.bmp\",\"None\",\"Right\",\"37\",\"1\",\"13\",\"10\",\"N\",\"J\",\"13\"
\"\",\"\",\"approach-retreat\",\"162\",\"1091303\",\"0.0-162.0\",\"\",\"\",\"1-1\",\"4583\",\"38\",\"1\",\"Testing\",\"Stims/Figures/44-J-10-3.bmp\",\"None\",\"Down\",\"38\",\"1\",\"14\",\"10\",\"N\",\"J\",\"14\"
\"\",\"\",\"approach-retreat\",\"163\",\"1097633\",\"0.0-163.0\",\"\",\"\",\"1-1\",\"4826\",\"38\",\"1\",\"Testing\",\"Stims/Figures/84-C-20-2.bmp\",\"None\",\"Up\",\"38\",\"1\",\"15\",\"10\",\"N\",\"J\",\"15\"
\"\",\"\",\"approach-retreat\",\"164\",\"1103587\",\"0.0-164.0\",\"\",\"\",\"1-1\",\"4452\",\"40\",\"1\",\"Testing\",\"Stims/Figures/74-C-20-4.bmp\",\"None\",\"Down\",\"40\",\"1\",\"16\",\"10\",\"N\",\"J\",\"16\"
\"\",\"\",\"approach-retreat\",\"165\",\"1109481\",\"0.0-165.0\",\"\",\"\",\"1-1\",\"4391\",\"40\",\"1\",\"Testing\",\"Stims/Figures/7-C-20-4.bmp\",\"None\",\"Down\",\"40\",\"1\",\"17\",\"10\",\"N\",\"J\",\"17\"
\"\",\"\",\"approach-retreat\",\"166\",\"1115316\",\"0.0-166.0\",\"\",\"\",\"1-1\",\"4333\",\"38\",\"1\",\"Testing\",\"Stims/Figures/100-J-10-3.bmp\",\"None\",\"Down\",\"38\",\"1\",\"18\",\"10\",\"N\",\"J\",\"18\"
\"\",\"\",\"approach-retreat\",\"167\",\"1120943\",\"0.0-167.0\",\"\",\"\",\"1-1\",\"4123\",\"37\",\"1\",\"Testing\",\"Stims/Figures/139-J-0-2.bmp\",\"None\",\"Right\",\"37\",\"1\",\"19\",\"10\",\"N\",\"J\",\"19\"
\"\",\"\",\"approach-retreat\",\"168\",\"1126757\",\"0.0-168.0\",\"\",\"\",\"1-1\",\"4308\",\"39\",\"1\",\"Testing\",\"Stims/Figures/27-J-0-1.bmp\",\"None\",\"Left\",\"39\",\"1\",\"20\",\"10\",\"N\",\"J\",\"20\"
\"\",\"\",\"approach-retreat\",\"169\",\"1132849\",\"0.0-169.0\",\"\",\"\",\"1-1\",\"4588\",\"39\",\"1\",\"Testing\",\"Stims/Figures/84-J-0-2.bmp\",\"None\",\"Left\",\"39\",\"1\",\"21\",\"10\",\"N\",\"J\",\"21\"
\"\",\"\",\"approach-retreat\",\"170\",\"1139243\",\"0.0-170.0\",\"\",\"\",\"1-1\",\"4890\",\"38\",\"1\",\"Testing\",\"Stims/Figures/71-C-30-1.bmp\",\"None\",\"Up\",\"38\",\"1\",\"22\",\"10\",\"N\",\"J\",\"22\"
\"\",\"\",\"approach-retreat\",\"171\",\"1145704\",\"0.0-171.0\",\"\",\"\",\"1-1\",\"4958\",\"39\",\"1\",\"Testing\",\"Stims/Figures/27-C-30-1.bmp\",\"None\",\"Right\",\"39\",\"1\",\"23\",\"10\",\"N\",\"J\",\"23\"
\"\",\"\",\"approach-retreat\",\"172\",\"1155402\",\"0.0-172.0\",\"\",\"\",\"1-1\",\"8196\",\"38\",\"1\",\"Testing\",\"Stims/Figures/139-C-20-2.bmp\",\"None\",\"Up\",\"38\",\"1\",\"24\",\"10\",\"N\",\"J\",\"24\"
\"\",\"\",\"approach-retreat\",\"173\",\"1161993\",\"0.0-173.0\",\"\",\"\",\"1-1\",\"5087\",\"40\",\"1\",\"Testing\",\"Stims/Figures/139-C-20-2.bmp\",\"None\",\"Down\",\"40\",\"2\",\"1\",\"10\",\"N\",\"J\",\"25\"
\"\",\"\",\"approach-retreat\",\"174\",\"1167999\",\"0.0-174.0\",\"\",\"\",\"1-1\",\"4503\",\"38\",\"1\",\"Testing\",\"Stims/Figures/71-C-30-1.bmp\",\"None\",\"Up\",\"38\",\"2\",\"2\",\"10\",\"N\",\"J\",\"26\"
\"\",\"\",\"approach-retreat\",\"175\",\"1173982\",\"0.0-175.0\",\"\",\"\",\"1-1\",\"4478\",\"40\",\"1\",\"Testing\",\"Stims/Figures/94-C-20-2.bmp\",\"None\",\"Down\",\"40\",\"2\",\"3\",\"10\",\"N\",\"J\",\"27\"
\"\",\"\",\"approach-retreat\",\"176\",\"1180088\",\"0.0-176.0\",\"\",\"\",\"1-1\",\"4603\",\"39\",\"1\",\"Testing\",\"Stims/Figures/84-C-20-2.bmp\",\"None\",\"Right\",\"39\",\"2\",\"4\",\"10\",\"N\",\"J\",\"28\"
\"\",\"\",\"approach-retreat\",\"177\",\"1185657\",\"0.0-177.0\",\"\",\"\",\"1-1\",\"4064\",\"40\",\"1\",\"Testing\",\"Stims/Figures/100-C-30-3.bmp\",\"None\",\"Down\",\"40\",\"2\",\"5\",\"10\",\"N\",\"J\",\"29\"
\"\",\"\",\"approach-retreat\",\"178\",\"1191340\",\"0.0-178.0\",\"\",\"\",\"1-1\",\"4179\",\"38\",\"1\",\"Testing\",\"Stims/Figures/94-J-0-2.bmp\",\"None\",\"Down\",\"38\",\"2\",\"6\",\"10\",\"N\",\"J\",\"30\"
\"\",\"\",\"approach-retreat\",\"179\",\"1197103\",\"0.0-179.0\",\"\",\"\",\"1-1\",\"4259\",\"37\",\"1\",\"Testing\",\"Stims/Figures/74-J-10-4.bmp\",\"None\",\"Right\",\"37\",\"2\",\"7\",\"10\",\"N\",\"J\",\"31\"
\"\",\"\",\"approach-retreat\",\"180\",\"1203762\",\"0.0-180.0\",\"\",\"\",\"1-1\",\"5155\",\"38\",\"1\",\"Testing\",\"Stims/Figures/44-C-30-3.bmp\",\"None\",\"Up\",\"38\",\"2\",\"8\",\"10\",\"N\",\"J\",\"32\"
\"\",\"\",\"approach-retreat\",\"181\",\"1209480\",\"0.0-181.0\",\"\",\"\",\"1-1\",\"4215\",\"39\",\"1\",\"Testing\",\"Stims/Figures/139-J-0-2.bmp\",\"None\",\"Left\",\"39\",\"2\",\"9\",\"10\",\"N\",\"J\",\"33\"
\"\",\"\",\"approach-retreat\",\"182\",\"1215375\",\"0.0-182.0\",\"\",\"\",\"1-1\",\"4392\",\"39\",\"1\",\"Testing\",\"Stims/Figures/84-J-0-2.bmp\",\"None\",\"Left\",\"39\",\"2\",\"10\",\"10\",\"N\",\"J\",\"34\"
\"\",\"\",\"approach-retreat\",\"183\",\"1221318\",\"0.0-183.0\",\"\",\"\",\"1-1\",\"4439\",\"40\",\"1\",\"Testing\",\"Stims/Figures/27-J-0-1.bmp\",\"None\",\"Up\",\"40\",\"2\",\"11\",\"10\",\"N\",\"J\",\"35\"
\"\",\"\",\"approach-retreat\",\"184\",\"1227185\",\"0.0-184.0\",\"\",\"\",\"1-1\",\"4363\",\"37\",\"1\",\"Testing\",\"Stims/Figures/44-J-10-3.bmp\",\"None\",\"Right\",\"37\",\"2\",\"12\",\"10\",\"N\",\"J\",\"36\"
\"\",\"\",\"approach-retreat\",\"185\",\"1232902\",\"0.0-185.0\",\"\",\"\",\"1-1\",\"4213\",\"40\",\"1\",\"Testing\",\"Stims/Figures/111-J-10-3.bmp\",\"None\",\"Up\",\"40\",\"2\",\"13\",\"10\",\"N\",\"J\",\"37\"
\"\",\"\",\"approach-retreat\",\"186\",\"1239332\",\"0.0-186.0\",\"\",\"\",\"1-1\",\"4925\",\"38\",\"1\",\"Testing\",\"Stims/Figures/87-J-10-4.bmp\",\"None\",\"Down\",\"38\",\"2\",\"14\",\"10\",\"N\",\"J\",\"38\"
\"\",\"\",\"approach-retreat\",\"187\",\"1245029\",\"0.0-187.0\",\"\",\"\",\"1-1\",\"4193\",\"40\",\"1\",\"Testing\",\"Stims/Figures/111-C-30-3.bmp\",\"None\",\"Down\",\"40\",\"2\",\"15\",\"10\",\"N\",\"J\",\"39\"
\"\",\"\",\"approach-retreat\",\"188\",\"1250740\",\"0.0-188.0\",\"\",\"\",\"1-1\",\"4208\",\"40\",\"1\",\"Testing\",\"Stims/Figures/100-J-10-3.bmp\",\"None\",\"Up\",\"40\",\"2\",\"16\",\"10\",\"N\",\"J\",\"40\"
\"\",\"\",\"approach-retreat\",\"189\",\"1256311\",\"0.0-189.0\",\"\",\"\",\"1-1\",\"4067\",\"39\",\"1\",\"Testing\",\"Stims/Figures/27-C-30-1.bmp\",\"None\",\"Right\",\"39\",\"2\",\"17\",\"10\",\"N\",\"J\",\"41\"
\"\",\"\",\"approach-retreat\",\"190\",\"1262822\",\"0.0-190.0\",\"\",\"\",\"1-1\",\"5007\",\"37\",\"1\",\"Testing\",\"Stims/Figures/86-C-30-1.bmp\",\"None\",\"Left\",\"37\",\"2\",\"18\",\"10\",\"N\",\"J\",\"42\"
\"\",\"\",\"approach-retreat\",\"191\",\"1269180\",\"0.0-191.0\",\"\",\"\",\"1-1\",\"4853\",\"39\",\"1\",\"Testing\",\"Stims/Figures/86-J-0-1.bmp\",\"None\",\"Left\",\"39\",\"2\",\"19\",\"10\",\"N\",\"J\",\"43\"
\"\",\"\",\"approach-retreat\",\"192\",\"1275429\",\"0.0-192.0\",\"\",\"\",\"1-1\",\"4746\",\"37\",\"1\",\"Testing\",\"Stims/Figures/7-C-20-4.bmp\",\"None\",\"Left\",\"37\",\"2\",\"20\",\"10\",\"N\",\"J\",\"44\"
\"\",\"\",\"approach-retreat\",\"193\",\"1281115\",\"0.0-193.0\",\"\",\"\",\"1-1\",\"4181\",\"40\",\"1\",\"Testing\",\"Stims/Figures/7-J-10-4.bmp\",\"None\",\"Up\",\"40\",\"2\",\"21\",\"10\",\"N\",\"J\",\"45\"
\"\",\"\",\"approach-retreat\",\"194\",\"1286614\",\"0.0-194.0\",\"\",\"\",\"1-1\",\"3996\",\"39\",\"1\",\"Testing\",\"Stims/Figures/71-J-0-1.bmp\",\"None\",\"Left\",\"39\",\"2\",\"22\",\"10\",\"N\",\"J\",\"46\"
\"\",\"\",\"approach-retreat\",\"195\",\"1294558\",\"0.0-195.0\",\"\",\"\",\"1-1\",\"6441\",\"39\",\"1\",\"Testing\",\"Stims/Figures/74-C-20-4.bmp\",\"None\",\"Right\",\"39\",\"2\",\"23\",\"10\",\"N\",\"J\",\"47\"
\"\",\"\",\"approach-retreat\",\"196\",\"1300230\",\"0.0-196.0\",\"\",\"\",\"1-1\",\"4168\",\"39\",\"1\",\"Testing\",\"Stims/Figures/87-C-20-4.bmp\",\"None\",\"Right\",\"39\",\"2\",\"24\",\"10\",\"N\",\"J\",\"48\"
\"\",\"\",\"approach-retreat\",\"197\",\"1306427\",\"0.0-197.0\",\"\",\"\",\"1-1\",\"4691\",\"37\",\"0\",\"Testing\",\"Stims/Figures/74-C-20-4.bmp\",\"None\",\"Right\",\"39\",\"3\",\"1\",\"10\",\"N\",\"J\",\"49\"
\"\",\"\",\"approach-retreat\",\"198\",\"1312167\",\"0.0-198.0\",\"\",\"\",\"1-1\",\"4236\",\"37\",\"1\",\"Testing\",\"Stims/Figures/87-J-10-4.bmp\",\"None\",\"Right\",\"37\",\"3\",\"2\",\"10\",\"N\",\"J\",\"50\"
\"\",\"\",\"approach-retreat\",\"199\",\"1318491\",\"0.0-199.0\",\"\",\"\",\"1-1\",\"4820\",\"38\",\"1\",\"Testing\",\"Stims/Figures/84-C-20-2.bmp\",\"None\",\"Up\",\"38\",\"3\",\"3\",\"10\",\"N\",\"J\",\"51\"
\"\",\"\",\"approach-retreat\",\"200\",\"1324771\",\"0.0-200.0\",\"\",\"\",\"1-1\",\"4776\",\"39\",\"1\",\"Testing\",\"Stims/Figures/27-J-0-1.bmp\",\"None\",\"Left\",\"39\",\"3\",\"4\",\"10\",\"N\",\"J\",\"52\"
\"\",\"\",\"approach-retreat\",\"201\",\"1330511\",\"0.0-201.0\",\"\",\"\",\"1-1\",\"4236\",\"38\",\"1\",\"Testing\",\"Stims/Figures/111-J-10-3.bmp\",\"None\",\"Down\",\"38\",\"3\",\"5\",\"10\",\"N\",\"J\",\"53\"
\"\",\"\",\"approach-retreat\",\"202\",\"1337565\",\"0.0-202.0\",\"\",\"\",\"1-1\",\"5551\",\"38\",\"1\",\"Testing\",\"Stims/Figures/71-C-30-1.bmp\",\"None\",\"Up\",\"38\",\"3\",\"6\",\"10\",\"N\",\"J\",\"54\"
\"\",\"\",\"approach-retreat\",\"203\",\"1343348\",\"0.0-203.0\",\"\",\"\",\"1-1\",\"4279\",\"38\",\"1\",\"Testing\",\"Stims/Figures/44-J-10-3.bmp\",\"None\",\"Down\",\"38\",\"3\",\"7\",\"10\",\"N\",\"J\",\"55\"
\"\",\"\",\"approach-retreat\",\"204\",\"1349855\",\"0.0-204.0\",\"\",\"\",\"1-1\",\"5004\",\"37\",\"1\",\"Testing\",\"Stims/Figures/44-C-30-3.bmp\",\"None\",\"Left\",\"37\",\"3\",\"8\",\"10\",\"N\",\"J\",\"56\"
\"\",\"\",\"approach-retreat\",\"205\",\"1356251\",\"0.0-205.0\",\"\",\"\",\"1-1\",\"4891\",\"37\",\"1\",\"Testing\",\"Stims/Figures/74-J-10-4.bmp\",\"None\",\"Right\",\"37\",\"3\",\"9\",\"10\",\"N\",\"J\",\"57\"
\"\",\"\",\"approach-retreat\",\"206\",\"1362798\",\"0.0-206.0\",\"\",\"\",\"1-1\",\"5042\",\"40\",\"1\",\"Testing\",\"Stims/Figures/111-C-30-3.bmp\",\"None\",\"Down\",\"40\",\"3\",\"10\",\"10\",\"N\",\"J\",\"58\"
\"\",\"\",\"approach-retreat\",\"207\",\"1368385\",\"0.0-207.0\",\"\",\"\",\"1-1\",\"4084\",\"37\",\"1\",\"Testing\",\"Stims/Figures/7-J-10-4.bmp\",\"None\",\"Right\",\"37\",\"3\",\"11\",\"10\",\"N\",\"J\",\"59\"
\"\",\"\",\"approach-retreat\",\"208\",\"1374835\",\"0.0-208.0\",\"\",\"\",\"1-1\",\"4948\",\"40\",\"1\",\"Testing\",\"Stims/Figures/84-J-0-2.bmp\",\"None\",\"Up\",\"40\",\"3\",\"12\",\"10\",\"N\",\"J\",\"60\"
\"\",\"\",\"approach-retreat\",\"209\",\"1380854\",\"0.0-209.0\",\"\",\"\",\"1-1\",\"4515\",\"37\",\"1\",\"Testing\",\"Stims/Figures/71-J-0-1.bmp\",\"None\",\"Right\",\"37\",\"3\",\"13\",\"10\",\"N\",\"J\",\"61\"
\"\",\"\",\"approach-retreat\",\"210\",\"1386775\",\"0.0-210.0\",\"\",\"\",\"1-1\",\"4417\",\"38\",\"1\",\"Testing\",\"Stims/Figures/94-J-0-2.bmp\",\"None\",\"Down\",\"38\",\"3\",\"14\",\"10\",\"N\",\"J\",\"62\"
\"\",\"\",\"approach-retreat\",\"211\",\"1392330\",\"0.0-211.0\",\"\",\"\",\"1-1\",\"4052\",\"39\",\"1\",\"Testing\",\"Stims/Figures/139-J-0-2.bmp\",\"None\",\"Left\",\"39\",\"3\",\"15\",\"10\",\"N\",\"J\",\"63\"
\"\",\"\",\"approach-retreat\",\"212\",\"1398143\",\"0.0-212.0\",\"\",\"\",\"1-1\",\"4308\",\"37\",\"1\",\"Testing\",\"Stims/Figures/86-C-30-1.bmp\",\"None\",\"Left\",\"37\",\"3\",\"16\",\"10\",\"N\",\"J\",\"64\"
\"\",\"\",\"approach-retreat\",\"213\",\"1404473\",\"0.0-213.0\",\"\",\"\",\"1-1\",\"4826\",\"40\",\"1\",\"Testing\",\"Stims/Figures/27-C-30-1.bmp\",\"None\",\"Down\",\"40\",\"3\",\"17\",\"10\",\"N\",\"J\",\"65\"
\"\",\"\",\"approach-retreat\",\"214\",\"1411442\",\"0.0-214.0\",\"\",\"\",\"1-1\",\"5465\",\"38\",\"1\",\"Testing\",\"Stims/Figures/87-C-20-4.bmp\",\"None\",\"Up\",\"38\",\"3\",\"18\",\"10\",\"N\",\"J\",\"66\"
\"\",\"\",\"approach-retreat\",\"215\",\"1417051\",\"0.0-215.0\",\"\",\"\",\"1-1\",\"4106\",\"39\",\"1\",\"Testing\",\"Stims/Figures/7-C-20-4.bmp\",\"None\",\"Right\",\"39\",\"3\",\"19\",\"10\",\"N\",\"J\",\"67\"
\"\",\"\",\"approach-retreat\",\"216\",\"1422725\",\"0.0-216.0\",\"\",\"\",\"1-1\",\"4170\",\"38\",\"1\",\"Testing\",\"Stims/Figures/139-C-20-2.bmp\",\"None\",\"Up\",\"38\",\"3\",\"20\",\"10\",\"N\",\"J\",\"68\"
\"\",\"\",\"approach-retreat\",\"217\",\"1428608\",\"0.0-217.0\",\"\",\"\",\"1-1\",\"4380\",\"39\",\"1\",\"Testing\",\"Stims/Figures/86-J-0-1.bmp\",\"None\",\"Left\",\"39\",\"3\",\"21\",\"10\",\"N\",\"J\",\"69\"
\"\",\"\",\"approach-retreat\",\"218\",\"1434272\",\"0.0-218.0\",\"\",\"\",\"1-1\",\"4161\",\"38\",\"1\",\"Testing\",\"Stims/Figures/94-C-20-2.bmp\",\"None\",\"Up\",\"38\",\"3\",\"22\",\"10\",\"N\",\"J\",\"70\"
\"\",\"\",\"approach-retreat\",\"219\",\"1440482\",\"0.0-219.0\",\"\",\"\",\"1-1\",\"4707\",\"40\",\"1\",\"Testing\",\"Stims/Figures/100-C-30-3.bmp\",\"None\",\"Down\",\"40\",\"3\",\"23\",\"10\",\"N\",\"J\",\"71\"
\"\",\"\",\"approach-retreat\",\"220\",\"1446294\",\"0.0-220.0\",\"\",\"\",\"1-1\",\"4309\",\"39\",\"1\",\"Testing\",\"Stims/Figures/100-J-10-3.bmp\",\"None\",\"Left\",\"39\",\"3\",\"24\",\"10\",\"N\",\"J\",\"72\"
\"\",\"\",\"approach-retreat\",\"221\",\"1451999\",\"0.0-221.0\",\"\",\"\",\"1-1\",\"4201\",\"37\",\"1\",\"Testing\",\"Stims/Figures/71-C-30-1.bmp\",\"None\",\"Left\",\"37\",\"4\",\"1\",\"10\",\"N\",\"J\",\"73\"
\"\",\"\",\"approach-retreat\",\"222\",\"1457818\",\"0.0-222.0\",\"\",\"\",\"1-1\",\"4316\",\"39\",\"1\",\"Testing\",\"Stims/Figures/7-J-10-4.bmp\",\"None\",\"Left\",\"39\",\"4\",\"2\",\"10\",\"N\",\"J\",\"74\"
\"\",\"\",\"approach-retreat\",\"223\",\"1463400\",\"0.0-223.0\",\"\",\"\",\"1-1\",\"4079\",\"38\",\"1\",\"Testing\",\"Stims/Figures/87-J-10-4.bmp\",\"None\",\"Down\",\"38\",\"4\",\"3\",\"10\",\"N\",\"J\",\"75\"
\"\",\"\",\"approach-retreat\",\"224\",\"1468863\",\"0.0-224.0\",\"\",\"\",\"1-1\",\"3959\",\"40\",\"1\",\"Testing\",\"Stims/Figures/111-J-10-3.bmp\",\"None\",\"Up\",\"40\",\"4\",\"4\",\"10\",\"N\",\"J\",\"76\"
\"\",\"\",\"approach-retreat\",\"225\",\"1474376\",\"0.0-225.0\",\"\",\"\",\"1-1\",\"4008\",\"37\",\"1\",\"Testing\",\"Stims/Figures/71-J-0-1.bmp\",\"None\",\"Right\",\"37\",\"4\",\"5\",\"10\",\"N\",\"J\",\"77\"
\"\",\"\",\"approach-retreat\",\"226\",\"1479813\",\"0.0-226.0\",\"\",\"\",\"1-1\",\"3933\",\"40\",\"1\",\"Testing\",\"Stims/Figures/94-J-0-2.bmp\",\"None\",\"Up\",\"40\",\"4\",\"6\",\"10\",\"N\",\"J\",\"78\"
\"\",\"\",\"approach-retreat\",\"227\",\"1485255\",\"0.0-227.0\",\"\",\"\",\"1-1\",\"3939\",\"39\",\"1\",\"Testing\",\"Stims/Figures/100-J-10-3.bmp\",\"None\",\"Left\",\"39\",\"4\",\"7\",\"10\",\"N\",\"J\",\"79\"
\"\",\"\",\"approach-retreat\",\"228\",\"1490904\",\"0.0-228.0\",\"\",\"\",\"1-1\",\"4145\",\"38\",\"1\",\"Testing\",\"Stims/Figures/44-C-30-3.bmp\",\"None\",\"Up\",\"38\",\"4\",\"8\",\"10\",\"N\",\"J\",\"80\"
\"\",\"\",\"approach-retreat\",\"229\",\"1496796\",\"0.0-229.0\",\"\",\"\",\"1-1\",\"4388\",\"37\",\"1\",\"Testing\",\"Stims/Figures/94-C-20-2.bmp\",\"None\",\"Left\",\"37\",\"4\",\"9\",\"10\",\"N\",\"J\",\"81\"
\"\",\"\",\"approach-retreat\",\"230\",\"1502531\",\"0.0-230.0\",\"\",\"\",\"1-1\",\"4230\",\"38\",\"1\",\"Testing\",\"Stims/Figures/74-C-20-4.bmp\",\"None\",\"Up\",\"38\",\"4\",\"10\",\"10\",\"N\",\"J\",\"82\"
\"\",\"\",\"approach-retreat\",\"231\",\"1508179\",\"0.0-231.0\",\"\",\"\",\"1-1\",\"4145\",\"37\",\"1\",\"Testing\",\"Stims/Figures/84-C-20-2.bmp\",\"None\",\"Left\",\"37\",\"4\",\"11\",\"10\",\"N\",\"J\",\"83\"
\"\",\"\",\"approach-retreat\",\"232\",\"1514009\",\"0.0-232.0\",\"\",\"\",\"1-1\",\"4326\",\"38\",\"1\",\"Testing\",\"Stims/Figures/44-J-10-3.bmp\",\"None\",\"Down\",\"38\",\"4\",\"12\",\"10\",\"N\",\"J\",\"84\"
\"\",\"\",\"approach-retreat\",\"233\",\"1519593\",\"0.0-233.0\",\"\",\"\",\"1-1\",\"4080\",\"37\",\"1\",\"Testing\",\"Stims/Figures/139-J-0-2.bmp\",\"None\",\"Right\",\"37\",\"4\",\"13\",\"10\",\"N\",\"J\",\"85\"
\"\",\"\",\"approach-retreat\",\"234\",\"1526519\",\"0.0-234.0\",\"\",\"\",\"1-1\",\"5423\",\"40\",\"1\",\"Testing\",\"Stims/Figures/111-C-30-3.bmp\",\"None\",\"Down\",\"40\",\"4\",\"14\",\"10\",\"N\",\"J\",\"86\"
\"\",\"\",\"approach-retreat\",\"235\",\"1532430\",\"0.0-235.0\",\"\",\"\",\"1-1\",\"4407\",\"40\",\"1\",\"Testing\",\"Stims/Figures/139-C-20-2.bmp\",\"None\",\"Down\",\"40\",\"4\",\"15\",\"10\",\"N\",\"J\",\"87\"
\"\",\"\",\"approach-retreat\",\"236\",\"1538291\",\"0.0-236.0\",\"\",\"\",\"1-1\",\"4358\",\"37\",\"1\",\"Testing\",\"Stims/Figures/27-J-0-1.bmp\",\"None\",\"Right\",\"37\",\"4\",\"16\",\"10\",\"N\",\"J\",\"88\"
\"\",\"\",\"approach-retreat\",\"237\",\"1543808\",\"0.0-237.0\",\"\",\"\",\"1-1\",\"4013\",\"37\",\"1\",\"Testing\",\"Stims/Figures/84-J-0-2.bmp\",\"None\",\"Right\",\"37\",\"4\",\"17\",\"10\",\"N\",\"J\",\"89\"
\"\",\"\",\"approach-retreat\",\"238\",\"1549574\",\"0.0-238.0\",\"\",\"\",\"1-1\",\"4261\",\"38\",\"1\",\"Testing\",\"Stims/Figures/27-C-30-1.bmp\",\"None\",\"Up\",\"38\",\"4\",\"18\",\"10\",\"N\",\"J\",\"90\"
\"\",\"\",\"approach-retreat\",\"239\",\"1555376\",\"0.0-239.0\",\"\",\"\",\"1-1\",\"4298\",\"37\",\"1\",\"Testing\",\"Stims/Figures/87-C-20-4.bmp\",\"None\",\"Left\",\"37\",\"4\",\"19\",\"10\",\"N\",\"J\",\"91\"
\"\",\"\",\"approach-retreat\",\"240\",\"1562351\",\"0.0-240.0\",\"\",\"\",\"1-1\",\"5470\",\"40\",\"1\",\"Testing\",\"Stims/Figures/86-C-30-1.bmp\",\"None\",\"Down\",\"40\",\"4\",\"20\",\"10\",\"N\",\"J\",\"92\"
\"\",\"\",\"approach-retreat\",\"241\",\"1567932\",\"0.0-241.0\",\"\",\"\",\"1-1\",\"4078\",\"40\",\"1\",\"Testing\",\"Stims/Figures/7-C-20-4.bmp\",\"None\",\"Down\",\"40\",\"4\",\"21\",\"10\",\"N\",\"J\",\"93\"
\"\",\"\",\"approach-retreat\",\"242\",\"1573445\",\"0.0-242.0\",\"\",\"\",\"1-1\",\"4010\",\"37\",\"1\",\"Testing\",\"Stims/Figures/86-J-0-1.bmp\",\"None\",\"Right\",\"37\",\"4\",\"22\",\"10\",\"N\",\"J\",\"94\"
\"\",\"\",\"approach-retreat\",\"243\",\"1579460\",\"0.0-243.0\",\"\",\"\",\"1-1\",\"4511\",\"38\",\"1\",\"Testing\",\"Stims/Figures/100-C-30-3.bmp\",\"None\",\"Up\",\"38\",\"4\",\"23\",\"10\",\"N\",\"J\",\"95\"
\"\",\"\",\"approach-retreat\",\"244\",\"1585632\",\"0.0-244.0\",\"\",\"\",\"1-1\",\"4668\",\"37\",\"1\",\"Testing\",\"Stims/Figures/74-J-10-4.bmp\",\"None\",\"Right\",\"37\",\"4\",\"24\",\"10\",\"N\",\"J\",\"96\"
\"24652\",\"\",\"survey-text\",\"245\",\"1610287\",\"0.0-245.0\",\"\",\"{\"\"Q0\"\":\"\"PS160064\"\"}\",\"\",\"\",\"\",\"\",\"\",\"\",\"\",\"\",\"\",\"\",\"\",\"\",\"\",\"\",\"\"
