\"rt\",\"key_press\",\"trial_type\",\"trial_index\",\"time_elapsed\",\"internal_node_id\",\"view_history\",\"responses\",\"Id\",\"Rt\",\"ResKeyCode\",\"ResCorr\",\"TrialType2\",\"Image\",\"Label\",\"Location\",\"CorrectResponse\",\"Block\",\"BlockTrial\",\"Condition\",\"LabelType\",\"Subcondition\",\"trialNum\"
\"14272\",\"32\",\"text\",\"0\",\"14282\",\"0.0-0.0-0.0\",\"\",\"\",\"\",\"\",\"\",\"\",\"\",\"\",\"\",\"\",\"\",\"\",\"\",\"\",\"\",\"\",\"\"
\"53241\",\"\",\"instructions\",\"1\",\"67527\",\"0.0-1.0\",\"[{\"\"page_index\"\":0,\"\"viewing_time\"\":53240}]\",\"\",\"\",\"\",\"\",\"\",\"\",\"\",\"\",\"\",\"\",\"\",\"\",\"\",\"\",\"\",\"\"
\"14648\",\"\",\"survey-multi-choice\",\"2\",\"82900\",\"0.0-2.0\",\"\",\"{\"\"Q0\"\":\"\"Da\"\",\"\"Q1\"\":\"\"Da\"\",\"\"Q2\"\":\"\"Da\"\",\"\"Q3\"\":\"\"Da\"\",\"\"Q4\"\":\"\"Da\"\",\"\"Q5\"\":\"\"Da\"\"}\",\"\",\"\",\"\",\"\",\"\",\"\",\"\",\"\",\"\",\"\",\"\",\"\",\"\",\"\",\"\"
\"\",\"\",\"bio\",\"3\",\"88350\",\"0.0-3.0\",\"\",\"{\"\"age\"\":\"\"20\"\",\"\"gender\"\":\"\"f\"\",\"\"specify\"\":\"\"\"\"}\",\"\",\"\",\"\",\"\",\"\",\"\",\"\",\"\",\"\",\"\",\"\",\"\",\"\",\"\",\"\"
\"\",\"\",\"approach-retreat\",\"4\",\"97503\",\"0.0-4.0\",\"\",\"\",\"1-1\",\"7635\",\"38\",\"1\",\"Training\",\"Stims/Figures/94-C-20-2.bmp\",\"na:la:la\",\"Up\",\"38\",\"1\",\"1\",\"1\",\"S\",\"J\",\"1\"
\"\",\"\",\"approach-retreat\",\"5\",\"103479\",\"0.0-5.0\",\"\",\"\",\"1-1\",\"4453\",\"39\",\"0\",\"Training\",\"Stims/Figures/118-J-0-2.bmp\",\"ta:paka\",\"Right\",\"37\",\"1\",\"2\",\"1\",\"P\",\"J\",\"2\"
\"\",\"\",\"approach-retreat\",\"6\",\"109531\",\"0.0-6.0\",\"\",\"\",\"1-1\",\"4528\",\"39\",\"1\",\"Training\",\"Stims/Figures/71-J-0-1.bmp\",\"ta:paka\",\"Left\",\"39\",\"1\",\"3\",\"1\",\"P\",\"J\",\"3\"
\"\",\"\",\"approach-retreat\",\"7\",\"116135\",\"0.0-7.0\",\"\",\"\",\"1-1\",\"5087\",\"38\",\"1\",\"Training\",\"Stims/Figures/94-J-0-2.bmp\",\"ta:paka\",\"Down\",\"38\",\"1\",\"4\",\"1\",\"P\",\"J\",\"4\"
\"\",\"\",\"approach-retreat\",\"8\",\"122290\",\"0.0-8.0\",\"\",\"\",\"1-1\",\"4642\",\"39\",\"1\",\"Training\",\"Stims/Figures/93-C-30-1.bmp\",\"na:la:la\",\"Right\",\"39\",\"1\",\"5\",\"1\",\"S\",\"J\",\"5\"
\"\",\"\",\"approach-retreat\",\"9\",\"127903\",\"0.0-9.0\",\"\",\"\",\"1-1\",\"4077\",\"39\",\"1\",\"Training\",\"Stims/Figures/111-C-30-3.bmp\",\"na:la:la\",\"Right\",\"39\",\"1\",\"6\",\"1\",\"S\",\"J\",\"6\"
\"\",\"\",\"approach-retreat\",\"10\",\"134142\",\"0.0-10.0\",\"\",\"\",\"1-1\",\"4726\",\"40\",\"1\",\"Training\",\"Stims/Figures/71-C-30-1.bmp\",\"na:la:la\",\"Down\",\"40\",\"1\",\"7\",\"1\",\"S\",\"J\",\"7\"
\"\",\"\",\"approach-retreat\",\"11\",\"141221\",\"0.0-11.0\",\"\",\"\",\"1-1\",\"5555\",\"40\",\"1\",\"Training\",\"Stims/Figures/111-J-10-3.bmp\",\"ta:paka\",\"Up\",\"40\",\"1\",\"8\",\"1\",\"P\",\"J\",\"8\"
\"\",\"\",\"approach-retreat\",\"12\",\"147180\",\"0.0-12.0\",\"\",\"\",\"1-1\",\"4445\",\"39\",\"1\",\"Training\",\"Stims/Figures/74-C-20-4.bmp\",\"na:la:la\",\"Right\",\"39\",\"1\",\"9\",\"1\",\"S\",\"J\",\"9\"
\"\",\"\",\"approach-retreat\",\"13\",\"153185\",\"0.0-13.0\",\"\",\"\",\"1-1\",\"4493\",\"40\",\"1\",\"Training\",\"Stims/Figures/74-J-10-4.bmp\",\"ta:paka\",\"Up\",\"40\",\"1\",\"10\",\"1\",\"P\",\"J\",\"10\"
\"\",\"\",\"approach-retreat\",\"14\",\"159838\",\"0.0-14.0\",\"\",\"\",\"1-1\",\"5142\",\"38\",\"1\",\"Training\",\"Stims/Figures/7-C-20-4.bmp\",\"na:la:la\",\"Up\",\"38\",\"1\",\"11\",\"1\",\"S\",\"J\",\"11\"
\"\",\"\",\"approach-retreat\",\"15\",\"166471\",\"0.0-15.0\",\"\",\"\",\"1-1\",\"5118\",\"40\",\"1\",\"Training\",\"Stims/Figures/144-C-30-3.bmp\",\"na:la:la\",\"Down\",\"40\",\"1\",\"12\",\"1\",\"S\",\"J\",\"12\"
\"\",\"\",\"approach-retreat\",\"16\",\"172444\",\"0.0-16.0\",\"\",\"\",\"1-1\",\"4449\",\"39\",\"1\",\"Training\",\"Stims/Figures/7-J-10-4.bmp\",\"ta:paka\",\"Left\",\"39\",\"1\",\"13\",\"1\",\"P\",\"J\",\"13\"
\"\",\"\",\"approach-retreat\",\"17\",\"178321\",\"0.0-17.0\",\"\",\"\",\"1-1\",\"4352\",\"39\",\"1\",\"Training\",\"Stims/Figures/144-J-10-3.bmp\",\"ta:paka\",\"Left\",\"39\",\"1\",\"14\",\"1\",\"P\",\"J\",\"14\"
\"\",\"\",\"approach-retreat\",\"18\",\"184244\",\"0.0-18.0\",\"\",\"\",\"1-1\",\"4398\",\"37\",\"1\",\"Training\",\"Stims/Figures/118-C-20-2.bmp\",\"na:la:la\",\"Left\",\"37\",\"1\",\"15\",\"1\",\"S\",\"J\",\"15\"
\"\",\"\",\"approach-retreat\",\"19\",\"191001\",\"0.0-19.0\",\"\",\"\",\"1-1\",\"5240\",\"38\",\"1\",\"Training\",\"Stims/Figures/93-J-0-1.bmp\",\"ta:paka\",\"Down\",\"38\",\"1\",\"16\",\"1\",\"P\",\"J\",\"16\"
\"\",\"\",\"approach-retreat\",\"20\",\"196838\",\"0.0-20.0\",\"\",\"\",\"1-1\",\"4316\",\"40\",\"0\",\"Training\",\"Stims/Figures/74-C-20-4.bmp\",\"na:la:la\",\"Up\",\"38\",\"2\",\"1\",\"1\",\"S\",\"J\",\"17\"
\"\",\"\",\"approach-retreat\",\"21\",\"202566\",\"0.0-21.0\",\"\",\"\",\"1-1\",\"4214\",\"39\",\"0\",\"Training\",\"Stims/Figures/7-J-10-4.bmp\",\"ta:paka\",\"Right\",\"37\",\"2\",\"2\",\"1\",\"P\",\"J\",\"18\"
\"\",\"\",\"approach-retreat\",\"22\",\"208877\",\"0.0-22.0\",\"\",\"\",\"1-1\",\"4789\",\"37\",\"1\",\"Training\",\"Stims/Figures/71-C-30-1.bmp\",\"na:la:la\",\"Left\",\"37\",\"2\",\"3\",\"1\",\"S\",\"J\",\"19\"
\"\",\"\",\"approach-retreat\",\"23\",\"214683\",\"0.0-23.0\",\"\",\"\",\"1-1\",\"4300\",\"40\",\"1\",\"Training\",\"Stims/Figures/118-C-20-2.bmp\",\"na:la:la\",\"Down\",\"40\",\"2\",\"4\",\"1\",\"S\",\"J\",\"20\"
\"\",\"\",\"approach-retreat\",\"24\",\"220925\",\"0.0-24.0\",\"\",\"\",\"1-1\",\"4717\",\"38\",\"1\",\"Training\",\"Stims/Figures/111-C-30-3.bmp\",\"na:la:la\",\"Up\",\"38\",\"2\",\"5\",\"1\",\"S\",\"J\",\"21\"
\"\",\"\",\"approach-retreat\",\"25\",\"226891\",\"0.0-25.0\",\"\",\"\",\"1-1\",\"4443\",\"37\",\"1\",\"Training\",\"Stims/Figures/118-J-0-2.bmp\",\"ta:paka\",\"Right\",\"37\",\"2\",\"6\",\"1\",\"P\",\"J\",\"22\"
\"\",\"\",\"approach-retreat\",\"26\",\"232511\",\"0.0-26.0\",\"\",\"\",\"1-1\",\"4113\",\"38\",\"1\",\"Training\",\"Stims/Figures/94-J-0-2.bmp\",\"ta:paka\",\"Down\",\"38\",\"2\",\"7\",\"1\",\"P\",\"J\",\"23\"
\"\",\"\",\"approach-retreat\",\"27\",\"238216\",\"0.0-27.0\",\"\",\"\",\"1-1\",\"4193\",\"39\",\"1\",\"Training\",\"Stims/Figures/74-J-10-4.bmp\",\"ta:paka\",\"Left\",\"39\",\"2\",\"8\",\"1\",\"P\",\"J\",\"24\"
\"\",\"\",\"approach-retreat\",\"28\",\"243957\",\"0.0-28.0\",\"\",\"\",\"1-1\",\"4222\",\"37\",\"1\",\"Training\",\"Stims/Figures/144-J-10-3.bmp\",\"ta:paka\",\"Right\",\"37\",\"2\",\"9\",\"1\",\"P\",\"J\",\"25\"
\"\",\"\",\"approach-retreat\",\"29\",\"249779\",\"0.0-29.0\",\"\",\"\",\"1-1\",\"4294\",\"39\",\"0\",\"Training\",\"Stims/Figures/144-C-30-3.bmp\",\"na:la:la\",\"Left\",\"37\",\"2\",\"10\",\"1\",\"S\",\"J\",\"26\"
\"\",\"\",\"approach-retreat\",\"30\",\"255509\",\"0.0-30.0\",\"\",\"\",\"1-1\",\"4222\",\"37\",\"1\",\"Training\",\"Stims/Figures/71-J-0-1.bmp\",\"ta:paka\",\"Right\",\"37\",\"2\",\"11\",\"1\",\"P\",\"J\",\"27\"
\"\",\"\",\"approach-retreat\",\"31\",\"261456\",\"0.0-31.0\",\"\",\"\",\"1-1\",\"4429\",\"40\",\"0\",\"Training\",\"Stims/Figures/94-C-20-2.bmp\",\"na:la:la\",\"Up\",\"38\",\"2\",\"12\",\"1\",\"S\",\"J\",\"28\"
\"\",\"\",\"approach-retreat\",\"32\",\"267542\",\"0.0-32.0\",\"\",\"\",\"1-1\",\"4576\",\"37\",\"1\",\"Training\",\"Stims/Figures/7-C-20-4.bmp\",\"na:la:la\",\"Left\",\"37\",\"2\",\"13\",\"1\",\"S\",\"J\",\"29\"
\"\",\"\",\"approach-retreat\",\"33\",\"273625\",\"0.0-33.0\",\"\",\"\",\"1-1\",\"4562\",\"40\",\"1\",\"Training\",\"Stims/Figures/93-J-0-1.bmp\",\"ta:paka\",\"Up\",\"40\",\"2\",\"14\",\"1\",\"P\",\"J\",\"30\"
\"\",\"\",\"approach-retreat\",\"34\",\"279509\",\"0.0-34.0\",\"\",\"\",\"1-1\",\"4368\",\"38\",\"1\",\"Training\",\"Stims/Figures/111-J-10-3.bmp\",\"ta:paka\",\"Down\",\"38\",\"2\",\"15\",\"1\",\"P\",\"J\",\"31\"
\"\",\"\",\"approach-retreat\",\"35\",\"285400\",\"0.0-35.0\",\"\",\"\",\"1-1\",\"4379\",\"40\",\"1\",\"Training\",\"Stims/Figures/93-C-30-1.bmp\",\"na:la:la\",\"Down\",\"40\",\"2\",\"16\",\"1\",\"S\",\"J\",\"32\"
\"\",\"\",\"approach-retreat\",\"36\",\"291509\",\"0.0-36.0\",\"\",\"\",\"1-1\",\"4584\",\"38\",\"1\",\"Training\",\"Stims/Figures/71-J-0-1.bmp\",\"ta:paka\",\"Down\",\"38\",\"3\",\"1\",\"1\",\"P\",\"J\",\"33\"
\"\",\"\",\"approach-retreat\",\"37\",\"297634\",\"0.0-37.0\",\"\",\"\",\"1-1\",\"4599\",\"40\",\"1\",\"Training\",\"Stims/Figures/118-C-20-2.bmp\",\"na:la:la\",\"Down\",\"40\",\"3\",\"2\",\"1\",\"S\",\"J\",\"34\"
\"\",\"\",\"approach-retreat\",\"38\",\"303711\",\"0.0-38.0\",\"\",\"\",\"1-1\",\"4568\",\"39\",\"1\",\"Training\",\"Stims/Figures/144-C-30-3.bmp\",\"na:la:la\",\"Right\",\"39\",\"3\",\"3\",\"1\",\"S\",\"J\",\"35\"
\"\",\"\",\"approach-retreat\",\"39\",\"309897\",\"0.0-39.0\",\"\",\"\",\"1-1\",\"4665\",\"37\",\"1\",\"Training\",\"Stims/Figures/118-J-0-2.bmp\",\"ta:paka\",\"Right\",\"37\",\"3\",\"4\",\"1\",\"P\",\"J\",\"36\"
\"\",\"\",\"approach-retreat\",\"40\",\"315925\",\"0.0-40.0\",\"\",\"\",\"1-1\",\"4506\",\"40\",\"1\",\"Training\",\"Stims/Figures/74-C-20-4.bmp\",\"na:la:la\",\"Down\",\"40\",\"3\",\"5\",\"1\",\"S\",\"J\",\"37\"
\"\",\"\",\"approach-retreat\",\"41\",\"321949\",\"0.0-41.0\",\"\",\"\",\"1-1\",\"4504\",\"40\",\"1\",\"Training\",\"Stims/Figures/7-J-10-4.bmp\",\"ta:paka\",\"Up\",\"40\",\"3\",\"6\",\"1\",\"P\",\"J\",\"38\"
\"\",\"\",\"approach-retreat\",\"42\",\"328633\",\"0.0-42.0\",\"\",\"\",\"1-1\",\"5178\",\"39\",\"1\",\"Training\",\"Stims/Figures/111-J-10-3.bmp\",\"ta:paka\",\"Left\",\"39\",\"3\",\"7\",\"1\",\"P\",\"J\",\"39\"
\"\",\"\",\"approach-retreat\",\"43\",\"334699\",\"0.0-43.0\",\"\",\"\",\"1-1\",\"4547\",\"38\",\"1\",\"Training\",\"Stims/Figures/7-C-20-4.bmp\",\"na:la:la\",\"Up\",\"38\",\"3\",\"8\",\"1\",\"S\",\"J\",\"40\"
\"\",\"\",\"approach-retreat\",\"44\",\"342173\",\"0.0-44.0\",\"\",\"\",\"1-1\",\"5967\",\"37\",\"1\",\"Training\",\"Stims/Figures/144-J-10-3.bmp\",\"ta:paka\",\"Right\",\"37\",\"3\",\"9\",\"1\",\"P\",\"J\",\"41\"
\"\",\"\",\"approach-retreat\",\"45\",\"349896\",\"0.0-45.0\",\"\",\"\",\"1-1\",\"6209\",\"37\",\"1\",\"Training\",\"Stims/Figures/94-C-20-2.bmp\",\"na:la:la\",\"Left\",\"37\",\"3\",\"10\",\"1\",\"S\",\"J\",\"42\"
\"\",\"\",\"approach-retreat\",\"46\",\"357093\",\"0.0-46.0\",\"\",\"\",\"1-1\",\"5690\",\"38\",\"0\",\"Training\",\"Stims/Figures/94-J-0-2.bmp\",\"ta:paka\",\"Up\",\"40\",\"3\",\"11\",\"1\",\"P\",\"J\",\"43\"
\"\",\"\",\"approach-retreat\",\"47\",\"363090\",\"0.0-47.0\",\"\",\"\",\"1-1\",\"4487\",\"37\",\"1\",\"Training\",\"Stims/Figures/71-C-30-1.bmp\",\"na:la:la\",\"Left\",\"37\",\"3\",\"12\",\"1\",\"S\",\"J\",\"44\"
\"\",\"\",\"approach-retreat\",\"48\",\"369056\",\"0.0-48.0\",\"\",\"\",\"1-1\",\"4457\",\"40\",\"1\",\"Training\",\"Stims/Figures/93-C-30-1.bmp\",\"na:la:la\",\"Down\",\"40\",\"3\",\"13\",\"1\",\"S\",\"J\",\"45\"
\"\",\"\",\"approach-retreat\",\"49\",\"374773\",\"0.0-49.0\",\"\",\"\",\"1-1\",\"4211\",\"40\",\"1\",\"Training\",\"Stims/Figures/74-J-10-4.bmp\",\"ta:paka\",\"Up\",\"40\",\"3\",\"14\",\"1\",\"P\",\"J\",\"46\"
\"\",\"\",\"approach-retreat\",\"50\",\"380861\",\"0.0-50.0\",\"\",\"\",\"1-1\",\"4579\",\"37\",\"1\",\"Training\",\"Stims/Figures/93-J-0-1.bmp\",\"ta:paka\",\"Right\",\"37\",\"3\",\"15\",\"1\",\"P\",\"J\",\"47\"
\"\",\"\",\"approach-retreat\",\"51\",\"387210\",\"0.0-51.0\",\"\",\"\",\"1-1\",\"4842\",\"37\",\"1\",\"Training\",\"Stims/Figures/111-C-30-3.bmp\",\"na:la:la\",\"Left\",\"37\",\"3\",\"16\",\"1\",\"S\",\"J\",\"48\"
\"\",\"\",\"approach-retreat\",\"52\",\"394404\",\"0.0-52.0\",\"\",\"\",\"1-1\",\"5674\",\"37\",\"1\",\"Training\",\"Stims/Figures/74-J-10-4.bmp\",\"ta:paka\",\"Right\",\"37\",\"4\",\"1\",\"1\",\"P\",\"J\",\"49\"
\"\",\"\",\"approach-retreat\",\"53\",\"400206\",\"0.0-53.0\",\"\",\"\",\"1-1\",\"4280\",\"39\",\"1\",\"Training\",\"Stims/Figures/93-C-30-1.bmp\",\"na:la:la\",\"Right\",\"39\",\"4\",\"2\",\"1\",\"S\",\"J\",\"50\"
\"\",\"\",\"approach-retreat\",\"54\",\"406065\",\"0.0-54.0\",\"\",\"\",\"1-1\",\"4349\",\"37\",\"1\",\"Training\",\"Stims/Figures/7-C-20-4.bmp\",\"na:la:la\",\"Left\",\"37\",\"4\",\"3\",\"1\",\"S\",\"J\",\"51\"
\"\",\"\",\"approach-retreat\",\"55\",\"412021\",\"0.0-55.0\",\"\",\"\",\"1-1\",\"4436\",\"37\",\"1\",\"Training\",\"Stims/Figures/144-C-30-3.bmp\",\"na:la:la\",\"Left\",\"37\",\"4\",\"4\",\"1\",\"S\",\"J\",\"52\"
\"\",\"\",\"approach-retreat\",\"56\",\"418214\",\"0.0-56.0\",\"\",\"\",\"1-1\",\"4676\",\"39\",\"1\",\"Training\",\"Stims/Figures/94-J-0-2.bmp\",\"ta:paka\",\"Left\",\"39\",\"4\",\"5\",\"1\",\"P\",\"J\",\"53\"
\"\",\"\",\"approach-retreat\",\"57\",\"425039\",\"0.0-57.0\",\"\",\"\",\"1-1\",\"5319\",\"40\",\"1\",\"Training\",\"Stims/Figures/118-C-20-2.bmp\",\"na:la:la\",\"Down\",\"40\",\"4\",\"6\",\"1\",\"S\",\"J\",\"54\"
\"\",\"\",\"approach-retreat\",\"58\",\"430906\",\"0.0-58.0\",\"\",\"\",\"1-1\",\"4343\",\"38\",\"1\",\"Training\",\"Stims/Figures/94-C-20-2.bmp\",\"na:la:la\",\"Up\",\"38\",\"4\",\"7\",\"1\",\"S\",\"J\",\"55\"
\"\",\"\",\"approach-retreat\",\"59\",\"437313\",\"0.0-59.0\",\"\",\"\",\"1-1\",\"4894\",\"40\",\"1\",\"Training\",\"Stims/Figures/118-J-0-2.bmp\",\"ta:paka\",\"Up\",\"40\",\"4\",\"8\",\"1\",\"P\",\"J\",\"56\"
\"\",\"\",\"approach-retreat\",\"60\",\"443623\",\"0.0-60.0\",\"\",\"\",\"1-1\",\"4799\",\"38\",\"1\",\"Training\",\"Stims/Figures/71-C-30-1.bmp\",\"na:la:la\",\"Up\",\"38\",\"4\",\"9\",\"1\",\"S\",\"J\",\"57\"
\"\",\"\",\"approach-retreat\",\"61\",\"450100\",\"0.0-61.0\",\"\",\"\",\"1-1\",\"4968\",\"37\",\"1\",\"Training\",\"Stims/Figures/71-J-0-1.bmp\",\"ta:paka\",\"Right\",\"37\",\"4\",\"10\",\"1\",\"P\",\"J\",\"58\"
\"\",\"\",\"approach-retreat\",\"62\",\"456841\",\"0.0-62.0\",\"\",\"\",\"1-1\",\"5225\",\"38\",\"1\",\"Training\",\"Stims/Figures/111-J-10-3.bmp\",\"ta:paka\",\"Down\",\"38\",\"4\",\"11\",\"1\",\"P\",\"J\",\"59\"
\"\",\"\",\"approach-retreat\",\"63\",\"464017\",\"0.0-63.0\",\"\",\"\",\"1-1\",\"5649\",\"40\",\"1\",\"Training\",\"Stims/Figures/111-C-30-3.bmp\",\"na:la:la\",\"Down\",\"40\",\"4\",\"12\",\"1\",\"S\",\"J\",\"60\"
\"\",\"\",\"approach-retreat\",\"64\",\"469961\",\"0.0-64.0\",\"\",\"\",\"1-1\",\"4437\",\"38\",\"1\",\"Training\",\"Stims/Figures/7-J-10-4.bmp\",\"ta:paka\",\"Down\",\"38\",\"4\",\"13\",\"1\",\"P\",\"J\",\"61\"
\"\",\"\",\"approach-retreat\",\"65\",\"475663\",\"0.0-65.0\",\"\",\"\",\"1-1\",\"4187\",\"39\",\"1\",\"Training\",\"Stims/Figures/144-J-10-3.bmp\",\"ta:paka\",\"Left\",\"39\",\"4\",\"14\",\"1\",\"P\",\"J\",\"62\"
\"\",\"\",\"approach-retreat\",\"66\",\"481361\",\"0.0-66.0\",\"\",\"\",\"1-1\",\"4189\",\"40\",\"0\",\"Training\",\"Stims/Figures/74-C-20-4.bmp\",\"na:la:la\",\"Up\",\"38\",\"4\",\"15\",\"1\",\"S\",\"J\",\"63\"
\"\",\"\",\"approach-retreat\",\"67\",\"487167\",\"0.0-67.0\",\"\",\"\",\"1-1\",\"4298\",\"37\",\"1\",\"Training\",\"Stims/Figures/93-J-0-1.bmp\",\"ta:paka\",\"Right\",\"37\",\"4\",\"16\",\"1\",\"P\",\"J\",\"64\"
\"\",\"\",\"approach-retreat\",\"68\",\"492666\",\"0.0-68.0\",\"\",\"\",\"1-1\",\"3984\",\"40\",\"1\",\"Training\",\"Stims/Figures/111-J-10-3.bmp\",\"ta:paka\",\"Up\",\"40\",\"5\",\"1\",\"1\",\"P\",\"J\",\"65\"
\"\",\"\",\"approach-retreat\",\"69\",\"498520\",\"0.0-69.0\",\"\",\"\",\"1-1\",\"4348\",\"38\",\"1\",\"Training\",\"Stims/Figures/94-C-20-2.bmp\",\"na:la:la\",\"Up\",\"38\",\"5\",\"2\",\"1\",\"S\",\"J\",\"66\"
\"\",\"\",\"approach-retreat\",\"70\",\"506551\",\"0.0-70.0\",\"\",\"\",\"1-1\",\"6524\",\"40\",\"1\",\"Training\",\"Stims/Figures/144-C-30-3.bmp\",\"na:la:la\",\"Down\",\"40\",\"5\",\"3\",\"1\",\"S\",\"J\",\"67\"
\"\",\"\",\"approach-retreat\",\"71\",\"512340\",\"0.0-71.0\",\"\",\"\",\"1-1\",\"4271\",\"38\",\"1\",\"Training\",\"Stims/Figures/7-C-20-4.bmp\",\"na:la:la\",\"Up\",\"38\",\"5\",\"4\",\"1\",\"S\",\"J\",\"68\"
\"\",\"\",\"approach-retreat\",\"72\",\"518825\",\"0.0-72.0\",\"\",\"\",\"1-1\",\"4961\",\"38\",\"1\",\"Training\",\"Stims/Figures/7-J-10-4.bmp\",\"ta:paka\",\"Down\",\"38\",\"5\",\"5\",\"1\",\"P\",\"J\",\"69\"
\"\",\"\",\"approach-retreat\",\"73\",\"526027\",\"0.0-73.0\",\"\",\"\",\"1-1\",\"5677\",\"40\",\"1\",\"Training\",\"Stims/Figures/111-C-30-3.bmp\",\"na:la:la\",\"Down\",\"40\",\"5\",\"6\",\"1\",\"S\",\"J\",\"70\"
\"\",\"\",\"approach-retreat\",\"74\",\"532661\",\"0.0-74.0\",\"\",\"\",\"1-1\",\"5113\",\"40\",\"1\",\"Training\",\"Stims/Figures/144-J-10-3.bmp\",\"ta:paka\",\"Up\",\"40\",\"5\",\"7\",\"1\",\"P\",\"J\",\"71\"
\"\",\"\",\"approach-retreat\",\"75\",\"538494\",\"0.0-75.0\",\"\",\"\",\"1-1\",\"4322\",\"37\",\"1\",\"Training\",\"Stims/Figures/71-C-30-1.bmp\",\"na:la:la\",\"Left\",\"37\",\"5\",\"8\",\"1\",\"S\",\"J\",\"72\"
\"\",\"\",\"approach-retreat\",\"76\",\"544221\",\"0.0-76.0\",\"\",\"\",\"1-1\",\"4216\",\"38\",\"1\",\"Training\",\"Stims/Figures/118-J-0-2.bmp\",\"ta:paka\",\"Down\",\"38\",\"5\",\"9\",\"1\",\"P\",\"J\",\"73\"
\"\",\"\",\"approach-retreat\",\"77\",\"550046\",\"0.0-77.0\",\"\",\"\",\"1-1\",\"4318\",\"39\",\"1\",\"Training\",\"Stims/Figures/94-J-0-2.bmp\",\"ta:paka\",\"Left\",\"39\",\"5\",\"10\",\"1\",\"P\",\"J\",\"74\"
\"\",\"\",\"approach-retreat\",\"78\",\"556220\",\"0.0-78.0\",\"\",\"\",\"1-1\",\"4664\",\"39\",\"1\",\"Training\",\"Stims/Figures/74-C-20-4.bmp\",\"na:la:la\",\"Right\",\"39\",\"5\",\"11\",\"1\",\"S\",\"J\",\"75\"
\"\",\"\",\"approach-retreat\",\"79\",\"562119\",\"0.0-79.0\",\"\",\"\",\"1-1\",\"4381\",\"37\",\"1\",\"Training\",\"Stims/Figures/71-J-0-1.bmp\",\"ta:paka\",\"Right\",\"37\",\"5\",\"12\",\"1\",\"P\",\"J\",\"76\"
\"\",\"\",\"approach-retreat\",\"80\",\"567759\",\"0.0-80.0\",\"\",\"\",\"1-1\",\"4122\",\"39\",\"1\",\"Training\",\"Stims/Figures/74-J-10-4.bmp\",\"ta:paka\",\"Left\",\"39\",\"5\",\"13\",\"1\",\"P\",\"J\",\"77\"
\"\",\"\",\"approach-retreat\",\"81\",\"574010\",\"0.0-81.0\",\"\",\"\",\"1-1\",\"4740\",\"39\",\"1\",\"Training\",\"Stims/Figures/118-C-20-2.bmp\",\"na:la:la\",\"Right\",\"39\",\"5\",\"14\",\"1\",\"S\",\"J\",\"78\"
\"\",\"\",\"approach-retreat\",\"82\",\"579585\",\"0.0-82.0\",\"\",\"\",\"1-1\",\"4061\",\"39\",\"1\",\"Training\",\"Stims/Figures/93-C-30-1.bmp\",\"na:la:la\",\"Right\",\"39\",\"5\",\"15\",\"1\",\"S\",\"J\",\"79\"
\"\",\"\",\"approach-retreat\",\"83\",\"586102\",\"0.0-83.0\",\"\",\"\",\"1-1\",\"4996\",\"39\",\"1\",\"Training\",\"Stims/Figures/93-J-0-1.bmp\",\"ta:paka\",\"Left\",\"39\",\"5\",\"16\",\"1\",\"P\",\"J\",\"80\"
\"\",\"\",\"approach-retreat\",\"84\",\"592803\",\"0.0-84.0\",\"\",\"\",\"1-1\",\"5189\",\"38\",\"1\",\"Training\",\"Stims/Figures/111-J-10-3.bmp\",\"ta:paka\",\"Down\",\"38\",\"6\",\"1\",\"1\",\"P\",\"J\",\"81\"
\"\",\"\",\"approach-retreat\",\"85\",\"598844\",\"0.0-85.0\",\"\",\"\",\"1-1\",\"4536\",\"39\",\"1\",\"Training\",\"Stims/Figures/93-J-0-1.bmp\",\"ta:paka\",\"Left\",\"39\",\"6\",\"2\",\"1\",\"P\",\"J\",\"82\"
\"\",\"\",\"approach-retreat\",\"86\",\"604407\",\"0.0-86.0\",\"\",\"\",\"1-1\",\"4056\",\"37\",\"1\",\"Training\",\"Stims/Figures/118-J-0-2.bmp\",\"ta:paka\",\"Right\",\"37\",\"6\",\"3\",\"1\",\"P\",\"J\",\"83\"
\"\",\"\",\"approach-retreat\",\"87\",\"610344\",\"0.0-87.0\",\"\",\"\",\"1-1\",\"4416\",\"39\",\"1\",\"Training\",\"Stims/Figures/7-C-20-4.bmp\",\"na:la:la\",\"Right\",\"39\",\"6\",\"4\",\"1\",\"S\",\"J\",\"84\"
\"\",\"\",\"approach-retreat\",\"88\",\"616018\",\"0.0-88.0\",\"\",\"\",\"1-1\",\"4157\",\"38\",\"1\",\"Training\",\"Stims/Figures/144-J-10-3.bmp\",\"ta:paka\",\"Down\",\"38\",\"6\",\"5\",\"1\",\"P\",\"J\",\"85\"
\"\",\"\",\"approach-retreat\",\"89\",\"622994\",\"0.0-89.0\",\"\",\"\",\"1-1\",\"5454\",\"37\",\"1\",\"Training\",\"Stims/Figures/144-C-30-3.bmp\",\"na:la:la\",\"Left\",\"37\",\"6\",\"6\",\"1\",\"S\",\"J\",\"86\"
\"\",\"\",\"approach-retreat\",\"90\",\"629151\",\"0.0-90.0\",\"\",\"\",\"1-1\",\"4621\",\"39\",\"1\",\"Training\",\"Stims/Figures/94-J-0-2.bmp\",\"ta:paka\",\"Left\",\"39\",\"6\",\"7\",\"1\",\"P\",\"J\",\"87\"
\"\",\"\",\"approach-retreat\",\"91\",\"635193\",\"0.0-91.0\",\"\",\"\",\"1-1\",\"4533\",\"37\",\"1\",\"Training\",\"Stims/Figures/74-J-10-4.bmp\",\"ta:paka\",\"Right\",\"37\",\"6\",\"8\",\"1\",\"P\",\"J\",\"88\"
\"\",\"\",\"approach-retreat\",\"92\",\"642684\",\"0.0-92.0\",\"\",\"\",\"1-1\",\"5977\",\"39\",\"0\",\"Training\",\"Stims/Figures/71-C-30-1.bmp\",\"na:la:la\",\"Left\",\"37\",\"6\",\"9\",\"1\",\"S\",\"J\",\"89\"
\"\",\"\",\"approach-retreat\",\"93\",\"648246\",\"0.0-93.0\",\"\",\"\",\"1-1\",\"4041\",\"38\",\"1\",\"Training\",\"Stims/Figures/94-C-20-2.bmp\",\"na:la:la\",\"Up\",\"38\",\"6\",\"10\",\"1\",\"S\",\"J\",\"90\"
\"\",\"\",\"approach-retreat\",\"94\",\"654121\",\"0.0-94.0\",\"\",\"\",\"1-1\",\"4366\",\"38\",\"1\",\"Training\",\"Stims/Figures/71-J-0-1.bmp\",\"ta:paka\",\"Down\",\"38\",\"6\",\"11\",\"1\",\"P\",\"J\",\"91\"
\"\",\"\",\"approach-retreat\",\"95\",\"661698\",\"0.0-95.0\",\"\",\"\",\"1-1\",\"6061\",\"40\",\"0\",\"Training\",\"Stims/Figures/111-C-30-3.bmp\",\"na:la:la\",\"Up\",\"38\",\"6\",\"12\",\"1\",\"S\",\"J\",\"92\"
\"\",\"\",\"approach-retreat\",\"96\",\"667299\",\"0.0-96.0\",\"\",\"\",\"1-1\",\"4096\",\"40\",\"1\",\"Training\",\"Stims/Figures/7-J-10-4.bmp\",\"ta:paka\",\"Up\",\"40\",\"6\",\"13\",\"1\",\"P\",\"J\",\"93\"
\"\",\"\",\"approach-retreat\",\"97\",\"673403\",\"0.0-97.0\",\"\",\"\",\"1-1\",\"4598\",\"39\",\"1\",\"Training\",\"Stims/Figures/118-C-20-2.bmp\",\"na:la:la\",\"Right\",\"39\",\"6\",\"14\",\"1\",\"S\",\"J\",\"94\"
\"\",\"\",\"approach-retreat\",\"98\",\"679555\",\"0.0-98.0\",\"\",\"\",\"1-1\",\"4642\",\"40\",\"1\",\"Training\",\"Stims/Figures/74-C-20-4.bmp\",\"na:la:la\",\"Down\",\"40\",\"6\",\"15\",\"1\",\"S\",\"J\",\"95\"
\"\",\"\",\"approach-retreat\",\"99\",\"685409\",\"0.0-99.0\",\"\",\"\",\"1-1\",\"4344\",\"38\",\"1\",\"Training\",\"Stims/Figures/93-C-30-1.bmp\",\"na:la:la\",\"Up\",\"38\",\"6\",\"16\",\"1\",\"S\",\"J\",\"96\"
\"\",\"\",\"approach-retreat\",\"100\",\"691489\",\"0.0-100.0\",\"\",\"\",\"1-1\",\"4572\",\"40\",\"1\",\"Training\",\"Stims/Figures/111-C-30-3.bmp\",\"na:la:la\",\"Down\",\"40\",\"7\",\"1\",\"1\",\"S\",\"J\",\"97\"
\"\",\"\",\"approach-retreat\",\"101\",\"699893\",\"0.0-101.0\",\"\",\"\",\"1-1\",\"6897\",\"39\",\"1\",\"Training\",\"Stims/Figures/144-C-30-3.bmp\",\"na:la:la\",\"Right\",\"39\",\"7\",\"2\",\"1\",\"S\",\"J\",\"98\"
\"\",\"\",\"approach-retreat\",\"102\",\"705541\",\"0.0-102.0\",\"\",\"\",\"1-1\",\"4139\",\"37\",\"1\",\"Training\",\"Stims/Figures/71-J-0-1.bmp\",\"ta:paka\",\"Right\",\"37\",\"7\",\"3\",\"1\",\"P\",\"J\",\"99\"
\"\",\"\",\"approach-retreat\",\"103\",\"711341\",\"0.0-103.0\",\"\",\"\",\"1-1\",\"4293\",\"40\",\"1\",\"Training\",\"Stims/Figures/94-C-20-2.bmp\",\"na:la:la\",\"Down\",\"40\",\"7\",\"4\",\"1\",\"S\",\"J\",\"100\"
\"\",\"\",\"approach-retreat\",\"104\",\"717356\",\"0.0-104.0\",\"\",\"\",\"1-1\",\"4494\",\"38\",\"1\",\"Training\",\"Stims/Figures/118-C-20-2.bmp\",\"na:la:la\",\"Up\",\"38\",\"7\",\"5\",\"1\",\"S\",\"J\",\"101\"
\"\",\"\",\"approach-retreat\",\"105\",\"723831\",\"0.0-105.0\",\"\",\"\",\"1-1\",\"4954\",\"38\",\"1\",\"Training\",\"Stims/Figures/7-C-20-4.bmp\",\"na:la:la\",\"Up\",\"38\",\"7\",\"6\",\"1\",\"S\",\"J\",\"102\"
\"\",\"\",\"approach-retreat\",\"106\",\"730339\",\"0.0-106.0\",\"\",\"\",\"1-1\",\"4998\",\"39\",\"1\",\"Training\",\"Stims/Figures/93-J-0-1.bmp\",\"ta:paka\",\"Left\",\"39\",\"7\",\"7\",\"1\",\"P\",\"J\",\"103\"
\"\",\"\",\"approach-retreat\",\"107\",\"736598\",\"0.0-107.0\",\"\",\"\",\"1-1\",\"4751\",\"39\",\"1\",\"Training\",\"Stims/Figures/144-J-10-3.bmp\",\"ta:paka\",\"Left\",\"39\",\"7\",\"8\",\"1\",\"P\",\"J\",\"104\"
\"\",\"\",\"approach-retreat\",\"108\",\"742363\",\"0.0-108.0\",\"\",\"\",\"1-1\",\"4253\",\"38\",\"1\",\"Training\",\"Stims/Figures/94-J-0-2.bmp\",\"ta:paka\",\"Down\",\"38\",\"7\",\"9\",\"1\",\"P\",\"J\",\"105\"
\"\",\"\",\"approach-retreat\",\"109\",\"748331\",\"0.0-109.0\",\"\",\"\",\"1-1\",\"4449\",\"37\",\"1\",\"Training\",\"Stims/Figures/111-J-10-3.bmp\",\"ta:paka\",\"Right\",\"37\",\"7\",\"10\",\"1\",\"P\",\"J\",\"106\"
\"\",\"\",\"approach-retreat\",\"110\",\"755090\",\"0.0-110.0\",\"\",\"\",\"1-1\",\"5249\",\"38\",\"1\",\"Training\",\"Stims/Figures/71-C-30-1.bmp\",\"na:la:la\",\"Up\",\"38\",\"7\",\"11\",\"1\",\"S\",\"J\",\"107\"
\"\",\"\",\"approach-retreat\",\"111\",\"760950\",\"0.0-111.0\",\"\",\"\",\"1-1\",\"4350\",\"40\",\"1\",\"Training\",\"Stims/Figures/74-C-20-4.bmp\",\"na:la:la\",\"Down\",\"40\",\"7\",\"12\",\"1\",\"S\",\"J\",\"108\"
\"\",\"\",\"approach-retreat\",\"112\",\"766572\",\"0.0-112.0\",\"\",\"\",\"1-1\",\"4109\",\"40\",\"1\",\"Training\",\"Stims/Figures/118-J-0-2.bmp\",\"ta:paka\",\"Up\",\"40\",\"7\",\"13\",\"1\",\"P\",\"J\",\"109\"
\"\",\"\",\"approach-retreat\",\"113\",\"772793\",\"0.0-113.0\",\"\",\"\",\"1-1\",\"4714\",\"37\",\"1\",\"Training\",\"Stims/Figures/74-J-10-4.bmp\",\"ta:paka\",\"Right\",\"37\",\"7\",\"14\",\"1\",\"P\",\"J\",\"110\"
\"\",\"\",\"approach-retreat\",\"114\",\"779058\",\"0.0-114.0\",\"\",\"\",\"1-1\",\"4754\",\"39\",\"1\",\"Training\",\"Stims/Figures/7-J-10-4.bmp\",\"ta:paka\",\"Left\",\"39\",\"7\",\"15\",\"1\",\"P\",\"J\",\"111\"
\"\",\"\",\"approach-retreat\",\"115\",\"784672\",\"0.0-115.0\",\"\",\"\",\"1-1\",\"4103\",\"37\",\"1\",\"Training\",\"Stims/Figures/93-C-30-1.bmp\",\"na:la:la\",\"Left\",\"37\",\"7\",\"16\",\"1\",\"S\",\"J\",\"112\"
\"\",\"\",\"approach-retreat\",\"116\",\"790745\",\"0.0-116.0\",\"\",\"\",\"1-1\",\"4550\",\"39\",\"0\",\"Training\",\"Stims/Figures/93-J-0-1.bmp\",\"ta:paka\",\"Right\",\"37\",\"8\",\"1\",\"1\",\"P\",\"J\",\"113\"
\"\",\"\",\"approach-retreat\",\"117\",\"796462\",\"0.0-117.0\",\"\",\"\",\"1-1\",\"4198\",\"37\",\"0\",\"Training\",\"Stims/Figures/118-C-20-2.bmp\",\"na:la:la\",\"Right\",\"39\",\"8\",\"2\",\"1\",\"S\",\"J\",\"114\"
\"\",\"\",\"approach-retreat\",\"118\",\"804231\",\"0.0-118.0\",\"\",\"\",\"1-1\",\"6248\",\"37\",\"1\",\"Training\",\"Stims/Figures/7-C-20-4.bmp\",\"na:la:la\",\"Left\",\"37\",\"8\",\"3\",\"1\",\"S\",\"J\",\"115\"
\"\",\"\",\"approach-retreat\",\"119\",\"810514\",\"0.0-119.0\",\"\",\"\",\"1-1\",\"4759\",\"39\",\"1\",\"Training\",\"Stims/Figures/111-C-30-3.bmp\",\"na:la:la\",\"Right\",\"39\",\"8\",\"4\",\"1\",\"S\",\"J\",\"116\"
\"\",\"\",\"approach-retreat\",\"120\",\"819053\",\"0.0-120.0\",\"\",\"\",\"1-1\",\"7022\",\"40\",\"1\",\"Training\",\"Stims/Figures/93-C-30-1.bmp\",\"na:la:la\",\"Down\",\"40\",\"8\",\"5\",\"1\",\"S\",\"J\",\"117\"
\"\",\"\",\"approach-retreat\",\"121\",\"825094\",\"0.0-121.0\",\"\",\"\",\"1-1\",\"4521\",\"40\",\"1\",\"Training\",\"Stims/Figures/94-C-20-2.bmp\",\"na:la:la\",\"Down\",\"40\",\"8\",\"6\",\"1\",\"S\",\"J\",\"118\"
\"\",\"\",\"approach-retreat\",\"122\",\"831354\",\"0.0-122.0\",\"\",\"\",\"1-1\",\"4742\",\"38\",\"1\",\"Training\",\"Stims/Figures/144-C-30-3.bmp\",\"na:la:la\",\"Up\",\"38\",\"8\",\"7\",\"1\",\"S\",\"J\",\"119\"
\"\",\"\",\"approach-retreat\",\"123\",\"837462\",\"0.0-123.0\",\"\",\"\",\"1-1\",\"4593\",\"40\",\"1\",\"Training\",\"Stims/Figures/71-J-0-1.bmp\",\"ta:paka\",\"Up\",\"40\",\"8\",\"8\",\"1\",\"P\",\"J\",\"120\"
\"\",\"\",\"approach-retreat\",\"124\",\"843688\",\"0.0-124.0\",\"\",\"\",\"1-1\",\"4711\",\"40\",\"1\",\"Training\",\"Stims/Figures/71-C-30-1.bmp\",\"na:la:la\",\"Down\",\"40\",\"8\",\"9\",\"1\",\"S\",\"J\",\"121\"
\"\",\"\",\"approach-retreat\",\"125\",\"850528\",\"0.0-125.0\",\"\",\"\",\"1-1\",\"5318\",\"39\",\"1\",\"Training\",\"Stims/Figures/7-J-10-4.bmp\",\"ta:paka\",\"Left\",\"39\",\"8\",\"10\",\"1\",\"P\",\"J\",\"122\"
\"\",\"\",\"approach-retreat\",\"126\",\"856378\",\"0.0-126.0\",\"\",\"\",\"1-1\",\"4332\",\"39\",\"1\",\"Training\",\"Stims/Figures/74-J-10-4.bmp\",\"ta:paka\",\"Left\",\"39\",\"8\",\"11\",\"1\",\"P\",\"J\",\"123\"
\"\",\"\",\"approach-retreat\",\"127\",\"862420\",\"0.0-127.0\",\"\",\"\",\"1-1\",\"4522\",\"37\",\"1\",\"Training\",\"Stims/Figures/118-J-0-2.bmp\",\"ta:paka\",\"Right\",\"37\",\"8\",\"12\",\"1\",\"P\",\"J\",\"124\"
\"\",\"\",\"approach-retreat\",\"128\",\"868092\",\"0.0-128.0\",\"\",\"\",\"1-1\",\"4147\",\"40\",\"1\",\"Training\",\"Stims/Figures/94-J-0-2.bmp\",\"ta:paka\",\"Up\",\"40\",\"8\",\"13\",\"1\",\"P\",\"J\",\"125\"
\"\",\"\",\"approach-retreat\",\"129\",\"874120\",\"0.0-129.0\",\"\",\"\",\"1-1\",\"4517\",\"38\",\"1\",\"Training\",\"Stims/Figures/111-J-10-3.bmp\",\"ta:paka\",\"Down\",\"38\",\"8\",\"14\",\"1\",\"P\",\"J\",\"126\"
\"\",\"\",\"approach-retreat\",\"130\",\"880493\",\"0.0-130.0\",\"\",\"\",\"1-1\",\"4861\",\"37\",\"1\",\"Training\",\"Stims/Figures/74-C-20-4.bmp\",\"na:la:la\",\"Left\",\"37\",\"8\",\"15\",\"1\",\"S\",\"J\",\"127\"
\"\",\"\",\"approach-retreat\",\"131\",\"888271\",\"0.0-131.0\",\"\",\"\",\"1-1\",\"6256\",\"40\",\"1\",\"Training\",\"Stims/Figures/144-J-10-3.bmp\",\"ta:paka\",\"Up\",\"40\",\"8\",\"16\",\"1\",\"P\",\"J\",\"128\"
\"\",\"\",\"approach-retreat\",\"132\",\"896532\",\"0.0-132.0\",\"\",\"\",\"1-1\",\"6747\",\"38\",\"1\",\"Training\",\"Stims/Figures/7-C-20-4.bmp\",\"na:la:la\",\"Up\",\"38\",\"9\",\"1\",\"1\",\"S\",\"J\",\"129\"
\"\",\"\",\"approach-retreat\",\"133\",\"904444\",\"0.0-133.0\",\"\",\"\",\"1-1\",\"6392\",\"37\",\"1\",\"Training\",\"Stims/Figures/118-C-20-2.bmp\",\"na:la:la\",\"Left\",\"37\",\"9\",\"2\",\"1\",\"S\",\"J\",\"130\"
\"\",\"\",\"approach-retreat\",\"134\",\"911637\",\"0.0-134.0\",\"\",\"\",\"1-1\",\"5685\",\"38\",\"1\",\"Training\",\"Stims/Figures/93-C-30-1.bmp\",\"na:la:la\",\"Up\",\"38\",\"9\",\"3\",\"1\",\"S\",\"J\",\"131\"
\"\",\"\",\"approach-retreat\",\"135\",\"917668\",\"0.0-135.0\",\"\",\"\",\"1-1\",\"4516\",\"40\",\"1\",\"Training\",\"Stims/Figures/111-J-10-3.bmp\",\"ta:paka\",\"Up\",\"40\",\"9\",\"4\",\"1\",\"P\",\"J\",\"132\"
\"\",\"\",\"approach-retreat\",\"136\",\"924027\",\"0.0-136.0\",\"\",\"\",\"1-1\",\"4848\",\"37\",\"1\",\"Training\",\"Stims/Figures/71-C-30-1.bmp\",\"na:la:la\",\"Left\",\"37\",\"9\",\"5\",\"1\",\"S\",\"J\",\"133\"
\"\",\"\",\"approach-retreat\",\"137\",\"930168\",\"0.0-137.0\",\"\",\"\",\"1-1\",\"4622\",\"38\",\"1\",\"Training\",\"Stims/Figures/144-J-10-3.bmp\",\"ta:paka\",\"Down\",\"38\",\"9\",\"6\",\"1\",\"P\",\"J\",\"134\"
\"\",\"\",\"approach-retreat\",\"138\",\"935893\",\"0.0-138.0\",\"\",\"\",\"1-1\",\"4202\",\"38\",\"1\",\"Training\",\"Stims/Figures/118-J-0-2.bmp\",\"ta:paka\",\"Down\",\"38\",\"9\",\"7\",\"1\",\"P\",\"J\",\"135\"
\"\",\"\",\"approach-retreat\",\"139\",\"941781\",\"0.0-139.0\",\"\",\"\",\"1-1\",\"4376\",\"37\",\"1\",\"Training\",\"Stims/Figures/7-J-10-4.bmp\",\"ta:paka\",\"Right\",\"37\",\"9\",\"8\",\"1\",\"P\",\"J\",\"136\"
\"\",\"\",\"approach-retreat\",\"140\",\"947578\",\"0.0-140.0\",\"\",\"\",\"1-1\",\"4282\",\"37\",\"1\",\"Training\",\"Stims/Figures/74-J-10-4.bmp\",\"ta:paka\",\"Right\",\"37\",\"9\",\"9\",\"1\",\"P\",\"J\",\"137\"
\"\",\"\",\"approach-retreat\",\"141\",\"956087\",\"0.0-141.0\",\"\",\"\",\"1-1\",\"6991\",\"37\",\"1\",\"Training\",\"Stims/Figures/144-C-30-3.bmp\",\"na:la:la\",\"Left\",\"37\",\"9\",\"10\",\"1\",\"S\",\"J\",\"138\"
\"\",\"\",\"approach-retreat\",\"142\",\"962329\",\"0.0-142.0\",\"\",\"\",\"1-1\",\"4723\",\"40\",\"1\",\"Training\",\"Stims/Figures/74-C-20-4.bmp\",\"na:la:la\",\"Down\",\"40\",\"9\",\"11\",\"1\",\"S\",\"J\",\"139\"
\"\",\"\",\"approach-retreat\",\"143\",\"968822\",\"0.0-143.0\",\"\",\"\",\"1-1\",\"4978\",\"37\",\"1\",\"Training\",\"Stims/Figures/71-J-0-1.bmp\",\"ta:paka\",\"Right\",\"37\",\"9\",\"12\",\"1\",\"P\",\"J\",\"140\"
\"\",\"\",\"approach-retreat\",\"144\",\"975206\",\"0.0-144.0\",\"\",\"\",\"1-1\",\"4864\",\"38\",\"1\",\"Training\",\"Stims/Figures/94-C-20-2.bmp\",\"na:la:la\",\"Up\",\"38\",\"9\",\"13\",\"1\",\"S\",\"J\",\"141\"
\"\",\"\",\"approach-retreat\",\"145\",\"982312\",\"0.0-145.0\",\"\",\"\",\"1-1\",\"5586\",\"37\",\"1\",\"Training\",\"Stims/Figures/93-J-0-1.bmp\",\"ta:paka\",\"Right\",\"37\",\"9\",\"14\",\"1\",\"P\",\"J\",\"142\"
\"\",\"\",\"approach-retreat\",\"146\",\"990291\",\"0.0-146.0\",\"\",\"\",\"1-1\",\"6458\",\"38\",\"1\",\"Training\",\"Stims/Figures/94-J-0-2.bmp\",\"ta:paka\",\"Down\",\"38\",\"9\",\"15\",\"1\",\"P\",\"J\",\"143\"
\"\",\"\",\"approach-retreat\",\"147\",\"1000020\",\"0.0-147.0\",\"\",\"\",\"1-1\",\"8206\",\"37\",\"1\",\"Training\",\"Stims/Figures/111-C-30-3.bmp\",\"na:la:la\",\"Left\",\"37\",\"9\",\"16\",\"1\",\"S\",\"J\",\"144\"
\"9194\",\"\",\"instructions\",\"148\",\"1009215\",\"0.0-148.0\",\"[{\"\"page_index\"\":0,\"\"viewing_time\"\":9193}]\",\"\",\"\",\"\",\"\",\"\",\"\",\"\",\"\",\"\",\"\",\"\",\"\",\"\",\"\",\"\",\"\"
\"\",\"\",\"approach-retreat\",\"149\",\"1015925\",\"0.0-149.0\",\"\",\"\",\"1-1\",\"5190\",\"37\",\"1\",\"Testing\",\"Stims/Figures/93-C-30-1.bmp\",\"na:la:la\",\"Left\",\"37\",\"1\",\"1\",\"1\",\"S\",\"J\",\"1\"
\"\",\"\",\"approach-retreat\",\"150\",\"1021582\",\"0.0-150.0\",\"\",\"\",\"1-1\",\"4144\",\"39\",\"1\",\"Testing\",\"Stims/Figures/93-J-0-1.bmp\",\"ta:paka\",\"Left\",\"39\",\"1\",\"2\",\"1\",\"P\",\"J\",\"2\"
\"\",\"\",\"approach-retreat\",\"151\",\"1027407\",\"0.0-151.0\",\"\",\"\",\"1-1\",\"4315\",\"37\",\"1\",\"Testing\",\"Stims/Figures/94-C-20-2.bmp\",\"na:la:la\",\"Left\",\"37\",\"1\",\"3\",\"1\",\"S\",\"J\",\"3\"
\"\",\"\",\"approach-retreat\",\"152\",\"1033455\",\"0.0-152.0\",\"\",\"\",\"1-1\",\"4539\",\"38\",\"1\",\"Testing\",\"Stims/Figures/71-C-30-1.bmp\",\"na:la:la\",\"Up\",\"38\",\"1\",\"4\",\"1\",\"S\",\"J\",\"4\"
\"\",\"\",\"approach-retreat\",\"153\",\"1039725\",\"0.0-153.0\",\"\",\"\",\"1-1\",\"4759\",\"37\",\"1\",\"Testing\",\"Stims/Figures/94-J-0-2.bmp\",\"ta:paka\",\"Right\",\"37\",\"1\",\"5\",\"1\",\"P\",\"J\",\"5\"
\"\",\"\",\"approach-retreat\",\"154\",\"1045589\",\"0.0-154.0\",\"\",\"\",\"1-1\",\"4352\",\"38\",\"1\",\"Testing\",\"Stims/Figures/144-C-30-3.bmp\",\"na:la:la\",\"Up\",\"38\",\"1\",\"6\",\"1\",\"S\",\"J\",\"6\"
\"\",\"\",\"approach-retreat\",\"155\",\"1052548\",\"0.0-155.0\",\"\",\"\",\"1-1\",\"5450\",\"39\",\"1\",\"Testing\",\"Stims/Figures/74-C-20-4.bmp\",\"na:la:la\",\"Right\",\"39\",\"1\",\"7\",\"1\",\"S\",\"J\",\"7\"
\"\",\"\",\"approach-retreat\",\"156\",\"1058338\",\"0.0-156.0\",\"\",\"\",\"1-1\",\"4267\",\"39\",\"1\",\"Testing\",\"Stims/Figures/118-C-20-2.bmp\",\"na:la:la\",\"Right\",\"39\",\"1\",\"8\",\"1\",\"S\",\"J\",\"8\"
\"\",\"\",\"approach-retreat\",\"157\",\"1064079\",\"0.0-157.0\",\"\",\"\",\"1-1\",\"4218\",\"39\",\"1\",\"Testing\",\"Stims/Figures/139-C-20-2.bmp\",\"na:la:la\",\"Right\",\"39\",\"1\",\"9\",\"1\",\"S\",\"J\",\"9\"
\"\",\"\",\"approach-retreat\",\"158\",\"1069787\",\"0.0-158.0\",\"\",\"\",\"1-1\",\"4196\",\"38\",\"1\",\"Testing\",\"Stims/Figures/118-J-0-2.bmp\",\"ta:paka\",\"Down\",\"38\",\"1\",\"10\",\"1\",\"P\",\"J\",\"10\"
\"\",\"\",\"approach-retreat\",\"159\",\"1075577\",\"0.0-159.0\",\"\",\"\",\"1-1\",\"4283\",\"40\",\"1\",\"Testing\",\"Stims/Figures/100-J-10-3.bmp\",\"ta:paka\",\"Up\",\"40\",\"1\",\"11\",\"1\",\"P\",\"J\",\"11\"
\"\",\"\",\"approach-retreat\",\"160\",\"1081359\",\"0.0-160.0\",\"\",\"\",\"1-1\",\"4271\",\"37\",\"1\",\"Testing\",\"Stims/Figures/71-J-0-1.bmp\",\"ta:paka\",\"Right\",\"37\",\"1\",\"12\",\"1\",\"P\",\"J\",\"12\"
\"\",\"\",\"approach-retreat\",\"161\",\"1088713\",\"0.0-161.0\",\"\",\"\",\"1-1\",\"5831\",\"40\",\"1\",\"Testing\",\"Stims/Figures/7-C-20-4.bmp\",\"na:la:la\",\"Down\",\"40\",\"1\",\"13\",\"1\",\"S\",\"J\",\"13\"
\"\",\"\",\"approach-retreat\",\"162\",\"1095322\",\"0.0-162.0\",\"\",\"\",\"1-1\",\"5095\",\"37\",\"1\",\"Testing\",\"Stims/Figures/86-J-0-1.bmp\",\"ta:paka\",\"Right\",\"37\",\"1\",\"14\",\"1\",\"P\",\"J\",\"14\"
\"\",\"\",\"approach-retreat\",\"163\",\"1103823\",\"0.0-163.0\",\"\",\"\",\"1-1\",\"6989\",\"40\",\"1\",\"Testing\",\"Stims/Figures/19-J-10-4.bmp\",\"ta:paka\",\"Up\",\"40\",\"1\",\"15\",\"1\",\"P\",\"J\",\"15\"
\"\",\"\",\"approach-retreat\",\"164\",\"1110850\",\"0.0-164.0\",\"\",\"\",\"1-1\",\"5518\",\"37\",\"1\",\"Testing\",\"Stims/Figures/86-C-30-1.bmp\",\"na:la:la\",\"Left\",\"37\",\"1\",\"16\",\"1\",\"S\",\"J\",\"16\"
\"\",\"\",\"approach-retreat\",\"165\",\"1116723\",\"0.0-165.0\",\"\",\"\",\"1-1\",\"4356\",\"38\",\"1\",\"Testing\",\"Stims/Figures/74-J-10-4.bmp\",\"ta:paka\",\"Down\",\"38\",\"1\",\"17\",\"1\",\"P\",\"J\",\"17\"
\"\",\"\",\"approach-retreat\",\"166\",\"1122515\",\"0.0-166.0\",\"\",\"\",\"1-1\",\"4273\",\"38\",\"1\",\"Testing\",\"Stims/Figures/100-C-30-3.bmp\",\"na:la:la\",\"Up\",\"38\",\"1\",\"18\",\"1\",\"S\",\"J\",\"18\"
\"\",\"\",\"approach-retreat\",\"167\",\"1128673\",\"0.0-167.0\",\"\",\"\",\"1-1\",\"4634\",\"40\",\"1\",\"Testing\",\"Stims/Figures/19-C-20-4.bmp\",\"na:la:la\",\"Down\",\"40\",\"1\",\"19\",\"1\",\"S\",\"J\",\"19\"
\"\",\"\",\"approach-retreat\",\"168\",\"1134334\",\"0.0-168.0\",\"\",\"\",\"1-1\",\"4142\",\"38\",\"1\",\"Testing\",\"Stims/Figures/7-J-10-4.bmp\",\"ta:paka\",\"Down\",\"38\",\"1\",\"20\",\"1\",\"P\",\"J\",\"20\"
\"\",\"\",\"approach-retreat\",\"169\",\"1140092\",\"0.0-169.0\",\"\",\"\",\"1-1\",\"4238\",\"39\",\"1\",\"Testing\",\"Stims/Figures/111-J-10-3.bmp\",\"ta:paka\",\"Left\",\"39\",\"1\",\"21\",\"1\",\"P\",\"J\",\"21\"
\"\",\"\",\"approach-retreat\",\"170\",\"1145700\",\"0.0-170.0\",\"\",\"\",\"1-1\",\"4092\",\"39\",\"1\",\"Testing\",\"Stims/Figures/144-J-10-3.bmp\",\"ta:paka\",\"Left\",\"39\",\"1\",\"22\",\"1\",\"P\",\"J\",\"22\"
\"\",\"\",\"approach-retreat\",\"171\",\"1151857\",\"0.0-171.0\",\"\",\"\",\"1-1\",\"4647\",\"38\",\"1\",\"Testing\",\"Stims/Figures/139-J-0-2.bmp\",\"ta:paka\",\"Down\",\"38\",\"1\",\"23\",\"1\",\"P\",\"J\",\"23\"
\"\",\"\",\"approach-retreat\",\"172\",\"1159322\",\"0.0-172.0\",\"\",\"\",\"1-1\",\"5940\",\"38\",\"1\",\"Testing\",\"Stims/Figures/111-C-30-3.bmp\",\"na:la:la\",\"Up\",\"38\",\"1\",\"24\",\"1\",\"S\",\"J\",\"24\"
\"\",\"\",\"approach-retreat\",\"173\",\"1167585\",\"0.0-173.0\",\"\",\"\",\"1-1\",\"6750\",\"40\",\"1\",\"Testing\",\"Stims/Figures/19-J-10-4.bmp\",\"ta:paka\",\"Up\",\"40\",\"2\",\"1\",\"1\",\"P\",\"J\",\"25\"
\"\",\"\",\"approach-retreat\",\"174\",\"1173659\",\"0.0-174.0\",\"\",\"\",\"1-1\",\"4555\",\"39\",\"1\",\"Testing\",\"Stims/Figures/100-C-30-3.bmp\",\"na:la:la\",\"Right\",\"39\",\"2\",\"2\",\"1\",\"S\",\"J\",\"26\"
\"\",\"\",\"approach-retreat\",\"175\",\"1182659\",\"0.0-175.0\",\"\",\"\",\"1-1\",\"7490\",\"40\",\"1\",\"Testing\",\"Stims/Figures/93-C-30-1.bmp\",\"na:la:la\",\"Down\",\"40\",\"2\",\"3\",\"1\",\"S\",\"J\",\"27\"
\"\",\"\",\"approach-retreat\",\"176\",\"1193669\",\"0.0-176.0\",\"\",\"\",\"1-1\",\"9489\",\"40\",\"1\",\"Testing\",\"Stims/Figures/118-C-20-2.bmp\",\"na:la:la\",\"Down\",\"40\",\"2\",\"4\",\"1\",\"S\",\"J\",\"28\"
\"\",\"\",\"approach-retreat\",\"177\",\"1199311\",\"0.0-177.0\",\"\",\"\",\"1-1\",\"4118\",\"40\",\"1\",\"Testing\",\"Stims/Figures/93-J-0-1.bmp\",\"ta:paka\",\"Up\",\"40\",\"2\",\"5\",\"1\",\"P\",\"J\",\"29\"
\"\",\"\",\"approach-retreat\",\"178\",\"1206743\",\"0.0-178.0\",\"\",\"\",\"1-1\",\"5917\",\"40\",\"1\",\"Testing\",\"Stims/Figures/144-C-30-3.bmp\",\"na:la:la\",\"Down\",\"40\",\"2\",\"6\",\"1\",\"S\",\"J\",\"30\"
\"\",\"\",\"approach-retreat\",\"179\",\"1217668\",\"0.0-179.0\",\"\",\"\",\"1-1\",\"9411\",\"37\",\"1\",\"Testing\",\"Stims/Figures/71-C-30-1.bmp\",\"na:la:la\",\"Left\",\"37\",\"2\",\"7\",\"1\",\"S\",\"J\",\"31\"
\"\",\"\",\"approach-retreat\",\"180\",\"1223673\",\"0.0-180.0\",\"\",\"\",\"1-1\",\"4488\",\"39\",\"1\",\"Testing\",\"Stims/Figures/144-J-10-3.bmp\",\"ta:paka\",\"Left\",\"39\",\"2\",\"8\",\"1\",\"P\",\"J\",\"32\"
\"\",\"\",\"approach-retreat\",\"181\",\"1230826\",\"0.0-181.0\",\"\",\"\",\"1-1\",\"5629\",\"38\",\"0\",\"Testing\",\"Stims/Figures/139-C-20-2.bmp\",\"na:la:la\",\"Down\",\"40\",\"2\",\"9\",\"1\",\"S\",\"J\",\"33\"
\"\",\"\",\"approach-retreat\",\"182\",\"1236451\",\"0.0-182.0\",\"\",\"\",\"1-1\",\"4105\",\"39\",\"1\",\"Testing\",\"Stims/Figures/94-J-0-2.bmp\",\"ta:paka\",\"Left\",\"39\",\"2\",\"10\",\"1\",\"P\",\"J\",\"34\"
\"\",\"\",\"approach-retreat\",\"183\",\"1242016\",\"0.0-183.0\",\"\",\"\",\"1-1\",\"4050\",\"39\",\"1\",\"Testing\",\"Stims/Figures/111-C-30-3.bmp\",\"na:la:la\",\"Right\",\"39\",\"2\",\"11\",\"1\",\"S\",\"J\",\"35\"
\"\",\"\",\"approach-retreat\",\"184\",\"1252289\",\"0.0-184.0\",\"\",\"\",\"1-1\",\"8750\",\"40\",\"1\",\"Testing\",\"Stims/Figures/19-C-20-4.bmp\",\"na:la:la\",\"Down\",\"40\",\"2\",\"12\",\"1\",\"S\",\"J\",\"36\"
\"\",\"\",\"approach-retreat\",\"185\",\"1263054\",\"0.0-185.0\",\"\",\"\",\"1-1\",\"9254\",\"37\",\"1\",\"Testing\",\"Stims/Figures/7-J-10-4.bmp\",\"ta:paka\",\"Right\",\"37\",\"2\",\"13\",\"1\",\"P\",\"J\",\"37\"
\"\",\"\",\"approach-retreat\",\"186\",\"1268641\",\"0.0-186.0\",\"\",\"\",\"1-1\",\"4077\",\"37\",\"1\",\"Testing\",\"Stims/Figures/139-J-0-2.bmp\",\"ta:paka\",\"Right\",\"37\",\"2\",\"14\",\"1\",\"P\",\"J\",\"38\"
\"\",\"\",\"approach-retreat\",\"187\",\"1275454\",\"0.0-187.0\",\"\",\"\",\"1-1\",\"5292\",\"40\",\"1\",\"Testing\",\"Stims/Figures/71-J-0-1.bmp\",\"ta:paka\",\"Up\",\"40\",\"2\",\"15\",\"1\",\"P\",\"J\",\"39\"
\"\",\"\",\"approach-retreat\",\"188\",\"1281180\",\"0.0-188.0\",\"\",\"\",\"1-1\",\"4203\",\"37\",\"1\",\"Testing\",\"Stims/Figures/111-J-10-3.bmp\",\"ta:paka\",\"Right\",\"37\",\"2\",\"16\",\"1\",\"P\",\"J\",\"40\"
\"\",\"\",\"approach-retreat\",\"189\",\"1291917\",\"0.0-189.0\",\"\",\"\",\"1-1\",\"9222\",\"39\",\"1\",\"Testing\",\"Stims/Figures/74-C-20-4.bmp\",\"na:la:la\",\"Right\",\"39\",\"2\",\"17\",\"1\",\"S\",\"J\",\"41\"
\"\",\"\",\"approach-retreat\",\"190\",\"1299200\",\"0.0-190.0\",\"\",\"\",\"1-1\",\"5762\",\"39\",\"1\",\"Testing\",\"Stims/Figures/118-J-0-2.bmp\",\"ta:paka\",\"Left\",\"39\",\"2\",\"18\",\"1\",\"P\",\"J\",\"42\"
\"\",\"\",\"approach-retreat\",\"191\",\"1304836\",\"0.0-191.0\",\"\",\"\",\"1-1\",\"4123\",\"37\",\"1\",\"Testing\",\"Stims/Figures/7-C-20-4.bmp\",\"na:la:la\",\"Left\",\"37\",\"2\",\"19\",\"1\",\"S\",\"J\",\"43\"
\"\",\"\",\"approach-retreat\",\"192\",\"1310529\",\"0.0-192.0\",\"\",\"\",\"1-1\",\"4177\",\"38\",\"1\",\"Testing\",\"Stims/Figures/86-C-30-1.bmp\",\"na:la:la\",\"Up\",\"38\",\"2\",\"20\",\"1\",\"S\",\"J\",\"44\"
\"\",\"\",\"approach-retreat\",\"193\",\"1317453\",\"0.0-193.0\",\"\",\"\",\"1-1\",\"5412\",\"38\",\"1\",\"Testing\",\"Stims/Figures/94-C-20-2.bmp\",\"na:la:la\",\"Up\",\"38\",\"2\",\"21\",\"1\",\"S\",\"J\",\"45\"
\"\",\"\",\"approach-retreat\",\"194\",\"1327098\",\"0.0-194.0\",\"\",\"\",\"1-1\",\"8130\",\"38\",\"1\",\"Testing\",\"Stims/Figures/100-J-10-3.bmp\",\"ta:paka\",\"Down\",\"38\",\"2\",\"22\",\"1\",\"P\",\"J\",\"46\"
\"\",\"\",\"approach-retreat\",\"195\",\"1334307\",\"0.0-195.0\",\"\",\"\",\"1-1\",\"5689\",\"39\",\"1\",\"Testing\",\"Stims/Figures/74-J-10-4.bmp\",\"ta:paka\",\"Left\",\"39\",\"2\",\"23\",\"1\",\"P\",\"J\",\"47\"
\"\",\"\",\"approach-retreat\",\"196\",\"1340554\",\"0.0-196.0\",\"\",\"\",\"1-1\",\"4724\",\"40\",\"1\",\"Testing\",\"Stims/Figures/86-J-0-1.bmp\",\"ta:paka\",\"Up\",\"40\",\"2\",\"24\",\"1\",\"P\",\"J\",\"48\"
\"\",\"\",\"approach-retreat\",\"197\",\"1348819\",\"0.0-197.0\",\"\",\"\",\"1-1\",\"6743\",\"37\",\"0\",\"Testing\",\"Stims/Figures/111-C-30-3.bmp\",\"na:la:la\",\"Right\",\"39\",\"3\",\"1\",\"1\",\"S\",\"J\",\"49\"
\"\",\"\",\"approach-retreat\",\"198\",\"1355211\",\"0.0-198.0\",\"\",\"\",\"1-1\",\"4880\",\"40\",\"0\",\"Testing\",\"Stims/Figures/19-C-20-4.bmp\",\"na:la:la\",\"Up\",\"38\",\"3\",\"2\",\"1\",\"S\",\"J\",\"50\"
\"\",\"\",\"approach-retreat\",\"199\",\"1361168\",\"0.0-199.0\",\"\",\"\",\"1-1\",\"4436\",\"37\",\"1\",\"Testing\",\"Stims/Figures/144-J-10-3.bmp\",\"ta:paka\",\"Right\",\"37\",\"3\",\"3\",\"1\",\"P\",\"J\",\"51\"
\"\",\"\",\"approach-retreat\",\"200\",\"1367140\",\"0.0-200.0\",\"\",\"\",\"1-1\",\"4456\",\"40\",\"1\",\"Testing\",\"Stims/Figures/94-J-0-2.bmp\",\"ta:paka\",\"Up\",\"40\",\"3\",\"4\",\"1\",\"P\",\"J\",\"52\"
\"\",\"\",\"approach-retreat\",\"201\",\"1373754\",\"0.0-201.0\",\"\",\"\",\"1-1\",\"5102\",\"37\",\"1\",\"Testing\",\"Stims/Figures/94-C-20-2.bmp\",\"na:la:la\",\"Left\",\"37\",\"3\",\"5\",\"1\",\"S\",\"J\",\"53\"
\"\",\"\",\"approach-retreat\",\"202\",\"1379496\",\"0.0-202.0\",\"\",\"\",\"1-1\",\"4228\",\"38\",\"1\",\"Testing\",\"Stims/Figures/86-C-30-1.bmp\",\"na:la:la\",\"Up\",\"38\",\"3\",\"6\",\"1\",\"S\",\"J\",\"54\"
\"\",\"\",\"approach-retreat\",\"203\",\"1385385\",\"0.0-203.0\",\"\",\"\",\"1-1\",\"4367\",\"39\",\"1\",\"Testing\",\"Stims/Figures/71-J-0-1.bmp\",\"ta:paka\",\"Left\",\"39\",\"3\",\"7\",\"1\",\"P\",\"J\",\"55\"
\"\",\"\",\"approach-retreat\",\"204\",\"1393312\",\"0.0-204.0\",\"\",\"\",\"1-1\",\"6406\",\"38\",\"1\",\"Testing\",\"Stims/Figures/111-J-10-3.bmp\",\"ta:paka\",\"Down\",\"38\",\"3\",\"8\",\"1\",\"P\",\"J\",\"56\"
\"\",\"\",\"approach-retreat\",\"205\",\"1399904\",\"0.0-205.0\",\"\",\"\",\"1-1\",\"5072\",\"40\",\"1\",\"Testing\",\"Stims/Figures/7-J-10-4.bmp\",\"ta:paka\",\"Up\",\"40\",\"3\",\"9\",\"1\",\"P\",\"J\",\"57\"
\"\",\"\",\"approach-retreat\",\"206\",\"1405837\",\"0.0-206.0\",\"\",\"\",\"1-1\",\"4417\",\"37\",\"1\",\"Testing\",\"Stims/Figures/139-C-20-2.bmp\",\"na:la:la\",\"Left\",\"37\",\"3\",\"10\",\"1\",\"S\",\"J\",\"58\"
\"\",\"\",\"approach-retreat\",\"207\",\"1414046\",\"0.0-207.0\",\"\",\"\",\"1-1\",\"6688\",\"38\",\"1\",\"Testing\",\"Stims/Figures/86-J-0-1.bmp\",\"ta:paka\",\"Down\",\"38\",\"3\",\"11\",\"1\",\"P\",\"J\",\"59\"
\"\",\"\",\"approach-retreat\",\"208\",\"1420373\",\"0.0-208.0\",\"\",\"\",\"1-1\",\"4812\",\"40\",\"1\",\"Testing\",\"Stims/Figures/144-C-30-3.bmp\",\"na:la:la\",\"Down\",\"40\",\"3\",\"12\",\"1\",\"S\",\"J\",\"60\"
\"\",\"\",\"approach-retreat\",\"209\",\"1426331\",\"0.0-209.0\",\"\",\"\",\"1-1\",\"4437\",\"39\",\"1\",\"Testing\",\"Stims/Figures/71-C-30-1.bmp\",\"na:la:la\",\"Right\",\"39\",\"3\",\"13\",\"1\",\"S\",\"J\",\"61\"
\"\",\"\",\"approach-retreat\",\"210\",\"1432391\",\"0.0-210.0\",\"\",\"\",\"1-1\",\"4542\",\"39\",\"1\",\"Testing\",\"Stims/Figures/74-J-10-4.bmp\",\"ta:paka\",\"Left\",\"39\",\"3\",\"14\",\"1\",\"P\",\"J\",\"62\"
\"\",\"\",\"approach-retreat\",\"211\",\"1438831\",\"0.0-211.0\",\"\",\"\",\"1-1\",\"4916\",\"38\",\"1\",\"Testing\",\"Stims/Figures/100-C-30-3.bmp\",\"na:la:la\",\"Up\",\"38\",\"3\",\"15\",\"1\",\"S\",\"J\",\"63\"
\"\",\"\",\"approach-retreat\",\"212\",\"1446510\",\"0.0-212.0\",\"\",\"\",\"1-1\",\"6159\",\"39\",\"1\",\"Testing\",\"Stims/Figures/93-J-0-1.bmp\",\"ta:paka\",\"Left\",\"39\",\"3\",\"16\",\"1\",\"P\",\"J\",\"64\"
\"\",\"\",\"approach-retreat\",\"213\",\"1453986\",\"0.0-213.0\",\"\",\"\",\"1-1\",\"5966\",\"38\",\"1\",\"Testing\",\"Stims/Figures/139-J-0-2.bmp\",\"ta:paka\",\"Down\",\"38\",\"3\",\"17\",\"1\",\"P\",\"J\",\"65\"
\"\",\"\",\"approach-retreat\",\"214\",\"1459846\",\"0.0-214.0\",\"\",\"\",\"1-1\",\"4346\",\"39\",\"0\",\"Testing\",\"Stims/Figures/118-C-20-2.bmp\",\"na:la:la\",\"Left\",\"37\",\"3\",\"18\",\"1\",\"S\",\"J\",\"66\"
\"\",\"\",\"approach-retreat\",\"215\",\"1466019\",\"0.0-215.0\",\"\",\"\",\"1-1\",\"4661\",\"37\",\"1\",\"Testing\",\"Stims/Figures/118-J-0-2.bmp\",\"ta:paka\",\"Right\",\"37\",\"3\",\"19\",\"1\",\"P\",\"J\",\"67\"
\"\",\"\",\"approach-retreat\",\"216\",\"1472194\",\"0.0-216.0\",\"\",\"\",\"1-1\",\"4662\",\"40\",\"1\",\"Testing\",\"Stims/Figures/74-C-20-4.bmp\",\"na:la:la\",\"Down\",\"40\",\"3\",\"20\",\"1\",\"S\",\"J\",\"68\"
\"\",\"\",\"approach-retreat\",\"217\",\"1477818\",\"0.0-217.0\",\"\",\"\",\"1-1\",\"4102\",\"38\",\"1\",\"Testing\",\"Stims/Figures/100-J-10-3.bmp\",\"ta:paka\",\"Down\",\"38\",\"3\",\"21\",\"1\",\"P\",\"J\",\"69\"
\"\",\"\",\"approach-retreat\",\"218\",\"1484776\",\"0.0-218.0\",\"\",\"\",\"1-1\",\"5438\",\"39\",\"1\",\"Testing\",\"Stims/Figures/93-C-30-1.bmp\",\"na:la:la\",\"Right\",\"39\",\"3\",\"22\",\"1\",\"S\",\"J\",\"70\"
\"\",\"\",\"approach-retreat\",\"219\",\"1492621\",\"0.0-219.0\",\"\",\"\",\"1-1\",\"6330\",\"37\",\"1\",\"Testing\",\"Stims/Figures/19-J-10-4.bmp\",\"ta:paka\",\"Right\",\"37\",\"3\",\"23\",\"1\",\"P\",\"J\",\"71\"
\"\",\"\",\"approach-retreat\",\"220\",\"1498831\",\"0.0-220.0\",\"\",\"\",\"1-1\",\"4698\",\"38\",\"1\",\"Testing\",\"Stims/Figures/7-C-20-4.bmp\",\"na:la:la\",\"Up\",\"38\",\"3\",\"24\",\"1\",\"S\",\"J\",\"72\"
\"\",\"\",\"approach-retreat\",\"221\",\"1504540\",\"0.0-221.0\",\"\",\"\",\"1-1\",\"4185\",\"38\",\"1\",\"Testing\",\"Stims/Figures/139-C-20-2.bmp\",\"na:la:la\",\"Up\",\"38\",\"4\",\"1\",\"1\",\"S\",\"J\",\"73\"
\"\",\"\",\"approach-retreat\",\"222\",\"1511900\",\"0.0-222.0\",\"\",\"\",\"1-1\",\"5846\",\"37\",\"1\",\"Testing\",\"Stims/Figures/144-J-10-3.bmp\",\"ta:paka\",\"Right\",\"37\",\"4\",\"2\",\"1\",\"P\",\"J\",\"74\"
\"\",\"\",\"approach-retreat\",\"223\",\"1518024\",\"0.0-223.0\",\"\",\"\",\"1-1\",\"4613\",\"37\",\"1\",\"Testing\",\"Stims/Figures/74-C-20-4.bmp\",\"na:la:la\",\"Left\",\"37\",\"4\",\"3\",\"1\",\"S\",\"J\",\"75\"
\"\",\"\",\"approach-retreat\",\"224\",\"1524270\",\"0.0-224.0\",\"\",\"\",\"1-1\",\"4729\",\"39\",\"1\",\"Testing\",\"Stims/Figures/118-J-0-2.bmp\",\"ta:paka\",\"Left\",\"39\",\"4\",\"4\",\"1\",\"P\",\"J\",\"76\"
\"\",\"\",\"approach-retreat\",\"225\",\"1530386\",\"0.0-225.0\",\"\",\"\",\"1-1\",\"4606\",\"39\",\"1\",\"Testing\",\"Stims/Figures/86-J-0-1.bmp\",\"ta:paka\",\"Left\",\"39\",\"4\",\"5\",\"1\",\"P\",\"J\",\"77\"
\"\",\"\",\"approach-retreat\",\"226\",\"1536111\",\"0.0-226.0\",\"\",\"\",\"1-1\",\"4204\",\"38\",\"1\",\"Testing\",\"Stims/Figures/71-C-30-1.bmp\",\"na:la:la\",\"Up\",\"38\",\"4\",\"6\",\"1\",\"S\",\"J\",\"78\"
\"\",\"\",\"approach-retreat\",\"227\",\"1541686\",\"0.0-227.0\",\"\",\"\",\"1-1\",\"4061\",\"37\",\"1\",\"Testing\",\"Stims/Figures/7-J-10-4.bmp\",\"ta:paka\",\"Right\",\"37\",\"4\",\"7\",\"1\",\"P\",\"J\",\"79\"
\"\",\"\",\"approach-retreat\",\"228\",\"1549244\",\"0.0-228.0\",\"\",\"\",\"1-1\",\"6049\",\"37\",\"1\",\"Testing\",\"Stims/Figures/144-C-30-3.bmp\",\"na:la:la\",\"Left\",\"37\",\"4\",\"8\",\"1\",\"S\",\"J\",\"80\"
\"\",\"\",\"approach-retreat\",\"229\",\"1554804\",\"0.0-229.0\",\"\",\"\",\"1-1\",\"4049\",\"38\",\"1\",\"Testing\",\"Stims/Figures/100-C-30-3.bmp\",\"na:la:la\",\"Up\",\"38\",\"4\",\"9\",\"1\",\"S\",\"J\",\"81\"
\"\",\"\",\"approach-retreat\",\"230\",\"1561329\",\"0.0-230.0\",\"\",\"\",\"1-1\",\"5014\",\"40\",\"1\",\"Testing\",\"Stims/Figures/111-C-30-3.bmp\",\"na:la:la\",\"Down\",\"40\",\"4\",\"10\",\"1\",\"S\",\"J\",\"82\"
\"\",\"\",\"approach-retreat\",\"231\",\"1568681\",\"0.0-231.0\",\"\",\"\",\"1-1\",\"5838\",\"37\",\"1\",\"Testing\",\"Stims/Figures/71-J-0-1.bmp\",\"ta:paka\",\"Right\",\"37\",\"4\",\"11\",\"1\",\"P\",\"J\",\"83\"
\"\",\"\",\"approach-retreat\",\"232\",\"1574598\",\"0.0-232.0\",\"\",\"\",\"1-1\",\"4408\",\"39\",\"1\",\"Testing\",\"Stims/Figures/19-C-20-4.bmp\",\"na:la:la\",\"Right\",\"39\",\"4\",\"12\",\"1\",\"S\",\"J\",\"84\"
\"\",\"\",\"approach-retreat\",\"233\",\"1580507\",\"0.0-233.0\",\"\",\"\",\"1-1\",\"4397\",\"37\",\"1\",\"Testing\",\"Stims/Figures/139-J-0-2.bmp\",\"ta:paka\",\"Right\",\"37\",\"4\",\"13\",\"1\",\"P\",\"J\",\"85\"
\"\",\"\",\"approach-retreat\",\"234\",\"1586284\",\"0.0-234.0\",\"\",\"\",\"1-1\",\"4256\",\"40\",\"1\",\"Testing\",\"Stims/Figures/94-J-0-2.bmp\",\"ta:paka\",\"Up\",\"40\",\"4\",\"14\",\"1\",\"P\",\"J\",\"86\"
\"\",\"\",\"approach-retreat\",\"235\",\"1594398\",\"0.0-235.0\",\"\",\"\",\"1-1\",\"6602\",\"40\",\"1\",\"Testing\",\"Stims/Figures/19-J-10-4.bmp\",\"ta:paka\",\"Up\",\"40\",\"4\",\"15\",\"1\",\"P\",\"J\",\"87\"
\"\",\"\",\"approach-retreat\",\"236\",\"1601290\",\"0.0-236.0\",\"\",\"\",\"1-1\",\"5384\",\"40\",\"1\",\"Testing\",\"Stims/Figures/7-C-20-4.bmp\",\"na:la:la\",\"Down\",\"40\",\"4\",\"16\",\"1\",\"S\",\"J\",\"88\"
\"\",\"\",\"approach-retreat\",\"237\",\"1607182\",\"0.0-237.0\",\"\",\"\",\"1-1\",\"4370\",\"38\",\"0\",\"Testing\",\"Stims/Figures/86-C-30-1.bmp\",\"na:la:la\",\"Down\",\"40\",\"4\",\"17\",\"1\",\"S\",\"J\",\"89\"
\"\",\"\",\"approach-retreat\",\"238\",\"1612775\",\"0.0-238.0\",\"\",\"\",\"1-1\",\"4076\",\"38\",\"1\",\"Testing\",\"Stims/Figures/111-J-10-3.bmp\",\"ta:paka\",\"Down\",\"38\",\"4\",\"18\",\"1\",\"P\",\"J\",\"90\"
\"\",\"\",\"approach-retreat\",\"239\",\"1618515\",\"0.0-239.0\",\"\",\"\",\"1-1\",\"4227\",\"37\",\"1\",\"Testing\",\"Stims/Figures/118-C-20-2.bmp\",\"na:la:la\",\"Left\",\"37\",\"4\",\"19\",\"1\",\"S\",\"J\",\"91\"
\"\",\"\",\"approach-retreat\",\"240\",\"1625342\",\"0.0-240.0\",\"\",\"\",\"1-1\",\"5309\",\"38\",\"1\",\"Testing\",\"Stims/Figures/74-J-10-4.bmp\",\"ta:paka\",\"Down\",\"38\",\"4\",\"20\",\"1\",\"P\",\"J\",\"92\"
\"\",\"\",\"approach-retreat\",\"241\",\"1631773\",\"0.0-241.0\",\"\",\"\",\"1-1\",\"4913\",\"37\",\"1\",\"Testing\",\"Stims/Figures/93-C-30-1.bmp\",\"na:la:la\",\"Left\",\"37\",\"4\",\"21\",\"1\",\"S\",\"J\",\"93\"
\"\",\"\",\"approach-retreat\",\"242\",\"1638041\",\"0.0-242.0\",\"\",\"\",\"1-1\",\"4744\",\"39\",\"1\",\"Testing\",\"Stims/Figures/94-C-20-2.bmp\",\"na:la:la\",\"Right\",\"39\",\"4\",\"22\",\"1\",\"S\",\"J\",\"94\"
\"\",\"\",\"approach-retreat\",\"243\",\"1645701\",\"0.0-243.0\",\"\",\"\",\"1-1\",\"6145\",\"38\",\"1\",\"Testing\",\"Stims/Figures/93-J-0-1.bmp\",\"ta:paka\",\"Down\",\"38\",\"4\",\"23\",\"1\",\"P\",\"J\",\"95\"
\"\",\"\",\"approach-retreat\",\"244\",\"1651984\",\"0.0-244.0\",\"\",\"\",\"1-1\",\"4768\",\"40\",\"1\",\"Testing\",\"Stims/Figures/100-J-10-3.bmp\",\"ta:paka\",\"Up\",\"40\",\"4\",\"24\",\"1\",\"P\",\"J\",\"96\"
\"22076\",\"\",\"survey-text\",\"245\",\"1674067\",\"0.0-245.0\",\"\",\"{\"\"Q0\"\":\"\"PS160001\"\"}\",\"\",\"\",\"\",\"\",\"\",\"\",\"\",\"\",\"\",\"\",\"\",\"\",\"\",\"\",\"\"
