\"rt\",\"key_press\",\"trial_type\",\"trial_index\",\"time_elapsed\",\"internal_node_id\",\"view_history\",\"responses\",\"Id\",\"Rt\",\"ResKeyCode\",\"ResCorr\",\"TrialType2\",\"Image\",\"Label\",\"Location\",\"CorrectResponse\",\"Block\",\"BlockTrial\",\"Condition\",\"LabelType\",\"Subcondition\",\"trialNum\"
\"31904\",\"32\",\"text\",\"0\",\"31907\",\"0.0-0.0-0.0\",\"\",\"\",\"\",\"\",\"\",\"\",\"\",\"\",\"\",\"\",\"\",\"\",\"\",\"\",\"\",\"\",\"\"
\"75096\",\"\",\"instructions\",\"1\",\"107003\",\"0.0-1.0\",\"[{\"\"page_index\"\":0,\"\"viewing_time\"\":75094}]\",\"\",\"\",\"\",\"\",\"\",\"\",\"\",\"\",\"\",\"\",\"\",\"\",\"\",\"\",\"\",\"\"
\"21206\",\"\",\"survey-multi-choice\",\"2\",\"128271\",\"0.0-2.0\",\"\",\"{\"\"Q0\"\":\"\"Da\"\",\"\"Q1\"\":\"\"Da\"\",\"\"Q2\"\":\"\"Da\"\",\"\"Q3\"\":\"\"Da\"\",\"\"Q4\"\":\"\"Da\"\",\"\"Q5\"\":\"\"Da\"\"}\",\"\",\"\",\"\",\"\",\"\",\"\",\"\",\"\",\"\",\"\",\"\",\"\",\"\",\"\",\"\"
\"\",\"\",\"bio\",\"3\",\"141151\",\"0.0-3.0\",\"\",\"{\"\"age\"\":\"\"20\"\",\"\"gender\"\":\"\"f\"\",\"\"specify\"\":\"\"\"\"}\",\"\",\"\",\"\",\"\",\"\",\"\",\"\",\"\",\"\",\"\",\"\",\"\",\"\",\"\",\"\"
\"\",\"\",\"approach-retreat\",\"4\",\"148239\",\"0.0-4.0\",\"\",\"\",\"3-5\",\"5566\",\"39\",\"0\",\"Training\",\"Stims/Figures/102-J-10-4.bmp\",\"sa:saza\",\"Right\",\"37\",\"1\",\"1\",\"8\",\"C2\",\"J\",\"1\"
\"\",\"\",\"approach-retreat\",\"5\",\"154560\",\"0.0-5.0\",\"\",\"\",\"3-5\",\"4803\",\"37\",\"1\",\"Training\",\"Stims/Figures/128-C-30-3.bmp\",\"za:ha:za\",\"Left\",\"37\",\"1\",\"2\",\"8\",\"C2\",\"J\",\"2\"
\"\",\"\",\"approach-retreat\",\"6\",\"161103\",\"0.0-6.0\",\"\",\"\",\"3-5\",\"5027\",\"38\",\"1\",\"Training\",\"Stims/Figures/118-C-20-2.bmp\",\"fa:sha:va\",\"Up\",\"38\",\"1\",\"3\",\"8\",\"C1\",\"J\",\"3\"
\"\",\"\",\"approach-retreat\",\"7\",\"167008\",\"0.0-7.0\",\"\",\"\",\"3-5\",\"4389\",\"38\",\"0\",\"Training\",\"Stims/Figures/100-J-10-3.bmp\",\"sahaha\",\"Up\",\"40\",\"1\",\"4\",\"8\",\"C2\",\"J\",\"4\"
\"\",\"\",\"approach-retreat\",\"8\",\"172696\",\"0.0-8.0\",\"\",\"\",\"3-5\",\"4167\",\"37\",\"0\",\"Training\",\"Stims/Figures/93-J-0-1.bmp\",\"fa:shasha\",\"Left\",\"39\",\"1\",\"5\",\"8\",\"C1\",\"J\",\"5\"
\"\",\"\",\"approach-retreat\",\"9\",\"179063\",\"0.0-9.0\",\"\",\"\",\"3-5\",\"4851\",\"38\",\"0\",\"Training\",\"Stims/Figures/71-J-0-1.bmp\",\"va:shasha\",\"Up\",\"40\",\"1\",\"6\",\"8\",\"C1\",\"J\",\"6\"
\"\",\"\",\"approach-retreat\",\"10\",\"185113\",\"0.0-10.0\",\"\",\"\",\"3-5\",\"4536\",\"37\",\"1\",\"Training\",\"Stims/Figures/118-J-0-2.bmp\",\"fa:fa:sha\",\"Right\",\"37\",\"1\",\"7\",\"8\",\"C1\",\"J\",\"7\"
\"\",\"\",\"approach-retreat\",\"11\",\"191172\",\"0.0-11.0\",\"\",\"\",\"3-5\",\"4546\",\"39\",\"0\",\"Training\",\"Stims/Figures/85-C-20-2.bmp\",\"va:sha:sha\",\"Left\",\"37\",\"1\",\"8\",\"8\",\"C1\",\"J\",\"8\"
\"\",\"\",\"approach-retreat\",\"12\",\"197677\",\"0.0-12.0\",\"\",\"\",\"3-5\",\"4989\",\"37\",\"1\",\"Training\",\"Stims/Figures/102-C-20-4.bmp\",\"za:saza\",\"Left\",\"37\",\"1\",\"9\",\"8\",\"C2\",\"J\",\"9\"
\"\",\"\",\"approach-retreat\",\"13\",\"203578\",\"0.0-13.0\",\"\",\"\",\"3-5\",\"4387\",\"40\",\"0\",\"Training\",\"Stims/Figures/128-J-10-3.bmp\",\"sa:saha\",\"Down\",\"38\",\"1\",\"10\",\"8\",\"C2\",\"J\",\"10\"
\"\",\"\",\"approach-retreat\",\"14\",\"210575\",\"0.0-14.0\",\"\",\"\",\"3-5\",\"5482\",\"38\",\"1\",\"Training\",\"Stims/Figures/7-J-10-4.bmp\",\"za:ha:ha\",\"Down\",\"38\",\"1\",\"11\",\"8\",\"C2\",\"J\",\"11\"
\"\",\"\",\"approach-retreat\",\"15\",\"216579\",\"0.0-15.0\",\"\",\"\",\"3-5\",\"4489\",\"39\",\"1\",\"Training\",\"Stims/Figures/93-C-30-1.bmp\",\"fa:fasha\",\"Right\",\"39\",\"1\",\"12\",\"8\",\"C1\",\"J\",\"12\"
\"\",\"\",\"approach-retreat\",\"16\",\"223080\",\"0.0-16.0\",\"\",\"\",\"3-5\",\"4984\",\"40\",\"0\",\"Training\",\"Stims/Figures/100-C-30-3.bmp\",\"saha:ha\",\"Up\",\"38\",\"1\",\"13\",\"8\",\"C2\",\"J\",\"13\"
\"\",\"\",\"approach-retreat\",\"17\",\"246417\",\"0.0-17.0\",\"\",\"\",\"3-5\",\"21821\",\"40\",\"1\",\"Training\",\"Stims/Figures/71-C-30-1.bmp\",\"fasha:sha\",\"Down\",\"40\",\"1\",\"14\",\"8\",\"C1\",\"J\",\"14\"
\"\",\"\",\"approach-retreat\",\"18\",\"253061\",\"0.0-18.0\",\"\",\"\",\"3-5\",\"5127\",\"40\",\"1\",\"Training\",\"Stims/Figures/7-C-20-4.bmp\",\"sa:sa:za\",\"Down\",\"40\",\"1\",\"15\",\"8\",\"C2\",\"J\",\"15\"
\"\",\"\",\"approach-retreat\",\"19\",\"259301\",\"0.0-19.0\",\"\",\"\",\"3-5\",\"4726\",\"39\",\"0\",\"Training\",\"Stims/Figures/85-J-0-2.bmp\",\"fashava\",\"Right\",\"37\",\"1\",\"16\",\"8\",\"C1\",\"J\",\"16\"
\"\",\"\",\"approach-retreat\",\"20\",\"265386\",\"0.0-20.0\",\"\",\"\",\"3-5\",\"4570\",\"39\",\"1\",\"Training\",\"Stims/Figures/71-C-30-1.bmp\",\"fasha:sha\",\"Right\",\"39\",\"2\",\"1\",\"8\",\"C1\",\"J\",\"17\"
\"\",\"\",\"approach-retreat\",\"21\",\"271128\",\"0.0-21.0\",\"\",\"\",\"3-5\",\"4219\",\"40\",\"0\",\"Training\",\"Stims/Figures/93-J-0-1.bmp\",\"fa:shasha\",\"Down\",\"38\",\"2\",\"2\",\"8\",\"C1\",\"J\",\"18\"
\"\",\"\",\"approach-retreat\",\"22\",\"277185\",\"0.0-22.0\",\"\",\"\",\"3-5\",\"4539\",\"40\",\"1\",\"Training\",\"Stims/Figures/118-C-20-2.bmp\",\"fa:sha:va\",\"Down\",\"40\",\"2\",\"3\",\"8\",\"C1\",\"J\",\"19\"
\"\",\"\",\"approach-retreat\",\"23\",\"283003\",\"0.0-23.0\",\"\",\"\",\"3-5\",\"4302\",\"40\",\"0\",\"Training\",\"Stims/Figures/128-J-10-3.bmp\",\"sa:saha\",\"Down\",\"38\",\"2\",\"4\",\"8\",\"C2\",\"J\",\"20\"
\"\",\"\",\"approach-retreat\",\"24\",\"288743\",\"0.0-24.0\",\"\",\"\",\"3-5\",\"4227\",\"39\",\"0\",\"Training\",\"Stims/Figures/7-J-10-4.bmp\",\"za:ha:ha\",\"Right\",\"37\",\"2\",\"5\",\"8\",\"C2\",\"J\",\"21\"
\"\",\"\",\"approach-retreat\",\"25\",\"295145\",\"0.0-25.0\",\"\",\"\",\"3-5\",\"4887\",\"38\",\"0\",\"Training\",\"Stims/Figures/100-C-30-3.bmp\",\"saha:ha\",\"Down\",\"40\",\"2\",\"6\",\"8\",\"C2\",\"J\",\"22\"
\"\",\"\",\"approach-retreat\",\"26\",\"301271\",\"0.0-26.0\",\"\",\"\",\"3-5\",\"4611\",\"39\",\"0\",\"Training\",\"Stims/Figures/7-C-20-4.bmp\",\"sa:sa:za\",\"Left\",\"37\",\"2\",\"7\",\"8\",\"C2\",\"J\",\"23\"
\"\",\"\",\"approach-retreat\",\"27\",\"307041\",\"0.0-27.0\",\"\",\"\",\"3-5\",\"4254\",\"37\",\"0\",\"Training\",\"Stims/Figures/100-J-10-3.bmp\",\"sahaha\",\"Left\",\"39\",\"2\",\"8\",\"8\",\"C2\",\"J\",\"24\"
\"\",\"\",\"approach-retreat\",\"28\",\"312820\",\"0.0-28.0\",\"\",\"\",\"3-5\",\"4264\",\"37\",\"1\",\"Training\",\"Stims/Figures/85-J-0-2.bmp\",\"fashava\",\"Right\",\"37\",\"2\",\"9\",\"8\",\"C1\",\"J\",\"25\"
\"\",\"\",\"approach-retreat\",\"29\",\"318824\",\"0.0-29.0\",\"\",\"\",\"3-5\",\"4486\",\"38\",\"1\",\"Training\",\"Stims/Figures/128-C-30-3.bmp\",\"za:ha:za\",\"Up\",\"38\",\"2\",\"10\",\"8\",\"C2\",\"J\",\"26\"
\"\",\"\",\"approach-retreat\",\"30\",\"324561\",\"0.0-30.0\",\"\",\"\",\"3-5\",\"4222\",\"39\",\"1\",\"Training\",\"Stims/Figures/71-J-0-1.bmp\",\"va:shasha\",\"Left\",\"39\",\"2\",\"11\",\"8\",\"C1\",\"J\",\"27\"
\"\",\"\",\"approach-retreat\",\"31\",\"330782\",\"0.0-31.0\",\"\",\"\",\"3-5\",\"4706\",\"38\",\"1\",\"Training\",\"Stims/Figures/102-C-20-4.bmp\",\"za:saza\",\"Up\",\"38\",\"2\",\"12\",\"8\",\"C2\",\"J\",\"28\"
\"\",\"\",\"approach-retreat\",\"32\",\"336862\",\"0.0-32.0\",\"\",\"\",\"3-5\",\"4562\",\"39\",\"0\",\"Training\",\"Stims/Figures/102-J-10-4.bmp\",\"sa:saza\",\"Right\",\"37\",\"2\",\"13\",\"8\",\"C2\",\"J\",\"29\"
\"\",\"\",\"approach-retreat\",\"33\",\"344270\",\"0.0-33.0\",\"\",\"\",\"3-5\",\"5898\",\"38\",\"0\",\"Training\",\"Stims/Figures/118-J-0-2.bmp\",\"fa:fa:sha\",\"Up\",\"40\",\"2\",\"14\",\"8\",\"C1\",\"J\",\"30\"
\"\",\"\",\"approach-retreat\",\"34\",\"352200\",\"0.0-34.0\",\"\",\"\",\"3-5\",\"6415\",\"40\",\"0\",\"Training\",\"Stims/Figures/85-C-20-2.bmp\",\"va:sha:sha\",\"Up\",\"38\",\"2\",\"15\",\"8\",\"C1\",\"J\",\"31\"
\"\",\"\",\"approach-retreat\",\"35\",\"358120\",\"0.0-35.0\",\"\",\"\",\"3-5\",\"4403\",\"37\",\"1\",\"Training\",\"Stims/Figures/93-C-30-1.bmp\",\"fa:fasha\",\"Left\",\"37\",\"2\",\"16\",\"8\",\"C1\",\"J\",\"32\"
\"\",\"\",\"approach-retreat\",\"36\",\"363874\",\"0.0-36.0\",\"\",\"\",\"3-5\",\"4238\",\"39\",\"0\",\"Training\",\"Stims/Figures/85-C-20-2.bmp\",\"va:sha:sha\",\"Left\",\"37\",\"3\",\"1\",\"8\",\"C1\",\"J\",\"33\"
\"\",\"\",\"approach-retreat\",\"37\",\"370061\",\"0.0-37.0\",\"\",\"\",\"3-5\",\"4670\",\"37\",\"1\",\"Training\",\"Stims/Figures/93-C-30-1.bmp\",\"fa:fasha\",\"Left\",\"37\",\"3\",\"2\",\"8\",\"C1\",\"J\",\"34\"
\"\",\"\",\"approach-retreat\",\"38\",\"376100\",\"0.0-38.0\",\"\",\"\",\"3-5\",\"4522\",\"37\",\"1\",\"Training\",\"Stims/Figures/71-J-0-1.bmp\",\"va:shasha\",\"Right\",\"37\",\"3\",\"3\",\"8\",\"C1\",\"J\",\"35\"
\"\",\"\",\"approach-retreat\",\"39\",\"382002\",\"0.0-39.0\",\"\",\"\",\"3-5\",\"4386\",\"38\",\"0\",\"Training\",\"Stims/Figures/128-J-10-3.bmp\",\"sa:saha\",\"Up\",\"40\",\"3\",\"4\",\"8\",\"C2\",\"J\",\"36\"
\"\",\"\",\"approach-retreat\",\"40\",\"388037\",\"0.0-40.0\",\"\",\"\",\"3-5\",\"4520\",\"40\",\"1\",\"Training\",\"Stims/Figures/118-C-20-2.bmp\",\"fa:sha:va\",\"Down\",\"40\",\"3\",\"5\",\"8\",\"C1\",\"J\",\"37\"
\"\",\"\",\"approach-retreat\",\"41\",\"394045\",\"0.0-41.0\",\"\",\"\",\"3-5\",\"4492\",\"39\",\"1\",\"Training\",\"Stims/Figures/71-C-30-1.bmp\",\"fasha:sha\",\"Right\",\"39\",\"3\",\"6\",\"8\",\"C1\",\"J\",\"38\"
\"\",\"\",\"approach-retreat\",\"42\",\"399717\",\"0.0-42.0\",\"\",\"\",\"3-5\",\"4156\",\"40\",\"0\",\"Training\",\"Stims/Figures/118-J-0-2.bmp\",\"fa:fa:sha\",\"Down\",\"38\",\"3\",\"7\",\"8\",\"C1\",\"J\",\"39\"
\"\",\"\",\"approach-retreat\",\"43\",\"405714\",\"0.0-43.0\",\"\",\"\",\"3-5\",\"4482\",\"40\",\"0\",\"Training\",\"Stims/Figures/7-C-20-4.bmp\",\"sa:sa:za\",\"Up\",\"38\",\"3\",\"8\",\"8\",\"C2\",\"J\",\"40\"
\"\",\"\",\"approach-retreat\",\"44\",\"412012\",\"0.0-44.0\",\"\",\"\",\"3-5\",\"4784\",\"38\",\"1\",\"Training\",\"Stims/Figures/128-C-30-3.bmp\",\"za:ha:za\",\"Up\",\"38\",\"3\",\"9\",\"8\",\"C2\",\"J\",\"41\"
\"\",\"\",\"approach-retreat\",\"45\",\"418310\",\"0.0-45.0\",\"\",\"\",\"3-5\",\"4781\",\"40\",\"1\",\"Training\",\"Stims/Figures/100-C-30-3.bmp\",\"saha:ha\",\"Down\",\"40\",\"3\",\"10\",\"8\",\"C2\",\"J\",\"42\"
\"\",\"\",\"approach-retreat\",\"46\",\"424097\",\"0.0-46.0\",\"\",\"\",\"3-5\",\"4273\",\"38\",\"0\",\"Training\",\"Stims/Figures/7-J-10-4.bmp\",\"za:ha:ha\",\"Up\",\"40\",\"3\",\"11\",\"8\",\"C2\",\"J\",\"43\"
\"\",\"\",\"approach-retreat\",\"47\",\"430044\",\"0.0-47.0\",\"\",\"\",\"3-5\",\"4432\",\"40\",\"1\",\"Training\",\"Stims/Figures/102-C-20-4.bmp\",\"za:saza\",\"Down\",\"40\",\"3\",\"12\",\"8\",\"C2\",\"J\",\"44\"
\"\",\"\",\"approach-retreat\",\"48\",\"435752\",\"0.0-48.0\",\"\",\"\",\"3-5\",\"4192\",\"39\",\"0\",\"Training\",\"Stims/Figures/93-J-0-1.bmp\",\"fa:shasha\",\"Right\",\"37\",\"3\",\"13\",\"8\",\"C1\",\"J\",\"45\"
\"\",\"\",\"approach-retreat\",\"49\",\"442484\",\"0.0-49.0\",\"\",\"\",\"3-5\",\"5217\",\"37\",\"0\",\"Training\",\"Stims/Figures/102-J-10-4.bmp\",\"sa:saza\",\"Left\",\"39\",\"3\",\"14\",\"8\",\"C2\",\"J\",\"46\"
\"\",\"\",\"approach-retreat\",\"50\",\"448814\",\"0.0-50.0\",\"\",\"\",\"3-5\",\"4816\",\"39\",\"0\",\"Training\",\"Stims/Figures/100-J-10-3.bmp\",\"sahaha\",\"Right\",\"37\",\"3\",\"15\",\"8\",\"C2\",\"J\",\"47\"
\"\",\"\",\"approach-retreat\",\"51\",\"454403\",\"0.0-51.0\",\"\",\"\",\"3-5\",\"4074\",\"37\",\"0\",\"Training\",\"Stims/Figures/85-J-0-2.bmp\",\"fashava\",\"Left\",\"39\",\"3\",\"16\",\"8\",\"C1\",\"J\",\"48\"
\"\",\"\",\"approach-retreat\",\"52\",\"460306\",\"0.0-52.0\",\"\",\"\",\"3-5\",\"4388\",\"40\",\"0\",\"Training\",\"Stims/Figures/85-C-20-2.bmp\",\"va:sha:sha\",\"Up\",\"38\",\"4\",\"1\",\"8\",\"C1\",\"J\",\"49\"
\"\",\"\",\"approach-retreat\",\"53\",\"466414\",\"0.0-53.0\",\"\",\"\",\"3-5\",\"4594\",\"38\",\"0\",\"Training\",\"Stims/Figures/100-C-30-3.bmp\",\"saha:ha\",\"Down\",\"40\",\"4\",\"2\",\"8\",\"C2\",\"J\",\"50\"
\"\",\"\",\"approach-retreat\",\"54\",\"472148\",\"0.0-54.0\",\"\",\"\",\"3-5\",\"4216\",\"37\",\"0\",\"Training\",\"Stims/Figures/118-J-0-2.bmp\",\"fa:fa:sha\",\"Left\",\"39\",\"4\",\"3\",\"8\",\"C1\",\"J\",\"51\"
\"\",\"\",\"approach-retreat\",\"55\",\"478056\",\"0.0-55.0\",\"\",\"\",\"3-5\",\"4393\",\"39\",\"0\",\"Training\",\"Stims/Figures/71-J-0-1.bmp\",\"va:shasha\",\"Right\",\"37\",\"4\",\"4\",\"8\",\"C1\",\"J\",\"52\"
\"\",\"\",\"approach-retreat\",\"56\",\"484264\",\"0.0-56.0\",\"\",\"\",\"3-5\",\"4691\",\"37\",\"1\",\"Training\",\"Stims/Figures/128-C-30-3.bmp\",\"za:ha:za\",\"Left\",\"37\",\"4\",\"5\",\"8\",\"C2\",\"J\",\"53\"
\"\",\"\",\"approach-retreat\",\"57\",\"490158\",\"0.0-57.0\",\"\",\"\",\"3-5\",\"4380\",\"40\",\"0\",\"Training\",\"Stims/Figures/71-C-30-1.bmp\",\"fasha:sha\",\"Up\",\"38\",\"4\",\"6\",\"8\",\"C1\",\"J\",\"54\"
\"\",\"\",\"approach-retreat\",\"58\",\"495891\",\"0.0-58.0\",\"\",\"\",\"3-5\",\"4218\",\"38\",\"0\",\"Training\",\"Stims/Figures/102-C-20-4.bmp\",\"za:saza\",\"Down\",\"40\",\"4\",\"7\",\"8\",\"C2\",\"J\",\"55\"
\"\",\"\",\"approach-retreat\",\"59\",\"501615\",\"0.0-59.0\",\"\",\"\",\"3-5\",\"4209\",\"39\",\"1\",\"Training\",\"Stims/Figures/85-J-0-2.bmp\",\"fashava\",\"Left\",\"39\",\"4\",\"8\",\"8\",\"C1\",\"J\",\"56\"
\"\",\"\",\"approach-retreat\",\"60\",\"508266\",\"0.0-60.0\",\"\",\"\",\"3-5\",\"5135\",\"37\",\"0\",\"Training\",\"Stims/Figures/118-C-20-2.bmp\",\"fa:sha:va\",\"Right\",\"39\",\"4\",\"9\",\"8\",\"C1\",\"J\",\"57\"
\"\",\"\",\"approach-retreat\",\"61\",\"515096\",\"0.0-61.0\",\"\",\"\",\"3-5\",\"5314\",\"37\",\"1\",\"Training\",\"Stims/Figures/7-J-10-4.bmp\",\"za:ha:ha\",\"Right\",\"37\",\"4\",\"10\",\"8\",\"C2\",\"J\",\"58\"
\"\",\"\",\"approach-retreat\",\"62\",\"521139\",\"0.0-62.0\",\"\",\"\",\"3-5\",\"4526\",\"40\",\"0\",\"Training\",\"Stims/Figures/128-J-10-3.bmp\",\"sa:saha\",\"Down\",\"38\",\"4\",\"11\",\"8\",\"C2\",\"J\",\"59\"
\"\",\"\",\"approach-retreat\",\"63\",\"527021\",\"0.0-63.0\",\"\",\"\",\"3-5\",\"4367\",\"38\",\"0\",\"Training\",\"Stims/Figures/93-J-0-1.bmp\",\"fa:shasha\",\"Up\",\"40\",\"4\",\"12\",\"8\",\"C1\",\"J\",\"60\"
\"\",\"\",\"approach-retreat\",\"64\",\"532756\",\"0.0-64.0\",\"\",\"\",\"3-5\",\"4220\",\"40\",\"0\",\"Training\",\"Stims/Figures/93-C-30-1.bmp\",\"fa:fasha\",\"Up\",\"38\",\"4\",\"13\",\"8\",\"C1\",\"J\",\"61\"
\"\",\"\",\"approach-retreat\",\"65\",\"538436\",\"0.0-65.0\",\"\",\"\",\"3-5\",\"4165\",\"40\",\"0\",\"Training\",\"Stims/Figures/100-J-10-3.bmp\",\"sahaha\",\"Down\",\"38\",\"4\",\"14\",\"8\",\"C2\",\"J\",\"62\"
\"\",\"\",\"approach-retreat\",\"66\",\"544156\",\"0.0-66.0\",\"\",\"\",\"3-5\",\"4204\",\"37\",\"0\",\"Training\",\"Stims/Figures/7-C-20-4.bmp\",\"sa:sa:za\",\"Right\",\"39\",\"4\",\"15\",\"8\",\"C2\",\"J\",\"63\"
\"\",\"\",\"approach-retreat\",\"67\",\"550863\",\"0.0-67.0\",\"\",\"\",\"3-5\",\"5192\",\"39\",\"1\",\"Training\",\"Stims/Figures/102-J-10-4.bmp\",\"sa:saza\",\"Left\",\"39\",\"4\",\"16\",\"8\",\"C2\",\"J\",\"64\"
\"\",\"\",\"approach-retreat\",\"68\",\"557805\",\"0.0-68.0\",\"\",\"\",\"3-5\",\"5427\",\"37\",\"0\",\"Training\",\"Stims/Figures/100-J-10-3.bmp\",\"sahaha\",\"Left\",\"39\",\"5\",\"1\",\"8\",\"C2\",\"J\",\"65\"
\"\",\"\",\"approach-retreat\",\"69\",\"563573\",\"0.0-69.0\",\"\",\"\",\"3-5\",\"4253\",\"39\",\"0\",\"Training\",\"Stims/Figures/71-C-30-1.bmp\",\"fasha:sha\",\"Left\",\"37\",\"5\",\"2\",\"8\",\"C1\",\"J\",\"66\"
\"\",\"\",\"approach-retreat\",\"70\",\"570310\",\"0.0-70.0\",\"\",\"\",\"3-5\",\"5220\",\"40\",\"1\",\"Training\",\"Stims/Figures/102-C-20-4.bmp\",\"za:saza\",\"Down\",\"40\",\"5\",\"3\",\"8\",\"C2\",\"J\",\"67\"
\"\",\"\",\"approach-retreat\",\"71\",\"576349\",\"0.0-71.0\",\"\",\"\",\"3-5\",\"4521\",\"39\",\"1\",\"Training\",\"Stims/Figures/71-J-0-1.bmp\",\"va:shasha\",\"Left\",\"39\",\"5\",\"4\",\"8\",\"C1\",\"J\",\"68\"
\"\",\"\",\"approach-retreat\",\"72\",\"582137\",\"0.0-72.0\",\"\",\"\",\"3-5\",\"4272\",\"38\",\"0\",\"Training\",\"Stims/Figures/118-J-0-2.bmp\",\"fa:fa:sha\",\"Up\",\"40\",\"5\",\"5\",\"8\",\"C1\",\"J\",\"69\"
\"\",\"\",\"approach-retreat\",\"73\",\"588100\",\"0.0-73.0\",\"\",\"\",\"3-5\",\"4448\",\"39\",\"1\",\"Training\",\"Stims/Figures/85-C-20-2.bmp\",\"va:sha:sha\",\"Right\",\"39\",\"5\",\"6\",\"8\",\"C1\",\"J\",\"70\"
\"\",\"\",\"approach-retreat\",\"74\",\"593825\",\"0.0-74.0\",\"\",\"\",\"3-5\",\"4210\",\"37\",\"0\",\"Training\",\"Stims/Figures/7-C-20-4.bmp\",\"sa:sa:za\",\"Right\",\"39\",\"5\",\"7\",\"8\",\"C2\",\"J\",\"71\"
\"\",\"\",\"approach-retreat\",\"75\",\"600476\",\"0.0-75.0\",\"\",\"\",\"3-5\",\"5133\",\"38\",\"0\",\"Training\",\"Stims/Figures/93-J-0-1.bmp\",\"fa:shasha\",\"Up\",\"40\",\"5\",\"8\",\"8\",\"C1\",\"J\",\"72\"
\"\",\"\",\"approach-retreat\",\"76\",\"606105\",\"0.0-76.0\",\"\",\"\",\"3-5\",\"4113\",\"40\",\"1\",\"Training\",\"Stims/Figures/100-C-30-3.bmp\",\"saha:ha\",\"Down\",\"40\",\"5\",\"9\",\"8\",\"C2\",\"J\",\"73\"
\"\",\"\",\"approach-retreat\",\"77\",\"613565\",\"0.0-77.0\",\"\",\"\",\"3-5\",\"5945\",\"38\",\"1\",\"Training\",\"Stims/Figures/102-J-10-4.bmp\",\"sa:saza\",\"Down\",\"38\",\"5\",\"10\",\"8\",\"C2\",\"J\",\"74\"
\"\",\"\",\"approach-retreat\",\"78\",\"619070\",\"0.0-78.0\",\"\",\"\",\"3-5\",\"3990\",\"39\",\"0\",\"Training\",\"Stims/Figures/7-J-10-4.bmp\",\"za:ha:ha\",\"Right\",\"37\",\"5\",\"11\",\"8\",\"C2\",\"J\",\"75\"
\"\",\"\",\"approach-retreat\",\"79\",\"624699\",\"0.0-79.0\",\"\",\"\",\"3-5\",\"4113\",\"37\",\"0\",\"Training\",\"Stims/Figures/85-J-0-2.bmp\",\"fashava\",\"Left\",\"39\",\"5\",\"12\",\"8\",\"C1\",\"J\",\"76\"
\"\",\"\",\"approach-retreat\",\"80\",\"631356\",\"0.0-80.0\",\"\",\"\",\"3-5\",\"5142\",\"40\",\"0\",\"Training\",\"Stims/Figures/128-C-30-3.bmp\",\"za:ha:za\",\"Up\",\"38\",\"5\",\"13\",\"8\",\"C2\",\"J\",\"77\"
\"\",\"\",\"approach-retreat\",\"81\",\"637256\",\"0.0-81.0\",\"\",\"\",\"3-5\",\"4374\",\"37\",\"0\",\"Training\",\"Stims/Figures/93-C-30-1.bmp\",\"fa:fasha\",\"Right\",\"39\",\"5\",\"14\",\"8\",\"C1\",\"J\",\"78\"
\"\",\"\",\"approach-retreat\",\"82\",\"643299\",\"0.0-82.0\",\"\",\"\",\"3-5\",\"4528\",\"40\",\"1\",\"Training\",\"Stims/Figures/118-C-20-2.bmp\",\"fa:sha:va\",\"Down\",\"40\",\"5\",\"15\",\"8\",\"C1\",\"J\",\"79\"
\"\",\"\",\"approach-retreat\",\"83\",\"649006\",\"0.0-83.0\",\"\",\"\",\"3-5\",\"4190\",\"38\",\"0\",\"Training\",\"Stims/Figures/128-J-10-3.bmp\",\"sa:saha\",\"Up\",\"40\",\"5\",\"16\",\"8\",\"C2\",\"J\",\"80\"
\"\",\"\",\"approach-retreat\",\"84\",\"654651\",\"0.0-84.0\",\"\",\"\",\"3-5\",\"4131\",\"40\",\"1\",\"Training\",\"Stims/Figures/100-C-30-3.bmp\",\"saha:ha\",\"Down\",\"40\",\"6\",\"1\",\"8\",\"C2\",\"J\",\"81\"
\"\",\"\",\"approach-retreat\",\"85\",\"660115\",\"0.0-85.0\",\"\",\"\",\"3-5\",\"3949\",\"39\",\"0\",\"Training\",\"Stims/Figures/71-J-0-1.bmp\",\"va:shasha\",\"Right\",\"37\",\"6\",\"2\",\"8\",\"C1\",\"J\",\"82\"
\"\",\"\",\"approach-retreat\",\"86\",\"665789\",\"0.0-86.0\",\"\",\"\",\"3-5\",\"4156\",\"37\",\"0\",\"Training\",\"Stims/Figures/85-J-0-2.bmp\",\"fashava\",\"Left\",\"39\",\"6\",\"3\",\"8\",\"C1\",\"J\",\"83\"
\"\",\"\",\"approach-retreat\",\"87\",\"671671\",\"0.0-87.0\",\"\",\"\",\"3-5\",\"4369\",\"40\",\"0\",\"Training\",\"Stims/Figures/71-C-30-1.bmp\",\"fasha:sha\",\"Up\",\"38\",\"6\",\"4\",\"8\",\"C1\",\"J\",\"84\"
\"\",\"\",\"approach-retreat\",\"88\",\"677191\",\"0.0-88.0\",\"\",\"\",\"3-5\",\"4003\",\"40\",\"0\",\"Training\",\"Stims/Figures/128-J-10-3.bmp\",\"sa:saha\",\"Down\",\"38\",\"6\",\"5\",\"8\",\"C2\",\"J\",\"85\"
\"\",\"\",\"approach-retreat\",\"89\",\"682767\",\"0.0-89.0\",\"\",\"\",\"3-5\",\"4062\",\"37\",\"0\",\"Training\",\"Stims/Figures/93-J-0-1.bmp\",\"fa:shasha\",\"Left\",\"39\",\"6\",\"6\",\"8\",\"C1\",\"J\",\"86\"
\"\",\"\",\"approach-retreat\",\"90\",\"688883\",\"0.0-90.0\",\"\",\"\",\"3-5\",\"4603\",\"38\",\"1\",\"Training\",\"Stims/Figures/100-J-10-3.bmp\",\"sahaha\",\"Down\",\"38\",\"6\",\"7\",\"8\",\"C2\",\"J\",\"87\"
\"\",\"\",\"approach-retreat\",\"91\",\"695172\",\"0.0-91.0\",\"\",\"\",\"3-5\",\"4772\",\"40\",\"1\",\"Training\",\"Stims/Figures/128-C-30-3.bmp\",\"za:ha:za\",\"Down\",\"40\",\"6\",\"8\",\"8\",\"C2\",\"J\",\"88\"
\"\",\"\",\"approach-retreat\",\"92\",\"700900\",\"0.0-92.0\",\"\",\"\",\"3-5\",\"4210\",\"37\",\"1\",\"Training\",\"Stims/Figures/102-C-20-4.bmp\",\"za:saza\",\"Left\",\"37\",\"6\",\"9\",\"8\",\"C2\",\"J\",\"89\"
\"\",\"\",\"approach-retreat\",\"93\",\"706755\",\"0.0-93.0\",\"\",\"\",\"3-5\",\"4338\",\"37\",\"0\",\"Training\",\"Stims/Figures/93-C-30-1.bmp\",\"fa:fasha\",\"Right\",\"39\",\"6\",\"10\",\"8\",\"C1\",\"J\",\"90\"
\"\",\"\",\"approach-retreat\",\"94\",\"712474\",\"0.0-94.0\",\"\",\"\",\"3-5\",\"4205\",\"38\",\"1\",\"Training\",\"Stims/Figures/7-C-20-4.bmp\",\"sa:sa:za\",\"Up\",\"38\",\"6\",\"11\",\"8\",\"C2\",\"J\",\"91\"
\"\",\"\",\"approach-retreat\",\"95\",\"718226\",\"0.0-95.0\",\"\",\"\",\"3-5\",\"4234\",\"38\",\"0\",\"Training\",\"Stims/Figures/7-J-10-4.bmp\",\"za:ha:ha\",\"Up\",\"40\",\"6\",\"12\",\"8\",\"C2\",\"J\",\"92\"
\"\",\"\",\"approach-retreat\",\"96\",\"723985\",\"0.0-96.0\",\"\",\"\",\"3-5\",\"4243\",\"39\",\"1\",\"Training\",\"Stims/Figures/85-C-20-2.bmp\",\"va:sha:sha\",\"Right\",\"39\",\"6\",\"13\",\"8\",\"C1\",\"J\",\"93\"
\"\",\"\",\"approach-retreat\",\"97\",\"729962\",\"0.0-97.0\",\"\",\"\",\"3-5\",\"4460\",\"37\",\"1\",\"Training\",\"Stims/Figures/118-J-0-2.bmp\",\"fa:fa:sha\",\"Right\",\"37\",\"6\",\"14\",\"8\",\"C1\",\"J\",\"94\"
\"\",\"\",\"approach-retreat\",\"98\",\"737913\",\"0.0-98.0\",\"\",\"\",\"3-5\",\"6436\",\"37\",\"0\",\"Training\",\"Stims/Figures/102-J-10-4.bmp\",\"sa:saza\",\"Left\",\"39\",\"6\",\"15\",\"8\",\"C2\",\"J\",\"95\"
\"\",\"\",\"approach-retreat\",\"99\",\"743539\",\"0.0-99.0\",\"\",\"\",\"3-5\",\"4111\",\"40\",\"0\",\"Training\",\"Stims/Figures/118-C-20-2.bmp\",\"fa:sha:va\",\"Up\",\"38\",\"6\",\"16\",\"8\",\"C1\",\"J\",\"96\"
\"\",\"\",\"approach-retreat\",\"100\",\"749396\",\"0.0-100.0\",\"\",\"\",\"3-5\",\"4342\",\"38\",\"1\",\"Training\",\"Stims/Figures/100-J-10-3.bmp\",\"sahaha\",\"Down\",\"38\",\"7\",\"1\",\"8\",\"C2\",\"J\",\"97\"
\"\",\"\",\"approach-retreat\",\"101\",\"755132\",\"0.0-101.0\",\"\",\"\",\"3-5\",\"4218\",\"38\",\"1\",\"Training\",\"Stims/Figures/102-C-20-4.bmp\",\"za:saza\",\"Up\",\"38\",\"7\",\"2\",\"8\",\"C2\",\"J\",\"98\"
\"\",\"\",\"approach-retreat\",\"102\",\"761661\",\"0.0-102.0\",\"\",\"\",\"3-5\",\"5014\",\"38\",\"1\",\"Training\",\"Stims/Figures/93-C-30-1.bmp\",\"fa:fasha\",\"Up\",\"38\",\"7\",\"3\",\"8\",\"C1\",\"J\",\"99\"
\"\",\"\",\"approach-retreat\",\"103\",\"767387\",\"0.0-103.0\",\"\",\"\",\"3-5\",\"4211\",\"37\",\"1\",\"Training\",\"Stims/Figures/118-J-0-2.bmp\",\"fa:fa:sha\",\"Right\",\"37\",\"7\",\"4\",\"8\",\"C1\",\"J\",\"100\"
\"\",\"\",\"approach-retreat\",\"104\",\"773025\",\"0.0-104.0\",\"\",\"\",\"3-5\",\"4122\",\"38\",\"1\",\"Training\",\"Stims/Figures/128-C-30-3.bmp\",\"za:ha:za\",\"Up\",\"38\",\"7\",\"5\",\"8\",\"C2\",\"J\",\"101\"
\"\",\"\",\"approach-retreat\",\"105\",\"778924\",\"0.0-105.0\",\"\",\"\",\"3-5\",\"4383\",\"38\",\"0\",\"Training\",\"Stims/Figures/7-C-20-4.bmp\",\"sa:sa:za\",\"Down\",\"40\",\"7\",\"6\",\"8\",\"C2\",\"J\",\"102\"
\"\",\"\",\"approach-retreat\",\"106\",\"784668\",\"0.0-106.0\",\"\",\"\",\"3-5\",\"4226\",\"39\",\"1\",\"Training\",\"Stims/Figures/85-C-20-2.bmp\",\"va:sha:sha\",\"Right\",\"39\",\"7\",\"7\",\"8\",\"C1\",\"J\",\"103\"
\"\",\"\",\"approach-retreat\",\"107\",\"790311\",\"0.0-107.0\",\"\",\"\",\"3-5\",\"4129\",\"37\",\"0\",\"Training\",\"Stims/Figures/71-J-0-1.bmp\",\"va:shasha\",\"Left\",\"39\",\"7\",\"8\",\"8\",\"C1\",\"J\",\"104\"
\"\",\"\",\"approach-retreat\",\"108\",\"797152\",\"0.0-108.0\",\"\",\"\",\"3-5\",\"5327\",\"39\",\"0\",\"Training\",\"Stims/Figures/128-J-10-3.bmp\",\"sa:saha\",\"Right\",\"37\",\"7\",\"9\",\"8\",\"C2\",\"J\",\"105\"
\"\",\"\",\"approach-retreat\",\"109\",\"802881\",\"0.0-109.0\",\"\",\"\",\"3-5\",\"4215\",\"40\",\"1\",\"Training\",\"Stims/Figures/100-C-30-3.bmp\",\"saha:ha\",\"Down\",\"40\",\"7\",\"10\",\"8\",\"C2\",\"J\",\"106\"
\"\",\"\",\"approach-retreat\",\"110\",\"808827\",\"0.0-110.0\",\"\",\"\",\"3-5\",\"4429\",\"40\",\"0\",\"Training\",\"Stims/Figures/93-J-0-1.bmp\",\"fa:shasha\",\"Down\",\"38\",\"7\",\"11\",\"8\",\"C1\",\"J\",\"107\"
\"\",\"\",\"approach-retreat\",\"111\",\"814507\",\"0.0-111.0\",\"\",\"\",\"3-5\",\"4165\",\"37\",\"0\",\"Training\",\"Stims/Figures/118-C-20-2.bmp\",\"fa:sha:va\",\"Right\",\"39\",\"7\",\"12\",\"8\",\"C1\",\"J\",\"108\"
\"\",\"\",\"approach-retreat\",\"112\",\"820221\",\"0.0-112.0\",\"\",\"\",\"3-5\",\"4200\",\"40\",\"1\",\"Training\",\"Stims/Figures/85-J-0-2.bmp\",\"fashava\",\"Up\",\"40\",\"7\",\"13\",\"8\",\"C1\",\"J\",\"109\"
\"\",\"\",\"approach-retreat\",\"113\",\"826040\",\"0.0-113.0\",\"\",\"\",\"3-5\",\"4303\",\"39\",\"1\",\"Training\",\"Stims/Figures/102-J-10-4.bmp\",\"sa:saza\",\"Left\",\"39\",\"7\",\"14\",\"8\",\"C2\",\"J\",\"110\"
\"\",\"\",\"approach-retreat\",\"114\",\"831764\",\"0.0-114.0\",\"\",\"\",\"3-5\",\"4210\",\"37\",\"0\",\"Training\",\"Stims/Figures/7-J-10-4.bmp\",\"za:ha:ha\",\"Left\",\"39\",\"7\",\"15\",\"8\",\"C2\",\"J\",\"111\"
\"\",\"\",\"approach-retreat\",\"115\",\"837859\",\"0.0-115.0\",\"\",\"\",\"3-5\",\"4578\",\"39\",\"0\",\"Training\",\"Stims/Figures/71-C-30-1.bmp\",\"fasha:sha\",\"Left\",\"37\",\"7\",\"16\",\"8\",\"C1\",\"J\",\"112\"
\"\",\"\",\"approach-retreat\",\"116\",\"843586\",\"0.0-116.0\",\"\",\"\",\"3-5\",\"4212\",\"39\",\"0\",\"Training\",\"Stims/Figures/118-C-20-2.bmp\",\"fa:sha:va\",\"Left\",\"37\",\"8\",\"1\",\"8\",\"C1\",\"J\",\"113\"
\"\",\"\",\"approach-retreat\",\"117\",\"849472\",\"0.0-117.0\",\"\",\"\",\"3-5\",\"4370\",\"38\",\"1\",\"Training\",\"Stims/Figures/100-C-30-3.bmp\",\"saha:ha\",\"Up\",\"38\",\"8\",\"2\",\"8\",\"C2\",\"J\",\"114\"
\"\",\"\",\"approach-retreat\",\"118\",\"855344\",\"0.0-118.0\",\"\",\"\",\"3-5\",\"4356\",\"37\",\"1\",\"Training\",\"Stims/Figures/118-J-0-2.bmp\",\"fa:fa:sha\",\"Right\",\"37\",\"8\",\"3\",\"8\",\"C1\",\"J\",\"115\"
\"\",\"\",\"approach-retreat\",\"119\",\"861294\",\"0.0-119.0\",\"\",\"\",\"3-5\",\"4435\",\"39\",\"0\",\"Training\",\"Stims/Figures/85-J-0-2.bmp\",\"fashava\",\"Right\",\"37\",\"8\",\"4\",\"8\",\"C1\",\"J\",\"116\"
\"\",\"\",\"approach-retreat\",\"120\",\"868250\",\"0.0-120.0\",\"\",\"\",\"3-5\",\"5441\",\"40\",\"0\",\"Training\",\"Stims/Figures/128-C-30-3.bmp\",\"za:ha:za\",\"Up\",\"38\",\"8\",\"5\",\"8\",\"C2\",\"J\",\"117\"
\"\",\"\",\"approach-retreat\",\"121\",\"874267\",\"0.0-121.0\",\"\",\"\",\"3-5\",\"4502\",\"38\",\"0\",\"Training\",\"Stims/Figures/93-C-30-1.bmp\",\"fa:fasha\",\"Down\",\"40\",\"8\",\"6\",\"8\",\"C1\",\"J\",\"118\"
\"\",\"\",\"approach-retreat\",\"122\",\"880507\",\"0.0-122.0\",\"\",\"\",\"3-5\",\"4726\",\"40\",\"1\",\"Training\",\"Stims/Figures/102-C-20-4.bmp\",\"za:saza\",\"Down\",\"40\",\"8\",\"7\",\"8\",\"C2\",\"J\",\"119\"
\"\",\"\",\"approach-retreat\",\"123\",\"886243\",\"0.0-123.0\",\"\",\"\",\"3-5\",\"4219\",\"38\",\"1\",\"Training\",\"Stims/Figures/128-J-10-3.bmp\",\"sa:saha\",\"Down\",\"38\",\"8\",\"8\",\"8\",\"C2\",\"J\",\"120\"
\"\",\"\",\"approach-retreat\",\"124\",\"892053\",\"0.0-124.0\",\"\",\"\",\"3-5\",\"4295\",\"38\",\"0\",\"Training\",\"Stims/Figures/7-J-10-4.bmp\",\"za:ha:ha\",\"Up\",\"40\",\"8\",\"9\",\"8\",\"C2\",\"J\",\"121\"
\"\",\"\",\"approach-retreat\",\"125\",\"897924\",\"0.0-125.0\",\"\",\"\",\"3-5\",\"4354\",\"39\",\"0\",\"Training\",\"Stims/Figures/85-C-20-2.bmp\",\"va:sha:sha\",\"Left\",\"37\",\"8\",\"10\",\"8\",\"C1\",\"J\",\"122\"
\"\",\"\",\"approach-retreat\",\"126\",\"903715\",\"0.0-126.0\",\"\",\"\",\"3-5\",\"4277\",\"39\",\"1\",\"Training\",\"Stims/Figures/71-J-0-1.bmp\",\"va:shasha\",\"Left\",\"39\",\"8\",\"11\",\"8\",\"C1\",\"J\",\"123\"
\"\",\"\",\"approach-retreat\",\"127\",\"909584\",\"0.0-127.0\",\"\",\"\",\"3-5\",\"4354\",\"39\",\"0\",\"Training\",\"Stims/Figures/93-J-0-1.bmp\",\"fa:shasha\",\"Right\",\"37\",\"8\",\"12\",\"8\",\"C1\",\"J\",\"124\"
\"\",\"\",\"approach-retreat\",\"128\",\"915476\",\"0.0-128.0\",\"\",\"\",\"3-5\",\"4373\",\"39\",\"0\",\"Training\",\"Stims/Figures/71-C-30-1.bmp\",\"fasha:sha\",\"Left\",\"37\",\"8\",\"13\",\"8\",\"C1\",\"J\",\"125\"
\"\",\"\",\"approach-retreat\",\"129\",\"921247\",\"0.0-129.0\",\"\",\"\",\"3-5\",\"4256\",\"40\",\"1\",\"Training\",\"Stims/Figures/100-J-10-3.bmp\",\"sahaha\",\"Up\",\"40\",\"8\",\"14\",\"8\",\"C2\",\"J\",\"126\"
\"\",\"\",\"approach-retreat\",\"130\",\"926959\",\"0.0-130.0\",\"\",\"\",\"3-5\",\"4197\",\"40\",\"0\",\"Training\",\"Stims/Figures/102-J-10-4.bmp\",\"sa:saza\",\"Down\",\"38\",\"8\",\"15\",\"8\",\"C2\",\"J\",\"127\"
\"\",\"\",\"approach-retreat\",\"131\",\"932899\",\"0.0-131.0\",\"\",\"\",\"3-5\",\"4424\",\"37\",\"0\",\"Training\",\"Stims/Figures/7-C-20-4.bmp\",\"sa:sa:za\",\"Right\",\"39\",\"8\",\"16\",\"8\",\"C2\",\"J\",\"128\"
\"\",\"\",\"approach-retreat\",\"132\",\"938603\",\"0.0-132.0\",\"\",\"\",\"3-5\",\"4190\",\"39\",\"1\",\"Training\",\"Stims/Figures/128-C-30-3.bmp\",\"za:ha:za\",\"Right\",\"39\",\"9\",\"1\",\"8\",\"C2\",\"J\",\"129\"
\"\",\"\",\"approach-retreat\",\"133\",\"944298\",\"0.0-133.0\",\"\",\"\",\"3-5\",\"4175\",\"37\",\"1\",\"Training\",\"Stims/Figures/118-J-0-2.bmp\",\"fa:fa:sha\",\"Right\",\"37\",\"9\",\"2\",\"8\",\"C1\",\"J\",\"130\"
\"\",\"\",\"approach-retreat\",\"134\",\"950085\",\"0.0-134.0\",\"\",\"\",\"3-5\",\"4271\",\"38\",\"0\",\"Training\",\"Stims/Figures/100-C-30-3.bmp\",\"saha:ha\",\"Down\",\"40\",\"9\",\"3\",\"8\",\"C2\",\"J\",\"131\"
\"\",\"\",\"approach-retreat\",\"135\",\"956809\",\"0.0-135.0\",\"\",\"\",\"3-5\",\"5208\",\"38\",\"1\",\"Training\",\"Stims/Figures/93-C-30-1.bmp\",\"fa:fasha\",\"Up\",\"38\",\"9\",\"4\",\"8\",\"C1\",\"J\",\"132\"
\"\",\"\",\"approach-retreat\",\"136\",\"962416\",\"0.0-136.0\",\"\",\"\",\"3-5\",\"4091\",\"38\",\"0\",\"Training\",\"Stims/Figures/85-J-0-2.bmp\",\"fashava\",\"Up\",\"40\",\"9\",\"5\",\"8\",\"C1\",\"J\",\"133\"
\"\",\"\",\"approach-retreat\",\"137\",\"973324\",\"0.0-137.0\",\"\",\"\",\"3-5\",\"9394\",\"38\",\"1\",\"Training\",\"Stims/Figures/102-J-10-4.bmp\",\"sa:saza\",\"Down\",\"38\",\"9\",\"6\",\"8\",\"C2\",\"J\",\"134\"
\"\",\"\",\"approach-retreat\",\"138\",\"979509\",\"0.0-138.0\",\"\",\"\",\"3-5\",\"4670\",\"38\",\"0\",\"Training\",\"Stims/Figures/128-J-10-3.bmp\",\"sa:saha\",\"Up\",\"40\",\"9\",\"7\",\"8\",\"C2\",\"J\",\"135\"
\"\",\"\",\"approach-retreat\",\"139\",\"985321\",\"0.0-139.0\",\"\",\"\",\"3-5\",\"4297\",\"39\",\"1\",\"Training\",\"Stims/Figures/93-J-0-1.bmp\",\"fa:shasha\",\"Left\",\"39\",\"9\",\"8\",\"8\",\"C1\",\"J\",\"136\"
\"\",\"\",\"approach-retreat\",\"140\",\"991069\",\"0.0-140.0\",\"\",\"\",\"3-5\",\"4231\",\"40\",\"1\",\"Training\",\"Stims/Figures/118-C-20-2.bmp\",\"fa:sha:va\",\"Down\",\"40\",\"9\",\"9\",\"8\",\"C1\",\"J\",\"137\"
\"\",\"\",\"approach-retreat\",\"141\",\"996742\",\"0.0-141.0\",\"\",\"\",\"3-5\",\"4156\",\"39\",\"1\",\"Training\",\"Stims/Figures/102-C-20-4.bmp\",\"za:saza\",\"Right\",\"39\",\"9\",\"10\",\"8\",\"C2\",\"J\",\"138\"
\"\",\"\",\"approach-retreat\",\"142\",\"1002383\",\"0.0-142.0\",\"\",\"\",\"3-5\",\"4126\",\"37\",\"0\",\"Training\",\"Stims/Figures/71-J-0-1.bmp\",\"va:shasha\",\"Left\",\"39\",\"9\",\"11\",\"8\",\"C1\",\"J\",\"139\"
\"\",\"\",\"approach-retreat\",\"143\",\"1009496\",\"0.0-143.0\",\"\",\"\",\"3-5\",\"5597\",\"39\",\"0\",\"Training\",\"Stims/Figures/85-C-20-2.bmp\",\"va:sha:sha\",\"Left\",\"37\",\"9\",\"12\",\"8\",\"C1\",\"J\",\"140\"
\"\",\"\",\"approach-retreat\",\"144\",\"1015039\",\"0.0-144.0\",\"\",\"\",\"3-5\",\"4030\",\"40\",\"1\",\"Training\",\"Stims/Figures/100-J-10-3.bmp\",\"sahaha\",\"Up\",\"40\",\"9\",\"13\",\"8\",\"C2\",\"J\",\"141\"
\"\",\"\",\"approach-retreat\",\"145\",\"1020832\",\"0.0-145.0\",\"\",\"\",\"3-5\",\"4277\",\"37\",\"0\",\"Training\",\"Stims/Figures/71-C-30-1.bmp\",\"fasha:sha\",\"Right\",\"39\",\"9\",\"14\",\"8\",\"C1\",\"J\",\"142\"
\"\",\"\",\"approach-retreat\",\"146\",\"1027461\",\"0.0-146.0\",\"\",\"\",\"3-5\",\"5115\",\"39\",\"0\",\"Training\",\"Stims/Figures/7-C-20-4.bmp\",\"sa:sa:za\",\"Left\",\"37\",\"9\",\"15\",\"8\",\"C2\",\"J\",\"143\"
\"\",\"\",\"approach-retreat\",\"147\",\"1033061\",\"0.0-147.0\",\"\",\"\",\"3-5\",\"4085\",\"40\",\"0\",\"Training\",\"Stims/Figures/7-J-10-4.bmp\",\"za:ha:ha\",\"Down\",\"38\",\"9\",\"16\",\"8\",\"C2\",\"J\",\"144\"
\"12276\",\"\",\"instructions\",\"148\",\"1045337\",\"0.0-148.0\",\"[{\"\"page_index\"\":0,\"\"viewing_time\"\":12275}]\",\"\",\"\",\"\",\"\",\"\",\"\",\"\",\"\",\"\",\"\",\"\",\"\",\"\",\"\",\"\",\"\"
\"\",\"\",\"approach-retreat\",\"149\",\"1051080\",\"0.0-149.0\",\"\",\"\",\"3-5\",\"4230\",\"40\",\"1\",\"Testing\",\"Stims/Figures/7-C-20-4.bmp\",\"sa:sa:za\",\"Down\",\"40\",\"1\",\"1\",\"8\",\"C2\",\"J\",\"1\"
\"\",\"\",\"approach-retreat\",\"150\",\"1056944\",\"0.0-150.0\",\"\",\"\",\"3-5\",\"4353\",\"39\",\"1\",\"Testing\",\"Stims/Figures/85-C-20-2.bmp\",\"va:sha:sha\",\"Right\",\"39\",\"1\",\"2\",\"8\",\"C1\",\"J\",\"2\"
\"\",\"\",\"approach-retreat\",\"151\",\"1062698\",\"0.0-151.0\",\"\",\"\",\"3-5\",\"4241\",\"39\",\"0\",\"Testing\",\"Stims/Figures/71-C-30-1.bmp\",\"fasha:sha\",\"Left\",\"37\",\"1\",\"3\",\"8\",\"C1\",\"J\",\"3\"
\"\",\"\",\"approach-retreat\",\"152\",\"1068361\",\"0.0-152.0\",\"\",\"\",\"3-5\",\"4150\",\"40\",\"1\",\"Testing\",\"Stims/Figures/102-J-10-4.bmp\",\"sa:saza\",\"Up\",\"40\",\"1\",\"4\",\"8\",\"C2\",\"J\",\"4\"
\"\",\"\",\"approach-retreat\",\"153\",\"1074105\",\"0.0-153.0\",\"\",\"\",\"3-5\",\"4229\",\"38\",\"0\",\"Testing\",\"Stims/Figures/128-J-10-3.bmp\",\"sa:saha\",\"Up\",\"40\",\"1\",\"5\",\"8\",\"C2\",\"J\",\"5\"
\"\",\"\",\"approach-retreat\",\"154\",\"1080136\",\"0.0-154.0\",\"\",\"\",\"3-5\",\"4518\",\"37\",\"0\",\"Testing\",\"Stims/Figures/118-J-0-2.bmp\",\"fa:fa:sha\",\"Left\",\"39\",\"1\",\"6\",\"8\",\"C1\",\"J\",\"6\"
\"\",\"\",\"approach-retreat\",\"155\",\"1085804\",\"0.0-155.0\",\"\",\"\",\"3-5\",\"4154\",\"40\",\"1\",\"Testing\",\"Stims/Figures/85-J-0-2.bmp\",\"fashava\",\"Up\",\"40\",\"1\",\"7\",\"8\",\"C1\",\"J\",\"7\"
\"\",\"\",\"approach-retreat\",\"156\",\"1091962\",\"0.0-156.0\",\"\",\"\",\"3-5\",\"4645\",\"37\",\"1\",\"Testing\",\"Stims/Figures/111-C-30-3.bmp\",\"zasaha\",\"Left\",\"37\",\"1\",\"8\",\"8\",\"C2\",\"J\",\"8\"
\"\",\"\",\"approach-retreat\",\"157\",\"1097652\",\"0.0-157.0\",\"\",\"\",\"3-5\",\"4175\",\"40\",\"0\",\"Testing\",\"Stims/Figures/118-C-20-2.bmp\",\"fa:sha:va\",\"Up\",\"38\",\"1\",\"9\",\"8\",\"C1\",\"J\",\"9\"
\"\",\"\",\"approach-retreat\",\"158\",\"1103704\",\"0.0-158.0\",\"\",\"\",\"3-5\",\"4540\",\"37\",\"0\",\"Testing\",\"Stims/Figures/100-C-30-3.bmp\",\"saha:ha\",\"Right\",\"39\",\"1\",\"10\",\"8\",\"C2\",\"J\",\"10\"
\"\",\"\",\"approach-retreat\",\"159\",\"1109799\",\"0.0-159.0\",\"\",\"\",\"3-5\",\"4582\",\"39\",\"0\",\"Testing\",\"Stims/Figures/71-J-0-1.bmp\",\"va:shasha\",\"Right\",\"37\",\"1\",\"11\",\"8\",\"C1\",\"J\",\"11\"
\"\",\"\",\"approach-retreat\",\"160\",\"1115679\",\"0.0-160.0\",\"\",\"\",\"3-5\",\"4367\",\"38\",\"1\",\"Testing\",\"Stims/Figures/128-C-30-3.bmp\",\"za:ha:za\",\"Up\",\"38\",\"1\",\"12\",\"8\",\"C2\",\"J\",\"12\"
\"\",\"\",\"approach-retreat\",\"161\",\"1121440\",\"0.0-161.0\",\"\",\"\",\"3-5\",\"4249\",\"38\",\"1\",\"Testing\",\"Stims/Figures/87-J-10-4.bmp\",\"sa:sa:ha\",\"Down\",\"38\",\"1\",\"13\",\"8\",\"C2\",\"J\",\"13\"
\"\",\"\",\"approach-retreat\",\"162\",\"1127092\",\"0.0-162.0\",\"\",\"\",\"3-5\",\"4140\",\"38\",\"1\",\"Testing\",\"Stims/Figures/7-J-10-4.bmp\",\"za:ha:ha\",\"Down\",\"38\",\"1\",\"14\",\"8\",\"C2\",\"J\",\"14\"
\"\",\"\",\"approach-retreat\",\"163\",\"1132801\",\"0.0-163.0\",\"\",\"\",\"3-5\",\"4196\",\"39\",\"0\",\"Testing\",\"Stims/Figures/102-C-20-4.bmp\",\"za:saza\",\"Left\",\"37\",\"1\",\"15\",\"8\",\"C2\",\"J\",\"15\"
\"\",\"\",\"approach-retreat\",\"164\",\"1138497\",\"0.0-164.0\",\"\",\"\",\"3-5\",\"4185\",\"37\",\"0\",\"Testing\",\"Stims/Figures/57-C-30-1.bmp\",\"va:sha:va\",\"Right\",\"39\",\"1\",\"16\",\"8\",\"C1\",\"J\",\"16\"
\"\",\"\",\"approach-retreat\",\"165\",\"1143987\",\"0.0-165.0\",\"\",\"\",\"3-5\",\"3973\",\"39\",\"0\",\"Testing\",\"Stims/Figures/57-J-0-1.bmp\",\"vashasha\",\"Right\",\"37\",\"1\",\"17\",\"8\",\"C1\",\"J\",\"17\"
\"\",\"\",\"approach-retreat\",\"166\",\"1149605\",\"0.0-166.0\",\"\",\"\",\"3-5\",\"4106\",\"40\",\"0\",\"Testing\",\"Stims/Figures/93-J-0-1.bmp\",\"fa:shasha\",\"Down\",\"38\",\"1\",\"18\",\"8\",\"C1\",\"J\",\"18\"
\"\",\"\",\"approach-retreat\",\"167\",\"1155428\",\"0.0-167.0\",\"\",\"\",\"3-5\",\"4297\",\"39\",\"1\",\"Testing\",\"Stims/Figures/111-J-10-3.bmp\",\"zaha:za\",\"Left\",\"39\",\"1\",\"19\",\"8\",\"C2\",\"J\",\"19\"
\"\",\"\",\"approach-retreat\",\"168\",\"1161417\",\"0.0-168.0\",\"\",\"\",\"3-5\",\"4477\",\"38\",\"0\",\"Testing\",\"Stims/Figures/139-C-20-2.bmp\",\"fa:fa:va\",\"Down\",\"40\",\"1\",\"20\",\"8\",\"C1\",\"J\",\"20\"
\"\",\"\",\"approach-retreat\",\"169\",\"1167079\",\"0.0-169.0\",\"\",\"\",\"3-5\",\"4149\",\"37\",\"0\",\"Testing\",\"Stims/Figures/139-J-0-2.bmp\",\"vashava\",\"Left\",\"39\",\"1\",\"21\",\"8\",\"C1\",\"J\",\"21\"
\"\",\"\",\"approach-retreat\",\"170\",\"1172783\",\"0.0-170.0\",\"\",\"\",\"3-5\",\"4191\",\"37\",\"0\",\"Testing\",\"Stims/Figures/87-C-20-4.bmp\",\"sasa:za\",\"Right\",\"39\",\"1\",\"22\",\"8\",\"C2\",\"J\",\"22\"
\"\",\"\",\"approach-retreat\",\"171\",\"1179295\",\"0.0-171.0\",\"\",\"\",\"3-5\",\"5000\",\"40\",\"0\",\"Testing\",\"Stims/Figures/93-C-30-1.bmp\",\"fa:fasha\",\"Up\",\"38\",\"1\",\"23\",\"8\",\"C1\",\"J\",\"23\"
\"\",\"\",\"approach-retreat\",\"172\",\"1185186\",\"0.0-172.0\",\"\",\"\",\"3-5\",\"4379\",\"40\",\"0\",\"Testing\",\"Stims/Figures/100-J-10-3.bmp\",\"sahaha\",\"Down\",\"38\",\"1\",\"24\",\"8\",\"C2\",\"J\",\"24\"
\"\",\"\",\"approach-retreat\",\"173\",\"1191219\",\"0.0-173.0\",\"\",\"\",\"3-5\",\"4518\",\"39\",\"0\",\"Testing\",\"Stims/Figures/111-C-30-3.bmp\",\"zasaha\",\"Left\",\"37\",\"2\",\"1\",\"8\",\"C2\",\"J\",\"25\"
\"\",\"\",\"approach-retreat\",\"174\",\"1196988\",\"0.0-174.0\",\"\",\"\",\"3-5\",\"4257\",\"38\",\"0\",\"Testing\",\"Stims/Figures/111-J-10-3.bmp\",\"zaha:za\",\"Up\",\"40\",\"2\",\"2\",\"8\",\"C2\",\"J\",\"26\"
\"\",\"\",\"approach-retreat\",\"175\",\"1202699\",\"0.0-175.0\",\"\",\"\",\"3-5\",\"4199\",\"38\",\"0\",\"Testing\",\"Stims/Figures/85-J-0-2.bmp\",\"fashava\",\"Up\",\"40\",\"2\",\"3\",\"8\",\"C1\",\"J\",\"27\"
\"\",\"\",\"approach-retreat\",\"176\",\"1208522\",\"0.0-176.0\",\"\",\"\",\"3-5\",\"4309\",\"38\",\"1\",\"Testing\",\"Stims/Figures/102-J-10-4.bmp\",\"sa:saza\",\"Down\",\"38\",\"2\",\"4\",\"8\",\"C2\",\"J\",\"28\"
\"\",\"\",\"approach-retreat\",\"177\",\"1215165\",\"0.0-177.0\",\"\",\"\",\"3-5\",\"5129\",\"38\",\"0\",\"Testing\",\"Stims/Figures/102-C-20-4.bmp\",\"za:saza\",\"Down\",\"40\",\"2\",\"5\",\"8\",\"C2\",\"J\",\"29\"
\"\",\"\",\"approach-retreat\",\"178\",\"1220697\",\"0.0-178.0\",\"\",\"\",\"3-5\",\"4020\",\"40\",\"0\",\"Testing\",\"Stims/Figures/128-J-10-3.bmp\",\"sa:saha\",\"Down\",\"38\",\"2\",\"6\",\"8\",\"C2\",\"J\",\"30\"
\"\",\"\",\"approach-retreat\",\"179\",\"1226834\",\"0.0-179.0\",\"\",\"\",\"3-5\",\"4623\",\"37\",\"0\",\"Testing\",\"Stims/Figures/100-J-10-3.bmp\",\"sahaha\",\"Left\",\"39\",\"2\",\"7\",\"8\",\"C2\",\"J\",\"31\"
\"\",\"\",\"approach-retreat\",\"180\",\"1233601\",\"0.0-180.0\",\"\",\"\",\"3-5\",\"5255\",\"39\",\"1\",\"Testing\",\"Stims/Figures/118-C-20-2.bmp\",\"fa:sha:va\",\"Right\",\"39\",\"2\",\"8\",\"8\",\"C1\",\"J\",\"32\"
\"\",\"\",\"approach-retreat\",\"181\",\"1239265\",\"0.0-181.0\",\"\",\"\",\"3-5\",\"4151\",\"39\",\"0\",\"Testing\",\"Stims/Figures/57-C-30-1.bmp\",\"va:sha:va\",\"Left\",\"37\",\"2\",\"9\",\"8\",\"C1\",\"J\",\"33\"
\"\",\"\",\"approach-retreat\",\"182\",\"1244936\",\"0.0-182.0\",\"\",\"\",\"3-5\",\"4159\",\"38\",\"0\",\"Testing\",\"Stims/Figures/57-J-0-1.bmp\",\"vashasha\",\"Up\",\"40\",\"2\",\"10\",\"8\",\"C1\",\"J\",\"34\"
\"\",\"\",\"approach-retreat\",\"183\",\"1250996\",\"0.0-183.0\",\"\",\"\",\"3-5\",\"4548\",\"38\",\"0\",\"Testing\",\"Stims/Figures/93-J-0-1.bmp\",\"fa:shasha\",\"Up\",\"40\",\"2\",\"11\",\"8\",\"C1\",\"J\",\"35\"
\"\",\"\",\"approach-retreat\",\"184\",\"1256609\",\"0.0-184.0\",\"\",\"\",\"3-5\",\"4101\",\"37\",\"0\",\"Testing\",\"Stims/Figures/93-C-30-1.bmp\",\"fa:fasha\",\"Right\",\"39\",\"2\",\"12\",\"8\",\"C1\",\"J\",\"36\"
\"\",\"\",\"approach-retreat\",\"185\",\"1262525\",\"0.0-185.0\",\"\",\"\",\"3-5\",\"4403\",\"39\",\"0\",\"Testing\",\"Stims/Figures/7-J-10-4.bmp\",\"za:ha:ha\",\"Right\",\"37\",\"2\",\"13\",\"8\",\"C2\",\"J\",\"37\"
\"\",\"\",\"approach-retreat\",\"186\",\"1269245\",\"0.0-186.0\",\"\",\"\",\"3-5\",\"5207\",\"38\",\"0\",\"Testing\",\"Stims/Figures/71-C-30-1.bmp\",\"fasha:sha\",\"Down\",\"40\",\"2\",\"14\",\"8\",\"C1\",\"J\",\"38\"
\"\",\"\",\"approach-retreat\",\"187\",\"1276676\",\"0.0-187.0\",\"\",\"\",\"3-5\",\"5918\",\"40\",\"0\",\"Testing\",\"Stims/Figures/87-C-20-4.bmp\",\"sasa:za\",\"Up\",\"38\",\"2\",\"15\",\"8\",\"C2\",\"J\",\"39\"
\"\",\"\",\"approach-retreat\",\"188\",\"1282663\",\"0.0-188.0\",\"\",\"\",\"3-5\",\"4474\",\"37\",\"0\",\"Testing\",\"Stims/Figures/139-J-0-2.bmp\",\"vashava\",\"Left\",\"39\",\"2\",\"16\",\"8\",\"C1\",\"J\",\"40\"
\"\",\"\",\"approach-retreat\",\"189\",\"1289059\",\"0.0-189.0\",\"\",\"\",\"3-5\",\"4883\",\"39\",\"1\",\"Testing\",\"Stims/Figures/7-C-20-4.bmp\",\"sa:sa:za\",\"Right\",\"39\",\"2\",\"17\",\"8\",\"C2\",\"J\",\"41\"
\"\",\"\",\"approach-retreat\",\"190\",\"1294849\",\"0.0-190.0\",\"\",\"\",\"3-5\",\"4277\",\"38\",\"0\",\"Testing\",\"Stims/Figures/85-C-20-2.bmp\",\"va:sha:sha\",\"Down\",\"40\",\"2\",\"18\",\"8\",\"C1\",\"J\",\"42\"
\"\",\"\",\"approach-retreat\",\"191\",\"1300591\",\"0.0-191.0\",\"\",\"\",\"3-5\",\"4228\",\"37\",\"1\",\"Testing\",\"Stims/Figures/139-C-20-2.bmp\",\"fa:fa:va\",\"Left\",\"37\",\"2\",\"19\",\"8\",\"C1\",\"J\",\"43\"
\"\",\"\",\"approach-retreat\",\"192\",\"1306234\",\"0.0-192.0\",\"\",\"\",\"3-5\",\"4130\",\"39\",\"0\",\"Testing\",\"Stims/Figures/71-J-0-1.bmp\",\"va:shasha\",\"Right\",\"37\",\"2\",\"20\",\"8\",\"C1\",\"J\",\"44\"
\"\",\"\",\"approach-retreat\",\"193\",\"1312061\",\"0.0-193.0\",\"\",\"\",\"3-5\",\"4315\",\"38\",\"0\",\"Testing\",\"Stims/Figures/100-C-30-3.bmp\",\"saha:ha\",\"Down\",\"40\",\"2\",\"21\",\"8\",\"C2\",\"J\",\"45\"
\"\",\"\",\"approach-retreat\",\"194\",\"1318126\",\"0.0-194.0\",\"\",\"\",\"3-5\",\"4552\",\"39\",\"0\",\"Testing\",\"Stims/Figures/87-J-10-4.bmp\",\"sa:sa:ha\",\"Right\",\"37\",\"2\",\"22\",\"8\",\"C2\",\"J\",\"46\"
\"\",\"\",\"approach-retreat\",\"195\",\"1324372\",\"0.0-195.0\",\"\",\"\",\"3-5\",\"4732\",\"40\",\"0\",\"Testing\",\"Stims/Figures/128-C-30-3.bmp\",\"za:ha:za\",\"Up\",\"38\",\"2\",\"23\",\"8\",\"C2\",\"J\",\"47\"
\"\",\"\",\"approach-retreat\",\"196\",\"1330481\",\"0.0-196.0\",\"\",\"\",\"3-5\",\"4597\",\"37\",\"0\",\"Testing\",\"Stims/Figures/118-J-0-2.bmp\",\"fa:fa:sha\",\"Left\",\"39\",\"2\",\"24\",\"8\",\"C1\",\"J\",\"48\"
\"\",\"\",\"approach-retreat\",\"197\",\"1337075\",\"0.0-197.0\",\"\",\"\",\"3-5\",\"5083\",\"38\",\"0\",\"Testing\",\"Stims/Figures/57-C-30-1.bmp\",\"va:sha:va\",\"Down\",\"40\",\"3\",\"1\",\"8\",\"C1\",\"J\",\"49\"
\"\",\"\",\"approach-retreat\",\"198\",\"1343141\",\"0.0-198.0\",\"\",\"\",\"3-5\",\"4553\",\"39\",\"0\",\"Testing\",\"Stims/Figures/111-C-30-3.bmp\",\"zasaha\",\"Left\",\"37\",\"3\",\"2\",\"8\",\"C2\",\"J\",\"50\"
\"\",\"\",\"approach-retreat\",\"199\",\"1350111\",\"0.0-199.0\",\"\",\"\",\"3-5\",\"5456\",\"38\",\"0\",\"Testing\",\"Stims/Figures/102-C-20-4.bmp\",\"za:saza\",\"Down\",\"40\",\"3\",\"3\",\"8\",\"C2\",\"J\",\"51\"
\"\",\"\",\"approach-retreat\",\"200\",\"1355864\",\"0.0-200.0\",\"\",\"\",\"3-5\",\"4241\",\"39\",\"0\",\"Testing\",\"Stims/Figures/7-J-10-4.bmp\",\"za:ha:ha\",\"Right\",\"37\",\"3\",\"4\",\"8\",\"C2\",\"J\",\"52\"
\"\",\"\",\"approach-retreat\",\"201\",\"1362126\",\"0.0-201.0\",\"\",\"\",\"3-5\",\"4750\",\"38\",\"0\",\"Testing\",\"Stims/Figures/57-J-0-1.bmp\",\"vashasha\",\"Up\",\"40\",\"3\",\"5\",\"8\",\"C1\",\"J\",\"53\"
\"\",\"\",\"approach-retreat\",\"202\",\"1368169\",\"0.0-202.0\",\"\",\"\",\"3-5\",\"4529\",\"38\",\"0\",\"Testing\",\"Stims/Figures/93-J-0-1.bmp\",\"fa:shasha\",\"Up\",\"40\",\"3\",\"6\",\"8\",\"C1\",\"J\",\"54\"
\"\",\"\",\"approach-retreat\",\"203\",\"1373875\",\"0.0-203.0\",\"\",\"\",\"3-5\",\"4194\",\"40\",\"0\",\"Testing\",\"Stims/Figures/100-C-30-3.bmp\",\"saha:ha\",\"Up\",\"38\",\"3\",\"7\",\"8\",\"C2\",\"J\",\"55\"
\"\",\"\",\"approach-retreat\",\"204\",\"1379619\",\"0.0-204.0\",\"\",\"\",\"3-5\",\"4232\",\"39\",\"0\",\"Testing\",\"Stims/Figures/139-C-20-2.bmp\",\"fa:fa:va\",\"Left\",\"37\",\"3\",\"8\",\"8\",\"C1\",\"J\",\"56\"
\"\",\"\",\"approach-retreat\",\"205\",\"1385249\",\"0.0-205.0\",\"\",\"\",\"3-5\",\"4118\",\"37\",\"0\",\"Testing\",\"Stims/Figures/71-C-30-1.bmp\",\"fasha:sha\",\"Right\",\"39\",\"3\",\"9\",\"8\",\"C1\",\"J\",\"57\"
\"\",\"\",\"approach-retreat\",\"206\",\"1390847\",\"0.0-206.0\",\"\",\"\",\"3-5\",\"4076\",\"40\",\"0\",\"Testing\",\"Stims/Figures/93-C-30-1.bmp\",\"fa:fasha\",\"Up\",\"38\",\"3\",\"10\",\"8\",\"C1\",\"J\",\"58\"
\"\",\"\",\"approach-retreat\",\"207\",\"1397109\",\"0.0-207.0\",\"\",\"\",\"3-5\",\"4745\",\"37\",\"0\",\"Testing\",\"Stims/Figures/139-J-0-2.bmp\",\"vashava\",\"Left\",\"39\",\"3\",\"11\",\"8\",\"C1\",\"J\",\"59\"
\"\",\"\",\"approach-retreat\",\"208\",\"1402682\",\"0.0-208.0\",\"\",\"\",\"3-5\",\"4060\",\"40\",\"1\",\"Testing\",\"Stims/Figures/87-J-10-4.bmp\",\"sa:sa:ha\",\"Up\",\"40\",\"3\",\"12\",\"8\",\"C2\",\"J\",\"60\"
\"\",\"\",\"approach-retreat\",\"209\",\"1408893\",\"0.0-209.0\",\"\",\"\",\"3-5\",\"4698\",\"38\",\"0\",\"Testing\",\"Stims/Figures/85-C-20-2.bmp\",\"va:sha:sha\",\"Down\",\"40\",\"3\",\"13\",\"8\",\"C1\",\"J\",\"61\"
\"\",\"\",\"approach-retreat\",\"210\",\"1414655\",\"0.0-210.0\",\"\",\"\",\"3-5\",\"4252\",\"37\",\"0\",\"Testing\",\"Stims/Figures/128-J-10-3.bmp\",\"sa:saha\",\"Left\",\"39\",\"3\",\"14\",\"8\",\"C2\",\"J\",\"62\"
\"\",\"\",\"approach-retreat\",\"211\",\"1420321\",\"0.0-211.0\",\"\",\"\",\"3-5\",\"4151\",\"40\",\"0\",\"Testing\",\"Stims/Figures/100-J-10-3.bmp\",\"sahaha\",\"Down\",\"38\",\"3\",\"15\",\"8\",\"C2\",\"J\",\"63\"
\"\",\"\",\"approach-retreat\",\"212\",\"1425994\",\"0.0-212.0\",\"\",\"\",\"3-5\",\"4161\",\"37\",\"0\",\"Testing\",\"Stims/Figures/128-C-30-3.bmp\",\"za:ha:za\",\"Right\",\"39\",\"3\",\"16\",\"8\",\"C2\",\"J\",\"64\"
\"\",\"\",\"approach-retreat\",\"213\",\"1432169\",\"0.0-213.0\",\"\",\"\",\"3-5\",\"4662\",\"37\",\"1\",\"Testing\",\"Stims/Figures/118-C-20-2.bmp\",\"fa:sha:va\",\"Left\",\"37\",\"3\",\"17\",\"8\",\"C1\",\"J\",\"65\"
\"\",\"\",\"approach-retreat\",\"214\",\"1437762\",\"0.0-214.0\",\"\",\"\",\"3-5\",\"4082\",\"39\",\"0\",\"Testing\",\"Stims/Figures/85-J-0-2.bmp\",\"fashava\",\"Right\",\"37\",\"3\",\"18\",\"8\",\"C1\",\"J\",\"66\"
\"\",\"\",\"approach-retreat\",\"215\",\"1443422\",\"0.0-215.0\",\"\",\"\",\"3-5\",\"4147\",\"39\",\"0\",\"Testing\",\"Stims/Figures/118-J-0-2.bmp\",\"fa:fa:sha\",\"Right\",\"37\",\"3\",\"19\",\"8\",\"C1\",\"J\",\"67\"
\"\",\"\",\"approach-retreat\",\"216\",\"1449120\",\"0.0-216.0\",\"\",\"\",\"3-5\",\"4183\",\"37\",\"0\",\"Testing\",\"Stims/Figures/71-J-0-1.bmp\",\"va:shasha\",\"Left\",\"39\",\"3\",\"20\",\"8\",\"C1\",\"J\",\"68\"
\"\",\"\",\"approach-retreat\",\"217\",\"1454795\",\"0.0-217.0\",\"\",\"\",\"3-5\",\"4163\",\"38\",\"1\",\"Testing\",\"Stims/Figures/102-J-10-4.bmp\",\"sa:saza\",\"Down\",\"38\",\"3\",\"21\",\"8\",\"C2\",\"J\",\"69\"
\"\",\"\",\"approach-retreat\",\"218\",\"1461360\",\"0.0-218.0\",\"\",\"\",\"3-5\",\"5054\",\"40\",\"0\",\"Testing\",\"Stims/Figures/87-C-20-4.bmp\",\"sasa:za\",\"Up\",\"38\",\"3\",\"22\",\"8\",\"C2\",\"J\",\"70\"
\"\",\"\",\"approach-retreat\",\"219\",\"1467110\",\"0.0-219.0\",\"\",\"\",\"3-5\",\"4236\",\"37\",\"0\",\"Testing\",\"Stims/Figures/7-C-20-4.bmp\",\"sa:sa:za\",\"Right\",\"39\",\"3\",\"23\",\"8\",\"C2\",\"J\",\"71\"
\"\",\"\",\"approach-retreat\",\"220\",\"1472799\",\"0.0-220.0\",\"\",\"\",\"3-5\",\"4178\",\"40\",\"0\",\"Testing\",\"Stims/Figures/111-J-10-3.bmp\",\"zaha:za\",\"Down\",\"38\",\"3\",\"24\",\"8\",\"C2\",\"J\",\"72\"
\"\",\"\",\"approach-retreat\",\"221\",\"1478480\",\"0.0-221.0\",\"\",\"\",\"3-5\",\"4168\",\"39\",\"0\",\"Testing\",\"Stims/Figures/71-C-30-1.bmp\",\"fasha:sha\",\"Left\",\"37\",\"4\",\"1\",\"8\",\"C1\",\"J\",\"73\"
\"\",\"\",\"approach-retreat\",\"222\",\"1485319\",\"0.0-222.0\",\"\",\"\",\"3-5\",\"5326\",\"38\",\"1\",\"Testing\",\"Stims/Figures/139-C-20-2.bmp\",\"fa:fa:va\",\"Up\",\"38\",\"4\",\"2\",\"8\",\"C1\",\"J\",\"74\"
\"\",\"\",\"approach-retreat\",\"223\",\"1491339\",\"0.0-223.0\",\"\",\"\",\"3-5\",\"4507\",\"38\",\"1\",\"Testing\",\"Stims/Figures/87-J-10-4.bmp\",\"sa:sa:ha\",\"Down\",\"38\",\"4\",\"3\",\"8\",\"C2\",\"J\",\"75\"
\"\",\"\",\"approach-retreat\",\"224\",\"1497065\",\"0.0-224.0\",\"\",\"\",\"3-5\",\"4214\",\"39\",\"0\",\"Testing\",\"Stims/Figures/100-C-30-3.bmp\",\"saha:ha\",\"Left\",\"37\",\"4\",\"4\",\"8\",\"C2\",\"J\",\"76\"
\"\",\"\",\"approach-retreat\",\"225\",\"1502784\",\"0.0-225.0\",\"\",\"\",\"3-5\",\"4208\",\"37\",\"0\",\"Testing\",\"Stims/Figures/85-J-0-2.bmp\",\"fashava\",\"Left\",\"39\",\"4\",\"5\",\"8\",\"C1\",\"J\",\"77\"
\"\",\"\",\"approach-retreat\",\"226\",\"1508723\",\"0.0-226.0\",\"\",\"\",\"3-5\",\"4428\",\"40\",\"0\",\"Testing\",\"Stims/Figures/111-C-30-3.bmp\",\"zasaha\",\"Up\",\"38\",\"4\",\"6\",\"8\",\"C2\",\"J\",\"78\"
\"\",\"\",\"approach-retreat\",\"227\",\"1514519\",\"0.0-227.0\",\"\",\"\",\"3-5\",\"4283\",\"39\",\"0\",\"Testing\",\"Stims/Figures/118-J-0-2.bmp\",\"fa:fa:sha\",\"Right\",\"37\",\"4\",\"7\",\"8\",\"C1\",\"J\",\"79\"
\"\",\"\",\"approach-retreat\",\"228\",\"1520424\",\"0.0-228.0\",\"\",\"\",\"3-5\",\"4391\",\"40\",\"0\",\"Testing\",\"Stims/Figures/71-J-0-1.bmp\",\"va:shasha\",\"Down\",\"38\",\"4\",\"8\",\"8\",\"C1\",\"J\",\"80\"
\"\",\"\",\"approach-retreat\",\"229\",\"1526969\",\"0.0-229.0\",\"\",\"\",\"3-5\",\"5032\",\"39\",\"1\",\"Testing\",\"Stims/Figures/7-J-10-4.bmp\",\"za:ha:ha\",\"Left\",\"39\",\"4\",\"9\",\"8\",\"C2\",\"J\",\"81\"
\"\",\"\",\"approach-retreat\",\"230\",\"1532605\",\"0.0-230.0\",\"\",\"\",\"3-5\",\"4124\",\"37\",\"0\",\"Testing\",\"Stims/Figures/139-J-0-2.bmp\",\"vashava\",\"Left\",\"39\",\"4\",\"10\",\"8\",\"C1\",\"J\",\"82\"
\"\",\"\",\"approach-retreat\",\"231\",\"1538494\",\"0.0-231.0\",\"\",\"\",\"3-5\",\"4375\",\"37\",\"1\",\"Testing\",\"Stims/Figures/111-J-10-3.bmp\",\"zaha:za\",\"Right\",\"37\",\"4\",\"11\",\"8\",\"C2\",\"J\",\"83\"
\"\",\"\",\"approach-retreat\",\"232\",\"1544275\",\"0.0-232.0\",\"\",\"\",\"3-5\",\"4268\",\"40\",\"0\",\"Testing\",\"Stims/Figures/57-J-0-1.bmp\",\"vashasha\",\"Down\",\"38\",\"4\",\"12\",\"8\",\"C1\",\"J\",\"84\"
\"\",\"\",\"approach-retreat\",\"233\",\"1550075\",\"0.0-233.0\",\"\",\"\",\"3-5\",\"4287\",\"37\",\"0\",\"Testing\",\"Stims/Figures/128-C-30-3.bmp\",\"za:ha:za\",\"Right\",\"39\",\"4\",\"13\",\"8\",\"C2\",\"J\",\"85\"
\"\",\"\",\"approach-retreat\",\"234\",\"1555749\",\"0.0-234.0\",\"\",\"\",\"3-5\",\"4163\",\"39\",\"0\",\"Testing\",\"Stims/Figures/100-J-10-3.bmp\",\"sahaha\",\"Right\",\"37\",\"4\",\"14\",\"8\",\"C2\",\"J\",\"86\"
\"\",\"\",\"approach-retreat\",\"235\",\"1561617\",\"0.0-235.0\",\"\",\"\",\"3-5\",\"4357\",\"39\",\"0\",\"Testing\",\"Stims/Figures/102-C-20-4.bmp\",\"za:saza\",\"Left\",\"37\",\"4\",\"15\",\"8\",\"C2\",\"J\",\"87\"
\"\",\"\",\"approach-retreat\",\"236\",\"1567206\",\"0.0-236.0\",\"\",\"\",\"3-5\",\"4074\",\"37\",\"0\",\"Testing\",\"Stims/Figures/7-C-20-4.bmp\",\"sa:sa:za\",\"Right\",\"39\",\"4\",\"16\",\"8\",\"C2\",\"J\",\"88\"
\"\",\"\",\"approach-retreat\",\"237\",\"1572769\",\"0.0-237.0\",\"\",\"\",\"3-5\",\"4052\",\"37\",\"1\",\"Testing\",\"Stims/Figures/128-J-10-3.bmp\",\"sa:saha\",\"Right\",\"37\",\"4\",\"17\",\"8\",\"C2\",\"J\",\"89\"
\"\",\"\",\"approach-retreat\",\"238\",\"1578428\",\"0.0-238.0\",\"\",\"\",\"3-5\",\"4146\",\"40\",\"0\",\"Testing\",\"Stims/Figures/57-C-30-1.bmp\",\"va:sha:va\",\"Up\",\"38\",\"4\",\"18\",\"8\",\"C1\",\"J\",\"90\"
\"\",\"\",\"approach-retreat\",\"239\",\"1584248\",\"0.0-239.0\",\"\",\"\",\"3-5\",\"4308\",\"40\",\"0\",\"Testing\",\"Stims/Figures/87-C-20-4.bmp\",\"sasa:za\",\"Up\",\"38\",\"4\",\"19\",\"8\",\"C2\",\"J\",\"91\"
\"\",\"\",\"approach-retreat\",\"240\",\"1589811\",\"0.0-240.0\",\"\",\"\",\"3-5\",\"4052\",\"40\",\"0\",\"Testing\",\"Stims/Figures/118-C-20-2.bmp\",\"fa:sha:va\",\"Up\",\"38\",\"4\",\"20\",\"8\",\"C1\",\"J\",\"92\"
\"\",\"\",\"approach-retreat\",\"241\",\"1595986\",\"0.0-241.0\",\"\",\"\",\"3-5\",\"4663\",\"38\",\"1\",\"Testing\",\"Stims/Figures/85-C-20-2.bmp\",\"va:sha:sha\",\"Up\",\"38\",\"4\",\"21\",\"8\",\"C1\",\"J\",\"93\"
\"\",\"\",\"approach-retreat\",\"242\",\"1603047\",\"0.0-242.0\",\"\",\"\",\"3-5\",\"5548\",\"38\",\"0\",\"Testing\",\"Stims/Figures/93-C-30-1.bmp\",\"fa:fasha\",\"Down\",\"40\",\"4\",\"22\",\"8\",\"C1\",\"J\",\"94\"
\"\",\"\",\"approach-retreat\",\"243\",\"1609477\",\"0.0-243.0\",\"\",\"\",\"3-5\",\"4918\",\"38\",\"1\",\"Testing\",\"Stims/Figures/102-J-10-4.bmp\",\"sa:saza\",\"Down\",\"38\",\"4\",\"23\",\"8\",\"C2\",\"J\",\"95\"
\"\",\"\",\"approach-retreat\",\"244\",\"1615088\",\"0.0-244.0\",\"\",\"\",\"3-5\",\"4099\",\"40\",\"0\",\"Testing\",\"Stims/Figures/93-J-0-1.bmp\",\"fa:shasha\",\"Down\",\"38\",\"4\",\"24\",\"8\",\"C1\",\"J\",\"96\"
\"21999\",\"\",\"survey-text\",\"245\",\"1637099\",\"0.0-245.0\",\"\",\"{\"\"Q0\"\":\"\"PS160060\"\"}\",\"\",\"\",\"\",\"\",\"\",\"\",\"\",\"\",\"\",\"\",\"\",\"\",\"\",\"\",\"\"
