\"rt\",\"key_press\",\"trial_type\",\"trial_index\",\"time_elapsed\",\"internal_node_id\",\"view_history\",\"responses\",\"Id\",\"Rt\",\"ResKeyCode\",\"ResCorr\",\"TrialType2\",\"Image\",\"Label\",\"Location\",\"CorrectResponse\",\"Block\",\"BlockTrial\",\"Condition\",\"LabelType\",\"Subcondition\",\"trialNum\"
\"5385\",\"32\",\"text\",\"0\",\"5388\",\"0.0-0.0-0.0\",\"\",\"\",\"\",\"\",\"\",\"\",\"\",\"\",\"\",\"\",\"\",\"\",\"\",\"\",\"\",\"\",\"\"
\"38933\",\"\",\"instructions\",\"1\",\"44323\",\"0.0-1.0\",\"[{\"\"page_index\"\":0,\"\"viewing_time\"\":38933}]\",\"\",\"\",\"\",\"\",\"\",\"\",\"\",\"\",\"\",\"\",\"\",\"\",\"\",\"\",\"\",\"\"
\"23834\",\"\",\"survey-multi-choice\",\"2\",\"68178\",\"0.0-2.0\",\"\",\"{\"\"Q0\"\":\"\"Da\"\",\"\"Q1\"\":\"\"Da\"\",\"\"Q2\"\":\"\"Da\"\",\"\"Q3\"\":\"\"Da\"\",\"\"Q4\"\":\"\"Da\"\",\"\"Q5\"\":\"\"Da\"\"}\",\"\",\"\",\"\",\"\",\"\",\"\",\"\",\"\",\"\",\"\",\"\",\"\",\"\",\"\",\"\"
\"\",\"\",\"bio\",\"3\",\"76709\",\"0.0-3.0\",\"\",\"{\"\"age\"\":\"\"19\"\",\"\"gender\"\":\"\"f\"\",\"\"specify\"\":\"\"\"\"}\",\"\",\"\",\"\",\"\",\"\",\"\",\"\",\"\",\"\",\"\",\"\",\"\",\"\",\"\",\"\"
\"\",\"\",\"approach-retreat\",\"4\",\"84944\",\"0.0-4.0\",\"\",\"\",\"3-4\",\"6728\",\"40\",\"1\",\"Training\",\"Stims/Figures/74-C-20-4.bmp\",\"zasa:ha\",\"Up\",\"40\",\"1\",\"1\",\"3A\",\"C2\",\"C\",\"1\"
\"\",\"\",\"approach-retreat\",\"5\",\"90965\",\"0.0-5.0\",\"\",\"\",\"3-4\",\"4508\",\"39\",\"1\",\"Training\",\"Stims/Figures/128-C-30-3.bmp\",\"zasa:ha\",\"Left\",\"39\",\"1\",\"2\",\"3A\",\"C2\",\"C\",\"2\"
\"\",\"\",\"approach-retreat\",\"6\",\"96594\",\"0.0-6.0\",\"\",\"\",\"3-4\",\"4124\",\"39\",\"1\",\"Training\",\"Stims/Figures/111-C-30-3.bmp\",\"zasa:ha\",\"Left\",\"39\",\"1\",\"3\",\"3A\",\"C2\",\"C\",\"3\"
\"\",\"\",\"approach-retreat\",\"7\",\"102234\",\"0.0-7.0\",\"\",\"\",\"3-4\",\"4134\",\"39\",\"0\",\"Training\",\"Stims/Figures/139-J-0-2.bmp\",\"fashava\",\"Left\",\"37\",\"1\",\"4\",\"3A\",\"C1\",\"C\",\"4\"
\"\",\"\",\"approach-retreat\",\"8\",\"107950\",\"0.0-8.0\",\"\",\"\",\"3-4\",\"4208\",\"40\",\"1\",\"Training\",\"Stims/Figures/87-C-20-4.bmp\",\"zasa:ha\",\"Up\",\"40\",\"1\",\"5\",\"3A\",\"C2\",\"C\",\"5\"
\"\",\"\",\"approach-retreat\",\"9\",\"113817\",\"0.0-9.0\",\"\",\"\",\"3-4\",\"4355\",\"40\",\"1\",\"Training\",\"Stims/Figures/87-J-10-4.bmp\",\"fashava\",\"Down\",\"40\",\"1\",\"6\",\"3A\",\"C1\",\"C\",\"6\"
\"\",\"\",\"approach-retreat\",\"10\",\"119540\",\"0.0-10.0\",\"\",\"\",\"3-4\",\"4214\",\"38\",\"1\",\"Training\",\"Stims/Figures/57-C-30-1.bmp\",\"zasa:ha\",\"Down\",\"38\",\"1\",\"7\",\"3A\",\"C2\",\"C\",\"7\"
\"\",\"\",\"approach-retreat\",\"11\",\"125227\",\"0.0-11.0\",\"\",\"\",\"3-4\",\"4182\",\"40\",\"1\",\"Training\",\"Stims/Figures/139-C-20-2.bmp\",\"zasa:ha\",\"Up\",\"40\",\"1\",\"8\",\"3A\",\"C2\",\"C\",\"8\"
\"\",\"\",\"approach-retreat\",\"12\",\"130582\",\"0.0-12.0\",\"\",\"\",\"3-4\",\"3847\",\"40\",\"0\",\"Training\",\"Stims/Figures/57-J-0-1.bmp\",\"fashava\",\"Up\",\"38\",\"1\",\"9\",\"3A\",\"C1\",\"C\",\"9\"
\"\",\"\",\"approach-retreat\",\"13\",\"136867\",\"0.0-13.0\",\"\",\"\",\"3-4\",\"4780\",\"37\",\"1\",\"Training\",\"Stims/Figures/93-C-30-1.bmp\",\"zasa:ha\",\"Right\",\"37\",\"1\",\"10\",\"3A\",\"C2\",\"C\",\"10\"
\"\",\"\",\"approach-retreat\",\"14\",\"143125\",\"0.0-14.0\",\"\",\"\",\"3-4\",\"4749\",\"37\",\"1\",\"Training\",\"Stims/Figures/128-J-10-3.bmp\",\"fashava\",\"Left\",\"37\",\"1\",\"11\",\"3A\",\"C1\",\"C\",\"11\"
\"\",\"\",\"approach-retreat\",\"15\",\"148702\",\"0.0-15.0\",\"\",\"\",\"3-4\",\"4069\",\"40\",\"1\",\"Training\",\"Stims/Figures/93-J-0-1.bmp\",\"fashava\",\"Down\",\"40\",\"1\",\"12\",\"3A\",\"C1\",\"C\",\"12\"
\"\",\"\",\"approach-retreat\",\"16\",\"154461\",\"0.0-16.0\",\"\",\"\",\"3-4\",\"4248\",\"37\",\"1\",\"Training\",\"Stims/Figures/118-C-20-2.bmp\",\"zasa:ha\",\"Right\",\"37\",\"1\",\"13\",\"3A\",\"C2\",\"C\",\"13\"
\"\",\"\",\"approach-retreat\",\"17\",\"159831\",\"0.0-17.0\",\"\",\"\",\"3-4\",\"3863\",\"40\",\"1\",\"Training\",\"Stims/Figures/74-J-10-4.bmp\",\"fashava\",\"Down\",\"40\",\"1\",\"14\",\"3A\",\"C1\",\"C\",\"14\"
\"\",\"\",\"approach-retreat\",\"18\",\"165648\",\"0.0-18.0\",\"\",\"\",\"3-4\",\"4310\",\"39\",\"1\",\"Training\",\"Stims/Figures/118-J-0-2.bmp\",\"fashava\",\"Right\",\"39\",\"1\",\"15\",\"3A\",\"C1\",\"C\",\"15\"
\"\",\"\",\"approach-retreat\",\"19\",\"171647\",\"0.0-19.0\",\"\",\"\",\"3-4\",\"4491\",\"39\",\"1\",\"Training\",\"Stims/Figures/111-J-10-3.bmp\",\"fashava\",\"Right\",\"39\",\"1\",\"16\",\"3A\",\"C1\",\"C\",\"16\"
\"\",\"\",\"approach-retreat\",\"20\",\"177208\",\"0.0-20.0\",\"\",\"\",\"3-4\",\"4055\",\"40\",\"0\",\"Training\",\"Stims/Figures/93-J-0-1.bmp\",\"fashava\",\"Up\",\"38\",\"2\",\"1\",\"3A\",\"C1\",\"C\",\"17\"
\"\",\"\",\"approach-retreat\",\"21\",\"182745\",\"0.0-21.0\",\"\",\"\",\"3-4\",\"4031\",\"40\",\"1\",\"Training\",\"Stims/Figures/57-J-0-1.bmp\",\"fashava\",\"Down\",\"40\",\"2\",\"2\",\"3A\",\"C1\",\"C\",\"18\"
\"\",\"\",\"approach-retreat\",\"22\",\"188883\",\"0.0-22.0\",\"\",\"\",\"3-4\",\"4633\",\"39\",\"1\",\"Training\",\"Stims/Figures/118-C-20-2.bmp\",\"zasa:ha\",\"Left\",\"39\",\"2\",\"3\",\"3A\",\"C2\",\"C\",\"19\"
\"\",\"\",\"approach-retreat\",\"23\",\"194636\",\"0.0-23.0\",\"\",\"\",\"3-4\",\"4246\",\"40\",\"1\",\"Training\",\"Stims/Figures/74-J-10-4.bmp\",\"fashava\",\"Down\",\"40\",\"2\",\"4\",\"3A\",\"C1\",\"C\",\"20\"
\"\",\"\",\"approach-retreat\",\"24\",\"200243\",\"0.0-24.0\",\"\",\"\",\"3-4\",\"4102\",\"39\",\"1\",\"Training\",\"Stims/Figures/139-J-0-2.bmp\",\"fashava\",\"Right\",\"39\",\"2\",\"5\",\"3A\",\"C1\",\"C\",\"21\"
\"\",\"\",\"approach-retreat\",\"25\",\"205755\",\"0.0-25.0\",\"\",\"\",\"3-4\",\"4006\",\"40\",\"0\",\"Training\",\"Stims/Figures/74-C-20-4.bmp\",\"zasa:ha\",\"Down\",\"38\",\"2\",\"6\",\"3A\",\"C2\",\"C\",\"22\"
\"\",\"\",\"approach-retreat\",\"26\",\"211568\",\"0.0-26.0\",\"\",\"\",\"3-4\",\"4310\",\"39\",\"1\",\"Training\",\"Stims/Figures/111-J-10-3.bmp\",\"fashava\",\"Right\",\"39\",\"2\",\"7\",\"3A\",\"C1\",\"C\",\"23\"
\"\",\"\",\"approach-retreat\",\"27\",\"217992\",\"0.0-27.0\",\"\",\"\",\"3-4\",\"4914\",\"39\",\"1\",\"Training\",\"Stims/Figures/139-C-20-2.bmp\",\"zasa:ha\",\"Left\",\"39\",\"2\",\"8\",\"3A\",\"C2\",\"C\",\"24\"
\"\",\"\",\"approach-retreat\",\"28\",\"223495\",\"0.0-28.0\",\"\",\"\",\"3-4\",\"3996\",\"39\",\"1\",\"Training\",\"Stims/Figures/93-C-30-1.bmp\",\"zasa:ha\",\"Left\",\"39\",\"2\",\"9\",\"3A\",\"C2\",\"C\",\"25\"
\"\",\"\",\"approach-retreat\",\"29\",\"229218\",\"0.0-29.0\",\"\",\"\",\"3-4\",\"4214\",\"40\",\"1\",\"Training\",\"Stims/Figures/111-C-30-3.bmp\",\"zasa:ha\",\"Up\",\"40\",\"2\",\"10\",\"3A\",\"C2\",\"C\",\"26\"
\"\",\"\",\"approach-retreat\",\"30\",\"234749\",\"0.0-30.0\",\"\",\"\",\"3-4\",\"4023\",\"40\",\"1\",\"Training\",\"Stims/Figures/87-J-10-4.bmp\",\"fashava\",\"Down\",\"40\",\"2\",\"11\",\"3A\",\"C1\",\"C\",\"27\"
\"\",\"\",\"approach-retreat\",\"31\",\"240370\",\"0.0-31.0\",\"\",\"\",\"3-4\",\"4115\",\"37\",\"1\",\"Training\",\"Stims/Figures/57-C-30-1.bmp\",\"zasa:ha\",\"Right\",\"37\",\"2\",\"12\",\"3A\",\"C2\",\"C\",\"28\"
\"\",\"\",\"approach-retreat\",\"32\",\"246491\",\"0.0-32.0\",\"\",\"\",\"3-4\",\"4615\",\"37\",\"1\",\"Training\",\"Stims/Figures/118-J-0-2.bmp\",\"fashava\",\"Left\",\"37\",\"2\",\"13\",\"3A\",\"C1\",\"C\",\"29\"
\"\",\"\",\"approach-retreat\",\"33\",\"252453\",\"0.0-33.0\",\"\",\"\",\"3-4\",\"4457\",\"40\",\"0\",\"Training\",\"Stims/Figures/128-J-10-3.bmp\",\"fashava\",\"Up\",\"38\",\"2\",\"14\",\"3A\",\"C1\",\"C\",\"30\"
\"\",\"\",\"approach-retreat\",\"34\",\"258350\",\"0.0-34.0\",\"\",\"\",\"3-4\",\"4390\",\"40\",\"1\",\"Training\",\"Stims/Figures/87-C-20-4.bmp\",\"zasa:ha\",\"Up\",\"40\",\"2\",\"15\",\"3A\",\"C2\",\"C\",\"31\"
\"\",\"\",\"approach-retreat\",\"35\",\"264322\",\"0.0-35.0\",\"\",\"\",\"3-4\",\"4465\",\"37\",\"1\",\"Training\",\"Stims/Figures/128-C-30-3.bmp\",\"zasa:ha\",\"Right\",\"37\",\"2\",\"16\",\"3A\",\"C2\",\"C\",\"32\"
\"\",\"\",\"approach-retreat\",\"36\",\"269881\",\"0.0-36.0\",\"\",\"\",\"3-4\",\"4051\",\"37\",\"1\",\"Training\",\"Stims/Figures/74-J-10-4.bmp\",\"fashava\",\"Left\",\"37\",\"3\",\"1\",\"3A\",\"C1\",\"C\",\"33\"
\"\",\"\",\"approach-retreat\",\"37\",\"275290\",\"0.0-37.0\",\"\",\"\",\"3-4\",\"3902\",\"37\",\"1\",\"Training\",\"Stims/Figures/87-J-10-4.bmp\",\"fashava\",\"Left\",\"37\",\"3\",\"2\",\"3A\",\"C1\",\"C\",\"34\"
\"\",\"\",\"approach-retreat\",\"38\",\"280765\",\"0.0-38.0\",\"\",\"\",\"3-4\",\"3964\",\"40\",\"1\",\"Training\",\"Stims/Figures/57-J-0-1.bmp\",\"fashava\",\"Down\",\"40\",\"3\",\"3\",\"3A\",\"C1\",\"C\",\"35\"
\"\",\"\",\"approach-retreat\",\"39\",\"286330\",\"0.0-39.0\",\"\",\"\",\"3-4\",\"4060\",\"40\",\"0\",\"Training\",\"Stims/Figures/87-C-20-4.bmp\",\"zasa:ha\",\"Down\",\"38\",\"3\",\"4\",\"3A\",\"C2\",\"C\",\"36\"
\"\",\"\",\"approach-retreat\",\"40\",\"291927\",\"0.0-40.0\",\"\",\"\",\"3-4\",\"4092\",\"38\",\"1\",\"Training\",\"Stims/Figures/111-C-30-3.bmp\",\"zasa:ha\",\"Down\",\"38\",\"3\",\"5\",\"3A\",\"C2\",\"C\",\"37\"
\"\",\"\",\"approach-retreat\",\"41\",\"297462\",\"0.0-41.0\",\"\",\"\",\"3-4\",\"4029\",\"38\",\"1\",\"Training\",\"Stims/Figures/128-C-30-3.bmp\",\"zasa:ha\",\"Down\",\"38\",\"3\",\"6\",\"3A\",\"C2\",\"C\",\"38\"
\"\",\"\",\"approach-retreat\",\"42\",\"303170\",\"0.0-42.0\",\"\",\"\",\"3-4\",\"4198\",\"37\",\"1\",\"Training\",\"Stims/Figures/139-C-20-2.bmp\",\"zasa:ha\",\"Right\",\"37\",\"3\",\"7\",\"3A\",\"C2\",\"C\",\"39\"
\"\",\"\",\"approach-retreat\",\"43\",\"309709\",\"0.0-43.0\",\"\",\"\",\"3-4\",\"5025\",\"38\",\"1\",\"Training\",\"Stims/Figures/118-J-0-2.bmp\",\"fashava\",\"Up\",\"38\",\"3\",\"8\",\"3A\",\"C1\",\"C\",\"40\"
\"\",\"\",\"approach-retreat\",\"44\",\"315175\",\"0.0-44.0\",\"\",\"\",\"3-4\",\"3958\",\"40\",\"1\",\"Training\",\"Stims/Figures/57-C-30-1.bmp\",\"zasa:ha\",\"Up\",\"40\",\"3\",\"9\",\"3A\",\"C2\",\"C\",\"41\"
\"\",\"\",\"approach-retreat\",\"45\",\"321241\",\"0.0-45.0\",\"\",\"\",\"3-4\",\"4558\",\"39\",\"1\",\"Training\",\"Stims/Figures/74-C-20-4.bmp\",\"zasa:ha\",\"Left\",\"39\",\"3\",\"10\",\"3A\",\"C2\",\"C\",\"42\"
\"\",\"\",\"approach-retreat\",\"46\",\"327595\",\"0.0-46.0\",\"\",\"\",\"3-4\",\"4843\",\"37\",\"1\",\"Training\",\"Stims/Figures/93-C-30-1.bmp\",\"zasa:ha\",\"Right\",\"37\",\"3\",\"11\",\"3A\",\"C2\",\"C\",\"43\"
\"\",\"\",\"approach-retreat\",\"47\",\"333660\",\"0.0-47.0\",\"\",\"\",\"3-4\",\"4555\",\"37\",\"1\",\"Training\",\"Stims/Figures/139-J-0-2.bmp\",\"fashava\",\"Left\",\"37\",\"3\",\"12\",\"3A\",\"C1\",\"C\",\"44\"
\"\",\"\",\"approach-retreat\",\"48\",\"339796\",\"0.0-48.0\",\"\",\"\",\"3-4\",\"4630\",\"40\",\"1\",\"Training\",\"Stims/Figures/118-C-20-2.bmp\",\"zasa:ha\",\"Up\",\"40\",\"3\",\"13\",\"3A\",\"C2\",\"C\",\"45\"
\"\",\"\",\"approach-retreat\",\"49\",\"345647\",\"0.0-49.0\",\"\",\"\",\"3-4\",\"4344\",\"39\",\"1\",\"Training\",\"Stims/Figures/111-J-10-3.bmp\",\"fashava\",\"Right\",\"39\",\"3\",\"14\",\"3A\",\"C1\",\"C\",\"46\"
\"\",\"\",\"approach-retreat\",\"50\",\"351197\",\"0.0-50.0\",\"\",\"\",\"3-4\",\"4040\",\"39\",\"1\",\"Training\",\"Stims/Figures/93-J-0-1.bmp\",\"fashava\",\"Right\",\"39\",\"3\",\"15\",\"3A\",\"C1\",\"C\",\"47\"
\"\",\"\",\"approach-retreat\",\"51\",\"358113\",\"0.0-51.0\",\"\",\"\",\"3-4\",\"5410\",\"38\",\"1\",\"Training\",\"Stims/Figures/128-J-10-3.bmp\",\"fashava\",\"Up\",\"38\",\"3\",\"16\",\"3A\",\"C1\",\"C\",\"48\"
\"\",\"\",\"approach-retreat\",\"52\",\"364100\",\"0.0-52.0\",\"\",\"\",\"3-4\",\"4483\",\"38\",\"1\",\"Training\",\"Stims/Figures/139-C-20-2.bmp\",\"zasa:ha\",\"Down\",\"38\",\"4\",\"1\",\"3A\",\"C2\",\"C\",\"49\"
\"\",\"\",\"approach-retreat\",\"53\",\"369854\",\"0.0-53.0\",\"\",\"\",\"3-4\",\"4246\",\"37\",\"1\",\"Training\",\"Stims/Figures/74-J-10-4.bmp\",\"fashava\",\"Left\",\"37\",\"4\",\"2\",\"3A\",\"C1\",\"C\",\"50\"
\"\",\"\",\"approach-retreat\",\"54\",\"375377\",\"0.0-54.0\",\"\",\"\",\"3-4\",\"4011\",\"39\",\"1\",\"Training\",\"Stims/Figures/74-C-20-4.bmp\",\"zasa:ha\",\"Left\",\"39\",\"4\",\"3\",\"3A\",\"C2\",\"C\",\"51\"
\"\",\"\",\"approach-retreat\",\"55\",\"381105\",\"0.0-55.0\",\"\",\"\",\"3-4\",\"4223\",\"37\",\"0\",\"Training\",\"Stims/Figures/57-J-0-1.bmp\",\"fashava\",\"Right\",\"39\",\"4\",\"4\",\"3A\",\"C1\",\"C\",\"52\"
\"\",\"\",\"approach-retreat\",\"56\",\"388304\",\"0.0-56.0\",\"\",\"\",\"3-4\",\"5688\",\"40\",\"1\",\"Training\",\"Stims/Figures/87-J-10-4.bmp\",\"fashava\",\"Down\",\"40\",\"4\",\"5\",\"3A\",\"C1\",\"C\",\"53\"
\"\",\"\",\"approach-retreat\",\"57\",\"394267\",\"0.0-57.0\",\"\",\"\",\"3-4\",\"4457\",\"40\",\"1\",\"Training\",\"Stims/Figures/111-C-30-3.bmp\",\"zasa:ha\",\"Up\",\"40\",\"4\",\"6\",\"3A\",\"C2\",\"C\",\"54\"
\"\",\"\",\"approach-retreat\",\"58\",\"400073\",\"0.0-58.0\",\"\",\"\",\"3-4\",\"4294\",\"37\",\"1\",\"Training\",\"Stims/Figures/87-C-20-4.bmp\",\"zasa:ha\",\"Right\",\"37\",\"4\",\"7\",\"3A\",\"C2\",\"C\",\"55\"
\"\",\"\",\"approach-retreat\",\"59\",\"405782\",\"0.0-59.0\",\"\",\"\",\"3-4\",\"4204\",\"37\",\"1\",\"Training\",\"Stims/Figures/139-J-0-2.bmp\",\"fashava\",\"Left\",\"37\",\"4\",\"8\",\"3A\",\"C1\",\"C\",\"56\"
\"\",\"\",\"approach-retreat\",\"60\",\"411794\",\"0.0-60.0\",\"\",\"\",\"3-4\",\"4506\",\"40\",\"1\",\"Training\",\"Stims/Figures/128-C-30-3.bmp\",\"zasa:ha\",\"Up\",\"40\",\"4\",\"9\",\"3A\",\"C2\",\"C\",\"57\"
\"\",\"\",\"approach-retreat\",\"61\",\"417685\",\"0.0-61.0\",\"\",\"\",\"3-4\",\"4384\",\"39\",\"1\",\"Training\",\"Stims/Figures/118-J-0-2.bmp\",\"fashava\",\"Right\",\"39\",\"4\",\"10\",\"3A\",\"C1\",\"C\",\"58\"
\"\",\"\",\"approach-retreat\",\"62\",\"424026\",\"0.0-62.0\",\"\",\"\",\"3-4\",\"4838\",\"38\",\"1\",\"Training\",\"Stims/Figures/93-J-0-1.bmp\",\"fashava\",\"Up\",\"38\",\"4\",\"11\",\"3A\",\"C1\",\"C\",\"59\"
\"\",\"\",\"approach-retreat\",\"63\",\"430103\",\"0.0-63.0\",\"\",\"\",\"3-4\",\"4567\",\"40\",\"1\",\"Training\",\"Stims/Figures/118-C-20-2.bmp\",\"zasa:ha\",\"Up\",\"40\",\"4\",\"12\",\"3A\",\"C2\",\"C\",\"60\"
\"\",\"\",\"approach-retreat\",\"64\",\"436202\",\"0.0-64.0\",\"\",\"\",\"3-4\",\"4594\",\"37\",\"1\",\"Training\",\"Stims/Figures/93-C-30-1.bmp\",\"zasa:ha\",\"Right\",\"37\",\"4\",\"13\",\"3A\",\"C2\",\"C\",\"61\"
\"\",\"\",\"approach-retreat\",\"65\",\"441638\",\"0.0-65.0\",\"\",\"\",\"3-4\",\"3929\",\"40\",\"1\",\"Training\",\"Stims/Figures/111-J-10-3.bmp\",\"fashava\",\"Down\",\"40\",\"4\",\"14\",\"3A\",\"C1\",\"C\",\"62\"
\"\",\"\",\"approach-retreat\",\"66\",\"447580\",\"0.0-66.0\",\"\",\"\",\"3-4\",\"4435\",\"39\",\"0\",\"Training\",\"Stims/Figures/128-J-10-3.bmp\",\"fashava\",\"Left\",\"37\",\"4\",\"15\",\"3A\",\"C1\",\"C\",\"63\"
\"\",\"\",\"approach-retreat\",\"67\",\"452977\",\"0.0-67.0\",\"\",\"\",\"3-4\",\"3891\",\"38\",\"1\",\"Training\",\"Stims/Figures/57-C-30-1.bmp\",\"zasa:ha\",\"Down\",\"38\",\"4\",\"16\",\"3A\",\"C2\",\"C\",\"64\"
\"\",\"\",\"approach-retreat\",\"68\",\"458520\",\"0.0-68.0\",\"\",\"\",\"3-4\",\"4033\",\"37\",\"1\",\"Training\",\"Stims/Figures/93-J-0-1.bmp\",\"fashava\",\"Left\",\"37\",\"5\",\"1\",\"3A\",\"C1\",\"C\",\"65\"
\"\",\"\",\"approach-retreat\",\"69\",\"464585\",\"0.0-69.0\",\"\",\"\",\"3-4\",\"4556\",\"39\",\"1\",\"Training\",\"Stims/Figures/87-C-20-4.bmp\",\"zasa:ha\",\"Left\",\"39\",\"5\",\"2\",\"3A\",\"C2\",\"C\",\"66\"
\"\",\"\",\"approach-retreat\",\"70\",\"470406\",\"0.0-70.0\",\"\",\"\",\"3-4\",\"4310\",\"39\",\"1\",\"Training\",\"Stims/Figures/111-C-30-3.bmp\",\"zasa:ha\",\"Left\",\"39\",\"5\",\"3\",\"3A\",\"C2\",\"C\",\"67\"
\"\",\"\",\"approach-retreat\",\"71\",\"476159\",\"0.0-71.0\",\"\",\"\",\"3-4\",\"4248\",\"40\",\"1\",\"Training\",\"Stims/Figures/139-J-0-2.bmp\",\"fashava\",\"Down\",\"40\",\"5\",\"4\",\"3A\",\"C1\",\"C\",\"68\"
\"\",\"\",\"approach-retreat\",\"72\",\"481858\",\"0.0-72.0\",\"\",\"\",\"3-4\",\"4187\",\"37\",\"0\",\"Training\",\"Stims/Figures/111-J-10-3.bmp\",\"fashava\",\"Right\",\"39\",\"5\",\"5\",\"3A\",\"C1\",\"C\",\"69\"
\"\",\"\",\"approach-retreat\",\"73\",\"487637\",\"0.0-73.0\",\"\",\"\",\"3-4\",\"4271\",\"38\",\"1\",\"Training\",\"Stims/Figures/57-J-0-1.bmp\",\"fashava\",\"Up\",\"38\",\"5\",\"6\",\"3A\",\"C1\",\"C\",\"70\"
\"\",\"\",\"approach-retreat\",\"74\",\"493234\",\"0.0-74.0\",\"\",\"\",\"3-4\",\"4086\",\"37\",\"1\",\"Training\",\"Stims/Figures/57-C-30-1.bmp\",\"zasa:ha\",\"Right\",\"37\",\"5\",\"7\",\"3A\",\"C2\",\"C\",\"71\"
\"\",\"\",\"approach-retreat\",\"75\",\"499186\",\"0.0-75.0\",\"\",\"\",\"3-4\",\"4445\",\"39\",\"1\",\"Training\",\"Stims/Figures/87-J-10-4.bmp\",\"fashava\",\"Right\",\"39\",\"5\",\"8\",\"3A\",\"C1\",\"C\",\"72\"
\"\",\"\",\"approach-retreat\",\"76\",\"505232\",\"0.0-76.0\",\"\",\"\",\"3-4\",\"4541\",\"40\",\"1\",\"Training\",\"Stims/Figures/118-C-20-2.bmp\",\"zasa:ha\",\"Up\",\"40\",\"5\",\"9\",\"3A\",\"C2\",\"C\",\"73\"
\"\",\"\",\"approach-retreat\",\"77\",\"510996\",\"0.0-77.0\",\"\",\"\",\"3-4\",\"4256\",\"40\",\"1\",\"Training\",\"Stims/Figures/128-C-30-3.bmp\",\"zasa:ha\",\"Up\",\"40\",\"5\",\"10\",\"3A\",\"C2\",\"C\",\"74\"
\"\",\"\",\"approach-retreat\",\"78\",\"516768\",\"0.0-78.0\",\"\",\"\",\"3-4\",\"4262\",\"40\",\"1\",\"Training\",\"Stims/Figures/93-C-30-1.bmp\",\"zasa:ha\",\"Up\",\"40\",\"5\",\"11\",\"3A\",\"C2\",\"C\",\"75\"
\"\",\"\",\"approach-retreat\",\"79\",\"522429\",\"0.0-79.0\",\"\",\"\",\"3-4\",\"4154\",\"38\",\"1\",\"Training\",\"Stims/Figures/74-C-20-4.bmp\",\"zasa:ha\",\"Down\",\"38\",\"5\",\"12\",\"3A\",\"C2\",\"C\",\"76\"
\"\",\"\",\"approach-retreat\",\"80\",\"528672\",\"0.0-80.0\",\"\",\"\",\"3-4\",\"4733\",\"40\",\"1\",\"Training\",\"Stims/Figures/118-J-0-2.bmp\",\"fashava\",\"Down\",\"40\",\"5\",\"13\",\"3A\",\"C1\",\"C\",\"77\"
\"\",\"\",\"approach-retreat\",\"81\",\"535569\",\"0.0-81.0\",\"\",\"\",\"3-4\",\"5390\",\"39\",\"1\",\"Training\",\"Stims/Figures/128-J-10-3.bmp\",\"fashava\",\"Right\",\"39\",\"5\",\"14\",\"3A\",\"C1\",\"C\",\"78\"
\"\",\"\",\"approach-retreat\",\"82\",\"541362\",\"0.0-82.0\",\"\",\"\",\"3-4\",\"4285\",\"39\",\"1\",\"Training\",\"Stims/Figures/139-C-20-2.bmp\",\"zasa:ha\",\"Left\",\"39\",\"5\",\"15\",\"3A\",\"C2\",\"C\",\"79\"
\"\",\"\",\"approach-retreat\",\"83\",\"547423\",\"0.0-83.0\",\"\",\"\",\"3-4\",\"4551\",\"40\",\"1\",\"Training\",\"Stims/Figures/74-J-10-4.bmp\",\"fashava\",\"Down\",\"40\",\"5\",\"16\",\"3A\",\"C1\",\"C\",\"80\"
\"\",\"\",\"approach-retreat\",\"84\",\"552954\",\"0.0-84.0\",\"\",\"\",\"3-4\",\"4020\",\"37\",\"1\",\"Training\",\"Stims/Figures/93-J-0-1.bmp\",\"fashava\",\"Left\",\"37\",\"6\",\"1\",\"3A\",\"C1\",\"C\",\"81\"
\"\",\"\",\"approach-retreat\",\"85\",\"558379\",\"0.0-85.0\",\"\",\"\",\"3-4\",\"3918\",\"39\",\"0\",\"Training\",\"Stims/Figures/118-C-20-2.bmp\",\"zasa:ha\",\"Right\",\"37\",\"6\",\"2\",\"3A\",\"C2\",\"C\",\"82\"
\"\",\"\",\"approach-retreat\",\"86\",\"563949\",\"0.0-86.0\",\"\",\"\",\"3-4\",\"4063\",\"39\",\"1\",\"Training\",\"Stims/Figures/111-J-10-3.bmp\",\"fashava\",\"Right\",\"39\",\"6\",\"3\",\"3A\",\"C1\",\"C\",\"83\"
\"\",\"\",\"approach-retreat\",\"87\",\"569440\",\"0.0-87.0\",\"\",\"\",\"3-4\",\"3984\",\"40\",\"1\",\"Training\",\"Stims/Figures/139-C-20-2.bmp\",\"zasa:ha\",\"Up\",\"40\",\"6\",\"4\",\"3A\",\"C2\",\"C\",\"84\"
\"\",\"\",\"approach-retreat\",\"88\",\"574961\",\"0.0-88.0\",\"\",\"\",\"3-4\",\"4012\",\"40\",\"1\",\"Training\",\"Stims/Figures/87-J-10-4.bmp\",\"fashava\",\"Down\",\"40\",\"6\",\"5\",\"3A\",\"C1\",\"C\",\"85\"
\"\",\"\",\"approach-retreat\",\"89\",\"580837\",\"0.0-89.0\",\"\",\"\",\"3-4\",\"4367\",\"39\",\"1\",\"Training\",\"Stims/Figures/93-C-30-1.bmp\",\"zasa:ha\",\"Left\",\"39\",\"6\",\"6\",\"3A\",\"C2\",\"C\",\"86\"
\"\",\"\",\"approach-retreat\",\"90\",\"587293\",\"0.0-90.0\",\"\",\"\",\"3-4\",\"4945\",\"38\",\"1\",\"Training\",\"Stims/Figures/87-C-20-4.bmp\",\"zasa:ha\",\"Down\",\"38\",\"6\",\"7\",\"3A\",\"C2\",\"C\",\"87\"
\"\",\"\",\"approach-retreat\",\"91\",\"593015\",\"0.0-91.0\",\"\",\"\",\"3-4\",\"4211\",\"39\",\"1\",\"Training\",\"Stims/Figures/57-J-0-1.bmp\",\"fashava\",\"Right\",\"39\",\"6\",\"8\",\"3A\",\"C1\",\"C\",\"88\"
\"\",\"\",\"approach-retreat\",\"92\",\"598575\",\"0.0-92.0\",\"\",\"\",\"3-4\",\"4051\",\"38\",\"1\",\"Training\",\"Stims/Figures/139-J-0-2.bmp\",\"fashava\",\"Up\",\"38\",\"6\",\"9\",\"3A\",\"C1\",\"C\",\"89\"
\"\",\"\",\"approach-retreat\",\"93\",\"604596\",\"0.0-93.0\",\"\",\"\",\"3-4\",\"4515\",\"37\",\"1\",\"Training\",\"Stims/Figures/74-C-20-4.bmp\",\"zasa:ha\",\"Right\",\"37\",\"6\",\"10\",\"3A\",\"C2\",\"C\",\"90\"
\"\",\"\",\"approach-retreat\",\"94\",\"611081\",\"0.0-94.0\",\"\",\"\",\"3-4\",\"4979\",\"38\",\"1\",\"Training\",\"Stims/Figures/74-J-10-4.bmp\",\"fashava\",\"Up\",\"38\",\"6\",\"11\",\"3A\",\"C1\",\"C\",\"91\"
\"\",\"\",\"approach-retreat\",\"95\",\"616539\",\"0.0-95.0\",\"\",\"\",\"3-4\",\"3951\",\"37\",\"1\",\"Training\",\"Stims/Figures/118-J-0-2.bmp\",\"fashava\",\"Left\",\"37\",\"6\",\"12\",\"3A\",\"C1\",\"C\",\"92\"
\"\",\"\",\"approach-retreat\",\"96\",\"622555\",\"0.0-96.0\",\"\",\"\",\"3-4\",\"4508\",\"38\",\"1\",\"Training\",\"Stims/Figures/57-C-30-1.bmp\",\"zasa:ha\",\"Down\",\"38\",\"6\",\"13\",\"3A\",\"C2\",\"C\",\"93\"
\"\",\"\",\"approach-retreat\",\"97\",\"628664\",\"0.0-97.0\",\"\",\"\",\"3-4\",\"4603\",\"40\",\"1\",\"Training\",\"Stims/Figures/128-J-10-3.bmp\",\"fashava\",\"Down\",\"40\",\"6\",\"14\",\"3A\",\"C1\",\"C\",\"94\"
\"\",\"\",\"approach-retreat\",\"98\",\"634556\",\"0.0-98.0\",\"\",\"\",\"3-4\",\"4383\",\"40\",\"1\",\"Training\",\"Stims/Figures/128-C-30-3.bmp\",\"zasa:ha\",\"Up\",\"40\",\"6\",\"15\",\"3A\",\"C2\",\"C\",\"95\"
\"\",\"\",\"approach-retreat\",\"99\",\"640610\",\"0.0-99.0\",\"\",\"\",\"3-4\",\"4547\",\"39\",\"1\",\"Training\",\"Stims/Figures/111-C-30-3.bmp\",\"zasa:ha\",\"Left\",\"39\",\"6\",\"16\",\"3A\",\"C2\",\"C\",\"96\"
\"\",\"\",\"approach-retreat\",\"100\",\"646665\",\"0.0-100.0\",\"\",\"\",\"3-4\",\"4550\",\"38\",\"1\",\"Training\",\"Stims/Figures/93-J-0-1.bmp\",\"fashava\",\"Up\",\"38\",\"7\",\"1\",\"3A\",\"C1\",\"C\",\"97\"
\"\",\"\",\"approach-retreat\",\"101\",\"652764\",\"0.0-101.0\",\"\",\"\",\"3-4\",\"4593\",\"38\",\"1\",\"Training\",\"Stims/Figures/111-J-10-3.bmp\",\"fashava\",\"Up\",\"38\",\"7\",\"2\",\"3A\",\"C1\",\"C\",\"98\"
\"\",\"\",\"approach-retreat\",\"102\",\"658344\",\"0.0-102.0\",\"\",\"\",\"3-4\",\"4071\",\"39\",\"1\",\"Training\",\"Stims/Figures/57-J-0-1.bmp\",\"fashava\",\"Right\",\"39\",\"7\",\"3\",\"3A\",\"C1\",\"C\",\"99\"
\"\",\"\",\"approach-retreat\",\"103\",\"665231\",\"0.0-103.0\",\"\",\"\",\"3-4\",\"5383\",\"39\",\"1\",\"Training\",\"Stims/Figures/118-J-0-2.bmp\",\"fashava\",\"Right\",\"39\",\"7\",\"4\",\"3A\",\"C1\",\"C\",\"100\"
\"\",\"\",\"approach-retreat\",\"104\",\"671312\",\"0.0-104.0\",\"\",\"\",\"3-4\",\"4577\",\"39\",\"1\",\"Training\",\"Stims/Figures/139-C-20-2.bmp\",\"zasa:ha\",\"Left\",\"39\",\"7\",\"5\",\"3A\",\"C2\",\"C\",\"101\"
\"\",\"\",\"approach-retreat\",\"105\",\"677350\",\"0.0-105.0\",\"\",\"\",\"3-4\",\"4533\",\"37\",\"1\",\"Training\",\"Stims/Figures/139-J-0-2.bmp\",\"fashava\",\"Left\",\"37\",\"7\",\"6\",\"3A\",\"C1\",\"C\",\"102\"
\"\",\"\",\"approach-retreat\",\"106\",\"682956\",\"0.0-106.0\",\"\",\"\",\"3-4\",\"4096\",\"40\",\"1\",\"Training\",\"Stims/Figures/128-J-10-3.bmp\",\"fashava\",\"Down\",\"40\",\"7\",\"7\",\"3A\",\"C1\",\"C\",\"103\"
\"\",\"\",\"approach-retreat\",\"107\",\"688584\",\"0.0-107.0\",\"\",\"\",\"3-4\",\"4118\",\"40\",\"1\",\"Training\",\"Stims/Figures/87-J-10-4.bmp\",\"fashava\",\"Down\",\"40\",\"7\",\"8\",\"3A\",\"C1\",\"C\",\"104\"
\"\",\"\",\"approach-retreat\",\"108\",\"694079\",\"0.0-108.0\",\"\",\"\",\"3-4\",\"3987\",\"40\",\"1\",\"Training\",\"Stims/Figures/74-J-10-4.bmp\",\"fashava\",\"Down\",\"40\",\"7\",\"9\",\"3A\",\"C1\",\"C\",\"105\"
\"\",\"\",\"approach-retreat\",\"109\",\"699704\",\"0.0-109.0\",\"\",\"\",\"3-4\",\"4119\",\"37\",\"1\",\"Training\",\"Stims/Figures/128-C-30-3.bmp\",\"zasa:ha\",\"Right\",\"37\",\"7\",\"10\",\"3A\",\"C2\",\"C\",\"106\"
\"\",\"\",\"approach-retreat\",\"110\",\"705270\",\"0.0-110.0\",\"\",\"\",\"3-4\",\"4052\",\"40\",\"1\",\"Training\",\"Stims/Figures/57-C-30-1.bmp\",\"zasa:ha\",\"Up\",\"40\",\"7\",\"11\",\"3A\",\"C2\",\"C\",\"107\"
\"\",\"\",\"approach-retreat\",\"111\",\"710950\",\"0.0-111.0\",\"\",\"\",\"3-4\",\"4173\",\"39\",\"1\",\"Training\",\"Stims/Figures/93-C-30-1.bmp\",\"zasa:ha\",\"Left\",\"39\",\"7\",\"12\",\"3A\",\"C2\",\"C\",\"108\"
\"\",\"\",\"approach-retreat\",\"112\",\"716745\",\"0.0-112.0\",\"\",\"\",\"3-4\",\"4286\",\"40\",\"1\",\"Training\",\"Stims/Figures/87-C-20-4.bmp\",\"zasa:ha\",\"Up\",\"40\",\"7\",\"13\",\"3A\",\"C2\",\"C\",\"109\"
\"\",\"\",\"approach-retreat\",\"113\",\"722616\",\"0.0-113.0\",\"\",\"\",\"3-4\",\"4362\",\"39\",\"1\",\"Training\",\"Stims/Figures/74-C-20-4.bmp\",\"zasa:ha\",\"Left\",\"39\",\"7\",\"14\",\"3A\",\"C2\",\"C\",\"110\"
\"\",\"\",\"approach-retreat\",\"114\",\"728377\",\"0.0-114.0\",\"\",\"\",\"3-4\",\"4253\",\"38\",\"1\",\"Training\",\"Stims/Figures/111-C-30-3.bmp\",\"zasa:ha\",\"Down\",\"38\",\"7\",\"15\",\"3A\",\"C2\",\"C\",\"111\"
\"\",\"\",\"approach-retreat\",\"115\",\"733909\",\"0.0-115.0\",\"\",\"\",\"3-4\",\"4023\",\"37\",\"1\",\"Training\",\"Stims/Figures/118-C-20-2.bmp\",\"zasa:ha\",\"Right\",\"37\",\"7\",\"16\",\"3A\",\"C2\",\"C\",\"112\"
\"\",\"\",\"approach-retreat\",\"116\",\"739517\",\"0.0-116.0\",\"\",\"\",\"3-4\",\"4101\",\"39\",\"1\",\"Training\",\"Stims/Figures/111-C-30-3.bmp\",\"zasa:ha\",\"Left\",\"39\",\"8\",\"1\",\"3A\",\"C2\",\"C\",\"113\"
\"\",\"\",\"approach-retreat\",\"117\",\"744988\",\"0.0-117.0\",\"\",\"\",\"3-4\",\"3964\",\"40\",\"1\",\"Training\",\"Stims/Figures/74-J-10-4.bmp\",\"fashava\",\"Down\",\"40\",\"8\",\"2\",\"3A\",\"C1\",\"C\",\"114\"
\"\",\"\",\"approach-retreat\",\"118\",\"750766\",\"0.0-118.0\",\"\",\"\",\"3-4\",\"4268\",\"39\",\"1\",\"Training\",\"Stims/Figures/87-J-10-4.bmp\",\"fashava\",\"Right\",\"39\",\"8\",\"3\",\"3A\",\"C1\",\"C\",\"115\"
\"\",\"\",\"approach-retreat\",\"119\",\"756656\",\"0.0-119.0\",\"\",\"\",\"3-4\",\"4379\",\"40\",\"1\",\"Training\",\"Stims/Figures/57-C-30-1.bmp\",\"zasa:ha\",\"Up\",\"40\",\"8\",\"4\",\"3A\",\"C2\",\"C\",\"116\"
\"\",\"\",\"approach-retreat\",\"120\",\"762178\",\"0.0-120.0\",\"\",\"\",\"3-4\",\"4017\",\"38\",\"1\",\"Training\",\"Stims/Figures/93-J-0-1.bmp\",\"fashava\",\"Up\",\"38\",\"8\",\"5\",\"3A\",\"C1\",\"C\",\"117\"
\"\",\"\",\"approach-retreat\",\"121\",\"768468\",\"0.0-121.0\",\"\",\"\",\"3-4\",\"4785\",\"38\",\"1\",\"Training\",\"Stims/Figures/118-C-20-2.bmp\",\"zasa:ha\",\"Down\",\"38\",\"8\",\"6\",\"3A\",\"C2\",\"C\",\"118\"
\"\",\"\",\"approach-retreat\",\"122\",\"774371\",\"0.0-122.0\",\"\",\"\",\"3-4\",\"4400\",\"39\",\"1\",\"Training\",\"Stims/Figures/111-J-10-3.bmp\",\"fashava\",\"Right\",\"39\",\"8\",\"7\",\"3A\",\"C1\",\"C\",\"119\"
\"\",\"\",\"approach-retreat\",\"123\",\"780365\",\"0.0-123.0\",\"\",\"\",\"3-4\",\"4484\",\"38\",\"1\",\"Training\",\"Stims/Figures/93-C-30-1.bmp\",\"zasa:ha\",\"Down\",\"38\",\"8\",\"8\",\"3A\",\"C2\",\"C\",\"120\"
\"\",\"\",\"approach-retreat\",\"124\",\"786562\",\"0.0-124.0\",\"\",\"\",\"3-4\",\"4690\",\"38\",\"1\",\"Training\",\"Stims/Figures/139-J-0-2.bmp\",\"fashava\",\"Up\",\"38\",\"8\",\"9\",\"3A\",\"C1\",\"C\",\"121\"
\"\",\"\",\"approach-retreat\",\"125\",\"792274\",\"0.0-125.0\",\"\",\"\",\"3-4\",\"4203\",\"39\",\"1\",\"Training\",\"Stims/Figures/87-C-20-4.bmp\",\"zasa:ha\",\"Left\",\"39\",\"8\",\"10\",\"3A\",\"C2\",\"C\",\"122\"
\"\",\"\",\"approach-retreat\",\"126\",\"798474\",\"0.0-126.0\",\"\",\"\",\"3-4\",\"4689\",\"39\",\"1\",\"Training\",\"Stims/Figures/128-C-30-3.bmp\",\"zasa:ha\",\"Left\",\"39\",\"8\",\"11\",\"3A\",\"C2\",\"C\",\"123\"
\"\",\"\",\"approach-retreat\",\"127\",\"804104\",\"0.0-127.0\",\"\",\"\",\"3-4\",\"4124\",\"37\",\"1\",\"Training\",\"Stims/Figures/74-C-20-4.bmp\",\"zasa:ha\",\"Right\",\"37\",\"8\",\"12\",\"3A\",\"C2\",\"C\",\"124\"
\"\",\"\",\"approach-retreat\",\"128\",\"809671\",\"0.0-128.0\",\"\",\"\",\"3-4\",\"4060\",\"39\",\"1\",\"Training\",\"Stims/Figures/118-J-0-2.bmp\",\"fashava\",\"Right\",\"39\",\"8\",\"13\",\"3A\",\"C1\",\"C\",\"125\"
\"\",\"\",\"approach-retreat\",\"129\",\"815381\",\"0.0-129.0\",\"\",\"\",\"3-4\",\"4200\",\"37\",\"1\",\"Training\",\"Stims/Figures/128-J-10-3.bmp\",\"fashava\",\"Left\",\"37\",\"8\",\"14\",\"3A\",\"C1\",\"C\",\"126\"
\"\",\"\",\"approach-retreat\",\"130\",\"821213\",\"0.0-130.0\",\"\",\"\",\"3-4\",\"4326\",\"40\",\"1\",\"Training\",\"Stims/Figures/139-C-20-2.bmp\",\"zasa:ha\",\"Up\",\"40\",\"8\",\"15\",\"3A\",\"C2\",\"C\",\"127\"
\"\",\"\",\"approach-retreat\",\"131\",\"826926\",\"0.0-131.0\",\"\",\"\",\"3-4\",\"4205\",\"40\",\"1\",\"Training\",\"Stims/Figures/57-J-0-1.bmp\",\"fashava\",\"Down\",\"40\",\"8\",\"16\",\"3A\",\"C1\",\"C\",\"128\"
\"\",\"\",\"approach-retreat\",\"132\",\"833097\",\"0.0-132.0\",\"\",\"\",\"3-4\",\"4664\",\"40\",\"0\",\"Training\",\"Stims/Figures/128-C-30-3.bmp\",\"zasa:ha\",\"Down\",\"38\",\"9\",\"1\",\"3A\",\"C2\",\"C\",\"129\"
\"\",\"\",\"approach-retreat\",\"133\",\"839109\",\"0.0-133.0\",\"\",\"\",\"3-4\",\"4507\",\"39\",\"1\",\"Training\",\"Stims/Figures/57-J-0-1.bmp\",\"fashava\",\"Right\",\"39\",\"9\",\"2\",\"3A\",\"C1\",\"C\",\"130\"
\"\",\"\",\"approach-retreat\",\"134\",\"844780\",\"0.0-134.0\",\"\",\"\",\"3-4\",\"4164\",\"37\",\"1\",\"Training\",\"Stims/Figures/128-J-10-3.bmp\",\"fashava\",\"Left\",\"37\",\"9\",\"3\",\"3A\",\"C1\",\"C\",\"131\"
\"\",\"\",\"approach-retreat\",\"135\",\"850636\",\"0.0-135.0\",\"\",\"\",\"3-4\",\"4349\",\"39\",\"1\",\"Training\",\"Stims/Figures/139-J-0-2.bmp\",\"fashava\",\"Right\",\"39\",\"9\",\"4\",\"3A\",\"C1\",\"C\",\"132\"
\"\",\"\",\"approach-retreat\",\"136\",\"856804\",\"0.0-136.0\",\"\",\"\",\"3-4\",\"4657\",\"37\",\"1\",\"Training\",\"Stims/Figures/74-C-20-4.bmp\",\"zasa:ha\",\"Right\",\"37\",\"9\",\"5\",\"3A\",\"C2\",\"C\",\"133\"
\"\",\"\",\"approach-retreat\",\"137\",\"862326\",\"0.0-137.0\",\"\",\"\",\"3-4\",\"4017\",\"38\",\"1\",\"Training\",\"Stims/Figures/87-J-10-4.bmp\",\"fashava\",\"Up\",\"38\",\"9\",\"6\",\"3A\",\"C1\",\"C\",\"134\"
\"\",\"\",\"approach-retreat\",\"138\",\"868102\",\"0.0-138.0\",\"\",\"\",\"3-4\",\"4269\",\"40\",\"1\",\"Training\",\"Stims/Figures/57-C-30-1.bmp\",\"zasa:ha\",\"Up\",\"40\",\"9\",\"7\",\"3A\",\"C2\",\"C\",\"135\"
\"\",\"\",\"approach-retreat\",\"139\",\"873818\",\"0.0-139.0\",\"\",\"\",\"3-4\",\"4209\",\"37\",\"1\",\"Training\",\"Stims/Figures/118-C-20-2.bmp\",\"zasa:ha\",\"Right\",\"37\",\"9\",\"8\",\"3A\",\"C2\",\"C\",\"136\"
\"\",\"\",\"approach-retreat\",\"140\",\"879639\",\"0.0-140.0\",\"\",\"\",\"3-4\",\"4312\",\"40\",\"1\",\"Training\",\"Stims/Figures/74-J-10-4.bmp\",\"fashava\",\"Down\",\"40\",\"9\",\"9\",\"3A\",\"C1\",\"C\",\"137\"
\"\",\"\",\"approach-retreat\",\"141\",\"885628\",\"0.0-141.0\",\"\",\"\",\"3-4\",\"4484\",\"38\",\"1\",\"Training\",\"Stims/Figures/118-J-0-2.bmp\",\"fashava\",\"Up\",\"38\",\"9\",\"10\",\"3A\",\"C1\",\"C\",\"138\"
\"\",\"\",\"approach-retreat\",\"142\",\"891877\",\"0.0-142.0\",\"\",\"\",\"3-4\",\"4744\",\"38\",\"1\",\"Training\",\"Stims/Figures/87-C-20-4.bmp\",\"zasa:ha\",\"Down\",\"38\",\"9\",\"11\",\"3A\",\"C2\",\"C\",\"139\"
\"\",\"\",\"approach-retreat\",\"143\",\"897874\",\"0.0-143.0\",\"\",\"\",\"3-4\",\"4487\",\"37\",\"1\",\"Training\",\"Stims/Figures/111-J-10-3.bmp\",\"fashava\",\"Left\",\"37\",\"9\",\"12\",\"3A\",\"C1\",\"C\",\"140\"
\"\",\"\",\"approach-retreat\",\"144\",\"903859\",\"0.0-144.0\",\"\",\"\",\"3-4\",\"4477\",\"40\",\"1\",\"Training\",\"Stims/Figures/111-C-30-3.bmp\",\"zasa:ha\",\"Up\",\"40\",\"9\",\"13\",\"3A\",\"C2\",\"C\",\"141\"
\"\",\"\",\"approach-retreat\",\"145\",\"909444\",\"0.0-145.0\",\"\",\"\",\"3-4\",\"4077\",\"39\",\"1\",\"Training\",\"Stims/Figures/93-C-30-1.bmp\",\"zasa:ha\",\"Left\",\"39\",\"9\",\"14\",\"3A\",\"C2\",\"C\",\"142\"
\"\",\"\",\"approach-retreat\",\"146\",\"915462\",\"0.0-146.0\",\"\",\"\",\"3-4\",\"4510\",\"37\",\"1\",\"Training\",\"Stims/Figures/93-J-0-1.bmp\",\"fashava\",\"Left\",\"37\",\"9\",\"15\",\"3A\",\"C1\",\"C\",\"143\"
\"\",\"\",\"approach-retreat\",\"147\",\"921338\",\"0.0-147.0\",\"\",\"\",\"3-4\",\"4364\",\"38\",\"1\",\"Training\",\"Stims/Figures/139-C-20-2.bmp\",\"zasa:ha\",\"Down\",\"38\",\"9\",\"16\",\"3A\",\"C2\",\"C\",\"144\"
\"21949\",\"\",\"instructions\",\"148\",\"943288\",\"0.0-148.0\",\"[{\"\"page_index\"\":0,\"\"viewing_time\"\":21948}]\",\"\",\"\",\"\",\"\",\"\",\"\",\"\",\"\",\"\",\"\",\"\",\"\",\"\",\"\",\"\",\"\"
\"\",\"\",\"approach-retreat\",\"149\",\"948901\",\"0.0-149.0\",\"\",\"\",\"3-4\",\"4104\",\"37\",\"1\",\"Testing\",\"Stims/Figures/102-J-10-4.bmp\",\"fashava\",\"Left\",\"37\",\"1\",\"1\",\"3A\",\"C1\",\"C\",\"1\"
\"\",\"\",\"approach-retreat\",\"150\",\"954608\",\"0.0-150.0\",\"\",\"\",\"3-4\",\"4202\",\"40\",\"0\",\"Testing\",\"Stims/Figures/87-C-20-4.bmp\",\"zasa:ha\",\"Down\",\"38\",\"1\",\"2\",\"3A\",\"C2\",\"C\",\"2\"
\"\",\"\",\"approach-retreat\",\"151\",\"960574\",\"0.0-151.0\",\"\",\"\",\"3-4\",\"4459\",\"38\",\"1\",\"Testing\",\"Stims/Figures/111-J-10-3.bmp\",\"fashava\",\"Up\",\"38\",\"1\",\"3\",\"3A\",\"C1\",\"C\",\"3\"
\"\",\"\",\"approach-retreat\",\"152\",\"966249\",\"0.0-152.0\",\"\",\"\",\"3-4\",\"4165\",\"40\",\"0\",\"Testing\",\"Stims/Figures/93-J-0-1.bmp\",\"fashava\",\"Up\",\"38\",\"1\",\"4\",\"3A\",\"C1\",\"C\",\"4\"
\"\",\"\",\"approach-retreat\",\"153\",\"971976\",\"0.0-153.0\",\"\",\"\",\"3-4\",\"4219\",\"37\",\"1\",\"Testing\",\"Stims/Figures/111-C-30-3.bmp\",\"zasa:ha\",\"Right\",\"37\",\"1\",\"5\",\"3A\",\"C2\",\"C\",\"5\"
\"\",\"\",\"approach-retreat\",\"154\",\"980200\",\"0.0-154.0\",\"\",\"\",\"3-4\",\"6715\",\"37\",\"1\",\"Testing\",\"Stims/Figures/57-C-30-1.bmp\",\"zasa:ha\",\"Right\",\"37\",\"1\",\"6\",\"3A\",\"C2\",\"C\",\"6\"
\"\",\"\",\"approach-retreat\",\"155\",\"988634\",\"0.0-155.0\",\"\",\"\",\"3-4\",\"6926\",\"37\",\"1\",\"Testing\",\"Stims/Figures/86-J-0-1.bmp\",\"fashava\",\"Left\",\"37\",\"1\",\"7\",\"3A\",\"C1\",\"C\",\"7\"
\"\",\"\",\"approach-retreat\",\"156\",\"994532\",\"0.0-156.0\",\"\",\"\",\"3-4\",\"4392\",\"39\",\"1\",\"Testing\",\"Stims/Figures/139-J-0-2.bmp\",\"fashava\",\"Right\",\"39\",\"1\",\"8\",\"3A\",\"C1\",\"C\",\"8\"
\"\",\"\",\"approach-retreat\",\"157\",\"1000141\",\"0.0-157.0\",\"\",\"\",\"3-4\",\"4100\",\"38\",\"0\",\"Testing\",\"Stims/Figures/85-C-20-2.bmp\",\"zasa:ha\",\"Up\",\"40\",\"1\",\"9\",\"3A\",\"C2\",\"C\",\"9\"
\"\",\"\",\"approach-retreat\",\"158\",\"1007626\",\"0.0-158.0\",\"\",\"\",\"3-4\",\"5978\",\"38\",\"1\",\"Testing\",\"Stims/Figures/57-J-0-1.bmp\",\"fashava\",\"Up\",\"38\",\"1\",\"10\",\"3A\",\"C1\",\"C\",\"10\"
\"\",\"\",\"approach-retreat\",\"159\",\"1013311\",\"0.0-159.0\",\"\",\"\",\"3-4\",\"4178\",\"38\",\"0\",\"Testing\",\"Stims/Figures/100-J-10-3.bmp\",\"fashava\",\"Down\",\"40\",\"1\",\"11\",\"3A\",\"C1\",\"C\",\"11\"
\"\",\"\",\"approach-retreat\",\"160\",\"1019715\",\"0.0-160.0\",\"\",\"\",\"3-4\",\"4896\",\"39\",\"1\",\"Testing\",\"Stims/Figures/118-C-20-2.bmp\",\"zasa:ha\",\"Left\",\"39\",\"1\",\"12\",\"3A\",\"C2\",\"C\",\"12\"
\"\",\"\",\"approach-retreat\",\"161\",\"1025386\",\"0.0-161.0\",\"\",\"\",\"3-4\",\"4160\",\"40\",\"1\",\"Testing\",\"Stims/Figures/139-C-20-2.bmp\",\"zasa:ha\",\"Up\",\"40\",\"1\",\"13\",\"3A\",\"C2\",\"C\",\"13\"
\"\",\"\",\"approach-retreat\",\"162\",\"1033210\",\"0.0-162.0\",\"\",\"\",\"3-4\",\"6316\",\"39\",\"0\",\"Testing\",\"Stims/Figures/100-C-30-3.bmp\",\"zasa:ha\",\"Right\",\"37\",\"1\",\"14\",\"3A\",\"C2\",\"C\",\"14\"
\"\",\"\",\"approach-retreat\",\"163\",\"1038969\",\"0.0-163.0\",\"\",\"\",\"3-4\",\"4250\",\"38\",\"1\",\"Testing\",\"Stims/Figures/74-C-20-4.bmp\",\"zasa:ha\",\"Down\",\"38\",\"1\",\"15\",\"3A\",\"C2\",\"C\",\"15\"
\"\",\"\",\"approach-retreat\",\"164\",\"1046011\",\"0.0-164.0\",\"\",\"\",\"3-4\",\"5535\",\"38\",\"1\",\"Testing\",\"Stims/Figures/102-C-20-4.bmp\",\"zasa:ha\",\"Down\",\"38\",\"1\",\"16\",\"3A\",\"C2\",\"C\",\"16\"
\"\",\"\",\"approach-retreat\",\"165\",\"1051510\",\"0.0-165.0\",\"\",\"\",\"3-4\",\"3989\",\"40\",\"1\",\"Testing\",\"Stims/Figures/118-J-0-2.bmp\",\"fashava\",\"Down\",\"40\",\"1\",\"17\",\"3A\",\"C1\",\"C\",\"17\"
\"\",\"\",\"approach-retreat\",\"166\",\"1057288\",\"0.0-166.0\",\"\",\"\",\"3-4\",\"4272\",\"38\",\"1\",\"Testing\",\"Stims/Figures/86-C-30-1.bmp\",\"zasa:ha\",\"Down\",\"38\",\"1\",\"18\",\"3A\",\"C2\",\"C\",\"18\"
\"\",\"\",\"approach-retreat\",\"167\",\"1063457\",\"0.0-167.0\",\"\",\"\",\"3-4\",\"4659\",\"39\",\"0\",\"Testing\",\"Stims/Figures/128-C-30-3.bmp\",\"zasa:ha\",\"Right\",\"37\",\"1\",\"19\",\"3A\",\"C2\",\"C\",\"19\"
\"\",\"\",\"approach-retreat\",\"168\",\"1069347\",\"0.0-168.0\",\"\",\"\",\"3-4\",\"4383\",\"39\",\"0\",\"Testing\",\"Stims/Figures/74-J-10-4.bmp\",\"fashava\",\"Left\",\"37\",\"1\",\"20\",\"3A\",\"C1\",\"C\",\"20\"
\"\",\"\",\"approach-retreat\",\"169\",\"1075009\",\"0.0-169.0\",\"\",\"\",\"3-4\",\"4156\",\"37\",\"1\",\"Testing\",\"Stims/Figures/128-J-10-3.bmp\",\"fashava\",\"Left\",\"37\",\"1\",\"21\",\"3A\",\"C1\",\"C\",\"21\"
\"\",\"\",\"approach-retreat\",\"170\",\"1081757\",\"0.0-170.0\",\"\",\"\",\"3-4\",\"5238\",\"40\",\"0\",\"Testing\",\"Stims/Figures/87-J-10-4.bmp\",\"fashava\",\"Up\",\"38\",\"1\",\"22\",\"3A\",\"C1\",\"C\",\"22\"
\"\",\"\",\"approach-retreat\",\"171\",\"1087394\",\"0.0-171.0\",\"\",\"\",\"3-4\",\"4127\",\"39\",\"1\",\"Testing\",\"Stims/Figures/93-C-30-1.bmp\",\"zasa:ha\",\"Left\",\"39\",\"1\",\"23\",\"3A\",\"C2\",\"C\",\"23\"
\"\",\"\",\"approach-retreat\",\"172\",\"1093231\",\"0.0-172.0\",\"\",\"\",\"3-4\",\"4329\",\"39\",\"1\",\"Testing\",\"Stims/Figures/85-J-0-2.bmp\",\"fashava\",\"Right\",\"39\",\"1\",\"24\",\"3A\",\"C1\",\"C\",\"24\"
\"\",\"\",\"approach-retreat\",\"173\",\"1099974\",\"0.0-173.0\",\"\",\"\",\"3-4\",\"5235\",\"40\",\"1\",\"Testing\",\"Stims/Figures/93-J-0-1.bmp\",\"fashava\",\"Down\",\"40\",\"2\",\"1\",\"3A\",\"C1\",\"C\",\"25\"
\"\",\"\",\"approach-retreat\",\"174\",\"1106087\",\"0.0-174.0\",\"\",\"\",\"3-4\",\"4607\",\"37\",\"1\",\"Testing\",\"Stims/Figures/86-C-30-1.bmp\",\"zasa:ha\",\"Right\",\"37\",\"2\",\"2\",\"3A\",\"C2\",\"C\",\"26\"
\"\",\"\",\"approach-retreat\",\"175\",\"1113120\",\"0.0-175.0\",\"\",\"\",\"3-4\",\"5525\",\"38\",\"1\",\"Testing\",\"Stims/Figures/102-J-10-4.bmp\",\"fashava\",\"Up\",\"38\",\"2\",\"3\",\"3A\",\"C1\",\"C\",\"27\"
\"\",\"\",\"approach-retreat\",\"176\",\"1119059\",\"0.0-176.0\",\"\",\"\",\"3-4\",\"4433\",\"40\",\"1\",\"Testing\",\"Stims/Figures/139-C-20-2.bmp\",\"zasa:ha\",\"Up\",\"40\",\"2\",\"4\",\"3A\",\"C2\",\"C\",\"28\"
\"\",\"\",\"approach-retreat\",\"177\",\"1126143\",\"0.0-177.0\",\"\",\"\",\"3-4\",\"5578\",\"39\",\"1\",\"Testing\",\"Stims/Figures/111-J-10-3.bmp\",\"fashava\",\"Right\",\"39\",\"2\",\"5\",\"3A\",\"C1\",\"C\",\"29\"
\"\",\"\",\"approach-retreat\",\"178\",\"1132818\",\"0.0-178.0\",\"\",\"\",\"3-4\",\"5170\",\"37\",\"1\",\"Testing\",\"Stims/Figures/100-C-30-3.bmp\",\"zasa:ha\",\"Right\",\"37\",\"2\",\"6\",\"3A\",\"C2\",\"C\",\"30\"
\"\",\"\",\"approach-retreat\",\"179\",\"1138285\",\"0.0-179.0\",\"\",\"\",\"3-4\",\"3959\",\"37\",\"1\",\"Testing\",\"Stims/Figures/118-J-0-2.bmp\",\"fashava\",\"Left\",\"37\",\"2\",\"7\",\"3A\",\"C1\",\"C\",\"31\"
\"\",\"\",\"approach-retreat\",\"180\",\"1145147\",\"0.0-180.0\",\"\",\"\",\"3-4\",\"5355\",\"40\",\"0\",\"Testing\",\"Stims/Figures/87-J-10-4.bmp\",\"fashava\",\"Up\",\"38\",\"2\",\"8\",\"3A\",\"C1\",\"C\",\"32\"
\"\",\"\",\"approach-retreat\",\"181\",\"1151968\",\"0.0-181.0\",\"\",\"\",\"3-4\",\"5315\",\"39\",\"1\",\"Testing\",\"Stims/Figures/102-C-20-4.bmp\",\"zasa:ha\",\"Left\",\"39\",\"2\",\"9\",\"3A\",\"C2\",\"C\",\"33\"
\"\",\"\",\"approach-retreat\",\"182\",\"1159099\",\"0.0-182.0\",\"\",\"\",\"3-4\",\"5623\",\"38\",\"1\",\"Testing\",\"Stims/Figures/93-C-30-1.bmp\",\"zasa:ha\",\"Down\",\"38\",\"2\",\"10\",\"3A\",\"C2\",\"C\",\"34\"
\"\",\"\",\"approach-retreat\",\"183\",\"1164675\",\"0.0-183.0\",\"\",\"\",\"3-4\",\"4065\",\"37\",\"0\",\"Testing\",\"Stims/Figures/74-J-10-4.bmp\",\"fashava\",\"Right\",\"39\",\"2\",\"11\",\"3A\",\"C1\",\"C\",\"35\"
\"\",\"\",\"approach-retreat\",\"184\",\"1172229\",\"0.0-184.0\",\"\",\"\",\"3-4\",\"6046\",\"39\",\"1\",\"Testing\",\"Stims/Figures/57-J-0-1.bmp\",\"fashava\",\"Right\",\"39\",\"2\",\"12\",\"3A\",\"C1\",\"C\",\"36\"
\"\",\"\",\"approach-retreat\",\"185\",\"1179350\",\"0.0-185.0\",\"\",\"\",\"3-4\",\"5609\",\"37\",\"0\",\"Testing\",\"Stims/Figures/118-C-20-2.bmp\",\"zasa:ha\",\"Left\",\"39\",\"2\",\"13\",\"3A\",\"C2\",\"C\",\"37\"
\"\",\"\",\"approach-retreat\",\"186\",\"1186188\",\"0.0-186.0\",\"\",\"\",\"3-4\",\"5332\",\"38\",\"0\",\"Testing\",\"Stims/Figures/100-J-10-3.bmp\",\"fashava\",\"Down\",\"40\",\"2\",\"14\",\"3A\",\"C1\",\"C\",\"38\"
\"\",\"\",\"approach-retreat\",\"187\",\"1201404\",\"0.0-187.0\",\"\",\"\",\"3-4\",\"13707\",\"38\",\"0\",\"Testing\",\"Stims/Figures/57-C-30-1.bmp\",\"zasa:ha\",\"Up\",\"40\",\"2\",\"15\",\"3A\",\"C2\",\"C\",\"39\"
\"\",\"\",\"approach-retreat\",\"188\",\"1210082\",\"0.0-188.0\",\"\",\"\",\"3-4\",\"7173\",\"37\",\"0\",\"Testing\",\"Stims/Figures/128-C-30-3.bmp\",\"zasa:ha\",\"Left\",\"39\",\"2\",\"16\",\"3A\",\"C2\",\"C\",\"40\"
\"\",\"\",\"approach-retreat\",\"189\",\"1215871\",\"0.0-189.0\",\"\",\"\",\"3-4\",\"4282\",\"40\",\"0\",\"Testing\",\"Stims/Figures/111-C-30-3.bmp\",\"zasa:ha\",\"Down\",\"38\",\"2\",\"17\",\"3A\",\"C2\",\"C\",\"41\"
\"\",\"\",\"approach-retreat\",\"190\",\"1222866\",\"0.0-190.0\",\"\",\"\",\"3-4\",\"5486\",\"37\",\"1\",\"Testing\",\"Stims/Figures/85-C-20-2.bmp\",\"zasa:ha\",\"Right\",\"37\",\"2\",\"18\",\"3A\",\"C2\",\"C\",\"42\"
\"\",\"\",\"approach-retreat\",\"191\",\"1228329\",\"0.0-191.0\",\"\",\"\",\"3-4\",\"3956\",\"40\",\"1\",\"Testing\",\"Stims/Figures/86-J-0-1.bmp\",\"fashava\",\"Down\",\"40\",\"2\",\"19\",\"3A\",\"C1\",\"C\",\"43\"
\"\",\"\",\"approach-retreat\",\"192\",\"1234976\",\"0.0-192.0\",\"\",\"\",\"3-4\",\"5139\",\"37\",\"1\",\"Testing\",\"Stims/Figures/85-J-0-2.bmp\",\"fashava\",\"Left\",\"37\",\"2\",\"20\",\"3A\",\"C1\",\"C\",\"44\"
\"\",\"\",\"approach-retreat\",\"193\",\"1240733\",\"0.0-193.0\",\"\",\"\",\"3-4\",\"4246\",\"40\",\"1\",\"Testing\",\"Stims/Figures/74-C-20-4.bmp\",\"zasa:ha\",\"Up\",\"40\",\"2\",\"21\",\"3A\",\"C2\",\"C\",\"45\"
\"\",\"\",\"approach-retreat\",\"194\",\"1248085\",\"0.0-194.0\",\"\",\"\",\"3-4\",\"5843\",\"39\",\"1\",\"Testing\",\"Stims/Figures/87-C-20-4.bmp\",\"zasa:ha\",\"Left\",\"39\",\"2\",\"22\",\"3A\",\"C2\",\"C\",\"46\"
\"\",\"\",\"approach-retreat\",\"195\",\"1253529\",\"0.0-195.0\",\"\",\"\",\"3-4\",\"3935\",\"40\",\"1\",\"Testing\",\"Stims/Figures/128-J-10-3.bmp\",\"fashava\",\"Down\",\"40\",\"2\",\"23\",\"3A\",\"C1\",\"C\",\"47\"
\"\",\"\",\"approach-retreat\",\"196\",\"1259309\",\"0.0-196.0\",\"\",\"\",\"3-4\",\"4271\",\"38\",\"1\",\"Testing\",\"Stims/Figures/139-J-0-2.bmp\",\"fashava\",\"Up\",\"38\",\"2\",\"24\",\"3A\",\"C1\",\"C\",\"48\"
\"\",\"\",\"approach-retreat\",\"197\",\"1265101\",\"0.0-197.0\",\"\",\"\",\"3-4\",\"4285\",\"39\",\"0\",\"Testing\",\"Stims/Figures/100-C-30-3.bmp\",\"zasa:ha\",\"Right\",\"37\",\"3\",\"1\",\"3A\",\"C2\",\"C\",\"49\"
\"\",\"\",\"approach-retreat\",\"198\",\"1271579\",\"0.0-198.0\",\"\",\"\",\"3-4\",\"4970\",\"38\",\"1\",\"Testing\",\"Stims/Figures/87-C-20-4.bmp\",\"zasa:ha\",\"Down\",\"38\",\"3\",\"2\",\"3A\",\"C2\",\"C\",\"50\"
\"\",\"\",\"approach-retreat\",\"199\",\"1277471\",\"0.0-199.0\",\"\",\"\",\"3-4\",\"4386\",\"38\",\"0\",\"Testing\",\"Stims/Figures/86-C-30-1.bmp\",\"zasa:ha\",\"Up\",\"40\",\"3\",\"3\",\"3A\",\"C2\",\"C\",\"51\"
\"\",\"\",\"approach-retreat\",\"200\",\"1283516\",\"0.0-200.0\",\"\",\"\",\"3-4\",\"4538\",\"40\",\"0\",\"Testing\",\"Stims/Figures/74-J-10-4.bmp\",\"fashava\",\"Up\",\"38\",\"3\",\"4\",\"3A\",\"C1\",\"C\",\"52\"
\"\",\"\",\"approach-retreat\",\"201\",\"1289338\",\"0.0-201.0\",\"\",\"\",\"3-4\",\"4314\",\"37\",\"1\",\"Testing\",\"Stims/Figures/102-J-10-4.bmp\",\"fashava\",\"Left\",\"37\",\"3\",\"5\",\"3A\",\"C1\",\"C\",\"53\"
\"\",\"\",\"approach-retreat\",\"202\",\"1294857\",\"0.0-202.0\",\"\",\"\",\"3-4\",\"4011\",\"40\",\"1\",\"Testing\",\"Stims/Figures/85-J-0-2.bmp\",\"fashava\",\"Down\",\"40\",\"3\",\"6\",\"3A\",\"C1\",\"C\",\"54\"
\"\",\"\",\"approach-retreat\",\"203\",\"1300583\",\"0.0-203.0\",\"\",\"\",\"3-4\",\"4216\",\"40\",\"1\",\"Testing\",\"Stims/Figures/128-J-10-3.bmp\",\"fashava\",\"Down\",\"40\",\"3\",\"7\",\"3A\",\"C1\",\"C\",\"55\"
\"\",\"\",\"approach-retreat\",\"204\",\"1306449\",\"0.0-204.0\",\"\",\"\",\"3-4\",\"4358\",\"40\",\"1\",\"Testing\",\"Stims/Figures/111-J-10-3.bmp\",\"fashava\",\"Down\",\"40\",\"3\",\"8\",\"3A\",\"C1\",\"C\",\"56\"
\"\",\"\",\"approach-retreat\",\"205\",\"1312219\",\"0.0-205.0\",\"\",\"\",\"3-4\",\"4261\",\"40\",\"1\",\"Testing\",\"Stims/Figures/118-C-20-2.bmp\",\"zasa:ha\",\"Up\",\"40\",\"3\",\"9\",\"3A\",\"C2\",\"C\",\"57\"
\"\",\"\",\"approach-retreat\",\"206\",\"1317879\",\"0.0-206.0\",\"\",\"\",\"3-4\",\"4151\",\"40\",\"1\",\"Testing\",\"Stims/Figures/85-C-20-2.bmp\",\"zasa:ha\",\"Up\",\"40\",\"3\",\"10\",\"3A\",\"C2\",\"C\",\"58\"
\"\",\"\",\"approach-retreat\",\"207\",\"1323619\",\"0.0-207.0\",\"\",\"\",\"3-4\",\"4232\",\"37\",\"1\",\"Testing\",\"Stims/Figures/57-J-0-1.bmp\",\"fashava\",\"Left\",\"37\",\"3\",\"11\",\"3A\",\"C1\",\"C\",\"59\"
\"\",\"\",\"approach-retreat\",\"208\",\"1330564\",\"0.0-208.0\",\"\",\"\",\"3-4\",\"5436\",\"39\",\"1\",\"Testing\",\"Stims/Figures/100-J-10-3.bmp\",\"fashava\",\"Right\",\"39\",\"3\",\"12\",\"3A\",\"C1\",\"C\",\"60\"
\"\",\"\",\"approach-retreat\",\"209\",\"1336373\",\"0.0-209.0\",\"\",\"\",\"3-4\",\"4300\",\"38\",\"0\",\"Testing\",\"Stims/Figures/128-C-30-3.bmp\",\"zasa:ha\",\"Up\",\"40\",\"3\",\"13\",\"3A\",\"C2\",\"C\",\"61\"
\"\",\"\",\"approach-retreat\",\"210\",\"1342808\",\"0.0-210.0\",\"\",\"\",\"3-4\",\"4926\",\"39\",\"1\",\"Testing\",\"Stims/Figures/102-C-20-4.bmp\",\"zasa:ha\",\"Left\",\"39\",\"3\",\"14\",\"3A\",\"C2\",\"C\",\"62\"
\"\",\"\",\"approach-retreat\",\"211\",\"1349045\",\"0.0-211.0\",\"\",\"\",\"3-4\",\"4728\",\"39\",\"1\",\"Testing\",\"Stims/Figures/87-J-10-4.bmp\",\"fashava\",\"Right\",\"39\",\"3\",\"15\",\"3A\",\"C1\",\"C\",\"63\"
\"\",\"\",\"approach-retreat\",\"212\",\"1355009\",\"0.0-212.0\",\"\",\"\",\"3-4\",\"4459\",\"38\",\"1\",\"Testing\",\"Stims/Figures/93-C-30-1.bmp\",\"zasa:ha\",\"Down\",\"38\",\"3\",\"16\",\"3A\",\"C2\",\"C\",\"64\"
\"\",\"\",\"approach-retreat\",\"213\",\"1363512\",\"0.0-213.0\",\"\",\"\",\"3-4\",\"6994\",\"39\",\"0\",\"Testing\",\"Stims/Figures/57-C-30-1.bmp\",\"zasa:ha\",\"Right\",\"37\",\"3\",\"17\",\"3A\",\"C2\",\"C\",\"65\"
\"\",\"\",\"approach-retreat\",\"214\",\"1369046\",\"0.0-214.0\",\"\",\"\",\"3-4\",\"4026\",\"40\",\"1\",\"Testing\",\"Stims/Figures/86-J-0-1.bmp\",\"fashava\",\"Down\",\"40\",\"3\",\"18\",\"3A\",\"C1\",\"C\",\"66\"
\"\",\"\",\"approach-retreat\",\"215\",\"1375090\",\"0.0-215.0\",\"\",\"\",\"3-4\",\"4534\",\"37\",\"1\",\"Testing\",\"Stims/Figures/139-C-20-2.bmp\",\"zasa:ha\",\"Right\",\"37\",\"3\",\"19\",\"3A\",\"C2\",\"C\",\"67\"
\"\",\"\",\"approach-retreat\",\"216\",\"1380533\",\"0.0-216.0\",\"\",\"\",\"3-4\",\"3936\",\"40\",\"0\",\"Testing\",\"Stims/Figures/118-J-0-2.bmp\",\"fashava\",\"Up\",\"38\",\"3\",\"20\",\"3A\",\"C1\",\"C\",\"68\"
\"\",\"\",\"approach-retreat\",\"217\",\"1386351\",\"0.0-217.0\",\"\",\"\",\"3-4\",\"4310\",\"39\",\"1\",\"Testing\",\"Stims/Figures/93-J-0-1.bmp\",\"fashava\",\"Right\",\"39\",\"3\",\"21\",\"3A\",\"C1\",\"C\",\"69\"
\"\",\"\",\"approach-retreat\",\"218\",\"1393709\",\"0.0-218.0\",\"\",\"\",\"3-4\",\"5852\",\"39\",\"1\",\"Testing\",\"Stims/Figures/74-C-20-4.bmp\",\"zasa:ha\",\"Left\",\"39\",\"3\",\"22\",\"3A\",\"C2\",\"C\",\"70\"
\"\",\"\",\"approach-retreat\",\"219\",\"1399559\",\"0.0-219.0\",\"\",\"\",\"3-4\",\"4343\",\"37\",\"1\",\"Testing\",\"Stims/Figures/139-J-0-2.bmp\",\"fashava\",\"Left\",\"37\",\"3\",\"23\",\"3A\",\"C1\",\"C\",\"71\"
\"\",\"\",\"approach-retreat\",\"220\",\"1405335\",\"0.0-220.0\",\"\",\"\",\"3-4\",\"4268\",\"37\",\"0\",\"Testing\",\"Stims/Figures/111-C-30-3.bmp\",\"zasa:ha\",\"Left\",\"39\",\"3\",\"24\",\"3A\",\"C2\",\"C\",\"72\"
\"\",\"\",\"approach-retreat\",\"221\",\"1411973\",\"0.0-221.0\",\"\",\"\",\"3-4\",\"5129\",\"39\",\"1\",\"Testing\",\"Stims/Figures/85-C-20-2.bmp\",\"zasa:ha\",\"Left\",\"39\",\"4\",\"1\",\"3A\",\"C2\",\"C\",\"73\"
\"\",\"\",\"approach-retreat\",\"222\",\"1418842\",\"0.0-222.0\",\"\",\"\",\"3-4\",\"5360\",\"38\",\"0\",\"Testing\",\"Stims/Figures/87-C-20-4.bmp\",\"zasa:ha\",\"Up\",\"40\",\"4\",\"2\",\"3A\",\"C2\",\"C\",\"74\"
\"\",\"\",\"approach-retreat\",\"223\",\"1424275\",\"0.0-223.0\",\"\",\"\",\"3-4\",\"3927\",\"40\",\"1\",\"Testing\",\"Stims/Figures/102-J-10-4.bmp\",\"fashava\",\"Down\",\"40\",\"4\",\"3\",\"3A\",\"C1\",\"C\",\"75\"
\"\",\"\",\"approach-retreat\",\"224\",\"1430369\",\"0.0-224.0\",\"\",\"\",\"3-4\",\"4585\",\"39\",\"1\",\"Testing\",\"Stims/Figures/74-J-10-4.bmp\",\"fashava\",\"Right\",\"39\",\"4\",\"4\",\"3A\",\"C1\",\"C\",\"76\"
\"\",\"\",\"approach-retreat\",\"225\",\"1436154\",\"0.0-225.0\",\"\",\"\",\"3-4\",\"4277\",\"40\",\"1\",\"Testing\",\"Stims/Figures/85-J-0-2.bmp\",\"fashava\",\"Down\",\"40\",\"4\",\"5\",\"3A\",\"C1\",\"C\",\"77\"
\"\",\"\",\"approach-retreat\",\"226\",\"1441789\",\"0.0-226.0\",\"\",\"\",\"3-4\",\"4128\",\"37\",\"1\",\"Testing\",\"Stims/Figures/118-J-0-2.bmp\",\"fashava\",\"Left\",\"37\",\"4\",\"6\",\"3A\",\"C1\",\"C\",\"78\"
\"\",\"\",\"approach-retreat\",\"227\",\"1447261\",\"0.0-227.0\",\"\",\"\",\"3-4\",\"3961\",\"37\",\"1\",\"Testing\",\"Stims/Figures/118-C-20-2.bmp\",\"zasa:ha\",\"Right\",\"37\",\"4\",\"7\",\"3A\",\"C2\",\"C\",\"79\"
\"\",\"\",\"approach-retreat\",\"228\",\"1453648\",\"0.0-228.0\",\"\",\"\",\"3-4\",\"4877\",\"38\",\"1\",\"Testing\",\"Stims/Figures/57-J-0-1.bmp\",\"fashava\",\"Up\",\"38\",\"4\",\"8\",\"3A\",\"C1\",\"C\",\"80\"
\"\",\"\",\"approach-retreat\",\"229\",\"1459450\",\"0.0-229.0\",\"\",\"\",\"3-4\",\"4297\",\"39\",\"1\",\"Testing\",\"Stims/Figures/100-C-30-3.bmp\",\"zasa:ha\",\"Left\",\"39\",\"4\",\"9\",\"3A\",\"C2\",\"C\",\"81\"
\"\",\"\",\"approach-retreat\",\"230\",\"1466303\",\"0.0-230.0\",\"\",\"\",\"3-4\",\"5343\",\"39\",\"1\",\"Testing\",\"Stims/Figures/86-J-0-1.bmp\",\"fashava\",\"Right\",\"39\",\"4\",\"10\",\"3A\",\"C1\",\"C\",\"82\"
\"\",\"\",\"approach-retreat\",\"231\",\"1473573\",\"0.0-231.0\",\"\",\"\",\"3-4\",\"5765\",\"39\",\"0\",\"Testing\",\"Stims/Figures/128-C-30-3.bmp\",\"zasa:ha\",\"Right\",\"37\",\"4\",\"11\",\"3A\",\"C2\",\"C\",\"83\"
\"\",\"\",\"approach-retreat\",\"232\",\"1480071\",\"0.0-232.0\",\"\",\"\",\"3-4\",\"4991\",\"39\",\"1\",\"Testing\",\"Stims/Figures/93-J-0-1.bmp\",\"fashava\",\"Right\",\"39\",\"4\",\"12\",\"3A\",\"C1\",\"C\",\"84\"
\"\",\"\",\"approach-retreat\",\"233\",\"1487225\",\"0.0-233.0\",\"\",\"\",\"3-4\",\"5644\",\"40\",\"1\",\"Testing\",\"Stims/Figures/139-C-20-2.bmp\",\"zasa:ha\",\"Up\",\"40\",\"4\",\"13\",\"3A\",\"C2\",\"C\",\"85\"
\"\",\"\",\"approach-retreat\",\"234\",\"1492908\",\"0.0-234.0\",\"\",\"\",\"3-4\",\"4176\",\"39\",\"0\",\"Testing\",\"Stims/Figures/100-J-10-3.bmp\",\"fashava\",\"Left\",\"37\",\"4\",\"14\",\"3A\",\"C1\",\"C\",\"86\"
\"\",\"\",\"approach-retreat\",\"235\",\"1499565\",\"0.0-235.0\",\"\",\"\",\"3-4\",\"5149\",\"40\",\"1\",\"Testing\",\"Stims/Figures/93-C-30-1.bmp\",\"zasa:ha\",\"Up\",\"40\",\"4\",\"15\",\"3A\",\"C2\",\"C\",\"87\"
\"\",\"\",\"approach-retreat\",\"236\",\"1505762\",\"0.0-236.0\",\"\",\"\",\"3-4\",\"4690\",\"38\",\"1\",\"Testing\",\"Stims/Figures/111-C-30-3.bmp\",\"zasa:ha\",\"Down\",\"38\",\"4\",\"16\",\"3A\",\"C2\",\"C\",\"88\"
\"\",\"\",\"approach-retreat\",\"237\",\"1511479\",\"0.0-237.0\",\"\",\"\",\"3-4\",\"4208\",\"40\",\"1\",\"Testing\",\"Stims/Figures/139-J-0-2.bmp\",\"fashava\",\"Down\",\"40\",\"4\",\"17\",\"3A\",\"C1\",\"C\",\"89\"
\"\",\"\",\"approach-retreat\",\"238\",\"1517463\",\"0.0-238.0\",\"\",\"\",\"3-4\",\"4473\",\"40\",\"1\",\"Testing\",\"Stims/Figures/128-J-10-3.bmp\",\"fashava\",\"Down\",\"40\",\"4\",\"18\",\"3A\",\"C1\",\"C\",\"90\"
\"\",\"\",\"approach-retreat\",\"239\",\"1523285\",\"0.0-239.0\",\"\",\"\",\"3-4\",\"4315\",\"40\",\"1\",\"Testing\",\"Stims/Figures/86-C-30-1.bmp\",\"zasa:ha\",\"Up\",\"40\",\"4\",\"19\",\"3A\",\"C2\",\"C\",\"91\"
\"\",\"\",\"approach-retreat\",\"240\",\"1529141\",\"0.0-240.0\",\"\",\"\",\"3-4\",\"4349\",\"39\",\"1\",\"Testing\",\"Stims/Figures/57-C-30-1.bmp\",\"zasa:ha\",\"Left\",\"39\",\"4\",\"20\",\"3A\",\"C2\",\"C\",\"92\"
\"\",\"\",\"approach-retreat\",\"241\",\"1535888\",\"0.0-241.0\",\"\",\"\",\"3-4\",\"5241\",\"40\",\"0\",\"Testing\",\"Stims/Figures/102-C-20-4.bmp\",\"zasa:ha\",\"Down\",\"38\",\"4\",\"21\",\"3A\",\"C2\",\"C\",\"93\"
\"\",\"\",\"approach-retreat\",\"242\",\"1541570\",\"0.0-242.0\",\"\",\"\",\"3-4\",\"4174\",\"39\",\"1\",\"Testing\",\"Stims/Figures/87-J-10-4.bmp\",\"fashava\",\"Right\",\"39\",\"4\",\"22\",\"3A\",\"C1\",\"C\",\"94\"
\"\",\"\",\"approach-retreat\",\"243\",\"1547465\",\"0.0-243.0\",\"\",\"\",\"3-4\",\"4389\",\"39\",\"1\",\"Testing\",\"Stims/Figures/74-C-20-4.bmp\",\"zasa:ha\",\"Left\",\"39\",\"4\",\"23\",\"3A\",\"C2\",\"C\",\"95\"
\"\",\"\",\"approach-retreat\",\"244\",\"1553179\",\"0.0-244.0\",\"\",\"\",\"3-4\",\"4207\",\"40\",\"0\",\"Testing\",\"Stims/Figures/111-J-10-3.bmp\",\"fashava\",\"Up\",\"38\",\"4\",\"24\",\"3A\",\"C1\",\"C\",\"96\"
\"234432\",\"\",\"survey-text\",\"245\",\"1787616\",\"0.0-245.0\",\"\",\"{\"\"Q0\"\":\"\"1242/2017\"\"}\",\"\",\"\",\"\",\"\",\"\",\"\",\"\",\"\",\"\",\"\",\"\",\"\",\"\",\"\",\"\"
