\"rt\",\"key_press\",\"trial_type\",\"trial_index\",\"time_elapsed\",\"internal_node_id\",\"view_history\",\"responses\",\"Id\",\"Rt\",\"ResKeyCode\",\"ResCorr\",\"TrialType2\",\"Image\",\"Label\",\"Location\",\"CorrectResponse\",\"Block\",\"BlockTrial\",\"Condition\",\"LabelType\",\"Subcondition\",\"trialNum\"
\"32560\",\"32\",\"text\",\"0\",\"32570\",\"0.0-0.0-0.0\",\"\",\"\",\"\",\"\",\"\",\"\",\"\",\"\",\"\",\"\",\"\",\"\",\"\",\"\",\"\",\"\",\"\"
\"80956\",\"\",\"instructions\",\"1\",\"113532\",\"0.0-1.0\",\"[{\"\"page_index\"\":0,\"\"viewing_time\"\":80951}]\",\"\",\"\",\"\",\"\",\"\",\"\",\"\",\"\",\"\",\"\",\"\",\"\",\"\",\"\",\"\",\"\"
\"26878\",\"\",\"survey-multi-choice\",\"2\",\"140487\",\"0.0-2.0\",\"\",\"{\"\"Q0\"\":\"\"Da\"\",\"\"Q1\"\":\"\"Da\"\",\"\"Q2\"\":\"\"Da\"\",\"\"Q3\"\":\"\"Da\"\",\"\"Q4\"\":\"\"Da\"\",\"\"Q5\"\":\"\"Da\"\"}\",\"\",\"\",\"\",\"\",\"\",\"\",\"\",\"\",\"\",\"\",\"\",\"\",\"\",\"\",\"\"
\"\",\"\",\"bio\",\"3\",\"147162\",\"0.0-3.0\",\"\",\"{\"\"age\"\":\"\"23\"\",\"\"gender\"\":\"\"f\"\",\"\"specify\"\":\"\"\"\"}\",\"\",\"\",\"\",\"\",\"\",\"\",\"\",\"\",\"\",\"\",\"\",\"\",\"\",\"\",\"\"
\"\",\"\",\"approach-retreat\",\"4\",\"155968\",\"0.0-4.0\",\"\",\"\",\"1-4\",\"7286\",\"37\",\"0\",\"Training\",\"Stims/Figures/128-C-30-3.bmp\",\"ma:mala\",\"Left\",\"39\",\"1\",\"1\",\"4\",\"S\",\"C\",\"1\"
\"\",\"\",\"approach-retreat\",\"5\",\"162952\",\"0.0-5.0\",\"\",\"\",\"1-4\",\"5448\",\"40\",\"0\",\"Training\",\"Stims/Figures/87-J-10-4.bmp\",\"ta:paka\",\"Up\",\"38\",\"1\",\"2\",\"4\",\"P\",\"C\",\"2\"
\"\",\"\",\"approach-retreat\",\"6\",\"169769\",\"0.0-6.0\",\"\",\"\",\"1-4\",\"5283\",\"40\",\"0\",\"Training\",\"Stims/Figures/19-J-10-4.bmp\",\"papa:ka\",\"Up\",\"38\",\"1\",\"3\",\"4\",\"P\",\"C\",\"3\"
\"\",\"\",\"approach-retreat\",\"7\",\"176031\",\"0.0-7.0\",\"\",\"\",\"1-4\",\"4726\",\"38\",\"1\",\"Training\",\"Stims/Figures/86-J-0-1.bmp\",\"taka:ka\",\"Up\",\"38\",\"1\",\"4\",\"4\",\"P\",\"C\",\"4\"
\"\",\"\",\"approach-retreat\",\"8\",\"182281\",\"0.0-8.0\",\"\",\"\",\"1-4\",\"4715\",\"38\",\"1\",\"Training\",\"Stims/Figures/139-C-20-2.bmp\",\"na:lana\",\"Down\",\"38\",\"1\",\"5\",\"4\",\"S\",\"C\",\"5\"
\"\",\"\",\"approach-retreat\",\"9\",\"188771\",\"0.0-9.0\",\"\",\"\",\"1-4\",\"4960\",\"39\",\"1\",\"Training\",\"Stims/Figures/118-C-20-2.bmp\",\"na:lala\",\"Left\",\"39\",\"1\",\"6\",\"4\",\"S\",\"C\",\"6\"
\"\",\"\",\"approach-retreat\",\"10\",\"194778\",\"0.0-10.0\",\"\",\"\",\"1-4\",\"4469\",\"38\",\"1\",\"Training\",\"Stims/Figures/87-C-20-4.bmp\",\"namala\",\"Down\",\"38\",\"1\",\"7\",\"4\",\"S\",\"C\",\"7\"
\"\",\"\",\"approach-retreat\",\"11\",\"200579\",\"0.0-11.0\",\"\",\"\",\"1-4\",\"4261\",\"38\",\"0\",\"Training\",\"Stims/Figures/71-J-0-1.bmp\",\"pakaka\",\"Down\",\"40\",\"1\",\"8\",\"4\",\"P\",\"C\",\"8\"
\"\",\"\",\"approach-retreat\",\"12\",\"206435\",\"0.0-12.0\",\"\",\"\",\"1-4\",\"4324\",\"39\",\"1\",\"Training\",\"Stims/Figures/100-C-30-3.bmp\",\"ma:la:na\",\"Left\",\"39\",\"1\",\"9\",\"4\",\"S\",\"C\",\"9\"
\"\",\"\",\"approach-retreat\",\"13\",\"213780\",\"0.0-13.0\",\"\",\"\",\"1-4\",\"5805\",\"39\",\"0\",\"Training\",\"Stims/Figures/71-C-30-1.bmp\",\"na:mana\",\"Right\",\"37\",\"1\",\"10\",\"4\",\"S\",\"C\",\"10\"
\"\",\"\",\"approach-retreat\",\"14\",\"219616\",\"0.0-14.0\",\"\",\"\",\"1-4\",\"4304\",\"38\",\"0\",\"Training\",\"Stims/Figures/118-J-0-2.bmp\",\"ta:kata\",\"Down\",\"40\",\"1\",\"11\",\"4\",\"P\",\"C\",\"11\"
\"\",\"\",\"approach-retreat\",\"15\",\"225460\",\"0.0-15.0\",\"\",\"\",\"1-4\",\"4331\",\"39\",\"0\",\"Training\",\"Stims/Figures/100-J-10-3.bmp\",\"pa:kaka\",\"Left\",\"37\",\"1\",\"12\",\"4\",\"P\",\"C\",\"12\"
\"\",\"\",\"approach-retreat\",\"16\",\"231524\",\"0.0-16.0\",\"\",\"\",\"1-4\",\"4524\",\"40\",\"1\",\"Training\",\"Stims/Figures/86-C-30-1.bmp\",\"nama:na\",\"Up\",\"40\",\"1\",\"13\",\"4\",\"S\",\"C\",\"13\"
\"\",\"\",\"approach-retreat\",\"17\",\"238496\",\"0.0-17.0\",\"\",\"\",\"1-4\",\"5432\",\"39\",\"1\",\"Training\",\"Stims/Figures/139-J-0-2.bmp\",\"pa:pa:ta\",\"Right\",\"39\",\"1\",\"14\",\"4\",\"P\",\"C\",\"14\"
\"\",\"\",\"approach-retreat\",\"18\",\"244370\",\"0.0-18.0\",\"\",\"\",\"1-4\",\"4343\",\"39\",\"0\",\"Training\",\"Stims/Figures/19-C-20-4.bmp\",\"na:la:la\",\"Right\",\"37\",\"1\",\"15\",\"4\",\"S\",\"C\",\"15\"
\"\",\"\",\"approach-retreat\",\"19\",\"250512\",\"0.0-19.0\",\"\",\"\",\"1-4\",\"4606\",\"37\",\"0\",\"Training\",\"Stims/Figures/128-J-10-3.bmp\",\"pa:pa:ka\",\"Right\",\"39\",\"1\",\"16\",\"4\",\"P\",\"C\",\"16\"
\"\",\"\",\"approach-retreat\",\"20\",\"256994\",\"0.0-20.0\",\"\",\"\",\"1-4\",\"4957\",\"40\",\"0\",\"Training\",\"Stims/Figures/139-J-0-2.bmp\",\"pa:pa:ta\",\"Up\",\"38\",\"2\",\"1\",\"4\",\"P\",\"C\",\"17\"
\"\",\"\",\"approach-retreat\",\"21\",\"262936\",\"0.0-21.0\",\"\",\"\",\"1-4\",\"4404\",\"38\",\"1\",\"Training\",\"Stims/Figures/87-C-20-4.bmp\",\"namala\",\"Down\",\"38\",\"2\",\"2\",\"4\",\"S\",\"C\",\"18\"
\"\",\"\",\"approach-retreat\",\"22\",\"268705\",\"0.0-22.0\",\"\",\"\",\"1-4\",\"4228\",\"38\",\"1\",\"Training\",\"Stims/Figures/19-C-20-4.bmp\",\"na:la:la\",\"Down\",\"38\",\"2\",\"3\",\"4\",\"S\",\"C\",\"19\"
\"\",\"\",\"approach-retreat\",\"23\",\"274876\",\"0.0-23.0\",\"\",\"\",\"1-4\",\"4636\",\"37\",\"1\",\"Training\",\"Stims/Figures/86-J-0-1.bmp\",\"taka:ka\",\"Left\",\"37\",\"2\",\"4\",\"4\",\"P\",\"C\",\"20\"
\"\",\"\",\"approach-retreat\",\"24\",\"281205\",\"0.0-24.0\",\"\",\"\",\"1-4\",\"4792\",\"38\",\"1\",\"Training\",\"Stims/Figures/71-J-0-1.bmp\",\"pakaka\",\"Up\",\"38\",\"2\",\"5\",\"4\",\"P\",\"C\",\"21\"
\"\",\"\",\"approach-retreat\",\"25\",\"287208\",\"0.0-25.0\",\"\",\"\",\"1-4\",\"4464\",\"38\",\"1\",\"Training\",\"Stims/Figures/100-C-30-3.bmp\",\"ma:la:na\",\"Down\",\"38\",\"2\",\"6\",\"4\",\"S\",\"C\",\"22\"
\"\",\"\",\"approach-retreat\",\"26\",\"294060\",\"0.0-26.0\",\"\",\"\",\"1-4\",\"5331\",\"39\",\"0\",\"Training\",\"Stims/Figures/139-C-20-2.bmp\",\"na:lana\",\"Right\",\"37\",\"2\",\"7\",\"4\",\"S\",\"C\",\"23\"
\"\",\"\",\"approach-retreat\",\"27\",\"300106\",\"0.0-27.0\",\"\",\"\",\"1-4\",\"4508\",\"37\",\"1\",\"Training\",\"Stims/Figures/71-C-30-1.bmp\",\"na:mana\",\"Right\",\"37\",\"2\",\"8\",\"4\",\"S\",\"C\",\"24\"
\"\",\"\",\"approach-retreat\",\"28\",\"306124\",\"0.0-28.0\",\"\",\"\",\"1-4\",\"4480\",\"40\",\"1\",\"Training\",\"Stims/Figures/128-C-30-3.bmp\",\"ma:mala\",\"Up\",\"40\",\"2\",\"9\",\"4\",\"S\",\"C\",\"25\"
\"\",\"\",\"approach-retreat\",\"29\",\"312272\",\"0.0-29.0\",\"\",\"\",\"1-4\",\"4627\",\"40\",\"1\",\"Training\",\"Stims/Figures/86-C-30-1.bmp\",\"nama:na\",\"Up\",\"40\",\"2\",\"10\",\"4\",\"S\",\"C\",\"26\"
\"\",\"\",\"approach-retreat\",\"30\",\"318194\",\"0.0-30.0\",\"\",\"\",\"1-4\",\"4391\",\"39\",\"1\",\"Training\",\"Stims/Figures/118-C-20-2.bmp\",\"na:lala\",\"Left\",\"39\",\"2\",\"11\",\"4\",\"S\",\"C\",\"27\"
\"\",\"\",\"approach-retreat\",\"31\",\"323863\",\"0.0-31.0\",\"\",\"\",\"1-4\",\"4133\",\"38\",\"0\",\"Training\",\"Stims/Figures/100-J-10-3.bmp\",\"pa:kaka\",\"Down\",\"40\",\"2\",\"12\",\"4\",\"P\",\"C\",\"28\"
\"\",\"\",\"approach-retreat\",\"32\",\"331940\",\"0.0-32.0\",\"\",\"\",\"1-4\",\"6559\",\"39\",\"1\",\"Training\",\"Stims/Figures/19-J-10-4.bmp\",\"papa:ka\",\"Right\",\"39\",\"2\",\"13\",\"4\",\"P\",\"C\",\"29\"
\"\",\"\",\"approach-retreat\",\"33\",\"338369\",\"0.0-33.0\",\"\",\"\",\"1-4\",\"4894\",\"37\",\"0\",\"Training\",\"Stims/Figures/87-J-10-4.bmp\",\"ta:paka\",\"Right\",\"39\",\"2\",\"14\",\"4\",\"P\",\"C\",\"30\"
\"\",\"\",\"approach-retreat\",\"34\",\"345090\",\"0.0-34.0\",\"\",\"\",\"1-4\",\"5208\",\"37\",\"1\",\"Training\",\"Stims/Figures/118-J-0-2.bmp\",\"ta:kata\",\"Left\",\"37\",\"2\",\"15\",\"4\",\"P\",\"C\",\"31\"
\"\",\"\",\"approach-retreat\",\"35\",\"351294\",\"0.0-35.0\",\"\",\"\",\"1-4\",\"4673\",\"39\",\"0\",\"Training\",\"Stims/Figures/128-J-10-3.bmp\",\"pa:pa:ka\",\"Left\",\"37\",\"2\",\"16\",\"4\",\"P\",\"C\",\"32\"
\"\",\"\",\"approach-retreat\",\"36\",\"357223\",\"0.0-36.0\",\"\",\"\",\"1-4\",\"4400\",\"37\",\"0\",\"Training\",\"Stims/Figures/86-J-0-1.bmp\",\"taka:ka\",\"Right\",\"39\",\"3\",\"1\",\"4\",\"P\",\"C\",\"33\"
\"\",\"\",\"approach-retreat\",\"37\",\"363332\",\"0.0-37.0\",\"\",\"\",\"1-4\",\"4583\",\"37\",\"0\",\"Training\",\"Stims/Figures/86-C-30-1.bmp\",\"nama:na\",\"Left\",\"39\",\"3\",\"2\",\"4\",\"S\",\"C\",\"34\"
\"\",\"\",\"approach-retreat\",\"38\",\"369622\",\"0.0-38.0\",\"\",\"\",\"1-4\",\"4757\",\"40\",\"0\",\"Training\",\"Stims/Figures/128-C-30-3.bmp\",\"ma:mala\",\"Down\",\"38\",\"3\",\"3\",\"4\",\"S\",\"C\",\"35\"
\"\",\"\",\"approach-retreat\",\"39\",\"375568\",\"0.0-39.0\",\"\",\"\",\"1-4\",\"4410\",\"40\",\"0\",\"Training\",\"Stims/Figures/71-J-0-1.bmp\",\"pakaka\",\"Up\",\"38\",\"3\",\"4\",\"4\",\"P\",\"C\",\"36\"
\"\",\"\",\"approach-retreat\",\"40\",\"381433\",\"0.0-40.0\",\"\",\"\",\"1-4\",\"4335\",\"38\",\"1\",\"Training\",\"Stims/Figures/87-C-20-4.bmp\",\"namala\",\"Down\",\"38\",\"3\",\"5\",\"4\",\"S\",\"C\",\"37\"
\"\",\"\",\"approach-retreat\",\"41\",\"387052\",\"0.0-41.0\",\"\",\"\",\"1-4\",\"4077\",\"38\",\"0\",\"Training\",\"Stims/Figures/87-J-10-4.bmp\",\"ta:paka\",\"Down\",\"40\",\"3\",\"6\",\"4\",\"P\",\"C\",\"38\"
\"\",\"\",\"approach-retreat\",\"42\",\"393260\",\"0.0-42.0\",\"\",\"\",\"1-4\",\"4673\",\"38\",\"0\",\"Training\",\"Stims/Figures/118-J-0-2.bmp\",\"ta:kata\",\"Down\",\"40\",\"3\",\"7\",\"4\",\"P\",\"C\",\"39\"
\"\",\"\",\"approach-retreat\",\"43\",\"401121\",\"0.0-43.0\",\"\",\"\",\"1-4\",\"6326\",\"39\",\"1\",\"Training\",\"Stims/Figures/100-C-30-3.bmp\",\"ma:la:na\",\"Left\",\"39\",\"3\",\"8\",\"4\",\"S\",\"C\",\"40\"
\"\",\"\",\"approach-retreat\",\"44\",\"408475\",\"0.0-44.0\",\"\",\"\",\"1-4\",\"5818\",\"37\",\"1\",\"Training\",\"Stims/Figures/19-C-20-4.bmp\",\"na:la:la\",\"Right\",\"37\",\"3\",\"9\",\"4\",\"S\",\"C\",\"41\"
\"\",\"\",\"approach-retreat\",\"45\",\"414639\",\"0.0-45.0\",\"\",\"\",\"1-4\",\"4630\",\"40\",\"0\",\"Training\",\"Stims/Figures/19-J-10-4.bmp\",\"papa:ka\",\"Up\",\"38\",\"3\",\"10\",\"4\",\"P\",\"C\",\"42\"
\"\",\"\",\"approach-retreat\",\"46\",\"420433\",\"0.0-46.0\",\"\",\"\",\"1-4\",\"4258\",\"40\",\"1\",\"Training\",\"Stims/Figures/71-C-30-1.bmp\",\"na:mana\",\"Up\",\"40\",\"3\",\"11\",\"4\",\"S\",\"C\",\"43\"
\"\",\"\",\"approach-retreat\",\"47\",\"426730\",\"0.0-47.0\",\"\",\"\",\"1-4\",\"4780\",\"39\",\"0\",\"Training\",\"Stims/Figures/118-C-20-2.bmp\",\"na:lala\",\"Right\",\"37\",\"3\",\"12\",\"4\",\"S\",\"C\",\"44\"
\"\",\"\",\"approach-retreat\",\"48\",\"433059\",\"0.0-48.0\",\"\",\"\",\"1-4\",\"4788\",\"39\",\"0\",\"Training\",\"Stims/Figures/139-J-0-2.bmp\",\"pa:pa:ta\",\"Left\",\"37\",\"3\",\"13\",\"4\",\"P\",\"C\",\"45\"
\"\",\"\",\"approach-retreat\",\"49\",\"439033\",\"0.0-49.0\",\"\",\"\",\"1-4\",\"4434\",\"40\",\"0\",\"Training\",\"Stims/Figures/128-J-10-3.bmp\",\"pa:pa:ka\",\"Up\",\"38\",\"3\",\"14\",\"4\",\"P\",\"C\",\"46\"
\"\",\"\",\"approach-retreat\",\"50\",\"444725\",\"0.0-50.0\",\"\",\"\",\"1-4\",\"4166\",\"37\",\"1\",\"Training\",\"Stims/Figures/139-C-20-2.bmp\",\"na:lana\",\"Right\",\"37\",\"3\",\"15\",\"4\",\"S\",\"C\",\"47\"
\"\",\"\",\"approach-retreat\",\"51\",\"451705\",\"0.0-51.0\",\"\",\"\",\"1-4\",\"5443\",\"39\",\"0\",\"Training\",\"Stims/Figures/100-J-10-3.bmp\",\"pa:kaka\",\"Left\",\"37\",\"3\",\"16\",\"4\",\"P\",\"C\",\"48\"
\"\",\"\",\"approach-retreat\",\"52\",\"459405\",\"0.0-52.0\",\"\",\"\",\"1-4\",\"6163\",\"38\",\"0\",\"Training\",\"Stims/Figures/87-J-10-4.bmp\",\"ta:paka\",\"Down\",\"40\",\"4\",\"1\",\"4\",\"P\",\"C\",\"49\"
\"\",\"\",\"approach-retreat\",\"53\",\"465238\",\"0.0-53.0\",\"\",\"\",\"1-4\",\"4296\",\"37\",\"1\",\"Training\",\"Stims/Figures/87-C-20-4.bmp\",\"namala\",\"Right\",\"37\",\"4\",\"2\",\"4\",\"S\",\"C\",\"50\"
\"\",\"\",\"approach-retreat\",\"54\",\"471562\",\"0.0-54.0\",\"\",\"\",\"1-4\",\"4803\",\"38\",\"1\",\"Training\",\"Stims/Figures/118-J-0-2.bmp\",\"ta:kata\",\"Up\",\"38\",\"4\",\"3\",\"4\",\"P\",\"C\",\"51\"
\"\",\"\",\"approach-retreat\",\"55\",\"478786\",\"0.0-55.0\",\"\",\"\",\"1-4\",\"5705\",\"37\",\"0\",\"Training\",\"Stims/Figures/118-C-20-2.bmp\",\"na:lala\",\"Left\",\"39\",\"4\",\"4\",\"4\",\"S\",\"C\",\"52\"
\"\",\"\",\"approach-retreat\",\"56\",\"486212\",\"0.0-56.0\",\"\",\"\",\"1-4\",\"5887\",\"37\",\"1\",\"Training\",\"Stims/Figures/86-J-0-1.bmp\",\"taka:ka\",\"Left\",\"37\",\"4\",\"5\",\"4\",\"P\",\"C\",\"53\"
\"\",\"\",\"approach-retreat\",\"57\",\"493504\",\"0.0-57.0\",\"\",\"\",\"1-4\",\"5753\",\"38\",\"1\",\"Training\",\"Stims/Figures/71-C-30-1.bmp\",\"na:mana\",\"Down\",\"38\",\"4\",\"6\",\"4\",\"S\",\"C\",\"54\"
\"\",\"\",\"approach-retreat\",\"58\",\"499354\",\"0.0-58.0\",\"\",\"\",\"1-4\",\"4320\",\"37\",\"1\",\"Training\",\"Stims/Figures/19-C-20-4.bmp\",\"na:la:la\",\"Right\",\"37\",\"4\",\"7\",\"4\",\"S\",\"C\",\"55\"
\"\",\"\",\"approach-retreat\",\"59\",\"506889\",\"0.0-59.0\",\"\",\"\",\"1-4\",\"6012\",\"37\",\"1\",\"Training\",\"Stims/Figures/100-J-10-3.bmp\",\"pa:kaka\",\"Left\",\"37\",\"4\",\"8\",\"4\",\"P\",\"C\",\"56\"
\"\",\"\",\"approach-retreat\",\"60\",\"512937\",\"0.0-60.0\",\"\",\"\",\"1-4\",\"4508\",\"37\",\"0\",\"Training\",\"Stims/Figures/71-J-0-1.bmp\",\"pakaka\",\"Right\",\"39\",\"4\",\"9\",\"4\",\"P\",\"C\",\"57\"
\"\",\"\",\"approach-retreat\",\"61\",\"519089\",\"0.0-61.0\",\"\",\"\",\"1-4\",\"4619\",\"37\",\"0\",\"Training\",\"Stims/Figures/86-C-30-1.bmp\",\"nama:na\",\"Left\",\"39\",\"4\",\"10\",\"4\",\"S\",\"C\",\"58\"
\"\",\"\",\"approach-retreat\",\"62\",\"524989\",\"0.0-62.0\",\"\",\"\",\"1-4\",\"4372\",\"38\",\"1\",\"Training\",\"Stims/Figures/139-J-0-2.bmp\",\"pa:pa:ta\",\"Up\",\"38\",\"4\",\"11\",\"4\",\"P\",\"C\",\"59\"
\"\",\"\",\"approach-retreat\",\"63\",\"531407\",\"0.0-63.0\",\"\",\"\",\"1-4\",\"4882\",\"38\",\"0\",\"Training\",\"Stims/Figures/100-C-30-3.bmp\",\"ma:la:na\",\"Up\",\"40\",\"4\",\"12\",\"4\",\"S\",\"C\",\"60\"
\"\",\"\",\"approach-retreat\",\"64\",\"537163\",\"0.0-64.0\",\"\",\"\",\"1-4\",\"4221\",\"38\",\"1\",\"Training\",\"Stims/Figures/128-C-30-3.bmp\",\"ma:mala\",\"Down\",\"38\",\"4\",\"13\",\"4\",\"S\",\"C\",\"61\"
\"\",\"\",\"approach-retreat\",\"65\",\"545870\",\"0.0-65.0\",\"\",\"\",\"1-4\",\"7166\",\"39\",\"0\",\"Training\",\"Stims/Figures/139-C-20-2.bmp\",\"na:lana\",\"Right\",\"37\",\"4\",\"14\",\"4\",\"S\",\"C\",\"62\"
\"\",\"\",\"approach-retreat\",\"66\",\"551756\",\"0.0-66.0\",\"\",\"\",\"1-4\",\"4350\",\"38\",\"1\",\"Training\",\"Stims/Figures/128-J-10-3.bmp\",\"pa:pa:ka\",\"Up\",\"38\",\"4\",\"15\",\"4\",\"P\",\"C\",\"63\"
\"\",\"\",\"approach-retreat\",\"67\",\"558482\",\"0.0-67.0\",\"\",\"\",\"1-4\",\"5191\",\"38\",\"0\",\"Training\",\"Stims/Figures/19-J-10-4.bmp\",\"papa:ka\",\"Down\",\"40\",\"4\",\"16\",\"4\",\"P\",\"C\",\"64\"
\"\",\"\",\"approach-retreat\",\"68\",\"564650\",\"0.0-68.0\",\"\",\"\",\"1-4\",\"4631\",\"40\",\"1\",\"Training\",\"Stims/Figures/19-C-20-4.bmp\",\"na:la:la\",\"Up\",\"40\",\"5\",\"1\",\"4\",\"S\",\"C\",\"65\"
\"\",\"\",\"approach-retreat\",\"69\",\"570908\",\"0.0-69.0\",\"\",\"\",\"1-4\",\"4747\",\"39\",\"1\",\"Training\",\"Stims/Figures/128-C-30-3.bmp\",\"ma:mala\",\"Left\",\"39\",\"5\",\"2\",\"4\",\"S\",\"C\",\"66\"
\"\",\"\",\"approach-retreat\",\"70\",\"576795\",\"0.0-70.0\",\"\",\"\",\"1-4\",\"4366\",\"37\",\"1\",\"Training\",\"Stims/Figures/118-C-20-2.bmp\",\"na:lala\",\"Right\",\"37\",\"5\",\"3\",\"4\",\"S\",\"C\",\"67\"
\"\",\"\",\"approach-retreat\",\"71\",\"582750\",\"0.0-71.0\",\"\",\"\",\"1-4\",\"4419\",\"39\",\"1\",\"Training\",\"Stims/Figures/86-C-30-1.bmp\",\"nama:na\",\"Left\",\"39\",\"5\",\"4\",\"4\",\"S\",\"C\",\"68\"
\"\",\"\",\"approach-retreat\",\"72\",\"589616\",\"0.0-72.0\",\"\",\"\",\"1-4\",\"5327\",\"38\",\"1\",\"Training\",\"Stims/Figures/100-C-30-3.bmp\",\"ma:la:na\",\"Down\",\"38\",\"5\",\"5\",\"4\",\"S\",\"C\",\"69\"
\"\",\"\",\"approach-retreat\",\"73\",\"595944\",\"0.0-73.0\",\"\",\"\",\"1-4\",\"4792\",\"39\",\"1\",\"Training\",\"Stims/Figures/71-C-30-1.bmp\",\"na:mana\",\"Left\",\"39\",\"5\",\"6\",\"4\",\"S\",\"C\",\"70\"
\"\",\"\",\"approach-retreat\",\"74\",\"602014\",\"0.0-74.0\",\"\",\"\",\"1-4\",\"4542\",\"40\",\"0\",\"Training\",\"Stims/Figures/100-J-10-3.bmp\",\"pa:kaka\",\"Up\",\"38\",\"5\",\"7\",\"4\",\"P\",\"C\",\"71\"
\"\",\"\",\"approach-retreat\",\"75\",\"608866\",\"0.0-75.0\",\"\",\"\",\"1-4\",\"5313\",\"38\",\"0\",\"Training\",\"Stims/Figures/71-J-0-1.bmp\",\"pakaka\",\"Down\",\"40\",\"5\",\"8\",\"4\",\"P\",\"C\",\"72\"
\"\",\"\",\"approach-retreat\",\"76\",\"614803\",\"0.0-76.0\",\"\",\"\",\"1-4\",\"4405\",\"40\",\"1\",\"Training\",\"Stims/Figures/87-J-10-4.bmp\",\"ta:paka\",\"Down\",\"40\",\"5\",\"9\",\"4\",\"P\",\"C\",\"73\"
\"\",\"\",\"approach-retreat\",\"77\",\"621322\",\"0.0-77.0\",\"\",\"\",\"1-4\",\"4983\",\"39\",\"0\",\"Training\",\"Stims/Figures/139-C-20-2.bmp\",\"na:lana\",\"Right\",\"37\",\"5\",\"10\",\"4\",\"S\",\"C\",\"74\"
\"\",\"\",\"approach-retreat\",\"78\",\"629018\",\"0.0-78.0\",\"\",\"\",\"1-4\",\"6166\",\"37\",\"1\",\"Training\",\"Stims/Figures/87-C-20-4.bmp\",\"namala\",\"Right\",\"37\",\"5\",\"11\",\"4\",\"S\",\"C\",\"75\"
\"\",\"\",\"approach-retreat\",\"79\",\"635964\",\"0.0-79.0\",\"\",\"\",\"1-4\",\"5425\",\"39\",\"0\",\"Training\",\"Stims/Figures/19-J-10-4.bmp\",\"papa:ka\",\"Left\",\"37\",\"5\",\"12\",\"4\",\"P\",\"C\",\"76\"
\"\",\"\",\"approach-retreat\",\"80\",\"642043\",\"0.0-80.0\",\"\",\"\",\"1-4\",\"4546\",\"39\",\"1\",\"Training\",\"Stims/Figures/139-J-0-2.bmp\",\"pa:pa:ta\",\"Right\",\"39\",\"5\",\"13\",\"4\",\"P\",\"C\",\"77\"
\"\",\"\",\"approach-retreat\",\"81\",\"648179\",\"0.0-81.0\",\"\",\"\",\"1-4\",\"4600\",\"38\",\"1\",\"Training\",\"Stims/Figures/128-J-10-3.bmp\",\"pa:pa:ka\",\"Up\",\"38\",\"5\",\"14\",\"4\",\"P\",\"C\",\"78\"
\"\",\"\",\"approach-retreat\",\"82\",\"654109\",\"0.0-82.0\",\"\",\"\",\"1-4\",\"4400\",\"40\",\"0\",\"Training\",\"Stims/Figures/86-J-0-1.bmp\",\"taka:ka\",\"Up\",\"38\",\"5\",\"15\",\"4\",\"P\",\"C\",\"79\"
\"\",\"\",\"approach-retreat\",\"83\",\"661505\",\"0.0-83.0\",\"\",\"\",\"1-4\",\"5863\",\"38\",\"0\",\"Training\",\"Stims/Figures/118-J-0-2.bmp\",\"ta:kata\",\"Down\",\"40\",\"5\",\"16\",\"4\",\"P\",\"C\",\"80\"
\"\",\"\",\"approach-retreat\",\"84\",\"667998\",\"0.0-84.0\",\"\",\"\",\"1-4\",\"4952\",\"38\",\"0\",\"Training\",\"Stims/Figures/128-J-10-3.bmp\",\"pa:pa:ka\",\"Down\",\"40\",\"6\",\"1\",\"4\",\"P\",\"C\",\"81\"
\"\",\"\",\"approach-retreat\",\"85\",\"675003\",\"0.0-85.0\",\"\",\"\",\"1-4\",\"5473\",\"39\",\"0\",\"Training\",\"Stims/Figures/71-C-30-1.bmp\",\"na:mana\",\"Right\",\"37\",\"6\",\"2\",\"4\",\"S\",\"C\",\"82\"
\"\",\"\",\"approach-retreat\",\"86\",\"682579\",\"0.0-86.0\",\"\",\"\",\"1-4\",\"6040\",\"37\",\"0\",\"Training\",\"Stims/Figures/118-C-20-2.bmp\",\"na:lala\",\"Left\",\"39\",\"6\",\"3\",\"4\",\"S\",\"C\",\"83\"
\"\",\"\",\"approach-retreat\",\"87\",\"688686\",\"0.0-87.0\",\"\",\"\",\"1-4\",\"4577\",\"38\",\"0\",\"Training\",\"Stims/Figures/139-C-20-2.bmp\",\"na:lana\",\"Up\",\"40\",\"6\",\"4\",\"4\",\"S\",\"C\",\"84\"
\"\",\"\",\"approach-retreat\",\"88\",\"694268\",\"0.0-88.0\",\"\",\"\",\"1-4\",\"4057\",\"37\",\"1\",\"Training\",\"Stims/Figures/100-J-10-3.bmp\",\"pa:kaka\",\"Left\",\"37\",\"6\",\"5\",\"4\",\"P\",\"C\",\"85\"
\"\",\"\",\"approach-retreat\",\"89\",\"703032\",\"0.0-89.0\",\"\",\"\",\"1-4\",\"7240\",\"40\",\"1\",\"Training\",\"Stims/Figures/128-C-30-3.bmp\",\"ma:mala\",\"Up\",\"40\",\"6\",\"6\",\"4\",\"S\",\"C\",\"86\"
\"\",\"\",\"approach-retreat\",\"90\",\"708972\",\"0.0-90.0\",\"\",\"\",\"1-4\",\"4405\",\"39\",\"1\",\"Training\",\"Stims/Figures/87-J-10-4.bmp\",\"ta:paka\",\"Right\",\"39\",\"6\",\"7\",\"4\",\"P\",\"C\",\"87\"
\"\",\"\",\"approach-retreat\",\"91\",\"716625\",\"0.0-91.0\",\"\",\"\",\"1-4\",\"6117\",\"38\",\"0\",\"Training\",\"Stims/Figures/19-J-10-4.bmp\",\"papa:ka\",\"Down\",\"40\",\"6\",\"8\",\"4\",\"P\",\"C\",\"88\"
\"\",\"\",\"approach-retreat\",\"92\",\"726987\",\"0.0-92.0\",\"\",\"\",\"1-4\",\"8829\",\"38\",\"0\",\"Training\",\"Stims/Figures/19-C-20-4.bmp\",\"na:la:la\",\"Up\",\"40\",\"6\",\"9\",\"4\",\"S\",\"C\",\"89\"
\"\",\"\",\"approach-retreat\",\"93\",\"732841\",\"0.0-93.0\",\"\",\"\",\"1-4\",\"4316\",\"37\",\"1\",\"Training\",\"Stims/Figures/71-J-0-1.bmp\",\"pakaka\",\"Left\",\"37\",\"6\",\"10\",\"4\",\"P\",\"C\",\"90\"
\"\",\"\",\"approach-retreat\",\"94\",\"738453\",\"0.0-94.0\",\"\",\"\",\"1-4\",\"4081\",\"37\",\"0\",\"Training\",\"Stims/Figures/100-C-30-3.bmp\",\"ma:la:na\",\"Left\",\"39\",\"6\",\"11\",\"4\",\"S\",\"C\",\"91\"
\"\",\"\",\"approach-retreat\",\"95\",\"745251\",\"0.0-95.0\",\"\",\"\",\"1-4\",\"5288\",\"40\",\"1\",\"Training\",\"Stims/Figures/86-J-0-1.bmp\",\"taka:ka\",\"Down\",\"40\",\"6\",\"12\",\"4\",\"P\",\"C\",\"92\"
\"\",\"\",\"approach-retreat\",\"96\",\"751404\",\"0.0-96.0\",\"\",\"\",\"1-4\",\"4621\",\"37\",\"1\",\"Training\",\"Stims/Figures/86-C-30-1.bmp\",\"nama:na\",\"Right\",\"37\",\"6\",\"13\",\"4\",\"S\",\"C\",\"93\"
\"\",\"\",\"approach-retreat\",\"97\",\"757409\",\"0.0-97.0\",\"\",\"\",\"1-4\",\"4474\",\"38\",\"1\",\"Training\",\"Stims/Figures/118-J-0-2.bmp\",\"ta:kata\",\"Up\",\"38\",\"6\",\"14\",\"4\",\"P\",\"C\",\"94\"
\"\",\"\",\"approach-retreat\",\"98\",\"764995\",\"0.0-98.0\",\"\",\"\",\"1-4\",\"6045\",\"38\",\"1\",\"Training\",\"Stims/Figures/87-C-20-4.bmp\",\"namala\",\"Down\",\"38\",\"6\",\"15\",\"4\",\"S\",\"C\",\"95\"
\"\",\"\",\"approach-retreat\",\"99\",\"771176\",\"0.0-99.0\",\"\",\"\",\"1-4\",\"4650\",\"39\",\"1\",\"Training\",\"Stims/Figures/139-J-0-2.bmp\",\"pa:pa:ta\",\"Right\",\"39\",\"6\",\"16\",\"4\",\"P\",\"C\",\"96\"
\"\",\"\",\"approach-retreat\",\"100\",\"779363\",\"0.0-100.0\",\"\",\"\",\"1-4\",\"6653\",\"39\",\"1\",\"Training\",\"Stims/Figures/100-J-10-3.bmp\",\"pa:kaka\",\"Right\",\"39\",\"7\",\"1\",\"4\",\"P\",\"C\",\"97\"
\"\",\"\",\"approach-retreat\",\"101\",\"785218\",\"0.0-101.0\",\"\",\"\",\"1-4\",\"4324\",\"37\",\"1\",\"Training\",\"Stims/Figures/86-J-0-1.bmp\",\"taka:ka\",\"Left\",\"37\",\"7\",\"2\",\"4\",\"P\",\"C\",\"98\"
\"\",\"\",\"approach-retreat\",\"102\",\"791310\",\"0.0-102.0\",\"\",\"\",\"1-4\",\"4551\",\"40\",\"1\",\"Training\",\"Stims/Figures/128-J-10-3.bmp\",\"pa:pa:ka\",\"Down\",\"40\",\"7\",\"3\",\"4\",\"P\",\"C\",\"99\"
\"\",\"\",\"approach-retreat\",\"103\",\"797609\",\"0.0-103.0\",\"\",\"\",\"1-4\",\"4753\",\"40\",\"1\",\"Training\",\"Stims/Figures/118-C-20-2.bmp\",\"na:lala\",\"Up\",\"40\",\"7\",\"4\",\"4\",\"S\",\"C\",\"100\"
\"\",\"\",\"approach-retreat\",\"104\",\"803751\",\"0.0-104.0\",\"\",\"\",\"1-4\",\"4603\",\"39\",\"1\",\"Training\",\"Stims/Figures/87-C-20-4.bmp\",\"namala\",\"Left\",\"39\",\"7\",\"5\",\"4\",\"S\",\"C\",\"101\"
\"\",\"\",\"approach-retreat\",\"105\",\"809614\",\"0.0-105.0\",\"\",\"\",\"1-4\",\"4325\",\"40\",\"1\",\"Training\",\"Stims/Figures/19-C-20-4.bmp\",\"na:la:la\",\"Up\",\"40\",\"7\",\"6\",\"4\",\"S\",\"C\",\"102\"
\"\",\"\",\"approach-retreat\",\"106\",\"815555\",\"0.0-106.0\",\"\",\"\",\"1-4\",\"4406\",\"40\",\"0\",\"Training\",\"Stims/Figures/87-J-10-4.bmp\",\"ta:paka\",\"Up\",\"38\",\"7\",\"7\",\"4\",\"P\",\"C\",\"103\"
\"\",\"\",\"approach-retreat\",\"107\",\"821529\",\"0.0-107.0\",\"\",\"\",\"1-4\",\"4433\",\"38\",\"0\",\"Training\",\"Stims/Figures/19-J-10-4.bmp\",\"papa:ka\",\"Down\",\"40\",\"7\",\"8\",\"4\",\"P\",\"C\",\"104\"
\"\",\"\",\"approach-retreat\",\"108\",\"827237\",\"0.0-108.0\",\"\",\"\",\"1-4\",\"4192\",\"40\",\"1\",\"Training\",\"Stims/Figures/86-C-30-1.bmp\",\"nama:na\",\"Up\",\"40\",\"7\",\"9\",\"4\",\"S\",\"C\",\"105\"
\"\",\"\",\"approach-retreat\",\"109\",\"834822\",\"0.0-109.0\",\"\",\"\",\"1-4\",\"6051\",\"38\",\"1\",\"Training\",\"Stims/Figures/71-C-30-1.bmp\",\"na:mana\",\"Down\",\"38\",\"7\",\"10\",\"4\",\"S\",\"C\",\"106\"
\"\",\"\",\"approach-retreat\",\"110\",\"840993\",\"0.0-110.0\",\"\",\"\",\"1-4\",\"4638\",\"38\",\"1\",\"Training\",\"Stims/Figures/100-C-30-3.bmp\",\"ma:la:na\",\"Down\",\"38\",\"7\",\"11\",\"4\",\"S\",\"C\",\"107\"
\"\",\"\",\"approach-retreat\",\"111\",\"847040\",\"0.0-111.0\",\"\",\"\",\"1-4\",\"4509\",\"39\",\"1\",\"Training\",\"Stims/Figures/118-J-0-2.bmp\",\"ta:kata\",\"Right\",\"39\",\"7\",\"12\",\"4\",\"P\",\"C\",\"108\"
\"\",\"\",\"approach-retreat\",\"112\",\"852699\",\"0.0-112.0\",\"\",\"\",\"1-4\",\"4114\",\"39\",\"1\",\"Training\",\"Stims/Figures/71-J-0-1.bmp\",\"pakaka\",\"Right\",\"39\",\"7\",\"13\",\"4\",\"P\",\"C\",\"109\"
\"\",\"\",\"approach-retreat\",\"113\",\"858612\",\"0.0-113.0\",\"\",\"\",\"1-4\",\"4374\",\"37\",\"1\",\"Training\",\"Stims/Figures/139-J-0-2.bmp\",\"pa:pa:ta\",\"Left\",\"37\",\"7\",\"14\",\"4\",\"P\",\"C\",\"110\"
\"\",\"\",\"approach-retreat\",\"114\",\"866027\",\"0.0-114.0\",\"\",\"\",\"1-4\",\"5882\",\"39\",\"1\",\"Training\",\"Stims/Figures/128-C-30-3.bmp\",\"ma:mala\",\"Left\",\"39\",\"7\",\"15\",\"4\",\"S\",\"C\",\"111\"
\"\",\"\",\"approach-retreat\",\"115\",\"872472\",\"0.0-115.0\",\"\",\"\",\"1-4\",\"4903\",\"37\",\"1\",\"Training\",\"Stims/Figures/139-C-20-2.bmp\",\"na:lana\",\"Right\",\"37\",\"7\",\"16\",\"4\",\"S\",\"C\",\"112\"
\"\",\"\",\"approach-retreat\",\"116\",\"881333\",\"0.0-116.0\",\"\",\"\",\"1-4\",\"7327\",\"38\",\"0\",\"Training\",\"Stims/Figures/118-C-20-2.bmp\",\"na:lala\",\"Up\",\"40\",\"8\",\"1\",\"4\",\"S\",\"C\",\"113\"
\"\",\"\",\"approach-retreat\",\"117\",\"887028\",\"0.0-117.0\",\"\",\"\",\"1-4\",\"4174\",\"37\",\"1\",\"Training\",\"Stims/Figures/139-C-20-2.bmp\",\"na:lana\",\"Right\",\"37\",\"8\",\"2\",\"4\",\"S\",\"C\",\"114\"
\"\",\"\",\"approach-retreat\",\"118\",\"893150\",\"0.0-118.0\",\"\",\"\",\"1-4\",\"4591\",\"40\",\"1\",\"Training\",\"Stims/Figures/19-J-10-4.bmp\",\"papa:ka\",\"Down\",\"40\",\"8\",\"3\",\"4\",\"P\",\"C\",\"115\"
\"\",\"\",\"approach-retreat\",\"119\",\"899090\",\"0.0-119.0\",\"\",\"\",\"1-4\",\"4408\",\"38\",\"1\",\"Training\",\"Stims/Figures/71-C-30-1.bmp\",\"na:mana\",\"Down\",\"38\",\"8\",\"4\",\"4\",\"S\",\"C\",\"116\"
\"\",\"\",\"approach-retreat\",\"120\",\"904927\",\"0.0-120.0\",\"\",\"\",\"1-4\",\"4300\",\"37\",\"1\",\"Training\",\"Stims/Figures/100-J-10-3.bmp\",\"pa:kaka\",\"Left\",\"37\",\"8\",\"5\",\"4\",\"P\",\"C\",\"117\"
\"\",\"\",\"approach-retreat\",\"121\",\"910708\",\"0.0-121.0\",\"\",\"\",\"1-4\",\"4245\",\"40\",\"1\",\"Training\",\"Stims/Figures/86-C-30-1.bmp\",\"nama:na\",\"Up\",\"40\",\"8\",\"6\",\"4\",\"S\",\"C\",\"118\"
\"\",\"\",\"approach-retreat\",\"122\",\"916707\",\"0.0-122.0\",\"\",\"\",\"1-4\",\"4461\",\"38\",\"1\",\"Training\",\"Stims/Figures/71-J-0-1.bmp\",\"pakaka\",\"Up\",\"38\",\"8\",\"7\",\"4\",\"P\",\"C\",\"119\"
\"\",\"\",\"approach-retreat\",\"123\",\"922394\",\"0.0-123.0\",\"\",\"\",\"1-4\",\"4149\",\"38\",\"1\",\"Training\",\"Stims/Figures/128-J-10-3.bmp\",\"pa:pa:ka\",\"Up\",\"38\",\"8\",\"8\",\"4\",\"P\",\"C\",\"120\"
\"\",\"\",\"approach-retreat\",\"124\",\"928161\",\"0.0-124.0\",\"\",\"\",\"1-4\",\"4235\",\"40\",\"1\",\"Training\",\"Stims/Figures/139-J-0-2.bmp\",\"pa:pa:ta\",\"Down\",\"40\",\"8\",\"9\",\"4\",\"P\",\"C\",\"121\"
\"\",\"\",\"approach-retreat\",\"125\",\"934588\",\"0.0-125.0\",\"\",\"\",\"1-4\",\"4905\",\"39\",\"1\",\"Training\",\"Stims/Figures/87-J-10-4.bmp\",\"ta:paka\",\"Right\",\"39\",\"8\",\"10\",\"4\",\"P\",\"C\",\"122\"
\"\",\"\",\"approach-retreat\",\"126\",\"940717\",\"0.0-126.0\",\"\",\"\",\"1-4\",\"4600\",\"38\",\"1\",\"Training\",\"Stims/Figures/19-C-20-4.bmp\",\"na:la:la\",\"Down\",\"38\",\"8\",\"11\",\"4\",\"S\",\"C\",\"123\"
\"\",\"\",\"approach-retreat\",\"127\",\"946459\",\"0.0-127.0\",\"\",\"\",\"1-4\",\"4205\",\"37\",\"1\",\"Training\",\"Stims/Figures/128-C-30-3.bmp\",\"ma:mala\",\"Right\",\"37\",\"8\",\"12\",\"4\",\"S\",\"C\",\"124\"
\"\",\"\",\"approach-retreat\",\"128\",\"952587\",\"0.0-128.0\",\"\",\"\",\"1-4\",\"4600\",\"39\",\"1\",\"Training\",\"Stims/Figures/100-C-30-3.bmp\",\"ma:la:na\",\"Left\",\"39\",\"8\",\"13\",\"4\",\"S\",\"C\",\"125\"
\"\",\"\",\"approach-retreat\",\"129\",\"958432\",\"0.0-129.0\",\"\",\"\",\"1-4\",\"4302\",\"39\",\"1\",\"Training\",\"Stims/Figures/87-C-20-4.bmp\",\"namala\",\"Left\",\"39\",\"8\",\"14\",\"4\",\"S\",\"C\",\"126\"
\"\",\"\",\"approach-retreat\",\"130\",\"964526\",\"0.0-130.0\",\"\",\"\",\"1-4\",\"4556\",\"39\",\"1\",\"Training\",\"Stims/Figures/118-J-0-2.bmp\",\"ta:kata\",\"Right\",\"39\",\"8\",\"15\",\"4\",\"P\",\"C\",\"127\"
\"\",\"\",\"approach-retreat\",\"131\",\"970371\",\"0.0-131.0\",\"\",\"\",\"1-4\",\"4308\",\"37\",\"1\",\"Training\",\"Stims/Figures/86-J-0-1.bmp\",\"taka:ka\",\"Left\",\"37\",\"8\",\"16\",\"4\",\"P\",\"C\",\"128\"
\"\",\"\",\"approach-retreat\",\"132\",\"976767\",\"0.0-132.0\",\"\",\"\",\"1-4\",\"4857\",\"38\",\"1\",\"Training\",\"Stims/Figures/100-C-30-3.bmp\",\"ma:la:na\",\"Down\",\"38\",\"9\",\"1\",\"4\",\"S\",\"C\",\"129\"
\"\",\"\",\"approach-retreat\",\"133\",\"983320\",\"0.0-133.0\",\"\",\"\",\"1-4\",\"5013\",\"37\",\"1\",\"Training\",\"Stims/Figures/71-J-0-1.bmp\",\"pakaka\",\"Left\",\"37\",\"9\",\"2\",\"4\",\"P\",\"C\",\"130\"
\"\",\"\",\"approach-retreat\",\"134\",\"989090\",\"0.0-134.0\",\"\",\"\",\"1-4\",\"4236\",\"37\",\"1\",\"Training\",\"Stims/Figures/139-C-20-2.bmp\",\"na:lana\",\"Right\",\"37\",\"9\",\"3\",\"4\",\"S\",\"C\",\"131\"
\"\",\"\",\"approach-retreat\",\"135\",\"994968\",\"0.0-135.0\",\"\",\"\",\"1-4\",\"4347\",\"40\",\"1\",\"Training\",\"Stims/Figures/118-C-20-2.bmp\",\"na:lala\",\"Up\",\"40\",\"9\",\"4\",\"4\",\"S\",\"C\",\"132\"
\"\",\"\",\"approach-retreat\",\"136\",\"1000875\",\"0.0-136.0\",\"\",\"\",\"1-4\",\"4388\",\"40\",\"1\",\"Training\",\"Stims/Figures/87-C-20-4.bmp\",\"namala\",\"Up\",\"40\",\"9\",\"5\",\"4\",\"S\",\"C\",\"133\"
\"\",\"\",\"approach-retreat\",\"137\",\"1006617\",\"0.0-137.0\",\"\",\"\",\"1-4\",\"4220\",\"37\",\"1\",\"Training\",\"Stims/Figures/100-J-10-3.bmp\",\"pa:kaka\",\"Left\",\"37\",\"9\",\"6\",\"4\",\"P\",\"C\",\"134\"
\"\",\"\",\"approach-retreat\",\"138\",\"1012435\",\"0.0-138.0\",\"\",\"\",\"1-4\",\"4281\",\"37\",\"1\",\"Training\",\"Stims/Figures/71-C-30-1.bmp\",\"na:mana\",\"Right\",\"37\",\"9\",\"7\",\"4\",\"S\",\"C\",\"135\"
\"\",\"\",\"approach-retreat\",\"139\",\"1018361\",\"0.0-139.0\",\"\",\"\",\"1-4\",\"4388\",\"37\",\"1\",\"Training\",\"Stims/Figures/139-J-0-2.bmp\",\"pa:pa:ta\",\"Left\",\"37\",\"9\",\"8\",\"4\",\"P\",\"C\",\"136\"
\"\",\"\",\"approach-retreat\",\"140\",\"1024283\",\"0.0-140.0\",\"\",\"\",\"1-4\",\"4388\",\"38\",\"1\",\"Training\",\"Stims/Figures/128-C-30-3.bmp\",\"ma:mala\",\"Down\",\"38\",\"9\",\"9\",\"4\",\"S\",\"C\",\"137\"
\"\",\"\",\"approach-retreat\",\"141\",\"1030129\",\"0.0-141.0\",\"\",\"\",\"1-4\",\"4313\",\"38\",\"1\",\"Training\",\"Stims/Figures/128-J-10-3.bmp\",\"pa:pa:ka\",\"Up\",\"38\",\"9\",\"10\",\"4\",\"P\",\"C\",\"138\"
\"\",\"\",\"approach-retreat\",\"142\",\"1036780\",\"0.0-142.0\",\"\",\"\",\"1-4\",\"5118\",\"39\",\"1\",\"Training\",\"Stims/Figures/87-J-10-4.bmp\",\"ta:paka\",\"Right\",\"39\",\"9\",\"11\",\"4\",\"P\",\"C\",\"139\"
\"\",\"\",\"approach-retreat\",\"143\",\"1043153\",\"0.0-143.0\",\"\",\"\",\"1-4\",\"4840\",\"39\",\"1\",\"Training\",\"Stims/Figures/86-C-30-1.bmp\",\"nama:na\",\"Left\",\"39\",\"9\",\"12\",\"4\",\"S\",\"C\",\"140\"
\"\",\"\",\"approach-retreat\",\"144\",\"1049381\",\"0.0-144.0\",\"\",\"\",\"1-4\",\"4689\",\"40\",\"1\",\"Training\",\"Stims/Figures/86-J-0-1.bmp\",\"taka:ka\",\"Down\",\"40\",\"9\",\"13\",\"4\",\"P\",\"C\",\"141\"
\"\",\"\",\"approach-retreat\",\"145\",\"1055050\",\"0.0-145.0\",\"\",\"\",\"1-4\",\"4149\",\"40\",\"1\",\"Training\",\"Stims/Figures/19-C-20-4.bmp\",\"na:la:la\",\"Up\",\"40\",\"9\",\"14\",\"4\",\"S\",\"C\",\"142\"
\"\",\"\",\"approach-retreat\",\"146\",\"1062582\",\"0.0-146.0\",\"\",\"\",\"1-4\",\"6011\",\"40\",\"1\",\"Training\",\"Stims/Figures/19-J-10-4.bmp\",\"papa:ka\",\"Down\",\"40\",\"9\",\"15\",\"4\",\"P\",\"C\",\"143\"
\"\",\"\",\"approach-retreat\",\"147\",\"1069005\",\"0.0-147.0\",\"\",\"\",\"1-4\",\"4890\",\"39\",\"1\",\"Training\",\"Stims/Figures/118-J-0-2.bmp\",\"ta:kata\",\"Right\",\"39\",\"9\",\"16\",\"4\",\"P\",\"C\",\"144\"
\"16870\",\"\",\"instructions\",\"148\",\"1085877\",\"0.0-148.0\",\"[{\"\"page_index\"\":0,\"\"viewing_time\"\":16868}]\",\"\",\"\",\"\",\"\",\"\",\"\",\"\",\"\",\"\",\"\",\"\",\"\",\"\",\"\",\"\",\"\"
\"\",\"\",\"approach-retreat\",\"149\",\"1093329\",\"0.0-149.0\",\"\",\"\",\"1-4\",\"5927\",\"38\",\"1\",\"Testing\",\"Stims/Figures/139-C-20-2.bmp\",\"na:lana\",\"Down\",\"38\",\"1\",\"1\",\"4\",\"S\",\"C\",\"1\"
\"\",\"\",\"approach-retreat\",\"150\",\"1099189\",\"0.0-150.0\",\"\",\"\",\"1-4\",\"4327\",\"37\",\"1\",\"Testing\",\"Stims/Figures/19-C-20-4.bmp\",\"na:la:la\",\"Right\",\"37\",\"1\",\"2\",\"4\",\"S\",\"C\",\"2\"
\"\",\"\",\"approach-retreat\",\"151\",\"1105273\",\"0.0-151.0\",\"\",\"\",\"1-4\",\"4568\",\"40\",\"1\",\"Testing\",\"Stims/Figures/19-J-10-4.bmp\",\"papa:ka\",\"Down\",\"40\",\"1\",\"3\",\"4\",\"P\",\"C\",\"3\"
\"\",\"\",\"approach-retreat\",\"152\",\"1112806\",\"0.0-152.0\",\"\",\"\",\"1-4\",\"6003\",\"39\",\"1\",\"Testing\",\"Stims/Figures/118-C-20-2.bmp\",\"na:lala\",\"Left\",\"39\",\"1\",\"4\",\"4\",\"S\",\"C\",\"4\"
\"\",\"\",\"approach-retreat\",\"153\",\"1118820\",\"0.0-153.0\",\"\",\"\",\"1-4\",\"4489\",\"37\",\"1\",\"Testing\",\"Stims/Figures/100-C-30-3.bmp\",\"ma:la:na\",\"Right\",\"37\",\"1\",\"5\",\"4\",\"S\",\"C\",\"5\"
\"\",\"\",\"approach-retreat\",\"154\",\"1126040\",\"0.0-154.0\",\"\",\"\",\"1-4\",\"5693\",\"39\",\"1\",\"Testing\",\"Stims/Figures/94-C-20-2.bmp\",\"na:mala\",\"Left\",\"39\",\"1\",\"6\",\"4\",\"S\",\"C\",\"6\"
\"\",\"\",\"approach-retreat\",\"155\",\"1132037\",\"0.0-155.0\",\"\",\"\",\"1-4\",\"4470\",\"40\",\"1\",\"Testing\",\"Stims/Figures/128-C-30-3.bmp\",\"ma:mala\",\"Up\",\"40\",\"1\",\"7\",\"4\",\"S\",\"C\",\"7\"
\"\",\"\",\"approach-retreat\",\"156\",\"1138056\",\"0.0-156.0\",\"\",\"\",\"1-4\",\"4503\",\"40\",\"1\",\"Testing\",\"Stims/Figures/86-J-0-1.bmp\",\"taka:ka\",\"Down\",\"40\",\"1\",\"8\",\"4\",\"P\",\"C\",\"8\"
\"\",\"\",\"approach-retreat\",\"157\",\"1143894\",\"0.0-157.0\",\"\",\"\",\"1-4\",\"4310\",\"40\",\"1\",\"Testing\",\"Stims/Figures/128-J-10-3.bmp\",\"pa:pa:ka\",\"Down\",\"40\",\"1\",\"9\",\"4\",\"P\",\"C\",\"9\"
\"\",\"\",\"approach-retreat\",\"158\",\"1149852\",\"0.0-158.0\",\"\",\"\",\"1-4\",\"4438\",\"37\",\"1\",\"Testing\",\"Stims/Figures/57-J-0-1.bmp\",\"ta:pa:ta\",\"Left\",\"37\",\"1\",\"10\",\"4\",\"P\",\"C\",\"10\"
\"\",\"\",\"approach-retreat\",\"159\",\"1155956\",\"0.0-159.0\",\"\",\"\",\"1-4\",\"4575\",\"39\",\"1\",\"Testing\",\"Stims/Figures/100-J-10-3.bmp\",\"pa:kaka\",\"Right\",\"39\",\"1\",\"11\",\"4\",\"P\",\"C\",\"11\"
\"\",\"\",\"approach-retreat\",\"160\",\"1161887\",\"0.0-160.0\",\"\",\"\",\"1-4\",\"4402\",\"37\",\"1\",\"Testing\",\"Stims/Figures/7-J-10-4.bmp\",\"tapa:ka\",\"Left\",\"37\",\"1\",\"12\",\"4\",\"P\",\"C\",\"12\"
\"\",\"\",\"approach-retreat\",\"161\",\"1168123\",\"0.0-161.0\",\"\",\"\",\"1-4\",\"4709\",\"37\",\"1\",\"Testing\",\"Stims/Figures/86-C-30-1.bmp\",\"nama:na\",\"Right\",\"37\",\"1\",\"13\",\"4\",\"S\",\"C\",\"13\"
\"\",\"\",\"approach-retreat\",\"162\",\"1175149\",\"0.0-162.0\",\"\",\"\",\"1-4\",\"5495\",\"38\",\"1\",\"Testing\",\"Stims/Figures/139-J-0-2.bmp\",\"pa:pa:ta\",\"Up\",\"38\",\"1\",\"14\",\"4\",\"P\",\"C\",\"14\"
\"\",\"\",\"approach-retreat\",\"163\",\"1181581\",\"0.0-163.0\",\"\",\"\",\"1-4\",\"4905\",\"40\",\"1\",\"Testing\",\"Stims/Figures/7-C-20-4.bmp\",\"nalana\",\"Up\",\"40\",\"1\",\"15\",\"4\",\"S\",\"C\",\"15\"
\"\",\"\",\"approach-retreat\",\"164\",\"1187494\",\"0.0-164.0\",\"\",\"\",\"1-4\",\"4387\",\"39\",\"1\",\"Testing\",\"Stims/Figures/57-C-30-1.bmp\",\"ma:lala\",\"Left\",\"39\",\"1\",\"16\",\"4\",\"S\",\"C\",\"16\"
\"\",\"\",\"approach-retreat\",\"165\",\"1193447\",\"0.0-165.0\",\"\",\"\",\"1-4\",\"4410\",\"40\",\"1\",\"Testing\",\"Stims/Figures/144-C-30-3.bmp\",\"ma:mana\",\"Up\",\"40\",\"1\",\"17\",\"4\",\"S\",\"C\",\"17\"
\"\",\"\",\"approach-retreat\",\"166\",\"1199919\",\"0.0-166.0\",\"\",\"\",\"1-4\",\"4957\",\"40\",\"1\",\"Testing\",\"Stims/Figures/87-C-20-4.bmp\",\"namala\",\"Up\",\"40\",\"1\",\"18\",\"4\",\"S\",\"C\",\"18\"
\"\",\"\",\"approach-retreat\",\"167\",\"1206302\",\"0.0-167.0\",\"\",\"\",\"1-4\",\"4855\",\"38\",\"1\",\"Testing\",\"Stims/Figures/94-J-0-2.bmp\",\"tapata\",\"Up\",\"38\",\"1\",\"19\",\"4\",\"P\",\"C\",\"19\"
\"\",\"\",\"approach-retreat\",\"168\",\"1215812\",\"0.0-168.0\",\"\",\"\",\"1-4\",\"7979\",\"37\",\"1\",\"Testing\",\"Stims/Figures/87-J-10-4.bmp\",\"ta:paka\",\"Left\",\"37\",\"1\",\"20\",\"4\",\"P\",\"C\",\"20\"
\"\",\"\",\"approach-retreat\",\"169\",\"1220861\",\"0.0-169.0\",\"\",\"\",\"1-4\",\"3518\",\"37\",\"1\",\"Testing\",\"Stims/Figures/71-C-30-1.bmp\",\"na:mana\",\"Right\",\"37\",\"1\",\"21\",\"4\",\"S\",\"C\",\"21\"
\"\",\"\",\"approach-retreat\",\"170\",\"1227893\",\"0.0-170.0\",\"\",\"\",\"1-4\",\"5503\",\"40\",\"1\",\"Testing\",\"Stims/Figures/144-J-10-3.bmp\",\"paka:ta\",\"Down\",\"40\",\"1\",\"22\",\"4\",\"P\",\"C\",\"22\"
\"\",\"\",\"approach-retreat\",\"171\",\"1232952\",\"0.0-171.0\",\"\",\"\",\"1-4\",\"3536\",\"37\",\"0\",\"Testing\",\"Stims/Figures/118-J-0-2.bmp\",\"ta:kata\",\"Right\",\"39\",\"1\",\"23\",\"4\",\"P\",\"C\",\"23\"
\"\",\"\",\"approach-retreat\",\"172\",\"1241043\",\"0.0-172.0\",\"\",\"\",\"1-4\",\"6564\",\"40\",\"1\",\"Testing\",\"Stims/Figures/71-J-0-1.bmp\",\"pakaka\",\"Down\",\"40\",\"1\",\"24\",\"4\",\"P\",\"C\",\"24\"
\"\",\"\",\"approach-retreat\",\"173\",\"1247176\",\"0.0-173.0\",\"\",\"\",\"1-4\",\"4601\",\"38\",\"1\",\"Testing\",\"Stims/Figures/100-J-10-3.bmp\",\"pa:kaka\",\"Up\",\"38\",\"2\",\"1\",\"4\",\"P\",\"C\",\"25\"
\"\",\"\",\"approach-retreat\",\"174\",\"1255348\",\"0.0-174.0\",\"\",\"\",\"1-4\",\"6646\",\"40\",\"1\",\"Testing\",\"Stims/Figures/87-C-20-4.bmp\",\"namala\",\"Up\",\"40\",\"2\",\"2\",\"4\",\"S\",\"C\",\"26\"
\"\",\"\",\"approach-retreat\",\"175\",\"1261662\",\"0.0-175.0\",\"\",\"\",\"1-4\",\"4786\",\"40\",\"1\",\"Testing\",\"Stims/Figures/94-J-0-2.bmp\",\"tapata\",\"Down\",\"40\",\"2\",\"3\",\"4\",\"P\",\"C\",\"27\"
\"\",\"\",\"approach-retreat\",\"176\",\"1266700\",\"0.0-176.0\",\"\",\"\",\"1-4\",\"3522\",\"37\",\"0\",\"Testing\",\"Stims/Figures/87-J-10-4.bmp\",\"ta:paka\",\"Right\",\"39\",\"2\",\"4\",\"4\",\"P\",\"C\",\"28\"
\"\",\"\",\"approach-retreat\",\"177\",\"1271762\",\"0.0-177.0\",\"\",\"\",\"1-4\",\"3528\",\"37\",\"1\",\"Testing\",\"Stims/Figures/19-C-20-4.bmp\",\"na:la:la\",\"Right\",\"37\",\"2\",\"5\",\"4\",\"S\",\"C\",\"29\"
\"\",\"\",\"approach-retreat\",\"178\",\"1277583\",\"0.0-178.0\",\"\",\"\",\"1-4\",\"4304\",\"38\",\"1\",\"Testing\",\"Stims/Figures/139-J-0-2.bmp\",\"pa:pa:ta\",\"Up\",\"38\",\"2\",\"6\",\"4\",\"P\",\"C\",\"30\"
\"\",\"\",\"approach-retreat\",\"179\",\"1282639\",\"0.0-179.0\",\"\",\"\",\"1-4\",\"3532\",\"37\",\"1\",\"Testing\",\"Stims/Figures/57-C-30-1.bmp\",\"ma:lala\",\"Right\",\"37\",\"2\",\"7\",\"4\",\"S\",\"C\",\"31\"
\"\",\"\",\"approach-retreat\",\"180\",\"1288599\",\"0.0-180.0\",\"\",\"\",\"1-4\",\"4431\",\"38\",\"1\",\"Testing\",\"Stims/Figures/86-C-30-1.bmp\",\"nama:na\",\"Down\",\"38\",\"2\",\"8\",\"4\",\"S\",\"C\",\"32\"
\"\",\"\",\"approach-retreat\",\"181\",\"1293650\",\"0.0-181.0\",\"\",\"\",\"1-4\",\"3530\",\"37\",\"1\",\"Testing\",\"Stims/Figures/86-J-0-1.bmp\",\"taka:ka\",\"Left\",\"37\",\"2\",\"9\",\"4\",\"P\",\"C\",\"33\"
\"\",\"\",\"approach-retreat\",\"182\",\"1298709\",\"0.0-182.0\",\"\",\"\",\"1-4\",\"3533\",\"37\",\"0\",\"Testing\",\"Stims/Figures/118-C-20-2.bmp\",\"na:lala\",\"Left\",\"39\",\"2\",\"10\",\"4\",\"S\",\"C\",\"34\"
\"\",\"\",\"approach-retreat\",\"183\",\"1303767\",\"0.0-183.0\",\"\",\"\",\"1-4\",\"3530\",\"37\",\"0\",\"Testing\",\"Stims/Figures/94-C-20-2.bmp\",\"na:mala\",\"Left\",\"39\",\"2\",\"11\",\"4\",\"S\",\"C\",\"35\"
\"\",\"\",\"approach-retreat\",\"184\",\"1308827\",\"0.0-184.0\",\"\",\"\",\"1-4\",\"3528\",\"37\",\"1\",\"Testing\",\"Stims/Figures/144-J-10-3.bmp\",\"paka:ta\",\"Left\",\"37\",\"2\",\"12\",\"4\",\"P\",\"C\",\"36\"
\"\",\"\",\"approach-retreat\",\"185\",\"1314557\",\"0.0-185.0\",\"\",\"\",\"1-4\",\"4202\",\"38\",\"1\",\"Testing\",\"Stims/Figures/144-C-30-3.bmp\",\"ma:mana\",\"Down\",\"38\",\"2\",\"13\",\"4\",\"S\",\"C\",\"37\"
\"\",\"\",\"approach-retreat\",\"186\",\"1319617\",\"0.0-186.0\",\"\",\"\",\"1-4\",\"3531\",\"37\",\"1\",\"Testing\",\"Stims/Figures/128-C-30-3.bmp\",\"ma:mala\",\"Right\",\"37\",\"2\",\"14\",\"4\",\"S\",\"C\",\"38\"
\"\",\"\",\"approach-retreat\",\"187\",\"1325325\",\"0.0-187.0\",\"\",\"\",\"1-4\",\"4196\",\"38\",\"1\",\"Testing\",\"Stims/Figures/7-J-10-4.bmp\",\"tapa:ka\",\"Up\",\"38\",\"2\",\"15\",\"4\",\"P\",\"C\",\"39\"
\"\",\"\",\"approach-retreat\",\"188\",\"1330368\",\"0.0-188.0\",\"\",\"\",\"1-4\",\"3514\",\"37\",\"0\",\"Testing\",\"Stims/Figures/71-C-30-1.bmp\",\"na:mana\",\"Left\",\"39\",\"2\",\"16\",\"4\",\"S\",\"C\",\"40\"
\"\",\"\",\"approach-retreat\",\"189\",\"1337139\",\"0.0-189.0\",\"\",\"\",\"1-4\",\"5242\",\"38\",\"0\",\"Testing\",\"Stims/Figures/19-J-10-4.bmp\",\"papa:ka\",\"Down\",\"40\",\"2\",\"17\",\"4\",\"P\",\"C\",\"41\"
\"\",\"\",\"approach-retreat\",\"190\",\"1342201\",\"0.0-190.0\",\"\",\"\",\"1-4\",\"3534\",\"37\",\"0\",\"Testing\",\"Stims/Figures/57-J-0-1.bmp\",\"ta:pa:ta\",\"Right\",\"39\",\"2\",\"18\",\"4\",\"P\",\"C\",\"42\"
\"\",\"\",\"approach-retreat\",\"191\",\"1347258\",\"0.0-191.0\",\"\",\"\",\"1-4\",\"3530\",\"37\",\"0\",\"Testing\",\"Stims/Figures/118-J-0-2.bmp\",\"ta:kata\",\"Right\",\"39\",\"2\",\"19\",\"4\",\"P\",\"C\",\"43\"
\"\",\"\",\"approach-retreat\",\"192\",\"1353930\",\"0.0-192.0\",\"\",\"\",\"1-4\",\"5147\",\"38\",\"1\",\"Testing\",\"Stims/Figures/128-J-10-3.bmp\",\"pa:pa:ka\",\"Up\",\"38\",\"2\",\"20\",\"4\",\"P\",\"C\",\"44\"
\"\",\"\",\"approach-retreat\",\"193\",\"1360075\",\"0.0-193.0\",\"\",\"\",\"1-4\",\"4617\",\"38\",\"1\",\"Testing\",\"Stims/Figures/139-C-20-2.bmp\",\"na:lana\",\"Down\",\"38\",\"2\",\"21\",\"4\",\"S\",\"C\",\"45\"
\"\",\"\",\"approach-retreat\",\"194\",\"1365914\",\"0.0-194.0\",\"\",\"\",\"1-4\",\"4312\",\"40\",\"1\",\"Testing\",\"Stims/Figures/100-C-30-3.bmp\",\"ma:la:na\",\"Up\",\"40\",\"2\",\"22\",\"4\",\"S\",\"C\",\"46\"
\"\",\"\",\"approach-retreat\",\"195\",\"1370961\",\"0.0-195.0\",\"\",\"\",\"1-4\",\"3516\",\"37\",\"1\",\"Testing\",\"Stims/Figures/71-J-0-1.bmp\",\"pakaka\",\"Left\",\"37\",\"2\",\"23\",\"4\",\"P\",\"C\",\"47\"
\"\",\"\",\"approach-retreat\",\"196\",\"1376883\",\"0.0-196.0\",\"\",\"\",\"1-4\",\"4396\",\"38\",\"1\",\"Testing\",\"Stims/Figures/7-C-20-4.bmp\",\"nalana\",\"Down\",\"38\",\"2\",\"24\",\"4\",\"S\",\"C\",\"48\"
\"\",\"\",\"approach-retreat\",\"197\",\"1381938\",\"0.0-197.0\",\"\",\"\",\"1-4\",\"3526\",\"37\",\"1\",\"Testing\",\"Stims/Figures/144-J-10-3.bmp\",\"paka:ta\",\"Left\",\"37\",\"3\",\"1\",\"4\",\"P\",\"C\",\"49\"
\"\",\"\",\"approach-retreat\",\"198\",\"1390652\",\"0.0-198.0\",\"\",\"\",\"1-4\",\"7187\",\"38\",\"0\",\"Testing\",\"Stims/Figures/94-C-20-2.bmp\",\"na:mala\",\"Up\",\"40\",\"3\",\"2\",\"4\",\"S\",\"C\",\"50\"
\"\",\"\",\"approach-retreat\",\"199\",\"1396450\",\"0.0-199.0\",\"\",\"\",\"1-4\",\"4281\",\"40\",\"1\",\"Testing\",\"Stims/Figures/118-J-0-2.bmp\",\"ta:kata\",\"Down\",\"40\",\"3\",\"3\",\"4\",\"P\",\"C\",\"51\"
\"\",\"\",\"approach-retreat\",\"200\",\"1405124\",\"0.0-200.0\",\"\",\"\",\"1-4\",\"7143\",\"38\",\"1\",\"Testing\",\"Stims/Figures/19-C-20-4.bmp\",\"na:la:la\",\"Down\",\"38\",\"3\",\"4\",\"4\",\"S\",\"C\",\"52\"
\"\",\"\",\"approach-retreat\",\"201\",\"1410162\",\"0.0-201.0\",\"\",\"\",\"1-4\",\"3526\",\"37\",\"1\",\"Testing\",\"Stims/Figures/128-C-30-3.bmp\",\"ma:mala\",\"Right\",\"37\",\"3\",\"5\",\"4\",\"S\",\"C\",\"53\"
\"\",\"\",\"approach-retreat\",\"202\",\"1416223\",\"0.0-202.0\",\"\",\"\",\"1-4\",\"4530\",\"38\",\"1\",\"Testing\",\"Stims/Figures/94-J-0-2.bmp\",\"tapata\",\"Up\",\"38\",\"3\",\"6\",\"4\",\"P\",\"C\",\"54\"
\"\",\"\",\"approach-retreat\",\"203\",\"1421267\",\"0.0-203.0\",\"\",\"\",\"1-4\",\"3514\",\"37\",\"1\",\"Testing\",\"Stims/Figures/71-C-30-1.bmp\",\"na:mana\",\"Right\",\"37\",\"3\",\"7\",\"4\",\"S\",\"C\",\"55\"
\"\",\"\",\"approach-retreat\",\"204\",\"1427171\",\"0.0-204.0\",\"\",\"\",\"1-4\",\"4376\",\"38\",\"1\",\"Testing\",\"Stims/Figures/128-J-10-3.bmp\",\"pa:pa:ka\",\"Up\",\"38\",\"3\",\"8\",\"4\",\"P\",\"C\",\"56\"
\"\",\"\",\"approach-retreat\",\"205\",\"1432216\",\"0.0-205.0\",\"\",\"\",\"1-4\",\"3509\",\"37\",\"0\",\"Testing\",\"Stims/Figures/118-C-20-2.bmp\",\"na:lala\",\"Left\",\"39\",\"3\",\"9\",\"4\",\"S\",\"C\",\"57\"
\"\",\"\",\"approach-retreat\",\"206\",\"1437276\",\"0.0-206.0\",\"\",\"\",\"1-4\",\"3531\",\"37\",\"0\",\"Testing\",\"Stims/Figures/139-C-20-2.bmp\",\"na:lana\",\"Left\",\"39\",\"3\",\"10\",\"4\",\"S\",\"C\",\"58\"
\"\",\"\",\"approach-retreat\",\"207\",\"1442331\",\"0.0-207.0\",\"\",\"\",\"1-4\",\"3526\",\"37\",\"0\",\"Testing\",\"Stims/Figures/86-J-0-1.bmp\",\"taka:ka\",\"Right\",\"39\",\"3\",\"11\",\"4\",\"P\",\"C\",\"59\"
\"\",\"\",\"approach-retreat\",\"208\",\"1449746\",\"0.0-208.0\",\"\",\"\",\"1-4\",\"5892\",\"40\",\"1\",\"Testing\",\"Stims/Figures/86-C-30-1.bmp\",\"nama:na\",\"Up\",\"40\",\"3\",\"12\",\"4\",\"S\",\"C\",\"60\"
\"\",\"\",\"approach-retreat\",\"209\",\"1454806\",\"0.0-209.0\",\"\",\"\",\"1-4\",\"3529\",\"37\",\"0\",\"Testing\",\"Stims/Figures/19-J-10-4.bmp\",\"papa:ka\",\"Right\",\"39\",\"3\",\"13\",\"4\",\"P\",\"C\",\"61\"
\"\",\"\",\"approach-retreat\",\"210\",\"1459869\",\"0.0-210.0\",\"\",\"\",\"1-4\",\"3535\",\"37\",\"0\",\"Testing\",\"Stims/Figures/7-J-10-4.bmp\",\"tapa:ka\",\"Right\",\"39\",\"3\",\"14\",\"4\",\"P\",\"C\",\"62\"
\"\",\"\",\"approach-retreat\",\"211\",\"1466628\",\"0.0-211.0\",\"\",\"\",\"1-4\",\"5231\",\"38\",\"1\",\"Testing\",\"Stims/Figures/57-C-30-1.bmp\",\"ma:lala\",\"Down\",\"38\",\"3\",\"15\",\"4\",\"S\",\"C\",\"63\"
\"\",\"\",\"approach-retreat\",\"212\",\"1472752\",\"0.0-212.0\",\"\",\"\",\"1-4\",\"4597\",\"40\",\"1\",\"Testing\",\"Stims/Figures/100-C-30-3.bmp\",\"ma:la:na\",\"Up\",\"40\",\"3\",\"16\",\"4\",\"S\",\"C\",\"64\"
\"\",\"\",\"approach-retreat\",\"213\",\"1478816\",\"0.0-213.0\",\"\",\"\",\"1-4\",\"4533\",\"40\",\"1\",\"Testing\",\"Stims/Figures/57-J-0-1.bmp\",\"ta:pa:ta\",\"Down\",\"40\",\"3\",\"17\",\"4\",\"P\",\"C\",\"65\"
\"\",\"\",\"approach-retreat\",\"214\",\"1483853\",\"0.0-214.0\",\"\",\"\",\"1-4\",\"3506\",\"37\",\"1\",\"Testing\",\"Stims/Figures/87-J-10-4.bmp\",\"ta:paka\",\"Left\",\"37\",\"3\",\"18\",\"4\",\"P\",\"C\",\"66\"
\"\",\"\",\"approach-retreat\",\"215\",\"1490234\",\"0.0-215.0\",\"\",\"\",\"1-4\",\"4851\",\"38\",\"0\",\"Testing\",\"Stims/Figures/87-C-20-4.bmp\",\"namala\",\"Up\",\"40\",\"3\",\"19\",\"4\",\"S\",\"C\",\"67\"
\"\",\"\",\"approach-retreat\",\"216\",\"1495274\",\"0.0-216.0\",\"\",\"\",\"1-4\",\"3510\",\"37\",\"0\",\"Testing\",\"Stims/Figures/144-C-30-3.bmp\",\"ma:mana\",\"Left\",\"39\",\"3\",\"20\",\"4\",\"S\",\"C\",\"68\"
\"\",\"\",\"approach-retreat\",\"217\",\"1500339\",\"0.0-217.0\",\"\",\"\",\"1-4\",\"3536\",\"37\",\"0\",\"Testing\",\"Stims/Figures/139-J-0-2.bmp\",\"pa:pa:ta\",\"Right\",\"39\",\"3\",\"21\",\"4\",\"P\",\"C\",\"69\"
\"\",\"\",\"approach-retreat\",\"218\",\"1505952\",\"0.0-218.0\",\"\",\"\",\"1-4\",\"4082\",\"40\",\"1\",\"Testing\",\"Stims/Figures/100-J-10-3.bmp\",\"pa:kaka\",\"Down\",\"40\",\"3\",\"22\",\"4\",\"P\",\"C\",\"70\"
\"\",\"\",\"approach-retreat\",\"219\",\"1514698\",\"0.0-219.0\",\"\",\"\",\"1-4\",\"7218\",\"38\",\"1\",\"Testing\",\"Stims/Figures/7-C-20-4.bmp\",\"nalana\",\"Down\",\"38\",\"3\",\"23\",\"4\",\"S\",\"C\",\"71\"
\"\",\"\",\"approach-retreat\",\"220\",\"1519717\",\"0.0-220.0\",\"\",\"\",\"1-4\",\"3510\",\"37\",\"1\",\"Testing\",\"Stims/Figures/71-J-0-1.bmp\",\"pakaka\",\"Left\",\"37\",\"3\",\"24\",\"4\",\"P\",\"C\",\"72\"
\"\",\"\",\"approach-retreat\",\"221\",\"1524778\",\"0.0-221.0\",\"\",\"\",\"1-4\",\"3529\",\"37\",\"0\",\"Testing\",\"Stims/Figures/19-J-10-4.bmp\",\"papa:ka\",\"Right\",\"39\",\"4\",\"1\",\"4\",\"P\",\"C\",\"73\"
\"\",\"\",\"approach-retreat\",\"222\",\"1531939\",\"0.0-222.0\",\"\",\"\",\"1-4\",\"5636\",\"40\",\"0\",\"Testing\",\"Stims/Figures/87-C-20-4.bmp\",\"namala\",\"Down\",\"38\",\"4\",\"2\",\"4\",\"S\",\"C\",\"74\"
\"\",\"\",\"approach-retreat\",\"223\",\"1537942\",\"0.0-223.0\",\"\",\"\",\"1-4\",\"4477\",\"38\",\"1\",\"Testing\",\"Stims/Figures/86-J-0-1.bmp\",\"taka:ka\",\"Up\",\"38\",\"4\",\"3\",\"4\",\"P\",\"C\",\"75\"
\"\",\"\",\"approach-retreat\",\"224\",\"1542982\",\"0.0-224.0\",\"\",\"\",\"1-4\",\"3533\",\"37\",\"1\",\"Testing\",\"Stims/Figures/86-C-30-1.bmp\",\"nama:na\",\"Right\",\"37\",\"4\",\"4\",\"4\",\"S\",\"C\",\"76\"
\"\",\"\",\"approach-retreat\",\"225\",\"1548017\",\"0.0-225.0\",\"\",\"\",\"1-4\",\"3512\",\"37\",\"0\",\"Testing\",\"Stims/Figures/144-J-10-3.bmp\",\"paka:ta\",\"Right\",\"39\",\"4\",\"5\",\"4\",\"P\",\"C\",\"77\"
\"\",\"\",\"approach-retreat\",\"226\",\"1555398\",\"0.0-226.0\",\"\",\"\",\"1-4\",\"5853\",\"38\",\"1\",\"Testing\",\"Stims/Figures/7-C-20-4.bmp\",\"nalana\",\"Down\",\"38\",\"4\",\"6\",\"4\",\"S\",\"C\",\"78\"
\"\",\"\",\"approach-retreat\",\"227\",\"1560432\",\"0.0-227.0\",\"\",\"\",\"1-4\",\"3515\",\"37\",\"1\",\"Testing\",\"Stims/Figures/57-C-30-1.bmp\",\"ma:lala\",\"Right\",\"37\",\"4\",\"7\",\"4\",\"S\",\"C\",\"79\"
\"\",\"\",\"approach-retreat\",\"228\",\"1570062\",\"0.0-228.0\",\"\",\"\",\"1-4\",\"8100\",\"38\",\"0\",\"Testing\",\"Stims/Figures/118-J-0-2.bmp\",\"ta:kata\",\"Down\",\"40\",\"4\",\"8\",\"4\",\"P\",\"C\",\"80\"
\"\",\"\",\"approach-retreat\",\"229\",\"1575572\",\"0.0-229.0\",\"\",\"\",\"1-4\",\"3977\",\"40\",\"1\",\"Testing\",\"Stims/Figures/94-J-0-2.bmp\",\"tapata\",\"Down\",\"40\",\"4\",\"9\",\"4\",\"P\",\"C\",\"81\"
\"\",\"\",\"approach-retreat\",\"230\",\"1580644\",\"0.0-230.0\",\"\",\"\",\"1-4\",\"3539\",\"37\",\"1\",\"Testing\",\"Stims/Figures/71-C-30-1.bmp\",\"na:mana\",\"Right\",\"37\",\"4\",\"10\",\"4\",\"S\",\"C\",\"82\"
\"\",\"\",\"approach-retreat\",\"231\",\"1585690\",\"0.0-231.0\",\"\",\"\",\"1-4\",\"3525\",\"37\",\"0\",\"Testing\",\"Stims/Figures/100-C-30-3.bmp\",\"ma:la:na\",\"Left\",\"39\",\"4\",\"11\",\"4\",\"S\",\"C\",\"83\"
\"\",\"\",\"approach-retreat\",\"232\",\"1590726\",\"0.0-232.0\",\"\",\"\",\"1-4\",\"3518\",\"37\",\"0\",\"Testing\",\"Stims/Figures/57-J-0-1.bmp\",\"ta:pa:ta\",\"Right\",\"39\",\"4\",\"12\",\"4\",\"P\",\"C\",\"84\"
\"\",\"\",\"approach-retreat\",\"233\",\"1595787\",\"0.0-233.0\",\"\",\"\",\"1-4\",\"3533\",\"37\",\"1\",\"Testing\",\"Stims/Figures/71-J-0-1.bmp\",\"pakaka\",\"Left\",\"37\",\"4\",\"13\",\"4\",\"P\",\"C\",\"85\"
\"\",\"\",\"approach-retreat\",\"234\",\"1600825\",\"0.0-234.0\",\"\",\"\",\"1-4\",\"3521\",\"37\",\"1\",\"Testing\",\"Stims/Figures/7-J-10-4.bmp\",\"tapa:ka\",\"Left\",\"37\",\"4\",\"14\",\"4\",\"P\",\"C\",\"86\"
\"\",\"\",\"approach-retreat\",\"235\",\"1607158\",\"0.0-235.0\",\"\",\"\",\"1-4\",\"4799\",\"38\",\"1\",\"Testing\",\"Stims/Figures/87-J-10-4.bmp\",\"ta:paka\",\"Up\",\"38\",\"4\",\"15\",\"4\",\"P\",\"C\",\"87\"
\"\",\"\",\"approach-retreat\",\"236\",\"1612187\",\"0.0-236.0\",\"\",\"\",\"1-4\",\"3514\",\"37\",\"0\",\"Testing\",\"Stims/Figures/19-C-20-4.bmp\",\"na:la:la\",\"Left\",\"39\",\"4\",\"16\",\"4\",\"S\",\"C\",\"88\"
\"\",\"\",\"approach-retreat\",\"237\",\"1618187\",\"0.0-237.0\",\"\",\"\",\"1-4\",\"4469\",\"40\",\"1\",\"Testing\",\"Stims/Figures/128-C-30-3.bmp\",\"ma:mala\",\"Up\",\"40\",\"4\",\"17\",\"4\",\"S\",\"C\",\"89\"
\"\",\"\",\"approach-retreat\",\"238\",\"1624374\",\"0.0-238.0\",\"\",\"\",\"1-4\",\"4660\",\"38\",\"0\",\"Testing\",\"Stims/Figures/144-C-30-3.bmp\",\"ma:mana\",\"Up\",\"40\",\"4\",\"18\",\"4\",\"S\",\"C\",\"90\"
\"\",\"\",\"approach-retreat\",\"239\",\"1630033\",\"0.0-239.0\",\"\",\"\",\"1-4\",\"4129\",\"38\",\"1\",\"Testing\",\"Stims/Figures/100-J-10-3.bmp\",\"pa:kaka\",\"Up\",\"38\",\"4\",\"19\",\"4\",\"P\",\"C\",\"91\"
\"\",\"\",\"approach-retreat\",\"240\",\"1635098\",\"0.0-240.0\",\"\",\"\",\"1-4\",\"3536\",\"37\",\"0\",\"Testing\",\"Stims/Figures/139-C-20-2.bmp\",\"na:lana\",\"Left\",\"39\",\"4\",\"20\",\"4\",\"S\",\"C\",\"92\"
\"\",\"\",\"approach-retreat\",\"241\",\"1641791\",\"0.0-241.0\",\"\",\"\",\"1-4\",\"5160\",\"40\",\"1\",\"Testing\",\"Stims/Figures/118-C-20-2.bmp\",\"na:lala\",\"Up\",\"40\",\"4\",\"21\",\"4\",\"S\",\"C\",\"93\"
\"\",\"\",\"approach-retreat\",\"242\",\"1647430\",\"0.0-242.0\",\"\",\"\",\"1-4\",\"4107\",\"38\",\"0\",\"Testing\",\"Stims/Figures/139-J-0-2.bmp\",\"pa:pa:ta\",\"Down\",\"40\",\"4\",\"22\",\"4\",\"P\",\"C\",\"94\"
\"\",\"\",\"approach-retreat\",\"243\",\"1653338\",\"0.0-243.0\",\"\",\"\",\"1-4\",\"4378\",\"38\",\"1\",\"Testing\",\"Stims/Figures/94-C-20-2.bmp\",\"na:mala\",\"Down\",\"38\",\"4\",\"23\",\"4\",\"S\",\"C\",\"95\"
\"\",\"\",\"approach-retreat\",\"244\",\"1658404\",\"0.0-244.0\",\"\",\"\",\"1-4\",\"3535\",\"37\",\"1\",\"Testing\",\"Stims/Figures/128-J-10-3.bmp\",\"pa:pa:ka\",\"Left\",\"37\",\"4\",\"24\",\"4\",\"P\",\"C\",\"96\"
\"\",\"\",\"survey-text\",\"245\",\"1660001\",\"0.0-245.0\",\"\",\"\",\"1-4\",\"5133\",\"37\",\"1\",\"Testing\",\"Stims/Figures/128-J-10-3.bmp\",\"pa:pa:ka\",\"Left\",\"37\",\"4\",\"24\",\"4\",\"P\",\"C\",\"\"
