\"rt\",\"key_press\",\"trial_type\",\"trial_index\",\"time_elapsed\",\"internal_node_id\",\"view_history\",\"responses\",\"Id\",\"Rt\",\"ResKeyCode\",\"ResCorr\",\"TrialType2\",\"Image\",\"Label\",\"Location\",\"CorrectResponse\",\"Block\",\"BlockTrial\",\"Condition\",\"LabelType\",\"Subcondition\",\"trialNum\"
\"193022\",\"32\",\"text\",\"0\",\"193039\",\"0.0-0.0-0.0\",\"\",\"\",\"\",\"\",\"\",\"\",\"\",\"\",\"\",\"\",\"\",\"\",\"\",\"\",\"\",\"\",\"\"
\"216\",\"\",\"instructions\",\"1\",\"193265\",\"0.0-1.0\",\"[{\"\"page_index\"\":0,\"\"viewing_time\"\":215}]\",\"\",\"\",\"\",\"\",\"\",\"\",\"\",\"\",\"\",\"\",\"\",\"\",\"\",\"\",\"\",\"\"
\"40483\",\"\",\"survey-multi-choice\",\"2\",\"233819\",\"0.0-2.0\",\"\",\"{\"\"Q0\"\":\"\"Da\"\",\"\"Q1\"\":\"\"Da\"\",\"\"Q2\"\":\"\"Da\"\",\"\"Q3\"\":\"\"Da\"\",\"\"Q4\"\":\"\"Da\"\",\"\"Q5\"\":\"\"Da\"\"}\",\"\",\"\",\"\",\"\",\"\",\"\",\"\",\"\",\"\",\"\",\"\",\"\",\"\",\"\",\"\"
\"\",\"\",\"bio\",\"3\",\"240863\",\"0.0-3.0\",\"\",\"{\"\"age\"\":\"\"20\"\",\"\"gender\"\":\"\"f\"\",\"\"specify\"\":\"\"\"\"}\",\"\",\"\",\"\",\"\",\"\",\"\",\"\",\"\",\"\",\"\",\"\",\"\",\"\",\"\",\"\"
\"\",\"\",\"approach-retreat\",\"4\",\"250725\",\"0.0-4.0\",\"\",\"\",\"1-2\",\"8315\",\"38\",\"0\",\"Training\",\"Stims/Figures/27-C-30-1.bmp\",\"pa:pata\",\"Down\",\"40\",\"1\",\"1\",\"2\",\"P\",\"J\",\"1\"
\"\",\"\",\"approach-retreat\",\"5\",\"259740\",\"0.0-5.0\",\"\",\"\",\"1-2\",\"7476\",\"37\",\"1\",\"Training\",\"Stims/Figures/86-C-30-1.bmp\",\"pa:pata\",\"Left\",\"37\",\"1\",\"2\",\"2\",\"P\",\"J\",\"2\"
\"\",\"\",\"approach-retreat\",\"6\",\"272695\",\"0.0-6.0\",\"\",\"\",\"1-2\",\"11421\",\"40\",\"1\",\"Training\",\"Stims/Figures/86-J-0-1.bmp\",\"nalala\",\"Up\",\"40\",\"1\",\"3\",\"2\",\"S\",\"J\",\"3\"
\"\",\"\",\"approach-retreat\",\"7\",\"278814\",\"0.0-7.0\",\"\",\"\",\"1-2\",\"4585\",\"40\",\"1\",\"Training\",\"Stims/Figures/85-C-20-2.bmp\",\"pa:pata\",\"Down\",\"40\",\"1\",\"4\",\"2\",\"P\",\"J\",\"4\"
\"\",\"\",\"approach-retreat\",\"8\",\"285259\",\"0.0-8.0\",\"\",\"\",\"1-2\",\"4911\",\"37\",\"1\",\"Training\",\"Stims/Figures/128-C-30-3.bmp\",\"pa:pata\",\"Left\",\"37\",\"1\",\"5\",\"2\",\"P\",\"J\",\"5\"
\"\",\"\",\"approach-retreat\",\"9\",\"293824\",\"0.0-9.0\",\"\",\"\",\"1-2\",\"7032\",\"38\",\"1\",\"Training\",\"Stims/Figures/19-J-10-4.bmp\",\"nalala\",\"Down\",\"38\",\"1\",\"6\",\"2\",\"S\",\"J\",\"6\"
\"\",\"\",\"approach-retreat\",\"10\",\"301468\",\"0.0-10.0\",\"\",\"\",\"1-2\",\"6109\",\"40\",\"0\",\"Training\",\"Stims/Figures/118-C-20-2.bmp\",\"pa:pata\",\"Up\",\"38\",\"1\",\"7\",\"2\",\"P\",\"J\",\"7\"
\"\",\"\",\"approach-retreat\",\"11\",\"308701\",\"0.0-11.0\",\"\",\"\",\"1-2\",\"5698\",\"37\",\"1\",\"Training\",\"Stims/Figures/128-J-10-3.bmp\",\"nalala\",\"Right\",\"37\",\"1\",\"8\",\"2\",\"S\",\"J\",\"8\"
\"\",\"\",\"approach-retreat\",\"12\",\"314729\",\"0.0-12.0\",\"\",\"\",\"1-2\",\"4496\",\"37\",\"1\",\"Training\",\"Stims/Figures/19-C-20-4.bmp\",\"pa:pata\",\"Left\",\"37\",\"1\",\"9\",\"2\",\"P\",\"J\",\"9\"
\"\",\"\",\"approach-retreat\",\"13\",\"321041\",\"0.0-13.0\",\"\",\"\",\"1-2\",\"4781\",\"39\",\"0\",\"Training\",\"Stims/Figures/74-J-10-4.bmp\",\"nalala\",\"Right\",\"37\",\"1\",\"10\",\"2\",\"S\",\"J\",\"10\"
\"\",\"\",\"approach-retreat\",\"14\",\"330007\",\"0.0-14.0\",\"\",\"\",\"1-2\",\"7435\",\"37\",\"0\",\"Training\",\"Stims/Figures/85-J-0-2.bmp\",\"nalala\",\"Left\",\"39\",\"1\",\"11\",\"2\",\"S\",\"J\",\"11\"
\"\",\"\",\"approach-retreat\",\"15\",\"336403\",\"0.0-15.0\",\"\",\"\",\"1-2\",\"4865\",\"38\",\"0\",\"Training\",\"Stims/Figures/144-J-10-3.bmp\",\"nalala\",\"Up\",\"40\",\"1\",\"12\",\"2\",\"S\",\"J\",\"12\"
\"\",\"\",\"approach-retreat\",\"16\",\"343374\",\"0.0-16.0\",\"\",\"\",\"1-2\",\"5441\",\"40\",\"1\",\"Training\",\"Stims/Figures/27-J-0-1.bmp\",\"nalala\",\"Up\",\"40\",\"1\",\"13\",\"2\",\"S\",\"J\",\"13\"
\"\",\"\",\"approach-retreat\",\"17\",\"351473\",\"0.0-17.0\",\"\",\"\",\"1-2\",\"6566\",\"37\",\"1\",\"Training\",\"Stims/Figures/118-J-0-2.bmp\",\"nalala\",\"Right\",\"37\",\"1\",\"14\",\"2\",\"S\",\"J\",\"14\"
\"\",\"\",\"approach-retreat\",\"18\",\"357259\",\"0.0-18.0\",\"\",\"\",\"1-2\",\"4254\",\"40\",\"1\",\"Training\",\"Stims/Figures/74-C-20-4.bmp\",\"pa:pata\",\"Down\",\"40\",\"1\",\"15\",\"2\",\"P\",\"J\",\"15\"
\"\",\"\",\"approach-retreat\",\"19\",\"364299\",\"0.0-19.0\",\"\",\"\",\"1-2\",\"5508\",\"39\",\"1\",\"Training\",\"Stims/Figures/144-C-30-3.bmp\",\"pa:pata\",\"Right\",\"39\",\"1\",\"16\",\"2\",\"P\",\"J\",\"16\"
\"\",\"\",\"approach-retreat\",\"20\",\"370430\",\"0.0-20.0\",\"\",\"\",\"1-2\",\"4599\",\"37\",\"1\",\"Training\",\"Stims/Figures/85-J-0-2.bmp\",\"nalala\",\"Right\",\"37\",\"2\",\"1\",\"2\",\"S\",\"J\",\"17\"
\"\",\"\",\"approach-retreat\",\"21\",\"377965\",\"0.0-21.0\",\"\",\"\",\"1-2\",\"6005\",\"39\",\"1\",\"Training\",\"Stims/Figures/128-J-10-3.bmp\",\"nalala\",\"Left\",\"39\",\"2\",\"2\",\"2\",\"S\",\"J\",\"18\"
\"\",\"\",\"approach-retreat\",\"22\",\"385242\",\"0.0-22.0\",\"\",\"\",\"1-2\",\"5744\",\"39\",\"1\",\"Training\",\"Stims/Figures/118-C-20-2.bmp\",\"pa:pata\",\"Right\",\"39\",\"2\",\"3\",\"2\",\"P\",\"J\",\"19\"
\"\",\"\",\"approach-retreat\",\"23\",\"392737\",\"0.0-23.0\",\"\",\"\",\"1-2\",\"5963\",\"38\",\"1\",\"Training\",\"Stims/Figures/19-J-10-4.bmp\",\"nalala\",\"Down\",\"38\",\"2\",\"4\",\"2\",\"S\",\"J\",\"20\"
\"\",\"\",\"approach-retreat\",\"24\",\"401729\",\"0.0-24.0\",\"\",\"\",\"1-2\",\"7461\",\"37\",\"0\",\"Training\",\"Stims/Figures/74-J-10-4.bmp\",\"nalala\",\"Left\",\"39\",\"2\",\"5\",\"2\",\"S\",\"J\",\"21\"
\"\",\"\",\"approach-retreat\",\"25\",\"408336\",\"0.0-25.0\",\"\",\"\",\"1-2\",\"5078\",\"38\",\"1\",\"Training\",\"Stims/Figures/118-J-0-2.bmp\",\"nalala\",\"Down\",\"38\",\"2\",\"6\",\"2\",\"S\",\"J\",\"22\"
\"\",\"\",\"approach-retreat\",\"26\",\"414855\",\"0.0-26.0\",\"\",\"\",\"1-2\",\"4988\",\"37\",\"1\",\"Training\",\"Stims/Figures/27-J-0-1.bmp\",\"nalala\",\"Right\",\"37\",\"2\",\"7\",\"2\",\"S\",\"J\",\"23\"
\"\",\"\",\"approach-retreat\",\"27\",\"421425\",\"0.0-27.0\",\"\",\"\",\"1-2\",\"5039\",\"40\",\"1\",\"Training\",\"Stims/Figures/86-J-0-1.bmp\",\"nalala\",\"Up\",\"40\",\"2\",\"8\",\"2\",\"S\",\"J\",\"24\"
\"\",\"\",\"approach-retreat\",\"28\",\"429392\",\"0.0-28.0\",\"\",\"\",\"1-2\",\"6436\",\"38\",\"1\",\"Training\",\"Stims/Figures/27-C-30-1.bmp\",\"pa:pata\",\"Up\",\"38\",\"2\",\"9\",\"2\",\"P\",\"J\",\"25\"
\"\",\"\",\"approach-retreat\",\"29\",\"435341\",\"0.0-29.0\",\"\",\"\",\"1-2\",\"4417\",\"38\",\"1\",\"Training\",\"Stims/Figures/128-C-30-3.bmp\",\"pa:pata\",\"Up\",\"38\",\"2\",\"10\",\"2\",\"P\",\"J\",\"26\"
\"\",\"\",\"approach-retreat\",\"30\",\"442329\",\"0.0-30.0\",\"\",\"\",\"1-2\",\"5456\",\"39\",\"1\",\"Training\",\"Stims/Figures/74-C-20-4.bmp\",\"pa:pata\",\"Right\",\"39\",\"2\",\"11\",\"2\",\"P\",\"J\",\"27\"
\"\",\"\",\"approach-retreat\",\"31\",\"451291\",\"0.0-31.0\",\"\",\"\",\"1-2\",\"7432\",\"38\",\"1\",\"Training\",\"Stims/Figures/144-J-10-3.bmp\",\"nalala\",\"Down\",\"38\",\"2\",\"12\",\"2\",\"S\",\"J\",\"28\"
\"\",\"\",\"approach-retreat\",\"32\",\"457152\",\"0.0-32.0\",\"\",\"\",\"1-2\",\"4331\",\"40\",\"1\",\"Training\",\"Stims/Figures/19-C-20-4.bmp\",\"pa:pata\",\"Down\",\"40\",\"2\",\"13\",\"2\",\"P\",\"J\",\"29\"
\"\",\"\",\"approach-retreat\",\"33\",\"464002\",\"0.0-33.0\",\"\",\"\",\"1-2\",\"5320\",\"37\",\"1\",\"Training\",\"Stims/Figures/85-C-20-2.bmp\",\"pa:pata\",\"Left\",\"37\",\"2\",\"14\",\"2\",\"P\",\"J\",\"30\"
\"\",\"\",\"approach-retreat\",\"34\",\"472079\",\"0.0-34.0\",\"\",\"\",\"1-2\",\"6545\",\"38\",\"1\",\"Training\",\"Stims/Figures/144-C-30-3.bmp\",\"pa:pata\",\"Up\",\"38\",\"2\",\"15\",\"2\",\"P\",\"J\",\"31\"
\"\",\"\",\"approach-retreat\",\"35\",\"478610\",\"0.0-35.0\",\"\",\"\",\"1-2\",\"4999\",\"37\",\"1\",\"Training\",\"Stims/Figures/86-C-30-1.bmp\",\"pa:pata\",\"Left\",\"37\",\"2\",\"16\",\"2\",\"P\",\"J\",\"32\"
\"\",\"\",\"approach-retreat\",\"36\",\"485255\",\"0.0-36.0\",\"\",\"\",\"1-2\",\"5114\",\"38\",\"1\",\"Training\",\"Stims/Figures/128-C-30-3.bmp\",\"pa:pata\",\"Up\",\"38\",\"3\",\"1\",\"2\",\"P\",\"J\",\"33\"
\"\",\"\",\"approach-retreat\",\"37\",\"492166\",\"0.0-37.0\",\"\",\"\",\"1-2\",\"5377\",\"39\",\"1\",\"Training\",\"Stims/Figures/86-J-0-1.bmp\",\"nalala\",\"Left\",\"39\",\"3\",\"2\",\"2\",\"S\",\"J\",\"34\"
\"\",\"\",\"approach-retreat\",\"38\",\"499448\",\"0.0-38.0\",\"\",\"\",\"1-2\",\"5747\",\"39\",\"1\",\"Training\",\"Stims/Figures/74-C-20-4.bmp\",\"pa:pata\",\"Right\",\"39\",\"3\",\"3\",\"2\",\"P\",\"J\",\"35\"
\"\",\"\",\"approach-retreat\",\"39\",\"505297\",\"0.0-39.0\",\"\",\"\",\"1-2\",\"4310\",\"39\",\"1\",\"Training\",\"Stims/Figures/144-C-30-3.bmp\",\"pa:pata\",\"Right\",\"39\",\"3\",\"4\",\"2\",\"P\",\"J\",\"36\"
\"\",\"\",\"approach-retreat\",\"40\",\"511411\",\"0.0-40.0\",\"\",\"\",\"1-2\",\"4582\",\"37\",\"1\",\"Training\",\"Stims/Figures/86-C-30-1.bmp\",\"pa:pata\",\"Left\",\"37\",\"3\",\"5\",\"2\",\"P\",\"J\",\"37\"
\"\",\"\",\"approach-retreat\",\"41\",\"518589\",\"0.0-41.0\",\"\",\"\",\"1-2\",\"5647\",\"40\",\"1\",\"Training\",\"Stims/Figures/27-C-30-1.bmp\",\"pa:pata\",\"Down\",\"40\",\"3\",\"6\",\"2\",\"P\",\"J\",\"38\"
\"\",\"\",\"approach-retreat\",\"42\",\"525590\",\"0.0-42.0\",\"\",\"\",\"1-2\",\"5467\",\"40\",\"1\",\"Training\",\"Stims/Figures/85-J-0-2.bmp\",\"nalala\",\"Up\",\"40\",\"3\",\"7\",\"2\",\"S\",\"J\",\"39\"
\"\",\"\",\"approach-retreat\",\"43\",\"531434\",\"0.0-43.0\",\"\",\"\",\"1-2\",\"4311\",\"40\",\"1\",\"Training\",\"Stims/Figures/144-J-10-3.bmp\",\"nalala\",\"Up\",\"40\",\"3\",\"8\",\"2\",\"S\",\"J\",\"40\"
\"\",\"\",\"approach-retreat\",\"44\",\"538152\",\"0.0-44.0\",\"\",\"\",\"1-2\",\"5185\",\"39\",\"1\",\"Training\",\"Stims/Figures/27-J-0-1.bmp\",\"nalala\",\"Left\",\"39\",\"3\",\"9\",\"2\",\"S\",\"J\",\"41\"
\"\",\"\",\"approach-retreat\",\"45\",\"543940\",\"0.0-45.0\",\"\",\"\",\"1-2\",\"4256\",\"40\",\"1\",\"Training\",\"Stims/Figures/118-C-20-2.bmp\",\"pa:pata\",\"Down\",\"40\",\"3\",\"10\",\"2\",\"P\",\"J\",\"42\"
\"\",\"\",\"approach-retreat\",\"46\",\"550620\",\"0.0-46.0\",\"\",\"\",\"1-2\",\"5149\",\"38\",\"1\",\"Training\",\"Stims/Figures/128-J-10-3.bmp\",\"nalala\",\"Down\",\"38\",\"3\",\"11\",\"2\",\"S\",\"J\",\"43\"
\"\",\"\",\"approach-retreat\",\"47\",\"556968\",\"0.0-47.0\",\"\",\"\",\"1-2\",\"4820\",\"37\",\"1\",\"Training\",\"Stims/Figures/74-J-10-4.bmp\",\"nalala\",\"Right\",\"37\",\"3\",\"12\",\"2\",\"S\",\"J\",\"44\"
\"\",\"\",\"approach-retreat\",\"48\",\"565037\",\"0.0-48.0\",\"\",\"\",\"1-2\",\"6538\",\"37\",\"1\",\"Training\",\"Stims/Figures/85-C-20-2.bmp\",\"pa:pata\",\"Left\",\"37\",\"3\",\"13\",\"2\",\"P\",\"J\",\"45\"
\"\",\"\",\"approach-retreat\",\"49\",\"571040\",\"0.0-49.0\",\"\",\"\",\"1-2\",\"4471\",\"39\",\"1\",\"Training\",\"Stims/Figures/19-C-20-4.bmp\",\"pa:pata\",\"Right\",\"39\",\"3\",\"14\",\"2\",\"P\",\"J\",\"46\"
\"\",\"\",\"approach-retreat\",\"50\",\"577669\",\"0.0-50.0\",\"\",\"\",\"1-2\",\"5097\",\"38\",\"1\",\"Training\",\"Stims/Figures/118-J-0-2.bmp\",\"nalala\",\"Down\",\"38\",\"3\",\"15\",\"2\",\"S\",\"J\",\"47\"
\"\",\"\",\"approach-retreat\",\"51\",\"584742\",\"0.0-51.0\",\"\",\"\",\"1-2\",\"5543\",\"40\",\"1\",\"Training\",\"Stims/Figures/19-J-10-4.bmp\",\"nalala\",\"Up\",\"40\",\"3\",\"16\",\"2\",\"S\",\"J\",\"48\"
\"\",\"\",\"approach-retreat\",\"52\",\"592294\",\"0.0-52.0\",\"\",\"\",\"1-2\",\"6021\",\"38\",\"1\",\"Training\",\"Stims/Figures/27-J-0-1.bmp\",\"nalala\",\"Down\",\"38\",\"4\",\"1\",\"2\",\"S\",\"J\",\"49\"
\"\",\"\",\"approach-retreat\",\"53\",\"599168\",\"0.0-53.0\",\"\",\"\",\"1-2\",\"5343\",\"37\",\"1\",\"Training\",\"Stims/Figures/144-C-30-3.bmp\",\"pa:pata\",\"Left\",\"37\",\"4\",\"2\",\"2\",\"P\",\"J\",\"50\"
\"\",\"\",\"approach-retreat\",\"54\",\"605053\",\"0.0-54.0\",\"\",\"\",\"1-2\",\"4354\",\"40\",\"1\",\"Training\",\"Stims/Figures/128-C-30-3.bmp\",\"pa:pata\",\"Down\",\"40\",\"4\",\"3\",\"2\",\"P\",\"J\",\"51\"
\"\",\"\",\"approach-retreat\",\"55\",\"611791\",\"0.0-55.0\",\"\",\"\",\"1-2\",\"5206\",\"40\",\"1\",\"Training\",\"Stims/Figures/19-J-10-4.bmp\",\"nalala\",\"Up\",\"40\",\"4\",\"4\",\"2\",\"S\",\"J\",\"52\"
\"\",\"\",\"approach-retreat\",\"56\",\"617741\",\"0.0-56.0\",\"\",\"\",\"1-2\",\"4420\",\"38\",\"1\",\"Training\",\"Stims/Figures/86-J-0-1.bmp\",\"nalala\",\"Down\",\"38\",\"4\",\"5\",\"2\",\"S\",\"J\",\"53\"
\"\",\"\",\"approach-retreat\",\"57\",\"627198\",\"0.0-57.0\",\"\",\"\",\"1-2\",\"7923\",\"38\",\"1\",\"Training\",\"Stims/Figures/74-C-20-4.bmp\",\"pa:pata\",\"Up\",\"38\",\"4\",\"6\",\"2\",\"P\",\"J\",\"54\"
\"\",\"\",\"approach-retreat\",\"58\",\"635414\",\"0.0-58.0\",\"\",\"\",\"1-2\",\"6685\",\"39\",\"1\",\"Training\",\"Stims/Figures/27-C-30-1.bmp\",\"pa:pata\",\"Right\",\"39\",\"4\",\"7\",\"2\",\"P\",\"J\",\"55\"
\"\",\"\",\"approach-retreat\",\"59\",\"641295\",\"0.0-59.0\",\"\",\"\",\"1-2\",\"4346\",\"39\",\"1\",\"Training\",\"Stims/Figures/118-J-0-2.bmp\",\"nalala\",\"Left\",\"39\",\"4\",\"8\",\"2\",\"S\",\"J\",\"56\"
\"\",\"\",\"approach-retreat\",\"60\",\"647901\",\"0.0-60.0\",\"\",\"\",\"1-2\",\"5075\",\"37\",\"1\",\"Training\",\"Stims/Figures/118-C-20-2.bmp\",\"pa:pata\",\"Left\",\"37\",\"4\",\"9\",\"2\",\"P\",\"J\",\"57\"
\"\",\"\",\"approach-retreat\",\"61\",\"654161\",\"0.0-61.0\",\"\",\"\",\"1-2\",\"4731\",\"37\",\"1\",\"Training\",\"Stims/Figures/144-J-10-3.bmp\",\"nalala\",\"Right\",\"37\",\"4\",\"10\",\"2\",\"S\",\"J\",\"58\"
\"\",\"\",\"approach-retreat\",\"62\",\"662477\",\"0.0-62.0\",\"\",\"\",\"1-2\",\"6785\",\"38\",\"1\",\"Training\",\"Stims/Figures/85-J-0-2.bmp\",\"nalala\",\"Down\",\"38\",\"4\",\"11\",\"2\",\"S\",\"J\",\"59\"
\"\",\"\",\"approach-retreat\",\"63\",\"668382\",\"0.0-63.0\",\"\",\"\",\"1-2\",\"4374\",\"39\",\"1\",\"Training\",\"Stims/Figures/86-C-30-1.bmp\",\"pa:pata\",\"Right\",\"39\",\"4\",\"12\",\"2\",\"P\",\"J\",\"60\"
\"\",\"\",\"approach-retreat\",\"64\",\"674122\",\"0.0-64.0\",\"\",\"\",\"1-2\",\"4209\",\"37\",\"1\",\"Training\",\"Stims/Figures/85-C-20-2.bmp\",\"pa:pata\",\"Left\",\"37\",\"4\",\"13\",\"2\",\"P\",\"J\",\"61\"
\"\",\"\",\"approach-retreat\",\"65\",\"680178\",\"0.0-65.0\",\"\",\"\",\"1-2\",\"4525\",\"40\",\"1\",\"Training\",\"Stims/Figures/74-J-10-4.bmp\",\"nalala\",\"Up\",\"40\",\"4\",\"14\",\"2\",\"S\",\"J\",\"62\"
\"\",\"\",\"approach-retreat\",\"66\",\"686032\",\"0.0-66.0\",\"\",\"\",\"1-2\",\"4322\",\"39\",\"1\",\"Training\",\"Stims/Figures/19-C-20-4.bmp\",\"pa:pata\",\"Right\",\"39\",\"4\",\"15\",\"2\",\"P\",\"J\",\"63\"
\"\",\"\",\"approach-retreat\",\"67\",\"693372\",\"0.0-67.0\",\"\",\"\",\"1-2\",\"5809\",\"40\",\"1\",\"Training\",\"Stims/Figures/128-J-10-3.bmp\",\"nalala\",\"Up\",\"40\",\"4\",\"16\",\"2\",\"S\",\"J\",\"64\"
\"\",\"\",\"approach-retreat\",\"68\",\"699014\",\"0.0-68.0\",\"\",\"\",\"1-2\",\"4109\",\"40\",\"1\",\"Training\",\"Stims/Figures/86-C-30-1.bmp\",\"pa:pata\",\"Down\",\"40\",\"5\",\"1\",\"2\",\"P\",\"J\",\"65\"
\"\",\"\",\"approach-retreat\",\"69\",\"704640\",\"0.0-69.0\",\"\",\"\",\"1-2\",\"4095\",\"40\",\"1\",\"Training\",\"Stims/Figures/118-C-20-2.bmp\",\"pa:pata\",\"Down\",\"40\",\"5\",\"2\",\"2\",\"P\",\"J\",\"66\"
\"\",\"\",\"approach-retreat\",\"70\",\"710630\",\"0.0-70.0\",\"\",\"\",\"1-2\",\"4459\",\"40\",\"1\",\"Training\",\"Stims/Figures/144-J-10-3.bmp\",\"nalala\",\"Up\",\"40\",\"5\",\"3\",\"2\",\"S\",\"J\",\"67\"
\"\",\"\",\"approach-retreat\",\"71\",\"717213\",\"0.0-71.0\",\"\",\"\",\"1-2\",\"5052\",\"38\",\"1\",\"Training\",\"Stims/Figures/19-C-20-4.bmp\",\"pa:pata\",\"Up\",\"38\",\"5\",\"4\",\"2\",\"P\",\"J\",\"68\"
\"\",\"\",\"approach-retreat\",\"72\",\"723600\",\"0.0-72.0\",\"\",\"\",\"1-2\",\"4855\",\"37\",\"1\",\"Training\",\"Stims/Figures/85-J-0-2.bmp\",\"nalala\",\"Right\",\"37\",\"5\",\"5\",\"2\",\"S\",\"J\",\"69\"
\"\",\"\",\"approach-retreat\",\"73\",\"729557\",\"0.0-73.0\",\"\",\"\",\"1-2\",\"4425\",\"37\",\"1\",\"Training\",\"Stims/Figures/144-C-30-3.bmp\",\"pa:pata\",\"Left\",\"37\",\"5\",\"6\",\"2\",\"P\",\"J\",\"70\"
\"\",\"\",\"approach-retreat\",\"74\",\"735182\",\"0.0-74.0\",\"\",\"\",\"1-2\",\"4094\",\"39\",\"1\",\"Training\",\"Stims/Figures/86-J-0-1.bmp\",\"nalala\",\"Left\",\"39\",\"5\",\"7\",\"2\",\"S\",\"J\",\"71\"
\"\",\"\",\"approach-retreat\",\"75\",\"741090\",\"0.0-75.0\",\"\",\"\",\"1-2\",\"4378\",\"39\",\"1\",\"Training\",\"Stims/Figures/74-C-20-4.bmp\",\"pa:pata\",\"Right\",\"39\",\"5\",\"8\",\"2\",\"P\",\"J\",\"72\"
\"\",\"\",\"approach-retreat\",\"76\",\"747027\",\"0.0-76.0\",\"\",\"\",\"1-2\",\"4407\",\"37\",\"1\",\"Training\",\"Stims/Figures/118-J-0-2.bmp\",\"nalala\",\"Right\",\"37\",\"5\",\"9\",\"2\",\"S\",\"J\",\"73\"
\"\",\"\",\"approach-retreat\",\"77\",\"753623\",\"0.0-77.0\",\"\",\"\",\"1-2\",\"5066\",\"40\",\"1\",\"Training\",\"Stims/Figures/128-J-10-3.bmp\",\"nalala\",\"Up\",\"40\",\"5\",\"10\",\"2\",\"S\",\"J\",\"74\"
\"\",\"\",\"approach-retreat\",\"78\",\"759910\",\"0.0-78.0\",\"\",\"\",\"1-2\",\"4755\",\"39\",\"1\",\"Training\",\"Stims/Figures/19-J-10-4.bmp\",\"nalala\",\"Left\",\"39\",\"5\",\"11\",\"2\",\"S\",\"J\",\"75\"
\"\",\"\",\"approach-retreat\",\"79\",\"765771\",\"0.0-79.0\",\"\",\"\",\"1-2\",\"4331\",\"39\",\"1\",\"Training\",\"Stims/Figures/27-J-0-1.bmp\",\"nalala\",\"Left\",\"39\",\"5\",\"12\",\"2\",\"S\",\"J\",\"76\"
\"\",\"\",\"approach-retreat\",\"80\",\"771575\",\"0.0-80.0\",\"\",\"\",\"1-2\",\"4269\",\"40\",\"1\",\"Training\",\"Stims/Figures/128-C-30-3.bmp\",\"pa:pata\",\"Down\",\"40\",\"5\",\"13\",\"2\",\"P\",\"J\",\"77\"
\"\",\"\",\"approach-retreat\",\"81\",\"777781\",\"0.0-81.0\",\"\",\"\",\"1-2\",\"4676\",\"38\",\"1\",\"Training\",\"Stims/Figures/74-J-10-4.bmp\",\"nalala\",\"Down\",\"38\",\"5\",\"14\",\"2\",\"S\",\"J\",\"78\"
\"\",\"\",\"approach-retreat\",\"82\",\"784564\",\"0.0-82.0\",\"\",\"\",\"1-2\",\"5255\",\"39\",\"1\",\"Training\",\"Stims/Figures/85-C-20-2.bmp\",\"pa:pata\",\"Right\",\"39\",\"5\",\"15\",\"2\",\"P\",\"J\",\"79\"
\"\",\"\",\"approach-retreat\",\"83\",\"791501\",\"0.0-83.0\",\"\",\"\",\"1-2\",\"5405\",\"38\",\"1\",\"Training\",\"Stims/Figures/27-C-30-1.bmp\",\"pa:pata\",\"Up\",\"38\",\"5\",\"16\",\"2\",\"P\",\"J\",\"80\"
\"\",\"\",\"approach-retreat\",\"84\",\"799229\",\"0.0-84.0\",\"\",\"\",\"1-2\",\"6197\",\"38\",\"1\",\"Training\",\"Stims/Figures/128-C-30-3.bmp\",\"pa:pata\",\"Up\",\"38\",\"6\",\"1\",\"2\",\"P\",\"J\",\"81\"
\"\",\"\",\"approach-retreat\",\"85\",\"805917\",\"0.0-85.0\",\"\",\"\",\"1-2\",\"5155\",\"40\",\"1\",\"Training\",\"Stims/Figures/144-C-30-3.bmp\",\"pa:pata\",\"Down\",\"40\",\"6\",\"2\",\"2\",\"P\",\"J\",\"82\"
\"\",\"\",\"approach-retreat\",\"86\",\"812358\",\"0.0-86.0\",\"\",\"\",\"1-2\",\"4909\",\"39\",\"1\",\"Training\",\"Stims/Figures/118-J-0-2.bmp\",\"nalala\",\"Left\",\"39\",\"6\",\"3\",\"2\",\"S\",\"J\",\"83\"
\"\",\"\",\"approach-retreat\",\"87\",\"818707\",\"0.0-87.0\",\"\",\"\",\"1-2\",\"4817\",\"39\",\"1\",\"Training\",\"Stims/Figures/86-C-30-1.bmp\",\"pa:pata\",\"Right\",\"39\",\"6\",\"4\",\"2\",\"P\",\"J\",\"84\"
\"\",\"\",\"approach-retreat\",\"88\",\"824936\",\"0.0-88.0\",\"\",\"\",\"1-2\",\"4698\",\"38\",\"1\",\"Training\",\"Stims/Figures/128-J-10-3.bmp\",\"nalala\",\"Down\",\"38\",\"6\",\"5\",\"2\",\"S\",\"J\",\"85\"
\"\",\"\",\"approach-retreat\",\"89\",\"831219\",\"0.0-89.0\",\"\",\"\",\"1-2\",\"4752\",\"37\",\"1\",\"Training\",\"Stims/Figures/19-C-20-4.bmp\",\"pa:pata\",\"Left\",\"37\",\"6\",\"6\",\"2\",\"P\",\"J\",\"86\"
\"\",\"\",\"approach-retreat\",\"90\",\"838556\",\"0.0-90.0\",\"\",\"\",\"1-2\",\"5806\",\"37\",\"1\",\"Training\",\"Stims/Figures/85-J-0-2.bmp\",\"nalala\",\"Right\",\"37\",\"6\",\"7\",\"2\",\"S\",\"J\",\"87\"
\"\",\"\",\"approach-retreat\",\"91\",\"846108\",\"0.0-91.0\",\"\",\"\",\"1-2\",\"6020\",\"40\",\"1\",\"Training\",\"Stims/Figures/19-J-10-4.bmp\",\"nalala\",\"Up\",\"40\",\"6\",\"8\",\"2\",\"S\",\"J\",\"88\"
\"\",\"\",\"approach-retreat\",\"92\",\"853485\",\"0.0-92.0\",\"\",\"\",\"1-2\",\"5845\",\"40\",\"1\",\"Training\",\"Stims/Figures/85-C-20-2.bmp\",\"pa:pata\",\"Down\",\"40\",\"6\",\"9\",\"2\",\"P\",\"J\",\"89\"
\"\",\"\",\"approach-retreat\",\"93\",\"861493\",\"0.0-93.0\",\"\",\"\",\"1-2\",\"6475\",\"40\",\"1\",\"Training\",\"Stims/Figures/86-J-0-1.bmp\",\"nalala\",\"Up\",\"40\",\"6\",\"10\",\"2\",\"S\",\"J\",\"90\"
\"\",\"\",\"approach-retreat\",\"94\",\"871072\",\"0.0-94.0\",\"\",\"\",\"1-2\",\"8047\",\"39\",\"1\",\"Training\",\"Stims/Figures/74-C-20-4.bmp\",\"pa:pata\",\"Right\",\"39\",\"6\",\"11\",\"2\",\"P\",\"J\",\"91\"
\"\",\"\",\"approach-retreat\",\"95\",\"878296\",\"0.0-95.0\",\"\",\"\",\"1-2\",\"5693\",\"39\",\"1\",\"Training\",\"Stims/Figures/27-J-0-1.bmp\",\"nalala\",\"Left\",\"39\",\"6\",\"12\",\"2\",\"S\",\"J\",\"92\"
\"\",\"\",\"approach-retreat\",\"96\",\"894794\",\"0.0-96.0\",\"\",\"\",\"1-2\",\"14966\",\"37\",\"1\",\"Training\",\"Stims/Figures/74-J-10-4.bmp\",\"nalala\",\"Right\",\"37\",\"6\",\"13\",\"2\",\"S\",\"J\",\"93\"
\"\",\"\",\"approach-retreat\",\"97\",\"912306\",\"0.0-97.0\",\"\",\"\",\"1-2\",\"15979\",\"38\",\"1\",\"Training\",\"Stims/Figures/118-C-20-2.bmp\",\"pa:pata\",\"Up\",\"38\",\"6\",\"14\",\"2\",\"P\",\"J\",\"94\"
\"\",\"\",\"approach-retreat\",\"98\",\"920008\",\"0.0-98.0\",\"\",\"\",\"1-2\",\"6168\",\"37\",\"1\",\"Training\",\"Stims/Figures/27-C-30-1.bmp\",\"pa:pata\",\"Left\",\"37\",\"6\",\"15\",\"2\",\"P\",\"J\",\"95\"
\"\",\"\",\"approach-retreat\",\"99\",\"927707\",\"0.0-99.0\",\"\",\"\",\"1-2\",\"6169\",\"38\",\"1\",\"Training\",\"Stims/Figures/144-J-10-3.bmp\",\"nalala\",\"Down\",\"38\",\"6\",\"16\",\"2\",\"S\",\"J\",\"96\"
\"\",\"\",\"approach-retreat\",\"100\",\"934078\",\"0.0-100.0\",\"\",\"\",\"1-2\",\"4839\",\"39\",\"1\",\"Training\",\"Stims/Figures/144-J-10-3.bmp\",\"nalala\",\"Left\",\"39\",\"7\",\"1\",\"2\",\"S\",\"J\",\"97\"
\"\",\"\",\"approach-retreat\",\"101\",\"940136\",\"0.0-101.0\",\"\",\"\",\"1-2\",\"4528\",\"40\",\"1\",\"Training\",\"Stims/Figures/118-J-0-2.bmp\",\"nalala\",\"Up\",\"40\",\"7\",\"2\",\"2\",\"S\",\"J\",\"98\"
\"\",\"\",\"approach-retreat\",\"102\",\"948797\",\"0.0-102.0\",\"\",\"\",\"1-2\",\"7130\",\"39\",\"1\",\"Training\",\"Stims/Figures/85-J-0-2.bmp\",\"nalala\",\"Left\",\"39\",\"7\",\"3\",\"2\",\"S\",\"J\",\"99\"
\"\",\"\",\"approach-retreat\",\"103\",\"954746\",\"0.0-103.0\",\"\",\"\",\"1-2\",\"4418\",\"39\",\"1\",\"Training\",\"Stims/Figures/85-C-20-2.bmp\",\"pa:pata\",\"Right\",\"39\",\"7\",\"4\",\"2\",\"P\",\"J\",\"100\"
\"\",\"\",\"approach-retreat\",\"104\",\"962789\",\"0.0-104.0\",\"\",\"\",\"1-2\",\"6513\",\"40\",\"1\",\"Training\",\"Stims/Figures/144-C-30-3.bmp\",\"pa:pata\",\"Down\",\"40\",\"7\",\"5\",\"2\",\"P\",\"J\",\"101\"
\"\",\"\",\"approach-retreat\",\"105\",\"969655\",\"0.0-105.0\",\"\",\"\",\"1-2\",\"5338\",\"39\",\"1\",\"Training\",\"Stims/Figures/27-J-0-1.bmp\",\"nalala\",\"Left\",\"39\",\"7\",\"6\",\"2\",\"S\",\"J\",\"102\"
\"\",\"\",\"approach-retreat\",\"106\",\"977028\",\"0.0-106.0\",\"\",\"\",\"1-2\",\"5842\",\"38\",\"1\",\"Training\",\"Stims/Figures/86-C-30-1.bmp\",\"pa:pata\",\"Up\",\"38\",\"7\",\"7\",\"2\",\"P\",\"J\",\"103\"
\"\",\"\",\"approach-retreat\",\"107\",\"984343\",\"0.0-107.0\",\"\",\"\",\"1-2\",\"5784\",\"40\",\"1\",\"Training\",\"Stims/Figures/27-C-30-1.bmp\",\"pa:pata\",\"Down\",\"40\",\"7\",\"8\",\"2\",\"P\",\"J\",\"104\"
\"\",\"\",\"approach-retreat\",\"108\",\"990965\",\"0.0-108.0\",\"\",\"\",\"1-2\",\"5110\",\"38\",\"1\",\"Training\",\"Stims/Figures/128-J-10-3.bmp\",\"nalala\",\"Down\",\"38\",\"7\",\"9\",\"2\",\"S\",\"J\",\"105\"
\"\",\"\",\"approach-retreat\",\"109\",\"997642\",\"0.0-109.0\",\"\",\"\",\"1-2\",\"5145\",\"39\",\"1\",\"Training\",\"Stims/Figures/19-J-10-4.bmp\",\"nalala\",\"Left\",\"39\",\"7\",\"10\",\"2\",\"S\",\"J\",\"106\"
\"\",\"\",\"approach-retreat\",\"110\",\"1007636\",\"0.0-110.0\",\"\",\"\",\"1-2\",\"8461\",\"40\",\"1\",\"Training\",\"Stims/Figures/86-J-0-1.bmp\",\"nalala\",\"Up\",\"40\",\"7\",\"11\",\"2\",\"S\",\"J\",\"107\"
\"\",\"\",\"approach-retreat\",\"111\",\"1014997\",\"0.0-111.0\",\"\",\"\",\"1-2\",\"5831\",\"40\",\"1\",\"Training\",\"Stims/Figures/118-C-20-2.bmp\",\"pa:pata\",\"Down\",\"40\",\"7\",\"12\",\"2\",\"P\",\"J\",\"108\"
\"\",\"\",\"approach-retreat\",\"112\",\"1021430\",\"0.0-112.0\",\"\",\"\",\"1-2\",\"4902\",\"38\",\"0\",\"Training\",\"Stims/Figures/74-J-10-4.bmp\",\"nalala\",\"Up\",\"40\",\"7\",\"13\",\"2\",\"S\",\"J\",\"109\"
\"\",\"\",\"approach-retreat\",\"113\",\"1027442\",\"0.0-113.0\",\"\",\"\",\"1-2\",\"4479\",\"39\",\"1\",\"Training\",\"Stims/Figures/19-C-20-4.bmp\",\"pa:pata\",\"Right\",\"39\",\"7\",\"14\",\"2\",\"P\",\"J\",\"110\"
\"\",\"\",\"approach-retreat\",\"114\",\"1033275\",\"0.0-114.0\",\"\",\"\",\"1-2\",\"4302\",\"39\",\"1\",\"Training\",\"Stims/Figures/128-C-30-3.bmp\",\"pa:pata\",\"Right\",\"39\",\"7\",\"15\",\"2\",\"P\",\"J\",\"111\"
\"\",\"\",\"approach-retreat\",\"115\",\"1039628\",\"0.0-115.0\",\"\",\"\",\"1-2\",\"4824\",\"39\",\"1\",\"Training\",\"Stims/Figures/74-C-20-4.bmp\",\"pa:pata\",\"Right\",\"39\",\"7\",\"16\",\"2\",\"P\",\"J\",\"112\"
\"\",\"\",\"approach-retreat\",\"116\",\"1047166\",\"0.0-116.0\",\"\",\"\",\"1-2\",\"6007\",\"39\",\"1\",\"Training\",\"Stims/Figures/86-J-0-1.bmp\",\"nalala\",\"Left\",\"39\",\"8\",\"1\",\"2\",\"S\",\"J\",\"113\"
\"\",\"\",\"approach-retreat\",\"117\",\"1052878\",\"0.0-117.0\",\"\",\"\",\"1-2\",\"4179\",\"39\",\"1\",\"Training\",\"Stims/Figures/85-J-0-2.bmp\",\"nalala\",\"Left\",\"39\",\"8\",\"2\",\"2\",\"S\",\"J\",\"114\"
\"\",\"\",\"approach-retreat\",\"118\",\"1059813\",\"0.0-118.0\",\"\",\"\",\"1-2\",\"5404\",\"39\",\"1\",\"Training\",\"Stims/Figures/27-C-30-1.bmp\",\"pa:pata\",\"Right\",\"39\",\"8\",\"3\",\"2\",\"P\",\"J\",\"115\"
\"\",\"\",\"approach-retreat\",\"119\",\"1066319\",\"0.0-119.0\",\"\",\"\",\"1-2\",\"4974\",\"38\",\"1\",\"Training\",\"Stims/Figures/19-C-20-4.bmp\",\"pa:pata\",\"Up\",\"38\",\"8\",\"4\",\"2\",\"P\",\"J\",\"116\"
\"\",\"\",\"approach-retreat\",\"120\",\"1072185\",\"0.0-120.0\",\"\",\"\",\"1-2\",\"4333\",\"40\",\"0\",\"Training\",\"Stims/Figures/19-J-10-4.bmp\",\"nalala\",\"Down\",\"38\",\"8\",\"5\",\"2\",\"S\",\"J\",\"117\"
\"\",\"\",\"approach-retreat\",\"121\",\"1078956\",\"0.0-121.0\",\"\",\"\",\"1-2\",\"5238\",\"38\",\"1\",\"Training\",\"Stims/Figures/118-C-20-2.bmp\",\"pa:pata\",\"Up\",\"38\",\"8\",\"6\",\"2\",\"P\",\"J\",\"118\"
\"\",\"\",\"approach-retreat\",\"122\",\"1086415\",\"0.0-122.0\",\"\",\"\",\"1-2\",\"5926\",\"40\",\"1\",\"Training\",\"Stims/Figures/27-J-0-1.bmp\",\"nalala\",\"Up\",\"40\",\"8\",\"7\",\"2\",\"S\",\"J\",\"119\"
\"\",\"\",\"approach-retreat\",\"123\",\"1092340\",\"0.0-123.0\",\"\",\"\",\"1-2\",\"4395\",\"38\",\"1\",\"Training\",\"Stims/Figures/128-J-10-3.bmp\",\"nalala\",\"Down\",\"38\",\"8\",\"8\",\"2\",\"S\",\"J\",\"120\"
\"\",\"\",\"approach-retreat\",\"124\",\"1103088\",\"0.0-124.0\",\"\",\"\",\"1-2\",\"9216\",\"39\",\"1\",\"Training\",\"Stims/Figures/85-C-20-2.bmp\",\"pa:pata\",\"Right\",\"39\",\"8\",\"9\",\"2\",\"P\",\"J\",\"121\"
\"\",\"\",\"approach-retreat\",\"125\",\"1108598\",\"0.0-125.0\",\"\",\"\",\"1-2\",\"3978\",\"39\",\"1\",\"Training\",\"Stims/Figures/144-C-30-3.bmp\",\"pa:pata\",\"Right\",\"39\",\"8\",\"10\",\"2\",\"P\",\"J\",\"122\"
\"\",\"\",\"approach-retreat\",\"126\",\"1115708\",\"0.0-126.0\",\"\",\"\",\"1-2\",\"5569\",\"38\",\"1\",\"Training\",\"Stims/Figures/144-J-10-3.bmp\",\"nalala\",\"Down\",\"38\",\"8\",\"11\",\"2\",\"S\",\"J\",\"123\"
\"\",\"\",\"approach-retreat\",\"127\",\"1121834\",\"0.0-127.0\",\"\",\"\",\"1-2\",\"4594\",\"37\",\"1\",\"Training\",\"Stims/Figures/128-C-30-3.bmp\",\"pa:pata\",\"Left\",\"37\",\"8\",\"12\",\"2\",\"P\",\"J\",\"124\"
\"\",\"\",\"approach-retreat\",\"128\",\"1129229\",\"0.0-128.0\",\"\",\"\",\"1-2\",\"5862\",\"37\",\"1\",\"Training\",\"Stims/Figures/74-C-20-4.bmp\",\"pa:pata\",\"Left\",\"37\",\"8\",\"13\",\"2\",\"P\",\"J\",\"125\"
\"\",\"\",\"approach-retreat\",\"129\",\"1135436\",\"0.0-129.0\",\"\",\"\",\"1-2\",\"4673\",\"37\",\"1\",\"Training\",\"Stims/Figures/74-J-10-4.bmp\",\"nalala\",\"Right\",\"37\",\"8\",\"14\",\"2\",\"S\",\"J\",\"126\"
\"\",\"\",\"approach-retreat\",\"130\",\"1141823\",\"0.0-130.0\",\"\",\"\",\"1-2\",\"4856\",\"40\",\"1\",\"Training\",\"Stims/Figures/118-J-0-2.bmp\",\"nalala\",\"Up\",\"40\",\"8\",\"15\",\"2\",\"S\",\"J\",\"127\"
\"\",\"\",\"approach-retreat\",\"131\",\"1149176\",\"0.0-131.0\",\"\",\"\",\"1-2\",\"5821\",\"40\",\"1\",\"Training\",\"Stims/Figures/86-C-30-1.bmp\",\"pa:pata\",\"Down\",\"40\",\"8\",\"16\",\"2\",\"P\",\"J\",\"128\"
\"\",\"\",\"approach-retreat\",\"132\",\"1158198\",\"0.0-132.0\",\"\",\"\",\"1-2\",\"7511\",\"39\",\"1\",\"Training\",\"Stims/Figures/85-C-20-2.bmp\",\"pa:pata\",\"Right\",\"39\",\"9\",\"1\",\"2\",\"P\",\"J\",\"129\"
\"\",\"\",\"approach-retreat\",\"133\",\"1164663\",\"0.0-133.0\",\"\",\"\",\"1-2\",\"4932\",\"39\",\"1\",\"Training\",\"Stims/Figures/74-J-10-4.bmp\",\"nalala\",\"Left\",\"39\",\"9\",\"2\",\"2\",\"S\",\"J\",\"130\"
\"\",\"\",\"approach-retreat\",\"134\",\"1171885\",\"0.0-134.0\",\"\",\"\",\"1-2\",\"5690\",\"39\",\"1\",\"Training\",\"Stims/Figures/74-C-20-4.bmp\",\"pa:pata\",\"Right\",\"39\",\"9\",\"3\",\"2\",\"P\",\"J\",\"131\"
\"\",\"\",\"approach-retreat\",\"135\",\"1179055\",\"0.0-135.0\",\"\",\"\",\"1-2\",\"5640\",\"38\",\"1\",\"Training\",\"Stims/Figures/144-J-10-3.bmp\",\"nalala\",\"Down\",\"38\",\"9\",\"4\",\"2\",\"S\",\"J\",\"132\"
\"\",\"\",\"approach-retreat\",\"136\",\"1188726\",\"0.0-136.0\",\"\",\"\",\"1-2\",\"8140\",\"37\",\"1\",\"Training\",\"Stims/Figures/118-C-20-2.bmp\",\"pa:pata\",\"Left\",\"37\",\"9\",\"5\",\"2\",\"P\",\"J\",\"133\"
\"\",\"\",\"approach-retreat\",\"137\",\"1196040\",\"0.0-137.0\",\"\",\"\",\"1-2\",\"5784\",\"39\",\"1\",\"Training\",\"Stims/Figures/128-J-10-3.bmp\",\"nalala\",\"Left\",\"39\",\"9\",\"6\",\"2\",\"S\",\"J\",\"134\"
\"\",\"\",\"approach-retreat\",\"138\",\"1202153\",\"0.0-138.0\",\"\",\"\",\"1-2\",\"4578\",\"40\",\"1\",\"Training\",\"Stims/Figures/85-J-0-2.bmp\",\"nalala\",\"Up\",\"40\",\"9\",\"7\",\"2\",\"S\",\"J\",\"135\"
\"\",\"\",\"approach-retreat\",\"139\",\"1208779\",\"0.0-139.0\",\"\",\"\",\"1-2\",\"5094\",\"37\",\"1\",\"Training\",\"Stims/Figures/19-J-10-4.bmp\",\"nalala\",\"Right\",\"37\",\"9\",\"8\",\"2\",\"S\",\"J\",\"136\"
\"\",\"\",\"approach-retreat\",\"140\",\"1214507\",\"0.0-140.0\",\"\",\"\",\"1-2\",\"4198\",\"38\",\"1\",\"Training\",\"Stims/Figures/27-J-0-1.bmp\",\"nalala\",\"Down\",\"38\",\"9\",\"9\",\"2\",\"S\",\"J\",\"137\"
\"\",\"\",\"approach-retreat\",\"141\",\"1221629\",\"0.0-141.0\",\"\",\"\",\"1-2\",\"5590\",\"38\",\"1\",\"Training\",\"Stims/Figures/128-C-30-3.bmp\",\"pa:pata\",\"Up\",\"38\",\"9\",\"10\",\"2\",\"P\",\"J\",\"138\"
\"\",\"\",\"approach-retreat\",\"142\",\"1227525\",\"0.0-142.0\",\"\",\"\",\"1-2\",\"4366\",\"38\",\"1\",\"Training\",\"Stims/Figures/27-C-30-1.bmp\",\"pa:pata\",\"Up\",\"38\",\"9\",\"11\",\"2\",\"P\",\"J\",\"139\"
\"\",\"\",\"approach-retreat\",\"143\",\"1233828\",\"0.0-143.0\",\"\",\"\",\"1-2\",\"4771\",\"39\",\"1\",\"Training\",\"Stims/Figures/118-J-0-2.bmp\",\"nalala\",\"Left\",\"39\",\"9\",\"12\",\"2\",\"S\",\"J\",\"140\"
\"\",\"\",\"approach-retreat\",\"144\",\"1241187\",\"0.0-144.0\",\"\",\"\",\"1-2\",\"5827\",\"38\",\"1\",\"Training\",\"Stims/Figures/144-C-30-3.bmp\",\"pa:pata\",\"Up\",\"38\",\"9\",\"13\",\"2\",\"P\",\"J\",\"141\"
\"\",\"\",\"approach-retreat\",\"145\",\"1249277\",\"0.0-145.0\",\"\",\"\",\"1-2\",\"6560\",\"40\",\"1\",\"Training\",\"Stims/Figures/19-C-20-4.bmp\",\"pa:pata\",\"Down\",\"40\",\"9\",\"14\",\"2\",\"P\",\"J\",\"142\"
\"\",\"\",\"approach-retreat\",\"146\",\"1256435\",\"0.0-146.0\",\"\",\"\",\"1-2\",\"5628\",\"37\",\"1\",\"Training\",\"Stims/Figures/86-J-0-1.bmp\",\"nalala\",\"Right\",\"37\",\"9\",\"15\",\"2\",\"S\",\"J\",\"143\"
\"\",\"\",\"approach-retreat\",\"147\",\"1262266\",\"0.0-147.0\",\"\",\"\",\"1-2\",\"4300\",\"40\",\"1\",\"Training\",\"Stims/Figures/86-C-30-1.bmp\",\"pa:pata\",\"Down\",\"40\",\"9\",\"16\",\"2\",\"P\",\"J\",\"144\"
\"15923\",\"\",\"instructions\",\"148\",\"1278191\",\"0.0-148.0\",\"[{\"\"page_index\"\":0,\"\"viewing_time\"\":15921}]\",\"\",\"\",\"\",\"\",\"\",\"\",\"\",\"\",\"\",\"\",\"\",\"\",\"\",\"\",\"\",\"\"
\"\",\"\",\"approach-retreat\",\"149\",\"1289443\",\"0.0-149.0\",\"\",\"\",\"1-2\",\"9728\",\"39\",\"1\",\"Testing\",\"Stims/Figures/44-C-30-3.bmp\",\"pa:pata\",\"Right\",\"39\",\"1\",\"1\",\"2\",\"P\",\"J\",\"1\"
\"\",\"\",\"approach-retreat\",\"150\",\"1294910\",\"0.0-150.0\",\"\",\"\",\"1-2\",\"3940\",\"40\",\"1\",\"Testing\",\"Stims/Figures/27-C-30-1.bmp\",\"pa:pata\",\"Down\",\"40\",\"1\",\"2\",\"2\",\"P\",\"J\",\"2\"
\"\",\"\",\"approach-retreat\",\"151\",\"1302926\",\"0.0-151.0\",\"\",\"\",\"1-2\",\"6490\",\"37\",\"0\",\"Testing\",\"Stims/Figures/74-C-20-4.bmp\",\"pa:pata\",\"Right\",\"39\",\"1\",\"3\",\"2\",\"P\",\"J\",\"3\"
\"\",\"\",\"approach-retreat\",\"152\",\"1311908\",\"0.0-152.0\",\"\",\"\",\"1-2\",\"7456\",\"38\",\"1\",\"Testing\",\"Stims/Figures/144-C-30-3.bmp\",\"pa:pata\",\"Up\",\"38\",\"1\",\"4\",\"2\",\"P\",\"J\",\"4\"
\"\",\"\",\"approach-retreat\",\"153\",\"1318423\",\"0.0-153.0\",\"\",\"\",\"1-2\",\"4990\",\"37\",\"1\",\"Testing\",\"Stims/Figures/87-C-20-4.bmp\",\"pa:pata\",\"Left\",\"37\",\"1\",\"5\",\"2\",\"P\",\"J\",\"5\"
\"\",\"\",\"approach-retreat\",\"154\",\"1325733\",\"0.0-154.0\",\"\",\"\",\"1-2\",\"5784\",\"38\",\"1\",\"Testing\",\"Stims/Figures/128-J-10-3.bmp\",\"nalala\",\"Down\",\"38\",\"1\",\"6\",\"2\",\"S\",\"J\",\"6\"
\"\",\"\",\"approach-retreat\",\"155\",\"1332975\",\"0.0-155.0\",\"\",\"\",\"1-2\",\"5715\",\"38\",\"0\",\"Testing\",\"Stims/Figures/86-J-0-1.bmp\",\"nalala\",\"Up\",\"40\",\"1\",\"7\",\"2\",\"S\",\"J\",\"7\"
\"\",\"\",\"approach-retreat\",\"156\",\"1340514\",\"0.0-156.0\",\"\",\"\",\"1-2\",\"6014\",\"38\",\"1\",\"Testing\",\"Stims/Figures/85-J-0-2.bmp\",\"nalala\",\"Down\",\"38\",\"1\",\"8\",\"2\",\"S\",\"J\",\"8\"
\"\",\"\",\"approach-retreat\",\"157\",\"1347358\",\"0.0-157.0\",\"\",\"\",\"1-2\",\"5320\",\"37\",\"0\",\"Testing\",\"Stims/Figures/144-J-10-3.bmp\",\"nalala\",\"Left\",\"39\",\"1\",\"9\",\"2\",\"S\",\"J\",\"9\"
\"\",\"\",\"approach-retreat\",\"158\",\"1355201\",\"0.0-158.0\",\"\",\"\",\"1-2\",\"6316\",\"37\",\"1\",\"Testing\",\"Stims/Figures/86-C-30-1.bmp\",\"pa:pata\",\"Left\",\"37\",\"1\",\"10\",\"2\",\"P\",\"J\",\"10\"
\"\",\"\",\"approach-retreat\",\"159\",\"1360668\",\"0.0-159.0\",\"\",\"\",\"1-2\",\"3941\",\"38\",\"0\",\"Testing\",\"Stims/Figures/118-J-0-2.bmp\",\"nalala\",\"Up\",\"40\",\"1\",\"11\",\"2\",\"S\",\"J\",\"11\"
\"\",\"\",\"approach-retreat\",\"160\",\"1366272\",\"0.0-160.0\",\"\",\"\",\"1-2\",\"4079\",\"39\",\"0\",\"Testing\",\"Stims/Figures/19-J-10-4.bmp\",\"nalala\",\"Right\",\"37\",\"1\",\"12\",\"2\",\"S\",\"J\",\"12\"
\"\",\"\",\"approach-retreat\",\"161\",\"1372929\",\"0.0-161.0\",\"\",\"\",\"1-2\",\"5133\",\"39\",\"0\",\"Testing\",\"Stims/Figures/44-J-10-3.bmp\",\"nalala\",\"Right\",\"37\",\"1\",\"13\",\"2\",\"S\",\"J\",\"13\"
\"\",\"\",\"approach-retreat\",\"162\",\"1379455\",\"0.0-162.0\",\"\",\"\",\"1-2\",\"5002\",\"37\",\"0\",\"Testing\",\"Stims/Figures/128-C-30-3.bmp\",\"pa:pata\",\"Right\",\"39\",\"1\",\"14\",\"2\",\"P\",\"J\",\"14\"
\"\",\"\",\"approach-retreat\",\"163\",\"1385157\",\"0.0-163.0\",\"\",\"\",\"1-2\",\"4176\",\"40\",\"0\",\"Testing\",\"Stims/Figures/27-J-0-1.bmp\",\"nalala\",\"Down\",\"38\",\"1\",\"15\",\"2\",\"S\",\"J\",\"15\"
\"\",\"\",\"approach-retreat\",\"164\",\"1391395\",\"0.0-164.0\",\"\",\"\",\"1-2\",\"4715\",\"38\",\"0\",\"Testing\",\"Stims/Figures/93-J-0-1.bmp\",\"nalala\",\"Up\",\"40\",\"1\",\"16\",\"2\",\"S\",\"J\",\"16\"
\"\",\"\",\"approach-retreat\",\"165\",\"1397052\",\"0.0-165.0\",\"\",\"\",\"1-2\",\"4126\",\"38\",\"1\",\"Testing\",\"Stims/Figures/85-C-20-2.bmp\",\"pa:pata\",\"Up\",\"38\",\"1\",\"17\",\"2\",\"P\",\"J\",\"17\"
\"\",\"\",\"approach-retreat\",\"166\",\"1402445\",\"0.0-166.0\",\"\",\"\",\"1-2\",\"3868\",\"39\",\"1\",\"Testing\",\"Stims/Figures/93-C-30-1.bmp\",\"pa:pata\",\"Right\",\"39\",\"1\",\"18\",\"2\",\"P\",\"J\",\"18\"
\"\",\"\",\"approach-retreat\",\"167\",\"1408775\",\"0.0-167.0\",\"\",\"\",\"1-2\",\"4784\",\"37\",\"1\",\"Testing\",\"Stims/Figures/94-C-20-2.bmp\",\"pa:pata\",\"Left\",\"37\",\"1\",\"19\",\"2\",\"P\",\"J\",\"19\"
\"\",\"\",\"approach-retreat\",\"168\",\"1415180\",\"0.0-168.0\",\"\",\"\",\"1-2\",\"4883\",\"40\",\"1\",\"Testing\",\"Stims/Figures/118-C-20-2.bmp\",\"pa:pata\",\"Down\",\"40\",\"1\",\"20\",\"2\",\"P\",\"J\",\"20\"
\"\",\"\",\"approach-retreat\",\"169\",\"1422003\",\"0.0-169.0\",\"\",\"\",\"1-2\",\"5301\",\"39\",\"1\",\"Testing\",\"Stims/Figures/87-J-10-4.bmp\",\"nalala\",\"Left\",\"39\",\"1\",\"21\",\"2\",\"S\",\"J\",\"21\"
\"\",\"\",\"approach-retreat\",\"170\",\"1428130\",\"0.0-170.0\",\"\",\"\",\"1-2\",\"4603\",\"40\",\"0\",\"Testing\",\"Stims/Figures/74-J-10-4.bmp\",\"nalala\",\"Down\",\"38\",\"1\",\"22\",\"2\",\"S\",\"J\",\"22\"
\"\",\"\",\"approach-retreat\",\"171\",\"1434963\",\"0.0-171.0\",\"\",\"\",\"1-2\",\"5310\",\"40\",\"0\",\"Testing\",\"Stims/Figures/19-C-20-4.bmp\",\"pa:pata\",\"Up\",\"38\",\"1\",\"23\",\"2\",\"P\",\"J\",\"23\"
\"\",\"\",\"approach-retreat\",\"172\",\"1441669\",\"0.0-172.0\",\"\",\"\",\"1-2\",\"5182\",\"39\",\"1\",\"Testing\",\"Stims/Figures/94-J-0-2.bmp\",\"nalala\",\"Left\",\"39\",\"1\",\"24\",\"2\",\"S\",\"J\",\"24\"
\"\",\"\",\"approach-retreat\",\"173\",\"1447315\",\"0.0-173.0\",\"\",\"\",\"1-2\",\"4120\",\"39\",\"0\",\"Testing\",\"Stims/Figures/74-J-10-4.bmp\",\"nalala\",\"Right\",\"37\",\"2\",\"1\",\"2\",\"S\",\"J\",\"25\"
\"\",\"\",\"approach-retreat\",\"174\",\"1454062\",\"0.0-174.0\",\"\",\"\",\"1-2\",\"5222\",\"40\",\"1\",\"Testing\",\"Stims/Figures/86-C-30-1.bmp\",\"pa:pata\",\"Down\",\"40\",\"2\",\"2\",\"2\",\"P\",\"J\",\"26\"
\"\",\"\",\"approach-retreat\",\"175\",\"1459674\",\"0.0-175.0\",\"\",\"\",\"1-2\",\"4087\",\"40\",\"0\",\"Testing\",\"Stims/Figures/19-J-10-4.bmp\",\"nalala\",\"Down\",\"38\",\"2\",\"3\",\"2\",\"S\",\"J\",\"27\"
\"\",\"\",\"approach-retreat\",\"176\",\"1465791\",\"0.0-176.0\",\"\",\"\",\"1-2\",\"4595\",\"40\",\"0\",\"Testing\",\"Stims/Figures/27-C-30-1.bmp\",\"pa:pata\",\"Up\",\"38\",\"2\",\"4\",\"2\",\"P\",\"J\",\"28\"
\"\",\"\",\"approach-retreat\",\"177\",\"1472008\",\"0.0-177.0\",\"\",\"\",\"1-2\",\"4706\",\"38\",\"0\",\"Testing\",\"Stims/Figures/27-J-0-1.bmp\",\"nalala\",\"Up\",\"40\",\"2\",\"5\",\"2\",\"S\",\"J\",\"29\"
\"\",\"\",\"approach-retreat\",\"178\",\"1478048\",\"0.0-178.0\",\"\",\"\",\"1-2\",\"4516\",\"40\",\"1\",\"Testing\",\"Stims/Figures/128-J-10-3.bmp\",\"nalala\",\"Up\",\"40\",\"2\",\"6\",\"2\",\"S\",\"J\",\"30\"
\"\",\"\",\"approach-retreat\",\"179\",\"1483835\",\"0.0-179.0\",\"\",\"\",\"1-2\",\"4262\",\"39\",\"1\",\"Testing\",\"Stims/Figures/85-C-20-2.bmp\",\"pa:pata\",\"Right\",\"39\",\"2\",\"7\",\"2\",\"P\",\"J\",\"31\"
\"\",\"\",\"approach-retreat\",\"180\",\"1490141\",\"0.0-180.0\",\"\",\"\",\"1-2\",\"4776\",\"37\",\"0\",\"Testing\",\"Stims/Figures/74-C-20-4.bmp\",\"pa:pata\",\"Right\",\"39\",\"2\",\"8\",\"2\",\"P\",\"J\",\"32\"
\"\",\"\",\"approach-retreat\",\"181\",\"1496835\",\"0.0-181.0\",\"\",\"\",\"1-2\",\"5171\",\"38\",\"1\",\"Testing\",\"Stims/Figures/44-J-10-3.bmp\",\"nalala\",\"Down\",\"38\",\"2\",\"9\",\"2\",\"S\",\"J\",\"33\"
\"\",\"\",\"approach-retreat\",\"182\",\"1504032\",\"0.0-182.0\",\"\",\"\",\"1-2\",\"5672\",\"37\",\"1\",\"Testing\",\"Stims/Figures/94-C-20-2.bmp\",\"pa:pata\",\"Left\",\"37\",\"2\",\"10\",\"2\",\"P\",\"J\",\"34\"
\"\",\"\",\"approach-retreat\",\"183\",\"1510415\",\"0.0-183.0\",\"\",\"\",\"1-2\",\"4858\",\"39\",\"1\",\"Testing\",\"Stims/Figures/86-J-0-1.bmp\",\"nalala\",\"Left\",\"39\",\"2\",\"11\",\"2\",\"S\",\"J\",\"35\"
\"\",\"\",\"approach-retreat\",\"184\",\"1516829\",\"0.0-184.0\",\"\",\"\",\"1-2\",\"4890\",\"40\",\"0\",\"Testing\",\"Stims/Figures/87-C-20-4.bmp\",\"pa:pata\",\"Up\",\"38\",\"2\",\"12\",\"2\",\"P\",\"J\",\"36\"
\"\",\"\",\"approach-retreat\",\"185\",\"1522977\",\"0.0-185.0\",\"\",\"\",\"1-2\",\"4622\",\"37\",\"0\",\"Testing\",\"Stims/Figures/144-J-10-3.bmp\",\"nalala\",\"Left\",\"39\",\"2\",\"13\",\"2\",\"S\",\"J\",\"37\"
\"\",\"\",\"approach-retreat\",\"186\",\"1529651\",\"0.0-186.0\",\"\",\"\",\"1-2\",\"5151\",\"37\",\"0\",\"Testing\",\"Stims/Figures/93-C-30-1.bmp\",\"pa:pata\",\"Right\",\"39\",\"2\",\"14\",\"2\",\"P\",\"J\",\"38\"
\"\",\"\",\"approach-retreat\",\"187\",\"1535866\",\"0.0-187.0\",\"\",\"\",\"1-2\",\"4689\",\"39\",\"1\",\"Testing\",\"Stims/Figures/118-C-20-2.bmp\",\"pa:pata\",\"Right\",\"39\",\"2\",\"15\",\"2\",\"P\",\"J\",\"39\"
\"\",\"\",\"approach-retreat\",\"188\",\"1541940\",\"0.0-188.0\",\"\",\"\",\"1-2\",\"4549\",\"39\",\"1\",\"Testing\",\"Stims/Figures/93-J-0-1.bmp\",\"nalala\",\"Left\",\"39\",\"2\",\"16\",\"2\",\"S\",\"J\",\"40\"
\"\",\"\",\"approach-retreat\",\"189\",\"1547887\",\"0.0-189.0\",\"\",\"\",\"1-2\",\"4422\",\"40\",\"1\",\"Testing\",\"Stims/Figures/85-J-0-2.bmp\",\"nalala\",\"Up\",\"40\",\"2\",\"17\",\"2\",\"S\",\"J\",\"41\"
\"\",\"\",\"approach-retreat\",\"190\",\"1553860\",\"0.0-190.0\",\"\",\"\",\"1-2\",\"4448\",\"40\",\"1\",\"Testing\",\"Stims/Figures/44-C-30-3.bmp\",\"pa:pata\",\"Down\",\"40\",\"2\",\"18\",\"2\",\"P\",\"J\",\"42\"
\"\",\"\",\"approach-retreat\",\"191\",\"1560186\",\"0.0-191.0\",\"\",\"\",\"1-2\",\"4800\",\"38\",\"1\",\"Testing\",\"Stims/Figures/87-J-10-4.bmp\",\"nalala\",\"Down\",\"38\",\"2\",\"19\",\"2\",\"S\",\"J\",\"43\"
\"\",\"\",\"approach-retreat\",\"192\",\"1566147\",\"0.0-192.0\",\"\",\"\",\"1-2\",\"4435\",\"38\",\"1\",\"Testing\",\"Stims/Figures/144-C-30-3.bmp\",\"pa:pata\",\"Up\",\"38\",\"2\",\"20\",\"2\",\"P\",\"J\",\"44\"
\"\",\"\",\"approach-retreat\",\"193\",\"1572005\",\"0.0-193.0\",\"\",\"\",\"1-2\",\"4333\",\"39\",\"0\",\"Testing\",\"Stims/Figures/19-C-20-4.bmp\",\"pa:pata\",\"Left\",\"37\",\"2\",\"21\",\"2\",\"P\",\"J\",\"45\"
\"\",\"\",\"approach-retreat\",\"194\",\"1578095\",\"0.0-194.0\",\"\",\"\",\"1-2\",\"4565\",\"38\",\"0\",\"Testing\",\"Stims/Figures/128-C-30-3.bmp\",\"pa:pata\",\"Down\",\"40\",\"2\",\"22\",\"2\",\"P\",\"J\",\"46\"
\"\",\"\",\"approach-retreat\",\"195\",\"1584209\",\"0.0-195.0\",\"\",\"\",\"1-2\",\"4591\",\"37\",\"1\",\"Testing\",\"Stims/Figures/118-J-0-2.bmp\",\"nalala\",\"Right\",\"37\",\"2\",\"23\",\"2\",\"S\",\"J\",\"47\"
\"\",\"\",\"approach-retreat\",\"196\",\"1591521\",\"0.0-196.0\",\"\",\"\",\"1-2\",\"5788\",\"39\",\"1\",\"Testing\",\"Stims/Figures/94-J-0-2.bmp\",\"nalala\",\"Left\",\"39\",\"2\",\"24\",\"2\",\"S\",\"J\",\"48\"
\"\",\"\",\"approach-retreat\",\"197\",\"1600792\",\"0.0-197.0\",\"\",\"\",\"1-2\",\"7748\",\"40\",\"1\",\"Testing\",\"Stims/Figures/74-C-20-4.bmp\",\"pa:pata\",\"Down\",\"40\",\"3\",\"1\",\"2\",\"P\",\"J\",\"49\"
\"\",\"\",\"approach-retreat\",\"198\",\"1606784\",\"0.0-198.0\",\"\",\"\",\"1-2\",\"4468\",\"37\",\"1\",\"Testing\",\"Stims/Figures/118-C-20-2.bmp\",\"pa:pata\",\"Left\",\"37\",\"3\",\"2\",\"2\",\"P\",\"J\",\"50\"
\"\",\"\",\"approach-retreat\",\"199\",\"1612653\",\"0.0-199.0\",\"\",\"\",\"1-2\",\"4346\",\"38\",\"0\",\"Testing\",\"Stims/Figures/118-J-0-2.bmp\",\"nalala\",\"Up\",\"40\",\"3\",\"3\",\"2\",\"S\",\"J\",\"51\"
\"\",\"\",\"approach-retreat\",\"200\",\"1618708\",\"0.0-200.0\",\"\",\"\",\"1-2\",\"4531\",\"40\",\"0\",\"Testing\",\"Stims/Figures/144-J-10-3.bmp\",\"nalala\",\"Down\",\"38\",\"3\",\"4\",\"2\",\"S\",\"J\",\"52\"
\"\",\"\",\"approach-retreat\",\"201\",\"1624710\",\"0.0-201.0\",\"\",\"\",\"1-2\",\"4479\",\"38\",\"0\",\"Testing\",\"Stims/Figures/86-C-30-1.bmp\",\"pa:pata\",\"Down\",\"40\",\"3\",\"5\",\"2\",\"P\",\"J\",\"53\"
\"\",\"\",\"approach-retreat\",\"202\",\"1630870\",\"0.0-202.0\",\"\",\"\",\"1-2\",\"4635\",\"40\",\"0\",\"Testing\",\"Stims/Figures/19-C-20-4.bmp\",\"pa:pata\",\"Up\",\"38\",\"3\",\"6\",\"2\",\"P\",\"J\",\"54\"
\"\",\"\",\"approach-retreat\",\"203\",\"1636668\",\"0.0-203.0\",\"\",\"\",\"1-2\",\"4275\",\"40\",\"1\",\"Testing\",\"Stims/Figures/27-C-30-1.bmp\",\"pa:pata\",\"Down\",\"40\",\"3\",\"7\",\"2\",\"P\",\"J\",\"55\"
\"\",\"\",\"approach-retreat\",\"204\",\"1642842\",\"0.0-204.0\",\"\",\"\",\"1-2\",\"4650\",\"40\",\"1\",\"Testing\",\"Stims/Figures/19-J-10-4.bmp\",\"nalala\",\"Up\",\"40\",\"3\",\"8\",\"2\",\"S\",\"J\",\"56\"
\"\",\"\",\"approach-retreat\",\"205\",\"1648731\",\"0.0-205.0\",\"\",\"\",\"1-2\",\"4362\",\"40\",\"0\",\"Testing\",\"Stims/Figures/44-J-10-3.bmp\",\"nalala\",\"Down\",\"38\",\"3\",\"9\",\"2\",\"S\",\"J\",\"57\"
\"\",\"\",\"approach-retreat\",\"206\",\"1654732\",\"0.0-206.0\",\"\",\"\",\"1-2\",\"4477\",\"37\",\"1\",\"Testing\",\"Stims/Figures/128-J-10-3.bmp\",\"nalala\",\"Right\",\"37\",\"3\",\"10\",\"2\",\"S\",\"J\",\"58\"
\"\",\"\",\"approach-retreat\",\"207\",\"1660670\",\"0.0-207.0\",\"\",\"\",\"1-2\",\"4412\",\"39\",\"1\",\"Testing\",\"Stims/Figures/86-J-0-1.bmp\",\"nalala\",\"Left\",\"39\",\"3\",\"11\",\"2\",\"S\",\"J\",\"59\"
\"\",\"\",\"approach-retreat\",\"208\",\"1667092\",\"0.0-208.0\",\"\",\"\",\"1-2\",\"4897\",\"40\",\"0\",\"Testing\",\"Stims/Figures/128-C-30-3.bmp\",\"pa:pata\",\"Up\",\"38\",\"3\",\"12\",\"2\",\"P\",\"J\",\"60\"
\"\",\"\",\"approach-retreat\",\"209\",\"1673183\",\"0.0-209.0\",\"\",\"\",\"1-2\",\"4564\",\"39\",\"1\",\"Testing\",\"Stims/Figures/94-J-0-2.bmp\",\"nalala\",\"Left\",\"39\",\"3\",\"13\",\"2\",\"S\",\"J\",\"61\"
\"\",\"\",\"approach-retreat\",\"210\",\"1679504\",\"0.0-210.0\",\"\",\"\",\"1-2\",\"4797\",\"40\",\"0\",\"Testing\",\"Stims/Figures/93-J-0-1.bmp\",\"nalala\",\"Down\",\"38\",\"3\",\"14\",\"2\",\"S\",\"J\",\"62\"
\"\",\"\",\"approach-retreat\",\"211\",\"1685373\",\"0.0-211.0\",\"\",\"\",\"1-2\",\"4345\",\"40\",\"1\",\"Testing\",\"Stims/Figures/85-J-0-2.bmp\",\"nalala\",\"Up\",\"40\",\"3\",\"15\",\"2\",\"S\",\"J\",\"63\"
\"\",\"\",\"approach-retreat\",\"212\",\"1692223\",\"0.0-212.0\",\"\",\"\",\"1-2\",\"5325\",\"37\",\"1\",\"Testing\",\"Stims/Figures/93-C-30-1.bmp\",\"pa:pata\",\"Left\",\"37\",\"3\",\"16\",\"2\",\"P\",\"J\",\"64\"
\"\",\"\",\"approach-retreat\",\"213\",\"1700265\",\"0.0-213.0\",\"\",\"\",\"1-2\",\"6517\",\"39\",\"0\",\"Testing\",\"Stims/Figures/44-C-30-3.bmp\",\"pa:pata\",\"Left\",\"37\",\"3\",\"17\",\"2\",\"P\",\"J\",\"65\"
\"\",\"\",\"approach-retreat\",\"214\",\"1707763\",\"0.0-214.0\",\"\",\"\",\"1-2\",\"5973\",\"37\",\"1\",\"Testing\",\"Stims/Figures/94-C-20-2.bmp\",\"pa:pata\",\"Left\",\"37\",\"3\",\"18\",\"2\",\"P\",\"J\",\"66\"
\"\",\"\",\"approach-retreat\",\"215\",\"1714639\",\"0.0-215.0\",\"\",\"\",\"1-2\",\"5351\",\"37\",\"1\",\"Testing\",\"Stims/Figures/74-J-10-4.bmp\",\"nalala\",\"Right\",\"37\",\"3\",\"19\",\"2\",\"S\",\"J\",\"67\"
\"\",\"\",\"approach-retreat\",\"216\",\"1721584\",\"0.0-216.0\",\"\",\"\",\"1-2\",\"5420\",\"37\",\"0\",\"Testing\",\"Stims/Figures/144-C-30-3.bmp\",\"pa:pata\",\"Right\",\"39\",\"3\",\"20\",\"2\",\"P\",\"J\",\"68\"
\"\",\"\",\"approach-retreat\",\"217\",\"1729301\",\"0.0-217.0\",\"\",\"\",\"1-2\",\"6192\",\"39\",\"0\",\"Testing\",\"Stims/Figures/87-J-10-4.bmp\",\"nalala\",\"Right\",\"37\",\"3\",\"21\",\"2\",\"S\",\"J\",\"69\"
\"\",\"\",\"approach-retreat\",\"218\",\"1735482\",\"0.0-218.0\",\"\",\"\",\"1-2\",\"4657\",\"37\",\"1\",\"Testing\",\"Stims/Figures/27-J-0-1.bmp\",\"nalala\",\"Right\",\"37\",\"3\",\"22\",\"2\",\"S\",\"J\",\"70\"
\"\",\"\",\"approach-retreat\",\"219\",\"1742360\",\"0.0-219.0\",\"\",\"\",\"1-2\",\"5353\",\"39\",\"1\",\"Testing\",\"Stims/Figures/85-C-20-2.bmp\",\"pa:pata\",\"Right\",\"39\",\"3\",\"23\",\"2\",\"P\",\"J\",\"71\"
\"\",\"\",\"approach-retreat\",\"220\",\"1749041\",\"0.0-220.0\",\"\",\"\",\"1-2\",\"5157\",\"40\",\"0\",\"Testing\",\"Stims/Figures/87-C-20-4.bmp\",\"pa:pata\",\"Up\",\"38\",\"3\",\"24\",\"2\",\"P\",\"J\",\"72\"
\"\",\"\",\"approach-retreat\",\"221\",\"1755557\",\"0.0-221.0\",\"\",\"\",\"1-2\",\"4992\",\"38\",\"1\",\"Testing\",\"Stims/Figures/74-C-20-4.bmp\",\"pa:pata\",\"Up\",\"38\",\"4\",\"1\",\"2\",\"P\",\"J\",\"73\"
\"\",\"\",\"approach-retreat\",\"222\",\"1762194\",\"0.0-222.0\",\"\",\"\",\"1-2\",\"5109\",\"40\",\"1\",\"Testing\",\"Stims/Figures/144-C-30-3.bmp\",\"pa:pata\",\"Down\",\"40\",\"4\",\"2\",\"2\",\"P\",\"J\",\"74\"
\"\",\"\",\"approach-retreat\",\"223\",\"1768915\",\"0.0-223.0\",\"\",\"\",\"1-2\",\"5196\",\"38\",\"0\",\"Testing\",\"Stims/Figures/87-C-20-4.bmp\",\"pa:pata\",\"Down\",\"40\",\"4\",\"3\",\"2\",\"P\",\"J\",\"75\"
\"\",\"\",\"approach-retreat\",\"224\",\"1775946\",\"0.0-224.0\",\"\",\"\",\"1-2\",\"5507\",\"39\",\"1\",\"Testing\",\"Stims/Figures/85-C-20-2.bmp\",\"pa:pata\",\"Right\",\"39\",\"4\",\"4\",\"2\",\"P\",\"J\",\"76\"
\"\",\"\",\"approach-retreat\",\"225\",\"1782438\",\"0.0-225.0\",\"\",\"\",\"1-2\",\"4969\",\"40\",\"1\",\"Testing\",\"Stims/Figures/44-J-10-3.bmp\",\"nalala\",\"Up\",\"40\",\"4\",\"5\",\"2\",\"S\",\"J\",\"77\"
\"\",\"\",\"approach-retreat\",\"226\",\"1788736\",\"0.0-226.0\",\"\",\"\",\"1-2\",\"4773\",\"37\",\"0\",\"Testing\",\"Stims/Figures/19-J-10-4.bmp\",\"nalala\",\"Left\",\"39\",\"4\",\"6\",\"2\",\"S\",\"J\",\"78\"
\"\",\"\",\"approach-retreat\",\"227\",\"1797315\",\"0.0-227.0\",\"\",\"\",\"1-2\",\"7056\",\"37\",\"1\",\"Testing\",\"Stims/Figures/94-J-0-2.bmp\",\"nalala\",\"Right\",\"37\",\"4\",\"7\",\"2\",\"S\",\"J\",\"79\"
\"\",\"\",\"approach-retreat\",\"228\",\"1803738\",\"0.0-228.0\",\"\",\"\",\"1-2\",\"4898\",\"37\",\"0\",\"Testing\",\"Stims/Figures/86-J-0-1.bmp\",\"nalala\",\"Left\",\"39\",\"4\",\"8\",\"2\",\"S\",\"J\",\"80\"
\"\",\"\",\"approach-retreat\",\"229\",\"1811220\",\"0.0-229.0\",\"\",\"\",\"1-2\",\"5958\",\"40\",\"1\",\"Testing\",\"Stims/Figures/27-C-30-1.bmp\",\"pa:pata\",\"Down\",\"40\",\"4\",\"9\",\"2\",\"P\",\"J\",\"81\"
\"\",\"\",\"approach-retreat\",\"230\",\"1818312\",\"0.0-230.0\",\"\",\"\",\"1-2\",\"5570\",\"37\",\"1\",\"Testing\",\"Stims/Figures/85-J-0-2.bmp\",\"nalala\",\"Right\",\"37\",\"4\",\"10\",\"2\",\"S\",\"J\",\"82\"
\"\",\"\",\"approach-retreat\",\"231\",\"1825720\",\"0.0-231.0\",\"\",\"\",\"1-2\",\"5884\",\"40\",\"0\",\"Testing\",\"Stims/Figures/19-C-20-4.bmp\",\"pa:pata\",\"Up\",\"38\",\"4\",\"11\",\"2\",\"P\",\"J\",\"83\"
\"\",\"\",\"approach-retreat\",\"232\",\"1832263\",\"0.0-232.0\",\"\",\"\",\"1-2\",\"5020\",\"37\",\"1\",\"Testing\",\"Stims/Figures/118-J-0-2.bmp\",\"nalala\",\"Right\",\"37\",\"4\",\"12\",\"2\",\"S\",\"J\",\"84\"
\"\",\"\",\"approach-retreat\",\"233\",\"1839348\",\"0.0-233.0\",\"\",\"\",\"1-2\",\"5562\",\"38\",\"1\",\"Testing\",\"Stims/Figures/144-J-10-3.bmp\",\"nalala\",\"Down\",\"38\",\"4\",\"13\",\"2\",\"S\",\"J\",\"85\"
\"\",\"\",\"approach-retreat\",\"234\",\"1845385\",\"0.0-234.0\",\"\",\"\",\"1-2\",\"4512\",\"40\",\"1\",\"Testing\",\"Stims/Figures/86-C-30-1.bmp\",\"pa:pata\",\"Down\",\"40\",\"4\",\"14\",\"2\",\"P\",\"J\",\"86\"
\"\",\"\",\"approach-retreat\",\"235\",\"1853172\",\"0.0-235.0\",\"\",\"\",\"1-2\",\"6264\",\"39\",\"0\",\"Testing\",\"Stims/Figures/128-C-30-3.bmp\",\"pa:pata\",\"Left\",\"37\",\"4\",\"15\",\"2\",\"P\",\"J\",\"87\"
\"\",\"\",\"approach-retreat\",\"236\",\"1859231\",\"0.0-236.0\",\"\",\"\",\"1-2\",\"4534\",\"37\",\"1\",\"Testing\",\"Stims/Figures/118-C-20-2.bmp\",\"pa:pata\",\"Left\",\"37\",\"4\",\"16\",\"2\",\"P\",\"J\",\"88\"
\"\",\"\",\"approach-retreat\",\"237\",\"1865220\",\"0.0-237.0\",\"\",\"\",\"1-2\",\"4464\",\"37\",\"1\",\"Testing\",\"Stims/Figures/94-C-20-2.bmp\",\"pa:pata\",\"Left\",\"37\",\"4\",\"17\",\"2\",\"P\",\"J\",\"89\"
\"\",\"\",\"approach-retreat\",\"238\",\"1872140\",\"0.0-238.0\",\"\",\"\",\"1-2\",\"5397\",\"38\",\"0\",\"Testing\",\"Stims/Figures/27-J-0-1.bmp\",\"nalala\",\"Up\",\"40\",\"4\",\"18\",\"2\",\"S\",\"J\",\"90\"
\"\",\"\",\"approach-retreat\",\"239\",\"1878445\",\"0.0-239.0\",\"\",\"\",\"1-2\",\"4780\",\"39\",\"0\",\"Testing\",\"Stims/Figures/74-J-10-4.bmp\",\"nalala\",\"Right\",\"37\",\"4\",\"19\",\"2\",\"S\",\"J\",\"91\"
\"\",\"\",\"approach-retreat\",\"240\",\"1885222\",\"0.0-240.0\",\"\",\"\",\"1-2\",\"5252\",\"37\",\"1\",\"Testing\",\"Stims/Figures/93-J-0-1.bmp\",\"nalala\",\"Right\",\"37\",\"4\",\"20\",\"2\",\"S\",\"J\",\"92\"
\"\",\"\",\"approach-retreat\",\"241\",\"1891226\",\"0.0-241.0\",\"\",\"\",\"1-2\",\"4482\",\"40\",\"1\",\"Testing\",\"Stims/Figures/87-J-10-4.bmp\",\"nalala\",\"Up\",\"40\",\"4\",\"21\",\"2\",\"S\",\"J\",\"93\"
\"\",\"\",\"approach-retreat\",\"242\",\"1896798\",\"0.0-242.0\",\"\",\"\",\"1-2\",\"4047\",\"38\",\"0\",\"Testing\",\"Stims/Figures/44-C-30-3.bmp\",\"pa:pata\",\"Down\",\"40\",\"4\",\"22\",\"2\",\"P\",\"J\",\"94\"
\"\",\"\",\"approach-retreat\",\"243\",\"1903384\",\"0.0-243.0\",\"\",\"\",\"1-2\",\"5062\",\"40\",\"0\",\"Testing\",\"Stims/Figures/93-C-30-1.bmp\",\"pa:pata\",\"Up\",\"38\",\"4\",\"23\",\"2\",\"P\",\"J\",\"95\"
\"\",\"\",\"approach-retreat\",\"244\",\"1910339\",\"0.0-244.0\",\"\",\"\",\"1-2\",\"5430\",\"39\",\"1\",\"Testing\",\"Stims/Figures/128-J-10-3.bmp\",\"nalala\",\"Left\",\"39\",\"4\",\"24\",\"2\",\"S\",\"J\",\"96\"
\"19536\",\"\",\"survey-text\",\"245\",\"1929899\",\"0.0-245.0\",\"\",\"{\"\"Q0\"\":\"\"PS170071\"\"}\",\"\",\"\",\"\",\"\",\"\",\"\",\"\",\"\",\"\",\"\",\"\",\"\",\"\",\"\",\"\"
