\"rt\",\"key_press\",\"trial_type\",\"trial_index\",\"time_elapsed\",\"internal_node_id\",\"view_history\",\"responses\",\"Id\",\"Rt\",\"ResKeyCode\",\"ResCorr\",\"TrialType2\",\"Image\",\"Label\",\"Location\",\"CorrectResponse\",\"Block\",\"BlockTrial\",\"Condition\",\"LabelType\",\"Subcondition\",\"trialNum\"
\"3906\",\"32\",\"text\",\"0\",\"3920\",\"0.0-0.0-0.0\",\"\",\"\",\"\",\"\",\"\",\"\",\"\",\"\",\"\",\"\",\"\",\"\",\"\",\"\",\"\",\"\",\"\"
\"98751\",\"\",\"instructions\",\"1\",\"102680\",\"0.0-1.0\",\"[{\"\"page_index\"\":0,\"\"viewing_time\"\":98746}]\",\"\",\"\",\"\",\"\",\"\",\"\",\"\",\"\",\"\",\"\",\"\",\"\",\"\",\"\",\"\",\"\"
\"15461\",\"\",\"survey-multi-choice\",\"2\",\"118245\",\"0.0-2.0\",\"\",\"{\"\"Q0\"\":\"\"Da\"\",\"\"Q1\"\":\"\"Da\"\",\"\"Q2\"\":\"\"Da\"\",\"\"Q3\"\":\"\"Da\"\",\"\"Q4\"\":\"\"Da\"\",\"\"Q5\"\":\"\"Da\"\"}\",\"\",\"\",\"\",\"\",\"\",\"\",\"\",\"\",\"\",\"\",\"\",\"\",\"\",\"\",\"\"
\"\",\"\",\"bio\",\"3\",\"125908\",\"0.0-3.0\",\"\",\"{\"\"age\"\":\"\"19\"\",\"\"gender\"\":\"\"f\"\",\"\"specify\"\":\"\"\"\"}\",\"\",\"\",\"\",\"\",\"\",\"\",\"\",\"\",\"\",\"\",\"\",\"\",\"\",\"\",\"\"
\"\",\"\",\"approach-retreat\",\"4\",\"132261\",\"0.0-4.0\",\"\",\"\",\"2-5\",\"4828\",\"40\",\"1\",\"Training\",\"Stims/Figures/100-C-30-3.bmp\",\"zaha:ha\",\"Up\",\"40\",\"1\",\"1\",\"6A\",\"C2\",\"C\",\"1\"
\"\",\"\",\"approach-retreat\",\"5\",\"138621\",\"0.0-5.0\",\"\",\"\",\"2-5\",\"4809\",\"37\",\"0\",\"Training\",\"Stims/Figures/84-C-20-2.bmp\",\"sa:sa:za\",\"Left\",\"39\",\"1\",\"2\",\"6A\",\"C2\",\"C\",\"2\"
\"\",\"\",\"approach-retreat\",\"6\",\"144825\",\"0.0-6.0\",\"\",\"\",\"2-5\",\"4693\",\"39\",\"1\",\"Training\",\"Stims/Figures/85-C-20-2.bmp\",\"za:sa:za\",\"Left\",\"39\",\"1\",\"3\",\"6A\",\"C2\",\"C\",\"3\"
\"\",\"\",\"approach-retreat\",\"7\",\"151920\",\"0.0-7.0\",\"\",\"\",\"2-5\",\"5560\",\"38\",\"0\",\"Training\",\"Stims/Figures/93-C-30-1.bmp\",\"sa:saza\",\"Up\",\"40\",\"1\",\"4\",\"6A\",\"C2\",\"C\",\"4\"
\"\",\"\",\"approach-retreat\",\"8\",\"157975\",\"0.0-8.0\",\"\",\"\",\"2-5\",\"4506\",\"40\",\"1\",\"Training\",\"Stims/Figures/84-J-0-2.bmp\",\"va:sha:sha\",\"Down\",\"40\",\"1\",\"5\",\"6A\",\"C1\",\"C\",\"5\"
\"\",\"\",\"approach-retreat\",\"9\",\"163616\",\"0.0-9.0\",\"\",\"\",\"2-5\",\"4103\",\"40\",\"1\",\"Training\",\"Stims/Figures/27-J-0-1.bmp\",\"vafasha\",\"Down\",\"40\",\"1\",\"6\",\"6A\",\"C1\",\"C\",\"6\"
\"\",\"\",\"approach-retreat\",\"10\",\"170162\",\"0.0-10.0\",\"\",\"\",\"2-5\",\"5009\",\"39\",\"1\",\"Training\",\"Stims/Figures/44-J-10-3.bmp\",\"fa:fava\",\"Right\",\"39\",\"1\",\"7\",\"6A\",\"C1\",\"C\",\"7\"
\"\",\"\",\"approach-retreat\",\"11\",\"177032\",\"0.0-11.0\",\"\",\"\",\"2-5\",\"5346\",\"38\",\"1\",\"Training\",\"Stims/Figures/93-J-0-1.bmp\",\"va:fa:va\",\"Up\",\"38\",\"1\",\"8\",\"6A\",\"C1\",\"C\",\"8\"
\"\",\"\",\"approach-retreat\",\"12\",\"183202\",\"0.0-12.0\",\"\",\"\",\"2-5\",\"4655\",\"38\",\"1\",\"Training\",\"Stims/Figures/44-C-30-3.bmp\",\"sa:haha\",\"Down\",\"38\",\"1\",\"9\",\"6A\",\"C2\",\"C\",\"9\"
\"\",\"\",\"approach-retreat\",\"13\",\"189326\",\"0.0-13.0\",\"\",\"\",\"2-5\",\"4588\",\"38\",\"0\",\"Training\",\"Stims/Figures/74-C-20-4.bmp\",\"sa:ha:ha\",\"Up\",\"40\",\"1\",\"10\",\"6A\",\"C2\",\"C\",\"10\"
\"\",\"\",\"approach-retreat\",\"14\",\"195762\",\"0.0-14.0\",\"\",\"\",\"2-5\",\"4917\",\"37\",\"1\",\"Training\",\"Stims/Figures/27-C-30-1.bmp\",\"za:sa:ha\",\"Right\",\"37\",\"1\",\"11\",\"6A\",\"C2\",\"C\",\"11\"
\"\",\"\",\"approach-retreat\",\"15\",\"202052\",\"0.0-15.0\",\"\",\"\",\"2-5\",\"4738\",\"39\",\"1\",\"Training\",\"Stims/Figures/74-J-10-4.bmp\",\"vafa:sha\",\"Right\",\"39\",\"1\",\"12\",\"6A\",\"C1\",\"C\",\"12\"
\"\",\"\",\"approach-retreat\",\"16\",\"209461\",\"0.0-16.0\",\"\",\"\",\"2-5\",\"5875\",\"39\",\"0\",\"Training\",\"Stims/Figures/102-J-10-4.bmp\",\"fafa:va\",\"Left\",\"37\",\"1\",\"13\",\"6A\",\"C1\",\"C\",\"13\"
\"\",\"\",\"approach-retreat\",\"17\",\"216853\",\"0.0-17.0\",\"\",\"\",\"2-5\",\"5845\",\"37\",\"0\",\"Training\",\"Stims/Figures/102-C-20-4.bmp\",\"za:saza\",\"Left\",\"39\",\"1\",\"14\",\"6A\",\"C2\",\"C\",\"14\"
\"\",\"\",\"approach-retreat\",\"18\",\"223417\",\"0.0-18.0\",\"\",\"\",\"2-5\",\"5019\",\"39\",\"1\",\"Training\",\"Stims/Figures/85-J-0-2.bmp\",\"fa:fa:sha\",\"Right\",\"39\",\"1\",\"15\",\"6A\",\"C1\",\"C\",\"15\"
\"\",\"\",\"approach-retreat\",\"19\",\"229811\",\"0.0-19.0\",\"\",\"\",\"2-5\",\"4852\",\"40\",\"1\",\"Training\",\"Stims/Figures/100-J-10-3.bmp\",\"fa:shasha\",\"Down\",\"40\",\"1\",\"16\",\"6A\",\"C1\",\"C\",\"16\"
\"\",\"\",\"approach-retreat\",\"20\",\"235838\",\"0.0-20.0\",\"\",\"\",\"2-5\",\"4512\",\"38\",\"1\",\"Training\",\"Stims/Figures/44-J-10-3.bmp\",\"fa:fava\",\"Up\",\"38\",\"2\",\"1\",\"6A\",\"C1\",\"C\",\"17\"
\"\",\"\",\"approach-retreat\",\"21\",\"242088\",\"0.0-21.0\",\"\",\"\",\"2-5\",\"4705\",\"40\",\"1\",\"Training\",\"Stims/Figures/84-J-0-2.bmp\",\"va:sha:sha\",\"Down\",\"40\",\"2\",\"2\",\"6A\",\"C1\",\"C\",\"18\"
\"\",\"\",\"approach-retreat\",\"22\",\"248801\",\"0.0-22.0\",\"\",\"\",\"2-5\",\"5174\",\"38\",\"1\",\"Training\",\"Stims/Figures/93-J-0-1.bmp\",\"va:fa:va\",\"Up\",\"38\",\"2\",\"3\",\"6A\",\"C1\",\"C\",\"19\"
\"\",\"\",\"approach-retreat\",\"23\",\"254827\",\"0.0-23.0\",\"\",\"\",\"2-5\",\"4481\",\"39\",\"1\",\"Training\",\"Stims/Figures/44-C-30-3.bmp\",\"sa:haha\",\"Left\",\"39\",\"2\",\"4\",\"6A\",\"C2\",\"C\",\"20\"
\"\",\"\",\"approach-retreat\",\"24\",\"261260\",\"0.0-24.0\",\"\",\"\",\"2-5\",\"4887\",\"37\",\"1\",\"Training\",\"Stims/Figures/84-C-20-2.bmp\",\"sa:sa:za\",\"Right\",\"37\",\"2\",\"5\",\"6A\",\"C2\",\"C\",\"21\"
\"\",\"\",\"approach-retreat\",\"25\",\"268950\",\"0.0-25.0\",\"\",\"\",\"2-5\",\"6157\",\"39\",\"1\",\"Training\",\"Stims/Figures/85-C-20-2.bmp\",\"za:sa:za\",\"Left\",\"39\",\"2\",\"6\",\"6A\",\"C2\",\"C\",\"22\"
\"\",\"\",\"approach-retreat\",\"26\",\"275615\",\"0.0-26.0\",\"\",\"\",\"2-5\",\"5140\",\"40\",\"1\",\"Training\",\"Stims/Figures/27-C-30-1.bmp\",\"za:sa:ha\",\"Up\",\"40\",\"2\",\"7\",\"6A\",\"C2\",\"C\",\"23\"
\"\",\"\",\"approach-retreat\",\"27\",\"281903\",\"0.0-27.0\",\"\",\"\",\"2-5\",\"4739\",\"40\",\"1\",\"Training\",\"Stims/Figures/102-J-10-4.bmp\",\"fafa:va\",\"Down\",\"40\",\"2\",\"8\",\"6A\",\"C1\",\"C\",\"24\"
\"\",\"\",\"approach-retreat\",\"28\",\"287811\",\"0.0-28.0\",\"\",\"\",\"2-5\",\"4376\",\"37\",\"1\",\"Training\",\"Stims/Figures/74-J-10-4.bmp\",\"vafa:sha\",\"Left\",\"37\",\"2\",\"9\",\"6A\",\"C1\",\"C\",\"25\"
\"\",\"\",\"approach-retreat\",\"29\",\"295545\",\"0.0-29.0\",\"\",\"\",\"2-5\",\"6195\",\"39\",\"1\",\"Training\",\"Stims/Figures/100-J-10-3.bmp\",\"fa:shasha\",\"Right\",\"39\",\"2\",\"10\",\"6A\",\"C1\",\"C\",\"26\"
\"\",\"\",\"approach-retreat\",\"30\",\"302166\",\"0.0-30.0\",\"\",\"\",\"2-5\",\"5082\",\"40\",\"1\",\"Training\",\"Stims/Figures/93-C-30-1.bmp\",\"sa:saza\",\"Up\",\"40\",\"2\",\"11\",\"6A\",\"C2\",\"C\",\"27\"
\"\",\"\",\"approach-retreat\",\"31\",\"308406\",\"0.0-31.0\",\"\",\"\",\"2-5\",\"4718\",\"37\",\"1\",\"Training\",\"Stims/Figures/74-C-20-4.bmp\",\"sa:ha:ha\",\"Right\",\"37\",\"2\",\"12\",\"6A\",\"C2\",\"C\",\"28\"
\"\",\"\",\"approach-retreat\",\"32\",\"315380\",\"0.0-32.0\",\"\",\"\",\"2-5\",\"5431\",\"39\",\"1\",\"Training\",\"Stims/Figures/100-C-30-3.bmp\",\"zaha:ha\",\"Left\",\"39\",\"2\",\"13\",\"6A\",\"C2\",\"C\",\"29\"
\"\",\"\",\"approach-retreat\",\"33\",\"321601\",\"0.0-33.0\",\"\",\"\",\"2-5\",\"4684\",\"39\",\"1\",\"Training\",\"Stims/Figures/85-J-0-2.bmp\",\"fa:fa:sha\",\"Right\",\"39\",\"2\",\"14\",\"6A\",\"C1\",\"C\",\"30\"
\"\",\"\",\"approach-retreat\",\"34\",\"328115\",\"0.0-34.0\",\"\",\"\",\"2-5\",\"4967\",\"38\",\"1\",\"Training\",\"Stims/Figures/102-C-20-4.bmp\",\"za:saza\",\"Down\",\"38\",\"2\",\"15\",\"6A\",\"C2\",\"C\",\"31\"
\"\",\"\",\"approach-retreat\",\"35\",\"334394\",\"0.0-35.0\",\"\",\"\",\"2-5\",\"4734\",\"40\",\"1\",\"Training\",\"Stims/Figures/27-J-0-1.bmp\",\"vafasha\",\"Down\",\"40\",\"2\",\"16\",\"6A\",\"C1\",\"C\",\"32\"
\"\",\"\",\"approach-retreat\",\"36\",\"339918\",\"0.0-36.0\",\"\",\"\",\"2-5\",\"3985\",\"38\",\"1\",\"Training\",\"Stims/Figures/44-C-30-3.bmp\",\"sa:haha\",\"Down\",\"38\",\"3\",\"1\",\"6A\",\"C2\",\"C\",\"33\"
\"\",\"\",\"approach-retreat\",\"37\",\"348961\",\"0.0-37.0\",\"\",\"\",\"2-5\",\"7516\",\"40\",\"1\",\"Training\",\"Stims/Figures/100-C-30-3.bmp\",\"zaha:ha\",\"Up\",\"40\",\"3\",\"2\",\"6A\",\"C2\",\"C\",\"34\"
\"\",\"\",\"approach-retreat\",\"38\",\"355366\",\"0.0-38.0\",\"\",\"\",\"2-5\",\"4886\",\"37\",\"0\",\"Training\",\"Stims/Figures/102-C-20-4.bmp\",\"za:saza\",\"Left\",\"39\",\"3\",\"3\",\"6A\",\"C2\",\"C\",\"35\"
\"\",\"\",\"approach-retreat\",\"39\",\"361580\",\"0.0-39.0\",\"\",\"\",\"2-5\",\"4679\",\"40\",\"1\",\"Training\",\"Stims/Figures/93-J-0-1.bmp\",\"va:fa:va\",\"Down\",\"40\",\"3\",\"4\",\"6A\",\"C1\",\"C\",\"36\"
\"\",\"\",\"approach-retreat\",\"40\",\"368490\",\"0.0-40.0\",\"\",\"\",\"2-5\",\"5378\",\"37\",\"1\",\"Training\",\"Stims/Figures/85-C-20-2.bmp\",\"za:sa:za\",\"Right\",\"37\",\"3\",\"5\",\"6A\",\"C2\",\"C\",\"37\"
\"\",\"\",\"approach-retreat\",\"41\",\"375752\",\"0.0-41.0\",\"\",\"\",\"2-5\",\"5716\",\"39\",\"1\",\"Training\",\"Stims/Figures/84-C-20-2.bmp\",\"sa:sa:za\",\"Left\",\"39\",\"3\",\"6\",\"6A\",\"C2\",\"C\",\"38\"
\"\",\"\",\"approach-retreat\",\"42\",\"382353\",\"0.0-42.0\",\"\",\"\",\"2-5\",\"5059\",\"37\",\"1\",\"Training\",\"Stims/Figures/44-J-10-3.bmp\",\"fa:fava\",\"Left\",\"37\",\"3\",\"7\",\"6A\",\"C1\",\"C\",\"39\"
\"\",\"\",\"approach-retreat\",\"43\",\"388428\",\"0.0-43.0\",\"\",\"\",\"2-5\",\"4531\",\"38\",\"1\",\"Training\",\"Stims/Figures/27-C-30-1.bmp\",\"za:sa:ha\",\"Down\",\"38\",\"3\",\"8\",\"6A\",\"C2\",\"C\",\"40\"
\"\",\"\",\"approach-retreat\",\"44\",\"394211\",\"0.0-44.0\",\"\",\"\",\"2-5\",\"4246\",\"37\",\"1\",\"Training\",\"Stims/Figures/74-C-20-4.bmp\",\"sa:ha:ha\",\"Right\",\"37\",\"3\",\"9\",\"6A\",\"C2\",\"C\",\"41\"
\"\",\"\",\"approach-retreat\",\"45\",\"400109\",\"0.0-45.0\",\"\",\"\",\"2-5\",\"4354\",\"39\",\"1\",\"Training\",\"Stims/Figures/102-J-10-4.bmp\",\"fafa:va\",\"Right\",\"39\",\"3\",\"10\",\"6A\",\"C1\",\"C\",\"42\"
\"\",\"\",\"approach-retreat\",\"46\",\"406156\",\"0.0-46.0\",\"\",\"\",\"2-5\",\"4509\",\"38\",\"1\",\"Training\",\"Stims/Figures/74-J-10-4.bmp\",\"vafa:sha\",\"Up\",\"38\",\"3\",\"11\",\"6A\",\"C1\",\"C\",\"43\"
\"\",\"\",\"approach-retreat\",\"47\",\"411974\",\"0.0-47.0\",\"\",\"\",\"2-5\",\"4279\",\"37\",\"1\",\"Training\",\"Stims/Figures/27-J-0-1.bmp\",\"vafasha\",\"Left\",\"37\",\"3\",\"12\",\"6A\",\"C1\",\"C\",\"44\"
\"\",\"\",\"approach-retreat\",\"48\",\"418251\",\"0.0-48.0\",\"\",\"\",\"2-5\",\"4765\",\"37\",\"1\",\"Training\",\"Stims/Figures/93-C-30-1.bmp\",\"sa:saza\",\"Right\",\"37\",\"3\",\"13\",\"6A\",\"C2\",\"C\",\"45\"
\"\",\"\",\"approach-retreat\",\"49\",\"424512\",\"0.0-49.0\",\"\",\"\",\"2-5\",\"4717\",\"40\",\"1\",\"Training\",\"Stims/Figures/85-J-0-2.bmp\",\"fa:fa:sha\",\"Down\",\"40\",\"3\",\"14\",\"6A\",\"C1\",\"C\",\"46\"
\"\",\"\",\"approach-retreat\",\"50\",\"430503\",\"0.0-50.0\",\"\",\"\",\"2-5\",\"4454\",\"38\",\"1\",\"Training\",\"Stims/Figures/84-J-0-2.bmp\",\"va:sha:sha\",\"Up\",\"38\",\"3\",\"15\",\"6A\",\"C1\",\"C\",\"47\"
\"\",\"\",\"approach-retreat\",\"51\",\"436394\",\"0.0-51.0\",\"\",\"\",\"2-5\",\"4355\",\"38\",\"1\",\"Training\",\"Stims/Figures/100-J-10-3.bmp\",\"fa:shasha\",\"Up\",\"38\",\"3\",\"16\",\"6A\",\"C1\",\"C\",\"48\"
\"\",\"\",\"approach-retreat\",\"52\",\"443120\",\"0.0-52.0\",\"\",\"\",\"2-5\",\"5203\",\"38\",\"1\",\"Training\",\"Stims/Figures/102-C-20-4.bmp\",\"za:saza\",\"Down\",\"38\",\"4\",\"1\",\"6A\",\"C2\",\"C\",\"49\"
\"\",\"\",\"approach-retreat\",\"53\",\"449233\",\"0.0-53.0\",\"\",\"\",\"2-5\",\"4568\",\"39\",\"1\",\"Training\",\"Stims/Figures/100-J-10-3.bmp\",\"fa:shasha\",\"Right\",\"39\",\"4\",\"2\",\"6A\",\"C1\",\"C\",\"50\"
\"\",\"\",\"approach-retreat\",\"54\",\"455052\",\"0.0-54.0\",\"\",\"\",\"2-5\",\"4283\",\"38\",\"1\",\"Training\",\"Stims/Figures/84-J-0-2.bmp\",\"va:sha:sha\",\"Up\",\"38\",\"4\",\"3\",\"6A\",\"C1\",\"C\",\"51\"
\"\",\"\",\"approach-retreat\",\"55\",\"461723\",\"0.0-55.0\",\"\",\"\",\"2-5\",\"5142\",\"39\",\"1\",\"Training\",\"Stims/Figures/44-J-10-3.bmp\",\"fa:fava\",\"Right\",\"39\",\"4\",\"4\",\"6A\",\"C1\",\"C\",\"52\"
\"\",\"\",\"approach-retreat\",\"56\",\"468013\",\"0.0-56.0\",\"\",\"\",\"2-5\",\"4742\",\"39\",\"1\",\"Training\",\"Stims/Figures/74-J-10-4.bmp\",\"vafa:sha\",\"Right\",\"39\",\"4\",\"5\",\"6A\",\"C1\",\"C\",\"53\"
\"\",\"\",\"approach-retreat\",\"57\",\"473882\",\"0.0-57.0\",\"\",\"\",\"2-5\",\"4325\",\"40\",\"1\",\"Training\",\"Stims/Figures/44-C-30-3.bmp\",\"sa:haha\",\"Up\",\"40\",\"4\",\"6\",\"6A\",\"C2\",\"C\",\"54\"
\"\",\"\",\"approach-retreat\",\"58\",\"482273\",\"0.0-58.0\",\"\",\"\",\"2-5\",\"6849\",\"40\",\"1\",\"Training\",\"Stims/Figures/93-J-0-1.bmp\",\"va:fa:va\",\"Down\",\"40\",\"4\",\"7\",\"6A\",\"C1\",\"C\",\"55\"
\"\",\"\",\"approach-retreat\",\"59\",\"488875\",\"0.0-59.0\",\"\",\"\",\"2-5\",\"5069\",\"39\",\"1\",\"Training\",\"Stims/Figures/85-C-20-2.bmp\",\"za:sa:za\",\"Left\",\"39\",\"4\",\"8\",\"6A\",\"C2\",\"C\",\"56\"
\"\",\"\",\"approach-retreat\",\"60\",\"494542\",\"0.0-60.0\",\"\",\"\",\"2-5\",\"4129\",\"40\",\"1\",\"Training\",\"Stims/Figures/27-J-0-1.bmp\",\"vafasha\",\"Down\",\"40\",\"4\",\"9\",\"6A\",\"C1\",\"C\",\"57\"
\"\",\"\",\"approach-retreat\",\"61\",\"500783\",\"0.0-61.0\",\"\",\"\",\"2-5\",\"4701\",\"38\",\"1\",\"Training\",\"Stims/Figures/102-J-10-4.bmp\",\"fafa:va\",\"Up\",\"38\",\"4\",\"10\",\"6A\",\"C1\",\"C\",\"58\"
\"\",\"\",\"approach-retreat\",\"62\",\"506535\",\"0.0-62.0\",\"\",\"\",\"2-5\",\"4231\",\"38\",\"1\",\"Training\",\"Stims/Figures/84-C-20-2.bmp\",\"sa:sa:za\",\"Down\",\"38\",\"4\",\"11\",\"6A\",\"C2\",\"C\",\"59\"
\"\",\"\",\"approach-retreat\",\"63\",\"512444\",\"0.0-63.0\",\"\",\"\",\"2-5\",\"4368\",\"37\",\"1\",\"Training\",\"Stims/Figures/85-J-0-2.bmp\",\"fa:fa:sha\",\"Left\",\"37\",\"4\",\"12\",\"6A\",\"C1\",\"C\",\"60\"
\"\",\"\",\"approach-retreat\",\"64\",\"518697\",\"0.0-64.0\",\"\",\"\",\"2-5\",\"4710\",\"40\",\"1\",\"Training\",\"Stims/Figures/100-C-30-3.bmp\",\"zaha:ha\",\"Up\",\"40\",\"4\",\"13\",\"6A\",\"C2\",\"C\",\"61\"
\"\",\"\",\"approach-retreat\",\"65\",\"524353\",\"0.0-65.0\",\"\",\"\",\"2-5\",\"4116\",\"39\",\"1\",\"Training\",\"Stims/Figures/27-C-30-1.bmp\",\"za:sa:ha\",\"Left\",\"39\",\"4\",\"14\",\"6A\",\"C2\",\"C\",\"62\"
\"\",\"\",\"approach-retreat\",\"66\",\"530112\",\"0.0-66.0\",\"\",\"\",\"2-5\",\"4230\",\"37\",\"1\",\"Training\",\"Stims/Figures/74-C-20-4.bmp\",\"sa:ha:ha\",\"Right\",\"37\",\"4\",\"15\",\"6A\",\"C2\",\"C\",\"63\"
\"\",\"\",\"approach-retreat\",\"67\",\"536001\",\"0.0-67.0\",\"\",\"\",\"2-5\",\"4342\",\"39\",\"1\",\"Training\",\"Stims/Figures/93-C-30-1.bmp\",\"sa:saza\",\"Left\",\"39\",\"4\",\"16\",\"6A\",\"C2\",\"C\",\"64\"
\"\",\"\",\"approach-retreat\",\"68\",\"541795\",\"0.0-68.0\",\"\",\"\",\"2-5\",\"4253\",\"37\",\"1\",\"Training\",\"Stims/Figures/100-C-30-3.bmp\",\"zaha:ha\",\"Right\",\"37\",\"5\",\"1\",\"6A\",\"C2\",\"C\",\"65\"
\"\",\"\",\"approach-retreat\",\"69\",\"547577\",\"0.0-69.0\",\"\",\"\",\"2-5\",\"4261\",\"39\",\"1\",\"Training\",\"Stims/Figures/74-C-20-4.bmp\",\"sa:ha:ha\",\"Left\",\"39\",\"5\",\"2\",\"6A\",\"C2\",\"C\",\"66\"
\"\",\"\",\"approach-retreat\",\"70\",\"553593\",\"0.0-70.0\",\"\",\"\",\"2-5\",\"4505\",\"38\",\"1\",\"Training\",\"Stims/Figures/84-J-0-2.bmp\",\"va:sha:sha\",\"Up\",\"38\",\"5\",\"3\",\"6A\",\"C1\",\"C\",\"67\"
\"\",\"\",\"approach-retreat\",\"71\",\"559403\",\"0.0-71.0\",\"\",\"\",\"2-5\",\"4273\",\"39\",\"1\",\"Training\",\"Stims/Figures/84-C-20-2.bmp\",\"sa:sa:za\",\"Left\",\"39\",\"5\",\"4\",\"6A\",\"C2\",\"C\",\"68\"
\"\",\"\",\"approach-retreat\",\"72\",\"565330\",\"0.0-72.0\",\"\",\"\",\"2-5\",\"4388\",\"38\",\"1\",\"Training\",\"Stims/Figures/102-C-20-4.bmp\",\"za:saza\",\"Down\",\"38\",\"5\",\"5\",\"6A\",\"C2\",\"C\",\"69\"
\"\",\"\",\"approach-retreat\",\"73\",\"572166\",\"0.0-73.0\",\"\",\"\",\"2-5\",\"5293\",\"37\",\"1\",\"Training\",\"Stims/Figures/102-J-10-4.bmp\",\"fafa:va\",\"Left\",\"37\",\"5\",\"6\",\"6A\",\"C1\",\"C\",\"70\"
\"\",\"\",\"approach-retreat\",\"74\",\"578064\",\"0.0-74.0\",\"\",\"\",\"2-5\",\"4360\",\"40\",\"1\",\"Training\",\"Stims/Figures/27-J-0-1.bmp\",\"vafasha\",\"Down\",\"40\",\"5\",\"7\",\"6A\",\"C1\",\"C\",\"71\"
\"\",\"\",\"approach-retreat\",\"75\",\"583725\",\"0.0-75.0\",\"\",\"\",\"2-5\",\"4120\",\"40\",\"1\",\"Training\",\"Stims/Figures/74-J-10-4.bmp\",\"vafa:sha\",\"Down\",\"40\",\"5\",\"8\",\"6A\",\"C1\",\"C\",\"72\"
\"\",\"\",\"approach-retreat\",\"76\",\"590213\",\"0.0-76.0\",\"\",\"\",\"2-5\",\"4949\",\"38\",\"1\",\"Training\",\"Stims/Figures/100-J-10-3.bmp\",\"fa:shasha\",\"Up\",\"38\",\"5\",\"9\",\"6A\",\"C1\",\"C\",\"73\"
\"\",\"\",\"approach-retreat\",\"77\",\"597174\",\"0.0-77.0\",\"\",\"\",\"2-5\",\"5424\",\"37\",\"1\",\"Training\",\"Stims/Figures/93-J-0-1.bmp\",\"va:fa:va\",\"Left\",\"37\",\"5\",\"10\",\"6A\",\"C1\",\"C\",\"74\"
\"\",\"\",\"approach-retreat\",\"78\",\"603341\",\"0.0-78.0\",\"\",\"\",\"2-5\",\"4613\",\"37\",\"1\",\"Training\",\"Stims/Figures/93-C-30-1.bmp\",\"sa:saza\",\"Right\",\"37\",\"5\",\"11\",\"6A\",\"C2\",\"C\",\"75\"
\"\",\"\",\"approach-retreat\",\"79\",\"609245\",\"0.0-79.0\",\"\",\"\",\"2-5\",\"4360\",\"38\",\"1\",\"Training\",\"Stims/Figures/85-J-0-2.bmp\",\"fa:fa:sha\",\"Up\",\"38\",\"5\",\"12\",\"6A\",\"C1\",\"C\",\"76\"
\"\",\"\",\"approach-retreat\",\"80\",\"616669\",\"0.0-80.0\",\"\",\"\",\"2-5\",\"5876\",\"37\",\"1\",\"Training\",\"Stims/Figures/27-C-30-1.bmp\",\"za:sa:ha\",\"Right\",\"37\",\"5\",\"13\",\"6A\",\"C2\",\"C\",\"77\"
\"\",\"\",\"approach-retreat\",\"81\",\"622828\",\"0.0-81.0\",\"\",\"\",\"2-5\",\"4621\",\"38\",\"1\",\"Training\",\"Stims/Figures/44-J-10-3.bmp\",\"fa:fava\",\"Up\",\"38\",\"5\",\"14\",\"6A\",\"C1\",\"C\",\"78\"
\"\",\"\",\"approach-retreat\",\"82\",\"632007\",\"0.0-82.0\",\"\",\"\",\"2-5\",\"7639\",\"37\",\"1\",\"Training\",\"Stims/Figures/44-C-30-3.bmp\",\"sa:haha\",\"Right\",\"37\",\"5\",\"15\",\"6A\",\"C2\",\"C\",\"79\"
\"\",\"\",\"approach-retreat\",\"83\",\"638329\",\"0.0-83.0\",\"\",\"\",\"2-5\",\"4783\",\"38\",\"1\",\"Training\",\"Stims/Figures/85-C-20-2.bmp\",\"za:sa:za\",\"Down\",\"38\",\"5\",\"16\",\"6A\",\"C2\",\"C\",\"80\"
\"\",\"\",\"approach-retreat\",\"84\",\"645221\",\"0.0-84.0\",\"\",\"\",\"2-5\",\"5353\",\"37\",\"1\",\"Training\",\"Stims/Figures/102-J-10-4.bmp\",\"fafa:va\",\"Left\",\"37\",\"6\",\"1\",\"6A\",\"C1\",\"C\",\"81\"
\"\",\"\",\"approach-retreat\",\"85\",\"651831\",\"0.0-85.0\",\"\",\"\",\"2-5\",\"5065\",\"37\",\"1\",\"Training\",\"Stims/Figures/74-J-10-4.bmp\",\"vafa:sha\",\"Left\",\"37\",\"6\",\"2\",\"6A\",\"C1\",\"C\",\"82\"
\"\",\"\",\"approach-retreat\",\"86\",\"657838\",\"0.0-86.0\",\"\",\"\",\"2-5\",\"4469\",\"39\",\"1\",\"Training\",\"Stims/Figures/27-J-0-1.bmp\",\"vafasha\",\"Right\",\"39\",\"6\",\"3\",\"6A\",\"C1\",\"C\",\"83\"
\"\",\"\",\"approach-retreat\",\"87\",\"663648\",\"0.0-87.0\",\"\",\"\",\"2-5\",\"4268\",\"40\",\"1\",\"Training\",\"Stims/Figures/85-J-0-2.bmp\",\"fa:fa:sha\",\"Down\",\"40\",\"6\",\"4\",\"6A\",\"C1\",\"C\",\"84\"
\"\",\"\",\"approach-retreat\",\"88\",\"669384\",\"0.0-88.0\",\"\",\"\",\"2-5\",\"4198\",\"40\",\"1\",\"Training\",\"Stims/Figures/44-J-10-3.bmp\",\"fa:fava\",\"Down\",\"40\",\"6\",\"5\",\"6A\",\"C1\",\"C\",\"85\"
\"\",\"\",\"approach-retreat\",\"89\",\"677540\",\"0.0-89.0\",\"\",\"\",\"2-5\",\"6613\",\"37\",\"1\",\"Training\",\"Stims/Figures/74-C-20-4.bmp\",\"sa:ha:ha\",\"Right\",\"37\",\"6\",\"6\",\"6A\",\"C2\",\"C\",\"86\"
\"\",\"\",\"approach-retreat\",\"90\",\"683570\",\"0.0-90.0\",\"\",\"\",\"2-5\",\"4485\",\"38\",\"1\",\"Training\",\"Stims/Figures/84-C-20-2.bmp\",\"sa:sa:za\",\"Down\",\"38\",\"6\",\"7\",\"6A\",\"C2\",\"C\",\"87\"
\"\",\"\",\"approach-retreat\",\"91\",\"689583\",\"0.0-91.0\",\"\",\"\",\"2-5\",\"4477\",\"39\",\"1\",\"Training\",\"Stims/Figures/44-C-30-3.bmp\",\"sa:haha\",\"Left\",\"39\",\"6\",\"8\",\"6A\",\"C2\",\"C\",\"88\"
\"\",\"\",\"approach-retreat\",\"92\",\"695263\",\"0.0-92.0\",\"\",\"\",\"2-5\",\"4136\",\"39\",\"1\",\"Training\",\"Stims/Figures/100-C-30-3.bmp\",\"zaha:ha\",\"Left\",\"39\",\"6\",\"9\",\"6A\",\"C2\",\"C\",\"89\"
\"\",\"\",\"approach-retreat\",\"93\",\"701408\",\"0.0-93.0\",\"\",\"\",\"2-5\",\"4608\",\"39\",\"1\",\"Training\",\"Stims/Figures/100-J-10-3.bmp\",\"fa:shasha\",\"Right\",\"39\",\"6\",\"10\",\"6A\",\"C1\",\"C\",\"90\"
\"\",\"\",\"approach-retreat\",\"94\",\"707164\",\"0.0-94.0\",\"\",\"\",\"2-5\",\"4212\",\"40\",\"1\",\"Training\",\"Stims/Figures/93-J-0-1.bmp\",\"va:fa:va\",\"Down\",\"40\",\"6\",\"11\",\"6A\",\"C1\",\"C\",\"91\"
\"\",\"\",\"approach-retreat\",\"95\",\"712875\",\"0.0-95.0\",\"\",\"\",\"2-5\",\"4166\",\"37\",\"1\",\"Training\",\"Stims/Figures/85-C-20-2.bmp\",\"za:sa:za\",\"Right\",\"37\",\"6\",\"12\",\"6A\",\"C2\",\"C\",\"92\"
\"\",\"\",\"approach-retreat\",\"96\",\"720068\",\"0.0-96.0\",\"\",\"\",\"2-5\",\"5680\",\"40\",\"1\",\"Training\",\"Stims/Figures/102-C-20-4.bmp\",\"za:saza\",\"Up\",\"40\",\"6\",\"13\",\"6A\",\"C2\",\"C\",\"93\"
\"\",\"\",\"approach-retreat\",\"97\",\"728175\",\"0.0-97.0\",\"\",\"\",\"2-5\",\"6585\",\"38\",\"1\",\"Training\",\"Stims/Figures/84-J-0-2.bmp\",\"va:sha:sha\",\"Up\",\"38\",\"6\",\"14\",\"6A\",\"C1\",\"C\",\"94\"
\"\",\"\",\"approach-retreat\",\"98\",\"734327\",\"0.0-98.0\",\"\",\"\",\"2-5\",\"4615\",\"40\",\"1\",\"Training\",\"Stims/Figures/27-C-30-1.bmp\",\"za:sa:ha\",\"Up\",\"40\",\"6\",\"15\",\"6A\",\"C2\",\"C\",\"95\"
\"\",\"\",\"approach-retreat\",\"99\",\"741332\",\"0.0-99.0\",\"\",\"\",\"2-5\",\"5466\",\"40\",\"1\",\"Training\",\"Stims/Figures/93-C-30-1.bmp\",\"sa:saza\",\"Up\",\"40\",\"6\",\"16\",\"6A\",\"C2\",\"C\",\"96\"
\"\",\"\",\"approach-retreat\",\"100\",\"747331\",\"0.0-100.0\",\"\",\"\",\"2-5\",\"4455\",\"37\",\"1\",\"Training\",\"Stims/Figures/100-J-10-3.bmp\",\"fa:shasha\",\"Left\",\"37\",\"7\",\"1\",\"6A\",\"C1\",\"C\",\"97\"
\"\",\"\",\"approach-retreat\",\"101\",\"753106\",\"0.0-101.0\",\"\",\"\",\"2-5\",\"4232\",\"40\",\"1\",\"Training\",\"Stims/Figures/85-C-20-2.bmp\",\"za:sa:za\",\"Up\",\"40\",\"7\",\"2\",\"6A\",\"C2\",\"C\",\"98\"
\"\",\"\",\"approach-retreat\",\"102\",\"759457\",\"0.0-102.0\",\"\",\"\",\"2-5\",\"4811\",\"39\",\"1\",\"Training\",\"Stims/Figures/44-C-30-3.bmp\",\"sa:haha\",\"Left\",\"39\",\"7\",\"3\",\"6A\",\"C2\",\"C\",\"99\"
\"\",\"\",\"approach-retreat\",\"103\",\"766106\",\"0.0-103.0\",\"\",\"\",\"2-5\",\"5106\",\"40\",\"1\",\"Training\",\"Stims/Figures/27-C-30-1.bmp\",\"za:sa:ha\",\"Up\",\"40\",\"7\",\"4\",\"6A\",\"C2\",\"C\",\"100\"
\"\",\"\",\"approach-retreat\",\"104\",\"772385\",\"0.0-104.0\",\"\",\"\",\"2-5\",\"4737\",\"39\",\"1\",\"Training\",\"Stims/Figures/102-C-20-4.bmp\",\"za:saza\",\"Left\",\"39\",\"7\",\"5\",\"6A\",\"C2\",\"C\",\"101\"
\"\",\"\",\"approach-retreat\",\"105\",\"779230\",\"0.0-105.0\",\"\",\"\",\"2-5\",\"5315\",\"38\",\"1\",\"Training\",\"Stims/Figures/74-J-10-4.bmp\",\"vafa:sha\",\"Up\",\"38\",\"7\",\"6\",\"6A\",\"C1\",\"C\",\"102\"
\"\",\"\",\"approach-retreat\",\"106\",\"785208\",\"0.0-106.0\",\"\",\"\",\"2-5\",\"4457\",\"40\",\"1\",\"Training\",\"Stims/Figures/85-J-0-2.bmp\",\"fa:fa:sha\",\"Down\",\"40\",\"7\",\"7\",\"6A\",\"C1\",\"C\",\"103\"
\"\",\"\",\"approach-retreat\",\"107\",\"791597\",\"0.0-107.0\",\"\",\"\",\"2-5\",\"4852\",\"37\",\"1\",\"Training\",\"Stims/Figures/74-C-20-4.bmp\",\"sa:ha:ha\",\"Right\",\"37\",\"7\",\"8\",\"6A\",\"C2\",\"C\",\"104\"
\"\",\"\",\"approach-retreat\",\"108\",\"797903\",\"0.0-108.0\",\"\",\"\",\"2-5\",\"4773\",\"39\",\"1\",\"Training\",\"Stims/Figures/84-J-0-2.bmp\",\"va:sha:sha\",\"Right\",\"39\",\"7\",\"9\",\"6A\",\"C1\",\"C\",\"105\"
\"\",\"\",\"approach-retreat\",\"109\",\"804581\",\"0.0-109.0\",\"\",\"\",\"2-5\",\"5140\",\"40\",\"1\",\"Training\",\"Stims/Figures/102-J-10-4.bmp\",\"fafa:va\",\"Down\",\"40\",\"7\",\"10\",\"6A\",\"C1\",\"C\",\"106\"
\"\",\"\",\"approach-retreat\",\"110\",\"810609\",\"0.0-110.0\",\"\",\"\",\"2-5\",\"4484\",\"38\",\"1\",\"Training\",\"Stims/Figures/100-C-30-3.bmp\",\"zaha:ha\",\"Down\",\"38\",\"7\",\"11\",\"6A\",\"C2\",\"C\",\"107\"
\"\",\"\",\"approach-retreat\",\"111\",\"816626\",\"0.0-111.0\",\"\",\"\",\"2-5\",\"4474\",\"39\",\"1\",\"Training\",\"Stims/Figures/44-J-10-3.bmp\",\"fa:fava\",\"Right\",\"39\",\"7\",\"12\",\"6A\",\"C1\",\"C\",\"108\"
\"\",\"\",\"approach-retreat\",\"112\",\"822664\",\"0.0-112.0\",\"\",\"\",\"2-5\",\"4491\",\"40\",\"1\",\"Training\",\"Stims/Figures/84-C-20-2.bmp\",\"sa:sa:za\",\"Up\",\"40\",\"7\",\"13\",\"6A\",\"C2\",\"C\",\"109\"
\"\",\"\",\"approach-retreat\",\"113\",\"828381\",\"0.0-113.0\",\"\",\"\",\"2-5\",\"4175\",\"37\",\"1\",\"Training\",\"Stims/Figures/93-C-30-1.bmp\",\"sa:saza\",\"Right\",\"37\",\"7\",\"14\",\"6A\",\"C2\",\"C\",\"110\"
\"\",\"\",\"approach-retreat\",\"114\",\"834261\",\"0.0-114.0\",\"\",\"\",\"2-5\",\"4334\",\"37\",\"1\",\"Training\",\"Stims/Figures/93-J-0-1.bmp\",\"va:fa:va\",\"Left\",\"37\",\"7\",\"15\",\"6A\",\"C1\",\"C\",\"111\"
\"\",\"\",\"approach-retreat\",\"115\",\"840039\",\"0.0-115.0\",\"\",\"\",\"2-5\",\"4230\",\"40\",\"1\",\"Training\",\"Stims/Figures/27-J-0-1.bmp\",\"vafasha\",\"Down\",\"40\",\"7\",\"16\",\"6A\",\"C1\",\"C\",\"112\"
\"\",\"\",\"approach-retreat\",\"116\",\"845649\",\"0.0-116.0\",\"\",\"\",\"2-5\",\"4076\",\"40\",\"1\",\"Training\",\"Stims/Figures/74-C-20-4.bmp\",\"sa:ha:ha\",\"Up\",\"40\",\"8\",\"1\",\"6A\",\"C2\",\"C\",\"113\"
\"\",\"\",\"approach-retreat\",\"117\",\"851738\",\"0.0-117.0\",\"\",\"\",\"2-5\",\"4551\",\"40\",\"1\",\"Training\",\"Stims/Figures/74-J-10-4.bmp\",\"vafa:sha\",\"Down\",\"40\",\"8\",\"2\",\"6A\",\"C1\",\"C\",\"114\"
\"\",\"\",\"approach-retreat\",\"118\",\"857614\",\"0.0-118.0\",\"\",\"\",\"2-5\",\"4338\",\"38\",\"1\",\"Training\",\"Stims/Figures/93-C-30-1.bmp\",\"sa:saza\",\"Down\",\"38\",\"8\",\"3\",\"6A\",\"C2\",\"C\",\"115\"
\"\",\"\",\"approach-retreat\",\"119\",\"863384\",\"0.0-119.0\",\"\",\"\",\"2-5\",\"4257\",\"39\",\"1\",\"Training\",\"Stims/Figures/85-C-20-2.bmp\",\"za:sa:za\",\"Left\",\"39\",\"8\",\"4\",\"6A\",\"C2\",\"C\",\"116\"
\"\",\"\",\"approach-retreat\",\"120\",\"869370\",\"0.0-120.0\",\"\",\"\",\"2-5\",\"4447\",\"38\",\"1\",\"Training\",\"Stims/Figures/102-C-20-4.bmp\",\"za:saza\",\"Down\",\"38\",\"8\",\"5\",\"6A\",\"C2\",\"C\",\"117\"
\"\",\"\",\"approach-retreat\",\"121\",\"875298\",\"0.0-121.0\",\"\",\"\",\"2-5\",\"4385\",\"39\",\"1\",\"Training\",\"Stims/Figures/84-J-0-2.bmp\",\"va:sha:sha\",\"Right\",\"39\",\"8\",\"6\",\"6A\",\"C1\",\"C\",\"118\"
\"\",\"\",\"approach-retreat\",\"122\",\"881248\",\"0.0-122.0\",\"\",\"\",\"2-5\",\"4406\",\"38\",\"1\",\"Training\",\"Stims/Figures/93-J-0-1.bmp\",\"va:fa:va\",\"Up\",\"38\",\"8\",\"7\",\"6A\",\"C1\",\"C\",\"119\"
\"\",\"\",\"approach-retreat\",\"123\",\"887128\",\"0.0-123.0\",\"\",\"\",\"2-5\",\"4369\",\"39\",\"1\",\"Training\",\"Stims/Figures/85-J-0-2.bmp\",\"fa:fa:sha\",\"Right\",\"39\",\"8\",\"8\",\"6A\",\"C1\",\"C\",\"120\"
\"\",\"\",\"approach-retreat\",\"124\",\"892870\",\"0.0-124.0\",\"\",\"\",\"2-5\",\"4204\",\"39\",\"1\",\"Training\",\"Stims/Figures/100-J-10-3.bmp\",\"fa:shasha\",\"Right\",\"39\",\"8\",\"9\",\"6A\",\"C1\",\"C\",\"121\"
\"\",\"\",\"approach-retreat\",\"125\",\"898621\",\"0.0-125.0\",\"\",\"\",\"2-5\",\"4215\",\"39\",\"1\",\"Training\",\"Stims/Figures/84-C-20-2.bmp\",\"sa:sa:za\",\"Left\",\"39\",\"8\",\"10\",\"6A\",\"C2\",\"C\",\"122\"
\"\",\"\",\"approach-retreat\",\"126\",\"904695\",\"0.0-126.0\",\"\",\"\",\"2-5\",\"4532\",\"37\",\"1\",\"Training\",\"Stims/Figures/102-J-10-4.bmp\",\"fafa:va\",\"Left\",\"37\",\"8\",\"11\",\"6A\",\"C1\",\"C\",\"123\"
\"\",\"\",\"approach-retreat\",\"127\",\"910380\",\"0.0-127.0\",\"\",\"\",\"2-5\",\"4149\",\"40\",\"1\",\"Training\",\"Stims/Figures/27-C-30-1.bmp\",\"za:sa:ha\",\"Up\",\"40\",\"8\",\"12\",\"6A\",\"C2\",\"C\",\"124\"
\"\",\"\",\"approach-retreat\",\"128\",\"916162\",\"0.0-128.0\",\"\",\"\",\"2-5\",\"4240\",\"38\",\"1\",\"Training\",\"Stims/Figures/44-J-10-3.bmp\",\"fa:fava\",\"Up\",\"38\",\"8\",\"13\",\"6A\",\"C1\",\"C\",\"125\"
\"\",\"\",\"approach-retreat\",\"129\",\"922111\",\"0.0-129.0\",\"\",\"\",\"2-5\",\"4409\",\"37\",\"1\",\"Training\",\"Stims/Figures/44-C-30-3.bmp\",\"sa:haha\",\"Right\",\"37\",\"8\",\"14\",\"6A\",\"C2\",\"C\",\"126\"
\"\",\"\",\"approach-retreat\",\"130\",\"927963\",\"0.0-130.0\",\"\",\"\",\"2-5\",\"4312\",\"38\",\"1\",\"Training\",\"Stims/Figures/100-C-30-3.bmp\",\"zaha:ha\",\"Down\",\"38\",\"8\",\"15\",\"6A\",\"C2\",\"C\",\"127\"
\"\",\"\",\"approach-retreat\",\"131\",\"933707\",\"0.0-131.0\",\"\",\"\",\"2-5\",\"4203\",\"37\",\"1\",\"Training\",\"Stims/Figures/27-J-0-1.bmp\",\"vafasha\",\"Left\",\"37\",\"8\",\"16\",\"6A\",\"C1\",\"C\",\"128\"
\"\",\"\",\"approach-retreat\",\"132\",\"940417\",\"0.0-132.0\",\"\",\"\",\"2-5\",\"5169\",\"39\",\"1\",\"Training\",\"Stims/Figures/27-J-0-1.bmp\",\"vafasha\",\"Right\",\"39\",\"9\",\"1\",\"6A\",\"C1\",\"C\",\"129\"
\"\",\"\",\"approach-retreat\",\"133\",\"946218\",\"0.0-133.0\",\"\",\"\",\"2-5\",\"4261\",\"39\",\"1\",\"Training\",\"Stims/Figures/85-C-20-2.bmp\",\"za:sa:za\",\"Left\",\"39\",\"9\",\"2\",\"6A\",\"C2\",\"C\",\"130\"
\"\",\"\",\"approach-retreat\",\"134\",\"951910\",\"0.0-134.0\",\"\",\"\",\"2-5\",\"4138\",\"40\",\"1\",\"Training\",\"Stims/Figures/84-C-20-2.bmp\",\"sa:sa:za\",\"Up\",\"40\",\"9\",\"3\",\"6A\",\"C2\",\"C\",\"131\"
\"\",\"\",\"approach-retreat\",\"135\",\"958157\",\"0.0-135.0\",\"\",\"\",\"2-5\",\"4736\",\"39\",\"1\",\"Training\",\"Stims/Figures/44-J-10-3.bmp\",\"fa:fava\",\"Right\",\"39\",\"9\",\"4\",\"6A\",\"C1\",\"C\",\"132\"
\"\",\"\",\"approach-retreat\",\"136\",\"964060\",\"0.0-136.0\",\"\",\"\",\"2-5\",\"4359\",\"37\",\"1\",\"Training\",\"Stims/Figures/44-C-30-3.bmp\",\"sa:haha\",\"Right\",\"37\",\"9\",\"5\",\"6A\",\"C2\",\"C\",\"133\"
\"\",\"\",\"approach-retreat\",\"137\",\"970109\",\"0.0-137.0\",\"\",\"\",\"2-5\",\"4505\",\"39\",\"1\",\"Training\",\"Stims/Figures/74-J-10-4.bmp\",\"vafa:sha\",\"Right\",\"39\",\"9\",\"6\",\"6A\",\"C1\",\"C\",\"134\"
\"\",\"\",\"approach-retreat\",\"138\",\"975680\",\"0.0-138.0\",\"\",\"\",\"2-5\",\"4032\",\"39\",\"1\",\"Training\",\"Stims/Figures/102-C-20-4.bmp\",\"za:saza\",\"Left\",\"39\",\"9\",\"7\",\"6A\",\"C2\",\"C\",\"135\"
\"\",\"\",\"approach-retreat\",\"139\",\"981463\",\"0.0-139.0\",\"\",\"\",\"2-5\",\"4239\",\"40\",\"1\",\"Training\",\"Stims/Figures/100-C-30-3.bmp\",\"zaha:ha\",\"Up\",\"40\",\"9\",\"8\",\"6A\",\"C2\",\"C\",\"136\"
\"\",\"\",\"approach-retreat\",\"140\",\"988133\",\"0.0-140.0\",\"\",\"\",\"2-5\",\"5128\",\"40\",\"1\",\"Training\",\"Stims/Figures/100-J-10-3.bmp\",\"fa:shasha\",\"Down\",\"40\",\"9\",\"9\",\"6A\",\"C1\",\"C\",\"137\"
\"\",\"\",\"approach-retreat\",\"141\",\"994056\",\"0.0-141.0\",\"\",\"\",\"2-5\",\"4372\",\"38\",\"1\",\"Training\",\"Stims/Figures/27-C-30-1.bmp\",\"za:sa:ha\",\"Down\",\"38\",\"9\",\"10\",\"6A\",\"C2\",\"C\",\"138\"
\"\",\"\",\"approach-retreat\",\"142\",\"999827\",\"0.0-142.0\",\"\",\"\",\"2-5\",\"4233\",\"38\",\"1\",\"Training\",\"Stims/Figures/93-J-0-1.bmp\",\"va:fa:va\",\"Up\",\"38\",\"9\",\"11\",\"6A\",\"C1\",\"C\",\"139\"
\"\",\"\",\"approach-retreat\",\"143\",\"1005390\",\"0.0-143.0\",\"\",\"\",\"2-5\",\"4016\",\"40\",\"1\",\"Training\",\"Stims/Figures/102-J-10-4.bmp\",\"fafa:va\",\"Down\",\"40\",\"9\",\"12\",\"6A\",\"C1\",\"C\",\"140\"
\"\",\"\",\"approach-retreat\",\"144\",\"1011210\",\"0.0-144.0\",\"\",\"\",\"2-5\",\"4283\",\"40\",\"1\",\"Training\",\"Stims/Figures/93-C-30-1.bmp\",\"sa:saza\",\"Up\",\"40\",\"9\",\"13\",\"6A\",\"C2\",\"C\",\"141\"
\"\",\"\",\"approach-retreat\",\"145\",\"1016840\",\"0.0-145.0\",\"\",\"\",\"2-5\",\"4092\",\"37\",\"0\",\"Training\",\"Stims/Figures/74-C-20-4.bmp\",\"sa:ha:ha\",\"Left\",\"39\",\"9\",\"14\",\"6A\",\"C2\",\"C\",\"142\"
\"\",\"\",\"approach-retreat\",\"146\",\"1022671\",\"0.0-146.0\",\"\",\"\",\"2-5\",\"4291\",\"40\",\"1\",\"Training\",\"Stims/Figures/85-J-0-2.bmp\",\"fa:fa:sha\",\"Down\",\"40\",\"9\",\"15\",\"6A\",\"C1\",\"C\",\"143\"
\"\",\"\",\"approach-retreat\",\"147\",\"1028548\",\"0.0-147.0\",\"\",\"\",\"2-5\",\"4340\",\"37\",\"1\",\"Training\",\"Stims/Figures/84-J-0-2.bmp\",\"va:sha:sha\",\"Left\",\"37\",\"9\",\"16\",\"6A\",\"C1\",\"C\",\"144\"
\"70696\",\"\",\"instructions\",\"148\",\"1099246\",\"0.0-148.0\",\"[{\"\"page_index\"\":0,\"\"viewing_time\"\":70693}]\",\"\",\"\",\"\",\"\",\"\",\"\",\"\",\"\",\"\",\"\",\"\",\"\",\"\",\"\",\"\",\"\"
\"\",\"\",\"approach-retreat\",\"149\",\"1105594\",\"0.0-149.0\",\"\",\"\",\"2-5\",\"4836\",\"37\",\"1\",\"Testing\",\"Stims/Figures/102-C-20-4.bmp\",\"za:saza\",\"Right\",\"37\",\"1\",\"1\",\"6A\",\"C2\",\"C\",\"1\"
\"\",\"\",\"approach-retreat\",\"150\",\"1111857\",\"0.0-150.0\",\"\",\"\",\"2-5\",\"4726\",\"37\",\"1\",\"Testing\",\"Stims/Figures/85-J-0-2.bmp\",\"fa:fa:sha\",\"Left\",\"37\",\"1\",\"2\",\"6A\",\"C1\",\"C\",\"2\"
\"\",\"\",\"approach-retreat\",\"151\",\"1117684\",\"0.0-151.0\",\"\",\"\",\"2-5\",\"4293\",\"38\",\"1\",\"Testing\",\"Stims/Figures/87-C-20-4.bmp\",\"za:haha\",\"Down\",\"38\",\"1\",\"3\",\"6A\",\"C2\",\"C\",\"3\"
\"\",\"\",\"approach-retreat\",\"152\",\"1123550\",\"0.0-152.0\",\"\",\"\",\"2-5\",\"4343\",\"37\",\"1\",\"Testing\",\"Stims/Figures/118-C-20-2.bmp\",\"sasa:ha\",\"Right\",\"37\",\"1\",\"4\",\"6A\",\"C2\",\"C\",\"4\"
\"\",\"\",\"approach-retreat\",\"153\",\"1129431\",\"0.0-153.0\",\"\",\"\",\"2-5\",\"4352\",\"39\",\"1\",\"Testing\",\"Stims/Figures/71-C-30-1.bmp\",\"zasa:ha\",\"Left\",\"39\",\"1\",\"5\",\"6A\",\"C2\",\"C\",\"5\"
\"\",\"\",\"approach-retreat\",\"154\",\"1135683\",\"0.0-154.0\",\"\",\"\",\"2-5\",\"4721\",\"40\",\"1\",\"Testing\",\"Stims/Figures/74-J-10-4.bmp\",\"vafa:sha\",\"Down\",\"40\",\"1\",\"6\",\"6A\",\"C1\",\"C\",\"6\"
\"\",\"\",\"approach-retreat\",\"155\",\"1141623\",\"0.0-155.0\",\"\",\"\",\"2-5\",\"4407\",\"39\",\"1\",\"Testing\",\"Stims/Figures/128-C-30-3.bmp\",\"za:haza\",\"Left\",\"39\",\"1\",\"7\",\"6A\",\"C2\",\"C\",\"7\"
\"\",\"\",\"approach-retreat\",\"156\",\"1147275\",\"0.0-156.0\",\"\",\"\",\"2-5\",\"4132\",\"38\",\"1\",\"Testing\",\"Stims/Figures/84-C-20-2.bmp\",\"sa:sa:za\",\"Down\",\"38\",\"1\",\"8\",\"6A\",\"C2\",\"C\",\"8\"
\"\",\"\",\"approach-retreat\",\"157\",\"1153167\",\"0.0-157.0\",\"\",\"\",\"2-5\",\"4360\",\"40\",\"1\",\"Testing\",\"Stims/Figures/85-C-20-2.bmp\",\"za:sa:za\",\"Up\",\"40\",\"1\",\"9\",\"6A\",\"C2\",\"C\",\"9\"
\"\",\"\",\"approach-retreat\",\"158\",\"1158992\",\"0.0-158.0\",\"\",\"\",\"2-5\",\"4306\",\"38\",\"1\",\"Testing\",\"Stims/Figures/100-C-30-3.bmp\",\"zaha:ha\",\"Down\",\"38\",\"1\",\"10\",\"6A\",\"C2\",\"C\",\"10\"
\"\",\"\",\"approach-retreat\",\"159\",\"1165049\",\"0.0-159.0\",\"\",\"\",\"2-5\",\"4524\",\"38\",\"1\",\"Testing\",\"Stims/Figures/102-J-10-4.bmp\",\"fafa:va\",\"Up\",\"38\",\"1\",\"11\",\"6A\",\"C1\",\"C\",\"11\"
\"\",\"\",\"approach-retreat\",\"160\",\"1170754\",\"0.0-160.0\",\"\",\"\",\"2-5\",\"4172\",\"37\",\"1\",\"Testing\",\"Stims/Figures/44-J-10-3.bmp\",\"fa:fava\",\"Left\",\"37\",\"1\",\"12\",\"6A\",\"C1\",\"C\",\"12\"
\"\",\"\",\"approach-retreat\",\"161\",\"1176981\",\"0.0-161.0\",\"\",\"\",\"2-5\",\"4695\",\"40\",\"1\",\"Testing\",\"Stims/Figures/93-C-30-1.bmp\",\"sa:saza\",\"Up\",\"40\",\"1\",\"13\",\"6A\",\"C2\",\"C\",\"13\"
\"\",\"\",\"approach-retreat\",\"162\",\"1183446\",\"0.0-162.0\",\"\",\"\",\"2-5\",\"4936\",\"39\",\"1\",\"Testing\",\"Stims/Figures/100-J-10-3.bmp\",\"fa:shasha\",\"Right\",\"39\",\"1\",\"14\",\"6A\",\"C1\",\"C\",\"14\"
\"\",\"\",\"approach-retreat\",\"163\",\"1189197\",\"0.0-163.0\",\"\",\"\",\"2-5\",\"4221\",\"37\",\"1\",\"Testing\",\"Stims/Figures/27-C-30-1.bmp\",\"za:sa:ha\",\"Right\",\"37\",\"1\",\"15\",\"6A\",\"C2\",\"C\",\"15\"
\"\",\"\",\"approach-retreat\",\"164\",\"1195343\",\"0.0-164.0\",\"\",\"\",\"2-5\",\"4613\",\"37\",\"1\",\"Testing\",\"Stims/Figures/87-J-10-4.bmp\",\"va:sha:va\",\"Left\",\"37\",\"1\",\"16\",\"6A\",\"C1\",\"C\",\"16\"
\"\",\"\",\"approach-retreat\",\"165\",\"1201112\",\"0.0-165.0\",\"\",\"\",\"2-5\",\"4231\",\"38\",\"1\",\"Testing\",\"Stims/Figures/27-J-0-1.bmp\",\"vafasha\",\"Up\",\"38\",\"1\",\"17\",\"6A\",\"C1\",\"C\",\"17\"
\"\",\"\",\"approach-retreat\",\"166\",\"1207544\",\"0.0-166.0\",\"\",\"\",\"2-5\",\"4913\",\"39\",\"1\",\"Testing\",\"Stims/Figures/93-J-0-1.bmp\",\"va:fa:va\",\"Right\",\"39\",\"1\",\"18\",\"6A\",\"C1\",\"C\",\"18\"
\"\",\"\",\"approach-retreat\",\"167\",\"1213487\",\"0.0-167.0\",\"\",\"\",\"2-5\",\"4411\",\"37\",\"1\",\"Testing\",\"Stims/Figures/118-J-0-2.bmp\",\"va:shava\",\"Left\",\"37\",\"1\",\"19\",\"6A\",\"C1\",\"C\",\"19\"
\"\",\"\",\"approach-retreat\",\"168\",\"1219283\",\"0.0-168.0\",\"\",\"\",\"2-5\",\"4264\",\"38\",\"1\",\"Testing\",\"Stims/Figures/84-J-0-2.bmp\",\"va:sha:sha\",\"Up\",\"38\",\"1\",\"20\",\"6A\",\"C1\",\"C\",\"20\"
\"\",\"\",\"approach-retreat\",\"169\",\"1225138\",\"0.0-169.0\",\"\",\"\",\"2-5\",\"4325\",\"37\",\"1\",\"Testing\",\"Stims/Figures/74-C-20-4.bmp\",\"sa:ha:ha\",\"Right\",\"37\",\"1\",\"21\",\"6A\",\"C2\",\"C\",\"21\"
\"\",\"\",\"approach-retreat\",\"170\",\"1234549\",\"0.0-170.0\",\"\",\"\",\"2-5\",\"7883\",\"40\",\"1\",\"Testing\",\"Stims/Figures/128-J-10-3.bmp\",\"fa:sha:va\",\"Down\",\"40\",\"1\",\"22\",\"6A\",\"C1\",\"C\",\"22\"
\"\",\"\",\"approach-retreat\",\"171\",\"1240526\",\"0.0-171.0\",\"\",\"\",\"2-5\",\"4449\",\"40\",\"1\",\"Testing\",\"Stims/Figures/71-J-0-1.bmp\",\"va:fasha\",\"Down\",\"40\",\"1\",\"23\",\"6A\",\"C1\",\"C\",\"23\"
\"\",\"\",\"approach-retreat\",\"172\",\"1246323\",\"0.0-172.0\",\"\",\"\",\"2-5\",\"4263\",\"40\",\"1\",\"Testing\",\"Stims/Figures/44-C-30-3.bmp\",\"sa:haha\",\"Up\",\"40\",\"1\",\"24\",\"6A\",\"C2\",\"C\",\"24\"
\"\",\"\",\"approach-retreat\",\"173\",\"1252022\",\"0.0-173.0\",\"\",\"\",\"2-5\",\"4190\",\"37\",\"1\",\"Testing\",\"Stims/Figures/74-J-10-4.bmp\",\"vafa:sha\",\"Left\",\"37\",\"2\",\"1\",\"6A\",\"C1\",\"C\",\"25\"
\"\",\"\",\"approach-retreat\",\"174\",\"1258237\",\"0.0-174.0\",\"\",\"\",\"2-5\",\"4682\",\"37\",\"1\",\"Testing\",\"Stims/Figures/102-J-10-4.bmp\",\"fafa:va\",\"Left\",\"37\",\"2\",\"2\",\"6A\",\"C1\",\"C\",\"26\"
\"\",\"\",\"approach-retreat\",\"175\",\"1265681\",\"0.0-175.0\",\"\",\"\",\"2-5\",\"5912\",\"38\",\"1\",\"Testing\",\"Stims/Figures/74-C-20-4.bmp\",\"sa:ha:ha\",\"Down\",\"38\",\"2\",\"3\",\"6A\",\"C2\",\"C\",\"27\"
\"\",\"\",\"approach-retreat\",\"176\",\"1271803\",\"0.0-176.0\",\"\",\"\",\"2-5\",\"4613\",\"38\",\"1\",\"Testing\",\"Stims/Figures/71-J-0-1.bmp\",\"va:fasha\",\"Up\",\"38\",\"2\",\"4\",\"6A\",\"C1\",\"C\",\"28\"
\"\",\"\",\"approach-retreat\",\"177\",\"1277710\",\"0.0-177.0\",\"\",\"\",\"2-5\",\"4375\",\"38\",\"1\",\"Testing\",\"Stims/Figures/128-C-30-3.bmp\",\"za:haza\",\"Down\",\"38\",\"2\",\"5\",\"6A\",\"C2\",\"C\",\"29\"
\"\",\"\",\"approach-retreat\",\"178\",\"1284015\",\"0.0-178.0\",\"\",\"\",\"2-5\",\"4772\",\"38\",\"1\",\"Testing\",\"Stims/Figures/84-J-0-2.bmp\",\"va:sha:sha\",\"Up\",\"38\",\"2\",\"6\",\"6A\",\"C1\",\"C\",\"30\"
\"\",\"\",\"approach-retreat\",\"179\",\"1290031\",\"0.0-179.0\",\"\",\"\",\"2-5\",\"4485\",\"39\",\"1\",\"Testing\",\"Stims/Figures/118-C-20-2.bmp\",\"sasa:ha\",\"Left\",\"39\",\"2\",\"7\",\"6A\",\"C2\",\"C\",\"31\"
\"\",\"\",\"approach-retreat\",\"180\",\"1296285\",\"0.0-180.0\",\"\",\"\",\"2-5\",\"4722\",\"40\",\"1\",\"Testing\",\"Stims/Figures/93-J-0-1.bmp\",\"va:fa:va\",\"Down\",\"40\",\"2\",\"8\",\"6A\",\"C1\",\"C\",\"32\"
\"\",\"\",\"approach-retreat\",\"181\",\"1302059\",\"0.0-181.0\",\"\",\"\",\"2-5\",\"4246\",\"37\",\"1\",\"Testing\",\"Stims/Figures/44-C-30-3.bmp\",\"sa:haha\",\"Right\",\"37\",\"2\",\"9\",\"6A\",\"C2\",\"C\",\"33\"
\"\",\"\",\"approach-retreat\",\"182\",\"1307798\",\"0.0-182.0\",\"\",\"\",\"2-5\",\"4212\",\"37\",\"1\",\"Testing\",\"Stims/Figures/102-C-20-4.bmp\",\"za:saza\",\"Right\",\"37\",\"2\",\"10\",\"6A\",\"C2\",\"C\",\"34\"
\"\",\"\",\"approach-retreat\",\"183\",\"1314000\",\"0.0-183.0\",\"\",\"\",\"2-5\",\"4673\",\"39\",\"1\",\"Testing\",\"Stims/Figures/27-J-0-1.bmp\",\"vafasha\",\"Right\",\"39\",\"2\",\"11\",\"6A\",\"C1\",\"C\",\"35\"
\"\",\"\",\"approach-retreat\",\"184\",\"1319750\",\"0.0-184.0\",\"\",\"\",\"2-5\",\"4221\",\"38\",\"1\",\"Testing\",\"Stims/Figures/71-C-30-1.bmp\",\"zasa:ha\",\"Down\",\"38\",\"2\",\"12\",\"6A\",\"C2\",\"C\",\"36\"
\"\",\"\",\"approach-retreat\",\"185\",\"1325590\",\"0.0-185.0\",\"\",\"\",\"2-5\",\"4310\",\"39\",\"1\",\"Testing\",\"Stims/Figures/84-C-20-2.bmp\",\"sa:sa:za\",\"Left\",\"39\",\"2\",\"13\",\"6A\",\"C2\",\"C\",\"37\"
\"\",\"\",\"approach-retreat\",\"186\",\"1332309\",\"0.0-186.0\",\"\",\"\",\"2-5\",\"5190\",\"39\",\"1\",\"Testing\",\"Stims/Figures/100-J-10-3.bmp\",\"fa:shasha\",\"Right\",\"39\",\"2\",\"14\",\"6A\",\"C1\",\"C\",\"38\"
\"\",\"\",\"approach-retreat\",\"187\",\"1338297\",\"0.0-187.0\",\"\",\"\",\"2-5\",\"4457\",\"40\",\"1\",\"Testing\",\"Stims/Figures/93-C-30-1.bmp\",\"sa:saza\",\"Up\",\"40\",\"2\",\"15\",\"6A\",\"C2\",\"C\",\"39\"
\"\",\"\",\"approach-retreat\",\"188\",\"1344525\",\"0.0-188.0\",\"\",\"\",\"2-5\",\"4712\",\"38\",\"1\",\"Testing\",\"Stims/Figures/128-J-10-3.bmp\",\"fa:sha:va\",\"Up\",\"38\",\"2\",\"16\",\"6A\",\"C1\",\"C\",\"40\"
\"\",\"\",\"approach-retreat\",\"189\",\"1350440\",\"0.0-189.0\",\"\",\"\",\"2-5\",\"4385\",\"38\",\"1\",\"Testing\",\"Stims/Figures/27-C-30-1.bmp\",\"za:sa:ha\",\"Down\",\"38\",\"2\",\"17\",\"6A\",\"C2\",\"C\",\"41\"
\"\",\"\",\"approach-retreat\",\"190\",\"1356672\",\"0.0-190.0\",\"\",\"\",\"2-5\",\"4700\",\"39\",\"1\",\"Testing\",\"Stims/Figures/85-C-20-2.bmp\",\"za:sa:za\",\"Left\",\"39\",\"2\",\"18\",\"6A\",\"C2\",\"C\",\"42\"
\"\",\"\",\"approach-retreat\",\"191\",\"1362480\",\"0.0-191.0\",\"\",\"\",\"2-5\",\"4278\",\"40\",\"1\",\"Testing\",\"Stims/Figures/87-C-20-4.bmp\",\"za:haha\",\"Up\",\"40\",\"2\",\"19\",\"6A\",\"C2\",\"C\",\"43\"
\"\",\"\",\"approach-retreat\",\"192\",\"1368171\",\"0.0-192.0\",\"\",\"\",\"2-5\",\"4158\",\"40\",\"1\",\"Testing\",\"Stims/Figures/44-J-10-3.bmp\",\"fa:fava\",\"Down\",\"40\",\"2\",\"20\",\"6A\",\"C1\",\"C\",\"44\"
\"\",\"\",\"approach-retreat\",\"193\",\"1374134\",\"0.0-193.0\",\"\",\"\",\"2-5\",\"4429\",\"39\",\"1\",\"Testing\",\"Stims/Figures/85-J-0-2.bmp\",\"fa:fa:sha\",\"Right\",\"39\",\"2\",\"21\",\"6A\",\"C1\",\"C\",\"45\"
\"\",\"\",\"approach-retreat\",\"194\",\"1379892\",\"0.0-194.0\",\"\",\"\",\"2-5\",\"4227\",\"37\",\"1\",\"Testing\",\"Stims/Figures/87-J-10-4.bmp\",\"va:sha:va\",\"Left\",\"37\",\"2\",\"22\",\"6A\",\"C1\",\"C\",\"46\"
\"\",\"\",\"approach-retreat\",\"195\",\"1386430\",\"0.0-195.0\",\"\",\"\",\"2-5\",\"5008\",\"39\",\"1\",\"Testing\",\"Stims/Figures/118-J-0-2.bmp\",\"va:shava\",\"Right\",\"39\",\"2\",\"23\",\"6A\",\"C1\",\"C\",\"47\"
\"\",\"\",\"approach-retreat\",\"196\",\"1392128\",\"0.0-196.0\",\"\",\"\",\"2-5\",\"4163\",\"40\",\"1\",\"Testing\",\"Stims/Figures/100-C-30-3.bmp\",\"zaha:ha\",\"Up\",\"40\",\"2\",\"24\",\"6A\",\"C2\",\"C\",\"48\"
\"\",\"\",\"approach-retreat\",\"197\",\"1397840\",\"0.0-197.0\",\"\",\"\",\"2-5\",\"4180\",\"37\",\"1\",\"Testing\",\"Stims/Figures/85-J-0-2.bmp\",\"fa:fa:sha\",\"Left\",\"37\",\"3\",\"1\",\"6A\",\"C1\",\"C\",\"49\"
\"\",\"\",\"approach-retreat\",\"198\",\"1403595\",\"0.0-198.0\",\"\",\"\",\"2-5\",\"4233\",\"40\",\"1\",\"Testing\",\"Stims/Figures/84-J-0-2.bmp\",\"va:sha:sha\",\"Down\",\"40\",\"3\",\"2\",\"6A\",\"C1\",\"C\",\"50\"
\"\",\"\",\"approach-retreat\",\"199\",\"1409364\",\"0.0-199.0\",\"\",\"\",\"2-5\",\"4237\",\"37\",\"1\",\"Testing\",\"Stims/Figures/87-C-20-4.bmp\",\"za:haha\",\"Right\",\"37\",\"3\",\"3\",\"6A\",\"C2\",\"C\",\"51\"
\"\",\"\",\"approach-retreat\",\"200\",\"1415342\",\"0.0-200.0\",\"\",\"\",\"2-5\",\"4446\",\"37\",\"1\",\"Testing\",\"Stims/Figures/74-J-10-4.bmp\",\"vafa:sha\",\"Left\",\"37\",\"3\",\"4\",\"6A\",\"C1\",\"C\",\"52\"
\"\",\"\",\"approach-retreat\",\"201\",\"1421169\",\"0.0-201.0\",\"\",\"\",\"2-5\",\"4298\",\"39\",\"1\",\"Testing\",\"Stims/Figures/74-C-20-4.bmp\",\"sa:ha:ha\",\"Left\",\"39\",\"3\",\"5\",\"6A\",\"C2\",\"C\",\"53\"
\"\",\"\",\"approach-retreat\",\"202\",\"1426925\",\"0.0-202.0\",\"\",\"\",\"2-5\",\"4232\",\"38\",\"1\",\"Testing\",\"Stims/Figures/128-C-30-3.bmp\",\"za:haza\",\"Down\",\"38\",\"3\",\"6\",\"6A\",\"C2\",\"C\",\"54\"
\"\",\"\",\"approach-retreat\",\"203\",\"1433074\",\"0.0-203.0\",\"\",\"\",\"2-5\",\"4620\",\"39\",\"1\",\"Testing\",\"Stims/Figures/71-J-0-1.bmp\",\"va:fasha\",\"Right\",\"39\",\"3\",\"7\",\"6A\",\"C1\",\"C\",\"55\"
\"\",\"\",\"approach-retreat\",\"204\",\"1438903\",\"0.0-204.0\",\"\",\"\",\"2-5\",\"4298\",\"40\",\"1\",\"Testing\",\"Stims/Figures/71-C-30-1.bmp\",\"zasa:ha\",\"Up\",\"40\",\"3\",\"8\",\"6A\",\"C2\",\"C\",\"56\"
\"\",\"\",\"approach-retreat\",\"205\",\"1444900\",\"0.0-205.0\",\"\",\"\",\"2-5\",\"4465\",\"38\",\"1\",\"Testing\",\"Stims/Figures/128-J-10-3.bmp\",\"fa:sha:va\",\"Up\",\"38\",\"3\",\"9\",\"6A\",\"C1\",\"C\",\"57\"
\"\",\"\",\"approach-retreat\",\"206\",\"1450769\",\"0.0-206.0\",\"\",\"\",\"2-5\",\"4337\",\"38\",\"1\",\"Testing\",\"Stims/Figures/100-J-10-3.bmp\",\"fa:shasha\",\"Up\",\"38\",\"3\",\"10\",\"6A\",\"C1\",\"C\",\"58\"
\"\",\"\",\"approach-retreat\",\"207\",\"1456538\",\"0.0-207.0\",\"\",\"\",\"2-5\",\"4250\",\"39\",\"1\",\"Testing\",\"Stims/Figures/27-J-0-1.bmp\",\"vafasha\",\"Right\",\"39\",\"3\",\"11\",\"6A\",\"C1\",\"C\",\"59\"
\"\",\"\",\"approach-retreat\",\"208\",\"1462669\",\"0.0-208.0\",\"\",\"\",\"2-5\",\"4598\",\"39\",\"1\",\"Testing\",\"Stims/Figures/44-C-30-3.bmp\",\"sa:haha\",\"Left\",\"39\",\"3\",\"12\",\"6A\",\"C2\",\"C\",\"60\"
\"\",\"\",\"approach-retreat\",\"209\",\"1468752\",\"0.0-209.0\",\"\",\"\",\"2-5\",\"4553\",\"38\",\"1\",\"Testing\",\"Stims/Figures/27-C-30-1.bmp\",\"za:sa:ha\",\"Down\",\"38\",\"3\",\"13\",\"6A\",\"C2\",\"C\",\"61\"
\"\",\"\",\"approach-retreat\",\"210\",\"1475303\",\"0.0-210.0\",\"\",\"\",\"2-5\",\"5020\",\"37\",\"1\",\"Testing\",\"Stims/Figures/84-C-20-2.bmp\",\"sa:sa:za\",\"Right\",\"37\",\"3\",\"14\",\"6A\",\"C2\",\"C\",\"62\"
\"\",\"\",\"approach-retreat\",\"211\",\"1481013\",\"0.0-211.0\",\"\",\"\",\"2-5\",\"4178\",\"37\",\"1\",\"Testing\",\"Stims/Figures/102-C-20-4.bmp\",\"za:saza\",\"Right\",\"37\",\"3\",\"15\",\"6A\",\"C2\",\"C\",\"63\"
\"\",\"\",\"approach-retreat\",\"212\",\"1486818\",\"0.0-212.0\",\"\",\"\",\"2-5\",\"4270\",\"37\",\"1\",\"Testing\",\"Stims/Figures/93-C-30-1.bmp\",\"sa:saza\",\"Right\",\"37\",\"3\",\"16\",\"6A\",\"C2\",\"C\",\"64\"
\"\",\"\",\"approach-retreat\",\"213\",\"1493072\",\"0.0-213.0\",\"\",\"\",\"2-5\",\"4723\",\"37\",\"1\",\"Testing\",\"Stims/Figures/44-J-10-3.bmp\",\"fa:fava\",\"Left\",\"37\",\"3\",\"17\",\"6A\",\"C1\",\"C\",\"65\"
\"\",\"\",\"approach-retreat\",\"214\",\"1499159\",\"0.0-214.0\",\"\",\"\",\"2-5\",\"4557\",\"38\",\"1\",\"Testing\",\"Stims/Figures/100-C-30-3.bmp\",\"zaha:ha\",\"Down\",\"38\",\"3\",\"18\",\"6A\",\"C2\",\"C\",\"66\"
\"\",\"\",\"approach-retreat\",\"215\",\"1505673\",\"0.0-215.0\",\"\",\"\",\"2-5\",\"4983\",\"38\",\"1\",\"Testing\",\"Stims/Figures/87-J-10-4.bmp\",\"va:sha:va\",\"Up\",\"38\",\"3\",\"19\",\"6A\",\"C1\",\"C\",\"67\"
\"\",\"\",\"approach-retreat\",\"216\",\"1511703\",\"0.0-216.0\",\"\",\"\",\"2-5\",\"4494\",\"37\",\"1\",\"Testing\",\"Stims/Figures/102-J-10-4.bmp\",\"fafa:va\",\"Left\",\"37\",\"3\",\"20\",\"6A\",\"C1\",\"C\",\"68\"
\"\",\"\",\"approach-retreat\",\"217\",\"1517500\",\"0.0-217.0\",\"\",\"\",\"2-5\",\"4270\",\"40\",\"1\",\"Testing\",\"Stims/Figures/93-J-0-1.bmp\",\"va:fa:va\",\"Down\",\"40\",\"3\",\"21\",\"6A\",\"C1\",\"C\",\"69\"
\"\",\"\",\"approach-retreat\",\"218\",\"1523382\",\"0.0-218.0\",\"\",\"\",\"2-5\",\"4352\",\"40\",\"1\",\"Testing\",\"Stims/Figures/85-C-20-2.bmp\",\"za:sa:za\",\"Up\",\"40\",\"3\",\"22\",\"6A\",\"C2\",\"C\",\"70\"
\"\",\"\",\"approach-retreat\",\"219\",\"1529346\",\"0.0-219.0\",\"\",\"\",\"2-5\",\"4432\",\"38\",\"1\",\"Testing\",\"Stims/Figures/118-J-0-2.bmp\",\"va:shava\",\"Up\",\"38\",\"3\",\"23\",\"6A\",\"C1\",\"C\",\"71\"
\"\",\"\",\"approach-retreat\",\"220\",\"1535265\",\"0.0-220.0\",\"\",\"\",\"2-5\",\"4389\",\"38\",\"1\",\"Testing\",\"Stims/Figures/118-C-20-2.bmp\",\"sasa:ha\",\"Down\",\"38\",\"3\",\"24\",\"6A\",\"C2\",\"C\",\"72\"
\"\",\"\",\"approach-retreat\",\"221\",\"1541008\",\"0.0-221.0\",\"\",\"\",\"2-5\",\"4215\",\"38\",\"1\",\"Testing\",\"Stims/Figures/44-J-10-3.bmp\",\"fa:fava\",\"Up\",\"38\",\"4\",\"1\",\"6A\",\"C1\",\"C\",\"73\"
\"\",\"\",\"approach-retreat\",\"222\",\"1547265\",\"0.0-222.0\",\"\",\"\",\"2-5\",\"4737\",\"40\",\"1\",\"Testing\",\"Stims/Figures/71-J-0-1.bmp\",\"va:fasha\",\"Down\",\"40\",\"4\",\"2\",\"6A\",\"C1\",\"C\",\"74\"
\"\",\"\",\"approach-retreat\",\"223\",\"1552935\",\"0.0-223.0\",\"\",\"\",\"2-5\",\"4139\",\"37\",\"1\",\"Testing\",\"Stims/Figures/71-C-30-1.bmp\",\"zasa:ha\",\"Right\",\"37\",\"4\",\"3\",\"6A\",\"C2\",\"C\",\"75\"
\"\",\"\",\"approach-retreat\",\"224\",\"1558864\",\"0.0-224.0\",\"\",\"\",\"2-5\",\"4396\",\"37\",\"1\",\"Testing\",\"Stims/Figures/118-C-20-2.bmp\",\"sasa:ha\",\"Right\",\"37\",\"4\",\"4\",\"6A\",\"C2\",\"C\",\"76\"
\"\",\"\",\"approach-retreat\",\"225\",\"1564634\",\"0.0-225.0\",\"\",\"\",\"2-5\",\"4235\",\"37\",\"1\",\"Testing\",\"Stims/Figures/85-C-20-2.bmp\",\"za:sa:za\",\"Right\",\"37\",\"4\",\"5\",\"6A\",\"C2\",\"C\",\"77\"
\"\",\"\",\"approach-retreat\",\"226\",\"1570438\",\"0.0-226.0\",\"\",\"\",\"2-5\",\"4287\",\"40\",\"1\",\"Testing\",\"Stims/Figures/74-J-10-4.bmp\",\"vafa:sha\",\"Down\",\"40\",\"4\",\"6\",\"6A\",\"C1\",\"C\",\"78\"
\"\",\"\",\"approach-retreat\",\"227\",\"1576492\",\"0.0-227.0\",\"\",\"\",\"2-5\",\"4538\",\"39\",\"1\",\"Testing\",\"Stims/Figures/128-C-30-3.bmp\",\"za:haza\",\"Left\",\"39\",\"4\",\"7\",\"6A\",\"C2\",\"C\",\"79\"
\"\",\"\",\"approach-retreat\",\"228\",\"1582322\",\"0.0-228.0\",\"\",\"\",\"2-5\",\"4299\",\"38\",\"1\",\"Testing\",\"Stims/Figures/102-C-20-4.bmp\",\"za:saza\",\"Down\",\"38\",\"4\",\"8\",\"6A\",\"C2\",\"C\",\"80\"
\"\",\"\",\"approach-retreat\",\"229\",\"1587999\",\"0.0-229.0\",\"\",\"\",\"2-5\",\"4149\",\"37\",\"1\",\"Testing\",\"Stims/Figures/118-J-0-2.bmp\",\"va:shava\",\"Left\",\"37\",\"4\",\"9\",\"6A\",\"C1\",\"C\",\"81\"
\"\",\"\",\"approach-retreat\",\"230\",\"1595156\",\"0.0-230.0\",\"\",\"\",\"2-5\",\"5625\",\"37\",\"1\",\"Testing\",\"Stims/Figures/87-J-10-4.bmp\",\"va:sha:va\",\"Left\",\"37\",\"4\",\"10\",\"6A\",\"C1\",\"C\",\"82\"
\"\",\"\",\"approach-retreat\",\"231\",\"1601296\",\"0.0-231.0\",\"\",\"\",\"2-5\",\"4610\",\"39\",\"1\",\"Testing\",\"Stims/Figures/44-C-30-3.bmp\",\"sa:haha\",\"Left\",\"39\",\"4\",\"11\",\"6A\",\"C2\",\"C\",\"83\"
\"\",\"\",\"approach-retreat\",\"232\",\"1607211\",\"0.0-232.0\",\"\",\"\",\"2-5\",\"4395\",\"40\",\"1\",\"Testing\",\"Stims/Figures/74-C-20-4.bmp\",\"sa:ha:ha\",\"Up\",\"40\",\"4\",\"12\",\"6A\",\"C2\",\"C\",\"84\"
\"\",\"\",\"approach-retreat\",\"233\",\"1612933\",\"0.0-233.0\",\"\",\"\",\"2-5\",\"4192\",\"38\",\"1\",\"Testing\",\"Stims/Figures/84-C-20-2.bmp\",\"sa:sa:za\",\"Down\",\"38\",\"4\",\"13\",\"6A\",\"C2\",\"C\",\"85\"
\"\",\"\",\"approach-retreat\",\"234\",\"1619625\",\"0.0-234.0\",\"\",\"\",\"2-5\",\"5160\",\"38\",\"1\",\"Testing\",\"Stims/Figures/27-J-0-1.bmp\",\"vafasha\",\"Up\",\"38\",\"4\",\"14\",\"6A\",\"C1\",\"C\",\"86\"
\"\",\"\",\"approach-retreat\",\"235\",\"1625420\",\"0.0-235.0\",\"\",\"\",\"2-5\",\"4264\",\"37\",\"1\",\"Testing\",\"Stims/Figures/102-J-10-4.bmp\",\"fafa:va\",\"Left\",\"37\",\"4\",\"15\",\"6A\",\"C1\",\"C\",\"87\"
\"\",\"\",\"approach-retreat\",\"236\",\"1631329\",\"0.0-236.0\",\"\",\"\",\"2-5\",\"4377\",\"40\",\"1\",\"Testing\",\"Stims/Figures/93-J-0-1.bmp\",\"va:fa:va\",\"Down\",\"40\",\"4\",\"16\",\"6A\",\"C1\",\"C\",\"88\"
\"\",\"\",\"approach-retreat\",\"237\",\"1637707\",\"0.0-237.0\",\"\",\"\",\"2-5\",\"4846\",\"39\",\"1\",\"Testing\",\"Stims/Figures/85-J-0-2.bmp\",\"fa:fa:sha\",\"Right\",\"39\",\"4\",\"17\",\"6A\",\"C1\",\"C\",\"89\"
\"\",\"\",\"approach-retreat\",\"238\",\"1643355\",\"0.0-238.0\",\"\",\"\",\"2-5\",\"4117\",\"38\",\"1\",\"Testing\",\"Stims/Figures/100-C-30-3.bmp\",\"zaha:ha\",\"Down\",\"38\",\"4\",\"18\",\"6A\",\"C2\",\"C\",\"90\"
\"\",\"\",\"approach-retreat\",\"239\",\"1649713\",\"0.0-239.0\",\"\",\"\",\"2-5\",\"4822\",\"38\",\"1\",\"Testing\",\"Stims/Figures/84-J-0-2.bmp\",\"va:sha:sha\",\"Up\",\"38\",\"4\",\"19\",\"6A\",\"C1\",\"C\",\"91\"
\"\",\"\",\"approach-retreat\",\"240\",\"1657697\",\"0.0-240.0\",\"\",\"\",\"2-5\",\"6452\",\"40\",\"1\",\"Testing\",\"Stims/Figures/87-C-20-4.bmp\",\"za:haha\",\"Up\",\"40\",\"4\",\"20\",\"6A\",\"C2\",\"C\",\"92\"
\"\",\"\",\"approach-retreat\",\"241\",\"1665036\",\"0.0-241.0\",\"\",\"\",\"2-5\",\"5807\",\"39\",\"1\",\"Testing\",\"Stims/Figures/93-C-30-1.bmp\",\"sa:saza\",\"Left\",\"39\",\"4\",\"21\",\"6A\",\"C2\",\"C\",\"93\"
\"\",\"\",\"approach-retreat\",\"242\",\"1670775\",\"0.0-242.0\",\"\",\"\",\"2-5\",\"4221\",\"38\",\"1\",\"Testing\",\"Stims/Figures/128-J-10-3.bmp\",\"fa:sha:va\",\"Up\",\"38\",\"4\",\"22\",\"6A\",\"C1\",\"C\",\"94\"
\"\",\"\",\"approach-retreat\",\"243\",\"1676652\",\"0.0-243.0\",\"\",\"\",\"2-5\",\"4364\",\"39\",\"1\",\"Testing\",\"Stims/Figures/100-J-10-3.bmp\",\"fa:shasha\",\"Right\",\"39\",\"4\",\"23\",\"6A\",\"C1\",\"C\",\"95\"
\"\",\"\",\"approach-retreat\",\"244\",\"1682275\",\"0.0-244.0\",\"\",\"\",\"2-5\",\"4092\",\"37\",\"1\",\"Testing\",\"Stims/Figures/27-C-30-1.bmp\",\"za:sa:ha\",\"Right\",\"37\",\"4\",\"24\",\"6A\",\"C2\",\"C\",\"96\"
\"25505\",\"\",\"survey-text\",\"245\",\"1707802\",\"0.0-245.0\",\"\",\"{\"\"Q0\"\":\"\"PS170031\"\"}\",\"\",\"\",\"\",\"\",\"\",\"\",\"\",\"\",\"\",\"\",\"\",\"\",\"\",\"\",\"\"
