\"rt\",\"key_press\",\"trial_type\",\"trial_index\",\"time_elapsed\",\"internal_node_id\",\"view_history\",\"responses\",\"Id\",\"Rt\",\"ResKeyCode\",\"ResCorr\",\"TrialType2\",\"Image\",\"Label\",\"Location\",\"CorrectResponse\",\"Block\",\"BlockTrial\",\"Condition\",\"LabelType\",\"Subcondition\",\"trialNum\"
\"68841\",\"32\",\"text\",\"0\",\"68851\",\"0.0-0.0-0.0\",\"\",\"\",\"\",\"\",\"\",\"\",\"\",\"\",\"\",\"\",\"\",\"\",\"\",\"\",\"\",\"\",\"\"
\"120330\",\"\",\"instructions\",\"1\",\"189186\",\"0.0-1.0\",\"[{\"\"page_index\"\":0,\"\"viewing_time\"\":120327}]\",\"\",\"\",\"\",\"\",\"\",\"\",\"\",\"\",\"\",\"\",\"\",\"\",\"\",\"\",\"\",\"\"
\"19107\",\"\",\"survey-multi-choice\",\"2\",\"208369\",\"0.0-2.0\",\"\",\"{\"\"Q0\"\":\"\"Da\"\",\"\"Q1\"\":\"\"Da\"\",\"\"Q2\"\":\"\"Da\"\",\"\"Q3\"\":\"\"Da\"\",\"\"Q4\"\":\"\"Da\"\",\"\"Q5\"\":\"\"Da\"\"}\",\"\",\"\",\"\",\"\",\"\",\"\",\"\",\"\",\"\",\"\",\"\",\"\",\"\",\"\",\"\"
\"\",\"\",\"bio\",\"3\",\"218928\",\"0.0-3.0\",\"\",\"{\"\"age\"\":\"\"19\"\",\"\"gender\"\":\"\"f\"\",\"\"specify\"\":\"\"\"\"}\",\"\",\"\",\"\",\"\",\"\",\"\",\"\",\"\",\"\",\"\",\"\",\"\",\"\",\"\",\"\"
\"\",\"\",\"approach-retreat\",\"4\",\"232347\",\"0.0-4.0\",\"\",\"\",\"3-3\",\"11866\",\"37\",\"1\",\"Training\",\"Stims/Figures/93-C-30-1.bmp\",\"fa:fasha\",\"Left\",\"37\",\"1\",\"1\",\"8\",\"C1\",\"J\",\"1\"
\"\",\"\",\"approach-retreat\",\"5\",\"241485\",\"0.0-5.0\",\"\",\"\",\"3-3\",\"7600\",\"40\",\"1\",\"Training\",\"Stims/Figures/71-C-30-1.bmp\",\"fasha:sha\",\"Down\",\"40\",\"1\",\"2\",\"8\",\"C1\",\"J\",\"2\"
\"\",\"\",\"approach-retreat\",\"6\",\"248399\",\"0.0-6.0\",\"\",\"\",\"3-3\",\"5351\",\"39\",\"0\",\"Training\",\"Stims/Figures/93-J-0-1.bmp\",\"fa:shasha\",\"Right\",\"37\",\"1\",\"3\",\"8\",\"C1\",\"J\",\"3\"
\"\",\"\",\"approach-retreat\",\"7\",\"255565\",\"0.0-7.0\",\"\",\"\",\"3-3\",\"5630\",\"39\",\"1\",\"Training\",\"Stims/Figures/118-J-0-2.bmp\",\"fa:fa:sha\",\"Left\",\"39\",\"1\",\"4\",\"8\",\"C1\",\"J\",\"4\"
\"\",\"\",\"approach-retreat\",\"8\",\"263734\",\"0.0-8.0\",\"\",\"\",\"3-3\",\"6597\",\"38\",\"0\",\"Training\",\"Stims/Figures/7-J-10-4.bmp\",\"za:ha:ha\",\"Up\",\"40\",\"1\",\"5\",\"8\",\"C2\",\"J\",\"5\"
\"\",\"\",\"approach-retreat\",\"9\",\"270736\",\"0.0-9.0\",\"\",\"\",\"3-3\",\"5449\",\"37\",\"0\",\"Training\",\"Stims/Figures/7-C-20-4.bmp\",\"sa:sa:za\",\"Right\",\"39\",\"1\",\"6\",\"8\",\"C2\",\"J\",\"6\"
\"\",\"\",\"approach-retreat\",\"10\",\"280847\",\"0.0-10.0\",\"\",\"\",\"3-3\",\"8546\",\"37\",\"1\",\"Training\",\"Stims/Figures/100-C-30-3.bmp\",\"saha:ha\",\"Left\",\"37\",\"1\",\"7\",\"8\",\"C2\",\"J\",\"7\"
\"\",\"\",\"approach-retreat\",\"11\",\"288240\",\"0.0-11.0\",\"\",\"\",\"3-3\",\"5820\",\"38\",\"1\",\"Training\",\"Stims/Figures/128-C-30-3.bmp\",\"za:ha:za\",\"Up\",\"38\",\"1\",\"8\",\"8\",\"C2\",\"J\",\"8\"
\"\",\"\",\"approach-retreat\",\"12\",\"294736\",\"0.0-12.0\",\"\",\"\",\"3-3\",\"4942\",\"40\",\"1\",\"Training\",\"Stims/Figures/102-C-20-4.bmp\",\"za:saza\",\"Down\",\"40\",\"1\",\"9\",\"8\",\"C2\",\"J\",\"9\"
\"\",\"\",\"approach-retreat\",\"13\",\"300768\",\"0.0-13.0\",\"\",\"\",\"3-3\",\"4495\",\"38\",\"0\",\"Training\",\"Stims/Figures/128-J-10-3.bmp\",\"sa:saha\",\"Up\",\"40\",\"1\",\"10\",\"8\",\"C2\",\"J\",\"10\"
\"\",\"\",\"approach-retreat\",\"14\",\"307324\",\"0.0-14.0\",\"\",\"\",\"3-3\",\"5010\",\"37\",\"0\",\"Training\",\"Stims/Figures/85-C-20-2.bmp\",\"va:sha:sha\",\"Right\",\"39\",\"1\",\"11\",\"8\",\"C1\",\"J\",\"11\"
\"\",\"\",\"approach-retreat\",\"15\",\"313623\",\"0.0-15.0\",\"\",\"\",\"3-3\",\"4741\",\"38\",\"0\",\"Training\",\"Stims/Figures/71-J-0-1.bmp\",\"va:shasha\",\"Up\",\"40\",\"1\",\"12\",\"8\",\"C1\",\"J\",\"12\"
\"\",\"\",\"approach-retreat\",\"16\",\"319750\",\"0.0-16.0\",\"\",\"\",\"3-3\",\"4583\",\"37\",\"1\",\"Training\",\"Stims/Figures/85-J-0-2.bmp\",\"fashava\",\"Right\",\"37\",\"1\",\"13\",\"8\",\"C1\",\"J\",\"13\"
\"\",\"\",\"approach-retreat\",\"17\",\"326678\",\"0.0-17.0\",\"\",\"\",\"3-3\",\"5395\",\"40\",\"1\",\"Training\",\"Stims/Figures/118-C-20-2.bmp\",\"fa:sha:va\",\"Down\",\"40\",\"1\",\"14\",\"8\",\"C1\",\"J\",\"14\"
\"\",\"\",\"approach-retreat\",\"18\",\"333103\",\"0.0-18.0\",\"\",\"\",\"3-3\",\"4880\",\"37\",\"0\",\"Training\",\"Stims/Figures/100-J-10-3.bmp\",\"sahaha\",\"Left\",\"39\",\"1\",\"15\",\"8\",\"C2\",\"J\",\"15\"
\"\",\"\",\"approach-retreat\",\"19\",\"339016\",\"0.0-19.0\",\"\",\"\",\"3-3\",\"4390\",\"40\",\"0\",\"Training\",\"Stims/Figures/102-J-10-4.bmp\",\"sa:saza\",\"Down\",\"38\",\"1\",\"16\",\"8\",\"C2\",\"J\",\"16\"
\"\",\"\",\"approach-retreat\",\"20\",\"345257\",\"0.0-20.0\",\"\",\"\",\"3-3\",\"4695\",\"39\",\"1\",\"Training\",\"Stims/Figures/71-J-0-1.bmp\",\"va:shasha\",\"Left\",\"39\",\"2\",\"1\",\"8\",\"C1\",\"J\",\"17\"
\"\",\"\",\"approach-retreat\",\"21\",\"353725\",\"0.0-21.0\",\"\",\"\",\"3-3\",\"6896\",\"40\",\"0\",\"Training\",\"Stims/Figures/85-J-0-2.bmp\",\"fashava\",\"Down\",\"38\",\"2\",\"2\",\"8\",\"C1\",\"J\",\"18\"
\"\",\"\",\"approach-retreat\",\"22\",\"359755\",\"0.0-22.0\",\"\",\"\",\"3-3\",\"4476\",\"39\",\"1\",\"Training\",\"Stims/Figures/128-C-30-3.bmp\",\"za:ha:za\",\"Right\",\"39\",\"2\",\"3\",\"8\",\"C2\",\"J\",\"19\"
\"\",\"\",\"approach-retreat\",\"23\",\"366054\",\"0.0-23.0\",\"\",\"\",\"3-3\",\"4746\",\"38\",\"1\",\"Training\",\"Stims/Figures/100-C-30-3.bmp\",\"saha:ha\",\"Up\",\"38\",\"2\",\"4\",\"8\",\"C2\",\"J\",\"20\"
\"\",\"\",\"approach-retreat\",\"24\",\"371997\",\"0.0-24.0\",\"\",\"\",\"3-3\",\"4383\",\"37\",\"1\",\"Training\",\"Stims/Figures/118-C-20-2.bmp\",\"fa:sha:va\",\"Left\",\"37\",\"2\",\"5\",\"8\",\"C1\",\"J\",\"21\"
\"\",\"\",\"approach-retreat\",\"25\",\"377826\",\"0.0-25.0\",\"\",\"\",\"3-3\",\"4267\",\"39\",\"0\",\"Training\",\"Stims/Figures/102-J-10-4.bmp\",\"sa:saza\",\"Right\",\"37\",\"2\",\"6\",\"8\",\"C2\",\"J\",\"22\"
\"\",\"\",\"approach-retreat\",\"26\",\"383626\",\"0.0-26.0\",\"\",\"\",\"3-3\",\"4242\",\"40\",\"1\",\"Training\",\"Stims/Figures/85-C-20-2.bmp\",\"va:sha:sha\",\"Down\",\"40\",\"2\",\"7\",\"8\",\"C1\",\"J\",\"23\"
\"\",\"\",\"approach-retreat\",\"27\",\"390046\",\"0.0-27.0\",\"\",\"\",\"3-3\",\"4859\",\"38\",\"1\",\"Training\",\"Stims/Figures/100-J-10-3.bmp\",\"sahaha\",\"Down\",\"38\",\"2\",\"8\",\"8\",\"C2\",\"J\",\"24\"
\"\",\"\",\"approach-retreat\",\"28\",\"396045\",\"0.0-28.0\",\"\",\"\",\"3-3\",\"4423\",\"37\",\"1\",\"Training\",\"Stims/Figures/71-C-30-1.bmp\",\"fasha:sha\",\"Left\",\"37\",\"2\",\"9\",\"8\",\"C1\",\"J\",\"25\"
\"\",\"\",\"approach-retreat\",\"29\",\"401935\",\"0.0-29.0\",\"\",\"\",\"3-3\",\"4326\",\"38\",\"0\",\"Training\",\"Stims/Figures/128-J-10-3.bmp\",\"sa:saha\",\"Up\",\"40\",\"2\",\"10\",\"8\",\"C2\",\"J\",\"26\"
\"\",\"\",\"approach-retreat\",\"30\",\"407631\",\"0.0-30.0\",\"\",\"\",\"3-3\",\"4139\",\"39\",\"0\",\"Training\",\"Stims/Figures/93-J-0-1.bmp\",\"fa:shasha\",\"Right\",\"37\",\"2\",\"11\",\"8\",\"C1\",\"J\",\"27\"
\"\",\"\",\"approach-retreat\",\"31\",\"413323\",\"0.0-31.0\",\"\",\"\",\"3-3\",\"4137\",\"38\",\"0\",\"Training\",\"Stims/Figures/7-J-10-4.bmp\",\"za:ha:ha\",\"Up\",\"40\",\"2\",\"12\",\"8\",\"C2\",\"J\",\"28\"
\"\",\"\",\"approach-retreat\",\"32\",\"419992\",\"0.0-32.0\",\"\",\"\",\"3-3\",\"5110\",\"40\",\"0\",\"Training\",\"Stims/Figures/118-J-0-2.bmp\",\"fa:fa:sha\",\"Down\",\"38\",\"2\",\"13\",\"8\",\"C1\",\"J\",\"29\"
\"\",\"\",\"approach-retreat\",\"33\",\"425844\",\"0.0-33.0\",\"\",\"\",\"3-3\",\"4298\",\"39\",\"0\",\"Training\",\"Stims/Figures/102-C-20-4.bmp\",\"za:saza\",\"Left\",\"37\",\"2\",\"14\",\"8\",\"C2\",\"J\",\"30\"
\"\",\"\",\"approach-retreat\",\"34\",\"432198\",\"0.0-34.0\",\"\",\"\",\"3-3\",\"4808\",\"40\",\"0\",\"Training\",\"Stims/Figures/93-C-30-1.bmp\",\"fa:fasha\",\"Up\",\"38\",\"2\",\"15\",\"8\",\"C1\",\"J\",\"31\"
\"\",\"\",\"approach-retreat\",\"35\",\"438639\",\"0.0-35.0\",\"\",\"\",\"3-3\",\"4893\",\"37\",\"0\",\"Training\",\"Stims/Figures/7-C-20-4.bmp\",\"sa:sa:za\",\"Right\",\"39\",\"2\",\"16\",\"8\",\"C2\",\"J\",\"32\"
\"\",\"\",\"approach-retreat\",\"36\",\"444480\",\"0.0-36.0\",\"\",\"\",\"3-3\",\"4315\",\"38\",\"1\",\"Training\",\"Stims/Figures/71-C-30-1.bmp\",\"fasha:sha\",\"Up\",\"38\",\"3\",\"1\",\"8\",\"C1\",\"J\",\"33\"
\"\",\"\",\"approach-retreat\",\"37\",\"450189\",\"0.0-37.0\",\"\",\"\",\"3-3\",\"4160\",\"39\",\"0\",\"Training\",\"Stims/Figures/85-J-0-2.bmp\",\"fashava\",\"Right\",\"37\",\"3\",\"2\",\"8\",\"C1\",\"J\",\"34\"
\"\",\"\",\"approach-retreat\",\"38\",\"456387\",\"0.0-38.0\",\"\",\"\",\"3-3\",\"4646\",\"37\",\"0\",\"Training\",\"Stims/Figures/100-C-30-3.bmp\",\"saha:ha\",\"Right\",\"39\",\"3\",\"3\",\"8\",\"C2\",\"J\",\"35\"
\"\",\"\",\"approach-retreat\",\"39\",\"462508\",\"0.0-39.0\",\"\",\"\",\"3-3\",\"4558\",\"40\",\"0\",\"Training\",\"Stims/Figures/128-C-30-3.bmp\",\"za:ha:za\",\"Up\",\"38\",\"3\",\"4\",\"8\",\"C2\",\"J\",\"36\"
\"\",\"\",\"approach-retreat\",\"40\",\"468529\",\"0.0-40.0\",\"\",\"\",\"3-3\",\"4454\",\"38\",\"1\",\"Training\",\"Stims/Figures/102-J-10-4.bmp\",\"sa:saza\",\"Down\",\"38\",\"3\",\"5\",\"8\",\"C2\",\"J\",\"37\"
\"\",\"\",\"approach-retreat\",\"41\",\"474693\",\"0.0-41.0\",\"\",\"\",\"3-3\",\"4603\",\"38\",\"0\",\"Training\",\"Stims/Figures/118-C-20-2.bmp\",\"fa:sha:va\",\"Down\",\"40\",\"3\",\"6\",\"8\",\"C1\",\"J\",\"38\"
\"\",\"\",\"approach-retreat\",\"42\",\"480435\",\"0.0-42.0\",\"\",\"\",\"3-3\",\"4201\",\"39\",\"1\",\"Training\",\"Stims/Figures/93-J-0-1.bmp\",\"fa:shasha\",\"Left\",\"39\",\"3\",\"7\",\"8\",\"C1\",\"J\",\"39\"
\"\",\"\",\"approach-retreat\",\"43\",\"486086\",\"0.0-43.0\",\"\",\"\",\"3-3\",\"4083\",\"39\",\"0\",\"Training\",\"Stims/Figures/93-C-30-1.bmp\",\"fa:fasha\",\"Left\",\"37\",\"3\",\"8\",\"8\",\"C1\",\"J\",\"40\"
\"\",\"\",\"approach-retreat\",\"44\",\"492446\",\"0.0-44.0\",\"\",\"\",\"3-3\",\"4778\",\"38\",\"0\",\"Training\",\"Stims/Figures/118-J-0-2.bmp\",\"fa:fa:sha\",\"Up\",\"40\",\"3\",\"9\",\"8\",\"C1\",\"J\",\"41\"
\"\",\"\",\"approach-retreat\",\"45\",\"498087\",\"0.0-45.0\",\"\",\"\",\"3-3\",\"4107\",\"39\",\"1\",\"Training\",\"Stims/Figures/71-J-0-1.bmp\",\"va:shasha\",\"Left\",\"39\",\"3\",\"10\",\"8\",\"C1\",\"J\",\"42\"
\"\",\"\",\"approach-retreat\",\"46\",\"504326\",\"0.0-46.0\",\"\",\"\",\"3-3\",\"4688\",\"39\",\"0\",\"Training\",\"Stims/Figures/128-J-10-3.bmp\",\"sa:saha\",\"Right\",\"37\",\"3\",\"11\",\"8\",\"C2\",\"J\",\"43\"
\"\",\"\",\"approach-retreat\",\"47\",\"510533\",\"0.0-47.0\",\"\",\"\",\"3-3\",\"4658\",\"40\",\"1\",\"Training\",\"Stims/Figures/7-J-10-4.bmp\",\"za:ha:ha\",\"Up\",\"40\",\"3\",\"12\",\"8\",\"C2\",\"J\",\"44\"
\"\",\"\",\"approach-retreat\",\"48\",\"516614\",\"0.0-48.0\",\"\",\"\",\"3-3\",\"4527\",\"39\",\"0\",\"Training\",\"Stims/Figures/85-C-20-2.bmp\",\"va:sha:sha\",\"Left\",\"37\",\"3\",\"13\",\"8\",\"C1\",\"J\",\"45\"
\"\",\"\",\"approach-retreat\",\"49\",\"522518\",\"0.0-49.0\",\"\",\"\",\"3-3\",\"4362\",\"39\",\"1\",\"Training\",\"Stims/Figures/102-C-20-4.bmp\",\"za:saza\",\"Right\",\"39\",\"3\",\"14\",\"8\",\"C2\",\"J\",\"46\"
\"\",\"\",\"approach-retreat\",\"50\",\"528591\",\"0.0-50.0\",\"\",\"\",\"3-3\",\"4507\",\"40\",\"0\",\"Training\",\"Stims/Figures/100-J-10-3.bmp\",\"sahaha\",\"Down\",\"38\",\"3\",\"15\",\"8\",\"C2\",\"J\",\"47\"
\"\",\"\",\"approach-retreat\",\"51\",\"535031\",\"0.0-51.0\",\"\",\"\",\"3-3\",\"4887\",\"40\",\"1\",\"Training\",\"Stims/Figures/7-C-20-4.bmp\",\"sa:sa:za\",\"Down\",\"40\",\"3\",\"16\",\"8\",\"C2\",\"J\",\"48\"
\"\",\"\",\"approach-retreat\",\"52\",\"540711\",\"0.0-52.0\",\"\",\"\",\"3-3\",\"4107\",\"40\",\"0\",\"Training\",\"Stims/Figures/102-J-10-4.bmp\",\"sa:saza\",\"Down\",\"38\",\"4\",\"1\",\"8\",\"C2\",\"J\",\"49\"
\"\",\"\",\"approach-retreat\",\"53\",\"546639\",\"0.0-53.0\",\"\",\"\",\"3-3\",\"4385\",\"37\",\"0\",\"Training\",\"Stims/Figures/93-C-30-1.bmp\",\"fa:fasha\",\"Right\",\"39\",\"4\",\"2\",\"8\",\"C1\",\"J\",\"50\"
\"\",\"\",\"approach-retreat\",\"54\",\"552445\",\"0.0-54.0\",\"\",\"\",\"3-3\",\"4252\",\"39\",\"0\",\"Training\",\"Stims/Figures/7-J-10-4.bmp\",\"za:ha:ha\",\"Right\",\"37\",\"4\",\"3\",\"8\",\"C2\",\"J\",\"51\"
\"\",\"\",\"approach-retreat\",\"55\",\"558619\",\"0.0-55.0\",\"\",\"\",\"3-3\",\"4618\",\"38\",\"1\",\"Training\",\"Stims/Figures/85-J-0-2.bmp\",\"fashava\",\"Down\",\"38\",\"4\",\"4\",\"8\",\"C1\",\"J\",\"52\"
\"\",\"\",\"approach-retreat\",\"56\",\"566795\",\"0.0-56.0\",\"\",\"\",\"3-3\",\"6607\",\"38\",\"1\",\"Training\",\"Stims/Figures/102-C-20-4.bmp\",\"za:saza\",\"Up\",\"38\",\"4\",\"5\",\"8\",\"C2\",\"J\",\"53\"
\"\",\"\",\"approach-retreat\",\"57\",\"572676\",\"0.0-57.0\",\"\",\"\",\"3-3\",\"4319\",\"39\",\"0\",\"Training\",\"Stims/Figures/118-C-20-2.bmp\",\"fa:sha:va\",\"Left\",\"37\",\"4\",\"6\",\"8\",\"C1\",\"J\",\"54\"
\"\",\"\",\"approach-retreat\",\"58\",\"578513\",\"0.0-58.0\",\"\",\"\",\"3-3\",\"4282\",\"38\",\"0\",\"Training\",\"Stims/Figures/71-J-0-1.bmp\",\"va:shasha\",\"Up\",\"40\",\"4\",\"7\",\"8\",\"C1\",\"J\",\"55\"
\"\",\"\",\"approach-retreat\",\"59\",\"584983\",\"0.0-59.0\",\"\",\"\",\"3-3\",\"4908\",\"38\",\"0\",\"Training\",\"Stims/Figures/100-C-30-3.bmp\",\"saha:ha\",\"Down\",\"40\",\"4\",\"8\",\"8\",\"C2\",\"J\",\"56\"
\"\",\"\",\"approach-retreat\",\"60\",\"591411\",\"0.0-60.0\",\"\",\"\",\"3-3\",\"4862\",\"37\",\"1\",\"Training\",\"Stims/Figures/85-C-20-2.bmp\",\"va:sha:sha\",\"Left\",\"37\",\"4\",\"9\",\"8\",\"C1\",\"J\",\"57\"
\"\",\"\",\"approach-retreat\",\"61\",\"597134\",\"0.0-61.0\",\"\",\"\",\"3-3\",\"4151\",\"39\",\"0\",\"Training\",\"Stims/Figures/118-J-0-2.bmp\",\"fa:fa:sha\",\"Right\",\"37\",\"4\",\"10\",\"8\",\"C1\",\"J\",\"58\"
\"\",\"\",\"approach-retreat\",\"62\",\"603062\",\"0.0-62.0\",\"\",\"\",\"3-3\",\"4374\",\"37\",\"1\",\"Training\",\"Stims/Figures/128-C-30-3.bmp\",\"za:ha:za\",\"Left\",\"37\",\"4\",\"11\",\"8\",\"C2\",\"J\",\"59\"
\"\",\"\",\"approach-retreat\",\"63\",\"608826\",\"0.0-63.0\",\"\",\"\",\"3-3\",\"4204\",\"38\",\"0\",\"Training\",\"Stims/Figures/128-J-10-3.bmp\",\"sa:saha\",\"Up\",\"40\",\"4\",\"12\",\"8\",\"C2\",\"J\",\"60\"
\"\",\"\",\"approach-retreat\",\"64\",\"615280\",\"0.0-64.0\",\"\",\"\",\"3-3\",\"4900\",\"38\",\"0\",\"Training\",\"Stims/Figures/93-J-0-1.bmp\",\"fa:shasha\",\"Up\",\"40\",\"4\",\"13\",\"8\",\"C1\",\"J\",\"61\"
\"\",\"\",\"approach-retreat\",\"65\",\"621329\",\"0.0-65.0\",\"\",\"\",\"3-3\",\"4524\",\"39\",\"1\",\"Training\",\"Stims/Figures/7-C-20-4.bmp\",\"sa:sa:za\",\"Right\",\"39\",\"4\",\"14\",\"8\",\"C2\",\"J\",\"62\"
\"\",\"\",\"approach-retreat\",\"66\",\"627129\",\"0.0-66.0\",\"\",\"\",\"3-3\",\"4232\",\"39\",\"1\",\"Training\",\"Stims/Figures/100-J-10-3.bmp\",\"sahaha\",\"Left\",\"39\",\"4\",\"15\",\"8\",\"C2\",\"J\",\"63\"
\"\",\"\",\"approach-retreat\",\"67\",\"633370\",\"0.0-67.0\",\"\",\"\",\"3-3\",\"4682\",\"38\",\"0\",\"Training\",\"Stims/Figures/71-C-30-1.bmp\",\"fasha:sha\",\"Down\",\"40\",\"4\",\"16\",\"8\",\"C1\",\"J\",\"64\"
\"\",\"\",\"approach-retreat\",\"68\",\"639236\",\"0.0-68.0\",\"\",\"\",\"3-3\",\"4299\",\"38\",\"1\",\"Training\",\"Stims/Figures/85-J-0-2.bmp\",\"fashava\",\"Down\",\"38\",\"5\",\"1\",\"8\",\"C1\",\"J\",\"65\"
\"\",\"\",\"approach-retreat\",\"69\",\"645870\",\"0.0-69.0\",\"\",\"\",\"3-3\",\"5064\",\"38\",\"1\",\"Training\",\"Stims/Figures/102-C-20-4.bmp\",\"za:saza\",\"Up\",\"38\",\"5\",\"2\",\"8\",\"C2\",\"J\",\"66\"
\"\",\"\",\"approach-retreat\",\"70\",\"651775\",\"0.0-70.0\",\"\",\"\",\"3-3\",\"4349\",\"37\",\"0\",\"Training\",\"Stims/Figures/118-J-0-2.bmp\",\"fa:fa:sha\",\"Left\",\"39\",\"5\",\"3\",\"8\",\"C1\",\"J\",\"67\"
\"\",\"\",\"approach-retreat\",\"71\",\"657577\",\"0.0-71.0\",\"\",\"\",\"3-3\",\"4236\",\"38\",\"0\",\"Training\",\"Stims/Figures/100-C-30-3.bmp\",\"saha:ha\",\"Down\",\"40\",\"5\",\"4\",\"8\",\"C2\",\"J\",\"68\"
\"\",\"\",\"approach-retreat\",\"72\",\"663383\",\"0.0-72.0\",\"\",\"\",\"3-3\",\"4262\",\"39\",\"0\",\"Training\",\"Stims/Figures/93-C-30-1.bmp\",\"fa:fasha\",\"Left\",\"37\",\"5\",\"5\",\"8\",\"C1\",\"J\",\"69\"
\"\",\"\",\"approach-retreat\",\"73\",\"669302\",\"0.0-73.0\",\"\",\"\",\"3-3\",\"4362\",\"39\",\"1\",\"Training\",\"Stims/Figures/102-J-10-4.bmp\",\"sa:saza\",\"Left\",\"39\",\"5\",\"6\",\"8\",\"C2\",\"J\",\"70\"
\"\",\"\",\"approach-retreat\",\"74\",\"675428\",\"0.0-74.0\",\"\",\"\",\"3-3\",\"4565\",\"40\",\"1\",\"Training\",\"Stims/Figures/7-C-20-4.bmp\",\"sa:sa:za\",\"Down\",\"40\",\"5\",\"7\",\"8\",\"C2\",\"J\",\"71\"
\"\",\"\",\"approach-retreat\",\"75\",\"681240\",\"0.0-75.0\",\"\",\"\",\"3-3\",\"4250\",\"37\",\"0\",\"Training\",\"Stims/Figures/7-J-10-4.bmp\",\"za:ha:ha\",\"Left\",\"39\",\"5\",\"8\",\"8\",\"C2\",\"J\",\"72\"
\"\",\"\",\"approach-retreat\",\"76\",\"687155\",\"0.0-76.0\",\"\",\"\",\"3-3\",\"4364\",\"40\",\"1\",\"Training\",\"Stims/Figures/100-J-10-3.bmp\",\"sahaha\",\"Up\",\"40\",\"5\",\"9\",\"8\",\"C2\",\"J\",\"73\"
\"\",\"\",\"approach-retreat\",\"77\",\"693196\",\"0.0-77.0\",\"\",\"\",\"3-3\",\"4475\",\"39\",\"0\",\"Training\",\"Stims/Figures/128-J-10-3.bmp\",\"sa:saha\",\"Right\",\"37\",\"5\",\"10\",\"8\",\"C2\",\"J\",\"74\"
\"\",\"\",\"approach-retreat\",\"78\",\"699637\",\"0.0-78.0\",\"\",\"\",\"3-3\",\"4904\",\"40\",\"1\",\"Training\",\"Stims/Figures/71-C-30-1.bmp\",\"fasha:sha\",\"Down\",\"40\",\"5\",\"11\",\"8\",\"C1\",\"J\",\"75\"
\"\",\"\",\"approach-retreat\",\"79\",\"706099\",\"0.0-79.0\",\"\",\"\",\"3-3\",\"4895\",\"37\",\"0\",\"Training\",\"Stims/Figures/128-C-30-3.bmp\",\"za:ha:za\",\"Right\",\"39\",\"5\",\"12\",\"8\",\"C2\",\"J\",\"76\"
\"\",\"\",\"approach-retreat\",\"80\",\"712216\",\"0.0-80.0\",\"\",\"\",\"3-3\",\"4553\",\"39\",\"0\",\"Training\",\"Stims/Figures/93-J-0-1.bmp\",\"fa:shasha\",\"Right\",\"37\",\"5\",\"13\",\"8\",\"C1\",\"J\",\"77\"
\"\",\"\",\"approach-retreat\",\"81\",\"718080\",\"0.0-81.0\",\"\",\"\",\"3-3\",\"4305\",\"38\",\"1\",\"Training\",\"Stims/Figures/85-C-20-2.bmp\",\"va:sha:sha\",\"Up\",\"38\",\"5\",\"14\",\"8\",\"C1\",\"J\",\"78\"
\"\",\"\",\"approach-retreat\",\"82\",\"724328\",\"0.0-82.0\",\"\",\"\",\"3-3\",\"4683\",\"40\",\"0\",\"Training\",\"Stims/Figures/118-C-20-2.bmp\",\"fa:sha:va\",\"Up\",\"38\",\"5\",\"15\",\"8\",\"C1\",\"J\",\"79\"
\"\",\"\",\"approach-retreat\",\"83\",\"732196\",\"0.0-83.0\",\"\",\"\",\"3-3\",\"6298\",\"37\",\"1\",\"Training\",\"Stims/Figures/71-J-0-1.bmp\",\"va:shasha\",\"Right\",\"37\",\"5\",\"16\",\"8\",\"C1\",\"J\",\"80\"
\"\",\"\",\"approach-retreat\",\"84\",\"737951\",\"0.0-84.0\",\"\",\"\",\"3-3\",\"4178\",\"39\",\"1\",\"Training\",\"Stims/Figures/7-J-10-4.bmp\",\"za:ha:ha\",\"Left\",\"39\",\"6\",\"1\",\"8\",\"C2\",\"J\",\"81\"
\"\",\"\",\"approach-retreat\",\"85\",\"744102\",\"0.0-85.0\",\"\",\"\",\"3-3\",\"4590\",\"39\",\"1\",\"Training\",\"Stims/Figures/128-C-30-3.bmp\",\"za:ha:za\",\"Right\",\"39\",\"6\",\"2\",\"8\",\"C2\",\"J\",\"82\"
\"\",\"\",\"approach-retreat\",\"86\",\"750768\",\"0.0-86.0\",\"\",\"\",\"3-3\",\"5104\",\"37\",\"1\",\"Training\",\"Stims/Figures/118-J-0-2.bmp\",\"fa:fa:sha\",\"Right\",\"37\",\"6\",\"3\",\"8\",\"C1\",\"J\",\"83\"
\"\",\"\",\"approach-retreat\",\"87\",\"756577\",\"0.0-87.0\",\"\",\"\",\"3-3\",\"4240\",\"40\",\"1\",\"Training\",\"Stims/Figures/71-C-30-1.bmp\",\"fasha:sha\",\"Down\",\"40\",\"6\",\"4\",\"8\",\"C1\",\"J\",\"84\"
\"\",\"\",\"approach-retreat\",\"88\",\"762360\",\"0.0-88.0\",\"\",\"\",\"3-3\",\"4228\",\"38\",\"1\",\"Training\",\"Stims/Figures/100-C-30-3.bmp\",\"saha:ha\",\"Up\",\"38\",\"6\",\"5\",\"8\",\"C2\",\"J\",\"85\"
\"\",\"\",\"approach-retreat\",\"89\",\"768364\",\"0.0-89.0\",\"\",\"\",\"3-3\",\"4434\",\"40\",\"0\",\"Training\",\"Stims/Figures/118-C-20-2.bmp\",\"fa:sha:va\",\"Up\",\"38\",\"6\",\"6\",\"8\",\"C1\",\"J\",\"86\"
\"\",\"\",\"approach-retreat\",\"90\",\"774232\",\"0.0-90.0\",\"\",\"\",\"3-3\",\"4316\",\"37\",\"0\",\"Training\",\"Stims/Figures/128-J-10-3.bmp\",\"sa:saha\",\"Left\",\"39\",\"6\",\"7\",\"8\",\"C2\",\"J\",\"87\"
\"\",\"\",\"approach-retreat\",\"91\",\"780032\",\"0.0-91.0\",\"\",\"\",\"3-3\",\"4248\",\"37\",\"0\",\"Training\",\"Stims/Figures/102-C-20-4.bmp\",\"za:saza\",\"Right\",\"39\",\"6\",\"8\",\"8\",\"C2\",\"J\",\"88\"
\"\",\"\",\"approach-retreat\",\"92\",\"786326\",\"0.0-92.0\",\"\",\"\",\"3-3\",\"4737\",\"40\",\"1\",\"Training\",\"Stims/Figures/71-J-0-1.bmp\",\"va:shasha\",\"Up\",\"40\",\"6\",\"9\",\"8\",\"C1\",\"J\",\"89\"
\"\",\"\",\"approach-retreat\",\"93\",\"792135\",\"0.0-93.0\",\"\",\"\",\"3-3\",\"4250\",\"40\",\"1\",\"Training\",\"Stims/Figures/93-C-30-1.bmp\",\"fa:fasha\",\"Down\",\"40\",\"6\",\"10\",\"8\",\"C1\",\"J\",\"90\"
\"\",\"\",\"approach-retreat\",\"94\",\"797961\",\"0.0-94.0\",\"\",\"\",\"3-3\",\"4256\",\"38\",\"1\",\"Training\",\"Stims/Figures/102-J-10-4.bmp\",\"sa:saza\",\"Down\",\"38\",\"6\",\"11\",\"8\",\"C2\",\"J\",\"91\"
\"\",\"\",\"approach-retreat\",\"95\",\"803811\",\"0.0-95.0\",\"\",\"\",\"3-3\",\"4298\",\"37\",\"1\",\"Training\",\"Stims/Figures/93-J-0-1.bmp\",\"fa:shasha\",\"Right\",\"37\",\"6\",\"12\",\"8\",\"C1\",\"J\",\"92\"
\"\",\"\",\"approach-retreat\",\"96\",\"809644\",\"0.0-96.0\",\"\",\"\",\"3-3\",\"4272\",\"38\",\"0\",\"Training\",\"Stims/Figures/85-C-20-2.bmp\",\"va:sha:sha\",\"Down\",\"40\",\"6\",\"13\",\"8\",\"C1\",\"J\",\"93\"
\"\",\"\",\"approach-retreat\",\"97\",\"815381\",\"0.0-97.0\",\"\",\"\",\"3-3\",\"4156\",\"39\",\"0\",\"Training\",\"Stims/Figures/7-C-20-4.bmp\",\"sa:sa:za\",\"Left\",\"37\",\"6\",\"14\",\"8\",\"C2\",\"J\",\"94\"
\"\",\"\",\"approach-retreat\",\"98\",\"821434\",\"0.0-98.0\",\"\",\"\",\"3-3\",\"4514\",\"38\",\"0\",\"Training\",\"Stims/Figures/100-J-10-3.bmp\",\"sahaha\",\"Up\",\"40\",\"6\",\"15\",\"8\",\"C2\",\"J\",\"95\"
\"\",\"\",\"approach-retreat\",\"99\",\"827403\",\"0.0-99.0\",\"\",\"\",\"3-3\",\"4429\",\"37\",\"0\",\"Training\",\"Stims/Figures/85-J-0-2.bmp\",\"fashava\",\"Left\",\"39\",\"6\",\"16\",\"8\",\"C1\",\"J\",\"96\"
\"\",\"\",\"approach-retreat\",\"100\",\"833082\",\"0.0-100.0\",\"\",\"\",\"3-3\",\"4107\",\"38\",\"1\",\"Training\",\"Stims/Figures/7-J-10-4.bmp\",\"za:ha:ha\",\"Down\",\"38\",\"7\",\"1\",\"8\",\"C2\",\"J\",\"97\"
\"\",\"\",\"approach-retreat\",\"101\",\"838758\",\"0.0-101.0\",\"\",\"\",\"3-3\",\"4109\",\"40\",\"0\",\"Training\",\"Stims/Figures/100-J-10-3.bmp\",\"sahaha\",\"Down\",\"38\",\"7\",\"2\",\"8\",\"C2\",\"J\",\"98\"
\"\",\"\",\"approach-retreat\",\"102\",\"844510\",\"0.0-102.0\",\"\",\"\",\"3-3\",\"4197\",\"39\",\"0\",\"Training\",\"Stims/Figures/128-J-10-3.bmp\",\"sa:saha\",\"Right\",\"37\",\"7\",\"3\",\"8\",\"C2\",\"J\",\"99\"
\"\",\"\",\"approach-retreat\",\"103\",\"851345\",\"0.0-103.0\",\"\",\"\",\"3-3\",\"5272\",\"39\",\"0\",\"Training\",\"Stims/Figures/93-C-30-1.bmp\",\"fa:fasha\",\"Left\",\"37\",\"7\",\"4\",\"8\",\"C1\",\"J\",\"100\"
\"\",\"\",\"approach-retreat\",\"104\",\"857687\",\"0.0-104.0\",\"\",\"\",\"3-3\",\"4804\",\"38\",\"1\",\"Training\",\"Stims/Figures/85-C-20-2.bmp\",\"va:sha:sha\",\"Up\",\"38\",\"7\",\"5\",\"8\",\"C1\",\"J\",\"101\"
\"\",\"\",\"approach-retreat\",\"105\",\"864674\",\"0.0-105.0\",\"\",\"\",\"3-3\",\"5434\",\"38\",\"0\",\"Training\",\"Stims/Figures/71-C-30-1.bmp\",\"fasha:sha\",\"Down\",\"40\",\"7\",\"6\",\"8\",\"C1\",\"J\",\"102\"
\"\",\"\",\"approach-retreat\",\"106\",\"870826\",\"0.0-106.0\",\"\",\"\",\"3-3\",\"4610\",\"38\",\"0\",\"Training\",\"Stims/Figures/102-C-20-4.bmp\",\"za:saza\",\"Down\",\"40\",\"7\",\"7\",\"8\",\"C2\",\"J\",\"103\"
\"\",\"\",\"approach-retreat\",\"107\",\"878092\",\"0.0-107.0\",\"\",\"\",\"3-3\",\"5722\",\"38\",\"0\",\"Training\",\"Stims/Figures/118-J-0-2.bmp\",\"fa:fa:sha\",\"Up\",\"40\",\"7\",\"8\",\"8\",\"C1\",\"J\",\"104\"
\"\",\"\",\"approach-retreat\",\"108\",\"884095\",\"0.0-108.0\",\"\",\"\",\"3-3\",\"4453\",\"39\",\"0\",\"Training\",\"Stims/Figures/102-J-10-4.bmp\",\"sa:saza\",\"Right\",\"37\",\"7\",\"9\",\"8\",\"C2\",\"J\",\"105\"
\"\",\"\",\"approach-retreat\",\"109\",\"889812\",\"0.0-109.0\",\"\",\"\",\"3-3\",\"4152\",\"40\",\"1\",\"Training\",\"Stims/Figures/71-J-0-1.bmp\",\"va:shasha\",\"Up\",\"40\",\"7\",\"10\",\"8\",\"C1\",\"J\",\"106\"
\"\",\"\",\"approach-retreat\",\"110\",\"895802\",\"0.0-110.0\",\"\",\"\",\"3-3\",\"4427\",\"37\",\"1\",\"Training\",\"Stims/Figures/128-C-30-3.bmp\",\"za:ha:za\",\"Left\",\"37\",\"7\",\"11\",\"8\",\"C2\",\"J\",\"107\"
\"\",\"\",\"approach-retreat\",\"111\",\"901567\",\"0.0-111.0\",\"\",\"\",\"3-3\",\"4196\",\"40\",\"1\",\"Training\",\"Stims/Figures/93-J-0-1.bmp\",\"fa:shasha\",\"Up\",\"40\",\"7\",\"12\",\"8\",\"C1\",\"J\",\"108\"
\"\",\"\",\"approach-retreat\",\"112\",\"907287\",\"0.0-112.0\",\"\",\"\",\"3-3\",\"4147\",\"39\",\"1\",\"Training\",\"Stims/Figures/118-C-20-2.bmp\",\"fa:sha:va\",\"Right\",\"39\",\"7\",\"13\",\"8\",\"C1\",\"J\",\"109\"
\"\",\"\",\"approach-retreat\",\"113\",\"913052\",\"0.0-113.0\",\"\",\"\",\"3-3\",\"4205\",\"39\",\"1\",\"Training\",\"Stims/Figures/85-J-0-2.bmp\",\"fashava\",\"Left\",\"39\",\"7\",\"14\",\"8\",\"C1\",\"J\",\"110\"
\"\",\"\",\"approach-retreat\",\"114\",\"918794\",\"0.0-114.0\",\"\",\"\",\"3-3\",\"4185\",\"37\",\"1\",\"Training\",\"Stims/Figures/7-C-20-4.bmp\",\"sa:sa:za\",\"Left\",\"37\",\"7\",\"15\",\"8\",\"C2\",\"J\",\"111\"
\"\",\"\",\"approach-retreat\",\"115\",\"924664\",\"0.0-115.0\",\"\",\"\",\"3-3\",\"4307\",\"39\",\"1\",\"Training\",\"Stims/Figures/100-C-30-3.bmp\",\"saha:ha\",\"Right\",\"39\",\"7\",\"16\",\"8\",\"C2\",\"J\",\"112\"
\"\",\"\",\"approach-retreat\",\"116\",\"930299\",\"0.0-116.0\",\"\",\"\",\"3-3\",\"4067\",\"40\",\"0\",\"Training\",\"Stims/Figures/102-J-10-4.bmp\",\"sa:saza\",\"Down\",\"38\",\"8\",\"1\",\"8\",\"C2\",\"J\",\"113\"
\"\",\"\",\"approach-retreat\",\"117\",\"936039\",\"0.0-117.0\",\"\",\"\",\"3-3\",\"4193\",\"37\",\"0\",\"Training\",\"Stims/Figures/85-C-20-2.bmp\",\"va:sha:sha\",\"Right\",\"39\",\"8\",\"2\",\"8\",\"C1\",\"J\",\"114\"
\"\",\"\",\"approach-retreat\",\"118\",\"942995\",\"0.0-118.0\",\"\",\"\",\"3-3\",\"5400\",\"40\",\"0\",\"Training\",\"Stims/Figures/100-C-30-3.bmp\",\"saha:ha\",\"Up\",\"38\",\"8\",\"3\",\"8\",\"C2\",\"J\",\"115\"
\"\",\"\",\"approach-retreat\",\"119\",\"948871\",\"0.0-119.0\",\"\",\"\",\"3-3\",\"4322\",\"40\",\"1\",\"Training\",\"Stims/Figures/93-C-30-1.bmp\",\"fa:fasha\",\"Down\",\"40\",\"8\",\"4\",\"8\",\"C1\",\"J\",\"116\"
\"\",\"\",\"approach-retreat\",\"120\",\"954693\",\"0.0-120.0\",\"\",\"\",\"3-3\",\"4247\",\"39\",\"0\",\"Training\",\"Stims/Figures/118-C-20-2.bmp\",\"fa:sha:va\",\"Left\",\"37\",\"8\",\"5\",\"8\",\"C1\",\"J\",\"117\"
\"\",\"\",\"approach-retreat\",\"121\",\"961099\",\"0.0-121.0\",\"\",\"\",\"3-3\",\"4867\",\"39\",\"1\",\"Training\",\"Stims/Figures/102-C-20-4.bmp\",\"za:saza\",\"Right\",\"39\",\"8\",\"6\",\"8\",\"C2\",\"J\",\"118\"
\"\",\"\",\"approach-retreat\",\"122\",\"968011\",\"0.0-122.0\",\"\",\"\",\"3-3\",\"5337\",\"40\",\"1\",\"Training\",\"Stims/Figures/85-J-0-2.bmp\",\"fashava\",\"Up\",\"40\",\"8\",\"7\",\"8\",\"C1\",\"J\",\"119\"
\"\",\"\",\"approach-retreat\",\"123\",\"974001\",\"0.0-123.0\",\"\",\"\",\"3-3\",\"4446\",\"37\",\"1\",\"Training\",\"Stims/Figures/128-C-30-3.bmp\",\"za:ha:za\",\"Left\",\"37\",\"8\",\"8\",\"8\",\"C2\",\"J\",\"120\"
\"\",\"\",\"approach-retreat\",\"124\",\"979926\",\"0.0-124.0\",\"\",\"\",\"3-3\",\"4356\",\"39\",\"1\",\"Training\",\"Stims/Figures/118-J-0-2.bmp\",\"fa:fa:sha\",\"Left\",\"39\",\"8\",\"9\",\"8\",\"C1\",\"J\",\"121\"
\"\",\"\",\"approach-retreat\",\"125\",\"986518\",\"0.0-125.0\",\"\",\"\",\"3-3\",\"5051\",\"38\",\"1\",\"Training\",\"Stims/Figures/128-J-10-3.bmp\",\"sa:saha\",\"Down\",\"38\",\"8\",\"10\",\"8\",\"C2\",\"J\",\"122\"
\"\",\"\",\"approach-retreat\",\"126\",\"992163\",\"0.0-126.0\",\"\",\"\",\"3-3\",\"4090\",\"40\",\"0\",\"Training\",\"Stims/Figures/71-C-30-1.bmp\",\"fasha:sha\",\"Up\",\"38\",\"8\",\"11\",\"8\",\"C1\",\"J\",\"123\"
\"\",\"\",\"approach-retreat\",\"127\",\"998144\",\"0.0-127.0\",\"\",\"\",\"3-3\",\"4432\",\"39\",\"0\",\"Training\",\"Stims/Figures/7-J-10-4.bmp\",\"za:ha:ha\",\"Right\",\"37\",\"8\",\"12\",\"8\",\"C2\",\"J\",\"124\"
\"\",\"\",\"approach-retreat\",\"128\",\"1003933\",\"0.0-128.0\",\"\",\"\",\"3-3\",\"4228\",\"37\",\"1\",\"Training\",\"Stims/Figures/100-J-10-3.bmp\",\"sahaha\",\"Right\",\"37\",\"8\",\"13\",\"8\",\"C2\",\"J\",\"125\"
\"\",\"\",\"approach-retreat\",\"129\",\"1009702\",\"0.0-129.0\",\"\",\"\",\"3-3\",\"4208\",\"39\",\"0\",\"Training\",\"Stims/Figures/7-C-20-4.bmp\",\"sa:sa:za\",\"Left\",\"37\",\"8\",\"14\",\"8\",\"C2\",\"J\",\"126\"
\"\",\"\",\"approach-retreat\",\"130\",\"1015916\",\"0.0-130.0\",\"\",\"\",\"3-3\",\"4641\",\"38\",\"1\",\"Training\",\"Stims/Figures/71-J-0-1.bmp\",\"va:shasha\",\"Down\",\"38\",\"8\",\"15\",\"8\",\"C1\",\"J\",\"127\"
\"\",\"\",\"approach-retreat\",\"131\",\"1021706\",\"0.0-131.0\",\"\",\"\",\"3-3\",\"4233\",\"40\",\"1\",\"Training\",\"Stims/Figures/93-J-0-1.bmp\",\"fa:shasha\",\"Up\",\"40\",\"8\",\"16\",\"8\",\"C1\",\"J\",\"128\"
\"\",\"\",\"approach-retreat\",\"132\",\"1028358\",\"0.0-132.0\",\"\",\"\",\"3-3\",\"5085\",\"39\",\"1\",\"Training\",\"Stims/Figures/102-J-10-4.bmp\",\"sa:saza\",\"Left\",\"39\",\"9\",\"1\",\"8\",\"C2\",\"J\",\"129\"
\"\",\"\",\"approach-retreat\",\"133\",\"1034478\",\"0.0-133.0\",\"\",\"\",\"3-3\",\"4564\",\"40\",\"0\",\"Training\",\"Stims/Figures/128-C-30-3.bmp\",\"za:ha:za\",\"Up\",\"38\",\"9\",\"2\",\"8\",\"C2\",\"J\",\"130\"
\"\",\"\",\"approach-retreat\",\"134\",\"1040384\",\"0.0-134.0\",\"\",\"\",\"3-3\",\"4347\",\"40\",\"0\",\"Training\",\"Stims/Figures/71-C-30-1.bmp\",\"fasha:sha\",\"Up\",\"38\",\"9\",\"3\",\"8\",\"C1\",\"J\",\"131\"
\"\",\"\",\"approach-retreat\",\"135\",\"1046182\",\"0.0-135.0\",\"\",\"\",\"3-3\",\"4277\",\"39\",\"0\",\"Training\",\"Stims/Figures/7-J-10-4.bmp\",\"za:ha:ha\",\"Right\",\"37\",\"9\",\"4\",\"8\",\"C2\",\"J\",\"132\"
\"\",\"\",\"approach-retreat\",\"136\",\"1052022\",\"0.0-136.0\",\"\",\"\",\"3-3\",\"4286\",\"39\",\"1\",\"Training\",\"Stims/Figures/128-J-10-3.bmp\",\"sa:saha\",\"Left\",\"39\",\"9\",\"5\",\"8\",\"C2\",\"J\",\"133\"
\"\",\"\",\"approach-retreat\",\"137\",\"1058146\",\"0.0-137.0\",\"\",\"\",\"3-3\",\"4567\",\"39\",\"1\",\"Training\",\"Stims/Figures/100-C-30-3.bmp\",\"saha:ha\",\"Right\",\"39\",\"9\",\"6\",\"8\",\"C2\",\"J\",\"134\"
\"\",\"\",\"approach-retreat\",\"138\",\"1065795\",\"0.0-138.0\",\"\",\"\",\"3-3\",\"6099\",\"38\",\"0\",\"Training\",\"Stims/Figures/71-J-0-1.bmp\",\"va:shasha\",\"Up\",\"40\",\"9\",\"7\",\"8\",\"C1\",\"J\",\"135\"
\"\",\"\",\"approach-retreat\",\"139\",\"1071541\",\"0.0-139.0\",\"\",\"\",\"3-3\",\"4181\",\"37\",\"1\",\"Training\",\"Stims/Figures/100-J-10-3.bmp\",\"sahaha\",\"Right\",\"37\",\"9\",\"8\",\"8\",\"C2\",\"J\",\"136\"
\"\",\"\",\"approach-retreat\",\"140\",\"1077468\",\"0.0-140.0\",\"\",\"\",\"3-3\",\"4373\",\"38\",\"0\",\"Training\",\"Stims/Figures/85-C-20-2.bmp\",\"va:sha:sha\",\"Down\",\"40\",\"9\",\"9\",\"8\",\"C1\",\"J\",\"137\"
\"\",\"\",\"approach-retreat\",\"141\",\"1084354\",\"0.0-141.0\",\"\",\"\",\"3-3\",\"5326\",\"37\",\"1\",\"Training\",\"Stims/Figures/7-C-20-4.bmp\",\"sa:sa:za\",\"Left\",\"37\",\"9\",\"10\",\"8\",\"C2\",\"J\",\"138\"
\"\",\"\",\"approach-retreat\",\"142\",\"1090087\",\"0.0-142.0\",\"\",\"\",\"3-3\",\"4165\",\"39\",\"1\",\"Training\",\"Stims/Figures/118-J-0-2.bmp\",\"fa:fa:sha\",\"Left\",\"39\",\"9\",\"11\",\"8\",\"C1\",\"J\",\"139\"
\"\",\"\",\"approach-retreat\",\"143\",\"1096260\",\"0.0-143.0\",\"\",\"\",\"3-3\",\"4616\",\"37\",\"0\",\"Training\",\"Stims/Figures/102-C-20-4.bmp\",\"za:saza\",\"Right\",\"39\",\"9\",\"12\",\"8\",\"C2\",\"J\",\"140\"
\"\",\"\",\"approach-retreat\",\"144\",\"1102107\",\"0.0-144.0\",\"\",\"\",\"3-3\",\"4294\",\"38\",\"1\",\"Training\",\"Stims/Figures/93-J-0-1.bmp\",\"fa:shasha\",\"Down\",\"38\",\"9\",\"13\",\"8\",\"C1\",\"J\",\"141\"
\"\",\"\",\"approach-retreat\",\"145\",\"1108060\",\"0.0-145.0\",\"\",\"\",\"3-3\",\"4401\",\"38\",\"1\",\"Training\",\"Stims/Figures/118-C-20-2.bmp\",\"fa:sha:va\",\"Up\",\"38\",\"9\",\"14\",\"8\",\"C1\",\"J\",\"142\"
\"\",\"\",\"approach-retreat\",\"146\",\"1113783\",\"0.0-146.0\",\"\",\"\",\"3-3\",\"4149\",\"40\",\"0\",\"Training\",\"Stims/Figures/85-J-0-2.bmp\",\"fashava\",\"Down\",\"38\",\"9\",\"15\",\"8\",\"C1\",\"J\",\"143\"
\"\",\"\",\"approach-retreat\",\"147\",\"1119634\",\"0.0-147.0\",\"\",\"\",\"3-3\",\"4288\",\"40\",\"1\",\"Training\",\"Stims/Figures/93-C-30-1.bmp\",\"fa:fasha\",\"Down\",\"40\",\"9\",\"16\",\"8\",\"C1\",\"J\",\"144\"
\"12827\",\"\",\"instructions\",\"148\",\"1132463\",\"0.0-148.0\",\"[{\"\"page_index\"\":0,\"\"viewing_time\"\":12822}]\",\"\",\"\",\"\",\"\",\"\",\"\",\"\",\"\",\"\",\"\",\"\",\"\",\"\",\"\",\"\",\"\"
\"\",\"\",\"approach-retreat\",\"149\",\"1139678\",\"0.0-149.0\",\"\",\"\",\"3-3\",\"5672\",\"40\",\"1\",\"Testing\",\"Stims/Figures/87-C-20-4.bmp\",\"sasa:za\",\"Down\",\"40\",\"1\",\"1\",\"8\",\"C2\",\"J\",\"1\"
\"\",\"\",\"approach-retreat\",\"150\",\"1145676\",\"0.0-150.0\",\"\",\"\",\"3-3\",\"4440\",\"38\",\"1\",\"Testing\",\"Stims/Figures/7-C-20-4.bmp\",\"sa:sa:za\",\"Up\",\"38\",\"1\",\"2\",\"8\",\"C2\",\"J\",\"2\"
\"\",\"\",\"approach-retreat\",\"151\",\"1151782\",\"0.0-151.0\",\"\",\"\",\"3-3\",\"4560\",\"40\",\"1\",\"Testing\",\"Stims/Figures/139-C-20-2.bmp\",\"fa:fa:va\",\"Down\",\"40\",\"1\",\"3\",\"8\",\"C1\",\"J\",\"3\"
\"\",\"\",\"approach-retreat\",\"152\",\"1157904\",\"0.0-152.0\",\"\",\"\",\"3-3\",\"4580\",\"37\",\"0\",\"Testing\",\"Stims/Figures/111-C-30-3.bmp\",\"zasaha\",\"Right\",\"39\",\"1\",\"4\",\"8\",\"C2\",\"J\",\"4\"
\"\",\"\",\"approach-retreat\",\"153\",\"1164001\",\"0.0-153.0\",\"\",\"\",\"3-3\",\"4547\",\"38\",\"0\",\"Testing\",\"Stims/Figures/93-J-0-1.bmp\",\"fa:shasha\",\"Up\",\"40\",\"1\",\"5\",\"8\",\"C1\",\"J\",\"5\"
\"\",\"\",\"approach-retreat\",\"154\",\"1170906\",\"0.0-154.0\",\"\",\"\",\"3-3\",\"5346\",\"40\",\"1\",\"Testing\",\"Stims/Figures/118-C-20-2.bmp\",\"fa:sha:va\",\"Down\",\"40\",\"1\",\"6\",\"8\",\"C1\",\"J\",\"6\"
\"\",\"\",\"approach-retreat\",\"155\",\"1177858\",\"0.0-155.0\",\"\",\"\",\"3-3\",\"5386\",\"37\",\"0\",\"Testing\",\"Stims/Figures/7-J-10-4.bmp\",\"za:ha:ha\",\"Left\",\"39\",\"1\",\"7\",\"8\",\"C2\",\"J\",\"7\"
\"\",\"\",\"approach-retreat\",\"156\",\"1184116\",\"0.0-156.0\",\"\",\"\",\"3-3\",\"4688\",\"38\",\"1\",\"Testing\",\"Stims/Figures/71-J-0-1.bmp\",\"va:shasha\",\"Down\",\"38\",\"1\",\"8\",\"8\",\"C1\",\"J\",\"8\"
\"\",\"\",\"approach-retreat\",\"157\",\"1190082\",\"0.0-157.0\",\"\",\"\",\"3-3\",\"4419\",\"39\",\"1\",\"Testing\",\"Stims/Figures/128-C-30-3.bmp\",\"za:ha:za\",\"Right\",\"39\",\"1\",\"9\",\"8\",\"C2\",\"J\",\"9\"
\"\",\"\",\"approach-retreat\",\"158\",\"1195849\",\"0.0-158.0\",\"\",\"\",\"3-3\",\"4224\",\"37\",\"1\",\"Testing\",\"Stims/Figures/100-J-10-3.bmp\",\"sahaha\",\"Right\",\"37\",\"1\",\"10\",\"8\",\"C2\",\"J\",\"10\"
\"\",\"\",\"approach-retreat\",\"159\",\"1202540\",\"0.0-159.0\",\"\",\"\",\"3-3\",\"5145\",\"40\",\"1\",\"Testing\",\"Stims/Figures/128-J-10-3.bmp\",\"sa:saha\",\"Up\",\"40\",\"1\",\"11\",\"8\",\"C2\",\"J\",\"11\"
\"\",\"\",\"approach-retreat\",\"160\",\"1208279\",\"0.0-160.0\",\"\",\"\",\"3-3\",\"4181\",\"37\",\"0\",\"Testing\",\"Stims/Figures/85-C-20-2.bmp\",\"va:sha:sha\",\"Right\",\"39\",\"1\",\"12\",\"8\",\"C1\",\"J\",\"12\"
\"\",\"\",\"approach-retreat\",\"161\",\"1214131\",\"0.0-161.0\",\"\",\"\",\"3-3\",\"4296\",\"38\",\"0\",\"Testing\",\"Stims/Figures/71-C-30-1.bmp\",\"fasha:sha\",\"Down\",\"40\",\"1\",\"13\",\"8\",\"C1\",\"J\",\"13\"
\"\",\"\",\"approach-retreat\",\"162\",\"1220032\",\"0.0-162.0\",\"\",\"\",\"3-3\",\"4354\",\"38\",\"0\",\"Testing\",\"Stims/Figures/111-J-10-3.bmp\",\"zaha:za\",\"Up\",\"40\",\"1\",\"14\",\"8\",\"C2\",\"J\",\"14\"
\"\",\"\",\"approach-retreat\",\"163\",\"1226400\",\"0.0-163.0\",\"\",\"\",\"3-3\",\"4831\",\"37\",\"0\",\"Testing\",\"Stims/Figures/85-J-0-2.bmp\",\"fashava\",\"Left\",\"39\",\"1\",\"15\",\"8\",\"C1\",\"J\",\"15\"
\"\",\"\",\"approach-retreat\",\"164\",\"1232438\",\"0.0-164.0\",\"\",\"\",\"3-3\",\"4474\",\"40\",\"0\",\"Testing\",\"Stims/Figures/100-C-30-3.bmp\",\"saha:ha\",\"Up\",\"38\",\"1\",\"16\",\"8\",\"C2\",\"J\",\"16\"
\"\",\"\",\"approach-retreat\",\"165\",\"1240223\",\"0.0-165.0\",\"\",\"\",\"3-3\",\"6238\",\"37\",\"1\",\"Testing\",\"Stims/Figures/102-C-20-4.bmp\",\"za:saza\",\"Left\",\"37\",\"1\",\"17\",\"8\",\"C2\",\"J\",\"17\"
\"\",\"\",\"approach-retreat\",\"166\",\"1246107\",\"0.0-166.0\",\"\",\"\",\"3-3\",\"4359\",\"39\",\"0\",\"Testing\",\"Stims/Figures/57-C-30-1.bmp\",\"va:sha:va\",\"Left\",\"37\",\"1\",\"18\",\"8\",\"C1\",\"J\",\"18\"
\"\",\"\",\"approach-retreat\",\"167\",\"1252057\",\"0.0-167.0\",\"\",\"\",\"3-3\",\"4403\",\"39\",\"1\",\"Testing\",\"Stims/Figures/93-C-30-1.bmp\",\"fa:fasha\",\"Right\",\"39\",\"1\",\"19\",\"8\",\"C1\",\"J\",\"19\"
\"\",\"\",\"approach-retreat\",\"168\",\"1257896\",\"0.0-168.0\",\"\",\"\",\"3-3\",\"4317\",\"37\",\"0\",\"Testing\",\"Stims/Figures/87-J-10-4.bmp\",\"sa:sa:ha\",\"Left\",\"39\",\"1\",\"20\",\"8\",\"C2\",\"J\",\"20\"
\"\",\"\",\"approach-retreat\",\"169\",\"1263618\",\"0.0-169.0\",\"\",\"\",\"3-3\",\"4170\",\"39\",\"0\",\"Testing\",\"Stims/Figures/102-J-10-4.bmp\",\"sa:saza\",\"Right\",\"37\",\"1\",\"21\",\"8\",\"C2\",\"J\",\"21\"
\"\",\"\",\"approach-retreat\",\"170\",\"1269586\",\"0.0-170.0\",\"\",\"\",\"3-3\",\"4423\",\"40\",\"1\",\"Testing\",\"Stims/Figures/118-J-0-2.bmp\",\"fa:fa:sha\",\"Up\",\"40\",\"1\",\"22\",\"8\",\"C1\",\"J\",\"22\"
\"\",\"\",\"approach-retreat\",\"171\",\"1275539\",\"0.0-171.0\",\"\",\"\",\"3-3\",\"4398\",\"38\",\"1\",\"Testing\",\"Stims/Figures/139-J-0-2.bmp\",\"vashava\",\"Down\",\"38\",\"1\",\"23\",\"8\",\"C1\",\"J\",\"23\"
\"\",\"\",\"approach-retreat\",\"172\",\"1282466\",\"0.0-172.0\",\"\",\"\",\"3-3\",\"5390\",\"39\",\"1\",\"Testing\",\"Stims/Figures/57-J-0-1.bmp\",\"vashasha\",\"Left\",\"39\",\"1\",\"24\",\"8\",\"C1\",\"J\",\"24\"
\"\",\"\",\"approach-retreat\",\"173\",\"1288366\",\"0.0-173.0\",\"\",\"\",\"3-3\",\"4355\",\"37\",\"0\",\"Testing\",\"Stims/Figures/7-C-20-4.bmp\",\"sa:sa:za\",\"Right\",\"39\",\"2\",\"1\",\"8\",\"C2\",\"J\",\"25\"
\"\",\"\",\"approach-retreat\",\"174\",\"1294248\",\"0.0-174.0\",\"\",\"\",\"3-3\",\"4325\",\"39\",\"1\",\"Testing\",\"Stims/Figures/57-C-30-1.bmp\",\"va:sha:va\",\"Right\",\"39\",\"2\",\"2\",\"8\",\"C1\",\"J\",\"26\"
\"\",\"\",\"approach-retreat\",\"175\",\"1301134\",\"0.0-175.0\",\"\",\"\",\"3-3\",\"5357\",\"40\",\"1\",\"Testing\",\"Stims/Figures/111-J-10-3.bmp\",\"zaha:za\",\"Up\",\"40\",\"2\",\"3\",\"8\",\"C2\",\"J\",\"27\"
\"\",\"\",\"approach-retreat\",\"176\",\"1308236\",\"0.0-176.0\",\"\",\"\",\"3-3\",\"5555\",\"37\",\"1\",\"Testing\",\"Stims/Figures/128-C-30-3.bmp\",\"za:ha:za\",\"Left\",\"37\",\"2\",\"4\",\"8\",\"C2\",\"J\",\"28\"
\"\",\"\",\"approach-retreat\",\"177\",\"1314287\",\"0.0-177.0\",\"\",\"\",\"3-3\",\"4505\",\"40\",\"1\",\"Testing\",\"Stims/Figures/93-J-0-1.bmp\",\"fa:shasha\",\"Up\",\"40\",\"2\",\"5\",\"8\",\"C1\",\"J\",\"29\"
\"\",\"\",\"approach-retreat\",\"178\",\"1320676\",\"0.0-178.0\",\"\",\"\",\"3-3\",\"4840\",\"37\",\"0\",\"Testing\",\"Stims/Figures/7-J-10-4.bmp\",\"za:ha:ha\",\"Left\",\"39\",\"2\",\"6\",\"8\",\"C2\",\"J\",\"30\"
\"\",\"\",\"approach-retreat\",\"179\",\"1327074\",\"0.0-179.0\",\"\",\"\",\"3-3\",\"4864\",\"39\",\"0\",\"Testing\",\"Stims/Figures/87-C-20-4.bmp\",\"sasa:za\",\"Left\",\"37\",\"2\",\"7\",\"8\",\"C2\",\"J\",\"31\"
\"\",\"\",\"approach-retreat\",\"180\",\"1333627\",\"0.0-180.0\",\"\",\"\",\"3-3\",\"5005\",\"40\",\"1\",\"Testing\",\"Stims/Figures/139-J-0-2.bmp\",\"vashava\",\"Up\",\"40\",\"2\",\"8\",\"8\",\"C1\",\"J\",\"32\"
\"\",\"\",\"approach-retreat\",\"181\",\"1339597\",\"0.0-181.0\",\"\",\"\",\"3-3\",\"4419\",\"38\",\"1\",\"Testing\",\"Stims/Figures/57-J-0-1.bmp\",\"vashasha\",\"Down\",\"38\",\"2\",\"9\",\"8\",\"C1\",\"J\",\"33\"
\"\",\"\",\"approach-retreat\",\"182\",\"1345735\",\"0.0-182.0\",\"\",\"\",\"3-3\",\"4598\",\"39\",\"0\",\"Testing\",\"Stims/Figures/100-C-30-3.bmp\",\"saha:ha\",\"Left\",\"37\",\"2\",\"10\",\"8\",\"C2\",\"J\",\"34\"
\"\",\"\",\"approach-retreat\",\"183\",\"1352240\",\"0.0-183.0\",\"\",\"\",\"3-3\",\"4953\",\"39\",\"0\",\"Testing\",\"Stims/Figures/71-C-30-1.bmp\",\"fasha:sha\",\"Left\",\"37\",\"2\",\"11\",\"8\",\"C1\",\"J\",\"35\"
\"\",\"\",\"approach-retreat\",\"184\",\"1358159\",\"0.0-184.0\",\"\",\"\",\"3-3\",\"4391\",\"39\",\"1\",\"Testing\",\"Stims/Figures/93-C-30-1.bmp\",\"fa:fasha\",\"Right\",\"39\",\"2\",\"12\",\"8\",\"C1\",\"J\",\"36\"
\"\",\"\",\"approach-retreat\",\"185\",\"1363920\",\"0.0-185.0\",\"\",\"\",\"3-3\",\"4201\",\"39\",\"0\",\"Testing\",\"Stims/Figures/100-J-10-3.bmp\",\"sahaha\",\"Right\",\"37\",\"2\",\"13\",\"8\",\"C2\",\"J\",\"37\"
\"\",\"\",\"approach-retreat\",\"186\",\"1369881\",\"0.0-186.0\",\"\",\"\",\"3-3\",\"4416\",\"37\",\"0\",\"Testing\",\"Stims/Figures/87-J-10-4.bmp\",\"sa:sa:ha\",\"Left\",\"39\",\"2\",\"14\",\"8\",\"C2\",\"J\",\"38\"
\"\",\"\",\"approach-retreat\",\"187\",\"1375580\",\"0.0-187.0\",\"\",\"\",\"3-3\",\"4151\",\"38\",\"1\",\"Testing\",\"Stims/Figures/102-J-10-4.bmp\",\"sa:saza\",\"Down\",\"38\",\"2\",\"15\",\"8\",\"C2\",\"J\",\"39\"
\"\",\"\",\"approach-retreat\",\"188\",\"1381248\",\"0.0-188.0\",\"\",\"\",\"3-3\",\"4121\",\"38\",\"0\",\"Testing\",\"Stims/Figures/102-C-20-4.bmp\",\"za:saza\",\"Down\",\"40\",\"2\",\"16\",\"8\",\"C2\",\"J\",\"40\"
\"\",\"\",\"approach-retreat\",\"189\",\"1386939\",\"0.0-189.0\",\"\",\"\",\"3-3\",\"4148\",\"37\",\"0\",\"Testing\",\"Stims/Figures/85-C-20-2.bmp\",\"va:sha:sha\",\"Right\",\"39\",\"2\",\"17\",\"8\",\"C1\",\"J\",\"41\"
\"\",\"\",\"approach-retreat\",\"190\",\"1392558\",\"0.0-190.0\",\"\",\"\",\"3-3\",\"4068\",\"38\",\"0\",\"Testing\",\"Stims/Figures/118-C-20-2.bmp\",\"fa:sha:va\",\"Down\",\"40\",\"2\",\"18\",\"8\",\"C1\",\"J\",\"42\"
\"\",\"\",\"approach-retreat\",\"191\",\"1398272\",\"0.0-191.0\",\"\",\"\",\"3-3\",\"4159\",\"40\",\"1\",\"Testing\",\"Stims/Figures/71-J-0-1.bmp\",\"va:shasha\",\"Up\",\"40\",\"2\",\"19\",\"8\",\"C1\",\"J\",\"43\"
\"\",\"\",\"approach-retreat\",\"192\",\"1403947\",\"0.0-192.0\",\"\",\"\",\"3-3\",\"4123\",\"40\",\"1\",\"Testing\",\"Stims/Figures/111-C-30-3.bmp\",\"zasaha\",\"Down\",\"40\",\"2\",\"20\",\"8\",\"C2\",\"J\",\"44\"
\"\",\"\",\"approach-retreat\",\"193\",\"1409834\",\"0.0-193.0\",\"\",\"\",\"3-3\",\"4359\",\"39\",\"1\",\"Testing\",\"Stims/Figures/139-C-20-2.bmp\",\"fa:fa:va\",\"Right\",\"39\",\"2\",\"21\",\"8\",\"C1\",\"J\",\"45\"
\"\",\"\",\"approach-retreat\",\"194\",\"1415543\",\"0.0-194.0\",\"\",\"\",\"3-3\",\"4164\",\"38\",\"0\",\"Testing\",\"Stims/Figures/128-J-10-3.bmp\",\"sa:saha\",\"Up\",\"40\",\"2\",\"22\",\"8\",\"C2\",\"J\",\"46\"
\"\",\"\",\"approach-retreat\",\"195\",\"1421272\",\"0.0-195.0\",\"\",\"\",\"3-3\",\"4189\",\"40\",\"0\",\"Testing\",\"Stims/Figures/85-J-0-2.bmp\",\"fashava\",\"Down\",\"38\",\"2\",\"23\",\"8\",\"C1\",\"J\",\"47\"
\"\",\"\",\"approach-retreat\",\"196\",\"1427308\",\"0.0-196.0\",\"\",\"\",\"3-3\",\"4495\",\"38\",\"0\",\"Testing\",\"Stims/Figures/118-J-0-2.bmp\",\"fa:fa:sha\",\"Up\",\"40\",\"2\",\"24\",\"8\",\"C1\",\"J\",\"48\"
\"\",\"\",\"approach-retreat\",\"197\",\"1433426\",\"0.0-197.0\",\"\",\"\",\"3-3\",\"4579\",\"40\",\"1\",\"Testing\",\"Stims/Figures/100-C-30-3.bmp\",\"saha:ha\",\"Down\",\"40\",\"3\",\"1\",\"8\",\"C2\",\"J\",\"49\"
\"\",\"\",\"approach-retreat\",\"198\",\"1439096\",\"0.0-198.0\",\"\",\"\",\"3-3\",\"4124\",\"39\",\"1\",\"Testing\",\"Stims/Figures/87-J-10-4.bmp\",\"sa:sa:ha\",\"Left\",\"39\",\"3\",\"2\",\"8\",\"C2\",\"J\",\"50\"
\"\",\"\",\"approach-retreat\",\"199\",\"1445114\",\"0.0-199.0\",\"\",\"\",\"3-3\",\"4463\",\"38\",\"1\",\"Testing\",\"Stims/Figures/118-C-20-2.bmp\",\"fa:sha:va\",\"Up\",\"38\",\"3\",\"3\",\"8\",\"C1\",\"J\",\"51\"
\"\",\"\",\"approach-retreat\",\"200\",\"1450755\",\"0.0-200.0\",\"\",\"\",\"3-3\",\"4100\",\"40\",\"0\",\"Testing\",\"Stims/Figures/139-C-20-2.bmp\",\"fa:fa:va\",\"Up\",\"38\",\"3\",\"4\",\"8\",\"C1\",\"J\",\"52\"
\"\",\"\",\"approach-retreat\",\"201\",\"1456571\",\"0.0-201.0\",\"\",\"\",\"3-3\",\"4270\",\"40\",\"1\",\"Testing\",\"Stims/Figures/87-C-20-4.bmp\",\"sasa:za\",\"Down\",\"40\",\"3\",\"5\",\"8\",\"C2\",\"J\",\"53\"
\"\",\"\",\"approach-retreat\",\"202\",\"1462322\",\"0.0-202.0\",\"\",\"\",\"3-3\",\"4196\",\"37\",\"1\",\"Testing\",\"Stims/Figures/139-J-0-2.bmp\",\"vashava\",\"Right\",\"37\",\"3\",\"6\",\"8\",\"C1\",\"J\",\"54\"
\"\",\"\",\"approach-retreat\",\"203\",\"1468092\",\"0.0-203.0\",\"\",\"\",\"3-3\",\"4210\",\"39\",\"0\",\"Testing\",\"Stims/Figures/93-C-30-1.bmp\",\"fa:fasha\",\"Left\",\"37\",\"3\",\"7\",\"8\",\"C1\",\"J\",\"55\"
\"\",\"\",\"approach-retreat\",\"204\",\"1473911\",\"0.0-204.0\",\"\",\"\",\"3-3\",\"4271\",\"37\",\"1\",\"Testing\",\"Stims/Figures/111-J-10-3.bmp\",\"zaha:za\",\"Right\",\"37\",\"3\",\"8\",\"8\",\"C2\",\"J\",\"56\"
\"\",\"\",\"approach-retreat\",\"205\",\"1480193\",\"0.0-205.0\",\"\",\"\",\"3-3\",\"4737\",\"38\",\"0\",\"Testing\",\"Stims/Figures/85-C-20-2.bmp\",\"va:sha:sha\",\"Down\",\"40\",\"3\",\"9\",\"8\",\"C1\",\"J\",\"57\"
\"\",\"\",\"approach-retreat\",\"206\",\"1485984\",\"0.0-206.0\",\"\",\"\",\"3-3\",\"4209\",\"39\",\"1\",\"Testing\",\"Stims/Figures/100-J-10-3.bmp\",\"sahaha\",\"Left\",\"39\",\"3\",\"10\",\"8\",\"C2\",\"J\",\"58\"
\"\",\"\",\"approach-retreat\",\"207\",\"1491953\",\"0.0-207.0\",\"\",\"\",\"3-3\",\"4424\",\"40\",\"0\",\"Testing\",\"Stims/Figures/93-J-0-1.bmp\",\"fa:shasha\",\"Down\",\"38\",\"3\",\"11\",\"8\",\"C1\",\"J\",\"59\"
\"\",\"\",\"approach-retreat\",\"208\",\"1497688\",\"0.0-208.0\",\"\",\"\",\"3-3\",\"4176\",\"40\",\"0\",\"Testing\",\"Stims/Figures/102-C-20-4.bmp\",\"za:saza\",\"Up\",\"38\",\"3\",\"12\",\"8\",\"C2\",\"J\",\"60\"
\"\",\"\",\"approach-retreat\",\"209\",\"1503272\",\"0.0-209.0\",\"\",\"\",\"3-3\",\"4021\",\"37\",\"1\",\"Testing\",\"Stims/Figures/7-C-20-4.bmp\",\"sa:sa:za\",\"Left\",\"37\",\"3\",\"13\",\"8\",\"C2\",\"J\",\"61\"
\"\",\"\",\"approach-retreat\",\"210\",\"1509071\",\"0.0-210.0\",\"\",\"\",\"3-3\",\"4239\",\"40\",\"0\",\"Testing\",\"Stims/Figures/7-J-10-4.bmp\",\"za:ha:ha\",\"Down\",\"38\",\"3\",\"14\",\"8\",\"C2\",\"J\",\"62\"
\"\",\"\",\"approach-retreat\",\"211\",\"1514674\",\"0.0-211.0\",\"\",\"\",\"3-3\",\"4050\",\"39\",\"1\",\"Testing\",\"Stims/Figures/102-J-10-4.bmp\",\"sa:saza\",\"Left\",\"39\",\"3\",\"15\",\"8\",\"C2\",\"J\",\"63\"
\"\",\"\",\"approach-retreat\",\"212\",\"1520281\",\"0.0-212.0\",\"\",\"\",\"3-3\",\"4069\",\"39\",\"1\",\"Testing\",\"Stims/Figures/111-C-30-3.bmp\",\"zasaha\",\"Right\",\"39\",\"3\",\"16\",\"8\",\"C2\",\"J\",\"64\"
\"\",\"\",\"approach-retreat\",\"213\",\"1525950\",\"0.0-213.0\",\"\",\"\",\"3-3\",\"4130\",\"39\",\"1\",\"Testing\",\"Stims/Figures/118-J-0-2.bmp\",\"fa:fa:sha\",\"Left\",\"39\",\"3\",\"17\",\"8\",\"C1\",\"J\",\"65\"
\"\",\"\",\"approach-retreat\",\"214\",\"1531486\",\"0.0-214.0\",\"\",\"\",\"3-3\",\"4000\",\"39\",\"1\",\"Testing\",\"Stims/Figures/57-C-30-1.bmp\",\"va:sha:va\",\"Right\",\"39\",\"3\",\"18\",\"8\",\"C1\",\"J\",\"66\"
\"\",\"\",\"approach-retreat\",\"215\",\"1537153\",\"0.0-215.0\",\"\",\"\",\"3-3\",\"4123\",\"40\",\"1\",\"Testing\",\"Stims/Figures/85-J-0-2.bmp\",\"fashava\",\"Up\",\"40\",\"3\",\"19\",\"8\",\"C1\",\"J\",\"67\"
\"\",\"\",\"approach-retreat\",\"216\",\"1542825\",\"0.0-216.0\",\"\",\"\",\"3-3\",\"4121\",\"38\",\"0\",\"Testing\",\"Stims/Figures/71-C-30-1.bmp\",\"fasha:sha\",\"Down\",\"40\",\"3\",\"20\",\"8\",\"C1\",\"J\",\"68\"
\"\",\"\",\"approach-retreat\",\"217\",\"1548582\",\"0.0-217.0\",\"\",\"\",\"3-3\",\"4205\",\"40\",\"0\",\"Testing\",\"Stims/Figures/128-C-30-3.bmp\",\"za:ha:za\",\"Up\",\"38\",\"3\",\"21\",\"8\",\"C2\",\"J\",\"69\"
\"\",\"\",\"approach-retreat\",\"218\",\"1554411\",\"0.0-218.0\",\"\",\"\",\"3-3\",\"4287\",\"37\",\"1\",\"Testing\",\"Stims/Figures/71-J-0-1.bmp\",\"va:shasha\",\"Right\",\"37\",\"3\",\"22\",\"8\",\"C1\",\"J\",\"70\"
\"\",\"\",\"approach-retreat\",\"219\",\"1560060\",\"0.0-219.0\",\"\",\"\",\"3-3\",\"4106\",\"40\",\"1\",\"Testing\",\"Stims/Figures/57-J-0-1.bmp\",\"vashasha\",\"Up\",\"40\",\"3\",\"23\",\"8\",\"C1\",\"J\",\"71\"
\"\",\"\",\"approach-retreat\",\"220\",\"1565731\",\"0.0-220.0\",\"\",\"\",\"3-3\",\"4121\",\"37\",\"1\",\"Testing\",\"Stims/Figures/128-J-10-3.bmp\",\"sa:saha\",\"Right\",\"37\",\"3\",\"24\",\"8\",\"C2\",\"J\",\"72\"
\"\",\"\",\"approach-retreat\",\"221\",\"1571535\",\"0.0-221.0\",\"\",\"\",\"3-3\",\"4255\",\"40\",\"1\",\"Testing\",\"Stims/Figures/7-C-20-4.bmp\",\"sa:sa:za\",\"Down\",\"40\",\"4\",\"1\",\"8\",\"C2\",\"J\",\"73\"
\"\",\"\",\"approach-retreat\",\"222\",\"1577171\",\"0.0-222.0\",\"\",\"\",\"3-3\",\"4092\",\"38\",\"1\",\"Testing\",\"Stims/Figures/100-J-10-3.bmp\",\"sahaha\",\"Down\",\"38\",\"4\",\"2\",\"8\",\"C2\",\"J\",\"74\"
\"\",\"\",\"approach-retreat\",\"223\",\"1582860\",\"0.0-223.0\",\"\",\"\",\"3-3\",\"4133\",\"37\",\"0\",\"Testing\",\"Stims/Figures/111-C-30-3.bmp\",\"zasaha\",\"Right\",\"39\",\"4\",\"3\",\"8\",\"C2\",\"J\",\"75\"
\"\",\"\",\"approach-retreat\",\"224\",\"1588673\",\"0.0-224.0\",\"\",\"\",\"3-3\",\"4269\",\"38\",\"1\",\"Testing\",\"Stims/Figures/57-C-30-1.bmp\",\"va:sha:va\",\"Up\",\"38\",\"4\",\"4\",\"8\",\"C1\",\"J\",\"76\"
\"\",\"\",\"approach-retreat\",\"225\",\"1594332\",\"0.0-225.0\",\"\",\"\",\"3-3\",\"4111\",\"40\",\"0\",\"Testing\",\"Stims/Figures/71-C-30-1.bmp\",\"fasha:sha\",\"Up\",\"38\",\"4\",\"5\",\"8\",\"C1\",\"J\",\"77\"
\"\",\"\",\"approach-retreat\",\"226\",\"1600014\",\"0.0-226.0\",\"\",\"\",\"3-3\",\"4149\",\"40\",\"1\",\"Testing\",\"Stims/Figures/111-J-10-3.bmp\",\"zaha:za\",\"Up\",\"40\",\"4\",\"6\",\"8\",\"C2\",\"J\",\"78\"
\"\",\"\",\"approach-retreat\",\"227\",\"1605849\",\"0.0-227.0\",\"\",\"\",\"3-3\",\"4319\",\"37\",\"0\",\"Testing\",\"Stims/Figures/128-J-10-3.bmp\",\"sa:saha\",\"Left\",\"39\",\"4\",\"7\",\"8\",\"C2\",\"J\",\"79\"
\"\",\"\",\"approach-retreat\",\"228\",\"1611439\",\"0.0-228.0\",\"\",\"\",\"3-3\",\"4039\",\"40\",\"0\",\"Testing\",\"Stims/Figures/139-J-0-2.bmp\",\"vashava\",\"Down\",\"38\",\"4\",\"8\",\"8\",\"C1\",\"J\",\"80\"
\"\",\"\",\"approach-retreat\",\"229\",\"1617058\",\"0.0-229.0\",\"\",\"\",\"3-3\",\"4071\",\"39\",\"0\",\"Testing\",\"Stims/Figures/102-C-20-4.bmp\",\"za:saza\",\"Left\",\"37\",\"4\",\"9\",\"8\",\"C2\",\"J\",\"81\"
\"\",\"\",\"approach-retreat\",\"230\",\"1622723\",\"0.0-230.0\",\"\",\"\",\"3-3\",\"4107\",\"37\",\"0\",\"Testing\",\"Stims/Figures/85-C-20-2.bmp\",\"va:sha:sha\",\"Right\",\"39\",\"4\",\"10\",\"8\",\"C1\",\"J\",\"82\"
\"\",\"\",\"approach-retreat\",\"231\",\"1628343\",\"0.0-231.0\",\"\",\"\",\"3-3\",\"4068\",\"37\",\"0\",\"Testing\",\"Stims/Figures/139-C-20-2.bmp\",\"fa:fa:va\",\"Right\",\"39\",\"4\",\"11\",\"8\",\"C1\",\"J\",\"83\"
\"\",\"\",\"approach-retreat\",\"232\",\"1634029\",\"0.0-232.0\",\"\",\"\",\"3-3\",\"4138\",\"38\",\"1\",\"Testing\",\"Stims/Figures/87-J-10-4.bmp\",\"sa:sa:ha\",\"Down\",\"38\",\"4\",\"12\",\"8\",\"C2\",\"J\",\"84\"
\"\",\"\",\"approach-retreat\",\"233\",\"1639834\",\"0.0-233.0\",\"\",\"\",\"3-3\",\"4254\",\"40\",\"0\",\"Testing\",\"Stims/Figures/93-C-30-1.bmp\",\"fa:fasha\",\"Up\",\"38\",\"4\",\"13\",\"8\",\"C1\",\"J\",\"85\"
\"\",\"\",\"approach-retreat\",\"234\",\"1645449\",\"0.0-234.0\",\"\",\"\",\"3-3\",\"4073\",\"37\",\"0\",\"Testing\",\"Stims/Figures/100-C-30-3.bmp\",\"saha:ha\",\"Right\",\"39\",\"4\",\"14\",\"8\",\"C2\",\"J\",\"86\"
\"\",\"\",\"approach-retreat\",\"235\",\"1651122\",\"0.0-235.0\",\"\",\"\",\"3-3\",\"4133\",\"37\",\"1\",\"Testing\",\"Stims/Figures/118-C-20-2.bmp\",\"fa:sha:va\",\"Left\",\"37\",\"4\",\"15\",\"8\",\"C1\",\"J\",\"87\"
\"\",\"\",\"approach-retreat\",\"236\",\"1657208\",\"0.0-236.0\",\"\",\"\",\"3-3\",\"4548\",\"38\",\"0\",\"Testing\",\"Stims/Figures/71-J-0-1.bmp\",\"va:shasha\",\"Up\",\"40\",\"4\",\"16\",\"8\",\"C1\",\"J\",\"88\"
\"\",\"\",\"approach-retreat\",\"237\",\"1662881\",\"0.0-237.0\",\"\",\"\",\"3-3\",\"4120\",\"40\",\"0\",\"Testing\",\"Stims/Figures/7-J-10-4.bmp\",\"za:ha:ha\",\"Down\",\"38\",\"4\",\"17\",\"8\",\"C2\",\"J\",\"89\"
\"\",\"\",\"approach-retreat\",\"238\",\"1668537\",\"0.0-238.0\",\"\",\"\",\"3-3\",\"4114\",\"37\",\"0\",\"Testing\",\"Stims/Figures/85-J-0-2.bmp\",\"fashava\",\"Left\",\"39\",\"4\",\"18\",\"8\",\"C1\",\"J\",\"90\"
\"\",\"\",\"approach-retreat\",\"239\",\"1674196\",\"0.0-239.0\",\"\",\"\",\"3-3\",\"4119\",\"38\",\"0\",\"Testing\",\"Stims/Figures/118-J-0-2.bmp\",\"fa:fa:sha\",\"Up\",\"40\",\"4\",\"19\",\"8\",\"C1\",\"J\",\"91\"
\"\",\"\",\"approach-retreat\",\"240\",\"1679753\",\"0.0-240.0\",\"\",\"\",\"3-3\",\"4019\",\"39\",\"0\",\"Testing\",\"Stims/Figures/93-J-0-1.bmp\",\"fa:shasha\",\"Right\",\"37\",\"4\",\"20\",\"8\",\"C1\",\"J\",\"92\"
\"\",\"\",\"approach-retreat\",\"241\",\"1685439\",\"0.0-241.0\",\"\",\"\",\"3-3\",\"4141\",\"38\",\"0\",\"Testing\",\"Stims/Figures/87-C-20-4.bmp\",\"sasa:za\",\"Down\",\"40\",\"4\",\"21\",\"8\",\"C2\",\"J\",\"93\"
\"\",\"\",\"approach-retreat\",\"242\",\"1691240\",\"0.0-242.0\",\"\",\"\",\"3-3\",\"4263\",\"39\",\"1\",\"Testing\",\"Stims/Figures/128-C-30-3.bmp\",\"za:ha:za\",\"Right\",\"39\",\"4\",\"22\",\"8\",\"C2\",\"J\",\"94\"
\"\",\"\",\"approach-retreat\",\"243\",\"1696956\",\"0.0-243.0\",\"\",\"\",\"3-3\",\"4174\",\"37\",\"0\",\"Testing\",\"Stims/Figures/102-J-10-4.bmp\",\"sa:saza\",\"Left\",\"39\",\"4\",\"23\",\"8\",\"C2\",\"J\",\"95\"
\"\",\"\",\"approach-retreat\",\"244\",\"1702980\",\"0.0-244.0\",\"\",\"\",\"3-3\",\"4459\",\"37\",\"0\",\"Testing\",\"Stims/Figures/57-J-0-1.bmp\",\"vashasha\",\"Left\",\"39\",\"4\",\"24\",\"8\",\"C1\",\"J\",\"96\"
\"25136\",\"\",\"survey-text\",\"245\",\"1728129\",\"0.0-245.0\",\"\",\"{\"\"Q0\"\":\"\"PS170029\"\"}\",\"\",\"\",\"\",\"\",\"\",\"\",\"\",\"\",\"\",\"\",\"\",\"\",\"\",\"\",\"\"
