\"rt\",\"key_press\",\"trial_type\",\"trial_index\",\"time_elapsed\",\"internal_node_id\",\"view_history\",\"responses\",\"Id\",\"Rt\",\"ResKeyCode\",\"ResCorr\",\"TrialType2\",\"Image\",\"Label\",\"Location\",\"CorrectResponse\",\"Block\",\"BlockTrial\",\"Condition\",\"LabelType\",\"Subcondition\",\"trialNum\"
\"6261\",\"32\",\"text\",\"0\",\"6264\",\"0.0-0.0-0.0\",\"\",\"\",\"\",\"\",\"\",\"\",\"\",\"\",\"\",\"\",\"\",\"\",\"\",\"\",\"\",\"\",\"\"
\"58718\",\"\",\"instructions\",\"1\",\"64985\",\"0.0-1.0\",\"[{\"\"page_index\"\":0,\"\"viewing_time\"\":58717}]\",\"\",\"\",\"\",\"\",\"\",\"\",\"\",\"\",\"\",\"\",\"\",\"\",\"\",\"\",\"\",\"\"
\"32532\",\"\",\"survey-multi-choice\",\"2\",\"97553\",\"0.0-2.0\",\"\",\"{\"\"Q0\"\":\"\"Da\"\",\"\"Q1\"\":\"\"Da\"\",\"\"Q2\"\":\"\"Da\"\",\"\"Q3\"\":\"\"Da\"\",\"\"Q4\"\":\"\"Da\"\",\"\"Q5\"\":\"\"Da\"\"}\",\"\",\"\",\"\",\"\",\"\",\"\",\"\",\"\",\"\",\"\",\"\",\"\",\"\",\"\",\"\"
\"\",\"\",\"bio\",\"3\",\"107092\",\"0.0-3.0\",\"\",\"{\"\"age\"\":\"\"19\"\",\"\"gender\"\":\"\"f\"\",\"\"specify\"\":\"\"\"\"}\",\"\",\"\",\"\",\"\",\"\",\"\",\"\",\"\",\"\",\"\",\"\",\"\",\"\",\"\",\"\"
\"\",\"\",\"approach-retreat\",\"4\",\"114206\",\"0.0-4.0\",\"\",\"\",\"1-4\",\"5558\",\"37\",\"0\",\"Training\",\"Stims/Figures/86-C-30-1.bmp\",\"vafa:sha\",\"Left\",\"39\",\"1\",\"1\",\"6B\",\"C1\",\"C\",\"1\"
\"\",\"\",\"approach-retreat\",\"5\",\"121129\",\"0.0-5.0\",\"\",\"\",\"1-4\",\"5412\",\"40\",\"0\",\"Training\",\"Stims/Figures/86-J-0-1.bmp\",\"saha:za\",\"Up\",\"38\",\"1\",\"2\",\"6B\",\"C2\",\"C\",\"2\"
\"\",\"\",\"approach-retreat\",\"6\",\"127041\",\"0.0-6.0\",\"\",\"\",\"1-4\",\"4406\",\"39\",\"0\",\"Training\",\"Stims/Figures/128-J-10-3.bmp\",\"zasa:za\",\"Left\",\"37\",\"1\",\"3\",\"6B\",\"C2\",\"C\",\"3\"
\"\",\"\",\"approach-retreat\",\"7\",\"133390\",\"0.0-7.0\",\"\",\"\",\"1-4\",\"4835\",\"38\",\"0\",\"Training\",\"Stims/Figures/128-C-30-3.bmp\",\"va:fa:va\",\"Up\",\"40\",\"1\",\"4\",\"6B\",\"C1\",\"C\",\"4\"
\"\",\"\",\"approach-retreat\",\"8\",\"139278\",\"0.0-8.0\",\"\",\"\",\"1-4\",\"4383\",\"37\",\"1\",\"Training\",\"Stims/Figures/84-C-20-2.bmp\",\"vafa:va\",\"Right\",\"37\",\"1\",\"5\",\"6B\",\"C1\",\"C\",\"5\"
\"\",\"\",\"approach-retreat\",\"9\",\"144964\",\"0.0-9.0\",\"\",\"\",\"1-4\",\"4180\",\"39\",\"1\",\"Training\",\"Stims/Figures/84-J-0-2.bmp\",\"zaha:za\",\"Right\",\"39\",\"1\",\"6\",\"6B\",\"C2\",\"C\",\"6\"
\"\",\"\",\"approach-retreat\",\"10\",\"150782\",\"0.0-10.0\",\"\",\"\",\"1-4\",\"4307\",\"38\",\"0\",\"Training\",\"Stims/Figures/87-C-20-4.bmp\",\"vafasha\",\"Up\",\"40\",\"1\",\"7\",\"6B\",\"C1\",\"C\",\"7\"
\"\",\"\",\"approach-retreat\",\"11\",\"156866\",\"0.0-11.0\",\"\",\"\",\"1-4\",\"4579\",\"40\",\"1\",\"Training\",\"Stims/Figures/111-J-10-3.bmp\",\"za:sa:ha\",\"Down\",\"40\",\"1\",\"8\",\"6B\",\"C2\",\"C\",\"8\"
\"\",\"\",\"approach-retreat\",\"12\",\"162536\",\"0.0-12.0\",\"\",\"\",\"1-4\",\"4160\",\"39\",\"0\",\"Training\",\"Stims/Figures/19-J-10-4.bmp\",\"sasaza\",\"Left\",\"37\",\"1\",\"9\",\"6B\",\"C2\",\"C\",\"9\"
\"\",\"\",\"approach-retreat\",\"13\",\"168224\",\"0.0-13.0\",\"\",\"\",\"1-4\",\"4183\",\"38\",\"1\",\"Training\",\"Stims/Figures/19-C-20-4.bmp\",\"va:sha:sha\",\"Down\",\"38\",\"1\",\"10\",\"6B\",\"C1\",\"C\",\"10\"
\"\",\"\",\"approach-retreat\",\"14\",\"173919\",\"0.0-14.0\",\"\",\"\",\"1-4\",\"4185\",\"38\",\"1\",\"Training\",\"Stims/Figures/57-C-30-1.bmp\",\"fa:fava\",\"Down\",\"38\",\"1\",\"11\",\"6B\",\"C1\",\"C\",\"11\"
\"\",\"\",\"approach-retreat\",\"15\",\"180030\",\"0.0-15.0\",\"\",\"\",\"1-4\",\"4600\",\"39\",\"0\",\"Training\",\"Stims/Figures/94-C-20-2.bmp\",\"va:shasha\",\"Right\",\"37\",\"1\",\"12\",\"6B\",\"C1\",\"C\",\"12\"
\"\",\"\",\"approach-retreat\",\"16\",\"185404\",\"0.0-16.0\",\"\",\"\",\"1-4\",\"3863\",\"37\",\"0\",\"Training\",\"Stims/Figures/94-J-0-2.bmp\",\"za:saha\",\"Right\",\"39\",\"1\",\"13\",\"6B\",\"C2\",\"C\",\"13\"
\"\",\"\",\"approach-retreat\",\"17\",\"191194\",\"0.0-17.0\",\"\",\"\",\"1-4\",\"4280\",\"38\",\"0\",\"Training\",\"Stims/Figures/57-J-0-1.bmp\",\"zasaza\",\"Down\",\"40\",\"1\",\"14\",\"6B\",\"C2\",\"C\",\"14\"
\"\",\"\",\"approach-retreat\",\"18\",\"196974\",\"0.0-18.0\",\"\",\"\",\"1-4\",\"4270\",\"39\",\"0\",\"Training\",\"Stims/Figures/87-J-10-4.bmp\",\"sahaza\",\"Left\",\"37\",\"1\",\"15\",\"6B\",\"C2\",\"C\",\"15\"
\"\",\"\",\"approach-retreat\",\"19\",\"202714\",\"0.0-19.0\",\"\",\"\",\"1-4\",\"4228\",\"38\",\"0\",\"Training\",\"Stims/Figures/111-C-30-3.bmp\",\"fa:sha:sha\",\"Up\",\"40\",\"1\",\"16\",\"6B\",\"C1\",\"C\",\"16\"
\"\",\"\",\"approach-retreat\",\"20\",\"208524\",\"0.0-20.0\",\"\",\"\",\"1-4\",\"4303\",\"38\",\"0\",\"Training\",\"Stims/Figures/87-J-10-4.bmp\",\"sahaza\",\"Down\",\"40\",\"2\",\"1\",\"6B\",\"C2\",\"C\",\"17\"
\"\",\"\",\"approach-retreat\",\"21\",\"214141\",\"0.0-21.0\",\"\",\"\",\"1-4\",\"4111\",\"39\",\"0\",\"Training\",\"Stims/Figures/19-J-10-4.bmp\",\"sasaza\",\"Left\",\"37\",\"2\",\"2\",\"6B\",\"C2\",\"C\",\"18\"
\"\",\"\",\"approach-retreat\",\"22\",\"219791\",\"0.0-22.0\",\"\",\"\",\"1-4\",\"4137\",\"37\",\"0\",\"Training\",\"Stims/Figures/86-J-0-1.bmp\",\"saha:za\",\"Right\",\"39\",\"2\",\"3\",\"6B\",\"C2\",\"C\",\"19\"
\"\",\"\",\"approach-retreat\",\"23\",\"225582\",\"0.0-23.0\",\"\",\"\",\"1-4\",\"4288\",\"39\",\"0\",\"Training\",\"Stims/Figures/19-C-20-4.bmp\",\"va:sha:sha\",\"Right\",\"37\",\"2\",\"4\",\"6B\",\"C1\",\"C\",\"20\"
\"\",\"\",\"approach-retreat\",\"24\",\"232429\",\"0.0-24.0\",\"\",\"\",\"1-4\",\"5336\",\"38\",\"0\",\"Training\",\"Stims/Figures/57-J-0-1.bmp\",\"zasaza\",\"Down\",\"40\",\"2\",\"5\",\"6B\",\"C2\",\"C\",\"21\"
\"\",\"\",\"approach-retreat\",\"25\",\"238128\",\"0.0-25.0\",\"\",\"\",\"1-4\",\"4190\",\"40\",\"0\",\"Training\",\"Stims/Figures/84-J-0-2.bmp\",\"zaha:za\",\"Up\",\"38\",\"2\",\"6\",\"6B\",\"C2\",\"C\",\"22\"
\"\",\"\",\"approach-retreat\",\"26\",\"244114\",\"0.0-26.0\",\"\",\"\",\"1-4\",\"4482\",\"40\",\"1\",\"Training\",\"Stims/Figures/87-C-20-4.bmp\",\"vafasha\",\"Up\",\"40\",\"2\",\"7\",\"6B\",\"C1\",\"C\",\"23\"
\"\",\"\",\"approach-retreat\",\"27\",\"250074\",\"0.0-27.0\",\"\",\"\",\"1-4\",\"4453\",\"37\",\"0\",\"Training\",\"Stims/Figures/128-J-10-3.bmp\",\"zasa:za\",\"Right\",\"39\",\"2\",\"8\",\"6B\",\"C2\",\"C\",\"24\"
\"\",\"\",\"approach-retreat\",\"28\",\"255840\",\"0.0-28.0\",\"\",\"\",\"1-4\",\"4262\",\"38\",\"1\",\"Training\",\"Stims/Figures/57-C-30-1.bmp\",\"fa:fava\",\"Down\",\"38\",\"2\",\"9\",\"6B\",\"C1\",\"C\",\"25\"
\"\",\"\",\"approach-retreat\",\"29\",\"261781\",\"0.0-29.0\",\"\",\"\",\"1-4\",\"4438\",\"39\",\"1\",\"Training\",\"Stims/Figures/94-C-20-2.bmp\",\"va:shasha\",\"Left\",\"39\",\"2\",\"10\",\"6B\",\"C1\",\"C\",\"26\"
\"\",\"\",\"approach-retreat\",\"30\",\"267661\",\"0.0-30.0\",\"\",\"\",\"1-4\",\"4377\",\"40\",\"1\",\"Training\",\"Stims/Figures/84-C-20-2.bmp\",\"vafa:va\",\"Up\",\"40\",\"2\",\"11\",\"6B\",\"C1\",\"C\",\"27\"
\"\",\"\",\"approach-retreat\",\"31\",\"273275\",\"0.0-31.0\",\"\",\"\",\"1-4\",\"4110\",\"38\",\"1\",\"Training\",\"Stims/Figures/128-C-30-3.bmp\",\"va:fa:va\",\"Down\",\"38\",\"2\",\"12\",\"6B\",\"C1\",\"C\",\"28\"
\"\",\"\",\"approach-retreat\",\"32\",\"279000\",\"0.0-32.0\",\"\",\"\",\"1-4\",\"4221\",\"39\",\"1\",\"Training\",\"Stims/Figures/86-C-30-1.bmp\",\"vafa:sha\",\"Left\",\"39\",\"2\",\"13\",\"6B\",\"C1\",\"C\",\"29\"
\"\",\"\",\"approach-retreat\",\"33\",\"284532\",\"0.0-33.0\",\"\",\"\",\"1-4\",\"4027\",\"37\",\"1\",\"Training\",\"Stims/Figures/111-C-30-3.bmp\",\"fa:sha:sha\",\"Right\",\"37\",\"2\",\"14\",\"6B\",\"C1\",\"C\",\"30\"
\"\",\"\",\"approach-retreat\",\"34\",\"290298\",\"0.0-34.0\",\"\",\"\",\"1-4\",\"4263\",\"38\",\"1\",\"Training\",\"Stims/Figures/94-J-0-2.bmp\",\"za:saha\",\"Up\",\"38\",\"2\",\"15\",\"6B\",\"C2\",\"C\",\"31\"
\"\",\"\",\"approach-retreat\",\"35\",\"295906\",\"0.0-35.0\",\"\",\"\",\"1-4\",\"4105\",\"37\",\"1\",\"Training\",\"Stims/Figures/111-J-10-3.bmp\",\"za:sa:ha\",\"Left\",\"37\",\"2\",\"16\",\"6B\",\"C2\",\"C\",\"32\"
\"\",\"\",\"approach-retreat\",\"36\",\"301459\",\"0.0-36.0\",\"\",\"\",\"1-4\",\"4048\",\"37\",\"1\",\"Training\",\"Stims/Figures/84-C-20-2.bmp\",\"vafa:va\",\"Right\",\"37\",\"3\",\"1\",\"6B\",\"C1\",\"C\",\"33\"
\"\",\"\",\"approach-retreat\",\"37\",\"307069\",\"0.0-37.0\",\"\",\"\",\"1-4\",\"4102\",\"38\",\"1\",\"Training\",\"Stims/Figures/84-J-0-2.bmp\",\"zaha:za\",\"Up\",\"38\",\"3\",\"2\",\"6B\",\"C2\",\"C\",\"34\"
\"\",\"\",\"approach-retreat\",\"38\",\"312709\",\"0.0-38.0\",\"\",\"\",\"1-4\",\"4136\",\"38\",\"1\",\"Training\",\"Stims/Figures/19-C-20-4.bmp\",\"va:sha:sha\",\"Down\",\"38\",\"3\",\"3\",\"6B\",\"C1\",\"C\",\"35\"
\"\",\"\",\"approach-retreat\",\"39\",\"318422\",\"0.0-39.0\",\"\",\"\",\"1-4\",\"4209\",\"37\",\"1\",\"Training\",\"Stims/Figures/87-J-10-4.bmp\",\"sahaza\",\"Left\",\"37\",\"3\",\"4\",\"6B\",\"C2\",\"C\",\"36\"
\"\",\"\",\"approach-retreat\",\"40\",\"323999\",\"0.0-40.0\",\"\",\"\",\"1-4\",\"4065\",\"37\",\"0\",\"Training\",\"Stims/Figures/19-J-10-4.bmp\",\"sasaza\",\"Right\",\"39\",\"3\",\"5\",\"6B\",\"C2\",\"C\",\"37\"
\"\",\"\",\"approach-retreat\",\"41\",\"329523\",\"0.0-41.0\",\"\",\"\",\"1-4\",\"4020\",\"39\",\"1\",\"Training\",\"Stims/Figures/94-C-20-2.bmp\",\"va:shasha\",\"Left\",\"39\",\"3\",\"6\",\"6B\",\"C1\",\"C\",\"38\"
\"\",\"\",\"approach-retreat\",\"42\",\"335154\",\"0.0-42.0\",\"\",\"\",\"1-4\",\"4125\",\"39\",\"0\",\"Training\",\"Stims/Figures/57-C-30-1.bmp\",\"fa:fava\",\"Right\",\"37\",\"3\",\"7\",\"6B\",\"C1\",\"C\",\"39\"
\"\",\"\",\"approach-retreat\",\"43\",\"340608\",\"0.0-43.0\",\"\",\"\",\"1-4\",\"3950\",\"37\",\"1\",\"Training\",\"Stims/Figures/128-C-30-3.bmp\",\"va:fa:va\",\"Right\",\"37\",\"3\",\"8\",\"6B\",\"C1\",\"C\",\"40\"
\"\",\"\",\"approach-retreat\",\"44\",\"346144\",\"0.0-44.0\",\"\",\"\",\"1-4\",\"4032\",\"38\",\"1\",\"Training\",\"Stims/Figures/57-J-0-1.bmp\",\"zasaza\",\"Up\",\"38\",\"3\",\"9\",\"6B\",\"C2\",\"C\",\"41\"
\"\",\"\",\"approach-retreat\",\"45\",\"352141\",\"0.0-45.0\",\"\",\"\",\"1-4\",\"4494\",\"39\",\"1\",\"Training\",\"Stims/Figures/87-C-20-4.bmp\",\"vafasha\",\"Left\",\"39\",\"3\",\"10\",\"6B\",\"C1\",\"C\",\"42\"
\"\",\"\",\"approach-retreat\",\"46\",\"357807\",\"0.0-46.0\",\"\",\"\",\"1-4\",\"4163\",\"38\",\"1\",\"Training\",\"Stims/Figures/111-C-30-3.bmp\",\"fa:sha:sha\",\"Down\",\"38\",\"3\",\"11\",\"6B\",\"C1\",\"C\",\"43\"
\"\",\"\",\"approach-retreat\",\"47\",\"363383\",\"0.0-47.0\",\"\",\"\",\"1-4\",\"4073\",\"38\",\"1\",\"Training\",\"Stims/Figures/86-J-0-1.bmp\",\"saha:za\",\"Up\",\"38\",\"3\",\"12\",\"6B\",\"C2\",\"C\",\"44\"
\"\",\"\",\"approach-retreat\",\"48\",\"368993\",\"0.0-48.0\",\"\",\"\",\"1-4\",\"4106\",\"38\",\"1\",\"Training\",\"Stims/Figures/86-C-30-1.bmp\",\"vafa:sha\",\"Down\",\"38\",\"3\",\"13\",\"6B\",\"C1\",\"C\",\"45\"
\"\",\"\",\"approach-retreat\",\"49\",\"374589\",\"0.0-49.0\",\"\",\"\",\"1-4\",\"4093\",\"40\",\"1\",\"Training\",\"Stims/Figures/94-J-0-2.bmp\",\"za:saha\",\"Down\",\"40\",\"3\",\"14\",\"6B\",\"C2\",\"C\",\"46\"
\"\",\"\",\"approach-retreat\",\"50\",\"380140\",\"0.0-50.0\",\"\",\"\",\"1-4\",\"4046\",\"38\",\"1\",\"Training\",\"Stims/Figures/111-J-10-3.bmp\",\"za:sa:ha\",\"Up\",\"38\",\"3\",\"15\",\"6B\",\"C2\",\"C\",\"47\"
\"\",\"\",\"approach-retreat\",\"51\",\"385668\",\"0.0-51.0\",\"\",\"\",\"1-4\",\"4024\",\"37\",\"1\",\"Training\",\"Stims/Figures/128-J-10-3.bmp\",\"zasa:za\",\"Left\",\"37\",\"3\",\"16\",\"6B\",\"C2\",\"C\",\"48\"
\"\",\"\",\"approach-retreat\",\"52\",\"391292\",\"0.0-52.0\",\"\",\"\",\"1-4\",\"4121\",\"39\",\"1\",\"Training\",\"Stims/Figures/94-J-0-2.bmp\",\"za:saha\",\"Right\",\"39\",\"4\",\"1\",\"6B\",\"C2\",\"C\",\"49\"
\"\",\"\",\"approach-retreat\",\"53\",\"398848\",\"0.0-53.0\",\"\",\"\",\"1-4\",\"6044\",\"38\",\"0\",\"Training\",\"Stims/Figures/57-J-0-1.bmp\",\"zasaza\",\"Down\",\"40\",\"4\",\"2\",\"6B\",\"C2\",\"C\",\"50\"
\"\",\"\",\"approach-retreat\",\"54\",\"404477\",\"0.0-54.0\",\"\",\"\",\"1-4\",\"4125\",\"38\",\"1\",\"Training\",\"Stims/Figures/94-C-20-2.bmp\",\"va:shasha\",\"Down\",\"38\",\"4\",\"3\",\"6B\",\"C1\",\"C\",\"51\"
\"\",\"\",\"approach-retreat\",\"55\",\"411129\",\"0.0-55.0\",\"\",\"\",\"1-4\",\"5148\",\"37\",\"1\",\"Training\",\"Stims/Figures/86-J-0-1.bmp\",\"saha:za\",\"Left\",\"37\",\"4\",\"4\",\"6B\",\"C2\",\"C\",\"52\"
\"\",\"\",\"approach-retreat\",\"56\",\"416736\",\"0.0-56.0\",\"\",\"\",\"1-4\",\"4104\",\"37\",\"1\",\"Training\",\"Stims/Figures/84-J-0-2.bmp\",\"zaha:za\",\"Left\",\"37\",\"4\",\"5\",\"6B\",\"C2\",\"C\",\"53\"
\"\",\"\",\"approach-retreat\",\"57\",\"422244\",\"0.0-57.0\",\"\",\"\",\"1-4\",\"4001\",\"37\",\"0\",\"Training\",\"Stims/Figures/87-J-10-4.bmp\",\"sahaza\",\"Right\",\"39\",\"4\",\"6\",\"6B\",\"C2\",\"C\",\"54\"
\"\",\"\",\"approach-retreat\",\"58\",\"427852\",\"0.0-58.0\",\"\",\"\",\"1-4\",\"4104\",\"39\",\"0\",\"Training\",\"Stims/Figures/19-J-10-4.bmp\",\"sasaza\",\"Left\",\"37\",\"4\",\"7\",\"6B\",\"C2\",\"C\",\"55\"
\"\",\"\",\"approach-retreat\",\"59\",\"433520\",\"0.0-59.0\",\"\",\"\",\"1-4\",\"4160\",\"39\",\"0\",\"Training\",\"Stims/Figures/111-C-30-3.bmp\",\"fa:sha:sha\",\"Right\",\"37\",\"4\",\"8\",\"6B\",\"C1\",\"C\",\"56\"
\"\",\"\",\"approach-retreat\",\"60\",\"439339\",\"0.0-60.0\",\"\",\"\",\"1-4\",\"4316\",\"38\",\"1\",\"Training\",\"Stims/Figures/128-C-30-3.bmp\",\"va:fa:va\",\"Down\",\"38\",\"4\",\"9\",\"6B\",\"C1\",\"C\",\"57\"
\"\",\"\",\"approach-retreat\",\"61\",\"444894\",\"0.0-61.0\",\"\",\"\",\"1-4\",\"4051\",\"39\",\"1\",\"Training\",\"Stims/Figures/86-C-30-1.bmp\",\"vafa:sha\",\"Left\",\"39\",\"4\",\"10\",\"6B\",\"C1\",\"C\",\"58\"
\"\",\"\",\"approach-retreat\",\"62\",\"450457\",\"0.0-62.0\",\"\",\"\",\"1-4\",\"4059\",\"37\",\"1\",\"Training\",\"Stims/Figures/19-C-20-4.bmp\",\"va:sha:sha\",\"Right\",\"37\",\"4\",\"11\",\"6B\",\"C1\",\"C\",\"59\"
\"\",\"\",\"approach-retreat\",\"63\",\"456410\",\"0.0-63.0\",\"\",\"\",\"1-4\",\"4448\",\"40\",\"1\",\"Training\",\"Stims/Figures/84-C-20-2.bmp\",\"vafa:va\",\"Up\",\"40\",\"4\",\"12\",\"6B\",\"C1\",\"C\",\"60\"
\"\",\"\",\"approach-retreat\",\"64\",\"461832\",\"0.0-64.0\",\"\",\"\",\"1-4\",\"3915\",\"40\",\"0\",\"Training\",\"Stims/Figures/111-J-10-3.bmp\",\"za:sa:ha\",\"Up\",\"38\",\"4\",\"13\",\"6B\",\"C2\",\"C\",\"61\"
\"\",\"\",\"approach-retreat\",\"65\",\"467420\",\"0.0-65.0\",\"\",\"\",\"1-4\",\"4077\",\"38\",\"0\",\"Training\",\"Stims/Figures/57-C-30-1.bmp\",\"fa:fava\",\"Up\",\"40\",\"4\",\"14\",\"6B\",\"C1\",\"C\",\"62\"
\"\",\"\",\"approach-retreat\",\"66\",\"473054\",\"0.0-66.0\",\"\",\"\",\"1-4\",\"4129\",\"38\",\"1\",\"Training\",\"Stims/Figures/87-C-20-4.bmp\",\"vafasha\",\"Down\",\"38\",\"4\",\"15\",\"6B\",\"C1\",\"C\",\"63\"
\"\",\"\",\"approach-retreat\",\"67\",\"479570\",\"0.0-67.0\",\"\",\"\",\"1-4\",\"5013\",\"40\",\"0\",\"Training\",\"Stims/Figures/128-J-10-3.bmp\",\"zasa:za\",\"Up\",\"38\",\"4\",\"16\",\"6B\",\"C2\",\"C\",\"64\"
\"\",\"\",\"approach-retreat\",\"68\",\"490859\",\"0.0-68.0\",\"\",\"\",\"1-4\",\"9785\",\"40\",\"1\",\"Training\",\"Stims/Figures/86-J-0-1.bmp\",\"saha:za\",\"Down\",\"40\",\"5\",\"1\",\"6B\",\"C2\",\"C\",\"65\"
\"\",\"\",\"approach-retreat\",\"69\",\"497696\",\"0.0-69.0\",\"\",\"\",\"1-4\",\"5333\",\"37\",\"1\",\"Training\",\"Stims/Figures/128-C-30-3.bmp\",\"va:fa:va\",\"Right\",\"37\",\"5\",\"2\",\"6B\",\"C1\",\"C\",\"66\"
\"\",\"\",\"approach-retreat\",\"70\",\"503870\",\"0.0-70.0\",\"\",\"\",\"1-4\",\"4670\",\"40\",\"1\",\"Training\",\"Stims/Figures/87-C-20-4.bmp\",\"vafasha\",\"Up\",\"40\",\"5\",\"3\",\"6B\",\"C1\",\"C\",\"67\"
\"\",\"\",\"approach-retreat\",\"71\",\"519464\",\"0.0-71.0\",\"\",\"\",\"1-4\",\"14090\",\"40\",\"1\",\"Training\",\"Stims/Figures/19-C-20-4.bmp\",\"va:sha:sha\",\"Up\",\"40\",\"5\",\"4\",\"6B\",\"C1\",\"C\",\"68\"
\"\",\"\",\"approach-retreat\",\"72\",\"525133\",\"0.0-72.0\",\"\",\"\",\"1-4\",\"4165\",\"37\",\"1\",\"Training\",\"Stims/Figures/94-C-20-2.bmp\",\"va:shasha\",\"Right\",\"37\",\"5\",\"5\",\"6B\",\"C1\",\"C\",\"69\"
\"\",\"\",\"approach-retreat\",\"73\",\"531461\",\"0.0-73.0\",\"\",\"\",\"1-4\",\"4822\",\"40\",\"0\",\"Training\",\"Stims/Figures/87-J-10-4.bmp\",\"sahaza\",\"Up\",\"38\",\"5\",\"6\",\"6B\",\"C2\",\"C\",\"70\"
\"\",\"\",\"approach-retreat\",\"74\",\"537293\",\"0.0-74.0\",\"\",\"\",\"1-4\",\"4329\",\"38\",\"1\",\"Training\",\"Stims/Figures/84-C-20-2.bmp\",\"vafa:va\",\"Down\",\"38\",\"5\",\"7\",\"6B\",\"C1\",\"C\",\"71\"
\"\",\"\",\"approach-retreat\",\"75\",\"546363\",\"0.0-75.0\",\"\",\"\",\"1-4\",\"7558\",\"39\",\"0\",\"Training\",\"Stims/Figures/84-J-0-2.bmp\",\"zaha:za\",\"Left\",\"37\",\"5\",\"8\",\"6B\",\"C2\",\"C\",\"72\"
\"\",\"\",\"approach-retreat\",\"76\",\"559308\",\"0.0-76.0\",\"\",\"\",\"1-4\",\"11441\",\"37\",\"1\",\"Training\",\"Stims/Figures/111-C-30-3.bmp\",\"fa:sha:sha\",\"Right\",\"37\",\"5\",\"9\",\"6B\",\"C1\",\"C\",\"73\"
\"\",\"\",\"approach-retreat\",\"77\",\"575165\",\"0.0-77.0\",\"\",\"\",\"1-4\",\"14354\",\"37\",\"0\",\"Training\",\"Stims/Figures/57-J-0-1.bmp\",\"zasaza\",\"Right\",\"39\",\"5\",\"10\",\"6B\",\"C2\",\"C\",\"74\"
\"\",\"\",\"approach-retreat\",\"78\",\"581338\",\"0.0-78.0\",\"\",\"\",\"1-4\",\"4669\",\"38\",\"1\",\"Training\",\"Stims/Figures/86-C-30-1.bmp\",\"vafa:sha\",\"Down\",\"38\",\"5\",\"11\",\"6B\",\"C1\",\"C\",\"75\"
\"\",\"\",\"approach-retreat\",\"79\",\"587336\",\"0.0-79.0\",\"\",\"\",\"1-4\",\"4495\",\"40\",\"1\",\"Training\",\"Stims/Figures/94-J-0-2.bmp\",\"za:saha\",\"Down\",\"40\",\"5\",\"12\",\"6B\",\"C2\",\"C\",\"76\"
\"\",\"\",\"approach-retreat\",\"80\",\"594241\",\"0.0-80.0\",\"\",\"\",\"1-4\",\"5395\",\"40\",\"0\",\"Training\",\"Stims/Figures/19-J-10-4.bmp\",\"sasaza\",\"Up\",\"38\",\"5\",\"13\",\"6B\",\"C2\",\"C\",\"77\"
\"\",\"\",\"approach-retreat\",\"81\",\"599955\",\"0.0-81.0\",\"\",\"\",\"1-4\",\"4211\",\"37\",\"1\",\"Training\",\"Stims/Figures/111-J-10-3.bmp\",\"za:sa:ha\",\"Left\",\"37\",\"5\",\"14\",\"6B\",\"C2\",\"C\",\"78\"
\"\",\"\",\"approach-retreat\",\"82\",\"606726\",\"0.0-82.0\",\"\",\"\",\"1-4\",\"5263\",\"39\",\"0\",\"Training\",\"Stims/Figures/128-J-10-3.bmp\",\"zasa:za\",\"Left\",\"37\",\"5\",\"15\",\"6B\",\"C2\",\"C\",\"79\"
\"\",\"\",\"approach-retreat\",\"83\",\"613827\",\"0.0-83.0\",\"\",\"\",\"1-4\",\"5590\",\"37\",\"0\",\"Training\",\"Stims/Figures/57-C-30-1.bmp\",\"fa:fava\",\"Left\",\"39\",\"5\",\"16\",\"6B\",\"C1\",\"C\",\"80\"
\"\",\"\",\"approach-retreat\",\"84\",\"619435\",\"0.0-84.0\",\"\",\"\",\"1-4\",\"4100\",\"39\",\"0\",\"Training\",\"Stims/Figures/19-C-20-4.bmp\",\"va:sha:sha\",\"Right\",\"37\",\"6\",\"1\",\"6B\",\"C1\",\"C\",\"81\"
\"\",\"\",\"approach-retreat\",\"85\",\"625789\",\"0.0-85.0\",\"\",\"\",\"1-4\",\"4850\",\"40\",\"1\",\"Training\",\"Stims/Figures/94-C-20-2.bmp\",\"va:shasha\",\"Up\",\"40\",\"6\",\"2\",\"6B\",\"C1\",\"C\",\"82\"
\"\",\"\",\"approach-retreat\",\"86\",\"631372\",\"0.0-86.0\",\"\",\"\",\"1-4\",\"4074\",\"38\",\"0\",\"Training\",\"Stims/Figures/87-J-10-4.bmp\",\"sahaza\",\"Down\",\"40\",\"6\",\"3\",\"6B\",\"C2\",\"C\",\"83\"
\"\",\"\",\"approach-retreat\",\"87\",\"636941\",\"0.0-87.0\",\"\",\"\",\"1-4\",\"4066\",\"39\",\"1\",\"Training\",\"Stims/Figures/86-C-30-1.bmp\",\"vafa:sha\",\"Left\",\"39\",\"6\",\"4\",\"6B\",\"C1\",\"C\",\"84\"
\"\",\"\",\"approach-retreat\",\"88\",\"642506\",\"0.0-88.0\",\"\",\"\",\"1-4\",\"4057\",\"37\",\"1\",\"Training\",\"Stims/Figures/87-C-20-4.bmp\",\"vafasha\",\"Right\",\"37\",\"6\",\"5\",\"6B\",\"C1\",\"C\",\"85\"
\"\",\"\",\"approach-retreat\",\"89\",\"649643\",\"0.0-89.0\",\"\",\"\",\"1-4\",\"5632\",\"38\",\"1\",\"Training\",\"Stims/Figures/84-C-20-2.bmp\",\"vafa:va\",\"Down\",\"38\",\"6\",\"6\",\"6B\",\"C1\",\"C\",\"86\"
\"\",\"\",\"approach-retreat\",\"90\",\"656610\",\"0.0-90.0\",\"\",\"\",\"1-4\",\"5464\",\"40\",\"1\",\"Training\",\"Stims/Figures/86-J-0-1.bmp\",\"saha:za\",\"Down\",\"40\",\"6\",\"7\",\"6B\",\"C2\",\"C\",\"87\"
\"\",\"\",\"approach-retreat\",\"91\",\"662156\",\"0.0-91.0\",\"\",\"\",\"1-4\",\"4042\",\"39\",\"1\",\"Training\",\"Stims/Figures/128-C-30-3.bmp\",\"va:fa:va\",\"Left\",\"39\",\"6\",\"8\",\"6B\",\"C1\",\"C\",\"88\"
\"\",\"\",\"approach-retreat\",\"92\",\"672027\",\"0.0-92.0\",\"\",\"\",\"1-4\",\"8361\",\"40\",\"0\",\"Training\",\"Stims/Figures/19-J-10-4.bmp\",\"sasaza\",\"Up\",\"38\",\"6\",\"9\",\"6B\",\"C2\",\"C\",\"89\"
\"\",\"\",\"approach-retreat\",\"93\",\"696662\",\"0.0-93.0\",\"\",\"\",\"1-4\",\"23131\",\"39\",\"1\",\"Training\",\"Stims/Figures/111-J-10-3.bmp\",\"za:sa:ha\",\"Right\",\"39\",\"6\",\"10\",\"6B\",\"C2\",\"C\",\"90\"
\"\",\"\",\"approach-retreat\",\"94\",\"703773\",\"0.0-94.0\",\"\",\"\",\"1-4\",\"5603\",\"37\",\"0\",\"Training\",\"Stims/Figures/57-C-30-1.bmp\",\"fa:fava\",\"Left\",\"39\",\"6\",\"11\",\"6B\",\"C1\",\"C\",\"91\"
\"\",\"\",\"approach-retreat\",\"95\",\"709462\",\"0.0-95.0\",\"\",\"\",\"1-4\",\"4184\",\"39\",\"0\",\"Training\",\"Stims/Figures/111-C-30-3.bmp\",\"fa:sha:sha\",\"Right\",\"37\",\"6\",\"12\",\"6B\",\"C1\",\"C\",\"92\"
\"\",\"\",\"approach-retreat\",\"96\",\"715034\",\"0.0-96.0\",\"\",\"\",\"1-4\",\"4069\",\"37\",\"1\",\"Training\",\"Stims/Figures/57-J-0-1.bmp\",\"zasaza\",\"Left\",\"37\",\"6\",\"13\",\"6B\",\"C2\",\"C\",\"93\"
\"\",\"\",\"approach-retreat\",\"97\",\"720555\",\"0.0-97.0\",\"\",\"\",\"1-4\",\"4017\",\"38\",\"1\",\"Training\",\"Stims/Figures/84-J-0-2.bmp\",\"zaha:za\",\"Up\",\"38\",\"6\",\"14\",\"6B\",\"C2\",\"C\",\"94\"
\"\",\"\",\"approach-retreat\",\"98\",\"726173\",\"0.0-98.0\",\"\",\"\",\"1-4\",\"4114\",\"38\",\"1\",\"Training\",\"Stims/Figures/94-J-0-2.bmp\",\"za:saha\",\"Up\",\"38\",\"6\",\"15\",\"6B\",\"C2\",\"C\",\"95\"
\"\",\"\",\"approach-retreat\",\"99\",\"733132\",\"0.0-99.0\",\"\",\"\",\"1-4\",\"5448\",\"38\",\"0\",\"Training\",\"Stims/Figures/128-J-10-3.bmp\",\"zasa:za\",\"Down\",\"40\",\"6\",\"16\",\"6B\",\"C2\",\"C\",\"96\"
\"\",\"\",\"approach-retreat\",\"100\",\"738910\",\"0.0-100.0\",\"\",\"\",\"1-4\",\"4275\",\"39\",\"1\",\"Training\",\"Stims/Figures/19-C-20-4.bmp\",\"va:sha:sha\",\"Left\",\"39\",\"7\",\"1\",\"6B\",\"C1\",\"C\",\"97\"
\"\",\"\",\"approach-retreat\",\"101\",\"745691\",\"0.0-101.0\",\"\",\"\",\"1-4\",\"5277\",\"37\",\"1\",\"Training\",\"Stims/Figures/19-J-10-4.bmp\",\"sasaza\",\"Left\",\"37\",\"7\",\"2\",\"6B\",\"C2\",\"C\",\"98\"
\"\",\"\",\"approach-retreat\",\"102\",\"752042\",\"0.0-102.0\",\"\",\"\",\"1-4\",\"4848\",\"38\",\"1\",\"Training\",\"Stims/Figures/86-C-30-1.bmp\",\"vafa:sha\",\"Down\",\"38\",\"7\",\"3\",\"6B\",\"C1\",\"C\",\"99\"
\"\",\"\",\"approach-retreat\",\"103\",\"757708\",\"0.0-103.0\",\"\",\"\",\"1-4\",\"4162\",\"39\",\"1\",\"Training\",\"Stims/Figures/128-C-30-3.bmp\",\"va:fa:va\",\"Left\",\"39\",\"7\",\"4\",\"6B\",\"C1\",\"C\",\"100\"
\"\",\"\",\"approach-retreat\",\"104\",\"763160\",\"0.0-104.0\",\"\",\"\",\"1-4\",\"3949\",\"37\",\"1\",\"Training\",\"Stims/Figures/87-C-20-4.bmp\",\"vafasha\",\"Right\",\"37\",\"7\",\"5\",\"6B\",\"C1\",\"C\",\"101\"
\"\",\"\",\"approach-retreat\",\"105\",\"801063\",\"0.0-105.0\",\"\",\"\",\"1-4\",\"36395\",\"40\",\"0\",\"Training\",\"Stims/Figures/111-C-30-3.bmp\",\"fa:sha:sha\",\"Down\",\"38\",\"7\",\"6\",\"6B\",\"C1\",\"C\",\"102\"
\"\",\"\",\"approach-retreat\",\"106\",\"811151\",\"0.0-106.0\",\"\",\"\",\"1-4\",\"8585\",\"40\",\"0\",\"Training\",\"Stims/Figures/86-J-0-1.bmp\",\"saha:za\",\"Up\",\"38\",\"7\",\"7\",\"6B\",\"C2\",\"C\",\"103\"
\"\",\"\",\"approach-retreat\",\"107\",\"817642\",\"0.0-107.0\",\"\",\"\",\"1-4\",\"4983\",\"37\",\"0\",\"Training\",\"Stims/Figures/84-J-0-2.bmp\",\"zaha:za\",\"Right\",\"39\",\"7\",\"8\",\"6B\",\"C2\",\"C\",\"104\"
\"\",\"\",\"approach-retreat\",\"108\",\"823260\",\"0.0-108.0\",\"\",\"\",\"1-4\",\"4115\",\"37\",\"1\",\"Training\",\"Stims/Figures/94-J-0-2.bmp\",\"za:saha\",\"Left\",\"37\",\"7\",\"9\",\"6B\",\"C2\",\"C\",\"105\"
\"\",\"\",\"approach-retreat\",\"109\",\"829558\",\"0.0-109.0\",\"\",\"\",\"1-4\",\"4794\",\"40\",\"1\",\"Training\",\"Stims/Figures/94-C-20-2.bmp\",\"va:shasha\",\"Up\",\"40\",\"7\",\"10\",\"6B\",\"C1\",\"C\",\"106\"
\"\",\"\",\"approach-retreat\",\"110\",\"836117\",\"0.0-110.0\",\"\",\"\",\"1-4\",\"5056\",\"39\",\"1\",\"Training\",\"Stims/Figures/57-J-0-1.bmp\",\"zasaza\",\"Right\",\"39\",\"7\",\"11\",\"6B\",\"C2\",\"C\",\"107\"
\"\",\"\",\"approach-retreat\",\"111\",\"842075\",\"0.0-111.0\",\"\",\"\",\"1-4\",\"4456\",\"37\",\"1\",\"Training\",\"Stims/Figures/57-C-30-1.bmp\",\"fa:fava\",\"Right\",\"37\",\"7\",\"12\",\"6B\",\"C1\",\"C\",\"108\"
\"\",\"\",\"approach-retreat\",\"112\",\"847636\",\"0.0-112.0\",\"\",\"\",\"1-4\",\"4057\",\"40\",\"1\",\"Training\",\"Stims/Figures/84-C-20-2.bmp\",\"vafa:va\",\"Up\",\"40\",\"7\",\"13\",\"6B\",\"C1\",\"C\",\"109\"
\"\",\"\",\"approach-retreat\",\"113\",\"853299\",\"0.0-113.0\",\"\",\"\",\"1-4\",\"4155\",\"38\",\"0\",\"Training\",\"Stims/Figures/128-J-10-3.bmp\",\"zasa:za\",\"Down\",\"40\",\"7\",\"14\",\"6B\",\"C2\",\"C\",\"110\"
\"\",\"\",\"approach-retreat\",\"114\",\"859111\",\"0.0-114.0\",\"\",\"\",\"1-4\",\"4309\",\"40\",\"1\",\"Training\",\"Stims/Figures/111-J-10-3.bmp\",\"za:sa:ha\",\"Down\",\"40\",\"7\",\"15\",\"6B\",\"C2\",\"C\",\"111\"
\"\",\"\",\"approach-retreat\",\"115\",\"865216\",\"0.0-115.0\",\"\",\"\",\"1-4\",\"4595\",\"40\",\"0\",\"Training\",\"Stims/Figures/87-J-10-4.bmp\",\"sahaza\",\"Up\",\"38\",\"7\",\"16\",\"6B\",\"C2\",\"C\",\"112\"
\"\",\"\",\"approach-retreat\",\"116\",\"870722\",\"0.0-116.0\",\"\",\"\",\"1-4\",\"4004\",\"38\",\"1\",\"Training\",\"Stims/Figures/111-C-30-3.bmp\",\"fa:sha:sha\",\"Down\",\"38\",\"8\",\"1\",\"6B\",\"C1\",\"C\",\"113\"
\"\",\"\",\"approach-retreat\",\"117\",\"876293\",\"0.0-117.0\",\"\",\"\",\"1-4\",\"4067\",\"39\",\"1\",\"Training\",\"Stims/Figures/84-C-20-2.bmp\",\"vafa:va\",\"Left\",\"39\",\"8\",\"2\",\"6B\",\"C1\",\"C\",\"114\"
\"\",\"\",\"approach-retreat\",\"118\",\"881856\",\"0.0-118.0\",\"\",\"\",\"1-4\",\"4050\",\"38\",\"0\",\"Training\",\"Stims/Figures/128-J-10-3.bmp\",\"zasa:za\",\"Down\",\"40\",\"8\",\"3\",\"6B\",\"C2\",\"C\",\"115\"
\"\",\"\",\"approach-retreat\",\"119\",\"887585\",\"0.0-119.0\",\"\",\"\",\"1-4\",\"4226\",\"38\",\"0\",\"Training\",\"Stims/Figures/84-J-0-2.bmp\",\"zaha:za\",\"Down\",\"40\",\"8\",\"4\",\"6B\",\"C2\",\"C\",\"116\"
\"\",\"\",\"approach-retreat\",\"120\",\"893314\",\"0.0-120.0\",\"\",\"\",\"1-4\",\"4226\",\"39\",\"1\",\"Training\",\"Stims/Figures/94-C-20-2.bmp\",\"va:shasha\",\"Left\",\"39\",\"8\",\"5\",\"6B\",\"C1\",\"C\",\"117\"
\"\",\"\",\"approach-retreat\",\"121\",\"899004\",\"0.0-121.0\",\"\",\"\",\"1-4\",\"4187\",\"39\",\"1\",\"Training\",\"Stims/Figures/111-J-10-3.bmp\",\"za:sa:ha\",\"Right\",\"39\",\"8\",\"6\",\"6B\",\"C2\",\"C\",\"118\"
\"\",\"\",\"approach-retreat\",\"122\",\"904927\",\"0.0-122.0\",\"\",\"\",\"1-4\",\"4417\",\"38\",\"1\",\"Training\",\"Stims/Figures/19-J-10-4.bmp\",\"sasaza\",\"Up\",\"38\",\"8\",\"7\",\"6B\",\"C2\",\"C\",\"119\"
\"\",\"\",\"approach-retreat\",\"123\",\"910524\",\"0.0-123.0\",\"\",\"\",\"1-4\",\"4093\",\"39\",\"1\",\"Training\",\"Stims/Figures/57-J-0-1.bmp\",\"zasaza\",\"Right\",\"39\",\"8\",\"8\",\"6B\",\"C2\",\"C\",\"120\"
\"\",\"\",\"approach-retreat\",\"124\",\"916026\",\"0.0-124.0\",\"\",\"\",\"1-4\",\"3998\",\"39\",\"1\",\"Training\",\"Stims/Figures/128-C-30-3.bmp\",\"va:fa:va\",\"Left\",\"39\",\"8\",\"9\",\"6B\",\"C1\",\"C\",\"121\"
\"\",\"\",\"approach-retreat\",\"125\",\"922043\",\"0.0-125.0\",\"\",\"\",\"1-4\",\"4511\",\"37\",\"0\",\"Training\",\"Stims/Figures/57-C-30-1.bmp\",\"fa:fava\",\"Left\",\"39\",\"8\",\"10\",\"6B\",\"C1\",\"C\",\"122\"
\"\",\"\",\"approach-retreat\",\"126\",\"952001\",\"0.0-126.0\",\"\",\"\",\"1-4\",\"28455\",\"39\",\"0\",\"Training\",\"Stims/Figures/86-C-30-1.bmp\",\"vafa:sha\",\"Right\",\"37\",\"8\",\"11\",\"6B\",\"C1\",\"C\",\"123\"
\"\",\"\",\"approach-retreat\",\"127\",\"958766\",\"0.0-127.0\",\"\",\"\",\"1-4\",\"5262\",\"39\",\"1\",\"Training\",\"Stims/Figures/86-J-0-1.bmp\",\"saha:za\",\"Right\",\"39\",\"8\",\"12\",\"6B\",\"C2\",\"C\",\"124\"
\"\",\"\",\"approach-retreat\",\"128\",\"964842\",\"0.0-128.0\",\"\",\"\",\"1-4\",\"4572\",\"40\",\"1\",\"Training\",\"Stims/Figures/19-C-20-4.bmp\",\"va:sha:sha\",\"Up\",\"40\",\"8\",\"13\",\"6B\",\"C1\",\"C\",\"125\"
\"\",\"\",\"approach-retreat\",\"129\",\"971029\",\"0.0-129.0\",\"\",\"\",\"1-4\",\"4675\",\"38\",\"0\",\"Training\",\"Stims/Figures/87-J-10-4.bmp\",\"sahaza\",\"Down\",\"40\",\"8\",\"14\",\"6B\",\"C2\",\"C\",\"126\"
\"\",\"\",\"approach-retreat\",\"130\",\"977419\",\"0.0-130.0\",\"\",\"\",\"1-4\",\"4880\",\"40\",\"0\",\"Training\",\"Stims/Figures/94-J-0-2.bmp\",\"za:saha\",\"Up\",\"38\",\"8\",\"15\",\"6B\",\"C2\",\"C\",\"127\"
\"\",\"\",\"approach-retreat\",\"131\",\"984192\",\"0.0-131.0\",\"\",\"\",\"1-4\",\"5269\",\"40\",\"1\",\"Training\",\"Stims/Figures/87-C-20-4.bmp\",\"vafasha\",\"Up\",\"40\",\"8\",\"16\",\"6B\",\"C1\",\"C\",\"128\"
\"\",\"\",\"approach-retreat\",\"132\",\"989902\",\"0.0-132.0\",\"\",\"\",\"1-4\",\"4205\",\"37\",\"1\",\"Training\",\"Stims/Figures/128-C-30-3.bmp\",\"va:fa:va\",\"Right\",\"37\",\"9\",\"1\",\"6B\",\"C1\",\"C\",\"129\"
\"\",\"\",\"approach-retreat\",\"133\",\"995743\",\"0.0-133.0\",\"\",\"\",\"1-4\",\"4338\",\"37\",\"1\",\"Training\",\"Stims/Figures/19-J-10-4.bmp\",\"sasaza\",\"Left\",\"37\",\"9\",\"2\",\"6B\",\"C2\",\"C\",\"130\"
\"\",\"\",\"approach-retreat\",\"134\",\"1001379\",\"0.0-134.0\",\"\",\"\",\"1-4\",\"4132\",\"38\",\"1\",\"Training\",\"Stims/Figures/86-C-30-1.bmp\",\"vafa:sha\",\"Down\",\"38\",\"9\",\"3\",\"6B\",\"C1\",\"C\",\"131\"
\"\",\"\",\"approach-retreat\",\"135\",\"1009621\",\"0.0-135.0\",\"\",\"\",\"1-4\",\"6740\",\"39\",\"1\",\"Training\",\"Stims/Figures/87-C-20-4.bmp\",\"vafasha\",\"Left\",\"39\",\"9\",\"4\",\"6B\",\"C1\",\"C\",\"132\"
\"\",\"\",\"approach-retreat\",\"136\",\"1017566\",\"0.0-136.0\",\"\",\"\",\"1-4\",\"6439\",\"40\",\"0\",\"Training\",\"Stims/Figures/111-J-10-3.bmp\",\"za:sa:ha\",\"Up\",\"38\",\"9\",\"5\",\"6B\",\"C2\",\"C\",\"133\"
\"\",\"\",\"approach-retreat\",\"137\",\"1023382\",\"0.0-137.0\",\"\",\"\",\"1-4\",\"4312\",\"37\",\"1\",\"Training\",\"Stims/Figures/94-J-0-2.bmp\",\"za:saha\",\"Left\",\"37\",\"9\",\"6\",\"6B\",\"C2\",\"C\",\"134\"
\"\",\"\",\"approach-retreat\",\"138\",\"1029419\",\"0.0-138.0\",\"\",\"\",\"1-4\",\"4533\",\"38\",\"1\",\"Training\",\"Stims/Figures/57-J-0-1.bmp\",\"zasaza\",\"Up\",\"38\",\"9\",\"7\",\"6B\",\"C2\",\"C\",\"135\"
\"\",\"\",\"approach-retreat\",\"139\",\"1035413\",\"0.0-139.0\",\"\",\"\",\"1-4\",\"4487\",\"40\",\"1\",\"Training\",\"Stims/Figures/84-J-0-2.bmp\",\"zaha:za\",\"Down\",\"40\",\"9\",\"8\",\"6B\",\"C2\",\"C\",\"136\"
\"\",\"\",\"approach-retreat\",\"140\",\"1041836\",\"0.0-140.0\",\"\",\"\",\"1-4\",\"4915\",\"37\",\"0\",\"Training\",\"Stims/Figures/86-J-0-1.bmp\",\"saha:za\",\"Right\",\"39\",\"9\",\"9\",\"6B\",\"C2\",\"C\",\"137\"
\"\",\"\",\"approach-retreat\",\"141\",\"1047428\",\"0.0-141.0\",\"\",\"\",\"1-4\",\"4090\",\"37\",\"1\",\"Training\",\"Stims/Figures/57-C-30-1.bmp\",\"fa:fava\",\"Right\",\"37\",\"9\",\"10\",\"6B\",\"C1\",\"C\",\"138\"
\"\",\"\",\"approach-retreat\",\"142\",\"1053056\",\"0.0-142.0\",\"\",\"\",\"1-4\",\"4125\",\"37\",\"1\",\"Training\",\"Stims/Figures/84-C-20-2.bmp\",\"vafa:va\",\"Right\",\"37\",\"9\",\"11\",\"6B\",\"C1\",\"C\",\"139\"
\"\",\"\",\"approach-retreat\",\"143\",\"1058621\",\"0.0-143.0\",\"\",\"\",\"1-4\",\"4061\",\"38\",\"1\",\"Training\",\"Stims/Figures/111-C-30-3.bmp\",\"fa:sha:sha\",\"Down\",\"38\",\"9\",\"12\",\"6B\",\"C1\",\"C\",\"140\"
\"\",\"\",\"approach-retreat\",\"144\",\"1064662\",\"0.0-144.0\",\"\",\"\",\"1-4\",\"4533\",\"38\",\"0\",\"Training\",\"Stims/Figures/128-J-10-3.bmp\",\"zasa:za\",\"Down\",\"40\",\"9\",\"13\",\"6B\",\"C2\",\"C\",\"141\"
\"\",\"\",\"approach-retreat\",\"145\",\"1077848\",\"0.0-145.0\",\"\",\"\",\"1-4\",\"11677\",\"40\",\"0\",\"Training\",\"Stims/Figures/87-J-10-4.bmp\",\"sahaza\",\"Up\",\"38\",\"9\",\"14\",\"6B\",\"C2\",\"C\",\"142\"
\"\",\"\",\"approach-retreat\",\"146\",\"1089033\",\"0.0-146.0\",\"\",\"\",\"1-4\",\"9682\",\"40\",\"1\",\"Training\",\"Stims/Figures/94-C-20-2.bmp\",\"va:shasha\",\"Up\",\"40\",\"9\",\"15\",\"6B\",\"C1\",\"C\",\"143\"
\"\",\"\",\"approach-retreat\",\"147\",\"1095214\",\"0.0-147.0\",\"\",\"\",\"1-4\",\"4676\",\"39\",\"1\",\"Training\",\"Stims/Figures/19-C-20-4.bmp\",\"va:sha:sha\",\"Left\",\"39\",\"9\",\"16\",\"6B\",\"C1\",\"C\",\"144\"
\"14523\",\"\",\"instructions\",\"148\",\"1109737\",\"0.0-148.0\",\"[{\"\"page_index\"\":0,\"\"viewing_time\"\":14523}]\",\"\",\"\",\"\",\"\",\"\",\"\",\"\",\"\",\"\",\"\",\"\",\"\",\"\",\"\",\"\",\"\"
\"\",\"\",\"approach-retreat\",\"149\",\"1115608\",\"0.0-149.0\",\"\",\"\",\"1-4\",\"4363\",\"40\",\"1\",\"Testing\",\"Stims/Figures/57-J-0-1.bmp\",\"zasaza\",\"Down\",\"40\",\"1\",\"1\",\"6B\",\"C2\",\"C\",\"1\"
\"\",\"\",\"approach-retreat\",\"150\",\"1121268\",\"0.0-150.0\",\"\",\"\",\"1-4\",\"4153\",\"37\",\"0\",\"Testing\",\"Stims/Figures/19-J-10-4.bmp\",\"sasaza\",\"Right\",\"39\",\"1\",\"2\",\"6B\",\"C2\",\"C\",\"2\"
\"\",\"\",\"approach-retreat\",\"151\",\"1127038\",\"0.0-151.0\",\"\",\"\",\"1-4\",\"4258\",\"37\",\"1\",\"Testing\",\"Stims/Figures/94-C-20-2.bmp\",\"va:shasha\",\"Right\",\"37\",\"1\",\"3\",\"6B\",\"C1\",\"C\",\"3\"
\"\",\"\",\"approach-retreat\",\"152\",\"1132878\",\"0.0-152.0\",\"\",\"\",\"1-4\",\"4336\",\"37\",\"1\",\"Testing\",\"Stims/Figures/84-J-0-2.bmp\",\"zaha:za\",\"Left\",\"37\",\"1\",\"4\",\"6B\",\"C2\",\"C\",\"4\"
\"\",\"\",\"approach-retreat\",\"153\",\"1138548\",\"0.0-153.0\",\"\",\"\",\"1-4\",\"4159\",\"37\",\"1\",\"Testing\",\"Stims/Figures/84-C-20-2.bmp\",\"vafa:va\",\"Right\",\"37\",\"1\",\"5\",\"6B\",\"C1\",\"C\",\"5\"
\"\",\"\",\"approach-retreat\",\"154\",\"1144398\",\"0.0-154.0\",\"\",\"\",\"1-4\",\"4345\",\"37\",\"1\",\"Testing\",\"Stims/Figures/102-C-20-4.bmp\",\"vashava\",\"Right\",\"37\",\"1\",\"6\",\"6B\",\"C1\",\"C\",\"6\"
\"\",\"\",\"approach-retreat\",\"155\",\"1150198\",\"0.0-155.0\",\"\",\"\",\"1-4\",\"4295\",\"37\",\"1\",\"Testing\",\"Stims/Figures/111-J-10-3.bmp\",\"za:sa:ha\",\"Left\",\"37\",\"1\",\"7\",\"6B\",\"C2\",\"C\",\"7\"
\"\",\"\",\"approach-retreat\",\"156\",\"1155908\",\"0.0-156.0\",\"\",\"\",\"1-4\",\"4204\",\"40\",\"0\",\"Testing\",\"Stims/Figures/87-J-10-4.bmp\",\"sahaza\",\"Up\",\"38\",\"1\",\"8\",\"6B\",\"C2\",\"C\",\"8\"
\"\",\"\",\"approach-retreat\",\"157\",\"1161698\",\"0.0-157.0\",\"\",\"\",\"1-4\",\"4286\",\"38\",\"1\",\"Testing\",\"Stims/Figures/44-J-10-3.bmp\",\"sa:haha\",\"Up\",\"38\",\"1\",\"9\",\"6B\",\"C2\",\"C\",\"9\"
\"\",\"\",\"approach-retreat\",\"158\",\"1167328\",\"0.0-158.0\",\"\",\"\",\"1-4\",\"4123\",\"39\",\"1\",\"Testing\",\"Stims/Figures/87-C-20-4.bmp\",\"vafasha\",\"Left\",\"39\",\"1\",\"10\",\"6B\",\"C1\",\"C\",\"10\"
\"\",\"\",\"approach-retreat\",\"159\",\"1173008\",\"0.0-159.0\",\"\",\"\",\"1-4\",\"4172\",\"39\",\"1\",\"Testing\",\"Stims/Figures/71-C-30-1.bmp\",\"vashasha\",\"Left\",\"39\",\"1\",\"11\",\"6B\",\"C1\",\"C\",\"11\"
\"\",\"\",\"approach-retreat\",\"160\",\"1178828\",\"0.0-160.0\",\"\",\"\",\"1-4\",\"4306\",\"38\",\"1\",\"Testing\",\"Stims/Figures/128-C-30-3.bmp\",\"va:fa:va\",\"Down\",\"38\",\"1\",\"12\",\"6B\",\"C1\",\"C\",\"12\"
\"\",\"\",\"approach-retreat\",\"161\",\"1185638\",\"0.0-161.0\",\"\",\"\",\"1-4\",\"5297\",\"38\",\"1\",\"Testing\",\"Stims/Figures/85-J-0-2.bmp\",\"sa:saha\",\"Up\",\"38\",\"1\",\"13\",\"6B\",\"C2\",\"C\",\"13\"
\"\",\"\",\"approach-retreat\",\"162\",\"1191708\",\"0.0-162.0\",\"\",\"\",\"1-4\",\"4558\",\"38\",\"1\",\"Testing\",\"Stims/Figures/71-J-0-1.bmp\",\"za:sa:za\",\"Up\",\"38\",\"1\",\"14\",\"6B\",\"C2\",\"C\",\"14\"
\"\",\"\",\"approach-retreat\",\"163\",\"1197298\",\"0.0-163.0\",\"\",\"\",\"1-4\",\"4078\",\"38\",\"1\",\"Testing\",\"Stims/Figures/102-J-10-4.bmp\",\"zasa:ha\",\"Up\",\"38\",\"1\",\"15\",\"6B\",\"C2\",\"C\",\"15\"
\"\",\"\",\"approach-retreat\",\"164\",\"1202858\",\"0.0-164.0\",\"\",\"\",\"1-4\",\"4049\",\"37\",\"1\",\"Testing\",\"Stims/Figures/128-J-10-3.bmp\",\"zasa:za\",\"Left\",\"37\",\"1\",\"16\",\"6B\",\"C2\",\"C\",\"16\"
\"\",\"\",\"approach-retreat\",\"165\",\"1208468\",\"0.0-165.0\",\"\",\"\",\"1-4\",\"4107\",\"40\",\"1\",\"Testing\",\"Stims/Figures/19-C-20-4.bmp\",\"va:sha:sha\",\"Up\",\"40\",\"1\",\"17\",\"6B\",\"C1\",\"C\",\"17\"
\"\",\"\",\"approach-retreat\",\"166\",\"1214248\",\"0.0-166.0\",\"\",\"\",\"1-4\",\"4271\",\"38\",\"1\",\"Testing\",\"Stims/Figures/111-C-30-3.bmp\",\"fa:sha:sha\",\"Down\",\"38\",\"1\",\"18\",\"6B\",\"C1\",\"C\",\"18\"
\"\",\"\",\"approach-retreat\",\"167\",\"1220468\",\"0.0-167.0\",\"\",\"\",\"1-4\",\"4710\",\"37\",\"1\",\"Testing\",\"Stims/Figures/85-C-20-2.bmp\",\"vasha:sha\",\"Right\",\"37\",\"1\",\"19\",\"6B\",\"C1\",\"C\",\"19\"
\"\",\"\",\"approach-retreat\",\"168\",\"1226008\",\"0.0-168.0\",\"\",\"\",\"1-4\",\"4035\",\"38\",\"1\",\"Testing\",\"Stims/Figures/57-C-30-1.bmp\",\"fa:fava\",\"Down\",\"38\",\"1\",\"20\",\"6B\",\"C1\",\"C\",\"20\"
\"\",\"\",\"approach-retreat\",\"169\",\"1231768\",\"0.0-169.0\",\"\",\"\",\"1-4\",\"4254\",\"40\",\"1\",\"Testing\",\"Stims/Figures/94-J-0-2.bmp\",\"za:saha\",\"Down\",\"40\",\"1\",\"21\",\"6B\",\"C2\",\"C\",\"21\"
\"\",\"\",\"approach-retreat\",\"170\",\"1237508\",\"0.0-170.0\",\"\",\"\",\"1-4\",\"4235\",\"38\",\"1\",\"Testing\",\"Stims/Figures/86-C-30-1.bmp\",\"vafa:sha\",\"Down\",\"38\",\"1\",\"22\",\"6B\",\"C1\",\"C\",\"22\"
\"\",\"\",\"approach-retreat\",\"171\",\"1243118\",\"0.0-171.0\",\"\",\"\",\"1-4\",\"4106\",\"37\",\"1\",\"Testing\",\"Stims/Figures/44-C-30-3.bmp\",\"va:shava\",\"Right\",\"37\",\"1\",\"23\",\"6B\",\"C1\",\"C\",\"23\"
\"\",\"\",\"approach-retreat\",\"172\",\"1249648\",\"0.0-172.0\",\"\",\"\",\"1-4\",\"5026\",\"37\",\"1\",\"Testing\",\"Stims/Figures/86-J-0-1.bmp\",\"saha:za\",\"Left\",\"37\",\"1\",\"24\",\"6B\",\"C2\",\"C\",\"24\"
\"\",\"\",\"approach-retreat\",\"173\",\"1255668\",\"0.0-173.0\",\"\",\"\",\"1-4\",\"4512\",\"37\",\"1\",\"Testing\",\"Stims/Figures/128-J-10-3.bmp\",\"zasa:za\",\"Left\",\"37\",\"2\",\"1\",\"6B\",\"C2\",\"C\",\"25\"
\"\",\"\",\"approach-retreat\",\"174\",\"1262018\",\"0.0-174.0\",\"\",\"\",\"1-4\",\"4840\",\"39\",\"1\",\"Testing\",\"Stims/Figures/57-J-0-1.bmp\",\"zasaza\",\"Right\",\"39\",\"2\",\"2\",\"6B\",\"C2\",\"C\",\"26\"
\"\",\"\",\"approach-retreat\",\"175\",\"1268588\",\"0.0-175.0\",\"\",\"\",\"1-4\",\"5060\",\"38\",\"1\",\"Testing\",\"Stims/Figures/44-C-30-3.bmp\",\"va:shava\",\"Down\",\"38\",\"2\",\"3\",\"6B\",\"C1\",\"C\",\"27\"
\"\",\"\",\"approach-retreat\",\"176\",\"1277238\",\"0.0-176.0\",\"\",\"\",\"1-4\",\"7139\",\"40\",\"1\",\"Testing\",\"Stims/Figures/94-C-20-2.bmp\",\"va:shasha\",\"Up\",\"40\",\"2\",\"4\",\"6B\",\"C1\",\"C\",\"28\"
\"\",\"\",\"approach-retreat\",\"177\",\"1283088\",\"0.0-177.0\",\"\",\"\",\"1-4\",\"4340\",\"39\",\"1\",\"Testing\",\"Stims/Figures/71-C-30-1.bmp\",\"vashasha\",\"Left\",\"39\",\"2\",\"5\",\"6B\",\"C1\",\"C\",\"29\"
\"\",\"\",\"approach-retreat\",\"178\",\"1288968\",\"0.0-178.0\",\"\",\"\",\"1-4\",\"4368\",\"40\",\"1\",\"Testing\",\"Stims/Figures/84-J-0-2.bmp\",\"zaha:za\",\"Down\",\"40\",\"2\",\"6\",\"6B\",\"C2\",\"C\",\"30\"
\"\",\"\",\"approach-retreat\",\"179\",\"1294628\",\"0.0-179.0\",\"\",\"\",\"1-4\",\"4153\",\"37\",\"1\",\"Testing\",\"Stims/Figures/94-J-0-2.bmp\",\"za:saha\",\"Left\",\"37\",\"2\",\"7\",\"6B\",\"C2\",\"C\",\"31\"
\"\",\"\",\"approach-retreat\",\"180\",\"1334158\",\"0.0-180.0\",\"\",\"\",\"1-4\",\"38021\",\"40\",\"1\",\"Testing\",\"Stims/Figures/111-J-10-3.bmp\",\"za:sa:ha\",\"Down\",\"40\",\"2\",\"8\",\"6B\",\"C2\",\"C\",\"32\"
\"\",\"\",\"approach-retreat\",\"181\",\"1340878\",\"0.0-181.0\",\"\",\"\",\"1-4\",\"5210\",\"38\",\"0\",\"Testing\",\"Stims/Figures/111-C-30-3.bmp\",\"fa:sha:sha\",\"Up\",\"40\",\"2\",\"9\",\"6B\",\"C1\",\"C\",\"33\"
\"\",\"\",\"approach-retreat\",\"182\",\"1350898\",\"0.0-182.0\",\"\",\"\",\"1-4\",\"8509\",\"37\",\"1\",\"Testing\",\"Stims/Figures/71-J-0-1.bmp\",\"za:sa:za\",\"Left\",\"37\",\"2\",\"10\",\"6B\",\"C2\",\"C\",\"34\"
\"\",\"\",\"approach-retreat\",\"183\",\"1358228\",\"0.0-183.0\",\"\",\"\",\"1-4\",\"5825\",\"38\",\"0\",\"Testing\",\"Stims/Figures/102-C-20-4.bmp\",\"vashava\",\"Up\",\"40\",\"2\",\"11\",\"6B\",\"C1\",\"C\",\"35\"
\"\",\"\",\"approach-retreat\",\"184\",\"1365658\",\"0.0-184.0\",\"\",\"\",\"1-4\",\"5925\",\"39\",\"1\",\"Testing\",\"Stims/Figures/86-J-0-1.bmp\",\"saha:za\",\"Right\",\"39\",\"2\",\"12\",\"6B\",\"C2\",\"C\",\"36\"
\"\",\"\",\"approach-retreat\",\"185\",\"1371840\",\"0.0-185.0\",\"\",\"\",\"1-4\",\"4671\",\"40\",\"0\",\"Testing\",\"Stims/Figures/87-J-10-4.bmp\",\"sahaza\",\"Up\",\"38\",\"2\",\"13\",\"6B\",\"C2\",\"C\",\"37\"
\"\",\"\",\"approach-retreat\",\"186\",\"1379720\",\"0.0-186.0\",\"\",\"\",\"1-4\",\"6377\",\"38\",\"1\",\"Testing\",\"Stims/Figures/85-C-20-2.bmp\",\"vasha:sha\",\"Down\",\"38\",\"2\",\"14\",\"6B\",\"C1\",\"C\",\"38\"
\"\",\"\",\"approach-retreat\",\"187\",\"1385420\",\"0.0-187.0\",\"\",\"\",\"1-4\",\"4194\",\"39\",\"1\",\"Testing\",\"Stims/Figures/87-C-20-4.bmp\",\"vafasha\",\"Left\",\"39\",\"2\",\"15\",\"6B\",\"C1\",\"C\",\"39\"
\"\",\"\",\"approach-retreat\",\"188\",\"1393590\",\"0.0-188.0\",\"\",\"\",\"1-4\",\"6665\",\"37\",\"0\",\"Testing\",\"Stims/Figures/85-J-0-2.bmp\",\"sa:saha\",\"Right\",\"39\",\"2\",\"16\",\"6B\",\"C2\",\"C\",\"40\"
\"\",\"\",\"approach-retreat\",\"189\",\"1399270\",\"0.0-189.0\",\"\",\"\",\"1-4\",\"4176\",\"40\",\"1\",\"Testing\",\"Stims/Figures/84-C-20-2.bmp\",\"vafa:va\",\"Up\",\"40\",\"2\",\"17\",\"6B\",\"C1\",\"C\",\"41\"
\"\",\"\",\"approach-retreat\",\"190\",\"1405620\",\"0.0-190.0\",\"\",\"\",\"1-4\",\"4842\",\"37\",\"1\",\"Testing\",\"Stims/Figures/57-C-30-1.bmp\",\"fa:fava\",\"Right\",\"37\",\"2\",\"18\",\"6B\",\"C1\",\"C\",\"42\"
\"\",\"\",\"approach-retreat\",\"191\",\"1411540\",\"0.0-191.0\",\"\",\"\",\"1-4\",\"4416\",\"38\",\"1\",\"Testing\",\"Stims/Figures/19-C-20-4.bmp\",\"va:sha:sha\",\"Down\",\"38\",\"2\",\"19\",\"6B\",\"C1\",\"C\",\"43\"
\"\",\"\",\"approach-retreat\",\"192\",\"1417600\",\"0.0-192.0\",\"\",\"\",\"1-4\",\"4556\",\"38\",\"0\",\"Testing\",\"Stims/Figures/102-J-10-4.bmp\",\"zasa:ha\",\"Down\",\"40\",\"2\",\"20\",\"6B\",\"C2\",\"C\",\"44\"
\"\",\"\",\"approach-retreat\",\"193\",\"1423230\",\"0.0-193.0\",\"\",\"\",\"1-4\",\"4120\",\"37\",\"1\",\"Testing\",\"Stims/Figures/19-J-10-4.bmp\",\"sasaza\",\"Left\",\"37\",\"2\",\"21\",\"6B\",\"C2\",\"C\",\"45\"
\"\",\"\",\"approach-retreat\",\"194\",\"1428810\",\"0.0-194.0\",\"\",\"\",\"1-4\",\"4075\",\"40\",\"1\",\"Testing\",\"Stims/Figures/128-C-30-3.bmp\",\"va:fa:va\",\"Up\",\"40\",\"2\",\"22\",\"6B\",\"C1\",\"C\",\"46\"
\"\",\"\",\"approach-retreat\",\"195\",\"1434590\",\"0.0-195.0\",\"\",\"\",\"1-4\",\"4277\",\"39\",\"1\",\"Testing\",\"Stims/Figures/44-J-10-3.bmp\",\"sa:haha\",\"Right\",\"39\",\"2\",\"23\",\"6B\",\"C2\",\"C\",\"47\"
\"\",\"\",\"approach-retreat\",\"196\",\"1440750\",\"0.0-196.0\",\"\",\"\",\"1-4\",\"4648\",\"37\",\"1\",\"Testing\",\"Stims/Figures/86-C-30-1.bmp\",\"vafa:sha\",\"Right\",\"37\",\"2\",\"24\",\"6B\",\"C1\",\"C\",\"48\"
\"\",\"\",\"approach-retreat\",\"197\",\"1446800\",\"0.0-197.0\",\"\",\"\",\"1-4\",\"4540\",\"40\",\"1\",\"Testing\",\"Stims/Figures/44-J-10-3.bmp\",\"sa:haha\",\"Down\",\"40\",\"3\",\"1\",\"6B\",\"C2\",\"C\",\"49\"
\"\",\"\",\"approach-retreat\",\"198\",\"1452910\",\"0.0-198.0\",\"\",\"\",\"1-4\",\"4605\",\"39\",\"1\",\"Testing\",\"Stims/Figures/85-C-20-2.bmp\",\"vasha:sha\",\"Left\",\"39\",\"3\",\"2\",\"6B\",\"C1\",\"C\",\"50\"
\"\",\"\",\"approach-retreat\",\"199\",\"1458430\",\"0.0-199.0\",\"\",\"\",\"1-4\",\"4016\",\"40\",\"1\",\"Testing\",\"Stims/Figures/87-J-10-4.bmp\",\"sahaza\",\"Down\",\"40\",\"3\",\"3\",\"6B\",\"C2\",\"C\",\"51\"
\"\",\"\",\"approach-retreat\",\"200\",\"1464120\",\"0.0-200.0\",\"\",\"\",\"1-4\",\"4187\",\"37\",\"1\",\"Testing\",\"Stims/Figures/111-C-30-3.bmp\",\"fa:sha:sha\",\"Right\",\"37\",\"3\",\"4\",\"6B\",\"C1\",\"C\",\"52\"
\"\",\"\",\"approach-retreat\",\"201\",\"1471010\",\"0.0-201.0\",\"\",\"\",\"1-4\",\"5381\",\"37\",\"1\",\"Testing\",\"Stims/Figures/19-J-10-4.bmp\",\"sasaza\",\"Left\",\"37\",\"3\",\"5\",\"6B\",\"C2\",\"C\",\"53\"
\"\",\"\",\"approach-retreat\",\"202\",\"1476880\",\"0.0-202.0\",\"\",\"\",\"1-4\",\"4365\",\"40\",\"1\",\"Testing\",\"Stims/Figures/94-C-20-2.bmp\",\"va:shasha\",\"Up\",\"40\",\"3\",\"6\",\"6B\",\"C1\",\"C\",\"54\"
\"\",\"\",\"approach-retreat\",\"203\",\"1483230\",\"0.0-203.0\",\"\",\"\",\"1-4\",\"4839\",\"40\",\"1\",\"Testing\",\"Stims/Figures/86-C-30-1.bmp\",\"vafa:sha\",\"Up\",\"40\",\"3\",\"7\",\"6B\",\"C1\",\"C\",\"55\"
\"\",\"\",\"approach-retreat\",\"204\",\"1489350\",\"0.0-204.0\",\"\",\"\",\"1-4\",\"4611\",\"38\",\"1\",\"Testing\",\"Stims/Figures/85-J-0-2.bmp\",\"sa:saha\",\"Up\",\"38\",\"3\",\"8\",\"6B\",\"C2\",\"C\",\"56\"
\"\",\"\",\"approach-retreat\",\"205\",\"1494952\",\"0.0-205.0\",\"\",\"\",\"1-4\",\"4094\",\"40\",\"1\",\"Testing\",\"Stims/Figures/111-J-10-3.bmp\",\"za:sa:ha\",\"Down\",\"40\",\"3\",\"9\",\"6B\",\"C2\",\"C\",\"57\"
\"\",\"\",\"approach-retreat\",\"206\",\"1501192\",\"0.0-206.0\",\"\",\"\",\"1-4\",\"4729\",\"39\",\"1\",\"Testing\",\"Stims/Figures/57-C-30-1.bmp\",\"fa:fava\",\"Left\",\"39\",\"3\",\"10\",\"6B\",\"C1\",\"C\",\"58\"
\"\",\"\",\"approach-retreat\",\"207\",\"1507872\",\"0.0-207.0\",\"\",\"\",\"1-4\",\"5175\",\"39\",\"1\",\"Testing\",\"Stims/Figures/102-C-20-4.bmp\",\"vashava\",\"Left\",\"39\",\"3\",\"11\",\"6B\",\"C1\",\"C\",\"59\"
\"\",\"\",\"approach-retreat\",\"208\",\"1513783\",\"0.0-208.0\",\"\",\"\",\"1-4\",\"4402\",\"38\",\"1\",\"Testing\",\"Stims/Figures/44-C-30-3.bmp\",\"va:shava\",\"Down\",\"38\",\"3\",\"12\",\"6B\",\"C1\",\"C\",\"60\"
\"\",\"\",\"approach-retreat\",\"209\",\"1522182\",\"0.0-209.0\",\"\",\"\",\"1-4\",\"6896\",\"37\",\"0\",\"Testing\",\"Stims/Figures/128-J-10-3.bmp\",\"zasa:za\",\"Right\",\"39\",\"3\",\"13\",\"6B\",\"C2\",\"C\",\"61\"
\"\",\"\",\"approach-retreat\",\"210\",\"1528552\",\"0.0-210.0\",\"\",\"\",\"1-4\",\"4866\",\"38\",\"1\",\"Testing\",\"Stims/Figures/94-J-0-2.bmp\",\"za:saha\",\"Up\",\"38\",\"3\",\"14\",\"6B\",\"C2\",\"C\",\"62\"
\"\",\"\",\"approach-retreat\",\"211\",\"1537442\",\"0.0-211.0\",\"\",\"\",\"1-4\",\"7384\",\"38\",\"1\",\"Testing\",\"Stims/Figures/71-C-30-1.bmp\",\"vashasha\",\"Down\",\"38\",\"3\",\"15\",\"6B\",\"C1\",\"C\",\"63\"
\"\",\"\",\"approach-retreat\",\"212\",\"1544032\",\"0.0-212.0\",\"\",\"\",\"1-4\",\"5078\",\"39\",\"1\",\"Testing\",\"Stims/Figures/71-J-0-1.bmp\",\"za:sa:za\",\"Right\",\"39\",\"3\",\"16\",\"6B\",\"C2\",\"C\",\"64\"
\"\",\"\",\"approach-retreat\",\"213\",\"1551922\",\"0.0-213.0\",\"\",\"\",\"1-4\",\"6381\",\"39\",\"1\",\"Testing\",\"Stims/Figures/57-J-0-1.bmp\",\"zasaza\",\"Right\",\"39\",\"3\",\"17\",\"6B\",\"C2\",\"C\",\"65\"
\"\",\"\",\"approach-retreat\",\"214\",\"1569962\",\"0.0-214.0\",\"\",\"\",\"1-4\",\"16536\",\"39\",\"1\",\"Testing\",\"Stims/Figures/86-J-0-1.bmp\",\"saha:za\",\"Right\",\"39\",\"3\",\"18\",\"6B\",\"C2\",\"C\",\"66\"
\"\",\"\",\"approach-retreat\",\"215\",\"1576154\",\"0.0-215.0\",\"\",\"\",\"1-4\",\"4688\",\"38\",\"1\",\"Testing\",\"Stims/Figures/128-C-30-3.bmp\",\"va:fa:va\",\"Down\",\"38\",\"3\",\"19\",\"6B\",\"C1\",\"C\",\"67\"
\"\",\"\",\"approach-retreat\",\"216\",\"1582254\",\"0.0-216.0\",\"\",\"\",\"1-4\",\"4594\",\"40\",\"1\",\"Testing\",\"Stims/Figures/84-C-20-2.bmp\",\"vafa:va\",\"Up\",\"40\",\"3\",\"20\",\"6B\",\"C1\",\"C\",\"68\"
\"\",\"\",\"approach-retreat\",\"217\",\"1588644\",\"0.0-217.0\",\"\",\"\",\"1-4\",\"4878\",\"39\",\"1\",\"Testing\",\"Stims/Figures/87-C-20-4.bmp\",\"vafasha\",\"Left\",\"39\",\"3\",\"21\",\"6B\",\"C1\",\"C\",\"69\"
\"\",\"\",\"approach-retreat\",\"218\",\"1594444\",\"0.0-218.0\",\"\",\"\",\"1-4\",\"4293\",\"38\",\"1\",\"Testing\",\"Stims/Figures/84-J-0-2.bmp\",\"zaha:za\",\"Up\",\"38\",\"3\",\"22\",\"6B\",\"C2\",\"C\",\"70\"
\"\",\"\",\"approach-retreat\",\"219\",\"1600204\",\"0.0-219.0\",\"\",\"\",\"1-4\",\"4252\",\"39\",\"1\",\"Testing\",\"Stims/Figures/19-C-20-4.bmp\",\"va:sha:sha\",\"Left\",\"39\",\"3\",\"23\",\"6B\",\"C1\",\"C\",\"71\"
\"\",\"\",\"approach-retreat\",\"220\",\"1606454\",\"0.0-220.0\",\"\",\"\",\"1-4\",\"4744\",\"39\",\"1\",\"Testing\",\"Stims/Figures/102-J-10-4.bmp\",\"zasa:ha\",\"Right\",\"39\",\"3\",\"24\",\"6B\",\"C2\",\"C\",\"72\"
\"\",\"\",\"approach-retreat\",\"221\",\"1613404\",\"0.0-221.0\",\"\",\"\",\"1-4\",\"5440\",\"37\",\"1\",\"Testing\",\"Stims/Figures/85-J-0-2.bmp\",\"sa:saha\",\"Left\",\"37\",\"4\",\"1\",\"6B\",\"C2\",\"C\",\"73\"
\"\",\"\",\"approach-retreat\",\"222\",\"1620364\",\"0.0-222.0\",\"\",\"\",\"1-4\",\"5450\",\"38\",\"1\",\"Testing\",\"Stims/Figures/44-J-10-3.bmp\",\"sa:haha\",\"Up\",\"38\",\"4\",\"2\",\"6B\",\"C2\",\"C\",\"74\"
\"\",\"\",\"approach-retreat\",\"223\",\"1626244\",\"0.0-223.0\",\"\",\"\",\"1-4\",\"4374\",\"37\",\"1\",\"Testing\",\"Stims/Figures/111-J-10-3.bmp\",\"za:sa:ha\",\"Left\",\"37\",\"4\",\"3\",\"6B\",\"C2\",\"C\",\"75\"
\"\",\"\",\"approach-retreat\",\"224\",\"1632334\",\"0.0-224.0\",\"\",\"\",\"1-4\",\"4585\",\"39\",\"1\",\"Testing\",\"Stims/Figures/111-C-30-3.bmp\",\"fa:sha:sha\",\"Left\",\"39\",\"4\",\"4\",\"6B\",\"C1\",\"C\",\"76\"
\"\",\"\",\"approach-retreat\",\"225\",\"1642434\",\"0.0-225.0\",\"\",\"\",\"1-4\",\"8591\",\"39\",\"1\",\"Testing\",\"Stims/Figures/87-C-20-4.bmp\",\"vafasha\",\"Left\",\"39\",\"4\",\"5\",\"6B\",\"C1\",\"C\",\"77\"
\"\",\"\",\"approach-retreat\",\"226\",\"1648997\",\"0.0-226.0\",\"\",\"\",\"1-4\",\"5051\",\"39\",\"1\",\"Testing\",\"Stims/Figures/128-J-10-3.bmp\",\"zasa:za\",\"Right\",\"39\",\"4\",\"6\",\"6B\",\"C2\",\"C\",\"78\"
\"\",\"\",\"approach-retreat\",\"227\",\"1654627\",\"0.0-227.0\",\"\",\"\",\"1-4\",\"4123\",\"38\",\"1\",\"Testing\",\"Stims/Figures/128-C-30-3.bmp\",\"va:fa:va\",\"Down\",\"38\",\"4\",\"7\",\"6B\",\"C1\",\"C\",\"79\"
\"\",\"\",\"approach-retreat\",\"228\",\"1660907\",\"0.0-228.0\",\"\",\"\",\"1-4\",\"4768\",\"37\",\"1\",\"Testing\",\"Stims/Figures/84-J-0-2.bmp\",\"zaha:za\",\"Left\",\"37\",\"4\",\"8\",\"6B\",\"C2\",\"C\",\"80\"
\"\",\"\",\"approach-retreat\",\"229\",\"1666656\",\"0.0-229.0\",\"\",\"\",\"1-4\",\"4241\",\"37\",\"1\",\"Testing\",\"Stims/Figures/94-C-20-2.bmp\",\"va:shasha\",\"Right\",\"37\",\"4\",\"9\",\"6B\",\"C1\",\"C\",\"81\"
\"\",\"\",\"approach-retreat\",\"230\",\"1672486\",\"0.0-230.0\",\"\",\"\",\"1-4\",\"4322\",\"37\",\"1\",\"Testing\",\"Stims/Figures/57-C-30-1.bmp\",\"fa:fava\",\"Right\",\"37\",\"4\",\"10\",\"6B\",\"C1\",\"C\",\"82\"
\"\",\"\",\"approach-retreat\",\"231\",\"1678007\",\"0.0-231.0\",\"\",\"\",\"1-4\",\"4015\",\"39\",\"1\",\"Testing\",\"Stims/Figures/57-J-0-1.bmp\",\"zasaza\",\"Right\",\"39\",\"4\",\"11\",\"6B\",\"C2\",\"C\",\"83\"
\"\",\"\",\"approach-retreat\",\"232\",\"1683597\",\"0.0-232.0\",\"\",\"\",\"1-4\",\"4079\",\"39\",\"1\",\"Testing\",\"Stims/Figures/94-J-0-2.bmp\",\"za:saha\",\"Right\",\"39\",\"4\",\"12\",\"6B\",\"C2\",\"C\",\"84\"
\"\",\"\",\"approach-retreat\",\"233\",\"1690116\",\"0.0-233.0\",\"\",\"\",\"1-4\",\"5010\",\"38\",\"1\",\"Testing\",\"Stims/Figures/71-J-0-1.bmp\",\"za:sa:za\",\"Up\",\"38\",\"4\",\"13\",\"6B\",\"C2\",\"C\",\"85\"
\"\",\"\",\"approach-retreat\",\"234\",\"1696817\",\"0.0-234.0\",\"\",\"\",\"1-4\",\"5189\",\"40\",\"1\",\"Testing\",\"Stims/Figures/86-C-30-1.bmp\",\"vafa:sha\",\"Up\",\"40\",\"4\",\"14\",\"6B\",\"C1\",\"C\",\"86\"
\"\",\"\",\"approach-retreat\",\"235\",\"1726727\",\"0.0-235.0\",\"\",\"\",\"1-4\",\"28399\",\"38\",\"0\",\"Testing\",\"Stims/Figures/87-J-10-4.bmp\",\"sahaza\",\"Down\",\"40\",\"4\",\"15\",\"6B\",\"C2\",\"C\",\"87\"
\"\",\"\",\"approach-retreat\",\"236\",\"1754107\",\"0.0-236.0\",\"\",\"\",\"1-4\",\"25868\",\"38\",\"1\",\"Testing\",\"Stims/Figures/19-J-10-4.bmp\",\"sasaza\",\"Up\",\"38\",\"4\",\"16\",\"6B\",\"C2\",\"C\",\"88\"
\"\",\"\",\"approach-retreat\",\"237\",\"1780207\",\"0.0-237.0\",\"\",\"\",\"1-4\",\"24592\",\"38\",\"1\",\"Testing\",\"Stims/Figures/85-C-20-2.bmp\",\"vasha:sha\",\"Down\",\"38\",\"4\",\"17\",\"6B\",\"C1\",\"C\",\"89\"
\"\",\"\",\"approach-retreat\",\"238\",\"1786607\",\"0.0-238.0\",\"\",\"\",\"1-4\",\"4896\",\"38\",\"1\",\"Testing\",\"Stims/Figures/102-J-10-4.bmp\",\"zasa:ha\",\"Up\",\"38\",\"4\",\"18\",\"6B\",\"C2\",\"C\",\"90\"
\"\",\"\",\"approach-retreat\",\"239\",\"1792847\",\"0.0-239.0\",\"\",\"\",\"1-4\",\"4735\",\"40\",\"1\",\"Testing\",\"Stims/Figures/84-C-20-2.bmp\",\"vafa:va\",\"Up\",\"40\",\"4\",\"19\",\"6B\",\"C1\",\"C\",\"91\"
\"\",\"\",\"approach-retreat\",\"240\",\"1799847\",\"0.0-240.0\",\"\",\"\",\"1-4\",\"5488\",\"38\",\"1\",\"Testing\",\"Stims/Figures/102-C-20-4.bmp\",\"vashava\",\"Down\",\"38\",\"4\",\"20\",\"6B\",\"C1\",\"C\",\"92\"
\"\",\"\",\"approach-retreat\",\"241\",\"1809297\",\"0.0-241.0\",\"\",\"\",\"1-4\",\"7938\",\"39\",\"1\",\"Testing\",\"Stims/Figures/71-C-30-1.bmp\",\"vashasha\",\"Left\",\"39\",\"4\",\"21\",\"6B\",\"C1\",\"C\",\"93\"
\"\",\"\",\"approach-retreat\",\"242\",\"1818157\",\"0.0-242.0\",\"\",\"\",\"1-4\",\"7348\",\"38\",\"1\",\"Testing\",\"Stims/Figures/19-C-20-4.bmp\",\"va:sha:sha\",\"Down\",\"38\",\"4\",\"22\",\"6B\",\"C1\",\"C\",\"94\"
\"\",\"\",\"approach-retreat\",\"243\",\"1825557\",\"0.0-243.0\",\"\",\"\",\"1-4\",\"5895\",\"40\",\"1\",\"Testing\",\"Stims/Figures/86-J-0-1.bmp\",\"saha:za\",\"Down\",\"40\",\"4\",\"23\",\"6B\",\"C2\",\"C\",\"95\"
\"\",\"\",\"approach-retreat\",\"244\",\"1833157\",\"0.0-244.0\",\"\",\"\",\"1-4\",\"6094\",\"39\",\"0\",\"Testing\",\"Stims/Figures/44-C-30-3.bmp\",\"va:shava\",\"Right\",\"37\",\"4\",\"24\",\"6B\",\"C1\",\"C\",\"96\"
\"39236\",\"\",\"survey-text\",\"245\",\"1872397\",\"0.0-245.0\",\"\",\"{\"\"Q0\"\":\"\"1433/17\"\"}\",\"\",\"\",\"\",\"\",\"\",\"\",\"\",\"\",\"\",\"\",\"\",\"\",\"\",\"\",\"\"
