\"rt\",\"key_press\",\"trial_type\",\"trial_index\",\"time_elapsed\",\"internal_node_id\",\"view_history\",\"responses\",\"Id\",\"Rt\",\"ResKeyCode\",\"ResCorr\",\"TrialType2\",\"Image\",\"Label\",\"Location\",\"CorrectResponse\",\"Block\",\"BlockTrial\",\"Condition\",\"LabelType\",\"Subcondition\",\"trialNum\"
\"377974\",\"32\",\"text\",\"0\",\"377977\",\"0.0-0.0-0.0\",\"\",\"\",\"\",\"\",\"\",\"\",\"\",\"\",\"\",\"\",\"\",\"\",\"\",\"\",\"\",\"\",\"\"
\"78804\",\"\",\"instructions\",\"1\",\"456785\",\"0.0-1.0\",\"[{\"\"page_index\"\":0,\"\"viewing_time\"\":78804}]\",\"\",\"\",\"\",\"\",\"\",\"\",\"\",\"\",\"\",\"\",\"\",\"\",\"\",\"\",\"\",\"\"
\"19339\",\"\",\"survey-multi-choice\",\"2\",\"476162\",\"0.0-2.0\",\"\",\"{\"\"Q0\"\":\"\"Da\"\",\"\"Q1\"\":\"\"Da\"\",\"\"Q2\"\":\"\"Da\"\",\"\"Q3\"\":\"\"Da\"\",\"\"Q4\"\":\"\"Da\"\",\"\"Q5\"\":\"\"Da\"\"}\",\"\",\"\",\"\",\"\",\"\",\"\",\"\",\"\",\"\",\"\",\"\",\"\",\"\",\"\",\"\"
\"\",\"\",\"bio\",\"3\",\"484927\",\"0.0-3.0\",\"\",\"{\"\"age\"\":\"\"21\"\",\"\"gender\"\":\"\"f\"\",\"\"specify\"\":\"\"\"\"}\",\"\",\"\",\"\",\"\",\"\",\"\",\"\",\"\",\"\",\"\",\"\",\"\",\"\",\"\",\"\"
\"\",\"\",\"approach-retreat\",\"4\",\"500844\",\"0.0-4.0\",\"\",\"\",\"3-2\",\"14412\",\"39\",\"0\",\"Training\",\"Stims/Figures/93-C-30-1.bmp\",\"pa:pa:ta\",\"Right\",\"37\",\"1\",\"1\",\"2\",\"P\",\"C\",\"1\"
\"\",\"\",\"approach-retreat\",\"5\",\"507992\",\"0.0-5.0\",\"\",\"\",\"3-2\",\"5637\",\"37\",\"0\",\"Training\",\"Stims/Figures/144-C-30-3.bmp\",\"pa:pa:ta\",\"Left\",\"39\",\"1\",\"2\",\"2\",\"P\",\"C\",\"2\"
\"\",\"\",\"approach-retreat\",\"6\",\"515992\",\"0.0-6.0\",\"\",\"\",\"3-2\",\"6491\",\"39\",\"0\",\"Training\",\"Stims/Figures/102-J-10-4.bmp\",\"mamana\",\"Left\",\"37\",\"1\",\"3\",\"2\",\"S\",\"C\",\"3\"
\"\",\"\",\"approach-retreat\",\"7\",\"525760\",\"0.0-7.0\",\"\",\"\",\"3-2\",\"8258\",\"37\",\"1\",\"Training\",\"Stims/Figures/118-C-20-2.bmp\",\"pa:pa:ta\",\"Right\",\"37\",\"1\",\"4\",\"2\",\"P\",\"C\",\"4\"
\"\",\"\",\"approach-retreat\",\"8\",\"536551\",\"0.0-8.0\",\"\",\"\",\"3-2\",\"9281\",\"38\",\"1\",\"Training\",\"Stims/Figures/102-C-20-4.bmp\",\"pa:pa:ta\",\"Down\",\"38\",\"1\",\"5\",\"2\",\"P\",\"C\",\"5\"
\"\",\"\",\"approach-retreat\",\"9\",\"548310\",\"0.0-9.0\",\"\",\"\",\"3-2\",\"10249\",\"38\",\"1\",\"Training\",\"Stims/Figures/84-C-20-2.bmp\",\"pa:pa:ta\",\"Down\",\"38\",\"1\",\"6\",\"2\",\"P\",\"C\",\"6\"
\"\",\"\",\"approach-retreat\",\"10\",\"561429\",\"0.0-10.0\",\"\",\"\",\"3-2\",\"11611\",\"40\",\"0\",\"Training\",\"Stims/Figures/128-J-10-3.bmp\",\"mamana\",\"Up\",\"38\",\"1\",\"7\",\"2\",\"S\",\"C\",\"7\"
\"\",\"\",\"approach-retreat\",\"11\",\"568827\",\"0.0-11.0\",\"\",\"\",\"3-2\",\"5886\",\"37\",\"1\",\"Training\",\"Stims/Figures/86-J-0-1.bmp\",\"mamana\",\"Left\",\"37\",\"1\",\"8\",\"2\",\"S\",\"C\",\"8\"
\"\",\"\",\"approach-retreat\",\"12\",\"575846\",\"0.0-12.0\",\"\",\"\",\"3-2\",\"5507\",\"38\",\"1\",\"Training\",\"Stims/Figures/144-J-10-3.bmp\",\"mamana\",\"Up\",\"38\",\"1\",\"9\",\"2\",\"S\",\"C\",\"9\"
\"\",\"\",\"approach-retreat\",\"13\",\"583562\",\"0.0-13.0\",\"\",\"\",\"3-2\",\"6207\",\"38\",\"1\",\"Training\",\"Stims/Figures/86-C-30-1.bmp\",\"pa:pa:ta\",\"Down\",\"38\",\"1\",\"10\",\"2\",\"P\",\"C\",\"10\"
\"\",\"\",\"approach-retreat\",\"14\",\"591584\",\"0.0-14.0\",\"\",\"\",\"3-2\",\"6514\",\"40\",\"1\",\"Training\",\"Stims/Figures/19-C-20-4.bmp\",\"pa:pa:ta\",\"Up\",\"40\",\"1\",\"11\",\"2\",\"P\",\"C\",\"11\"
\"\",\"\",\"approach-retreat\",\"15\",\"597893\",\"0.0-15.0\",\"\",\"\",\"3-2\",\"4801\",\"37\",\"1\",\"Training\",\"Stims/Figures/118-J-0-2.bmp\",\"mamana\",\"Left\",\"37\",\"1\",\"12\",\"2\",\"S\",\"C\",\"12\"
\"\",\"\",\"approach-retreat\",\"16\",\"607435\",\"0.0-16.0\",\"\",\"\",\"3-2\",\"8033\",\"40\",\"1\",\"Training\",\"Stims/Figures/19-J-10-4.bmp\",\"mamana\",\"Down\",\"40\",\"1\",\"13\",\"2\",\"S\",\"C\",\"13\"
\"\",\"\",\"approach-retreat\",\"17\",\"622270\",\"0.0-17.0\",\"\",\"\",\"3-2\",\"13328\",\"38\",\"1\",\"Training\",\"Stims/Figures/93-J-0-1.bmp\",\"mamana\",\"Up\",\"38\",\"1\",\"14\",\"2\",\"S\",\"C\",\"14\"
\"\",\"\",\"approach-retreat\",\"18\",\"630422\",\"0.0-18.0\",\"\",\"\",\"3-2\",\"6644\",\"37\",\"1\",\"Training\",\"Stims/Figures/128-C-30-3.bmp\",\"pa:pa:ta\",\"Right\",\"37\",\"1\",\"15\",\"2\",\"P\",\"C\",\"15\"
\"\",\"\",\"approach-retreat\",\"19\",\"637563\",\"0.0-19.0\",\"\",\"\",\"3-2\",\"5632\",\"39\",\"1\",\"Training\",\"Stims/Figures/84-J-0-2.bmp\",\"mamana\",\"Right\",\"39\",\"1\",\"16\",\"2\",\"S\",\"C\",\"16\"
\"\",\"\",\"approach-retreat\",\"20\",\"644107\",\"0.0-20.0\",\"\",\"\",\"3-2\",\"5035\",\"37\",\"1\",\"Training\",\"Stims/Figures/144-J-10-3.bmp\",\"mamana\",\"Left\",\"37\",\"2\",\"1\",\"2\",\"S\",\"C\",\"17\"
\"\",\"\",\"approach-retreat\",\"21\",\"652592\",\"0.0-21.0\",\"\",\"\",\"3-2\",\"6977\",\"40\",\"0\",\"Training\",\"Stims/Figures/93-J-0-1.bmp\",\"mamana\",\"Up\",\"38\",\"2\",\"2\",\"2\",\"S\",\"C\",\"18\"
\"\",\"\",\"approach-retreat\",\"22\",\"658840\",\"0.0-22.0\",\"\",\"\",\"3-2\",\"4739\",\"38\",\"1\",\"Training\",\"Stims/Figures/102-J-10-4.bmp\",\"mamana\",\"Up\",\"38\",\"2\",\"3\",\"2\",\"S\",\"C\",\"19\"
\"\",\"\",\"approach-retreat\",\"23\",\"664598\",\"0.0-23.0\",\"\",\"\",\"3-2\",\"4248\",\"39\",\"1\",\"Training\",\"Stims/Figures/19-J-10-4.bmp\",\"mamana\",\"Right\",\"39\",\"2\",\"4\",\"2\",\"S\",\"C\",\"20\"
\"\",\"\",\"approach-retreat\",\"24\",\"671831\",\"0.0-24.0\",\"\",\"\",\"3-2\",\"5724\",\"38\",\"1\",\"Training\",\"Stims/Figures/102-C-20-4.bmp\",\"pa:pa:ta\",\"Down\",\"38\",\"2\",\"5\",\"2\",\"P\",\"C\",\"21\"
\"\",\"\",\"approach-retreat\",\"25\",\"677953\",\"0.0-25.0\",\"\",\"\",\"3-2\",\"4613\",\"40\",\"1\",\"Training\",\"Stims/Figures/144-C-30-3.bmp\",\"pa:pa:ta\",\"Up\",\"40\",\"2\",\"6\",\"2\",\"P\",\"C\",\"22\"
\"\",\"\",\"approach-retreat\",\"26\",\"685094\",\"0.0-26.0\",\"\",\"\",\"3-2\",\"5632\",\"39\",\"1\",\"Training\",\"Stims/Figures/128-J-10-3.bmp\",\"mamana\",\"Right\",\"39\",\"2\",\"7\",\"2\",\"S\",\"C\",\"23\"
\"\",\"\",\"approach-retreat\",\"27\",\"693334\",\"0.0-27.0\",\"\",\"\",\"3-2\",\"6732\",\"39\",\"1\",\"Training\",\"Stims/Figures/128-C-30-3.bmp\",\"pa:pa:ta\",\"Left\",\"39\",\"2\",\"8\",\"2\",\"P\",\"C\",\"24\"
\"\",\"\",\"approach-retreat\",\"28\",\"700233\",\"0.0-28.0\",\"\",\"\",\"3-2\",\"5390\",\"38\",\"1\",\"Training\",\"Stims/Figures/84-C-20-2.bmp\",\"pa:pa:ta\",\"Down\",\"38\",\"2\",\"9\",\"2\",\"P\",\"C\",\"25\"
\"\",\"\",\"approach-retreat\",\"29\",\"708343\",\"0.0-29.0\",\"\",\"\",\"3-2\",\"6601\",\"39\",\"1\",\"Training\",\"Stims/Figures/86-J-0-1.bmp\",\"mamana\",\"Right\",\"39\",\"2\",\"10\",\"2\",\"S\",\"C\",\"26\"
\"\",\"\",\"approach-retreat\",\"30\",\"716992\",\"0.0-30.0\",\"\",\"\",\"3-2\",\"7138\",\"40\",\"1\",\"Training\",\"Stims/Figures/118-J-0-2.bmp\",\"mamana\",\"Down\",\"40\",\"2\",\"11\",\"2\",\"S\",\"C\",\"27\"
\"\",\"\",\"approach-retreat\",\"31\",\"724598\",\"0.0-31.0\",\"\",\"\",\"3-2\",\"6097\",\"38\",\"0\",\"Training\",\"Stims/Figures/86-C-30-1.bmp\",\"pa:pa:ta\",\"Up\",\"40\",\"2\",\"12\",\"2\",\"P\",\"C\",\"28\"
\"\",\"\",\"approach-retreat\",\"32\",\"730972\",\"0.0-32.0\",\"\",\"\",\"3-2\",\"4866\",\"39\",\"1\",\"Training\",\"Stims/Figures/93-C-30-1.bmp\",\"pa:pa:ta\",\"Left\",\"39\",\"2\",\"13\",\"2\",\"P\",\"C\",\"29\"
\"\",\"\",\"approach-retreat\",\"33\",\"737737\",\"0.0-33.0\",\"\",\"\",\"3-2\",\"5254\",\"39\",\"1\",\"Training\",\"Stims/Figures/118-C-20-2.bmp\",\"pa:pa:ta\",\"Left\",\"39\",\"2\",\"14\",\"2\",\"P\",\"C\",\"30\"
\"\",\"\",\"approach-retreat\",\"34\",\"748242\",\"0.0-34.0\",\"\",\"\",\"3-2\",\"8994\",\"38\",\"1\",\"Training\",\"Stims/Figures/19-C-20-4.bmp\",\"pa:pa:ta\",\"Down\",\"38\",\"2\",\"15\",\"2\",\"P\",\"C\",\"31\"
\"\",\"\",\"approach-retreat\",\"35\",\"755086\",\"0.0-35.0\",\"\",\"\",\"3-2\",\"5334\",\"39\",\"1\",\"Training\",\"Stims/Figures/84-J-0-2.bmp\",\"mamana\",\"Right\",\"39\",\"2\",\"16\",\"2\",\"S\",\"C\",\"32\"
\"\",\"\",\"approach-retreat\",\"36\",\"763085\",\"0.0-36.0\",\"\",\"\",\"3-2\",\"6489\",\"37\",\"1\",\"Training\",\"Stims/Figures/102-J-10-4.bmp\",\"mamana\",\"Left\",\"37\",\"3\",\"1\",\"2\",\"S\",\"C\",\"33\"
\"\",\"\",\"approach-retreat\",\"37\",\"770370\",\"0.0-37.0\",\"\",\"\",\"3-2\",\"5777\",\"40\",\"1\",\"Training\",\"Stims/Figures/144-J-10-3.bmp\",\"mamana\",\"Down\",\"40\",\"3\",\"2\",\"2\",\"S\",\"C\",\"34\"
\"\",\"\",\"approach-retreat\",\"38\",\"778732\",\"0.0-38.0\",\"\",\"\",\"3-2\",\"6850\",\"40\",\"1\",\"Training\",\"Stims/Figures/128-C-30-3.bmp\",\"pa:pa:ta\",\"Up\",\"40\",\"3\",\"3\",\"2\",\"P\",\"C\",\"35\"
\"\",\"\",\"approach-retreat\",\"39\",\"785469\",\"0.0-39.0\",\"\",\"\",\"3-2\",\"5227\",\"40\",\"1\",\"Training\",\"Stims/Figures/93-C-30-1.bmp\",\"pa:pa:ta\",\"Up\",\"40\",\"3\",\"4\",\"2\",\"P\",\"C\",\"36\"
\"\",\"\",\"approach-retreat\",\"40\",\"792090\",\"0.0-40.0\",\"\",\"\",\"3-2\",\"5109\",\"37\",\"1\",\"Training\",\"Stims/Figures/86-C-30-1.bmp\",\"pa:pa:ta\",\"Right\",\"37\",\"3\",\"5\",\"2\",\"P\",\"C\",\"37\"
\"\",\"\",\"approach-retreat\",\"41\",\"800896\",\"0.0-41.0\",\"\",\"\",\"3-2\",\"7299\",\"39\",\"1\",\"Training\",\"Stims/Figures/86-J-0-1.bmp\",\"mamana\",\"Right\",\"39\",\"3\",\"6\",\"2\",\"S\",\"C\",\"38\"
\"\",\"\",\"approach-retreat\",\"42\",\"807853\",\"0.0-42.0\",\"\",\"\",\"3-2\",\"5448\",\"40\",\"1\",\"Training\",\"Stims/Figures/144-C-30-3.bmp\",\"pa:pa:ta\",\"Up\",\"40\",\"3\",\"7\",\"2\",\"P\",\"C\",\"39\"
\"\",\"\",\"approach-retreat\",\"43\",\"814550\",\"0.0-43.0\",\"\",\"\",\"3-2\",\"5186\",\"39\",\"1\",\"Training\",\"Stims/Figures/84-C-20-2.bmp\",\"pa:pa:ta\",\"Left\",\"39\",\"3\",\"8\",\"2\",\"P\",\"C\",\"40\"
\"\",\"\",\"approach-retreat\",\"44\",\"820931\",\"0.0-44.0\",\"\",\"\",\"3-2\",\"4872\",\"39\",\"1\",\"Training\",\"Stims/Figures/19-C-20-4.bmp\",\"pa:pa:ta\",\"Left\",\"39\",\"3\",\"9\",\"2\",\"P\",\"C\",\"41\"
\"\",\"\",\"approach-retreat\",\"45\",\"829075\",\"0.0-45.0\",\"\",\"\",\"3-2\",\"6636\",\"40\",\"1\",\"Training\",\"Stims/Figures/19-J-10-4.bmp\",\"mamana\",\"Down\",\"40\",\"3\",\"10\",\"2\",\"S\",\"C\",\"42\"
\"\",\"\",\"approach-retreat\",\"46\",\"836000\",\"0.0-46.0\",\"\",\"\",\"3-2\",\"5415\",\"38\",\"1\",\"Training\",\"Stims/Figures/118-C-20-2.bmp\",\"pa:pa:ta\",\"Down\",\"38\",\"3\",\"11\",\"2\",\"P\",\"C\",\"43\"
\"\",\"\",\"approach-retreat\",\"47\",\"842259\",\"0.0-47.0\",\"\",\"\",\"3-2\",\"4750\",\"40\",\"1\",\"Training\",\"Stims/Figures/118-J-0-2.bmp\",\"mamana\",\"Down\",\"40\",\"3\",\"12\",\"2\",\"S\",\"C\",\"44\"
\"\",\"\",\"approach-retreat\",\"48\",\"848873\",\"0.0-48.0\",\"\",\"\",\"3-2\",\"5104\",\"40\",\"0\",\"Training\",\"Stims/Figures/128-J-10-3.bmp\",\"mamana\",\"Up\",\"38\",\"3\",\"13\",\"2\",\"S\",\"C\",\"45\"
\"\",\"\",\"approach-retreat\",\"49\",\"855252\",\"0.0-49.0\",\"\",\"\",\"3-2\",\"4870\",\"37\",\"1\",\"Training\",\"Stims/Figures/93-J-0-1.bmp\",\"mamana\",\"Left\",\"37\",\"3\",\"14\",\"2\",\"S\",\"C\",\"46\"
\"\",\"\",\"approach-retreat\",\"50\",\"861304\",\"0.0-50.0\",\"\",\"\",\"3-2\",\"4544\",\"39\",\"1\",\"Training\",\"Stims/Figures/84-J-0-2.bmp\",\"mamana\",\"Right\",\"39\",\"3\",\"15\",\"2\",\"S\",\"C\",\"47\"
\"\",\"\",\"approach-retreat\",\"51\",\"867865\",\"0.0-51.0\",\"\",\"\",\"3-2\",\"5051\",\"37\",\"1\",\"Training\",\"Stims/Figures/102-C-20-4.bmp\",\"pa:pa:ta\",\"Right\",\"37\",\"3\",\"16\",\"2\",\"P\",\"C\",\"48\"
\"\",\"\",\"approach-retreat\",\"52\",\"878376\",\"0.0-52.0\",\"\",\"\",\"3-2\",\"9001\",\"40\",\"0\",\"Training\",\"Stims/Figures/84-J-0-2.bmp\",\"mamana\",\"Up\",\"38\",\"4\",\"1\",\"2\",\"S\",\"C\",\"49\"
\"\",\"\",\"approach-retreat\",\"53\",\"887065\",\"0.0-53.0\",\"\",\"\",\"3-2\",\"7181\",\"39\",\"1\",\"Training\",\"Stims/Figures/128-J-10-3.bmp\",\"mamana\",\"Right\",\"39\",\"4\",\"2\",\"2\",\"S\",\"C\",\"50\"
\"\",\"\",\"approach-retreat\",\"54\",\"893668\",\"0.0-54.0\",\"\",\"\",\"3-2\",\"5092\",\"40\",\"0\",\"Training\",\"Stims/Figures/86-C-30-1.bmp\",\"pa:pa:ta\",\"Down\",\"38\",\"4\",\"3\",\"2\",\"P\",\"C\",\"51\"
\"\",\"\",\"approach-retreat\",\"55\",\"901294\",\"0.0-55.0\",\"\",\"\",\"3-2\",\"6119\",\"37\",\"1\",\"Training\",\"Stims/Figures/86-J-0-1.bmp\",\"mamana\",\"Left\",\"37\",\"4\",\"4\",\"2\",\"S\",\"C\",\"52\"
\"\",\"\",\"approach-retreat\",\"56\",\"910134\",\"0.0-56.0\",\"\",\"\",\"3-2\",\"7331\",\"38\",\"1\",\"Training\",\"Stims/Figures/102-C-20-4.bmp\",\"pa:pa:ta\",\"Down\",\"38\",\"4\",\"5\",\"2\",\"P\",\"C\",\"53\"
\"\",\"\",\"approach-retreat\",\"57\",\"917311\",\"0.0-57.0\",\"\",\"\",\"3-2\",\"5668\",\"38\",\"1\",\"Training\",\"Stims/Figures/84-C-20-2.bmp\",\"pa:pa:ta\",\"Down\",\"38\",\"4\",\"6\",\"2\",\"P\",\"C\",\"54\"
\"\",\"\",\"approach-retreat\",\"58\",\"924579\",\"0.0-58.0\",\"\",\"\",\"3-2\",\"5759\",\"39\",\"1\",\"Training\",\"Stims/Figures/128-C-30-3.bmp\",\"pa:pa:ta\",\"Left\",\"39\",\"4\",\"7\",\"2\",\"P\",\"C\",\"55\"
\"\",\"\",\"approach-retreat\",\"59\",\"931097\",\"0.0-59.0\",\"\",\"\",\"3-2\",\"5008\",\"40\",\"1\",\"Training\",\"Stims/Figures/144-J-10-3.bmp\",\"mamana\",\"Down\",\"40\",\"4\",\"8\",\"2\",\"S\",\"C\",\"56\"
\"\",\"\",\"approach-retreat\",\"60\",\"940696\",\"0.0-60.0\",\"\",\"\",\"3-2\",\"8090\",\"39\",\"1\",\"Training\",\"Stims/Figures/102-J-10-4.bmp\",\"mamana\",\"Right\",\"39\",\"4\",\"9\",\"2\",\"S\",\"C\",\"57\"
\"\",\"\",\"approach-retreat\",\"61\",\"947339\",\"0.0-61.0\",\"\",\"\",\"3-2\",\"5133\",\"39\",\"0\",\"Training\",\"Stims/Figures/19-C-20-4.bmp\",\"pa:pa:ta\",\"Right\",\"37\",\"4\",\"10\",\"2\",\"P\",\"C\",\"58\"
\"\",\"\",\"approach-retreat\",\"62\",\"953703\",\"0.0-62.0\",\"\",\"\",\"3-2\",\"4855\",\"39\",\"1\",\"Training\",\"Stims/Figures/93-J-0-1.bmp\",\"mamana\",\"Right\",\"39\",\"4\",\"11\",\"2\",\"S\",\"C\",\"59\"
\"\",\"\",\"approach-retreat\",\"63\",\"962387\",\"0.0-63.0\",\"\",\"\",\"3-2\",\"7175\",\"38\",\"1\",\"Training\",\"Stims/Figures/118-J-0-2.bmp\",\"mamana\",\"Up\",\"38\",\"4\",\"12\",\"2\",\"S\",\"C\",\"60\"
\"\",\"\",\"approach-retreat\",\"64\",\"968669\",\"0.0-64.0\",\"\",\"\",\"3-2\",\"4773\",\"38\",\"1\",\"Training\",\"Stims/Figures/19-J-10-4.bmp\",\"mamana\",\"Up\",\"38\",\"4\",\"13\",\"2\",\"S\",\"C\",\"61\"
\"\",\"\",\"approach-retreat\",\"65\",\"975068\",\"0.0-65.0\",\"\",\"\",\"3-2\",\"4890\",\"39\",\"1\",\"Training\",\"Stims/Figures/93-C-30-1.bmp\",\"pa:pa:ta\",\"Left\",\"39\",\"4\",\"14\",\"2\",\"P\",\"C\",\"62\"
\"\",\"\",\"approach-retreat\",\"66\",\"983489\",\"0.0-66.0\",\"\",\"\",\"3-2\",\"6912\",\"40\",\"1\",\"Training\",\"Stims/Figures/144-C-30-3.bmp\",\"pa:pa:ta\",\"Up\",\"40\",\"4\",\"15\",\"2\",\"P\",\"C\",\"63\"
\"\",\"\",\"approach-retreat\",\"67\",\"989367\",\"0.0-67.0\",\"\",\"\",\"3-2\",\"4367\",\"39\",\"1\",\"Training\",\"Stims/Figures/118-C-20-2.bmp\",\"pa:pa:ta\",\"Left\",\"39\",\"4\",\"16\",\"2\",\"P\",\"C\",\"64\"
\"\",\"\",\"approach-retreat\",\"68\",\"995343\",\"0.0-68.0\",\"\",\"\",\"3-2\",\"4467\",\"40\",\"1\",\"Training\",\"Stims/Figures/144-J-10-3.bmp\",\"mamana\",\"Down\",\"40\",\"5\",\"1\",\"2\",\"S\",\"C\",\"65\"
\"\",\"\",\"approach-retreat\",\"69\",\"1001617\",\"0.0-69.0\",\"\",\"\",\"3-2\",\"4764\",\"38\",\"1\",\"Training\",\"Stims/Figures/118-J-0-2.bmp\",\"mamana\",\"Up\",\"38\",\"5\",\"2\",\"2\",\"S\",\"C\",\"66\"
\"\",\"\",\"approach-retreat\",\"70\",\"1008572\",\"0.0-70.0\",\"\",\"\",\"3-2\",\"5444\",\"39\",\"0\",\"Training\",\"Stims/Figures/86-C-30-1.bmp\",\"pa:pa:ta\",\"Right\",\"37\",\"5\",\"3\",\"2\",\"P\",\"C\",\"67\"
\"\",\"\",\"approach-retreat\",\"71\",\"1015133\",\"0.0-71.0\",\"\",\"\",\"3-2\",\"5052\",\"37\",\"1\",\"Training\",\"Stims/Figures/144-C-30-3.bmp\",\"pa:pa:ta\",\"Right\",\"37\",\"5\",\"4\",\"2\",\"P\",\"C\",\"68\"
\"\",\"\",\"approach-retreat\",\"72\",\"1022742\",\"0.0-72.0\",\"\",\"\",\"3-2\",\"6099\",\"38\",\"1\",\"Training\",\"Stims/Figures/102-J-10-4.bmp\",\"mamana\",\"Up\",\"38\",\"5\",\"5\",\"2\",\"S\",\"C\",\"69\"
\"\",\"\",\"approach-retreat\",\"73\",\"1029374\",\"0.0-73.0\",\"\",\"\",\"3-2\",\"5122\",\"39\",\"1\",\"Training\",\"Stims/Figures/128-C-30-3.bmp\",\"pa:pa:ta\",\"Left\",\"39\",\"5\",\"6\",\"2\",\"P\",\"C\",\"70\"
\"\",\"\",\"approach-retreat\",\"74\",\"1038671\",\"0.0-74.0\",\"\",\"\",\"3-2\",\"7788\",\"38\",\"1\",\"Training\",\"Stims/Figures/84-C-20-2.bmp\",\"pa:pa:ta\",\"Down\",\"38\",\"5\",\"7\",\"2\",\"P\",\"C\",\"71\"
\"\",\"\",\"approach-retreat\",\"75\",\"1045692\",\"0.0-75.0\",\"\",\"\",\"3-2\",\"5513\",\"38\",\"1\",\"Training\",\"Stims/Figures/84-J-0-2.bmp\",\"mamana\",\"Up\",\"38\",\"5\",\"8\",\"2\",\"S\",\"C\",\"72\"
\"\",\"\",\"approach-retreat\",\"76\",\"1055165\",\"0.0-76.0\",\"\",\"\",\"3-2\",\"7964\",\"37\",\"1\",\"Training\",\"Stims/Figures/118-C-20-2.bmp\",\"pa:pa:ta\",\"Right\",\"37\",\"5\",\"9\",\"2\",\"P\",\"C\",\"73\"
\"\",\"\",\"approach-retreat\",\"77\",\"1061998\",\"0.0-77.0\",\"\",\"\",\"3-2\",\"5323\",\"39\",\"1\",\"Training\",\"Stims/Figures/19-J-10-4.bmp\",\"mamana\",\"Right\",\"39\",\"5\",\"10\",\"2\",\"S\",\"C\",\"74\"
\"\",\"\",\"approach-retreat\",\"78\",\"1068985\",\"0.0-78.0\",\"\",\"\",\"3-2\",\"5478\",\"37\",\"0\",\"Training\",\"Stims/Figures/93-C-30-1.bmp\",\"pa:pa:ta\",\"Left\",\"39\",\"5\",\"11\",\"2\",\"P\",\"C\",\"75\"
\"\",\"\",\"approach-retreat\",\"79\",\"1077972\",\"0.0-79.0\",\"\",\"\",\"3-2\",\"7478\",\"38\",\"1\",\"Training\",\"Stims/Figures/19-C-20-4.bmp\",\"pa:pa:ta\",\"Down\",\"38\",\"5\",\"12\",\"2\",\"P\",\"C\",\"76\"
\"\",\"\",\"approach-retreat\",\"80\",\"1084929\",\"0.0-80.0\",\"\",\"\",\"3-2\",\"5445\",\"37\",\"1\",\"Training\",\"Stims/Figures/93-J-0-1.bmp\",\"mamana\",\"Left\",\"37\",\"5\",\"13\",\"2\",\"S\",\"C\",\"77\"
\"\",\"\",\"approach-retreat\",\"81\",\"1091853\",\"0.0-81.0\",\"\",\"\",\"3-2\",\"5416\",\"37\",\"1\",\"Training\",\"Stims/Figures/128-J-10-3.bmp\",\"mamana\",\"Left\",\"37\",\"5\",\"14\",\"2\",\"S\",\"C\",\"78\"
\"\",\"\",\"approach-retreat\",\"82\",\"1098459\",\"0.0-82.0\",\"\",\"\",\"3-2\",\"5099\",\"38\",\"1\",\"Training\",\"Stims/Figures/86-J-0-1.bmp\",\"mamana\",\"Up\",\"38\",\"5\",\"15\",\"2\",\"S\",\"C\",\"79\"
\"\",\"\",\"approach-retreat\",\"83\",\"1104984\",\"0.0-83.0\",\"\",\"\",\"3-2\",\"5016\",\"38\",\"1\",\"Training\",\"Stims/Figures/102-C-20-4.bmp\",\"pa:pa:ta\",\"Down\",\"38\",\"5\",\"16\",\"2\",\"P\",\"C\",\"80\"
\"\",\"\",\"approach-retreat\",\"84\",\"1111939\",\"0.0-84.0\",\"\",\"\",\"3-2\",\"5446\",\"38\",\"1\",\"Training\",\"Stims/Figures/84-J-0-2.bmp\",\"mamana\",\"Up\",\"38\",\"6\",\"1\",\"2\",\"S\",\"C\",\"81\"
\"\",\"\",\"approach-retreat\",\"85\",\"1120404\",\"0.0-85.0\",\"\",\"\",\"3-2\",\"6954\",\"39\",\"1\",\"Training\",\"Stims/Figures/102-J-10-4.bmp\",\"mamana\",\"Right\",\"39\",\"6\",\"2\",\"2\",\"S\",\"C\",\"82\"
\"\",\"\",\"approach-retreat\",\"86\",\"1126622\",\"0.0-86.0\",\"\",\"\",\"3-2\",\"4708\",\"39\",\"1\",\"Training\",\"Stims/Figures/93-J-0-1.bmp\",\"mamana\",\"Right\",\"39\",\"6\",\"3\",\"2\",\"S\",\"C\",\"83\"
\"\",\"\",\"approach-retreat\",\"87\",\"1132960\",\"0.0-87.0\",\"\",\"\",\"3-2\",\"4827\",\"39\",\"1\",\"Training\",\"Stims/Figures/144-C-30-3.bmp\",\"pa:pa:ta\",\"Left\",\"39\",\"6\",\"4\",\"2\",\"P\",\"C\",\"84\"
\"\",\"\",\"approach-retreat\",\"88\",\"1140224\",\"0.0-88.0\",\"\",\"\",\"3-2\",\"5754\",\"38\",\"1\",\"Training\",\"Stims/Figures/19-J-10-4.bmp\",\"mamana\",\"Up\",\"38\",\"6\",\"5\",\"2\",\"S\",\"C\",\"85\"
\"\",\"\",\"approach-retreat\",\"89\",\"1147728\",\"0.0-89.0\",\"\",\"\",\"3-2\",\"5996\",\"40\",\"1\",\"Training\",\"Stims/Figures/86-J-0-1.bmp\",\"mamana\",\"Down\",\"40\",\"6\",\"6\",\"2\",\"S\",\"C\",\"86\"
\"\",\"\",\"approach-retreat\",\"90\",\"1153746\",\"0.0-90.0\",\"\",\"\",\"3-2\",\"4509\",\"39\",\"0\",\"Training\",\"Stims/Figures/19-C-20-4.bmp\",\"pa:pa:ta\",\"Right\",\"37\",\"6\",\"7\",\"2\",\"P\",\"C\",\"87\"
\"\",\"\",\"approach-retreat\",\"91\",\"1159895\",\"0.0-91.0\",\"\",\"\",\"3-2\",\"4640\",\"38\",\"1\",\"Training\",\"Stims/Figures/86-C-30-1.bmp\",\"pa:pa:ta\",\"Down\",\"38\",\"6\",\"8\",\"2\",\"P\",\"C\",\"88\"
\"\",\"\",\"approach-retreat\",\"92\",\"1167168\",\"0.0-92.0\",\"\",\"\",\"3-2\",\"5767\",\"37\",\"1\",\"Training\",\"Stims/Figures/102-C-20-4.bmp\",\"pa:pa:ta\",\"Right\",\"37\",\"6\",\"9\",\"2\",\"P\",\"C\",\"89\"
\"\",\"\",\"approach-retreat\",\"93\",\"1173514\",\"0.0-93.0\",\"\",\"\",\"3-2\",\"4833\",\"39\",\"1\",\"Training\",\"Stims/Figures/93-C-30-1.bmp\",\"pa:pa:ta\",\"Left\",\"39\",\"6\",\"10\",\"2\",\"P\",\"C\",\"90\"
\"\",\"\",\"approach-retreat\",\"94\",\"1179732\",\"0.0-94.0\",\"\",\"\",\"3-2\",\"4708\",\"38\",\"1\",\"Training\",\"Stims/Figures/84-C-20-2.bmp\",\"pa:pa:ta\",\"Down\",\"38\",\"6\",\"11\",\"2\",\"P\",\"C\",\"91\"
\"\",\"\",\"approach-retreat\",\"95\",\"1185538\",\"0.0-95.0\",\"\",\"\",\"3-2\",\"4296\",\"38\",\"1\",\"Training\",\"Stims/Figures/128-C-30-3.bmp\",\"pa:pa:ta\",\"Down\",\"38\",\"6\",\"12\",\"2\",\"P\",\"C\",\"92\"
\"\",\"\",\"approach-retreat\",\"96\",\"1192725\",\"0.0-96.0\",\"\",\"\",\"3-2\",\"5677\",\"40\",\"1\",\"Training\",\"Stims/Figures/118-C-20-2.bmp\",\"pa:pa:ta\",\"Up\",\"40\",\"6\",\"13\",\"2\",\"P\",\"C\",\"93\"
\"\",\"\",\"approach-retreat\",\"97\",\"1199003\",\"0.0-97.0\",\"\",\"\",\"3-2\",\"4769\",\"37\",\"1\",\"Training\",\"Stims/Figures/118-J-0-2.bmp\",\"mamana\",\"Left\",\"37\",\"6\",\"14\",\"2\",\"S\",\"C\",\"94\"
\"\",\"\",\"approach-retreat\",\"98\",\"1205332\",\"0.0-98.0\",\"\",\"\",\"3-2\",\"4820\",\"38\",\"1\",\"Training\",\"Stims/Figures/144-J-10-3.bmp\",\"mamana\",\"Up\",\"38\",\"6\",\"15\",\"2\",\"S\",\"C\",\"95\"
\"\",\"\",\"approach-retreat\",\"99\",\"1212348\",\"0.0-99.0\",\"\",\"\",\"3-2\",\"5508\",\"37\",\"1\",\"Training\",\"Stims/Figures/128-J-10-3.bmp\",\"mamana\",\"Left\",\"37\",\"6\",\"16\",\"2\",\"S\",\"C\",\"96\"
\"\",\"\",\"approach-retreat\",\"100\",\"1220701\",\"0.0-100.0\",\"\",\"\",\"3-2\",\"6845\",\"39\",\"1\",\"Training\",\"Stims/Figures/86-J-0-1.bmp\",\"mamana\",\"Right\",\"39\",\"7\",\"1\",\"2\",\"S\",\"C\",\"97\"
\"\",\"\",\"approach-retreat\",\"101\",\"1226611\",\"0.0-101.0\",\"\",\"\",\"3-2\",\"4401\",\"40\",\"1\",\"Training\",\"Stims/Figures/19-C-20-4.bmp\",\"pa:pa:ta\",\"Up\",\"40\",\"7\",\"2\",\"2\",\"P\",\"C\",\"98\"
\"\",\"\",\"approach-retreat\",\"102\",\"1233640\",\"0.0-102.0\",\"\",\"\",\"3-2\",\"5518\",\"40\",\"1\",\"Training\",\"Stims/Figures/93-C-30-1.bmp\",\"pa:pa:ta\",\"Up\",\"40\",\"7\",\"3\",\"2\",\"P\",\"C\",\"99\"
\"\",\"\",\"approach-retreat\",\"103\",\"1241411\",\"0.0-103.0\",\"\",\"\",\"3-2\",\"6262\",\"40\",\"1\",\"Training\",\"Stims/Figures/84-J-0-2.bmp\",\"mamana\",\"Down\",\"40\",\"7\",\"4\",\"2\",\"S\",\"C\",\"100\"
\"\",\"\",\"approach-retreat\",\"104\",\"1247578\",\"0.0-104.0\",\"\",\"\",\"3-2\",\"4658\",\"39\",\"1\",\"Training\",\"Stims/Figures/118-C-20-2.bmp\",\"pa:pa:ta\",\"Left\",\"39\",\"7\",\"5\",\"2\",\"P\",\"C\",\"101\"
\"\",\"\",\"approach-retreat\",\"105\",\"1255113\",\"0.0-105.0\",\"\",\"\",\"3-2\",\"6026\",\"37\",\"1\",\"Training\",\"Stims/Figures/144-C-30-3.bmp\",\"pa:pa:ta\",\"Right\",\"37\",\"7\",\"6\",\"2\",\"P\",\"C\",\"102\"
\"\",\"\",\"approach-retreat\",\"106\",\"1261310\",\"0.0-106.0\",\"\",\"\",\"3-2\",\"4689\",\"40\",\"1\",\"Training\",\"Stims/Figures/84-C-20-2.bmp\",\"pa:pa:ta\",\"Up\",\"40\",\"7\",\"7\",\"2\",\"P\",\"C\",\"103\"
\"\",\"\",\"approach-retreat\",\"107\",\"1268948\",\"0.0-107.0\",\"\",\"\",\"3-2\",\"6129\",\"37\",\"1\",\"Training\",\"Stims/Figures/93-J-0-1.bmp\",\"mamana\",\"Left\",\"37\",\"7\",\"8\",\"2\",\"S\",\"C\",\"104\"
\"\",\"\",\"approach-retreat\",\"108\",\"1275625\",\"0.0-108.0\",\"\",\"\",\"3-2\",\"5168\",\"37\",\"1\",\"Training\",\"Stims/Figures/102-J-10-4.bmp\",\"mamana\",\"Left\",\"37\",\"7\",\"9\",\"2\",\"S\",\"C\",\"105\"
\"\",\"\",\"approach-retreat\",\"109\",\"1281456\",\"0.0-109.0\",\"\",\"\",\"3-2\",\"4322\",\"40\",\"1\",\"Training\",\"Stims/Figures/128-C-30-3.bmp\",\"pa:pa:ta\",\"Up\",\"40\",\"7\",\"10\",\"2\",\"P\",\"C\",\"106\"
\"\",\"\",\"approach-retreat\",\"110\",\"1287310\",\"0.0-110.0\",\"\",\"\",\"3-2\",\"4344\",\"40\",\"1\",\"Training\",\"Stims/Figures/144-J-10-3.bmp\",\"mamana\",\"Down\",\"40\",\"7\",\"11\",\"2\",\"S\",\"C\",\"107\"
\"\",\"\",\"approach-retreat\",\"111\",\"1293124\",\"0.0-111.0\",\"\",\"\",\"3-2\",\"4304\",\"40\",\"1\",\"Training\",\"Stims/Figures/128-J-10-3.bmp\",\"mamana\",\"Down\",\"40\",\"7\",\"12\",\"2\",\"S\",\"C\",\"108\"
\"\",\"\",\"approach-retreat\",\"112\",\"1299175\",\"0.0-112.0\",\"\",\"\",\"3-2\",\"4541\",\"40\",\"1\",\"Training\",\"Stims/Figures/19-J-10-4.bmp\",\"mamana\",\"Down\",\"40\",\"7\",\"13\",\"2\",\"S\",\"C\",\"109\"
\"\",\"\",\"approach-retreat\",\"113\",\"1305694\",\"0.0-113.0\",\"\",\"\",\"3-2\",\"5009\",\"37\",\"1\",\"Training\",\"Stims/Figures/118-J-0-2.bmp\",\"mamana\",\"Left\",\"37\",\"7\",\"14\",\"2\",\"S\",\"C\",\"110\"
\"\",\"\",\"approach-retreat\",\"114\",\"1311494\",\"0.0-114.0\",\"\",\"\",\"3-2\",\"4290\",\"37\",\"1\",\"Training\",\"Stims/Figures/86-C-30-1.bmp\",\"pa:pa:ta\",\"Right\",\"37\",\"7\",\"15\",\"2\",\"P\",\"C\",\"111\"
\"\",\"\",\"approach-retreat\",\"115\",\"1317394\",\"0.0-115.0\",\"\",\"\",\"3-2\",\"4390\",\"37\",\"1\",\"Training\",\"Stims/Figures/102-C-20-4.bmp\",\"pa:pa:ta\",\"Right\",\"37\",\"7\",\"16\",\"2\",\"P\",\"C\",\"112\"
\"\",\"\",\"approach-retreat\",\"116\",\"1323327\",\"0.0-116.0\",\"\",\"\",\"3-2\",\"4424\",\"39\",\"1\",\"Training\",\"Stims/Figures/118-J-0-2.bmp\",\"mamana\",\"Right\",\"39\",\"8\",\"1\",\"2\",\"S\",\"C\",\"113\"
\"\",\"\",\"approach-retreat\",\"117\",\"1329418\",\"0.0-117.0\",\"\",\"\",\"3-2\",\"4582\",\"38\",\"1\",\"Training\",\"Stims/Figures/19-J-10-4.bmp\",\"mamana\",\"Up\",\"38\",\"8\",\"2\",\"2\",\"S\",\"C\",\"114\"
\"\",\"\",\"approach-retreat\",\"118\",\"1335442\",\"0.0-118.0\",\"\",\"\",\"3-2\",\"4514\",\"40\",\"1\",\"Training\",\"Stims/Figures/93-J-0-1.bmp\",\"mamana\",\"Down\",\"40\",\"8\",\"3\",\"2\",\"S\",\"C\",\"115\"
\"\",\"\",\"approach-retreat\",\"119\",\"1341513\",\"0.0-119.0\",\"\",\"\",\"3-2\",\"4563\",\"39\",\"1\",\"Training\",\"Stims/Figures/144-J-10-3.bmp\",\"mamana\",\"Right\",\"39\",\"8\",\"4\",\"2\",\"S\",\"C\",\"116\"
\"\",\"\",\"approach-retreat\",\"120\",\"1347148\",\"0.0-120.0\",\"\",\"\",\"3-2\",\"4126\",\"37\",\"1\",\"Training\",\"Stims/Figures/19-C-20-4.bmp\",\"pa:pa:ta\",\"Right\",\"37\",\"8\",\"5\",\"2\",\"P\",\"C\",\"117\"
\"\",\"\",\"approach-retreat\",\"121\",\"1352496\",\"0.0-121.0\",\"\",\"\",\"3-2\",\"3838\",\"37\",\"0\",\"Training\",\"Stims/Figures/118-C-20-2.bmp\",\"pa:pa:ta\",\"Left\",\"39\",\"8\",\"6\",\"2\",\"P\",\"C\",\"118\"
\"\",\"\",\"approach-retreat\",\"122\",\"1358521\",\"0.0-122.0\",\"\",\"\",\"3-2\",\"4516\",\"37\",\"1\",\"Training\",\"Stims/Figures/86-J-0-1.bmp\",\"mamana\",\"Left\",\"37\",\"8\",\"7\",\"2\",\"S\",\"C\",\"119\"
\"\",\"\",\"approach-retreat\",\"123\",\"1365032\",\"0.0-123.0\",\"\",\"\",\"3-2\",\"5002\",\"38\",\"1\",\"Training\",\"Stims/Figures/102-J-10-4.bmp\",\"mamana\",\"Up\",\"38\",\"8\",\"8\",\"2\",\"S\",\"C\",\"120\"
\"\",\"\",\"approach-retreat\",\"124\",\"1370861\",\"0.0-124.0\",\"\",\"\",\"3-2\",\"4319\",\"38\",\"1\",\"Training\",\"Stims/Figures/144-C-30-3.bmp\",\"pa:pa:ta\",\"Down\",\"38\",\"8\",\"9\",\"2\",\"P\",\"C\",\"121\"
\"\",\"\",\"approach-retreat\",\"125\",\"1376715\",\"0.0-125.0\",\"\",\"\",\"3-2\",\"4346\",\"39\",\"1\",\"Training\",\"Stims/Figures/84-C-20-2.bmp\",\"pa:pa:ta\",\"Left\",\"39\",\"8\",\"10\",\"2\",\"P\",\"C\",\"122\"
\"\",\"\",\"approach-retreat\",\"126\",\"1384300\",\"0.0-126.0\",\"\",\"\",\"3-2\",\"6075\",\"40\",\"1\",\"Training\",\"Stims/Figures/128-C-30-3.bmp\",\"pa:pa:ta\",\"Up\",\"40\",\"8\",\"11\",\"2\",\"P\",\"C\",\"123\"
\"\",\"\",\"approach-retreat\",\"127\",\"1391101\",\"0.0-127.0\",\"\",\"\",\"3-2\",\"5292\",\"40\",\"1\",\"Training\",\"Stims/Figures/102-C-20-4.bmp\",\"pa:pa:ta\",\"Up\",\"40\",\"8\",\"12\",\"2\",\"P\",\"C\",\"124\"
\"\",\"\",\"approach-retreat\",\"128\",\"1397853\",\"0.0-128.0\",\"\",\"\",\"3-2\",\"5245\",\"39\",\"1\",\"Training\",\"Stims/Figures/93-C-30-1.bmp\",\"pa:pa:ta\",\"Left\",\"39\",\"8\",\"13\",\"2\",\"P\",\"C\",\"125\"
\"\",\"\",\"approach-retreat\",\"129\",\"1406142\",\"0.0-129.0\",\"\",\"\",\"3-2\",\"6778\",\"40\",\"1\",\"Training\",\"Stims/Figures/84-J-0-2.bmp\",\"mamana\",\"Down\",\"40\",\"8\",\"14\",\"2\",\"S\",\"C\",\"126\"
\"\",\"\",\"approach-retreat\",\"130\",\"1412965\",\"0.0-130.0\",\"\",\"\",\"3-2\",\"5313\",\"37\",\"1\",\"Training\",\"Stims/Figures/86-C-30-1.bmp\",\"pa:pa:ta\",\"Right\",\"37\",\"8\",\"15\",\"2\",\"P\",\"C\",\"127\"
\"\",\"\",\"approach-retreat\",\"131\",\"1419168\",\"0.0-131.0\",\"\",\"\",\"3-2\",\"4695\",\"40\",\"1\",\"Training\",\"Stims/Figures/128-J-10-3.bmp\",\"mamana\",\"Down\",\"40\",\"8\",\"16\",\"2\",\"S\",\"C\",\"128\"
\"\",\"\",\"approach-retreat\",\"132\",\"1425364\",\"0.0-132.0\",\"\",\"\",\"3-2\",\"4688\",\"38\",\"1\",\"Training\",\"Stims/Figures/118-J-0-2.bmp\",\"mamana\",\"Up\",\"38\",\"9\",\"1\",\"2\",\"S\",\"C\",\"129\"
\"\",\"\",\"approach-retreat\",\"133\",\"1432085\",\"0.0-133.0\",\"\",\"\",\"3-2\",\"5212\",\"40\",\"1\",\"Training\",\"Stims/Figures/86-J-0-1.bmp\",\"mamana\",\"Down\",\"40\",\"9\",\"2\",\"2\",\"S\",\"C\",\"130\"
\"\",\"\",\"approach-retreat\",\"134\",\"1438850\",\"0.0-134.0\",\"\",\"\",\"3-2\",\"5256\",\"40\",\"1\",\"Training\",\"Stims/Figures/144-J-10-3.bmp\",\"mamana\",\"Down\",\"40\",\"9\",\"3\",\"2\",\"S\",\"C\",\"131\"
\"\",\"\",\"approach-retreat\",\"135\",\"1445307\",\"0.0-135.0\",\"\",\"\",\"3-2\",\"4947\",\"37\",\"1\",\"Training\",\"Stims/Figures/128-J-10-3.bmp\",\"mamana\",\"Left\",\"37\",\"9\",\"4\",\"2\",\"S\",\"C\",\"132\"
\"\",\"\",\"approach-retreat\",\"136\",\"1451642\",\"0.0-136.0\",\"\",\"\",\"3-2\",\"4827\",\"39\",\"1\",\"Training\",\"Stims/Figures/118-C-20-2.bmp\",\"pa:pa:ta\",\"Left\",\"39\",\"9\",\"5\",\"2\",\"P\",\"C\",\"133\"
\"\",\"\",\"approach-retreat\",\"137\",\"1458149\",\"0.0-137.0\",\"\",\"\",\"3-2\",\"4996\",\"39\",\"1\",\"Training\",\"Stims/Figures/19-C-20-4.bmp\",\"pa:pa:ta\",\"Left\",\"39\",\"9\",\"6\",\"2\",\"P\",\"C\",\"134\"
\"\",\"\",\"approach-retreat\",\"138\",\"1465239\",\"0.0-138.0\",\"\",\"\",\"3-2\",\"5581\",\"38\",\"1\",\"Training\",\"Stims/Figures/93-J-0-1.bmp\",\"mamana\",\"Up\",\"38\",\"9\",\"7\",\"2\",\"S\",\"C\",\"135\"
\"\",\"\",\"approach-retreat\",\"139\",\"1472266\",\"0.0-139.0\",\"\",\"\",\"3-2\",\"5518\",\"37\",\"1\",\"Training\",\"Stims/Figures/144-C-30-3.bmp\",\"pa:pa:ta\",\"Right\",\"37\",\"9\",\"8\",\"2\",\"P\",\"C\",\"136\"
\"\",\"\",\"approach-retreat\",\"140\",\"1479004\",\"0.0-140.0\",\"\",\"\",\"3-2\",\"5229\",\"39\",\"1\",\"Training\",\"Stims/Figures/102-J-10-4.bmp\",\"mamana\",\"Right\",\"39\",\"9\",\"9\",\"2\",\"S\",\"C\",\"137\"
\"\",\"\",\"approach-retreat\",\"141\",\"1484795\",\"0.0-141.0\",\"\",\"\",\"3-2\",\"4283\",\"38\",\"1\",\"Training\",\"Stims/Figures/93-C-30-1.bmp\",\"pa:pa:ta\",\"Down\",\"38\",\"9\",\"10\",\"2\",\"P\",\"C\",\"138\"
\"\",\"\",\"approach-retreat\",\"142\",\"1493169\",\"0.0-142.0\",\"\",\"\",\"3-2\",\"6863\",\"40\",\"1\",\"Training\",\"Stims/Figures/128-C-30-3.bmp\",\"pa:pa:ta\",\"Up\",\"40\",\"9\",\"11\",\"2\",\"P\",\"C\",\"139\"
\"\",\"\",\"approach-retreat\",\"143\",\"1501151\",\"0.0-143.0\",\"\",\"\",\"3-2\",\"6473\",\"40\",\"1\",\"Training\",\"Stims/Figures/86-C-30-1.bmp\",\"pa:pa:ta\",\"Up\",\"40\",\"9\",\"12\",\"2\",\"P\",\"C\",\"140\"
\"\",\"\",\"approach-retreat\",\"144\",\"1507109\",\"0.0-144.0\",\"\",\"\",\"3-2\",\"4450\",\"39\",\"1\",\"Training\",\"Stims/Figures/84-J-0-2.bmp\",\"mamana\",\"Right\",\"39\",\"9\",\"13\",\"2\",\"S\",\"C\",\"141\"
\"\",\"\",\"approach-retreat\",\"145\",\"1516366\",\"0.0-145.0\",\"\",\"\",\"3-2\",\"7747\",\"39\",\"1\",\"Training\",\"Stims/Figures/19-J-10-4.bmp\",\"mamana\",\"Right\",\"39\",\"9\",\"14\",\"2\",\"S\",\"C\",\"142\"
\"\",\"\",\"approach-retreat\",\"146\",\"1525570\",\"0.0-146.0\",\"\",\"\",\"3-2\",\"7697\",\"38\",\"1\",\"Training\",\"Stims/Figures/84-C-20-2.bmp\",\"pa:pa:ta\",\"Down\",\"38\",\"9\",\"15\",\"2\",\"P\",\"C\",\"143\"
\"\",\"\",\"approach-retreat\",\"147\",\"1531186\",\"0.0-147.0\",\"\",\"\",\"3-2\",\"4105\",\"39\",\"1\",\"Training\",\"Stims/Figures/102-C-20-4.bmp\",\"pa:pa:ta\",\"Left\",\"39\",\"9\",\"16\",\"2\",\"P\",\"C\",\"144\"
\"21047\",\"\",\"instructions\",\"148\",\"1552234\",\"0.0-148.0\",\"[{\"\"page_index\"\":0,\"\"viewing_time\"\":21047}]\",\"\",\"\",\"\",\"\",\"\",\"\",\"\",\"\",\"\",\"\",\"\",\"\",\"\",\"\",\"\",\"\"
\"\",\"\",\"approach-retreat\",\"149\",\"1562886\",\"0.0-149.0\",\"\",\"\",\"3-2\",\"9145\",\"40\",\"1\",\"Testing\",\"Stims/Figures/93-C-30-1.bmp\",\"pa:pa:ta\",\"Up\",\"40\",\"1\",\"1\",\"2\",\"P\",\"C\",\"1\"
\"\",\"\",\"approach-retreat\",\"150\",\"1569176\",\"0.0-150.0\",\"\",\"\",\"3-2\",\"4782\",\"37\",\"1\",\"Testing\",\"Stims/Figures/93-J-0-1.bmp\",\"mamana\",\"Left\",\"37\",\"1\",\"2\",\"2\",\"S\",\"C\",\"2\"
\"\",\"\",\"approach-retreat\",\"151\",\"1576699\",\"0.0-151.0\",\"\",\"\",\"3-2\",\"6014\",\"37\",\"1\",\"Testing\",\"Stims/Figures/111-J-10-3.bmp\",\"mamana\",\"Left\",\"37\",\"1\",\"3\",\"2\",\"S\",\"C\",\"3\"
\"\",\"\",\"approach-retreat\",\"152\",\"1583706\",\"0.0-152.0\",\"\",\"\",\"3-2\",\"5498\",\"40\",\"1\",\"Testing\",\"Stims/Figures/118-J-0-2.bmp\",\"mamana\",\"Down\",\"40\",\"1\",\"4\",\"2\",\"S\",\"C\",\"4\"
\"\",\"\",\"approach-retreat\",\"153\",\"1589528\",\"0.0-153.0\",\"\",\"\",\"3-2\",\"4313\",\"39\",\"0\",\"Testing\",\"Stims/Figures/86-C-30-1.bmp\",\"pa:pa:ta\",\"Right\",\"37\",\"1\",\"5\",\"2\",\"P\",\"C\",\"5\"
\"\",\"\",\"approach-retreat\",\"154\",\"1595722\",\"0.0-154.0\",\"\",\"\",\"3-2\",\"4686\",\"38\",\"1\",\"Testing\",\"Stims/Figures/144-J-10-3.bmp\",\"mamana\",\"Up\",\"38\",\"1\",\"6\",\"2\",\"S\",\"C\",\"6\"
\"\",\"\",\"approach-retreat\",\"155\",\"1603965\",\"0.0-155.0\",\"\",\"\",\"3-2\",\"6734\",\"39\",\"0\",\"Testing\",\"Stims/Figures/57-C-30-1.bmp\",\"pa:pa:ta\",\"Right\",\"37\",\"1\",\"7\",\"2\",\"P\",\"C\",\"7\"
\"\",\"\",\"approach-retreat\",\"156\",\"1610109\",\"0.0-156.0\",\"\",\"\",\"3-2\",\"4638\",\"40\",\"1\",\"Testing\",\"Stims/Figures/87-C-20-4.bmp\",\"pa:pa:ta\",\"Up\",\"40\",\"1\",\"8\",\"2\",\"P\",\"C\",\"8\"
\"\",\"\",\"approach-retreat\",\"157\",\"1618695\",\"0.0-157.0\",\"\",\"\",\"3-2\",\"7078\",\"38\",\"0\",\"Testing\",\"Stims/Figures/102-J-10-4.bmp\",\"mamana\",\"Down\",\"40\",\"1\",\"9\",\"2\",\"S\",\"C\",\"9\"
\"\",\"\",\"approach-retreat\",\"158\",\"1624873\",\"0.0-158.0\",\"\",\"\",\"3-2\",\"4667\",\"37\",\"1\",\"Testing\",\"Stims/Figures/84-J-0-2.bmp\",\"mamana\",\"Left\",\"37\",\"1\",\"10\",\"2\",\"S\",\"C\",\"10\"
\"\",\"\",\"approach-retreat\",\"159\",\"1632095\",\"0.0-159.0\",\"\",\"\",\"3-2\",\"5714\",\"39\",\"0\",\"Testing\",\"Stims/Figures/128-C-30-3.bmp\",\"pa:pa:ta\",\"Right\",\"37\",\"1\",\"11\",\"2\",\"P\",\"C\",\"11\"
\"\",\"\",\"approach-retreat\",\"160\",\"1638063\",\"0.0-160.0\",\"\",\"\",\"3-2\",\"4461\",\"38\",\"0\",\"Testing\",\"Stims/Figures/144-C-30-3.bmp\",\"pa:pa:ta\",\"Up\",\"40\",\"1\",\"12\",\"2\",\"P\",\"C\",\"12\"
\"\",\"\",\"approach-retreat\",\"161\",\"1644851\",\"0.0-161.0\",\"\",\"\",\"3-2\",\"5282\",\"38\",\"0\",\"Testing\",\"Stims/Figures/111-C-30-3.bmp\",\"pa:pa:ta\",\"Up\",\"40\",\"1\",\"13\",\"2\",\"P\",\"C\",\"13\"
\"\",\"\",\"approach-retreat\",\"162\",\"1651511\",\"0.0-162.0\",\"\",\"\",\"3-2\",\"5151\",\"40\",\"1\",\"Testing\",\"Stims/Figures/85-J-0-2.bmp\",\"mamana\",\"Down\",\"40\",\"1\",\"14\",\"2\",\"S\",\"C\",\"14\"
\"\",\"\",\"approach-retreat\",\"163\",\"1657552\",\"0.0-163.0\",\"\",\"\",\"3-2\",\"4534\",\"37\",\"1\",\"Testing\",\"Stims/Figures/19-J-10-4.bmp\",\"mamana\",\"Left\",\"37\",\"1\",\"15\",\"2\",\"S\",\"C\",\"15\"
\"\",\"\",\"approach-retreat\",\"164\",\"1663678\",\"0.0-164.0\",\"\",\"\",\"3-2\",\"4617\",\"39\",\"1\",\"Testing\",\"Stims/Figures/128-J-10-3.bmp\",\"mamana\",\"Right\",\"39\",\"1\",\"16\",\"2\",\"S\",\"C\",\"16\"
\"\",\"\",\"approach-retreat\",\"165\",\"1670027\",\"0.0-165.0\",\"\",\"\",\"3-2\",\"4838\",\"40\",\"0\",\"Testing\",\"Stims/Figures/19-C-20-4.bmp\",\"pa:pa:ta\",\"Down\",\"38\",\"1\",\"17\",\"2\",\"P\",\"C\",\"17\"
\"\",\"\",\"approach-retreat\",\"166\",\"1676143\",\"0.0-166.0\",\"\",\"\",\"3-2\",\"4607\",\"39\",\"1\",\"Testing\",\"Stims/Figures/87-J-10-4.bmp\",\"mamana\",\"Right\",\"39\",\"1\",\"18\",\"2\",\"S\",\"C\",\"18\"
\"\",\"\",\"approach-retreat\",\"167\",\"1682939\",\"0.0-167.0\",\"\",\"\",\"3-2\",\"5283\",\"38\",\"0\",\"Testing\",\"Stims/Figures/86-J-0-1.bmp\",\"mamana\",\"Down\",\"40\",\"1\",\"19\",\"2\",\"S\",\"C\",\"19\"
\"\",\"\",\"approach-retreat\",\"168\",\"1689156\",\"0.0-168.0\",\"\",\"\",\"3-2\",\"4711\",\"37\",\"0\",\"Testing\",\"Stims/Figures/102-C-20-4.bmp\",\"pa:pa:ta\",\"Left\",\"39\",\"1\",\"20\",\"2\",\"P\",\"C\",\"20\"
\"\",\"\",\"approach-retreat\",\"169\",\"1696095\",\"0.0-169.0\",\"\",\"\",\"3-2\",\"5431\",\"37\",\"1\",\"Testing\",\"Stims/Figures/57-J-0-1.bmp\",\"mamana\",\"Left\",\"37\",\"1\",\"21\",\"2\",\"S\",\"C\",\"21\"
\"\",\"\",\"approach-retreat\",\"170\",\"1702774\",\"0.0-170.0\",\"\",\"\",\"3-2\",\"5171\",\"38\",\"1\",\"Testing\",\"Stims/Figures/84-C-20-2.bmp\",\"pa:pa:ta\",\"Down\",\"38\",\"1\",\"22\",\"2\",\"P\",\"C\",\"22\"
\"\",\"\",\"approach-retreat\",\"171\",\"1709782\",\"0.0-171.0\",\"\",\"\",\"3-2\",\"5500\",\"39\",\"0\",\"Testing\",\"Stims/Figures/118-C-20-2.bmp\",\"pa:pa:ta\",\"Right\",\"37\",\"1\",\"23\",\"2\",\"P\",\"C\",\"23\"
\"\",\"\",\"approach-retreat\",\"172\",\"1716581\",\"0.0-172.0\",\"\",\"\",\"3-2\",\"5290\",\"38\",\"0\",\"Testing\",\"Stims/Figures/85-C-20-2.bmp\",\"pa:pa:ta\",\"Up\",\"40\",\"1\",\"24\",\"2\",\"P\",\"C\",\"24\"
\"\",\"\",\"approach-retreat\",\"173\",\"1726322\",\"0.0-173.0\",\"\",\"\",\"3-2\",\"8233\",\"38\",\"0\",\"Testing\",\"Stims/Figures/118-C-20-2.bmp\",\"pa:pa:ta\",\"Up\",\"40\",\"2\",\"1\",\"2\",\"P\",\"C\",\"25\"
\"\",\"\",\"approach-retreat\",\"174\",\"1732156\",\"0.0-174.0\",\"\",\"\",\"3-2\",\"4326\",\"38\",\"0\",\"Testing\",\"Stims/Figures/86-J-0-1.bmp\",\"mamana\",\"Down\",\"40\",\"2\",\"2\",\"2\",\"S\",\"C\",\"26\"
\"\",\"\",\"approach-retreat\",\"175\",\"1741240\",\"0.0-175.0\",\"\",\"\",\"3-2\",\"7578\",\"38\",\"0\",\"Testing\",\"Stims/Figures/102-J-10-4.bmp\",\"mamana\",\"Down\",\"40\",\"2\",\"3\",\"2\",\"S\",\"C\",\"27\"
\"\",\"\",\"approach-retreat\",\"176\",\"1747171\",\"0.0-176.0\",\"\",\"\",\"3-2\",\"4421\",\"37\",\"1\",\"Testing\",\"Stims/Figures/57-J-0-1.bmp\",\"mamana\",\"Left\",\"37\",\"2\",\"4\",\"2\",\"S\",\"C\",\"28\"
\"\",\"\",\"approach-retreat\",\"177\",\"1752874\",\"0.0-177.0\",\"\",\"\",\"3-2\",\"4199\",\"38\",\"1\",\"Testing\",\"Stims/Figures/57-C-30-1.bmp\",\"pa:pa:ta\",\"Down\",\"38\",\"2\",\"5\",\"2\",\"P\",\"C\",\"29\"
\"\",\"\",\"approach-retreat\",\"178\",\"1758543\",\"0.0-178.0\",\"\",\"\",\"3-2\",\"4161\",\"37\",\"0\",\"Testing\",\"Stims/Figures/87-C-20-4.bmp\",\"pa:pa:ta\",\"Left\",\"39\",\"2\",\"6\",\"2\",\"P\",\"C\",\"30\"
\"\",\"\",\"approach-retreat\",\"179\",\"1772837\",\"0.0-179.0\",\"\",\"\",\"3-2\",\"12786\",\"38\",\"0\",\"Testing\",\"Stims/Figures/86-C-30-1.bmp\",\"pa:pa:ta\",\"Up\",\"40\",\"2\",\"7\",\"2\",\"P\",\"C\",\"31\"
\"\",\"\",\"approach-retreat\",\"180\",\"1778690\",\"0.0-180.0\",\"\",\"\",\"3-2\",\"4344\",\"37\",\"1\",\"Testing\",\"Stims/Figures/118-J-0-2.bmp\",\"mamana\",\"Left\",\"37\",\"2\",\"8\",\"2\",\"S\",\"C\",\"32\"
\"\",\"\",\"approach-retreat\",\"181\",\"1786339\",\"0.0-181.0\",\"\",\"\",\"3-2\",\"6142\",\"37\",\"1\",\"Testing\",\"Stims/Figures/102-C-20-4.bmp\",\"pa:pa:ta\",\"Right\",\"37\",\"2\",\"9\",\"2\",\"P\",\"C\",\"33\"
\"\",\"\",\"approach-retreat\",\"182\",\"1793015\",\"0.0-182.0\",\"\",\"\",\"3-2\",\"5168\",\"40\",\"0\",\"Testing\",\"Stims/Figures/111-C-30-3.bmp\",\"pa:pa:ta\",\"Down\",\"38\",\"2\",\"10\",\"2\",\"P\",\"C\",\"34\"
\"\",\"\",\"approach-retreat\",\"183\",\"1798734\",\"0.0-183.0\",\"\",\"\",\"3-2\",\"4208\",\"37\",\"0\",\"Testing\",\"Stims/Figures/85-C-20-2.bmp\",\"pa:pa:ta\",\"Left\",\"39\",\"2\",\"11\",\"2\",\"P\",\"C\",\"35\"
\"\",\"\",\"approach-retreat\",\"184\",\"1805229\",\"0.0-184.0\",\"\",\"\",\"3-2\",\"4991\",\"39\",\"1\",\"Testing\",\"Stims/Figures/111-J-10-3.bmp\",\"mamana\",\"Right\",\"39\",\"2\",\"12\",\"2\",\"S\",\"C\",\"36\"
\"\",\"\",\"approach-retreat\",\"185\",\"1811896\",\"0.0-185.0\",\"\",\"\",\"3-2\",\"5161\",\"37\",\"0\",\"Testing\",\"Stims/Figures/85-J-0-2.bmp\",\"mamana\",\"Right\",\"39\",\"2\",\"13\",\"2\",\"S\",\"C\",\"37\"
\"\",\"\",\"approach-retreat\",\"186\",\"1819536\",\"0.0-186.0\",\"\",\"\",\"3-2\",\"6130\",\"38\",\"0\",\"Testing\",\"Stims/Figures/93-C-30-1.bmp\",\"pa:pa:ta\",\"Up\",\"40\",\"2\",\"14\",\"2\",\"P\",\"C\",\"38\"
\"\",\"\",\"approach-retreat\",\"187\",\"1825432\",\"0.0-187.0\",\"\",\"\",\"3-2\",\"4388\",\"37\",\"1\",\"Testing\",\"Stims/Figures/128-C-30-3.bmp\",\"pa:pa:ta\",\"Right\",\"37\",\"2\",\"15\",\"2\",\"P\",\"C\",\"39\"
\"\",\"\",\"approach-retreat\",\"188\",\"1834206\",\"0.0-188.0\",\"\",\"\",\"3-2\",\"7267\",\"38\",\"0\",\"Testing\",\"Stims/Figures/84-C-20-2.bmp\",\"pa:pa:ta\",\"Up\",\"40\",\"2\",\"16\",\"2\",\"P\",\"C\",\"40\"
\"\",\"\",\"approach-retreat\",\"189\",\"1841303\",\"0.0-189.0\",\"\",\"\",\"3-2\",\"5590\",\"40\",\"1\",\"Testing\",\"Stims/Figures/93-J-0-1.bmp\",\"mamana\",\"Down\",\"40\",\"2\",\"17\",\"2\",\"S\",\"C\",\"41\"
\"\",\"\",\"approach-retreat\",\"190\",\"1847998\",\"0.0-190.0\",\"\",\"\",\"3-2\",\"5189\",\"37\",\"1\",\"Testing\",\"Stims/Figures/84-J-0-2.bmp\",\"mamana\",\"Left\",\"37\",\"2\",\"18\",\"2\",\"S\",\"C\",\"42\"
\"\",\"\",\"approach-retreat\",\"191\",\"1854830\",\"0.0-191.0\",\"\",\"\",\"3-2\",\"5324\",\"38\",\"1\",\"Testing\",\"Stims/Figures/19-C-20-4.bmp\",\"pa:pa:ta\",\"Down\",\"38\",\"2\",\"19\",\"2\",\"P\",\"C\",\"43\"
\"\",\"\",\"approach-retreat\",\"192\",\"1861269\",\"0.0-192.0\",\"\",\"\",\"3-2\",\"4933\",\"39\",\"1\",\"Testing\",\"Stims/Figures/87-J-10-4.bmp\",\"mamana\",\"Right\",\"39\",\"2\",\"20\",\"2\",\"S\",\"C\",\"44\"
\"\",\"\",\"approach-retreat\",\"193\",\"1869047\",\"0.0-193.0\",\"\",\"\",\"3-2\",\"6271\",\"38\",\"1\",\"Testing\",\"Stims/Figures/19-J-10-4.bmp\",\"mamana\",\"Up\",\"38\",\"2\",\"21\",\"2\",\"S\",\"C\",\"45\"
\"\",\"\",\"approach-retreat\",\"194\",\"1877634\",\"0.0-194.0\",\"\",\"\",\"3-2\",\"7080\",\"38\",\"0\",\"Testing\",\"Stims/Figures/144-C-30-3.bmp\",\"pa:pa:ta\",\"Up\",\"40\",\"2\",\"22\",\"2\",\"P\",\"C\",\"46\"
\"\",\"\",\"approach-retreat\",\"195\",\"1883550\",\"0.0-195.0\",\"\",\"\",\"3-2\",\"4408\",\"39\",\"1\",\"Testing\",\"Stims/Figures/144-J-10-3.bmp\",\"mamana\",\"Right\",\"39\",\"2\",\"23\",\"2\",\"S\",\"C\",\"47\"
\"\",\"\",\"approach-retreat\",\"196\",\"1889748\",\"0.0-196.0\",\"\",\"\",\"3-2\",\"4690\",\"37\",\"1\",\"Testing\",\"Stims/Figures/128-J-10-3.bmp\",\"mamana\",\"Left\",\"37\",\"2\",\"24\",\"2\",\"S\",\"C\",\"48\"
\"\",\"\",\"approach-retreat\",\"197\",\"1896604\",\"0.0-197.0\",\"\",\"\",\"3-2\",\"5347\",\"40\",\"1\",\"Testing\",\"Stims/Figures/87-J-10-4.bmp\",\"mamana\",\"Down\",\"40\",\"3\",\"1\",\"2\",\"S\",\"C\",\"49\"
\"\",\"\",\"approach-retreat\",\"198\",\"1905210\",\"0.0-198.0\",\"\",\"\",\"3-2\",\"7098\",\"39\",\"0\",\"Testing\",\"Stims/Figures/102-C-20-4.bmp\",\"pa:pa:ta\",\"Right\",\"37\",\"3\",\"2\",\"2\",\"P\",\"C\",\"50\"
\"\",\"\",\"approach-retreat\",\"199\",\"1912140\",\"0.0-199.0\",\"\",\"\",\"3-2\",\"5423\",\"37\",\"0\",\"Testing\",\"Stims/Figures/93-C-30-1.bmp\",\"pa:pa:ta\",\"Left\",\"39\",\"3\",\"3\",\"2\",\"P\",\"C\",\"51\"
\"\",\"\",\"approach-retreat\",\"200\",\"1918157\",\"0.0-200.0\",\"\",\"\",\"3-2\",\"4510\",\"37\",\"0\",\"Testing\",\"Stims/Figures/86-C-30-1.bmp\",\"pa:pa:ta\",\"Left\",\"39\",\"3\",\"4\",\"2\",\"P\",\"C\",\"52\"
\"\",\"\",\"approach-retreat\",\"201\",\"1924145\",\"0.0-201.0\",\"\",\"\",\"3-2\",\"4478\",\"39\",\"0\",\"Testing\",\"Stims/Figures/85-C-20-2.bmp\",\"pa:pa:ta\",\"Right\",\"37\",\"3\",\"5\",\"2\",\"P\",\"C\",\"53\"
\"\",\"\",\"approach-retreat\",\"202\",\"1930662\",\"0.0-202.0\",\"\",\"\",\"3-2\",\"5010\",\"39\",\"0\",\"Testing\",\"Stims/Figures/87-C-20-4.bmp\",\"pa:pa:ta\",\"Right\",\"37\",\"3\",\"6\",\"2\",\"P\",\"C\",\"54\"
\"\",\"\",\"approach-retreat\",\"203\",\"1937234\",\"0.0-203.0\",\"\",\"\",\"3-2\",\"5064\",\"40\",\"1\",\"Testing\",\"Stims/Figures/118-J-0-2.bmp\",\"mamana\",\"Down\",\"40\",\"3\",\"7\",\"2\",\"S\",\"C\",\"55\"
\"\",\"\",\"approach-retreat\",\"204\",\"1944661\",\"0.0-204.0\",\"\",\"\",\"3-2\",\"5920\",\"38\",\"1\",\"Testing\",\"Stims/Figures/128-J-10-3.bmp\",\"mamana\",\"Up\",\"38\",\"3\",\"8\",\"2\",\"S\",\"C\",\"56\"
\"\",\"\",\"approach-retreat\",\"205\",\"1952090\",\"0.0-205.0\",\"\",\"\",\"3-2\",\"5923\",\"38\",\"1\",\"Testing\",\"Stims/Figures/86-J-0-1.bmp\",\"mamana\",\"Up\",\"38\",\"3\",\"9\",\"2\",\"S\",\"C\",\"57\"
\"\",\"\",\"approach-retreat\",\"206\",\"1960598\",\"0.0-206.0\",\"\",\"\",\"3-2\",\"7001\",\"40\",\"1\",\"Testing\",\"Stims/Figures/128-C-30-3.bmp\",\"pa:pa:ta\",\"Up\",\"40\",\"3\",\"10\",\"2\",\"P\",\"C\",\"58\"
\"\",\"\",\"approach-retreat\",\"207\",\"1969456\",\"0.0-207.0\",\"\",\"\",\"3-2\",\"7350\",\"40\",\"1\",\"Testing\",\"Stims/Figures/57-J-0-1.bmp\",\"mamana\",\"Down\",\"40\",\"3\",\"11\",\"2\",\"S\",\"C\",\"59\"
\"\",\"\",\"approach-retreat\",\"208\",\"1978615\",\"0.0-208.0\",\"\",\"\",\"3-2\",\"7652\",\"40\",\"1\",\"Testing\",\"Stims/Figures/118-C-20-2.bmp\",\"pa:pa:ta\",\"Up\",\"40\",\"3\",\"12\",\"2\",\"P\",\"C\",\"60\"
\"\",\"\",\"approach-retreat\",\"209\",\"1984692\",\"0.0-209.0\",\"\",\"\",\"3-2\",\"4570\",\"40\",\"1\",\"Testing\",\"Stims/Figures/85-J-0-2.bmp\",\"mamana\",\"Down\",\"40\",\"3\",\"13\",\"2\",\"S\",\"C\",\"61\"
\"\",\"\",\"approach-retreat\",\"210\",\"1991454\",\"0.0-210.0\",\"\",\"\",\"3-2\",\"5256\",\"38\",\"1\",\"Testing\",\"Stims/Figures/57-C-30-1.bmp\",\"pa:pa:ta\",\"Down\",\"38\",\"3\",\"14\",\"2\",\"P\",\"C\",\"62\"
\"\",\"\",\"approach-retreat\",\"211\",\"1998496\",\"0.0-211.0\",\"\",\"\",\"3-2\",\"5534\",\"40\",\"0\",\"Testing\",\"Stims/Figures/93-J-0-1.bmp\",\"mamana\",\"Up\",\"38\",\"3\",\"15\",\"2\",\"S\",\"C\",\"63\"
\"\",\"\",\"approach-retreat\",\"212\",\"2004364\",\"0.0-212.0\",\"\",\"\",\"3-2\",\"4362\",\"37\",\"1\",\"Testing\",\"Stims/Figures/84-J-0-2.bmp\",\"mamana\",\"Left\",\"37\",\"3\",\"16\",\"2\",\"S\",\"C\",\"64\"
\"\",\"\",\"approach-retreat\",\"213\",\"2010326\",\"0.0-213.0\",\"\",\"\",\"3-2\",\"4455\",\"38\",\"0\",\"Testing\",\"Stims/Figures/19-C-20-4.bmp\",\"pa:pa:ta\",\"Up\",\"40\",\"3\",\"17\",\"2\",\"P\",\"C\",\"65\"
\"\",\"\",\"approach-retreat\",\"214\",\"2015987\",\"0.0-214.0\",\"\",\"\",\"3-2\",\"4153\",\"39\",\"1\",\"Testing\",\"Stims/Figures/102-J-10-4.bmp\",\"mamana\",\"Right\",\"39\",\"3\",\"18\",\"2\",\"S\",\"C\",\"66\"
\"\",\"\",\"approach-retreat\",\"215\",\"2021688\",\"0.0-215.0\",\"\",\"\",\"3-2\",\"4194\",\"37\",\"1\",\"Testing\",\"Stims/Figures/144-J-10-3.bmp\",\"mamana\",\"Left\",\"37\",\"3\",\"19\",\"2\",\"S\",\"C\",\"67\"
\"\",\"\",\"approach-retreat\",\"216\",\"2027562\",\"0.0-216.0\",\"\",\"\",\"3-2\",\"4367\",\"39\",\"1\",\"Testing\",\"Stims/Figures/111-J-10-3.bmp\",\"mamana\",\"Right\",\"39\",\"3\",\"20\",\"2\",\"S\",\"C\",\"68\"
\"\",\"\",\"approach-retreat\",\"217\",\"2033677\",\"0.0-217.0\",\"\",\"\",\"3-2\",\"4607\",\"37\",\"0\",\"Testing\",\"Stims/Figures/111-C-30-3.bmp\",\"pa:pa:ta\",\"Left\",\"39\",\"3\",\"21\",\"2\",\"P\",\"C\",\"69\"
\"\",\"\",\"approach-retreat\",\"218\",\"2039997\",\"0.0-218.0\",\"\",\"\",\"3-2\",\"4816\",\"38\",\"1\",\"Testing\",\"Stims/Figures/84-C-20-2.bmp\",\"pa:pa:ta\",\"Down\",\"38\",\"3\",\"22\",\"2\",\"P\",\"C\",\"70\"
\"\",\"\",\"approach-retreat\",\"219\",\"2046342\",\"0.0-219.0\",\"\",\"\",\"3-2\",\"4837\",\"39\",\"0\",\"Testing\",\"Stims/Figures/144-C-30-3.bmp\",\"pa:pa:ta\",\"Right\",\"37\",\"3\",\"23\",\"2\",\"P\",\"C\",\"71\"
\"\",\"\",\"approach-retreat\",\"220\",\"2053327\",\"0.0-220.0\",\"\",\"\",\"3-2\",\"5478\",\"37\",\"1\",\"Testing\",\"Stims/Figures/19-J-10-4.bmp\",\"mamana\",\"Left\",\"37\",\"3\",\"24\",\"2\",\"S\",\"C\",\"72\"
\"\",\"\",\"approach-retreat\",\"221\",\"2059452\",\"0.0-221.0\",\"\",\"\",\"3-2\",\"4618\",\"40\",\"1\",\"Testing\",\"Stims/Figures/118-J-0-2.bmp\",\"mamana\",\"Down\",\"40\",\"4\",\"1\",\"2\",\"S\",\"C\",\"73\"
\"\",\"\",\"approach-retreat\",\"222\",\"2065746\",\"0.0-222.0\",\"\",\"\",\"3-2\",\"4787\",\"37\",\"1\",\"Testing\",\"Stims/Figures/118-C-20-2.bmp\",\"pa:pa:ta\",\"Right\",\"37\",\"4\",\"2\",\"2\",\"P\",\"C\",\"74\"
\"\",\"\",\"approach-retreat\",\"223\",\"2072171\",\"0.0-223.0\",\"\",\"\",\"3-2\",\"4917\",\"37\",\"0\",\"Testing\",\"Stims/Figures/144-J-10-3.bmp\",\"mamana\",\"Right\",\"39\",\"4\",\"3\",\"2\",\"S\",\"C\",\"75\"
\"\",\"\",\"approach-retreat\",\"224\",\"2078554\",\"0.0-224.0\",\"\",\"\",\"3-2\",\"4876\",\"40\",\"1\",\"Testing\",\"Stims/Figures/93-J-0-1.bmp\",\"mamana\",\"Down\",\"40\",\"4\",\"4\",\"2\",\"S\",\"C\",\"76\"
\"\",\"\",\"approach-retreat\",\"225\",\"2088356\",\"0.0-225.0\",\"\",\"\",\"3-2\",\"8296\",\"37\",\"0\",\"Testing\",\"Stims/Figures/87-C-20-4.bmp\",\"pa:pa:ta\",\"Left\",\"39\",\"4\",\"5\",\"2\",\"P\",\"C\",\"77\"
\"\",\"\",\"approach-retreat\",\"226\",\"2094337\",\"0.0-226.0\",\"\",\"\",\"3-2\",\"4473\",\"40\",\"1\",\"Testing\",\"Stims/Figures/111-J-10-3.bmp\",\"mamana\",\"Down\",\"40\",\"4\",\"6\",\"2\",\"S\",\"C\",\"78\"
\"\",\"\",\"approach-retreat\",\"227\",\"2100856\",\"0.0-227.0\",\"\",\"\",\"3-2\",\"5013\",\"38\",\"0\",\"Testing\",\"Stims/Figures/84-C-20-2.bmp\",\"pa:pa:ta\",\"Up\",\"40\",\"4\",\"7\",\"2\",\"P\",\"C\",\"79\"
\"\",\"\",\"approach-retreat\",\"228\",\"2106034\",\"0.0-228.0\",\"\",\"\",\"3-2\",\"3670\",\"38\",\"1\",\"Testing\",\"Stims/Figures/19-C-20-4.bmp\",\"pa:pa:ta\",\"Down\",\"38\",\"4\",\"8\",\"2\",\"P\",\"C\",\"80\"
\"\",\"\",\"approach-retreat\",\"229\",\"2111440\",\"0.0-229.0\",\"\",\"\",\"3-2\",\"3894\",\"37\",\"1\",\"Testing\",\"Stims/Figures/57-J-0-1.bmp\",\"mamana\",\"Left\",\"37\",\"4\",\"9\",\"2\",\"S\",\"C\",\"81\"
\"\",\"\",\"approach-retreat\",\"230\",\"2117173\",\"0.0-230.0\",\"\",\"\",\"3-2\",\"4227\",\"37\",\"0\",\"Testing\",\"Stims/Figures/102-J-10-4.bmp\",\"mamana\",\"Right\",\"39\",\"4\",\"10\",\"2\",\"S\",\"C\",\"82\"
\"\",\"\",\"approach-retreat\",\"231\",\"2129443\",\"0.0-231.0\",\"\",\"\",\"3-2\",\"10761\",\"38\",\"0\",\"Testing\",\"Stims/Figures/85-C-20-2.bmp\",\"pa:pa:ta\",\"Up\",\"40\",\"4\",\"11\",\"2\",\"P\",\"C\",\"83\"
\"\",\"\",\"approach-retreat\",\"232\",\"2137691\",\"0.0-232.0\",\"\",\"\",\"3-2\",\"6744\",\"37\",\"0\",\"Testing\",\"Stims/Figures/128-C-30-3.bmp\",\"pa:pa:ta\",\"Left\",\"39\",\"4\",\"12\",\"2\",\"P\",\"C\",\"84\"
\"\",\"\",\"approach-retreat\",\"233\",\"2151182\",\"0.0-233.0\",\"\",\"\",\"3-2\",\"11986\",\"40\",\"0\",\"Testing\",\"Stims/Figures/86-C-30-1.bmp\",\"pa:pa:ta\",\"Down\",\"38\",\"4\",\"13\",\"2\",\"P\",\"C\",\"85\"
\"\",\"\",\"approach-retreat\",\"234\",\"2164077\",\"0.0-234.0\",\"\",\"\",\"3-2\",\"11386\",\"38\",\"0\",\"Testing\",\"Stims/Figures/93-C-30-1.bmp\",\"pa:pa:ta\",\"Up\",\"40\",\"4\",\"14\",\"2\",\"P\",\"C\",\"86\"
\"\",\"\",\"approach-retreat\",\"235\",\"2171965\",\"0.0-235.0\",\"\",\"\",\"3-2\",\"6379\",\"40\",\"0\",\"Testing\",\"Stims/Figures/111-C-30-3.bmp\",\"pa:pa:ta\",\"Down\",\"38\",\"4\",\"15\",\"2\",\"P\",\"C\",\"87\"
\"\",\"\",\"approach-retreat\",\"236\",\"2178012\",\"0.0-236.0\",\"\",\"\",\"3-2\",\"4540\",\"37\",\"1\",\"Testing\",\"Stims/Figures/128-J-10-3.bmp\",\"mamana\",\"Left\",\"37\",\"4\",\"16\",\"2\",\"S\",\"C\",\"88\"
\"\",\"\",\"approach-retreat\",\"237\",\"2187366\",\"0.0-237.0\",\"\",\"\",\"3-2\",\"7848\",\"40\",\"0\",\"Testing\",\"Stims/Figures/84-J-0-2.bmp\",\"mamana\",\"Up\",\"38\",\"4\",\"17\",\"2\",\"S\",\"C\",\"89\"
\"\",\"\",\"approach-retreat\",\"238\",\"2193460\",\"0.0-238.0\",\"\",\"\",\"3-2\",\"4588\",\"37\",\"1\",\"Testing\",\"Stims/Figures/19-J-10-4.bmp\",\"mamana\",\"Left\",\"37\",\"4\",\"18\",\"2\",\"S\",\"C\",\"90\"
\"\",\"\",\"approach-retreat\",\"239\",\"2199910\",\"0.0-239.0\",\"\",\"\",\"3-2\",\"4942\",\"40\",\"1\",\"Testing\",\"Stims/Figures/102-C-20-4.bmp\",\"pa:pa:ta\",\"Up\",\"40\",\"4\",\"19\",\"2\",\"P\",\"C\",\"91\"
\"\",\"\",\"approach-retreat\",\"240\",\"2211560\",\"0.0-240.0\",\"\",\"\",\"3-2\",\"10144\",\"39\",\"1\",\"Testing\",\"Stims/Figures/86-J-0-1.bmp\",\"mamana\",\"Right\",\"39\",\"4\",\"20\",\"2\",\"S\",\"C\",\"92\"
\"\",\"\",\"approach-retreat\",\"241\",\"2220443\",\"0.0-241.0\",\"\",\"\",\"3-2\",\"7376\",\"39\",\"1\",\"Testing\",\"Stims/Figures/87-J-10-4.bmp\",\"mamana\",\"Right\",\"39\",\"4\",\"21\",\"2\",\"S\",\"C\",\"93\"
\"\",\"\",\"approach-retreat\",\"242\",\"2230045\",\"0.0-242.0\",\"\",\"\",\"3-2\",\"8096\",\"39\",\"1\",\"Testing\",\"Stims/Figures/57-C-30-1.bmp\",\"pa:pa:ta\",\"Left\",\"39\",\"4\",\"22\",\"2\",\"P\",\"C\",\"94\"
\"\",\"\",\"approach-retreat\",\"243\",\"2238865\",\"0.0-243.0\",\"\",\"\",\"3-2\",\"7312\",\"37\",\"1\",\"Testing\",\"Stims/Figures/144-C-30-3.bmp\",\"pa:pa:ta\",\"Right\",\"37\",\"4\",\"23\",\"2\",\"P\",\"C\",\"95\"
\"\",\"\",\"approach-retreat\",\"244\",\"2247058\",\"0.0-244.0\",\"\",\"\",\"3-2\",\"6686\",\"38\",\"1\",\"Testing\",\"Stims/Figures/85-J-0-2.bmp\",\"mamana\",\"Up\",\"38\",\"4\",\"24\",\"2\",\"S\",\"C\",\"96\"
\"35534\",\"\",\"survey-text\",\"245\",\"2282598\",\"0.0-245.0\",\"\",\"{\"\"Q0\"\":\"\"1248/17\"\"}\",\"\",\"\",\"\",\"\",\"\",\"\",\"\",\"\",\"\",\"\",\"\",\"\",\"\",\"\",\"\"
