\"rt\",\"key_press\",\"trial_type\",\"trial_index\",\"time_elapsed\",\"internal_node_id\",\"view_history\",\"responses\",\"Id\",\"Rt\",\"ResKeyCode\",\"ResCorr\",\"TrialType2\",\"Image\",\"Label\",\"Location\",\"CorrectResponse\",\"Block\",\"BlockTrial\",\"Condition\",\"LabelType\",\"Subcondition\",\"trialNum\"
\"37301\",\"32\",\"text\",\"0\",\"37304\",\"0.0-0.0-0.0\",\"\",\"\",\"\",\"\",\"\",\"\",\"\",\"\",\"\",\"\",\"\",\"\",\"\",\"\",\"\",\"\",\"\"
\"88782\",\"\",\"instructions\",\"1\",\"126088\",\"0.0-1.0\",\"[{\"\"page_index\"\":0,\"\"viewing_time\"\":88782}]\",\"\",\"\",\"\",\"\",\"\",\"\",\"\",\"\",\"\",\"\",\"\",\"\",\"\",\"\",\"\",\"\"
\"21518\",\"\",\"survey-multi-choice\",\"2\",\"147627\",\"0.0-2.0\",\"\",\"{\"\"Q0\"\":\"\"Da\"\",\"\"Q1\"\":\"\"Da\"\",\"\"Q2\"\":\"\"Da\"\",\"\"Q3\"\":\"\"Da\"\",\"\"Q4\"\":\"\"Da\"\",\"\"Q5\"\":\"\"Da\"\"}\",\"\",\"\",\"\",\"\",\"\",\"\",\"\",\"\",\"\",\"\",\"\",\"\",\"\",\"\",\"\"
\"\",\"\",\"bio\",\"3\",\"156265\",\"0.0-3.0\",\"\",\"{\"\"age\"\":\"\"19\"\",\"\"gender\"\":\"\"f\"\",\"\"specify\"\":\"\"\"\"}\",\"\",\"\",\"\",\"\",\"\",\"\",\"\",\"\",\"\",\"\",\"\",\"\",\"\",\"\",\"\"
\"\",\"\",\"approach-retreat\",\"4\",\"163294\",\"0.0-4.0\",\"\",\"\",\"1-5\",\"5523\",\"40\",\"1\",\"Training\",\"Stims/Figures/71-C-30-1.bmp\",\"nala:na\",\"Up\",\"40\",\"1\",\"1\",\"1\",\"S\",\"C\",\"1\"
\"\",\"\",\"approach-retreat\",\"5\",\"169992\",\"0.0-5.0\",\"\",\"\",\"1-5\",\"5192\",\"39\",\"1\",\"Training\",\"Stims/Figures/94-J-0-2.bmp\",\"tapaka\",\"Right\",\"39\",\"1\",\"2\",\"1\",\"P\",\"C\",\"2\"
\"\",\"\",\"approach-retreat\",\"6\",\"176660\",\"0.0-6.0\",\"\",\"\",\"1-5\",\"5160\",\"37\",\"1\",\"Training\",\"Stims/Figures/100-J-10-3.bmp\",\"tapaka\",\"Left\",\"37\",\"1\",\"3\",\"1\",\"P\",\"C\",\"3\"
\"\",\"\",\"approach-retreat\",\"7\",\"182640\",\"0.0-7.0\",\"\",\"\",\"1-5\",\"4476\",\"37\",\"1\",\"Training\",\"Stims/Figures/27-C-30-1.bmp\",\"nala:na\",\"Right\",\"37\",\"1\",\"4\",\"1\",\"S\",\"C\",\"4\"
\"\",\"\",\"approach-retreat\",\"8\",\"188276\",\"0.0-8.0\",\"\",\"\",\"1-5\",\"4127\",\"37\",\"1\",\"Training\",\"Stims/Figures/94-C-20-2.bmp\",\"nala:na\",\"Right\",\"37\",\"1\",\"5\",\"1\",\"S\",\"C\",\"5\"
\"\",\"\",\"approach-retreat\",\"9\",\"195191\",\"0.0-9.0\",\"\",\"\",\"1-5\",\"5406\",\"38\",\"1\",\"Training\",\"Stims/Figures/144-J-10-3.bmp\",\"tapaka\",\"Up\",\"38\",\"1\",\"6\",\"1\",\"P\",\"C\",\"6\"
\"\",\"\",\"approach-retreat\",\"10\",\"201092\",\"0.0-10.0\",\"\",\"\",\"1-5\",\"4391\",\"37\",\"0\",\"Training\",\"Stims/Figures/74-C-20-4.bmp\",\"nala:na\",\"Left\",\"39\",\"1\",\"7\",\"1\",\"S\",\"C\",\"7\"
\"\",\"\",\"approach-retreat\",\"11\",\"208008\",\"0.0-11.0\",\"\",\"\",\"1-5\",\"5404\",\"37\",\"1\",\"Training\",\"Stims/Figures/87-J-10-4.bmp\",\"tapaka\",\"Left\",\"37\",\"1\",\"8\",\"1\",\"P\",\"C\",\"8\"
\"\",\"\",\"approach-retreat\",\"12\",\"214735\",\"0.0-12.0\",\"\",\"\",\"1-5\",\"5222\",\"40\",\"1\",\"Training\",\"Stims/Figures/87-C-20-4.bmp\",\"nala:na\",\"Up\",\"40\",\"1\",\"9\",\"1\",\"S\",\"C\",\"9\"
\"\",\"\",\"approach-retreat\",\"13\",\"220426\",\"0.0-13.0\",\"\",\"\",\"1-5\",\"4179\",\"37\",\"1\",\"Training\",\"Stims/Figures/27-J-0-1.bmp\",\"tapaka\",\"Left\",\"37\",\"1\",\"10\",\"1\",\"P\",\"C\",\"10\"
\"\",\"\",\"approach-retreat\",\"14\",\"226626\",\"0.0-14.0\",\"\",\"\",\"1-5\",\"4690\",\"40\",\"1\",\"Training\",\"Stims/Figures/71-J-0-1.bmp\",\"tapaka\",\"Down\",\"40\",\"1\",\"11\",\"1\",\"P\",\"C\",\"11\"
\"\",\"\",\"approach-retreat\",\"15\",\"233409\",\"0.0-15.0\",\"\",\"\",\"1-5\",\"5279\",\"38\",\"1\",\"Training\",\"Stims/Figures/144-C-30-3.bmp\",\"nala:na\",\"Down\",\"38\",\"1\",\"12\",\"1\",\"S\",\"C\",\"12\"
\"\",\"\",\"approach-retreat\",\"16\",\"240453\",\"0.0-16.0\",\"\",\"\",\"1-5\",\"5535\",\"40\",\"1\",\"Training\",\"Stims/Figures/74-J-10-4.bmp\",\"tapaka\",\"Down\",\"40\",\"1\",\"13\",\"1\",\"P\",\"C\",\"13\"
\"\",\"\",\"approach-retreat\",\"17\",\"246837\",\"0.0-17.0\",\"\",\"\",\"1-5\",\"4880\",\"37\",\"1\",\"Training\",\"Stims/Figures/100-C-30-3.bmp\",\"nala:na\",\"Right\",\"37\",\"1\",\"14\",\"1\",\"S\",\"C\",\"14\"
\"\",\"\",\"approach-retreat\",\"18\",\"252530\",\"0.0-18.0\",\"\",\"\",\"1-5\",\"4184\",\"40\",\"1\",\"Training\",\"Stims/Figures/84-C-20-2.bmp\",\"nala:na\",\"Up\",\"40\",\"1\",\"15\",\"1\",\"S\",\"C\",\"15\"
\"\",\"\",\"approach-retreat\",\"19\",\"258846\",\"0.0-19.0\",\"\",\"\",\"1-5\",\"4807\",\"40\",\"1\",\"Training\",\"Stims/Figures/84-J-0-2.bmp\",\"tapaka\",\"Down\",\"40\",\"1\",\"16\",\"1\",\"P\",\"C\",\"16\"
\"\",\"\",\"approach-retreat\",\"20\",\"265019\",\"0.0-20.0\",\"\",\"\",\"1-5\",\"4664\",\"38\",\"1\",\"Training\",\"Stims/Figures/74-C-20-4.bmp\",\"nala:na\",\"Down\",\"38\",\"2\",\"1\",\"1\",\"S\",\"C\",\"17\"
\"\",\"\",\"approach-retreat\",\"21\",\"271180\",\"0.0-21.0\",\"\",\"\",\"1-5\",\"4653\",\"38\",\"1\",\"Training\",\"Stims/Figures/74-J-10-4.bmp\",\"tapaka\",\"Up\",\"38\",\"2\",\"2\",\"1\",\"P\",\"C\",\"18\"
\"\",\"\",\"approach-retreat\",\"22\",\"276979\",\"0.0-22.0\",\"\",\"\",\"1-5\",\"4288\",\"38\",\"1\",\"Training\",\"Stims/Figures/71-J-0-1.bmp\",\"tapaka\",\"Up\",\"38\",\"2\",\"3\",\"1\",\"P\",\"C\",\"19\"
\"\",\"\",\"approach-retreat\",\"23\",\"284032\",\"0.0-23.0\",\"\",\"\",\"1-5\",\"5542\",\"40\",\"1\",\"Training\",\"Stims/Figures/144-J-10-3.bmp\",\"tapaka\",\"Down\",\"40\",\"2\",\"4\",\"1\",\"P\",\"C\",\"20\"
\"\",\"\",\"approach-retreat\",\"24\",\"290279\",\"0.0-24.0\",\"\",\"\",\"1-5\",\"4737\",\"40\",\"1\",\"Training\",\"Stims/Figures/100-C-30-3.bmp\",\"nala:na\",\"Up\",\"40\",\"2\",\"5\",\"1\",\"S\",\"C\",\"21\"
\"\",\"\",\"approach-retreat\",\"25\",\"296384\",\"0.0-25.0\",\"\",\"\",\"1-5\",\"4597\",\"37\",\"1\",\"Training\",\"Stims/Figures/144-C-30-3.bmp\",\"nala:na\",\"Right\",\"37\",\"2\",\"6\",\"1\",\"S\",\"C\",\"22\"
\"\",\"\",\"approach-retreat\",\"26\",\"302472\",\"0.0-26.0\",\"\",\"\",\"1-5\",\"4578\",\"39\",\"1\",\"Training\",\"Stims/Figures/27-C-30-1.bmp\",\"nala:na\",\"Left\",\"39\",\"2\",\"7\",\"1\",\"S\",\"C\",\"23\"
\"\",\"\",\"approach-retreat\",\"27\",\"308578\",\"0.0-27.0\",\"\",\"\",\"1-5\",\"4598\",\"39\",\"1\",\"Training\",\"Stims/Figures/94-J-0-2.bmp\",\"tapaka\",\"Right\",\"39\",\"2\",\"8\",\"1\",\"P\",\"C\",\"24\"
\"\",\"\",\"approach-retreat\",\"28\",\"315439\",\"0.0-28.0\",\"\",\"\",\"1-5\",\"5351\",\"37\",\"1\",\"Training\",\"Stims/Figures/87-J-10-4.bmp\",\"tapaka\",\"Left\",\"37\",\"2\",\"9\",\"1\",\"P\",\"C\",\"25\"
\"\",\"\",\"approach-retreat\",\"29\",\"321274\",\"0.0-29.0\",\"\",\"\",\"1-5\",\"4327\",\"37\",\"1\",\"Training\",\"Stims/Figures/94-C-20-2.bmp\",\"nala:na\",\"Right\",\"37\",\"2\",\"10\",\"1\",\"S\",\"C\",\"26\"
\"\",\"\",\"approach-retreat\",\"30\",\"326937\",\"0.0-30.0\",\"\",\"\",\"1-5\",\"4154\",\"40\",\"0\",\"Training\",\"Stims/Figures/84-C-20-2.bmp\",\"nala:na\",\"Down\",\"38\",\"2\",\"11\",\"1\",\"S\",\"C\",\"27\"
\"\",\"\",\"approach-retreat\",\"31\",\"332965\",\"0.0-31.0\",\"\",\"\",\"1-5\",\"4520\",\"37\",\"1\",\"Training\",\"Stims/Figures/84-J-0-2.bmp\",\"tapaka\",\"Left\",\"37\",\"2\",\"12\",\"1\",\"P\",\"C\",\"28\"
\"\",\"\",\"approach-retreat\",\"32\",\"339169\",\"0.0-32.0\",\"\",\"\",\"1-5\",\"4696\",\"40\",\"0\",\"Training\",\"Stims/Figures/71-C-30-1.bmp\",\"nala:na\",\"Down\",\"38\",\"2\",\"13\",\"1\",\"S\",\"C\",\"29\"
\"\",\"\",\"approach-retreat\",\"33\",\"345669\",\"0.0-33.0\",\"\",\"\",\"1-5\",\"4992\",\"39\",\"1\",\"Training\",\"Stims/Figures/87-C-20-4.bmp\",\"nala:na\",\"Left\",\"39\",\"2\",\"14\",\"1\",\"S\",\"C\",\"30\"
\"\",\"\",\"approach-retreat\",\"34\",\"351232\",\"0.0-34.0\",\"\",\"\",\"1-5\",\"4054\",\"39\",\"1\",\"Training\",\"Stims/Figures/100-J-10-3.bmp\",\"tapaka\",\"Right\",\"39\",\"2\",\"15\",\"1\",\"P\",\"C\",\"31\"
\"\",\"\",\"approach-retreat\",\"35\",\"356765\",\"0.0-35.0\",\"\",\"\",\"1-5\",\"4024\",\"38\",\"1\",\"Training\",\"Stims/Figures/27-J-0-1.bmp\",\"tapaka\",\"Up\",\"38\",\"2\",\"16\",\"1\",\"P\",\"C\",\"32\"
\"\",\"\",\"approach-retreat\",\"36\",\"362351\",\"0.0-36.0\",\"\",\"\",\"1-5\",\"4077\",\"40\",\"1\",\"Training\",\"Stims/Figures/87-C-20-4.bmp\",\"nala:na\",\"Up\",\"40\",\"3\",\"1\",\"1\",\"S\",\"C\",\"33\"
\"\",\"\",\"approach-retreat\",\"37\",\"367835\",\"0.0-37.0\",\"\",\"\",\"1-5\",\"3973\",\"39\",\"1\",\"Training\",\"Stims/Figures/71-J-0-1.bmp\",\"tapaka\",\"Right\",\"39\",\"3\",\"2\",\"1\",\"P\",\"C\",\"34\"
\"\",\"\",\"approach-retreat\",\"38\",\"373543\",\"0.0-38.0\",\"\",\"\",\"1-5\",\"4197\",\"40\",\"0\",\"Training\",\"Stims/Figures/100-C-30-3.bmp\",\"nala:na\",\"Down\",\"38\",\"3\",\"3\",\"1\",\"S\",\"C\",\"35\"
\"\",\"\",\"approach-retreat\",\"39\",\"379919\",\"0.0-39.0\",\"\",\"\",\"1-5\",\"4866\",\"38\",\"0\",\"Training\",\"Stims/Figures/27-J-0-1.bmp\",\"tapaka\",\"Down\",\"40\",\"3\",\"4\",\"1\",\"P\",\"C\",\"36\"
\"\",\"\",\"approach-retreat\",\"40\",\"386129\",\"0.0-40.0\",\"\",\"\",\"1-5\",\"4701\",\"38\",\"1\",\"Training\",\"Stims/Figures/144-J-10-3.bmp\",\"tapaka\",\"Up\",\"38\",\"3\",\"5\",\"1\",\"P\",\"C\",\"37\"
\"\",\"\",\"approach-retreat\",\"41\",\"393038\",\"0.0-41.0\",\"\",\"\",\"1-5\",\"5400\",\"37\",\"1\",\"Training\",\"Stims/Figures/94-J-0-2.bmp\",\"tapaka\",\"Left\",\"37\",\"3\",\"6\",\"1\",\"P\",\"C\",\"38\"
\"\",\"\",\"approach-retreat\",\"42\",\"398760\",\"0.0-42.0\",\"\",\"\",\"1-5\",\"4213\",\"39\",\"1\",\"Training\",\"Stims/Figures/74-C-20-4.bmp\",\"nala:na\",\"Left\",\"39\",\"3\",\"7\",\"1\",\"S\",\"C\",\"39\"
\"\",\"\",\"approach-retreat\",\"43\",\"404877\",\"0.0-43.0\",\"\",\"\",\"1-5\",\"4609\",\"38\",\"1\",\"Training\",\"Stims/Figures/94-C-20-2.bmp\",\"nala:na\",\"Down\",\"38\",\"3\",\"8\",\"1\",\"S\",\"C\",\"40\"
\"\",\"\",\"approach-retreat\",\"44\",\"410762\",\"0.0-44.0\",\"\",\"\",\"1-5\",\"4375\",\"39\",\"1\",\"Training\",\"Stims/Figures/71-C-30-1.bmp\",\"nala:na\",\"Left\",\"39\",\"3\",\"9\",\"1\",\"S\",\"C\",\"41\"
\"\",\"\",\"approach-retreat\",\"45\",\"416361\",\"0.0-45.0\",\"\",\"\",\"1-5\",\"4093\",\"40\",\"1\",\"Training\",\"Stims/Figures/27-C-30-1.bmp\",\"nala:na\",\"Up\",\"40\",\"3\",\"10\",\"1\",\"S\",\"C\",\"42\"
\"\",\"\",\"approach-retreat\",\"46\",\"421756\",\"0.0-46.0\",\"\",\"\",\"1-5\",\"3887\",\"39\",\"1\",\"Training\",\"Stims/Figures/144-C-30-3.bmp\",\"nala:na\",\"Left\",\"39\",\"3\",\"11\",\"1\",\"S\",\"C\",\"43\"
\"\",\"\",\"approach-retreat\",\"47\",\"427338\",\"0.0-47.0\",\"\",\"\",\"1-5\",\"4072\",\"38\",\"1\",\"Training\",\"Stims/Figures/84-J-0-2.bmp\",\"tapaka\",\"Up\",\"38\",\"3\",\"12\",\"1\",\"P\",\"C\",\"44\"
\"\",\"\",\"approach-retreat\",\"48\",\"433216\",\"0.0-48.0\",\"\",\"\",\"1-5\",\"4368\",\"40\",\"1\",\"Training\",\"Stims/Figures/87-J-10-4.bmp\",\"tapaka\",\"Down\",\"40\",\"3\",\"13\",\"1\",\"P\",\"C\",\"45\"
\"\",\"\",\"approach-retreat\",\"49\",\"438765\",\"0.0-49.0\",\"\",\"\",\"1-5\",\"4039\",\"39\",\"1\",\"Training\",\"Stims/Figures/100-J-10-3.bmp\",\"tapaka\",\"Right\",\"39\",\"3\",\"14\",\"1\",\"P\",\"C\",\"46\"
\"\",\"\",\"approach-retreat\",\"50\",\"444175\",\"0.0-50.0\",\"\",\"\",\"1-5\",\"3901\",\"39\",\"1\",\"Training\",\"Stims/Figures/74-J-10-4.bmp\",\"tapaka\",\"Right\",\"39\",\"3\",\"15\",\"1\",\"P\",\"C\",\"47\"
\"\",\"\",\"approach-retreat\",\"51\",\"449688\",\"0.0-51.0\",\"\",\"\",\"1-5\",\"4002\",\"39\",\"0\",\"Training\",\"Stims/Figures/84-C-20-2.bmp\",\"nala:na\",\"Right\",\"37\",\"3\",\"16\",\"1\",\"S\",\"C\",\"48\"
\"\",\"\",\"approach-retreat\",\"52\",\"455494\",\"0.0-52.0\",\"\",\"\",\"1-5\",\"4298\",\"37\",\"1\",\"Training\",\"Stims/Figures/94-C-20-2.bmp\",\"nala:na\",\"Right\",\"37\",\"4\",\"1\",\"1\",\"S\",\"C\",\"49\"
\"\",\"\",\"approach-retreat\",\"53\",\"461047\",\"0.0-53.0\",\"\",\"\",\"1-5\",\"4043\",\"39\",\"1\",\"Training\",\"Stims/Figures/27-C-30-1.bmp\",\"nala:na\",\"Left\",\"39\",\"4\",\"2\",\"1\",\"S\",\"C\",\"50\"
\"\",\"\",\"approach-retreat\",\"54\",\"466928\",\"0.0-54.0\",\"\",\"\",\"1-5\",\"4371\",\"40\",\"1\",\"Training\",\"Stims/Figures/94-J-0-2.bmp\",\"tapaka\",\"Down\",\"40\",\"4\",\"3\",\"1\",\"P\",\"C\",\"51\"
\"\",\"\",\"approach-retreat\",\"55\",\"472404\",\"0.0-55.0\",\"\",\"\",\"1-5\",\"3965\",\"40\",\"1\",\"Training\",\"Stims/Figures/74-J-10-4.bmp\",\"tapaka\",\"Down\",\"40\",\"4\",\"4\",\"1\",\"P\",\"C\",\"52\"
\"\",\"\",\"approach-retreat\",\"56\",\"477827\",\"0.0-56.0\",\"\",\"\",\"1-5\",\"3914\",\"39\",\"1\",\"Training\",\"Stims/Figures/144-J-10-3.bmp\",\"tapaka\",\"Right\",\"39\",\"4\",\"5\",\"1\",\"P\",\"C\",\"53\"
\"\",\"\",\"approach-retreat\",\"57\",\"483410\",\"0.0-57.0\",\"\",\"\",\"1-5\",\"4075\",\"38\",\"0\",\"Training\",\"Stims/Figures/144-C-30-3.bmp\",\"nala:na\",\"Up\",\"40\",\"4\",\"6\",\"1\",\"S\",\"C\",\"54\"
\"\",\"\",\"approach-retreat\",\"58\",\"489081\",\"0.0-58.0\",\"\",\"\",\"1-5\",\"4163\",\"38\",\"1\",\"Training\",\"Stims/Figures/74-C-20-4.bmp\",\"nala:na\",\"Down\",\"38\",\"4\",\"7\",\"1\",\"S\",\"C\",\"55\"
\"\",\"\",\"approach-retreat\",\"59\",\"494482\",\"0.0-59.0\",\"\",\"\",\"1-5\",\"3893\",\"39\",\"1\",\"Training\",\"Stims/Figures/100-C-30-3.bmp\",\"nala:na\",\"Left\",\"39\",\"4\",\"8\",\"1\",\"S\",\"C\",\"56\"
\"\",\"\",\"approach-retreat\",\"60\",\"499947\",\"0.0-60.0\",\"\",\"\",\"1-5\",\"3956\",\"40\",\"0\",\"Training\",\"Stims/Figures/84-J-0-2.bmp\",\"tapaka\",\"Up\",\"38\",\"4\",\"9\",\"1\",\"P\",\"C\",\"57\"
\"\",\"\",\"approach-retreat\",\"61\",\"505849\",\"0.0-61.0\",\"\",\"\",\"1-5\",\"4394\",\"40\",\"1\",\"Training\",\"Stims/Figures/84-C-20-2.bmp\",\"nala:na\",\"Up\",\"40\",\"4\",\"10\",\"1\",\"S\",\"C\",\"58\"
\"\",\"\",\"approach-retreat\",\"62\",\"511417\",\"0.0-62.0\",\"\",\"\",\"1-5\",\"4058\",\"39\",\"1\",\"Training\",\"Stims/Figures/27-J-0-1.bmp\",\"tapaka\",\"Right\",\"39\",\"4\",\"11\",\"1\",\"P\",\"C\",\"59\"
\"\",\"\",\"approach-retreat\",\"63\",\"517637\",\"0.0-63.0\",\"\",\"\",\"1-5\",\"4712\",\"37\",\"1\",\"Training\",\"Stims/Figures/87-C-20-4.bmp\",\"nala:na\",\"Right\",\"37\",\"4\",\"12\",\"1\",\"S\",\"C\",\"60\"
\"\",\"\",\"approach-retreat\",\"64\",\"523082\",\"0.0-64.0\",\"\",\"\",\"1-5\",\"3935\",\"37\",\"1\",\"Training\",\"Stims/Figures/100-J-10-3.bmp\",\"tapaka\",\"Left\",\"37\",\"4\",\"13\",\"1\",\"P\",\"C\",\"61\"
\"\",\"\",\"approach-retreat\",\"65\",\"528784\",\"0.0-65.0\",\"\",\"\",\"1-5\",\"4193\",\"40\",\"1\",\"Training\",\"Stims/Figures/71-J-0-1.bmp\",\"tapaka\",\"Down\",\"40\",\"4\",\"14\",\"1\",\"P\",\"C\",\"62\"
\"\",\"\",\"approach-retreat\",\"66\",\"535088\",\"0.0-66.0\",\"\",\"\",\"1-5\",\"4795\",\"39\",\"1\",\"Training\",\"Stims/Figures/71-C-30-1.bmp\",\"nala:na\",\"Left\",\"39\",\"4\",\"15\",\"1\",\"S\",\"C\",\"63\"
\"\",\"\",\"approach-retreat\",\"67\",\"540555\",\"0.0-67.0\",\"\",\"\",\"1-5\",\"3957\",\"38\",\"1\",\"Training\",\"Stims/Figures/87-J-10-4.bmp\",\"tapaka\",\"Up\",\"38\",\"4\",\"16\",\"1\",\"P\",\"C\",\"64\"
\"\",\"\",\"approach-retreat\",\"68\",\"546017\",\"0.0-68.0\",\"\",\"\",\"1-5\",\"3953\",\"38\",\"1\",\"Training\",\"Stims/Figures/71-J-0-1.bmp\",\"tapaka\",\"Up\",\"38\",\"5\",\"1\",\"1\",\"P\",\"C\",\"65\"
\"\",\"\",\"approach-retreat\",\"69\",\"551493\",\"0.0-69.0\",\"\",\"\",\"1-5\",\"3967\",\"37\",\"1\",\"Training\",\"Stims/Figures/84-C-20-2.bmp\",\"nala:na\",\"Right\",\"37\",\"5\",\"2\",\"1\",\"S\",\"C\",\"66\"
\"\",\"\",\"approach-retreat\",\"70\",\"557217\",\"0.0-70.0\",\"\",\"\",\"1-5\",\"4214\",\"37\",\"0\",\"Training\",\"Stims/Figures/27-J-0-1.bmp\",\"tapaka\",\"Right\",\"39\",\"5\",\"3\",\"1\",\"P\",\"C\",\"67\"
\"\",\"\",\"approach-retreat\",\"71\",\"563043\",\"0.0-71.0\",\"\",\"\",\"1-5\",\"4317\",\"39\",\"1\",\"Training\",\"Stims/Figures/100-J-10-3.bmp\",\"tapaka\",\"Right\",\"39\",\"5\",\"4\",\"1\",\"P\",\"C\",\"68\"
\"\",\"\",\"approach-retreat\",\"72\",\"569148\",\"0.0-72.0\",\"\",\"\",\"1-5\",\"4595\",\"38\",\"1\",\"Training\",\"Stims/Figures/84-J-0-2.bmp\",\"tapaka\",\"Up\",\"38\",\"5\",\"5\",\"1\",\"P\",\"C\",\"69\"
\"\",\"\",\"approach-retreat\",\"73\",\"575188\",\"0.0-73.0\",\"\",\"\",\"1-5\",\"4531\",\"40\",\"1\",\"Training\",\"Stims/Figures/94-C-20-2.bmp\",\"nala:na\",\"Up\",\"40\",\"5\",\"6\",\"1\",\"S\",\"C\",\"70\"
\"\",\"\",\"approach-retreat\",\"74\",\"580781\",\"0.0-74.0\",\"\",\"\",\"1-5\",\"4080\",\"39\",\"1\",\"Training\",\"Stims/Figures/27-C-30-1.bmp\",\"nala:na\",\"Left\",\"39\",\"5\",\"7\",\"1\",\"S\",\"C\",\"71\"
\"\",\"\",\"approach-retreat\",\"75\",\"586659\",\"0.0-75.0\",\"\",\"\",\"1-5\",\"4367\",\"39\",\"1\",\"Training\",\"Stims/Figures/144-J-10-3.bmp\",\"tapaka\",\"Right\",\"39\",\"5\",\"8\",\"1\",\"P\",\"C\",\"72\"
\"\",\"\",\"approach-retreat\",\"76\",\"592219\",\"0.0-76.0\",\"\",\"\",\"1-5\",\"4052\",\"38\",\"1\",\"Training\",\"Stims/Figures/144-C-30-3.bmp\",\"nala:na\",\"Down\",\"38\",\"5\",\"9\",\"1\",\"S\",\"C\",\"73\"
\"\",\"\",\"approach-retreat\",\"77\",\"598076\",\"0.0-77.0\",\"\",\"\",\"1-5\",\"4348\",\"39\",\"1\",\"Training\",\"Stims/Figures/87-C-20-4.bmp\",\"nala:na\",\"Left\",\"39\",\"5\",\"10\",\"1\",\"S\",\"C\",\"74\"
\"\",\"\",\"approach-retreat\",\"78\",\"604446\",\"0.0-78.0\",\"\",\"\",\"1-5\",\"4859\",\"38\",\"1\",\"Training\",\"Stims/Figures/74-C-20-4.bmp\",\"nala:na\",\"Down\",\"38\",\"5\",\"11\",\"1\",\"S\",\"C\",\"75\"
\"\",\"\",\"approach-retreat\",\"79\",\"610642\",\"0.0-79.0\",\"\",\"\",\"1-5\",\"4686\",\"39\",\"1\",\"Training\",\"Stims/Figures/100-C-30-3.bmp\",\"nala:na\",\"Left\",\"39\",\"5\",\"12\",\"1\",\"S\",\"C\",\"76\"
\"\",\"\",\"approach-retreat\",\"80\",\"616326\",\"0.0-80.0\",\"\",\"\",\"1-5\",\"4173\",\"40\",\"1\",\"Training\",\"Stims/Figures/74-J-10-4.bmp\",\"tapaka\",\"Down\",\"40\",\"5\",\"13\",\"1\",\"P\",\"C\",\"77\"
\"\",\"\",\"approach-retreat\",\"81\",\"622464\",\"0.0-81.0\",\"\",\"\",\"1-5\",\"4625\",\"40\",\"1\",\"Training\",\"Stims/Figures/87-J-10-4.bmp\",\"tapaka\",\"Down\",\"40\",\"5\",\"14\",\"1\",\"P\",\"C\",\"78\"
\"\",\"\",\"approach-retreat\",\"82\",\"628201\",\"0.0-82.0\",\"\",\"\",\"1-5\",\"4228\",\"37\",\"1\",\"Training\",\"Stims/Figures/94-J-0-2.bmp\",\"tapaka\",\"Left\",\"37\",\"5\",\"15\",\"1\",\"P\",\"C\",\"79\"
\"\",\"\",\"approach-retreat\",\"83\",\"634294\",\"0.0-83.0\",\"\",\"\",\"1-5\",\"4583\",\"40\",\"1\",\"Training\",\"Stims/Figures/71-C-30-1.bmp\",\"nala:na\",\"Up\",\"40\",\"5\",\"16\",\"1\",\"S\",\"C\",\"80\"
\"\",\"\",\"approach-retreat\",\"84\",\"640430\",\"0.0-84.0\",\"\",\"\",\"1-5\",\"4627\",\"40\",\"1\",\"Training\",\"Stims/Figures/27-J-0-1.bmp\",\"tapaka\",\"Down\",\"40\",\"6\",\"1\",\"1\",\"P\",\"C\",\"81\"
\"\",\"\",\"approach-retreat\",\"85\",\"646739\",\"0.0-85.0\",\"\",\"\",\"1-5\",\"4800\",\"40\",\"1\",\"Training\",\"Stims/Figures/84-J-0-2.bmp\",\"tapaka\",\"Down\",\"40\",\"6\",\"2\",\"1\",\"P\",\"C\",\"82\"
\"\",\"\",\"approach-retreat\",\"86\",\"653006\",\"0.0-86.0\",\"\",\"\",\"1-5\",\"4760\",\"40\",\"1\",\"Training\",\"Stims/Figures/84-C-20-2.bmp\",\"nala:na\",\"Up\",\"40\",\"6\",\"3\",\"1\",\"S\",\"C\",\"83\"
\"\",\"\",\"approach-retreat\",\"87\",\"658592\",\"0.0-87.0\",\"\",\"\",\"1-5\",\"4076\",\"40\",\"1\",\"Training\",\"Stims/Figures/144-J-10-3.bmp\",\"tapaka\",\"Down\",\"40\",\"6\",\"4\",\"1\",\"P\",\"C\",\"84\"
\"\",\"\",\"approach-retreat\",\"88\",\"664462\",\"0.0-88.0\",\"\",\"\",\"1-5\",\"4362\",\"40\",\"1\",\"Training\",\"Stims/Figures/100-C-30-3.bmp\",\"nala:na\",\"Up\",\"40\",\"6\",\"5\",\"1\",\"S\",\"C\",\"85\"
\"\",\"\",\"approach-retreat\",\"89\",\"669955\",\"0.0-89.0\",\"\",\"\",\"1-5\",\"3983\",\"39\",\"1\",\"Training\",\"Stims/Figures/27-C-30-1.bmp\",\"nala:na\",\"Left\",\"39\",\"6\",\"6\",\"1\",\"S\",\"C\",\"86\"
\"\",\"\",\"approach-retreat\",\"90\",\"675367\",\"0.0-90.0\",\"\",\"\",\"1-5\",\"3904\",\"39\",\"1\",\"Training\",\"Stims/Figures/87-J-10-4.bmp\",\"tapaka\",\"Right\",\"39\",\"6\",\"7\",\"1\",\"P\",\"C\",\"87\"
\"\",\"\",\"approach-retreat\",\"91\",\"681384\",\"0.0-91.0\",\"\",\"\",\"1-5\",\"4506\",\"38\",\"1\",\"Training\",\"Stims/Figures/94-C-20-2.bmp\",\"nala:na\",\"Down\",\"38\",\"6\",\"8\",\"1\",\"S\",\"C\",\"88\"
\"\",\"\",\"approach-retreat\",\"92\",\"687043\",\"0.0-92.0\",\"\",\"\",\"1-5\",\"4150\",\"39\",\"1\",\"Training\",\"Stims/Figures/100-J-10-3.bmp\",\"tapaka\",\"Right\",\"39\",\"6\",\"9\",\"1\",\"P\",\"C\",\"89\"
\"\",\"\",\"approach-retreat\",\"93\",\"693437\",\"0.0-93.0\",\"\",\"\",\"1-5\",\"4885\",\"39\",\"1\",\"Training\",\"Stims/Figures/74-J-10-4.bmp\",\"tapaka\",\"Right\",\"39\",\"6\",\"10\",\"1\",\"P\",\"C\",\"90\"
\"\",\"\",\"approach-retreat\",\"94\",\"699218\",\"0.0-94.0\",\"\",\"\",\"1-5\",\"4274\",\"40\",\"1\",\"Training\",\"Stims/Figures/87-C-20-4.bmp\",\"nala:na\",\"Up\",\"40\",\"6\",\"11\",\"1\",\"S\",\"C\",\"91\"
\"\",\"\",\"approach-retreat\",\"95\",\"705263\",\"0.0-95.0\",\"\",\"\",\"1-5\",\"4536\",\"37\",\"1\",\"Training\",\"Stims/Figures/71-J-0-1.bmp\",\"tapaka\",\"Left\",\"37\",\"6\",\"12\",\"1\",\"P\",\"C\",\"92\"
\"\",\"\",\"approach-retreat\",\"96\",\"711262\",\"0.0-96.0\",\"\",\"\",\"1-5\",\"4489\",\"39\",\"1\",\"Training\",\"Stims/Figures/74-C-20-4.bmp\",\"nala:na\",\"Left\",\"39\",\"6\",\"13\",\"1\",\"S\",\"C\",\"93\"
\"\",\"\",\"approach-retreat\",\"97\",\"717289\",\"0.0-97.0\",\"\",\"\",\"1-5\",\"4518\",\"40\",\"1\",\"Training\",\"Stims/Figures/144-C-30-3.bmp\",\"nala:na\",\"Up\",\"40\",\"6\",\"14\",\"1\",\"S\",\"C\",\"94\"
\"\",\"\",\"approach-retreat\",\"98\",\"722879\",\"0.0-98.0\",\"\",\"\",\"1-5\",\"4080\",\"37\",\"1\",\"Training\",\"Stims/Figures/94-J-0-2.bmp\",\"tapaka\",\"Left\",\"37\",\"6\",\"15\",\"1\",\"P\",\"C\",\"95\"
\"\",\"\",\"approach-retreat\",\"99\",\"728765\",\"0.0-99.0\",\"\",\"\",\"1-5\",\"4376\",\"37\",\"1\",\"Training\",\"Stims/Figures/71-C-30-1.bmp\",\"nala:na\",\"Right\",\"37\",\"6\",\"16\",\"1\",\"S\",\"C\",\"96\"
\"\",\"\",\"approach-retreat\",\"100\",\"734663\",\"0.0-100.0\",\"\",\"\",\"1-5\",\"4390\",\"37\",\"1\",\"Training\",\"Stims/Figures/74-J-10-4.bmp\",\"tapaka\",\"Left\",\"37\",\"7\",\"1\",\"1\",\"P\",\"C\",\"97\"
\"\",\"\",\"approach-retreat\",\"101\",\"740200\",\"0.0-101.0\",\"\",\"\",\"1-5\",\"4030\",\"39\",\"1\",\"Training\",\"Stims/Figures/27-J-0-1.bmp\",\"tapaka\",\"Right\",\"39\",\"7\",\"2\",\"1\",\"P\",\"C\",\"98\"
\"\",\"\",\"approach-retreat\",\"102\",\"745525\",\"0.0-102.0\",\"\",\"\",\"1-5\",\"3817\",\"38\",\"1\",\"Training\",\"Stims/Figures/84-J-0-2.bmp\",\"tapaka\",\"Up\",\"38\",\"7\",\"3\",\"1\",\"P\",\"C\",\"99\"
\"\",\"\",\"approach-retreat\",\"103\",\"751083\",\"0.0-103.0\",\"\",\"\",\"1-5\",\"4050\",\"38\",\"1\",\"Training\",\"Stims/Figures/27-C-30-1.bmp\",\"nala:na\",\"Down\",\"38\",\"7\",\"4\",\"1\",\"S\",\"C\",\"100\"
\"\",\"\",\"approach-retreat\",\"104\",\"756767\",\"0.0-104.0\",\"\",\"\",\"1-5\",\"4175\",\"40\",\"1\",\"Training\",\"Stims/Figures/74-C-20-4.bmp\",\"nala:na\",\"Up\",\"40\",\"7\",\"5\",\"1\",\"S\",\"C\",\"101\"
\"\",\"\",\"approach-retreat\",\"105\",\"762491\",\"0.0-105.0\",\"\",\"\",\"1-5\",\"4214\",\"37\",\"1\",\"Training\",\"Stims/Figures/100-C-30-3.bmp\",\"nala:na\",\"Right\",\"37\",\"7\",\"6\",\"1\",\"S\",\"C\",\"102\"
\"\",\"\",\"approach-retreat\",\"106\",\"768122\",\"0.0-106.0\",\"\",\"\",\"1-5\",\"4122\",\"39\",\"1\",\"Training\",\"Stims/Figures/87-C-20-4.bmp\",\"nala:na\",\"Left\",\"39\",\"7\",\"7\",\"1\",\"S\",\"C\",\"103\"
\"\",\"\",\"approach-retreat\",\"107\",\"773624\",\"0.0-107.0\",\"\",\"\",\"1-5\",\"3992\",\"38\",\"1\",\"Training\",\"Stims/Figures/71-C-30-1.bmp\",\"nala:na\",\"Down\",\"38\",\"7\",\"8\",\"1\",\"S\",\"C\",\"104\"
\"\",\"\",\"approach-retreat\",\"108\",\"779031\",\"0.0-108.0\",\"\",\"\",\"1-5\",\"3899\",\"39\",\"1\",\"Training\",\"Stims/Figures/94-C-20-2.bmp\",\"nala:na\",\"Left\",\"39\",\"7\",\"9\",\"1\",\"S\",\"C\",\"105\"
\"\",\"\",\"approach-retreat\",\"109\",\"784573\",\"0.0-109.0\",\"\",\"\",\"1-5\",\"4031\",\"39\",\"1\",\"Training\",\"Stims/Figures/94-J-0-2.bmp\",\"tapaka\",\"Right\",\"39\",\"7\",\"10\",\"1\",\"P\",\"C\",\"106\"
\"\",\"\",\"approach-retreat\",\"110\",\"790065\",\"0.0-110.0\",\"\",\"\",\"1-5\",\"3984\",\"38\",\"1\",\"Training\",\"Stims/Figures/100-J-10-3.bmp\",\"tapaka\",\"Up\",\"38\",\"7\",\"11\",\"1\",\"P\",\"C\",\"107\"
\"\",\"\",\"approach-retreat\",\"111\",\"795484\",\"0.0-111.0\",\"\",\"\",\"1-5\",\"3908\",\"38\",\"1\",\"Training\",\"Stims/Figures/71-J-0-1.bmp\",\"tapaka\",\"Up\",\"38\",\"7\",\"12\",\"1\",\"P\",\"C\",\"108\"
\"\",\"\",\"approach-retreat\",\"112\",\"801650\",\"0.0-112.0\",\"\",\"\",\"1-5\",\"4657\",\"38\",\"1\",\"Training\",\"Stims/Figures/144-C-30-3.bmp\",\"nala:na\",\"Down\",\"38\",\"7\",\"13\",\"1\",\"S\",\"C\",\"109\"
\"\",\"\",\"approach-retreat\",\"113\",\"807263\",\"0.0-113.0\",\"\",\"\",\"1-5\",\"4105\",\"37\",\"1\",\"Training\",\"Stims/Figures/87-J-10-4.bmp\",\"tapaka\",\"Left\",\"37\",\"7\",\"14\",\"1\",\"P\",\"C\",\"110\"
\"\",\"\",\"approach-retreat\",\"114\",\"813346\",\"0.0-114.0\",\"\",\"\",\"1-5\",\"4576\",\"38\",\"1\",\"Training\",\"Stims/Figures/84-C-20-2.bmp\",\"nala:na\",\"Down\",\"38\",\"7\",\"15\",\"1\",\"S\",\"C\",\"111\"
\"\",\"\",\"approach-retreat\",\"115\",\"818733\",\"0.0-115.0\",\"\",\"\",\"1-5\",\"3878\",\"39\",\"1\",\"Training\",\"Stims/Figures/144-J-10-3.bmp\",\"tapaka\",\"Right\",\"39\",\"7\",\"16\",\"1\",\"P\",\"C\",\"112\"
\"\",\"\",\"approach-retreat\",\"116\",\"824092\",\"0.0-116.0\",\"\",\"\",\"1-5\",\"3851\",\"39\",\"1\",\"Training\",\"Stims/Figures/74-J-10-4.bmp\",\"tapaka\",\"Right\",\"39\",\"8\",\"1\",\"1\",\"P\",\"C\",\"113\"
\"\",\"\",\"approach-retreat\",\"117\",\"829565\",\"0.0-117.0\",\"\",\"\",\"1-5\",\"3963\",\"37\",\"1\",\"Training\",\"Stims/Figures/144-J-10-3.bmp\",\"tapaka\",\"Left\",\"37\",\"8\",\"2\",\"1\",\"P\",\"C\",\"114\"
\"\",\"\",\"approach-retreat\",\"118\",\"835118\",\"0.0-118.0\",\"\",\"\",\"1-5\",\"4044\",\"40\",\"1\",\"Training\",\"Stims/Figures/94-J-0-2.bmp\",\"tapaka\",\"Down\",\"40\",\"8\",\"3\",\"1\",\"P\",\"C\",\"115\"
\"\",\"\",\"approach-retreat\",\"119\",\"840559\",\"0.0-119.0\",\"\",\"\",\"1-5\",\"3933\",\"39\",\"1\",\"Training\",\"Stims/Figures/71-C-30-1.bmp\",\"nala:na\",\"Left\",\"39\",\"8\",\"4\",\"1\",\"S\",\"C\",\"116\"
\"\",\"\",\"approach-retreat\",\"120\",\"846421\",\"0.0-120.0\",\"\",\"\",\"1-5\",\"4352\",\"40\",\"1\",\"Training\",\"Stims/Figures/94-C-20-2.bmp\",\"nala:na\",\"Up\",\"40\",\"8\",\"5\",\"1\",\"S\",\"C\",\"117\"
\"\",\"\",\"approach-retreat\",\"121\",\"852025\",\"0.0-121.0\",\"\",\"\",\"1-5\",\"4096\",\"37\",\"1\",\"Training\",\"Stims/Figures/87-J-10-4.bmp\",\"tapaka\",\"Left\",\"37\",\"8\",\"6\",\"1\",\"P\",\"C\",\"118\"
\"\",\"\",\"approach-retreat\",\"122\",\"857847\",\"0.0-122.0\",\"\",\"\",\"1-5\",\"4313\",\"37\",\"1\",\"Training\",\"Stims/Figures/100-J-10-3.bmp\",\"tapaka\",\"Left\",\"37\",\"8\",\"7\",\"1\",\"P\",\"C\",\"119\"
\"\",\"\",\"approach-retreat\",\"123\",\"863720\",\"0.0-123.0\",\"\",\"\",\"1-5\",\"4363\",\"38\",\"1\",\"Training\",\"Stims/Figures/144-C-30-3.bmp\",\"nala:na\",\"Down\",\"38\",\"8\",\"8\",\"1\",\"S\",\"C\",\"120\"
\"\",\"\",\"approach-retreat\",\"124\",\"869265\",\"0.0-124.0\",\"\",\"\",\"1-5\",\"4038\",\"40\",\"1\",\"Training\",\"Stims/Figures/84-J-0-2.bmp\",\"tapaka\",\"Down\",\"40\",\"8\",\"9\",\"1\",\"P\",\"C\",\"121\"
\"\",\"\",\"approach-retreat\",\"125\",\"875332\",\"0.0-125.0\",\"\",\"\",\"1-5\",\"4557\",\"37\",\"1\",\"Training\",\"Stims/Figures/100-C-30-3.bmp\",\"nala:na\",\"Right\",\"37\",\"8\",\"10\",\"1\",\"S\",\"C\",\"122\"
\"\",\"\",\"approach-retreat\",\"126\",\"881256\",\"0.0-126.0\",\"\",\"\",\"1-5\",\"4414\",\"40\",\"1\",\"Training\",\"Stims/Figures/84-C-20-2.bmp\",\"nala:na\",\"Up\",\"40\",\"8\",\"11\",\"1\",\"S\",\"C\",\"123\"
\"\",\"\",\"approach-retreat\",\"127\",\"886907\",\"0.0-127.0\",\"\",\"\",\"1-5\",\"4142\",\"40\",\"1\",\"Training\",\"Stims/Figures/27-J-0-1.bmp\",\"tapaka\",\"Down\",\"40\",\"8\",\"12\",\"1\",\"P\",\"C\",\"124\"
\"\",\"\",\"approach-retreat\",\"128\",\"893517\",\"0.0-128.0\",\"\",\"\",\"1-5\",\"5100\",\"37\",\"1\",\"Training\",\"Stims/Figures/87-C-20-4.bmp\",\"nala:na\",\"Right\",\"37\",\"8\",\"13\",\"1\",\"S\",\"C\",\"125\"
\"\",\"\",\"approach-retreat\",\"129\",\"899359\",\"0.0-129.0\",\"\",\"\",\"1-5\",\"4332\",\"37\",\"0\",\"Training\",\"Stims/Figures/71-J-0-1.bmp\",\"tapaka\",\"Right\",\"39\",\"8\",\"14\",\"1\",\"P\",\"C\",\"126\"
\"\",\"\",\"approach-retreat\",\"130\",\"905199\",\"0.0-130.0\",\"\",\"\",\"1-5\",\"4333\",\"40\",\"1\",\"Training\",\"Stims/Figures/74-C-20-4.bmp\",\"nala:na\",\"Up\",\"40\",\"8\",\"15\",\"1\",\"S\",\"C\",\"127\"
\"\",\"\",\"approach-retreat\",\"131\",\"910848\",\"0.0-131.0\",\"\",\"\",\"1-5\",\"4135\",\"40\",\"1\",\"Training\",\"Stims/Figures/27-C-30-1.bmp\",\"nala:na\",\"Up\",\"40\",\"8\",\"16\",\"1\",\"S\",\"C\",\"128\"
\"\",\"\",\"approach-retreat\",\"132\",\"916477\",\"0.0-132.0\",\"\",\"\",\"1-5\",\"4121\",\"38\",\"1\",\"Training\",\"Stims/Figures/84-C-20-2.bmp\",\"nala:na\",\"Down\",\"38\",\"9\",\"1\",\"1\",\"S\",\"C\",\"129\"
\"\",\"\",\"approach-retreat\",\"133\",\"922514\",\"0.0-133.0\",\"\",\"\",\"1-5\",\"4531\",\"40\",\"1\",\"Training\",\"Stims/Figures/87-C-20-4.bmp\",\"nala:na\",\"Up\",\"40\",\"9\",\"2\",\"1\",\"S\",\"C\",\"130\"
\"\",\"\",\"approach-retreat\",\"134\",\"928029\",\"0.0-134.0\",\"\",\"\",\"1-5\",\"4006\",\"40\",\"1\",\"Training\",\"Stims/Figures/84-J-0-2.bmp\",\"tapaka\",\"Down\",\"40\",\"9\",\"3\",\"1\",\"P\",\"C\",\"131\"
\"\",\"\",\"approach-retreat\",\"135\",\"933533\",\"0.0-135.0\",\"\",\"\",\"1-5\",\"3995\",\"40\",\"1\",\"Training\",\"Stims/Figures/144-C-30-3.bmp\",\"nala:na\",\"Up\",\"40\",\"9\",\"4\",\"1\",\"S\",\"C\",\"132\"
\"\",\"\",\"approach-retreat\",\"136\",\"939478\",\"0.0-136.0\",\"\",\"\",\"1-5\",\"4438\",\"38\",\"1\",\"Training\",\"Stims/Figures/100-J-10-3.bmp\",\"tapaka\",\"Up\",\"38\",\"9\",\"5\",\"1\",\"P\",\"C\",\"133\"
\"\",\"\",\"approach-retreat\",\"137\",\"945065\",\"0.0-137.0\",\"\",\"\",\"1-5\",\"4076\",\"37\",\"1\",\"Training\",\"Stims/Figures/71-C-30-1.bmp\",\"nala:na\",\"Right\",\"37\",\"9\",\"6\",\"1\",\"S\",\"C\",\"134\"
\"\",\"\",\"approach-retreat\",\"138\",\"950664\",\"0.0-138.0\",\"\",\"\",\"1-5\",\"4091\",\"40\",\"1\",\"Training\",\"Stims/Figures/144-J-10-3.bmp\",\"tapaka\",\"Down\",\"40\",\"9\",\"7\",\"1\",\"P\",\"C\",\"135\"
\"\",\"\",\"approach-retreat\",\"139\",\"956763\",\"0.0-139.0\",\"\",\"\",\"1-5\",\"4590\",\"37\",\"1\",\"Training\",\"Stims/Figures/94-J-0-2.bmp\",\"tapaka\",\"Left\",\"37\",\"9\",\"8\",\"1\",\"P\",\"C\",\"136\"
\"\",\"\",\"approach-retreat\",\"140\",\"962399\",\"0.0-140.0\",\"\",\"\",\"1-5\",\"4126\",\"39\",\"1\",\"Training\",\"Stims/Figures/87-J-10-4.bmp\",\"tapaka\",\"Right\",\"39\",\"9\",\"9\",\"1\",\"P\",\"C\",\"137\"
\"\",\"\",\"approach-retreat\",\"141\",\"968526\",\"0.0-141.0\",\"\",\"\",\"1-5\",\"4618\",\"37\",\"1\",\"Training\",\"Stims/Figures/27-J-0-1.bmp\",\"tapaka\",\"Left\",\"37\",\"9\",\"10\",\"1\",\"P\",\"C\",\"138\"
\"\",\"\",\"approach-retreat\",\"142\",\"974695\",\"0.0-142.0\",\"\",\"\",\"1-5\",\"4660\",\"37\",\"1\",\"Training\",\"Stims/Figures/94-C-20-2.bmp\",\"nala:na\",\"Right\",\"37\",\"9\",\"11\",\"1\",\"S\",\"C\",\"139\"
\"\",\"\",\"approach-retreat\",\"143\",\"980310\",\"0.0-143.0\",\"\",\"\",\"1-5\",\"4106\",\"40\",\"1\",\"Training\",\"Stims/Figures/74-J-10-4.bmp\",\"tapaka\",\"Down\",\"40\",\"9\",\"12\",\"1\",\"P\",\"C\",\"140\"
\"\",\"\",\"approach-retreat\",\"144\",\"986671\",\"0.0-144.0\",\"\",\"\",\"1-5\",\"4852\",\"39\",\"1\",\"Training\",\"Stims/Figures/27-C-30-1.bmp\",\"nala:na\",\"Left\",\"39\",\"9\",\"13\",\"1\",\"S\",\"C\",\"141\"
\"\",\"\",\"approach-retreat\",\"145\",\"992679\",\"0.0-145.0\",\"\",\"\",\"1-5\",\"4499\",\"37\",\"1\",\"Training\",\"Stims/Figures/100-C-30-3.bmp\",\"nala:na\",\"Right\",\"37\",\"9\",\"14\",\"1\",\"S\",\"C\",\"142\"
\"\",\"\",\"approach-retreat\",\"146\",\"998397\",\"0.0-146.0\",\"\",\"\",\"1-5\",\"4209\",\"39\",\"1\",\"Training\",\"Stims/Figures/74-C-20-4.bmp\",\"nala:na\",\"Left\",\"39\",\"9\",\"15\",\"1\",\"S\",\"C\",\"143\"
\"\",\"\",\"approach-retreat\",\"147\",\"1003873\",\"0.0-147.0\",\"\",\"\",\"1-5\",\"3966\",\"38\",\"1\",\"Training\",\"Stims/Figures/71-J-0-1.bmp\",\"tapaka\",\"Up\",\"38\",\"9\",\"16\",\"1\",\"P\",\"C\",\"144\"
\"67462\",\"\",\"instructions\",\"148\",\"1071335\",\"0.0-148.0\",\"[{\"\"page_index\"\":0,\"\"viewing_time\"\":67461}]\",\"\",\"\",\"\",\"\",\"\",\"\",\"\",\"\",\"\",\"\",\"\",\"\",\"\",\"\",\"\",\"\"
\"\",\"\",\"approach-retreat\",\"149\",\"1077781\",\"0.0-149.0\",\"\",\"\",\"1-5\",\"4937\",\"40\",\"0\",\"Testing\",\"Stims/Figures/94-J-0-2.bmp\",\"tapaka\",\"Up\",\"38\",\"1\",\"1\",\"1\",\"P\",\"C\",\"1\"
\"\",\"\",\"approach-retreat\",\"150\",\"1084280\",\"0.0-150.0\",\"\",\"\",\"1-5\",\"4991\",\"40\",\"1\",\"Testing\",\"Stims/Figures/85-J-0-2.bmp\",\"tapaka\",\"Down\",\"40\",\"1\",\"2\",\"1\",\"P\",\"C\",\"2\"
\"\",\"\",\"approach-retreat\",\"151\",\"1091757\",\"0.0-151.0\",\"\",\"\",\"1-5\",\"5970\",\"40\",\"0\",\"Testing\",\"Stims/Figures/7-J-10-4.bmp\",\"tapaka\",\"Up\",\"38\",\"1\",\"3\",\"1\",\"P\",\"C\",\"3\"
\"\",\"\",\"approach-retreat\",\"152\",\"1098893\",\"0.0-152.0\",\"\",\"\",\"1-5\",\"5627\",\"40\",\"0\",\"Testing\",\"Stims/Figures/71-C-30-1.bmp\",\"nala:na\",\"Down\",\"38\",\"1\",\"4\",\"1\",\"S\",\"C\",\"4\"
\"\",\"\",\"approach-retreat\",\"153\",\"1112676\",\"0.0-153.0\",\"\",\"\",\"1-5\",\"12276\",\"38\",\"1\",\"Testing\",\"Stims/Figures/144-J-10-3.bmp\",\"tapaka\",\"Up\",\"38\",\"1\",\"5\",\"1\",\"P\",\"C\",\"5\"
\"\",\"\",\"approach-retreat\",\"154\",\"1118383\",\"0.0-154.0\",\"\",\"\",\"1-5\",\"4199\",\"39\",\"1\",\"Testing\",\"Stims/Figures/27-J-0-1.bmp\",\"tapaka\",\"Right\",\"39\",\"1\",\"6\",\"1\",\"P\",\"C\",\"6\"
\"\",\"\",\"approach-retreat\",\"155\",\"1124073\",\"0.0-155.0\",\"\",\"\",\"1-5\",\"4184\",\"40\",\"1\",\"Testing\",\"Stims/Figures/87-C-20-4.bmp\",\"nala:na\",\"Up\",\"40\",\"1\",\"7\",\"1\",\"S\",\"C\",\"7\"
\"\",\"\",\"approach-retreat\",\"156\",\"1134664\",\"0.0-156.0\",\"\",\"\",\"1-5\",\"9084\",\"38\",\"1\",\"Testing\",\"Stims/Figures/74-C-20-4.bmp\",\"nala:na\",\"Down\",\"38\",\"1\",\"8\",\"1\",\"S\",\"C\",\"8\"
\"\",\"\",\"approach-retreat\",\"157\",\"1141050\",\"0.0-157.0\",\"\",\"\",\"1-5\",\"4880\",\"38\",\"1\",\"Testing\",\"Stims/Figures/74-J-10-4.bmp\",\"tapaka\",\"Up\",\"38\",\"1\",\"9\",\"1\",\"P\",\"C\",\"9\"
\"\",\"\",\"approach-retreat\",\"158\",\"1147583\",\"0.0-158.0\",\"\",\"\",\"1-5\",\"5024\",\"37\",\"0\",\"Testing\",\"Stims/Figures/7-C-20-4.bmp\",\"nala:na\",\"Left\",\"39\",\"1\",\"10\",\"1\",\"S\",\"C\",\"10\"
\"\",\"\",\"approach-retreat\",\"159\",\"1153595\",\"0.0-159.0\",\"\",\"\",\"1-5\",\"4505\",\"38\",\"1\",\"Testing\",\"Stims/Figures/27-C-30-1.bmp\",\"nala:na\",\"Down\",\"38\",\"1\",\"11\",\"1\",\"S\",\"C\",\"11\"
\"\",\"\",\"approach-retreat\",\"160\",\"1159601\",\"0.0-160.0\",\"\",\"\",\"1-5\",\"4498\",\"40\",\"1\",\"Testing\",\"Stims/Figures/128-C-30-3.bmp\",\"nala:na\",\"Up\",\"40\",\"1\",\"12\",\"1\",\"S\",\"C\",\"12\"
\"\",\"\",\"approach-retreat\",\"161\",\"1165199\",\"0.0-161.0\",\"\",\"\",\"1-5\",\"4093\",\"37\",\"1\",\"Testing\",\"Stims/Figures/84-J-0-2.bmp\",\"tapaka\",\"Left\",\"37\",\"1\",\"13\",\"1\",\"P\",\"C\",\"13\"
\"\",\"\",\"approach-retreat\",\"162\",\"1170788\",\"0.0-162.0\",\"\",\"\",\"1-5\",\"4082\",\"39\",\"1\",\"Testing\",\"Stims/Figures/71-J-0-1.bmp\",\"tapaka\",\"Right\",\"39\",\"1\",\"14\",\"1\",\"P\",\"C\",\"14\"
\"\",\"\",\"approach-retreat\",\"163\",\"1177168\",\"0.0-163.0\",\"\",\"\",\"1-5\",\"4874\",\"39\",\"1\",\"Testing\",\"Stims/Figures/128-J-10-3.bmp\",\"tapaka\",\"Right\",\"39\",\"1\",\"15\",\"1\",\"P\",\"C\",\"15\"
\"\",\"\",\"approach-retreat\",\"164\",\"1182902\",\"0.0-164.0\",\"\",\"\",\"1-5\",\"4227\",\"39\",\"1\",\"Testing\",\"Stims/Figures/86-J-0-1.bmp\",\"tapaka\",\"Right\",\"39\",\"1\",\"16\",\"1\",\"P\",\"C\",\"16\"
\"\",\"\",\"approach-retreat\",\"165\",\"1188534\",\"0.0-165.0\",\"\",\"\",\"1-5\",\"4121\",\"39\",\"1\",\"Testing\",\"Stims/Figures/100-C-30-3.bmp\",\"nala:na\",\"Left\",\"39\",\"1\",\"17\",\"1\",\"S\",\"C\",\"17\"
\"\",\"\",\"approach-retreat\",\"166\",\"1194439\",\"0.0-166.0\",\"\",\"\",\"1-5\",\"4396\",\"40\",\"1\",\"Testing\",\"Stims/Figures/100-J-10-3.bmp\",\"tapaka\",\"Down\",\"40\",\"1\",\"18\",\"1\",\"P\",\"C\",\"18\"
\"\",\"\",\"approach-retreat\",\"167\",\"1200546\",\"0.0-167.0\",\"\",\"\",\"1-5\",\"4593\",\"37\",\"0\",\"Testing\",\"Stims/Figures/84-C-20-2.bmp\",\"nala:na\",\"Left\",\"39\",\"1\",\"19\",\"1\",\"S\",\"C\",\"19\"
\"\",\"\",\"approach-retreat\",\"168\",\"1206147\",\"0.0-168.0\",\"\",\"\",\"1-5\",\"4094\",\"37\",\"1\",\"Testing\",\"Stims/Figures/144-C-30-3.bmp\",\"nala:na\",\"Right\",\"37\",\"1\",\"20\",\"1\",\"S\",\"C\",\"20\"
\"\",\"\",\"approach-retreat\",\"169\",\"1213885\",\"0.0-169.0\",\"\",\"\",\"1-5\",\"6231\",\"39\",\"1\",\"Testing\",\"Stims/Figures/87-J-10-4.bmp\",\"tapaka\",\"Right\",\"39\",\"1\",\"21\",\"1\",\"P\",\"C\",\"21\"
\"\",\"\",\"approach-retreat\",\"170\",\"1219474\",\"0.0-170.0\",\"\",\"\",\"1-5\",\"4081\",\"39\",\"1\",\"Testing\",\"Stims/Figures/85-C-20-2.bmp\",\"nala:na\",\"Left\",\"39\",\"1\",\"22\",\"1\",\"S\",\"C\",\"22\"
\"\",\"\",\"approach-retreat\",\"171\",\"1225618\",\"0.0-171.0\",\"\",\"\",\"1-5\",\"4637\",\"38\",\"1\",\"Testing\",\"Stims/Figures/86-C-30-1.bmp\",\"nala:na\",\"Down\",\"38\",\"1\",\"23\",\"1\",\"S\",\"C\",\"23\"
\"\",\"\",\"approach-retreat\",\"172\",\"1231228\",\"0.0-172.0\",\"\",\"\",\"1-5\",\"4102\",\"39\",\"1\",\"Testing\",\"Stims/Figures/94-C-20-2.bmp\",\"nala:na\",\"Left\",\"39\",\"1\",\"24\",\"1\",\"S\",\"C\",\"24\"
\"\",\"\",\"approach-retreat\",\"173\",\"1238506\",\"0.0-173.0\",\"\",\"\",\"1-5\",\"5771\",\"40\",\"1\",\"Testing\",\"Stims/Figures/94-J-0-2.bmp\",\"tapaka\",\"Down\",\"40\",\"2\",\"1\",\"1\",\"P\",\"C\",\"25\"
\"\",\"\",\"approach-retreat\",\"174\",\"1244869\",\"0.0-174.0\",\"\",\"\",\"1-5\",\"4856\",\"38\",\"1\",\"Testing\",\"Stims/Figures/100-J-10-3.bmp\",\"tapaka\",\"Up\",\"38\",\"2\",\"2\",\"1\",\"P\",\"C\",\"26\"
\"\",\"\",\"approach-retreat\",\"175\",\"1252414\",\"0.0-175.0\",\"\",\"\",\"1-5\",\"6038\",\"38\",\"0\",\"Testing\",\"Stims/Figures/74-C-20-4.bmp\",\"nala:na\",\"Up\",\"40\",\"2\",\"3\",\"1\",\"S\",\"C\",\"27\"
\"\",\"\",\"approach-retreat\",\"176\",\"1257967\",\"0.0-176.0\",\"\",\"\",\"1-5\",\"4044\",\"39\",\"1\",\"Testing\",\"Stims/Figures/85-J-0-2.bmp\",\"tapaka\",\"Right\",\"39\",\"2\",\"4\",\"1\",\"P\",\"C\",\"28\"
\"\",\"\",\"approach-retreat\",\"177\",\"1263486\",\"0.0-177.0\",\"\",\"\",\"1-5\",\"4013\",\"39\",\"1\",\"Testing\",\"Stims/Figures/27-J-0-1.bmp\",\"tapaka\",\"Right\",\"39\",\"2\",\"5\",\"1\",\"P\",\"C\",\"29\"
\"\",\"\",\"approach-retreat\",\"178\",\"1269624\",\"0.0-178.0\",\"\",\"\",\"1-5\",\"4631\",\"37\",\"1\",\"Testing\",\"Stims/Figures/87-J-10-4.bmp\",\"tapaka\",\"Left\",\"37\",\"2\",\"6\",\"1\",\"P\",\"C\",\"30\"
\"\",\"\",\"approach-retreat\",\"179\",\"1275193\",\"0.0-179.0\",\"\",\"\",\"1-5\",\"4063\",\"37\",\"1\",\"Testing\",\"Stims/Figures/86-J-0-1.bmp\",\"tapaka\",\"Left\",\"37\",\"2\",\"7\",\"1\",\"P\",\"C\",\"31\"
\"\",\"\",\"approach-retreat\",\"180\",\"1280782\",\"0.0-180.0\",\"\",\"\",\"1-5\",\"4082\",\"38\",\"1\",\"Testing\",\"Stims/Figures/128-C-30-3.bmp\",\"nala:na\",\"Down\",\"38\",\"2\",\"8\",\"1\",\"S\",\"C\",\"32\"
\"\",\"\",\"approach-retreat\",\"181\",\"1289513\",\"0.0-181.0\",\"\",\"\",\"1-5\",\"7224\",\"39\",\"1\",\"Testing\",\"Stims/Figures/71-C-30-1.bmp\",\"nala:na\",\"Left\",\"39\",\"2\",\"9\",\"1\",\"S\",\"C\",\"33\"
\"\",\"\",\"approach-retreat\",\"182\",\"1295447\",\"0.0-182.0\",\"\",\"\",\"1-5\",\"4426\",\"38\",\"0\",\"Testing\",\"Stims/Figures/87-C-20-4.bmp\",\"nala:na\",\"Up\",\"40\",\"2\",\"10\",\"1\",\"S\",\"C\",\"34\"
\"\",\"\",\"approach-retreat\",\"183\",\"1301947\",\"0.0-183.0\",\"\",\"\",\"1-5\",\"4994\",\"40\",\"0\",\"Testing\",\"Stims/Figures/144-C-30-3.bmp\",\"nala:na\",\"Down\",\"38\",\"2\",\"11\",\"1\",\"S\",\"C\",\"35\"
\"\",\"\",\"approach-retreat\",\"184\",\"1307842\",\"0.0-184.0\",\"\",\"\",\"1-5\",\"4387\",\"37\",\"1\",\"Testing\",\"Stims/Figures/86-C-30-1.bmp\",\"nala:na\",\"Right\",\"37\",\"2\",\"12\",\"1\",\"S\",\"C\",\"36\"
\"\",\"\",\"approach-retreat\",\"185\",\"1314392\",\"0.0-185.0\",\"\",\"\",\"1-5\",\"5044\",\"39\",\"0\",\"Testing\",\"Stims/Figures/7-C-20-4.bmp\",\"nala:na\",\"Right\",\"37\",\"2\",\"13\",\"1\",\"S\",\"C\",\"37\"
\"\",\"\",\"approach-retreat\",\"186\",\"1321004\",\"0.0-186.0\",\"\",\"\",\"1-5\",\"5109\",\"40\",\"0\",\"Testing\",\"Stims/Figures/27-C-30-1.bmp\",\"nala:na\",\"Down\",\"38\",\"2\",\"14\",\"1\",\"S\",\"C\",\"38\"
\"\",\"\",\"approach-retreat\",\"187\",\"1327992\",\"0.0-187.0\",\"\",\"\",\"1-5\",\"5481\",\"40\",\"1\",\"Testing\",\"Stims/Figures/94-C-20-2.bmp\",\"nala:na\",\"Up\",\"40\",\"2\",\"15\",\"1\",\"S\",\"C\",\"39\"
\"\",\"\",\"approach-retreat\",\"188\",\"1334250\",\"0.0-188.0\",\"\",\"\",\"1-5\",\"4751\",\"37\",\"0\",\"Testing\",\"Stims/Figures/85-C-20-2.bmp\",\"nala:na\",\"Left\",\"39\",\"2\",\"16\",\"1\",\"S\",\"C\",\"40\"
\"\",\"\",\"approach-retreat\",\"189\",\"1340570\",\"0.0-189.0\",\"\",\"\",\"1-5\",\"4811\",\"40\",\"1\",\"Testing\",\"Stims/Figures/74-J-10-4.bmp\",\"tapaka\",\"Down\",\"40\",\"2\",\"17\",\"1\",\"P\",\"C\",\"41\"
\"\",\"\",\"approach-retreat\",\"190\",\"1346130\",\"0.0-190.0\",\"\",\"\",\"1-5\",\"4055\",\"37\",\"1\",\"Testing\",\"Stims/Figures/7-J-10-4.bmp\",\"tapaka\",\"Left\",\"37\",\"2\",\"18\",\"1\",\"P\",\"C\",\"42\"
\"\",\"\",\"approach-retreat\",\"191\",\"1351516\",\"0.0-191.0\",\"\",\"\",\"1-5\",\"3878\",\"38\",\"0\",\"Testing\",\"Stims/Figures/84-C-20-2.bmp\",\"nala:na\",\"Up\",\"40\",\"2\",\"19\",\"1\",\"S\",\"C\",\"43\"
\"\",\"\",\"approach-retreat\",\"192\",\"1357373\",\"0.0-192.0\",\"\",\"\",\"1-5\",\"4350\",\"39\",\"1\",\"Testing\",\"Stims/Figures/128-J-10-3.bmp\",\"tapaka\",\"Right\",\"39\",\"2\",\"20\",\"1\",\"P\",\"C\",\"44\"
\"\",\"\",\"approach-retreat\",\"193\",\"1363267\",\"0.0-193.0\",\"\",\"\",\"1-5\",\"4386\",\"37\",\"1\",\"Testing\",\"Stims/Figures/144-J-10-3.bmp\",\"tapaka\",\"Left\",\"37\",\"2\",\"21\",\"1\",\"P\",\"C\",\"45\"
\"\",\"\",\"approach-retreat\",\"194\",\"1368783\",\"0.0-194.0\",\"\",\"\",\"1-5\",\"4008\",\"40\",\"1\",\"Testing\",\"Stims/Figures/100-C-30-3.bmp\",\"nala:na\",\"Up\",\"40\",\"2\",\"22\",\"1\",\"S\",\"C\",\"46\"
\"\",\"\",\"approach-retreat\",\"195\",\"1375033\",\"0.0-195.0\",\"\",\"\",\"1-5\",\"4742\",\"40\",\"1\",\"Testing\",\"Stims/Figures/71-J-0-1.bmp\",\"tapaka\",\"Down\",\"40\",\"2\",\"23\",\"1\",\"P\",\"C\",\"47\"
\"\",\"\",\"approach-retreat\",\"196\",\"1381170\",\"0.0-196.0\",\"\",\"\",\"1-5\",\"4630\",\"39\",\"1\",\"Testing\",\"Stims/Figures/84-J-0-2.bmp\",\"tapaka\",\"Right\",\"39\",\"2\",\"24\",\"1\",\"P\",\"C\",\"48\"
\"\",\"\",\"approach-retreat\",\"197\",\"1387873\",\"0.0-197.0\",\"\",\"\",\"1-5\",\"5195\",\"37\",\"1\",\"Testing\",\"Stims/Figures/71-C-30-1.bmp\",\"nala:na\",\"Right\",\"37\",\"3\",\"1\",\"1\",\"S\",\"C\",\"49\"
\"\",\"\",\"approach-retreat\",\"198\",\"1393788\",\"0.0-198.0\",\"\",\"\",\"1-5\",\"4407\",\"39\",\"1\",\"Testing\",\"Stims/Figures/85-C-20-2.bmp\",\"nala:na\",\"Left\",\"39\",\"3\",\"2\",\"1\",\"S\",\"C\",\"50\"
\"\",\"\",\"approach-retreat\",\"199\",\"1400655\",\"0.0-199.0\",\"\",\"\",\"1-5\",\"5360\",\"37\",\"0\",\"Testing\",\"Stims/Figures/74-C-20-4.bmp\",\"nala:na\",\"Left\",\"39\",\"3\",\"3\",\"1\",\"S\",\"C\",\"51\"
\"\",\"\",\"approach-retreat\",\"200\",\"1407564\",\"0.0-200.0\",\"\",\"\",\"1-5\",\"5401\",\"37\",\"1\",\"Testing\",\"Stims/Figures/94-C-20-2.bmp\",\"nala:na\",\"Right\",\"37\",\"3\",\"4\",\"1\",\"S\",\"C\",\"52\"
\"\",\"\",\"approach-retreat\",\"201\",\"1415229\",\"0.0-201.0\",\"\",\"\",\"1-5\",\"6158\",\"38\",\"0\",\"Testing\",\"Stims/Figures/7-C-20-4.bmp\",\"nala:na\",\"Up\",\"40\",\"3\",\"5\",\"1\",\"S\",\"C\",\"53\"
\"\",\"\",\"approach-retreat\",\"202\",\"1421531\",\"0.0-202.0\",\"\",\"\",\"1-5\",\"4793\",\"38\",\"1\",\"Testing\",\"Stims/Figures/94-J-0-2.bmp\",\"tapaka\",\"Up\",\"38\",\"3\",\"6\",\"1\",\"P\",\"C\",\"54\"
\"\",\"\",\"approach-retreat\",\"203\",\"1428163\",\"0.0-203.0\",\"\",\"\",\"1-5\",\"5123\",\"38\",\"1\",\"Testing\",\"Stims/Figures/100-C-30-3.bmp\",\"nala:na\",\"Down\",\"38\",\"3\",\"7\",\"1\",\"S\",\"C\",\"55\"
\"\",\"\",\"approach-retreat\",\"204\",\"1435041\",\"0.0-204.0\",\"\",\"\",\"1-5\",\"5370\",\"40\",\"1\",\"Testing\",\"Stims/Figures/86-J-0-1.bmp\",\"tapaka\",\"Down\",\"40\",\"3\",\"8\",\"1\",\"P\",\"C\",\"56\"
\"\",\"\",\"approach-retreat\",\"205\",\"1440702\",\"0.0-205.0\",\"\",\"\",\"1-5\",\"4155\",\"38\",\"1\",\"Testing\",\"Stims/Figures/71-J-0-1.bmp\",\"tapaka\",\"Up\",\"38\",\"3\",\"9\",\"1\",\"P\",\"C\",\"57\"
\"\",\"\",\"approach-retreat\",\"206\",\"1447486\",\"0.0-206.0\",\"\",\"\",\"1-5\",\"5279\",\"40\",\"1\",\"Testing\",\"Stims/Figures/144-J-10-3.bmp\",\"tapaka\",\"Down\",\"40\",\"3\",\"10\",\"1\",\"P\",\"C\",\"58\"
\"\",\"\",\"approach-retreat\",\"207\",\"1453140\",\"0.0-207.0\",\"\",\"\",\"1-5\",\"4146\",\"37\",\"1\",\"Testing\",\"Stims/Figures/87-J-10-4.bmp\",\"tapaka\",\"Left\",\"37\",\"3\",\"11\",\"1\",\"P\",\"C\",\"59\"
\"\",\"\",\"approach-retreat\",\"208\",\"1458763\",\"0.0-208.0\",\"\",\"\",\"1-5\",\"4117\",\"37\",\"0\",\"Testing\",\"Stims/Figures/84-C-20-2.bmp\",\"nala:na\",\"Left\",\"39\",\"3\",\"12\",\"1\",\"S\",\"C\",\"60\"
\"\",\"\",\"approach-retreat\",\"209\",\"1464840\",\"0.0-209.0\",\"\",\"\",\"1-5\",\"4571\",\"40\",\"1\",\"Testing\",\"Stims/Figures/84-J-0-2.bmp\",\"tapaka\",\"Down\",\"40\",\"3\",\"13\",\"1\",\"P\",\"C\",\"61\"
\"\",\"\",\"approach-retreat\",\"210\",\"1472571\",\"0.0-210.0\",\"\",\"\",\"1-5\",\"6223\",\"40\",\"1\",\"Testing\",\"Stims/Figures/144-C-30-3.bmp\",\"nala:na\",\"Up\",\"40\",\"3\",\"14\",\"1\",\"S\",\"C\",\"62\"
\"\",\"\",\"approach-retreat\",\"211\",\"1478944\",\"0.0-211.0\",\"\",\"\",\"1-5\",\"4864\",\"37\",\"1\",\"Testing\",\"Stims/Figures/100-J-10-3.bmp\",\"tapaka\",\"Left\",\"37\",\"3\",\"15\",\"1\",\"P\",\"C\",\"63\"
\"\",\"\",\"approach-retreat\",\"212\",\"1484428\",\"0.0-212.0\",\"\",\"\",\"1-5\",\"3976\",\"39\",\"1\",\"Testing\",\"Stims/Figures/74-J-10-4.bmp\",\"tapaka\",\"Right\",\"39\",\"3\",\"16\",\"1\",\"P\",\"C\",\"64\"
\"\",\"\",\"approach-retreat\",\"213\",\"1491183\",\"0.0-213.0\",\"\",\"\",\"1-5\",\"5249\",\"37\",\"1\",\"Testing\",\"Stims/Figures/86-C-30-1.bmp\",\"nala:na\",\"Right\",\"37\",\"3\",\"17\",\"1\",\"S\",\"C\",\"65\"
\"\",\"\",\"approach-retreat\",\"214\",\"1496847\",\"0.0-214.0\",\"\",\"\",\"1-5\",\"4156\",\"37\",\"1\",\"Testing\",\"Stims/Figures/85-J-0-2.bmp\",\"tapaka\",\"Left\",\"37\",\"3\",\"18\",\"1\",\"P\",\"C\",\"66\"
\"\",\"\",\"approach-retreat\",\"215\",\"1502916\",\"0.0-215.0\",\"\",\"\",\"1-5\",\"4561\",\"38\",\"1\",\"Testing\",\"Stims/Figures/7-J-10-4.bmp\",\"tapaka\",\"Up\",\"38\",\"3\",\"19\",\"1\",\"P\",\"C\",\"67\"
\"\",\"\",\"approach-retreat\",\"216\",\"1508601\",\"0.0-216.0\",\"\",\"\",\"1-5\",\"4179\",\"37\",\"1\",\"Testing\",\"Stims/Figures/87-C-20-4.bmp\",\"nala:na\",\"Right\",\"37\",\"3\",\"20\",\"1\",\"S\",\"C\",\"68\"
\"\",\"\",\"approach-retreat\",\"217\",\"1514438\",\"0.0-217.0\",\"\",\"\",\"1-5\",\"4331\",\"40\",\"0\",\"Testing\",\"Stims/Figures/27-J-0-1.bmp\",\"tapaka\",\"Up\",\"38\",\"3\",\"21\",\"1\",\"P\",\"C\",\"69\"
\"\",\"\",\"approach-retreat\",\"218\",\"1520072\",\"0.0-218.0\",\"\",\"\",\"1-5\",\"4125\",\"37\",\"0\",\"Testing\",\"Stims/Figures/128-J-10-3.bmp\",\"tapaka\",\"Right\",\"39\",\"3\",\"22\",\"1\",\"P\",\"C\",\"70\"
\"\",\"\",\"approach-retreat\",\"219\",\"1525604\",\"0.0-219.0\",\"\",\"\",\"1-5\",\"4025\",\"38\",\"1\",\"Testing\",\"Stims/Figures/27-C-30-1.bmp\",\"nala:na\",\"Down\",\"38\",\"3\",\"23\",\"1\",\"S\",\"C\",\"71\"
\"\",\"\",\"approach-retreat\",\"220\",\"1532526\",\"0.0-220.0\",\"\",\"\",\"1-5\",\"5413\",\"38\",\"1\",\"Testing\",\"Stims/Figures/128-C-30-3.bmp\",\"nala:na\",\"Down\",\"38\",\"3\",\"24\",\"1\",\"S\",\"C\",\"72\"
\"\",\"\",\"approach-retreat\",\"221\",\"1537925\",\"0.0-221.0\",\"\",\"\",\"1-5\",\"3891\",\"39\",\"1\",\"Testing\",\"Stims/Figures/84-J-0-2.bmp\",\"tapaka\",\"Right\",\"39\",\"4\",\"1\",\"1\",\"P\",\"C\",\"73\"
\"\",\"\",\"approach-retreat\",\"222\",\"1543922\",\"0.0-222.0\",\"\",\"\",\"1-5\",\"4491\",\"39\",\"1\",\"Testing\",\"Stims/Figures/144-J-10-3.bmp\",\"tapaka\",\"Right\",\"39\",\"4\",\"2\",\"1\",\"P\",\"C\",\"74\"
\"\",\"\",\"approach-retreat\",\"223\",\"1549760\",\"0.0-223.0\",\"\",\"\",\"1-5\",\"4332\",\"38\",\"1\",\"Testing\",\"Stims/Figures/94-J-0-2.bmp\",\"tapaka\",\"Up\",\"38\",\"4\",\"3\",\"1\",\"P\",\"C\",\"75\"
\"\",\"\",\"approach-retreat\",\"224\",\"1555628\",\"0.0-224.0\",\"\",\"\",\"1-5\",\"4360\",\"38\",\"1\",\"Testing\",\"Stims/Figures/87-C-20-4.bmp\",\"nala:na\",\"Down\",\"38\",\"4\",\"4\",\"1\",\"S\",\"C\",\"76\"
\"\",\"\",\"approach-retreat\",\"225\",\"1561731\",\"0.0-225.0\",\"\",\"\",\"1-5\",\"4597\",\"37\",\"1\",\"Testing\",\"Stims/Figures/94-C-20-2.bmp\",\"nala:na\",\"Right\",\"37\",\"4\",\"5\",\"1\",\"S\",\"C\",\"77\"
\"\",\"\",\"approach-retreat\",\"226\",\"1568161\",\"0.0-226.0\",\"\",\"\",\"1-5\",\"4923\",\"40\",\"1\",\"Testing\",\"Stims/Figures/128-C-30-3.bmp\",\"nala:na\",\"Up\",\"40\",\"4\",\"6\",\"1\",\"S\",\"C\",\"78\"
\"\",\"\",\"approach-retreat\",\"227\",\"1573896\",\"0.0-227.0\",\"\",\"\",\"1-5\",\"4229\",\"38\",\"1\",\"Testing\",\"Stims/Figures/86-C-30-1.bmp\",\"nala:na\",\"Down\",\"38\",\"4\",\"7\",\"1\",\"S\",\"C\",\"79\"
\"\",\"\",\"approach-retreat\",\"228\",\"1579642\",\"0.0-228.0\",\"\",\"\",\"1-5\",\"4237\",\"40\",\"1\",\"Testing\",\"Stims/Figures/144-C-30-3.bmp\",\"nala:na\",\"Up\",\"40\",\"4\",\"8\",\"1\",\"S\",\"C\",\"80\"
\"\",\"\",\"approach-retreat\",\"229\",\"1586209\",\"0.0-229.0\",\"\",\"\",\"1-5\",\"5060\",\"38\",\"0\",\"Testing\",\"Stims/Figures/74-C-20-4.bmp\",\"nala:na\",\"Up\",\"40\",\"4\",\"9\",\"1\",\"S\",\"C\",\"81\"
\"\",\"\",\"approach-retreat\",\"230\",\"1592094\",\"0.0-230.0\",\"\",\"\",\"1-5\",\"4378\",\"38\",\"1\",\"Testing\",\"Stims/Figures/27-C-30-1.bmp\",\"nala:na\",\"Down\",\"38\",\"4\",\"10\",\"1\",\"S\",\"C\",\"82\"
\"\",\"\",\"approach-retreat\",\"231\",\"1598609\",\"0.0-231.0\",\"\",\"\",\"1-5\",\"5008\",\"38\",\"1\",\"Testing\",\"Stims/Figures/7-J-10-4.bmp\",\"tapaka\",\"Up\",\"38\",\"4\",\"11\",\"1\",\"P\",\"C\",\"83\"
\"\",\"\",\"approach-retreat\",\"232\",\"1604457\",\"0.0-232.0\",\"\",\"\",\"1-5\",\"4341\",\"37\",\"0\",\"Testing\",\"Stims/Figures/84-C-20-2.bmp\",\"nala:na\",\"Left\",\"39\",\"4\",\"12\",\"1\",\"S\",\"C\",\"84\"
\"\",\"\",\"approach-retreat\",\"233\",\"1610516\",\"0.0-233.0\",\"\",\"\",\"1-5\",\"4551\",\"37\",\"1\",\"Testing\",\"Stims/Figures/27-J-0-1.bmp\",\"tapaka\",\"Left\",\"37\",\"4\",\"13\",\"1\",\"P\",\"C\",\"85\"
\"\",\"\",\"approach-retreat\",\"234\",\"1617593\",\"0.0-234.0\",\"\",\"\",\"1-5\",\"5568\",\"37\",\"0\",\"Testing\",\"Stims/Figures/71-C-30-1.bmp\",\"nala:na\",\"Left\",\"39\",\"4\",\"14\",\"1\",\"S\",\"C\",\"86\"
\"\",\"\",\"approach-retreat\",\"235\",\"1623701\",\"0.0-235.0\",\"\",\"\",\"1-5\",\"4600\",\"37\",\"1\",\"Testing\",\"Stims/Figures/74-J-10-4.bmp\",\"tapaka\",\"Left\",\"37\",\"4\",\"15\",\"1\",\"P\",\"C\",\"87\"
\"\",\"\",\"approach-retreat\",\"236\",\"1630594\",\"0.0-236.0\",\"\",\"\",\"1-5\",\"5384\",\"39\",\"1\",\"Testing\",\"Stims/Figures/100-J-10-3.bmp\",\"tapaka\",\"Right\",\"39\",\"4\",\"16\",\"1\",\"P\",\"C\",\"88\"
\"\",\"\",\"approach-retreat\",\"237\",\"1636365\",\"0.0-237.0\",\"\",\"\",\"1-5\",\"4266\",\"38\",\"1\",\"Testing\",\"Stims/Figures/71-J-0-1.bmp\",\"tapaka\",\"Up\",\"38\",\"4\",\"17\",\"1\",\"P\",\"C\",\"89\"
\"\",\"\",\"approach-retreat\",\"238\",\"1641850\",\"0.0-238.0\",\"\",\"\",\"1-5\",\"3977\",\"39\",\"1\",\"Testing\",\"Stims/Figures/87-J-10-4.bmp\",\"tapaka\",\"Right\",\"39\",\"4\",\"18\",\"1\",\"P\",\"C\",\"90\"
\"\",\"\",\"approach-retreat\",\"239\",\"1649428\",\"0.0-239.0\",\"\",\"\",\"1-5\",\"6072\",\"40\",\"0\",\"Testing\",\"Stims/Figures/7-C-20-4.bmp\",\"nala:na\",\"Down\",\"38\",\"4\",\"19\",\"1\",\"S\",\"C\",\"91\"
\"\",\"\",\"approach-retreat\",\"240\",\"1655002\",\"0.0-240.0\",\"\",\"\",\"1-5\",\"4066\",\"38\",\"1\",\"Testing\",\"Stims/Figures/100-C-30-3.bmp\",\"nala:na\",\"Down\",\"38\",\"4\",\"20\",\"1\",\"S\",\"C\",\"92\"
\"\",\"\",\"approach-retreat\",\"241\",\"1660791\",\"0.0-241.0\",\"\",\"\",\"1-5\",\"4282\",\"37\",\"1\",\"Testing\",\"Stims/Figures/85-J-0-2.bmp\",\"tapaka\",\"Left\",\"37\",\"4\",\"21\",\"1\",\"P\",\"C\",\"93\"
\"\",\"\",\"approach-retreat\",\"242\",\"1666242\",\"0.0-242.0\",\"\",\"\",\"1-5\",\"3945\",\"38\",\"1\",\"Testing\",\"Stims/Figures/85-C-20-2.bmp\",\"nala:na\",\"Down\",\"38\",\"4\",\"22\",\"1\",\"S\",\"C\",\"94\"
\"\",\"\",\"approach-retreat\",\"243\",\"1671806\",\"0.0-243.0\",\"\",\"\",\"1-5\",\"4057\",\"39\",\"1\",\"Testing\",\"Stims/Figures/86-J-0-1.bmp\",\"tapaka\",\"Right\",\"39\",\"4\",\"23\",\"1\",\"P\",\"C\",\"95\"
\"\",\"\",\"approach-retreat\",\"244\",\"1678568\",\"0.0-244.0\",\"\",\"\",\"1-5\",\"5254\",\"37\",\"1\",\"Testing\",\"Stims/Figures/128-J-10-3.bmp\",\"tapaka\",\"Left\",\"37\",\"4\",\"24\",\"1\",\"P\",\"C\",\"96\"
\"32347\",\"\",\"survey-text\",\"245\",\"1710919\",\"0.0-245.0\",\"\",\"{\"\"Q0\"\":\"\"PS170075\"\"}\",\"\",\"\",\"\",\"\",\"\",\"\",\"\",\"\",\"\",\"\",\"\",\"\",\"\",\"\",\"\"
