\"rt\",\"key_press\",\"trial_type\",\"trial_index\",\"time_elapsed\",\"internal_node_id\",\"view_history\",\"responses\",\"Id\",\"Rt\",\"ResKeyCode\",\"ResCorr\",\"TrialType2\",\"Image\",\"Label\",\"Location\",\"CorrectResponse\",\"Block\",\"BlockTrial\",\"Condition\",\"LabelType\",\"Subcondition\",\"trialNum\"
\"55490\",\"32\",\"text\",\"0\",\"55495\",\"0.0-0.0-0.0\",\"\",\"\",\"\",\"\",\"\",\"\",\"\",\"\",\"\",\"\",\"\",\"\",\"\",\"\",\"\",\"\",\"\"
\"54645\",\"\",\"instructions\",\"1\",\"110143\",\"0.0-1.0\",\"[{\"\"page_index\"\":0,\"\"viewing_time\"\":54644}]\",\"\",\"\",\"\",\"\",\"\",\"\",\"\",\"\",\"\",\"\",\"\",\"\",\"\",\"\",\"\",\"\"
\"61071\",\"\",\"survey-multi-choice\",\"2\",\"171365\",\"0.0-2.0\",\"\",\"{\"\"Q0\"\":\"\"Da\"\",\"\"Q1\"\":\"\"Da\"\",\"\"Q2\"\":\"\"Da\"\",\"\"Q3\"\":\"\"Da\"\",\"\"Q4\"\":\"\"Da\"\",\"\"Q5\"\":\"\"Da\"\"}\",\"\",\"\",\"\",\"\",\"\",\"\",\"\",\"\",\"\",\"\",\"\",\"\",\"\",\"\",\"\"
\"\",\"\",\"bio\",\"3\",\"179315\",\"0.0-3.0\",\"\",\"{\"\"age\"\":\"\"23\"\",\"\"gender\"\":\"\"f\"\",\"\"specify\"\":\"\"\"\"}\",\"\",\"\",\"\",\"\",\"\",\"\",\"\",\"\",\"\",\"\",\"\",\"\",\"\",\"\",\"\"
\"\",\"\",\"approach-retreat\",\"4\",\"193677\",\"0.0-4.0\",\"\",\"\",\"2-4\",\"12854\",\"38\",\"0\",\"Training\",\"Stims/Figures/57-J-0-1.bmp\",\"va:fa:sha\",\"Up\",\"40\",\"1\",\"1\",\"6A\",\"C1\",\"J\",\"1\"
\"\",\"\",\"approach-retreat\",\"5\",\"201840\",\"0.0-5.0\",\"\",\"\",\"2-4\",\"6652\",\"38\",\"1\",\"Training\",\"Stims/Figures/100-C-30-3.bmp\",\"sa:haha\",\"Up\",\"38\",\"1\",\"2\",\"6A\",\"C2\",\"J\",\"2\"
\"\",\"\",\"approach-retreat\",\"6\",\"209033\",\"0.0-6.0\",\"\",\"\",\"2-4\",\"5683\",\"37\",\"1\",\"Training\",\"Stims/Figures/87-C-20-4.bmp\",\"sahaza\",\"Left\",\"37\",\"1\",\"3\",\"6A\",\"C2\",\"J\",\"3\"
\"\",\"\",\"approach-retreat\",\"7\",\"218014\",\"0.0-7.0\",\"\",\"\",\"2-4\",\"7471\",\"37\",\"1\",\"Training\",\"Stims/Figures/87-J-10-4.bmp\",\"fashasha\",\"Right\",\"37\",\"1\",\"4\",\"6A\",\"C1\",\"J\",\"4\"
\"\",\"\",\"approach-retreat\",\"8\",\"224571\",\"0.0-8.0\",\"\",\"\",\"2-4\",\"5048\",\"37\",\"0\",\"Training\",\"Stims/Figures/27-J-0-1.bmp\",\"vafa:sha\",\"Left\",\"39\",\"1\",\"5\",\"6A\",\"C1\",\"J\",\"5\"
\"\",\"\",\"approach-retreat\",\"9\",\"230004\",\"0.0-9.0\",\"\",\"\",\"2-4\",\"3923\",\"39\",\"0\",\"Training\",\"Stims/Figures/100-J-10-3.bmp\",\"vafava\",\"Right\",\"37\",\"1\",\"6\",\"6A\",\"C1\",\"J\",\"6\"
\"\",\"\",\"approach-retreat\",\"10\",\"235616\",\"0.0-10.0\",\"\",\"\",\"2-4\",\"4101\",\"37\",\"0\",\"Training\",\"Stims/Figures/144-C-30-3.bmp\",\"zasa:ha\",\"Right\",\"39\",\"1\",\"7\",\"6A\",\"C2\",\"J\",\"7\"
\"\",\"\",\"approach-retreat\",\"11\",\"241592\",\"0.0-11.0\",\"\",\"\",\"2-4\",\"4468\",\"40\",\"1\",\"Training\",\"Stims/Figures/118-C-20-2.bmp\",\"sa:saha\",\"Down\",\"40\",\"1\",\"8\",\"6A\",\"C2\",\"J\",\"8\"
\"\",\"\",\"approach-retreat\",\"12\",\"247579\",\"0.0-12.0\",\"\",\"\",\"2-4\",\"4476\",\"38\",\"1\",\"Training\",\"Stims/Figures/102-J-10-4.bmp\",\"fa:fasha\",\"Down\",\"38\",\"1\",\"9\",\"6A\",\"C1\",\"J\",\"9\"
\"\",\"\",\"approach-retreat\",\"13\",\"253569\",\"0.0-13.0\",\"\",\"\",\"2-4\",\"4481\",\"38\",\"0\",\"Training\",\"Stims/Figures/57-C-30-1.bmp\",\"sa:sa:ha\",\"Down\",\"40\",\"1\",\"10\",\"6A\",\"C2\",\"J\",\"10\"
\"\",\"\",\"approach-retreat\",\"14\",\"259495\",\"0.0-14.0\",\"\",\"\",\"2-4\",\"4417\",\"37\",\"0\",\"Training\",\"Stims/Figures/144-J-10-3.bmp\",\"fasha:va\",\"Left\",\"39\",\"1\",\"11\",\"6A\",\"C1\",\"J\",\"11\"
\"\",\"\",\"approach-retreat\",\"15\",\"265731\",\"0.0-15.0\",\"\",\"\",\"2-4\",\"4727\",\"38\",\"1\",\"Training\",\"Stims/Figures/94-C-20-2.bmp\",\"za:haha\",\"Up\",\"38\",\"1\",\"12\",\"6A\",\"C2\",\"J\",\"12\"
\"\",\"\",\"approach-retreat\",\"16\",\"272044\",\"0.0-16.0\",\"\",\"\",\"2-4\",\"4803\",\"39\",\"1\",\"Training\",\"Stims/Figures/27-C-30-1.bmp\",\"saha:za\",\"Right\",\"39\",\"1\",\"13\",\"6A\",\"C2\",\"J\",\"13\"
\"\",\"\",\"approach-retreat\",\"17\",\"278039\",\"0.0-17.0\",\"\",\"\",\"2-4\",\"4485\",\"39\",\"1\",\"Training\",\"Stims/Figures/94-J-0-2.bmp\",\"fafa:va\",\"Left\",\"39\",\"1\",\"14\",\"6A\",\"C1\",\"J\",\"14\"
\"\",\"\",\"approach-retreat\",\"18\",\"283943\",\"0.0-18.0\",\"\",\"\",\"2-4\",\"4393\",\"40\",\"0\",\"Training\",\"Stims/Figures/102-C-20-4.bmp\",\"sasa:za\",\"Up\",\"38\",\"1\",\"15\",\"6A\",\"C2\",\"J\",\"15\"
\"\",\"\",\"approach-retreat\",\"19\",\"289742\",\"0.0-19.0\",\"\",\"\",\"2-4\",\"4289\",\"38\",\"1\",\"Training\",\"Stims/Figures/118-J-0-2.bmp\",\"vasha:sha\",\"Down\",\"38\",\"1\",\"16\",\"6A\",\"C1\",\"J\",\"16\"
\"\",\"\",\"approach-retreat\",\"20\",\"295437\",\"0.0-20.0\",\"\",\"\",\"2-4\",\"4185\",\"40\",\"1\",\"Training\",\"Stims/Figures/102-C-20-4.bmp\",\"sasa:za\",\"Down\",\"40\",\"2\",\"1\",\"6A\",\"C2\",\"J\",\"17\"
\"\",\"\",\"approach-retreat\",\"21\",\"301250\",\"0.0-21.0\",\"\",\"\",\"2-4\",\"4304\",\"38\",\"0\",\"Training\",\"Stims/Figures/87-C-20-4.bmp\",\"sahaza\",\"Down\",\"40\",\"2\",\"2\",\"6A\",\"C2\",\"J\",\"18\"
\"\",\"\",\"approach-retreat\",\"22\",\"307172\",\"0.0-22.0\",\"\",\"\",\"2-4\",\"4412\",\"39\",\"1\",\"Training\",\"Stims/Figures/94-C-20-2.bmp\",\"za:haha\",\"Right\",\"39\",\"2\",\"3\",\"6A\",\"C2\",\"J\",\"19\"
\"\",\"\",\"approach-retreat\",\"23\",\"312966\",\"0.0-23.0\",\"\",\"\",\"2-4\",\"4285\",\"40\",\"1\",\"Training\",\"Stims/Figures/144-J-10-3.bmp\",\"fasha:va\",\"Up\",\"40\",\"2\",\"4\",\"6A\",\"C1\",\"J\",\"20\"
\"\",\"\",\"approach-retreat\",\"24\",\"318807\",\"0.0-24.0\",\"\",\"\",\"2-4\",\"4331\",\"39\",\"1\",\"Training\",\"Stims/Figures/102-J-10-4.bmp\",\"fa:fasha\",\"Left\",\"39\",\"2\",\"5\",\"6A\",\"C1\",\"J\",\"21\"
\"\",\"\",\"approach-retreat\",\"25\",\"324702\",\"0.0-25.0\",\"\",\"\",\"2-4\",\"4387\",\"37\",\"1\",\"Training\",\"Stims/Figures/100-C-30-3.bmp\",\"sa:haha\",\"Left\",\"37\",\"2\",\"6\",\"6A\",\"C2\",\"J\",\"22\"
\"\",\"\",\"approach-retreat\",\"26\",\"330713\",\"0.0-26.0\",\"\",\"\",\"2-4\",\"4501\",\"38\",\"1\",\"Training\",\"Stims/Figures/27-C-30-1.bmp\",\"saha:za\",\"Up\",\"38\",\"2\",\"7\",\"6A\",\"C2\",\"J\",\"23\"
\"\",\"\",\"approach-retreat\",\"27\",\"336596\",\"0.0-27.0\",\"\",\"\",\"2-4\",\"4372\",\"38\",\"1\",\"Training\",\"Stims/Figures/57-J-0-1.bmp\",\"va:fa:sha\",\"Down\",\"38\",\"2\",\"8\",\"6A\",\"C1\",\"J\",\"24\"
\"\",\"\",\"approach-retreat\",\"28\",\"343065\",\"0.0-28.0\",\"\",\"\",\"2-4\",\"4957\",\"37\",\"1\",\"Training\",\"Stims/Figures/144-C-30-3.bmp\",\"zasa:ha\",\"Left\",\"37\",\"2\",\"9\",\"6A\",\"C2\",\"J\",\"25\"
\"\",\"\",\"approach-retreat\",\"29\",\"348860\",\"0.0-29.0\",\"\",\"\",\"2-4\",\"4284\",\"40\",\"1\",\"Training\",\"Stims/Figures/27-J-0-1.bmp\",\"vafa:sha\",\"Up\",\"40\",\"2\",\"10\",\"6A\",\"C1\",\"J\",\"26\"
\"\",\"\",\"approach-retreat\",\"30\",\"354643\",\"0.0-30.0\",\"\",\"\",\"2-4\",\"4272\",\"40\",\"1\",\"Training\",\"Stims/Figures/118-J-0-2.bmp\",\"vasha:sha\",\"Up\",\"40\",\"2\",\"11\",\"6A\",\"C1\",\"J\",\"27\"
\"\",\"\",\"approach-retreat\",\"31\",\"361267\",\"0.0-31.0\",\"\",\"\",\"2-4\",\"5113\",\"37\",\"1\",\"Training\",\"Stims/Figures/57-C-30-1.bmp\",\"sa:sa:ha\",\"Left\",\"37\",\"2\",\"12\",\"6A\",\"C2\",\"J\",\"28\"
\"\",\"\",\"approach-retreat\",\"32\",\"367625\",\"0.0-32.0\",\"\",\"\",\"2-4\",\"4848\",\"37\",\"1\",\"Training\",\"Stims/Figures/87-J-10-4.bmp\",\"fashasha\",\"Right\",\"37\",\"2\",\"13\",\"6A\",\"C1\",\"J\",\"29\"
\"\",\"\",\"approach-retreat\",\"33\",\"374178\",\"0.0-33.0\",\"\",\"\",\"2-4\",\"5041\",\"40\",\"0\",\"Training\",\"Stims/Figures/94-J-0-2.bmp\",\"fafa:va\",\"Down\",\"38\",\"2\",\"14\",\"6A\",\"C1\",\"J\",\"30\"
\"\",\"\",\"approach-retreat\",\"34\",\"381356\",\"0.0-34.0\",\"\",\"\",\"2-4\",\"5664\",\"39\",\"1\",\"Training\",\"Stims/Figures/118-C-20-2.bmp\",\"sa:saha\",\"Right\",\"39\",\"2\",\"15\",\"6A\",\"C2\",\"J\",\"31\"
\"\",\"\",\"approach-retreat\",\"35\",\"388996\",\"0.0-35.0\",\"\",\"\",\"2-4\",\"6131\",\"37\",\"1\",\"Training\",\"Stims/Figures/100-J-10-3.bmp\",\"vafava\",\"Right\",\"37\",\"2\",\"16\",\"6A\",\"C1\",\"J\",\"32\"
\"\",\"\",\"approach-retreat\",\"36\",\"394765\",\"0.0-36.0\",\"\",\"\",\"2-4\",\"4259\",\"38\",\"1\",\"Training\",\"Stims/Figures/102-J-10-4.bmp\",\"fa:fasha\",\"Down\",\"38\",\"3\",\"1\",\"6A\",\"C1\",\"J\",\"33\"
\"\",\"\",\"approach-retreat\",\"37\",\"400564\",\"0.0-37.0\",\"\",\"\",\"2-4\",\"4289\",\"39\",\"1\",\"Training\",\"Stims/Figures/144-J-10-3.bmp\",\"fasha:va\",\"Left\",\"39\",\"3\",\"2\",\"6A\",\"C1\",\"J\",\"34\"
\"\",\"\",\"approach-retreat\",\"38\",\"406655\",\"0.0-38.0\",\"\",\"\",\"2-4\",\"4580\",\"39\",\"1\",\"Training\",\"Stims/Figures/144-C-30-3.bmp\",\"zasa:ha\",\"Right\",\"39\",\"3\",\"3\",\"6A\",\"C2\",\"J\",\"35\"
\"\",\"\",\"approach-retreat\",\"39\",\"412446\",\"0.0-39.0\",\"\",\"\",\"2-4\",\"4279\",\"38\",\"0\",\"Training\",\"Stims/Figures/118-C-20-2.bmp\",\"sa:saha\",\"Down\",\"40\",\"3\",\"4\",\"6A\",\"C2\",\"J\",\"36\"
\"\",\"\",\"approach-retreat\",\"40\",\"419602\",\"0.0-40.0\",\"\",\"\",\"2-4\",\"5651\",\"37\",\"0\",\"Training\",\"Stims/Figures/100-J-10-3.bmp\",\"vafava\",\"Left\",\"39\",\"3\",\"5\",\"6A\",\"C1\",\"J\",\"37\"
\"\",\"\",\"approach-retreat\",\"41\",\"425534\",\"0.0-41.0\",\"\",\"\",\"2-4\",\"4423\",\"39\",\"1\",\"Training\",\"Stims/Figures/87-C-20-4.bmp\",\"sahaza\",\"Right\",\"39\",\"3\",\"6\",\"6A\",\"C2\",\"J\",\"38\"
\"\",\"\",\"approach-retreat\",\"42\",\"431773\",\"0.0-42.0\",\"\",\"\",\"2-4\",\"4728\",\"39\",\"1\",\"Training\",\"Stims/Figures/87-J-10-4.bmp\",\"fashasha\",\"Left\",\"39\",\"3\",\"7\",\"6A\",\"C1\",\"J\",\"39\"
\"\",\"\",\"approach-retreat\",\"43\",\"437646\",\"0.0-43.0\",\"\",\"\",\"2-4\",\"4364\",\"40\",\"1\",\"Training\",\"Stims/Figures/27-C-30-1.bmp\",\"saha:za\",\"Down\",\"40\",\"3\",\"8\",\"6A\",\"C2\",\"J\",\"40\"
\"\",\"\",\"approach-retreat\",\"44\",\"443437\",\"0.0-44.0\",\"\",\"\",\"2-4\",\"4281\",\"40\",\"1\",\"Training\",\"Stims/Figures/27-J-0-1.bmp\",\"vafa:sha\",\"Up\",\"40\",\"3\",\"9\",\"6A\",\"C1\",\"J\",\"41\"
\"\",\"\",\"approach-retreat\",\"45\",\"448989\",\"0.0-45.0\",\"\",\"\",\"2-4\",\"4047\",\"40\",\"1\",\"Training\",\"Stims/Figures/118-J-0-2.bmp\",\"vasha:sha\",\"Up\",\"40\",\"3\",\"10\",\"6A\",\"C1\",\"J\",\"42\"
\"\",\"\",\"approach-retreat\",\"46\",\"454730\",\"0.0-46.0\",\"\",\"\",\"2-4\",\"4232\",\"39\",\"1\",\"Training\",\"Stims/Figures/100-C-30-3.bmp\",\"sa:haha\",\"Right\",\"39\",\"3\",\"11\",\"6A\",\"C2\",\"J\",\"43\"
\"\",\"\",\"approach-retreat\",\"47\",\"460788\",\"0.0-47.0\",\"\",\"\",\"2-4\",\"4548\",\"40\",\"1\",\"Training\",\"Stims/Figures/57-C-30-1.bmp\",\"sa:sa:ha\",\"Down\",\"40\",\"3\",\"12\",\"6A\",\"C2\",\"J\",\"44\"
\"\",\"\",\"approach-retreat\",\"48\",\"466615\",\"0.0-48.0\",\"\",\"\",\"2-4\",\"4316\",\"38\",\"1\",\"Training\",\"Stims/Figures/102-C-20-4.bmp\",\"sasa:za\",\"Up\",\"38\",\"3\",\"13\",\"6A\",\"C2\",\"J\",\"45\"
\"\",\"\",\"approach-retreat\",\"49\",\"472453\",\"0.0-49.0\",\"\",\"\",\"2-4\",\"4328\",\"39\",\"1\",\"Training\",\"Stims/Figures/94-C-20-2.bmp\",\"za:haha\",\"Right\",\"39\",\"3\",\"14\",\"6A\",\"C2\",\"J\",\"46\"
\"\",\"\",\"approach-retreat\",\"50\",\"478233\",\"0.0-50.0\",\"\",\"\",\"2-4\",\"4269\",\"39\",\"1\",\"Training\",\"Stims/Figures/94-J-0-2.bmp\",\"fafa:va\",\"Left\",\"39\",\"3\",\"15\",\"6A\",\"C1\",\"J\",\"47\"
\"\",\"\",\"approach-retreat\",\"51\",\"483876\",\"0.0-51.0\",\"\",\"\",\"2-4\",\"4132\",\"40\",\"1\",\"Training\",\"Stims/Figures/57-J-0-1.bmp\",\"va:fa:sha\",\"Up\",\"40\",\"3\",\"16\",\"6A\",\"C1\",\"J\",\"48\"
\"\",\"\",\"approach-retreat\",\"52\",\"489643\",\"0.0-52.0\",\"\",\"\",\"2-4\",\"4257\",\"38\",\"1\",\"Training\",\"Stims/Figures/118-J-0-2.bmp\",\"vasha:sha\",\"Down\",\"38\",\"4\",\"1\",\"6A\",\"C1\",\"J\",\"49\"
\"\",\"\",\"approach-retreat\",\"53\",\"495717\",\"0.0-53.0\",\"\",\"\",\"2-4\",\"4558\",\"38\",\"1\",\"Training\",\"Stims/Figures/27-C-30-1.bmp\",\"saha:za\",\"Up\",\"38\",\"4\",\"2\",\"6A\",\"C2\",\"J\",\"50\"
\"\",\"\",\"approach-retreat\",\"54\",\"501301\",\"0.0-54.0\",\"\",\"\",\"2-4\",\"4073\",\"38\",\"1\",\"Training\",\"Stims/Figures/102-C-20-4.bmp\",\"sasa:za\",\"Up\",\"38\",\"4\",\"3\",\"6A\",\"C2\",\"J\",\"51\"
\"\",\"\",\"approach-retreat\",\"55\",\"507062\",\"0.0-55.0\",\"\",\"\",\"2-4\",\"4253\",\"39\",\"1\",\"Training\",\"Stims/Figures/118-C-20-2.bmp\",\"sa:saha\",\"Right\",\"39\",\"4\",\"4\",\"6A\",\"C2\",\"J\",\"52\"
\"\",\"\",\"approach-retreat\",\"56\",\"513754\",\"0.0-56.0\",\"\",\"\",\"2-4\",\"5181\",\"39\",\"1\",\"Training\",\"Stims/Figures/94-C-20-2.bmp\",\"za:haha\",\"Right\",\"39\",\"4\",\"5\",\"6A\",\"C2\",\"J\",\"53\"
\"\",\"\",\"approach-retreat\",\"57\",\"519506\",\"0.0-57.0\",\"\",\"\",\"2-4\",\"4244\",\"40\",\"1\",\"Training\",\"Stims/Figures/100-C-30-3.bmp\",\"sa:haha\",\"Down\",\"40\",\"4\",\"6\",\"6A\",\"C2\",\"J\",\"54\"
\"\",\"\",\"approach-retreat\",\"58\",\"525109\",\"0.0-58.0\",\"\",\"\",\"2-4\",\"4092\",\"39\",\"1\",\"Training\",\"Stims/Figures/27-J-0-1.bmp\",\"vafa:sha\",\"Left\",\"39\",\"4\",\"7\",\"6A\",\"C1\",\"J\",\"55\"
\"\",\"\",\"approach-retreat\",\"59\",\"530972\",\"0.0-59.0\",\"\",\"\",\"2-4\",\"4353\",\"39\",\"1\",\"Training\",\"Stims/Figures/57-C-30-1.bmp\",\"sa:sa:ha\",\"Right\",\"39\",\"4\",\"8\",\"6A\",\"C2\",\"J\",\"56\"
\"\",\"\",\"approach-retreat\",\"60\",\"536660\",\"0.0-60.0\",\"\",\"\",\"2-4\",\"4178\",\"40\",\"1\",\"Training\",\"Stims/Figures/102-J-10-4.bmp\",\"fa:fasha\",\"Up\",\"40\",\"4\",\"9\",\"6A\",\"C1\",\"J\",\"57\"
\"\",\"\",\"approach-retreat\",\"61\",\"543151\",\"0.0-61.0\",\"\",\"\",\"2-4\",\"4981\",\"37\",\"1\",\"Training\",\"Stims/Figures/144-C-30-3.bmp\",\"zasa:ha\",\"Left\",\"37\",\"4\",\"10\",\"6A\",\"C2\",\"J\",\"58\"
\"\",\"\",\"approach-retreat\",\"62\",\"551215\",\"0.0-62.0\",\"\",\"\",\"2-4\",\"6556\",\"37\",\"1\",\"Training\",\"Stims/Figures/144-J-10-3.bmp\",\"fasha:va\",\"Right\",\"37\",\"4\",\"11\",\"6A\",\"C1\",\"J\",\"59\"
\"\",\"\",\"approach-retreat\",\"63\",\"556937\",\"0.0-63.0\",\"\",\"\",\"2-4\",\"4212\",\"38\",\"1\",\"Training\",\"Stims/Figures/94-J-0-2.bmp\",\"fafa:va\",\"Down\",\"38\",\"4\",\"12\",\"6A\",\"C1\",\"J\",\"60\"
\"\",\"\",\"approach-retreat\",\"64\",\"563389\",\"0.0-64.0\",\"\",\"\",\"2-4\",\"4941\",\"39\",\"1\",\"Training\",\"Stims/Figures/87-J-10-4.bmp\",\"fashasha\",\"Left\",\"39\",\"4\",\"13\",\"6A\",\"C1\",\"J\",\"61\"
\"\",\"\",\"approach-retreat\",\"65\",\"569161\",\"0.0-65.0\",\"\",\"\",\"2-4\",\"4262\",\"38\",\"1\",\"Training\",\"Stims/Figures/57-J-0-1.bmp\",\"va:fa:sha\",\"Down\",\"38\",\"4\",\"14\",\"6A\",\"C1\",\"J\",\"62\"
\"\",\"\",\"approach-retreat\",\"66\",\"575240\",\"0.0-66.0\",\"\",\"\",\"2-4\",\"4575\",\"40\",\"1\",\"Training\",\"Stims/Figures/100-J-10-3.bmp\",\"vafava\",\"Up\",\"40\",\"4\",\"15\",\"6A\",\"C1\",\"J\",\"63\"
\"\",\"\",\"approach-retreat\",\"67\",\"583244\",\"0.0-67.0\",\"\",\"\",\"2-4\",\"6495\",\"37\",\"1\",\"Training\",\"Stims/Figures/87-C-20-4.bmp\",\"sahaza\",\"Left\",\"37\",\"4\",\"16\",\"6A\",\"C2\",\"J\",\"64\"
\"\",\"\",\"approach-retreat\",\"68\",\"589306\",\"0.0-68.0\",\"\",\"\",\"2-4\",\"4552\",\"40\",\"1\",\"Training\",\"Stims/Figures/102-J-10-4.bmp\",\"fa:fasha\",\"Up\",\"40\",\"5\",\"1\",\"6A\",\"C1\",\"J\",\"65\"
\"\",\"\",\"approach-retreat\",\"69\",\"595502\",\"0.0-69.0\",\"\",\"\",\"2-4\",\"4686\",\"38\",\"1\",\"Training\",\"Stims/Figures/87-J-10-4.bmp\",\"fashasha\",\"Down\",\"38\",\"5\",\"2\",\"6A\",\"C1\",\"J\",\"66\"
\"\",\"\",\"approach-retreat\",\"70\",\"601348\",\"0.0-70.0\",\"\",\"\",\"2-4\",\"4334\",\"37\",\"1\",\"Training\",\"Stims/Figures/87-C-20-4.bmp\",\"sahaza\",\"Left\",\"37\",\"5\",\"3\",\"6A\",\"C2\",\"J\",\"67\"
\"\",\"\",\"approach-retreat\",\"71\",\"608175\",\"0.0-71.0\",\"\",\"\",\"2-4\",\"5318\",\"37\",\"1\",\"Training\",\"Stims/Figures/100-J-10-3.bmp\",\"vafava\",\"Right\",\"37\",\"5\",\"4\",\"6A\",\"C1\",\"J\",\"68\"
\"\",\"\",\"approach-retreat\",\"72\",\"614174\",\"0.0-72.0\",\"\",\"\",\"2-4\",\"4489\",\"39\",\"1\",\"Training\",\"Stims/Figures/57-C-30-1.bmp\",\"sa:sa:ha\",\"Right\",\"39\",\"5\",\"5\",\"6A\",\"C2\",\"J\",\"69\"
\"\",\"\",\"approach-retreat\",\"73\",\"619922\",\"0.0-73.0\",\"\",\"\",\"2-4\",\"4240\",\"39\",\"1\",\"Training\",\"Stims/Figures/144-J-10-3.bmp\",\"fasha:va\",\"Left\",\"39\",\"5\",\"6\",\"6A\",\"C1\",\"J\",\"70\"
\"\",\"\",\"approach-retreat\",\"74\",\"625578\",\"0.0-74.0\",\"\",\"\",\"2-4\",\"4147\",\"37\",\"1\",\"Training\",\"Stims/Figures/102-C-20-4.bmp\",\"sasa:za\",\"Left\",\"37\",\"5\",\"7\",\"6A\",\"C2\",\"J\",\"71\"
\"\",\"\",\"approach-retreat\",\"75\",\"631223\",\"0.0-75.0\",\"\",\"\",\"2-4\",\"4134\",\"37\",\"1\",\"Training\",\"Stims/Figures/94-C-20-2.bmp\",\"za:haha\",\"Left\",\"37\",\"5\",\"8\",\"6A\",\"C2\",\"J\",\"72\"
\"\",\"\",\"approach-retreat\",\"76\",\"637589\",\"0.0-76.0\",\"\",\"\",\"2-4\",\"4855\",\"39\",\"1\",\"Training\",\"Stims/Figures/27-C-30-1.bmp\",\"saha:za\",\"Right\",\"39\",\"5\",\"9\",\"6A\",\"C2\",\"J\",\"73\"
\"\",\"\",\"approach-retreat\",\"77\",\"643538\",\"0.0-77.0\",\"\",\"\",\"2-4\",\"4439\",\"40\",\"1\",\"Training\",\"Stims/Figures/118-C-20-2.bmp\",\"sa:saha\",\"Down\",\"40\",\"5\",\"10\",\"6A\",\"C2\",\"J\",\"74\"
\"\",\"\",\"approach-retreat\",\"78\",\"649181\",\"0.0-78.0\",\"\",\"\",\"2-4\",\"4134\",\"38\",\"1\",\"Training\",\"Stims/Figures/144-C-30-3.bmp\",\"zasa:ha\",\"Up\",\"38\",\"5\",\"11\",\"6A\",\"C2\",\"J\",\"75\"
\"\",\"\",\"approach-retreat\",\"79\",\"654915\",\"0.0-79.0\",\"\",\"\",\"2-4\",\"4224\",\"40\",\"1\",\"Training\",\"Stims/Figures/118-J-0-2.bmp\",\"vasha:sha\",\"Up\",\"40\",\"5\",\"12\",\"6A\",\"C1\",\"J\",\"76\"
\"\",\"\",\"approach-retreat\",\"80\",\"661445\",\"0.0-80.0\",\"\",\"\",\"2-4\",\"5021\",\"38\",\"1\",\"Training\",\"Stims/Figures/100-C-30-3.bmp\",\"sa:haha\",\"Up\",\"38\",\"5\",\"13\",\"6A\",\"C2\",\"J\",\"77\"
\"\",\"\",\"approach-retreat\",\"81\",\"667206\",\"0.0-81.0\",\"\",\"\",\"2-4\",\"4256\",\"38\",\"1\",\"Training\",\"Stims/Figures/27-J-0-1.bmp\",\"vafa:sha\",\"Down\",\"38\",\"5\",\"14\",\"6A\",\"C1\",\"J\",\"78\"
\"\",\"\",\"approach-retreat\",\"82\",\"674736\",\"0.0-82.0\",\"\",\"\",\"2-4\",\"6020\",\"38\",\"1\",\"Training\",\"Stims/Figures/57-J-0-1.bmp\",\"va:fa:sha\",\"Down\",\"38\",\"5\",\"15\",\"6A\",\"C1\",\"J\",\"79\"
\"\",\"\",\"approach-retreat\",\"83\",\"681985\",\"0.0-83.0\",\"\",\"\",\"2-4\",\"5740\",\"37\",\"1\",\"Training\",\"Stims/Figures/94-J-0-2.bmp\",\"fafa:va\",\"Right\",\"37\",\"5\",\"16\",\"6A\",\"C1\",\"J\",\"80\"
\"\",\"\",\"approach-retreat\",\"84\",\"688330\",\"0.0-84.0\",\"\",\"\",\"2-4\",\"4832\",\"39\",\"1\",\"Training\",\"Stims/Figures/94-J-0-2.bmp\",\"fafa:va\",\"Left\",\"39\",\"6\",\"1\",\"6A\",\"C1\",\"J\",\"81\"
\"\",\"\",\"approach-retreat\",\"85\",\"695285\",\"0.0-85.0\",\"\",\"\",\"2-4\",\"5445\",\"39\",\"1\",\"Training\",\"Stims/Figures/144-C-30-3.bmp\",\"zasa:ha\",\"Right\",\"39\",\"6\",\"2\",\"6A\",\"C2\",\"J\",\"82\"
\"\",\"\",\"approach-retreat\",\"86\",\"702112\",\"0.0-86.0\",\"\",\"\",\"2-4\",\"5317\",\"38\",\"1\",\"Training\",\"Stims/Figures/87-C-20-4.bmp\",\"sahaza\",\"Up\",\"38\",\"6\",\"3\",\"6A\",\"C2\",\"J\",\"83\"
\"\",\"\",\"approach-retreat\",\"87\",\"710110\",\"0.0-87.0\",\"\",\"\",\"2-4\",\"6488\",\"37\",\"1\",\"Training\",\"Stims/Figures/87-J-10-4.bmp\",\"fashasha\",\"Right\",\"37\",\"6\",\"4\",\"6A\",\"C1\",\"J\",\"84\"
\"\",\"\",\"approach-retreat\",\"88\",\"716548\",\"0.0-88.0\",\"\",\"\",\"2-4\",\"4929\",\"37\",\"1\",\"Training\",\"Stims/Figures/102-C-20-4.bmp\",\"sasa:za\",\"Left\",\"37\",\"6\",\"5\",\"6A\",\"C2\",\"J\",\"85\"
\"\",\"\",\"approach-retreat\",\"89\",\"723210\",\"0.0-89.0\",\"\",\"\",\"2-4\",\"5153\",\"40\",\"1\",\"Training\",\"Stims/Figures/57-C-30-1.bmp\",\"sa:sa:ha\",\"Down\",\"40\",\"6\",\"6\",\"6A\",\"C2\",\"J\",\"86\"
\"\",\"\",\"approach-retreat\",\"90\",\"729832\",\"0.0-90.0\",\"\",\"\",\"2-4\",\"5107\",\"40\",\"1\",\"Training\",\"Stims/Figures/57-J-0-1.bmp\",\"va:fa:sha\",\"Up\",\"40\",\"6\",\"7\",\"6A\",\"C1\",\"J\",\"87\"
\"\",\"\",\"approach-retreat\",\"91\",\"736083\",\"0.0-91.0\",\"\",\"\",\"2-4\",\"4742\",\"38\",\"1\",\"Training\",\"Stims/Figures/100-J-10-3.bmp\",\"vafava\",\"Down\",\"38\",\"6\",\"8\",\"6A\",\"C1\",\"J\",\"88\"
\"\",\"\",\"approach-retreat\",\"92\",\"742247\",\"0.0-92.0\",\"\",\"\",\"2-4\",\"4651\",\"38\",\"1\",\"Training\",\"Stims/Figures/27-C-30-1.bmp\",\"saha:za\",\"Up\",\"38\",\"6\",\"9\",\"6A\",\"C2\",\"J\",\"89\"
\"\",\"\",\"approach-retreat\",\"93\",\"748727\",\"0.0-93.0\",\"\",\"\",\"2-4\",\"4969\",\"38\",\"1\",\"Training\",\"Stims/Figures/102-J-10-4.bmp\",\"fa:fasha\",\"Down\",\"38\",\"6\",\"10\",\"6A\",\"C1\",\"J\",\"90\"
\"\",\"\",\"approach-retreat\",\"94\",\"754562\",\"0.0-94.0\",\"\",\"\",\"2-4\",\"4324\",\"38\",\"1\",\"Training\",\"Stims/Figures/27-J-0-1.bmp\",\"vafa:sha\",\"Down\",\"38\",\"6\",\"11\",\"6A\",\"C1\",\"J\",\"91\"
\"\",\"\",\"approach-retreat\",\"95\",\"760602\",\"0.0-95.0\",\"\",\"\",\"2-4\",\"4536\",\"38\",\"1\",\"Training\",\"Stims/Figures/118-C-20-2.bmp\",\"sa:saha\",\"Up\",\"38\",\"6\",\"12\",\"6A\",\"C2\",\"J\",\"92\"
\"\",\"\",\"approach-retreat\",\"96\",\"766648\",\"0.0-96.0\",\"\",\"\",\"2-4\",\"4542\",\"37\",\"1\",\"Training\",\"Stims/Figures/94-C-20-2.bmp\",\"za:haha\",\"Left\",\"37\",\"6\",\"13\",\"6A\",\"C2\",\"J\",\"93\"
\"\",\"\",\"approach-retreat\",\"97\",\"772521\",\"0.0-97.0\",\"\",\"\",\"2-4\",\"4363\",\"37\",\"1\",\"Training\",\"Stims/Figures/118-J-0-2.bmp\",\"vasha:sha\",\"Right\",\"37\",\"6\",\"14\",\"6A\",\"C1\",\"J\",\"94\"
\"\",\"\",\"approach-retreat\",\"98\",\"779189\",\"0.0-98.0\",\"\",\"\",\"2-4\",\"5157\",\"37\",\"1\",\"Training\",\"Stims/Figures/100-C-30-3.bmp\",\"sa:haha\",\"Left\",\"37\",\"6\",\"15\",\"6A\",\"C2\",\"J\",\"95\"
\"\",\"\",\"approach-retreat\",\"99\",\"785092\",\"0.0-99.0\",\"\",\"\",\"2-4\",\"4392\",\"37\",\"1\",\"Training\",\"Stims/Figures/144-J-10-3.bmp\",\"fasha:va\",\"Right\",\"37\",\"6\",\"16\",\"6A\",\"C1\",\"J\",\"96\"
\"\",\"\",\"approach-retreat\",\"100\",\"791136\",\"0.0-100.0\",\"\",\"\",\"2-4\",\"4534\",\"37\",\"1\",\"Training\",\"Stims/Figures/87-C-20-4.bmp\",\"sahaza\",\"Left\",\"37\",\"7\",\"1\",\"6A\",\"C2\",\"J\",\"97\"
\"\",\"\",\"approach-retreat\",\"101\",\"796954\",\"0.0-101.0\",\"\",\"\",\"2-4\",\"4307\",\"40\",\"1\",\"Training\",\"Stims/Figures/57-C-30-1.bmp\",\"sa:sa:ha\",\"Down\",\"40\",\"7\",\"2\",\"6A\",\"C2\",\"J\",\"98\"
\"\",\"\",\"approach-retreat\",\"102\",\"803521\",\"0.0-102.0\",\"\",\"\",\"2-4\",\"5060\",\"38\",\"1\",\"Training\",\"Stims/Figures/102-J-10-4.bmp\",\"fa:fasha\",\"Down\",\"38\",\"7\",\"3\",\"6A\",\"C1\",\"J\",\"99\"
\"\",\"\",\"approach-retreat\",\"103\",\"809437\",\"0.0-103.0\",\"\",\"\",\"2-4\",\"4406\",\"38\",\"1\",\"Training\",\"Stims/Figures/144-C-30-3.bmp\",\"zasa:ha\",\"Up\",\"38\",\"7\",\"4\",\"6A\",\"C2\",\"J\",\"100\"
\"\",\"\",\"approach-retreat\",\"104\",\"815888\",\"0.0-104.0\",\"\",\"\",\"2-4\",\"4940\",\"39\",\"1\",\"Training\",\"Stims/Figures/94-C-20-2.bmp\",\"za:haha\",\"Right\",\"39\",\"7\",\"5\",\"6A\",\"C2\",\"J\",\"101\"
\"\",\"\",\"approach-retreat\",\"105\",\"821811\",\"0.0-105.0\",\"\",\"\",\"2-4\",\"4413\",\"40\",\"1\",\"Training\",\"Stims/Figures/27-J-0-1.bmp\",\"vafa:sha\",\"Up\",\"40\",\"7\",\"6\",\"6A\",\"C1\",\"J\",\"102\"
\"\",\"\",\"approach-retreat\",\"106\",\"827437\",\"0.0-106.0\",\"\",\"\",\"2-4\",\"4116\",\"40\",\"1\",\"Training\",\"Stims/Figures/144-J-10-3.bmp\",\"fasha:va\",\"Up\",\"40\",\"7\",\"7\",\"6A\",\"C1\",\"J\",\"103\"
\"\",\"\",\"approach-retreat\",\"107\",\"833194\",\"0.0-107.0\",\"\",\"\",\"2-4\",\"4247\",\"39\",\"1\",\"Training\",\"Stims/Figures/118-C-20-2.bmp\",\"sa:saha\",\"Right\",\"39\",\"7\",\"8\",\"6A\",\"C2\",\"J\",\"104\"
\"\",\"\",\"approach-retreat\",\"108\",\"839220\",\"0.0-108.0\",\"\",\"\",\"2-4\",\"4518\",\"39\",\"1\",\"Training\",\"Stims/Figures/87-J-10-4.bmp\",\"fashasha\",\"Left\",\"39\",\"7\",\"9\",\"6A\",\"C1\",\"J\",\"105\"
\"\",\"\",\"approach-retreat\",\"109\",\"845210\",\"0.0-109.0\",\"\",\"\",\"2-4\",\"4481\",\"40\",\"1\",\"Training\",\"Stims/Figures/102-C-20-4.bmp\",\"sasa:za\",\"Down\",\"40\",\"7\",\"10\",\"6A\",\"C2\",\"J\",\"106\"
\"\",\"\",\"approach-retreat\",\"110\",\"851617\",\"0.0-110.0\",\"\",\"\",\"2-4\",\"4898\",\"37\",\"1\",\"Training\",\"Stims/Figures/118-J-0-2.bmp\",\"vasha:sha\",\"Right\",\"37\",\"7\",\"11\",\"6A\",\"C1\",\"J\",\"107\"
\"\",\"\",\"approach-retreat\",\"111\",\"857924\",\"0.0-111.0\",\"\",\"\",\"2-4\",\"4792\",\"39\",\"1\",\"Training\",\"Stims/Figures/100-C-30-3.bmp\",\"sa:haha\",\"Right\",\"39\",\"7\",\"12\",\"6A\",\"C2\",\"J\",\"108\"
\"\",\"\",\"approach-retreat\",\"112\",\"863980\",\"0.0-112.0\",\"\",\"\",\"2-4\",\"4547\",\"38\",\"1\",\"Training\",\"Stims/Figures/57-J-0-1.bmp\",\"va:fa:sha\",\"Down\",\"38\",\"7\",\"13\",\"6A\",\"C1\",\"J\",\"109\"
\"\",\"\",\"approach-retreat\",\"113\",\"871931\",\"0.0-113.0\",\"\",\"\",\"2-4\",\"6436\",\"39\",\"1\",\"Training\",\"Stims/Figures/100-J-10-3.bmp\",\"vafava\",\"Left\",\"39\",\"7\",\"14\",\"6A\",\"C1\",\"J\",\"110\"
\"\",\"\",\"approach-retreat\",\"114\",\"877762\",\"0.0-114.0\",\"\",\"\",\"2-4\",\"4323\",\"37\",\"1\",\"Training\",\"Stims/Figures/27-C-30-1.bmp\",\"saha:za\",\"Left\",\"37\",\"7\",\"15\",\"6A\",\"C2\",\"J\",\"111\"
\"\",\"\",\"approach-retreat\",\"115\",\"883619\",\"0.0-115.0\",\"\",\"\",\"2-4\",\"4353\",\"40\",\"1\",\"Training\",\"Stims/Figures/94-J-0-2.bmp\",\"fafa:va\",\"Up\",\"40\",\"7\",\"16\",\"6A\",\"C1\",\"J\",\"112\"
\"\",\"\",\"approach-retreat\",\"116\",\"889470\",\"0.0-116.0\",\"\",\"\",\"2-4\",\"4340\",\"40\",\"1\",\"Training\",\"Stims/Figures/100-J-10-3.bmp\",\"vafava\",\"Up\",\"40\",\"8\",\"1\",\"6A\",\"C1\",\"J\",\"113\"
\"\",\"\",\"approach-retreat\",\"117\",\"895101\",\"0.0-117.0\",\"\",\"\",\"2-4\",\"4126\",\"37\",\"1\",\"Training\",\"Stims/Figures/27-C-30-1.bmp\",\"saha:za\",\"Left\",\"37\",\"8\",\"2\",\"6A\",\"C2\",\"J\",\"114\"
\"\",\"\",\"approach-retreat\",\"118\",\"900838\",\"0.0-118.0\",\"\",\"\",\"2-4\",\"4226\",\"39\",\"1\",\"Training\",\"Stims/Figures/87-C-20-4.bmp\",\"sahaza\",\"Right\",\"39\",\"8\",\"3\",\"6A\",\"C2\",\"J\",\"115\"
\"\",\"\",\"approach-retreat\",\"119\",\"906620\",\"0.0-119.0\",\"\",\"\",\"2-4\",\"4274\",\"40\",\"1\",\"Training\",\"Stims/Figures/87-J-10-4.bmp\",\"fashasha\",\"Up\",\"40\",\"8\",\"4\",\"6A\",\"C1\",\"J\",\"116\"
\"\",\"\",\"approach-retreat\",\"120\",\"912272\",\"0.0-120.0\",\"\",\"\",\"2-4\",\"4143\",\"38\",\"1\",\"Training\",\"Stims/Figures/144-J-10-3.bmp\",\"fasha:va\",\"Down\",\"38\",\"8\",\"5\",\"6A\",\"C1\",\"J\",\"117\"
\"\",\"\",\"approach-retreat\",\"121\",\"918108\",\"0.0-121.0\",\"\",\"\",\"2-4\",\"4326\",\"38\",\"0\",\"Training\",\"Stims/Figures/100-C-30-3.bmp\",\"sa:haha\",\"Down\",\"40\",\"8\",\"6\",\"6A\",\"C2\",\"J\",\"118\"
\"\",\"\",\"approach-retreat\",\"122\",\"923780\",\"0.0-122.0\",\"\",\"\",\"2-4\",\"4163\",\"38\",\"1\",\"Training\",\"Stims/Figures/118-J-0-2.bmp\",\"vasha:sha\",\"Down\",\"38\",\"8\",\"7\",\"6A\",\"C1\",\"J\",\"119\"
\"\",\"\",\"approach-retreat\",\"123\",\"929749\",\"0.0-123.0\",\"\",\"\",\"2-4\",\"4459\",\"37\",\"1\",\"Training\",\"Stims/Figures/102-C-20-4.bmp\",\"sasa:za\",\"Left\",\"37\",\"8\",\"8\",\"6A\",\"C2\",\"J\",\"120\"
\"\",\"\",\"approach-retreat\",\"124\",\"935776\",\"0.0-124.0\",\"\",\"\",\"2-4\",\"4521\",\"40\",\"1\",\"Training\",\"Stims/Figures/144-C-30-3.bmp\",\"zasa:ha\",\"Down\",\"40\",\"8\",\"9\",\"6A\",\"C2\",\"J\",\"121\"
\"\",\"\",\"approach-retreat\",\"125\",\"942250\",\"0.0-125.0\",\"\",\"\",\"2-4\",\"4964\",\"39\",\"1\",\"Training\",\"Stims/Figures/94-C-20-2.bmp\",\"za:haha\",\"Right\",\"39\",\"8\",\"10\",\"6A\",\"C2\",\"J\",\"122\"
\"\",\"\",\"approach-retreat\",\"126\",\"949722\",\"0.0-126.0\",\"\",\"\",\"2-4\",\"5963\",\"37\",\"1\",\"Training\",\"Stims/Figures/94-J-0-2.bmp\",\"fafa:va\",\"Right\",\"37\",\"8\",\"11\",\"6A\",\"C1\",\"J\",\"123\"
\"\",\"\",\"approach-retreat\",\"127\",\"956039\",\"0.0-127.0\",\"\",\"\",\"2-4\",\"4812\",\"37\",\"1\",\"Training\",\"Stims/Figures/27-J-0-1.bmp\",\"vafa:sha\",\"Right\",\"37\",\"8\",\"12\",\"6A\",\"C1\",\"J\",\"124\"
\"\",\"\",\"approach-retreat\",\"128\",\"964037\",\"0.0-128.0\",\"\",\"\",\"2-4\",\"6487\",\"40\",\"1\",\"Training\",\"Stims/Figures/102-J-10-4.bmp\",\"fa:fasha\",\"Up\",\"40\",\"8\",\"13\",\"6A\",\"C1\",\"J\",\"125\"
\"\",\"\",\"approach-retreat\",\"129\",\"969655\",\"0.0-129.0\",\"\",\"\",\"2-4\",\"4109\",\"37\",\"1\",\"Training\",\"Stims/Figures/57-C-30-1.bmp\",\"sa:sa:ha\",\"Left\",\"37\",\"8\",\"14\",\"6A\",\"C2\",\"J\",\"126\"
\"\",\"\",\"approach-retreat\",\"130\",\"975307\",\"0.0-130.0\",\"\",\"\",\"2-4\",\"4140\",\"39\",\"1\",\"Training\",\"Stims/Figures/57-J-0-1.bmp\",\"va:fa:sha\",\"Left\",\"39\",\"8\",\"15\",\"6A\",\"C1\",\"J\",\"127\"
\"\",\"\",\"approach-retreat\",\"131\",\"980987\",\"0.0-131.0\",\"\",\"\",\"2-4\",\"4171\",\"38\",\"1\",\"Training\",\"Stims/Figures/118-C-20-2.bmp\",\"sa:saha\",\"Up\",\"38\",\"8\",\"16\",\"6A\",\"C2\",\"J\",\"128\"
\"\",\"\",\"approach-retreat\",\"132\",\"986851\",\"0.0-132.0\",\"\",\"\",\"2-4\",\"4353\",\"37\",\"1\",\"Training\",\"Stims/Figures/57-C-30-1.bmp\",\"sa:sa:ha\",\"Left\",\"37\",\"9\",\"1\",\"6A\",\"C2\",\"J\",\"129\"
\"\",\"\",\"approach-retreat\",\"133\",\"992981\",\"0.0-133.0\",\"\",\"\",\"2-4\",\"4626\",\"39\",\"1\",\"Training\",\"Stims/Figures/87-C-20-4.bmp\",\"sahaza\",\"Right\",\"39\",\"9\",\"2\",\"6A\",\"C2\",\"J\",\"130\"
\"\",\"\",\"approach-retreat\",\"134\",\"998709\",\"0.0-134.0\",\"\",\"\",\"2-4\",\"4218\",\"37\",\"1\",\"Training\",\"Stims/Figures/102-J-10-4.bmp\",\"fa:fasha\",\"Right\",\"37\",\"9\",\"3\",\"6A\",\"C1\",\"J\",\"131\"
\"\",\"\",\"approach-retreat\",\"135\",\"1004970\",\"0.0-135.0\",\"\",\"\",\"2-4\",\"4751\",\"39\",\"1\",\"Training\",\"Stims/Figures/87-J-10-4.bmp\",\"fashasha\",\"Left\",\"39\",\"9\",\"4\",\"6A\",\"C1\",\"J\",\"132\"
\"\",\"\",\"approach-retreat\",\"136\",\"1010776\",\"0.0-136.0\",\"\",\"\",\"2-4\",\"4298\",\"40\",\"1\",\"Training\",\"Stims/Figures/118-J-0-2.bmp\",\"vasha:sha\",\"Up\",\"40\",\"9\",\"5\",\"6A\",\"C1\",\"J\",\"133\"
\"\",\"\",\"approach-retreat\",\"137\",\"1016908\",\"0.0-137.0\",\"\",\"\",\"2-4\",\"4621\",\"40\",\"1\",\"Training\",\"Stims/Figures/94-C-20-2.bmp\",\"za:haha\",\"Down\",\"40\",\"9\",\"6\",\"6A\",\"C2\",\"J\",\"134\"
\"\",\"\",\"approach-retreat\",\"138\",\"1025222\",\"0.0-138.0\",\"\",\"\",\"2-4\",\"6806\",\"39\",\"1\",\"Training\",\"Stims/Figures/144-J-10-3.bmp\",\"fasha:va\",\"Left\",\"39\",\"9\",\"7\",\"6A\",\"C1\",\"J\",\"135\"
\"\",\"\",\"approach-retreat\",\"139\",\"1031494\",\"0.0-139.0\",\"\",\"\",\"2-4\",\"4760\",\"39\",\"1\",\"Training\",\"Stims/Figures/118-C-20-2.bmp\",\"sa:saha\",\"Right\",\"39\",\"9\",\"8\",\"6A\",\"C2\",\"J\",\"136\"
\"\",\"\",\"approach-retreat\",\"140\",\"1038420\",\"0.0-140.0\",\"\",\"\",\"2-4\",\"5416\",\"40\",\"1\",\"Training\",\"Stims/Figures/144-C-30-3.bmp\",\"zasa:ha\",\"Down\",\"40\",\"9\",\"9\",\"6A\",\"C2\",\"J\",\"137\"
\"\",\"\",\"approach-retreat\",\"141\",\"1049373\",\"0.0-141.0\",\"\",\"\",\"2-4\",\"9443\",\"38\",\"1\",\"Training\",\"Stims/Figures/100-C-30-3.bmp\",\"sa:haha\",\"Up\",\"38\",\"9\",\"10\",\"6A\",\"C2\",\"J\",\"138\"
\"\",\"\",\"approach-retreat\",\"142\",\"1055268\",\"0.0-142.0\",\"\",\"\",\"2-4\",\"4384\",\"38\",\"1\",\"Training\",\"Stims/Figures/94-J-0-2.bmp\",\"fafa:va\",\"Down\",\"38\",\"9\",\"11\",\"6A\",\"C1\",\"J\",\"139\"
\"\",\"\",\"approach-retreat\",\"143\",\"1061227\",\"0.0-143.0\",\"\",\"\",\"2-4\",\"4449\",\"37\",\"1\",\"Training\",\"Stims/Figures/27-C-30-1.bmp\",\"saha:za\",\"Left\",\"37\",\"9\",\"12\",\"6A\",\"C2\",\"J\",\"140\"
\"\",\"\",\"approach-retreat\",\"144\",\"1067431\",\"0.0-144.0\",\"\",\"\",\"2-4\",\"4695\",\"38\",\"1\",\"Training\",\"Stims/Figures/102-C-20-4.bmp\",\"sasa:za\",\"Up\",\"38\",\"9\",\"13\",\"6A\",\"C2\",\"J\",\"141\"
\"\",\"\",\"approach-retreat\",\"145\",\"1073524\",\"0.0-145.0\",\"\",\"\",\"2-4\",\"4584\",\"37\",\"1\",\"Training\",\"Stims/Figures/57-J-0-1.bmp\",\"va:fa:sha\",\"Right\",\"37\",\"9\",\"14\",\"6A\",\"C1\",\"J\",\"142\"
\"\",\"\",\"approach-retreat\",\"146\",\"1079388\",\"0.0-146.0\",\"\",\"\",\"2-4\",\"4354\",\"38\",\"1\",\"Training\",\"Stims/Figures/100-J-10-3.bmp\",\"vafava\",\"Down\",\"38\",\"9\",\"15\",\"6A\",\"C1\",\"J\",\"143\"
\"\",\"\",\"approach-retreat\",\"147\",\"1085106\",\"0.0-147.0\",\"\",\"\",\"2-4\",\"4210\",\"40\",\"1\",\"Training\",\"Stims/Figures/27-J-0-1.bmp\",\"vafa:sha\",\"Up\",\"40\",\"9\",\"16\",\"6A\",\"C1\",\"J\",\"144\"
\"13431\",\"\",\"instructions\",\"148\",\"1098537\",\"0.0-148.0\",\"[{\"\"page_index\"\":0,\"\"viewing_time\"\":13430}]\",\"\",\"\",\"\",\"\",\"\",\"\",\"\",\"\",\"\",\"\",\"\",\"\",\"\",\"\",\"\",\"\"
\"\",\"\",\"approach-retreat\",\"149\",\"1104709\",\"0.0-149.0\",\"\",\"\",\"2-4\",\"4664\",\"39\",\"0\",\"Testing\",\"Stims/Figures/87-J-10-4.bmp\",\"fashasha\",\"Right\",\"37\",\"1\",\"1\",\"6A\",\"C1\",\"J\",\"1\"
\"\",\"\",\"approach-retreat\",\"150\",\"1114252\",\"0.0-150.0\",\"\",\"\",\"2-4\",\"8035\",\"40\",\"0\",\"Testing\",\"Stims/Figures/139-J-0-2.bmp\",\"va:shasha\",\"Down\",\"38\",\"1\",\"2\",\"6A\",\"C1\",\"J\",\"2\"
\"\",\"\",\"approach-retreat\",\"151\",\"1121384\",\"0.0-151.0\",\"\",\"\",\"2-4\",\"5625\",\"40\",\"1\",\"Testing\",\"Stims/Figures/7-J-10-4.bmp\",\"fa:shava\",\"Up\",\"40\",\"1\",\"3\",\"6A\",\"C1\",\"J\",\"3\"
\"\",\"\",\"approach-retreat\",\"152\",\"1127501\",\"0.0-152.0\",\"\",\"\",\"2-4\",\"4609\",\"39\",\"1\",\"Testing\",\"Stims/Figures/94-J-0-2.bmp\",\"fafa:va\",\"Left\",\"39\",\"1\",\"4\",\"6A\",\"C1\",\"J\",\"4\"
\"\",\"\",\"approach-retreat\",\"153\",\"1134661\",\"0.0-153.0\",\"\",\"\",\"2-4\",\"5652\",\"38\",\"1\",\"Testing\",\"Stims/Figures/118-J-0-2.bmp\",\"vasha:sha\",\"Down\",\"38\",\"1\",\"5\",\"6A\",\"C1\",\"J\",\"5\"
\"\",\"\",\"approach-retreat\",\"154\",\"1140954\",\"0.0-154.0\",\"\",\"\",\"2-4\",\"4786\",\"40\",\"1\",\"Testing\",\"Stims/Figures/100-C-30-3.bmp\",\"sa:haha\",\"Down\",\"40\",\"1\",\"6\",\"6A\",\"C2\",\"J\",\"6\"
\"\",\"\",\"approach-retreat\",\"155\",\"1146647\",\"0.0-155.0\",\"\",\"\",\"2-4\",\"4184\",\"39\",\"1\",\"Testing\",\"Stims/Figures/27-J-0-1.bmp\",\"vafa:sha\",\"Left\",\"39\",\"1\",\"7\",\"6A\",\"C1\",\"J\",\"7\"
\"\",\"\",\"approach-retreat\",\"156\",\"1152540\",\"0.0-156.0\",\"\",\"\",\"2-4\",\"4386\",\"37\",\"0\",\"Testing\",\"Stims/Figures/57-C-30-1.bmp\",\"sa:sa:ha\",\"Right\",\"39\",\"1\",\"8\",\"6A\",\"C2\",\"J\",\"8\"
\"\",\"\",\"approach-retreat\",\"157\",\"1158329\",\"0.0-157.0\",\"\",\"\",\"2-4\",\"4280\",\"38\",\"1\",\"Testing\",\"Stims/Figures/144-C-30-3.bmp\",\"zasa:ha\",\"Up\",\"38\",\"1\",\"9\",\"6A\",\"C2\",\"J\",\"9\"
\"\",\"\",\"approach-retreat\",\"158\",\"1164370\",\"0.0-158.0\",\"\",\"\",\"2-4\",\"4534\",\"37\",\"0\",\"Testing\",\"Stims/Figures/86-C-30-1.bmp\",\"za:saza\",\"Right\",\"39\",\"1\",\"10\",\"6A\",\"C2\",\"J\",\"10\"
\"\",\"\",\"approach-retreat\",\"159\",\"1170126\",\"0.0-159.0\",\"\",\"\",\"2-4\",\"4249\",\"39\",\"1\",\"Testing\",\"Stims/Figures/27-C-30-1.bmp\",\"saha:za\",\"Right\",\"39\",\"1\",\"11\",\"6A\",\"C2\",\"J\",\"11\"
\"\",\"\",\"approach-retreat\",\"160\",\"1176453\",\"0.0-160.0\",\"\",\"\",\"2-4\",\"4819\",\"39\",\"0\",\"Testing\",\"Stims/Figures/144-J-10-3.bmp\",\"fasha:va\",\"Right\",\"37\",\"1\",\"12\",\"6A\",\"C1\",\"J\",\"12\"
\"\",\"\",\"approach-retreat\",\"161\",\"1183770\",\"0.0-161.0\",\"\",\"\",\"2-4\",\"5809\",\"38\",\"0\",\"Testing\",\"Stims/Figures/111-C-30-3.bmp\",\"zaha:ha\",\"Down\",\"40\",\"1\",\"13\",\"6A\",\"C2\",\"J\",\"13\"
\"\",\"\",\"approach-retreat\",\"162\",\"1189864\",\"0.0-162.0\",\"\",\"\",\"2-4\",\"4585\",\"39\",\"1\",\"Testing\",\"Stims/Figures/57-J-0-1.bmp\",\"va:fa:sha\",\"Left\",\"39\",\"1\",\"14\",\"6A\",\"C1\",\"J\",\"14\"
\"\",\"\",\"approach-retreat\",\"163\",\"1195455\",\"0.0-163.0\",\"\",\"\",\"2-4\",\"4087\",\"38\",\"0\",\"Testing\",\"Stims/Figures/7-C-20-4.bmp\",\"za:ha:ha\",\"Down\",\"40\",\"1\",\"15\",\"6A\",\"C2\",\"J\",\"15\"
\"\",\"\",\"approach-retreat\",\"164\",\"1201531\",\"0.0-164.0\",\"\",\"\",\"2-4\",\"4567\",\"38\",\"1\",\"Testing\",\"Stims/Figures/102-C-20-4.bmp\",\"sasa:za\",\"Up\",\"38\",\"1\",\"16\",\"6A\",\"C2\",\"J\",\"16\"
\"\",\"\",\"approach-retreat\",\"165\",\"1210549\",\"0.0-165.0\",\"\",\"\",\"2-4\",\"7505\",\"37\",\"1\",\"Testing\",\"Stims/Figures/87-C-20-4.bmp\",\"sahaza\",\"Left\",\"37\",\"1\",\"17\",\"6A\",\"C2\",\"J\",\"17\"
\"\",\"\",\"approach-retreat\",\"166\",\"1218520\",\"0.0-166.0\",\"\",\"\",\"2-4\",\"6461\",\"38\",\"1\",\"Testing\",\"Stims/Figures/118-C-20-2.bmp\",\"sa:saha\",\"Up\",\"38\",\"1\",\"18\",\"6A\",\"C2\",\"J\",\"18\"
\"\",\"\",\"approach-retreat\",\"167\",\"1225660\",\"0.0-167.0\",\"\",\"\",\"2-4\",\"5626\",\"40\",\"1\",\"Testing\",\"Stims/Figures/86-J-0-1.bmp\",\"fashava\",\"Up\",\"40\",\"1\",\"19\",\"6A\",\"C1\",\"J\",\"19\"
\"\",\"\",\"approach-retreat\",\"168\",\"1232233\",\"0.0-168.0\",\"\",\"\",\"2-4\",\"5065\",\"39\",\"0\",\"Testing\",\"Stims/Figures/139-C-20-2.bmp\",\"zasaha\",\"Left\",\"37\",\"1\",\"20\",\"6A\",\"C2\",\"J\",\"20\"
\"\",\"\",\"approach-retreat\",\"169\",\"1238421\",\"0.0-169.0\",\"\",\"\",\"2-4\",\"4681\",\"39\",\"1\",\"Testing\",\"Stims/Figures/94-C-20-2.bmp\",\"za:haha\",\"Right\",\"39\",\"1\",\"21\",\"6A\",\"C2\",\"J\",\"21\"
\"\",\"\",\"approach-retreat\",\"170\",\"1245088\",\"0.0-170.0\",\"\",\"\",\"2-4\",\"5159\",\"38\",\"0\",\"Testing\",\"Stims/Figures/102-J-10-4.bmp\",\"fa:fasha\",\"Up\",\"40\",\"1\",\"22\",\"6A\",\"C1\",\"J\",\"22\"
\"\",\"\",\"approach-retreat\",\"171\",\"1251119\",\"0.0-171.0\",\"\",\"\",\"2-4\",\"4528\",\"40\",\"0\",\"Testing\",\"Stims/Figures/100-J-10-3.bmp\",\"vafava\",\"Down\",\"38\",\"1\",\"23\",\"6A\",\"C1\",\"J\",\"23\"
\"\",\"\",\"approach-retreat\",\"172\",\"1257623\",\"0.0-172.0\",\"\",\"\",\"2-4\",\"4996\",\"37\",\"0\",\"Testing\",\"Stims/Figures/111-J-10-3.bmp\",\"fa:shasha\",\"Left\",\"39\",\"1\",\"24\",\"6A\",\"C1\",\"J\",\"24\"
\"\",\"\",\"approach-retreat\",\"173\",\"1263629\",\"0.0-173.0\",\"\",\"\",\"2-4\",\"4498\",\"38\",\"0\",\"Testing\",\"Stims/Figures/118-J-0-2.bmp\",\"vasha:sha\",\"Up\",\"40\",\"2\",\"1\",\"6A\",\"C1\",\"J\",\"25\"
\"\",\"\",\"approach-retreat\",\"174\",\"1269297\",\"0.0-174.0\",\"\",\"\",\"2-4\",\"4161\",\"38\",\"0\",\"Testing\",\"Stims/Figures/86-C-30-1.bmp\",\"za:saza\",\"Down\",\"40\",\"2\",\"2\",\"6A\",\"C2\",\"J\",\"26\"
\"\",\"\",\"approach-retreat\",\"175\",\"1276775\",\"0.0-175.0\",\"\",\"\",\"2-4\",\"5968\",\"37\",\"0\",\"Testing\",\"Stims/Figures/86-J-0-1.bmp\",\"fashava\",\"Left\",\"39\",\"2\",\"3\",\"6A\",\"C1\",\"J\",\"27\"
\"\",\"\",\"approach-retreat\",\"176\",\"1283490\",\"0.0-176.0\",\"\",\"\",\"2-4\",\"5208\",\"37\",\"0\",\"Testing\",\"Stims/Figures/102-J-10-4.bmp\",\"fa:fasha\",\"Left\",\"39\",\"2\",\"4\",\"6A\",\"C1\",\"J\",\"28\"
\"\",\"\",\"approach-retreat\",\"177\",\"1289262\",\"0.0-177.0\",\"\",\"\",\"2-4\",\"4262\",\"38\",\"1\",\"Testing\",\"Stims/Figures/144-C-30-3.bmp\",\"zasa:ha\",\"Up\",\"38\",\"2\",\"5\",\"6A\",\"C2\",\"J\",\"29\"
\"\",\"\",\"approach-retreat\",\"178\",\"1295698\",\"0.0-178.0\",\"\",\"\",\"2-4\",\"4927\",\"37\",\"1\",\"Testing\",\"Stims/Figures/111-J-10-3.bmp\",\"fa:shasha\",\"Right\",\"37\",\"2\",\"6\",\"6A\",\"C1\",\"J\",\"30\"
\"\",\"\",\"approach-retreat\",\"179\",\"1301513\",\"0.0-179.0\",\"\",\"\",\"2-4\",\"4307\",\"39\",\"0\",\"Testing\",\"Stims/Figures/27-J-0-1.bmp\",\"vafa:sha\",\"Right\",\"37\",\"2\",\"7\",\"6A\",\"C1\",\"J\",\"31\"
\"\",\"\",\"approach-retreat\",\"180\",\"1307390\",\"0.0-180.0\",\"\",\"\",\"2-4\",\"4369\",\"40\",\"1\",\"Testing\",\"Stims/Figures/94-C-20-2.bmp\",\"za:haha\",\"Down\",\"40\",\"2\",\"8\",\"6A\",\"C2\",\"J\",\"32\"
\"\",\"\",\"approach-retreat\",\"181\",\"1313415\",\"0.0-181.0\",\"\",\"\",\"2-4\",\"4515\",\"37\",\"0\",\"Testing\",\"Stims/Figures/144-J-10-3.bmp\",\"fasha:va\",\"Left\",\"39\",\"2\",\"9\",\"6A\",\"C1\",\"J\",\"33\"
\"\",\"\",\"approach-retreat\",\"182\",\"1319872\",\"0.0-182.0\",\"\",\"\",\"2-4\",\"4952\",\"40\",\"0\",\"Testing\",\"Stims/Figures/139-J-0-2.bmp\",\"va:shasha\",\"Down\",\"38\",\"2\",\"10\",\"6A\",\"C1\",\"J\",\"34\"
\"\",\"\",\"approach-retreat\",\"183\",\"1326034\",\"0.0-183.0\",\"\",\"\",\"2-4\",\"4652\",\"40\",\"0\",\"Testing\",\"Stims/Figures/139-C-20-2.bmp\",\"zasaha\",\"Up\",\"38\",\"2\",\"11\",\"6A\",\"C2\",\"J\",\"35\"
\"\",\"\",\"approach-retreat\",\"184\",\"1331652\",\"0.0-184.0\",\"\",\"\",\"2-4\",\"4111\",\"38\",\"1\",\"Testing\",\"Stims/Figures/100-J-10-3.bmp\",\"vafava\",\"Down\",\"38\",\"2\",\"12\",\"6A\",\"C1\",\"J\",\"36\"
\"\",\"\",\"approach-retreat\",\"185\",\"1337635\",\"0.0-185.0\",\"\",\"\",\"2-4\",\"4476\",\"39\",\"0\",\"Testing\",\"Stims/Figures/87-J-10-4.bmp\",\"fashasha\",\"Right\",\"37\",\"2\",\"13\",\"6A\",\"C1\",\"J\",\"37\"
\"\",\"\",\"approach-retreat\",\"186\",\"1344399\",\"0.0-186.0\",\"\",\"\",\"2-4\",\"5254\",\"39\",\"0\",\"Testing\",\"Stims/Figures/57-C-30-1.bmp\",\"sa:sa:ha\",\"Left\",\"37\",\"2\",\"14\",\"6A\",\"C2\",\"J\",\"38\"
\"\",\"\",\"approach-retreat\",\"187\",\"1352009\",\"0.0-187.0\",\"\",\"\",\"2-4\",\"6101\",\"37\",\"0\",\"Testing\",\"Stims/Figures/57-J-0-1.bmp\",\"va:fa:sha\",\"Left\",\"39\",\"2\",\"15\",\"6A\",\"C1\",\"J\",\"39\"
\"\",\"\",\"approach-retreat\",\"188\",\"1357667\",\"0.0-188.0\",\"\",\"\",\"2-4\",\"4151\",\"38\",\"1\",\"Testing\",\"Stims/Figures/7-J-10-4.bmp\",\"fa:shava\",\"Down\",\"38\",\"2\",\"16\",\"6A\",\"C1\",\"J\",\"40\"
\"\",\"\",\"approach-retreat\",\"189\",\"1363297\",\"0.0-189.0\",\"\",\"\",\"2-4\",\"4122\",\"38\",\"1\",\"Testing\",\"Stims/Figures/94-J-0-2.bmp\",\"fafa:va\",\"Down\",\"38\",\"2\",\"17\",\"6A\",\"C1\",\"J\",\"41\"
\"\",\"\",\"approach-retreat\",\"190\",\"1369116\",\"0.0-190.0\",\"\",\"\",\"2-4\",\"4311\",\"40\",\"0\",\"Testing\",\"Stims/Figures/111-C-30-3.bmp\",\"zaha:ha\",\"Up\",\"38\",\"2\",\"18\",\"6A\",\"C2\",\"J\",\"42\"
\"\",\"\",\"approach-retreat\",\"191\",\"1376109\",\"0.0-191.0\",\"\",\"\",\"2-4\",\"5486\",\"39\",\"1\",\"Testing\",\"Stims/Figures/102-C-20-4.bmp\",\"sasa:za\",\"Right\",\"39\",\"2\",\"19\",\"6A\",\"C2\",\"J\",\"43\"
\"\",\"\",\"approach-retreat\",\"192\",\"1381887\",\"0.0-192.0\",\"\",\"\",\"2-4\",\"4271\",\"39\",\"1\",\"Testing\",\"Stims/Figures/118-C-20-2.bmp\",\"sa:saha\",\"Right\",\"39\",\"2\",\"20\",\"6A\",\"C2\",\"J\",\"44\"
\"\",\"\",\"approach-retreat\",\"193\",\"1387525\",\"0.0-193.0\",\"\",\"\",\"2-4\",\"4128\",\"37\",\"0\",\"Testing\",\"Stims/Figures/7-C-20-4.bmp\",\"za:ha:ha\",\"Right\",\"39\",\"2\",\"21\",\"6A\",\"C2\",\"J\",\"45\"
\"\",\"\",\"approach-retreat\",\"194\",\"1394576\",\"0.0-194.0\",\"\",\"\",\"2-4\",\"5544\",\"37\",\"1\",\"Testing\",\"Stims/Figures/27-C-30-1.bmp\",\"saha:za\",\"Left\",\"37\",\"2\",\"22\",\"6A\",\"C2\",\"J\",\"46\"
\"\",\"\",\"approach-retreat\",\"195\",\"1401675\",\"0.0-195.0\",\"\",\"\",\"2-4\",\"5589\",\"38\",\"1\",\"Testing\",\"Stims/Figures/87-C-20-4.bmp\",\"sahaza\",\"Up\",\"38\",\"2\",\"23\",\"6A\",\"C2\",\"J\",\"47\"
\"\",\"\",\"approach-retreat\",\"196\",\"1407308\",\"0.0-196.0\",\"\",\"\",\"2-4\",\"4126\",\"40\",\"0\",\"Testing\",\"Stims/Figures/100-C-30-3.bmp\",\"sa:haha\",\"Up\",\"38\",\"2\",\"24\",\"6A\",\"C2\",\"J\",\"48\"
\"\",\"\",\"approach-retreat\",\"197\",\"1414429\",\"0.0-197.0\",\"\",\"\",\"2-4\",\"5612\",\"38\",\"1\",\"Testing\",\"Stims/Figures/100-J-10-3.bmp\",\"vafava\",\"Down\",\"38\",\"3\",\"1\",\"6A\",\"C1\",\"J\",\"49\"
\"\",\"\",\"approach-retreat\",\"198\",\"1420118\",\"0.0-198.0\",\"\",\"\",\"2-4\",\"4179\",\"37\",\"1\",\"Testing\",\"Stims/Figures/144-C-30-3.bmp\",\"zasa:ha\",\"Left\",\"37\",\"3\",\"2\",\"6A\",\"C2\",\"J\",\"50\"
\"\",\"\",\"approach-retreat\",\"199\",\"1426604\",\"0.0-199.0\",\"\",\"\",\"2-4\",\"4982\",\"39\",\"0\",\"Testing\",\"Stims/Figures/57-J-0-1.bmp\",\"va:fa:sha\",\"Right\",\"37\",\"3\",\"3\",\"6A\",\"C1\",\"J\",\"51\"
\"\",\"\",\"approach-retreat\",\"200\",\"1432969\",\"0.0-200.0\",\"\",\"\",\"2-4\",\"4857\",\"38\",\"0\",\"Testing\",\"Stims/Figures/27-J-0-1.bmp\",\"vafa:sha\",\"Up\",\"40\",\"3\",\"4\",\"6A\",\"C1\",\"J\",\"52\"
\"\",\"\",\"approach-retreat\",\"201\",\"1439098\",\"0.0-201.0\",\"\",\"\",\"2-4\",\"4624\",\"40\",\"0\",\"Testing\",\"Stims/Figures/111-J-10-3.bmp\",\"fa:shasha\",\"Down\",\"38\",\"3\",\"5\",\"6A\",\"C1\",\"J\",\"53\"
\"\",\"\",\"approach-retreat\",\"202\",\"1444818\",\"0.0-202.0\",\"\",\"\",\"2-4\",\"4213\",\"37\",\"0\",\"Testing\",\"Stims/Figures/86-C-30-1.bmp\",\"za:saza\",\"Right\",\"39\",\"3\",\"6\",\"6A\",\"C2\",\"J\",\"54\"
\"\",\"\",\"approach-retreat\",\"203\",\"1450793\",\"0.0-203.0\",\"\",\"\",\"2-4\",\"4465\",\"40\",\"0\",\"Testing\",\"Stims/Figures/118-J-0-2.bmp\",\"vasha:sha\",\"Down\",\"38\",\"3\",\"7\",\"6A\",\"C1\",\"J\",\"55\"
\"\",\"\",\"approach-retreat\",\"204\",\"1456571\",\"0.0-204.0\",\"\",\"\",\"2-4\",\"4269\",\"40\",\"0\",\"Testing\",\"Stims/Figures/144-J-10-3.bmp\",\"fasha:va\",\"Down\",\"38\",\"3\",\"8\",\"6A\",\"C1\",\"J\",\"56\"
\"\",\"\",\"approach-retreat\",\"205\",\"1462231\",\"0.0-205.0\",\"\",\"\",\"2-4\",\"4154\",\"37\",\"0\",\"Testing\",\"Stims/Figures/94-J-0-2.bmp\",\"fafa:va\",\"Left\",\"39\",\"3\",\"9\",\"6A\",\"C1\",\"J\",\"57\"
\"\",\"\",\"approach-retreat\",\"206\",\"1468789\",\"0.0-206.0\",\"\",\"\",\"2-4\",\"5050\",\"37\",\"0\",\"Testing\",\"Stims/Figures/102-J-10-4.bmp\",\"fa:fasha\",\"Left\",\"39\",\"3\",\"10\",\"6A\",\"C1\",\"J\",\"58\"
\"\",\"\",\"approach-retreat\",\"207\",\"1474344\",\"0.0-207.0\",\"\",\"\",\"2-4\",\"4047\",\"39\",\"0\",\"Testing\",\"Stims/Figures/7-C-20-4.bmp\",\"za:ha:ha\",\"Left\",\"37\",\"3\",\"11\",\"6A\",\"C2\",\"J\",\"59\"
\"\",\"\",\"approach-retreat\",\"208\",\"1482550\",\"0.0-208.0\",\"\",\"\",\"2-4\",\"6697\",\"39\",\"1\",\"Testing\",\"Stims/Figures/86-J-0-1.bmp\",\"fashava\",\"Left\",\"39\",\"3\",\"12\",\"6A\",\"C1\",\"J\",\"60\"
\"\",\"\",\"approach-retreat\",\"209\",\"1488861\",\"0.0-209.0\",\"\",\"\",\"2-4\",\"4809\",\"40\",\"1\",\"Testing\",\"Stims/Figures/118-C-20-2.bmp\",\"sa:saha\",\"Down\",\"40\",\"3\",\"13\",\"6A\",\"C2\",\"J\",\"61\"
\"\",\"\",\"approach-retreat\",\"210\",\"1494774\",\"0.0-210.0\",\"\",\"\",\"2-4\",\"4409\",\"39\",\"1\",\"Testing\",\"Stims/Figures/27-C-30-1.bmp\",\"saha:za\",\"Right\",\"39\",\"3\",\"14\",\"6A\",\"C2\",\"J\",\"62\"
\"\",\"\",\"approach-retreat\",\"211\",\"1501363\",\"0.0-211.0\",\"\",\"\",\"2-4\",\"5082\",\"40\",\"0\",\"Testing\",\"Stims/Figures/94-C-20-2.bmp\",\"za:haha\",\"Up\",\"38\",\"3\",\"15\",\"6A\",\"C2\",\"J\",\"63\"
\"\",\"\",\"approach-retreat\",\"212\",\"1506978\",\"0.0-212.0\",\"\",\"\",\"2-4\",\"4107\",\"37\",\"0\",\"Testing\",\"Stims/Figures/139-C-20-2.bmp\",\"zasaha\",\"Right\",\"39\",\"3\",\"16\",\"6A\",\"C2\",\"J\",\"64\"
\"\",\"\",\"approach-retreat\",\"213\",\"1512731\",\"0.0-213.0\",\"\",\"\",\"2-4\",\"4245\",\"40\",\"0\",\"Testing\",\"Stims/Figures/87-J-10-4.bmp\",\"fashasha\",\"Down\",\"38\",\"3\",\"17\",\"6A\",\"C1\",\"J\",\"65\"
\"\",\"\",\"approach-retreat\",\"214\",\"1520048\",\"0.0-214.0\",\"\",\"\",\"2-4\",\"5809\",\"38\",\"1\",\"Testing\",\"Stims/Figures/87-C-20-4.bmp\",\"sahaza\",\"Up\",\"38\",\"3\",\"18\",\"6A\",\"C2\",\"J\",\"66\"
\"\",\"\",\"approach-retreat\",\"215\",\"1525839\",\"0.0-215.0\",\"\",\"\",\"2-4\",\"4285\",\"37\",\"0\",\"Testing\",\"Stims/Figures/57-C-30-1.bmp\",\"sa:sa:ha\",\"Right\",\"39\",\"3\",\"19\",\"6A\",\"C2\",\"J\",\"67\"
\"\",\"\",\"approach-retreat\",\"216\",\"1533438\",\"0.0-216.0\",\"\",\"\",\"2-4\",\"6091\",\"40\",\"1\",\"Testing\",\"Stims/Figures/139-J-0-2.bmp\",\"va:shasha\",\"Up\",\"40\",\"3\",\"20\",\"6A\",\"C1\",\"J\",\"68\"
\"\",\"\",\"approach-retreat\",\"217\",\"1540845\",\"0.0-217.0\",\"\",\"\",\"2-4\",\"5899\",\"37\",\"1\",\"Testing\",\"Stims/Figures/102-C-20-4.bmp\",\"sasa:za\",\"Left\",\"37\",\"3\",\"21\",\"6A\",\"C2\",\"J\",\"69\"
\"\",\"\",\"approach-retreat\",\"218\",\"1546735\",\"0.0-218.0\",\"\",\"\",\"2-4\",\"4381\",\"38\",\"1\",\"Testing\",\"Stims/Figures/100-C-30-3.bmp\",\"sa:haha\",\"Up\",\"38\",\"3\",\"22\",\"6A\",\"C2\",\"J\",\"70\"
\"\",\"\",\"approach-retreat\",\"219\",\"1553324\",\"0.0-219.0\",\"\",\"\",\"2-4\",\"5080\",\"40\",\"1\",\"Testing\",\"Stims/Figures/7-J-10-4.bmp\",\"fa:shava\",\"Up\",\"40\",\"3\",\"23\",\"6A\",\"C1\",\"J\",\"71\"
\"\",\"\",\"approach-retreat\",\"220\",\"1559213\",\"0.0-220.0\",\"\",\"\",\"2-4\",\"4378\",\"39\",\"1\",\"Testing\",\"Stims/Figures/111-C-30-3.bmp\",\"zaha:ha\",\"Right\",\"39\",\"3\",\"24\",\"6A\",\"C2\",\"J\",\"72\"
\"\",\"\",\"approach-retreat\",\"221\",\"1565075\",\"0.0-221.0\",\"\",\"\",\"2-4\",\"4355\",\"38\",\"1\",\"Testing\",\"Stims/Figures/94-J-0-2.bmp\",\"fafa:va\",\"Down\",\"38\",\"4\",\"1\",\"6A\",\"C1\",\"J\",\"73\"
\"\",\"\",\"approach-retreat\",\"222\",\"1571871\",\"0.0-222.0\",\"\",\"\",\"2-4\",\"5287\",\"37\",\"0\",\"Testing\",\"Stims/Figures/87-J-10-4.bmp\",\"fashasha\",\"Left\",\"39\",\"4\",\"2\",\"6A\",\"C1\",\"J\",\"74\"
\"\",\"\",\"approach-retreat\",\"223\",\"1578238\",\"0.0-223.0\",\"\",\"\",\"2-4\",\"4859\",\"39\",\"1\",\"Testing\",\"Stims/Figures/111-C-30-3.bmp\",\"zaha:ha\",\"Right\",\"39\",\"4\",\"3\",\"6A\",\"C2\",\"J\",\"75\"
\"\",\"\",\"approach-retreat\",\"224\",\"1585487\",\"0.0-224.0\",\"\",\"\",\"2-4\",\"5742\",\"37\",\"1\",\"Testing\",\"Stims/Figures/27-C-30-1.bmp\",\"saha:za\",\"Left\",\"37\",\"4\",\"4\",\"6A\",\"C2\",\"J\",\"76\"
\"\",\"\",\"approach-retreat\",\"225\",\"1591507\",\"0.0-225.0\",\"\",\"\",\"2-4\",\"4512\",\"37\",\"1\",\"Testing\",\"Stims/Figures/86-C-30-1.bmp\",\"za:saza\",\"Left\",\"37\",\"4\",\"5\",\"6A\",\"C2\",\"J\",\"77\"
\"\",\"\",\"approach-retreat\",\"226\",\"1597585\",\"0.0-226.0\",\"\",\"\",\"2-4\",\"4568\",\"39\",\"0\",\"Testing\",\"Stims/Figures/144-J-10-3.bmp\",\"fasha:va\",\"Right\",\"37\",\"4\",\"6\",\"6A\",\"C1\",\"J\",\"78\"
\"\",\"\",\"approach-retreat\",\"227\",\"1603432\",\"0.0-227.0\",\"\",\"\",\"2-4\",\"4340\",\"38\",\"0\",\"Testing\",\"Stims/Figures/111-J-10-3.bmp\",\"fa:shasha\",\"Up\",\"40\",\"4\",\"7\",\"6A\",\"C1\",\"J\",\"79\"
\"\",\"\",\"approach-retreat\",\"228\",\"1610520\",\"0.0-228.0\",\"\",\"\",\"2-4\",\"5582\",\"39\",\"0\",\"Testing\",\"Stims/Figures/94-C-20-2.bmp\",\"za:haha\",\"Left\",\"37\",\"4\",\"8\",\"6A\",\"C2\",\"J\",\"80\"
\"\",\"\",\"approach-retreat\",\"229\",\"1616143\",\"0.0-229.0\",\"\",\"\",\"2-4\",\"4112\",\"37\",\"1\",\"Testing\",\"Stims/Figures/86-J-0-1.bmp\",\"fashava\",\"Right\",\"37\",\"4\",\"9\",\"6A\",\"C1\",\"J\",\"81\"
\"\",\"\",\"approach-retreat\",\"230\",\"1623378\",\"0.0-230.0\",\"\",\"\",\"2-4\",\"5729\",\"39\",\"1\",\"Testing\",\"Stims/Figures/102-C-20-4.bmp\",\"sasa:za\",\"Right\",\"39\",\"4\",\"10\",\"6A\",\"C2\",\"J\",\"82\"
\"\",\"\",\"approach-retreat\",\"231\",\"1629640\",\"0.0-231.0\",\"\",\"\",\"2-4\",\"4754\",\"38\",\"1\",\"Testing\",\"Stims/Figures/118-C-20-2.bmp\",\"sa:saha\",\"Up\",\"38\",\"4\",\"11\",\"6A\",\"C2\",\"J\",\"83\"
\"\",\"\",\"approach-retreat\",\"232\",\"1635510\",\"0.0-232.0\",\"\",\"\",\"2-4\",\"4364\",\"40\",\"1\",\"Testing\",\"Stims/Figures/144-C-30-3.bmp\",\"zasa:ha\",\"Down\",\"40\",\"4\",\"12\",\"6A\",\"C2\",\"J\",\"84\"
\"\",\"\",\"approach-retreat\",\"233\",\"1641155\",\"0.0-233.0\",\"\",\"\",\"2-4\",\"4134\",\"38\",\"0\",\"Testing\",\"Stims/Figures/139-C-20-2.bmp\",\"zasaha\",\"Down\",\"40\",\"4\",\"13\",\"6A\",\"C2\",\"J\",\"85\"
\"\",\"\",\"approach-retreat\",\"234\",\"1647391\",\"0.0-234.0\",\"\",\"\",\"2-4\",\"4729\",\"40\",\"1\",\"Testing\",\"Stims/Figures/7-J-10-4.bmp\",\"fa:shava\",\"Up\",\"40\",\"4\",\"14\",\"6A\",\"C1\",\"J\",\"86\"
\"\",\"\",\"approach-retreat\",\"235\",\"1653057\",\"0.0-235.0\",\"\",\"\",\"2-4\",\"4155\",\"40\",\"0\",\"Testing\",\"Stims/Figures/27-J-0-1.bmp\",\"vafa:sha\",\"Down\",\"38\",\"4\",\"15\",\"6A\",\"C1\",\"J\",\"87\"
\"\",\"\",\"approach-retreat\",\"236\",\"1659357\",\"0.0-236.0\",\"\",\"\",\"2-4\",\"4792\",\"38\",\"0\",\"Testing\",\"Stims/Figures/102-J-10-4.bmp\",\"fa:fasha\",\"Up\",\"40\",\"4\",\"16\",\"6A\",\"C1\",\"J\",\"88\"
\"\",\"\",\"approach-retreat\",\"237\",\"1665492\",\"0.0-237.0\",\"\",\"\",\"2-4\",\"4627\",\"38\",\"0\",\"Testing\",\"Stims/Figures/7-C-20-4.bmp\",\"za:ha:ha\",\"Down\",\"40\",\"4\",\"17\",\"6A\",\"C2\",\"J\",\"89\"
\"\",\"\",\"approach-retreat\",\"238\",\"1671352\",\"0.0-238.0\",\"\",\"\",\"2-4\",\"4354\",\"40\",\"0\",\"Testing\",\"Stims/Figures/57-C-30-1.bmp\",\"sa:sa:ha\",\"Up\",\"38\",\"4\",\"18\",\"6A\",\"C2\",\"J\",\"90\"
\"\",\"\",\"approach-retreat\",\"239\",\"1677144\",\"0.0-239.0\",\"\",\"\",\"2-4\",\"4286\",\"37\",\"1\",\"Testing\",\"Stims/Figures/139-J-0-2.bmp\",\"va:shasha\",\"Right\",\"37\",\"4\",\"19\",\"6A\",\"C1\",\"J\",\"91\"
\"\",\"\",\"approach-retreat\",\"240\",\"1682994\",\"0.0-240.0\",\"\",\"\",\"2-4\",\"4343\",\"40\",\"0\",\"Testing\",\"Stims/Figures/57-J-0-1.bmp\",\"va:fa:sha\",\"Down\",\"38\",\"4\",\"20\",\"6A\",\"C1\",\"J\",\"92\"
\"\",\"\",\"approach-retreat\",\"241\",\"1688637\",\"0.0-241.0\",\"\",\"\",\"2-4\",\"4135\",\"38\",\"0\",\"Testing\",\"Stims/Figures/118-J-0-2.bmp\",\"vasha:sha\",\"Up\",\"40\",\"4\",\"21\",\"6A\",\"C1\",\"J\",\"93\"
\"\",\"\",\"approach-retreat\",\"242\",\"1694268\",\"0.0-242.0\",\"\",\"\",\"2-4\",\"4122\",\"37\",\"1\",\"Testing\",\"Stims/Figures/87-C-20-4.bmp\",\"sahaza\",\"Left\",\"37\",\"4\",\"22\",\"6A\",\"C2\",\"J\",\"94\"
\"\",\"\",\"approach-retreat\",\"243\",\"1699712\",\"0.0-243.0\",\"\",\"\",\"2-4\",\"3934\",\"39\",\"1\",\"Testing\",\"Stims/Figures/100-J-10-3.bmp\",\"vafava\",\"Left\",\"39\",\"4\",\"23\",\"6A\",\"C1\",\"J\",\"95\"
\"\",\"\",\"approach-retreat\",\"244\",\"1708365\",\"0.0-244.0\",\"\",\"\",\"2-4\",\"7144\",\"37\",\"0\",\"Testing\",\"Stims/Figures/100-C-30-3.bmp\",\"sa:haha\",\"Right\",\"39\",\"4\",\"24\",\"6A\",\"C2\",\"J\",\"96\"
\"11914\",\"\",\"survey-text\",\"245\",\"1720309\",\"0.0-245.0\",\"\",\"{\"\"Q0\"\":\"\"\"\"}\",\"\",\"\",\"\",\"\",\"\",\"\",\"\",\"\",\"\",\"\",\"\",\"\",\"\",\"\",\"\"
