\"rt\",\"key_press\",\"trial_type\",\"trial_index\",\"time_elapsed\",\"internal_node_id\",\"view_history\",\"responses\",\"Id\",\"Rt\",\"ResKeyCode\",\"ResCorr\",\"TrialType2\",\"Image\",\"Label\",\"Location\",\"CorrectResponse\",\"Block\",\"BlockTrial\",\"Condition\",\"LabelType\",\"Subcondition\",\"trialNum\"
\"40869\",\"32\",\"text\",\"0\",\"40871\",\"0.0-0.0-0.0\",\"\",\"\",\"\",\"\",\"\",\"\",\"\",\"\",\"\",\"\",\"\",\"\",\"\",\"\",\"\",\"\",\"\"
\"117455\",\"\",\"instructions\",\"1\",\"158327\",\"0.0-1.0\",\"[{\"\"page_index\"\":0,\"\"viewing_time\"\":117455}]\",\"\",\"\",\"\",\"\",\"\",\"\",\"\",\"\",\"\",\"\",\"\",\"\",\"\",\"\",\"\",\"\"
\"77354\",\"\",\"survey-multi-choice\",\"2\",\"235704\",\"0.0-2.0\",\"\",\"{\"\"Q0\"\":\"\"Da\"\",\"\"Q1\"\":\"\"Da\"\",\"\"Q2\"\":\"\"Da\"\",\"\"Q3\"\":\"\"Da\"\",\"\"Q4\"\":\"\"Da\"\",\"\"Q5\"\":\"\"Da\"\"}\",\"\",\"\",\"\",\"\",\"\",\"\",\"\",\"\",\"\",\"\",\"\",\"\",\"\",\"\",\"\"
\"\",\"\",\"bio\",\"3\",\"249077\",\"0.0-3.0\",\"\",\"{\"\"age\"\":\"\"20\"\",\"\"gender\"\":\"\"f\"\",\"\"specify\"\":\"\"\"\"}\",\"\",\"\",\"\",\"\",\"\",\"\",\"\",\"\",\"\",\"\",\"\",\"\",\"\",\"\",\"\"
\"\",\"\",\"approach-retreat\",\"4\",\"265602\",\"0.0-4.0\",\"\",\"\",\"1-1\",\"15021\",\"37\",\"1\",\"Training\",\"Stims/Figures/71-C-30-1.bmp\",\"fashava\",\"Right\",\"37\",\"1\",\"1\",\"9\",\"C1\",\"C\",\"1\"
\"\",\"\",\"approach-retreat\",\"5\",\"278770\",\"0.0-5.0\",\"\",\"\",\"1-1\",\"11663\",\"39\",\"0\",\"Training\",\"Stims/Figures/87-J-10-4.bmp\",\"ta:ka:ta\",\"Left\",\"37\",\"1\",\"2\",\"9\",\"P\",\"C\",\"2\"
\"\",\"\",\"approach-retreat\",\"6\",\"287249\",\"0.0-6.0\",\"\",\"\",\"1-1\",\"6975\",\"39\",\"1\",\"Training\",\"Stims/Figures/84-C-20-2.bmp\",\"tapa:ta\",\"Left\",\"39\",\"1\",\"3\",\"9\",\"P\",\"C\",\"3\"
\"\",\"\",\"approach-retreat\",\"7\",\"302113\",\"0.0-7.0\",\"\",\"\",\"1-1\",\"13361\",\"38\",\"1\",\"Training\",\"Stims/Figures/85-J-0-2.bmp\",\"fa:fa:sha\",\"Up\",\"38\",\"1\",\"4\",\"9\",\"C1\",\"C\",\"4\"
\"\",\"\",\"approach-retreat\",\"8\",\"314369\",\"0.0-8.0\",\"\",\"\",\"1-1\",\"10751\",\"40\",\"1\",\"Training\",\"Stims/Figures/100-J-10-3.bmp\",\"sasa:ha\",\"Down\",\"40\",\"1\",\"5\",\"9\",\"C2\",\"C\",\"5\"
\"\",\"\",\"approach-retreat\",\"9\",\"330945\",\"0.0-9.0\",\"\",\"\",\"1-1\",\"15073\",\"38\",\"1\",\"Training\",\"Stims/Figures/128-C-30-3.bmp\",\"ma:mana\",\"Down\",\"38\",\"1\",\"6\",\"9\",\"S\",\"C\",\"6\"
\"\",\"\",\"approach-retreat\",\"10\",\"339938\",\"0.0-10.0\",\"\",\"\",\"1-1\",\"7488\",\"38\",\"1\",\"Training\",\"Stims/Figures/71-J-0-1.bmp\",\"nala:la\",\"Up\",\"38\",\"1\",\"7\",\"9\",\"S\",\"C\",\"7\"
\"\",\"\",\"approach-retreat\",\"11\",\"351235\",\"0.0-11.0\",\"\",\"\",\"1-1\",\"9792\",\"37\",\"0\",\"Training\",\"Stims/Figures/128-J-10-3.bmp\",\"papa:ta\",\"Right\",\"39\",\"1\",\"8\",\"9\",\"P\",\"C\",\"8\"
\"\",\"\",\"approach-retreat\",\"12\",\"360082\",\"0.0-12.0\",\"\",\"\",\"1-1\",\"7342\",\"37\",\"1\",\"Training\",\"Stims/Figures/86-J-0-1.bmp\",\"fafava\",\"Left\",\"37\",\"1\",\"9\",\"9\",\"C1\",\"C\",\"9\"
\"\",\"\",\"approach-retreat\",\"13\",\"375634\",\"0.0-13.0\",\"\",\"\",\"1-1\",\"14047\",\"37\",\"0\",\"Training\",\"Stims/Figures/84-J-0-2.bmp\",\"mala:la\",\"Right\",\"39\",\"1\",\"10\",\"9\",\"S\",\"C\",\"10\"
\"\",\"\",\"approach-retreat\",\"14\",\"389090\",\"0.0-14.0\",\"\",\"\",\"1-1\",\"11951\",\"40\",\"0\",\"Training\",\"Stims/Figures/86-C-30-1.bmp\",\"sa:ha:za\",\"Down\",\"38\",\"1\",\"11\",\"9\",\"C2\",\"C\",\"11\"
\"\",\"\",\"approach-retreat\",\"15\",\"396658\",\"0.0-15.0\",\"\",\"\",\"1-1\",\"6065\",\"38\",\"0\",\"Training\",\"Stims/Figures/100-C-30-3.bmp\",\"tapata\",\"Up\",\"40\",\"1\",\"12\",\"9\",\"P\",\"C\",\"12\"
\"\",\"\",\"approach-retreat\",\"16\",\"407601\",\"0.0-16.0\",\"\",\"\",\"1-1\",\"9439\",\"40\",\"0\",\"Training\",\"Stims/Figures/102-C-20-4.bmp\",\"za:saza\",\"Down\",\"38\",\"1\",\"13\",\"9\",\"C2\",\"C\",\"13\"
\"\",\"\",\"approach-retreat\",\"17\",\"414337\",\"0.0-17.0\",\"\",\"\",\"1-1\",\"5232\",\"39\",\"0\",\"Training\",\"Stims/Figures/85-C-20-2.bmp\",\"zasa:za\",\"Right\",\"37\",\"1\",\"14\",\"9\",\"C2\",\"C\",\"14\"
\"\",\"\",\"approach-retreat\",\"18\",\"421106\",\"0.0-18.0\",\"\",\"\",\"1-1\",\"5265\",\"38\",\"0\",\"Training\",\"Stims/Figures/87-C-20-4.bmp\",\"sa:saza\",\"Up\",\"40\",\"1\",\"15\",\"9\",\"C2\",\"C\",\"15\"
\"\",\"\",\"approach-retreat\",\"19\",\"428241\",\"0.0-19.0\",\"\",\"\",\"1-1\",\"5631\",\"39\",\"0\",\"Training\",\"Stims/Figures/102-J-10-4.bmp\",\"sa:haha\",\"Left\",\"37\",\"1\",\"16\",\"9\",\"C2\",\"C\",\"16\"
\"\",\"\",\"approach-retreat\",\"20\",\"435618\",\"0.0-20.0\",\"\",\"\",\"1-1\",\"5872\",\"39\",\"1\",\"Training\",\"Stims/Figures/87-J-10-4.bmp\",\"ta:ka:ta\",\"Right\",\"39\",\"2\",\"1\",\"9\",\"P\",\"C\",\"17\"
\"\",\"\",\"approach-retreat\",\"21\",\"442257\",\"0.0-21.0\",\"\",\"\",\"1-1\",\"5135\",\"39\",\"0\",\"Training\",\"Stims/Figures/128-J-10-3.bmp\",\"papa:ta\",\"Left\",\"37\",\"2\",\"2\",\"9\",\"P\",\"C\",\"18\"
\"\",\"\",\"approach-retreat\",\"22\",\"448657\",\"0.0-22.0\",\"\",\"\",\"1-1\",\"4896\",\"38\",\"1\",\"Training\",\"Stims/Figures/102-J-10-4.bmp\",\"sa:haha\",\"Up\",\"38\",\"2\",\"3\",\"9\",\"C2\",\"C\",\"19\"
\"\",\"\",\"approach-retreat\",\"23\",\"460754\",\"0.0-23.0\",\"\",\"\",\"1-1\",\"10592\",\"38\",\"0\",\"Training\",\"Stims/Figures/86-C-30-1.bmp\",\"sa:ha:za\",\"Up\",\"40\",\"2\",\"4\",\"9\",\"C2\",\"C\",\"20\"
\"\",\"\",\"approach-retreat\",\"24\",\"467441\",\"0.0-24.0\",\"\",\"\",\"1-1\",\"5183\",\"38\",\"1\",\"Training\",\"Stims/Figures/85-C-20-2.bmp\",\"zasa:za\",\"Down\",\"38\",\"2\",\"5\",\"9\",\"C2\",\"C\",\"21\"
\"\",\"\",\"approach-retreat\",\"25\",\"473970\",\"0.0-25.0\",\"\",\"\",\"1-1\",\"5024\",\"37\",\"0\",\"Training\",\"Stims/Figures/84-J-0-2.bmp\",\"mala:la\",\"Right\",\"39\",\"2\",\"6\",\"9\",\"S\",\"C\",\"22\"
\"\",\"\",\"approach-retreat\",\"26\",\"480146\",\"0.0-26.0\",\"\",\"\",\"1-1\",\"4672\",\"38\",\"0\",\"Training\",\"Stims/Figures/100-J-10-3.bmp\",\"sasa:ha\",\"Down\",\"40\",\"2\",\"7\",\"9\",\"C2\",\"C\",\"23\"
\"\",\"\",\"approach-retreat\",\"27\",\"487970\",\"0.0-27.0\",\"\",\"\",\"1-1\",\"6319\",\"38\",\"0\",\"Training\",\"Stims/Figures/102-C-20-4.bmp\",\"za:saza\",\"Up\",\"40\",\"2\",\"8\",\"9\",\"C2\",\"C\",\"24\"
\"\",\"\",\"approach-retreat\",\"28\",\"494609\",\"0.0-28.0\",\"\",\"\",\"1-1\",\"5136\",\"37\",\"0\",\"Training\",\"Stims/Figures/87-C-20-4.bmp\",\"sa:saza\",\"Left\",\"39\",\"2\",\"9\",\"9\",\"C2\",\"C\",\"25\"
\"\",\"\",\"approach-retreat\",\"29\",\"500642\",\"0.0-29.0\",\"\",\"\",\"1-1\",\"4528\",\"39\",\"1\",\"Training\",\"Stims/Figures/71-J-0-1.bmp\",\"nala:la\",\"Right\",\"39\",\"2\",\"10\",\"9\",\"S\",\"C\",\"26\"
\"\",\"\",\"approach-retreat\",\"30\",\"506752\",\"0.0-30.0\",\"\",\"\",\"1-1\",\"4606\",\"39\",\"0\",\"Training\",\"Stims/Figures/100-C-30-3.bmp\",\"tapata\",\"Right\",\"37\",\"2\",\"11\",\"9\",\"P\",\"C\",\"27\"
\"\",\"\",\"approach-retreat\",\"31\",\"514578\",\"0.0-31.0\",\"\",\"\",\"1-1\",\"6321\",\"38\",\"1\",\"Training\",\"Stims/Figures/128-C-30-3.bmp\",\"ma:mana\",\"Down\",\"38\",\"2\",\"12\",\"9\",\"S\",\"C\",\"28\"
\"\",\"\",\"approach-retreat\",\"32\",\"522065\",\"0.0-32.0\",\"\",\"\",\"1-1\",\"5982\",\"37\",\"1\",\"Training\",\"Stims/Figures/85-J-0-2.bmp\",\"fa:fa:sha\",\"Left\",\"37\",\"2\",\"13\",\"9\",\"C1\",\"C\",\"29\"
\"\",\"\",\"approach-retreat\",\"33\",\"528738\",\"0.0-33.0\",\"\",\"\",\"1-1\",\"5169\",\"37\",\"0\",\"Training\",\"Stims/Figures/71-C-30-1.bmp\",\"fashava\",\"Left\",\"39\",\"2\",\"14\",\"9\",\"C1\",\"C\",\"30\"
\"\",\"\",\"approach-retreat\",\"34\",\"535570\",\"0.0-34.0\",\"\",\"\",\"1-1\",\"5327\",\"38\",\"1\",\"Training\",\"Stims/Figures/86-J-0-1.bmp\",\"fafava\",\"Up\",\"38\",\"2\",\"15\",\"9\",\"C1\",\"C\",\"31\"
\"\",\"\",\"approach-retreat\",\"35\",\"542275\",\"0.0-35.0\",\"\",\"\",\"1-1\",\"5200\",\"40\",\"0\",\"Training\",\"Stims/Figures/84-C-20-2.bmp\",\"tapa:ta\",\"Down\",\"38\",\"2\",\"16\",\"9\",\"P\",\"C\",\"32\"
\"\",\"\",\"approach-retreat\",\"36\",\"548691\",\"0.0-36.0\",\"\",\"\",\"1-1\",\"4912\",\"39\",\"0\",\"Training\",\"Stims/Figures/85-C-20-2.bmp\",\"zasa:za\",\"Right\",\"37\",\"3\",\"1\",\"9\",\"C2\",\"C\",\"33\"
\"\",\"\",\"approach-retreat\",\"37\",\"555410\",\"0.0-37.0\",\"\",\"\",\"1-1\",\"5217\",\"39\",\"1\",\"Training\",\"Stims/Figures/102-C-20-4.bmp\",\"za:saza\",\"Left\",\"39\",\"3\",\"2\",\"9\",\"C2\",\"C\",\"34\"
\"\",\"\",\"approach-retreat\",\"38\",\"562098\",\"0.0-38.0\",\"\",\"\",\"1-1\",\"5184\",\"39\",\"1\",\"Training\",\"Stims/Figures/128-C-30-3.bmp\",\"ma:mana\",\"Left\",\"39\",\"3\",\"3\",\"9\",\"S\",\"C\",\"35\"
\"\",\"\",\"approach-retreat\",\"39\",\"570082\",\"0.0-39.0\",\"\",\"\",\"1-1\",\"6479\",\"40\",\"0\",\"Training\",\"Stims/Figures/86-C-30-1.bmp\",\"sa:ha:za\",\"Down\",\"38\",\"3\",\"4\",\"9\",\"C2\",\"C\",\"36\"
\"\",\"\",\"approach-retreat\",\"40\",\"576673\",\"0.0-40.0\",\"\",\"\",\"1-1\",\"5086\",\"38\",\"1\",\"Training\",\"Stims/Figures/100-C-30-3.bmp\",\"tapata\",\"Down\",\"38\",\"3\",\"5\",\"9\",\"P\",\"C\",\"37\"
\"\",\"\",\"approach-retreat\",\"41\",\"582930\",\"0.0-41.0\",\"\",\"\",\"1-1\",\"4751\",\"37\",\"1\",\"Training\",\"Stims/Figures/100-J-10-3.bmp\",\"sasa:ha\",\"Left\",\"37\",\"3\",\"6\",\"9\",\"C2\",\"C\",\"38\"
\"\",\"\",\"approach-retreat\",\"42\",\"589137\",\"0.0-42.0\",\"\",\"\",\"1-1\",\"4703\",\"39\",\"1\",\"Training\",\"Stims/Figures/71-J-0-1.bmp\",\"nala:la\",\"Right\",\"39\",\"3\",\"7\",\"9\",\"S\",\"C\",\"39\"
\"\",\"\",\"approach-retreat\",\"43\",\"596098\",\"0.0-43.0\",\"\",\"\",\"1-1\",\"5458\",\"38\",\"0\",\"Training\",\"Stims/Figures/86-J-0-1.bmp\",\"fafava\",\"Down\",\"40\",\"3\",\"8\",\"9\",\"C1\",\"C\",\"40\"
\"\",\"\",\"approach-retreat\",\"44\",\"603522\",\"0.0-44.0\",\"\",\"\",\"1-1\",\"5919\",\"37\",\"1\",\"Training\",\"Stims/Figures/85-J-0-2.bmp\",\"fa:fa:sha\",\"Left\",\"37\",\"3\",\"9\",\"9\",\"C1\",\"C\",\"41\"
\"\",\"\",\"approach-retreat\",\"45\",\"609842\",\"0.0-45.0\",\"\",\"\",\"1-1\",\"4816\",\"37\",\"0\",\"Training\",\"Stims/Figures/128-J-10-3.bmp\",\"papa:ta\",\"Right\",\"39\",\"3\",\"10\",\"9\",\"P\",\"C\",\"42\"
\"\",\"\",\"approach-retreat\",\"46\",\"616993\",\"0.0-46.0\",\"\",\"\",\"1-1\",\"5649\",\"40\",\"0\",\"Training\",\"Stims/Figures/84-J-0-2.bmp\",\"mala:la\",\"Up\",\"38\",\"3\",\"11\",\"9\",\"S\",\"C\",\"43\"
\"\",\"\",\"approach-retreat\",\"47\",\"625058\",\"0.0-47.0\",\"\",\"\",\"1-1\",\"6561\",\"38\",\"1\",\"Training\",\"Stims/Figures/84-C-20-2.bmp\",\"tapa:ta\",\"Down\",\"38\",\"3\",\"12\",\"9\",\"P\",\"C\",\"44\"
\"\",\"\",\"approach-retreat\",\"48\",\"633634\",\"0.0-48.0\",\"\",\"\",\"1-1\",\"7072\",\"38\",\"1\",\"Training\",\"Stims/Figures/87-J-10-4.bmp\",\"ta:ka:ta\",\"Up\",\"38\",\"3\",\"13\",\"9\",\"P\",\"C\",\"45\"
\"\",\"\",\"approach-retreat\",\"49\",\"640082\",\"0.0-49.0\",\"\",\"\",\"1-1\",\"4944\",\"38\",\"1\",\"Training\",\"Stims/Figures/102-J-10-4.bmp\",\"sa:haha\",\"Up\",\"38\",\"3\",\"14\",\"9\",\"C2\",\"C\",\"46\"
\"\",\"\",\"approach-retreat\",\"50\",\"646081\",\"0.0-50.0\",\"\",\"\",\"1-1\",\"4496\",\"37\",\"1\",\"Training\",\"Stims/Figures/71-C-30-1.bmp\",\"fashava\",\"Right\",\"37\",\"3\",\"15\",\"9\",\"C1\",\"C\",\"47\"
\"\",\"\",\"approach-retreat\",\"51\",\"653394\",\"0.0-51.0\",\"\",\"\",\"1-1\",\"5809\",\"40\",\"1\",\"Training\",\"Stims/Figures/87-C-20-4.bmp\",\"sa:saza\",\"Up\",\"40\",\"3\",\"16\",\"9\",\"C2\",\"C\",\"48\"
\"\",\"\",\"approach-retreat\",\"52\",\"662481\",\"0.0-52.0\",\"\",\"\",\"1-1\",\"7583\",\"37\",\"0\",\"Training\",\"Stims/Figures/87-C-20-4.bmp\",\"sa:saza\",\"Left\",\"39\",\"4\",\"1\",\"9\",\"C2\",\"C\",\"49\"
\"\",\"\",\"approach-retreat\",\"53\",\"669826\",\"0.0-53.0\",\"\",\"\",\"1-1\",\"5841\",\"40\",\"1\",\"Training\",\"Stims/Figures/85-J-0-2.bmp\",\"fa:fa:sha\",\"Down\",\"40\",\"4\",\"2\",\"9\",\"C1\",\"C\",\"50\"
\"\",\"\",\"approach-retreat\",\"54\",\"676274\",\"0.0-54.0\",\"\",\"\",\"1-1\",\"4944\",\"39\",\"0\",\"Training\",\"Stims/Figures/128-J-10-3.bmp\",\"papa:ta\",\"Left\",\"37\",\"4\",\"3\",\"9\",\"P\",\"C\",\"51\"
\"\",\"\",\"approach-retreat\",\"55\",\"682307\",\"0.0-55.0\",\"\",\"\",\"1-1\",\"4529\",\"39\",\"0\",\"Training\",\"Stims/Figures/100-C-30-3.bmp\",\"tapata\",\"Right\",\"37\",\"4\",\"4\",\"9\",\"P\",\"C\",\"52\"
\"\",\"\",\"approach-retreat\",\"56\",\"689954\",\"0.0-56.0\",\"\",\"\",\"1-1\",\"6142\",\"40\",\"1\",\"Training\",\"Stims/Figures/128-C-30-3.bmp\",\"ma:mana\",\"Up\",\"40\",\"4\",\"5\",\"9\",\"S\",\"C\",\"53\"
\"\",\"\",\"approach-retreat\",\"57\",\"696994\",\"0.0-57.0\",\"\",\"\",\"1-1\",\"5536\",\"38\",\"1\",\"Training\",\"Stims/Figures/71-J-0-1.bmp\",\"nala:la\",\"Up\",\"38\",\"4\",\"6\",\"9\",\"S\",\"C\",\"54\"
\"\",\"\",\"approach-retreat\",\"58\",\"704610\",\"0.0-58.0\",\"\",\"\",\"1-1\",\"6113\",\"38\",\"1\",\"Training\",\"Stims/Figures/100-J-10-3.bmp\",\"sasa:ha\",\"Up\",\"38\",\"4\",\"7\",\"9\",\"C2\",\"C\",\"55\"
\"\",\"\",\"approach-retreat\",\"59\",\"712658\",\"0.0-59.0\",\"\",\"\",\"1-1\",\"6545\",\"38\",\"1\",\"Training\",\"Stims/Figures/86-C-30-1.bmp\",\"sa:ha:za\",\"Down\",\"38\",\"4\",\"8\",\"9\",\"C2\",\"C\",\"56\"
\"\",\"\",\"approach-retreat\",\"60\",\"719297\",\"0.0-60.0\",\"\",\"\",\"1-1\",\"5136\",\"39\",\"0\",\"Training\",\"Stims/Figures/84-C-20-2.bmp\",\"tapa:ta\",\"Right\",\"37\",\"4\",\"9\",\"9\",\"P\",\"C\",\"57\"
\"\",\"\",\"approach-retreat\",\"61\",\"725970\",\"0.0-61.0\",\"\",\"\",\"1-1\",\"5169\",\"38\",\"0\",\"Training\",\"Stims/Figures/102-J-10-4.bmp\",\"sa:haha\",\"Down\",\"40\",\"4\",\"10\",\"9\",\"C2\",\"C\",\"58\"
\"\",\"\",\"approach-retreat\",\"62\",\"733025\",\"0.0-62.0\",\"\",\"\",\"1-1\",\"5552\",\"38\",\"0\",\"Training\",\"Stims/Figures/71-C-30-1.bmp\",\"fashava\",\"Up\",\"40\",\"4\",\"11\",\"9\",\"C1\",\"C\",\"59\"
\"\",\"\",\"approach-retreat\",\"63\",\"740514\",\"0.0-63.0\",\"\",\"\",\"1-1\",\"5985\",\"37\",\"1\",\"Training\",\"Stims/Figures/84-J-0-2.bmp\",\"mala:la\",\"Left\",\"37\",\"4\",\"12\",\"9\",\"S\",\"C\",\"60\"
\"\",\"\",\"approach-retreat\",\"64\",\"747057\",\"0.0-64.0\",\"\",\"\",\"1-1\",\"5038\",\"39\",\"1\",\"Training\",\"Stims/Figures/86-J-0-1.bmp\",\"fafava\",\"Right\",\"39\",\"4\",\"13\",\"9\",\"C1\",\"C\",\"61\"
\"\",\"\",\"approach-retreat\",\"65\",\"754706\",\"0.0-65.0\",\"\",\"\",\"1-1\",\"6145\",\"40\",\"0\",\"Training\",\"Stims/Figures/102-C-20-4.bmp\",\"za:saza\",\"Down\",\"38\",\"4\",\"14\",\"9\",\"C2\",\"C\",\"62\"
\"\",\"\",\"approach-retreat\",\"66\",\"761202\",\"0.0-66.0\",\"\",\"\",\"1-1\",\"4992\",\"37\",\"1\",\"Training\",\"Stims/Figures/85-C-20-2.bmp\",\"zasa:za\",\"Right\",\"37\",\"4\",\"15\",\"9\",\"C2\",\"C\",\"63\"
\"\",\"\",\"approach-retreat\",\"67\",\"767794\",\"0.0-67.0\",\"\",\"\",\"1-1\",\"5088\",\"37\",\"1\",\"Training\",\"Stims/Figures/87-J-10-4.bmp\",\"ta:ka:ta\",\"Left\",\"37\",\"4\",\"16\",\"9\",\"P\",\"C\",\"64\"
\"\",\"\",\"approach-retreat\",\"68\",\"775314\",\"0.0-68.0\",\"\",\"\",\"1-1\",\"6016\",\"37\",\"1\",\"Training\",\"Stims/Figures/85-C-20-2.bmp\",\"zasa:za\",\"Right\",\"37\",\"5\",\"1\",\"9\",\"C2\",\"C\",\"65\"
\"\",\"\",\"approach-retreat\",\"69\",\"781442\",\"0.0-69.0\",\"\",\"\",\"1-1\",\"4625\",\"39\",\"1\",\"Training\",\"Stims/Figures/84-C-20-2.bmp\",\"tapa:ta\",\"Left\",\"39\",\"5\",\"2\",\"9\",\"P\",\"C\",\"66\"
\"\",\"\",\"approach-retreat\",\"70\",\"788178\",\"0.0-70.0\",\"\",\"\",\"1-1\",\"5231\",\"37\",\"1\",\"Training\",\"Stims/Figures/128-C-30-3.bmp\",\"ma:mana\",\"Right\",\"37\",\"5\",\"3\",\"9\",\"S\",\"C\",\"67\"
\"\",\"\",\"approach-retreat\",\"71\",\"795042\",\"0.0-71.0\",\"\",\"\",\"1-1\",\"5359\",\"37\",\"0\",\"Training\",\"Stims/Figures/71-C-30-1.bmp\",\"fashava\",\"Left\",\"39\",\"5\",\"4\",\"9\",\"C1\",\"C\",\"68\"
\"\",\"\",\"approach-retreat\",\"72\",\"801218\",\"0.0-72.0\",\"\",\"\",\"1-1\",\"4672\",\"38\",\"1\",\"Training\",\"Stims/Figures/71-J-0-1.bmp\",\"nala:la\",\"Up\",\"38\",\"5\",\"5\",\"9\",\"S\",\"C\",\"69\"
\"\",\"\",\"approach-retreat\",\"73\",\"808130\",\"0.0-73.0\",\"\",\"\",\"1-1\",\"5408\",\"39\",\"1\",\"Training\",\"Stims/Figures/102-J-10-4.bmp\",\"sa:haha\",\"Right\",\"39\",\"5\",\"6\",\"9\",\"C2\",\"C\",\"70\"
\"\",\"\",\"approach-retreat\",\"74\",\"817937\",\"0.0-74.0\",\"\",\"\",\"1-1\",\"8303\",\"40\",\"1\",\"Training\",\"Stims/Figures/100-J-10-3.bmp\",\"sasa:ha\",\"Down\",\"40\",\"5\",\"7\",\"9\",\"C2\",\"C\",\"71\"
\"\",\"\",\"approach-retreat\",\"75\",\"824802\",\"0.0-75.0\",\"\",\"\",\"1-1\",\"5361\",\"39\",\"0\",\"Training\",\"Stims/Figures/86-C-30-1.bmp\",\"sa:ha:za\",\"Right\",\"37\",\"5\",\"8\",\"9\",\"C2\",\"C\",\"72\"
\"\",\"\",\"approach-retreat\",\"76\",\"831217\",\"0.0-76.0\",\"\",\"\",\"1-1\",\"4913\",\"37\",\"1\",\"Training\",\"Stims/Figures/85-J-0-2.bmp\",\"fa:fa:sha\",\"Left\",\"37\",\"5\",\"9\",\"9\",\"C1\",\"C\",\"73\"
\"\",\"\",\"approach-retreat\",\"77\",\"837298\",\"0.0-77.0\",\"\",\"\",\"1-1\",\"4576\",\"38\",\"1\",\"Training\",\"Stims/Figures/86-J-0-1.bmp\",\"fafava\",\"Up\",\"38\",\"5\",\"10\",\"9\",\"C1\",\"C\",\"74\"
\"\",\"\",\"approach-retreat\",\"78\",\"844930\",\"0.0-78.0\",\"\",\"\",\"1-1\",\"6129\",\"40\",\"0\",\"Training\",\"Stims/Figures/87-C-20-4.bmp\",\"sa:saza\",\"Down\",\"38\",\"5\",\"11\",\"9\",\"C2\",\"C\",\"75\"
\"\",\"\",\"approach-retreat\",\"79\",\"852722\",\"0.0-79.0\",\"\",\"\",\"1-1\",\"6289\",\"40\",\"0\",\"Training\",\"Stims/Figures/100-C-30-3.bmp\",\"tapata\",\"Down\",\"38\",\"5\",\"12\",\"9\",\"P\",\"C\",\"76\"
\"\",\"\",\"approach-retreat\",\"80\",\"860130\",\"0.0-80.0\",\"\",\"\",\"1-1\",\"5902\",\"38\",\"0\",\"Training\",\"Stims/Figures/84-J-0-2.bmp\",\"mala:la\",\"Down\",\"40\",\"5\",\"13\",\"9\",\"S\",\"C\",\"77\"
\"\",\"\",\"approach-retreat\",\"81\",\"867970\",\"0.0-81.0\",\"\",\"\",\"1-1\",\"6336\",\"40\",\"0\",\"Training\",\"Stims/Figures/128-J-10-3.bmp\",\"papa:ta\",\"Up\",\"38\",\"5\",\"14\",\"9\",\"P\",\"C\",\"78\"
\"\",\"\",\"approach-retreat\",\"82\",\"874129\",\"0.0-82.0\",\"\",\"\",\"1-1\",\"4654\",\"38\",\"1\",\"Training\",\"Stims/Figures/87-J-10-4.bmp\",\"ta:ka:ta\",\"Up\",\"38\",\"5\",\"15\",\"9\",\"P\",\"C\",\"79\"
\"\",\"\",\"approach-retreat\",\"83\",\"880466\",\"0.0-83.0\",\"\",\"\",\"1-1\",\"4833\",\"37\",\"0\",\"Training\",\"Stims/Figures/102-C-20-4.bmp\",\"za:saza\",\"Left\",\"39\",\"5\",\"16\",\"9\",\"C2\",\"C\",\"80\"
\"\",\"\",\"approach-retreat\",\"84\",\"886769\",\"0.0-84.0\",\"\",\"\",\"1-1\",\"4799\",\"38\",\"0\",\"Training\",\"Stims/Figures/87-C-20-4.bmp\",\"sa:saza\",\"Up\",\"40\",\"6\",\"1\",\"9\",\"C2\",\"C\",\"81\"
\"\",\"\",\"approach-retreat\",\"85\",\"893779\",\"0.0-85.0\",\"\",\"\",\"1-1\",\"5506\",\"40\",\"1\",\"Training\",\"Stims/Figures/86-C-30-1.bmp\",\"sa:ha:za\",\"Up\",\"40\",\"6\",\"2\",\"9\",\"C2\",\"C\",\"82\"
\"\",\"\",\"approach-retreat\",\"86\",\"901698\",\"0.0-86.0\",\"\",\"\",\"1-1\",\"6415\",\"40\",\"1\",\"Training\",\"Stims/Figures/102-J-10-4.bmp\",\"sa:haha\",\"Down\",\"40\",\"6\",\"3\",\"9\",\"C2\",\"C\",\"83\"
\"\",\"\",\"approach-retreat\",\"87\",\"908402\",\"0.0-87.0\",\"\",\"\",\"1-1\",\"5200\",\"39\",\"1\",\"Training\",\"Stims/Figures/100-C-30-3.bmp\",\"tapata\",\"Left\",\"39\",\"6\",\"4\",\"9\",\"P\",\"C\",\"84\"
\"\",\"\",\"approach-retreat\",\"88\",\"914482\",\"0.0-88.0\",\"\",\"\",\"1-1\",\"4576\",\"39\",\"1\",\"Training\",\"Stims/Figures/71-C-30-1.bmp\",\"fashava\",\"Left\",\"39\",\"6\",\"5\",\"9\",\"C1\",\"C\",\"85\"
\"\",\"\",\"approach-retreat\",\"89\",\"920914\",\"0.0-89.0\",\"\",\"\",\"1-1\",\"4927\",\"40\",\"0\",\"Training\",\"Stims/Figures/85-C-20-2.bmp\",\"zasa:za\",\"Down\",\"38\",\"6\",\"6\",\"9\",\"C2\",\"C\",\"86\"
\"\",\"\",\"approach-retreat\",\"90\",\"929314\",\"0.0-90.0\",\"\",\"\",\"1-1\",\"6896\",\"38\",\"1\",\"Training\",\"Stims/Figures/86-J-0-1.bmp\",\"fafava\",\"Up\",\"38\",\"6\",\"7\",\"9\",\"C1\",\"C\",\"87\"
\"\",\"\",\"approach-retreat\",\"91\",\"936226\",\"0.0-91.0\",\"\",\"\",\"1-1\",\"5408\",\"37\",\"0\",\"Training\",\"Stims/Figures/71-J-0-1.bmp\",\"nala:la\",\"Right\",\"39\",\"6\",\"8\",\"9\",\"S\",\"C\",\"88\"
\"\",\"\",\"approach-retreat\",\"92\",\"942433\",\"0.0-92.0\",\"\",\"\",\"1-1\",\"4703\",\"39\",\"1\",\"Training\",\"Stims/Figures/128-J-10-3.bmp\",\"papa:ta\",\"Right\",\"39\",\"6\",\"9\",\"9\",\"P\",\"C\",\"89\"
\"\",\"\",\"approach-retreat\",\"93\",\"949730\",\"0.0-93.0\",\"\",\"\",\"1-1\",\"5790\",\"40\",\"1\",\"Training\",\"Stims/Figures/87-J-10-4.bmp\",\"ta:ka:ta\",\"Down\",\"40\",\"6\",\"10\",\"9\",\"P\",\"C\",\"90\"
\"\",\"\",\"approach-retreat\",\"94\",\"956161\",\"0.0-94.0\",\"\",\"\",\"1-1\",\"4927\",\"37\",\"0\",\"Training\",\"Stims/Figures/100-J-10-3.bmp\",\"sasa:ha\",\"Right\",\"39\",\"6\",\"11\",\"9\",\"C2\",\"C\",\"91\"
\"\",\"\",\"approach-retreat\",\"95\",\"963937\",\"0.0-95.0\",\"\",\"\",\"1-1\",\"6272\",\"38\",\"0\",\"Training\",\"Stims/Figures/102-C-20-4.bmp\",\"za:saza\",\"Up\",\"40\",\"6\",\"12\",\"9\",\"C2\",\"C\",\"92\"
\"\",\"\",\"approach-retreat\",\"96\",\"970049\",\"0.0-96.0\",\"\",\"\",\"1-1\",\"4607\",\"37\",\"0\",\"Training\",\"Stims/Figures/128-C-30-3.bmp\",\"ma:mana\",\"Left\",\"39\",\"6\",\"13\",\"9\",\"S\",\"C\",\"93\"
\"\",\"\",\"approach-retreat\",\"97\",\"976337\",\"0.0-97.0\",\"\",\"\",\"1-1\",\"4783\",\"37\",\"1\",\"Training\",\"Stims/Figures/84-J-0-2.bmp\",\"mala:la\",\"Left\",\"37\",\"6\",\"14\",\"9\",\"S\",\"C\",\"94\"
\"\",\"\",\"approach-retreat\",\"98\",\"982897\",\"0.0-98.0\",\"\",\"\",\"1-1\",\"5057\",\"37\",\"1\",\"Training\",\"Stims/Figures/84-C-20-2.bmp\",\"tapa:ta\",\"Right\",\"37\",\"6\",\"15\",\"9\",\"P\",\"C\",\"95\"
\"\",\"\",\"approach-retreat\",\"99\",\"991250\",\"0.0-99.0\",\"\",\"\",\"1-1\",\"6848\",\"40\",\"1\",\"Training\",\"Stims/Figures/85-J-0-2.bmp\",\"fa:fa:sha\",\"Down\",\"40\",\"6\",\"16\",\"9\",\"C1\",\"C\",\"96\"
\"\",\"\",\"approach-retreat\",\"100\",\"997713\",\"0.0-100.0\",\"\",\"\",\"1-1\",\"4960\",\"37\",\"1\",\"Training\",\"Stims/Figures/71-J-0-1.bmp\",\"nala:la\",\"Left\",\"37\",\"7\",\"1\",\"9\",\"S\",\"C\",\"97\"
\"\",\"\",\"approach-retreat\",\"101\",\"1006226\",\"0.0-101.0\",\"\",\"\",\"1-1\",\"7008\",\"38\",\"1\",\"Training\",\"Stims/Figures/85-C-20-2.bmp\",\"zasa:za\",\"Down\",\"38\",\"7\",\"2\",\"9\",\"C2\",\"C\",\"98\"
\"\",\"\",\"approach-retreat\",\"102\",\"1014977\",\"0.0-102.0\",\"\",\"\",\"1-1\",\"7248\",\"38\",\"1\",\"Training\",\"Stims/Figures/87-J-10-4.bmp\",\"ta:ka:ta\",\"Up\",\"38\",\"7\",\"3\",\"9\",\"P\",\"C\",\"99\"
\"\",\"\",\"approach-retreat\",\"103\",\"1022290\",\"0.0-103.0\",\"\",\"\",\"1-1\",\"5808\",\"38\",\"1\",\"Training\",\"Stims/Figures/86-C-30-1.bmp\",\"sa:ha:za\",\"Down\",\"38\",\"7\",\"4\",\"9\",\"C2\",\"C\",\"100\"
\"\",\"\",\"approach-retreat\",\"104\",\"1033458\",\"0.0-104.0\",\"\",\"\",\"1-1\",\"9664\",\"37\",\"0\",\"Training\",\"Stims/Figures/102-C-20-4.bmp\",\"za:saza\",\"Left\",\"39\",\"7\",\"5\",\"9\",\"C2\",\"C\",\"101\"
\"\",\"\",\"approach-retreat\",\"105\",\"1040050\",\"0.0-105.0\",\"\",\"\",\"1-1\",\"5088\",\"38\",\"0\",\"Training\",\"Stims/Figures/100-J-10-3.bmp\",\"sasa:ha\",\"Down\",\"40\",\"7\",\"6\",\"9\",\"C2\",\"C\",\"102\"
\"\",\"\",\"approach-retreat\",\"106\",\"1046642\",\"0.0-106.0\",\"\",\"\",\"1-1\",\"5088\",\"39\",\"1\",\"Training\",\"Stims/Figures/85-J-0-2.bmp\",\"fa:fa:sha\",\"Right\",\"39\",\"7\",\"7\",\"9\",\"C1\",\"C\",\"103\"
\"\",\"\",\"approach-retreat\",\"107\",\"1057458\",\"0.0-107.0\",\"\",\"\",\"1-1\",\"9312\",\"39\",\"1\",\"Training\",\"Stims/Figures/71-C-30-1.bmp\",\"fashava\",\"Left\",\"39\",\"7\",\"8\",\"9\",\"C1\",\"C\",\"104\"
\"\",\"\",\"approach-retreat\",\"108\",\"1065553\",\"0.0-108.0\",\"\",\"\",\"1-1\",\"6591\",\"37\",\"0\",\"Training\",\"Stims/Figures/102-J-10-4.bmp\",\"sa:haha\",\"Right\",\"39\",\"7\",\"9\",\"9\",\"C2\",\"C\",\"105\"
\"\",\"\",\"approach-retreat\",\"109\",\"1072081\",\"0.0-109.0\",\"\",\"\",\"1-1\",\"5025\",\"38\",\"1\",\"Training\",\"Stims/Figures/100-C-30-3.bmp\",\"tapata\",\"Down\",\"38\",\"7\",\"10\",\"9\",\"P\",\"C\",\"106\"
\"\",\"\",\"approach-retreat\",\"110\",\"1078497\",\"0.0-110.0\",\"\",\"\",\"1-1\",\"4912\",\"40\",\"1\",\"Training\",\"Stims/Figures/128-C-30-3.bmp\",\"ma:mana\",\"Up\",\"40\",\"7\",\"11\",\"9\",\"S\",\"C\",\"107\"
\"\",\"\",\"approach-retreat\",\"111\",\"1085139\",\"0.0-111.0\",\"\",\"\",\"1-1\",\"5137\",\"39\",\"0\",\"Training\",\"Stims/Figures/128-J-10-3.bmp\",\"papa:ta\",\"Left\",\"37\",\"7\",\"12\",\"9\",\"P\",\"C\",\"108\"
\"\",\"\",\"approach-retreat\",\"112\",\"1091185\",\"0.0-112.0\",\"\",\"\",\"1-1\",\"4543\",\"39\",\"0\",\"Training\",\"Stims/Figures/84-C-20-2.bmp\",\"tapa:ta\",\"Right\",\"37\",\"7\",\"13\",\"9\",\"P\",\"C\",\"109\"
\"\",\"\",\"approach-retreat\",\"113\",\"1097329\",\"0.0-113.0\",\"\",\"\",\"1-1\",\"4640\",\"38\",\"1\",\"Training\",\"Stims/Figures/86-J-0-1.bmp\",\"fafava\",\"Up\",\"38\",\"7\",\"14\",\"9\",\"C1\",\"C\",\"110\"
\"\",\"\",\"approach-retreat\",\"114\",\"1103457\",\"0.0-114.0\",\"\",\"\",\"1-1\",\"4625\",\"39\",\"1\",\"Training\",\"Stims/Figures/84-J-0-2.bmp\",\"mala:la\",\"Right\",\"39\",\"7\",\"15\",\"9\",\"S\",\"C\",\"111\"
\"\",\"\",\"approach-retreat\",\"115\",\"1109201\",\"0.0-115.0\",\"\",\"\",\"1-1\",\"4240\",\"38\",\"0\",\"Training\",\"Stims/Figures/87-C-20-4.bmp\",\"sa:saza\",\"Up\",\"40\",\"7\",\"16\",\"9\",\"C2\",\"C\",\"112\"
\"\",\"\",\"approach-retreat\",\"116\",\"1115120\",\"0.0-116.0\",\"\",\"\",\"1-1\",\"4414\",\"37\",\"1\",\"Training\",\"Stims/Figures/85-J-0-2.bmp\",\"fa:fa:sha\",\"Left\",\"37\",\"8\",\"1\",\"9\",\"C1\",\"C\",\"113\"
\"\",\"\",\"approach-retreat\",\"117\",\"1121921\",\"0.0-117.0\",\"\",\"\",\"1-1\",\"5298\",\"40\",\"1\",\"Training\",\"Stims/Figures/102-C-20-4.bmp\",\"za:saza\",\"Up\",\"40\",\"8\",\"2\",\"9\",\"C2\",\"C\",\"114\"
\"\",\"\",\"approach-retreat\",\"118\",\"1129810\",\"0.0-118.0\",\"\",\"\",\"1-1\",\"6385\",\"40\",\"1\",\"Training\",\"Stims/Figures/87-J-10-4.bmp\",\"ta:ka:ta\",\"Down\",\"40\",\"8\",\"3\",\"9\",\"P\",\"C\",\"115\"
\"\",\"\",\"approach-retreat\",\"119\",\"1135410\",\"0.0-119.0\",\"\",\"\",\"1-1\",\"4096\",\"37\",\"1\",\"Training\",\"Stims/Figures/71-J-0-1.bmp\",\"nala:la\",\"Left\",\"37\",\"8\",\"4\",\"9\",\"S\",\"C\",\"116\"
\"\",\"\",\"approach-retreat\",\"120\",\"1141218\",\"0.0-120.0\",\"\",\"\",\"1-1\",\"4305\",\"39\",\"0\",\"Training\",\"Stims/Figures/128-J-10-3.bmp\",\"papa:ta\",\"Left\",\"37\",\"8\",\"5\",\"9\",\"P\",\"C\",\"117\"
\"\",\"\",\"approach-retreat\",\"121\",\"1147233\",\"0.0-121.0\",\"\",\"\",\"1-1\",\"4513\",\"38\",\"1\",\"Training\",\"Stims/Figures/84-J-0-2.bmp\",\"mala:la\",\"Up\",\"38\",\"8\",\"6\",\"9\",\"S\",\"C\",\"118\"
\"\",\"\",\"approach-retreat\",\"122\",\"1152784\",\"0.0-122.0\",\"\",\"\",\"1-1\",\"4047\",\"37\",\"0\",\"Training\",\"Stims/Figures/71-C-30-1.bmp\",\"fashava\",\"Left\",\"39\",\"8\",\"7\",\"9\",\"C1\",\"C\",\"119\"
\"\",\"\",\"approach-retreat\",\"123\",\"1158898\",\"0.0-123.0\",\"\",\"\",\"1-1\",\"4608\",\"39\",\"0\",\"Training\",\"Stims/Figures/86-C-30-1.bmp\",\"sa:ha:za\",\"Right\",\"37\",\"8\",\"8\",\"9\",\"C2\",\"C\",\"120\"
\"\",\"\",\"approach-retreat\",\"124\",\"1165890\",\"0.0-124.0\",\"\",\"\",\"1-1\",\"5485\",\"37\",\"1\",\"Training\",\"Stims/Figures/84-C-20-2.bmp\",\"tapa:ta\",\"Right\",\"37\",\"8\",\"9\",\"9\",\"P\",\"C\",\"121\"
\"\",\"\",\"approach-retreat\",\"125\",\"1172163\",\"0.0-125.0\",\"\",\"\",\"1-1\",\"4769\",\"38\",\"1\",\"Training\",\"Stims/Figures/128-C-30-3.bmp\",\"ma:mana\",\"Down\",\"38\",\"8\",\"10\",\"9\",\"S\",\"C\",\"122\"
\"\",\"\",\"approach-retreat\",\"126\",\"1180898\",\"0.0-126.0\",\"\",\"\",\"1-1\",\"7232\",\"38\",\"1\",\"Training\",\"Stims/Figures/100-C-30-3.bmp\",\"tapata\",\"Down\",\"38\",\"8\",\"11\",\"9\",\"P\",\"C\",\"123\"
\"\",\"\",\"approach-retreat\",\"127\",\"1190034\",\"0.0-127.0\",\"\",\"\",\"1-1\",\"7631\",\"38\",\"0\",\"Training\",\"Stims/Figures/87-C-20-4.bmp\",\"sa:saza\",\"Up\",\"40\",\"8\",\"12\",\"9\",\"C2\",\"C\",\"124\"
\"\",\"\",\"approach-retreat\",\"128\",\"1196433\",\"0.0-128.0\",\"\",\"\",\"1-1\",\"4894\",\"38\",\"0\",\"Training\",\"Stims/Figures/100-J-10-3.bmp\",\"sasa:ha\",\"Down\",\"40\",\"8\",\"13\",\"9\",\"C2\",\"C\",\"125\"
\"\",\"\",\"approach-retreat\",\"129\",\"1203345\",\"0.0-129.0\",\"\",\"\",\"1-1\",\"5408\",\"37\",\"1\",\"Training\",\"Stims/Figures/85-C-20-2.bmp\",\"zasa:za\",\"Right\",\"37\",\"8\",\"14\",\"9\",\"C2\",\"C\",\"126\"
\"\",\"\",\"approach-retreat\",\"130\",\"1209953\",\"0.0-130.0\",\"\",\"\",\"1-1\",\"5103\",\"39\",\"1\",\"Training\",\"Stims/Figures/86-J-0-1.bmp\",\"fafava\",\"Right\",\"39\",\"8\",\"15\",\"9\",\"C1\",\"C\",\"127\"
\"\",\"\",\"approach-retreat\",\"131\",\"1217265\",\"0.0-131.0\",\"\",\"\",\"1-1\",\"5808\",\"40\",\"0\",\"Training\",\"Stims/Figures/102-J-10-4.bmp\",\"sa:haha\",\"Up\",\"38\",\"8\",\"16\",\"9\",\"C2\",\"C\",\"128\"
\"\",\"\",\"approach-retreat\",\"132\",\"1223568\",\"0.0-132.0\",\"\",\"\",\"1-1\",\"4799\",\"39\",\"0\",\"Training\",\"Stims/Figures/128-C-30-3.bmp\",\"ma:mana\",\"Right\",\"37\",\"9\",\"1\",\"9\",\"S\",\"C\",\"129\"
\"\",\"\",\"approach-retreat\",\"133\",\"1237217\",\"0.0-133.0\",\"\",\"\",\"1-1\",\"12145\",\"40\",\"0\",\"Training\",\"Stims/Figures/86-J-0-1.bmp\",\"fafava\",\"Up\",\"38\",\"9\",\"2\",\"9\",\"C1\",\"C\",\"130\"
\"\",\"\",\"approach-retreat\",\"134\",\"1243969\",\"0.0-134.0\",\"\",\"\",\"1-1\",\"5247\",\"39\",\"1\",\"Training\",\"Stims/Figures/85-J-0-2.bmp\",\"fa:fa:sha\",\"Right\",\"39\",\"9\",\"3\",\"9\",\"C1\",\"C\",\"131\"
\"\",\"\",\"approach-retreat\",\"135\",\"1249681\",\"0.0-135.0\",\"\",\"\",\"1-1\",\"4207\",\"39\",\"0\",\"Training\",\"Stims/Figures/71-J-0-1.bmp\",\"nala:la\",\"Left\",\"37\",\"9\",\"4\",\"9\",\"S\",\"C\",\"132\"
\"\",\"\",\"approach-retreat\",\"136\",\"1263187\",\"0.0-136.0\",\"\",\"\",\"1-1\",\"12001\",\"40\",\"0\",\"Training\",\"Stims/Figures/128-J-10-3.bmp\",\"papa:ta\",\"Up\",\"38\",\"9\",\"5\",\"9\",\"P\",\"C\",\"133\"
\"\",\"\",\"approach-retreat\",\"137\",\"1269394\",\"0.0-137.0\",\"\",\"\",\"1-1\",\"4703\",\"38\",\"1\",\"Training\",\"Stims/Figures/86-C-30-1.bmp\",\"sa:ha:za\",\"Down\",\"38\",\"9\",\"6\",\"9\",\"C2\",\"C\",\"134\"
\"\",\"\",\"approach-retreat\",\"138\",\"1274977\",\"0.0-138.0\",\"\",\"\",\"1-1\",\"4080\",\"39\",\"0\",\"Training\",\"Stims/Figures/102-C-20-4.bmp\",\"za:saza\",\"Right\",\"37\",\"9\",\"7\",\"9\",\"C2\",\"C\",\"135\"
\"\",\"\",\"approach-retreat\",\"139\",\"1281553\",\"0.0-139.0\",\"\",\"\",\"1-1\",\"5072\",\"37\",\"0\",\"Training\",\"Stims/Figures/85-C-20-2.bmp\",\"zasa:za\",\"Left\",\"39\",\"9\",\"8\",\"9\",\"C2\",\"C\",\"136\"
\"\",\"\",\"approach-retreat\",\"140\",\"1287282\",\"0.0-140.0\",\"\",\"\",\"1-1\",\"4224\",\"39\",\"1\",\"Training\",\"Stims/Figures/87-J-10-4.bmp\",\"ta:ka:ta\",\"Right\",\"39\",\"9\",\"9\",\"9\",\"P\",\"C\",\"137\"
\"\",\"\",\"approach-retreat\",\"141\",\"1293072\",\"0.0-141.0\",\"\",\"\",\"1-1\",\"4287\",\"38\",\"0\",\"Training\",\"Stims/Figures/84-C-20-2.bmp\",\"tapa:ta\",\"Up\",\"40\",\"9\",\"10\",\"9\",\"P\",\"C\",\"138\"
\"\",\"\",\"approach-retreat\",\"142\",\"1301937\",\"0.0-142.0\",\"\",\"\",\"1-1\",\"7361\",\"40\",\"0\",\"Training\",\"Stims/Figures/87-C-20-4.bmp\",\"sa:saza\",\"Down\",\"38\",\"9\",\"11\",\"9\",\"C2\",\"C\",\"139\"
\"\",\"\",\"approach-retreat\",\"143\",\"1307697\",\"0.0-143.0\",\"\",\"\",\"1-1\",\"4254\",\"38\",\"1\",\"Training\",\"Stims/Figures/102-J-10-4.bmp\",\"sa:haha\",\"Up\",\"38\",\"9\",\"12\",\"9\",\"C2\",\"C\",\"140\"
\"\",\"\",\"approach-retreat\",\"144\",\"1313890\",\"0.0-144.0\",\"\",\"\",\"1-1\",\"4688\",\"37\",\"1\",\"Training\",\"Stims/Figures/84-J-0-2.bmp\",\"mala:la\",\"Left\",\"37\",\"9\",\"13\",\"9\",\"S\",\"C\",\"141\"
\"\",\"\",\"approach-retreat\",\"145\",\"1320931\",\"0.0-145.0\",\"\",\"\",\"1-1\",\"5536\",\"37\",\"0\",\"Training\",\"Stims/Figures/100-C-30-3.bmp\",\"tapata\",\"Left\",\"39\",\"9\",\"14\",\"9\",\"P\",\"C\",\"142\"
\"\",\"\",\"approach-retreat\",\"146\",\"1326658\",\"0.0-146.0\",\"\",\"\",\"1-1\",\"4224\",\"38\",\"1\",\"Training\",\"Stims/Figures/71-C-30-1.bmp\",\"fashava\",\"Down\",\"38\",\"9\",\"15\",\"9\",\"C1\",\"C\",\"143\"
\"\",\"\",\"approach-retreat\",\"147\",\"1332402\",\"0.0-147.0\",\"\",\"\",\"1-1\",\"4240\",\"38\",\"0\",\"Training\",\"Stims/Figures/100-J-10-3.bmp\",\"sasa:ha\",\"Down\",\"40\",\"9\",\"16\",\"9\",\"C2\",\"C\",\"144\"
\"19350\",\"\",\"instructions\",\"148\",\"1351752\",\"0.0-148.0\",\"[{\"\"page_index\"\":0,\"\"viewing_time\"\":19348}]\",\"\",\"\",\"\",\"\",\"\",\"\",\"\",\"\",\"\",\"\",\"\",\"\",\"\",\"\",\"\",\"\"
\"\",\"\",\"approach-retreat\",\"149\",\"1362145\",\"0.0-149.0\",\"\",\"\",\"1-1\",\"8892\",\"37\",\"1\",\"Testing\",\"Stims/Figures/100-C-30-3.bmp\",\"tapata\",\"Right\",\"37\",\"1\",\"1\",\"9\",\"P\",\"C\",\"1\"
\"\",\"\",\"approach-retreat\",\"150\",\"1369777\",\"0.0-150.0\",\"\",\"\",\"1-1\",\"6130\",\"40\",\"0\",\"Testing\",\"Stims/Figures/111-C-30-3.bmp\",\"ma:la:la\",\"Down\",\"38\",\"1\",\"2\",\"9\",\"S\",\"C\",\"2\"
\"\",\"\",\"approach-retreat\",\"151\",\"1377249\",\"0.0-151.0\",\"\",\"\",\"1-1\",\"5968\",\"37\",\"1\",\"Testing\",\"Stims/Figures/111-J-10-3.bmp\",\"vafasha\",\"Left\",\"37\",\"1\",\"3\",\"9\",\"C1\",\"C\",\"3\"
\"\",\"\",\"approach-retreat\",\"152\",\"1384097\",\"0.0-152.0\",\"\",\"\",\"1-1\",\"5346\",\"40\",\"0\",\"Testing\",\"Stims/Figures/93-J-0-1.bmp\",\"za:haha\",\"Up\",\"38\",\"1\",\"4\",\"9\",\"C2\",\"C\",\"4\"
\"\",\"\",\"approach-retreat\",\"153\",\"1395154\",\"0.0-153.0\",\"\",\"\",\"1-1\",\"9553\",\"38\",\"0\",\"Testing\",\"Stims/Figures/128-J-10-3.bmp\",\"papa:ta\",\"Down\",\"40\",\"1\",\"5\",\"9\",\"P\",\"C\",\"5\"
\"\",\"\",\"approach-retreat\",\"154\",\"1401970\",\"0.0-154.0\",\"\",\"\",\"1-1\",\"5314\",\"39\",\"0\",\"Testing\",\"Stims/Figures/7-J-10-4.bmp\",\"papa:ka\",\"Left\",\"37\",\"1\",\"6\",\"9\",\"P\",\"C\",\"6\"
\"\",\"\",\"approach-retreat\",\"155\",\"1408546\",\"0.0-155.0\",\"\",\"\",\"1-1\",\"5073\",\"38\",\"1\",\"Testing\",\"Stims/Figures/87-J-10-4.bmp\",\"ta:ka:ta\",\"Up\",\"38\",\"1\",\"7\",\"9\",\"P\",\"C\",\"7\"
\"\",\"\",\"approach-retreat\",\"156\",\"1418002\",\"0.0-156.0\",\"\",\"\",\"1-1\",\"7953\",\"37\",\"1\",\"Testing\",\"Stims/Figures/85-C-20-2.bmp\",\"zasa:za\",\"Right\",\"37\",\"1\",\"8\",\"9\",\"C2\",\"C\",\"8\"
\"\",\"\",\"approach-retreat\",\"157\",\"1424321\",\"0.0-157.0\",\"\",\"\",\"1-1\",\"4817\",\"40\",\"0\",\"Testing\",\"Stims/Figures/7-C-20-4.bmp\",\"pa:pa:ka\",\"Down\",\"38\",\"1\",\"9\",\"9\",\"P\",\"C\",\"9\"
\"\",\"\",\"approach-retreat\",\"158\",\"1430353\",\"0.0-158.0\",\"\",\"\",\"1-1\",\"4529\",\"40\",\"0\",\"Testing\",\"Stims/Figures/87-C-20-4.bmp\",\"sa:saza\",\"Down\",\"38\",\"1\",\"10\",\"9\",\"C2\",\"C\",\"10\"
\"\",\"\",\"approach-retreat\",\"159\",\"1437730\",\"0.0-159.0\",\"\",\"\",\"1-1\",\"5875\",\"37\",\"1\",\"Testing\",\"Stims/Figures/85-J-0-2.bmp\",\"fa:fa:sha\",\"Left\",\"37\",\"1\",\"11\",\"9\",\"C1\",\"C\",\"11\"
\"\",\"\",\"approach-retreat\",\"160\",\"1444081\",\"0.0-160.0\",\"\",\"\",\"1-1\",\"4849\",\"37\",\"0\",\"Testing\",\"Stims/Figures/128-C-30-3.bmp\",\"ma:mana\",\"Left\",\"39\",\"1\",\"12\",\"9\",\"S\",\"C\",\"12\"
\"\",\"\",\"approach-retreat\",\"161\",\"1450417\",\"0.0-161.0\",\"\",\"\",\"1-1\",\"4833\",\"38\",\"1\",\"Testing\",\"Stims/Figures/139-J-0-2.bmp\",\"na:la:na\",\"Up\",\"38\",\"1\",\"13\",\"9\",\"S\",\"C\",\"13\"
\"\",\"\",\"approach-retreat\",\"162\",\"1467697\",\"0.0-162.0\",\"\",\"\",\"1-1\",\"15777\",\"40\",\"1\",\"Testing\",\"Stims/Figures/100-J-10-3.bmp\",\"sasa:ha\",\"Down\",\"40\",\"1\",\"14\",\"9\",\"C2\",\"C\",\"14\"
\"\",\"\",\"approach-retreat\",\"163\",\"1474226\",\"0.0-163.0\",\"\",\"\",\"1-1\",\"5025\",\"37\",\"0\",\"Testing\",\"Stims/Figures/86-C-30-1.bmp\",\"sa:ha:za\",\"Left\",\"39\",\"1\",\"15\",\"9\",\"C2\",\"C\",\"15\"
\"\",\"\",\"approach-retreat\",\"164\",\"1481666\",\"0.0-164.0\",\"\",\"\",\"1-1\",\"5937\",\"40\",\"0\",\"Testing\",\"Stims/Figures/102-C-20-4.bmp\",\"za:saza\",\"Down\",\"38\",\"1\",\"16\",\"9\",\"C2\",\"C\",\"16\"
\"\",\"\",\"approach-retreat\",\"165\",\"1490370\",\"0.0-165.0\",\"\",\"\",\"1-1\",\"7200\",\"38\",\"0\",\"Testing\",\"Stims/Figures/139-C-20-2.bmp\",\"mala:na\",\"Up\",\"40\",\"1\",\"17\",\"9\",\"S\",\"C\",\"17\"
\"\",\"\",\"approach-retreat\",\"166\",\"1496882\",\"0.0-166.0\",\"\",\"\",\"1-1\",\"5008\",\"40\",\"1\",\"Testing\",\"Stims/Figures/93-C-30-1.bmp\",\"ta:kata\",\"Up\",\"40\",\"1\",\"18\",\"9\",\"P\",\"C\",\"18\"
\"\",\"\",\"approach-retreat\",\"167\",\"1503057\",\"0.0-167.0\",\"\",\"\",\"1-1\",\"4669\",\"38\",\"1\",\"Testing\",\"Stims/Figures/86-J-0-1.bmp\",\"fafava\",\"Up\",\"38\",\"1\",\"19\",\"9\",\"C1\",\"C\",\"19\"
\"\",\"\",\"approach-retreat\",\"168\",\"1508705\",\"0.0-168.0\",\"\",\"\",\"1-1\",\"4145\",\"39\",\"1\",\"Testing\",\"Stims/Figures/102-J-10-4.bmp\",\"sa:haha\",\"Right\",\"39\",\"1\",\"20\",\"9\",\"C2\",\"C\",\"20\"
\"\",\"\",\"approach-retreat\",\"169\",\"1514272\",\"0.0-169.0\",\"\",\"\",\"1-1\",\"4065\",\"39\",\"1\",\"Testing\",\"Stims/Figures/71-J-0-1.bmp\",\"nala:la\",\"Right\",\"39\",\"1\",\"21\",\"9\",\"S\",\"C\",\"21\"
\"\",\"\",\"approach-retreat\",\"170\",\"1522370\",\"0.0-170.0\",\"\",\"\",\"1-1\",\"6594\",\"39\",\"0\",\"Testing\",\"Stims/Figures/84-J-0-2.bmp\",\"mala:la\",\"Left\",\"37\",\"1\",\"22\",\"9\",\"S\",\"C\",\"22\"
\"\",\"\",\"approach-retreat\",\"171\",\"1530016\",\"0.0-171.0\",\"\",\"\",\"1-1\",\"6144\",\"39\",\"0\",\"Testing\",\"Stims/Figures/84-C-20-2.bmp\",\"tapa:ta\",\"Right\",\"37\",\"1\",\"23\",\"9\",\"P\",\"C\",\"23\"
\"\",\"\",\"approach-retreat\",\"172\",\"1536433\",\"0.0-172.0\",\"\",\"\",\"1-1\",\"4912\",\"39\",\"0\",\"Testing\",\"Stims/Figures/71-C-30-1.bmp\",\"fashava\",\"Right\",\"37\",\"1\",\"24\",\"9\",\"C1\",\"C\",\"24\"
\"\",\"\",\"approach-retreat\",\"173\",\"1542386\",\"0.0-173.0\",\"\",\"\",\"1-1\",\"4449\",\"39\",\"0\",\"Testing\",\"Stims/Figures/111-C-30-3.bmp\",\"ma:la:la\",\"Right\",\"37\",\"2\",\"1\",\"9\",\"S\",\"C\",\"25\"
\"\",\"\",\"approach-retreat\",\"174\",\"1550610\",\"0.0-174.0\",\"\",\"\",\"1-1\",\"6720\",\"37\",\"1\",\"Testing\",\"Stims/Figures/7-J-10-4.bmp\",\"papa:ka\",\"Left\",\"37\",\"2\",\"2\",\"9\",\"P\",\"C\",\"26\"
\"\",\"\",\"approach-retreat\",\"175\",\"1576786\",\"0.0-175.0\",\"\",\"\",\"1-1\",\"24672\",\"38\",\"1\",\"Testing\",\"Stims/Figures/139-C-20-2.bmp\",\"mala:na\",\"Down\",\"38\",\"2\",\"3\",\"9\",\"S\",\"C\",\"27\"
\"\",\"\",\"approach-retreat\",\"176\",\"1586209\",\"0.0-176.0\",\"\",\"\",\"1-1\",\"7920\",\"39\",\"1\",\"Testing\",\"Stims/Figures/87-J-10-4.bmp\",\"ta:ka:ta\",\"Right\",\"39\",\"2\",\"4\",\"9\",\"P\",\"C\",\"28\"
\"\",\"\",\"approach-retreat\",\"177\",\"1595074\",\"0.0-177.0\",\"\",\"\",\"1-1\",\"7362\",\"38\",\"0\",\"Testing\",\"Stims/Figures/86-C-30-1.bmp\",\"sa:ha:za\",\"Up\",\"40\",\"2\",\"5\",\"9\",\"C2\",\"C\",\"29\"
\"\",\"\",\"approach-retreat\",\"178\",\"1609474\",\"0.0-178.0\",\"\",\"\",\"1-1\",\"12897\",\"39\",\"0\",\"Testing\",\"Stims/Figures/87-C-20-4.bmp\",\"sa:saza\",\"Right\",\"37\",\"2\",\"6\",\"9\",\"C2\",\"C\",\"30\"
\"\",\"\",\"approach-retreat\",\"179\",\"1616785\",\"0.0-179.0\",\"\",\"\",\"1-1\",\"5807\",\"38\",\"0\",\"Testing\",\"Stims/Figures/86-J-0-1.bmp\",\"fafava\",\"Down\",\"40\",\"2\",\"7\",\"9\",\"C1\",\"C\",\"31\"
\"\",\"\",\"approach-retreat\",\"180\",\"1625024\",\"0.0-180.0\",\"\",\"\",\"1-1\",\"6736\",\"40\",\"1\",\"Testing\",\"Stims/Figures/71-J-0-1.bmp\",\"nala:la\",\"Down\",\"40\",\"2\",\"8\",\"9\",\"S\",\"C\",\"32\"
\"\",\"\",\"approach-retreat\",\"181\",\"1651026\",\"0.0-181.0\",\"\",\"\",\"1-1\",\"24499\",\"37\",\"1\",\"Testing\",\"Stims/Figures/128-J-10-3.bmp\",\"papa:ta\",\"Left\",\"37\",\"2\",\"9\",\"9\",\"P\",\"C\",\"33\"
\"\",\"\",\"approach-retreat\",\"182\",\"1669473\",\"0.0-182.0\",\"\",\"\",\"1-1\",\"16945\",\"40\",\"0\",\"Testing\",\"Stims/Figures/84-J-0-2.bmp\",\"mala:la\",\"Up\",\"38\",\"2\",\"10\",\"9\",\"S\",\"C\",\"34\"
\"\",\"\",\"approach-retreat\",\"183\",\"1676833\",\"0.0-183.0\",\"\",\"\",\"1-1\",\"5857\",\"38\",\"1\",\"Testing\",\"Stims/Figures/85-J-0-2.bmp\",\"fa:fa:sha\",\"Up\",\"38\",\"2\",\"11\",\"9\",\"C1\",\"C\",\"35\"
\"\",\"\",\"approach-retreat\",\"184\",\"1687442\",\"0.0-184.0\",\"\",\"\",\"1-1\",\"9106\",\"40\",\"1\",\"Testing\",\"Stims/Figures/139-J-0-2.bmp\",\"na:la:na\",\"Down\",\"40\",\"2\",\"12\",\"9\",\"S\",\"C\",\"36\"
\"\",\"\",\"approach-retreat\",\"185\",\"1707138\",\"0.0-185.0\",\"\",\"\",\"1-1\",\"18194\",\"37\",\"0\",\"Testing\",\"Stims/Figures/102-C-20-4.bmp\",\"za:saza\",\"Left\",\"39\",\"2\",\"13\",\"9\",\"C2\",\"C\",\"37\"
\"\",\"\",\"approach-retreat\",\"186\",\"1717218\",\"0.0-186.0\",\"\",\"\",\"1-1\",\"8578\",\"40\",\"0\",\"Testing\",\"Stims/Figures/85-C-20-2.bmp\",\"zasa:za\",\"Down\",\"38\",\"2\",\"14\",\"9\",\"C2\",\"C\",\"38\"
\"\",\"\",\"approach-retreat\",\"187\",\"1728849\",\"0.0-187.0\",\"\",\"\",\"1-1\",\"10128\",\"38\",\"0\",\"Testing\",\"Stims/Figures/100-C-30-3.bmp\",\"tapata\",\"Up\",\"40\",\"2\",\"15\",\"9\",\"P\",\"C\",\"39\"
\"\",\"\",\"approach-retreat\",\"188\",\"1742033\",\"0.0-188.0\",\"\",\"\",\"1-1\",\"11682\",\"38\",\"1\",\"Testing\",\"Stims/Figures/93-J-0-1.bmp\",\"za:haha\",\"Up\",\"38\",\"2\",\"16\",\"9\",\"C2\",\"C\",\"40\"
\"\",\"\",\"approach-retreat\",\"189\",\"1748689\",\"0.0-189.0\",\"\",\"\",\"1-1\",\"5152\",\"39\",\"1\",\"Testing\",\"Stims/Figures/84-C-20-2.bmp\",\"tapa:ta\",\"Left\",\"39\",\"2\",\"17\",\"9\",\"P\",\"C\",\"41\"
\"\",\"\",\"approach-retreat\",\"190\",\"1756033\",\"0.0-190.0\",\"\",\"\",\"1-1\",\"5840\",\"39\",\"1\",\"Testing\",\"Stims/Figures/102-J-10-4.bmp\",\"sa:haha\",\"Right\",\"39\",\"2\",\"18\",\"9\",\"C2\",\"C\",\"42\"
\"\",\"\",\"approach-retreat\",\"191\",\"1762224\",\"0.0-191.0\",\"\",\"\",\"1-1\",\"4687\",\"38\",\"1\",\"Testing\",\"Stims/Figures/111-J-10-3.bmp\",\"vafasha\",\"Up\",\"38\",\"2\",\"19\",\"9\",\"C1\",\"C\",\"43\"
\"\",\"\",\"approach-retreat\",\"192\",\"1768546\",\"0.0-192.0\",\"\",\"\",\"1-1\",\"4818\",\"37\",\"0\",\"Testing\",\"Stims/Figures/71-C-30-1.bmp\",\"fashava\",\"Left\",\"39\",\"2\",\"20\",\"9\",\"C1\",\"C\",\"44\"
\"\",\"\",\"approach-retreat\",\"193\",\"1781409\",\"0.0-193.0\",\"\",\"\",\"1-1\",\"11360\",\"37\",\"1\",\"Testing\",\"Stims/Figures/7-C-20-4.bmp\",\"pa:pa:ka\",\"Right\",\"37\",\"2\",\"21\",\"9\",\"P\",\"C\",\"45\"
\"\",\"\",\"approach-retreat\",\"194\",\"1788002\",\"0.0-194.0\",\"\",\"\",\"1-1\",\"5088\",\"39\",\"0\",\"Testing\",\"Stims/Figures/128-C-30-3.bmp\",\"ma:mana\",\"Right\",\"37\",\"2\",\"22\",\"9\",\"S\",\"C\",\"46\"
\"\",\"\",\"approach-retreat\",\"195\",\"1794194\",\"0.0-195.0\",\"\",\"\",\"1-1\",\"4690\",\"40\",\"1\",\"Testing\",\"Stims/Figures/100-J-10-3.bmp\",\"sasa:ha\",\"Down\",\"40\",\"2\",\"23\",\"9\",\"C2\",\"C\",\"47\"
\"\",\"\",\"approach-retreat\",\"196\",\"1799985\",\"0.0-196.0\",\"\",\"\",\"1-1\",\"4289\",\"37\",\"0\",\"Testing\",\"Stims/Figures/93-C-30-1.bmp\",\"ta:kata\",\"Left\",\"39\",\"2\",\"24\",\"9\",\"P\",\"C\",\"48\"
\"\",\"\",\"approach-retreat\",\"197\",\"1806866\",\"0.0-197.0\",\"\",\"\",\"1-1\",\"5378\",\"39\",\"0\",\"Testing\",\"Stims/Figures/100-C-30-3.bmp\",\"tapata\",\"Right\",\"37\",\"3\",\"1\",\"9\",\"P\",\"C\",\"49\"
\"\",\"\",\"approach-retreat\",\"198\",\"1813153\",\"0.0-198.0\",\"\",\"\",\"1-1\",\"4783\",\"37\",\"1\",\"Testing\",\"Stims/Figures/139-J-0-2.bmp\",\"na:la:na\",\"Left\",\"37\",\"3\",\"2\",\"9\",\"S\",\"C\",\"50\"
\"\",\"\",\"approach-retreat\",\"199\",\"1820562\",\"0.0-199.0\",\"\",\"\",\"1-1\",\"5904\",\"38\",\"0\",\"Testing\",\"Stims/Figures/7-J-10-4.bmp\",\"papa:ka\",\"Down\",\"40\",\"3\",\"3\",\"9\",\"P\",\"C\",\"51\"
\"\",\"\",\"approach-retreat\",\"200\",\"1826929\",\"0.0-200.0\",\"\",\"\",\"1-1\",\"4864\",\"40\",\"1\",\"Testing\",\"Stims/Figures/85-J-0-2.bmp\",\"fa:fa:sha\",\"Down\",\"40\",\"3\",\"4\",\"9\",\"C1\",\"C\",\"52\"
\"\",\"\",\"approach-retreat\",\"201\",\"1838402\",\"0.0-201.0\",\"\",\"\",\"1-1\",\"9971\",\"40\",\"0\",\"Testing\",\"Stims/Figures/111-C-30-3.bmp\",\"ma:la:la\",\"Down\",\"38\",\"3\",\"5\",\"9\",\"S\",\"C\",\"53\"
\"\",\"\",\"approach-retreat\",\"202\",\"1845121\",\"0.0-202.0\",\"\",\"\",\"1-1\",\"5216\",\"37\",\"1\",\"Testing\",\"Stims/Figures/102-C-20-4.bmp\",\"za:saza\",\"Right\",\"37\",\"3\",\"6\",\"9\",\"C2\",\"C\",\"54\"
\"\",\"\",\"approach-retreat\",\"203\",\"1855921\",\"0.0-203.0\",\"\",\"\",\"1-1\",\"9299\",\"39\",\"1\",\"Testing\",\"Stims/Figures/7-C-20-4.bmp\",\"pa:pa:ka\",\"Left\",\"39\",\"3\",\"7\",\"9\",\"P\",\"C\",\"55\"
\"\",\"\",\"approach-retreat\",\"204\",\"1863313\",\"0.0-204.0\",\"\",\"\",\"1-1\",\"5888\",\"40\",\"1\",\"Testing\",\"Stims/Figures/128-C-30-3.bmp\",\"ma:mana\",\"Up\",\"40\",\"3\",\"8\",\"9\",\"S\",\"C\",\"56\"
\"\",\"\",\"approach-retreat\",\"205\",\"1876177\",\"0.0-205.0\",\"\",\"\",\"1-1\",\"11361\",\"37\",\"0\",\"Testing\",\"Stims/Figures/93-J-0-1.bmp\",\"za:haha\",\"Right\",\"39\",\"3\",\"9\",\"9\",\"C2\",\"C\",\"57\"
\"\",\"\",\"approach-retreat\",\"206\",\"1886673\",\"0.0-206.0\",\"\",\"\",\"1-1\",\"8993\",\"37\",\"1\",\"Testing\",\"Stims/Figures/102-J-10-4.bmp\",\"sa:haha\",\"Left\",\"37\",\"3\",\"10\",\"9\",\"C2\",\"C\",\"58\"
\"\",\"\",\"approach-retreat\",\"207\",\"1893201\",\"0.0-207.0\",\"\",\"\",\"1-1\",\"5025\",\"40\",\"1\",\"Testing\",\"Stims/Figures/111-J-10-3.bmp\",\"vafasha\",\"Down\",\"40\",\"3\",\"11\",\"9\",\"C1\",\"C\",\"59\"
\"\",\"\",\"approach-retreat\",\"208\",\"1903314\",\"0.0-208.0\",\"\",\"\",\"1-1\",\"8609\",\"39\",\"1\",\"Testing\",\"Stims/Figures/85-C-20-2.bmp\",\"zasa:za\",\"Left\",\"39\",\"3\",\"12\",\"9\",\"C2\",\"C\",\"60\"
\"\",\"\",\"approach-retreat\",\"209\",\"1916642\",\"0.0-209.0\",\"\",\"\",\"1-1\",\"11826\",\"38\",\"1\",\"Testing\",\"Stims/Figures/71-J-0-1.bmp\",\"nala:la\",\"Up\",\"38\",\"3\",\"13\",\"9\",\"S\",\"C\",\"61\"
\"\",\"\",\"approach-retreat\",\"210\",\"1922353\",\"0.0-210.0\",\"\",\"\",\"1-1\",\"4208\",\"40\",\"1\",\"Testing\",\"Stims/Figures/139-C-20-2.bmp\",\"mala:na\",\"Up\",\"40\",\"3\",\"14\",\"9\",\"S\",\"C\",\"62\"
\"\",\"\",\"approach-retreat\",\"211\",\"1928081\",\"0.0-211.0\",\"\",\"\",\"1-1\",\"4225\",\"37\",\"1\",\"Testing\",\"Stims/Figures/87-J-10-4.bmp\",\"ta:ka:ta\",\"Left\",\"37\",\"3\",\"15\",\"9\",\"P\",\"C\",\"63\"
\"\",\"\",\"approach-retreat\",\"212\",\"1933841\",\"0.0-212.0\",\"\",\"\",\"1-1\",\"4257\",\"40\",\"0\",\"Testing\",\"Stims/Figures/84-J-0-2.bmp\",\"mala:la\",\"Up\",\"38\",\"3\",\"16\",\"9\",\"S\",\"C\",\"64\"
\"\",\"\",\"approach-retreat\",\"213\",\"1940914\",\"0.0-213.0\",\"\",\"\",\"1-1\",\"5570\",\"37\",\"1\",\"Testing\",\"Stims/Figures/128-J-10-3.bmp\",\"papa:ta\",\"Left\",\"37\",\"3\",\"17\",\"9\",\"P\",\"C\",\"65\"
\"\",\"\",\"approach-retreat\",\"214\",\"1951394\",\"0.0-214.0\",\"\",\"\",\"1-1\",\"8977\",\"38\",\"0\",\"Testing\",\"Stims/Figures/84-C-20-2.bmp\",\"tapa:ta\",\"Up\",\"40\",\"3\",\"18\",\"9\",\"P\",\"C\",\"66\"
\"\",\"\",\"approach-retreat\",\"215\",\"1967010\",\"0.0-215.0\",\"\",\"\",\"1-1\",\"14113\",\"37\",\"0\",\"Testing\",\"Stims/Figures/86-J-0-1.bmp\",\"fafava\",\"Right\",\"39\",\"3\",\"19\",\"9\",\"C1\",\"C\",\"67\"
\"\",\"\",\"approach-retreat\",\"216\",\"1976081\",\"0.0-216.0\",\"\",\"\",\"1-1\",\"7569\",\"40\",\"0\",\"Testing\",\"Stims/Figures/71-C-30-1.bmp\",\"fashava\",\"Down\",\"38\",\"3\",\"20\",\"9\",\"C1\",\"C\",\"68\"
\"\",\"\",\"approach-retreat\",\"217\",\"1982210\",\"0.0-217.0\",\"\",\"\",\"1-1\",\"4625\",\"38\",\"1\",\"Testing\",\"Stims/Figures/100-J-10-3.bmp\",\"sasa:ha\",\"Up\",\"38\",\"3\",\"21\",\"9\",\"C2\",\"C\",\"69\"
\"\",\"\",\"approach-retreat\",\"218\",\"1988561\",\"0.0-218.0\",\"\",\"\",\"1-1\",\"4848\",\"37\",\"1\",\"Testing\",\"Stims/Figures/86-C-30-1.bmp\",\"sa:ha:za\",\"Right\",\"37\",\"3\",\"22\",\"9\",\"C2\",\"C\",\"70\"
\"\",\"\",\"approach-retreat\",\"219\",\"1994337\",\"0.0-219.0\",\"\",\"\",\"1-1\",\"4274\",\"39\",\"0\",\"Testing\",\"Stims/Figures/87-C-20-4.bmp\",\"sa:saza\",\"Right\",\"37\",\"3\",\"23\",\"9\",\"C2\",\"C\",\"71\"
\"\",\"\",\"approach-retreat\",\"220\",\"2003712\",\"0.0-220.0\",\"\",\"\",\"1-1\",\"7872\",\"38\",\"1\",\"Testing\",\"Stims/Figures/93-C-30-1.bmp\",\"ta:kata\",\"Down\",\"38\",\"3\",\"24\",\"9\",\"P\",\"C\",\"72\"
\"\",\"\",\"approach-retreat\",\"221\",\"2010192\",\"0.0-221.0\",\"\",\"\",\"1-1\",\"4978\",\"37\",\"1\",\"Testing\",\"Stims/Figures/86-J-0-1.bmp\",\"fafava\",\"Left\",\"37\",\"4\",\"1\",\"9\",\"C1\",\"C\",\"73\"
\"\",\"\",\"approach-retreat\",\"222\",\"2021009\",\"0.0-222.0\",\"\",\"\",\"1-1\",\"9314\",\"38\",\"1\",\"Testing\",\"Stims/Figures/86-C-30-1.bmp\",\"sa:ha:za\",\"Down\",\"38\",\"4\",\"2\",\"9\",\"C2\",\"C\",\"74\"
\"\",\"\",\"approach-retreat\",\"223\",\"2026641\",\"0.0-223.0\",\"\",\"\",\"1-1\",\"4129\",\"38\",\"0\",\"Testing\",\"Stims/Figures/87-C-20-4.bmp\",\"sa:saza\",\"Up\",\"40\",\"4\",\"3\",\"9\",\"C2\",\"C\",\"75\"
\"\",\"\",\"approach-retreat\",\"224\",\"2032817\",\"0.0-224.0\",\"\",\"\",\"1-1\",\"4672\",\"40\",\"0\",\"Testing\",\"Stims/Figures/111-J-10-3.bmp\",\"vafasha\",\"Up\",\"38\",\"4\",\"4\",\"9\",\"C1\",\"C\",\"76\"
\"\",\"\",\"approach-retreat\",\"225\",\"2039889\",\"0.0-225.0\",\"\",\"\",\"1-1\",\"5569\",\"39\",\"1\",\"Testing\",\"Stims/Figures/85-J-0-2.bmp\",\"fa:fa:sha\",\"Right\",\"39\",\"4\",\"5\",\"9\",\"C1\",\"C\",\"77\"
\"\",\"\",\"approach-retreat\",\"226\",\"2046370\",\"0.0-226.0\",\"\",\"\",\"1-1\",\"4978\",\"40\",\"0\",\"Testing\",\"Stims/Figures/128-J-10-3.bmp\",\"papa:ta\",\"Up\",\"38\",\"4\",\"6\",\"9\",\"P\",\"C\",\"78\"
\"\",\"\",\"approach-retreat\",\"227\",\"2055633\",\"0.0-227.0\",\"\",\"\",\"1-1\",\"7760\",\"40\",\"1\",\"Testing\",\"Stims/Figures/87-J-10-4.bmp\",\"ta:ka:ta\",\"Down\",\"40\",\"4\",\"7\",\"9\",\"P\",\"C\",\"79\"
\"\",\"\",\"approach-retreat\",\"228\",\"2061473\",\"0.0-228.0\",\"\",\"\",\"1-1\",\"4337\",\"39\",\"0\",\"Testing\",\"Stims/Figures/128-C-30-3.bmp\",\"ma:mana\",\"Right\",\"37\",\"4\",\"8\",\"9\",\"S\",\"C\",\"80\"
\"\",\"\",\"approach-retreat\",\"229\",\"2071186\",\"0.0-229.0\",\"\",\"\",\"1-1\",\"8210\",\"38\",\"0\",\"Testing\",\"Stims/Figures/7-J-10-4.bmp\",\"papa:ka\",\"Down\",\"40\",\"4\",\"9\",\"9\",\"P\",\"C\",\"81\"
\"\",\"\",\"approach-retreat\",\"230\",\"2085458\",\"0.0-230.0\",\"\",\"\",\"1-1\",\"12769\",\"37\",\"0\",\"Testing\",\"Stims/Figures/93-C-30-1.bmp\",\"ta:kata\",\"Left\",\"39\",\"4\",\"10\",\"9\",\"P\",\"C\",\"82\"
\"\",\"\",\"approach-retreat\",\"231\",\"2091984\",\"0.0-231.0\",\"\",\"\",\"1-1\",\"5024\",\"37\",\"1\",\"Testing\",\"Stims/Figures/102-J-10-4.bmp\",\"sa:haha\",\"Left\",\"37\",\"4\",\"11\",\"9\",\"C2\",\"C\",\"83\"
\"\",\"\",\"approach-retreat\",\"232\",\"2099153\",\"0.0-232.0\",\"\",\"\",\"1-1\",\"5666\",\"38\",\"1\",\"Testing\",\"Stims/Figures/111-C-30-3.bmp\",\"ma:la:la\",\"Down\",\"38\",\"4\",\"12\",\"9\",\"S\",\"C\",\"84\"
\"\",\"\",\"approach-retreat\",\"233\",\"2108289\",\"0.0-233.0\",\"\",\"\",\"1-1\",\"7631\",\"40\",\"0\",\"Testing\",\"Stims/Figures/102-C-20-4.bmp\",\"za:saza\",\"Down\",\"38\",\"4\",\"13\",\"9\",\"C2\",\"C\",\"85\"
\"\",\"\",\"approach-retreat\",\"234\",\"2132818\",\"0.0-234.0\",\"\",\"\",\"1-1\",\"23025\",\"40\",\"0\",\"Testing\",\"Stims/Figures/100-J-10-3.bmp\",\"sasa:ha\",\"Up\",\"38\",\"4\",\"14\",\"9\",\"C2\",\"C\",\"86\"
\"\",\"\",\"approach-retreat\",\"235\",\"2143634\",\"0.0-235.0\",\"\",\"\",\"1-1\",\"9312\",\"37\",\"0\",\"Testing\",\"Stims/Figures/84-J-0-2.bmp\",\"mala:la\",\"Right\",\"39\",\"4\",\"15\",\"9\",\"S\",\"C\",\"87\"
\"\",\"\",\"approach-retreat\",\"236\",\"2155217\",\"0.0-236.0\",\"\",\"\",\"1-1\",\"10081\",\"37\",\"1\",\"Testing\",\"Stims/Figures/85-C-20-2.bmp\",\"zasa:za\",\"Right\",\"37\",\"4\",\"16\",\"9\",\"C2\",\"C\",\"88\"
\"\",\"\",\"approach-retreat\",\"237\",\"2176513\",\"0.0-237.0\",\"\",\"\",\"1-1\",\"19794\",\"37\",\"1\",\"Testing\",\"Stims/Figures/71-J-0-1.bmp\",\"nala:la\",\"Left\",\"37\",\"4\",\"17\",\"9\",\"S\",\"C\",\"89\"
\"\",\"\",\"approach-retreat\",\"238\",\"2183648\",\"0.0-238.0\",\"\",\"\",\"1-1\",\"5632\",\"40\",\"1\",\"Testing\",\"Stims/Figures/139-C-20-2.bmp\",\"mala:na\",\"Up\",\"40\",\"4\",\"18\",\"9\",\"S\",\"C\",\"90\"
\"\",\"\",\"approach-retreat\",\"239\",\"2191826\",\"0.0-239.0\",\"\",\"\",\"1-1\",\"6674\",\"39\",\"1\",\"Testing\",\"Stims/Figures/7-C-20-4.bmp\",\"pa:pa:ka\",\"Left\",\"39\",\"4\",\"19\",\"9\",\"P\",\"C\",\"91\"
\"\",\"\",\"approach-retreat\",\"240\",\"2197696\",\"0.0-240.0\",\"\",\"\",\"1-1\",\"4368\",\"37\",\"1\",\"Testing\",\"Stims/Figures/84-C-20-2.bmp\",\"tapa:ta\",\"Right\",\"37\",\"4\",\"20\",\"9\",\"P\",\"C\",\"92\"
\"\",\"\",\"approach-retreat\",\"241\",\"2204001\",\"0.0-241.0\",\"\",\"\",\"1-1\",\"4802\",\"39\",\"1\",\"Testing\",\"Stims/Figures/139-J-0-2.bmp\",\"na:la:na\",\"Right\",\"39\",\"4\",\"21\",\"9\",\"S\",\"C\",\"93\"
\"\",\"\",\"approach-retreat\",\"242\",\"2210577\",\"0.0-242.0\",\"\",\"\",\"1-1\",\"5071\",\"40\",\"1\",\"Testing\",\"Stims/Figures/71-C-30-1.bmp\",\"fashava\",\"Up\",\"40\",\"4\",\"22\",\"9\",\"C1\",\"C\",\"94\"
\"\",\"\",\"approach-retreat\",\"243\",\"2216130\",\"0.0-243.0\",\"\",\"\",\"1-1\",\"4049\",\"37\",\"0\",\"Testing\",\"Stims/Figures/100-C-30-3.bmp\",\"tapata\",\"Left\",\"39\",\"4\",\"23\",\"9\",\"P\",\"C\",\"95\"
\"\",\"\",\"approach-retreat\",\"244\",\"2221649\",\"0.0-244.0\",\"\",\"\",\"1-1\",\"4016\",\"40\",\"1\",\"Testing\",\"Stims/Figures/93-J-0-1.bmp\",\"za:haha\",\"Down\",\"40\",\"4\",\"24\",\"9\",\"C2\",\"C\",\"96\"
\"35688\",\"\",\"survey-text\",\"245\",\"2257342\",\"0.0-245.0\",\"\",\"{\"\"Q0\"\":\"\"1426/2017\"\"}\",\"\",\"\",\"\",\"\",\"\",\"\",\"\",\"\",\"\",\"\",\"\",\"\",\"\",\"\",\"\"
