\"rt\",\"key_press\",\"trial_type\",\"trial_index\",\"time_elapsed\",\"internal_node_id\",\"view_history\",\"responses\",\"Id\",\"Rt\",\"ResKeyCode\",\"ResCorr\",\"TrialType2\",\"Image\",\"Label\",\"Location\",\"CorrectResponse\",\"Block\",\"BlockTrial\",\"Condition\",\"LabelType\",\"Subcondition\",\"trialNum\"
\"2148\",\"32\",\"text\",\"0\",\"2152\",\"0.0-0.0-0.0\",\"\",\"\",\"\",\"\",\"\",\"\",\"\",\"\",\"\",\"\",\"\",\"\",\"\",\"\",\"\",\"\",\"\"
\"56633\",\"\",\"instructions\",\"1\",\"58790\",\"0.0-1.0\",\"[{\"\"page_index\"\":0,\"\"viewing_time\"\":56632}]\",\"\",\"\",\"\",\"\",\"\",\"\",\"\",\"\",\"\",\"\",\"\",\"\",\"\",\"\",\"\",\"\"
\"30115\",\"\",\"survey-multi-choice\",\"2\",\"88965\",\"0.0-2.0\",\"\",\"{\"\"Q0\"\":\"\"Da\"\",\"\"Q1\"\":\"\"Da\"\",\"\"Q2\"\":\"\"Da\"\",\"\"Q3\"\":\"\"Da\"\",\"\"Q4\"\":\"\"Da\"\",\"\"Q5\"\":\"\"Da\"\"}\",\"\",\"\",\"\",\"\",\"\",\"\",\"\",\"\",\"\",\"\",\"\",\"\",\"\",\"\",\"\"
\"\",\"\",\"bio\",\"3\",\"99013\",\"0.0-3.0\",\"\",\"{\"\"age\"\":\"\"19\"\",\"\"gender\"\":\"\"f\"\",\"\"specify\"\":\"\"\"\"}\",\"\",\"\",\"\",\"\",\"\",\"\",\"\",\"\",\"\",\"\",\"\",\"\",\"\",\"\",\"\"
\"\",\"\",\"approach-retreat\",\"4\",\"106382\",\"0.0-4.0\",\"\",\"\",\"2-1\",\"5862\",\"37\",\"0\",\"Training\",\"Stims/Figures/7-C-20-4.bmp\",\"None\",\"Left\",\"39\",\"1\",\"1\",\"10\",\"N\",\"C\",\"1\"
\"\",\"\",\"approach-retreat\",\"5\",\"112475\",\"0.0-5.0\",\"\",\"\",\"2-1\",\"4579\",\"37\",\"1\",\"Training\",\"Stims/Figures/71-C-30-1.bmp\",\"None\",\"Right\",\"37\",\"1\",\"2\",\"10\",\"N\",\"C\",\"2\"
\"\",\"\",\"approach-retreat\",\"6\",\"118313\",\"0.0-6.0\",\"\",\"\",\"2-1\",\"4325\",\"40\",\"1\",\"Training\",\"Stims/Figures/86-C-30-1.bmp\",\"None\",\"Up\",\"40\",\"1\",\"3\",\"10\",\"N\",\"C\",\"3\"
\"\",\"\",\"approach-retreat\",\"7\",\"124889\",\"0.0-7.0\",\"\",\"\",\"2-1\",\"5065\",\"40\",\"0\",\"Training\",\"Stims/Figures/139-C-20-2.bmp\",\"None\",\"Down\",\"38\",\"1\",\"4\",\"10\",\"N\",\"C\",\"4\"
\"\",\"\",\"approach-retreat\",\"8\",\"130901\",\"0.0-8.0\",\"\",\"\",\"2-1\",\"4499\",\"37\",\"1\",\"Training\",\"Stims/Figures/139-J-0-2.bmp\",\"None\",\"Left\",\"37\",\"1\",\"5\",\"10\",\"N\",\"C\",\"5\"
\"\",\"\",\"approach-retreat\",\"9\",\"136773\",\"0.0-9.0\",\"\",\"\",\"2-1\",\"4359\",\"40\",\"1\",\"Training\",\"Stims/Figures/86-J-0-1.bmp\",\"None\",\"Down\",\"40\",\"1\",\"6\",\"10\",\"N\",\"C\",\"6\"
\"\",\"\",\"approach-retreat\",\"10\",\"142434\",\"0.0-10.0\",\"\",\"\",\"2-1\",\"4149\",\"37\",\"1\",\"Training\",\"Stims/Figures/102-C-20-4.bmp\",\"None\",\"Right\",\"37\",\"1\",\"7\",\"10\",\"N\",\"C\",\"7\"
\"\",\"\",\"approach-retreat\",\"11\",\"148093\",\"0.0-11.0\",\"\",\"\",\"2-1\",\"4146\",\"37\",\"0\",\"Training\",\"Stims/Figures/111-J-10-3.bmp\",\"None\",\"Right\",\"39\",\"1\",\"8\",\"10\",\"N\",\"C\",\"8\"
\"\",\"\",\"approach-retreat\",\"12\",\"153858\",\"0.0-12.0\",\"\",\"\",\"2-1\",\"4249\",\"40\",\"1\",\"Training\",\"Stims/Figures/84-C-20-2.bmp\",\"None\",\"Up\",\"40\",\"1\",\"9\",\"10\",\"N\",\"C\",\"9\"
\"\",\"\",\"approach-retreat\",\"13\",\"159693\",\"0.0-13.0\",\"\",\"\",\"2-1\",\"4325\",\"40\",\"1\",\"Training\",\"Stims/Figures/71-J-0-1.bmp\",\"None\",\"Down\",\"40\",\"1\",\"10\",\"10\",\"N\",\"C\",\"10\"
\"\",\"\",\"approach-retreat\",\"14\",\"165197\",\"0.0-14.0\",\"\",\"\",\"2-1\",\"3990\",\"37\",\"1\",\"Training\",\"Stims/Figures/7-J-10-4.bmp\",\"None\",\"Left\",\"37\",\"1\",\"11\",\"10\",\"N\",\"C\",\"11\"
\"\",\"\",\"approach-retreat\",\"15\",\"170838\",\"0.0-15.0\",\"\",\"\",\"2-1\",\"4129\",\"40\",\"0\",\"Training\",\"Stims/Figures/102-J-10-4.bmp\",\"None\",\"Up\",\"38\",\"1\",\"12\",\"10\",\"N\",\"C\",\"12\"
\"\",\"\",\"approach-retreat\",\"16\",\"176649\",\"0.0-16.0\",\"\",\"\",\"2-1\",\"4298\",\"40\",\"0\",\"Training\",\"Stims/Figures/144-J-10-3.bmp\",\"None\",\"Up\",\"38\",\"1\",\"13\",\"10\",\"N\",\"C\",\"13\"
\"\",\"\",\"approach-retreat\",\"17\",\"182655\",\"0.0-17.0\",\"\",\"\",\"2-1\",\"4493\",\"38\",\"1\",\"Training\",\"Stims/Figures/111-C-30-3.bmp\",\"None\",\"Down\",\"38\",\"1\",\"14\",\"10\",\"N\",\"C\",\"14\"
\"\",\"\",\"approach-retreat\",\"18\",\"188238\",\"0.0-18.0\",\"\",\"\",\"2-1\",\"4072\",\"37\",\"1\",\"Training\",\"Stims/Figures/144-C-30-3.bmp\",\"None\",\"Right\",\"37\",\"1\",\"15\",\"10\",\"N\",\"C\",\"15\"
\"\",\"\",\"approach-retreat\",\"19\",\"193881\",\"0.0-19.0\",\"\",\"\",\"2-1\",\"4130\",\"37\",\"1\",\"Training\",\"Stims/Figures/84-J-0-2.bmp\",\"None\",\"Left\",\"37\",\"1\",\"16\",\"10\",\"N\",\"C\",\"16\"
\"\",\"\",\"approach-retreat\",\"20\",\"199608\",\"0.0-20.0\",\"\",\"\",\"2-1\",\"4214\",\"40\",\"0\",\"Training\",\"Stims/Figures/7-C-20-4.bmp\",\"None\",\"Down\",\"38\",\"2\",\"1\",\"10\",\"N\",\"C\",\"17\"
\"\",\"\",\"approach-retreat\",\"21\",\"205289\",\"0.0-21.0\",\"\",\"\",\"2-1\",\"4167\",\"40\",\"1\",\"Training\",\"Stims/Figures/84-J-0-2.bmp\",\"None\",\"Down\",\"40\",\"2\",\"2\",\"10\",\"N\",\"C\",\"18\"
\"\",\"\",\"approach-retreat\",\"22\",\"211217\",\"0.0-22.0\",\"\",\"\",\"2-1\",\"4415\",\"38\",\"1\",\"Training\",\"Stims/Figures/71-J-0-1.bmp\",\"None\",\"Up\",\"38\",\"2\",\"3\",\"10\",\"N\",\"C\",\"19\"
\"\",\"\",\"approach-retreat\",\"23\",\"216932\",\"0.0-23.0\",\"\",\"\",\"2-1\",\"4202\",\"39\",\"1\",\"Training\",\"Stims/Figures/86-J-0-1.bmp\",\"None\",\"Right\",\"39\",\"2\",\"4\",\"10\",\"N\",\"C\",\"20\"
\"\",\"\",\"approach-retreat\",\"24\",\"222640\",\"0.0-24.0\",\"\",\"\",\"2-1\",\"4196\",\"40\",\"1\",\"Training\",\"Stims/Figures/102-C-20-4.bmp\",\"None\",\"Up\",\"40\",\"2\",\"5\",\"10\",\"N\",\"C\",\"21\"
\"\",\"\",\"approach-retreat\",\"25\",\"228423\",\"0.0-25.0\",\"\",\"\",\"2-1\",\"4269\",\"37\",\"1\",\"Training\",\"Stims/Figures/144-J-10-3.bmp\",\"None\",\"Left\",\"37\",\"2\",\"6\",\"10\",\"N\",\"C\",\"22\"
\"\",\"\",\"approach-retreat\",\"26\",\"234076\",\"0.0-26.0\",\"\",\"\",\"2-1\",\"4140\",\"37\",\"1\",\"Training\",\"Stims/Figures/139-C-20-2.bmp\",\"None\",\"Right\",\"37\",\"2\",\"7\",\"10\",\"N\",\"C\",\"23\"
\"\",\"\",\"approach-retreat\",\"27\",\"239694\",\"0.0-27.0\",\"\",\"\",\"2-1\",\"4105\",\"37\",\"1\",\"Training\",\"Stims/Figures/144-C-30-3.bmp\",\"None\",\"Right\",\"37\",\"2\",\"8\",\"10\",\"N\",\"C\",\"24\"
\"\",\"\",\"approach-retreat\",\"28\",\"245458\",\"0.0-28.0\",\"\",\"\",\"2-1\",\"4252\",\"39\",\"1\",\"Training\",\"Stims/Figures/71-C-30-1.bmp\",\"None\",\"Left\",\"39\",\"2\",\"9\",\"10\",\"N\",\"C\",\"25\"
\"\",\"\",\"approach-retreat\",\"29\",\"251335\",\"0.0-29.0\",\"\",\"\",\"2-1\",\"4363\",\"38\",\"1\",\"Training\",\"Stims/Figures/102-J-10-4.bmp\",\"None\",\"Up\",\"38\",\"2\",\"10\",\"10\",\"N\",\"C\",\"26\"
\"\",\"\",\"approach-retreat\",\"30\",\"257068\",\"0.0-30.0\",\"\",\"\",\"2-1\",\"4218\",\"40\",\"1\",\"Training\",\"Stims/Figures/111-C-30-3.bmp\",\"None\",\"Up\",\"40\",\"2\",\"11\",\"10\",\"N\",\"C\",\"27\"
\"\",\"\",\"approach-retreat\",\"31\",\"262617\",\"0.0-31.0\",\"\",\"\",\"2-1\",\"4040\",\"39\",\"1\",\"Training\",\"Stims/Figures/84-C-20-2.bmp\",\"None\",\"Left\",\"39\",\"2\",\"12\",\"10\",\"N\",\"C\",\"28\"
\"\",\"\",\"approach-retreat\",\"32\",\"268395\",\"0.0-32.0\",\"\",\"\",\"2-1\",\"4266\",\"38\",\"0\",\"Training\",\"Stims/Figures/7-J-10-4.bmp\",\"None\",\"Down\",\"40\",\"2\",\"13\",\"10\",\"N\",\"C\",\"29\"
\"\",\"\",\"approach-retreat\",\"33\",\"274007\",\"0.0-33.0\",\"\",\"\",\"2-1\",\"4099\",\"38\",\"1\",\"Training\",\"Stims/Figures/86-C-30-1.bmp\",\"None\",\"Down\",\"38\",\"2\",\"14\",\"10\",\"N\",\"C\",\"30\"
\"\",\"\",\"approach-retreat\",\"34\",\"279617\",\"0.0-34.0\",\"\",\"\",\"2-1\",\"4097\",\"37\",\"1\",\"Training\",\"Stims/Figures/139-J-0-2.bmp\",\"None\",\"Left\",\"37\",\"2\",\"15\",\"10\",\"N\",\"C\",\"31\"
\"\",\"\",\"approach-retreat\",\"35\",\"285177\",\"0.0-35.0\",\"\",\"\",\"2-1\",\"4057\",\"39\",\"1\",\"Training\",\"Stims/Figures/111-J-10-3.bmp\",\"None\",\"Right\",\"39\",\"2\",\"16\",\"10\",\"N\",\"C\",\"32\"
\"\",\"\",\"approach-retreat\",\"36\",\"290894\",\"0.0-36.0\",\"\",\"\",\"2-1\",\"4206\",\"38\",\"1\",\"Training\",\"Stims/Figures/84-C-20-2.bmp\",\"None\",\"Down\",\"38\",\"3\",\"1\",\"10\",\"N\",\"C\",\"33\"
\"\",\"\",\"approach-retreat\",\"37\",\"296547\",\"0.0-37.0\",\"\",\"\",\"2-1\",\"4142\",\"38\",\"1\",\"Training\",\"Stims/Figures/86-J-0-1.bmp\",\"None\",\"Up\",\"38\",\"3\",\"2\",\"10\",\"N\",\"C\",\"34\"
\"\",\"\",\"approach-retreat\",\"38\",\"301997\",\"0.0-38.0\",\"\",\"\",\"2-1\",\"3935\",\"37\",\"1\",\"Training\",\"Stims/Figures/102-J-10-4.bmp\",\"None\",\"Left\",\"37\",\"3\",\"3\",\"10\",\"N\",\"C\",\"35\"
\"\",\"\",\"approach-retreat\",\"39\",\"307670\",\"0.0-39.0\",\"\",\"\",\"2-1\",\"4159\",\"40\",\"1\",\"Training\",\"Stims/Figures/111-C-30-3.bmp\",\"None\",\"Up\",\"40\",\"3\",\"4\",\"10\",\"N\",\"C\",\"36\"
\"\",\"\",\"approach-retreat\",\"40\",\"313227\",\"0.0-40.0\",\"\",\"\",\"2-1\",\"4047\",\"40\",\"1\",\"Training\",\"Stims/Figures/71-C-30-1.bmp\",\"None\",\"Up\",\"40\",\"3\",\"5\",\"10\",\"N\",\"C\",\"37\"
\"\",\"\",\"approach-retreat\",\"41\",\"318859\",\"0.0-41.0\",\"\",\"\",\"2-1\",\"4121\",\"40\",\"1\",\"Training\",\"Stims/Figures/7-J-10-4.bmp\",\"None\",\"Down\",\"40\",\"3\",\"6\",\"10\",\"N\",\"C\",\"38\"
\"\",\"\",\"approach-retreat\",\"42\",\"325001\",\"0.0-42.0\",\"\",\"\",\"2-1\",\"4632\",\"39\",\"0\",\"Training\",\"Stims/Figures/139-C-20-2.bmp\",\"None\",\"Right\",\"37\",\"3\",\"7\",\"10\",\"N\",\"C\",\"39\"
\"\",\"\",\"approach-retreat\",\"43\",\"330507\",\"0.0-43.0\",\"\",\"\",\"2-1\",\"3992\",\"37\",\"1\",\"Training\",\"Stims/Figures/144-J-10-3.bmp\",\"None\",\"Left\",\"37\",\"3\",\"8\",\"10\",\"N\",\"C\",\"40\"
\"\",\"\",\"approach-retreat\",\"44\",\"336257\",\"0.0-44.0\",\"\",\"\",\"2-1\",\"4239\",\"38\",\"1\",\"Training\",\"Stims/Figures/7-C-20-4.bmp\",\"None\",\"Down\",\"38\",\"3\",\"9\",\"10\",\"N\",\"C\",\"41\"
\"\",\"\",\"approach-retreat\",\"45\",\"341742\",\"0.0-45.0\",\"\",\"\",\"2-1\",\"3973\",\"39\",\"1\",\"Training\",\"Stims/Figures/71-J-0-1.bmp\",\"None\",\"Right\",\"39\",\"3\",\"10\",\"10\",\"N\",\"C\",\"42\"
\"\",\"\",\"approach-retreat\",\"46\",\"347323\",\"0.0-46.0\",\"\",\"\",\"2-1\",\"4070\",\"38\",\"1\",\"Training\",\"Stims/Figures/139-J-0-2.bmp\",\"None\",\"Up\",\"38\",\"3\",\"11\",\"10\",\"N\",\"C\",\"43\"
\"\",\"\",\"approach-retreat\",\"47\",\"352965\",\"0.0-47.0\",\"\",\"\",\"2-1\",\"4129\",\"38\",\"1\",\"Training\",\"Stims/Figures/144-C-30-3.bmp\",\"None\",\"Down\",\"38\",\"3\",\"12\",\"10\",\"N\",\"C\",\"44\"
\"\",\"\",\"approach-retreat\",\"48\",\"358523\",\"0.0-48.0\",\"\",\"\",\"2-1\",\"4047\",\"39\",\"1\",\"Training\",\"Stims/Figures/111-J-10-3.bmp\",\"None\",\"Right\",\"39\",\"3\",\"13\",\"10\",\"N\",\"C\",\"45\"
\"\",\"\",\"approach-retreat\",\"49\",\"363983\",\"0.0-49.0\",\"\",\"\",\"2-1\",\"3945\",\"39\",\"1\",\"Training\",\"Stims/Figures/102-C-20-4.bmp\",\"None\",\"Left\",\"39\",\"3\",\"14\",\"10\",\"N\",\"C\",\"46\"
\"\",\"\",\"approach-retreat\",\"50\",\"369464\",\"0.0-50.0\",\"\",\"\",\"2-1\",\"3969\",\"39\",\"1\",\"Training\",\"Stims/Figures/86-C-30-1.bmp\",\"None\",\"Left\",\"39\",\"3\",\"15\",\"10\",\"N\",\"C\",\"47\"
\"\",\"\",\"approach-retreat\",\"51\",\"375004\",\"0.0-51.0\",\"\",\"\",\"2-1\",\"4029\",\"39\",\"1\",\"Training\",\"Stims/Figures/84-J-0-2.bmp\",\"None\",\"Right\",\"39\",\"3\",\"16\",\"10\",\"N\",\"C\",\"48\"
\"\",\"\",\"approach-retreat\",\"52\",\"380739\",\"0.0-52.0\",\"\",\"\",\"2-1\",\"4223\",\"40\",\"1\",\"Training\",\"Stims/Figures/144-J-10-3.bmp\",\"None\",\"Down\",\"40\",\"4\",\"1\",\"10\",\"N\",\"C\",\"49\"
\"\",\"\",\"approach-retreat\",\"53\",\"386332\",\"0.0-53.0\",\"\",\"\",\"2-1\",\"4080\",\"37\",\"1\",\"Training\",\"Stims/Figures/71-C-30-1.bmp\",\"None\",\"Right\",\"37\",\"4\",\"2\",\"10\",\"N\",\"C\",\"50\"
\"\",\"\",\"approach-retreat\",\"54\",\"391824\",\"0.0-54.0\",\"\",\"\",\"2-1\",\"3981\",\"39\",\"1\",\"Training\",\"Stims/Figures/7-J-10-4.bmp\",\"None\",\"Right\",\"39\",\"4\",\"3\",\"10\",\"N\",\"C\",\"51\"
\"\",\"\",\"approach-retreat\",\"55\",\"397503\",\"0.0-55.0\",\"\",\"\",\"2-1\",\"4168\",\"38\",\"1\",\"Training\",\"Stims/Figures/139-J-0-2.bmp\",\"None\",\"Up\",\"38\",\"4\",\"4\",\"10\",\"N\",\"C\",\"52\"
\"\",\"\",\"approach-retreat\",\"56\",\"403629\",\"0.0-56.0\",\"\",\"\",\"2-1\",\"4614\",\"37\",\"1\",\"Training\",\"Stims/Figures/144-C-30-3.bmp\",\"None\",\"Right\",\"37\",\"4\",\"5\",\"10\",\"N\",\"C\",\"53\"
\"\",\"\",\"approach-retreat\",\"57\",\"409124\",\"0.0-57.0\",\"\",\"\",\"2-1\",\"3984\",\"38\",\"1\",\"Training\",\"Stims/Figures/84-C-20-2.bmp\",\"None\",\"Down\",\"38\",\"4\",\"6\",\"10\",\"N\",\"C\",\"54\"
\"\",\"\",\"approach-retreat\",\"58\",\"414563\",\"0.0-58.0\",\"\",\"\",\"2-1\",\"3929\",\"39\",\"1\",\"Training\",\"Stims/Figures/71-J-0-1.bmp\",\"None\",\"Right\",\"39\",\"4\",\"7\",\"10\",\"N\",\"C\",\"55\"
\"\",\"\",\"approach-retreat\",\"59\",\"420114\",\"0.0-59.0\",\"\",\"\",\"2-1\",\"4040\",\"39\",\"1\",\"Training\",\"Stims/Figures/111-C-30-3.bmp\",\"None\",\"Left\",\"39\",\"4\",\"8\",\"10\",\"N\",\"C\",\"56\"
\"\",\"\",\"approach-retreat\",\"60\",\"425957\",\"0.0-60.0\",\"\",\"\",\"2-1\",\"4325\",\"40\",\"1\",\"Training\",\"Stims/Figures/102-C-20-4.bmp\",\"None\",\"Up\",\"40\",\"4\",\"9\",\"10\",\"N\",\"C\",\"57\"
\"\",\"\",\"approach-retreat\",\"61\",\"431671\",\"0.0-61.0\",\"\",\"\",\"2-1\",\"4201\",\"38\",\"1\",\"Training\",\"Stims/Figures/139-C-20-2.bmp\",\"None\",\"Down\",\"38\",\"4\",\"10\",\"10\",\"N\",\"C\",\"58\"
\"\",\"\",\"approach-retreat\",\"62\",\"437447\",\"0.0-62.0\",\"\",\"\",\"2-1\",\"4262\",\"38\",\"1\",\"Training\",\"Stims/Figures/84-J-0-2.bmp\",\"None\",\"Up\",\"38\",\"4\",\"11\",\"10\",\"N\",\"C\",\"59\"
\"\",\"\",\"approach-retreat\",\"63\",\"443023\",\"0.0-63.0\",\"\",\"\",\"2-1\",\"4064\",\"39\",\"0\",\"Training\",\"Stims/Figures/86-J-0-1.bmp\",\"None\",\"Left\",\"37\",\"4\",\"12\",\"10\",\"N\",\"C\",\"60\"
\"\",\"\",\"approach-retreat\",\"64\",\"448533\",\"0.0-64.0\",\"\",\"\",\"2-1\",\"3999\",\"38\",\"1\",\"Training\",\"Stims/Figures/7-C-20-4.bmp\",\"None\",\"Down\",\"38\",\"4\",\"13\",\"10\",\"N\",\"C\",\"61\"
\"\",\"\",\"approach-retreat\",\"65\",\"454128\",\"0.0-65.0\",\"\",\"\",\"2-1\",\"4084\",\"37\",\"1\",\"Training\",\"Stims/Figures/111-J-10-3.bmp\",\"None\",\"Left\",\"37\",\"4\",\"14\",\"10\",\"N\",\"C\",\"62\"
\"\",\"\",\"approach-retreat\",\"66\",\"459973\",\"0.0-66.0\",\"\",\"\",\"2-1\",\"4333\",\"40\",\"1\",\"Training\",\"Stims/Figures/86-C-30-1.bmp\",\"None\",\"Up\",\"40\",\"4\",\"15\",\"10\",\"N\",\"C\",\"63\"
\"\",\"\",\"approach-retreat\",\"67\",\"465642\",\"0.0-67.0\",\"\",\"\",\"2-1\",\"4155\",\"37\",\"1\",\"Training\",\"Stims/Figures/102-J-10-4.bmp\",\"None\",\"Left\",\"37\",\"4\",\"16\",\"10\",\"N\",\"C\",\"64\"
\"\",\"\",\"approach-retreat\",\"68\",\"471163\",\"0.0-68.0\",\"\",\"\",\"2-1\",\"4009\",\"37\",\"1\",\"Training\",\"Stims/Figures/144-J-10-3.bmp\",\"None\",\"Left\",\"37\",\"5\",\"1\",\"10\",\"N\",\"C\",\"65\"
\"\",\"\",\"approach-retreat\",\"69\",\"476813\",\"0.0-69.0\",\"\",\"\",\"2-1\",\"4139\",\"38\",\"1\",\"Training\",\"Stims/Figures/84-J-0-2.bmp\",\"None\",\"Up\",\"38\",\"5\",\"2\",\"10\",\"N\",\"C\",\"66\"
\"\",\"\",\"approach-retreat\",\"70\",\"483095\",\"0.0-70.0\",\"\",\"\",\"2-1\",\"4770\",\"38\",\"1\",\"Training\",\"Stims/Figures/86-J-0-1.bmp\",\"None\",\"Up\",\"38\",\"5\",\"3\",\"10\",\"N\",\"C\",\"67\"
\"\",\"\",\"approach-retreat\",\"71\",\"488619\",\"0.0-71.0\",\"\",\"\",\"2-1\",\"4012\",\"39\",\"0\",\"Training\",\"Stims/Figures/111-C-30-3.bmp\",\"None\",\"Right\",\"37\",\"5\",\"4\",\"10\",\"N\",\"C\",\"68\"
\"\",\"\",\"approach-retreat\",\"72\",\"494431\",\"0.0-72.0\",\"\",\"\",\"2-1\",\"4298\",\"40\",\"1\",\"Training\",\"Stims/Figures/139-J-0-2.bmp\",\"None\",\"Down\",\"40\",\"5\",\"5\",\"10\",\"N\",\"C\",\"69\"
\"\",\"\",\"approach-retreat\",\"73\",\"500128\",\"0.0-73.0\",\"\",\"\",\"2-1\",\"4186\",\"40\",\"1\",\"Training\",\"Stims/Figures/71-J-0-1.bmp\",\"None\",\"Down\",\"40\",\"5\",\"6\",\"10\",\"N\",\"C\",\"70\"
\"\",\"\",\"approach-retreat\",\"74\",\"506286\",\"0.0-74.0\",\"\",\"\",\"2-1\",\"4647\",\"37\",\"1\",\"Training\",\"Stims/Figures/7-J-10-4.bmp\",\"None\",\"Left\",\"37\",\"5\",\"7\",\"10\",\"N\",\"C\",\"71\"
\"\",\"\",\"approach-retreat\",\"75\",\"511901\",\"0.0-75.0\",\"\",\"\",\"2-1\",\"4101\",\"39\",\"1\",\"Training\",\"Stims/Figures/111-J-10-3.bmp\",\"None\",\"Right\",\"39\",\"5\",\"8\",\"10\",\"N\",\"C\",\"72\"
\"\",\"\",\"approach-retreat\",\"76\",\"517464\",\"0.0-76.0\",\"\",\"\",\"2-1\",\"4052\",\"39\",\"1\",\"Training\",\"Stims/Figures/102-J-10-4.bmp\",\"None\",\"Right\",\"39\",\"5\",\"9\",\"10\",\"N\",\"C\",\"73\"
\"\",\"\",\"approach-retreat\",\"77\",\"523088\",\"0.0-77.0\",\"\",\"\",\"2-1\",\"4112\",\"37\",\"1\",\"Training\",\"Stims/Figures/144-C-30-3.bmp\",\"None\",\"Right\",\"37\",\"5\",\"10\",\"10\",\"N\",\"C\",\"74\"
\"\",\"\",\"approach-retreat\",\"78\",\"529594\",\"0.0-78.0\",\"\",\"\",\"2-1\",\"4993\",\"40\",\"1\",\"Training\",\"Stims/Figures/71-C-30-1.bmp\",\"None\",\"Up\",\"40\",\"5\",\"11\",\"10\",\"N\",\"C\",\"75\"
\"\",\"\",\"approach-retreat\",\"79\",\"536333\",\"0.0-79.0\",\"\",\"\",\"2-1\",\"5225\",\"39\",\"1\",\"Training\",\"Stims/Figures/102-C-20-4.bmp\",\"None\",\"Left\",\"39\",\"5\",\"12\",\"10\",\"N\",\"C\",\"76\"
\"\",\"\",\"approach-retreat\",\"80\",\"542101\",\"0.0-80.0\",\"\",\"\",\"2-1\",\"4256\",\"38\",\"1\",\"Training\",\"Stims/Figures/7-C-20-4.bmp\",\"None\",\"Down\",\"38\",\"5\",\"13\",\"10\",\"N\",\"C\",\"77\"
\"\",\"\",\"approach-retreat\",\"81\",\"547814\",\"0.0-81.0\",\"\",\"\",\"2-1\",\"4201\",\"39\",\"1\",\"Training\",\"Stims/Figures/84-C-20-2.bmp\",\"None\",\"Left\",\"39\",\"5\",\"14\",\"10\",\"N\",\"C\",\"78\"
\"\",\"\",\"approach-retreat\",\"82\",\"553467\",\"0.0-82.0\",\"\",\"\",\"2-1\",\"4141\",\"38\",\"1\",\"Training\",\"Stims/Figures/139-C-20-2.bmp\",\"None\",\"Down\",\"38\",\"5\",\"15\",\"10\",\"N\",\"C\",\"79\"
\"\",\"\",\"approach-retreat\",\"83\",\"559238\",\"0.0-83.0\",\"\",\"\",\"2-1\",\"4258\",\"40\",\"1\",\"Training\",\"Stims/Figures/86-C-30-1.bmp\",\"None\",\"Up\",\"40\",\"5\",\"16\",\"10\",\"N\",\"C\",\"80\"
\"\",\"\",\"approach-retreat\",\"84\",\"564920\",\"0.0-84.0\",\"\",\"\",\"2-1\",\"4172\",\"37\",\"1\",\"Training\",\"Stims/Figures/71-C-30-1.bmp\",\"None\",\"Right\",\"37\",\"6\",\"1\",\"10\",\"N\",\"C\",\"81\"
\"\",\"\",\"approach-retreat\",\"85\",\"570622\",\"0.0-85.0\",\"\",\"\",\"2-1\",\"4184\",\"37\",\"0\",\"Training\",\"Stims/Figures/144-J-10-3.bmp\",\"None\",\"Right\",\"39\",\"6\",\"2\",\"10\",\"N\",\"C\",\"82\"
\"\",\"\",\"approach-retreat\",\"86\",\"576584\",\"0.0-86.0\",\"\",\"\",\"2-1\",\"4450\",\"40\",\"1\",\"Training\",\"Stims/Figures/139-J-0-2.bmp\",\"None\",\"Down\",\"40\",\"6\",\"3\",\"10\",\"N\",\"C\",\"83\"
\"\",\"\",\"approach-retreat\",\"87\",\"582399\",\"0.0-87.0\",\"\",\"\",\"2-1\",\"4304\",\"38\",\"1\",\"Training\",\"Stims/Figures/102-J-10-4.bmp\",\"None\",\"Up\",\"38\",\"6\",\"4\",\"10\",\"N\",\"C\",\"84\"
\"\",\"\",\"approach-retreat\",\"88\",\"588196\",\"0.0-88.0\",\"\",\"\",\"2-1\",\"4285\",\"38\",\"1\",\"Training\",\"Stims/Figures/86-J-0-1.bmp\",\"None\",\"Up\",\"38\",\"6\",\"5\",\"10\",\"N\",\"C\",\"85\"
\"\",\"\",\"approach-retreat\",\"89\",\"593953\",\"0.0-89.0\",\"\",\"\",\"2-1\",\"4242\",\"39\",\"1\",\"Training\",\"Stims/Figures/86-C-30-1.bmp\",\"None\",\"Left\",\"39\",\"6\",\"6\",\"10\",\"N\",\"C\",\"86\"
\"\",\"\",\"approach-retreat\",\"90\",\"599624\",\"0.0-90.0\",\"\",\"\",\"2-1\",\"4161\",\"38\",\"1\",\"Training\",\"Stims/Figures/111-C-30-3.bmp\",\"None\",\"Down\",\"38\",\"6\",\"7\",\"10\",\"N\",\"C\",\"87\"
\"\",\"\",\"approach-retreat\",\"91\",\"605321\",\"0.0-91.0\",\"\",\"\",\"2-1\",\"4185\",\"38\",\"1\",\"Training\",\"Stims/Figures/71-J-0-1.bmp\",\"None\",\"Up\",\"38\",\"6\",\"8\",\"10\",\"N\",\"C\",\"88\"
\"\",\"\",\"approach-retreat\",\"92\",\"611338\",\"0.0-92.0\",\"\",\"\",\"2-1\",\"4503\",\"37\",\"1\",\"Training\",\"Stims/Figures/144-C-30-3.bmp\",\"None\",\"Right\",\"37\",\"6\",\"9\",\"10\",\"N\",\"C\",\"89\"
\"\",\"\",\"approach-retreat\",\"93\",\"616904\",\"0.0-93.0\",\"\",\"\",\"2-1\",\"4053\",\"38\",\"1\",\"Training\",\"Stims/Figures/111-J-10-3.bmp\",\"None\",\"Up\",\"38\",\"6\",\"10\",\"10\",\"N\",\"C\",\"90\"
\"\",\"\",\"approach-retreat\",\"94\",\"622440\",\"0.0-94.0\",\"\",\"\",\"2-1\",\"4025\",\"39\",\"1\",\"Training\",\"Stims/Figures/84-J-0-2.bmp\",\"None\",\"Right\",\"39\",\"6\",\"11\",\"10\",\"N\",\"C\",\"91\"
\"\",\"\",\"approach-retreat\",\"95\",\"629082\",\"0.0-95.0\",\"\",\"\",\"2-1\",\"5128\",\"37\",\"0\",\"Training\",\"Stims/Figures/102-C-20-4.bmp\",\"None\",\"Left\",\"39\",\"6\",\"12\",\"10\",\"N\",\"C\",\"92\"
\"\",\"\",\"approach-retreat\",\"96\",\"634789\",\"0.0-96.0\",\"\",\"\",\"2-1\",\"4196\",\"37\",\"1\",\"Training\",\"Stims/Figures/7-J-10-4.bmp\",\"None\",\"Left\",\"37\",\"6\",\"13\",\"10\",\"N\",\"C\",\"93\"
\"\",\"\",\"approach-retreat\",\"97\",\"640831\",\"0.0-97.0\",\"\",\"\",\"2-1\",\"4529\",\"38\",\"1\",\"Training\",\"Stims/Figures/139-C-20-2.bmp\",\"None\",\"Down\",\"38\",\"6\",\"14\",\"10\",\"N\",\"C\",\"94\"
\"\",\"\",\"approach-retreat\",\"98\",\"647179\",\"0.0-98.0\",\"\",\"\",\"2-1\",\"4837\",\"39\",\"1\",\"Training\",\"Stims/Figures/7-C-20-4.bmp\",\"None\",\"Left\",\"39\",\"6\",\"15\",\"10\",\"N\",\"C\",\"95\"
\"\",\"\",\"approach-retreat\",\"99\",\"652935\",\"0.0-99.0\",\"\",\"\",\"2-1\",\"4243\",\"38\",\"1\",\"Training\",\"Stims/Figures/84-C-20-2.bmp\",\"None\",\"Down\",\"38\",\"6\",\"16\",\"10\",\"N\",\"C\",\"96\"
\"\",\"\",\"approach-retreat\",\"100\",\"658560\",\"0.0-100.0\",\"\",\"\",\"2-1\",\"4112\",\"37\",\"1\",\"Training\",\"Stims/Figures/139-J-0-2.bmp\",\"None\",\"Left\",\"37\",\"7\",\"1\",\"10\",\"N\",\"C\",\"97\"
\"\",\"\",\"approach-retreat\",\"101\",\"664156\",\"0.0-101.0\",\"\",\"\",\"2-1\",\"4083\",\"37\",\"1\",\"Training\",\"Stims/Figures/7-C-20-4.bmp\",\"None\",\"Right\",\"37\",\"7\",\"2\",\"10\",\"N\",\"C\",\"98\"
\"\",\"\",\"approach-retreat\",\"102\",\"669729\",\"0.0-102.0\",\"\",\"\",\"2-1\",\"4060\",\"37\",\"1\",\"Training\",\"Stims/Figures/111-C-30-3.bmp\",\"None\",\"Right\",\"37\",\"7\",\"3\",\"10\",\"N\",\"C\",\"99\"
\"\",\"\",\"approach-retreat\",\"103\",\"675517\",\"0.0-103.0\",\"\",\"\",\"2-1\",\"4275\",\"40\",\"1\",\"Training\",\"Stims/Figures/84-J-0-2.bmp\",\"None\",\"Down\",\"40\",\"7\",\"4\",\"10\",\"N\",\"C\",\"100\"
\"\",\"\",\"approach-retreat\",\"104\",\"681156\",\"0.0-104.0\",\"\",\"\",\"2-1\",\"4121\",\"38\",\"1\",\"Training\",\"Stims/Figures/102-C-20-4.bmp\",\"None\",\"Down\",\"38\",\"7\",\"5\",\"10\",\"N\",\"C\",\"101\"
\"\",\"\",\"approach-retreat\",\"105\",\"686691\",\"0.0-105.0\",\"\",\"\",\"2-1\",\"4026\",\"39\",\"1\",\"Training\",\"Stims/Figures/86-C-30-1.bmp\",\"None\",\"Left\",\"39\",\"7\",\"6\",\"10\",\"N\",\"C\",\"102\"
\"\",\"\",\"approach-retreat\",\"106\",\"692387\",\"0.0-106.0\",\"\",\"\",\"2-1\",\"4183\",\"39\",\"1\",\"Training\",\"Stims/Figures/71-J-0-1.bmp\",\"None\",\"Right\",\"39\",\"7\",\"7\",\"10\",\"N\",\"C\",\"103\"
\"\",\"\",\"approach-retreat\",\"107\",\"697898\",\"0.0-107.0\",\"\",\"\",\"2-1\",\"3996\",\"40\",\"0\",\"Training\",\"Stims/Figures/7-J-10-4.bmp\",\"None\",\"Up\",\"38\",\"7\",\"8\",\"10\",\"N\",\"C\",\"104\"
\"\",\"\",\"approach-retreat\",\"108\",\"704024\",\"0.0-108.0\",\"\",\"\",\"2-1\",\"4614\",\"37\",\"1\",\"Training\",\"Stims/Figures/111-J-10-3.bmp\",\"None\",\"Left\",\"37\",\"7\",\"9\",\"10\",\"N\",\"C\",\"105\"
\"\",\"\",\"approach-retreat\",\"109\",\"709592\",\"0.0-109.0\",\"\",\"\",\"2-1\",\"4053\",\"39\",\"1\",\"Training\",\"Stims/Figures/144-J-10-3.bmp\",\"None\",\"Right\",\"39\",\"7\",\"10\",\"10\",\"N\",\"C\",\"106\"
\"\",\"\",\"approach-retreat\",\"110\",\"715475\",\"0.0-110.0\",\"\",\"\",\"2-1\",\"4371\",\"40\",\"1\",\"Training\",\"Stims/Figures/86-J-0-1.bmp\",\"None\",\"Down\",\"40\",\"7\",\"11\",\"10\",\"N\",\"C\",\"107\"
\"\",\"\",\"approach-retreat\",\"111\",\"721034\",\"0.0-111.0\",\"\",\"\",\"2-1\",\"4046\",\"39\",\"1\",\"Training\",\"Stims/Figures/139-C-20-2.bmp\",\"None\",\"Left\",\"39\",\"7\",\"12\",\"10\",\"N\",\"C\",\"108\"
\"\",\"\",\"approach-retreat\",\"112\",\"726687\",\"0.0-112.0\",\"\",\"\",\"2-1\",\"4138\",\"38\",\"1\",\"Training\",\"Stims/Figures/102-J-10-4.bmp\",\"None\",\"Up\",\"38\",\"7\",\"13\",\"10\",\"N\",\"C\",\"109\"
\"\",\"\",\"approach-retreat\",\"113\",\"732540\",\"0.0-113.0\",\"\",\"\",\"2-1\",\"4337\",\"40\",\"1\",\"Training\",\"Stims/Figures/71-C-30-1.bmp\",\"None\",\"Up\",\"40\",\"7\",\"14\",\"10\",\"N\",\"C\",\"110\"
\"\",\"\",\"approach-retreat\",\"114\",\"738311\",\"0.0-114.0\",\"\",\"\",\"2-1\",\"4259\",\"38\",\"1\",\"Training\",\"Stims/Figures/144-C-30-3.bmp\",\"None\",\"Down\",\"38\",\"7\",\"15\",\"10\",\"N\",\"C\",\"111\"
\"\",\"\",\"approach-retreat\",\"115\",\"744066\",\"0.0-115.0\",\"\",\"\",\"2-1\",\"4241\",\"40\",\"1\",\"Training\",\"Stims/Figures/84-C-20-2.bmp\",\"None\",\"Up\",\"40\",\"7\",\"16\",\"10\",\"N\",\"C\",\"112\"
\"\",\"\",\"approach-retreat\",\"116\",\"749918\",\"0.0-116.0\",\"\",\"\",\"2-1\",\"4340\",\"38\",\"1\",\"Training\",\"Stims/Figures/111-J-10-3.bmp\",\"None\",\"Up\",\"38\",\"8\",\"1\",\"10\",\"N\",\"C\",\"113\"
\"\",\"\",\"approach-retreat\",\"117\",\"755647\",\"0.0-117.0\",\"\",\"\",\"2-1\",\"4218\",\"39\",\"1\",\"Training\",\"Stims/Figures/7-J-10-4.bmp\",\"None\",\"Right\",\"39\",\"8\",\"2\",\"10\",\"N\",\"C\",\"114\"
\"\",\"\",\"approach-retreat\",\"118\",\"761454\",\"0.0-118.0\",\"\",\"\",\"2-1\",\"4296\",\"37\",\"1\",\"Training\",\"Stims/Figures/144-J-10-3.bmp\",\"None\",\"Left\",\"37\",\"8\",\"3\",\"10\",\"N\",\"C\",\"115\"
\"\",\"\",\"approach-retreat\",\"119\",\"767558\",\"0.0-119.0\",\"\",\"\",\"2-1\",\"4594\",\"40\",\"1\",\"Training\",\"Stims/Figures/84-C-20-2.bmp\",\"None\",\"Up\",\"40\",\"8\",\"4\",\"10\",\"N\",\"C\",\"116\"
\"\",\"\",\"approach-retreat\",\"120\",\"773272\",\"0.0-120.0\",\"\",\"\",\"2-1\",\"4201\",\"37\",\"1\",\"Training\",\"Stims/Figures/86-J-0-1.bmp\",\"None\",\"Left\",\"37\",\"8\",\"5\",\"10\",\"N\",\"C\",\"117\"
\"\",\"\",\"approach-retreat\",\"121\",\"779158\",\"0.0-121.0\",\"\",\"\",\"2-1\",\"4374\",\"39\",\"1\",\"Training\",\"Stims/Figures/86-C-30-1.bmp\",\"None\",\"Left\",\"39\",\"8\",\"6\",\"10\",\"N\",\"C\",\"118\"
\"\",\"\",\"approach-retreat\",\"122\",\"784747\",\"0.0-122.0\",\"\",\"\",\"2-1\",\"4077\",\"40\",\"1\",\"Training\",\"Stims/Figures/102-C-20-4.bmp\",\"None\",\"Up\",\"40\",\"8\",\"7\",\"10\",\"N\",\"C\",\"119\"
\"\",\"\",\"approach-retreat\",\"123\",\"790495\",\"0.0-123.0\",\"\",\"\",\"2-1\",\"4237\",\"38\",\"1\",\"Training\",\"Stims/Figures/139-J-0-2.bmp\",\"None\",\"Up\",\"38\",\"8\",\"8\",\"10\",\"N\",\"C\",\"120\"
\"\",\"\",\"approach-retreat\",\"124\",\"796242\",\"0.0-124.0\",\"\",\"\",\"2-1\",\"4236\",\"39\",\"1\",\"Training\",\"Stims/Figures/84-J-0-2.bmp\",\"None\",\"Right\",\"39\",\"8\",\"9\",\"10\",\"N\",\"C\",\"121\"
\"\",\"\",\"approach-retreat\",\"125\",\"802051\",\"0.0-125.0\",\"\",\"\",\"2-1\",\"4298\",\"40\",\"1\",\"Training\",\"Stims/Figures/102-J-10-4.bmp\",\"None\",\"Down\",\"40\",\"8\",\"10\",\"10\",\"N\",\"C\",\"122\"
\"\",\"\",\"approach-retreat\",\"126\",\"807875\",\"0.0-126.0\",\"\",\"\",\"2-1\",\"4313\",\"38\",\"1\",\"Training\",\"Stims/Figures/144-C-30-3.bmp\",\"None\",\"Down\",\"38\",\"8\",\"11\",\"10\",\"N\",\"C\",\"123\"
\"\",\"\",\"approach-retreat\",\"127\",\"813430\",\"0.0-127.0\",\"\",\"\",\"2-1\",\"4045\",\"39\",\"1\",\"Training\",\"Stims/Figures/111-C-30-3.bmp\",\"None\",\"Left\",\"39\",\"8\",\"12\",\"10\",\"N\",\"C\",\"124\"
\"\",\"\",\"approach-retreat\",\"128\",\"819191\",\"0.0-128.0\",\"\",\"\",\"2-1\",\"4251\",\"38\",\"1\",\"Training\",\"Stims/Figures/71-C-30-1.bmp\",\"None\",\"Down\",\"38\",\"8\",\"13\",\"10\",\"N\",\"C\",\"125\"
\"\",\"\",\"approach-retreat\",\"129\",\"824756\",\"0.0-129.0\",\"\",\"\",\"2-1\",\"4052\",\"38\",\"1\",\"Training\",\"Stims/Figures/139-C-20-2.bmp\",\"None\",\"Down\",\"38\",\"8\",\"14\",\"10\",\"N\",\"C\",\"126\"
\"\",\"\",\"approach-retreat\",\"130\",\"830373\",\"0.0-130.0\",\"\",\"\",\"2-1\",\"4105\",\"39\",\"1\",\"Training\",\"Stims/Figures/71-J-0-1.bmp\",\"None\",\"Right\",\"39\",\"8\",\"15\",\"10\",\"N\",\"C\",\"127\"
\"\",\"\",\"approach-retreat\",\"131\",\"835958\",\"0.0-131.0\",\"\",\"\",\"2-1\",\"4073\",\"37\",\"1\",\"Training\",\"Stims/Figures/7-C-20-4.bmp\",\"None\",\"Right\",\"37\",\"8\",\"16\",\"10\",\"N\",\"C\",\"128\"
\"\",\"\",\"approach-retreat\",\"132\",\"841710\",\"0.0-132.0\",\"\",\"\",\"2-1\",\"4233\",\"38\",\"1\",\"Training\",\"Stims/Figures/7-J-10-4.bmp\",\"None\",\"Up\",\"38\",\"9\",\"1\",\"10\",\"N\",\"C\",\"129\"
\"\",\"\",\"approach-retreat\",\"133\",\"847437\",\"0.0-133.0\",\"\",\"\",\"2-1\",\"4215\",\"38\",\"1\",\"Training\",\"Stims/Figures/144-C-30-3.bmp\",\"None\",\"Down\",\"38\",\"9\",\"2\",\"10\",\"N\",\"C\",\"130\"
\"\",\"\",\"approach-retreat\",\"134\",\"853353\",\"0.0-134.0\",\"\",\"\",\"2-1\",\"4402\",\"40\",\"1\",\"Training\",\"Stims/Figures/111-C-30-3.bmp\",\"None\",\"Up\",\"40\",\"9\",\"3\",\"10\",\"N\",\"C\",\"131\"
\"\",\"\",\"approach-retreat\",\"135\",\"859071\",\"0.0-135.0\",\"\",\"\",\"2-1\",\"4204\",\"37\",\"1\",\"Training\",\"Stims/Figures/139-C-20-2.bmp\",\"None\",\"Right\",\"37\",\"9\",\"4\",\"10\",\"N\",\"C\",\"132\"
\"\",\"\",\"approach-retreat\",\"136\",\"864735\",\"0.0-136.0\",\"\",\"\",\"2-1\",\"4153\",\"39\",\"1\",\"Training\",\"Stims/Figures/139-J-0-2.bmp\",\"None\",\"Right\",\"39\",\"9\",\"5\",\"10\",\"N\",\"C\",\"133\"
\"\",\"\",\"approach-retreat\",\"137\",\"870465\",\"0.0-137.0\",\"\",\"\",\"2-1\",\"4218\",\"40\",\"1\",\"Training\",\"Stims/Figures/102-C-20-4.bmp\",\"None\",\"Up\",\"40\",\"9\",\"6\",\"10\",\"N\",\"C\",\"134\"
\"\",\"\",\"approach-retreat\",\"138\",\"876159\",\"0.0-138.0\",\"\",\"\",\"2-1\",\"4182\",\"38\",\"1\",\"Training\",\"Stims/Figures/7-C-20-4.bmp\",\"None\",\"Down\",\"38\",\"9\",\"7\",\"10\",\"N\",\"C\",\"135\"
\"\",\"\",\"approach-retreat\",\"139\",\"881943\",\"0.0-139.0\",\"\",\"\",\"2-1\",\"4260\",\"38\",\"1\",\"Training\",\"Stims/Figures/86-J-0-1.bmp\",\"None\",\"Up\",\"38\",\"9\",\"8\",\"10\",\"N\",\"C\",\"136\"
\"\",\"\",\"approach-retreat\",\"140\",\"887619\",\"0.0-140.0\",\"\",\"\",\"2-1\",\"4164\",\"37\",\"1\",\"Training\",\"Stims/Figures/71-J-0-1.bmp\",\"None\",\"Left\",\"37\",\"9\",\"9\",\"10\",\"N\",\"C\",\"137\"
\"\",\"\",\"approach-retreat\",\"141\",\"893212\",\"0.0-141.0\",\"\",\"\",\"2-1\",\"4080\",\"39\",\"1\",\"Training\",\"Stims/Figures/86-C-30-1.bmp\",\"None\",\"Left\",\"39\",\"9\",\"10\",\"10\",\"N\",\"C\",\"138\"
\"\",\"\",\"approach-retreat\",\"142\",\"898810\",\"0.0-142.0\",\"\",\"\",\"2-1\",\"4087\",\"39\",\"1\",\"Training\",\"Stims/Figures/102-J-10-4.bmp\",\"None\",\"Right\",\"39\",\"9\",\"11\",\"10\",\"N\",\"C\",\"139\"
\"\",\"\",\"approach-retreat\",\"143\",\"904512\",\"0.0-143.0\",\"\",\"\",\"2-1\",\"4192\",\"38\",\"1\",\"Training\",\"Stims/Figures/84-C-20-2.bmp\",\"None\",\"Down\",\"38\",\"9\",\"12\",\"10\",\"N\",\"C\",\"140\"
\"\",\"\",\"approach-retreat\",\"144\",\"910184\",\"0.0-144.0\",\"\",\"\",\"2-1\",\"4160\",\"39\",\"1\",\"Training\",\"Stims/Figures/84-J-0-2.bmp\",\"None\",\"Right\",\"39\",\"9\",\"13\",\"10\",\"N\",\"C\",\"141\"
\"\",\"\",\"approach-retreat\",\"145\",\"915695\",\"0.0-145.0\",\"\",\"\",\"2-1\",\"3996\",\"39\",\"1\",\"Training\",\"Stims/Figures/71-C-30-1.bmp\",\"None\",\"Left\",\"39\",\"9\",\"14\",\"10\",\"N\",\"C\",\"142\"
\"\",\"\",\"approach-retreat\",\"146\",\"921518\",\"0.0-146.0\",\"\",\"\",\"2-1\",\"4309\",\"37\",\"1\",\"Training\",\"Stims/Figures/111-J-10-3.bmp\",\"None\",\"Left\",\"37\",\"9\",\"15\",\"10\",\"N\",\"C\",\"143\"
\"\",\"\",\"approach-retreat\",\"147\",\"927120\",\"0.0-147.0\",\"\",\"\",\"2-1\",\"4089\",\"38\",\"0\",\"Training\",\"Stims/Figures/144-J-10-3.bmp\",\"None\",\"Down\",\"40\",\"9\",\"16\",\"10\",\"N\",\"C\",\"144\"
\"13189\",\"\",\"instructions\",\"148\",\"940309\",\"0.0-148.0\",\"[{\"\"page_index\"\":0,\"\"viewing_time\"\":13188}]\",\"\",\"\",\"\",\"\",\"\",\"\",\"\",\"\",\"\",\"\",\"\",\"\",\"\",\"\",\"\",\"\"
\"\",\"\",\"approach-retreat\",\"149\",\"946049\",\"0.0-149.0\",\"\",\"\",\"2-1\",\"4229\",\"40\",\"1\",\"Testing\",\"Stims/Figures/144-J-10-3.bmp\",\"None\",\"Down\",\"40\",\"1\",\"1\",\"10\",\"N\",\"C\",\"1\"
\"\",\"\",\"approach-retreat\",\"150\",\"951727\",\"0.0-150.0\",\"\",\"\",\"2-1\",\"4161\",\"40\",\"1\",\"Testing\",\"Stims/Figures/71-C-30-1.bmp\",\"None\",\"Up\",\"40\",\"1\",\"2\",\"10\",\"N\",\"C\",\"2\"
\"\",\"\",\"approach-retreat\",\"151\",\"957430\",\"0.0-151.0\",\"\",\"\",\"2-1\",\"4192\",\"40\",\"1\",\"Testing\",\"Stims/Figures/86-C-30-1.bmp\",\"None\",\"Up\",\"40\",\"1\",\"3\",\"10\",\"N\",\"C\",\"3\"
\"\",\"\",\"approach-retreat\",\"152\",\"962997\",\"0.0-152.0\",\"\",\"\",\"2-1\",\"4057\",\"39\",\"1\",\"Testing\",\"Stims/Figures/102-J-10-4.bmp\",\"None\",\"Right\",\"39\",\"1\",\"4\",\"10\",\"N\",\"C\",\"4\"
\"\",\"\",\"approach-retreat\",\"153\",\"968997\",\"0.0-153.0\",\"\",\"\",\"2-1\",\"4490\",\"39\",\"1\",\"Testing\",\"Stims/Figures/71-J-0-1.bmp\",\"None\",\"Right\",\"39\",\"1\",\"5\",\"10\",\"N\",\"C\",\"5\"
\"\",\"\",\"approach-retreat\",\"154\",\"974495\",\"0.0-154.0\",\"\",\"\",\"2-1\",\"3988\",\"37\",\"1\",\"Testing\",\"Stims/Figures/84-C-20-2.bmp\",\"None\",\"Right\",\"37\",\"1\",\"6\",\"10\",\"N\",\"C\",\"6\"
\"\",\"\",\"approach-retreat\",\"155\",\"980019\",\"0.0-155.0\",\"\",\"\",\"2-1\",\"4010\",\"39\",\"1\",\"Testing\",\"Stims/Figures/7-C-20-4.bmp\",\"None\",\"Left\",\"39\",\"1\",\"7\",\"10\",\"N\",\"C\",\"7\"
\"\",\"\",\"approach-retreat\",\"156\",\"985625\",\"0.0-156.0\",\"\",\"\",\"2-1\",\"4091\",\"39\",\"1\",\"Testing\",\"Stims/Figures/144-C-30-3.bmp\",\"None\",\"Left\",\"39\",\"1\",\"8\",\"10\",\"N\",\"C\",\"8\"
\"\",\"\",\"approach-retreat\",\"157\",\"991126\",\"0.0-157.0\",\"\",\"\",\"2-1\",\"3990\",\"39\",\"1\",\"Testing\",\"Stims/Figures/94-C-20-2.bmp\",\"None\",\"Left\",\"39\",\"1\",\"9\",\"10\",\"N\",\"C\",\"9\"
\"\",\"\",\"approach-retreat\",\"158\",\"996705\",\"0.0-158.0\",\"\",\"\",\"2-1\",\"4067\",\"37\",\"1\",\"Testing\",\"Stims/Figures/7-J-10-4.bmp\",\"None\",\"Left\",\"37\",\"1\",\"10\",\"10\",\"N\",\"C\",\"10\"
\"\",\"\",\"approach-retreat\",\"159\",\"1002421\",\"0.0-159.0\",\"\",\"\",\"2-1\",\"4203\",\"38\",\"1\",\"Testing\",\"Stims/Figures/86-J-0-1.bmp\",\"None\",\"Up\",\"38\",\"1\",\"11\",\"10\",\"N\",\"C\",\"11\"
\"\",\"\",\"approach-retreat\",\"160\",\"1008166\",\"0.0-160.0\",\"\",\"\",\"2-1\",\"4235\",\"40\",\"1\",\"Testing\",\"Stims/Figures/44-C-30-3.bmp\",\"None\",\"Up\",\"40\",\"1\",\"12\",\"10\",\"N\",\"C\",\"12\"
\"\",\"\",\"approach-retreat\",\"161\",\"1013798\",\"0.0-161.0\",\"\",\"\",\"2-1\",\"4118\",\"38\",\"1\",\"Testing\",\"Stims/Figures/139-C-20-2.bmp\",\"None\",\"Down\",\"38\",\"1\",\"13\",\"10\",\"N\",\"C\",\"13\"
\"\",\"\",\"approach-retreat\",\"162\",\"1019361\",\"0.0-162.0\",\"\",\"\",\"2-1\",\"4051\",\"38\",\"1\",\"Testing\",\"Stims/Figures/93-C-30-1.bmp\",\"None\",\"Down\",\"38\",\"1\",\"14\",\"10\",\"N\",\"C\",\"14\"
\"\",\"\",\"approach-retreat\",\"163\",\"1024939\",\"0.0-163.0\",\"\",\"\",\"2-1\",\"4066\",\"37\",\"1\",\"Testing\",\"Stims/Figures/139-J-0-2.bmp\",\"None\",\"Left\",\"37\",\"1\",\"15\",\"10\",\"N\",\"C\",\"15\"
\"\",\"\",\"approach-retreat\",\"164\",\"1030970\",\"0.0-164.0\",\"\",\"\",\"2-1\",\"4518\",\"40\",\"1\",\"Testing\",\"Stims/Figures/93-J-0-1.bmp\",\"None\",\"Down\",\"40\",\"1\",\"16\",\"10\",\"N\",\"C\",\"16\"
\"\",\"\",\"approach-retreat\",\"165\",\"1036565\",\"0.0-165.0\",\"\",\"\",\"2-1\",\"4082\",\"40\",\"1\",\"Testing\",\"Stims/Figures/102-C-20-4.bmp\",\"None\",\"Up\",\"40\",\"1\",\"17\",\"10\",\"N\",\"C\",\"17\"
\"\",\"\",\"approach-retreat\",\"166\",\"1042560\",\"0.0-166.0\",\"\",\"\",\"2-1\",\"4482\",\"38\",\"1\",\"Testing\",\"Stims/Figures/84-J-0-2.bmp\",\"None\",\"Up\",\"38\",\"1\",\"18\",\"10\",\"N\",\"C\",\"18\"
\"\",\"\",\"approach-retreat\",\"167\",\"1048706\",\"0.0-167.0\",\"\",\"\",\"2-1\",\"4633\",\"39\",\"1\",\"Testing\",\"Stims/Figures/111-J-10-3.bmp\",\"None\",\"Right\",\"39\",\"1\",\"19\",\"10\",\"N\",\"C\",\"19\"
\"\",\"\",\"approach-retreat\",\"168\",\"1054298\",\"0.0-168.0\",\"\",\"\",\"2-1\",\"4080\",\"39\",\"1\",\"Testing\",\"Stims/Figures/94-J-0-2.bmp\",\"None\",\"Right\",\"39\",\"1\",\"20\",\"10\",\"N\",\"C\",\"20\"
\"\",\"\",\"approach-retreat\",\"169\",\"1059956\",\"0.0-169.0\",\"\",\"\",\"2-1\",\"4146\",\"40\",\"1\",\"Testing\",\"Stims/Figures/44-J-10-3.bmp\",\"None\",\"Down\",\"40\",\"1\",\"21\",\"10\",\"N\",\"C\",\"21\"
\"\",\"\",\"approach-retreat\",\"170\",\"1065509\",\"0.0-170.0\",\"\",\"\",\"2-1\",\"4039\",\"40\",\"1\",\"Testing\",\"Stims/Figures/74-J-10-4.bmp\",\"None\",\"Down\",\"40\",\"1\",\"22\",\"10\",\"N\",\"C\",\"22\"
\"\",\"\",\"approach-retreat\",\"171\",\"1071227\",\"0.0-171.0\",\"\",\"\",\"2-1\",\"4207\",\"37\",\"1\",\"Testing\",\"Stims/Figures/74-C-20-4.bmp\",\"None\",\"Right\",\"37\",\"1\",\"23\",\"10\",\"N\",\"C\",\"23\"
\"\",\"\",\"approach-retreat\",\"172\",\"1076799\",\"0.0-172.0\",\"\",\"\",\"2-1\",\"4060\",\"39\",\"1\",\"Testing\",\"Stims/Figures/111-C-30-3.bmp\",\"None\",\"Left\",\"39\",\"1\",\"24\",\"10\",\"N\",\"C\",\"24\"
\"\",\"\",\"approach-retreat\",\"173\",\"1082418\",\"0.0-173.0\",\"\",\"\",\"2-1\",\"4108\",\"40\",\"1\",\"Testing\",\"Stims/Figures/93-C-30-1.bmp\",\"None\",\"Up\",\"40\",\"2\",\"1\",\"10\",\"N\",\"C\",\"25\"
\"\",\"\",\"approach-retreat\",\"174\",\"1087831\",\"0.0-174.0\",\"\",\"\",\"2-1\",\"3901\",\"39\",\"1\",\"Testing\",\"Stims/Figures/86-C-30-1.bmp\",\"None\",\"Left\",\"39\",\"2\",\"2\",\"10\",\"N\",\"C\",\"26\"
\"\",\"\",\"approach-retreat\",\"175\",\"1093812\",\"0.0-175.0\",\"\",\"\",\"2-1\",\"4471\",\"39\",\"1\",\"Testing\",\"Stims/Figures/7-J-10-4.bmp\",\"None\",\"Right\",\"39\",\"2\",\"3\",\"10\",\"N\",\"C\",\"27\"
\"\",\"\",\"approach-retreat\",\"176\",\"1099488\",\"0.0-176.0\",\"\",\"\",\"2-1\",\"4165\",\"38\",\"1\",\"Testing\",\"Stims/Figures/139-J-0-2.bmp\",\"None\",\"Up\",\"38\",\"2\",\"4\",\"10\",\"N\",\"C\",\"28\"
\"\",\"\",\"approach-retreat\",\"177\",\"1104968\",\"0.0-177.0\",\"\",\"\",\"2-1\",\"3967\",\"37\",\"1\",\"Testing\",\"Stims/Figures/102-C-20-4.bmp\",\"None\",\"Right\",\"37\",\"2\",\"5\",\"10\",\"N\",\"C\",\"29\"
\"\",\"\",\"approach-retreat\",\"178\",\"1110639\",\"0.0-178.0\",\"\",\"\",\"2-1\",\"4159\",\"38\",\"1\",\"Testing\",\"Stims/Figures/94-J-0-2.bmp\",\"None\",\"Up\",\"38\",\"2\",\"6\",\"10\",\"N\",\"C\",\"30\"
\"\",\"\",\"approach-retreat\",\"179\",\"1116205\",\"0.0-179.0\",\"\",\"\",\"2-1\",\"4054\",\"39\",\"1\",\"Testing\",\"Stims/Figures/111-J-10-3.bmp\",\"None\",\"Right\",\"39\",\"2\",\"7\",\"10\",\"N\",\"C\",\"31\"
\"\",\"\",\"approach-retreat\",\"180\",\"1121786\",\"0.0-180.0\",\"\",\"\",\"2-1\",\"4071\",\"37\",\"1\",\"Testing\",\"Stims/Figures/7-C-20-4.bmp\",\"None\",\"Right\",\"37\",\"2\",\"8\",\"10\",\"N\",\"C\",\"32\"
\"\",\"\",\"approach-retreat\",\"181\",\"1127475\",\"0.0-181.0\",\"\",\"\",\"2-1\",\"4178\",\"40\",\"1\",\"Testing\",\"Stims/Figures/111-C-30-3.bmp\",\"None\",\"Up\",\"40\",\"2\",\"9\",\"10\",\"N\",\"C\",\"33\"
\"\",\"\",\"approach-retreat\",\"182\",\"1132942\",\"0.0-182.0\",\"\",\"\",\"2-1\",\"3956\",\"39\",\"1\",\"Testing\",\"Stims/Figures/84-C-20-2.bmp\",\"None\",\"Left\",\"39\",\"2\",\"10\",\"10\",\"N\",\"C\",\"34\"
\"\",\"\",\"approach-retreat\",\"183\",\"1138782\",\"0.0-183.0\",\"\",\"\",\"2-1\",\"4323\",\"38\",\"1\",\"Testing\",\"Stims/Figures/44-J-10-3.bmp\",\"None\",\"Up\",\"38\",\"2\",\"11\",\"10\",\"N\",\"C\",\"35\"
\"\",\"\",\"approach-retreat\",\"184\",\"1144523\",\"0.0-184.0\",\"\",\"\",\"2-1\",\"4231\",\"37\",\"1\",\"Testing\",\"Stims/Figures/93-J-0-1.bmp\",\"None\",\"Left\",\"37\",\"2\",\"12\",\"10\",\"N\",\"C\",\"36\"
\"\",\"\",\"approach-retreat\",\"185\",\"1150160\",\"0.0-185.0\",\"\",\"\",\"2-1\",\"4125\",\"40\",\"1\",\"Testing\",\"Stims/Figures/144-J-10-3.bmp\",\"None\",\"Down\",\"40\",\"2\",\"13\",\"10\",\"N\",\"C\",\"37\"
\"\",\"\",\"approach-retreat\",\"186\",\"1155857\",\"0.0-186.0\",\"\",\"\",\"2-1\",\"4186\",\"40\",\"1\",\"Testing\",\"Stims/Figures/71-C-30-1.bmp\",\"None\",\"Up\",\"40\",\"2\",\"14\",\"10\",\"N\",\"C\",\"38\"
\"\",\"\",\"approach-retreat\",\"187\",\"1161962\",\"0.0-187.0\",\"\",\"\",\"2-1\",\"4592\",\"39\",\"1\",\"Testing\",\"Stims/Figures/94-C-20-2.bmp\",\"None\",\"Left\",\"39\",\"2\",\"15\",\"10\",\"N\",\"C\",\"39\"
\"\",\"\",\"approach-retreat\",\"188\",\"1168072\",\"0.0-188.0\",\"\",\"\",\"2-1\",\"4592\",\"38\",\"1\",\"Testing\",\"Stims/Figures/74-C-20-4.bmp\",\"None\",\"Down\",\"38\",\"2\",\"16\",\"10\",\"N\",\"C\",\"40\"
\"\",\"\",\"approach-retreat\",\"189\",\"1173648\",\"0.0-189.0\",\"\",\"\",\"2-1\",\"4062\",\"39\",\"1\",\"Testing\",\"Stims/Figures/71-J-0-1.bmp\",\"None\",\"Right\",\"39\",\"2\",\"17\",\"10\",\"N\",\"C\",\"41\"
\"\",\"\",\"approach-retreat\",\"190\",\"1179745\",\"0.0-190.0\",\"\",\"\",\"2-1\",\"4583\",\"38\",\"1\",\"Testing\",\"Stims/Figures/44-C-30-3.bmp\",\"None\",\"Down\",\"38\",\"2\",\"18\",\"10\",\"N\",\"C\",\"42\"
\"\",\"\",\"approach-retreat\",\"191\",\"1185306\",\"0.0-191.0\",\"\",\"\",\"2-1\",\"4050\",\"39\",\"1\",\"Testing\",\"Stims/Figures/139-C-20-2.bmp\",\"None\",\"Left\",\"39\",\"2\",\"19\",\"10\",\"N\",\"C\",\"43\"
\"\",\"\",\"approach-retreat\",\"192\",\"1190966\",\"0.0-192.0\",\"\",\"\",\"2-1\",\"4148\",\"38\",\"1\",\"Testing\",\"Stims/Figures/144-C-30-3.bmp\",\"None\",\"Down\",\"38\",\"2\",\"20\",\"10\",\"N\",\"C\",\"44\"
\"\",\"\",\"approach-retreat\",\"193\",\"1196718\",\"0.0-193.0\",\"\",\"\",\"2-1\",\"4238\",\"40\",\"1\",\"Testing\",\"Stims/Figures/74-J-10-4.bmp\",\"None\",\"Down\",\"40\",\"2\",\"21\",\"10\",\"N\",\"C\",\"45\"
\"\",\"\",\"approach-retreat\",\"194\",\"1202538\",\"0.0-194.0\",\"\",\"\",\"2-1\",\"4312\",\"39\",\"1\",\"Testing\",\"Stims/Figures/86-J-0-1.bmp\",\"None\",\"Right\",\"39\",\"2\",\"22\",\"10\",\"N\",\"C\",\"46\"
\"\",\"\",\"approach-retreat\",\"195\",\"1208046\",\"0.0-195.0\",\"\",\"\",\"2-1\",\"3996\",\"40\",\"1\",\"Testing\",\"Stims/Figures/102-J-10-4.bmp\",\"None\",\"Down\",\"40\",\"2\",\"23\",\"10\",\"N\",\"C\",\"47\"
\"\",\"\",\"approach-retreat\",\"196\",\"1213560\",\"0.0-196.0\",\"\",\"\",\"2-1\",\"4002\",\"37\",\"1\",\"Testing\",\"Stims/Figures/84-J-0-2.bmp\",\"None\",\"Left\",\"37\",\"2\",\"24\",\"10\",\"N\",\"C\",\"48\"
\"\",\"\",\"approach-retreat\",\"197\",\"1219165\",\"0.0-197.0\",\"\",\"\",\"2-1\",\"4095\",\"38\",\"1\",\"Testing\",\"Stims/Figures/86-C-30-1.bmp\",\"None\",\"Down\",\"38\",\"3\",\"1\",\"10\",\"N\",\"C\",\"49\"
\"\",\"\",\"approach-retreat\",\"198\",\"1225096\",\"0.0-198.0\",\"\",\"\",\"2-1\",\"4417\",\"38\",\"1\",\"Testing\",\"Stims/Figures/44-J-10-3.bmp\",\"None\",\"Up\",\"38\",\"3\",\"2\",\"10\",\"N\",\"C\",\"50\"
\"\",\"\",\"approach-retreat\",\"199\",\"1230683\",\"0.0-199.0\",\"\",\"\",\"2-1\",\"4075\",\"38\",\"1\",\"Testing\",\"Stims/Figures/111-C-30-3.bmp\",\"None\",\"Down\",\"38\",\"3\",\"3\",\"10\",\"N\",\"C\",\"51\"
\"\",\"\",\"approach-retreat\",\"200\",\"1236408\",\"0.0-200.0\",\"\",\"\",\"2-1\",\"4214\",\"40\",\"1\",\"Testing\",\"Stims/Figures/93-C-30-1.bmp\",\"None\",\"Up\",\"40\",\"3\",\"4\",\"10\",\"N\",\"C\",\"52\"
\"\",\"\",\"approach-retreat\",\"201\",\"1242079\",\"0.0-201.0\",\"\",\"\",\"2-1\",\"4160\",\"39\",\"1\",\"Testing\",\"Stims/Figures/94-C-20-2.bmp\",\"None\",\"Left\",\"39\",\"3\",\"5\",\"10\",\"N\",\"C\",\"53\"
\"\",\"\",\"approach-retreat\",\"202\",\"1247726\",\"0.0-202.0\",\"\",\"\",\"2-1\",\"4137\",\"38\",\"1\",\"Testing\",\"Stims/Figures/71-C-30-1.bmp\",\"None\",\"Down\",\"38\",\"3\",\"6\",\"10\",\"N\",\"C\",\"54\"
\"\",\"\",\"approach-retreat\",\"203\",\"1253293\",\"0.0-203.0\",\"\",\"\",\"2-1\",\"4055\",\"40\",\"1\",\"Testing\",\"Stims/Figures/144-J-10-3.bmp\",\"None\",\"Down\",\"40\",\"3\",\"7\",\"10\",\"N\",\"C\",\"55\"
\"\",\"\",\"approach-retreat\",\"204\",\"1259066\",\"0.0-204.0\",\"\",\"\",\"2-1\",\"4262\",\"40\",\"1\",\"Testing\",\"Stims/Figures/84-J-0-2.bmp\",\"None\",\"Down\",\"40\",\"3\",\"8\",\"10\",\"N\",\"C\",\"56\"
\"\",\"\",\"approach-retreat\",\"205\",\"1264608\",\"0.0-205.0\",\"\",\"\",\"2-1\",\"4030\",\"39\",\"1\",\"Testing\",\"Stims/Figures/111-J-10-3.bmp\",\"None\",\"Right\",\"39\",\"3\",\"9\",\"10\",\"N\",\"C\",\"57\"
\"\",\"\",\"approach-retreat\",\"206\",\"1270333\",\"0.0-206.0\",\"\",\"\",\"2-1\",\"4213\",\"38\",\"1\",\"Testing\",\"Stims/Figures/74-J-10-4.bmp\",\"None\",\"Up\",\"38\",\"3\",\"10\",\"10\",\"N\",\"C\",\"58\"
\"\",\"\",\"approach-retreat\",\"207\",\"1276081\",\"0.0-207.0\",\"\",\"\",\"2-1\",\"4238\",\"40\",\"1\",\"Testing\",\"Stims/Figures/7-J-10-4.bmp\",\"None\",\"Down\",\"40\",\"3\",\"11\",\"10\",\"N\",\"C\",\"59\"
\"\",\"\",\"approach-retreat\",\"208\",\"1281588\",\"0.0-208.0\",\"\",\"\",\"2-1\",\"3991\",\"39\",\"1\",\"Testing\",\"Stims/Figures/139-J-0-2.bmp\",\"None\",\"Right\",\"39\",\"3\",\"12\",\"10\",\"N\",\"C\",\"60\"
\"\",\"\",\"approach-retreat\",\"209\",\"1287383\",\"0.0-209.0\",\"\",\"\",\"2-1\",\"4284\",\"39\",\"1\",\"Testing\",\"Stims/Figures/71-J-0-1.bmp\",\"None\",\"Right\",\"39\",\"3\",\"13\",\"10\",\"N\",\"C\",\"61\"
\"\",\"\",\"approach-retreat\",\"210\",\"1293450\",\"0.0-210.0\",\"\",\"\",\"2-1\",\"4558\",\"40\",\"1\",\"Testing\",\"Stims/Figures/144-C-30-3.bmp\",\"None\",\"Up\",\"40\",\"3\",\"14\",\"10\",\"N\",\"C\",\"62\"
\"\",\"\",\"approach-retreat\",\"211\",\"1299275\",\"0.0-211.0\",\"\",\"\",\"2-1\",\"4313\",\"39\",\"1\",\"Testing\",\"Stims/Figures/86-J-0-1.bmp\",\"None\",\"Right\",\"39\",\"3\",\"15\",\"10\",\"N\",\"C\",\"63\"
\"\",\"\",\"approach-retreat\",\"212\",\"1304786\",\"0.0-212.0\",\"\",\"\",\"2-1\",\"4000\",\"39\",\"1\",\"Testing\",\"Stims/Figures/93-J-0-1.bmp\",\"None\",\"Right\",\"39\",\"3\",\"16\",\"10\",\"N\",\"C\",\"64\"
\"\",\"\",\"approach-retreat\",\"213\",\"1310558\",\"0.0-213.0\",\"\",\"\",\"2-1\",\"4260\",\"37\",\"1\",\"Testing\",\"Stims/Figures/102-J-10-4.bmp\",\"None\",\"Left\",\"37\",\"3\",\"17\",\"10\",\"N\",\"C\",\"65\"
\"\",\"\",\"approach-retreat\",\"214\",\"1316471\",\"0.0-214.0\",\"\",\"\",\"2-1\",\"4402\",\"37\",\"1\",\"Testing\",\"Stims/Figures/94-J-0-2.bmp\",\"None\",\"Left\",\"37\",\"3\",\"18\",\"10\",\"N\",\"C\",\"66\"
\"\",\"\",\"approach-retreat\",\"215\",\"1322453\",\"0.0-215.0\",\"\",\"\",\"2-1\",\"4469\",\"39\",\"1\",\"Testing\",\"Stims/Figures/139-C-20-2.bmp\",\"None\",\"Left\",\"39\",\"3\",\"19\",\"10\",\"N\",\"C\",\"67\"
\"\",\"\",\"approach-retreat\",\"216\",\"1328255\",\"0.0-216.0\",\"\",\"\",\"2-1\",\"4289\",\"37\",\"1\",\"Testing\",\"Stims/Figures/74-C-20-4.bmp\",\"None\",\"Right\",\"37\",\"3\",\"20\",\"10\",\"N\",\"C\",\"68\"
\"\",\"\",\"approach-retreat\",\"217\",\"1334059\",\"0.0-217.0\",\"\",\"\",\"2-1\",\"4293\",\"40\",\"1\",\"Testing\",\"Stims/Figures/84-C-20-2.bmp\",\"None\",\"Up\",\"40\",\"3\",\"21\",\"10\",\"N\",\"C\",\"69\"
\"\",\"\",\"approach-retreat\",\"218\",\"1339845\",\"0.0-218.0\",\"\",\"\",\"2-1\",\"4275\",\"39\",\"1\",\"Testing\",\"Stims/Figures/102-C-20-4.bmp\",\"None\",\"Left\",\"39\",\"3\",\"22\",\"10\",\"N\",\"C\",\"70\"
\"\",\"\",\"approach-retreat\",\"219\",\"1345371\",\"0.0-219.0\",\"\",\"\",\"2-1\",\"4013\",\"40\",\"1\",\"Testing\",\"Stims/Figures/7-C-20-4.bmp\",\"None\",\"Up\",\"40\",\"3\",\"23\",\"10\",\"N\",\"C\",\"71\"
\"\",\"\",\"approach-retreat\",\"220\",\"1351181\",\"0.0-220.0\",\"\",\"\",\"2-1\",\"4293\",\"39\",\"1\",\"Testing\",\"Stims/Figures/44-C-30-3.bmp\",\"None\",\"Left\",\"39\",\"3\",\"24\",\"10\",\"N\",\"C\",\"72\"
\"\",\"\",\"approach-retreat\",\"221\",\"1356932\",\"0.0-221.0\",\"\",\"\",\"2-1\",\"4240\",\"38\",\"1\",\"Testing\",\"Stims/Figures/144-J-10-3.bmp\",\"None\",\"Up\",\"38\",\"4\",\"1\",\"10\",\"N\",\"C\",\"73\"
\"\",\"\",\"approach-retreat\",\"222\",\"1362455\",\"0.0-222.0\",\"\",\"\",\"2-1\",\"4011\",\"39\",\"1\",\"Testing\",\"Stims/Figures/84-J-0-2.bmp\",\"None\",\"Right\",\"39\",\"4\",\"2\",\"10\",\"N\",\"C\",\"74\"
\"\",\"\",\"approach-retreat\",\"223\",\"1368151\",\"0.0-223.0\",\"\",\"\",\"2-1\",\"4185\",\"40\",\"1\",\"Testing\",\"Stims/Figures/44-C-30-3.bmp\",\"None\",\"Up\",\"40\",\"4\",\"3\",\"10\",\"N\",\"C\",\"75\"
\"\",\"\",\"approach-retreat\",\"224\",\"1373826\",\"0.0-224.0\",\"\",\"\",\"2-1\",\"4161\",\"40\",\"1\",\"Testing\",\"Stims/Figures/44-J-10-3.bmp\",\"None\",\"Down\",\"40\",\"4\",\"4\",\"10\",\"N\",\"C\",\"76\"
\"\",\"\",\"approach-retreat\",\"225\",\"1379443\",\"0.0-225.0\",\"\",\"\",\"2-1\",\"4106\",\"37\",\"1\",\"Testing\",\"Stims/Figures/102-J-10-4.bmp\",\"None\",\"Left\",\"37\",\"4\",\"5\",\"10\",\"N\",\"C\",\"77\"
\"\",\"\",\"approach-retreat\",\"226\",\"1385031\",\"0.0-226.0\",\"\",\"\",\"2-1\",\"4076\",\"40\",\"1\",\"Testing\",\"Stims/Figures/7-J-10-4.bmp\",\"None\",\"Down\",\"40\",\"4\",\"6\",\"10\",\"N\",\"C\",\"78\"
\"\",\"\",\"approach-retreat\",\"227\",\"1390729\",\"0.0-227.0\",\"\",\"\",\"2-1\",\"4184\",\"37\",\"1\",\"Testing\",\"Stims/Figures/74-J-10-4.bmp\",\"None\",\"Left\",\"37\",\"4\",\"7\",\"10\",\"N\",\"C\",\"79\"
\"\",\"\",\"approach-retreat\",\"228\",\"1396324\",\"0.0-228.0\",\"\",\"\",\"2-1\",\"4083\",\"39\",\"1\",\"Testing\",\"Stims/Figures/94-C-20-2.bmp\",\"None\",\"Left\",\"39\",\"4\",\"8\",\"10\",\"N\",\"C\",\"80\"
\"\",\"\",\"approach-retreat\",\"229\",\"1402119\",\"0.0-229.0\",\"\",\"\",\"2-1\",\"4281\",\"38\",\"1\",\"Testing\",\"Stims/Figures/71-J-0-1.bmp\",\"None\",\"Up\",\"38\",\"4\",\"9\",\"10\",\"N\",\"C\",\"81\"
\"\",\"\",\"approach-retreat\",\"230\",\"1407608\",\"0.0-230.0\",\"\",\"\",\"2-1\",\"3973\",\"37\",\"1\",\"Testing\",\"Stims/Figures/102-C-20-4.bmp\",\"None\",\"Right\",\"37\",\"4\",\"10\",\"10\",\"N\",\"C\",\"82\"
\"\",\"\",\"approach-retreat\",\"231\",\"1413343\",\"0.0-231.0\",\"\",\"\",\"2-1\",\"4218\",\"38\",\"1\",\"Testing\",\"Stims/Figures/86-C-30-1.bmp\",\"None\",\"Down\",\"38\",\"4\",\"11\",\"10\",\"N\",\"C\",\"83\"
\"\",\"\",\"approach-retreat\",\"232\",\"1418973\",\"0.0-232.0\",\"\",\"\",\"2-1\",\"4117\",\"38\",\"1\",\"Testing\",\"Stims/Figures/94-J-0-2.bmp\",\"None\",\"Up\",\"38\",\"4\",\"12\",\"10\",\"N\",\"C\",\"84\"
\"\",\"\",\"approach-retreat\",\"233\",\"1424608\",\"0.0-233.0\",\"\",\"\",\"2-1\",\"4126\",\"39\",\"1\",\"Testing\",\"Stims/Figures/139-C-20-2.bmp\",\"None\",\"Left\",\"39\",\"4\",\"13\",\"10\",\"N\",\"C\",\"85\"
\"\",\"\",\"approach-retreat\",\"234\",\"1430347\",\"0.0-234.0\",\"\",\"\",\"2-1\",\"4226\",\"39\",\"1\",\"Testing\",\"Stims/Figures/93-C-30-1.bmp\",\"None\",\"Left\",\"39\",\"4\",\"14\",\"10\",\"N\",\"C\",\"86\"
\"\",\"\",\"approach-retreat\",\"235\",\"1436211\",\"0.0-235.0\",\"\",\"\",\"2-1\",\"4350\",\"38\",\"1\",\"Testing\",\"Stims/Figures/84-C-20-2.bmp\",\"None\",\"Down\",\"38\",\"4\",\"15\",\"10\",\"N\",\"C\",\"87\"
\"\",\"\",\"approach-retreat\",\"236\",\"1442268\",\"0.0-236.0\",\"\",\"\",\"2-1\",\"4545\",\"37\",\"1\",\"Testing\",\"Stims/Figures/74-C-20-4.bmp\",\"None\",\"Right\",\"37\",\"4\",\"16\",\"10\",\"N\",\"C\",\"88\"
\"\",\"\",\"approach-retreat\",\"237\",\"1447819\",\"0.0-237.0\",\"\",\"\",\"2-1\",\"4040\",\"38\",\"1\",\"Testing\",\"Stims/Figures/93-J-0-1.bmp\",\"None\",\"Up\",\"38\",\"4\",\"17\",\"10\",\"N\",\"C\",\"89\"
\"\",\"\",\"approach-retreat\",\"238\",\"1453588\",\"0.0-238.0\",\"\",\"\",\"2-1\",\"4255\",\"39\",\"1\",\"Testing\",\"Stims/Figures/139-J-0-2.bmp\",\"None\",\"Right\",\"39\",\"4\",\"18\",\"10\",\"N\",\"C\",\"90\"
\"\",\"\",\"approach-retreat\",\"239\",\"1459268\",\"0.0-239.0\",\"\",\"\",\"2-1\",\"4166\",\"37\",\"1\",\"Testing\",\"Stims/Figures/144-C-30-3.bmp\",\"None\",\"Right\",\"37\",\"4\",\"19\",\"10\",\"N\",\"C\",\"91\"
\"\",\"\",\"approach-retreat\",\"240\",\"1465048\",\"0.0-240.0\",\"\",\"\",\"2-1\",\"4269\",\"38\",\"1\",\"Testing\",\"Stims/Figures/71-C-30-1.bmp\",\"None\",\"Down\",\"38\",\"4\",\"20\",\"10\",\"N\",\"C\",\"92\"
\"\",\"\",\"approach-retreat\",\"241\",\"1470694\",\"0.0-241.0\",\"\",\"\",\"2-1\",\"4136\",\"39\",\"1\",\"Testing\",\"Stims/Figures/7-C-20-4.bmp\",\"None\",\"Left\",\"39\",\"4\",\"21\",\"10\",\"N\",\"C\",\"93\"
\"\",\"\",\"approach-retreat\",\"242\",\"1476272\",\"0.0-242.0\",\"\",\"\",\"2-1\",\"4063\",\"38\",\"1\",\"Testing\",\"Stims/Figures/111-C-30-3.bmp\",\"None\",\"Down\",\"38\",\"4\",\"22\",\"10\",\"N\",\"C\",\"94\"
\"\",\"\",\"approach-retreat\",\"243\",\"1481933\",\"0.0-243.0\",\"\",\"\",\"2-1\",\"4148\",\"38\",\"1\",\"Testing\",\"Stims/Figures/111-J-10-3.bmp\",\"None\",\"Up\",\"38\",\"4\",\"23\",\"10\",\"N\",\"C\",\"95\"
\"\",\"\",\"approach-retreat\",\"244\",\"1487672\",\"0.0-244.0\",\"\",\"\",\"2-1\",\"4224\",\"39\",\"1\",\"Testing\",\"Stims/Figures/86-J-0-1.bmp\",\"None\",\"Right\",\"39\",\"4\",\"24\",\"10\",\"N\",\"C\",\"96\"
\"21168\",\"\",\"survey-text\",\"245\",\"1508846\",\"0.0-245.0\",\"\",\"{\"\"Q0\"\":\"\"PS170063\"\"}\",\"\",\"\",\"\",\"\",\"\",\"\",\"\",\"\",\"\",\"\",\"\",\"\",\"\",\"\",\"\"
