\"rt\",\"key_press\",\"trial_type\",\"trial_index\",\"time_elapsed\",\"internal_node_id\",\"view_history\",\"responses\",\"Id\",\"Rt\",\"ResKeyCode\",\"ResCorr\",\"TrialType2\",\"Image\",\"Label\",\"Location\",\"CorrectResponse\",\"Block\",\"BlockTrial\",\"Condition\",\"LabelType\",\"Subcondition\",\"trialNum\"
\"29973\",\"32\",\"text\",\"0\",\"29977\",\"0.0-0.0-0.0\",\"\",\"\",\"\",\"\",\"\",\"\",\"\",\"\",\"\",\"\",\"\",\"\",\"\",\"\",\"\",\"\",\"\"
\"18283\",\"\",\"instructions\",\"1\",\"48261\",\"0.0-1.0\",\"[{\"\"page_index\"\":0,\"\"viewing_time\"\":18282}]\",\"\",\"\",\"\",\"\",\"\",\"\",\"\",\"\",\"\",\"\",\"\",\"\",\"\",\"\",\"\",\"\"
\"11634\",\"\",\"survey-multi-choice\",\"2\",\"59912\",\"0.0-2.0\",\"\",\"{\"\"Q0\"\":\"\"Da\"\",\"\"Q1\"\":\"\"Da\"\",\"\"Q2\"\":\"\"Da\"\",\"\"Q3\"\":\"\"Da\"\",\"\"Q4\"\":\"\"Da\"\",\"\"Q5\"\":\"\"Da\"\"}\",\"\",\"\",\"\",\"\",\"\",\"\",\"\",\"\",\"\",\"\",\"\",\"\",\"\",\"\",\"\"
\"\",\"\",\"bio\",\"3\",\"64661\",\"0.0-3.0\",\"\",\"{\"\"age\"\":\"\"20\"\",\"\"gender\"\":\"\"m\"\",\"\"specify\"\":\"\"\"\"}\",\"\",\"\",\"\",\"\",\"\",\"\",\"\",\"\",\"\",\"\",\"\",\"\",\"\",\"\",\"\"
\"\",\"\",\"approach-retreat\",\"4\",\"72539\",\"0.0-4.0\",\"\",\"\",\"1-2\",\"6372\",\"40\",\"0\",\"Training\",\"Stims/Figures/44-C-30-3.bmp\",\"fafa:va\",\"Up\",\"38\",\"1\",\"1\",\"6B\",\"C1\",\"J\",\"1\"
\"\",\"\",\"approach-retreat\",\"5\",\"79127\",\"0.0-5.0\",\"\",\"\",\"1-2\",\"5084\",\"37\",\"0\",\"Training\",\"Stims/Figures/74-C-20-4.bmp\",\"va:fa:va\",\"Right\",\"39\",\"1\",\"2\",\"6B\",\"C1\",\"J\",\"2\"
\"\",\"\",\"approach-retreat\",\"6\",\"85099\",\"0.0-6.0\",\"\",\"\",\"1-2\",\"4469\",\"38\",\"1\",\"Training\",\"Stims/Figures/118-C-20-2.bmp\",\"fa:fa:va\",\"Up\",\"38\",\"1\",\"3\",\"6B\",\"C1\",\"J\",\"3\"
\"\",\"\",\"approach-retreat\",\"7\",\"90946\",\"0.0-7.0\",\"\",\"\",\"1-2\",\"4341\",\"40\",\"1\",\"Training\",\"Stims/Figures/84-C-20-2.bmp\",\"vafa:sha\",\"Down\",\"40\",\"1\",\"4\",\"6B\",\"C1\",\"J\",\"4\"
\"\",\"\",\"approach-retreat\",\"8\",\"96648\",\"0.0-8.0\",\"\",\"\",\"1-2\",\"4196\",\"37\",\"1\",\"Training\",\"Stims/Figures/84-J-0-2.bmp\",\"zasa:za\",\"Right\",\"37\",\"1\",\"5\",\"6B\",\"C2\",\"J\",\"5\"
\"\",\"\",\"approach-retreat\",\"9\",\"102632\",\"0.0-9.0\",\"\",\"\",\"1-2\",\"4479\",\"37\",\"1\",\"Training\",\"Stims/Figures/19-C-20-4.bmp\",\"va:sha:sha\",\"Left\",\"37\",\"1\",\"6\",\"6B\",\"C1\",\"J\",\"6\"
\"\",\"\",\"approach-retreat\",\"10\",\"108477\",\"0.0-10.0\",\"\",\"\",\"1-2\",\"4341\",\"40\",\"1\",\"Training\",\"Stims/Figures/19-J-10-4.bmp\",\"saha:za\",\"Up\",\"40\",\"1\",\"7\",\"6B\",\"C2\",\"J\",\"7\"
\"\",\"\",\"approach-retreat\",\"11\",\"114332\",\"0.0-11.0\",\"\",\"\",\"1-2\",\"4351\",\"38\",\"1\",\"Training\",\"Stims/Figures/57-J-0-1.bmp\",\"zasa:ha\",\"Down\",\"38\",\"1\",\"8\",\"6B\",\"C2\",\"J\",\"8\"
\"\",\"\",\"approach-retreat\",\"12\",\"120220\",\"0.0-12.0\",\"\",\"\",\"1-2\",\"4382\",\"37\",\"1\",\"Training\",\"Stims/Figures/128-C-30-3.bmp\",\"fa:shasha\",\"Left\",\"37\",\"1\",\"9\",\"6B\",\"C1\",\"J\",\"9\"
\"\",\"\",\"approach-retreat\",\"13\",\"125932\",\"0.0-13.0\",\"\",\"\",\"1-2\",\"4207\",\"39\",\"1\",\"Training\",\"Stims/Figures/118-J-0-2.bmp\",\"za:ha:ha\",\"Left\",\"39\",\"1\",\"10\",\"6B\",\"C2\",\"J\",\"10\"
\"\",\"\",\"approach-retreat\",\"14\",\"134528\",\"0.0-14.0\",\"\",\"\",\"1-2\",\"7091\",\"38\",\"0\",\"Training\",\"Stims/Figures/57-C-30-1.bmp\",\"fa:sha:va\",\"Down\",\"40\",\"1\",\"11\",\"6B\",\"C1\",\"J\",\"11\"
\"\",\"\",\"approach-retreat\",\"15\",\"140618\",\"0.0-15.0\",\"\",\"\",\"1-2\",\"4584\",\"38\",\"1\",\"Training\",\"Stims/Figures/27-J-0-1.bmp\",\"sa:ha:za\",\"Down\",\"38\",\"1\",\"12\",\"6B\",\"C2\",\"J\",\"12\"
\"\",\"\",\"approach-retreat\",\"16\",\"146284\",\"0.0-16.0\",\"\",\"\",\"1-2\",\"4160\",\"37\",\"1\",\"Training\",\"Stims/Figures/27-C-30-1.bmp\",\"vafa:va\",\"Left\",\"37\",\"1\",\"13\",\"6B\",\"C1\",\"J\",\"13\"
\"\",\"\",\"approach-retreat\",\"17\",\"152118\",\"0.0-17.0\",\"\",\"\",\"1-2\",\"4328\",\"40\",\"1\",\"Training\",\"Stims/Figures/44-J-10-3.bmp\",\"saha:ha\",\"Up\",\"40\",\"1\",\"14\",\"6B\",\"C2\",\"J\",\"14\"
\"\",\"\",\"approach-retreat\",\"18\",\"157773\",\"0.0-18.0\",\"\",\"\",\"1-2\",\"4150\",\"37\",\"1\",\"Training\",\"Stims/Figures/128-J-10-3.bmp\",\"sa:ha:ha\",\"Right\",\"37\",\"1\",\"15\",\"6B\",\"C2\",\"J\",\"15\"
\"\",\"\",\"approach-retreat\",\"19\",\"163459\",\"0.0-19.0\",\"\",\"\",\"1-2\",\"4183\",\"37\",\"1\",\"Training\",\"Stims/Figures/74-J-10-4.bmp\",\"zahaha\",\"Right\",\"37\",\"1\",\"16\",\"6B\",\"C2\",\"J\",\"16\"
\"\",\"\",\"approach-retreat\",\"20\",\"169849\",\"0.0-20.0\",\"\",\"\",\"1-2\",\"4886\",\"37\",\"0\",\"Training\",\"Stims/Figures/27-J-0-1.bmp\",\"sa:ha:za\",\"Left\",\"39\",\"2\",\"1\",\"6B\",\"C2\",\"J\",\"17\"
\"\",\"\",\"approach-retreat\",\"21\",\"175905\",\"0.0-21.0\",\"\",\"\",\"1-2\",\"4552\",\"40\",\"1\",\"Training\",\"Stims/Figures/84-J-0-2.bmp\",\"zasa:za\",\"Up\",\"40\",\"2\",\"2\",\"6B\",\"C2\",\"J\",\"18\"
\"\",\"\",\"approach-retreat\",\"22\",\"181637\",\"0.0-22.0\",\"\",\"\",\"1-2\",\"4228\",\"38\",\"1\",\"Training\",\"Stims/Figures/74-J-10-4.bmp\",\"zahaha\",\"Down\",\"38\",\"2\",\"3\",\"6B\",\"C2\",\"J\",\"19\"
\"\",\"\",\"approach-retreat\",\"23\",\"187273\",\"0.0-23.0\",\"\",\"\",\"1-2\",\"4132\",\"39\",\"1\",\"Training\",\"Stims/Figures/84-C-20-2.bmp\",\"vafa:sha\",\"Right\",\"39\",\"2\",\"4\",\"6B\",\"C1\",\"J\",\"20\"
\"\",\"\",\"approach-retreat\",\"24\",\"192994\",\"0.0-24.0\",\"\",\"\",\"1-2\",\"4216\",\"40\",\"1\",\"Training\",\"Stims/Figures/128-C-30-3.bmp\",\"fa:shasha\",\"Down\",\"40\",\"2\",\"5\",\"6B\",\"C1\",\"J\",\"21\"
\"\",\"\",\"approach-retreat\",\"25\",\"198818\",\"0.0-25.0\",\"\",\"\",\"1-2\",\"4320\",\"39\",\"1\",\"Training\",\"Stims/Figures/44-C-30-3.bmp\",\"fafa:va\",\"Right\",\"39\",\"2\",\"6\",\"6B\",\"C1\",\"J\",\"22\"
\"\",\"\",\"approach-retreat\",\"26\",\"204438\",\"0.0-26.0\",\"\",\"\",\"1-2\",\"4114\",\"37\",\"1\",\"Training\",\"Stims/Figures/74-C-20-4.bmp\",\"va:fa:va\",\"Left\",\"37\",\"2\",\"7\",\"6B\",\"C1\",\"J\",\"23\"
\"\",\"\",\"approach-retreat\",\"27\",\"210041\",\"0.0-27.0\",\"\",\"\",\"1-2\",\"4101\",\"37\",\"1\",\"Training\",\"Stims/Figures/57-C-30-1.bmp\",\"fa:sha:va\",\"Left\",\"37\",\"2\",\"8\",\"6B\",\"C1\",\"J\",\"24\"
\"\",\"\",\"approach-retreat\",\"28\",\"217272\",\"0.0-28.0\",\"\",\"\",\"1-2\",\"5727\",\"37\",\"1\",\"Training\",\"Stims/Figures/128-J-10-3.bmp\",\"sa:ha:ha\",\"Right\",\"37\",\"2\",\"9\",\"6B\",\"C2\",\"J\",\"25\"
\"\",\"\",\"approach-retreat\",\"29\",\"223161\",\"0.0-29.0\",\"\",\"\",\"1-2\",\"4384\",\"38\",\"0\",\"Training\",\"Stims/Figures/118-J-0-2.bmp\",\"za:ha:ha\",\"Up\",\"40\",\"2\",\"10\",\"6B\",\"C2\",\"J\",\"26\"
\"\",\"\",\"approach-retreat\",\"30\",\"229047\",\"0.0-30.0\",\"\",\"\",\"1-2\",\"4380\",\"40\",\"1\",\"Training\",\"Stims/Figures/57-J-0-1.bmp\",\"zasa:ha\",\"Up\",\"40\",\"2\",\"11\",\"6B\",\"C2\",\"J\",\"27\"
\"\",\"\",\"approach-retreat\",\"31\",\"235309\",\"0.0-31.0\",\"\",\"\",\"1-2\",\"4759\",\"39\",\"1\",\"Training\",\"Stims/Figures/19-C-20-4.bmp\",\"va:sha:sha\",\"Right\",\"39\",\"2\",\"12\",\"6B\",\"C1\",\"J\",\"28\"
\"\",\"\",\"approach-retreat\",\"32\",\"241293\",\"0.0-32.0\",\"\",\"\",\"1-2\",\"4479\",\"38\",\"1\",\"Training\",\"Stims/Figures/27-C-30-1.bmp\",\"vafa:va\",\"Up\",\"38\",\"2\",\"13\",\"6B\",\"C1\",\"J\",\"29\"
\"\",\"\",\"approach-retreat\",\"33\",\"247315\",\"0.0-33.0\",\"\",\"\",\"1-2\",\"4518\",\"37\",\"1\",\"Training\",\"Stims/Figures/118-C-20-2.bmp\",\"fa:fa:va\",\"Left\",\"37\",\"2\",\"14\",\"6B\",\"C1\",\"J\",\"30\"
\"\",\"\",\"approach-retreat\",\"34\",\"253099\",\"0.0-34.0\",\"\",\"\",\"1-2\",\"4280\",\"38\",\"1\",\"Training\",\"Stims/Figures/44-J-10-3.bmp\",\"saha:ha\",\"Down\",\"38\",\"2\",\"15\",\"6B\",\"C2\",\"J\",\"31\"
\"\",\"\",\"approach-retreat\",\"35\",\"258702\",\"0.0-35.0\",\"\",\"\",\"1-2\",\"4099\",\"38\",\"1\",\"Training\",\"Stims/Figures/19-J-10-4.bmp\",\"saha:za\",\"Down\",\"38\",\"2\",\"16\",\"6B\",\"C2\",\"J\",\"32\"
\"\",\"\",\"approach-retreat\",\"36\",\"264385\",\"0.0-36.0\",\"\",\"\",\"1-2\",\"4178\",\"40\",\"1\",\"Training\",\"Stims/Figures/44-C-30-3.bmp\",\"fafa:va\",\"Down\",\"40\",\"3\",\"1\",\"6B\",\"C1\",\"J\",\"33\"
\"\",\"\",\"approach-retreat\",\"37\",\"272146\",\"0.0-37.0\",\"\",\"\",\"1-2\",\"6255\",\"37\",\"0\",\"Training\",\"Stims/Figures/19-C-20-4.bmp\",\"va:sha:sha\",\"Right\",\"39\",\"3\",\"2\",\"6B\",\"C1\",\"J\",\"34\"
\"\",\"\",\"approach-retreat\",\"38\",\"277889\",\"0.0-38.0\",\"\",\"\",\"1-2\",\"4237\",\"40\",\"1\",\"Training\",\"Stims/Figures/128-J-10-3.bmp\",\"sa:ha:ha\",\"Up\",\"40\",\"3\",\"3\",\"6B\",\"C2\",\"J\",\"35\"
\"\",\"\",\"approach-retreat\",\"39\",\"283533\",\"0.0-39.0\",\"\",\"\",\"1-2\",\"4139\",\"39\",\"1\",\"Training\",\"Stims/Figures/128-C-30-3.bmp\",\"fa:shasha\",\"Right\",\"39\",\"3\",\"4\",\"6B\",\"C1\",\"J\",\"36\"
\"\",\"\",\"approach-retreat\",\"40\",\"289254\",\"0.0-40.0\",\"\",\"\",\"1-2\",\"4216\",\"38\",\"1\",\"Training\",\"Stims/Figures/27-C-30-1.bmp\",\"vafa:va\",\"Up\",\"38\",\"3\",\"5\",\"6B\",\"C1\",\"J\",\"37\"
\"\",\"\",\"approach-retreat\",\"41\",\"295058\",\"0.0-41.0\",\"\",\"\",\"1-2\",\"4300\",\"38\",\"1\",\"Training\",\"Stims/Figures/84-C-20-2.bmp\",\"vafa:sha\",\"Up\",\"38\",\"3\",\"6\",\"6B\",\"C1\",\"J\",\"38\"
\"\",\"\",\"approach-retreat\",\"42\",\"300626\",\"0.0-42.0\",\"\",\"\",\"1-2\",\"4064\",\"37\",\"1\",\"Training\",\"Stims/Figures/74-C-20-4.bmp\",\"va:fa:va\",\"Left\",\"37\",\"3\",\"7\",\"6B\",\"C1\",\"J\",\"39\"
\"\",\"\",\"approach-retreat\",\"43\",\"306157\",\"0.0-43.0\",\"\",\"\",\"1-2\",\"4026\",\"37\",\"1\",\"Training\",\"Stims/Figures/74-J-10-4.bmp\",\"zahaha\",\"Right\",\"37\",\"3\",\"8\",\"6B\",\"C2\",\"J\",\"40\"
\"\",\"\",\"approach-retreat\",\"44\",\"311917\",\"0.0-44.0\",\"\",\"\",\"1-2\",\"4257\",\"38\",\"1\",\"Training\",\"Stims/Figures/57-C-30-1.bmp\",\"fa:sha:va\",\"Up\",\"38\",\"3\",\"9\",\"6B\",\"C1\",\"J\",\"41\"
\"\",\"\",\"approach-retreat\",\"45\",\"317547\",\"0.0-45.0\",\"\",\"\",\"1-2\",\"4124\",\"37\",\"1\",\"Training\",\"Stims/Figures/19-J-10-4.bmp\",\"saha:za\",\"Right\",\"37\",\"3\",\"10\",\"6B\",\"C2\",\"J\",\"42\"
\"\",\"\",\"approach-retreat\",\"46\",\"323644\",\"0.0-46.0\",\"\",\"\",\"1-2\",\"4592\",\"40\",\"1\",\"Training\",\"Stims/Figures/118-C-20-2.bmp\",\"fa:fa:va\",\"Down\",\"40\",\"3\",\"11\",\"6B\",\"C1\",\"J\",\"43\"
\"\",\"\",\"approach-retreat\",\"47\",\"329377\",\"0.0-47.0\",\"\",\"\",\"1-2\",\"4229\",\"39\",\"1\",\"Training\",\"Stims/Figures/44-J-10-3.bmp\",\"saha:ha\",\"Left\",\"39\",\"3\",\"12\",\"6B\",\"C2\",\"J\",\"44\"
\"\",\"\",\"approach-retreat\",\"48\",\"335009\",\"0.0-48.0\",\"\",\"\",\"1-2\",\"4127\",\"39\",\"1\",\"Training\",\"Stims/Figures/27-J-0-1.bmp\",\"sa:ha:za\",\"Left\",\"39\",\"3\",\"13\",\"6B\",\"C2\",\"J\",\"45\"
\"\",\"\",\"approach-retreat\",\"49\",\"340650\",\"0.0-49.0\",\"\",\"\",\"1-2\",\"4137\",\"38\",\"1\",\"Training\",\"Stims/Figures/57-J-0-1.bmp\",\"zasa:ha\",\"Down\",\"38\",\"3\",\"14\",\"6B\",\"C2\",\"J\",\"46\"
\"\",\"\",\"approach-retreat\",\"50\",\"346149\",\"0.0-50.0\",\"\",\"\",\"1-2\",\"3996\",\"38\",\"1\",\"Training\",\"Stims/Figures/118-J-0-2.bmp\",\"za:ha:ha\",\"Down\",\"38\",\"3\",\"15\",\"6B\",\"C2\",\"J\",\"47\"
\"\",\"\",\"approach-retreat\",\"51\",\"351854\",\"0.0-51.0\",\"\",\"\",\"1-2\",\"4199\",\"39\",\"1\",\"Training\",\"Stims/Figures/84-J-0-2.bmp\",\"zasa:za\",\"Left\",\"39\",\"3\",\"16\",\"6B\",\"C2\",\"J\",\"48\"
\"\",\"\",\"approach-retreat\",\"52\",\"357528\",\"0.0-52.0\",\"\",\"\",\"1-2\",\"4170\",\"38\",\"1\",\"Training\",\"Stims/Figures/84-C-20-2.bmp\",\"vafa:sha\",\"Up\",\"38\",\"4\",\"1\",\"6B\",\"C1\",\"J\",\"49\"
\"\",\"\",\"approach-retreat\",\"53\",\"363322\",\"0.0-53.0\",\"\",\"\",\"1-2\",\"4290\",\"39\",\"1\",\"Training\",\"Stims/Figures/19-J-10-4.bmp\",\"saha:za\",\"Left\",\"39\",\"4\",\"2\",\"6B\",\"C2\",\"J\",\"50\"
\"\",\"\",\"approach-retreat\",\"54\",\"369190\",\"0.0-54.0\",\"\",\"\",\"1-2\",\"4362\",\"38\",\"1\",\"Training\",\"Stims/Figures/74-J-10-4.bmp\",\"zahaha\",\"Down\",\"38\",\"4\",\"3\",\"6B\",\"C2\",\"J\",\"51\"
\"\",\"\",\"approach-retreat\",\"55\",\"375361\",\"0.0-55.0\",\"\",\"\",\"1-2\",\"4667\",\"38\",\"0\",\"Training\",\"Stims/Figures/128-J-10-3.bmp\",\"sa:ha:ha\",\"Up\",\"40\",\"4\",\"4\",\"6B\",\"C2\",\"J\",\"52\"
\"\",\"\",\"approach-retreat\",\"56\",\"381392\",\"0.0-56.0\",\"\",\"\",\"1-2\",\"4526\",\"39\",\"1\",\"Training\",\"Stims/Figures/57-C-30-1.bmp\",\"fa:sha:va\",\"Right\",\"39\",\"4\",\"5\",\"6B\",\"C1\",\"J\",\"53\"
\"\",\"\",\"approach-retreat\",\"57\",\"386991\",\"0.0-57.0\",\"\",\"\",\"1-2\",\"4092\",\"37\",\"1\",\"Training\",\"Stims/Figures/118-J-0-2.bmp\",\"za:ha:ha\",\"Right\",\"37\",\"4\",\"6\",\"6B\",\"C2\",\"J\",\"54\"
\"\",\"\",\"approach-retreat\",\"58\",\"392818\",\"0.0-58.0\",\"\",\"\",\"1-2\",\"4323\",\"37\",\"1\",\"Training\",\"Stims/Figures/118-C-20-2.bmp\",\"fa:fa:va\",\"Left\",\"37\",\"4\",\"7\",\"6B\",\"C1\",\"J\",\"55\"
\"\",\"\",\"approach-retreat\",\"59\",\"398565\",\"0.0-59.0\",\"\",\"\",\"1-2\",\"4242\",\"40\",\"1\",\"Training\",\"Stims/Figures/84-J-0-2.bmp\",\"zasa:za\",\"Up\",\"40\",\"4\",\"8\",\"6B\",\"C2\",\"J\",\"56\"
\"\",\"\",\"approach-retreat\",\"60\",\"404224\",\"0.0-60.0\",\"\",\"\",\"1-2\",\"4154\",\"38\",\"1\",\"Training\",\"Stims/Figures/57-J-0-1.bmp\",\"zasa:ha\",\"Down\",\"38\",\"4\",\"9\",\"6B\",\"C2\",\"J\",\"57\"
\"\",\"\",\"approach-retreat\",\"61\",\"410463\",\"0.0-61.0\",\"\",\"\",\"1-2\",\"4734\",\"39\",\"1\",\"Training\",\"Stims/Figures/74-C-20-4.bmp\",\"va:fa:va\",\"Right\",\"39\",\"4\",\"10\",\"6B\",\"C1\",\"J\",\"58\"
\"\",\"\",\"approach-retreat\",\"62\",\"416304\",\"0.0-62.0\",\"\",\"\",\"1-2\",\"4335\",\"38\",\"1\",\"Training\",\"Stims/Figures/44-J-10-3.bmp\",\"saha:ha\",\"Down\",\"38\",\"4\",\"11\",\"6B\",\"C2\",\"J\",\"59\"
\"\",\"\",\"approach-retreat\",\"63\",\"422269\",\"0.0-63.0\",\"\",\"\",\"1-2\",\"4459\",\"37\",\"1\",\"Training\",\"Stims/Figures/44-C-30-3.bmp\",\"fafa:va\",\"Left\",\"37\",\"4\",\"12\",\"6B\",\"C1\",\"J\",\"60\"
\"\",\"\",\"approach-retreat\",\"64\",\"428066\",\"0.0-64.0\",\"\",\"\",\"1-2\",\"4293\",\"38\",\"1\",\"Training\",\"Stims/Figures/27-C-30-1.bmp\",\"vafa:va\",\"Up\",\"38\",\"4\",\"13\",\"6B\",\"C1\",\"J\",\"61\"
\"\",\"\",\"approach-retreat\",\"65\",\"434262\",\"0.0-65.0\",\"\",\"\",\"1-2\",\"4692\",\"38\",\"1\",\"Training\",\"Stims/Figures/27-J-0-1.bmp\",\"sa:ha:za\",\"Down\",\"38\",\"4\",\"14\",\"6B\",\"C2\",\"J\",\"62\"
\"\",\"\",\"approach-retreat\",\"66\",\"439964\",\"0.0-66.0\",\"\",\"\",\"1-2\",\"4197\",\"37\",\"1\",\"Training\",\"Stims/Figures/128-C-30-3.bmp\",\"fa:shasha\",\"Left\",\"37\",\"4\",\"15\",\"6B\",\"C1\",\"J\",\"63\"
\"\",\"\",\"approach-retreat\",\"67\",\"445588\",\"0.0-67.0\",\"\",\"\",\"1-2\",\"4120\",\"39\",\"1\",\"Training\",\"Stims/Figures/19-C-20-4.bmp\",\"va:sha:sha\",\"Right\",\"39\",\"4\",\"16\",\"6B\",\"C1\",\"J\",\"64\"
\"\",\"\",\"approach-retreat\",\"68\",\"451239\",\"0.0-68.0\",\"\",\"\",\"1-2\",\"4148\",\"37\",\"1\",\"Training\",\"Stims/Figures/27-C-30-1.bmp\",\"vafa:va\",\"Left\",\"37\",\"5\",\"1\",\"6B\",\"C1\",\"J\",\"65\"
\"\",\"\",\"approach-retreat\",\"69\",\"456905\",\"0.0-69.0\",\"\",\"\",\"1-2\",\"4162\",\"38\",\"1\",\"Training\",\"Stims/Figures/44-C-30-3.bmp\",\"fafa:va\",\"Up\",\"38\",\"5\",\"2\",\"6B\",\"C1\",\"J\",\"66\"
\"\",\"\",\"approach-retreat\",\"70\",\"462774\",\"0.0-70.0\",\"\",\"\",\"1-2\",\"4364\",\"37\",\"1\",\"Training\",\"Stims/Figures/57-J-0-1.bmp\",\"zasa:ha\",\"Right\",\"37\",\"5\",\"3\",\"6B\",\"C2\",\"J\",\"67\"
\"\",\"\",\"approach-retreat\",\"71\",\"468426\",\"0.0-71.0\",\"\",\"\",\"1-2\",\"4147\",\"38\",\"1\",\"Training\",\"Stims/Figures/27-J-0-1.bmp\",\"sa:ha:za\",\"Down\",\"38\",\"5\",\"4\",\"6B\",\"C2\",\"J\",\"68\"
\"\",\"\",\"approach-retreat\",\"72\",\"474200\",\"0.0-72.0\",\"\",\"\",\"1-2\",\"4269\",\"40\",\"1\",\"Training\",\"Stims/Figures/44-J-10-3.bmp\",\"saha:ha\",\"Up\",\"40\",\"5\",\"5\",\"6B\",\"C2\",\"J\",\"69\"
\"\",\"\",\"approach-retreat\",\"73\",\"479765\",\"0.0-73.0\",\"\",\"\",\"1-2\",\"4062\",\"40\",\"1\",\"Training\",\"Stims/Figures/19-J-10-4.bmp\",\"saha:za\",\"Up\",\"40\",\"5\",\"6\",\"6B\",\"C2\",\"J\",\"70\"
\"\",\"\",\"approach-retreat\",\"74\",\"486356\",\"0.0-74.0\",\"\",\"\",\"1-2\",\"5086\",\"40\",\"1\",\"Training\",\"Stims/Figures/74-C-20-4.bmp\",\"va:fa:va\",\"Down\",\"40\",\"5\",\"7\",\"6B\",\"C1\",\"J\",\"71\"
\"\",\"\",\"approach-retreat\",\"75\",\"492032\",\"0.0-75.0\",\"\",\"\",\"1-2\",\"4171\",\"40\",\"1\",\"Training\",\"Stims/Figures/84-C-20-2.bmp\",\"vafa:sha\",\"Down\",\"40\",\"5\",\"8\",\"6B\",\"C1\",\"J\",\"72\"
\"\",\"\",\"approach-retreat\",\"76\",\"497851\",\"0.0-76.0\",\"\",\"\",\"1-2\",\"4315\",\"39\",\"1\",\"Training\",\"Stims/Figures/118-J-0-2.bmp\",\"za:ha:ha\",\"Left\",\"39\",\"5\",\"9\",\"6B\",\"C2\",\"J\",\"73\"
\"\",\"\",\"approach-retreat\",\"77\",\"503363\",\"0.0-77.0\",\"\",\"\",\"1-2\",\"4007\",\"37\",\"1\",\"Training\",\"Stims/Figures/128-C-30-3.bmp\",\"fa:shasha\",\"Left\",\"37\",\"5\",\"10\",\"6B\",\"C1\",\"J\",\"74\"
\"\",\"\",\"approach-retreat\",\"78\",\"508997\",\"0.0-78.0\",\"\",\"\",\"1-2\",\"4129\",\"38\",\"1\",\"Training\",\"Stims/Figures/128-J-10-3.bmp\",\"sa:ha:ha\",\"Down\",\"38\",\"5\",\"11\",\"6B\",\"C2\",\"J\",\"75\"
\"\",\"\",\"approach-retreat\",\"79\",\"514895\",\"0.0-79.0\",\"\",\"\",\"1-2\",\"4394\",\"39\",\"1\",\"Training\",\"Stims/Figures/118-C-20-2.bmp\",\"fa:fa:va\",\"Right\",\"39\",\"5\",\"12\",\"6B\",\"C1\",\"J\",\"76\"
\"\",\"\",\"approach-retreat\",\"80\",\"520422\",\"0.0-80.0\",\"\",\"\",\"1-2\",\"4023\",\"37\",\"1\",\"Training\",\"Stims/Figures/19-C-20-4.bmp\",\"va:sha:sha\",\"Left\",\"37\",\"5\",\"13\",\"6B\",\"C1\",\"J\",\"77\"
\"\",\"\",\"approach-retreat\",\"81\",\"526091\",\"0.0-81.0\",\"\",\"\",\"1-2\",\"4166\",\"37\",\"1\",\"Training\",\"Stims/Figures/74-J-10-4.bmp\",\"zahaha\",\"Right\",\"37\",\"5\",\"14\",\"6B\",\"C2\",\"J\",\"78\"
\"\",\"\",\"approach-retreat\",\"82\",\"531854\",\"0.0-82.0\",\"\",\"\",\"1-2\",\"4260\",\"39\",\"1\",\"Training\",\"Stims/Figures/57-C-30-1.bmp\",\"fa:sha:va\",\"Right\",\"39\",\"5\",\"15\",\"6B\",\"C1\",\"J\",\"79\"
\"\",\"\",\"approach-retreat\",\"83\",\"537525\",\"0.0-83.0\",\"\",\"\",\"1-2\",\"4167\",\"40\",\"1\",\"Training\",\"Stims/Figures/84-J-0-2.bmp\",\"zasa:za\",\"Up\",\"40\",\"5\",\"16\",\"6B\",\"C2\",\"J\",\"80\"
\"\",\"\",\"approach-retreat\",\"84\",\"543087\",\"0.0-84.0\",\"\",\"\",\"1-2\",\"4056\",\"38\",\"1\",\"Training\",\"Stims/Figures/118-C-20-2.bmp\",\"fa:fa:va\",\"Up\",\"38\",\"6\",\"1\",\"6B\",\"C1\",\"J\",\"81\"
\"\",\"\",\"approach-retreat\",\"85\",\"548802\",\"0.0-85.0\",\"\",\"\",\"1-2\",\"4212\",\"38\",\"1\",\"Training\",\"Stims/Figures/84-J-0-2.bmp\",\"zasa:za\",\"Down\",\"38\",\"6\",\"2\",\"6B\",\"C2\",\"J\",\"82\"
\"\",\"\",\"approach-retreat\",\"86\",\"554581\",\"0.0-86.0\",\"\",\"\",\"1-2\",\"4275\",\"39\",\"1\",\"Training\",\"Stims/Figures/19-C-20-4.bmp\",\"va:sha:sha\",\"Right\",\"39\",\"6\",\"3\",\"6B\",\"C1\",\"J\",\"83\"
\"\",\"\",\"approach-retreat\",\"87\",\"560178\",\"0.0-87.0\",\"\",\"\",\"1-2\",\"4094\",\"38\",\"1\",\"Training\",\"Stims/Figures/128-J-10-3.bmp\",\"sa:ha:ha\",\"Down\",\"38\",\"6\",\"4\",\"6B\",\"C2\",\"J\",\"84\"
\"\",\"\",\"approach-retreat\",\"88\",\"566100\",\"0.0-88.0\",\"\",\"\",\"1-2\",\"4417\",\"37\",\"1\",\"Training\",\"Stims/Figures/74-C-20-4.bmp\",\"va:fa:va\",\"Left\",\"37\",\"6\",\"5\",\"6B\",\"C1\",\"J\",\"85\"
\"\",\"\",\"approach-retreat\",\"89\",\"571605\",\"0.0-89.0\",\"\",\"\",\"1-2\",\"4001\",\"40\",\"1\",\"Training\",\"Stims/Figures/118-J-0-2.bmp\",\"za:ha:ha\",\"Up\",\"40\",\"6\",\"6\",\"6B\",\"C2\",\"J\",\"86\"
\"\",\"\",\"approach-retreat\",\"90\",\"577075\",\"0.0-90.0\",\"\",\"\",\"1-2\",\"3965\",\"37\",\"1\",\"Training\",\"Stims/Figures/57-J-0-1.bmp\",\"zasa:ha\",\"Right\",\"37\",\"6\",\"7\",\"6B\",\"C2\",\"J\",\"87\"
\"\",\"\",\"approach-retreat\",\"91\",\"582713\",\"0.0-91.0\",\"\",\"\",\"1-2\",\"4134\",\"38\",\"1\",\"Training\",\"Stims/Figures/27-J-0-1.bmp\",\"sa:ha:za\",\"Down\",\"38\",\"6\",\"8\",\"6B\",\"C2\",\"J\",\"88\"
\"\",\"\",\"approach-retreat\",\"92\",\"588352\",\"0.0-92.0\",\"\",\"\",\"1-2\",\"4135\",\"39\",\"1\",\"Training\",\"Stims/Figures/84-C-20-2.bmp\",\"vafa:sha\",\"Right\",\"39\",\"6\",\"9\",\"6B\",\"C1\",\"J\",\"89\"
\"\",\"\",\"approach-retreat\",\"93\",\"594174\",\"0.0-93.0\",\"\",\"\",\"1-2\",\"4317\",\"38\",\"1\",\"Training\",\"Stims/Figures/44-C-30-3.bmp\",\"fafa:va\",\"Up\",\"38\",\"6\",\"10\",\"6B\",\"C1\",\"J\",\"90\"
\"\",\"\",\"approach-retreat\",\"94\",\"599989\",\"0.0-94.0\",\"\",\"\",\"1-2\",\"4310\",\"39\",\"1\",\"Training\",\"Stims/Figures/74-J-10-4.bmp\",\"zahaha\",\"Left\",\"39\",\"6\",\"11\",\"6B\",\"C2\",\"J\",\"91\"
\"\",\"\",\"approach-retreat\",\"95\",\"605889\",\"0.0-95.0\",\"\",\"\",\"1-2\",\"4397\",\"37\",\"1\",\"Training\",\"Stims/Figures/128-C-30-3.bmp\",\"fa:shasha\",\"Left\",\"37\",\"6\",\"12\",\"6B\",\"C1\",\"J\",\"92\"
\"\",\"\",\"approach-retreat\",\"96\",\"611467\",\"0.0-96.0\",\"\",\"\",\"1-2\",\"4073\",\"38\",\"1\",\"Training\",\"Stims/Figures/44-J-10-3.bmp\",\"saha:ha\",\"Down\",\"38\",\"6\",\"13\",\"6B\",\"C2\",\"J\",\"93\"
\"\",\"\",\"approach-retreat\",\"97\",\"617045\",\"0.0-97.0\",\"\",\"\",\"1-2\",\"4073\",\"37\",\"1\",\"Training\",\"Stims/Figures/57-C-30-1.bmp\",\"fa:sha:va\",\"Left\",\"37\",\"6\",\"14\",\"6B\",\"C1\",\"J\",\"94\"
\"\",\"\",\"approach-retreat\",\"98\",\"622633\",\"0.0-98.0\",\"\",\"\",\"1-2\",\"4084\",\"40\",\"1\",\"Training\",\"Stims/Figures/19-J-10-4.bmp\",\"saha:za\",\"Up\",\"40\",\"6\",\"15\",\"6B\",\"C2\",\"J\",\"95\"
\"\",\"\",\"approach-retreat\",\"99\",\"628393\",\"0.0-99.0\",\"\",\"\",\"1-2\",\"4254\",\"39\",\"1\",\"Training\",\"Stims/Figures/27-C-30-1.bmp\",\"vafa:va\",\"Right\",\"39\",\"6\",\"16\",\"6B\",\"C1\",\"J\",\"96\"
\"\",\"\",\"approach-retreat\",\"100\",\"634009\",\"0.0-100.0\",\"\",\"\",\"1-2\",\"4110\",\"38\",\"1\",\"Training\",\"Stims/Figures/19-J-10-4.bmp\",\"saha:za\",\"Down\",\"38\",\"7\",\"1\",\"6B\",\"C2\",\"J\",\"97\"
\"\",\"\",\"approach-retreat\",\"101\",\"639661\",\"0.0-101.0\",\"\",\"\",\"1-2\",\"4148\",\"39\",\"1\",\"Training\",\"Stims/Figures/19-C-20-4.bmp\",\"va:sha:sha\",\"Right\",\"39\",\"7\",\"2\",\"6B\",\"C1\",\"J\",\"98\"
\"\",\"\",\"approach-retreat\",\"102\",\"645282\",\"0.0-102.0\",\"\",\"\",\"1-2\",\"4115\",\"37\",\"1\",\"Training\",\"Stims/Figures/44-C-30-3.bmp\",\"fafa:va\",\"Left\",\"37\",\"7\",\"3\",\"6B\",\"C1\",\"J\",\"99\"
\"\",\"\",\"approach-retreat\",\"103\",\"651002\",\"0.0-103.0\",\"\",\"\",\"1-2\",\"4216\",\"38\",\"1\",\"Training\",\"Stims/Figures/118-C-20-2.bmp\",\"fa:fa:va\",\"Up\",\"38\",\"7\",\"4\",\"6B\",\"C1\",\"J\",\"100\"
\"\",\"\",\"approach-retreat\",\"104\",\"657070\",\"0.0-104.0\",\"\",\"\",\"1-2\",\"4563\",\"38\",\"1\",\"Training\",\"Stims/Figures/118-J-0-2.bmp\",\"za:ha:ha\",\"Down\",\"38\",\"7\",\"5\",\"6B\",\"C2\",\"J\",\"101\"
\"\",\"\",\"approach-retreat\",\"105\",\"662805\",\"0.0-105.0\",\"\",\"\",\"1-2\",\"4231\",\"40\",\"1\",\"Training\",\"Stims/Figures/57-C-30-1.bmp\",\"fa:sha:va\",\"Down\",\"40\",\"7\",\"6\",\"6B\",\"C1\",\"J\",\"102\"
\"\",\"\",\"approach-retreat\",\"106\",\"668536\",\"0.0-106.0\",\"\",\"\",\"1-2\",\"4227\",\"39\",\"1\",\"Training\",\"Stims/Figures/57-J-0-1.bmp\",\"zasa:ha\",\"Left\",\"39\",\"7\",\"7\",\"6B\",\"C2\",\"J\",\"103\"
\"\",\"\",\"approach-retreat\",\"107\",\"675404\",\"0.0-107.0\",\"\",\"\",\"1-2\",\"5363\",\"38\",\"1\",\"Training\",\"Stims/Figures/128-C-30-3.bmp\",\"fa:shasha\",\"Up\",\"38\",\"7\",\"8\",\"6B\",\"C1\",\"J\",\"104\"
\"\",\"\",\"approach-retreat\",\"108\",\"681453\",\"0.0-108.0\",\"\",\"\",\"1-2\",\"4543\",\"39\",\"1\",\"Training\",\"Stims/Figures/74-J-10-4.bmp\",\"zahaha\",\"Left\",\"39\",\"7\",\"9\",\"6B\",\"C2\",\"J\",\"105\"
\"\",\"\",\"approach-retreat\",\"109\",\"687267\",\"0.0-109.0\",\"\",\"\",\"1-2\",\"4310\",\"38\",\"1\",\"Training\",\"Stims/Figures/27-C-30-1.bmp\",\"vafa:va\",\"Up\",\"38\",\"7\",\"10\",\"6B\",\"C1\",\"J\",\"106\"
\"\",\"\",\"approach-retreat\",\"110\",\"692910\",\"0.0-110.0\",\"\",\"\",\"1-2\",\"4139\",\"37\",\"1\",\"Training\",\"Stims/Figures/84-J-0-2.bmp\",\"zasa:za\",\"Right\",\"37\",\"7\",\"11\",\"6B\",\"C2\",\"J\",\"107\"
\"\",\"\",\"approach-retreat\",\"111\",\"699089\",\"0.0-111.0\",\"\",\"\",\"1-2\",\"4676\",\"38\",\"1\",\"Training\",\"Stims/Figures/27-J-0-1.bmp\",\"sa:ha:za\",\"Down\",\"38\",\"7\",\"12\",\"6B\",\"C2\",\"J\",\"108\"
\"\",\"\",\"approach-retreat\",\"112\",\"705672\",\"0.0-112.0\",\"\",\"\",\"1-2\",\"5079\",\"37\",\"1\",\"Training\",\"Stims/Figures/84-C-20-2.bmp\",\"vafa:sha\",\"Left\",\"37\",\"7\",\"13\",\"6B\",\"C1\",\"J\",\"109\"
\"\",\"\",\"approach-retreat\",\"113\",\"711914\",\"0.0-113.0\",\"\",\"\",\"1-2\",\"4736\",\"39\",\"1\",\"Training\",\"Stims/Figures/74-C-20-4.bmp\",\"va:fa:va\",\"Right\",\"39\",\"7\",\"14\",\"6B\",\"C1\",\"J\",\"110\"
\"\",\"\",\"approach-retreat\",\"114\",\"717948\",\"0.0-114.0\",\"\",\"\",\"1-2\",\"4529\",\"40\",\"1\",\"Training\",\"Stims/Figures/44-J-10-3.bmp\",\"saha:ha\",\"Up\",\"40\",\"7\",\"15\",\"6B\",\"C2\",\"J\",\"111\"
\"\",\"\",\"approach-retreat\",\"115\",\"723661\",\"0.0-115.0\",\"\",\"\",\"1-2\",\"4207\",\"37\",\"1\",\"Training\",\"Stims/Figures/128-J-10-3.bmp\",\"sa:ha:ha\",\"Right\",\"37\",\"7\",\"16\",\"6B\",\"C2\",\"J\",\"112\"
\"\",\"\",\"approach-retreat\",\"116\",\"729268\",\"0.0-116.0\",\"\",\"\",\"1-2\",\"4104\",\"38\",\"1\",\"Training\",\"Stims/Figures/27-C-30-1.bmp\",\"vafa:va\",\"Up\",\"38\",\"8\",\"1\",\"6B\",\"C1\",\"J\",\"113\"
\"\",\"\",\"approach-retreat\",\"117\",\"734966\",\"0.0-117.0\",\"\",\"\",\"1-2\",\"4195\",\"37\",\"1\",\"Training\",\"Stims/Figures/19-C-20-4.bmp\",\"va:sha:sha\",\"Left\",\"37\",\"8\",\"2\",\"6B\",\"C1\",\"J\",\"114\"
\"\",\"\",\"approach-retreat\",\"118\",\"740985\",\"0.0-118.0\",\"\",\"\",\"1-2\",\"4512\",\"39\",\"1\",\"Training\",\"Stims/Figures/19-J-10-4.bmp\",\"saha:za\",\"Left\",\"39\",\"8\",\"3\",\"6B\",\"C2\",\"J\",\"115\"
\"\",\"\",\"approach-retreat\",\"119\",\"748028\",\"0.0-119.0\",\"\",\"\",\"1-2\",\"5538\",\"40\",\"1\",\"Training\",\"Stims/Figures/44-J-10-3.bmp\",\"saha:ha\",\"Up\",\"40\",\"8\",\"4\",\"6B\",\"C2\",\"J\",\"116\"
\"\",\"\",\"approach-retreat\",\"120\",\"754831\",\"0.0-120.0\",\"\",\"\",\"1-2\",\"5297\",\"39\",\"1\",\"Training\",\"Stims/Figures/57-J-0-1.bmp\",\"zasa:ha\",\"Left\",\"39\",\"8\",\"5\",\"6B\",\"C2\",\"J\",\"117\"
\"\",\"\",\"approach-retreat\",\"121\",\"760514\",\"0.0-121.0\",\"\",\"\",\"1-2\",\"4177\",\"38\",\"1\",\"Training\",\"Stims/Figures/84-J-0-2.bmp\",\"zasa:za\",\"Down\",\"38\",\"8\",\"6\",\"6B\",\"C2\",\"J\",\"118\"
\"\",\"\",\"approach-retreat\",\"122\",\"766093\",\"0.0-122.0\",\"\",\"\",\"1-2\",\"4075\",\"38\",\"1\",\"Training\",\"Stims/Figures/118-J-0-2.bmp\",\"za:ha:ha\",\"Down\",\"38\",\"8\",\"7\",\"6B\",\"C2\",\"J\",\"119\"
\"\",\"\",\"approach-retreat\",\"123\",\"771627\",\"0.0-123.0\",\"\",\"\",\"1-2\",\"4029\",\"37\",\"1\",\"Training\",\"Stims/Figures/74-J-10-4.bmp\",\"zahaha\",\"Right\",\"37\",\"8\",\"8\",\"6B\",\"C2\",\"J\",\"120\"
\"\",\"\",\"approach-retreat\",\"124\",\"777337\",\"0.0-124.0\",\"\",\"\",\"1-2\",\"4205\",\"38\",\"1\",\"Training\",\"Stims/Figures/57-C-30-1.bmp\",\"fa:sha:va\",\"Up\",\"38\",\"8\",\"9\",\"6B\",\"C1\",\"J\",\"121\"
\"\",\"\",\"approach-retreat\",\"125\",\"782905\",\"0.0-125.0\",\"\",\"\",\"1-2\",\"4063\",\"40\",\"1\",\"Training\",\"Stims/Figures/44-C-30-3.bmp\",\"fafa:va\",\"Down\",\"40\",\"8\",\"10\",\"6B\",\"C1\",\"J\",\"122\"
\"\",\"\",\"approach-retreat\",\"126\",\"788692\",\"0.0-126.0\",\"\",\"\",\"1-2\",\"4283\",\"39\",\"1\",\"Training\",\"Stims/Figures/128-C-30-3.bmp\",\"fa:shasha\",\"Right\",\"39\",\"8\",\"11\",\"6B\",\"C1\",\"J\",\"123\"
\"\",\"\",\"approach-retreat\",\"127\",\"794347\",\"0.0-127.0\",\"\",\"\",\"1-2\",\"4151\",\"37\",\"1\",\"Training\",\"Stims/Figures/27-J-0-1.bmp\",\"sa:ha:za\",\"Right\",\"37\",\"8\",\"12\",\"6B\",\"C2\",\"J\",\"124\"
\"\",\"\",\"approach-retreat\",\"128\",\"799930\",\"0.0-128.0\",\"\",\"\",\"1-2\",\"4077\",\"40\",\"1\",\"Training\",\"Stims/Figures/74-C-20-4.bmp\",\"va:fa:va\",\"Down\",\"40\",\"8\",\"13\",\"6B\",\"C1\",\"J\",\"125\"
\"\",\"\",\"approach-retreat\",\"129\",\"805758\",\"0.0-129.0\",\"\",\"\",\"1-2\",\"4324\",\"39\",\"1\",\"Training\",\"Stims/Figures/84-C-20-2.bmp\",\"vafa:sha\",\"Right\",\"39\",\"8\",\"14\",\"6B\",\"C1\",\"J\",\"126\"
\"\",\"\",\"approach-retreat\",\"130\",\"811383\",\"0.0-130.0\",\"\",\"\",\"1-2\",\"4121\",\"38\",\"1\",\"Training\",\"Stims/Figures/118-C-20-2.bmp\",\"fa:fa:va\",\"Up\",\"38\",\"8\",\"15\",\"6B\",\"C1\",\"J\",\"127\"
\"\",\"\",\"approach-retreat\",\"131\",\"816979\",\"0.0-131.0\",\"\",\"\",\"1-2\",\"4091\",\"39\",\"1\",\"Training\",\"Stims/Figures/128-J-10-3.bmp\",\"sa:ha:ha\",\"Left\",\"39\",\"8\",\"16\",\"6B\",\"C2\",\"J\",\"128\"
\"\",\"\",\"approach-retreat\",\"132\",\"822579\",\"0.0-132.0\",\"\",\"\",\"1-2\",\"4096\",\"37\",\"1\",\"Training\",\"Stims/Figures/44-J-10-3.bmp\",\"saha:ha\",\"Right\",\"37\",\"9\",\"1\",\"6B\",\"C2\",\"J\",\"129\"
\"\",\"\",\"approach-retreat\",\"133\",\"828119\",\"0.0-133.0\",\"\",\"\",\"1-2\",\"4036\",\"40\",\"1\",\"Training\",\"Stims/Figures/118-C-20-2.bmp\",\"fa:fa:va\",\"Down\",\"40\",\"9\",\"2\",\"6B\",\"C1\",\"J\",\"130\"
\"\",\"\",\"approach-retreat\",\"134\",\"833865\",\"0.0-134.0\",\"\",\"\",\"1-2\",\"4241\",\"37\",\"1\",\"Training\",\"Stims/Figures/27-C-30-1.bmp\",\"vafa:va\",\"Left\",\"37\",\"9\",\"3\",\"6B\",\"C1\",\"J\",\"131\"
\"\",\"\",\"approach-retreat\",\"135\",\"839442\",\"0.0-135.0\",\"\",\"\",\"1-2\",\"4071\",\"38\",\"1\",\"Training\",\"Stims/Figures/128-J-10-3.bmp\",\"sa:ha:ha\",\"Down\",\"38\",\"9\",\"4\",\"6B\",\"C2\",\"J\",\"132\"
\"\",\"\",\"approach-retreat\",\"136\",\"844965\",\"0.0-136.0\",\"\",\"\",\"1-2\",\"4017\",\"37\",\"1\",\"Training\",\"Stims/Figures/57-J-0-1.bmp\",\"zasa:ha\",\"Right\",\"37\",\"9\",\"5\",\"6B\",\"C2\",\"J\",\"133\"
\"\",\"\",\"approach-retreat\",\"137\",\"850705\",\"0.0-137.0\",\"\",\"\",\"1-2\",\"4234\",\"40\",\"1\",\"Training\",\"Stims/Figures/57-C-30-1.bmp\",\"fa:sha:va\",\"Down\",\"40\",\"9\",\"6\",\"6B\",\"C1\",\"J\",\"134\"
\"\",\"\",\"approach-retreat\",\"138\",\"856244\",\"0.0-138.0\",\"\",\"\",\"1-2\",\"4034\",\"39\",\"1\",\"Training\",\"Stims/Figures/44-C-30-3.bmp\",\"fafa:va\",\"Right\",\"39\",\"9\",\"7\",\"6B\",\"C1\",\"J\",\"135\"
\"\",\"\",\"approach-retreat\",\"139\",\"861847\",\"0.0-139.0\",\"\",\"\",\"1-2\",\"4096\",\"38\",\"1\",\"Training\",\"Stims/Figures/118-J-0-2.bmp\",\"za:ha:ha\",\"Down\",\"38\",\"9\",\"8\",\"6B\",\"C2\",\"J\",\"136\"
\"\",\"\",\"approach-retreat\",\"140\",\"867565\",\"0.0-140.0\",\"\",\"\",\"1-2\",\"4216\",\"37\",\"1\",\"Training\",\"Stims/Figures/128-C-30-3.bmp\",\"fa:shasha\",\"Left\",\"37\",\"9\",\"9\",\"6B\",\"C1\",\"J\",\"137\"
\"\",\"\",\"approach-retreat\",\"141\",\"873108\",\"0.0-141.0\",\"\",\"\",\"1-2\",\"4037\",\"39\",\"1\",\"Training\",\"Stims/Figures/84-C-20-2.bmp\",\"vafa:sha\",\"Right\",\"39\",\"9\",\"10\",\"6B\",\"C1\",\"J\",\"138\"
\"\",\"\",\"approach-retreat\",\"142\",\"878650\",\"0.0-142.0\",\"\",\"\",\"1-2\",\"4037\",\"37\",\"1\",\"Training\",\"Stims/Figures/19-C-20-4.bmp\",\"va:sha:sha\",\"Left\",\"37\",\"9\",\"11\",\"6B\",\"C1\",\"J\",\"139\"
\"\",\"\",\"approach-retreat\",\"143\",\"884352\",\"0.0-143.0\",\"\",\"\",\"1-2\",\"4198\",\"40\",\"1\",\"Training\",\"Stims/Figures/84-J-0-2.bmp\",\"zasa:za\",\"Up\",\"40\",\"9\",\"12\",\"6B\",\"C2\",\"J\",\"140\"
\"\",\"\",\"approach-retreat\",\"144\",\"890150\",\"0.0-144.0\",\"\",\"\",\"1-2\",\"4291\",\"40\",\"1\",\"Training\",\"Stims/Figures/27-J-0-1.bmp\",\"sa:ha:za\",\"Up\",\"40\",\"9\",\"13\",\"6B\",\"C2\",\"J\",\"141\"
\"\",\"\",\"approach-retreat\",\"145\",\"895964\",\"0.0-145.0\",\"\",\"\",\"1-2\",\"4311\",\"38\",\"1\",\"Training\",\"Stims/Figures/74-C-20-4.bmp\",\"va:fa:va\",\"Up\",\"38\",\"9\",\"14\",\"6B\",\"C1\",\"J\",\"142\"
\"\",\"\",\"approach-retreat\",\"146\",\"901422\",\"0.0-146.0\",\"\",\"\",\"1-2\",\"3953\",\"40\",\"1\",\"Training\",\"Stims/Figures/74-J-10-4.bmp\",\"zahaha\",\"Up\",\"40\",\"9\",\"15\",\"6B\",\"C2\",\"J\",\"143\"
\"\",\"\",\"approach-retreat\",\"147\",\"907081\",\"0.0-147.0\",\"\",\"\",\"1-2\",\"4155\",\"39\",\"1\",\"Training\",\"Stims/Figures/19-J-10-4.bmp\",\"saha:za\",\"Left\",\"39\",\"9\",\"16\",\"6B\",\"C2\",\"J\",\"144\"
\"9907\",\"\",\"instructions\",\"148\",\"916988\",\"0.0-148.0\",\"[{\"\"page_index\"\":0,\"\"viewing_time\"\":9906}]\",\"\",\"\",\"\",\"\",\"\",\"\",\"\",\"\",\"\",\"\",\"\",\"\",\"\",\"\",\"\",\"\"
\"\",\"\",\"approach-retreat\",\"149\",\"922730\",\"0.0-149.0\",\"\",\"\",\"1-2\",\"4238\",\"39\",\"1\",\"Testing\",\"Stims/Figures/27-C-30-1.bmp\",\"vafa:va\",\"Right\",\"39\",\"1\",\"1\",\"6B\",\"C1\",\"J\",\"1\"
\"\",\"\",\"approach-retreat\",\"150\",\"928589\",\"0.0-150.0\",\"\",\"\",\"1-2\",\"4356\",\"40\",\"1\",\"Testing\",\"Stims/Figures/118-C-20-2.bmp\",\"fa:fa:va\",\"Down\",\"40\",\"1\",\"2\",\"6B\",\"C1\",\"J\",\"2\"
\"\",\"\",\"approach-retreat\",\"151\",\"934379\",\"0.0-151.0\",\"\",\"\",\"1-2\",\"4286\",\"38\",\"1\",\"Testing\",\"Stims/Figures/86-C-30-1.bmp\",\"vashasha\",\"Up\",\"38\",\"1\",\"3\",\"6B\",\"C1\",\"J\",\"3\"
\"\",\"\",\"approach-retreat\",\"152\",\"939911\",\"0.0-152.0\",\"\",\"\",\"1-2\",\"4029\",\"40\",\"1\",\"Testing\",\"Stims/Figures/44-J-10-3.bmp\",\"saha:ha\",\"Up\",\"40\",\"1\",\"4\",\"6B\",\"C2\",\"J\",\"4\"
\"\",\"\",\"approach-retreat\",\"153\",\"945654\",\"0.0-153.0\",\"\",\"\",\"1-2\",\"4240\",\"38\",\"1\",\"Testing\",\"Stims/Figures/118-J-0-2.bmp\",\"za:ha:ha\",\"Down\",\"38\",\"1\",\"5\",\"6B\",\"C2\",\"J\",\"5\"
\"\",\"\",\"approach-retreat\",\"154\",\"951269\",\"0.0-154.0\",\"\",\"\",\"1-2\",\"4110\",\"37\",\"1\",\"Testing\",\"Stims/Figures/139-J-0-2.bmp\",\"sa:saha\",\"Right\",\"37\",\"1\",\"6\",\"6B\",\"C2\",\"J\",\"6\"
\"\",\"\",\"approach-retreat\",\"155\",\"957955\",\"0.0-155.0\",\"\",\"\",\"1-2\",\"5183\",\"38\",\"1\",\"Testing\",\"Stims/Figures/7-J-10-4.bmp\",\"zasaza\",\"Down\",\"38\",\"1\",\"7\",\"6B\",\"C2\",\"J\",\"7\"
\"\",\"\",\"approach-retreat\",\"156\",\"963858\",\"0.0-156.0\",\"\",\"\",\"1-2\",\"4398\",\"37\",\"1\",\"Testing\",\"Stims/Figures/19-J-10-4.bmp\",\"saha:za\",\"Right\",\"37\",\"1\",\"8\",\"6B\",\"C2\",\"J\",\"8\"
\"\",\"\",\"approach-retreat\",\"157\",\"969586\",\"0.0-157.0\",\"\",\"\",\"1-2\",\"4223\",\"38\",\"1\",\"Testing\",\"Stims/Figures/111-C-30-3.bmp\",\"fa:fasha\",\"Up\",\"38\",\"1\",\"9\",\"6B\",\"C1\",\"J\",\"9\"
\"\",\"\",\"approach-retreat\",\"158\",\"975243\",\"0.0-158.0\",\"\",\"\",\"1-2\",\"4152\",\"38\",\"1\",\"Testing\",\"Stims/Figures/74-C-20-4.bmp\",\"va:fa:va\",\"Up\",\"38\",\"1\",\"10\",\"6B\",\"C1\",\"J\",\"10\"
\"\",\"\",\"approach-retreat\",\"159\",\"980949\",\"0.0-159.0\",\"\",\"\",\"1-2\",\"4201\",\"37\",\"1\",\"Testing\",\"Stims/Figures/19-C-20-4.bmp\",\"va:sha:sha\",\"Left\",\"37\",\"1\",\"11\",\"6B\",\"C1\",\"J\",\"11\"
\"\",\"\",\"approach-retreat\",\"160\",\"987019\",\"0.0-160.0\",\"\",\"\",\"1-2\",\"4565\",\"37\",\"1\",\"Testing\",\"Stims/Figures/27-J-0-1.bmp\",\"sa:ha:za\",\"Right\",\"37\",\"1\",\"12\",\"6B\",\"C2\",\"J\",\"12\"
\"\",\"\",\"approach-retreat\",\"161\",\"993067\",\"0.0-161.0\",\"\",\"\",\"1-2\",\"4543\",\"38\",\"1\",\"Testing\",\"Stims/Figures/74-J-10-4.bmp\",\"zahaha\",\"Down\",\"38\",\"1\",\"13\",\"6B\",\"C2\",\"J\",\"13\"
\"\",\"\",\"approach-retreat\",\"162\",\"998688\",\"0.0-162.0\",\"\",\"\",\"1-2\",\"4117\",\"40\",\"1\",\"Testing\",\"Stims/Figures/84-C-20-2.bmp\",\"vafa:sha\",\"Down\",\"40\",\"1\",\"14\",\"6B\",\"C1\",\"J\",\"14\"
\"\",\"\",\"approach-retreat\",\"163\",\"1004594\",\"0.0-163.0\",\"\",\"\",\"1-2\",\"4403\",\"39\",\"1\",\"Testing\",\"Stims/Figures/111-J-10-3.bmp\",\"zahaza\",\"Left\",\"39\",\"1\",\"15\",\"6B\",\"C2\",\"J\",\"15\"
\"\",\"\",\"approach-retreat\",\"164\",\"1010262\",\"0.0-164.0\",\"\",\"\",\"1-2\",\"4163\",\"37\",\"1\",\"Testing\",\"Stims/Figures/57-C-30-1.bmp\",\"fa:sha:va\",\"Left\",\"37\",\"1\",\"16\",\"6B\",\"C1\",\"J\",\"16\"
\"\",\"\",\"approach-retreat\",\"165\",\"1015901\",\"0.0-165.0\",\"\",\"\",\"1-2\",\"4134\",\"37\",\"1\",\"Testing\",\"Stims/Figures/44-C-30-3.bmp\",\"fafa:va\",\"Left\",\"37\",\"1\",\"17\",\"6B\",\"C1\",\"J\",\"17\"
\"\",\"\",\"approach-retreat\",\"166\",\"1022095\",\"0.0-166.0\",\"\",\"\",\"1-2\",\"4689\",\"39\",\"1\",\"Testing\",\"Stims/Figures/86-J-0-1.bmp\",\"zaha:ha\",\"Left\",\"39\",\"1\",\"18\",\"6B\",\"C2\",\"J\",\"18\"
\"\",\"\",\"approach-retreat\",\"167\",\"1027809\",\"0.0-167.0\",\"\",\"\",\"1-2\",\"4206\",\"40\",\"1\",\"Testing\",\"Stims/Figures/57-J-0-1.bmp\",\"zasa:ha\",\"Up\",\"40\",\"1\",\"19\",\"6B\",\"C2\",\"J\",\"19\"
\"\",\"\",\"approach-retreat\",\"168\",\"1033525\",\"0.0-168.0\",\"\",\"\",\"1-2\",\"4213\",\"39\",\"1\",\"Testing\",\"Stims/Figures/128-J-10-3.bmp\",\"sa:ha:ha\",\"Left\",\"39\",\"1\",\"20\",\"6B\",\"C2\",\"J\",\"20\"
\"\",\"\",\"approach-retreat\",\"169\",\"1039286\",\"0.0-169.0\",\"\",\"\",\"1-2\",\"4257\",\"40\",\"1\",\"Testing\",\"Stims/Figures/128-C-30-3.bmp\",\"fa:shasha\",\"Down\",\"40\",\"1\",\"21\",\"6B\",\"C1\",\"J\",\"21\"
\"\",\"\",\"approach-retreat\",\"170\",\"1045290\",\"0.0-170.0\",\"\",\"\",\"1-2\",\"4499\",\"39\",\"1\",\"Testing\",\"Stims/Figures/7-C-20-4.bmp\",\"fafava\",\"Right\",\"39\",\"1\",\"22\",\"6B\",\"C1\",\"J\",\"22\"
\"\",\"\",\"approach-retreat\",\"171\",\"1051524\",\"0.0-171.0\",\"\",\"\",\"1-2\",\"4730\",\"38\",\"1\",\"Testing\",\"Stims/Figures/139-C-20-2.bmp\",\"va:fa:sha\",\"Up\",\"38\",\"1\",\"23\",\"6B\",\"C1\",\"J\",\"23\"
\"\",\"\",\"approach-retreat\",\"172\",\"1057342\",\"0.0-172.0\",\"\",\"\",\"1-2\",\"4316\",\"37\",\"1\",\"Testing\",\"Stims/Figures/84-J-0-2.bmp\",\"zasa:za\",\"Right\",\"37\",\"1\",\"24\",\"6B\",\"C2\",\"J\",\"24\"
\"\",\"\",\"approach-retreat\",\"173\",\"1063173\",\"0.0-173.0\",\"\",\"\",\"1-2\",\"4328\",\"37\",\"1\",\"Testing\",\"Stims/Figures/111-J-10-3.bmp\",\"zahaza\",\"Right\",\"37\",\"2\",\"1\",\"6B\",\"C2\",\"J\",\"25\"
\"\",\"\",\"approach-retreat\",\"174\",\"1068801\",\"0.0-174.0\",\"\",\"\",\"1-2\",\"4122\",\"40\",\"1\",\"Testing\",\"Stims/Figures/57-J-0-1.bmp\",\"zasa:ha\",\"Up\",\"40\",\"2\",\"2\",\"6B\",\"C2\",\"J\",\"26\"
\"\",\"\",\"approach-retreat\",\"175\",\"1074450\",\"0.0-175.0\",\"\",\"\",\"1-2\",\"4144\",\"39\",\"1\",\"Testing\",\"Stims/Figures/44-J-10-3.bmp\",\"saha:ha\",\"Left\",\"39\",\"2\",\"3\",\"6B\",\"C2\",\"J\",\"27\"
\"\",\"\",\"approach-retreat\",\"176\",\"1080813\",\"0.0-176.0\",\"\",\"\",\"1-2\",\"4862\",\"39\",\"1\",\"Testing\",\"Stims/Figures/139-J-0-2.bmp\",\"sa:saha\",\"Left\",\"39\",\"2\",\"4\",\"6B\",\"C2\",\"J\",\"28\"
\"\",\"\",\"approach-retreat\",\"177\",\"1086593\",\"0.0-177.0\",\"\",\"\",\"1-2\",\"4274\",\"38\",\"1\",\"Testing\",\"Stims/Figures/44-C-30-3.bmp\",\"fafa:va\",\"Up\",\"38\",\"2\",\"5\",\"6B\",\"C1\",\"J\",\"29\"
\"\",\"\",\"approach-retreat\",\"178\",\"1092382\",\"0.0-178.0\",\"\",\"\",\"1-2\",\"4284\",\"37\",\"1\",\"Testing\",\"Stims/Figures/7-C-20-4.bmp\",\"fafava\",\"Left\",\"37\",\"2\",\"6\",\"6B\",\"C1\",\"J\",\"30\"
\"\",\"\",\"approach-retreat\",\"179\",\"1098594\",\"0.0-179.0\",\"\",\"\",\"1-2\",\"4707\",\"38\",\"1\",\"Testing\",\"Stims/Figures/118-J-0-2.bmp\",\"za:ha:ha\",\"Down\",\"38\",\"2\",\"7\",\"6B\",\"C2\",\"J\",\"31\"
\"\",\"\",\"approach-retreat\",\"180\",\"1104561\",\"0.0-180.0\",\"\",\"\",\"1-2\",\"4464\",\"39\",\"1\",\"Testing\",\"Stims/Figures/7-J-10-4.bmp\",\"zasaza\",\"Left\",\"39\",\"2\",\"8\",\"6B\",\"C2\",\"J\",\"32\"
\"\",\"\",\"approach-retreat\",\"181\",\"1110553\",\"0.0-181.0\",\"\",\"\",\"1-2\",\"4487\",\"39\",\"1\",\"Testing\",\"Stims/Figures/57-C-30-1.bmp\",\"fa:sha:va\",\"Right\",\"39\",\"2\",\"9\",\"6B\",\"C1\",\"J\",\"33\"
\"\",\"\",\"approach-retreat\",\"182\",\"1116220\",\"0.0-182.0\",\"\",\"\",\"1-2\",\"4161\",\"40\",\"1\",\"Testing\",\"Stims/Figures/74-C-20-4.bmp\",\"va:fa:va\",\"Down\",\"40\",\"2\",\"10\",\"6B\",\"C1\",\"J\",\"34\"
\"\",\"\",\"approach-retreat\",\"183\",\"1122736\",\"0.0-183.0\",\"\",\"\",\"1-2\",\"5011\",\"40\",\"1\",\"Testing\",\"Stims/Figures/111-C-30-3.bmp\",\"fa:fasha\",\"Down\",\"40\",\"2\",\"11\",\"6B\",\"C1\",\"J\",\"35\"
\"\",\"\",\"approach-retreat\",\"184\",\"1129478\",\"0.0-184.0\",\"\",\"\",\"1-2\",\"5237\",\"38\",\"1\",\"Testing\",\"Stims/Figures/19-C-20-4.bmp\",\"va:sha:sha\",\"Up\",\"38\",\"2\",\"12\",\"6B\",\"C1\",\"J\",\"36\"
\"\",\"\",\"approach-retreat\",\"185\",\"1135704\",\"0.0-185.0\",\"\",\"\",\"1-2\",\"4724\",\"40\",\"1\",\"Testing\",\"Stims/Figures/118-C-20-2.bmp\",\"fa:fa:va\",\"Down\",\"40\",\"2\",\"13\",\"6B\",\"C1\",\"J\",\"37\"
\"\",\"\",\"approach-retreat\",\"186\",\"1141339\",\"0.0-186.0\",\"\",\"\",\"1-2\",\"4131\",\"37\",\"1\",\"Testing\",\"Stims/Figures/84-J-0-2.bmp\",\"zasa:za\",\"Right\",\"37\",\"2\",\"14\",\"6B\",\"C2\",\"J\",\"38\"
\"\",\"\",\"approach-retreat\",\"187\",\"1147606\",\"0.0-187.0\",\"\",\"\",\"1-2\",\"4762\",\"38\",\"1\",\"Testing\",\"Stims/Figures/128-J-10-3.bmp\",\"sa:ha:ha\",\"Down\",\"38\",\"2\",\"15\",\"6B\",\"C2\",\"J\",\"39\"
\"\",\"\",\"approach-retreat\",\"188\",\"1153411\",\"0.0-188.0\",\"\",\"\",\"1-2\",\"4300\",\"40\",\"1\",\"Testing\",\"Stims/Figures/27-C-30-1.bmp\",\"vafa:va\",\"Down\",\"40\",\"2\",\"16\",\"6B\",\"C1\",\"J\",\"40\"
\"\",\"\",\"approach-retreat\",\"189\",\"1159484\",\"0.0-189.0\",\"\",\"\",\"1-2\",\"4569\",\"37\",\"1\",\"Testing\",\"Stims/Figures/86-J-0-1.bmp\",\"zaha:ha\",\"Right\",\"37\",\"2\",\"17\",\"6B\",\"C2\",\"J\",\"41\"
\"\",\"\",\"approach-retreat\",\"190\",\"1165223\",\"0.0-190.0\",\"\",\"\",\"1-2\",\"4235\",\"39\",\"1\",\"Testing\",\"Stims/Figures/84-C-20-2.bmp\",\"vafa:sha\",\"Right\",\"39\",\"2\",\"18\",\"6B\",\"C1\",\"J\",\"42\"
\"\",\"\",\"approach-retreat\",\"191\",\"1170911\",\"0.0-191.0\",\"\",\"\",\"1-2\",\"4184\",\"39\",\"1\",\"Testing\",\"Stims/Figures/74-J-10-4.bmp\",\"zahaha\",\"Left\",\"39\",\"2\",\"19\",\"6B\",\"C2\",\"J\",\"43\"
\"\",\"\",\"approach-retreat\",\"192\",\"1176547\",\"0.0-192.0\",\"\",\"\",\"1-2\",\"4132\",\"37\",\"1\",\"Testing\",\"Stims/Figures/19-J-10-4.bmp\",\"saha:za\",\"Right\",\"37\",\"2\",\"20\",\"6B\",\"C2\",\"J\",\"44\"
\"\",\"\",\"approach-retreat\",\"193\",\"1182480\",\"0.0-193.0\",\"\",\"\",\"1-2\",\"4429\",\"39\",\"1\",\"Testing\",\"Stims/Figures/27-J-0-1.bmp\",\"sa:ha:za\",\"Left\",\"39\",\"2\",\"21\",\"6B\",\"C2\",\"J\",\"45\"
\"\",\"\",\"approach-retreat\",\"194\",\"1188870\",\"0.0-194.0\",\"\",\"\",\"1-2\",\"4884\",\"38\",\"1\",\"Testing\",\"Stims/Figures/128-C-30-3.bmp\",\"fa:shasha\",\"Up\",\"38\",\"2\",\"22\",\"6B\",\"C1\",\"J\",\"46\"
\"\",\"\",\"approach-retreat\",\"195\",\"1195002\",\"0.0-195.0\",\"\",\"\",\"1-2\",\"4628\",\"38\",\"1\",\"Testing\",\"Stims/Figures/86-C-30-1.bmp\",\"vashasha\",\"Up\",\"38\",\"2\",\"23\",\"6B\",\"C1\",\"J\",\"47\"
\"\",\"\",\"approach-retreat\",\"196\",\"1200858\",\"0.0-196.0\",\"\",\"\",\"1-2\",\"4353\",\"38\",\"1\",\"Testing\",\"Stims/Figures/139-C-20-2.bmp\",\"va:fa:sha\",\"Up\",\"38\",\"2\",\"24\",\"6B\",\"C1\",\"J\",\"48\"
\"\",\"\",\"approach-retreat\",\"197\",\"1207337\",\"0.0-197.0\",\"\",\"\",\"1-2\",\"4975\",\"39\",\"1\",\"Testing\",\"Stims/Figures/111-C-30-3.bmp\",\"fa:fasha\",\"Right\",\"39\",\"3\",\"1\",\"6B\",\"C1\",\"J\",\"49\"
\"\",\"\",\"approach-retreat\",\"198\",\"1213365\",\"0.0-198.0\",\"\",\"\",\"1-2\",\"4524\",\"39\",\"1\",\"Testing\",\"Stims/Figures/74-J-10-4.bmp\",\"zahaha\",\"Left\",\"39\",\"3\",\"2\",\"6B\",\"C2\",\"J\",\"50\"
\"\",\"\",\"approach-retreat\",\"199\",\"1218909\",\"0.0-199.0\",\"\",\"\",\"1-2\",\"4042\",\"38\",\"1\",\"Testing\",\"Stims/Figures/128-J-10-3.bmp\",\"sa:ha:ha\",\"Down\",\"38\",\"3\",\"3\",\"6B\",\"C2\",\"J\",\"51\"
\"\",\"\",\"approach-retreat\",\"200\",\"1226073\",\"0.0-200.0\",\"\",\"\",\"1-2\",\"5659\",\"38\",\"1\",\"Testing\",\"Stims/Figures/74-C-20-4.bmp\",\"va:fa:va\",\"Up\",\"38\",\"3\",\"4\",\"6B\",\"C1\",\"J\",\"52\"
\"\",\"\",\"approach-retreat\",\"201\",\"1235618\",\"0.0-201.0\",\"\",\"\",\"1-2\",\"8042\",\"40\",\"1\",\"Testing\",\"Stims/Figures/118-C-20-2.bmp\",\"fa:fa:va\",\"Down\",\"40\",\"3\",\"5\",\"6B\",\"C1\",\"J\",\"53\"
\"\",\"\",\"approach-retreat\",\"202\",\"1242475\",\"0.0-202.0\",\"\",\"\",\"1-2\",\"5352\",\"39\",\"1\",\"Testing\",\"Stims/Figures/84-C-20-2.bmp\",\"vafa:sha\",\"Right\",\"39\",\"3\",\"6\",\"6B\",\"C1\",\"J\",\"54\"
\"\",\"\",\"approach-retreat\",\"203\",\"1248746\",\"0.0-203.0\",\"\",\"\",\"1-2\",\"4767\",\"38\",\"1\",\"Testing\",\"Stims/Figures/44-C-30-3.bmp\",\"fafa:va\",\"Up\",\"38\",\"3\",\"7\",\"6B\",\"C1\",\"J\",\"55\"
\"\",\"\",\"approach-retreat\",\"204\",\"1254595\",\"0.0-204.0\",\"\",\"\",\"1-2\",\"4346\",\"37\",\"1\",\"Testing\",\"Stims/Figures/7-C-20-4.bmp\",\"fafava\",\"Left\",\"37\",\"3\",\"8\",\"6B\",\"C1\",\"J\",\"56\"
\"\",\"\",\"approach-retreat\",\"205\",\"1260316\",\"0.0-205.0\",\"\",\"\",\"1-2\",\"4215\",\"38\",\"1\",\"Testing\",\"Stims/Figures/19-J-10-4.bmp\",\"saha:za\",\"Down\",\"38\",\"3\",\"9\",\"6B\",\"C2\",\"J\",\"57\"
\"\",\"\",\"approach-retreat\",\"206\",\"1265933\",\"0.0-206.0\",\"\",\"\",\"1-2\",\"4114\",\"37\",\"1\",\"Testing\",\"Stims/Figures/86-C-30-1.bmp\",\"vashasha\",\"Left\",\"37\",\"3\",\"10\",\"6B\",\"C1\",\"J\",\"58\"
\"\",\"\",\"approach-retreat\",\"207\",\"1271410\",\"0.0-207.0\",\"\",\"\",\"1-2\",\"3970\",\"37\",\"1\",\"Testing\",\"Stims/Figures/57-J-0-1.bmp\",\"zasa:ha\",\"Right\",\"37\",\"3\",\"11\",\"6B\",\"C2\",\"J\",\"59\"
\"\",\"\",\"approach-retreat\",\"208\",\"1277048\",\"0.0-208.0\",\"\",\"\",\"1-2\",\"4135\",\"39\",\"1\",\"Testing\",\"Stims/Figures/84-J-0-2.bmp\",\"zasa:za\",\"Left\",\"39\",\"3\",\"12\",\"6B\",\"C2\",\"J\",\"60\"
\"\",\"\",\"approach-retreat\",\"209\",\"1282948\",\"0.0-209.0\",\"\",\"\",\"1-2\",\"4396\",\"40\",\"1\",\"Testing\",\"Stims/Figures/118-J-0-2.bmp\",\"za:ha:ha\",\"Up\",\"40\",\"3\",\"13\",\"6B\",\"C2\",\"J\",\"61\"
\"\",\"\",\"approach-retreat\",\"210\",\"1288688\",\"0.0-210.0\",\"\",\"\",\"1-2\",\"4237\",\"37\",\"1\",\"Testing\",\"Stims/Figures/7-J-10-4.bmp\",\"zasaza\",\"Right\",\"37\",\"3\",\"14\",\"6B\",\"C2\",\"J\",\"62\"
\"\",\"\",\"approach-retreat\",\"211\",\"1294610\",\"0.0-211.0\",\"\",\"\",\"1-2\",\"4417\",\"37\",\"1\",\"Testing\",\"Stims/Figures/139-C-20-2.bmp\",\"va:fa:sha\",\"Left\",\"37\",\"3\",\"15\",\"6B\",\"C1\",\"J\",\"63\"
\"\",\"\",\"approach-retreat\",\"212\",\"1300584\",\"0.0-212.0\",\"\",\"\",\"1-2\",\"4470\",\"40\",\"1\",\"Testing\",\"Stims/Figures/27-J-0-1.bmp\",\"sa:ha:za\",\"Up\",\"40\",\"3\",\"16\",\"6B\",\"C2\",\"J\",\"64\"
\"\",\"\",\"approach-retreat\",\"213\",\"1306685\",\"0.0-213.0\",\"\",\"\",\"1-2\",\"4597\",\"38\",\"1\",\"Testing\",\"Stims/Figures/57-C-30-1.bmp\",\"fa:sha:va\",\"Up\",\"38\",\"3\",\"17\",\"6B\",\"C1\",\"J\",\"65\"
\"\",\"\",\"approach-retreat\",\"214\",\"1312782\",\"0.0-214.0\",\"\",\"\",\"1-2\",\"4594\",\"38\",\"1\",\"Testing\",\"Stims/Figures/128-C-30-3.bmp\",\"fa:shasha\",\"Up\",\"38\",\"3\",\"18\",\"6B\",\"C1\",\"J\",\"66\"
\"\",\"\",\"approach-retreat\",\"215\",\"1318786\",\"0.0-215.0\",\"\",\"\",\"1-2\",\"4499\",\"38\",\"1\",\"Testing\",\"Stims/Figures/86-J-0-1.bmp\",\"zaha:ha\",\"Down\",\"38\",\"3\",\"19\",\"6B\",\"C2\",\"J\",\"67\"
\"\",\"\",\"approach-retreat\",\"216\",\"1324733\",\"0.0-216.0\",\"\",\"\",\"1-2\",\"4444\",\"37\",\"1\",\"Testing\",\"Stims/Figures/19-C-20-4.bmp\",\"va:sha:sha\",\"Left\",\"37\",\"3\",\"20\",\"6B\",\"C1\",\"J\",\"68\"
\"\",\"\",\"approach-retreat\",\"217\",\"1330439\",\"0.0-217.0\",\"\",\"\",\"1-2\",\"4201\",\"37\",\"1\",\"Testing\",\"Stims/Figures/111-J-10-3.bmp\",\"zahaza\",\"Right\",\"37\",\"3\",\"21\",\"6B\",\"C2\",\"J\",\"69\"
\"\",\"\",\"approach-retreat\",\"218\",\"1336144\",\"0.0-218.0\",\"\",\"\",\"1-2\",\"4200\",\"39\",\"1\",\"Testing\",\"Stims/Figures/27-C-30-1.bmp\",\"vafa:va\",\"Right\",\"39\",\"3\",\"22\",\"6B\",\"C1\",\"J\",\"70\"
\"\",\"\",\"approach-retreat\",\"219\",\"1342006\",\"0.0-219.0\",\"\",\"\",\"1-2\",\"4359\",\"38\",\"1\",\"Testing\",\"Stims/Figures/44-J-10-3.bmp\",\"saha:ha\",\"Down\",\"38\",\"3\",\"23\",\"6B\",\"C2\",\"J\",\"71\"
\"\",\"\",\"approach-retreat\",\"220\",\"1347771\",\"0.0-220.0\",\"\",\"\",\"1-2\",\"4261\",\"38\",\"1\",\"Testing\",\"Stims/Figures/139-J-0-2.bmp\",\"sa:saha\",\"Down\",\"38\",\"3\",\"24\",\"6B\",\"C2\",\"J\",\"72\"
\"\",\"\",\"approach-retreat\",\"221\",\"1353825\",\"0.0-221.0\",\"\",\"\",\"1-2\",\"4548\",\"40\",\"1\",\"Testing\",\"Stims/Figures/84-C-20-2.bmp\",\"vafa:sha\",\"Down\",\"40\",\"4\",\"1\",\"6B\",\"C1\",\"J\",\"73\"
\"\",\"\",\"approach-retreat\",\"222\",\"1360013\",\"0.0-222.0\",\"\",\"\",\"1-2\",\"4686\",\"38\",\"1\",\"Testing\",\"Stims/Figures/118-C-20-2.bmp\",\"fa:fa:va\",\"Up\",\"38\",\"4\",\"2\",\"6B\",\"C1\",\"J\",\"74\"
\"\",\"\",\"approach-retreat\",\"223\",\"1367057\",\"0.0-223.0\",\"\",\"\",\"1-2\",\"5541\",\"39\",\"1\",\"Testing\",\"Stims/Figures/139-C-20-2.bmp\",\"va:fa:sha\",\"Right\",\"39\",\"4\",\"3\",\"6B\",\"C1\",\"J\",\"75\"
\"\",\"\",\"approach-retreat\",\"224\",\"1373717\",\"0.0-224.0\",\"\",\"\",\"1-2\",\"5156\",\"37\",\"1\",\"Testing\",\"Stims/Figures/128-J-10-3.bmp\",\"sa:ha:ha\",\"Right\",\"37\",\"4\",\"4\",\"6B\",\"C2\",\"J\",\"76\"
\"\",\"\",\"approach-retreat\",\"225\",\"1380225\",\"0.0-225.0\",\"\",\"\",\"1-2\",\"5002\",\"37\",\"1\",\"Testing\",\"Stims/Figures/111-C-30-3.bmp\",\"fa:fasha\",\"Left\",\"37\",\"4\",\"5\",\"6B\",\"C1\",\"J\",\"77\"
\"\",\"\",\"approach-retreat\",\"226\",\"1386309\",\"0.0-226.0\",\"\",\"\",\"1-2\",\"4580\",\"37\",\"1\",\"Testing\",\"Stims/Figures/118-J-0-2.bmp\",\"za:ha:ha\",\"Right\",\"37\",\"4\",\"6\",\"6B\",\"C2\",\"J\",\"78\"
\"\",\"\",\"approach-retreat\",\"227\",\"1392817\",\"0.0-227.0\",\"\",\"\",\"1-2\",\"5004\",\"40\",\"1\",\"Testing\",\"Stims/Figures/86-J-0-1.bmp\",\"zaha:ha\",\"Up\",\"40\",\"4\",\"7\",\"6B\",\"C2\",\"J\",\"79\"
\"\",\"\",\"approach-retreat\",\"228\",\"1399283\",\"0.0-228.0\",\"\",\"\",\"1-2\",\"4962\",\"38\",\"1\",\"Testing\",\"Stims/Figures/74-J-10-4.bmp\",\"zahaha\",\"Down\",\"38\",\"4\",\"8\",\"6B\",\"C2\",\"J\",\"80\"
\"\",\"\",\"approach-retreat\",\"229\",\"1405668\",\"0.0-229.0\",\"\",\"\",\"1-2\",\"4880\",\"40\",\"1\",\"Testing\",\"Stims/Figures/57-J-0-1.bmp\",\"zasa:ha\",\"Up\",\"40\",\"4\",\"9\",\"6B\",\"C2\",\"J\",\"81\"
\"\",\"\",\"approach-retreat\",\"230\",\"1412441\",\"0.0-230.0\",\"\",\"\",\"1-2\",\"5270\",\"37\",\"1\",\"Testing\",\"Stims/Figures/44-J-10-3.bmp\",\"saha:ha\",\"Right\",\"37\",\"4\",\"10\",\"6B\",\"C2\",\"J\",\"82\"
\"\",\"\",\"approach-retreat\",\"231\",\"1418974\",\"0.0-231.0\",\"\",\"\",\"1-2\",\"5029\",\"37\",\"1\",\"Testing\",\"Stims/Figures/19-C-20-4.bmp\",\"va:sha:sha\",\"Left\",\"37\",\"4\",\"11\",\"6B\",\"C1\",\"J\",\"83\"
\"\",\"\",\"approach-retreat\",\"232\",\"1426000\",\"0.0-232.0\",\"\",\"\",\"1-2\",\"5523\",\"38\",\"1\",\"Testing\",\"Stims/Figures/86-C-30-1.bmp\",\"vashasha\",\"Up\",\"38\",\"4\",\"12\",\"6B\",\"C1\",\"J\",\"84\"
\"\",\"\",\"approach-retreat\",\"233\",\"1433290\",\"0.0-233.0\",\"\",\"\",\"1-2\",\"5785\",\"37\",\"1\",\"Testing\",\"Stims/Figures/7-C-20-4.bmp\",\"fafava\",\"Left\",\"37\",\"4\",\"13\",\"6B\",\"C1\",\"J\",\"85\"
\"\",\"\",\"approach-retreat\",\"234\",\"1439504\",\"0.0-234.0\",\"\",\"\",\"1-2\",\"4710\",\"39\",\"1\",\"Testing\",\"Stims/Figures/7-J-10-4.bmp\",\"zasaza\",\"Left\",\"39\",\"4\",\"14\",\"6B\",\"C2\",\"J\",\"86\"
\"\",\"\",\"approach-retreat\",\"235\",\"1445873\",\"0.0-235.0\",\"\",\"\",\"1-2\",\"4866\",\"40\",\"1\",\"Testing\",\"Stims/Figures/27-J-0-1.bmp\",\"sa:ha:za\",\"Up\",\"40\",\"4\",\"15\",\"6B\",\"C2\",\"J\",\"87\"
\"\",\"\",\"approach-retreat\",\"236\",\"1452177\",\"0.0-236.0\",\"\",\"\",\"1-2\",\"4801\",\"40\",\"1\",\"Testing\",\"Stims/Figures/74-C-20-4.bmp\",\"va:fa:va\",\"Down\",\"40\",\"4\",\"16\",\"6B\",\"C1\",\"J\",\"88\"
\"\",\"\",\"approach-retreat\",\"237\",\"1458803\",\"0.0-237.0\",\"\",\"\",\"1-2\",\"5122\",\"38\",\"1\",\"Testing\",\"Stims/Figures/19-J-10-4.bmp\",\"saha:za\",\"Down\",\"38\",\"4\",\"17\",\"6B\",\"C2\",\"J\",\"89\"
\"\",\"\",\"approach-retreat\",\"238\",\"1464935\",\"0.0-238.0\",\"\",\"\",\"1-2\",\"4628\",\"37\",\"1\",\"Testing\",\"Stims/Figures/44-C-30-3.bmp\",\"fafa:va\",\"Left\",\"37\",\"4\",\"18\",\"6B\",\"C1\",\"J\",\"90\"
\"\",\"\",\"approach-retreat\",\"239\",\"1471222\",\"0.0-239.0\",\"\",\"\",\"1-2\",\"4782\",\"37\",\"1\",\"Testing\",\"Stims/Figures/111-J-10-3.bmp\",\"zahaza\",\"Right\",\"37\",\"4\",\"19\",\"6B\",\"C2\",\"J\",\"91\"
\"\",\"\",\"approach-retreat\",\"240\",\"1477539\",\"0.0-240.0\",\"\",\"\",\"1-2\",\"4812\",\"39\",\"1\",\"Testing\",\"Stims/Figures/128-C-30-3.bmp\",\"fa:shasha\",\"Right\",\"39\",\"4\",\"20\",\"6B\",\"C1\",\"J\",\"92\"
\"\",\"\",\"approach-retreat\",\"241\",\"1483679\",\"0.0-241.0\",\"\",\"\",\"1-2\",\"4638\",\"39\",\"1\",\"Testing\",\"Stims/Figures/139-J-0-2.bmp\",\"sa:saha\",\"Left\",\"39\",\"4\",\"21\",\"6B\",\"C2\",\"J\",\"93\"
\"\",\"\",\"approach-retreat\",\"242\",\"1489938\",\"0.0-242.0\",\"\",\"\",\"1-2\",\"4755\",\"38\",\"1\",\"Testing\",\"Stims/Figures/27-C-30-1.bmp\",\"vafa:va\",\"Up\",\"38\",\"4\",\"22\",\"6B\",\"C1\",\"J\",\"94\"
\"\",\"\",\"approach-retreat\",\"243\",\"1496129\",\"0.0-243.0\",\"\",\"\",\"1-2\",\"4686\",\"38\",\"1\",\"Testing\",\"Stims/Figures/84-J-0-2.bmp\",\"zasa:za\",\"Down\",\"38\",\"4\",\"23\",\"6B\",\"C2\",\"J\",\"95\"
\"\",\"\",\"approach-retreat\",\"244\",\"1501979\",\"0.0-244.0\",\"\",\"\",\"1-2\",\"4347\",\"40\",\"1\",\"Testing\",\"Stims/Figures/57-C-30-1.bmp\",\"fa:sha:va\",\"Down\",\"40\",\"4\",\"24\",\"6B\",\"C1\",\"J\",\"96\"
\"31439\",\"\",\"survey-text\",\"245\",\"1533421\",\"0.0-245.0\",\"\",\"{\"\"Q0\"\":\"\"PS170088\"\"}\",\"\",\"\",\"\",\"\",\"\",\"\",\"\",\"\",\"\",\"\",\"\",\"\",\"\",\"\",\"\"
