\"rt\",\"key_press\",\"trial_type\",\"trial_index\",\"time_elapsed\",\"internal_node_id\",\"view_history\",\"responses\",\"Id\",\"Rt\",\"ResKeyCode\",\"ResCorr\",\"TrialType2\",\"Image\",\"Label\",\"Location\",\"CorrectResponse\",\"Block\",\"BlockTrial\",\"Condition\",\"LabelType\",\"Subcondition\",\"trialNum\"
\"41997\",\"32\",\"text\",\"0\",\"42014\",\"0.0-0.0-0.0\",\"\",\"\",\"\",\"\",\"\",\"\",\"\",\"\",\"\",\"\",\"\",\"\",\"\",\"\",\"\",\"\",\"\"
\"84363\",\"\",\"instructions\",\"1\",\"126387\",\"0.0-1.0\",\"[{\"\"page_index\"\":0,\"\"viewing_time\"\":84358}]\",\"\",\"\",\"\",\"\",\"\",\"\",\"\",\"\",\"\",\"\",\"\",\"\",\"\",\"\",\"\",\"\"
\"21522\",\"\",\"survey-multi-choice\",\"2\",\"147985\",\"0.0-2.0\",\"\",\"{\"\"Q0\"\":\"\"Da\"\",\"\"Q1\"\":\"\"Da\"\",\"\"Q2\"\":\"\"Da\"\",\"\"Q3\"\":\"\"Da\"\",\"\"Q4\"\":\"\"Da\"\",\"\"Q5\"\":\"\"Da\"\"}\",\"\",\"\",\"\",\"\",\"\",\"\",\"\",\"\",\"\",\"\",\"\",\"\",\"\",\"\",\"\"
\"\",\"\",\"bio\",\"3\",\"168215\",\"0.0-3.0\",\"\",\"{\"\"age\"\":\"\"21\"\",\"\"gender\"\":\"\"m\"\",\"\"specify\"\":\"\"\"\"}\",\"\",\"\",\"\",\"\",\"\",\"\",\"\",\"\",\"\",\"\",\"\",\"\",\"\",\"\",\"\"
\"\",\"\",\"approach-retreat\",\"4\",\"176782\",\"0.0-4.0\",\"\",\"\",\"2-3\",\"7037\",\"38\",\"1\",\"Training\",\"Stims/Figures/93-J-0-1.bmp\",\"zahaha\",\"Down\",\"38\",\"1\",\"1\",\"9\",\"C2\",\"J\",\"1\"
\"\",\"\",\"approach-retreat\",\"5\",\"182728\",\"0.0-5.0\",\"\",\"\",\"2-3\",\"4432\",\"40\",\"0\",\"Training\",\"Stims/Figures/71-C-30-1.bmp\",\"pakata\",\"Up\",\"38\",\"1\",\"2\",\"9\",\"P\",\"J\",\"2\"
\"\",\"\",\"approach-retreat\",\"6\",\"190100\",\"0.0-6.0\",\"\",\"\",\"2-3\",\"5830\",\"37\",\"0\",\"Training\",\"Stims/Figures/111-J-10-3.bmp\",\"na:la:na\",\"Left\",\"39\",\"1\",\"3\",\"9\",\"S\",\"J\",\"3\"
\"\",\"\",\"approach-retreat\",\"7\",\"198451\",\"0.0-7.0\",\"\",\"\",\"2-3\",\"6811\",\"40\",\"1\",\"Training\",\"Stims/Figures/71-J-0-1.bmp\",\"vafa:sha\",\"Up\",\"40\",\"1\",\"4\",\"9\",\"C1\",\"J\",\"4\"
\"\",\"\",\"approach-retreat\",\"8\",\"205334\",\"0.0-8.0\",\"\",\"\",\"2-3\",\"5357\",\"40\",\"1\",\"Training\",\"Stims/Figures/144-C-30-3.bmp\",\"fasha:sha\",\"Down\",\"40\",\"1\",\"5\",\"9\",\"C1\",\"J\",\"5\"
\"\",\"\",\"approach-retreat\",\"9\",\"211676\",\"0.0-9.0\",\"\",\"\",\"2-3\",\"4822\",\"37\",\"0\",\"Training\",\"Stims/Figures/93-C-30-1.bmp\",\"pa:ka:ta\",\"Right\",\"39\",\"1\",\"6\",\"9\",\"P\",\"J\",\"6\"
\"\",\"\",\"approach-retreat\",\"10\",\"217642\",\"0.0-10.0\",\"\",\"\",\"2-3\",\"4434\",\"37\",\"0\",\"Training\",\"Stims/Figures/111-C-30-3.bmp\",\"pa:ka:ka\",\"Right\",\"39\",\"1\",\"7\",\"9\",\"P\",\"J\",\"7\"
\"\",\"\",\"approach-retreat\",\"11\",\"223287\",\"0.0-11.0\",\"\",\"\",\"2-3\",\"4128\",\"37\",\"1\",\"Training\",\"Stims/Figures/118-J-0-2.bmp\",\"zasaza\",\"Right\",\"37\",\"1\",\"8\",\"9\",\"C2\",\"J\",\"8\"
\"\",\"\",\"approach-retreat\",\"12\",\"229796\",\"0.0-12.0\",\"\",\"\",\"2-3\",\"4986\",\"38\",\"1\",\"Training\",\"Stims/Figures/139-C-20-2.bmp\",\"fafava\",\"Up\",\"38\",\"1\",\"9\",\"9\",\"C1\",\"J\",\"9\"
\"\",\"\",\"approach-retreat\",\"13\",\"236673\",\"0.0-13.0\",\"\",\"\",\"2-3\",\"5361\",\"37\",\"0\",\"Training\",\"Stims/Figures/144-J-10-3.bmp\",\"za:haha\",\"Left\",\"39\",\"1\",\"10\",\"9\",\"C2\",\"J\",\"10\"
\"\",\"\",\"approach-retreat\",\"14\",\"242058\",\"0.0-14.0\",\"\",\"\",\"2-3\",\"3856\",\"37\",\"1\",\"Training\",\"Stims/Figures/87-C-20-4.bmp\",\"vashava\",\"Left\",\"37\",\"1\",\"11\",\"9\",\"C1\",\"J\",\"11\"
\"\",\"\",\"approach-retreat\",\"15\",\"247904\",\"0.0-15.0\",\"\",\"\",\"2-3\",\"4325\",\"38\",\"0\",\"Training\",\"Stims/Figures/102-C-20-4.bmp\",\"fa:sha:va\",\"Down\",\"40\",\"1\",\"12\",\"9\",\"C1\",\"J\",\"12\"
\"\",\"\",\"approach-retreat\",\"16\",\"255084\",\"0.0-16.0\",\"\",\"\",\"2-3\",\"5651\",\"39\",\"0\",\"Training\",\"Stims/Figures/139-J-0-2.bmp\",\"va:fa:sha\",\"Right\",\"37\",\"1\",\"13\",\"9\",\"C1\",\"J\",\"13\"
\"\",\"\",\"approach-retreat\",\"17\",\"261221\",\"0.0-17.0\",\"\",\"\",\"2-3\",\"4619\",\"38\",\"1\",\"Training\",\"Stims/Figures/102-J-10-4.bmp\",\"nalala\",\"Down\",\"38\",\"1\",\"14\",\"9\",\"S\",\"J\",\"14\"
\"\",\"\",\"approach-retreat\",\"18\",\"269078\",\"0.0-18.0\",\"\",\"\",\"2-3\",\"6341\",\"38\",\"1\",\"Training\",\"Stims/Figures/118-C-20-2.bmp\",\"zaha:za\",\"Up\",\"38\",\"1\",\"15\",\"9\",\"C2\",\"J\",\"15\"
\"\",\"\",\"approach-retreat\",\"19\",\"277458\",\"0.0-19.0\",\"\",\"\",\"2-3\",\"6858\",\"37\",\"0\",\"Training\",\"Stims/Figures/87-J-10-4.bmp\",\"ta:ka:ta\",\"Left\",\"39\",\"1\",\"16\",\"9\",\"P\",\"J\",\"16\"
\"\",\"\",\"approach-retreat\",\"20\",\"284664\",\"0.0-20.0\",\"\",\"\",\"2-3\",\"5671\",\"39\",\"0\",\"Training\",\"Stims/Figures/139-J-0-2.bmp\",\"va:fa:sha\",\"Right\",\"37\",\"2\",\"1\",\"9\",\"C1\",\"J\",\"17\"
\"\",\"\",\"approach-retreat\",\"21\",\"290394\",\"0.0-21.0\",\"\",\"\",\"2-3\",\"4207\",\"37\",\"0\",\"Training\",\"Stims/Figures/71-J-0-1.bmp\",\"vafa:sha\",\"Left\",\"39\",\"2\",\"2\",\"9\",\"C1\",\"J\",\"18\"
\"\",\"\",\"approach-retreat\",\"22\",\"296211\",\"0.0-22.0\",\"\",\"\",\"2-3\",\"4285\",\"38\",\"0\",\"Training\",\"Stims/Figures/144-C-30-3.bmp\",\"fasha:sha\",\"Down\",\"40\",\"2\",\"3\",\"9\",\"C1\",\"J\",\"19\"
\"\",\"\",\"approach-retreat\",\"23\",\"302005\",\"0.0-23.0\",\"\",\"\",\"2-3\",\"4265\",\"38\",\"1\",\"Training\",\"Stims/Figures/118-J-0-2.bmp\",\"zasaza\",\"Down\",\"38\",\"2\",\"4\",\"9\",\"C2\",\"J\",\"20\"
\"\",\"\",\"approach-retreat\",\"24\",\"307572\",\"0.0-24.0\",\"\",\"\",\"2-3\",\"4046\",\"38\",\"0\",\"Training\",\"Stims/Figures/111-C-30-3.bmp\",\"pa:ka:ka\",\"Down\",\"40\",\"2\",\"5\",\"9\",\"P\",\"J\",\"21\"
\"\",\"\",\"approach-retreat\",\"25\",\"313441\",\"0.0-25.0\",\"\",\"\",\"2-3\",\"4343\",\"39\",\"1\",\"Training\",\"Stims/Figures/71-C-30-1.bmp\",\"pakata\",\"Right\",\"39\",\"2\",\"6\",\"9\",\"P\",\"J\",\"22\"
\"\",\"\",\"approach-retreat\",\"26\",\"321002\",\"0.0-26.0\",\"\",\"\",\"2-3\",\"6038\",\"38\",\"0\",\"Training\",\"Stims/Figures/102-J-10-4.bmp\",\"nalala\",\"Up\",\"40\",\"2\",\"7\",\"9\",\"S\",\"J\",\"23\"
\"\",\"\",\"approach-retreat\",\"27\",\"326788\",\"0.0-27.0\",\"\",\"\",\"2-3\",\"4262\",\"37\",\"1\",\"Training\",\"Stims/Figures/87-C-20-4.bmp\",\"vashava\",\"Left\",\"37\",\"2\",\"8\",\"9\",\"C1\",\"J\",\"24\"
\"\",\"\",\"approach-retreat\",\"28\",\"332872\",\"0.0-28.0\",\"\",\"\",\"2-3\",\"4568\",\"39\",\"1\",\"Training\",\"Stims/Figures/87-J-10-4.bmp\",\"ta:ka:ta\",\"Left\",\"39\",\"2\",\"9\",\"9\",\"P\",\"J\",\"25\"
\"\",\"\",\"approach-retreat\",\"29\",\"338776\",\"0.0-29.0\",\"\",\"\",\"2-3\",\"4377\",\"37\",\"1\",\"Training\",\"Stims/Figures/118-C-20-2.bmp\",\"zaha:za\",\"Left\",\"37\",\"2\",\"10\",\"9\",\"C2\",\"J\",\"26\"
\"\",\"\",\"approach-retreat\",\"30\",\"346270\",\"0.0-30.0\",\"\",\"\",\"2-3\",\"5972\",\"40\",\"0\",\"Training\",\"Stims/Figures/93-J-0-1.bmp\",\"zahaha\",\"Down\",\"38\",\"2\",\"11\",\"9\",\"C2\",\"J\",\"27\"
\"\",\"\",\"approach-retreat\",\"31\",\"352197\",\"0.0-31.0\",\"\",\"\",\"2-3\",\"4403\",\"40\",\"1\",\"Training\",\"Stims/Figures/144-J-10-3.bmp\",\"za:haha\",\"Up\",\"40\",\"2\",\"12\",\"9\",\"C2\",\"J\",\"28\"
\"\",\"\",\"approach-retreat\",\"32\",\"359645\",\"0.0-32.0\",\"\",\"\",\"2-3\",\"5920\",\"37\",\"1\",\"Training\",\"Stims/Figures/111-J-10-3.bmp\",\"na:la:na\",\"Right\",\"37\",\"2\",\"13\",\"9\",\"S\",\"J\",\"29\"
\"\",\"\",\"approach-retreat\",\"33\",\"366530\",\"0.0-33.0\",\"\",\"\",\"2-3\",\"5356\",\"39\",\"1\",\"Training\",\"Stims/Figures/102-C-20-4.bmp\",\"fa:sha:va\",\"Right\",\"39\",\"2\",\"14\",\"9\",\"C1\",\"J\",\"30\"
\"\",\"\",\"approach-retreat\",\"34\",\"373311\",\"0.0-34.0\",\"\",\"\",\"2-3\",\"5251\",\"38\",\"1\",\"Training\",\"Stims/Figures/93-C-30-1.bmp\",\"pa:ka:ta\",\"Up\",\"38\",\"2\",\"15\",\"9\",\"P\",\"J\",\"31\"
\"\",\"\",\"approach-retreat\",\"35\",\"381013\",\"0.0-35.0\",\"\",\"\",\"2-3\",\"6172\",\"38\",\"1\",\"Training\",\"Stims/Figures/139-C-20-2.bmp\",\"fafava\",\"Up\",\"38\",\"2\",\"16\",\"9\",\"C1\",\"J\",\"32\"
\"\",\"\",\"approach-retreat\",\"36\",\"386946\",\"0.0-36.0\",\"\",\"\",\"2-3\",\"4410\",\"39\",\"0\",\"Training\",\"Stims/Figures/118-C-20-2.bmp\",\"zaha:za\",\"Left\",\"37\",\"3\",\"1\",\"9\",\"C2\",\"J\",\"33\"
\"\",\"\",\"approach-retreat\",\"37\",\"392688\",\"0.0-37.0\",\"\",\"\",\"2-3\",\"4223\",\"38\",\"0\",\"Training\",\"Stims/Figures/139-C-20-2.bmp\",\"fafava\",\"Down\",\"40\",\"3\",\"2\",\"9\",\"C1\",\"J\",\"34\"
\"\",\"\",\"approach-retreat\",\"38\",\"398826\",\"0.0-38.0\",\"\",\"\",\"2-3\",\"4612\",\"39\",\"0\",\"Training\",\"Stims/Figures/71-C-30-1.bmp\",\"pakata\",\"Left\",\"37\",\"3\",\"3\",\"9\",\"P\",\"J\",\"35\"
\"\",\"\",\"approach-retreat\",\"39\",\"405188\",\"0.0-39.0\",\"\",\"\",\"2-3\",\"4830\",\"38\",\"1\",\"Training\",\"Stims/Figures/93-C-30-1.bmp\",\"pa:ka:ta\",\"Up\",\"38\",\"3\",\"4\",\"9\",\"P\",\"J\",\"36\"
\"\",\"\",\"approach-retreat\",\"40\",\"411571\",\"0.0-40.0\",\"\",\"\",\"2-3\",\"4860\",\"39\",\"1\",\"Training\",\"Stims/Figures/111-J-10-3.bmp\",\"na:la:na\",\"Left\",\"39\",\"3\",\"5\",\"9\",\"S\",\"J\",\"37\"
\"\",\"\",\"approach-retreat\",\"41\",\"418332\",\"0.0-41.0\",\"\",\"\",\"2-3\",\"5242\",\"39\",\"0\",\"Training\",\"Stims/Figures/93-J-0-1.bmp\",\"zahaha\",\"Right\",\"37\",\"3\",\"6\",\"9\",\"C2\",\"J\",\"38\"
\"\",\"\",\"approach-retreat\",\"42\",\"425671\",\"0.0-42.0\",\"\",\"\",\"2-3\",\"5816\",\"37\",\"0\",\"Training\",\"Stims/Figures/144-C-30-3.bmp\",\"fasha:sha\",\"Right\",\"39\",\"3\",\"7\",\"9\",\"C1\",\"J\",\"39\"
\"\",\"\",\"approach-retreat\",\"43\",\"431637\",\"0.0-43.0\",\"\",\"\",\"2-3\",\"4429\",\"39\",\"0\",\"Training\",\"Stims/Figures/71-J-0-1.bmp\",\"vafa:sha\",\"Right\",\"37\",\"3\",\"8\",\"9\",\"C1\",\"J\",\"40\"
\"\",\"\",\"approach-retreat\",\"44\",\"437470\",\"0.0-44.0\",\"\",\"\",\"2-3\",\"4322\",\"37\",\"1\",\"Training\",\"Stims/Figures/87-J-10-4.bmp\",\"ta:ka:ta\",\"Right\",\"37\",\"3\",\"9\",\"9\",\"P\",\"J\",\"41\"
\"\",\"\",\"approach-retreat\",\"45\",\"443381\",\"0.0-45.0\",\"\",\"\",\"2-3\",\"4383\",\"38\",\"1\",\"Training\",\"Stims/Figures/118-J-0-2.bmp\",\"zasaza\",\"Down\",\"38\",\"3\",\"10\",\"9\",\"C2\",\"J\",\"42\"
\"\",\"\",\"approach-retreat\",\"46\",\"449312\",\"0.0-46.0\",\"\",\"\",\"2-3\",\"4410\",\"37\",\"0\",\"Training\",\"Stims/Figures/102-J-10-4.bmp\",\"nalala\",\"Left\",\"39\",\"3\",\"11\",\"9\",\"S\",\"J\",\"43\"
\"\",\"\",\"approach-retreat\",\"47\",\"455766\",\"0.0-47.0\",\"\",\"\",\"2-3\",\"4938\",\"40\",\"0\",\"Training\",\"Stims/Figures/87-C-20-4.bmp\",\"vashava\",\"Up\",\"38\",\"3\",\"12\",\"9\",\"C1\",\"J\",\"44\"
\"\",\"\",\"approach-retreat\",\"48\",\"461777\",\"0.0-48.0\",\"\",\"\",\"2-3\",\"4492\",\"38\",\"1\",\"Training\",\"Stims/Figures/102-C-20-4.bmp\",\"fa:sha:va\",\"Up\",\"38\",\"3\",\"13\",\"9\",\"C1\",\"J\",\"45\"
\"\",\"\",\"approach-retreat\",\"49\",\"468874\",\"0.0-49.0\",\"\",\"\",\"2-3\",\"5578\",\"38\",\"0\",\"Training\",\"Stims/Figures/139-J-0-2.bmp\",\"va:fa:sha\",\"Up\",\"40\",\"3\",\"14\",\"9\",\"C1\",\"J\",\"46\"
\"\",\"\",\"approach-retreat\",\"50\",\"474775\",\"0.0-50.0\",\"\",\"\",\"2-3\",\"4358\",\"40\",\"1\",\"Training\",\"Stims/Figures/111-C-30-3.bmp\",\"pa:ka:ka\",\"Down\",\"40\",\"3\",\"15\",\"9\",\"P\",\"J\",\"47\"
\"\",\"\",\"approach-retreat\",\"51\",\"480663\",\"0.0-51.0\",\"\",\"\",\"2-3\",\"4371\",\"40\",\"0\",\"Training\",\"Stims/Figures/144-J-10-3.bmp\",\"za:haha\",\"Down\",\"38\",\"3\",\"16\",\"9\",\"C2\",\"J\",\"48\"
\"\",\"\",\"approach-retreat\",\"52\",\"486362\",\"0.0-52.0\",\"\",\"\",\"2-3\",\"4163\",\"38\",\"0\",\"Training\",\"Stims/Figures/93-C-30-1.bmp\",\"pa:ka:ta\",\"Down\",\"40\",\"4\",\"1\",\"9\",\"P\",\"J\",\"49\"
\"\",\"\",\"approach-retreat\",\"53\",\"492302\",\"0.0-53.0\",\"\",\"\",\"2-3\",\"4414\",\"38\",\"1\",\"Training\",\"Stims/Figures/102-J-10-4.bmp\",\"nalala\",\"Down\",\"38\",\"4\",\"2\",\"9\",\"S\",\"J\",\"50\"
\"\",\"\",\"approach-retreat\",\"54\",\"498685\",\"0.0-54.0\",\"\",\"\",\"2-3\",\"4858\",\"39\",\"1\",\"Training\",\"Stims/Figures/118-C-20-2.bmp\",\"zaha:za\",\"Right\",\"39\",\"4\",\"3\",\"9\",\"C2\",\"J\",\"51\"
\"\",\"\",\"approach-retreat\",\"55\",\"506678\",\"0.0-55.0\",\"\",\"\",\"2-3\",\"6462\",\"38\",\"1\",\"Training\",\"Stims/Figures/144-C-30-3.bmp\",\"fasha:sha\",\"Up\",\"38\",\"4\",\"4\",\"9\",\"C1\",\"J\",\"52\"
\"\",\"\",\"approach-retreat\",\"56\",\"513250\",\"0.0-56.0\",\"\",\"\",\"2-3\",\"5034\",\"39\",\"1\",\"Training\",\"Stims/Figures/87-C-20-4.bmp\",\"vashava\",\"Right\",\"39\",\"4\",\"5\",\"9\",\"C1\",\"J\",\"53\"
\"\",\"\",\"approach-retreat\",\"57\",\"519498\",\"0.0-57.0\",\"\",\"\",\"2-3\",\"4724\",\"37\",\"1\",\"Training\",\"Stims/Figures/111-C-30-3.bmp\",\"pa:ka:ka\",\"Left\",\"37\",\"4\",\"6\",\"9\",\"P\",\"J\",\"54\"
\"\",\"\",\"approach-retreat\",\"58\",\"526766\",\"0.0-58.0\",\"\",\"\",\"2-3\",\"5731\",\"40\",\"0\",\"Training\",\"Stims/Figures/144-J-10-3.bmp\",\"za:haha\",\"Down\",\"38\",\"4\",\"7\",\"9\",\"C2\",\"J\",\"55\"
\"\",\"\",\"approach-retreat\",\"59\",\"535559\",\"0.0-59.0\",\"\",\"\",\"2-3\",\"7268\",\"38\",\"0\",\"Training\",\"Stims/Figures/87-J-10-4.bmp\",\"ta:ka:ta\",\"Up\",\"40\",\"4\",\"8\",\"9\",\"P\",\"J\",\"56\"
\"\",\"\",\"approach-retreat\",\"60\",\"541687\",\"0.0-60.0\",\"\",\"\",\"2-3\",\"4609\",\"37\",\"0\",\"Training\",\"Stims/Figures/93-J-0-1.bmp\",\"zahaha\",\"Left\",\"39\",\"4\",\"9\",\"9\",\"C2\",\"J\",\"57\"
\"\",\"\",\"approach-retreat\",\"61\",\"550007\",\"0.0-61.0\",\"\",\"\",\"2-3\",\"6799\",\"37\",\"1\",\"Training\",\"Stims/Figures/111-J-10-3.bmp\",\"na:la:na\",\"Right\",\"37\",\"4\",\"10\",\"9\",\"S\",\"J\",\"58\"
\"\",\"\",\"approach-retreat\",\"62\",\"557011\",\"0.0-62.0\",\"\",\"\",\"2-3\",\"5487\",\"39\",\"0\",\"Training\",\"Stims/Figures/139-C-20-2.bmp\",\"fafava\",\"Left\",\"37\",\"4\",\"11\",\"9\",\"C1\",\"J\",\"59\"
\"\",\"\",\"approach-retreat\",\"63\",\"562794\",\"0.0-63.0\",\"\",\"\",\"2-3\",\"4260\",\"40\",\"0\",\"Training\",\"Stims/Figures/139-J-0-2.bmp\",\"va:fa:sha\",\"Down\",\"38\",\"4\",\"12\",\"9\",\"C1\",\"J\",\"60\"
\"\",\"\",\"approach-retreat\",\"64\",\"568837\",\"0.0-64.0\",\"\",\"\",\"2-3\",\"4511\",\"40\",\"1\",\"Training\",\"Stims/Figures/71-J-0-1.bmp\",\"vafa:sha\",\"Up\",\"40\",\"4\",\"13\",\"9\",\"C1\",\"J\",\"61\"
\"\",\"\",\"approach-retreat\",\"65\",\"575414\",\"0.0-65.0\",\"\",\"\",\"2-3\",\"5061\",\"40\",\"0\",\"Training\",\"Stims/Figures/102-C-20-4.bmp\",\"fa:sha:va\",\"Up\",\"38\",\"4\",\"14\",\"9\",\"C1\",\"J\",\"62\"
\"\",\"\",\"approach-retreat\",\"66\",\"581313\",\"0.0-66.0\",\"\",\"\",\"2-3\",\"4371\",\"39\",\"1\",\"Training\",\"Stims/Figures/118-J-0-2.bmp\",\"zasaza\",\"Left\",\"39\",\"4\",\"15\",\"9\",\"C2\",\"J\",\"63\"
\"\",\"\",\"approach-retreat\",\"67\",\"587113\",\"0.0-67.0\",\"\",\"\",\"2-3\",\"4275\",\"39\",\"1\",\"Training\",\"Stims/Figures/71-C-30-1.bmp\",\"pakata\",\"Right\",\"39\",\"4\",\"16\",\"9\",\"P\",\"J\",\"64\"
\"\",\"\",\"approach-retreat\",\"68\",\"593061\",\"0.0-68.0\",\"\",\"\",\"2-3\",\"4427\",\"40\",\"1\",\"Training\",\"Stims/Figures/93-C-30-1.bmp\",\"pa:ka:ta\",\"Down\",\"40\",\"5\",\"1\",\"9\",\"P\",\"J\",\"65\"
\"\",\"\",\"approach-retreat\",\"69\",\"598845\",\"0.0-69.0\",\"\",\"\",\"2-3\",\"4267\",\"40\",\"1\",\"Training\",\"Stims/Figures/111-J-10-3.bmp\",\"na:la:na\",\"Up\",\"40\",\"5\",\"2\",\"9\",\"S\",\"J\",\"66\"
\"\",\"\",\"approach-retreat\",\"70\",\"604460\",\"0.0-70.0\",\"\",\"\",\"2-3\",\"4092\",\"37\",\"1\",\"Training\",\"Stims/Figures/144-C-30-3.bmp\",\"fasha:sha\",\"Left\",\"37\",\"5\",\"3\",\"9\",\"C1\",\"J\",\"67\"
\"\",\"\",\"approach-retreat\",\"71\",\"610047\",\"0.0-71.0\",\"\",\"\",\"2-3\",\"4067\",\"37\",\"0\",\"Training\",\"Stims/Figures/144-J-10-3.bmp\",\"za:haha\",\"Left\",\"39\",\"5\",\"4\",\"9\",\"C2\",\"J\",\"68\"
\"\",\"\",\"approach-retreat\",\"72\",\"615861\",\"0.0-72.0\",\"\",\"\",\"2-3\",\"4297\",\"40\",\"1\",\"Training\",\"Stims/Figures/102-J-10-4.bmp\",\"nalala\",\"Up\",\"40\",\"5\",\"5\",\"9\",\"S\",\"J\",\"69\"
\"\",\"\",\"approach-retreat\",\"73\",\"621638\",\"0.0-73.0\",\"\",\"\",\"2-3\",\"4262\",\"38\",\"0\",\"Training\",\"Stims/Figures/111-C-30-3.bmp\",\"pa:ka:ka\",\"Down\",\"40\",\"5\",\"6\",\"9\",\"P\",\"J\",\"70\"
\"\",\"\",\"approach-retreat\",\"74\",\"627772\",\"0.0-74.0\",\"\",\"\",\"2-3\",\"4595\",\"39\",\"1\",\"Training\",\"Stims/Figures/102-C-20-4.bmp\",\"fa:sha:va\",\"Right\",\"39\",\"5\",\"7\",\"9\",\"C1\",\"J\",\"71\"
\"\",\"\",\"approach-retreat\",\"75\",\"634803\",\"0.0-75.0\",\"\",\"\",\"2-3\",\"5516\",\"38\",\"1\",\"Training\",\"Stims/Figures/71-J-0-1.bmp\",\"vafa:sha\",\"Down\",\"38\",\"5\",\"8\",\"9\",\"C1\",\"J\",\"72\"
\"\",\"\",\"approach-retreat\",\"76\",\"640508\",\"0.0-76.0\",\"\",\"\",\"2-3\",\"4182\",\"37\",\"1\",\"Training\",\"Stims/Figures/139-C-20-2.bmp\",\"fafava\",\"Left\",\"37\",\"5\",\"9\",\"9\",\"C1\",\"J\",\"73\"
\"\",\"\",\"approach-retreat\",\"77\",\"646238\",\"0.0-77.0\",\"\",\"\",\"2-3\",\"4200\",\"39\",\"0\",\"Training\",\"Stims/Figures/139-J-0-2.bmp\",\"va:fa:sha\",\"Right\",\"37\",\"5\",\"10\",\"9\",\"C1\",\"J\",\"74\"
\"\",\"\",\"approach-retreat\",\"78\",\"652179\",\"0.0-78.0\",\"\",\"\",\"2-3\",\"4420\",\"39\",\"0\",\"Training\",\"Stims/Figures/87-J-10-4.bmp\",\"ta:ka:ta\",\"Right\",\"37\",\"5\",\"11\",\"9\",\"P\",\"J\",\"75\"
\"\",\"\",\"approach-retreat\",\"79\",\"657737\",\"0.0-79.0\",\"\",\"\",\"2-3\",\"4039\",\"40\",\"0\",\"Training\",\"Stims/Figures/93-J-0-1.bmp\",\"zahaha\",\"Down\",\"38\",\"5\",\"12\",\"9\",\"C2\",\"J\",\"76\"
\"\",\"\",\"approach-retreat\",\"80\",\"663567\",\"0.0-80.0\",\"\",\"\",\"2-3\",\"4301\",\"40\",\"0\",\"Training\",\"Stims/Figures/118-C-20-2.bmp\",\"zaha:za\",\"Up\",\"38\",\"5\",\"13\",\"9\",\"C2\",\"J\",\"77\"
\"\",\"\",\"approach-retreat\",\"81\",\"669258\",\"0.0-81.0\",\"\",\"\",\"2-3\",\"4167\",\"38\",\"1\",\"Training\",\"Stims/Figures/71-C-30-1.bmp\",\"pakata\",\"Up\",\"38\",\"5\",\"14\",\"9\",\"P\",\"J\",\"78\"
\"\",\"\",\"approach-retreat\",\"82\",\"675275\",\"0.0-82.0\",\"\",\"\",\"2-3\",\"4488\",\"37\",\"1\",\"Training\",\"Stims/Figures/118-J-0-2.bmp\",\"zasaza\",\"Right\",\"37\",\"5\",\"15\",\"9\",\"C2\",\"J\",\"79\"
\"\",\"\",\"approach-retreat\",\"83\",\"680979\",\"0.0-83.0\",\"\",\"\",\"2-3\",\"4183\",\"37\",\"1\",\"Training\",\"Stims/Figures/87-C-20-4.bmp\",\"vashava\",\"Left\",\"37\",\"5\",\"16\",\"9\",\"C1\",\"J\",\"80\"
\"\",\"\",\"approach-retreat\",\"84\",\"686657\",\"0.0-84.0\",\"\",\"\",\"2-3\",\"4154\",\"40\",\"1\",\"Training\",\"Stims/Figures/71-C-30-1.bmp\",\"pakata\",\"Down\",\"40\",\"6\",\"1\",\"9\",\"P\",\"J\",\"81\"
\"\",\"\",\"approach-retreat\",\"85\",\"693279\",\"0.0-85.0\",\"\",\"\",\"2-3\",\"5093\",\"40\",\"0\",\"Training\",\"Stims/Figures/111-C-30-3.bmp\",\"pa:ka:ka\",\"Up\",\"38\",\"6\",\"2\",\"9\",\"P\",\"J\",\"82\"
\"\",\"\",\"approach-retreat\",\"86\",\"699136\",\"0.0-86.0\",\"\",\"\",\"2-3\",\"4324\",\"40\",\"1\",\"Training\",\"Stims/Figures/139-J-0-2.bmp\",\"va:fa:sha\",\"Up\",\"40\",\"6\",\"3\",\"9\",\"C1\",\"J\",\"83\"
\"\",\"\",\"approach-retreat\",\"87\",\"704847\",\"0.0-87.0\",\"\",\"\",\"2-3\",\"4185\",\"38\",\"1\",\"Training\",\"Stims/Figures/93-C-30-1.bmp\",\"pa:ka:ta\",\"Up\",\"38\",\"6\",\"4\",\"9\",\"P\",\"J\",\"84\"
\"\",\"\",\"approach-retreat\",\"88\",\"710669\",\"0.0-88.0\",\"\",\"\",\"2-3\",\"4281\",\"38\",\"1\",\"Training\",\"Stims/Figures/144-C-30-3.bmp\",\"fasha:sha\",\"Up\",\"38\",\"6\",\"5\",\"9\",\"C1\",\"J\",\"85\"
\"\",\"\",\"approach-retreat\",\"89\",\"716635\",\"0.0-89.0\",\"\",\"\",\"2-3\",\"4447\",\"39\",\"1\",\"Training\",\"Stims/Figures/111-J-10-3.bmp\",\"na:la:na\",\"Left\",\"39\",\"6\",\"6\",\"9\",\"S\",\"J\",\"86\"
\"\",\"\",\"approach-retreat\",\"90\",\"723153\",\"0.0-90.0\",\"\",\"\",\"2-3\",\"5002\",\"39\",\"1\",\"Training\",\"Stims/Figures/102-J-10-4.bmp\",\"nalala\",\"Left\",\"39\",\"6\",\"7\",\"9\",\"S\",\"J\",\"87\"
\"\",\"\",\"approach-retreat\",\"91\",\"729246\",\"0.0-91.0\",\"\",\"\",\"2-3\",\"4575\",\"38\",\"1\",\"Training\",\"Stims/Figures/71-J-0-1.bmp\",\"vafa:sha\",\"Down\",\"38\",\"6\",\"8\",\"9\",\"C1\",\"J\",\"88\"
\"\",\"\",\"approach-retreat\",\"92\",\"735116\",\"0.0-92.0\",\"\",\"\",\"2-3\",\"4340\",\"40\",\"1\",\"Training\",\"Stims/Figures/139-C-20-2.bmp\",\"fafava\",\"Down\",\"40\",\"6\",\"9\",\"9\",\"C1\",\"J\",\"89\"
\"\",\"\",\"approach-retreat\",\"93\",\"740930\",\"0.0-93.0\",\"\",\"\",\"2-3\",\"4290\",\"37\",\"1\",\"Training\",\"Stims/Figures/87-C-20-4.bmp\",\"vashava\",\"Left\",\"37\",\"6\",\"10\",\"9\",\"C1\",\"J\",\"90\"
\"\",\"\",\"approach-retreat\",\"94\",\"746861\",\"0.0-94.0\",\"\",\"\",\"2-3\",\"4411\",\"37\",\"1\",\"Training\",\"Stims/Figures/102-C-20-4.bmp\",\"fa:sha:va\",\"Left\",\"37\",\"6\",\"11\",\"9\",\"C1\",\"J\",\"91\"
\"\",\"\",\"approach-retreat\",\"95\",\"752855\",\"0.0-95.0\",\"\",\"\",\"2-3\",\"4478\",\"39\",\"0\",\"Training\",\"Stims/Figures/144-J-10-3.bmp\",\"za:haha\",\"Right\",\"37\",\"6\",\"12\",\"9\",\"C2\",\"J\",\"92\"
\"\",\"\",\"approach-retreat\",\"96\",\"759118\",\"0.0-96.0\",\"\",\"\",\"2-3\",\"4741\",\"37\",\"0\",\"Training\",\"Stims/Figures/118-C-20-2.bmp\",\"zaha:za\",\"Right\",\"39\",\"6\",\"13\",\"9\",\"C2\",\"J\",\"93\"
\"\",\"\",\"approach-retreat\",\"97\",\"764793\",\"0.0-97.0\",\"\",\"\",\"2-3\",\"4148\",\"39\",\"0\",\"Training\",\"Stims/Figures/93-J-0-1.bmp\",\"zahaha\",\"Right\",\"37\",\"6\",\"14\",\"9\",\"C2\",\"J\",\"94\"
\"\",\"\",\"approach-retreat\",\"98\",\"771660\",\"0.0-98.0\",\"\",\"\",\"2-3\",\"5341\",\"40\",\"0\",\"Training\",\"Stims/Figures/87-J-10-4.bmp\",\"ta:ka:ta\",\"Down\",\"38\",\"6\",\"15\",\"9\",\"P\",\"J\",\"95\"
\"\",\"\",\"approach-retreat\",\"99\",\"777423\",\"0.0-99.0\",\"\",\"\",\"2-3\",\"4247\",\"37\",\"1\",\"Training\",\"Stims/Figures/118-J-0-2.bmp\",\"zasaza\",\"Right\",\"37\",\"6\",\"16\",\"9\",\"C2\",\"J\",\"96\"
\"\",\"\",\"approach-retreat\",\"100\",\"783052\",\"0.0-100.0\",\"\",\"\",\"2-3\",\"4115\",\"39\",\"0\",\"Training\",\"Stims/Figures/87-C-20-4.bmp\",\"vashava\",\"Left\",\"37\",\"7\",\"1\",\"9\",\"C1\",\"J\",\"97\"
\"\",\"\",\"approach-retreat\",\"101\",\"788874\",\"0.0-101.0\",\"\",\"\",\"2-3\",\"4294\",\"38\",\"1\",\"Training\",\"Stims/Figures/139-C-20-2.bmp\",\"fafava\",\"Up\",\"38\",\"7\",\"2\",\"9\",\"C1\",\"J\",\"98\"
\"\",\"\",\"approach-retreat\",\"102\",\"794692\",\"0.0-102.0\",\"\",\"\",\"2-3\",\"4291\",\"37\",\"1\",\"Training\",\"Stims/Figures/87-J-10-4.bmp\",\"ta:ka:ta\",\"Right\",\"37\",\"7\",\"3\",\"9\",\"P\",\"J\",\"99\"
\"\",\"\",\"approach-retreat\",\"103\",\"800389\",\"0.0-103.0\",\"\",\"\",\"2-3\",\"4173\",\"40\",\"1\",\"Training\",\"Stims/Figures/71-C-30-1.bmp\",\"pakata\",\"Down\",\"40\",\"7\",\"4\",\"9\",\"P\",\"J\",\"100\"
\"\",\"\",\"approach-retreat\",\"104\",\"807200\",\"0.0-104.0\",\"\",\"\",\"2-3\",\"5282\",\"38\",\"1\",\"Training\",\"Stims/Figures/93-J-0-1.bmp\",\"zahaha\",\"Down\",\"38\",\"7\",\"5\",\"9\",\"C2\",\"J\",\"101\"
\"\",\"\",\"approach-retreat\",\"105\",\"812870\",\"0.0-105.0\",\"\",\"\",\"2-3\",\"4142\",\"39\",\"1\",\"Training\",\"Stims/Figures/139-J-0-2.bmp\",\"va:fa:sha\",\"Left\",\"39\",\"7\",\"6\",\"9\",\"C1\",\"J\",\"102\"
\"\",\"\",\"approach-retreat\",\"106\",\"818481\",\"0.0-106.0\",\"\",\"\",\"2-3\",\"4084\",\"37\",\"1\",\"Training\",\"Stims/Figures/102-J-10-4.bmp\",\"nalala\",\"Right\",\"37\",\"7\",\"7\",\"9\",\"S\",\"J\",\"103\"
\"\",\"\",\"approach-retreat\",\"107\",\"824145\",\"0.0-107.0\",\"\",\"\",\"2-3\",\"4147\",\"40\",\"1\",\"Training\",\"Stims/Figures/144-C-30-3.bmp\",\"fasha:sha\",\"Down\",\"40\",\"7\",\"8\",\"9\",\"C1\",\"J\",\"104\"
\"\",\"\",\"approach-retreat\",\"108\",\"831494\",\"0.0-108.0\",\"\",\"\",\"2-3\",\"5832\",\"37\",\"1\",\"Training\",\"Stims/Figures/118-C-20-2.bmp\",\"zaha:za\",\"Left\",\"37\",\"7\",\"9\",\"9\",\"C2\",\"J\",\"105\"
\"\",\"\",\"approach-retreat\",\"109\",\"838223\",\"0.0-109.0\",\"\",\"\",\"2-3\",\"5203\",\"37\",\"1\",\"Training\",\"Stims/Figures/118-J-0-2.bmp\",\"zasaza\",\"Right\",\"37\",\"7\",\"10\",\"9\",\"C2\",\"J\",\"106\"
\"\",\"\",\"approach-retreat\",\"110\",\"843878\",\"0.0-110.0\",\"\",\"\",\"2-3\",\"4124\",\"40\",\"1\",\"Training\",\"Stims/Figures/111-J-10-3.bmp\",\"na:la:na\",\"Up\",\"40\",\"7\",\"11\",\"9\",\"S\",\"J\",\"107\"
\"\",\"\",\"approach-retreat\",\"111\",\"849633\",\"0.0-111.0\",\"\",\"\",\"2-3\",\"4237\",\"37\",\"0\",\"Training\",\"Stims/Figures/102-C-20-4.bmp\",\"fa:sha:va\",\"Right\",\"39\",\"7\",\"12\",\"9\",\"C1\",\"J\",\"108\"
\"\",\"\",\"approach-retreat\",\"112\",\"855271\",\"0.0-112.0\",\"\",\"\",\"2-3\",\"4120\",\"39\",\"1\",\"Training\",\"Stims/Figures/71-J-0-1.bmp\",\"vafa:sha\",\"Left\",\"39\",\"7\",\"13\",\"9\",\"C1\",\"J\",\"109\"
\"\",\"\",\"approach-retreat\",\"113\",\"860937\",\"0.0-113.0\",\"\",\"\",\"2-3\",\"4147\",\"40\",\"0\",\"Training\",\"Stims/Figures/111-C-30-3.bmp\",\"pa:ka:ka\",\"Up\",\"38\",\"7\",\"14\",\"9\",\"P\",\"J\",\"110\"
\"\",\"\",\"approach-retreat\",\"114\",\"866590\",\"0.0-114.0\",\"\",\"\",\"2-3\",\"4130\",\"38\",\"0\",\"Training\",\"Stims/Figures/144-J-10-3.bmp\",\"za:haha\",\"Up\",\"40\",\"7\",\"15\",\"9\",\"C2\",\"J\",\"111\"
\"\",\"\",\"approach-retreat\",\"115\",\"872531\",\"0.0-115.0\",\"\",\"\",\"2-3\",\"4418\",\"40\",\"1\",\"Training\",\"Stims/Figures/93-C-30-1.bmp\",\"pa:ka:ta\",\"Down\",\"40\",\"7\",\"16\",\"9\",\"P\",\"J\",\"112\"
\"\",\"\",\"approach-retreat\",\"116\",\"879084\",\"0.0-116.0\",\"\",\"\",\"2-3\",\"5010\",\"39\",\"1\",\"Training\",\"Stims/Figures/102-J-10-4.bmp\",\"nalala\",\"Left\",\"39\",\"8\",\"1\",\"9\",\"S\",\"J\",\"113\"
\"\",\"\",\"approach-retreat\",\"117\",\"885096\",\"0.0-117.0\",\"\",\"\",\"2-3\",\"4485\",\"40\",\"1\",\"Training\",\"Stims/Figures/144-J-10-3.bmp\",\"za:haha\",\"Up\",\"40\",\"8\",\"2\",\"9\",\"C2\",\"J\",\"114\"
\"\",\"\",\"approach-retreat\",\"118\",\"890767\",\"0.0-118.0\",\"\",\"\",\"2-3\",\"4140\",\"39\",\"0\",\"Training\",\"Stims/Figures/139-C-20-2.bmp\",\"fafava\",\"Left\",\"37\",\"8\",\"3\",\"9\",\"C1\",\"J\",\"115\"
\"\",\"\",\"approach-retreat\",\"119\",\"896395\",\"0.0-119.0\",\"\",\"\",\"2-3\",\"4113\",\"40\",\"1\",\"Training\",\"Stims/Figures/71-C-30-1.bmp\",\"pakata\",\"Down\",\"40\",\"8\",\"4\",\"9\",\"P\",\"J\",\"116\"
\"\",\"\",\"approach-retreat\",\"120\",\"903412\",\"0.0-120.0\",\"\",\"\",\"2-3\",\"5488\",\"37\",\"1\",\"Training\",\"Stims/Figures/111-J-10-3.bmp\",\"na:la:na\",\"Right\",\"37\",\"8\",\"5\",\"9\",\"S\",\"J\",\"117\"
\"\",\"\",\"approach-retreat\",\"121\",\"909987\",\"0.0-121.0\",\"\",\"\",\"2-3\",\"5050\",\"38\",\"0\",\"Training\",\"Stims/Figures/93-C-30-1.bmp\",\"pa:ka:ta\",\"Down\",\"40\",\"8\",\"6\",\"9\",\"P\",\"J\",\"118\"
\"\",\"\",\"approach-retreat\",\"122\",\"915588\",\"0.0-122.0\",\"\",\"\",\"2-3\",\"4077\",\"37\",\"0\",\"Training\",\"Stims/Figures/102-C-20-4.bmp\",\"fa:sha:va\",\"Right\",\"39\",\"8\",\"7\",\"9\",\"C1\",\"J\",\"119\"
\"\",\"\",\"approach-retreat\",\"123\",\"921266\",\"0.0-123.0\",\"\",\"\",\"2-3\",\"4152\",\"40\",\"0\",\"Training\",\"Stims/Figures/87-C-20-4.bmp\",\"vashava\",\"Up\",\"38\",\"8\",\"8\",\"9\",\"C1\",\"J\",\"120\"
\"\",\"\",\"approach-retreat\",\"124\",\"926881\",\"0.0-124.0\",\"\",\"\",\"2-3\",\"4092\",\"38\",\"1\",\"Training\",\"Stims/Figures/139-J-0-2.bmp\",\"va:fa:sha\",\"Down\",\"38\",\"8\",\"9\",\"9\",\"C1\",\"J\",\"121\"
\"\",\"\",\"approach-retreat\",\"125\",\"932589\",\"0.0-125.0\",\"\",\"\",\"2-3\",\"4181\",\"37\",\"1\",\"Training\",\"Stims/Figures/111-C-30-3.bmp\",\"pa:ka:ka\",\"Left\",\"37\",\"8\",\"10\",\"9\",\"P\",\"J\",\"122\"
\"\",\"\",\"approach-retreat\",\"126\",\"938136\",\"0.0-126.0\",\"\",\"\",\"2-3\",\"4033\",\"39\",\"1\",\"Training\",\"Stims/Figures/118-J-0-2.bmp\",\"zasaza\",\"Left\",\"39\",\"8\",\"11\",\"9\",\"C2\",\"J\",\"123\"
\"\",\"\",\"approach-retreat\",\"127\",\"943972\",\"0.0-127.0\",\"\",\"\",\"2-3\",\"4305\",\"38\",\"0\",\"Training\",\"Stims/Figures/87-J-10-4.bmp\",\"ta:ka:ta\",\"Up\",\"40\",\"8\",\"12\",\"9\",\"P\",\"J\",\"124\"
\"\",\"\",\"approach-retreat\",\"128\",\"949578\",\"0.0-128.0\",\"\",\"\",\"2-3\",\"4081\",\"37\",\"1\",\"Training\",\"Stims/Figures/93-J-0-1.bmp\",\"zahaha\",\"Right\",\"37\",\"8\",\"13\",\"9\",\"C2\",\"J\",\"125\"
\"\",\"\",\"approach-retreat\",\"129\",\"956203\",\"0.0-129.0\",\"\",\"\",\"2-3\",\"5086\",\"40\",\"1\",\"Training\",\"Stims/Figures/144-C-30-3.bmp\",\"fasha:sha\",\"Down\",\"40\",\"8\",\"14\",\"9\",\"C1\",\"J\",\"126\"
\"\",\"\",\"approach-retreat\",\"130\",\"961726\",\"0.0-130.0\",\"\",\"\",\"2-3\",\"3999\",\"37\",\"1\",\"Training\",\"Stims/Figures/71-J-0-1.bmp\",\"vafa:sha\",\"Right\",\"37\",\"8\",\"15\",\"9\",\"C1\",\"J\",\"127\"
\"\",\"\",\"approach-retreat\",\"131\",\"967458\",\"0.0-131.0\",\"\",\"\",\"2-3\",\"4204\",\"38\",\"1\",\"Training\",\"Stims/Figures/118-C-20-2.bmp\",\"zaha:za\",\"Up\",\"38\",\"8\",\"16\",\"9\",\"C2\",\"J\",\"128\"
\"\",\"\",\"approach-retreat\",\"132\",\"972907\",\"0.0-132.0\",\"\",\"\",\"2-3\",\"3927\",\"39\",\"1\",\"Training\",\"Stims/Figures/118-J-0-2.bmp\",\"zasaza\",\"Left\",\"39\",\"9\",\"1\",\"9\",\"C2\",\"J\",\"129\"
\"\",\"\",\"approach-retreat\",\"133\",\"978452\",\"0.0-133.0\",\"\",\"\",\"2-3\",\"4016\",\"38\",\"1\",\"Training\",\"Stims/Figures/71-J-0-1.bmp\",\"vafa:sha\",\"Down\",\"38\",\"9\",\"2\",\"9\",\"C1\",\"J\",\"130\"
\"\",\"\",\"approach-retreat\",\"134\",\"984048\",\"0.0-134.0\",\"\",\"\",\"2-3\",\"4072\",\"38\",\"0\",\"Training\",\"Stims/Figures/111-J-10-3.bmp\",\"na:la:na\",\"Up\",\"40\",\"9\",\"3\",\"9\",\"S\",\"J\",\"131\"
\"\",\"\",\"approach-retreat\",\"135\",\"989672\",\"0.0-135.0\",\"\",\"\",\"2-3\",\"4100\",\"37\",\"0\",\"Training\",\"Stims/Figures/139-C-20-2.bmp\",\"fafava\",\"Right\",\"39\",\"9\",\"4\",\"9\",\"C1\",\"J\",\"132\"
\"\",\"\",\"approach-retreat\",\"136\",\"995439\",\"0.0-136.0\",\"\",\"\",\"2-3\",\"4235\",\"39\",\"1\",\"Training\",\"Stims/Figures/93-C-30-1.bmp\",\"pa:ka:ta\",\"Right\",\"39\",\"9\",\"5\",\"9\",\"P\",\"J\",\"133\"
\"\",\"\",\"approach-retreat\",\"137\",\"1001260\",\"0.0-137.0\",\"\",\"\",\"2-3\",\"4287\",\"38\",\"0\",\"Training\",\"Stims/Figures/87-C-20-4.bmp\",\"vashava\",\"Down\",\"40\",\"9\",\"6\",\"9\",\"C1\",\"J\",\"134\"
\"\",\"\",\"approach-retreat\",\"138\",\"1006989\",\"0.0-138.0\",\"\",\"\",\"2-3\",\"4198\",\"37\",\"0\",\"Training\",\"Stims/Figures/102-J-10-4.bmp\",\"nalala\",\"Left\",\"39\",\"9\",\"7\",\"9\",\"S\",\"J\",\"135\"
\"\",\"\",\"approach-retreat\",\"139\",\"1012636\",\"0.0-139.0\",\"\",\"\",\"2-3\",\"4121\",\"37\",\"1\",\"Training\",\"Stims/Figures/87-J-10-4.bmp\",\"ta:ka:ta\",\"Right\",\"37\",\"9\",\"8\",\"9\",\"P\",\"J\",\"136\"
\"\",\"\",\"approach-retreat\",\"140\",\"1018387\",\"0.0-140.0\",\"\",\"\",\"2-3\",\"4211\",\"38\",\"1\",\"Training\",\"Stims/Figures/111-C-30-3.bmp\",\"pa:ka:ka\",\"Up\",\"38\",\"9\",\"9\",\"9\",\"P\",\"J\",\"137\"
\"\",\"\",\"approach-retreat\",\"141\",\"1024018\",\"0.0-141.0\",\"\",\"\",\"2-3\",\"4112\",\"38\",\"1\",\"Training\",\"Stims/Figures/102-C-20-4.bmp\",\"fa:sha:va\",\"Up\",\"38\",\"9\",\"10\",\"9\",\"C1\",\"J\",\"138\"
\"\",\"\",\"approach-retreat\",\"142\",\"1029847\",\"0.0-142.0\",\"\",\"\",\"2-3\",\"4312\",\"37\",\"1\",\"Training\",\"Stims/Figures/144-C-30-3.bmp\",\"fasha:sha\",\"Left\",\"37\",\"9\",\"11\",\"9\",\"C1\",\"J\",\"139\"
\"\",\"\",\"approach-retreat\",\"143\",\"1035478\",\"0.0-143.0\",\"\",\"\",\"2-3\",\"4098\",\"38\",\"1\",\"Training\",\"Stims/Figures/144-J-10-3.bmp\",\"za:haha\",\"Down\",\"38\",\"9\",\"12\",\"9\",\"C2\",\"J\",\"140\"
\"\",\"\",\"approach-retreat\",\"144\",\"1041766\",\"0.0-144.0\",\"\",\"\",\"2-3\",\"4757\",\"38\",\"1\",\"Training\",\"Stims/Figures/118-C-20-2.bmp\",\"zaha:za\",\"Up\",\"38\",\"9\",\"13\",\"9\",\"C2\",\"J\",\"141\"
\"\",\"\",\"approach-retreat\",\"145\",\"1047400\",\"0.0-145.0\",\"\",\"\",\"2-3\",\"4104\",\"37\",\"1\",\"Training\",\"Stims/Figures/139-J-0-2.bmp\",\"va:fa:sha\",\"Right\",\"37\",\"9\",\"14\",\"9\",\"C1\",\"J\",\"142\"
\"\",\"\",\"approach-retreat\",\"146\",\"1053528\",\"0.0-146.0\",\"\",\"\",\"2-3\",\"4598\",\"40\",\"1\",\"Training\",\"Stims/Figures/71-C-30-1.bmp\",\"pakata\",\"Down\",\"40\",\"9\",\"15\",\"9\",\"P\",\"J\",\"143\"
\"\",\"\",\"approach-retreat\",\"147\",\"1059407\",\"0.0-147.0\",\"\",\"\",\"2-3\",\"4349\",\"39\",\"1\",\"Training\",\"Stims/Figures/93-J-0-1.bmp\",\"zahaha\",\"Left\",\"39\",\"9\",\"16\",\"9\",\"C2\",\"J\",\"144\"
\"20143\",\"\",\"instructions\",\"148\",\"1079550\",\"0.0-148.0\",\"[{\"\"page_index\"\":0,\"\"viewing_time\"\":20140}]\",\"\",\"\",\"\",\"\",\"\",\"\",\"\",\"\",\"\",\"\",\"\",\"\",\"\",\"\",\"\",\"\"
\"\",\"\",\"approach-retreat\",\"149\",\"1085812\",\"0.0-149.0\",\"\",\"\",\"2-3\",\"4737\",\"38\",\"1\",\"Testing\",\"Stims/Figures/94-C-20-2.bmp\",\"mama:la\",\"Up\",\"38\",\"1\",\"1\",\"9\",\"S\",\"J\",\"1\"
\"\",\"\",\"approach-retreat\",\"150\",\"1091565\",\"0.0-150.0\",\"\",\"\",\"2-3\",\"4217\",\"38\",\"1\",\"Testing\",\"Stims/Figures/93-C-30-1.bmp\",\"pa:ka:ta\",\"Up\",\"38\",\"1\",\"2\",\"9\",\"P\",\"J\",\"2\"
\"\",\"\",\"approach-retreat\",\"151\",\"1098028\",\"0.0-151.0\",\"\",\"\",\"2-3\",\"4927\",\"40\",\"1\",\"Testing\",\"Stims/Figures/144-J-10-3.bmp\",\"za:haha\",\"Up\",\"40\",\"1\",\"3\",\"9\",\"C2\",\"J\",\"3\"
\"\",\"\",\"approach-retreat\",\"152\",\"1104990\",\"0.0-152.0\",\"\",\"\",\"2-3\",\"5418\",\"37\",\"1\",\"Testing\",\"Stims/Figures/128-C-30-3.bmp\",\"va:shasha\",\"Left\",\"37\",\"1\",\"4\",\"9\",\"C1\",\"J\",\"4\"
\"\",\"\",\"approach-retreat\",\"153\",\"1110759\",\"0.0-153.0\",\"\",\"\",\"2-3\",\"4224\",\"37\",\"1\",\"Testing\",\"Stims/Figures/71-J-0-1.bmp\",\"vafa:sha\",\"Right\",\"37\",\"1\",\"5\",\"9\",\"C1\",\"J\",\"5\"
\"\",\"\",\"approach-retreat\",\"154\",\"1116541\",\"0.0-154.0\",\"\",\"\",\"2-3\",\"4254\",\"38\",\"1\",\"Testing\",\"Stims/Figures/57-J-0-1.bmp\",\"fasha:va\",\"Down\",\"38\",\"1\",\"6\",\"9\",\"C1\",\"J\",\"6\"
\"\",\"\",\"approach-retreat\",\"155\",\"1122812\",\"0.0-155.0\",\"\",\"\",\"2-3\",\"4734\",\"39\",\"1\",\"Testing\",\"Stims/Figures/102-C-20-4.bmp\",\"fa:sha:va\",\"Right\",\"39\",\"1\",\"7\",\"9\",\"C1\",\"J\",\"7\"
\"\",\"\",\"approach-retreat\",\"156\",\"1128590\",\"0.0-156.0\",\"\",\"\",\"2-3\",\"4265\",\"40\",\"1\",\"Testing\",\"Stims/Figures/118-J-0-2.bmp\",\"zasaza\",\"Up\",\"40\",\"1\",\"8\",\"9\",\"C2\",\"J\",\"8\"
\"\",\"\",\"approach-retreat\",\"157\",\"1135250\",\"0.0-157.0\",\"\",\"\",\"2-3\",\"5117\",\"38\",\"1\",\"Testing\",\"Stims/Figures/111-C-30-3.bmp\",\"pa:ka:ka\",\"Up\",\"38\",\"1\",\"9\",\"9\",\"P\",\"J\",\"9\"
\"\",\"\",\"approach-retreat\",\"158\",\"1141048\",\"0.0-158.0\",\"\",\"\",\"2-3\",\"4260\",\"39\",\"1\",\"Testing\",\"Stims/Figures/7-J-10-4.bmp\",\"ma:la:la\",\"Left\",\"39\",\"1\",\"10\",\"9\",\"S\",\"J\",\"10\"
\"\",\"\",\"approach-retreat\",\"159\",\"1147634\",\"0.0-159.0\",\"\",\"\",\"2-3\",\"5045\",\"40\",\"1\",\"Testing\",\"Stims/Figures/118-C-20-2.bmp\",\"zaha:za\",\"Down\",\"40\",\"1\",\"11\",\"9\",\"C2\",\"J\",\"11\"
\"\",\"\",\"approach-retreat\",\"160\",\"1153327\",\"0.0-160.0\",\"\",\"\",\"2-3\",\"4156\",\"38\",\"1\",\"Testing\",\"Stims/Figures/87-J-10-4.bmp\",\"ta:ka:ta\",\"Down\",\"38\",\"1\",\"12\",\"9\",\"P\",\"J\",\"12\"
\"\",\"\",\"approach-retreat\",\"161\",\"1158933\",\"0.0-161.0\",\"\",\"\",\"2-3\",\"4090\",\"37\",\"1\",\"Testing\",\"Stims/Figures/139-C-20-2.bmp\",\"fafava\",\"Left\",\"37\",\"1\",\"13\",\"9\",\"C1\",\"J\",\"13\"
\"\",\"\",\"approach-retreat\",\"162\",\"1164845\",\"0.0-162.0\",\"\",\"\",\"2-3\",\"4379\",\"38\",\"1\",\"Testing\",\"Stims/Figures/144-C-30-3.bmp\",\"fasha:sha\",\"Up\",\"38\",\"1\",\"14\",\"9\",\"C1\",\"J\",\"14\"
\"\",\"\",\"approach-retreat\",\"163\",\"1170575\",\"0.0-163.0\",\"\",\"\",\"2-3\",\"4192\",\"38\",\"1\",\"Testing\",\"Stims/Figures/93-J-0-1.bmp\",\"zahaha\",\"Down\",\"38\",\"1\",\"15\",\"9\",\"C2\",\"J\",\"15\"
\"\",\"\",\"approach-retreat\",\"164\",\"1176317\",\"0.0-164.0\",\"\",\"\",\"2-3\",\"4204\",\"37\",\"1\",\"Testing\",\"Stims/Figures/139-J-0-2.bmp\",\"va:fa:sha\",\"Right\",\"37\",\"1\",\"16\",\"9\",\"C1\",\"J\",\"16\"
\"\",\"\",\"approach-retreat\",\"165\",\"1182086\",\"0.0-165.0\",\"\",\"\",\"2-3\",\"4240\",\"38\",\"1\",\"Testing\",\"Stims/Figures/94-J-0-2.bmp\",\"sa:ha:ha\",\"Down\",\"38\",\"1\",\"17\",\"9\",\"C2\",\"J\",\"17\"
\"\",\"\",\"approach-retreat\",\"166\",\"1187941\",\"0.0-166.0\",\"\",\"\",\"2-3\",\"4321\",\"39\",\"0\",\"Testing\",\"Stims/Figures/128-J-10-3.bmp\",\"mama:na\",\"Right\",\"37\",\"1\",\"18\",\"9\",\"S\",\"J\",\"18\"
\"\",\"\",\"approach-retreat\",\"167\",\"1193674\",\"0.0-167.0\",\"\",\"\",\"2-3\",\"4171\",\"38\",\"1\",\"Testing\",\"Stims/Figures/111-J-10-3.bmp\",\"na:la:na\",\"Down\",\"38\",\"1\",\"19\",\"9\",\"S\",\"J\",\"19\"
\"\",\"\",\"approach-retreat\",\"168\",\"1199491\",\"0.0-168.0\",\"\",\"\",\"2-3\",\"4298\",\"37\",\"1\",\"Testing\",\"Stims/Figures/57-C-30-1.bmp\",\"papata\",\"Left\",\"37\",\"1\",\"20\",\"9\",\"P\",\"J\",\"20\"
\"\",\"\",\"approach-retreat\",\"169\",\"1205272\",\"0.0-169.0\",\"\",\"\",\"2-3\",\"4246\",\"39\",\"1\",\"Testing\",\"Stims/Figures/71-C-30-1.bmp\",\"pakata\",\"Right\",\"39\",\"1\",\"21\",\"9\",\"P\",\"J\",\"21\"
\"\",\"\",\"approach-retreat\",\"170\",\"1211047\",\"0.0-170.0\",\"\",\"\",\"2-3\",\"4242\",\"39\",\"1\",\"Testing\",\"Stims/Figures/87-C-20-4.bmp\",\"vashava\",\"Right\",\"39\",\"1\",\"22\",\"9\",\"C1\",\"J\",\"22\"
\"\",\"\",\"approach-retreat\",\"171\",\"1216739\",\"0.0-171.0\",\"\",\"\",\"2-3\",\"4151\",\"39\",\"1\",\"Testing\",\"Stims/Figures/102-J-10-4.bmp\",\"nalala\",\"Left\",\"39\",\"1\",\"23\",\"9\",\"S\",\"J\",\"23\"
\"\",\"\",\"approach-retreat\",\"172\",\"1222407\",\"0.0-172.0\",\"\",\"\",\"2-3\",\"4145\",\"37\",\"1\",\"Testing\",\"Stims/Figures/7-C-20-4.bmp\",\"va:sha:sha\",\"Left\",\"37\",\"1\",\"24\",\"9\",\"C1\",\"J\",\"24\"
\"\",\"\",\"approach-retreat\",\"173\",\"1228152\",\"0.0-173.0\",\"\",\"\",\"2-3\",\"4209\",\"39\",\"1\",\"Testing\",\"Stims/Figures/93-J-0-1.bmp\",\"zahaha\",\"Left\",\"39\",\"2\",\"1\",\"9\",\"C2\",\"J\",\"25\"
\"\",\"\",\"approach-retreat\",\"174\",\"1234776\",\"0.0-174.0\",\"\",\"\",\"2-3\",\"5085\",\"38\",\"1\",\"Testing\",\"Stims/Figures/7-J-10-4.bmp\",\"ma:la:la\",\"Down\",\"38\",\"2\",\"2\",\"9\",\"S\",\"J\",\"26\"
\"\",\"\",\"approach-retreat\",\"175\",\"1240624\",\"0.0-175.0\",\"\",\"\",\"2-3\",\"4322\",\"37\",\"1\",\"Testing\",\"Stims/Figures/102-J-10-4.bmp\",\"nalala\",\"Right\",\"37\",\"2\",\"3\",\"9\",\"S\",\"J\",\"27\"
\"\",\"\",\"approach-retreat\",\"176\",\"1246660\",\"0.0-176.0\",\"\",\"\",\"2-3\",\"4500\",\"37\",\"1\",\"Testing\",\"Stims/Figures/128-C-30-3.bmp\",\"va:shasha\",\"Left\",\"37\",\"2\",\"4\",\"9\",\"C1\",\"J\",\"28\"
\"\",\"\",\"approach-retreat\",\"177\",\"1252472\",\"0.0-177.0\",\"\",\"\",\"2-3\",\"4281\",\"37\",\"1\",\"Testing\",\"Stims/Figures/94-J-0-2.bmp\",\"sa:ha:ha\",\"Right\",\"37\",\"2\",\"5\",\"9\",\"C2\",\"J\",\"29\"
\"\",\"\",\"approach-retreat\",\"178\",\"1258247\",\"0.0-178.0\",\"\",\"\",\"2-3\",\"4244\",\"37\",\"1\",\"Testing\",\"Stims/Figures/71-J-0-1.bmp\",\"vafa:sha\",\"Right\",\"37\",\"2\",\"6\",\"9\",\"C1\",\"J\",\"30\"
\"\",\"\",\"approach-retreat\",\"179\",\"1264067\",\"0.0-179.0\",\"\",\"\",\"2-3\",\"4283\",\"40\",\"1\",\"Testing\",\"Stims/Figures/7-C-20-4.bmp\",\"va:sha:sha\",\"Down\",\"40\",\"2\",\"7\",\"9\",\"C1\",\"J\",\"31\"
\"\",\"\",\"approach-retreat\",\"180\",\"1269947\",\"0.0-180.0\",\"\",\"\",\"2-3\",\"4342\",\"37\",\"1\",\"Testing\",\"Stims/Figures/118-J-0-2.bmp\",\"zasaza\",\"Right\",\"37\",\"2\",\"8\",\"9\",\"C2\",\"J\",\"32\"
\"\",\"\",\"approach-retreat\",\"181\",\"1275880\",\"0.0-181.0\",\"\",\"\",\"2-3\",\"4399\",\"40\",\"1\",\"Testing\",\"Stims/Figures/57-C-30-1.bmp\",\"papata\",\"Down\",\"40\",\"2\",\"9\",\"9\",\"P\",\"J\",\"33\"
\"\",\"\",\"approach-retreat\",\"182\",\"1281891\",\"0.0-182.0\",\"\",\"\",\"2-3\",\"4467\",\"38\",\"1\",\"Testing\",\"Stims/Figures/102-C-20-4.bmp\",\"fa:sha:va\",\"Up\",\"38\",\"2\",\"10\",\"9\",\"C1\",\"J\",\"34\"
\"\",\"\",\"approach-retreat\",\"183\",\"1287590\",\"0.0-183.0\",\"\",\"\",\"2-3\",\"4166\",\"37\",\"1\",\"Testing\",\"Stims/Figures/139-C-20-2.bmp\",\"fafava\",\"Left\",\"37\",\"2\",\"11\",\"9\",\"C1\",\"J\",\"35\"
\"\",\"\",\"approach-retreat\",\"184\",\"1293343\",\"0.0-184.0\",\"\",\"\",\"2-3\",\"4220\",\"38\",\"1\",\"Testing\",\"Stims/Figures/128-J-10-3.bmp\",\"mama:na\",\"Down\",\"38\",\"2\",\"12\",\"9\",\"S\",\"J\",\"36\"
\"\",\"\",\"approach-retreat\",\"185\",\"1299784\",\"0.0-185.0\",\"\",\"\",\"2-3\",\"4892\",\"39\",\"1\",\"Testing\",\"Stims/Figures/57-J-0-1.bmp\",\"fasha:va\",\"Left\",\"39\",\"2\",\"13\",\"9\",\"C1\",\"J\",\"37\"
\"\",\"\",\"approach-retreat\",\"186\",\"1305586\",\"0.0-186.0\",\"\",\"\",\"2-3\",\"4276\",\"39\",\"1\",\"Testing\",\"Stims/Figures/111-J-10-3.bmp\",\"na:la:na\",\"Left\",\"39\",\"2\",\"14\",\"9\",\"S\",\"J\",\"38\"
\"\",\"\",\"approach-retreat\",\"187\",\"1311473\",\"0.0-187.0\",\"\",\"\",\"2-3\",\"4357\",\"40\",\"1\",\"Testing\",\"Stims/Figures/144-J-10-3.bmp\",\"za:haha\",\"Up\",\"40\",\"2\",\"15\",\"9\",\"C2\",\"J\",\"39\"
\"\",\"\",\"approach-retreat\",\"188\",\"1317268\",\"0.0-188.0\",\"\",\"\",\"2-3\",\"4265\",\"38\",\"1\",\"Testing\",\"Stims/Figures/118-C-20-2.bmp\",\"zaha:za\",\"Up\",\"38\",\"2\",\"16\",\"9\",\"C2\",\"J\",\"40\"
\"\",\"\",\"approach-retreat\",\"189\",\"1323456\",\"0.0-189.0\",\"\",\"\",\"2-3\",\"4650\",\"39\",\"1\",\"Testing\",\"Stims/Figures/94-C-20-2.bmp\",\"mama:la\",\"Right\",\"39\",\"2\",\"17\",\"9\",\"S\",\"J\",\"41\"
\"\",\"\",\"approach-retreat\",\"190\",\"1331163\",\"0.0-190.0\",\"\",\"\",\"2-3\",\"6174\",\"40\",\"1\",\"Testing\",\"Stims/Figures/87-J-10-4.bmp\",\"ta:ka:ta\",\"Up\",\"40\",\"2\",\"18\",\"9\",\"P\",\"J\",\"42\"
\"\",\"\",\"approach-retreat\",\"191\",\"1336846\",\"0.0-191.0\",\"\",\"\",\"2-3\",\"4153\",\"38\",\"1\",\"Testing\",\"Stims/Figures/71-C-30-1.bmp\",\"pakata\",\"Up\",\"38\",\"2\",\"19\",\"9\",\"P\",\"J\",\"43\"
\"\",\"\",\"approach-retreat\",\"192\",\"1342579\",\"0.0-192.0\",\"\",\"\",\"2-3\",\"4197\",\"39\",\"1\",\"Testing\",\"Stims/Figures/111-C-30-3.bmp\",\"pa:ka:ka\",\"Right\",\"39\",\"2\",\"20\",\"9\",\"P\",\"J\",\"44\"
\"\",\"\",\"approach-retreat\",\"193\",\"1348474\",\"0.0-193.0\",\"\",\"\",\"2-3\",\"4354\",\"40\",\"1\",\"Testing\",\"Stims/Figures/144-C-30-3.bmp\",\"fasha:sha\",\"Down\",\"40\",\"2\",\"21\",\"9\",\"C1\",\"J\",\"45\"
\"\",\"\",\"approach-retreat\",\"194\",\"1354168\",\"0.0-194.0\",\"\",\"\",\"2-3\",\"4152\",\"37\",\"1\",\"Testing\",\"Stims/Figures/87-C-20-4.bmp\",\"vashava\",\"Left\",\"37\",\"2\",\"22\",\"9\",\"C1\",\"J\",\"46\"
\"\",\"\",\"approach-retreat\",\"195\",\"1360127\",\"0.0-195.0\",\"\",\"\",\"2-3\",\"4419\",\"38\",\"1\",\"Testing\",\"Stims/Figures/93-C-30-1.bmp\",\"pa:ka:ta\",\"Up\",\"38\",\"2\",\"23\",\"9\",\"P\",\"J\",\"47\"
\"\",\"\",\"approach-retreat\",\"196\",\"1365817\",\"0.0-196.0\",\"\",\"\",\"2-3\",\"4159\",\"38\",\"1\",\"Testing\",\"Stims/Figures/139-J-0-2.bmp\",\"va:fa:sha\",\"Down\",\"38\",\"2\",\"24\",\"9\",\"C1\",\"J\",\"48\"
\"\",\"\",\"approach-retreat\",\"197\",\"1371588\",\"0.0-197.0\",\"\",\"\",\"2-3\",\"4225\",\"37\",\"1\",\"Testing\",\"Stims/Figures/7-J-10-4.bmp\",\"ma:la:la\",\"Right\",\"37\",\"3\",\"1\",\"9\",\"S\",\"J\",\"49\"
\"\",\"\",\"approach-retreat\",\"198\",\"1377436\",\"0.0-198.0\",\"\",\"\",\"2-3\",\"4308\",\"38\",\"1\",\"Testing\",\"Stims/Figures/111-C-30-3.bmp\",\"pa:ka:ka\",\"Up\",\"38\",\"3\",\"2\",\"9\",\"P\",\"J\",\"50\"
\"\",\"\",\"approach-retreat\",\"199\",\"1383115\",\"0.0-199.0\",\"\",\"\",\"2-3\",\"4139\",\"40\",\"1\",\"Testing\",\"Stims/Figures/118-J-0-2.bmp\",\"zasaza\",\"Up\",\"40\",\"3\",\"3\",\"9\",\"C2\",\"J\",\"51\"
\"\",\"\",\"approach-retreat\",\"200\",\"1388995\",\"0.0-200.0\",\"\",\"\",\"2-3\",\"4348\",\"40\",\"1\",\"Testing\",\"Stims/Figures/118-C-20-2.bmp\",\"zaha:za\",\"Down\",\"40\",\"3\",\"4\",\"9\",\"C2\",\"J\",\"52\"
\"\",\"\",\"approach-retreat\",\"201\",\"1394782\",\"0.0-201.0\",\"\",\"\",\"2-3\",\"4249\",\"40\",\"1\",\"Testing\",\"Stims/Figures/128-C-30-3.bmp\",\"va:shasha\",\"Down\",\"40\",\"3\",\"5\",\"9\",\"C1\",\"J\",\"53\"
\"\",\"\",\"approach-retreat\",\"202\",\"1400564\",\"0.0-202.0\",\"\",\"\",\"2-3\",\"4269\",\"37\",\"1\",\"Testing\",\"Stims/Figures/94-C-20-2.bmp\",\"mama:la\",\"Left\",\"37\",\"3\",\"6\",\"9\",\"S\",\"J\",\"54\"
\"\",\"\",\"approach-retreat\",\"203\",\"1406276\",\"0.0-203.0\",\"\",\"\",\"2-3\",\"4170\",\"40\",\"1\",\"Testing\",\"Stims/Figures/71-J-0-1.bmp\",\"vafa:sha\",\"Up\",\"40\",\"3\",\"7\",\"9\",\"C1\",\"J\",\"55\"
\"\",\"\",\"approach-retreat\",\"204\",\"1411958\",\"0.0-204.0\",\"\",\"\",\"2-3\",\"4145\",\"37\",\"1\",\"Testing\",\"Stims/Figures/87-C-20-4.bmp\",\"vashava\",\"Left\",\"37\",\"3\",\"8\",\"9\",\"C1\",\"J\",\"56\"
\"\",\"\",\"approach-retreat\",\"205\",\"1417708\",\"0.0-205.0\",\"\",\"\",\"2-3\",\"4211\",\"38\",\"1\",\"Testing\",\"Stims/Figures/87-J-10-4.bmp\",\"ta:ka:ta\",\"Down\",\"38\",\"3\",\"9\",\"9\",\"P\",\"J\",\"57\"
\"\",\"\",\"approach-retreat\",\"206\",\"1423833\",\"0.0-206.0\",\"\",\"\",\"2-3\",\"4581\",\"40\",\"1\",\"Testing\",\"Stims/Figures/144-J-10-3.bmp\",\"za:haha\",\"Up\",\"40\",\"3\",\"10\",\"9\",\"C2\",\"J\",\"58\"
\"\",\"\",\"approach-retreat\",\"207\",\"1429510\",\"0.0-207.0\",\"\",\"\",\"2-3\",\"4146\",\"39\",\"1\",\"Testing\",\"Stims/Figures/102-J-10-4.bmp\",\"nalala\",\"Left\",\"39\",\"3\",\"11\",\"9\",\"S\",\"J\",\"59\"
\"\",\"\",\"approach-retreat\",\"208\",\"1437327\",\"0.0-208.0\",\"\",\"\",\"2-3\",\"6279\",\"38\",\"0\",\"Testing\",\"Stims/Figures/128-J-10-3.bmp\",\"mama:na\",\"Up\",\"40\",\"3\",\"12\",\"9\",\"S\",\"J\",\"60\"
\"\",\"\",\"approach-retreat\",\"209\",\"1443083\",\"0.0-209.0\",\"\",\"\",\"2-3\",\"4217\",\"39\",\"1\",\"Testing\",\"Stims/Figures/93-J-0-1.bmp\",\"zahaha\",\"Left\",\"39\",\"3\",\"13\",\"9\",\"C2\",\"J\",\"61\"
\"\",\"\",\"approach-retreat\",\"210\",\"1448899\",\"0.0-210.0\",\"\",\"\",\"2-3\",\"4289\",\"39\",\"1\",\"Testing\",\"Stims/Figures/93-C-30-1.bmp\",\"pa:ka:ta\",\"Right\",\"39\",\"3\",\"14\",\"9\",\"P\",\"J\",\"62\"
\"\",\"\",\"approach-retreat\",\"211\",\"1454647\",\"0.0-211.0\",\"\",\"\",\"2-3\",\"4206\",\"38\",\"1\",\"Testing\",\"Stims/Figures/139-J-0-2.bmp\",\"va:fa:sha\",\"Down\",\"38\",\"3\",\"15\",\"9\",\"C1\",\"J\",\"63\"
\"\",\"\",\"approach-retreat\",\"212\",\"1460860\",\"0.0-212.0\",\"\",\"\",\"2-3\",\"4681\",\"37\",\"1\",\"Testing\",\"Stims/Figures/102-C-20-4.bmp\",\"fa:sha:va\",\"Left\",\"37\",\"3\",\"16\",\"9\",\"C1\",\"J\",\"64\"
\"\",\"\",\"approach-retreat\",\"213\",\"1466620\",\"0.0-213.0\",\"\",\"\",\"2-3\",\"4240\",\"38\",\"1\",\"Testing\",\"Stims/Figures/7-C-20-4.bmp\",\"va:sha:sha\",\"Up\",\"38\",\"3\",\"17\",\"9\",\"C1\",\"J\",\"65\"
\"\",\"\",\"approach-retreat\",\"214\",\"1472567\",\"0.0-214.0\",\"\",\"\",\"2-3\",\"4413\",\"37\",\"1\",\"Testing\",\"Stims/Figures/71-C-30-1.bmp\",\"pakata\",\"Left\",\"37\",\"3\",\"18\",\"9\",\"P\",\"J\",\"66\"
\"\",\"\",\"approach-retreat\",\"215\",\"1478759\",\"0.0-215.0\",\"\",\"\",\"2-3\",\"4663\",\"39\",\"1\",\"Testing\",\"Stims/Figures/139-C-20-2.bmp\",\"fafava\",\"Right\",\"39\",\"3\",\"19\",\"9\",\"C1\",\"J\",\"67\"
\"\",\"\",\"approach-retreat\",\"216\",\"1484526\",\"0.0-216.0\",\"\",\"\",\"2-3\",\"4255\",\"37\",\"1\",\"Testing\",\"Stims/Figures/111-J-10-3.bmp\",\"na:la:na\",\"Right\",\"37\",\"3\",\"20\",\"9\",\"S\",\"J\",\"68\"
\"\",\"\",\"approach-retreat\",\"217\",\"1490220\",\"0.0-217.0\",\"\",\"\",\"2-3\",\"4160\",\"37\",\"1\",\"Testing\",\"Stims/Figures/94-J-0-2.bmp\",\"sa:ha:ha\",\"Right\",\"37\",\"3\",\"21\",\"9\",\"C2\",\"J\",\"69\"
\"\",\"\",\"approach-retreat\",\"218\",\"1496069\",\"0.0-218.0\",\"\",\"\",\"2-3\",\"4316\",\"40\",\"1\",\"Testing\",\"Stims/Figures/57-C-30-1.bmp\",\"papata\",\"Down\",\"40\",\"3\",\"22\",\"9\",\"P\",\"J\",\"70\"
\"\",\"\",\"approach-retreat\",\"219\",\"1502184\",\"0.0-219.0\",\"\",\"\",\"2-3\",\"4581\",\"39\",\"1\",\"Testing\",\"Stims/Figures/144-C-30-3.bmp\",\"fasha:sha\",\"Right\",\"39\",\"3\",\"23\",\"9\",\"C1\",\"J\",\"71\"
\"\",\"\",\"approach-retreat\",\"220\",\"1507923\",\"0.0-220.0\",\"\",\"\",\"2-3\",\"4210\",\"38\",\"1\",\"Testing\",\"Stims/Figures/57-J-0-1.bmp\",\"fasha:va\",\"Down\",\"38\",\"3\",\"24\",\"9\",\"C1\",\"J\",\"72\"
\"\",\"\",\"approach-retreat\",\"221\",\"1513680\",\"0.0-221.0\",\"\",\"\",\"2-3\",\"4225\",\"38\",\"1\",\"Testing\",\"Stims/Figures/93-J-0-1.bmp\",\"zahaha\",\"Down\",\"38\",\"4\",\"1\",\"9\",\"C2\",\"J\",\"73\"
\"\",\"\",\"approach-retreat\",\"222\",\"1519456\",\"0.0-222.0\",\"\",\"\",\"2-3\",\"4232\",\"37\",\"1\",\"Testing\",\"Stims/Figures/128-J-10-3.bmp\",\"mama:na\",\"Right\",\"37\",\"4\",\"2\",\"9\",\"S\",\"J\",\"74\"
\"\",\"\",\"approach-retreat\",\"223\",\"1525163\",\"0.0-223.0\",\"\",\"\",\"2-3\",\"4180\",\"37\",\"1\",\"Testing\",\"Stims/Figures/102-C-20-4.bmp\",\"fa:sha:va\",\"Left\",\"37\",\"4\",\"3\",\"9\",\"C1\",\"J\",\"75\"
\"\",\"\",\"approach-retreat\",\"224\",\"1532536\",\"0.0-224.0\",\"\",\"\",\"2-3\",\"5831\",\"40\",\"0\",\"Testing\",\"Stims/Figures/87-J-10-4.bmp\",\"ta:ka:ta\",\"Down\",\"38\",\"4\",\"4\",\"9\",\"P\",\"J\",\"76\"
\"\",\"\",\"approach-retreat\",\"225\",\"1538295\",\"0.0-225.0\",\"\",\"\",\"2-3\",\"4223\",\"37\",\"1\",\"Testing\",\"Stims/Figures/128-C-30-3.bmp\",\"va:shasha\",\"Left\",\"37\",\"4\",\"5\",\"9\",\"C1\",\"J\",\"77\"
\"\",\"\",\"approach-retreat\",\"226\",\"1544417\",\"0.0-226.0\",\"\",\"\",\"2-3\",\"4590\",\"39\",\"1\",\"Testing\",\"Stims/Figures/144-J-10-3.bmp\",\"za:haha\",\"Left\",\"39\",\"4\",\"6\",\"9\",\"C2\",\"J\",\"78\"
\"\",\"\",\"approach-retreat\",\"227\",\"1550138\",\"0.0-227.0\",\"\",\"\",\"2-3\",\"4190\",\"37\",\"1\",\"Testing\",\"Stims/Figures/94-C-20-2.bmp\",\"mama:la\",\"Left\",\"37\",\"4\",\"7\",\"9\",\"S\",\"J\",\"79\"
\"\",\"\",\"approach-retreat\",\"228\",\"1555906\",\"0.0-228.0\",\"\",\"\",\"2-3\",\"4226\",\"38\",\"1\",\"Testing\",\"Stims/Figures/111-J-10-3.bmp\",\"na:la:na\",\"Down\",\"38\",\"4\",\"8\",\"9\",\"S\",\"J\",\"80\"
\"\",\"\",\"approach-retreat\",\"229\",\"1561567\",\"0.0-229.0\",\"\",\"\",\"2-3\",\"4128\",\"38\",\"1\",\"Testing\",\"Stims/Figures/71-J-0-1.bmp\",\"vafa:sha\",\"Down\",\"38\",\"4\",\"9\",\"9\",\"C1\",\"J\",\"81\"
\"\",\"\",\"approach-retreat\",\"230\",\"1567619\",\"0.0-230.0\",\"\",\"\",\"2-3\",\"4519\",\"38\",\"0\",\"Testing\",\"Stims/Figures/7-J-10-4.bmp\",\"ma:la:la\",\"Up\",\"40\",\"4\",\"10\",\"9\",\"S\",\"J\",\"82\"
\"\",\"\",\"approach-retreat\",\"231\",\"1573428\",\"0.0-231.0\",\"\",\"\",\"2-3\",\"4280\",\"40\",\"1\",\"Testing\",\"Stims/Figures/94-J-0-2.bmp\",\"sa:ha:ha\",\"Up\",\"40\",\"4\",\"11\",\"9\",\"C2\",\"J\",\"83\"
\"\",\"\",\"approach-retreat\",\"232\",\"1579335\",\"0.0-232.0\",\"\",\"\",\"2-3\",\"4372\",\"40\",\"1\",\"Testing\",\"Stims/Figures/71-C-30-1.bmp\",\"pakata\",\"Down\",\"40\",\"4\",\"12\",\"9\",\"P\",\"J\",\"84\"
\"\",\"\",\"approach-retreat\",\"233\",\"1586101\",\"0.0-233.0\",\"\",\"\",\"2-3\",\"5220\",\"40\",\"1\",\"Testing\",\"Stims/Figures/111-C-30-3.bmp\",\"pa:ka:ka\",\"Down\",\"40\",\"4\",\"13\",\"9\",\"P\",\"J\",\"85\"
\"\",\"\",\"approach-retreat\",\"234\",\"1592075\",\"0.0-234.0\",\"\",\"\",\"2-3\",\"4429\",\"39\",\"1\",\"Testing\",\"Stims/Figures/139-J-0-2.bmp\",\"va:fa:sha\",\"Left\",\"39\",\"4\",\"14\",\"9\",\"C1\",\"J\",\"86\"
\"\",\"\",\"approach-retreat\",\"235\",\"1597817\",\"0.0-235.0\",\"\",\"\",\"2-3\",\"4213\",\"39\",\"1\",\"Testing\",\"Stims/Figures/57-C-30-1.bmp\",\"papata\",\"Right\",\"39\",\"4\",\"15\",\"9\",\"P\",\"J\",\"87\"
\"\",\"\",\"approach-retreat\",\"236\",\"1603671\",\"0.0-236.0\",\"\",\"\",\"2-3\",\"4314\",\"37\",\"1\",\"Testing\",\"Stims/Figures/118-J-0-2.bmp\",\"zasaza\",\"Right\",\"37\",\"4\",\"16\",\"9\",\"C2\",\"J\",\"88\"
\"\",\"\",\"approach-retreat\",\"237\",\"1609888\",\"0.0-237.0\",\"\",\"\",\"2-3\",\"4675\",\"40\",\"1\",\"Testing\",\"Stims/Figures/57-J-0-1.bmp\",\"fasha:va\",\"Up\",\"40\",\"4\",\"17\",\"9\",\"C1\",\"J\",\"89\"
\"\",\"\",\"approach-retreat\",\"238\",\"1615753\",\"0.0-238.0\",\"\",\"\",\"2-3\",\"4326\",\"39\",\"1\",\"Testing\",\"Stims/Figures/118-C-20-2.bmp\",\"zaha:za\",\"Right\",\"39\",\"4\",\"18\",\"9\",\"C2\",\"J\",\"90\"
\"\",\"\",\"approach-retreat\",\"239\",\"1621585\",\"0.0-239.0\",\"\",\"\",\"2-3\",\"4297\",\"38\",\"1\",\"Testing\",\"Stims/Figures/87-C-20-4.bmp\",\"vashava\",\"Up\",\"38\",\"4\",\"19\",\"9\",\"C1\",\"J\",\"91\"
\"\",\"\",\"approach-retreat\",\"240\",\"1627568\",\"0.0-240.0\",\"\",\"\",\"2-3\",\"4456\",\"40\",\"1\",\"Testing\",\"Stims/Figures/102-J-10-4.bmp\",\"nalala\",\"Up\",\"40\",\"4\",\"20\",\"9\",\"S\",\"J\",\"92\"
\"\",\"\",\"approach-retreat\",\"241\",\"1633356\",\"0.0-241.0\",\"\",\"\",\"2-3\",\"4255\",\"37\",\"1\",\"Testing\",\"Stims/Figures/139-C-20-2.bmp\",\"fafava\",\"Left\",\"37\",\"4\",\"21\",\"9\",\"C1\",\"J\",\"93\"
\"\",\"\",\"approach-retreat\",\"242\",\"1639361\",\"0.0-242.0\",\"\",\"\",\"2-3\",\"4465\",\"39\",\"1\",\"Testing\",\"Stims/Figures/93-C-30-1.bmp\",\"pa:ka:ta\",\"Right\",\"39\",\"4\",\"22\",\"9\",\"P\",\"J\",\"94\"
\"\",\"\",\"approach-retreat\",\"243\",\"1645259\",\"0.0-243.0\",\"\",\"\",\"2-3\",\"4366\",\"39\",\"1\",\"Testing\",\"Stims/Figures/7-C-20-4.bmp\",\"va:sha:sha\",\"Right\",\"39\",\"4\",\"23\",\"9\",\"C1\",\"J\",\"95\"
\"\",\"\",\"approach-retreat\",\"244\",\"1651061\",\"0.0-244.0\",\"\",\"\",\"2-3\",\"4266\",\"38\",\"1\",\"Testing\",\"Stims/Figures/144-C-30-3.bmp\",\"fasha:sha\",\"Up\",\"38\",\"4\",\"24\",\"9\",\"C1\",\"J\",\"96\"
\"34280\",\"\",\"survey-text\",\"245\",\"1685361\",\"0.0-245.0\",\"\",\"{\"\"Q0\"\":\"\"PS160083\"\"}\",\"\",\"\",\"\",\"\",\"\",\"\",\"\",\"\",\"\",\"\",\"\",\"\",\"\",\"\",\"\"
