\"rt\",\"key_press\",\"trial_type\",\"trial_index\",\"time_elapsed\",\"internal_node_id\",\"view_history\",\"responses\",\"Id\",\"Rt\",\"ResKeyCode\",\"ResCorr\",\"TrialType2\",\"Image\",\"Label\",\"Location\",\"CorrectResponse\",\"Block\",\"BlockTrial\",\"Condition\",\"LabelType\",\"Subcondition\",\"trialNum\"
\"30210\",\"32\",\"text\",\"0\",\"30215\",\"0.0-0.0-0.0\",\"\",\"\",\"\",\"\",\"\",\"\",\"\",\"\",\"\",\"\",\"\",\"\",\"\",\"\",\"\",\"\",\"\"
\"92156\",\"\",\"instructions\",\"1\",\"122374\",\"0.0-1.0\",\"[{\"\"page_index\"\":0,\"\"viewing_time\"\":92154}]\",\"\",\"\",\"\",\"\",\"\",\"\",\"\",\"\",\"\",\"\",\"\",\"\",\"\",\"\",\"\",\"\"
\"28792\",\"\",\"survey-multi-choice\",\"2\",\"151203\",\"0.0-2.0\",\"\",\"{\"\"Q0\"\":\"\"Da\"\",\"\"Q1\"\":\"\"Da\"\",\"\"Q2\"\":\"\"Da\"\",\"\"Q3\"\":\"\"Da\"\",\"\"Q4\"\":\"\"Da\"\",\"\"Q5\"\":\"\"Da\"\"}\",\"\",\"\",\"\",\"\",\"\",\"\",\"\",\"\",\"\",\"\",\"\",\"\",\"\",\"\",\"\"
\"\",\"\",\"bio\",\"3\",\"159668\",\"0.0-3.0\",\"\",\"{\"\"age\"\":\"\"19\"\",\"\"gender\"\":\"\"f\"\",\"\"specify\"\":\"\"\"\"}\",\"\",\"\",\"\",\"\",\"\",\"\",\"\",\"\",\"\",\"\",\"\",\"\",\"\",\"\",\"\"
\"\",\"\",\"approach-retreat\",\"4\",\"170241\",\"0.0-4.0\",\"\",\"\",\"2-5\",\"9060\",\"39\",\"0\",\"Training\",\"Stims/Figures/102-J-10-4.bmp\",\"nalana\",\"Left\",\"37\",\"1\",\"1\",\"5\",\"S\",\"C\",\"1\"
\"\",\"\",\"approach-retreat\",\"5\",\"179593\",\"0.0-5.0\",\"\",\"\",\"2-5\",\"7842\",\"40\",\"0\",\"Training\",\"Stims/Figures/85-C-20-2.bmp\",\"tapa:ta\",\"Down\",\"38\",\"1\",\"2\",\"5\",\"P\",\"C\",\"2\"
\"\",\"\",\"approach-retreat\",\"6\",\"186807\",\"0.0-6.0\",\"\",\"\",\"2-5\",\"5705\",\"39\",\"1\",\"Training\",\"Stims/Figures/44-C-30-3.bmp\",\"pa:pa:ka\",\"Left\",\"39\",\"1\",\"3\",\"5\",\"P\",\"C\",\"3\"
\"\",\"\",\"approach-retreat\",\"7\",\"193919\",\"0.0-7.0\",\"\",\"\",\"2-5\",\"5603\",\"38\",\"1\",\"Training\",\"Stims/Figures/74-C-20-4.bmp\",\"ta:kata\",\"Down\",\"38\",\"1\",\"4\",\"5\",\"P\",\"C\",\"4\"
\"\",\"\",\"approach-retreat\",\"8\",\"201046\",\"0.0-8.0\",\"\",\"\",\"2-5\",\"5620\",\"40\",\"1\",\"Training\",\"Stims/Figures/111-C-30-3.bmp\",\"papata\",\"Up\",\"40\",\"1\",\"5\",\"5\",\"P\",\"C\",\"5\"
\"\",\"\",\"approach-retreat\",\"9\",\"207783\",\"0.0-9.0\",\"\",\"\",\"2-5\",\"5228\",\"40\",\"1\",\"Training\",\"Stims/Figures/93-J-0-1.bmp\",\"na:mana\",\"Down\",\"40\",\"1\",\"6\",\"5\",\"S\",\"C\",\"6\"
\"\",\"\",\"approach-retreat\",\"10\",\"214639\",\"0.0-10.0\",\"\",\"\",\"2-5\",\"5348\",\"39\",\"0\",\"Training\",\"Stims/Figures/71-C-30-1.bmp\",\"tapa:ka\",\"Right\",\"37\",\"1\",\"7\",\"5\",\"P\",\"C\",\"7\"
\"\",\"\",\"approach-retreat\",\"11\",\"221463\",\"0.0-11.0\",\"\",\"\",\"2-5\",\"5316\",\"37\",\"1\",\"Training\",\"Stims/Figures/93-C-30-1.bmp\",\"taka:ka\",\"Right\",\"37\",\"1\",\"8\",\"5\",\"P\",\"C\",\"8\"
\"\",\"\",\"approach-retreat\",\"12\",\"227839\",\"0.0-12.0\",\"\",\"\",\"2-5\",\"4866\",\"39\",\"1\",\"Training\",\"Stims/Figures/44-J-10-3.bmp\",\"mama:na\",\"Right\",\"39\",\"1\",\"9\",\"5\",\"S\",\"C\",\"9\"
\"\",\"\",\"approach-retreat\",\"13\",\"237527\",\"0.0-13.0\",\"\",\"\",\"2-5\",\"8180\",\"38\",\"0\",\"Training\",\"Stims/Figures/74-J-10-4.bmp\",\"nalala\",\"Down\",\"40\",\"1\",\"10\",\"5\",\"S\",\"C\",\"10\"
\"\",\"\",\"approach-retreat\",\"14\",\"244015\",\"0.0-14.0\",\"\",\"\",\"2-5\",\"4979\",\"38\",\"0\",\"Training\",\"Stims/Figures/118-C-20-2.bmp\",\"pa:ka:ka\",\"Up\",\"40\",\"1\",\"11\",\"5\",\"P\",\"C\",\"11\"
\"\",\"\",\"approach-retreat\",\"15\",\"252776\",\"0.0-15.0\",\"\",\"\",\"2-5\",\"7254\",\"37\",\"0\",\"Training\",\"Stims/Figures/85-J-0-2.bmp\",\"nala:na\",\"Right\",\"39\",\"1\",\"12\",\"5\",\"S\",\"C\",\"12\"
\"\",\"\",\"approach-retreat\",\"16\",\"259007\",\"0.0-16.0\",\"\",\"\",\"2-5\",\"4723\",\"38\",\"0\",\"Training\",\"Stims/Figures/102-C-20-4.bmp\",\"tapata\",\"Up\",\"40\",\"1\",\"13\",\"5\",\"P\",\"C\",\"13\"
\"\",\"\",\"approach-retreat\",\"17\",\"264960\",\"0.0-17.0\",\"\",\"\",\"2-5\",\"4445\",\"39\",\"0\",\"Training\",\"Stims/Figures/111-J-10-3.bmp\",\"na:la:la\",\"Left\",\"37\",\"1\",\"14\",\"5\",\"S\",\"C\",\"14\"
\"\",\"\",\"approach-retreat\",\"18\",\"271119\",\"0.0-18.0\",\"\",\"\",\"2-5\",\"4652\",\"40\",\"0\",\"Training\",\"Stims/Figures/71-J-0-1.bmp\",\"ma:lana\",\"Up\",\"38\",\"1\",\"15\",\"5\",\"S\",\"C\",\"15\"
\"\",\"\",\"approach-retreat\",\"19\",\"278743\",\"0.0-19.0\",\"\",\"\",\"2-5\",\"6116\",\"39\",\"0\",\"Training\",\"Stims/Figures/118-J-0-2.bmp\",\"ma:mana\",\"Left\",\"37\",\"1\",\"16\",\"5\",\"S\",\"C\",\"16\"
\"\",\"\",\"approach-retreat\",\"20\",\"285046\",\"0.0-20.0\",\"\",\"\",\"2-5\",\"4795\",\"39\",\"1\",\"Training\",\"Stims/Figures/102-J-10-4.bmp\",\"nalana\",\"Right\",\"39\",\"2\",\"1\",\"5\",\"S\",\"C\",\"17\"
\"\",\"\",\"approach-retreat\",\"21\",\"291272\",\"0.0-21.0\",\"\",\"\",\"2-5\",\"4717\",\"39\",\"1\",\"Training\",\"Stims/Figures/71-C-30-1.bmp\",\"tapa:ka\",\"Left\",\"39\",\"2\",\"2\",\"5\",\"P\",\"C\",\"18\"
\"\",\"\",\"approach-retreat\",\"22\",\"297504\",\"0.0-22.0\",\"\",\"\",\"2-5\",\"4723\",\"37\",\"1\",\"Training\",\"Stims/Figures/118-J-0-2.bmp\",\"ma:mana\",\"Left\",\"37\",\"2\",\"3\",\"5\",\"S\",\"C\",\"19\"
\"\",\"\",\"approach-retreat\",\"23\",\"303440\",\"0.0-23.0\",\"\",\"\",\"2-5\",\"4427\",\"37\",\"0\",\"Training\",\"Stims/Figures/74-C-20-4.bmp\",\"ta:kata\",\"Left\",\"39\",\"2\",\"4\",\"5\",\"P\",\"C\",\"20\"
\"\",\"\",\"approach-retreat\",\"24\",\"310279\",\"0.0-24.0\",\"\",\"\",\"2-5\",\"5332\",\"37\",\"1\",\"Training\",\"Stims/Figures/71-J-0-1.bmp\",\"ma:lana\",\"Left\",\"37\",\"2\",\"5\",\"5\",\"S\",\"C\",\"21\"
\"\",\"\",\"approach-retreat\",\"25\",\"317752\",\"0.0-25.0\",\"\",\"\",\"2-5\",\"5964\",\"38\",\"0\",\"Training\",\"Stims/Figures/93-C-30-1.bmp\",\"taka:ka\",\"Up\",\"40\",\"2\",\"6\",\"5\",\"P\",\"C\",\"22\"
\"\",\"\",\"approach-retreat\",\"26\",\"324632\",\"0.0-26.0\",\"\",\"\",\"2-5\",\"5372\",\"40\",\"0\",\"Training\",\"Stims/Figures/44-J-10-3.bmp\",\"mama:na\",\"Up\",\"38\",\"2\",\"7\",\"5\",\"S\",\"C\",\"23\"
\"\",\"\",\"approach-retreat\",\"27\",\"331000\",\"0.0-27.0\",\"\",\"\",\"2-5\",\"4859\",\"37\",\"1\",\"Training\",\"Stims/Figures/85-C-20-2.bmp\",\"tapa:ta\",\"Right\",\"37\",\"2\",\"8\",\"5\",\"P\",\"C\",\"24\"
\"\",\"\",\"approach-retreat\",\"28\",\"336934\",\"0.0-28.0\",\"\",\"\",\"2-5\",\"4427\",\"39\",\"1\",\"Training\",\"Stims/Figures/93-J-0-1.bmp\",\"na:mana\",\"Right\",\"39\",\"2\",\"9\",\"5\",\"S\",\"C\",\"25\"
\"\",\"\",\"approach-retreat\",\"29\",\"343759\",\"0.0-29.0\",\"\",\"\",\"2-5\",\"5316\",\"38\",\"1\",\"Training\",\"Stims/Figures/118-C-20-2.bmp\",\"pa:ka:ka\",\"Down\",\"38\",\"2\",\"10\",\"5\",\"P\",\"C\",\"26\"
\"\",\"\",\"approach-retreat\",\"30\",\"350391\",\"0.0-30.0\",\"\",\"\",\"2-5\",\"5123\",\"40\",\"1\",\"Training\",\"Stims/Figures/111-J-10-3.bmp\",\"na:la:la\",\"Down\",\"40\",\"2\",\"11\",\"5\",\"S\",\"C\",\"27\"
\"\",\"\",\"approach-retreat\",\"31\",\"357352\",\"0.0-31.0\",\"\",\"\",\"2-5\",\"5452\",\"38\",\"1\",\"Training\",\"Stims/Figures/74-J-10-4.bmp\",\"nalala\",\"Up\",\"38\",\"2\",\"12\",\"5\",\"S\",\"C\",\"28\"
\"\",\"\",\"approach-retreat\",\"32\",\"365903\",\"0.0-32.0\",\"\",\"\",\"2-5\",\"7043\",\"39\",\"1\",\"Training\",\"Stims/Figures/85-J-0-2.bmp\",\"nala:na\",\"Right\",\"39\",\"2\",\"13\",\"5\",\"S\",\"C\",\"29\"
\"\",\"\",\"approach-retreat\",\"33\",\"372592\",\"0.0-33.0\",\"\",\"\",\"2-5\",\"5181\",\"38\",\"1\",\"Training\",\"Stims/Figures/102-C-20-4.bmp\",\"tapata\",\"Down\",\"38\",\"2\",\"14\",\"5\",\"P\",\"C\",\"30\"
\"\",\"\",\"approach-retreat\",\"34\",\"379775\",\"0.0-34.0\",\"\",\"\",\"2-5\",\"5675\",\"40\",\"1\",\"Training\",\"Stims/Figures/111-C-30-3.bmp\",\"papata\",\"Up\",\"40\",\"2\",\"15\",\"5\",\"P\",\"C\",\"31\"
\"\",\"\",\"approach-retreat\",\"35\",\"386080\",\"0.0-35.0\",\"\",\"\",\"2-5\",\"4796\",\"40\",\"0\",\"Training\",\"Stims/Figures/44-C-30-3.bmp\",\"pa:pa:ka\",\"Down\",\"38\",\"2\",\"16\",\"5\",\"P\",\"C\",\"32\"
\"\",\"\",\"approach-retreat\",\"36\",\"392232\",\"0.0-36.0\",\"\",\"\",\"2-5\",\"4644\",\"39\",\"0\",\"Training\",\"Stims/Figures/118-C-20-2.bmp\",\"pa:ka:ka\",\"Right\",\"37\",\"3\",\"1\",\"5\",\"P\",\"C\",\"33\"
\"\",\"\",\"approach-retreat\",\"37\",\"398976\",\"0.0-37.0\",\"\",\"\",\"2-5\",\"5236\",\"37\",\"1\",\"Training\",\"Stims/Figures/44-C-30-3.bmp\",\"pa:pa:ka\",\"Right\",\"37\",\"3\",\"2\",\"5\",\"P\",\"C\",\"34\"
\"\",\"\",\"approach-retreat\",\"38\",\"405200\",\"0.0-38.0\",\"\",\"\",\"2-5\",\"4716\",\"37\",\"0\",\"Training\",\"Stims/Figures/71-C-30-1.bmp\",\"tapa:ka\",\"Left\",\"39\",\"3\",\"3\",\"5\",\"P\",\"C\",\"35\"
\"\",\"\",\"approach-retreat\",\"39\",\"413680\",\"0.0-39.0\",\"\",\"\",\"2-5\",\"6971\",\"39\",\"1\",\"Training\",\"Stims/Figures/85-C-20-2.bmp\",\"tapa:ta\",\"Left\",\"39\",\"3\",\"4\",\"5\",\"P\",\"C\",\"36\"
\"\",\"\",\"approach-retreat\",\"40\",\"421208\",\"0.0-40.0\",\"\",\"\",\"2-5\",\"6020\",\"38\",\"0\",\"Training\",\"Stims/Figures/74-J-10-4.bmp\",\"nalala\",\"Down\",\"40\",\"3\",\"5\",\"5\",\"S\",\"C\",\"37\"
\"\",\"\",\"approach-retreat\",\"41\",\"427303\",\"0.0-41.0\",\"\",\"\",\"2-5\",\"4588\",\"40\",\"1\",\"Training\",\"Stims/Figures/71-J-0-1.bmp\",\"ma:lana\",\"Down\",\"40\",\"3\",\"6\",\"5\",\"S\",\"C\",\"38\"
\"\",\"\",\"approach-retreat\",\"42\",\"436592\",\"0.0-42.0\",\"\",\"\",\"2-5\",\"7780\",\"38\",\"0\",\"Training\",\"Stims/Figures/111-C-30-3.bmp\",\"papata\",\"Up\",\"40\",\"3\",\"7\",\"5\",\"P\",\"C\",\"39\"
\"\",\"\",\"approach-retreat\",\"43\",\"442728\",\"0.0-43.0\",\"\",\"\",\"2-5\",\"4629\",\"37\",\"0\",\"Training\",\"Stims/Figures/93-J-0-1.bmp\",\"na:mana\",\"Right\",\"39\",\"3\",\"8\",\"5\",\"S\",\"C\",\"40\"
\"\",\"\",\"approach-retreat\",\"44\",\"448831\",\"0.0-44.0\",\"\",\"\",\"2-5\",\"4595\",\"37\",\"1\",\"Training\",\"Stims/Figures/102-J-10-4.bmp\",\"nalana\",\"Left\",\"37\",\"3\",\"9\",\"5\",\"S\",\"C\",\"41\"
\"\",\"\",\"approach-retreat\",\"45\",\"454863\",\"0.0-45.0\",\"\",\"\",\"2-5\",\"4524\",\"39\",\"0\",\"Training\",\"Stims/Figures/111-J-10-3.bmp\",\"na:la:la\",\"Left\",\"37\",\"3\",\"10\",\"5\",\"S\",\"C\",\"42\"
\"\",\"\",\"approach-retreat\",\"46\",\"462486\",\"0.0-46.0\",\"\",\"\",\"2-5\",\"6116\",\"40\",\"1\",\"Training\",\"Stims/Figures/85-J-0-2.bmp\",\"nala:na\",\"Down\",\"40\",\"3\",\"11\",\"5\",\"S\",\"C\",\"43\"
\"\",\"\",\"approach-retreat\",\"47\",\"469054\",\"0.0-47.0\",\"\",\"\",\"2-5\",\"5061\",\"38\",\"0\",\"Training\",\"Stims/Figures/102-C-20-4.bmp\",\"tapata\",\"Up\",\"40\",\"3\",\"12\",\"5\",\"P\",\"C\",\"44\"
\"\",\"\",\"approach-retreat\",\"48\",\"475447\",\"0.0-48.0\",\"\",\"\",\"2-5\",\"4884\",\"38\",\"1\",\"Training\",\"Stims/Figures/44-J-10-3.bmp\",\"mama:na\",\"Up\",\"38\",\"3\",\"13\",\"5\",\"S\",\"C\",\"45\"
\"\",\"\",\"approach-retreat\",\"49\",\"481695\",\"0.0-49.0\",\"\",\"\",\"2-5\",\"4740\",\"37\",\"1\",\"Training\",\"Stims/Figures/93-C-30-1.bmp\",\"taka:ka\",\"Right\",\"37\",\"3\",\"14\",\"5\",\"P\",\"C\",\"46\"
\"\",\"\",\"approach-retreat\",\"50\",\"488071\",\"0.0-50.0\",\"\",\"\",\"2-5\",\"4869\",\"38\",\"0\",\"Training\",\"Stims/Figures/74-C-20-4.bmp\",\"ta:kata\",\"Up\",\"40\",\"3\",\"15\",\"5\",\"P\",\"C\",\"47\"
\"\",\"\",\"approach-retreat\",\"51\",\"494952\",\"0.0-51.0\",\"\",\"\",\"2-5\",\"5373\",\"40\",\"1\",\"Training\",\"Stims/Figures/118-J-0-2.bmp\",\"ma:mana\",\"Down\",\"40\",\"3\",\"16\",\"5\",\"S\",\"C\",\"48\"
\"\",\"\",\"approach-retreat\",\"52\",\"501927\",\"0.0-52.0\",\"\",\"\",\"2-5\",\"5467\",\"38\",\"1\",\"Training\",\"Stims/Figures/85-C-20-2.bmp\",\"tapa:ta\",\"Down\",\"38\",\"4\",\"1\",\"5\",\"P\",\"C\",\"49\"
\"\",\"\",\"approach-retreat\",\"53\",\"509207\",\"0.0-53.0\",\"\",\"\",\"2-5\",\"5773\",\"37\",\"1\",\"Training\",\"Stims/Figures/85-J-0-2.bmp\",\"nala:na\",\"Left\",\"37\",\"4\",\"2\",\"5\",\"S\",\"C\",\"50\"
\"\",\"\",\"approach-retreat\",\"54\",\"515751\",\"0.0-54.0\",\"\",\"\",\"2-5\",\"5037\",\"40\",\"1\",\"Training\",\"Stims/Figures/118-C-20-2.bmp\",\"pa:ka:ka\",\"Up\",\"40\",\"4\",\"3\",\"5\",\"P\",\"C\",\"51\"
\"\",\"\",\"approach-retreat\",\"55\",\"521479\",\"0.0-55.0\",\"\",\"\",\"2-5\",\"4220\",\"37\",\"1\",\"Training\",\"Stims/Figures/44-C-30-3.bmp\",\"pa:pa:ka\",\"Right\",\"37\",\"4\",\"4\",\"5\",\"P\",\"C\",\"52\"
\"\",\"\",\"approach-retreat\",\"56\",\"528991\",\"0.0-56.0\",\"\",\"\",\"2-5\",\"6004\",\"40\",\"1\",\"Training\",\"Stims/Figures/93-C-30-1.bmp\",\"taka:ka\",\"Up\",\"40\",\"4\",\"5\",\"5\",\"P\",\"C\",\"53\"
\"\",\"\",\"approach-retreat\",\"57\",\"538640\",\"0.0-57.0\",\"\",\"\",\"2-5\",\"8138\",\"37\",\"0\",\"Training\",\"Stims/Figures/71-C-30-1.bmp\",\"tapa:ka\",\"Left\",\"39\",\"4\",\"6\",\"5\",\"P\",\"C\",\"54\"
\"\",\"\",\"approach-retreat\",\"58\",\"545839\",\"0.0-58.0\",\"\",\"\",\"2-5\",\"5691\",\"37\",\"1\",\"Training\",\"Stims/Figures/93-J-0-1.bmp\",\"na:mana\",\"Left\",\"37\",\"4\",\"7\",\"5\",\"S\",\"C\",\"55\"
\"\",\"\",\"approach-retreat\",\"59\",\"552704\",\"0.0-59.0\",\"\",\"\",\"2-5\",\"5356\",\"37\",\"1\",\"Training\",\"Stims/Figures/74-C-20-4.bmp\",\"ta:kata\",\"Right\",\"37\",\"4\",\"8\",\"5\",\"P\",\"C\",\"56\"
\"\",\"\",\"approach-retreat\",\"60\",\"559367\",\"0.0-60.0\",\"\",\"\",\"2-5\",\"5155\",\"40\",\"1\",\"Training\",\"Stims/Figures/111-J-10-3.bmp\",\"na:la:la\",\"Down\",\"40\",\"4\",\"9\",\"5\",\"S\",\"C\",\"57\"
\"\",\"\",\"approach-retreat\",\"61\",\"568615\",\"0.0-61.0\",\"\",\"\",\"2-5\",\"7740\",\"40\",\"0\",\"Training\",\"Stims/Figures/118-J-0-2.bmp\",\"ma:mana\",\"Up\",\"38\",\"4\",\"10\",\"5\",\"S\",\"C\",\"58\"
\"\",\"\",\"approach-retreat\",\"62\",\"575647\",\"0.0-62.0\",\"\",\"\",\"2-5\",\"5523\",\"40\",\"0\",\"Training\",\"Stims/Figures/74-J-10-4.bmp\",\"nalala\",\"Up\",\"38\",\"4\",\"11\",\"5\",\"S\",\"C\",\"59\"
\"\",\"\",\"approach-retreat\",\"63\",\"582488\",\"0.0-63.0\",\"\",\"\",\"2-5\",\"5333\",\"40\",\"0\",\"Training\",\"Stims/Figures/111-C-30-3.bmp\",\"papata\",\"Down\",\"38\",\"4\",\"12\",\"5\",\"P\",\"C\",\"60\"
\"\",\"\",\"approach-retreat\",\"64\",\"590831\",\"0.0-64.0\",\"\",\"\",\"2-5\",\"6835\",\"39\",\"1\",\"Training\",\"Stims/Figures/71-J-0-1.bmp\",\"ma:lana\",\"Right\",\"39\",\"4\",\"13\",\"5\",\"S\",\"C\",\"61\"
\"\",\"\",\"approach-retreat\",\"65\",\"596696\",\"0.0-65.0\",\"\",\"\",\"2-5\",\"4358\",\"37\",\"1\",\"Training\",\"Stims/Figures/44-J-10-3.bmp\",\"mama:na\",\"Left\",\"37\",\"4\",\"14\",\"5\",\"S\",\"C\",\"62\"
\"\",\"\",\"approach-retreat\",\"66\",\"603854\",\"0.0-66.0\",\"\",\"\",\"2-5\",\"5650\",\"38\",\"1\",\"Training\",\"Stims/Figures/102-C-20-4.bmp\",\"tapata\",\"Down\",\"38\",\"4\",\"15\",\"5\",\"P\",\"C\",\"63\"
\"\",\"\",\"approach-retreat\",\"67\",\"610440\",\"0.0-67.0\",\"\",\"\",\"2-5\",\"5078\",\"37\",\"0\",\"Training\",\"Stims/Figures/102-J-10-4.bmp\",\"nalana\",\"Right\",\"39\",\"4\",\"16\",\"5\",\"S\",\"C\",\"64\"
\"\",\"\",\"approach-retreat\",\"68\",\"617079\",\"0.0-68.0\",\"\",\"\",\"2-5\",\"5131\",\"39\",\"0\",\"Training\",\"Stims/Figures/111-J-10-3.bmp\",\"na:la:la\",\"Left\",\"37\",\"5\",\"1\",\"5\",\"S\",\"C\",\"65\"
\"\",\"\",\"approach-retreat\",\"69\",\"623560\",\"0.0-69.0\",\"\",\"\",\"2-5\",\"4972\",\"37\",\"1\",\"Training\",\"Stims/Figures/71-C-30-1.bmp\",\"tapa:ka\",\"Right\",\"37\",\"5\",\"2\",\"5\",\"P\",\"C\",\"66\"
\"\",\"\",\"approach-retreat\",\"70\",\"631599\",\"0.0-70.0\",\"\",\"\",\"2-5\",\"6530\",\"40\",\"0\",\"Training\",\"Stims/Figures/74-J-10-4.bmp\",\"nalala\",\"Up\",\"38\",\"5\",\"3\",\"5\",\"S\",\"C\",\"67\"
\"\",\"\",\"approach-retreat\",\"71\",\"641815\",\"0.0-71.0\",\"\",\"\",\"2-5\",\"8707\",\"40\",\"1\",\"Training\",\"Stims/Figures/71-J-0-1.bmp\",\"ma:lana\",\"Down\",\"40\",\"5\",\"4\",\"5\",\"S\",\"C\",\"68\"
\"\",\"\",\"approach-retreat\",\"72\",\"649527\",\"0.0-72.0\",\"\",\"\",\"2-5\",\"6203\",\"38\",\"1\",\"Training\",\"Stims/Figures/93-J-0-1.bmp\",\"na:mana\",\"Up\",\"38\",\"5\",\"5\",\"5\",\"S\",\"C\",\"69\"
\"\",\"\",\"approach-retreat\",\"73\",\"657207\",\"0.0-73.0\",\"\",\"\",\"2-5\",\"6171\",\"37\",\"1\",\"Training\",\"Stims/Figures/102-J-10-4.bmp\",\"nalana\",\"Left\",\"37\",\"5\",\"6\",\"5\",\"S\",\"C\",\"70\"
\"\",\"\",\"approach-retreat\",\"74\",\"663767\",\"0.0-74.0\",\"\",\"\",\"2-5\",\"5051\",\"40\",\"1\",\"Training\",\"Stims/Figures/85-J-0-2.bmp\",\"nala:na\",\"Down\",\"40\",\"5\",\"7\",\"5\",\"S\",\"C\",\"71\"
\"\",\"\",\"approach-retreat\",\"75\",\"670624\",\"0.0-75.0\",\"\",\"\",\"2-5\",\"5350\",\"38\",\"1\",\"Training\",\"Stims/Figures/85-C-20-2.bmp\",\"tapa:ta\",\"Down\",\"38\",\"5\",\"8\",\"5\",\"P\",\"C\",\"72\"
\"\",\"\",\"approach-retreat\",\"76\",\"676823\",\"0.0-76.0\",\"\",\"\",\"2-5\",\"4692\",\"39\",\"1\",\"Training\",\"Stims/Figures/74-C-20-4.bmp\",\"ta:kata\",\"Left\",\"39\",\"5\",\"9\",\"5\",\"P\",\"C\",\"73\"
\"\",\"\",\"approach-retreat\",\"77\",\"683640\",\"0.0-77.0\",\"\",\"\",\"2-5\",\"5308\",\"38\",\"1\",\"Training\",\"Stims/Figures/118-J-0-2.bmp\",\"ma:mana\",\"Up\",\"38\",\"5\",\"10\",\"5\",\"S\",\"C\",\"74\"
\"\",\"\",\"approach-retreat\",\"78\",\"690480\",\"0.0-78.0\",\"\",\"\",\"2-5\",\"5330\",\"40\",\"1\",\"Training\",\"Stims/Figures/93-C-30-1.bmp\",\"taka:ka\",\"Up\",\"40\",\"5\",\"11\",\"5\",\"P\",\"C\",\"75\"
\"\",\"\",\"approach-retreat\",\"79\",\"696400\",\"0.0-79.0\",\"\",\"\",\"2-5\",\"4412\",\"37\",\"1\",\"Training\",\"Stims/Figures/44-C-30-3.bmp\",\"pa:pa:ka\",\"Right\",\"37\",\"5\",\"12\",\"5\",\"P\",\"C\",\"76\"
\"\",\"\",\"approach-retreat\",\"80\",\"703183\",\"0.0-80.0\",\"\",\"\",\"2-5\",\"5274\",\"37\",\"1\",\"Training\",\"Stims/Figures/118-C-20-2.bmp\",\"pa:ka:ka\",\"Right\",\"37\",\"5\",\"13\",\"5\",\"P\",\"C\",\"77\"
\"\",\"\",\"approach-retreat\",\"81\",\"709304\",\"0.0-81.0\",\"\",\"\",\"2-5\",\"4612\",\"39\",\"1\",\"Training\",\"Stims/Figures/111-C-30-3.bmp\",\"papata\",\"Left\",\"39\",\"5\",\"14\",\"5\",\"P\",\"C\",\"78\"
\"\",\"\",\"approach-retreat\",\"82\",\"717648\",\"0.0-82.0\",\"\",\"\",\"2-5\",\"6836\",\"38\",\"1\",\"Training\",\"Stims/Figures/102-C-20-4.bmp\",\"tapata\",\"Down\",\"38\",\"5\",\"15\",\"5\",\"P\",\"C\",\"79\"
\"\",\"\",\"approach-retreat\",\"83\",\"725288\",\"0.0-83.0\",\"\",\"\",\"2-5\",\"6132\",\"39\",\"1\",\"Training\",\"Stims/Figures/44-J-10-3.bmp\",\"mama:na\",\"Right\",\"39\",\"5\",\"16\",\"5\",\"S\",\"C\",\"80\"
\"\",\"\",\"approach-retreat\",\"84\",\"731512\",\"0.0-84.0\",\"\",\"\",\"2-5\",\"4715\",\"37\",\"1\",\"Training\",\"Stims/Figures/44-J-10-3.bmp\",\"mama:na\",\"Left\",\"37\",\"6\",\"1\",\"5\",\"S\",\"C\",\"81\"
\"\",\"\",\"approach-retreat\",\"85\",\"737815\",\"0.0-85.0\",\"\",\"\",\"2-5\",\"4796\",\"37\",\"1\",\"Training\",\"Stims/Figures/93-C-30-1.bmp\",\"taka:ka\",\"Right\",\"37\",\"6\",\"2\",\"5\",\"P\",\"C\",\"82\"
\"\",\"\",\"approach-retreat\",\"86\",\"744335\",\"0.0-86.0\",\"\",\"\",\"2-5\",\"5011\",\"38\",\"1\",\"Training\",\"Stims/Figures/118-J-0-2.bmp\",\"ma:mana\",\"Up\",\"38\",\"6\",\"3\",\"5\",\"S\",\"C\",\"83\"
\"\",\"\",\"approach-retreat\",\"87\",\"750768\",\"0.0-87.0\",\"\",\"\",\"2-5\",\"4924\",\"40\",\"1\",\"Training\",\"Stims/Figures/85-J-0-2.bmp\",\"nala:na\",\"Down\",\"40\",\"6\",\"4\",\"5\",\"S\",\"C\",\"84\"
\"\",\"\",\"approach-retreat\",\"88\",\"757575\",\"0.0-88.0\",\"\",\"\",\"2-5\",\"5299\",\"39\",\"1\",\"Training\",\"Stims/Figures/71-J-0-1.bmp\",\"ma:lana\",\"Right\",\"39\",\"6\",\"5\",\"5\",\"S\",\"C\",\"85\"
\"\",\"\",\"approach-retreat\",\"89\",\"764256\",\"0.0-89.0\",\"\",\"\",\"2-5\",\"5173\",\"39\",\"1\",\"Training\",\"Stims/Figures/71-C-30-1.bmp\",\"tapa:ka\",\"Left\",\"39\",\"6\",\"6\",\"5\",\"P\",\"C\",\"86\"
\"\",\"\",\"approach-retreat\",\"90\",\"770727\",\"0.0-90.0\",\"\",\"\",\"2-5\",\"4963\",\"40\",\"1\",\"Training\",\"Stims/Figures/102-C-20-4.bmp\",\"tapata\",\"Up\",\"40\",\"6\",\"7\",\"5\",\"P\",\"C\",\"87\"
\"\",\"\",\"approach-retreat\",\"91\",\"777448\",\"0.0-91.0\",\"\",\"\",\"2-5\",\"5212\",\"38\",\"1\",\"Training\",\"Stims/Figures/44-C-30-3.bmp\",\"pa:pa:ka\",\"Down\",\"38\",\"6\",\"8\",\"5\",\"P\",\"C\",\"88\"
\"\",\"\",\"approach-retreat\",\"92\",\"783071\",\"0.0-92.0\",\"\",\"\",\"2-5\",\"4115\",\"37\",\"1\",\"Training\",\"Stims/Figures/74-C-20-4.bmp\",\"ta:kata\",\"Right\",\"37\",\"6\",\"9\",\"5\",\"P\",\"C\",\"89\"
\"\",\"\",\"approach-retreat\",\"93\",\"789199\",\"0.0-93.0\",\"\",\"\",\"2-5\",\"4621\",\"40\",\"1\",\"Training\",\"Stims/Figures/111-J-10-3.bmp\",\"na:la:la\",\"Down\",\"40\",\"6\",\"10\",\"5\",\"S\",\"C\",\"90\"
\"\",\"\",\"approach-retreat\",\"94\",\"795743\",\"0.0-94.0\",\"\",\"\",\"2-5\",\"5035\",\"38\",\"1\",\"Training\",\"Stims/Figures/93-J-0-1.bmp\",\"na:mana\",\"Up\",\"38\",\"6\",\"11\",\"5\",\"S\",\"C\",\"91\"
\"\",\"\",\"approach-retreat\",\"95\",\"802375\",\"0.0-95.0\",\"\",\"\",\"2-5\",\"5124\",\"38\",\"1\",\"Training\",\"Stims/Figures/111-C-30-3.bmp\",\"papata\",\"Down\",\"38\",\"6\",\"12\",\"5\",\"P\",\"C\",\"92\"
\"\",\"\",\"approach-retreat\",\"96\",\"808871\",\"0.0-96.0\",\"\",\"\",\"2-5\",\"4988\",\"40\",\"0\",\"Training\",\"Stims/Figures/102-J-10-4.bmp\",\"nalana\",\"Up\",\"38\",\"6\",\"13\",\"5\",\"S\",\"C\",\"93\"
\"\",\"\",\"approach-retreat\",\"97\",\"815103\",\"0.0-97.0\",\"\",\"\",\"2-5\",\"4725\",\"39\",\"1\",\"Training\",\"Stims/Figures/118-C-20-2.bmp\",\"pa:ka:ka\",\"Left\",\"39\",\"6\",\"14\",\"5\",\"P\",\"C\",\"94\"
\"\",\"\",\"approach-retreat\",\"98\",\"821598\",\"0.0-98.0\",\"\",\"\",\"2-5\",\"4987\",\"39\",\"0\",\"Training\",\"Stims/Figures/74-J-10-4.bmp\",\"nalala\",\"Left\",\"37\",\"6\",\"15\",\"5\",\"S\",\"C\",\"95\"
\"\",\"\",\"approach-retreat\",\"99\",\"827792\",\"0.0-99.0\",\"\",\"\",\"2-5\",\"4684\",\"39\",\"0\",\"Training\",\"Stims/Figures/85-C-20-2.bmp\",\"tapa:ta\",\"Right\",\"37\",\"6\",\"16\",\"5\",\"P\",\"C\",\"96\"
\"\",\"\",\"approach-retreat\",\"100\",\"835430\",\"0.0-100.0\",\"\",\"\",\"2-5\",\"6131\",\"39\",\"1\",\"Training\",\"Stims/Figures/93-J-0-1.bmp\",\"na:mana\",\"Right\",\"39\",\"7\",\"1\",\"5\",\"S\",\"C\",\"97\"
\"\",\"\",\"approach-retreat\",\"101\",\"841439\",\"0.0-101.0\",\"\",\"\",\"2-5\",\"4499\",\"38\",\"1\",\"Training\",\"Stims/Figures/102-C-20-4.bmp\",\"tapata\",\"Down\",\"38\",\"7\",\"2\",\"5\",\"P\",\"C\",\"98\"
\"\",\"\",\"approach-retreat\",\"102\",\"847254\",\"0.0-102.0\",\"\",\"\",\"2-5\",\"4308\",\"40\",\"1\",\"Training\",\"Stims/Figures/111-C-30-3.bmp\",\"papata\",\"Up\",\"40\",\"7\",\"3\",\"5\",\"P\",\"C\",\"99\"
\"\",\"\",\"approach-retreat\",\"103\",\"853296\",\"0.0-103.0\",\"\",\"\",\"2-5\",\"4534\",\"39\",\"1\",\"Training\",\"Stims/Figures/74-C-20-4.bmp\",\"ta:kata\",\"Left\",\"39\",\"7\",\"4\",\"5\",\"P\",\"C\",\"100\"
\"\",\"\",\"approach-retreat\",\"104\",\"859280\",\"0.0-104.0\",\"\",\"\",\"2-5\",\"4475\",\"38\",\"0\",\"Training\",\"Stims/Figures/74-J-10-4.bmp\",\"nalala\",\"Down\",\"40\",\"7\",\"5\",\"5\",\"S\",\"C\",\"101\"
\"\",\"\",\"approach-retreat\",\"105\",\"866121\",\"0.0-105.0\",\"\",\"\",\"2-5\",\"5333\",\"39\",\"0\",\"Training\",\"Stims/Figures/118-J-0-2.bmp\",\"ma:mana\",\"Left\",\"37\",\"7\",\"6\",\"5\",\"S\",\"C\",\"102\"
\"\",\"\",\"approach-retreat\",\"106\",\"872527\",\"0.0-106.0\",\"\",\"\",\"2-5\",\"4899\",\"39\",\"1\",\"Training\",\"Stims/Figures/85-C-20-2.bmp\",\"tapa:ta\",\"Left\",\"39\",\"7\",\"7\",\"5\",\"P\",\"C\",\"103\"
\"\",\"\",\"approach-retreat\",\"107\",\"879136\",\"0.0-107.0\",\"\",\"\",\"2-5\",\"5100\",\"38\",\"1\",\"Training\",\"Stims/Figures/118-C-20-2.bmp\",\"pa:ka:ka\",\"Down\",\"38\",\"7\",\"8\",\"5\",\"P\",\"C\",\"104\"
\"\",\"\",\"approach-retreat\",\"108\",\"886568\",\"0.0-108.0\",\"\",\"\",\"2-5\",\"5923\",\"38\",\"1\",\"Training\",\"Stims/Figures/111-J-10-3.bmp\",\"na:la:la\",\"Up\",\"38\",\"7\",\"9\",\"5\",\"S\",\"C\",\"105\"
\"\",\"\",\"approach-retreat\",\"109\",\"893784\",\"0.0-109.0\",\"\",\"\",\"2-5\",\"5707\",\"37\",\"1\",\"Training\",\"Stims/Figures/93-C-30-1.bmp\",\"taka:ka\",\"Right\",\"37\",\"7\",\"10\",\"5\",\"P\",\"C\",\"106\"
\"\",\"\",\"approach-retreat\",\"110\",\"900464\",\"0.0-110.0\",\"\",\"\",\"2-5\",\"5172\",\"38\",\"0\",\"Training\",\"Stims/Figures/85-J-0-2.bmp\",\"nala:na\",\"Down\",\"40\",\"7\",\"11\",\"5\",\"S\",\"C\",\"107\"
\"\",\"\",\"approach-retreat\",\"111\",\"907232\",\"0.0-111.0\",\"\",\"\",\"2-5\",\"5261\",\"37\",\"1\",\"Training\",\"Stims/Figures/71-J-0-1.bmp\",\"ma:lana\",\"Left\",\"37\",\"7\",\"12\",\"5\",\"S\",\"C\",\"108\"
\"\",\"\",\"approach-retreat\",\"112\",\"913238\",\"0.0-112.0\",\"\",\"\",\"2-5\",\"4498\",\"37\",\"1\",\"Training\",\"Stims/Figures/44-C-30-3.bmp\",\"pa:pa:ka\",\"Right\",\"37\",\"7\",\"13\",\"5\",\"P\",\"C\",\"109\"
\"\",\"\",\"approach-retreat\",\"113\",\"919576\",\"0.0-113.0\",\"\",\"\",\"2-5\",\"4829\",\"40\",\"1\",\"Training\",\"Stims/Figures/71-C-30-1.bmp\",\"tapa:ka\",\"Up\",\"40\",\"7\",\"14\",\"5\",\"P\",\"C\",\"110\"
\"\",\"\",\"approach-retreat\",\"114\",\"927872\",\"0.0-114.0\",\"\",\"\",\"2-5\",\"6787\",\"37\",\"0\",\"Training\",\"Stims/Figures/44-J-10-3.bmp\",\"mama:na\",\"Right\",\"39\",\"7\",\"15\",\"5\",\"S\",\"C\",\"111\"
\"\",\"\",\"approach-retreat\",\"115\",\"934879\",\"0.0-115.0\",\"\",\"\",\"2-5\",\"5500\",\"38\",\"1\",\"Training\",\"Stims/Figures/102-J-10-4.bmp\",\"nalana\",\"Up\",\"38\",\"7\",\"16\",\"5\",\"S\",\"C\",\"112\"
\"\",\"\",\"approach-retreat\",\"116\",\"940807\",\"0.0-116.0\",\"\",\"\",\"2-5\",\"4419\",\"37\",\"1\",\"Training\",\"Stims/Figures/102-J-10-4.bmp\",\"nalana\",\"Left\",\"37\",\"8\",\"1\",\"5\",\"S\",\"C\",\"113\"
\"\",\"\",\"approach-retreat\",\"117\",\"947335\",\"0.0-117.0\",\"\",\"\",\"2-5\",\"5021\",\"38\",\"1\",\"Training\",\"Stims/Figures/74-C-20-4.bmp\",\"ta:kata\",\"Down\",\"38\",\"8\",\"2\",\"5\",\"P\",\"C\",\"114\"
\"\",\"\",\"approach-retreat\",\"118\",\"954943\",\"0.0-118.0\",\"\",\"\",\"2-5\",\"6099\",\"39\",\"1\",\"Training\",\"Stims/Figures/118-C-20-2.bmp\",\"pa:ka:ka\",\"Left\",\"39\",\"8\",\"3\",\"5\",\"P\",\"C\",\"115\"
\"\",\"\",\"approach-retreat\",\"119\",\"961327\",\"0.0-119.0\",\"\",\"\",\"2-5\",\"4877\",\"40\",\"1\",\"Training\",\"Stims/Figures/44-C-30-3.bmp\",\"pa:pa:ka\",\"Up\",\"40\",\"8\",\"4\",\"5\",\"P\",\"C\",\"116\"
\"\",\"\",\"approach-retreat\",\"120\",\"969944\",\"0.0-120.0\",\"\",\"\",\"2-5\",\"7109\",\"37\",\"0\",\"Training\",\"Stims/Figures/111-J-10-3.bmp\",\"na:la:la\",\"Right\",\"39\",\"8\",\"5\",\"5\",\"S\",\"C\",\"117\"
\"\",\"\",\"approach-retreat\",\"121\",\"975801\",\"0.0-121.0\",\"\",\"\",\"2-5\",\"4348\",\"37\",\"1\",\"Training\",\"Stims/Figures/93-C-30-1.bmp\",\"taka:ka\",\"Right\",\"37\",\"8\",\"6\",\"5\",\"P\",\"C\",\"118\"
\"\",\"\",\"approach-retreat\",\"122\",\"982736\",\"0.0-122.0\",\"\",\"\",\"2-5\",\"5426\",\"39\",\"0\",\"Training\",\"Stims/Figures/93-J-0-1.bmp\",\"na:mana\",\"Left\",\"37\",\"8\",\"7\",\"5\",\"S\",\"C\",\"119\"
\"\",\"\",\"approach-retreat\",\"123\",\"990784\",\"0.0-123.0\",\"\",\"\",\"2-5\",\"6541\",\"38\",\"1\",\"Training\",\"Stims/Figures/74-J-10-4.bmp\",\"nalala\",\"Up\",\"38\",\"8\",\"8\",\"5\",\"S\",\"C\",\"120\"
\"\",\"\",\"approach-retreat\",\"124\",\"998079\",\"0.0-124.0\",\"\",\"\",\"2-5\",\"5787\",\"38\",\"1\",\"Training\",\"Stims/Figures/111-C-30-3.bmp\",\"papata\",\"Down\",\"38\",\"8\",\"9\",\"5\",\"P\",\"C\",\"121\"
\"\",\"\",\"approach-retreat\",\"125\",\"1004792\",\"0.0-125.0\",\"\",\"\",\"2-5\",\"5204\",\"38\",\"1\",\"Training\",\"Stims/Figures/85-C-20-2.bmp\",\"tapa:ta\",\"Down\",\"38\",\"8\",\"10\",\"5\",\"P\",\"C\",\"122\"
\"\",\"\",\"approach-retreat\",\"126\",\"1010672\",\"0.0-126.0\",\"\",\"\",\"2-5\",\"4371\",\"37\",\"1\",\"Training\",\"Stims/Figures/71-C-30-1.bmp\",\"tapa:ka\",\"Right\",\"37\",\"8\",\"11\",\"5\",\"P\",\"C\",\"123\"
\"\",\"\",\"approach-retreat\",\"127\",\"1016463\",\"0.0-127.0\",\"\",\"\",\"2-5\",\"4284\",\"39\",\"1\",\"Training\",\"Stims/Figures/102-C-20-4.bmp\",\"tapata\",\"Left\",\"39\",\"8\",\"12\",\"5\",\"P\",\"C\",\"124\"
\"\",\"\",\"approach-retreat\",\"128\",\"1023119\",\"0.0-128.0\",\"\",\"\",\"2-5\",\"5147\",\"38\",\"1\",\"Training\",\"Stims/Figures/118-J-0-2.bmp\",\"ma:mana\",\"Up\",\"38\",\"8\",\"13\",\"5\",\"S\",\"C\",\"125\"
\"\",\"\",\"approach-retreat\",\"129\",\"1029240\",\"0.0-129.0\",\"\",\"\",\"2-5\",\"4612\",\"39\",\"1\",\"Training\",\"Stims/Figures/85-J-0-2.bmp\",\"nala:na\",\"Right\",\"39\",\"8\",\"14\",\"5\",\"S\",\"C\",\"126\"
\"\",\"\",\"approach-retreat\",\"130\",\"1036639\",\"0.0-130.0\",\"\",\"\",\"2-5\",\"5890\",\"40\",\"1\",\"Training\",\"Stims/Figures/44-J-10-3.bmp\",\"mama:na\",\"Down\",\"40\",\"8\",\"15\",\"5\",\"S\",\"C\",\"127\"
\"\",\"\",\"approach-retreat\",\"131\",\"1043528\",\"0.0-131.0\",\"\",\"\",\"2-5\",\"5380\",\"38\",\"1\",\"Training\",\"Stims/Figures/71-J-0-1.bmp\",\"ma:lana\",\"Up\",\"38\",\"8\",\"16\",\"5\",\"S\",\"C\",\"128\"
\"\",\"\",\"approach-retreat\",\"132\",\"1049263\",\"0.0-132.0\",\"\",\"\",\"2-5\",\"4227\",\"39\",\"1\",\"Training\",\"Stims/Figures/111-C-30-3.bmp\",\"papata\",\"Left\",\"39\",\"9\",\"1\",\"5\",\"P\",\"C\",\"129\"
\"\",\"\",\"approach-retreat\",\"133\",\"1055672\",\"0.0-133.0\",\"\",\"\",\"2-5\",\"4901\",\"38\",\"1\",\"Training\",\"Stims/Figures/118-J-0-2.bmp\",\"ma:mana\",\"Up\",\"38\",\"9\",\"2\",\"5\",\"S\",\"C\",\"130\"
\"\",\"\",\"approach-retreat\",\"134\",\"1063087\",\"0.0-134.0\",\"\",\"\",\"2-5\",\"5906\",\"40\",\"1\",\"Training\",\"Stims/Figures/85-J-0-2.bmp\",\"nala:na\",\"Down\",\"40\",\"9\",\"3\",\"5\",\"S\",\"C\",\"131\"
\"\",\"\",\"approach-retreat\",\"135\",\"1069240\",\"0.0-135.0\",\"\",\"\",\"2-5\",\"4645\",\"39\",\"1\",\"Training\",\"Stims/Figures/71-J-0-1.bmp\",\"ma:lana\",\"Right\",\"39\",\"9\",\"4\",\"5\",\"S\",\"C\",\"132\"
\"\",\"\",\"approach-retreat\",\"136\",\"1077448\",\"0.0-136.0\",\"\",\"\",\"2-5\",\"6698\",\"39\",\"1\",\"Training\",\"Stims/Figures/93-J-0-1.bmp\",\"na:mana\",\"Right\",\"39\",\"9\",\"5\",\"5\",\"S\",\"C\",\"133\"
\"\",\"\",\"approach-retreat\",\"137\",\"1083512\",\"0.0-137.0\",\"\",\"\",\"2-5\",\"4556\",\"39\",\"1\",\"Training\",\"Stims/Figures/44-C-30-3.bmp\",\"pa:pa:ka\",\"Left\",\"39\",\"9\",\"6\",\"5\",\"P\",\"C\",\"134\"
\"\",\"\",\"approach-retreat\",\"138\",\"1091040\",\"0.0-138.0\",\"\",\"\",\"2-5\",\"6019\",\"40\",\"1\",\"Training\",\"Stims/Figures/74-C-20-4.bmp\",\"ta:kata\",\"Up\",\"40\",\"9\",\"7\",\"5\",\"P\",\"C\",\"135\"
\"\",\"\",\"approach-retreat\",\"139\",\"1096800\",\"0.0-139.0\",\"\",\"\",\"2-5\",\"4253\",\"39\",\"1\",\"Training\",\"Stims/Figures/102-C-20-4.bmp\",\"tapata\",\"Left\",\"39\",\"9\",\"8\",\"5\",\"P\",\"C\",\"136\"
\"\",\"\",\"approach-retreat\",\"140\",\"1102848\",\"0.0-140.0\",\"\",\"\",\"2-5\",\"4539\",\"38\",\"1\",\"Training\",\"Stims/Figures/118-C-20-2.bmp\",\"pa:ka:ka\",\"Down\",\"38\",\"9\",\"9\",\"5\",\"P\",\"C\",\"137\"
\"\",\"\",\"approach-retreat\",\"141\",\"1108768\",\"0.0-141.0\",\"\",\"\",\"2-5\",\"4412\",\"40\",\"1\",\"Training\",\"Stims/Figures/71-C-30-1.bmp\",\"tapa:ka\",\"Up\",\"40\",\"9\",\"10\",\"5\",\"P\",\"C\",\"138\"
\"\",\"\",\"approach-retreat\",\"142\",\"1114584\",\"0.0-142.0\",\"\",\"\",\"2-5\",\"4307\",\"38\",\"1\",\"Training\",\"Stims/Figures/93-C-30-1.bmp\",\"taka:ka\",\"Down\",\"38\",\"9\",\"11\",\"5\",\"P\",\"C\",\"139\"
\"\",\"\",\"approach-retreat\",\"143\",\"1121803\",\"0.0-143.0\",\"\",\"\",\"2-5\",\"5712\",\"38\",\"1\",\"Training\",\"Stims/Figures/74-J-10-4.bmp\",\"nalala\",\"Up\",\"38\",\"9\",\"12\",\"5\",\"S\",\"C\",\"140\"
\"\",\"\",\"approach-retreat\",\"144\",\"1128111\",\"0.0-144.0\",\"\",\"\",\"2-5\",\"4801\",\"37\",\"1\",\"Training\",\"Stims/Figures/85-C-20-2.bmp\",\"tapa:ta\",\"Right\",\"37\",\"9\",\"13\",\"5\",\"P\",\"C\",\"141\"
\"\",\"\",\"approach-retreat\",\"145\",\"1134480\",\"0.0-145.0\",\"\",\"\",\"2-5\",\"4862\",\"39\",\"1\",\"Training\",\"Stims/Figures/44-J-10-3.bmp\",\"mama:na\",\"Right\",\"39\",\"9\",\"14\",\"5\",\"S\",\"C\",\"142\"
\"\",\"\",\"approach-retreat\",\"146\",\"1141487\",\"0.0-146.0\",\"\",\"\",\"2-5\",\"5498\",\"40\",\"1\",\"Training\",\"Stims/Figures/111-J-10-3.bmp\",\"na:la:la\",\"Down\",\"40\",\"9\",\"15\",\"5\",\"S\",\"C\",\"143\"
\"\",\"\",\"approach-retreat\",\"147\",\"1147480\",\"0.0-147.0\",\"\",\"\",\"2-5\",\"4485\",\"37\",\"1\",\"Training\",\"Stims/Figures/102-J-10-4.bmp\",\"nalana\",\"Left\",\"37\",\"9\",\"16\",\"5\",\"S\",\"C\",\"144\"
\"15500\",\"\",\"instructions\",\"148\",\"1162980\",\"0.0-148.0\",\"[{\"\"page_index\"\":0,\"\"viewing_time\"\":15500}]\",\"\",\"\",\"\",\"\",\"\",\"\",\"\",\"\",\"\",\"\",\"\",\"\",\"\",\"\",\"\",\"\"
\"\",\"\",\"approach-retreat\",\"149\",\"1173744\",\"0.0-149.0\",\"\",\"\",\"2-5\",\"9258\",\"40\",\"1\",\"Testing\",\"Stims/Figures/111-J-10-3.bmp\",\"na:la:la\",\"Down\",\"40\",\"1\",\"1\",\"5\",\"S\",\"C\",\"1\"
\"\",\"\",\"approach-retreat\",\"150\",\"1179696\",\"0.0-150.0\",\"\",\"\",\"2-5\",\"4445\",\"38\",\"1\",\"Testing\",\"Stims/Figures/93-C-30-1.bmp\",\"taka:ka\",\"Down\",\"38\",\"1\",\"2\",\"5\",\"P\",\"C\",\"2\"
\"\",\"\",\"approach-retreat\",\"151\",\"1186031\",\"0.0-151.0\",\"\",\"\",\"2-5\",\"4828\",\"38\",\"1\",\"Testing\",\"Stims/Figures/27-C-30-1.bmp\",\"pa:kaka\",\"Down\",\"38\",\"1\",\"3\",\"5\",\"P\",\"C\",\"3\"
\"\",\"\",\"approach-retreat\",\"152\",\"1197744\",\"0.0-152.0\",\"\",\"\",\"2-5\",\"10204\",\"37\",\"0\",\"Testing\",\"Stims/Figures/102-C-20-4.bmp\",\"tapata\",\"Left\",\"39\",\"1\",\"4\",\"5\",\"P\",\"C\",\"4\"
\"\",\"\",\"approach-retreat\",\"153\",\"1205768\",\"0.0-153.0\",\"\",\"\",\"2-5\",\"6517\",\"38\",\"1\",\"Testing\",\"Stims/Figures/102-J-10-4.bmp\",\"nalana\",\"Up\",\"38\",\"1\",\"5\",\"5\",\"S\",\"C\",\"5\"
\"\",\"\",\"approach-retreat\",\"154\",\"1211832\",\"0.0-154.0\",\"\",\"\",\"2-5\",\"4558\",\"38\",\"0\",\"Testing\",\"Stims/Figures/44-C-30-3.bmp\",\"pa:pa:ka\",\"Up\",\"40\",\"1\",\"6\",\"5\",\"P\",\"C\",\"6\"
\"\",\"\",\"approach-retreat\",\"155\",\"1218487\",\"0.0-155.0\",\"\",\"\",\"2-5\",\"5150\",\"37\",\"1\",\"Testing\",\"Stims/Figures/128-C-30-3.bmp\",\"papa:ta\",\"Right\",\"37\",\"1\",\"7\",\"5\",\"P\",\"C\",\"7\"
\"\",\"\",\"approach-retreat\",\"156\",\"1224567\",\"0.0-156.0\",\"\",\"\",\"2-5\",\"4574\",\"39\",\"1\",\"Testing\",\"Stims/Figures/27-J-0-1.bmp\",\"malana\",\"Right\",\"39\",\"1\",\"8\",\"5\",\"S\",\"C\",\"8\"
\"\",\"\",\"approach-retreat\",\"157\",\"1230710\",\"0.0-157.0\",\"\",\"\",\"2-5\",\"4636\",\"39\",\"0\",\"Testing\",\"Stims/Figures/128-J-10-3.bmp\",\"mamana\",\"Left\",\"37\",\"1\",\"9\",\"5\",\"S\",\"C\",\"9\"
\"\",\"\",\"approach-retreat\",\"158\",\"1236952\",\"0.0-158.0\",\"\",\"\",\"2-5\",\"4734\",\"37\",\"1\",\"Testing\",\"Stims/Figures/85-J-0-2.bmp\",\"nala:na\",\"Left\",\"37\",\"1\",\"10\",\"5\",\"S\",\"C\",\"10\"
\"\",\"\",\"approach-retreat\",\"159\",\"1242711\",\"0.0-159.0\",\"\",\"\",\"2-5\",\"4252\",\"39\",\"1\",\"Testing\",\"Stims/Figures/71-J-0-1.bmp\",\"ma:lana\",\"Right\",\"39\",\"1\",\"11\",\"5\",\"S\",\"C\",\"11\"
\"\",\"\",\"approach-retreat\",\"160\",\"1249224\",\"0.0-160.0\",\"\",\"\",\"2-5\",\"5007\",\"38\",\"0\",\"Testing\",\"Stims/Figures/139-J-0-2.bmp\",\"nama:la\",\"Down\",\"40\",\"1\",\"12\",\"5\",\"S\",\"C\",\"12\"
\"\",\"\",\"approach-retreat\",\"161\",\"1255239\",\"0.0-161.0\",\"\",\"\",\"2-5\",\"4509\",\"37\",\"0\",\"Testing\",\"Stims/Figures/74-C-20-4.bmp\",\"ta:kata\",\"Left\",\"39\",\"1\",\"13\",\"5\",\"P\",\"C\",\"13\"
\"\",\"\",\"approach-retreat\",\"162\",\"1261903\",\"0.0-162.0\",\"\",\"\",\"2-5\",\"5157\",\"38\",\"0\",\"Testing\",\"Stims/Figures/71-C-30-1.bmp\",\"tapa:ka\",\"Up\",\"40\",\"1\",\"14\",\"5\",\"P\",\"C\",\"14\"
\"\",\"\",\"approach-retreat\",\"163\",\"1268446\",\"0.0-163.0\",\"\",\"\",\"2-5\",\"5037\",\"38\",\"1\",\"Testing\",\"Stims/Figures/111-C-30-3.bmp\",\"papata\",\"Down\",\"38\",\"1\",\"15\",\"5\",\"P\",\"C\",\"15\"
\"\",\"\",\"approach-retreat\",\"164\",\"1274168\",\"0.0-164.0\",\"\",\"\",\"2-5\",\"4215\",\"39\",\"1\",\"Testing\",\"Stims/Figures/118-C-20-2.bmp\",\"pa:ka:ka\",\"Left\",\"39\",\"1\",\"16\",\"5\",\"P\",\"C\",\"16\"
\"\",\"\",\"approach-retreat\",\"165\",\"1279911\",\"0.0-165.0\",\"\",\"\",\"2-5\",\"4234\",\"37\",\"0\",\"Testing\",\"Stims/Figures/85-C-20-2.bmp\",\"tapa:ta\",\"Left\",\"39\",\"1\",\"17\",\"5\",\"P\",\"C\",\"17\"
\"\",\"\",\"approach-retreat\",\"166\",\"1285800\",\"0.0-166.0\",\"\",\"\",\"2-5\",\"4382\",\"39\",\"1\",\"Testing\",\"Stims/Figures/118-J-0-2.bmp\",\"ma:mana\",\"Right\",\"39\",\"1\",\"18\",\"5\",\"S\",\"C\",\"18\"
\"\",\"\",\"approach-retreat\",\"167\",\"1293503\",\"0.0-167.0\",\"\",\"\",\"2-5\",\"6190\",\"37\",\"1\",\"Testing\",\"Stims/Figures/87-C-20-4.bmp\",\"pakata\",\"Right\",\"37\",\"1\",\"19\",\"5\",\"P\",\"C\",\"19\"
\"\",\"\",\"approach-retreat\",\"168\",\"1299664\",\"0.0-168.0\",\"\",\"\",\"2-5\",\"4654\",\"38\",\"1\",\"Testing\",\"Stims/Figures/139-C-20-2.bmp\",\"ta:pata\",\"Down\",\"38\",\"1\",\"20\",\"5\",\"P\",\"C\",\"20\"
\"\",\"\",\"approach-retreat\",\"169\",\"1306287\",\"0.0-169.0\",\"\",\"\",\"2-5\",\"5116\",\"40\",\"0\",\"Testing\",\"Stims/Figures/74-J-10-4.bmp\",\"nalala\",\"Up\",\"38\",\"1\",\"21\",\"5\",\"S\",\"C\",\"21\"
\"\",\"\",\"approach-retreat\",\"170\",\"1312551\",\"0.0-170.0\",\"\",\"\",\"2-5\",\"4759\",\"38\",\"1\",\"Testing\",\"Stims/Figures/44-J-10-3.bmp\",\"mama:na\",\"Up\",\"38\",\"1\",\"22\",\"5\",\"S\",\"C\",\"22\"
\"\",\"\",\"approach-retreat\",\"171\",\"1318655\",\"0.0-171.0\",\"\",\"\",\"2-5\",\"4598\",\"39\",\"1\",\"Testing\",\"Stims/Figures/93-J-0-1.bmp\",\"na:mana\",\"Right\",\"39\",\"1\",\"23\",\"5\",\"S\",\"C\",\"23\"
\"\",\"\",\"approach-retreat\",\"172\",\"1324615\",\"0.0-172.0\",\"\",\"\",\"2-5\",\"4454\",\"40\",\"0\",\"Testing\",\"Stims/Figures/87-J-10-4.bmp\",\"nama:na\",\"Up\",\"38\",\"1\",\"24\",\"5\",\"S\",\"C\",\"24\"
\"\",\"\",\"approach-retreat\",\"173\",\"1330542\",\"0.0-173.0\",\"\",\"\",\"2-5\",\"4421\",\"39\",\"1\",\"Testing\",\"Stims/Figures/44-J-10-3.bmp\",\"mama:na\",\"Right\",\"39\",\"2\",\"1\",\"5\",\"S\",\"C\",\"25\"
\"\",\"\",\"approach-retreat\",\"174\",\"1340935\",\"0.0-174.0\",\"\",\"\",\"2-5\",\"8887\",\"39\",\"1\",\"Testing\",\"Stims/Figures/118-J-0-2.bmp\",\"ma:mana\",\"Right\",\"39\",\"2\",\"2\",\"5\",\"S\",\"C\",\"26\"
\"\",\"\",\"approach-retreat\",\"175\",\"1346687\",\"0.0-175.0\",\"\",\"\",\"2-5\",\"4245\",\"39\",\"1\",\"Testing\",\"Stims/Figures/27-C-30-1.bmp\",\"pa:kaka\",\"Left\",\"39\",\"2\",\"3\",\"5\",\"P\",\"C\",\"27\"
\"\",\"\",\"approach-retreat\",\"176\",\"1352480\",\"0.0-176.0\",\"\",\"\",\"2-5\",\"4286\",\"40\",\"1\",\"Testing\",\"Stims/Figures/111-C-30-3.bmp\",\"papata\",\"Up\",\"40\",\"2\",\"4\",\"5\",\"P\",\"C\",\"28\"
\"\",\"\",\"approach-retreat\",\"177\",\"1358087\",\"0.0-177.0\",\"\",\"\",\"2-5\",\"4100\",\"37\",\"1\",\"Testing\",\"Stims/Figures/93-J-0-1.bmp\",\"na:mana\",\"Left\",\"37\",\"2\",\"5\",\"5\",\"S\",\"C\",\"29\"
\"\",\"\",\"approach-retreat\",\"178\",\"1363983\",\"0.0-178.0\",\"\",\"\",\"2-5\",\"4390\",\"39\",\"1\",\"Testing\",\"Stims/Figures/27-J-0-1.bmp\",\"malana\",\"Right\",\"39\",\"2\",\"6\",\"5\",\"S\",\"C\",\"30\"
\"\",\"\",\"approach-retreat\",\"179\",\"1369808\",\"0.0-179.0\",\"\",\"\",\"2-5\",\"4317\",\"39\",\"0\",\"Testing\",\"Stims/Figures/102-C-20-4.bmp\",\"tapata\",\"Right\",\"37\",\"2\",\"7\",\"5\",\"P\",\"C\",\"31\"
\"\",\"\",\"approach-retreat\",\"180\",\"1376424\",\"0.0-180.0\",\"\",\"\",\"2-5\",\"5109\",\"37\",\"0\",\"Testing\",\"Stims/Figures/44-C-30-3.bmp\",\"pa:pa:ka\",\"Left\",\"39\",\"2\",\"8\",\"5\",\"P\",\"C\",\"32\"
\"\",\"\",\"approach-retreat\",\"181\",\"1384887\",\"0.0-181.0\",\"\",\"\",\"2-5\",\"6957\",\"37\",\"1\",\"Testing\",\"Stims/Figures/85-J-0-2.bmp\",\"nala:na\",\"Left\",\"37\",\"2\",\"9\",\"5\",\"S\",\"C\",\"33\"
\"\",\"\",\"approach-retreat\",\"182\",\"1390496\",\"0.0-182.0\",\"\",\"\",\"2-5\",\"4101\",\"40\",\"0\",\"Testing\",\"Stims/Figures/128-J-10-3.bmp\",\"mamana\",\"Up\",\"38\",\"2\",\"10\",\"5\",\"S\",\"C\",\"34\"
\"\",\"\",\"approach-retreat\",\"183\",\"1396807\",\"0.0-183.0\",\"\",\"\",\"2-5\",\"4804\",\"38\",\"1\",\"Testing\",\"Stims/Figures/93-C-30-1.bmp\",\"taka:ka\",\"Down\",\"38\",\"2\",\"11\",\"5\",\"P\",\"C\",\"35\"
\"\",\"\",\"approach-retreat\",\"184\",\"1402823\",\"0.0-184.0\",\"\",\"\",\"2-5\",\"4509\",\"38\",\"0\",\"Testing\",\"Stims/Figures/139-J-0-2.bmp\",\"nama:la\",\"Down\",\"40\",\"2\",\"12\",\"5\",\"S\",\"C\",\"36\"
\"\",\"\",\"approach-retreat\",\"185\",\"1409374\",\"0.0-185.0\",\"\",\"\",\"2-5\",\"5044\",\"37\",\"1\",\"Testing\",\"Stims/Figures/71-J-0-1.bmp\",\"ma:lana\",\"Left\",\"37\",\"2\",\"13\",\"5\",\"S\",\"C\",\"37\"
\"\",\"\",\"approach-retreat\",\"186\",\"1415791\",\"0.0-186.0\",\"\",\"\",\"2-5\",\"4911\",\"37\",\"0\",\"Testing\",\"Stims/Figures/87-J-10-4.bmp\",\"nama:na\",\"Right\",\"39\",\"2\",\"14\",\"5\",\"S\",\"C\",\"38\"
\"\",\"\",\"approach-retreat\",\"187\",\"1422245\",\"0.0-187.0\",\"\",\"\",\"2-5\",\"4949\",\"40\",\"1\",\"Testing\",\"Stims/Figures/139-C-20-2.bmp\",\"ta:pata\",\"Up\",\"40\",\"2\",\"15\",\"5\",\"P\",\"C\",\"39\"
\"\",\"\",\"approach-retreat\",\"188\",\"1427791\",\"0.0-188.0\",\"\",\"\",\"2-5\",\"4038\",\"40\",\"1\",\"Testing\",\"Stims/Figures/74-C-20-4.bmp\",\"ta:kata\",\"Up\",\"40\",\"2\",\"16\",\"5\",\"P\",\"C\",\"40\"
\"\",\"\",\"approach-retreat\",\"189\",\"1434239\",\"0.0-189.0\",\"\",\"\",\"2-5\",\"4939\",\"38\",\"1\",\"Testing\",\"Stims/Figures/118-C-20-2.bmp\",\"pa:ka:ka\",\"Down\",\"38\",\"2\",\"17\",\"5\",\"P\",\"C\",\"41\"
\"\",\"\",\"approach-retreat\",\"190\",\"1440351\",\"0.0-190.0\",\"\",\"\",\"2-5\",\"4606\",\"37\",\"1\",\"Testing\",\"Stims/Figures/87-C-20-4.bmp\",\"pakata\",\"Right\",\"37\",\"2\",\"18\",\"5\",\"P\",\"C\",\"42\"
\"\",\"\",\"approach-retreat\",\"191\",\"1446831\",\"0.0-191.0\",\"\",\"\",\"2-5\",\"4972\",\"40\",\"1\",\"Testing\",\"Stims/Figures/85-C-20-2.bmp\",\"tapa:ta\",\"Up\",\"40\",\"2\",\"19\",\"5\",\"P\",\"C\",\"43\"
\"\",\"\",\"approach-retreat\",\"192\",\"1454975\",\"0.0-192.0\",\"\",\"\",\"2-5\",\"6638\",\"38\",\"1\",\"Testing\",\"Stims/Figures/128-C-30-3.bmp\",\"papa:ta\",\"Down\",\"38\",\"2\",\"20\",\"5\",\"P\",\"C\",\"44\"
\"\",\"\",\"approach-retreat\",\"193\",\"1461630\",\"0.0-193.0\",\"\",\"\",\"2-5\",\"5149\",\"40\",\"1\",\"Testing\",\"Stims/Figures/71-C-30-1.bmp\",\"tapa:ka\",\"Up\",\"40\",\"2\",\"21\",\"5\",\"P\",\"C\",\"45\"
\"\",\"\",\"approach-retreat\",\"194\",\"1467928\",\"0.0-194.0\",\"\",\"\",\"2-5\",\"4791\",\"37\",\"1\",\"Testing\",\"Stims/Figures/102-J-10-4.bmp\",\"nalana\",\"Left\",\"37\",\"2\",\"22\",\"5\",\"S\",\"C\",\"46\"
\"\",\"\",\"approach-retreat\",\"195\",\"1474071\",\"0.0-195.0\",\"\",\"\",\"2-5\",\"4636\",\"38\",\"0\",\"Testing\",\"Stims/Figures/111-J-10-3.bmp\",\"na:la:la\",\"Down\",\"40\",\"2\",\"23\",\"5\",\"S\",\"C\",\"47\"
\"\",\"\",\"approach-retreat\",\"196\",\"1482135\",\"0.0-196.0\",\"\",\"\",\"2-5\",\"6558\",\"40\",\"1\",\"Testing\",\"Stims/Figures/74-J-10-4.bmp\",\"nalala\",\"Down\",\"40\",\"2\",\"24\",\"5\",\"S\",\"C\",\"48\"
\"\",\"\",\"approach-retreat\",\"197\",\"1487935\",\"0.0-197.0\",\"\",\"\",\"2-5\",\"4292\",\"39\",\"1\",\"Testing\",\"Stims/Figures/87-C-20-4.bmp\",\"pakata\",\"Left\",\"39\",\"3\",\"1\",\"5\",\"P\",\"C\",\"49\"
\"\",\"\",\"approach-retreat\",\"198\",\"1493871\",\"0.0-198.0\",\"\",\"\",\"2-5\",\"4430\",\"38\",\"1\",\"Testing\",\"Stims/Figures/111-C-30-3.bmp\",\"papata\",\"Down\",\"38\",\"3\",\"2\",\"5\",\"P\",\"C\",\"50\"
\"\",\"\",\"approach-retreat\",\"199\",\"1499854\",\"0.0-199.0\",\"\",\"\",\"2-5\",\"4477\",\"40\",\"1\",\"Testing\",\"Stims/Figures/85-J-0-2.bmp\",\"nala:na\",\"Down\",\"40\",\"3\",\"3\",\"5\",\"S\",\"C\",\"51\"
\"\",\"\",\"approach-retreat\",\"200\",\"1506486\",\"0.0-200.0\",\"\",\"\",\"2-5\",\"5125\",\"37\",\"1\",\"Testing\",\"Stims/Figures/118-J-0-2.bmp\",\"ma:mana\",\"Left\",\"37\",\"3\",\"4\",\"5\",\"S\",\"C\",\"52\"
\"\",\"\",\"approach-retreat\",\"201\",\"1513935\",\"0.0-201.0\",\"\",\"\",\"2-5\",\"5941\",\"39\",\"1\",\"Testing\",\"Stims/Figures/27-J-0-1.bmp\",\"malana\",\"Right\",\"39\",\"3\",\"5\",\"5\",\"S\",\"C\",\"53\"
\"\",\"\",\"approach-retreat\",\"202\",\"1519639\",\"0.0-202.0\",\"\",\"\",\"2-5\",\"4198\",\"39\",\"1\",\"Testing\",\"Stims/Figures/93-J-0-1.bmp\",\"na:mana\",\"Right\",\"39\",\"3\",\"6\",\"5\",\"S\",\"C\",\"54\"
\"\",\"\",\"approach-retreat\",\"203\",\"1526679\",\"0.0-203.0\",\"\",\"\",\"2-5\",\"5532\",\"37\",\"1\",\"Testing\",\"Stims/Figures/128-C-30-3.bmp\",\"papa:ta\",\"Right\",\"37\",\"3\",\"7\",\"5\",\"P\",\"C\",\"55\"
\"\",\"\",\"approach-retreat\",\"204\",\"1533104\",\"0.0-204.0\",\"\",\"\",\"2-5\",\"4918\",\"38\",\"1\",\"Testing\",\"Stims/Figures/71-J-0-1.bmp\",\"ma:lana\",\"Up\",\"38\",\"3\",\"8\",\"5\",\"S\",\"C\",\"56\"
\"\",\"\",\"approach-retreat\",\"205\",\"1539416\",\"0.0-205.0\",\"\",\"\",\"2-5\",\"4805\",\"39\",\"1\",\"Testing\",\"Stims/Figures/74-C-20-4.bmp\",\"ta:kata\",\"Left\",\"39\",\"3\",\"9\",\"5\",\"P\",\"C\",\"57\"
\"\",\"\",\"approach-retreat\",\"206\",\"1545840\",\"0.0-206.0\",\"\",\"\",\"2-5\",\"4915\",\"40\",\"0\",\"Testing\",\"Stims/Figures/111-J-10-3.bmp\",\"na:la:la\",\"Up\",\"38\",\"3\",\"10\",\"5\",\"S\",\"C\",\"58\"
\"\",\"\",\"approach-retreat\",\"207\",\"1552503\",\"0.0-207.0\",\"\",\"\",\"2-5\",\"5156\",\"40\",\"0\",\"Testing\",\"Stims/Figures/102-C-20-4.bmp\",\"tapata\",\"Down\",\"38\",\"3\",\"11\",\"5\",\"P\",\"C\",\"59\"
\"\",\"\",\"approach-retreat\",\"208\",\"1559775\",\"0.0-208.0\",\"\",\"\",\"2-5\",\"5766\",\"38\",\"1\",\"Testing\",\"Stims/Figures/139-J-0-2.bmp\",\"nama:la\",\"Up\",\"38\",\"3\",\"12\",\"5\",\"S\",\"C\",\"60\"
\"\",\"\",\"approach-retreat\",\"209\",\"1566311\",\"0.0-209.0\",\"\",\"\",\"2-5\",\"5028\",\"38\",\"1\",\"Testing\",\"Stims/Figures/27-C-30-1.bmp\",\"pa:kaka\",\"Down\",\"38\",\"3\",\"13\",\"5\",\"P\",\"C\",\"61\"
\"\",\"\",\"approach-retreat\",\"210\",\"1572992\",\"0.0-210.0\",\"\",\"\",\"2-5\",\"5174\",\"37\",\"1\",\"Testing\",\"Stims/Figures/71-C-30-1.bmp\",\"tapa:ka\",\"Right\",\"37\",\"3\",\"14\",\"5\",\"P\",\"C\",\"62\"
\"\",\"\",\"approach-retreat\",\"211\",\"1578775\",\"0.0-211.0\",\"\",\"\",\"2-5\",\"4275\",\"37\",\"0\",\"Testing\",\"Stims/Figures/102-J-10-4.bmp\",\"nalana\",\"Right\",\"39\",\"3\",\"15\",\"5\",\"S\",\"C\",\"63\"
\"\",\"\",\"approach-retreat\",\"212\",\"1585080\",\"0.0-212.0\",\"\",\"\",\"2-5\",\"4797\",\"39\",\"0\",\"Testing\",\"Stims/Figures/74-J-10-4.bmp\",\"nalala\",\"Left\",\"37\",\"3\",\"16\",\"5\",\"S\",\"C\",\"64\"
\"\",\"\",\"approach-retreat\",\"213\",\"1590991\",\"0.0-213.0\",\"\",\"\",\"2-5\",\"4406\",\"37\",\"0\",\"Testing\",\"Stims/Figures/139-C-20-2.bmp\",\"ta:pata\",\"Left\",\"39\",\"3\",\"17\",\"5\",\"P\",\"C\",\"65\"
\"\",\"\",\"approach-retreat\",\"214\",\"1597160\",\"0.0-214.0\",\"\",\"\",\"2-5\",\"4662\",\"39\",\"1\",\"Testing\",\"Stims/Figures/44-J-10-3.bmp\",\"mama:na\",\"Right\",\"39\",\"3\",\"18\",\"5\",\"S\",\"C\",\"66\"
\"\",\"\",\"approach-retreat\",\"215\",\"1603287\",\"0.0-215.0\",\"\",\"\",\"2-5\",\"4621\",\"40\",\"1\",\"Testing\",\"Stims/Figures/85-C-20-2.bmp\",\"tapa:ta\",\"Up\",\"40\",\"3\",\"19\",\"5\",\"P\",\"C\",\"67\"
\"\",\"\",\"approach-retreat\",\"216\",\"1609833\",\"0.0-216.0\",\"\",\"\",\"2-5\",\"5038\",\"38\",\"0\",\"Testing\",\"Stims/Figures/87-J-10-4.bmp\",\"nama:na\",\"Down\",\"40\",\"3\",\"20\",\"5\",\"S\",\"C\",\"68\"
\"\",\"\",\"approach-retreat\",\"217\",\"1615783\",\"0.0-217.0\",\"\",\"\",\"2-5\",\"4444\",\"40\",\"1\",\"Testing\",\"Stims/Figures/118-C-20-2.bmp\",\"pa:ka:ka\",\"Up\",\"40\",\"3\",\"21\",\"5\",\"P\",\"C\",\"69\"
\"\",\"\",\"approach-retreat\",\"218\",\"1622784\",\"0.0-218.0\",\"\",\"\",\"2-5\",\"5494\",\"37\",\"0\",\"Testing\",\"Stims/Figures/44-C-30-3.bmp\",\"pa:pa:ka\",\"Left\",\"39\",\"3\",\"22\",\"5\",\"P\",\"C\",\"70\"
\"\",\"\",\"approach-retreat\",\"219\",\"1628688\",\"0.0-219.0\",\"\",\"\",\"2-5\",\"4397\",\"38\",\"1\",\"Testing\",\"Stims/Figures/93-C-30-1.bmp\",\"taka:ka\",\"Down\",\"38\",\"3\",\"23\",\"5\",\"P\",\"C\",\"71\"
\"\",\"\",\"approach-retreat\",\"220\",\"1634975\",\"0.0-220.0\",\"\",\"\",\"2-5\",\"4780\",\"38\",\"1\",\"Testing\",\"Stims/Figures/128-J-10-3.bmp\",\"mamana\",\"Up\",\"38\",\"3\",\"24\",\"5\",\"S\",\"C\",\"72\"
\"\",\"\",\"approach-retreat\",\"221\",\"1642095\",\"0.0-221.0\",\"\",\"\",\"2-5\",\"5612\",\"40\",\"0\",\"Testing\",\"Stims/Figures/102-C-20-4.bmp\",\"tapata\",\"Down\",\"38\",\"4\",\"1\",\"5\",\"P\",\"C\",\"73\"
\"\",\"\",\"approach-retreat\",\"222\",\"1647831\",\"0.0-222.0\",\"\",\"\",\"2-5\",\"4229\",\"37\",\"1\",\"Testing\",\"Stims/Figures/87-C-20-4.bmp\",\"pakata\",\"Right\",\"37\",\"4\",\"2\",\"5\",\"P\",\"C\",\"74\"
\"\",\"\",\"approach-retreat\",\"223\",\"1654454\",\"0.0-223.0\",\"\",\"\",\"2-5\",\"5117\",\"37\",\"0\",\"Testing\",\"Stims/Figures/118-C-20-2.bmp\",\"pa:ka:ka\",\"Left\",\"39\",\"4\",\"3\",\"5\",\"P\",\"C\",\"75\"
\"\",\"\",\"approach-retreat\",\"224\",\"1660976\",\"0.0-224.0\",\"\",\"\",\"2-5\",\"5015\",\"38\",\"1\",\"Testing\",\"Stims/Figures/74-C-20-4.bmp\",\"ta:kata\",\"Down\",\"38\",\"4\",\"4\",\"5\",\"P\",\"C\",\"76\"
\"\",\"\",\"approach-retreat\",\"225\",\"1668968\",\"0.0-225.0\",\"\",\"\",\"2-5\",\"6484\",\"40\",\"0\",\"Testing\",\"Stims/Figures/128-J-10-3.bmp\",\"mamana\",\"Up\",\"38\",\"4\",\"5\",\"5\",\"S\",\"C\",\"77\"
\"\",\"\",\"approach-retreat\",\"226\",\"1675775\",\"0.0-226.0\",\"\",\"\",\"2-5\",\"5302\",\"37\",\"0\",\"Testing\",\"Stims/Figures/27-C-30-1.bmp\",\"pa:kaka\",\"Left\",\"39\",\"4\",\"6\",\"5\",\"P\",\"C\",\"78\"
\"\",\"\",\"approach-retreat\",\"227\",\"1682127\",\"0.0-227.0\",\"\",\"\",\"2-5\",\"4844\",\"37\",\"0\",\"Testing\",\"Stims/Figures/128-C-30-3.bmp\",\"papa:ta\",\"Left\",\"39\",\"4\",\"7\",\"5\",\"P\",\"C\",\"79\"
\"\",\"\",\"approach-retreat\",\"228\",\"1688167\",\"0.0-228.0\",\"\",\"\",\"2-5\",\"4534\",\"39\",\"1\",\"Testing\",\"Stims/Figures/118-J-0-2.bmp\",\"ma:mana\",\"Right\",\"39\",\"4\",\"8\",\"5\",\"S\",\"C\",\"80\"
\"\",\"\",\"approach-retreat\",\"229\",\"1693927\",\"0.0-229.0\",\"\",\"\",\"2-5\",\"4253\",\"39\",\"0\",\"Testing\",\"Stims/Figures/139-J-0-2.bmp\",\"nama:la\",\"Left\",\"37\",\"4\",\"9\",\"5\",\"S\",\"C\",\"81\"
\"\",\"\",\"approach-retreat\",\"230\",\"1700607\",\"0.0-230.0\",\"\",\"\",\"2-5\",\"5173\",\"38\",\"1\",\"Testing\",\"Stims/Figures/71-C-30-1.bmp\",\"tapa:ka\",\"Down\",\"38\",\"4\",\"10\",\"5\",\"P\",\"C\",\"82\"
\"\",\"\",\"approach-retreat\",\"231\",\"1709656\",\"0.0-231.0\",\"\",\"\",\"2-5\",\"7541\",\"38\",\"0\",\"Testing\",\"Stims/Figures/87-J-10-4.bmp\",\"nama:na\",\"Down\",\"40\",\"4\",\"11\",\"5\",\"S\",\"C\",\"83\"
\"\",\"\",\"approach-retreat\",\"232\",\"1716496\",\"0.0-232.0\",\"\",\"\",\"2-5\",\"5334\",\"37\",\"1\",\"Testing\",\"Stims/Figures/44-J-10-3.bmp\",\"mama:na\",\"Left\",\"37\",\"4\",\"12\",\"5\",\"S\",\"C\",\"84\"
\"\",\"\",\"approach-retreat\",\"233\",\"1722336\",\"0.0-233.0\",\"\",\"\",\"2-5\",\"4333\",\"40\",\"1\",\"Testing\",\"Stims/Figures/93-C-30-1.bmp\",\"taka:ka\",\"Up\",\"40\",\"4\",\"13\",\"5\",\"P\",\"C\",\"85\"
\"\",\"\",\"approach-retreat\",\"234\",\"1728264\",\"0.0-234.0\",\"\",\"\",\"2-5\",\"4422\",\"39\",\"1\",\"Testing\",\"Stims/Figures/85-J-0-2.bmp\",\"nala:na\",\"Right\",\"39\",\"4\",\"14\",\"5\",\"S\",\"C\",\"86\"
\"\",\"\",\"approach-retreat\",\"235\",\"1734600\",\"0.0-235.0\",\"\",\"\",\"2-5\",\"4828\",\"38\",\"1\",\"Testing\",\"Stims/Figures/93-J-0-1.bmp\",\"na:mana\",\"Up\",\"38\",\"4\",\"15\",\"5\",\"S\",\"C\",\"87\"
\"\",\"\",\"approach-retreat\",\"236\",\"1740664\",\"0.0-236.0\",\"\",\"\",\"2-5\",\"4557\",\"37\",\"0\",\"Testing\",\"Stims/Figures/74-J-10-4.bmp\",\"nalala\",\"Right\",\"39\",\"4\",\"16\",\"5\",\"S\",\"C\",\"88\"
\"\",\"\",\"approach-retreat\",\"237\",\"1747119\",\"0.0-237.0\",\"\",\"\",\"2-5\",\"4948\",\"39\",\"1\",\"Testing\",\"Stims/Figures/111-C-30-3.bmp\",\"papata\",\"Left\",\"39\",\"4\",\"17\",\"5\",\"P\",\"C\",\"89\"
\"\",\"\",\"approach-retreat\",\"238\",\"1755144\",\"0.0-238.0\",\"\",\"\",\"2-5\",\"6518\",\"38\",\"1\",\"Testing\",\"Stims/Figures/27-J-0-1.bmp\",\"malana\",\"Up\",\"38\",\"4\",\"18\",\"5\",\"S\",\"C\",\"90\"
\"\",\"\",\"approach-retreat\",\"239\",\"1761631\",\"0.0-239.0\",\"\",\"\",\"2-5\",\"4980\",\"40\",\"1\",\"Testing\",\"Stims/Figures/71-J-0-1.bmp\",\"ma:lana\",\"Down\",\"40\",\"4\",\"19\",\"5\",\"S\",\"C\",\"91\"
\"\",\"\",\"approach-retreat\",\"240\",\"1768064\",\"0.0-240.0\",\"\",\"\",\"2-5\",\"4926\",\"38\",\"0\",\"Testing\",\"Stims/Figures/111-J-10-3.bmp\",\"na:la:la\",\"Down\",\"40\",\"4\",\"20\",\"5\",\"S\",\"C\",\"92\"
\"\",\"\",\"approach-retreat\",\"241\",\"1774079\",\"0.0-241.0\",\"\",\"\",\"2-5\",\"4508\",\"39\",\"0\",\"Testing\",\"Stims/Figures/44-C-30-3.bmp\",\"pa:pa:ka\",\"Right\",\"37\",\"4\",\"21\",\"5\",\"P\",\"C\",\"93\"
\"\",\"\",\"approach-retreat\",\"242\",\"1780617\",\"0.0-242.0\",\"\",\"\",\"2-5\",\"5031\",\"37\",\"0\",\"Testing\",\"Stims/Figures/102-J-10-4.bmp\",\"nalana\",\"Right\",\"39\",\"4\",\"22\",\"5\",\"S\",\"C\",\"94\"
\"\",\"\",\"approach-retreat\",\"243\",\"1786498\",\"0.0-243.0\",\"\",\"\",\"2-5\",\"4371\",\"40\",\"1\",\"Testing\",\"Stims/Figures/85-C-20-2.bmp\",\"tapa:ta\",\"Up\",\"40\",\"4\",\"23\",\"5\",\"P\",\"C\",\"95\"
\"\",\"\",\"approach-retreat\",\"244\",\"1792631\",\"0.0-244.0\",\"\",\"\",\"2-5\",\"4627\",\"40\",\"1\",\"Testing\",\"Stims/Figures/139-C-20-2.bmp\",\"ta:pata\",\"Up\",\"40\",\"4\",\"24\",\"5\",\"P\",\"C\",\"96\"
\"32616\",\"\",\"survey-text\",\"245\",\"1825254\",\"0.0-245.0\",\"\",\"{\"\"Q0\"\":\"\"1262/2017\"\"}\",\"\",\"\",\"\",\"\",\"\",\"\",\"\",\"\",\"\",\"\",\"\",\"\",\"\",\"\",\"\"
