\"rt\",\"key_press\",\"trial_type\",\"trial_index\",\"time_elapsed\",\"internal_node_id\",\"view_history\",\"responses\",\"Id\",\"Rt\",\"ResKeyCode\",\"ResCorr\",\"TrialType2\",\"Image\",\"Label\",\"Location\",\"CorrectResponse\",\"Block\",\"BlockTrial\",\"Condition\",\"LabelType\",\"Subcondition\",\"trialNum\"
\"75125\",\"32\",\"text\",\"0\",\"75126\",\"0.0-0.0-0.0\",\"\",\"\",\"\",\"\",\"\",\"\",\"\",\"\",\"\",\"\",\"\",\"\",\"\",\"\",\"\",\"\",\"\"
\"80471\",\"\",\"instructions\",\"1\",\"155599\",\"0.0-1.0\",\"[{\"\"page_index\"\":0,\"\"viewing_time\"\":80470}]\",\"\",\"\",\"\",\"\",\"\",\"\",\"\",\"\",\"\",\"\",\"\",\"\",\"\",\"\",\"\",\"\"
\"59967\",\"\",\"survey-multi-choice\",\"2\",\"215585\",\"0.0-2.0\",\"\",\"{\"\"Q0\"\":\"\"Da\"\",\"\"Q1\"\":\"\"Da\"\",\"\"Q2\"\":\"\"Da\"\",\"\"Q3\"\":\"\"Da\"\",\"\"Q4\"\":\"\"Da\"\",\"\"Q5\"\":\"\"Da\"\"}\",\"\",\"\",\"\",\"\",\"\",\"\",\"\",\"\",\"\",\"\",\"\",\"\",\"\",\"\",\"\"
\"\",\"\",\"bio\",\"3\",\"225212\",\"0.0-3.0\",\"\",\"{\"\"age\"\":\"\"19\"\",\"\"gender\"\":\"\"f\"\",\"\"specify\"\":\"\"\"\"}\",\"\",\"\",\"\",\"\",\"\",\"\",\"\",\"\",\"\",\"\",\"\",\"\",\"\",\"\",\"\"
\"\",\"\",\"approach-retreat\",\"4\",\"233509\",\"0.0-4.0\",\"\",\"\",\"3-3\",\"6792\",\"40\",\"1\",\"Training\",\"Stims/Figures/57-C-30-1.bmp\",\"zasa:za\",\"Down\",\"40\",\"1\",\"1\",\"6A\",\"C2\",\"J\",\"1\"
\"\",\"\",\"approach-retreat\",\"5\",\"240146\",\"0.0-5.0\",\"\",\"\",\"3-3\",\"5132\",\"39\",\"0\",\"Training\",\"Stims/Figures/84-C-20-2.bmp\",\"sa:sa:za\",\"Left\",\"37\",\"1\",\"2\",\"6A\",\"C2\",\"J\",\"2\"
\"\",\"\",\"approach-retreat\",\"6\",\"248015\",\"0.0-6.0\",\"\",\"\",\"3-3\",\"6363\",\"37\",\"1\",\"Training\",\"Stims/Figures/84-J-0-2.bmp\",\"vafa:va\",\"Right\",\"37\",\"1\",\"3\",\"6A\",\"C1\",\"J\",\"3\"
\"\",\"\",\"approach-retreat\",\"7\",\"255516\",\"0.0-7.0\",\"\",\"\",\"3-3\",\"5997\",\"38\",\"0\",\"Training\",\"Stims/Figures/27-J-0-1.bmp\",\"fa:sha:va\",\"Up\",\"40\",\"1\",\"4\",\"6A\",\"C1\",\"J\",\"4\"
\"\",\"\",\"approach-retreat\",\"8\",\"263234\",\"0.0-8.0\",\"\",\"\",\"3-3\",\"6214\",\"40\",\"1\",\"Training\",\"Stims/Figures/102-C-20-4.bmp\",\"za:haza\",\"Down\",\"40\",\"1\",\"5\",\"6A\",\"C2\",\"J\",\"5\"
\"\",\"\",\"approach-retreat\",\"9\",\"269570\",\"0.0-9.0\",\"\",\"\",\"3-3\",\"4831\",\"40\",\"1\",\"Training\",\"Stims/Figures/57-J-0-1.bmp\",\"va:shava\",\"Up\",\"40\",\"1\",\"6\",\"6A\",\"C1\",\"J\",\"6\"
\"\",\"\",\"approach-retreat\",\"10\",\"275554\",\"0.0-10.0\",\"\",\"\",\"3-3\",\"4480\",\"39\",\"1\",\"Training\",\"Stims/Figures/100-J-10-3.bmp\",\"vafa:sha\",\"Left\",\"39\",\"1\",\"7\",\"6A\",\"C1\",\"J\",\"7\"
\"\",\"\",\"approach-retreat\",\"11\",\"281661\",\"0.0-11.0\",\"\",\"\",\"3-3\",\"4600\",\"38\",\"1\",\"Training\",\"Stims/Figures/102-J-10-4.bmp\",\"va:fa:sha\",\"Down\",\"38\",\"1\",\"8\",\"6A\",\"C1\",\"J\",\"8\"
\"\",\"\",\"approach-retreat\",\"12\",\"288103\",\"0.0-12.0\",\"\",\"\",\"3-3\",\"4936\",\"37\",\"0\",\"Training\",\"Stims/Figures/118-C-20-2.bmp\",\"sa:haha\",\"Right\",\"39\",\"1\",\"9\",\"6A\",\"C2\",\"J\",\"9\"
\"\",\"\",\"approach-retreat\",\"13\",\"293992\",\"0.0-13.0\",\"\",\"\",\"3-3\",\"4385\",\"38\",\"1\",\"Training\",\"Stims/Figures/74-J-10-4.bmp\",\"fafa:sha\",\"Down\",\"38\",\"1\",\"10\",\"6A\",\"C1\",\"J\",\"10\"
\"\",\"\",\"approach-retreat\",\"14\",\"300122\",\"0.0-14.0\",\"\",\"\",\"3-3\",\"4625\",\"40\",\"0\",\"Training\",\"Stims/Figures/100-C-30-3.bmp\",\"zahaha\",\"Up\",\"38\",\"1\",\"11\",\"6A\",\"C2\",\"J\",\"11\"
\"\",\"\",\"approach-retreat\",\"15\",\"306085\",\"0.0-15.0\",\"\",\"\",\"3-3\",\"4459\",\"39\",\"1\",\"Training\",\"Stims/Figures/118-J-0-2.bmp\",\"fa:fa:va\",\"Left\",\"39\",\"1\",\"12\",\"6A\",\"C1\",\"J\",\"12\"
\"\",\"\",\"approach-retreat\",\"16\",\"313110\",\"0.0-16.0\",\"\",\"\",\"3-3\",\"5521\",\"37\",\"0\",\"Training\",\"Stims/Figures/27-C-30-1.bmp\",\"sasaza\",\"Right\",\"39\",\"1\",\"13\",\"6A\",\"C2\",\"J\",\"13\"
\"\",\"\",\"approach-retreat\",\"17\",\"319661\",\"0.0-17.0\",\"\",\"\",\"3-3\",\"5048\",\"37\",\"1\",\"Training\",\"Stims/Figures/128-C-30-3.bmp\",\"sa:sa:ha\",\"Left\",\"37\",\"1\",\"14\",\"6A\",\"C2\",\"J\",\"14\"
\"\",\"\",\"approach-retreat\",\"18\",\"326134\",\"0.0-18.0\",\"\",\"\",\"3-3\",\"4967\",\"39\",\"0\",\"Training\",\"Stims/Figures/128-J-10-3.bmp\",\"vashasha\",\"Right\",\"37\",\"1\",\"15\",\"6A\",\"C1\",\"J\",\"15\"
\"\",\"\",\"approach-retreat\",\"19\",\"332022\",\"0.0-19.0\",\"\",\"\",\"3-3\",\"4383\",\"38\",\"1\",\"Training\",\"Stims/Figures/74-C-20-4.bmp\",\"zasa:ha\",\"Up\",\"38\",\"1\",\"16\",\"6A\",\"C2\",\"J\",\"16\"
\"\",\"\",\"approach-retreat\",\"20\",\"337966\",\"0.0-20.0\",\"\",\"\",\"3-3\",\"4440\",\"40\",\"1\",\"Training\",\"Stims/Figures/84-J-0-2.bmp\",\"vafa:va\",\"Up\",\"40\",\"2\",\"1\",\"6A\",\"C1\",\"J\",\"17\"
\"\",\"\",\"approach-retreat\",\"21\",\"343886\",\"0.0-21.0\",\"\",\"\",\"3-3\",\"4415\",\"37\",\"1\",\"Training\",\"Stims/Figures/57-C-30-1.bmp\",\"zasa:za\",\"Left\",\"37\",\"2\",\"2\",\"6A\",\"C2\",\"J\",\"18\"
\"\",\"\",\"approach-retreat\",\"22\",\"349756\",\"0.0-22.0\",\"\",\"\",\"3-3\",\"4365\",\"37\",\"1\",\"Training\",\"Stims/Figures/128-C-30-3.bmp\",\"sa:sa:ha\",\"Left\",\"37\",\"2\",\"3\",\"6A\",\"C2\",\"J\",\"19\"
\"\",\"\",\"approach-retreat\",\"23\",\"356036\",\"0.0-23.0\",\"\",\"\",\"3-3\",\"4775\",\"38\",\"1\",\"Training\",\"Stims/Figures/27-J-0-1.bmp\",\"fa:sha:va\",\"Down\",\"38\",\"2\",\"4\",\"6A\",\"C1\",\"J\",\"20\"
\"\",\"\",\"approach-retreat\",\"24\",\"362205\",\"0.0-24.0\",\"\",\"\",\"3-3\",\"4667\",\"40\",\"1\",\"Training\",\"Stims/Figures/100-J-10-3.bmp\",\"vafa:sha\",\"Up\",\"40\",\"2\",\"5\",\"6A\",\"C1\",\"J\",\"21\"
\"\",\"\",\"approach-retreat\",\"25\",\"368129\",\"0.0-25.0\",\"\",\"\",\"3-3\",\"4419\",\"38\",\"0\",\"Training\",\"Stims/Figures/84-C-20-2.bmp\",\"sa:sa:za\",\"Down\",\"40\",\"2\",\"6\",\"6A\",\"C2\",\"J\",\"22\"
\"\",\"\",\"approach-retreat\",\"26\",\"374686\",\"0.0-26.0\",\"\",\"\",\"3-3\",\"5053\",\"38\",\"1\",\"Training\",\"Stims/Figures/118-C-20-2.bmp\",\"sa:haha\",\"Up\",\"38\",\"2\",\"7\",\"6A\",\"C2\",\"J\",\"23\"
\"\",\"\",\"approach-retreat\",\"27\",\"381033\",\"0.0-27.0\",\"\",\"\",\"3-3\",\"4841\",\"40\",\"0\",\"Training\",\"Stims/Figures/57-J-0-1.bmp\",\"va:shava\",\"Down\",\"38\",\"2\",\"8\",\"6A\",\"C1\",\"J\",\"24\"
\"\",\"\",\"approach-retreat\",\"28\",\"387670\",\"0.0-28.0\",\"\",\"\",\"3-3\",\"5132\",\"39\",\"0\",\"Training\",\"Stims/Figures/74-J-10-4.bmp\",\"fafa:sha\",\"Right\",\"37\",\"2\",\"9\",\"6A\",\"C1\",\"J\",\"25\"
\"\",\"\",\"approach-retreat\",\"29\",\"393810\",\"0.0-29.0\",\"\",\"\",\"3-3\",\"4636\",\"37\",\"1\",\"Training\",\"Stims/Figures/74-C-20-4.bmp\",\"zasa:ha\",\"Left\",\"37\",\"2\",\"10\",\"6A\",\"C2\",\"J\",\"26\"
\"\",\"\",\"approach-retreat\",\"30\",\"399554\",\"0.0-30.0\",\"\",\"\",\"3-3\",\"4239\",\"37\",\"1\",\"Training\",\"Stims/Figures/128-J-10-3.bmp\",\"vashasha\",\"Right\",\"37\",\"2\",\"11\",\"6A\",\"C1\",\"J\",\"27\"
\"\",\"\",\"approach-retreat\",\"31\",\"405412\",\"0.0-31.0\",\"\",\"\",\"3-3\",\"4354\",\"40\",\"1\",\"Training\",\"Stims/Figures/102-C-20-4.bmp\",\"za:haza\",\"Down\",\"40\",\"2\",\"12\",\"6A\",\"C2\",\"J\",\"28\"
\"\",\"\",\"approach-retreat\",\"32\",\"411241\",\"0.0-32.0\",\"\",\"\",\"3-3\",\"4326\",\"39\",\"1\",\"Training\",\"Stims/Figures/100-C-30-3.bmp\",\"zahaha\",\"Right\",\"39\",\"2\",\"13\",\"6A\",\"C2\",\"J\",\"29\"
\"\",\"\",\"approach-retreat\",\"33\",\"417125\",\"0.0-33.0\",\"\",\"\",\"3-3\",\"4380\",\"37\",\"0\",\"Training\",\"Stims/Figures/27-C-30-1.bmp\",\"sasaza\",\"Right\",\"39\",\"2\",\"14\",\"6A\",\"C2\",\"J\",\"30\"
\"\",\"\",\"approach-retreat\",\"34\",\"423276\",\"0.0-34.0\",\"\",\"\",\"3-3\",\"4645\",\"37\",\"0\",\"Training\",\"Stims/Figures/118-J-0-2.bmp\",\"fa:fa:va\",\"Left\",\"39\",\"2\",\"15\",\"6A\",\"C1\",\"J\",\"31\"
\"\",\"\",\"approach-retreat\",\"35\",\"429040\",\"0.0-35.0\",\"\",\"\",\"3-3\",\"4258\",\"40\",\"1\",\"Training\",\"Stims/Figures/102-J-10-4.bmp\",\"va:fa:sha\",\"Up\",\"40\",\"2\",\"16\",\"6A\",\"C1\",\"J\",\"32\"
\"\",\"\",\"approach-retreat\",\"36\",\"436239\",\"0.0-36.0\",\"\",\"\",\"3-3\",\"5695\",\"37\",\"1\",\"Training\",\"Stims/Figures/118-C-20-2.bmp\",\"sa:haha\",\"Left\",\"37\",\"3\",\"1\",\"6A\",\"C2\",\"J\",\"33\"
\"\",\"\",\"approach-retreat\",\"37\",\"442630\",\"0.0-37.0\",\"\",\"\",\"3-3\",\"4887\",\"38\",\"1\",\"Training\",\"Stims/Figures/102-C-20-4.bmp\",\"za:haza\",\"Up\",\"38\",\"3\",\"2\",\"6A\",\"C2\",\"J\",\"34\"
\"\",\"\",\"approach-retreat\",\"38\",\"448545\",\"0.0-38.0\",\"\",\"\",\"3-3\",\"4410\",\"38\",\"1\",\"Training\",\"Stims/Figures/100-J-10-3.bmp\",\"vafa:sha\",\"Down\",\"38\",\"3\",\"3\",\"6A\",\"C1\",\"J\",\"35\"
\"\",\"\",\"approach-retreat\",\"39\",\"454443\",\"0.0-39.0\",\"\",\"\",\"3-3\",\"4391\",\"37\",\"1\",\"Training\",\"Stims/Figures/128-J-10-3.bmp\",\"vashasha\",\"Right\",\"37\",\"3\",\"4\",\"6A\",\"C1\",\"J\",\"36\"
\"\",\"\",\"approach-retreat\",\"40\",\"460297\",\"0.0-40.0\",\"\",\"\",\"3-3\",\"4350\",\"37\",\"1\",\"Training\",\"Stims/Figures/27-C-30-1.bmp\",\"sasaza\",\"Left\",\"37\",\"3\",\"5\",\"6A\",\"C2\",\"J\",\"37\"
\"\",\"\",\"approach-retreat\",\"41\",\"466373\",\"0.0-41.0\",\"\",\"\",\"3-3\",\"4571\",\"38\",\"1\",\"Training\",\"Stims/Figures/57-C-30-1.bmp\",\"zasa:za\",\"Up\",\"38\",\"3\",\"6\",\"6A\",\"C2\",\"J\",\"38\"
\"\",\"\",\"approach-retreat\",\"42\",\"472441\",\"0.0-42.0\",\"\",\"\",\"3-3\",\"4563\",\"37\",\"1\",\"Training\",\"Stims/Figures/84-J-0-2.bmp\",\"vafa:va\",\"Right\",\"37\",\"3\",\"7\",\"6A\",\"C1\",\"J\",\"39\"
\"\",\"\",\"approach-retreat\",\"43\",\"478401\",\"0.0-43.0\",\"\",\"\",\"3-3\",\"4454\",\"40\",\"1\",\"Training\",\"Stims/Figures/102-J-10-4.bmp\",\"va:fa:sha\",\"Up\",\"40\",\"3\",\"8\",\"6A\",\"C1\",\"J\",\"40\"
\"\",\"\",\"approach-retreat\",\"44\",\"484315\",\"0.0-44.0\",\"\",\"\",\"3-3\",\"4410\",\"38\",\"1\",\"Training\",\"Stims/Figures/74-C-20-4.bmp\",\"zasa:ha\",\"Up\",\"38\",\"3\",\"9\",\"6A\",\"C2\",\"J\",\"41\"
\"\",\"\",\"approach-retreat\",\"45\",\"490074\",\"0.0-45.0\",\"\",\"\",\"3-3\",\"4253\",\"37\",\"1\",\"Training\",\"Stims/Figures/100-C-30-3.bmp\",\"zahaha\",\"Left\",\"37\",\"3\",\"10\",\"6A\",\"C2\",\"J\",\"42\"
\"\",\"\",\"approach-retreat\",\"46\",\"495908\",\"0.0-46.0\",\"\",\"\",\"3-3\",\"4329\",\"37\",\"1\",\"Training\",\"Stims/Figures/84-C-20-2.bmp\",\"sa:sa:za\",\"Left\",\"37\",\"3\",\"11\",\"6A\",\"C2\",\"J\",\"43\"
\"\",\"\",\"approach-retreat\",\"47\",\"502062\",\"0.0-47.0\",\"\",\"\",\"3-3\",\"4650\",\"40\",\"1\",\"Training\",\"Stims/Figures/128-C-30-3.bmp\",\"sa:sa:ha\",\"Down\",\"40\",\"3\",\"12\",\"6A\",\"C2\",\"J\",\"44\"
\"\",\"\",\"approach-retreat\",\"48\",\"507794\",\"0.0-48.0\",\"\",\"\",\"3-3\",\"4228\",\"37\",\"1\",\"Training\",\"Stims/Figures/57-J-0-1.bmp\",\"va:shava\",\"Right\",\"37\",\"3\",\"13\",\"6A\",\"C1\",\"J\",\"45\"
\"\",\"\",\"approach-retreat\",\"49\",\"513583\",\"0.0-49.0\",\"\",\"\",\"3-3\",\"4284\",\"38\",\"1\",\"Training\",\"Stims/Figures/74-J-10-4.bmp\",\"fafa:sha\",\"Down\",\"38\",\"3\",\"14\",\"6A\",\"C1\",\"J\",\"46\"
\"\",\"\",\"approach-retreat\",\"50\",\"519377\",\"0.0-50.0\",\"\",\"\",\"3-3\",\"4289\",\"38\",\"1\",\"Training\",\"Stims/Figures/118-J-0-2.bmp\",\"fa:fa:va\",\"Down\",\"38\",\"3\",\"15\",\"6A\",\"C1\",\"J\",\"47\"
\"\",\"\",\"approach-retreat\",\"51\",\"525175\",\"0.0-51.0\",\"\",\"\",\"3-3\",\"4293\",\"37\",\"1\",\"Training\",\"Stims/Figures/27-J-0-1.bmp\",\"fa:sha:va\",\"Right\",\"37\",\"3\",\"16\",\"6A\",\"C1\",\"J\",\"48\"
\"\",\"\",\"approach-retreat\",\"52\",\"531763\",\"0.0-52.0\",\"\",\"\",\"3-3\",\"5083\",\"37\",\"1\",\"Training\",\"Stims/Figures/100-C-30-3.bmp\",\"zahaha\",\"Left\",\"37\",\"4\",\"1\",\"6A\",\"C2\",\"J\",\"49\"
\"\",\"\",\"approach-retreat\",\"53\",\"537999\",\"0.0-53.0\",\"\",\"\",\"3-3\",\"4731\",\"40\",\"1\",\"Training\",\"Stims/Figures/57-C-30-1.bmp\",\"zasa:za\",\"Down\",\"40\",\"4\",\"2\",\"6A\",\"C2\",\"J\",\"50\"
\"\",\"\",\"approach-retreat\",\"54\",\"544053\",\"0.0-54.0\",\"\",\"\",\"3-3\",\"4550\",\"38\",\"1\",\"Training\",\"Stims/Figures/128-J-10-3.bmp\",\"vashasha\",\"Down\",\"38\",\"4\",\"3\",\"6A\",\"C1\",\"J\",\"51\"
\"\",\"\",\"approach-retreat\",\"55\",\"550494\",\"0.0-55.0\",\"\",\"\",\"3-3\",\"4936\",\"40\",\"1\",\"Training\",\"Stims/Figures/102-J-10-4.bmp\",\"va:fa:sha\",\"Up\",\"40\",\"4\",\"4\",\"6A\",\"C1\",\"J\",\"52\"
\"\",\"\",\"approach-retreat\",\"56\",\"556087\",\"0.0-56.0\",\"\",\"\",\"3-3\",\"4088\",\"38\",\"1\",\"Training\",\"Stims/Figures/118-J-0-2.bmp\",\"fa:fa:va\",\"Down\",\"38\",\"4\",\"5\",\"6A\",\"C1\",\"J\",\"53\"
\"\",\"\",\"approach-retreat\",\"57\",\"561785\",\"0.0-57.0\",\"\",\"\",\"3-3\",\"4194\",\"40\",\"1\",\"Training\",\"Stims/Figures/128-C-30-3.bmp\",\"sa:sa:ha\",\"Down\",\"40\",\"4\",\"6\",\"6A\",\"C2\",\"J\",\"54\"
\"\",\"\",\"approach-retreat\",\"58\",\"568166\",\"0.0-58.0\",\"\",\"\",\"3-3\",\"4878\",\"40\",\"0\",\"Training\",\"Stims/Figures/74-C-20-4.bmp\",\"zasa:ha\",\"Up\",\"38\",\"4\",\"7\",\"6A\",\"C2\",\"J\",\"55\"
\"\",\"\",\"approach-retreat\",\"59\",\"574557\",\"0.0-59.0\",\"\",\"\",\"3-3\",\"4886\",\"39\",\"1\",\"Training\",\"Stims/Figures/27-C-30-1.bmp\",\"sasaza\",\"Right\",\"39\",\"4\",\"8\",\"6A\",\"C2\",\"J\",\"56\"
\"\",\"\",\"approach-retreat\",\"60\",\"581059\",\"0.0-60.0\",\"\",\"\",\"3-3\",\"4999\",\"39\",\"1\",\"Training\",\"Stims/Figures/118-C-20-2.bmp\",\"sa:haha\",\"Right\",\"39\",\"4\",\"9\",\"6A\",\"C2\",\"J\",\"57\"
\"\",\"\",\"approach-retreat\",\"61\",\"587168\",\"0.0-61.0\",\"\",\"\",\"3-3\",\"4605\",\"37\",\"1\",\"Training\",\"Stims/Figures/100-J-10-3.bmp\",\"vafa:sha\",\"Right\",\"37\",\"4\",\"10\",\"6A\",\"C1\",\"J\",\"58\"
\"\",\"\",\"approach-retreat\",\"62\",\"593239\",\"0.0-62.0\",\"\",\"\",\"3-3\",\"4566\",\"40\",\"1\",\"Training\",\"Stims/Figures/57-J-0-1.bmp\",\"va:shava\",\"Up\",\"40\",\"4\",\"11\",\"6A\",\"C1\",\"J\",\"59\"
\"\",\"\",\"approach-retreat\",\"63\",\"599721\",\"0.0-63.0\",\"\",\"\",\"3-3\",\"4976\",\"37\",\"1\",\"Training\",\"Stims/Figures/84-C-20-2.bmp\",\"sa:sa:za\",\"Left\",\"37\",\"4\",\"12\",\"6A\",\"C2\",\"J\",\"60\"
\"\",\"\",\"approach-retreat\",\"64\",\"605831\",\"0.0-64.0\",\"\",\"\",\"3-3\",\"4604\",\"39\",\"1\",\"Training\",\"Stims/Figures/27-J-0-1.bmp\",\"fa:sha:va\",\"Left\",\"39\",\"4\",\"13\",\"6A\",\"C1\",\"J\",\"61\"
\"\",\"\",\"approach-retreat\",\"65\",\"612121\",\"0.0-65.0\",\"\",\"\",\"3-3\",\"4787\",\"38\",\"1\",\"Training\",\"Stims/Figures/102-C-20-4.bmp\",\"za:haza\",\"Up\",\"38\",\"4\",\"14\",\"6A\",\"C2\",\"J\",\"62\"
\"\",\"\",\"approach-retreat\",\"66\",\"617981\",\"0.0-66.0\",\"\",\"\",\"3-3\",\"4355\",\"39\",\"1\",\"Training\",\"Stims/Figures/74-J-10-4.bmp\",\"fafa:sha\",\"Left\",\"39\",\"4\",\"15\",\"6A\",\"C1\",\"J\",\"63\"
\"\",\"\",\"approach-retreat\",\"67\",\"623678\",\"0.0-67.0\",\"\",\"\",\"3-3\",\"4192\",\"37\",\"1\",\"Training\",\"Stims/Figures/84-J-0-2.bmp\",\"vafa:va\",\"Right\",\"37\",\"4\",\"16\",\"6A\",\"C1\",\"J\",\"64\"
\"\",\"\",\"approach-retreat\",\"68\",\"629709\",\"0.0-68.0\",\"\",\"\",\"3-3\",\"4525\",\"39\",\"1\",\"Training\",\"Stims/Figures/100-J-10-3.bmp\",\"vafa:sha\",\"Left\",\"39\",\"5\",\"1\",\"6A\",\"C1\",\"J\",\"65\"
\"\",\"\",\"approach-retreat\",\"69\",\"635556\",\"0.0-69.0\",\"\",\"\",\"3-3\",\"4344\",\"37\",\"1\",\"Training\",\"Stims/Figures/128-C-30-3.bmp\",\"sa:sa:ha\",\"Left\",\"37\",\"5\",\"2\",\"6A\",\"C2\",\"J\",\"66\"
\"\",\"\",\"approach-retreat\",\"70\",\"641596\",\"0.0-70.0\",\"\",\"\",\"3-3\",\"4535\",\"40\",\"1\",\"Training\",\"Stims/Figures/74-C-20-4.bmp\",\"zasa:ha\",\"Down\",\"40\",\"5\",\"3\",\"6A\",\"C2\",\"J\",\"67\"
\"\",\"\",\"approach-retreat\",\"71\",\"648238\",\"0.0-71.0\",\"\",\"\",\"3-3\",\"5138\",\"40\",\"1\",\"Training\",\"Stims/Figures/57-C-30-1.bmp\",\"zasa:za\",\"Down\",\"40\",\"5\",\"4\",\"6A\",\"C2\",\"J\",\"68\"
\"\",\"\",\"approach-retreat\",\"72\",\"654173\",\"0.0-72.0\",\"\",\"\",\"3-3\",\"4429\",\"37\",\"1\",\"Training\",\"Stims/Figures/128-J-10-3.bmp\",\"vashasha\",\"Right\",\"37\",\"5\",\"5\",\"6A\",\"C1\",\"J\",\"69\"
\"\",\"\",\"approach-retreat\",\"73\",\"660071\",\"0.0-73.0\",\"\",\"\",\"3-3\",\"4394\",\"37\",\"1\",\"Training\",\"Stims/Figures/27-J-0-1.bmp\",\"fa:sha:va\",\"Right\",\"37\",\"5\",\"6\",\"6A\",\"C1\",\"J\",\"70\"
\"\",\"\",\"approach-retreat\",\"74\",\"666076\",\"0.0-74.0\",\"\",\"\",\"3-3\",\"4500\",\"40\",\"1\",\"Training\",\"Stims/Figures/84-C-20-2.bmp\",\"sa:sa:za\",\"Down\",\"40\",\"5\",\"7\",\"6A\",\"C2\",\"J\",\"71\"
\"\",\"\",\"approach-retreat\",\"75\",\"671881\",\"0.0-75.0\",\"\",\"\",\"3-3\",\"4299\",\"37\",\"1\",\"Training\",\"Stims/Figures/74-J-10-4.bmp\",\"fafa:sha\",\"Right\",\"37\",\"5\",\"8\",\"6A\",\"C1\",\"J\",\"72\"
\"\",\"\",\"approach-retreat\",\"76\",\"677763\",\"0.0-76.0\",\"\",\"\",\"3-3\",\"4379\",\"39\",\"1\",\"Training\",\"Stims/Figures/102-J-10-4.bmp\",\"va:fa:sha\",\"Left\",\"39\",\"5\",\"9\",\"6A\",\"C1\",\"J\",\"73\"
\"\",\"\",\"approach-retreat\",\"77\",\"683365\",\"0.0-77.0\",\"\",\"\",\"3-3\",\"4098\",\"40\",\"1\",\"Training\",\"Stims/Figures/57-J-0-1.bmp\",\"va:shava\",\"Up\",\"40\",\"5\",\"10\",\"6A\",\"C1\",\"J\",\"74\"
\"\",\"\",\"approach-retreat\",\"78\",\"689018\",\"0.0-78.0\",\"\",\"\",\"3-3\",\"4149\",\"38\",\"1\",\"Training\",\"Stims/Figures/84-J-0-2.bmp\",\"vafa:va\",\"Down\",\"38\",\"5\",\"11\",\"6A\",\"C1\",\"J\",\"75\"
\"\",\"\",\"approach-retreat\",\"79\",\"695605\",\"0.0-79.0\",\"\",\"\",\"3-3\",\"5082\",\"38\",\"1\",\"Training\",\"Stims/Figures/102-C-20-4.bmp\",\"za:haza\",\"Up\",\"38\",\"5\",\"12\",\"6A\",\"C2\",\"J\",\"76\"
\"\",\"\",\"approach-retreat\",\"80\",\"702128\",\"0.0-80.0\",\"\",\"\",\"3-3\",\"5017\",\"38\",\"1\",\"Training\",\"Stims/Figures/100-C-30-3.bmp\",\"zahaha\",\"Up\",\"38\",\"5\",\"13\",\"6A\",\"C2\",\"J\",\"77\"
\"\",\"\",\"approach-retreat\",\"81\",\"707921\",\"0.0-81.0\",\"\",\"\",\"3-3\",\"4288\",\"37\",\"1\",\"Training\",\"Stims/Figures/118-J-0-2.bmp\",\"fa:fa:va\",\"Right\",\"37\",\"5\",\"14\",\"6A\",\"C1\",\"J\",\"78\"
\"\",\"\",\"approach-retreat\",\"82\",\"713789\",\"0.0-82.0\",\"\",\"\",\"3-3\",\"4364\",\"38\",\"1\",\"Training\",\"Stims/Figures/27-C-30-1.bmp\",\"sasaza\",\"Up\",\"38\",\"5\",\"15\",\"6A\",\"C2\",\"J\",\"79\"
\"\",\"\",\"approach-retreat\",\"83\",\"720015\",\"0.0-83.0\",\"\",\"\",\"3-3\",\"4721\",\"37\",\"1\",\"Training\",\"Stims/Figures/118-C-20-2.bmp\",\"sa:haha\",\"Left\",\"37\",\"5\",\"16\",\"6A\",\"C2\",\"J\",\"80\"
\"\",\"\",\"approach-retreat\",\"84\",\"725744\",\"0.0-84.0\",\"\",\"\",\"3-3\",\"4224\",\"37\",\"1\",\"Training\",\"Stims/Figures/27-J-0-1.bmp\",\"fa:sha:va\",\"Right\",\"37\",\"6\",\"1\",\"6A\",\"C1\",\"J\",\"81\"
\"\",\"\",\"approach-retreat\",\"85\",\"731426\",\"0.0-85.0\",\"\",\"\",\"3-3\",\"4178\",\"40\",\"1\",\"Training\",\"Stims/Figures/74-J-10-4.bmp\",\"fafa:sha\",\"Up\",\"40\",\"6\",\"2\",\"6A\",\"C1\",\"J\",\"82\"
\"\",\"\",\"approach-retreat\",\"86\",\"737255\",\"0.0-86.0\",\"\",\"\",\"3-3\",\"4323\",\"39\",\"1\",\"Training\",\"Stims/Figures/102-J-10-4.bmp\",\"va:fa:sha\",\"Left\",\"39\",\"6\",\"3\",\"6A\",\"C1\",\"J\",\"83\"
\"\",\"\",\"approach-retreat\",\"87\",\"742907\",\"0.0-87.0\",\"\",\"\",\"3-3\",\"4148\",\"38\",\"1\",\"Training\",\"Stims/Figures/118-J-0-2.bmp\",\"fa:fa:va\",\"Down\",\"38\",\"6\",\"4\",\"6A\",\"C1\",\"J\",\"84\"
\"\",\"\",\"approach-retreat\",\"88\",\"748549\",\"0.0-88.0\",\"\",\"\",\"3-3\",\"4138\",\"40\",\"1\",\"Training\",\"Stims/Figures/128-J-10-3.bmp\",\"vashasha\",\"Up\",\"40\",\"6\",\"5\",\"6A\",\"C1\",\"J\",\"85\"
\"\",\"\",\"approach-retreat\",\"89\",\"754403\",\"0.0-89.0\",\"\",\"\",\"3-3\",\"4349\",\"37\",\"1\",\"Training\",\"Stims/Figures/100-C-30-3.bmp\",\"zahaha\",\"Left\",\"37\",\"6\",\"6\",\"6A\",\"C2\",\"J\",\"86\"
\"\",\"\",\"approach-retreat\",\"90\",\"760278\",\"0.0-90.0\",\"\",\"\",\"3-3\",\"4370\",\"38\",\"1\",\"Training\",\"Stims/Figures/128-C-30-3.bmp\",\"sa:sa:ha\",\"Up\",\"38\",\"6\",\"7\",\"6A\",\"C2\",\"J\",\"87\"
\"\",\"\",\"approach-retreat\",\"91\",\"766046\",\"0.0-91.0\",\"\",\"\",\"3-3\",\"4264\",\"39\",\"1\",\"Training\",\"Stims/Figures/57-C-30-1.bmp\",\"zasa:za\",\"Right\",\"39\",\"6\",\"8\",\"6A\",\"C2\",\"J\",\"88\"
\"\",\"\",\"approach-retreat\",\"92\",\"772151\",\"0.0-92.0\",\"\",\"\",\"3-3\",\"4599\",\"40\",\"1\",\"Training\",\"Stims/Figures/74-C-20-4.bmp\",\"zasa:ha\",\"Down\",\"40\",\"6\",\"9\",\"6A\",\"C2\",\"J\",\"89\"
\"\",\"\",\"approach-retreat\",\"93\",\"777989\",\"0.0-93.0\",\"\",\"\",\"3-3\",\"4333\",\"39\",\"1\",\"Training\",\"Stims/Figures/118-C-20-2.bmp\",\"sa:haha\",\"Right\",\"39\",\"6\",\"10\",\"6A\",\"C2\",\"J\",\"90\"
\"\",\"\",\"approach-retreat\",\"94\",\"783607\",\"0.0-94.0\",\"\",\"\",\"3-3\",\"4114\",\"37\",\"1\",\"Training\",\"Stims/Figures/84-C-20-2.bmp\",\"sa:sa:za\",\"Left\",\"37\",\"6\",\"11\",\"6A\",\"C2\",\"J\",\"91\"
\"\",\"\",\"approach-retreat\",\"95\",\"789300\",\"0.0-95.0\",\"\",\"\",\"3-3\",\"4187\",\"40\",\"1\",\"Training\",\"Stims/Figures/84-J-0-2.bmp\",\"vafa:va\",\"Up\",\"40\",\"6\",\"12\",\"6A\",\"C1\",\"J\",\"92\"
\"\",\"\",\"approach-retreat\",\"96\",\"795254\",\"0.0-96.0\",\"\",\"\",\"3-3\",\"4449\",\"40\",\"1\",\"Training\",\"Stims/Figures/102-C-20-4.bmp\",\"za:haza\",\"Down\",\"40\",\"6\",\"13\",\"6A\",\"C2\",\"J\",\"93\"
\"\",\"\",\"approach-retreat\",\"97\",\"800976\",\"0.0-97.0\",\"\",\"\",\"3-3\",\"4218\",\"37\",\"1\",\"Training\",\"Stims/Figures/100-J-10-3.bmp\",\"vafa:sha\",\"Right\",\"37\",\"6\",\"14\",\"6A\",\"C1\",\"J\",\"94\"
\"\",\"\",\"approach-retreat\",\"98\",\"806700\",\"0.0-98.0\",\"\",\"\",\"3-3\",\"4218\",\"37\",\"1\",\"Training\",\"Stims/Figures/27-C-30-1.bmp\",\"sasaza\",\"Left\",\"37\",\"6\",\"15\",\"6A\",\"C2\",\"J\",\"95\"
\"\",\"\",\"approach-retreat\",\"99\",\"812317\",\"0.0-99.0\",\"\",\"\",\"3-3\",\"4113\",\"38\",\"1\",\"Training\",\"Stims/Figures/57-J-0-1.bmp\",\"va:shava\",\"Down\",\"38\",\"6\",\"16\",\"6A\",\"C1\",\"J\",\"96\"
\"\",\"\",\"approach-retreat\",\"100\",\"818875\",\"0.0-100.0\",\"\",\"\",\"3-3\",\"5052\",\"38\",\"1\",\"Training\",\"Stims/Figures/102-J-10-4.bmp\",\"va:fa:sha\",\"Down\",\"38\",\"7\",\"1\",\"6A\",\"C1\",\"J\",\"97\"
\"\",\"\",\"approach-retreat\",\"101\",\"824677\",\"0.0-101.0\",\"\",\"\",\"3-3\",\"4298\",\"40\",\"1\",\"Training\",\"Stims/Figures/128-J-10-3.bmp\",\"vashasha\",\"Up\",\"40\",\"7\",\"2\",\"6A\",\"C1\",\"J\",\"98\"
\"\",\"\",\"approach-retreat\",\"102\",\"830390\",\"0.0-102.0\",\"\",\"\",\"3-3\",\"4208\",\"39\",\"1\",\"Training\",\"Stims/Figures/118-J-0-2.bmp\",\"fa:fa:va\",\"Left\",\"39\",\"7\",\"3\",\"6A\",\"C1\",\"J\",\"99\"
\"\",\"\",\"approach-retreat\",\"103\",\"836320\",\"0.0-103.0\",\"\",\"\",\"3-3\",\"4423\",\"38\",\"1\",\"Training\",\"Stims/Figures/57-C-30-1.bmp\",\"zasa:za\",\"Up\",\"38\",\"7\",\"4\",\"6A\",\"C2\",\"J\",\"100\"
\"\",\"\",\"approach-retreat\",\"104\",\"841913\",\"0.0-104.0\",\"\",\"\",\"3-3\",\"4088\",\"37\",\"1\",\"Training\",\"Stims/Figures/57-J-0-1.bmp\",\"va:shava\",\"Right\",\"37\",\"7\",\"5\",\"6A\",\"C1\",\"J\",\"101\"
\"\",\"\",\"approach-retreat\",\"105\",\"847609\",\"0.0-105.0\",\"\",\"\",\"3-3\",\"4193\",\"37\",\"1\",\"Training\",\"Stims/Figures/27-J-0-1.bmp\",\"fa:sha:va\",\"Right\",\"37\",\"7\",\"6\",\"6A\",\"C1\",\"J\",\"102\"
\"\",\"\",\"approach-retreat\",\"106\",\"852976\",\"0.0-106.0\",\"\",\"\",\"3-3\",\"3862\",\"39\",\"1\",\"Training\",\"Stims/Figures/74-C-20-4.bmp\",\"zasa:ha\",\"Right\",\"39\",\"7\",\"7\",\"6A\",\"C2\",\"J\",\"103\"
\"\",\"\",\"approach-retreat\",\"107\",\"858724\",\"0.0-107.0\",\"\",\"\",\"3-3\",\"4243\",\"38\",\"1\",\"Training\",\"Stims/Figures/128-C-30-3.bmp\",\"sa:sa:ha\",\"Up\",\"38\",\"7\",\"8\",\"6A\",\"C2\",\"J\",\"104\"
\"\",\"\",\"approach-retreat\",\"108\",\"864403\",\"0.0-108.0\",\"\",\"\",\"3-3\",\"4173\",\"38\",\"1\",\"Training\",\"Stims/Figures/74-J-10-4.bmp\",\"fafa:sha\",\"Down\",\"38\",\"7\",\"9\",\"6A\",\"C1\",\"J\",\"105\"
\"\",\"\",\"approach-retreat\",\"109\",\"870120\",\"0.0-109.0\",\"\",\"\",\"3-3\",\"4213\",\"39\",\"1\",\"Training\",\"Stims/Figures/84-C-20-2.bmp\",\"sa:sa:za\",\"Right\",\"39\",\"7\",\"10\",\"6A\",\"C2\",\"J\",\"106\"
\"\",\"\",\"approach-retreat\",\"110\",\"875793\",\"0.0-110.0\",\"\",\"\",\"3-3\",\"4168\",\"37\",\"1\",\"Training\",\"Stims/Figures/100-C-30-3.bmp\",\"zahaha\",\"Left\",\"37\",\"7\",\"11\",\"6A\",\"C2\",\"J\",\"107\"
\"\",\"\",\"approach-retreat\",\"111\",\"881461\",\"0.0-111.0\",\"\",\"\",\"3-3\",\"4163\",\"39\",\"1\",\"Training\",\"Stims/Figures/100-J-10-3.bmp\",\"vafa:sha\",\"Left\",\"39\",\"7\",\"12\",\"6A\",\"C1\",\"J\",\"108\"
\"\",\"\",\"approach-retreat\",\"112\",\"887174\",\"0.0-112.0\",\"\",\"\",\"3-3\",\"4210\",\"39\",\"1\",\"Training\",\"Stims/Figures/84-J-0-2.bmp\",\"vafa:va\",\"Left\",\"39\",\"7\",\"13\",\"6A\",\"C1\",\"J\",\"109\"
\"\",\"\",\"approach-retreat\",\"113\",\"892912\",\"0.0-113.0\",\"\",\"\",\"3-3\",\"4234\",\"38\",\"1\",\"Training\",\"Stims/Figures/102-C-20-4.bmp\",\"za:haza\",\"Up\",\"38\",\"7\",\"14\",\"6A\",\"C2\",\"J\",\"110\"
\"\",\"\",\"approach-retreat\",\"114\",\"898861\",\"0.0-114.0\",\"\",\"\",\"3-3\",\"4444\",\"40\",\"1\",\"Training\",\"Stims/Figures/27-C-30-1.bmp\",\"sasaza\",\"Down\",\"40\",\"7\",\"15\",\"6A\",\"C2\",\"J\",\"111\"
\"\",\"\",\"approach-retreat\",\"115\",\"904825\",\"0.0-115.0\",\"\",\"\",\"3-3\",\"4461\",\"40\",\"1\",\"Training\",\"Stims/Figures/118-C-20-2.bmp\",\"sa:haha\",\"Down\",\"40\",\"7\",\"16\",\"6A\",\"C2\",\"J\",\"112\"
\"\",\"\",\"approach-retreat\",\"116\",\"910543\",\"0.0-116.0\",\"\",\"\",\"3-3\",\"4212\",\"37\",\"1\",\"Training\",\"Stims/Figures/100-C-30-3.bmp\",\"zahaha\",\"Left\",\"37\",\"8\",\"1\",\"6A\",\"C2\",\"J\",\"113\"
\"\",\"\",\"approach-retreat\",\"117\",\"916879\",\"0.0-117.0\",\"\",\"\",\"3-3\",\"4833\",\"40\",\"1\",\"Training\",\"Stims/Figures/57-C-30-1.bmp\",\"zasa:za\",\"Down\",\"40\",\"8\",\"2\",\"6A\",\"C2\",\"J\",\"114\"
\"\",\"\",\"approach-retreat\",\"118\",\"922683\",\"0.0-118.0\",\"\",\"\",\"3-3\",\"4299\",\"39\",\"1\",\"Training\",\"Stims/Figures/84-C-20-2.bmp\",\"sa:sa:za\",\"Right\",\"39\",\"8\",\"3\",\"6A\",\"C2\",\"J\",\"115\"
\"\",\"\",\"approach-retreat\",\"119\",\"928406\",\"0.0-119.0\",\"\",\"\",\"3-3\",\"4218\",\"40\",\"1\",\"Training\",\"Stims/Figures/57-J-0-1.bmp\",\"va:shava\",\"Up\",\"40\",\"8\",\"4\",\"6A\",\"C1\",\"J\",\"116\"
\"\",\"\",\"approach-retreat\",\"120\",\"934225\",\"0.0-120.0\",\"\",\"\",\"3-3\",\"4314\",\"37\",\"1\",\"Training\",\"Stims/Figures/118-C-20-2.bmp\",\"sa:haha\",\"Left\",\"37\",\"8\",\"5\",\"6A\",\"C2\",\"J\",\"117\"
\"\",\"\",\"approach-retreat\",\"121\",\"939796\",\"0.0-121.0\",\"\",\"\",\"3-3\",\"4067\",\"40\",\"1\",\"Training\",\"Stims/Figures/118-J-0-2.bmp\",\"fa:fa:va\",\"Up\",\"40\",\"8\",\"6\",\"6A\",\"C1\",\"J\",\"118\"
\"\",\"\",\"approach-retreat\",\"122\",\"945410\",\"0.0-122.0\",\"\",\"\",\"3-3\",\"4109\",\"37\",\"1\",\"Training\",\"Stims/Figures/84-J-0-2.bmp\",\"vafa:va\",\"Right\",\"37\",\"8\",\"7\",\"6A\",\"C1\",\"J\",\"119\"
\"\",\"\",\"approach-retreat\",\"123\",\"951056\",\"0.0-123.0\",\"\",\"\",\"3-3\",\"4141\",\"40\",\"1\",\"Training\",\"Stims/Figures/74-J-10-4.bmp\",\"fafa:sha\",\"Up\",\"40\",\"8\",\"8\",\"6A\",\"C1\",\"J\",\"120\"
\"\",\"\",\"approach-retreat\",\"124\",\"956699\",\"0.0-124.0\",\"\",\"\",\"3-3\",\"4138\",\"40\",\"1\",\"Training\",\"Stims/Figures/128-J-10-3.bmp\",\"vashasha\",\"Up\",\"40\",\"8\",\"9\",\"6A\",\"C1\",\"J\",\"121\"
\"\",\"\",\"approach-retreat\",\"125\",\"962413\",\"0.0-125.0\",\"\",\"\",\"3-3\",\"4208\",\"40\",\"1\",\"Training\",\"Stims/Figures/128-C-30-3.bmp\",\"sa:sa:ha\",\"Down\",\"40\",\"8\",\"10\",\"6A\",\"C2\",\"J\",\"122\"
\"\",\"\",\"approach-retreat\",\"126\",\"968075\",\"0.0-126.0\",\"\",\"\",\"3-3\",\"4158\",\"37\",\"1\",\"Training\",\"Stims/Figures/100-J-10-3.bmp\",\"vafa:sha\",\"Right\",\"37\",\"8\",\"11\",\"6A\",\"C1\",\"J\",\"123\"
\"\",\"\",\"approach-retreat\",\"127\",\"973793\",\"0.0-127.0\",\"\",\"\",\"3-3\",\"4214\",\"37\",\"1\",\"Training\",\"Stims/Figures/27-C-30-1.bmp\",\"sasaza\",\"Left\",\"37\",\"8\",\"12\",\"6A\",\"C2\",\"J\",\"124\"
\"\",\"\",\"approach-retreat\",\"128\",\"979501\",\"0.0-128.0\",\"\",\"\",\"3-3\",\"4204\",\"38\",\"1\",\"Training\",\"Stims/Figures/27-J-0-1.bmp\",\"fa:sha:va\",\"Down\",\"38\",\"8\",\"13\",\"6A\",\"C1\",\"J\",\"125\"
\"\",\"\",\"approach-retreat\",\"129\",\"985290\",\"0.0-129.0\",\"\",\"\",\"3-3\",\"4284\",\"37\",\"1\",\"Training\",\"Stims/Figures/102-C-20-4.bmp\",\"za:haza\",\"Left\",\"37\",\"8\",\"14\",\"6A\",\"C2\",\"J\",\"126\"
\"\",\"\",\"approach-retreat\",\"130\",\"991103\",\"0.0-130.0\",\"\",\"\",\"3-3\",\"4308\",\"39\",\"1\",\"Training\",\"Stims/Figures/74-C-20-4.bmp\",\"zasa:ha\",\"Right\",\"39\",\"8\",\"15\",\"6A\",\"C2\",\"J\",\"127\"
\"\",\"\",\"approach-retreat\",\"131\",\"996666\",\"0.0-131.0\",\"\",\"\",\"3-3\",\"4057\",\"38\",\"1\",\"Training\",\"Stims/Figures/102-J-10-4.bmp\",\"va:fa:sha\",\"Down\",\"38\",\"8\",\"16\",\"6A\",\"C1\",\"J\",\"128\"
\"\",\"\",\"approach-retreat\",\"132\",\"1002952\",\"0.0-132.0\",\"\",\"\",\"3-3\",\"4782\",\"39\",\"1\",\"Training\",\"Stims/Figures/102-J-10-4.bmp\",\"va:fa:sha\",\"Left\",\"39\",\"9\",\"1\",\"6A\",\"C1\",\"J\",\"129\"
\"\",\"\",\"approach-retreat\",\"133\",\"1008508\",\"0.0-133.0\",\"\",\"\",\"3-3\",\"4052\",\"38\",\"1\",\"Training\",\"Stims/Figures/84-J-0-2.bmp\",\"vafa:va\",\"Down\",\"38\",\"9\",\"2\",\"6A\",\"C1\",\"J\",\"130\"
\"\",\"\",\"approach-retreat\",\"134\",\"1014422\",\"0.0-134.0\",\"\",\"\",\"3-3\",\"4411\",\"38\",\"1\",\"Training\",\"Stims/Figures/84-C-20-2.bmp\",\"sa:sa:za\",\"Up\",\"38\",\"9\",\"3\",\"6A\",\"C2\",\"J\",\"131\"
\"\",\"\",\"approach-retreat\",\"135\",\"1020175\",\"0.0-135.0\",\"\",\"\",\"3-3\",\"4248\",\"40\",\"1\",\"Training\",\"Stims/Figures/57-J-0-1.bmp\",\"va:shava\",\"Up\",\"40\",\"9\",\"4\",\"6A\",\"C1\",\"J\",\"132\"
\"\",\"\",\"approach-retreat\",\"136\",\"1026216\",\"0.0-136.0\",\"\",\"\",\"3-3\",\"4535\",\"37\",\"1\",\"Training\",\"Stims/Figures/57-C-30-1.bmp\",\"zasa:za\",\"Left\",\"37\",\"9\",\"5\",\"6A\",\"C2\",\"J\",\"133\"
\"\",\"\",\"approach-retreat\",\"137\",\"1031898\",\"0.0-137.0\",\"\",\"\",\"3-3\",\"4178\",\"39\",\"1\",\"Training\",\"Stims/Figures/27-J-0-1.bmp\",\"fa:sha:va\",\"Left\",\"39\",\"9\",\"6\",\"6A\",\"C1\",\"J\",\"134\"
\"\",\"\",\"approach-retreat\",\"138\",\"1038179\",\"0.0-138.0\",\"\",\"\",\"3-3\",\"4776\",\"39\",\"1\",\"Training\",\"Stims/Figures/100-C-30-3.bmp\",\"zahaha\",\"Right\",\"39\",\"9\",\"7\",\"6A\",\"C2\",\"J\",\"135\"
\"\",\"\",\"approach-retreat\",\"139\",\"1043857\",\"0.0-139.0\",\"\",\"\",\"3-3\",\"4173\",\"38\",\"1\",\"Training\",\"Stims/Figures/74-J-10-4.bmp\",\"fafa:sha\",\"Down\",\"38\",\"9\",\"8\",\"6A\",\"C1\",\"J\",\"136\"
\"\",\"\",\"approach-retreat\",\"140\",\"1049635\",\"0.0-140.0\",\"\",\"\",\"3-3\",\"4273\",\"37\",\"1\",\"Training\",\"Stims/Figures/128-J-10-3.bmp\",\"vashasha\",\"Right\",\"37\",\"9\",\"9\",\"6A\",\"C1\",\"J\",\"137\"
\"\",\"\",\"approach-retreat\",\"141\",\"1055810\",\"0.0-141.0\",\"\",\"\",\"3-3\",\"4671\",\"37\",\"1\",\"Training\",\"Stims/Figures/74-C-20-4.bmp\",\"zasa:ha\",\"Left\",\"37\",\"9\",\"10\",\"6A\",\"C2\",\"J\",\"138\"
\"\",\"\",\"approach-retreat\",\"142\",\"1061730\",\"0.0-142.0\",\"\",\"\",\"3-3\",\"4415\",\"39\",\"1\",\"Training\",\"Stims/Figures/118-C-20-2.bmp\",\"sa:haha\",\"Right\",\"39\",\"9\",\"11\",\"6A\",\"C2\",\"J\",\"139\"
\"\",\"\",\"approach-retreat\",\"143\",\"1068519\",\"0.0-143.0\",\"\",\"\",\"3-3\",\"5285\",\"39\",\"1\",\"Training\",\"Stims/Figures/102-C-20-4.bmp\",\"za:haza\",\"Right\",\"39\",\"9\",\"12\",\"6A\",\"C2\",\"J\",\"140\"
\"\",\"\",\"approach-retreat\",\"144\",\"1074206\",\"0.0-144.0\",\"\",\"\",\"3-3\",\"4182\",\"40\",\"1\",\"Training\",\"Stims/Figures/100-J-10-3.bmp\",\"vafa:sha\",\"Up\",\"40\",\"9\",\"13\",\"6A\",\"C1\",\"J\",\"141\"
\"\",\"\",\"approach-retreat\",\"145\",\"1079798\",\"0.0-145.0\",\"\",\"\",\"3-3\",\"4087\",\"40\",\"1\",\"Training\",\"Stims/Figures/27-C-30-1.bmp\",\"sasaza\",\"Down\",\"40\",\"9\",\"14\",\"6A\",\"C2\",\"J\",\"142\"
\"\",\"\",\"approach-retreat\",\"146\",\"1085370\",\"0.0-146.0\",\"\",\"\",\"3-3\",\"4067\",\"40\",\"1\",\"Training\",\"Stims/Figures/128-C-30-3.bmp\",\"sa:sa:ha\",\"Down\",\"40\",\"9\",\"15\",\"6A\",\"C2\",\"J\",\"143\"
\"\",\"\",\"approach-retreat\",\"147\",\"1090967\",\"0.0-147.0\",\"\",\"\",\"3-3\",\"4093\",\"40\",\"1\",\"Training\",\"Stims/Figures/118-J-0-2.bmp\",\"fa:fa:va\",\"Up\",\"40\",\"9\",\"16\",\"6A\",\"C1\",\"J\",\"144\"
\"18900\",\"\",\"instructions\",\"148\",\"1109867\",\"0.0-148.0\",\"[{\"\"page_index\"\":0,\"\"viewing_time\"\":18900}]\",\"\",\"\",\"\",\"\",\"\",\"\",\"\",\"\",\"\",\"\",\"\",\"\",\"\",\"\",\"\",\"\"
\"\",\"\",\"approach-retreat\",\"149\",\"1116407\",\"0.0-149.0\",\"\",\"\",\"3-3\",\"5036\",\"40\",\"0\",\"Testing\",\"Stims/Figures/57-C-30-1.bmp\",\"zasa:za\",\"Up\",\"38\",\"1\",\"1\",\"6A\",\"C2\",\"J\",\"1\"
\"\",\"\",\"approach-retreat\",\"150\",\"1122899\",\"0.0-150.0\",\"\",\"\",\"3-3\",\"4988\",\"40\",\"0\",\"Testing\",\"Stims/Figures/139-J-0-2.bmp\",\"fafasha\",\"Down\",\"38\",\"1\",\"2\",\"6A\",\"C1\",\"J\",\"2\"
\"\",\"\",\"approach-retreat\",\"151\",\"1128788\",\"0.0-151.0\",\"\",\"\",\"3-3\",\"4385\",\"39\",\"1\",\"Testing\",\"Stims/Figures/27-J-0-1.bmp\",\"fa:sha:va\",\"Left\",\"39\",\"1\",\"3\",\"6A\",\"C1\",\"J\",\"3\"
\"\",\"\",\"approach-retreat\",\"152\",\"1134892\",\"0.0-152.0\",\"\",\"\",\"3-3\",\"4602\",\"40\",\"0\",\"Testing\",\"Stims/Figures/84-J-0-2.bmp\",\"vafa:va\",\"Down\",\"38\",\"1\",\"4\",\"6A\",\"C1\",\"J\",\"4\"
\"\",\"\",\"approach-retreat\",\"153\",\"1140792\",\"0.0-153.0\",\"\",\"\",\"3-3\",\"4396\",\"37\",\"1\",\"Testing\",\"Stims/Figures/7-C-20-4.bmp\",\"sahaza\",\"Left\",\"37\",\"1\",\"5\",\"6A\",\"C2\",\"J\",\"5\"
\"\",\"\",\"approach-retreat\",\"154\",\"1146545\",\"0.0-154.0\",\"\",\"\",\"3-3\",\"4249\",\"37\",\"0\",\"Testing\",\"Stims/Figures/7-J-10-4.bmp\",\"va:sha:sha\",\"Left\",\"39\",\"1\",\"6\",\"6A\",\"C1\",\"J\",\"6\"
\"\",\"\",\"approach-retreat\",\"155\",\"1153127\",\"0.0-155.0\",\"\",\"\",\"3-3\",\"5078\",\"38\",\"0\",\"Testing\",\"Stims/Figures/74-C-20-4.bmp\",\"zasa:ha\",\"Down\",\"40\",\"1\",\"7\",\"6A\",\"C2\",\"J\",\"7\"
\"\",\"\",\"approach-retreat\",\"156\",\"1158890\",\"0.0-156.0\",\"\",\"\",\"3-3\",\"4259\",\"40\",\"0\",\"Testing\",\"Stims/Figures/139-C-20-2.bmp\",\"za:sa:za\",\"Up\",\"38\",\"1\",\"8\",\"6A\",\"C2\",\"J\",\"8\"
\"\",\"\",\"approach-retreat\",\"157\",\"1165342\",\"0.0-157.0\",\"\",\"\",\"3-3\",\"4948\",\"37\",\"0\",\"Testing\",\"Stims/Figures/128-C-30-3.bmp\",\"sa:sa:ha\",\"Right\",\"39\",\"1\",\"9\",\"6A\",\"C2\",\"J\",\"9\"
\"\",\"\",\"approach-retreat\",\"158\",\"1171130\",\"0.0-158.0\",\"\",\"\",\"3-3\",\"4284\",\"37\",\"1\",\"Testing\",\"Stims/Figures/74-J-10-4.bmp\",\"fafa:sha\",\"Right\",\"37\",\"1\",\"10\",\"6A\",\"C1\",\"J\",\"10\"
\"\",\"\",\"approach-retreat\",\"159\",\"1176973\",\"0.0-159.0\",\"\",\"\",\"3-3\",\"4338\",\"40\",\"0\",\"Testing\",\"Stims/Figures/118-J-0-2.bmp\",\"fa:fa:va\",\"Down\",\"38\",\"1\",\"11\",\"6A\",\"C1\",\"J\",\"11\"
\"\",\"\",\"approach-retreat\",\"160\",\"1182631\",\"0.0-160.0\",\"\",\"\",\"3-3\",\"4154\",\"38\",\"0\",\"Testing\",\"Stims/Figures/27-C-30-1.bmp\",\"sasaza\",\"Down\",\"40\",\"1\",\"12\",\"6A\",\"C2\",\"J\",\"12\"
\"\",\"\",\"approach-retreat\",\"161\",\"1188335\",\"0.0-161.0\",\"\",\"\",\"3-3\",\"4199\",\"37\",\"1\",\"Testing\",\"Stims/Figures/100-J-10-3.bmp\",\"vafa:sha\",\"Right\",\"37\",\"1\",\"13\",\"6A\",\"C1\",\"J\",\"13\"
\"\",\"\",\"approach-retreat\",\"162\",\"1193992\",\"0.0-162.0\",\"\",\"\",\"3-3\",\"4155\",\"37\",\"1\",\"Testing\",\"Stims/Figures/44-J-10-3.bmp\",\"fashasha\",\"Right\",\"37\",\"1\",\"14\",\"6A\",\"C1\",\"J\",\"14\"
\"\",\"\",\"approach-retreat\",\"163\",\"1199906\",\"0.0-163.0\",\"\",\"\",\"3-3\",\"4410\",\"39\",\"0\",\"Testing\",\"Stims/Figures/100-C-30-3.bmp\",\"zahaha\",\"Left\",\"37\",\"1\",\"15\",\"6A\",\"C2\",\"J\",\"15\"
\"\",\"\",\"approach-retreat\",\"164\",\"1206397\",\"0.0-164.0\",\"\",\"\",\"3-3\",\"4988\",\"38\",\"0\",\"Testing\",\"Stims/Figures/128-J-10-3.bmp\",\"vashasha\",\"Up\",\"40\",\"1\",\"16\",\"6A\",\"C1\",\"J\",\"16\"
\"\",\"\",\"approach-retreat\",\"165\",\"1214080\",\"0.0-165.0\",\"\",\"\",\"3-3\",\"6178\",\"39\",\"0\",\"Testing\",\"Stims/Figures/44-C-30-3.bmp\",\"sa:haza\",\"Left\",\"37\",\"1\",\"17\",\"6A\",\"C2\",\"J\",\"17\"
\"\",\"\",\"approach-retreat\",\"166\",\"1220101\",\"0.0-166.0\",\"\",\"\",\"3-3\",\"4517\",\"39\",\"1\",\"Testing\",\"Stims/Figures/118-C-20-2.bmp\",\"sa:haha\",\"Right\",\"39\",\"1\",\"18\",\"6A\",\"C2\",\"J\",\"18\"
\"\",\"\",\"approach-retreat\",\"167\",\"1226024\",\"0.0-167.0\",\"\",\"\",\"3-3\",\"4415\",\"38\",\"1\",\"Testing\",\"Stims/Figures/93-C-30-1.bmp\",\"za:saha\",\"Up\",\"38\",\"1\",\"19\",\"6A\",\"C2\",\"J\",\"19\"
\"\",\"\",\"approach-retreat\",\"168\",\"1231949\",\"0.0-168.0\",\"\",\"\",\"3-3\",\"4420\",\"40\",\"1\",\"Testing\",\"Stims/Figures/102-J-10-4.bmp\",\"va:fa:sha\",\"Up\",\"40\",\"1\",\"20\",\"6A\",\"C1\",\"J\",\"20\"
\"\",\"\",\"approach-retreat\",\"169\",\"1237685\",\"0.0-169.0\",\"\",\"\",\"3-3\",\"4234\",\"37\",\"0\",\"Testing\",\"Stims/Figures/93-J-0-1.bmp\",\"fa:fava\",\"Left\",\"39\",\"1\",\"21\",\"6A\",\"C1\",\"J\",\"21\"
\"\",\"\",\"approach-retreat\",\"170\",\"1243977\",\"0.0-170.0\",\"\",\"\",\"3-3\",\"4787\",\"39\",\"1\",\"Testing\",\"Stims/Figures/84-C-20-2.bmp\",\"sa:sa:za\",\"Right\",\"39\",\"1\",\"22\",\"6A\",\"C2\",\"J\",\"22\"
\"\",\"\",\"approach-retreat\",\"171\",\"1249881\",\"0.0-171.0\",\"\",\"\",\"3-3\",\"4400\",\"38\",\"0\",\"Testing\",\"Stims/Figures/57-J-0-1.bmp\",\"va:shava\",\"Up\",\"40\",\"1\",\"23\",\"6A\",\"C1\",\"J\",\"23\"
\"\",\"\",\"approach-retreat\",\"172\",\"1255664\",\"0.0-172.0\",\"\",\"\",\"3-3\",\"4279\",\"40\",\"1\",\"Testing\",\"Stims/Figures/102-C-20-4.bmp\",\"za:haza\",\"Down\",\"40\",\"1\",\"24\",\"6A\",\"C2\",\"J\",\"24\"
\"\",\"\",\"approach-retreat\",\"173\",\"1262015\",\"0.0-173.0\",\"\",\"\",\"3-3\",\"4847\",\"40\",\"0\",\"Testing\",\"Stims/Figures/84-C-20-2.bmp\",\"sa:sa:za\",\"Up\",\"38\",\"2\",\"1\",\"6A\",\"C2\",\"J\",\"25\"
\"\",\"\",\"approach-retreat\",\"174\",\"1267814\",\"0.0-174.0\",\"\",\"\",\"3-3\",\"4296\",\"38\",\"0\",\"Testing\",\"Stims/Figures/118-J-0-2.bmp\",\"fa:fa:va\",\"Up\",\"40\",\"2\",\"2\",\"6A\",\"C1\",\"J\",\"26\"
\"\",\"\",\"approach-retreat\",\"175\",\"1274350\",\"0.0-175.0\",\"\",\"\",\"3-3\",\"5032\",\"40\",\"1\",\"Testing\",\"Stims/Figures/102-C-20-4.bmp\",\"za:haza\",\"Down\",\"40\",\"2\",\"3\",\"6A\",\"C2\",\"J\",\"27\"
\"\",\"\",\"approach-retreat\",\"176\",\"1280225\",\"0.0-176.0\",\"\",\"\",\"3-3\",\"4371\",\"39\",\"0\",\"Testing\",\"Stims/Figures/44-C-30-3.bmp\",\"sa:haza\",\"Left\",\"37\",\"2\",\"4\",\"6A\",\"C2\",\"J\",\"28\"
\"\",\"\",\"approach-retreat\",\"177\",\"1286395\",\"0.0-177.0\",\"\",\"\",\"3-3\",\"4667\",\"40\",\"1\",\"Testing\",\"Stims/Figures/128-C-30-3.bmp\",\"sa:sa:ha\",\"Down\",\"40\",\"2\",\"5\",\"6A\",\"C2\",\"J\",\"29\"
\"\",\"\",\"approach-retreat\",\"178\",\"1292309\",\"0.0-178.0\",\"\",\"\",\"3-3\",\"4410\",\"39\",\"0\",\"Testing\",\"Stims/Figures/74-C-20-4.bmp\",\"zasa:ha\",\"Left\",\"37\",\"2\",\"6\",\"6A\",\"C2\",\"J\",\"30\"
\"\",\"\",\"approach-retreat\",\"179\",\"1298550\",\"0.0-179.0\",\"\",\"\",\"3-3\",\"4737\",\"37\",\"0\",\"Testing\",\"Stims/Figures/44-J-10-3.bmp\",\"fashasha\",\"Left\",\"39\",\"2\",\"7\",\"6A\",\"C1\",\"J\",\"31\"
\"\",\"\",\"approach-retreat\",\"180\",\"1304344\",\"0.0-180.0\",\"\",\"\",\"3-3\",\"4291\",\"40\",\"0\",\"Testing\",\"Stims/Figures/93-J-0-1.bmp\",\"fa:fava\",\"Down\",\"38\",\"2\",\"8\",\"6A\",\"C1\",\"J\",\"32\"
\"\",\"\",\"approach-retreat\",\"181\",\"1323598\",\"0.0-181.0\",\"\",\"\",\"3-3\",\"17750\",\"37\",\"0\",\"Testing\",\"Stims/Figures/100-J-10-3.bmp\",\"vafa:sha\",\"Left\",\"39\",\"2\",\"9\",\"6A\",\"C1\",\"J\",\"33\"
\"\",\"\",\"approach-retreat\",\"182\",\"1330953\",\"0.0-182.0\",\"\",\"\",\"3-3\",\"5852\",\"38\",\"1\",\"Testing\",\"Stims/Figures/57-C-30-1.bmp\",\"zasa:za\",\"Up\",\"38\",\"2\",\"10\",\"6A\",\"C2\",\"J\",\"34\"
\"\",\"\",\"approach-retreat\",\"183\",\"1337119\",\"0.0-183.0\",\"\",\"\",\"3-3\",\"4661\",\"39\",\"0\",\"Testing\",\"Stims/Figures/84-J-0-2.bmp\",\"vafa:va\",\"Right\",\"37\",\"2\",\"11\",\"6A\",\"C1\",\"J\",\"35\"
\"\",\"\",\"approach-retreat\",\"184\",\"1343735\",\"0.0-184.0\",\"\",\"\",\"3-3\",\"5114\",\"40\",\"1\",\"Testing\",\"Stims/Figures/118-C-20-2.bmp\",\"sa:haha\",\"Down\",\"40\",\"2\",\"12\",\"6A\",\"C2\",\"J\",\"36\"
\"\",\"\",\"approach-retreat\",\"185\",\"1349825\",\"0.0-185.0\",\"\",\"\",\"3-3\",\"4586\",\"39\",\"0\",\"Testing\",\"Stims/Figures/57-J-0-1.bmp\",\"va:shava\",\"Right\",\"37\",\"2\",\"13\",\"6A\",\"C1\",\"J\",\"37\"
\"\",\"\",\"approach-retreat\",\"186\",\"1355538\",\"0.0-186.0\",\"\",\"\",\"3-3\",\"4210\",\"37\",\"0\",\"Testing\",\"Stims/Figures/93-C-30-1.bmp\",\"za:saha\",\"Right\",\"39\",\"2\",\"14\",\"6A\",\"C2\",\"J\",\"38\"
\"\",\"\",\"approach-retreat\",\"187\",\"1361484\",\"0.0-187.0\",\"\",\"\",\"3-3\",\"4441\",\"39\",\"1\",\"Testing\",\"Stims/Figures/27-C-30-1.bmp\",\"sasaza\",\"Right\",\"39\",\"2\",\"15\",\"6A\",\"C2\",\"J\",\"39\"
\"\",\"\",\"approach-retreat\",\"188\",\"1367176\",\"0.0-188.0\",\"\",\"\",\"3-3\",\"4188\",\"38\",\"1\",\"Testing\",\"Stims/Figures/102-J-10-4.bmp\",\"va:fa:sha\",\"Down\",\"38\",\"2\",\"16\",\"6A\",\"C1\",\"J\",\"40\"
\"\",\"\",\"approach-retreat\",\"189\",\"1373045\",\"0.0-189.0\",\"\",\"\",\"3-3\",\"4365\",\"38\",\"1\",\"Testing\",\"Stims/Figures/7-C-20-4.bmp\",\"sahaza\",\"Up\",\"38\",\"2\",\"17\",\"6A\",\"C2\",\"J\",\"41\"
\"\",\"\",\"approach-retreat\",\"190\",\"1378707\",\"0.0-190.0\",\"\",\"\",\"3-3\",\"4158\",\"38\",\"0\",\"Testing\",\"Stims/Figures/139-C-20-2.bmp\",\"za:sa:za\",\"Down\",\"40\",\"2\",\"18\",\"6A\",\"C2\",\"J\",\"42\"
\"\",\"\",\"approach-retreat\",\"191\",\"1384375\",\"0.0-191.0\",\"\",\"\",\"3-3\",\"4164\",\"37\",\"0\",\"Testing\",\"Stims/Figures/100-C-30-3.bmp\",\"zahaha\",\"Right\",\"39\",\"2\",\"19\",\"6A\",\"C2\",\"J\",\"43\"
\"\",\"\",\"approach-retreat\",\"192\",\"1390068\",\"0.0-192.0\",\"\",\"\",\"3-3\",\"4190\",\"40\",\"1\",\"Testing\",\"Stims/Figures/74-J-10-4.bmp\",\"fafa:sha\",\"Up\",\"40\",\"2\",\"20\",\"6A\",\"C1\",\"J\",\"44\"
\"\",\"\",\"approach-retreat\",\"193\",\"1396243\",\"0.0-193.0\",\"\",\"\",\"3-3\",\"4671\",\"37\",\"0\",\"Testing\",\"Stims/Figures/27-J-0-1.bmp\",\"fa:sha:va\",\"Left\",\"39\",\"2\",\"21\",\"6A\",\"C1\",\"J\",\"45\"
\"\",\"\",\"approach-retreat\",\"194\",\"1401850\",\"0.0-194.0\",\"\",\"\",\"3-3\",\"4104\",\"37\",\"0\",\"Testing\",\"Stims/Figures/139-J-0-2.bmp\",\"fafasha\",\"Left\",\"39\",\"2\",\"22\",\"6A\",\"C1\",\"J\",\"46\"
\"\",\"\",\"approach-retreat\",\"195\",\"1407499\",\"0.0-195.0\",\"\",\"\",\"3-3\",\"4144\",\"38\",\"0\",\"Testing\",\"Stims/Figures/128-J-10-3.bmp\",\"vashasha\",\"Up\",\"40\",\"2\",\"23\",\"6A\",\"C1\",\"J\",\"47\"
\"\",\"\",\"approach-retreat\",\"196\",\"1413242\",\"0.0-196.0\",\"\",\"\",\"3-3\",\"4239\",\"39\",\"0\",\"Testing\",\"Stims/Figures/7-J-10-4.bmp\",\"va:sha:sha\",\"Right\",\"37\",\"2\",\"24\",\"6A\",\"C1\",\"J\",\"48\"
\"\",\"\",\"approach-retreat\",\"197\",\"1419011\",\"0.0-197.0\",\"\",\"\",\"3-3\",\"4264\",\"40\",\"1\",\"Testing\",\"Stims/Figures/27-J-0-1.bmp\",\"fa:sha:va\",\"Up\",\"40\",\"3\",\"1\",\"6A\",\"C1\",\"J\",\"49\"
\"\",\"\",\"approach-retreat\",\"198\",\"1424994\",\"0.0-198.0\",\"\",\"\",\"3-3\",\"4481\",\"39\",\"1\",\"Testing\",\"Stims/Figures/27-C-30-1.bmp\",\"sasaza\",\"Right\",\"39\",\"3\",\"2\",\"6A\",\"C2\",\"J\",\"50\"
\"\",\"\",\"approach-retreat\",\"199\",\"1431990\",\"0.0-199.0\",\"\",\"\",\"3-3\",\"5490\",\"38\",\"0\",\"Testing\",\"Stims/Figures/100-C-30-3.bmp\",\"zahaha\",\"Down\",\"40\",\"3\",\"3\",\"6A\",\"C2\",\"J\",\"51\"
\"\",\"\",\"approach-retreat\",\"200\",\"1438596\",\"0.0-200.0\",\"\",\"\",\"3-3\",\"5102\",\"40\",\"0\",\"Testing\",\"Stims/Figures/84-C-20-2.bmp\",\"sa:sa:za\",\"Up\",\"38\",\"3\",\"4\",\"6A\",\"C2\",\"J\",\"52\"
\"\",\"\",\"approach-retreat\",\"201\",\"1444621\",\"0.0-201.0\",\"\",\"\",\"3-3\",\"4521\",\"39\",\"0\",\"Testing\",\"Stims/Figures/44-C-30-3.bmp\",\"sa:haza\",\"Left\",\"37\",\"3\",\"5\",\"6A\",\"C2\",\"J\",\"53\"
\"\",\"\",\"approach-retreat\",\"202\",\"1451177\",\"0.0-202.0\",\"\",\"\",\"3-3\",\"5054\",\"40\",\"0\",\"Testing\",\"Stims/Figures/74-C-20-4.bmp\",\"zasa:ha\",\"Up\",\"38\",\"3\",\"6\",\"6A\",\"C2\",\"J\",\"54\"
\"\",\"\",\"approach-retreat\",\"203\",\"1457238\",\"0.0-203.0\",\"\",\"\",\"3-3\",\"4556\",\"40\",\"1\",\"Testing\",\"Stims/Figures/128-C-30-3.bmp\",\"sa:sa:ha\",\"Down\",\"40\",\"3\",\"7\",\"6A\",\"C2\",\"J\",\"55\"
\"\",\"\",\"approach-retreat\",\"204\",\"1462834\",\"0.0-204.0\",\"\",\"\",\"3-3\",\"4094\",\"40\",\"0\",\"Testing\",\"Stims/Figures/139-C-20-2.bmp\",\"za:sa:za\",\"Up\",\"38\",\"3\",\"8\",\"6A\",\"C2\",\"J\",\"56\"
\"\",\"\",\"approach-retreat\",\"205\",\"1468533\",\"0.0-205.0\",\"\",\"\",\"3-3\",\"4195\",\"39\",\"0\",\"Testing\",\"Stims/Figures/84-J-0-2.bmp\",\"vafa:va\",\"Right\",\"37\",\"3\",\"9\",\"6A\",\"C1\",\"J\",\"57\"
\"\",\"\",\"approach-retreat\",\"206\",\"1474362\",\"0.0-206.0\",\"\",\"\",\"3-3\",\"4325\",\"38\",\"0\",\"Testing\",\"Stims/Figures/93-J-0-1.bmp\",\"fa:fava\",\"Up\",\"40\",\"3\",\"10\",\"6A\",\"C1\",\"J\",\"58\"
\"\",\"\",\"approach-retreat\",\"207\",\"1480131\",\"0.0-207.0\",\"\",\"\",\"3-3\",\"4266\",\"37\",\"0\",\"Testing\",\"Stims/Figures/100-J-10-3.bmp\",\"vafa:sha\",\"Left\",\"39\",\"3\",\"11\",\"6A\",\"C1\",\"J\",\"59\"
\"\",\"\",\"approach-retreat\",\"208\",\"1485818\",\"0.0-208.0\",\"\",\"\",\"3-3\",\"4185\",\"38\",\"0\",\"Testing\",\"Stims/Figures/102-C-20-4.bmp\",\"za:haza\",\"Down\",\"40\",\"3\",\"12\",\"6A\",\"C2\",\"J\",\"60\"
\"\",\"\",\"approach-retreat\",\"209\",\"1491522\",\"0.0-209.0\",\"\",\"\",\"3-3\",\"4200\",\"37\",\"0\",\"Testing\",\"Stims/Figures/139-J-0-2.bmp\",\"fafasha\",\"Left\",\"39\",\"3\",\"13\",\"6A\",\"C1\",\"J\",\"61\"
\"\",\"\",\"approach-retreat\",\"210\",\"1497410\",\"0.0-210.0\",\"\",\"\",\"3-3\",\"4384\",\"37\",\"1\",\"Testing\",\"Stims/Figures/118-C-20-2.bmp\",\"sa:haha\",\"Left\",\"37\",\"3\",\"14\",\"6A\",\"C2\",\"J\",\"62\"
\"\",\"\",\"approach-retreat\",\"211\",\"1503068\",\"0.0-211.0\",\"\",\"\",\"3-3\",\"4155\",\"37\",\"0\",\"Testing\",\"Stims/Figures/102-J-10-4.bmp\",\"va:fa:sha\",\"Left\",\"39\",\"3\",\"15\",\"6A\",\"C1\",\"J\",\"63\"
\"\",\"\",\"approach-retreat\",\"212\",\"1509073\",\"0.0-212.0\",\"\",\"\",\"3-3\",\"4501\",\"37\",\"0\",\"Testing\",\"Stims/Figures/7-C-20-4.bmp\",\"sahaza\",\"Right\",\"39\",\"3\",\"16\",\"6A\",\"C2\",\"J\",\"64\"
\"\",\"\",\"approach-retreat\",\"213\",\"1514776\",\"0.0-213.0\",\"\",\"\",\"3-3\",\"4199\",\"40\",\"1\",\"Testing\",\"Stims/Figures/93-C-30-1.bmp\",\"za:saha\",\"Down\",\"40\",\"3\",\"17\",\"6A\",\"C2\",\"J\",\"65\"
\"\",\"\",\"approach-retreat\",\"214\",\"1520479\",\"0.0-214.0\",\"\",\"\",\"3-3\",\"4200\",\"37\",\"0\",\"Testing\",\"Stims/Figures/128-J-10-3.bmp\",\"vashasha\",\"Left\",\"39\",\"3\",\"18\",\"6A\",\"C1\",\"J\",\"66\"
\"\",\"\",\"approach-retreat\",\"215\",\"1526469\",\"0.0-215.0\",\"\",\"\",\"3-3\",\"4486\",\"39\",\"0\",\"Testing\",\"Stims/Figures/118-J-0-2.bmp\",\"fa:fa:va\",\"Right\",\"37\",\"3\",\"19\",\"6A\",\"C1\",\"J\",\"67\"
\"\",\"\",\"approach-retreat\",\"216\",\"1533177\",\"0.0-216.0\",\"\",\"\",\"3-3\",\"5204\",\"38\",\"0\",\"Testing\",\"Stims/Figures/44-J-10-3.bmp\",\"fashasha\",\"Up\",\"40\",\"3\",\"20\",\"6A\",\"C1\",\"J\",\"68\"
\"\",\"\",\"approach-retreat\",\"217\",\"1538869\",\"0.0-217.0\",\"\",\"\",\"3-3\",\"4190\",\"38\",\"1\",\"Testing\",\"Stims/Figures/74-J-10-4.bmp\",\"fafa:sha\",\"Down\",\"38\",\"3\",\"21\",\"6A\",\"C1\",\"J\",\"69\"
\"\",\"\",\"approach-retreat\",\"218\",\"1544612\",\"0.0-218.0\",\"\",\"\",\"3-3\",\"4237\",\"40\",\"0\",\"Testing\",\"Stims/Figures/7-J-10-4.bmp\",\"va:sha:sha\",\"Down\",\"38\",\"3\",\"22\",\"6A\",\"C1\",\"J\",\"70\"
\"\",\"\",\"approach-retreat\",\"219\",\"1550235\",\"0.0-219.0\",\"\",\"\",\"3-3\",\"4119\",\"37\",\"0\",\"Testing\",\"Stims/Figures/57-C-30-1.bmp\",\"zasa:za\",\"Right\",\"39\",\"3\",\"23\",\"6A\",\"C2\",\"J\",\"71\"
\"\",\"\",\"approach-retreat\",\"220\",\"1555978\",\"0.0-220.0\",\"\",\"\",\"3-3\",\"4240\",\"39\",\"0\",\"Testing\",\"Stims/Figures/57-J-0-1.bmp\",\"va:shava\",\"Right\",\"37\",\"3\",\"24\",\"6A\",\"C1\",\"J\",\"72\"
\"\",\"\",\"approach-retreat\",\"221\",\"1562123\",\"0.0-221.0\",\"\",\"\",\"3-3\",\"4642\",\"38\",\"0\",\"Testing\",\"Stims/Figures/128-J-10-3.bmp\",\"vashasha\",\"Up\",\"40\",\"4\",\"1\",\"6A\",\"C1\",\"J\",\"73\"
\"\",\"\",\"approach-retreat\",\"222\",\"1567860\",\"0.0-222.0\",\"\",\"\",\"3-3\",\"4233\",\"37\",\"1\",\"Testing\",\"Stims/Figures/27-C-30-1.bmp\",\"sasaza\",\"Left\",\"37\",\"4\",\"2\",\"6A\",\"C2\",\"J\",\"74\"
\"\",\"\",\"approach-retreat\",\"223\",\"1573544\",\"0.0-223.0\",\"\",\"\",\"3-3\",\"4179\",\"38\",\"0\",\"Testing\",\"Stims/Figures/57-C-30-1.bmp\",\"zasa:za\",\"Down\",\"40\",\"4\",\"3\",\"6A\",\"C2\",\"J\",\"75\"
\"\",\"\",\"approach-retreat\",\"224\",\"1579929\",\"0.0-224.0\",\"\",\"\",\"3-3\",\"4882\",\"37\",\"1\",\"Testing\",\"Stims/Figures/100-J-10-3.bmp\",\"vafa:sha\",\"Right\",\"37\",\"4\",\"4\",\"6A\",\"C1\",\"J\",\"76\"
\"\",\"\",\"approach-retreat\",\"225\",\"1585597\",\"0.0-225.0\",\"\",\"\",\"3-3\",\"4165\",\"37\",\"0\",\"Testing\",\"Stims/Figures/74-C-20-4.bmp\",\"zasa:ha\",\"Right\",\"39\",\"4\",\"5\",\"6A\",\"C2\",\"J\",\"77\"
\"\",\"\",\"approach-retreat\",\"226\",\"1591194\",\"0.0-226.0\",\"\",\"\",\"3-3\",\"4093\",\"37\",\"0\",\"Testing\",\"Stims/Figures/139-C-20-2.bmp\",\"za:sa:za\",\"Right\",\"39\",\"4\",\"6\",\"6A\",\"C2\",\"J\",\"78\"
\"\",\"\",\"approach-retreat\",\"227\",\"1596722\",\"0.0-227.0\",\"\",\"\",\"3-3\",\"4024\",\"38\",\"0\",\"Testing\",\"Stims/Figures/102-C-20-4.bmp\",\"za:haza\",\"Down\",\"40\",\"4\",\"7\",\"6A\",\"C2\",\"J\",\"79\"
\"\",\"\",\"approach-retreat\",\"228\",\"1602651\",\"0.0-228.0\",\"\",\"\",\"3-3\",\"4426\",\"38\",\"0\",\"Testing\",\"Stims/Figures/139-J-0-2.bmp\",\"fafasha\",\"Up\",\"40\",\"4\",\"8\",\"6A\",\"C1\",\"J\",\"80\"
\"\",\"\",\"approach-retreat\",\"229\",\"1608751\",\"0.0-229.0\",\"\",\"\",\"3-3\",\"4596\",\"38\",\"0\",\"Testing\",\"Stims/Figures/84-J-0-2.bmp\",\"vafa:va\",\"Up\",\"40\",\"4\",\"9\",\"6A\",\"C1\",\"J\",\"81\"
\"\",\"\",\"approach-retreat\",\"230\",\"1614469\",\"0.0-230.0\",\"\",\"\",\"3-3\",\"4216\",\"40\",\"1\",\"Testing\",\"Stims/Figures/74-J-10-4.bmp\",\"fafa:sha\",\"Up\",\"40\",\"4\",\"10\",\"6A\",\"C1\",\"J\",\"82\"
\"\",\"\",\"approach-retreat\",\"231\",\"1620594\",\"0.0-231.0\",\"\",\"\",\"3-3\",\"4621\",\"39\",\"0\",\"Testing\",\"Stims/Figures/84-C-20-2.bmp\",\"sa:sa:za\",\"Left\",\"37\",\"4\",\"11\",\"6A\",\"C2\",\"J\",\"83\"
\"\",\"\",\"approach-retreat\",\"232\",\"1626815\",\"0.0-232.0\",\"\",\"\",\"3-3\",\"4717\",\"38\",\"0\",\"Testing\",\"Stims/Figures/118-J-0-2.bmp\",\"fa:fa:va\",\"Up\",\"40\",\"4\",\"12\",\"6A\",\"C1\",\"J\",\"84\"
\"\",\"\",\"approach-retreat\",\"233\",\"1632498\",\"0.0-233.0\",\"\",\"\",\"3-3\",\"4180\",\"38\",\"0\",\"Testing\",\"Stims/Figures/100-C-30-3.bmp\",\"zahaha\",\"Down\",\"40\",\"4\",\"13\",\"6A\",\"C2\",\"J\",\"85\"
\"\",\"\",\"approach-retreat\",\"234\",\"1638266\",\"0.0-234.0\",\"\",\"\",\"3-3\",\"4265\",\"39\",\"1\",\"Testing\",\"Stims/Figures/102-J-10-4.bmp\",\"va:fa:sha\",\"Left\",\"39\",\"4\",\"14\",\"6A\",\"C1\",\"J\",\"86\"
\"\",\"\",\"approach-retreat\",\"235\",\"1643954\",\"0.0-235.0\",\"\",\"\",\"3-3\",\"4185\",\"37\",\"1\",\"Testing\",\"Stims/Figures/128-C-30-3.bmp\",\"sa:sa:ha\",\"Left\",\"37\",\"4\",\"15\",\"6A\",\"C2\",\"J\",\"87\"
\"\",\"\",\"approach-retreat\",\"236\",\"1649808\",\"0.0-236.0\",\"\",\"\",\"3-3\",\"4350\",\"40\",\"0\",\"Testing\",\"Stims/Figures/7-J-10-4.bmp\",\"va:sha:sha\",\"Down\",\"38\",\"4\",\"16\",\"6A\",\"C1\",\"J\",\"88\"
\"\",\"\",\"approach-retreat\",\"237\",\"1655637\",\"0.0-237.0\",\"\",\"\",\"3-3\",\"4325\",\"37\",\"0\",\"Testing\",\"Stims/Figures/44-C-30-3.bmp\",\"sa:haza\",\"Right\",\"39\",\"4\",\"17\",\"6A\",\"C2\",\"J\",\"89\"
\"\",\"\",\"approach-retreat\",\"238\",\"1661335\",\"0.0-238.0\",\"\",\"\",\"3-3\",\"4194\",\"39\",\"0\",\"Testing\",\"Stims/Figures/93-C-30-1.bmp\",\"za:saha\",\"Left\",\"37\",\"4\",\"18\",\"6A\",\"C2\",\"J\",\"90\"
\"\",\"\",\"approach-retreat\",\"239\",\"1666983\",\"0.0-239.0\",\"\",\"\",\"3-3\",\"4144\",\"37\",\"0\",\"Testing\",\"Stims/Figures/118-C-20-2.bmp\",\"sa:haha\",\"Right\",\"39\",\"4\",\"19\",\"6A\",\"C2\",\"J\",\"91\"
\"\",\"\",\"approach-retreat\",\"240\",\"1672896\",\"0.0-240.0\",\"\",\"\",\"3-3\",\"4410\",\"38\",\"0\",\"Testing\",\"Stims/Figures/44-J-10-3.bmp\",\"fashasha\",\"Up\",\"40\",\"4\",\"20\",\"6A\",\"C1\",\"J\",\"92\"
\"\",\"\",\"approach-retreat\",\"241\",\"1679197\",\"0.0-241.0\",\"\",\"\",\"3-3\",\"4797\",\"40\",\"0\",\"Testing\",\"Stims/Figures/93-J-0-1.bmp\",\"fa:fava\",\"Down\",\"38\",\"4\",\"21\",\"6A\",\"C1\",\"J\",\"93\"
\"\",\"\",\"approach-retreat\",\"242\",\"1684794\",\"0.0-242.0\",\"\",\"\",\"3-3\",\"4093\",\"37\",\"0\",\"Testing\",\"Stims/Figures/7-C-20-4.bmp\",\"sahaza\",\"Right\",\"39\",\"4\",\"22\",\"6A\",\"C2\",\"J\",\"94\"
\"\",\"\",\"approach-retreat\",\"243\",\"1690533\",\"0.0-243.0\",\"\",\"\",\"3-3\",\"4235\",\"37\",\"0\",\"Testing\",\"Stims/Figures/57-J-0-1.bmp\",\"va:shava\",\"Left\",\"39\",\"4\",\"23\",\"6A\",\"C1\",\"J\",\"95\"
\"\",\"\",\"approach-retreat\",\"244\",\"1696427\",\"0.0-244.0\",\"\",\"\",\"3-3\",\"4390\",\"40\",\"0\",\"Testing\",\"Stims/Figures/27-J-0-1.bmp\",\"fa:sha:va\",\"Down\",\"38\",\"4\",\"24\",\"6A\",\"C1\",\"J\",\"96\"
\"27372\",\"\",\"survey-text\",\"245\",\"1723802\",\"0.0-245.0\",\"\",\"{\"\"Q0\"\":\"\"PS170049\"\"}\",\"\",\"\",\"\",\"\",\"\",\"\",\"\",\"\",\"\",\"\",\"\",\"\",\"\",\"\",\"\"
