\"rt\",\"key_press\",\"trial_type\",\"trial_index\",\"time_elapsed\",\"internal_node_id\",\"view_history\",\"responses\",\"Id\",\"Rt\",\"ResKeyCode\",\"ResCorr\",\"TrialType2\",\"Image\",\"Label\",\"Location\",\"CorrectResponse\",\"Block\",\"BlockTrial\",\"Condition\",\"LabelType\",\"Subcondition\",\"trialNum\"
\"24504\",\"32\",\"text\",\"0\",\"24509\",\"0.0-0.0-0.0\",\"\",\"\",\"\",\"\",\"\",\"\",\"\",\"\",\"\",\"\",\"\",\"\",\"\",\"\",\"\",\"\",\"\"
\"72107\",\"\",\"instructions\",\"1\",\"96619\",\"0.0-1.0\",\"[{\"\"page_index\"\":0,\"\"viewing_time\"\":72106}]\",\"\",\"\",\"\",\"\",\"\",\"\",\"\",\"\",\"\",\"\",\"\",\"\",\"\",\"\",\"\",\"\"
\"32059\",\"\",\"survey-multi-choice\",\"2\",\"128714\",\"0.0-2.0\",\"\",\"{\"\"Q0\"\":\"\"Da\"\",\"\"Q1\"\":\"\"Da\"\",\"\"Q2\"\":\"\"Da\"\",\"\"Q3\"\":\"\"Da\"\",\"\"Q4\"\":\"\"Da\"\",\"\"Q5\"\":\"\"Da\"\"}\",\"\",\"\",\"\",\"\",\"\",\"\",\"\",\"\",\"\",\"\",\"\",\"\",\"\",\"\",\"\"
\"\",\"\",\"bio\",\"3\",\"139132\",\"0.0-3.0\",\"\",\"{\"\"age\"\":\"\"26\"\",\"\"gender\"\":\"\"f\"\",\"\"specify\"\":\"\"\"\"}\",\"\",\"\",\"\",\"\",\"\",\"\",\"\",\"\",\"\",\"\",\"\",\"\",\"\",\"\",\"\"
\"\",\"\",\"approach-retreat\",\"4\",\"147663\",\"0.0-4.0\",\"\",\"\",\"3-2\",\"7019\",\"38\",\"0\",\"Training\",\"Stims/Figures/57-C-30-1.bmp\",\"ma:mala\",\"Up\",\"40\",\"1\",\"1\",\"4\",\"S\",\"C\",\"1\"
\"\",\"\",\"approach-retreat\",\"5\",\"155912\",\"0.0-5.0\",\"\",\"\",\"3-2\",\"6742\",\"38\",\"1\",\"Training\",\"Stims/Figures/7-C-20-4.bmp\",\"nala:la\",\"Down\",\"38\",\"1\",\"2\",\"4\",\"S\",\"C\",\"2\"
\"\",\"\",\"approach-retreat\",\"6\",\"162335\",\"0.0-6.0\",\"\",\"\",\"3-2\",\"4914\",\"40\",\"1\",\"Training\",\"Stims/Figures/74-J-10-4.bmp\",\"papa:ta\",\"Down\",\"40\",\"1\",\"3\",\"4\",\"P\",\"C\",\"3\"
\"\",\"\",\"approach-retreat\",\"7\",\"168216\",\"0.0-7.0\",\"\",\"\",\"3-2\",\"4374\",\"37\",\"1\",\"Training\",\"Stims/Figures/144-J-10-3.bmp\",\"papa:ka\",\"Left\",\"37\",\"1\",\"4\",\"4\",\"P\",\"C\",\"4\"
\"\",\"\",\"approach-retreat\",\"8\",\"174851\",\"0.0-8.0\",\"\",\"\",\"3-2\",\"5126\",\"37\",\"1\",\"Training\",\"Stims/Figures/139-C-20-2.bmp\",\"mama:na\",\"Right\",\"37\",\"1\",\"5\",\"4\",\"S\",\"C\",\"5\"
\"\",\"\",\"approach-retreat\",\"9\",\"180659\",\"0.0-9.0\",\"\",\"\",\"3-2\",\"4299\",\"40\",\"1\",\"Training\",\"Stims/Figures/100-J-10-3.bmp\",\"pa:ka:ka\",\"Down\",\"40\",\"1\",\"6\",\"4\",\"P\",\"C\",\"6\"
\"\",\"\",\"approach-retreat\",\"10\",\"186325\",\"0.0-10.0\",\"\",\"\",\"3-2\",\"4158\",\"39\",\"1\",\"Training\",\"Stims/Figures/144-C-30-3.bmp\",\"malana\",\"Left\",\"39\",\"1\",\"7\",\"4\",\"S\",\"C\",\"7\"
\"\",\"\",\"approach-retreat\",\"11\",\"191706\",\"0.0-11.0\",\"\",\"\",\"3-2\",\"3873\",\"39\",\"1\",\"Training\",\"Stims/Figures/85-J-0-2.bmp\",\"takaka\",\"Right\",\"39\",\"1\",\"8\",\"4\",\"P\",\"C\",\"8\"
\"\",\"\",\"approach-retreat\",\"12\",\"199417\",\"0.0-12.0\",\"\",\"\",\"3-2\",\"6202\",\"40\",\"0\",\"Training\",\"Stims/Figures/7-J-10-4.bmp\",\"paka:ka\",\"Up\",\"38\",\"1\",\"9\",\"4\",\"P\",\"C\",\"9\"
\"\",\"\",\"approach-retreat\",\"13\",\"204954\",\"0.0-13.0\",\"\",\"\",\"3-2\",\"4028\",\"37\",\"1\",\"Training\",\"Stims/Figures/100-C-30-3.bmp\",\"na:mana\",\"Right\",\"37\",\"1\",\"10\",\"4\",\"S\",\"C\",\"10\"
\"\",\"\",\"approach-retreat\",\"14\",\"210355\",\"0.0-14.0\",\"\",\"\",\"3-2\",\"3893\",\"37\",\"1\",\"Training\",\"Stims/Figures/86-J-0-1.bmp\",\"ta:ka:ka\",\"Left\",\"37\",\"1\",\"11\",\"4\",\"P\",\"C\",\"11\"
\"\",\"\",\"approach-retreat\",\"15\",\"216648\",\"0.0-15.0\",\"\",\"\",\"3-2\",\"4784\",\"37\",\"1\",\"Training\",\"Stims/Figures/85-C-20-2.bmp\",\"ma:lala\",\"Right\",\"37\",\"1\",\"12\",\"4\",\"S\",\"C\",\"12\"
\"\",\"\",\"approach-retreat\",\"16\",\"222096\",\"0.0-16.0\",\"\",\"\",\"3-2\",\"3941\",\"38\",\"0\",\"Training\",\"Stims/Figures/86-C-30-1.bmp\",\"ma:ma:la\",\"Up\",\"40\",\"1\",\"13\",\"4\",\"S\",\"C\",\"13\"
\"\",\"\",\"approach-retreat\",\"17\",\"227437\",\"0.0-17.0\",\"\",\"\",\"3-2\",\"3833\",\"37\",\"1\",\"Training\",\"Stims/Figures/139-J-0-2.bmp\",\"ta:paka\",\"Left\",\"37\",\"1\",\"14\",\"4\",\"P\",\"C\",\"14\"
\"\",\"\",\"approach-retreat\",\"18\",\"232553\",\"0.0-18.0\",\"\",\"\",\"3-2\",\"3608\",\"38\",\"1\",\"Training\",\"Stims/Figures/57-J-0-1.bmp\",\"tapa:ta\",\"Up\",\"38\",\"1\",\"15\",\"4\",\"P\",\"C\",\"15\"
\"\",\"\",\"approach-retreat\",\"19\",\"238636\",\"0.0-19.0\",\"\",\"\",\"3-2\",\"4575\",\"38\",\"1\",\"Training\",\"Stims/Figures/74-C-20-4.bmp\",\"na:lana\",\"Down\",\"38\",\"1\",\"16\",\"4\",\"S\",\"C\",\"16\"
\"\",\"\",\"approach-retreat\",\"20\",\"244555\",\"0.0-20.0\",\"\",\"\",\"3-2\",\"4408\",\"39\",\"1\",\"Training\",\"Stims/Figures/144-J-10-3.bmp\",\"papa:ka\",\"Right\",\"39\",\"2\",\"1\",\"4\",\"P\",\"C\",\"17\"
\"\",\"\",\"approach-retreat\",\"21\",\"250489\",\"0.0-21.0\",\"\",\"\",\"3-2\",\"4426\",\"39\",\"1\",\"Training\",\"Stims/Figures/57-C-30-1.bmp\",\"ma:mala\",\"Left\",\"39\",\"2\",\"2\",\"4\",\"S\",\"C\",\"18\"
\"\",\"\",\"approach-retreat\",\"22\",\"257106\",\"0.0-22.0\",\"\",\"\",\"3-2\",\"5109\",\"40\",\"1\",\"Training\",\"Stims/Figures/74-J-10-4.bmp\",\"papa:ta\",\"Down\",\"40\",\"2\",\"3\",\"4\",\"P\",\"C\",\"19\"
\"\",\"\",\"approach-retreat\",\"23\",\"263002\",\"0.0-23.0\",\"\",\"\",\"3-2\",\"4387\",\"38\",\"1\",\"Training\",\"Stims/Figures/100-C-30-3.bmp\",\"na:mana\",\"Down\",\"38\",\"2\",\"4\",\"4\",\"S\",\"C\",\"20\"
\"\",\"\",\"approach-retreat\",\"24\",\"268625\",\"0.0-24.0\",\"\",\"\",\"3-2\",\"4115\",\"38\",\"1\",\"Training\",\"Stims/Figures/7-J-10-4.bmp\",\"paka:ka\",\"Up\",\"38\",\"2\",\"5\",\"4\",\"P\",\"C\",\"21\"
\"\",\"\",\"approach-retreat\",\"25\",\"274911\",\"0.0-25.0\",\"\",\"\",\"3-2\",\"4778\",\"37\",\"1\",\"Training\",\"Stims/Figures/85-J-0-2.bmp\",\"takaka\",\"Left\",\"37\",\"2\",\"6\",\"4\",\"P\",\"C\",\"22\"
\"\",\"\",\"approach-retreat\",\"26\",\"281333\",\"0.0-26.0\",\"\",\"\",\"3-2\",\"4912\",\"37\",\"1\",\"Training\",\"Stims/Figures/144-C-30-3.bmp\",\"malana\",\"Right\",\"37\",\"2\",\"7\",\"4\",\"S\",\"C\",\"23\"
\"\",\"\",\"approach-retreat\",\"27\",\"286700\",\"0.0-27.0\",\"\",\"\",\"3-2\",\"3859\",\"38\",\"1\",\"Training\",\"Stims/Figures/57-J-0-1.bmp\",\"tapa:ta\",\"Up\",\"38\",\"2\",\"8\",\"4\",\"P\",\"C\",\"24\"
\"\",\"\",\"approach-retreat\",\"28\",\"292103\",\"0.0-28.0\",\"\",\"\",\"3-2\",\"3897\",\"39\",\"0\",\"Training\",\"Stims/Figures/139-J-0-2.bmp\",\"ta:paka\",\"Left\",\"37\",\"2\",\"9\",\"4\",\"P\",\"C\",\"25\"
\"\",\"\",\"approach-retreat\",\"29\",\"297806\",\"0.0-29.0\",\"\",\"\",\"3-2\",\"4196\",\"37\",\"1\",\"Training\",\"Stims/Figures/74-C-20-4.bmp\",\"na:lana\",\"Right\",\"37\",\"2\",\"10\",\"4\",\"S\",\"C\",\"26\"
\"\",\"\",\"approach-retreat\",\"30\",\"303680\",\"0.0-30.0\",\"\",\"\",\"3-2\",\"4365\",\"39\",\"1\",\"Training\",\"Stims/Figures/7-C-20-4.bmp\",\"nala:la\",\"Left\",\"39\",\"2\",\"11\",\"4\",\"S\",\"C\",\"27\"
\"\",\"\",\"approach-retreat\",\"31\",\"309444\",\"0.0-31.0\",\"\",\"\",\"3-2\",\"4255\",\"38\",\"1\",\"Training\",\"Stims/Figures/85-C-20-2.bmp\",\"ma:lala\",\"Down\",\"38\",\"2\",\"12\",\"4\",\"S\",\"C\",\"28\"
\"\",\"\",\"approach-retreat\",\"32\",\"315406\",\"0.0-32.0\",\"\",\"\",\"3-2\",\"4455\",\"39\",\"1\",\"Training\",\"Stims/Figures/100-J-10-3.bmp\",\"pa:ka:ka\",\"Right\",\"39\",\"2\",\"13\",\"4\",\"P\",\"C\",\"29\"
\"\",\"\",\"approach-retreat\",\"33\",\"321120\",\"0.0-33.0\",\"\",\"\",\"3-2\",\"4205\",\"40\",\"1\",\"Training\",\"Stims/Figures/86-C-30-1.bmp\",\"ma:ma:la\",\"Up\",\"40\",\"2\",\"14\",\"4\",\"S\",\"C\",\"30\"
\"\",\"\",\"approach-retreat\",\"34\",\"327314\",\"0.0-34.0\",\"\",\"\",\"3-2\",\"4687\",\"38\",\"1\",\"Training\",\"Stims/Figures/139-C-20-2.bmp\",\"mama:na\",\"Down\",\"38\",\"2\",\"15\",\"4\",\"S\",\"C\",\"31\"
\"\",\"\",\"approach-retreat\",\"35\",\"333162\",\"0.0-35.0\",\"\",\"\",\"3-2\",\"4340\",\"38\",\"1\",\"Training\",\"Stims/Figures/86-J-0-1.bmp\",\"ta:ka:ka\",\"Up\",\"38\",\"2\",\"16\",\"4\",\"P\",\"C\",\"32\"
\"\",\"\",\"approach-retreat\",\"36\",\"338843\",\"0.0-36.0\",\"\",\"\",\"3-2\",\"4174\",\"38\",\"1\",\"Training\",\"Stims/Figures/144-J-10-3.bmp\",\"papa:ka\",\"Up\",\"38\",\"3\",\"1\",\"4\",\"P\",\"C\",\"33\"
\"\",\"\",\"approach-retreat\",\"37\",\"347608\",\"0.0-37.0\",\"\",\"\",\"3-2\",\"7256\",\"38\",\"1\",\"Training\",\"Stims/Figures/57-J-0-1.bmp\",\"tapa:ta\",\"Up\",\"38\",\"3\",\"2\",\"4\",\"P\",\"C\",\"34\"
\"\",\"\",\"approach-retreat\",\"38\",\"354257\",\"0.0-38.0\",\"\",\"\",\"3-2\",\"5140\",\"37\",\"1\",\"Training\",\"Stims/Figures/139-C-20-2.bmp\",\"mama:na\",\"Right\",\"37\",\"3\",\"3\",\"4\",\"S\",\"C\",\"35\"
\"\",\"\",\"approach-retreat\",\"39\",\"360012\",\"0.0-39.0\",\"\",\"\",\"3-2\",\"4247\",\"40\",\"1\",\"Training\",\"Stims/Figures/7-J-10-4.bmp\",\"paka:ka\",\"Down\",\"40\",\"3\",\"4\",\"4\",\"P\",\"C\",\"36\"
\"\",\"\",\"approach-retreat\",\"40\",\"366240\",\"0.0-40.0\",\"\",\"\",\"3-2\",\"4720\",\"39\",\"1\",\"Training\",\"Stims/Figures/86-C-30-1.bmp\",\"ma:ma:la\",\"Left\",\"39\",\"3\",\"5\",\"4\",\"S\",\"C\",\"37\"
\"\",\"\",\"approach-retreat\",\"41\",\"371954\",\"0.0-41.0\",\"\",\"\",\"3-2\",\"4206\",\"40\",\"1\",\"Training\",\"Stims/Figures/139-J-0-2.bmp\",\"ta:paka\",\"Down\",\"40\",\"3\",\"6\",\"4\",\"P\",\"C\",\"38\"
\"\",\"\",\"approach-retreat\",\"42\",\"377445\",\"0.0-42.0\",\"\",\"\",\"3-2\",\"3984\",\"39\",\"1\",\"Training\",\"Stims/Figures/57-C-30-1.bmp\",\"ma:mala\",\"Left\",\"39\",\"3\",\"7\",\"4\",\"S\",\"C\",\"39\"
\"\",\"\",\"approach-retreat\",\"43\",\"383113\",\"0.0-43.0\",\"\",\"\",\"3-2\",\"4160\",\"40\",\"1\",\"Training\",\"Stims/Figures/144-C-30-3.bmp\",\"malana\",\"Up\",\"40\",\"3\",\"8\",\"4\",\"S\",\"C\",\"40\"
\"\",\"\",\"approach-retreat\",\"44\",\"388971\",\"0.0-44.0\",\"\",\"\",\"3-2\",\"4351\",\"40\",\"1\",\"Training\",\"Stims/Figures/74-J-10-4.bmp\",\"papa:ta\",\"Down\",\"40\",\"3\",\"9\",\"4\",\"P\",\"C\",\"41\"
\"\",\"\",\"approach-retreat\",\"45\",\"394692\",\"0.0-45.0\",\"\",\"\",\"3-2\",\"4213\",\"37\",\"1\",\"Training\",\"Stims/Figures/85-J-0-2.bmp\",\"takaka\",\"Left\",\"37\",\"3\",\"10\",\"4\",\"P\",\"C\",\"42\"
\"\",\"\",\"approach-retreat\",\"46\",\"400671\",\"0.0-46.0\",\"\",\"\",\"3-2\",\"4470\",\"39\",\"1\",\"Training\",\"Stims/Figures/85-C-20-2.bmp\",\"ma:lala\",\"Left\",\"39\",\"3\",\"11\",\"4\",\"S\",\"C\",\"43\"
\"\",\"\",\"approach-retreat\",\"47\",\"406397\",\"0.0-47.0\",\"\",\"\",\"3-2\",\"4218\",\"37\",\"1\",\"Training\",\"Stims/Figures/74-C-20-4.bmp\",\"na:lana\",\"Right\",\"37\",\"3\",\"12\",\"4\",\"S\",\"C\",\"44\"
\"\",\"\",\"approach-retreat\",\"48\",\"412153\",\"0.0-48.0\",\"\",\"\",\"3-2\",\"4248\",\"40\",\"0\",\"Training\",\"Stims/Figures/86-J-0-1.bmp\",\"ta:ka:ka\",\"Up\",\"38\",\"3\",\"13\",\"4\",\"P\",\"C\",\"45\"
\"\",\"\",\"approach-retreat\",\"49\",\"418606\",\"0.0-49.0\",\"\",\"\",\"3-2\",\"4944\",\"38\",\"1\",\"Training\",\"Stims/Figures/7-C-20-4.bmp\",\"nala:la\",\"Down\",\"38\",\"3\",\"14\",\"4\",\"S\",\"C\",\"46\"
\"\",\"\",\"approach-retreat\",\"50\",\"424831\",\"0.0-50.0\",\"\",\"\",\"3-2\",\"4717\",\"37\",\"1\",\"Training\",\"Stims/Figures/100-C-30-3.bmp\",\"na:mana\",\"Right\",\"37\",\"3\",\"15\",\"4\",\"S\",\"C\",\"47\"
\"\",\"\",\"approach-retreat\",\"51\",\"430711\",\"0.0-51.0\",\"\",\"\",\"3-2\",\"4374\",\"39\",\"1\",\"Training\",\"Stims/Figures/100-J-10-3.bmp\",\"pa:ka:ka\",\"Right\",\"39\",\"3\",\"16\",\"4\",\"P\",\"C\",\"48\"
\"\",\"\",\"approach-retreat\",\"52\",\"436381\",\"0.0-52.0\",\"\",\"\",\"3-2\",\"4162\",\"38\",\"1\",\"Training\",\"Stims/Figures/100-J-10-3.bmp\",\"pa:ka:ka\",\"Up\",\"38\",\"4\",\"1\",\"4\",\"P\",\"C\",\"49\"
\"\",\"\",\"approach-retreat\",\"53\",\"442339\",\"0.0-53.0\",\"\",\"\",\"3-2\",\"4450\",\"37\",\"1\",\"Training\",\"Stims/Figures/100-C-30-3.bmp\",\"na:mana\",\"Right\",\"37\",\"4\",\"2\",\"4\",\"S\",\"C\",\"50\"
\"\",\"\",\"approach-retreat\",\"54\",\"448004\",\"0.0-54.0\",\"\",\"\",\"3-2\",\"4156\",\"37\",\"1\",\"Training\",\"Stims/Figures/57-J-0-1.bmp\",\"tapa:ta\",\"Left\",\"37\",\"4\",\"3\",\"4\",\"P\",\"C\",\"51\"
\"\",\"\",\"approach-retreat\",\"55\",\"454159\",\"0.0-55.0\",\"\",\"\",\"3-2\",\"4648\",\"40\",\"1\",\"Training\",\"Stims/Figures/86-C-30-1.bmp\",\"ma:ma:la\",\"Up\",\"40\",\"4\",\"4\",\"4\",\"S\",\"C\",\"52\"
\"\",\"\",\"approach-retreat\",\"56\",\"459956\",\"0.0-56.0\",\"\",\"\",\"3-2\",\"4287\",\"37\",\"1\",\"Training\",\"Stims/Figures/144-C-30-3.bmp\",\"malana\",\"Right\",\"37\",\"4\",\"5\",\"4\",\"S\",\"C\",\"53\"
\"\",\"\",\"approach-retreat\",\"57\",\"466558\",\"0.0-57.0\",\"\",\"\",\"3-2\",\"5094\",\"38\",\"1\",\"Training\",\"Stims/Figures/139-C-20-2.bmp\",\"mama:na\",\"Down\",\"38\",\"4\",\"6\",\"4\",\"S\",\"C\",\"54\"
\"\",\"\",\"approach-retreat\",\"58\",\"472198\",\"0.0-58.0\",\"\",\"\",\"3-2\",\"4131\",\"38\",\"1\",\"Training\",\"Stims/Figures/74-J-10-4.bmp\",\"papa:ta\",\"Up\",\"38\",\"4\",\"7\",\"4\",\"P\",\"C\",\"55\"
\"\",\"\",\"approach-retreat\",\"59\",\"478893\",\"0.0-59.0\",\"\",\"\",\"3-2\",\"5188\",\"38\",\"1\",\"Training\",\"Stims/Figures/74-C-20-4.bmp\",\"na:lana\",\"Down\",\"38\",\"4\",\"8\",\"4\",\"S\",\"C\",\"56\"
\"\",\"\",\"approach-retreat\",\"60\",\"484442\",\"0.0-60.0\",\"\",\"\",\"3-2\",\"4041\",\"37\",\"1\",\"Training\",\"Stims/Figures/139-J-0-2.bmp\",\"ta:paka\",\"Left\",\"37\",\"4\",\"9\",\"4\",\"P\",\"C\",\"57\"
\"\",\"\",\"approach-retreat\",\"61\",\"490123\",\"0.0-61.0\",\"\",\"\",\"3-2\",\"4175\",\"38\",\"1\",\"Training\",\"Stims/Figures/85-C-20-2.bmp\",\"ma:lala\",\"Down\",\"38\",\"4\",\"10\",\"4\",\"S\",\"C\",\"58\"
\"\",\"\",\"approach-retreat\",\"62\",\"496100\",\"0.0-62.0\",\"\",\"\",\"3-2\",\"4469\",\"39\",\"1\",\"Training\",\"Stims/Figures/7-J-10-4.bmp\",\"paka:ka\",\"Right\",\"39\",\"4\",\"11\",\"4\",\"P\",\"C\",\"59\"
\"\",\"\",\"approach-retreat\",\"63\",\"501965\",\"0.0-63.0\",\"\",\"\",\"3-2\",\"4357\",\"39\",\"1\",\"Training\",\"Stims/Figures/144-J-10-3.bmp\",\"papa:ka\",\"Right\",\"39\",\"4\",\"12\",\"4\",\"P\",\"C\",\"60\"
\"\",\"\",\"approach-retreat\",\"64\",\"508027\",\"0.0-64.0\",\"\",\"\",\"3-2\",\"4553\",\"39\",\"1\",\"Training\",\"Stims/Figures/57-C-30-1.bmp\",\"ma:mala\",\"Left\",\"39\",\"4\",\"13\",\"4\",\"S\",\"C\",\"61\"
\"\",\"\",\"approach-retreat\",\"65\",\"513846\",\"0.0-65.0\",\"\",\"\",\"3-2\",\"4312\",\"38\",\"1\",\"Training\",\"Stims/Figures/85-J-0-2.bmp\",\"takaka\",\"Up\",\"38\",\"4\",\"14\",\"4\",\"P\",\"C\",\"62\"
\"\",\"\",\"approach-retreat\",\"66\",\"519540\",\"0.0-66.0\",\"\",\"\",\"3-2\",\"4186\",\"39\",\"1\",\"Training\",\"Stims/Figures/7-C-20-4.bmp\",\"nala:la\",\"Left\",\"39\",\"4\",\"15\",\"4\",\"S\",\"C\",\"63\"
\"\",\"\",\"approach-retreat\",\"67\",\"525240\",\"0.0-67.0\",\"\",\"\",\"3-2\",\"4190\",\"40\",\"1\",\"Training\",\"Stims/Figures/86-J-0-1.bmp\",\"ta:ka:ka\",\"Down\",\"40\",\"4\",\"16\",\"4\",\"P\",\"C\",\"64\"
\"\",\"\",\"approach-retreat\",\"68\",\"530912\",\"0.0-68.0\",\"\",\"\",\"3-2\",\"4165\",\"38\",\"1\",\"Training\",\"Stims/Figures/74-C-20-4.bmp\",\"na:lana\",\"Down\",\"38\",\"5\",\"1\",\"4\",\"S\",\"C\",\"65\"
\"\",\"\",\"approach-retreat\",\"69\",\"536489\",\"0.0-69.0\",\"\",\"\",\"3-2\",\"4069\",\"39\",\"1\",\"Training\",\"Stims/Figures/7-C-20-4.bmp\",\"nala:la\",\"Left\",\"39\",\"5\",\"2\",\"4\",\"S\",\"C\",\"66\"
\"\",\"\",\"approach-retreat\",\"70\",\"542100\",\"0.0-70.0\",\"\",\"\",\"3-2\",\"4102\",\"38\",\"1\",\"Training\",\"Stims/Figures/100-C-30-3.bmp\",\"na:mana\",\"Down\",\"38\",\"5\",\"3\",\"4\",\"S\",\"C\",\"67\"
\"\",\"\",\"approach-retreat\",\"71\",\"547823\",\"0.0-71.0\",\"\",\"\",\"3-2\",\"4218\",\"37\",\"1\",\"Training\",\"Stims/Figures/144-C-30-3.bmp\",\"malana\",\"Right\",\"37\",\"5\",\"4\",\"4\",\"S\",\"C\",\"68\"
\"\",\"\",\"approach-retreat\",\"72\",\"553642\",\"0.0-72.0\",\"\",\"\",\"3-2\",\"4310\",\"37\",\"1\",\"Training\",\"Stims/Figures/7-J-10-4.bmp\",\"paka:ka\",\"Left\",\"37\",\"5\",\"5\",\"4\",\"P\",\"C\",\"69\"
\"\",\"\",\"approach-retreat\",\"73\",\"559403\",\"0.0-73.0\",\"\",\"\",\"3-2\",\"4253\",\"38\",\"1\",\"Training\",\"Stims/Figures/57-J-0-1.bmp\",\"tapa:ta\",\"Up\",\"38\",\"5\",\"6\",\"4\",\"P\",\"C\",\"70\"
\"\",\"\",\"approach-retreat\",\"74\",\"565038\",\"0.0-74.0\",\"\",\"\",\"3-2\",\"4127\",\"38\",\"1\",\"Training\",\"Stims/Figures/86-J-0-1.bmp\",\"ta:ka:ka\",\"Up\",\"38\",\"5\",\"7\",\"4\",\"P\",\"C\",\"71\"
\"\",\"\",\"approach-retreat\",\"75\",\"570771\",\"0.0-75.0\",\"\",\"\",\"3-2\",\"4225\",\"39\",\"0\",\"Training\",\"Stims/Figures/57-C-30-1.bmp\",\"ma:mala\",\"Right\",\"37\",\"5\",\"8\",\"4\",\"S\",\"C\",\"72\"
\"\",\"\",\"approach-retreat\",\"76\",\"576604\",\"0.0-76.0\",\"\",\"\",\"3-2\",\"4325\",\"39\",\"1\",\"Training\",\"Stims/Figures/86-C-30-1.bmp\",\"ma:ma:la\",\"Left\",\"39\",\"5\",\"9\",\"4\",\"S\",\"C\",\"73\"
\"\",\"\",\"approach-retreat\",\"77\",\"582289\",\"0.0-77.0\",\"\",\"\",\"3-2\",\"4178\",\"38\",\"1\",\"Training\",\"Stims/Figures/85-C-20-2.bmp\",\"ma:lala\",\"Down\",\"38\",\"5\",\"10\",\"4\",\"S\",\"C\",\"74\"
\"\",\"\",\"approach-retreat\",\"78\",\"588103\",\"0.0-78.0\",\"\",\"\",\"3-2\",\"4306\",\"39\",\"1\",\"Training\",\"Stims/Figures/85-J-0-2.bmp\",\"takaka\",\"Right\",\"39\",\"5\",\"11\",\"4\",\"P\",\"C\",\"75\"
\"\",\"\",\"approach-retreat\",\"79\",\"593804\",\"0.0-79.0\",\"\",\"\",\"3-2\",\"4193\",\"38\",\"1\",\"Training\",\"Stims/Figures/100-J-10-3.bmp\",\"pa:ka:ka\",\"Up\",\"38\",\"5\",\"12\",\"4\",\"P\",\"C\",\"76\"
\"\",\"\",\"approach-retreat\",\"80\",\"599508\",\"0.0-80.0\",\"\",\"\",\"3-2\",\"4195\",\"39\",\"1\",\"Training\",\"Stims/Figures/144-J-10-3.bmp\",\"papa:ka\",\"Right\",\"39\",\"5\",\"13\",\"4\",\"P\",\"C\",\"77\"
\"\",\"\",\"approach-retreat\",\"81\",\"605174\",\"0.0-81.0\",\"\",\"\",\"3-2\",\"4159\",\"40\",\"1\",\"Training\",\"Stims/Figures/139-J-0-2.bmp\",\"ta:paka\",\"Down\",\"40\",\"5\",\"14\",\"4\",\"P\",\"C\",\"78\"
\"\",\"\",\"approach-retreat\",\"82\",\"610876\",\"0.0-82.0\",\"\",\"\",\"3-2\",\"4195\",\"40\",\"1\",\"Training\",\"Stims/Figures/139-C-20-2.bmp\",\"mama:na\",\"Up\",\"40\",\"5\",\"15\",\"4\",\"S\",\"C\",\"79\"
\"\",\"\",\"approach-retreat\",\"83\",\"616559\",\"0.0-83.0\",\"\",\"\",\"3-2\",\"4174\",\"37\",\"1\",\"Training\",\"Stims/Figures/74-J-10-4.bmp\",\"papa:ta\",\"Left\",\"37\",\"5\",\"16\",\"4\",\"P\",\"C\",\"80\"
\"\",\"\",\"approach-retreat\",\"84\",\"622277\",\"0.0-84.0\",\"\",\"\",\"3-2\",\"4208\",\"38\",\"1\",\"Training\",\"Stims/Figures/7-C-20-4.bmp\",\"nala:la\",\"Down\",\"38\",\"6\",\"1\",\"4\",\"S\",\"C\",\"81\"
\"\",\"\",\"approach-retreat\",\"85\",\"628496\",\"0.0-85.0\",\"\",\"\",\"3-2\",\"4708\",\"39\",\"1\",\"Training\",\"Stims/Figures/144-C-30-3.bmp\",\"malana\",\"Left\",\"39\",\"6\",\"2\",\"4\",\"S\",\"C\",\"82\"
\"\",\"\",\"approach-retreat\",\"86\",\"635032\",\"0.0-86.0\",\"\",\"\",\"3-2\",\"5030\",\"38\",\"1\",\"Training\",\"Stims/Figures/100-J-10-3.bmp\",\"pa:ka:ka\",\"Up\",\"38\",\"6\",\"3\",\"4\",\"P\",\"C\",\"83\"
\"\",\"\",\"approach-retreat\",\"87\",\"640631\",\"0.0-87.0\",\"\",\"\",\"3-2\",\"4089\",\"37\",\"1\",\"Training\",\"Stims/Figures/74-C-20-4.bmp\",\"na:lana\",\"Right\",\"37\",\"6\",\"4\",\"4\",\"S\",\"C\",\"84\"
\"\",\"\",\"approach-retreat\",\"88\",\"646258\",\"0.0-88.0\",\"\",\"\",\"3-2\",\"4119\",\"37\",\"1\",\"Training\",\"Stims/Figures/139-J-0-2.bmp\",\"ta:paka\",\"Left\",\"37\",\"6\",\"5\",\"4\",\"P\",\"C\",\"85\"
\"\",\"\",\"approach-retreat\",\"89\",\"652796\",\"0.0-89.0\",\"\",\"\",\"3-2\",\"5029\",\"38\",\"1\",\"Training\",\"Stims/Figures/86-C-30-1.bmp\",\"ma:ma:la\",\"Down\",\"38\",\"6\",\"6\",\"4\",\"S\",\"C\",\"86\"
\"\",\"\",\"approach-retreat\",\"90\",\"658512\",\"0.0-90.0\",\"\",\"\",\"3-2\",\"4209\",\"40\",\"1\",\"Training\",\"Stims/Figures/86-J-0-1.bmp\",\"ta:ka:ka\",\"Down\",\"40\",\"6\",\"7\",\"4\",\"P\",\"C\",\"87\"
\"\",\"\",\"approach-retreat\",\"91\",\"664126\",\"0.0-91.0\",\"\",\"\",\"3-2\",\"4106\",\"39\",\"1\",\"Training\",\"Stims/Figures/57-C-30-1.bmp\",\"ma:mala\",\"Left\",\"39\",\"6\",\"8\",\"4\",\"S\",\"C\",\"88\"
\"\",\"\",\"approach-retreat\",\"92\",\"669845\",\"0.0-92.0\",\"\",\"\",\"3-2\",\"4207\",\"38\",\"1\",\"Training\",\"Stims/Figures/7-J-10-4.bmp\",\"paka:ka\",\"Up\",\"38\",\"6\",\"9\",\"4\",\"P\",\"C\",\"89\"
\"\",\"\",\"approach-retreat\",\"93\",\"675488\",\"0.0-93.0\",\"\",\"\",\"3-2\",\"4134\",\"39\",\"1\",\"Training\",\"Stims/Figures/57-J-0-1.bmp\",\"tapa:ta\",\"Right\",\"39\",\"6\",\"10\",\"4\",\"P\",\"C\",\"90\"
\"\",\"\",\"approach-retreat\",\"94\",\"681194\",\"0.0-94.0\",\"\",\"\",\"3-2\",\"4198\",\"37\",\"1\",\"Training\",\"Stims/Figures/139-C-20-2.bmp\",\"mama:na\",\"Right\",\"37\",\"6\",\"11\",\"4\",\"S\",\"C\",\"91\"
\"\",\"\",\"approach-retreat\",\"95\",\"686920\",\"0.0-95.0\",\"\",\"\",\"3-2\",\"4217\",\"38\",\"1\",\"Training\",\"Stims/Figures/85-C-20-2.bmp\",\"ma:lala\",\"Down\",\"38\",\"6\",\"12\",\"4\",\"S\",\"C\",\"92\"
\"\",\"\",\"approach-retreat\",\"96\",\"692562\",\"0.0-96.0\",\"\",\"\",\"3-2\",\"4132\",\"39\",\"1\",\"Training\",\"Stims/Figures/74-J-10-4.bmp\",\"papa:ta\",\"Right\",\"39\",\"6\",\"13\",\"4\",\"P\",\"C\",\"93\"
\"\",\"\",\"approach-retreat\",\"97\",\"698099\",\"0.0-97.0\",\"\",\"\",\"3-2\",\"4029\",\"38\",\"1\",\"Training\",\"Stims/Figures/144-J-10-3.bmp\",\"papa:ka\",\"Up\",\"38\",\"6\",\"14\",\"4\",\"P\",\"C\",\"94\"
\"\",\"\",\"approach-retreat\",\"98\",\"703853\",\"0.0-98.0\",\"\",\"\",\"3-2\",\"4246\",\"38\",\"1\",\"Training\",\"Stims/Figures/85-J-0-2.bmp\",\"takaka\",\"Up\",\"38\",\"6\",\"15\",\"4\",\"P\",\"C\",\"95\"
\"\",\"\",\"approach-retreat\",\"99\",\"709423\",\"0.0-99.0\",\"\",\"\",\"3-2\",\"4063\",\"39\",\"1\",\"Training\",\"Stims/Figures/100-C-30-3.bmp\",\"na:mana\",\"Left\",\"39\",\"6\",\"16\",\"4\",\"S\",\"C\",\"96\"
\"\",\"\",\"approach-retreat\",\"100\",\"714997\",\"0.0-100.0\",\"\",\"\",\"3-2\",\"4065\",\"39\",\"1\",\"Training\",\"Stims/Figures/86-J-0-1.bmp\",\"ta:ka:ka\",\"Right\",\"39\",\"7\",\"1\",\"4\",\"P\",\"C\",\"97\"
\"\",\"\",\"approach-retreat\",\"101\",\"720578\",\"0.0-101.0\",\"\",\"\",\"3-2\",\"4072\",\"38\",\"1\",\"Training\",\"Stims/Figures/144-C-30-3.bmp\",\"malana\",\"Down\",\"38\",\"7\",\"2\",\"4\",\"S\",\"C\",\"98\"
\"\",\"\",\"approach-retreat\",\"102\",\"726088\",\"0.0-102.0\",\"\",\"\",\"3-2\",\"4001\",\"38\",\"1\",\"Training\",\"Stims/Figures/144-J-10-3.bmp\",\"papa:ka\",\"Up\",\"38\",\"7\",\"3\",\"4\",\"P\",\"C\",\"99\"
\"\",\"\",\"approach-retreat\",\"103\",\"731635\",\"0.0-103.0\",\"\",\"\",\"3-2\",\"4040\",\"37\",\"1\",\"Training\",\"Stims/Figures/74-J-10-4.bmp\",\"papa:ta\",\"Left\",\"37\",\"7\",\"4\",\"4\",\"P\",\"C\",\"100\"
\"\",\"\",\"approach-retreat\",\"104\",\"737178\",\"0.0-104.0\",\"\",\"\",\"3-2\",\"4035\",\"38\",\"1\",\"Training\",\"Stims/Figures/57-C-30-1.bmp\",\"ma:mala\",\"Down\",\"38\",\"7\",\"5\",\"4\",\"S\",\"C\",\"101\"
\"\",\"\",\"approach-retreat\",\"105\",\"743084\",\"0.0-105.0\",\"\",\"\",\"3-2\",\"4397\",\"40\",\"1\",\"Training\",\"Stims/Figures/74-C-20-4.bmp\",\"na:lana\",\"Up\",\"40\",\"7\",\"6\",\"4\",\"S\",\"C\",\"102\"
\"\",\"\",\"approach-retreat\",\"106\",\"748643\",\"0.0-106.0\",\"\",\"\",\"3-2\",\"4051\",\"39\",\"1\",\"Training\",\"Stims/Figures/86-C-30-1.bmp\",\"ma:ma:la\",\"Left\",\"39\",\"7\",\"7\",\"4\",\"S\",\"C\",\"103\"
\"\",\"\",\"approach-retreat\",\"107\",\"754178\",\"0.0-107.0\",\"\",\"\",\"3-2\",\"4028\",\"39\",\"1\",\"Training\",\"Stims/Figures/139-C-20-2.bmp\",\"mama:na\",\"Left\",\"39\",\"7\",\"8\",\"4\",\"S\",\"C\",\"104\"
\"\",\"\",\"approach-retreat\",\"108\",\"759794\",\"0.0-108.0\",\"\",\"\",\"3-2\",\"4107\",\"37\",\"1\",\"Training\",\"Stims/Figures/100-C-30-3.bmp\",\"na:mana\",\"Right\",\"37\",\"7\",\"9\",\"4\",\"S\",\"C\",\"105\"
\"\",\"\",\"approach-retreat\",\"109\",\"765563\",\"0.0-109.0\",\"\",\"\",\"3-2\",\"4262\",\"40\",\"1\",\"Training\",\"Stims/Figures/100-J-10-3.bmp\",\"pa:ka:ka\",\"Down\",\"40\",\"7\",\"10\",\"4\",\"P\",\"C\",\"106\"
\"\",\"\",\"approach-retreat\",\"110\",\"771334\",\"0.0-110.0\",\"\",\"\",\"3-2\",\"4263\",\"38\",\"1\",\"Training\",\"Stims/Figures/7-C-20-4.bmp\",\"nala:la\",\"Down\",\"38\",\"7\",\"11\",\"4\",\"S\",\"C\",\"107\"
\"\",\"\",\"approach-retreat\",\"111\",\"777024\",\"0.0-111.0\",\"\",\"\",\"3-2\",\"4182\",\"40\",\"1\",\"Training\",\"Stims/Figures/85-C-20-2.bmp\",\"ma:lala\",\"Up\",\"40\",\"7\",\"12\",\"4\",\"S\",\"C\",\"108\"
\"\",\"\",\"approach-retreat\",\"112\",\"782653\",\"0.0-112.0\",\"\",\"\",\"3-2\",\"4120\",\"39\",\"1\",\"Training\",\"Stims/Figures/7-J-10-4.bmp\",\"paka:ka\",\"Right\",\"39\",\"7\",\"13\",\"4\",\"P\",\"C\",\"109\"
\"\",\"\",\"approach-retreat\",\"113\",\"788693\",\"0.0-113.0\",\"\",\"\",\"3-2\",\"4532\",\"38\",\"1\",\"Training\",\"Stims/Figures/85-J-0-2.bmp\",\"takaka\",\"Up\",\"38\",\"7\",\"14\",\"4\",\"P\",\"C\",\"110\"
\"\",\"\",\"approach-retreat\",\"114\",\"794457\",\"0.0-114.0\",\"\",\"\",\"3-2\",\"4254\",\"37\",\"1\",\"Training\",\"Stims/Figures/139-J-0-2.bmp\",\"ta:paka\",\"Left\",\"37\",\"7\",\"15\",\"4\",\"P\",\"C\",\"111\"
\"\",\"\",\"approach-retreat\",\"115\",\"800130\",\"0.0-115.0\",\"\",\"\",\"3-2\",\"4165\",\"39\",\"1\",\"Training\",\"Stims/Figures/57-J-0-1.bmp\",\"tapa:ta\",\"Right\",\"39\",\"7\",\"16\",\"4\",\"P\",\"C\",\"112\"
\"\",\"\",\"approach-retreat\",\"116\",\"805968\",\"0.0-116.0\",\"\",\"\",\"3-2\",\"4329\",\"37\",\"1\",\"Training\",\"Stims/Figures/139-J-0-2.bmp\",\"ta:paka\",\"Left\",\"37\",\"8\",\"1\",\"4\",\"P\",\"C\",\"113\"
\"\",\"\",\"approach-retreat\",\"117\",\"812421\",\"0.0-117.0\",\"\",\"\",\"3-2\",\"4943\",\"37\",\"1\",\"Training\",\"Stims/Figures/100-C-30-3.bmp\",\"na:mana\",\"Right\",\"37\",\"8\",\"2\",\"4\",\"S\",\"C\",\"114\"
\"\",\"\",\"approach-retreat\",\"118\",\"818097\",\"0.0-118.0\",\"\",\"\",\"3-2\",\"4167\",\"40\",\"1\",\"Training\",\"Stims/Figures/85-C-20-2.bmp\",\"ma:lala\",\"Up\",\"40\",\"8\",\"3\",\"4\",\"S\",\"C\",\"115\"
\"\",\"\",\"approach-retreat\",\"119\",\"823678\",\"0.0-119.0\",\"\",\"\",\"3-2\",\"4073\",\"38\",\"1\",\"Training\",\"Stims/Figures/100-J-10-3.bmp\",\"pa:ka:ka\",\"Up\",\"38\",\"8\",\"4\",\"4\",\"P\",\"C\",\"116\"
\"\",\"\",\"approach-retreat\",\"120\",\"829818\",\"0.0-120.0\",\"\",\"\",\"3-2\",\"4632\",\"37\",\"1\",\"Training\",\"Stims/Figures/74-C-20-4.bmp\",\"na:lana\",\"Right\",\"37\",\"8\",\"5\",\"4\",\"S\",\"C\",\"117\"
\"\",\"\",\"approach-retreat\",\"121\",\"835524\",\"0.0-121.0\",\"\",\"\",\"3-2\",\"4198\",\"40\",\"1\",\"Training\",\"Stims/Figures/74-J-10-4.bmp\",\"papa:ta\",\"Down\",\"40\",\"8\",\"6\",\"4\",\"P\",\"C\",\"118\"
\"\",\"\",\"approach-retreat\",\"122\",\"841273\",\"0.0-122.0\",\"\",\"\",\"3-2\",\"4241\",\"38\",\"1\",\"Training\",\"Stims/Figures/7-J-10-4.bmp\",\"paka:ka\",\"Up\",\"38\",\"8\",\"7\",\"4\",\"P\",\"C\",\"119\"
\"\",\"\",\"approach-retreat\",\"123\",\"847441\",\"0.0-123.0\",\"\",\"\",\"3-2\",\"4661\",\"38\",\"1\",\"Training\",\"Stims/Figures/139-C-20-2.bmp\",\"mama:na\",\"Down\",\"38\",\"8\",\"8\",\"4\",\"S\",\"C\",\"120\"
\"\",\"\",\"approach-retreat\",\"124\",\"853418\",\"0.0-124.0\",\"\",\"\",\"3-2\",\"4468\",\"39\",\"1\",\"Training\",\"Stims/Figures/57-J-0-1.bmp\",\"tapa:ta\",\"Right\",\"39\",\"8\",\"9\",\"4\",\"P\",\"C\",\"121\"
\"\",\"\",\"approach-retreat\",\"125\",\"859494\",\"0.0-125.0\",\"\",\"\",\"3-2\",\"4567\",\"40\",\"1\",\"Training\",\"Stims/Figures/144-J-10-3.bmp\",\"papa:ka\",\"Down\",\"40\",\"8\",\"10\",\"4\",\"P\",\"C\",\"122\"
\"\",\"\",\"approach-retreat\",\"126\",\"865314\",\"0.0-126.0\",\"\",\"\",\"3-2\",\"4312\",\"39\",\"1\",\"Training\",\"Stims/Figures/86-J-0-1.bmp\",\"ta:ka:ka\",\"Right\",\"39\",\"8\",\"11\",\"4\",\"P\",\"C\",\"123\"
\"\",\"\",\"approach-retreat\",\"127\",\"870942\",\"0.0-127.0\",\"\",\"\",\"3-2\",\"4119\",\"40\",\"1\",\"Training\",\"Stims/Figures/144-C-30-3.bmp\",\"malana\",\"Up\",\"40\",\"8\",\"12\",\"4\",\"S\",\"C\",\"124\"
\"\",\"\",\"approach-retreat\",\"128\",\"876482\",\"0.0-128.0\",\"\",\"\",\"3-2\",\"4033\",\"38\",\"1\",\"Training\",\"Stims/Figures/86-C-30-1.bmp\",\"ma:ma:la\",\"Down\",\"38\",\"8\",\"13\",\"4\",\"S\",\"C\",\"125\"
\"\",\"\",\"approach-retreat\",\"129\",\"882198\",\"0.0-129.0\",\"\",\"\",\"3-2\",\"4207\",\"37\",\"1\",\"Training\",\"Stims/Figures/85-J-0-2.bmp\",\"takaka\",\"Left\",\"37\",\"8\",\"14\",\"4\",\"P\",\"C\",\"126\"
\"\",\"\",\"approach-retreat\",\"130\",\"887748\",\"0.0-130.0\",\"\",\"\",\"3-2\",\"4041\",\"39\",\"1\",\"Training\",\"Stims/Figures/7-C-20-4.bmp\",\"nala:la\",\"Left\",\"39\",\"8\",\"15\",\"4\",\"S\",\"C\",\"127\"
\"\",\"\",\"approach-retreat\",\"131\",\"893272\",\"0.0-131.0\",\"\",\"\",\"3-2\",\"4016\",\"39\",\"1\",\"Training\",\"Stims/Figures/57-C-30-1.bmp\",\"ma:mala\",\"Left\",\"39\",\"8\",\"16\",\"4\",\"S\",\"C\",\"128\"
\"\",\"\",\"approach-retreat\",\"132\",\"898882\",\"0.0-132.0\",\"\",\"\",\"3-2\",\"4103\",\"39\",\"1\",\"Training\",\"Stims/Figures/85-J-0-2.bmp\",\"takaka\",\"Right\",\"39\",\"9\",\"1\",\"4\",\"P\",\"C\",\"129\"
\"\",\"\",\"approach-retreat\",\"133\",\"904518\",\"0.0-133.0\",\"\",\"\",\"3-2\",\"4127\",\"40\",\"1\",\"Training\",\"Stims/Figures/100-C-30-3.bmp\",\"na:mana\",\"Up\",\"40\",\"9\",\"2\",\"4\",\"S\",\"C\",\"130\"
\"\",\"\",\"approach-retreat\",\"134\",\"910137\",\"0.0-134.0\",\"\",\"\",\"3-2\",\"4112\",\"37\",\"1\",\"Training\",\"Stims/Figures/7-J-10-4.bmp\",\"paka:ka\",\"Left\",\"37\",\"9\",\"3\",\"4\",\"P\",\"C\",\"131\"
\"\",\"\",\"approach-retreat\",\"135\",\"915736\",\"0.0-135.0\",\"\",\"\",\"3-2\",\"4092\",\"40\",\"1\",\"Training\",\"Stims/Figures/144-J-10-3.bmp\",\"papa:ka\",\"Down\",\"40\",\"9\",\"4\",\"4\",\"P\",\"C\",\"132\"
\"\",\"\",\"approach-retreat\",\"136\",\"921222\",\"0.0-136.0\",\"\",\"\",\"3-2\",\"3979\",\"39\",\"1\",\"Training\",\"Stims/Figures/85-C-20-2.bmp\",\"ma:lala\",\"Left\",\"39\",\"9\",\"5\",\"4\",\"S\",\"C\",\"133\"
\"\",\"\",\"approach-retreat\",\"137\",\"926764\",\"0.0-137.0\",\"\",\"\",\"3-2\",\"4034\",\"40\",\"1\",\"Training\",\"Stims/Figures/57-J-0-1.bmp\",\"tapa:ta\",\"Down\",\"40\",\"9\",\"6\",\"4\",\"P\",\"C\",\"134\"
\"\",\"\",\"approach-retreat\",\"138\",\"932596\",\"0.0-138.0\",\"\",\"\",\"3-2\",\"4325\",\"39\",\"1\",\"Training\",\"Stims/Figures/144-C-30-3.bmp\",\"malana\",\"Left\",\"39\",\"9\",\"7\",\"4\",\"S\",\"C\",\"135\"
\"\",\"\",\"approach-retreat\",\"139\",\"938186\",\"0.0-139.0\",\"\",\"\",\"3-2\",\"4082\",\"40\",\"1\",\"Training\",\"Stims/Figures/86-C-30-1.bmp\",\"ma:ma:la\",\"Up\",\"40\",\"9\",\"8\",\"4\",\"S\",\"C\",\"136\"
\"\",\"\",\"approach-retreat\",\"140\",\"943820\",\"0.0-140.0\",\"\",\"\",\"3-2\",\"4125\",\"38\",\"1\",\"Training\",\"Stims/Figures/7-C-20-4.bmp\",\"nala:la\",\"Down\",\"38\",\"9\",\"9\",\"4\",\"S\",\"C\",\"137\"
\"\",\"\",\"approach-retreat\",\"141\",\"949961\",\"0.0-141.0\",\"\",\"\",\"3-2\",\"4633\",\"38\",\"1\",\"Training\",\"Stims/Figures/57-C-30-1.bmp\",\"ma:mala\",\"Down\",\"38\",\"9\",\"10\",\"4\",\"S\",\"C\",\"138\"
\"\",\"\",\"approach-retreat\",\"142\",\"955863\",\"0.0-142.0\",\"\",\"\",\"3-2\",\"4394\",\"38\",\"1\",\"Training\",\"Stims/Figures/86-J-0-1.bmp\",\"ta:ka:ka\",\"Up\",\"38\",\"9\",\"11\",\"4\",\"P\",\"C\",\"139\"
\"\",\"\",\"approach-retreat\",\"143\",\"961373\",\"0.0-143.0\",\"\",\"\",\"3-2\",\"4002\",\"39\",\"1\",\"Training\",\"Stims/Figures/74-C-20-4.bmp\",\"na:lana\",\"Left\",\"39\",\"9\",\"12\",\"4\",\"S\",\"C\",\"140\"
\"\",\"\",\"approach-retreat\",\"144\",\"966988\",\"0.0-144.0\",\"\",\"\",\"3-2\",\"4107\",\"39\",\"1\",\"Training\",\"Stims/Figures/100-J-10-3.bmp\",\"pa:ka:ka\",\"Right\",\"39\",\"9\",\"13\",\"4\",\"P\",\"C\",\"141\"
\"\",\"\",\"approach-retreat\",\"145\",\"972473\",\"0.0-145.0\",\"\",\"\",\"3-2\",\"3976\",\"39\",\"1\",\"Training\",\"Stims/Figures/139-J-0-2.bmp\",\"ta:paka\",\"Right\",\"39\",\"9\",\"14\",\"4\",\"P\",\"C\",\"142\"
\"\",\"\",\"approach-retreat\",\"146\",\"978643\",\"0.0-146.0\",\"\",\"\",\"3-2\",\"4663\",\"40\",\"1\",\"Training\",\"Stims/Figures/139-C-20-2.bmp\",\"mama:na\",\"Up\",\"40\",\"9\",\"15\",\"4\",\"S\",\"C\",\"143\"
\"\",\"\",\"approach-retreat\",\"147\",\"984298\",\"0.0-147.0\",\"\",\"\",\"3-2\",\"4147\",\"39\",\"1\",\"Training\",\"Stims/Figures/74-J-10-4.bmp\",\"papa:ta\",\"Right\",\"39\",\"9\",\"16\",\"4\",\"P\",\"C\",\"144\"
\"26193\",\"\",\"instructions\",\"148\",\"1010492\",\"0.0-148.0\",\"[{\"\"page_index\"\":0,\"\"viewing_time\"\":26191}]\",\"\",\"\",\"\",\"\",\"\",\"\",\"\",\"\",\"\",\"\",\"\",\"\",\"\",\"\",\"\",\"\"
\"\",\"\",\"approach-retreat\",\"149\",\"1018227\",\"0.0-149.0\",\"\",\"\",\"3-2\",\"6230\",\"40\",\"1\",\"Testing\",\"Stims/Figures/71-J-0-1.bmp\",\"pakata\",\"Down\",\"40\",\"1\",\"1\",\"4\",\"P\",\"C\",\"1\"
\"\",\"\",\"approach-retreat\",\"150\",\"1024565\",\"0.0-150.0\",\"\",\"\",\"3-2\",\"4830\",\"39\",\"1\",\"Testing\",\"Stims/Figures/7-J-10-4.bmp\",\"paka:ka\",\"Right\",\"39\",\"1\",\"2\",\"4\",\"P\",\"C\",\"2\"
\"\",\"\",\"approach-retreat\",\"151\",\"1030851\",\"0.0-151.0\",\"\",\"\",\"3-2\",\"4780\",\"37\",\"1\",\"Testing\",\"Stims/Figures/84-J-0-2.bmp\",\"pa:pata\",\"Left\",\"37\",\"1\",\"3\",\"4\",\"P\",\"C\",\"3\"
\"\",\"\",\"approach-retreat\",\"152\",\"1036734\",\"0.0-152.0\",\"\",\"\",\"3-2\",\"4378\",\"38\",\"1\",\"Testing\",\"Stims/Figures/86-J-0-1.bmp\",\"ta:ka:ka\",\"Up\",\"38\",\"1\",\"4\",\"4\",\"P\",\"C\",\"4\"
\"\",\"\",\"approach-retreat\",\"153\",\"1042551\",\"0.0-153.0\",\"\",\"\",\"3-2\",\"4310\",\"39\",\"1\",\"Testing\",\"Stims/Figures/139-C-20-2.bmp\",\"mama:na\",\"Left\",\"39\",\"1\",\"5\",\"4\",\"S\",\"C\",\"5\"
\"\",\"\",\"approach-retreat\",\"154\",\"1048255\",\"0.0-154.0\",\"\",\"\",\"3-2\",\"4198\",\"38\",\"1\",\"Testing\",\"Stims/Figures/85-C-20-2.bmp\",\"ma:lala\",\"Down\",\"38\",\"1\",\"6\",\"4\",\"S\",\"C\",\"6\"
\"\",\"\",\"approach-retreat\",\"155\",\"1055486\",\"0.0-155.0\",\"\",\"\",\"3-2\",\"5724\",\"40\",\"1\",\"Testing\",\"Stims/Figures/84-C-20-2.bmp\",\"nama:na\",\"Up\",\"40\",\"1\",\"7\",\"4\",\"S\",\"C\",\"7\"
\"\",\"\",\"approach-retreat\",\"156\",\"1061129\",\"0.0-156.0\",\"\",\"\",\"3-2\",\"4136\",\"39\",\"1\",\"Testing\",\"Stims/Figures/144-C-30-3.bmp\",\"malana\",\"Left\",\"39\",\"1\",\"8\",\"4\",\"S\",\"C\",\"8\"
\"\",\"\",\"approach-retreat\",\"157\",\"1067025\",\"0.0-157.0\",\"\",\"\",\"3-2\",\"4389\",\"39\",\"1\",\"Testing\",\"Stims/Figures/74-J-10-4.bmp\",\"papa:ta\",\"Right\",\"39\",\"1\",\"9\",\"4\",\"P\",\"C\",\"9\"
\"\",\"\",\"approach-retreat\",\"158\",\"1072791\",\"0.0-158.0\",\"\",\"\",\"3-2\",\"4259\",\"37\",\"1\",\"Testing\",\"Stims/Figures/74-C-20-4.bmp\",\"na:lana\",\"Right\",\"37\",\"1\",\"10\",\"4\",\"S\",\"C\",\"10\"
\"\",\"\",\"approach-retreat\",\"159\",\"1078913\",\"0.0-159.0\",\"\",\"\",\"3-2\",\"4613\",\"40\",\"1\",\"Testing\",\"Stims/Figures/111-C-30-3.bmp\",\"nalala\",\"Up\",\"40\",\"1\",\"11\",\"4\",\"S\",\"C\",\"11\"
\"\",\"\",\"approach-retreat\",\"160\",\"1084623\",\"0.0-160.0\",\"\",\"\",\"3-2\",\"4203\",\"37\",\"1\",\"Testing\",\"Stims/Figures/102-J-10-4.bmp\",\"ta:kaka\",\"Left\",\"37\",\"1\",\"12\",\"4\",\"P\",\"C\",\"12\"
\"\",\"\",\"approach-retreat\",\"161\",\"1090305\",\"0.0-161.0\",\"\",\"\",\"3-2\",\"4176\",\"37\",\"1\",\"Testing\",\"Stims/Figures/71-C-30-1.bmp\",\"namana\",\"Right\",\"37\",\"1\",\"13\",\"4\",\"S\",\"C\",\"13\"
\"\",\"\",\"approach-retreat\",\"162\",\"1097194\",\"0.0-162.0\",\"\",\"\",\"3-2\",\"5382\",\"37\",\"1\",\"Testing\",\"Stims/Figures/86-C-30-1.bmp\",\"ma:ma:la\",\"Right\",\"37\",\"1\",\"14\",\"4\",\"S\",\"C\",\"14\"
\"\",\"\",\"approach-retreat\",\"163\",\"1103166\",\"0.0-163.0\",\"\",\"\",\"3-2\",\"4466\",\"37\",\"1\",\"Testing\",\"Stims/Figures/57-J-0-1.bmp\",\"tapa:ta\",\"Left\",\"37\",\"1\",\"15\",\"4\",\"P\",\"C\",\"15\"
\"\",\"\",\"approach-retreat\",\"164\",\"1109019\",\"0.0-164.0\",\"\",\"\",\"3-2\",\"4346\",\"39\",\"1\",\"Testing\",\"Stims/Figures/100-J-10-3.bmp\",\"pa:ka:ka\",\"Right\",\"39\",\"1\",\"16\",\"4\",\"P\",\"C\",\"16\"
\"\",\"\",\"approach-retreat\",\"165\",\"1115214\",\"0.0-165.0\",\"\",\"\",\"3-2\",\"4688\",\"40\",\"1\",\"Testing\",\"Stims/Figures/102-C-20-4.bmp\",\"mala:na\",\"Up\",\"40\",\"1\",\"17\",\"4\",\"S\",\"C\",\"17\"
\"\",\"\",\"approach-retreat\",\"166\",\"1121003\",\"0.0-166.0\",\"\",\"\",\"3-2\",\"4282\",\"38\",\"1\",\"Testing\",\"Stims/Figures/100-C-30-3.bmp\",\"na:mana\",\"Down\",\"38\",\"1\",\"18\",\"4\",\"S\",\"C\",\"18\"
\"\",\"\",\"approach-retreat\",\"167\",\"1126823\",\"0.0-167.0\",\"\",\"\",\"3-2\",\"4309\",\"38\",\"1\",\"Testing\",\"Stims/Figures/139-J-0-2.bmp\",\"ta:paka\",\"Up\",\"38\",\"1\",\"19\",\"4\",\"P\",\"C\",\"19\"
\"\",\"\",\"approach-retreat\",\"168\",\"1133545\",\"0.0-168.0\",\"\",\"\",\"3-2\",\"5215\",\"40\",\"1\",\"Testing\",\"Stims/Figures/111-J-10-3.bmp\",\"papata\",\"Down\",\"40\",\"1\",\"20\",\"4\",\"P\",\"C\",\"20\"
\"\",\"\",\"approach-retreat\",\"169\",\"1139275\",\"0.0-169.0\",\"\",\"\",\"3-2\",\"4223\",\"39\",\"1\",\"Testing\",\"Stims/Figures/7-C-20-4.bmp\",\"nala:la\",\"Left\",\"39\",\"1\",\"21\",\"4\",\"S\",\"C\",\"21\"
\"\",\"\",\"approach-retreat\",\"170\",\"1145129\",\"0.0-170.0\",\"\",\"\",\"3-2\",\"4348\",\"40\",\"1\",\"Testing\",\"Stims/Figures/57-C-30-1.bmp\",\"ma:mala\",\"Up\",\"40\",\"1\",\"22\",\"4\",\"S\",\"C\",\"22\"
\"\",\"\",\"approach-retreat\",\"171\",\"1151101\",\"0.0-171.0\",\"\",\"\",\"3-2\",\"4465\",\"40\",\"1\",\"Testing\",\"Stims/Figures/144-J-10-3.bmp\",\"papa:ka\",\"Down\",\"40\",\"1\",\"23\",\"4\",\"P\",\"C\",\"23\"
\"\",\"\",\"approach-retreat\",\"172\",\"1157030\",\"0.0-172.0\",\"\",\"\",\"3-2\",\"4422\",\"40\",\"1\",\"Testing\",\"Stims/Figures/85-J-0-2.bmp\",\"takaka\",\"Down\",\"40\",\"1\",\"24\",\"4\",\"P\",\"C\",\"24\"
\"\",\"\",\"approach-retreat\",\"173\",\"1162841\",\"0.0-173.0\",\"\",\"\",\"3-2\",\"4305\",\"38\",\"1\",\"Testing\",\"Stims/Figures/85-C-20-2.bmp\",\"ma:lala\",\"Down\",\"38\",\"2\",\"1\",\"4\",\"S\",\"C\",\"25\"
\"\",\"\",\"approach-retreat\",\"174\",\"1169055\",\"0.0-174.0\",\"\",\"\",\"3-2\",\"4708\",\"39\",\"1\",\"Testing\",\"Stims/Figures/7-J-10-4.bmp\",\"paka:ka\",\"Right\",\"39\",\"2\",\"2\",\"4\",\"P\",\"C\",\"26\"
\"\",\"\",\"approach-retreat\",\"175\",\"1174679\",\"0.0-175.0\",\"\",\"\",\"3-2\",\"4118\",\"37\",\"1\",\"Testing\",\"Stims/Figures/74-J-10-4.bmp\",\"papa:ta\",\"Left\",\"37\",\"2\",\"3\",\"4\",\"P\",\"C\",\"27\"
\"\",\"\",\"approach-retreat\",\"176\",\"1180448\",\"0.0-176.0\",\"\",\"\",\"3-2\",\"4263\",\"38\",\"1\",\"Testing\",\"Stims/Figures/100-J-10-3.bmp\",\"pa:ka:ka\",\"Up\",\"38\",\"2\",\"4\",\"4\",\"P\",\"C\",\"28\"
\"\",\"\",\"approach-retreat\",\"177\",\"1186050\",\"0.0-177.0\",\"\",\"\",\"3-2\",\"4096\",\"37\",\"1\",\"Testing\",\"Stims/Figures/144-J-10-3.bmp\",\"papa:ka\",\"Left\",\"37\",\"2\",\"5\",\"4\",\"P\",\"C\",\"29\"
\"\",\"\",\"approach-retreat\",\"178\",\"1191889\",\"0.0-178.0\",\"\",\"\",\"3-2\",\"4333\",\"40\",\"0\",\"Testing\",\"Stims/Figures/102-C-20-4.bmp\",\"mala:na\",\"Down\",\"38\",\"2\",\"6\",\"4\",\"S\",\"C\",\"30\"
\"\",\"\",\"approach-retreat\",\"179\",\"1197439\",\"0.0-179.0\",\"\",\"\",\"3-2\",\"4043\",\"39\",\"1\",\"Testing\",\"Stims/Figures/86-C-30-1.bmp\",\"ma:ma:la\",\"Left\",\"39\",\"2\",\"7\",\"4\",\"S\",\"C\",\"31\"
\"\",\"\",\"approach-retreat\",\"180\",\"1203123\",\"0.0-180.0\",\"\",\"\",\"3-2\",\"4178\",\"38\",\"1\",\"Testing\",\"Stims/Figures/84-C-20-2.bmp\",\"nama:na\",\"Down\",\"38\",\"2\",\"8\",\"4\",\"S\",\"C\",\"32\"
\"\",\"\",\"approach-retreat\",\"181\",\"1208772\",\"0.0-181.0\",\"\",\"\",\"3-2\",\"4142\",\"38\",\"1\",\"Testing\",\"Stims/Figures/139-J-0-2.bmp\",\"ta:paka\",\"Up\",\"38\",\"2\",\"9\",\"4\",\"P\",\"C\",\"33\"
\"\",\"\",\"approach-retreat\",\"182\",\"1214714\",\"0.0-182.0\",\"\",\"\",\"3-2\",\"4436\",\"40\",\"1\",\"Testing\",\"Stims/Figures/57-J-0-1.bmp\",\"tapa:ta\",\"Down\",\"40\",\"2\",\"10\",\"4\",\"P\",\"C\",\"34\"
\"\",\"\",\"approach-retreat\",\"183\",\"1220584\",\"0.0-183.0\",\"\",\"\",\"3-2\",\"4364\",\"37\",\"1\",\"Testing\",\"Stims/Figures/102-J-10-4.bmp\",\"ta:kaka\",\"Left\",\"37\",\"2\",\"11\",\"4\",\"P\",\"C\",\"35\"
\"\",\"\",\"approach-retreat\",\"184\",\"1226263\",\"0.0-184.0\",\"\",\"\",\"3-2\",\"4171\",\"40\",\"1\",\"Testing\",\"Stims/Figures/100-C-30-3.bmp\",\"na:mana\",\"Up\",\"40\",\"2\",\"12\",\"4\",\"S\",\"C\",\"36\"
\"\",\"\",\"approach-retreat\",\"185\",\"1232248\",\"0.0-185.0\",\"\",\"\",\"3-2\",\"4478\",\"39\",\"1\",\"Testing\",\"Stims/Figures/86-J-0-1.bmp\",\"ta:ka:ka\",\"Right\",\"39\",\"2\",\"13\",\"4\",\"P\",\"C\",\"37\"
\"\",\"\",\"approach-retreat\",\"186\",\"1238519\",\"0.0-186.0\",\"\",\"\",\"3-2\",\"4765\",\"38\",\"1\",\"Testing\",\"Stims/Figures/85-J-0-2.bmp\",\"takaka\",\"Up\",\"38\",\"2\",\"14\",\"4\",\"P\",\"C\",\"38\"
\"\",\"\",\"approach-retreat\",\"187\",\"1244484\",\"0.0-187.0\",\"\",\"\",\"3-2\",\"4458\",\"39\",\"0\",\"Testing\",\"Stims/Figures/74-C-20-4.bmp\",\"na:lana\",\"Right\",\"37\",\"2\",\"15\",\"4\",\"S\",\"C\",\"39\"
\"\",\"\",\"approach-retreat\",\"188\",\"1250060\",\"0.0-188.0\",\"\",\"\",\"3-2\",\"4071\",\"37\",\"0\",\"Testing\",\"Stims/Figures/71-C-30-1.bmp\",\"namana\",\"Left\",\"39\",\"2\",\"16\",\"4\",\"S\",\"C\",\"40\"
\"\",\"\",\"approach-retreat\",\"189\",\"1255860\",\"0.0-189.0\",\"\",\"\",\"3-2\",\"4294\",\"38\",\"0\",\"Testing\",\"Stims/Figures/57-C-30-1.bmp\",\"ma:mala\",\"Up\",\"40\",\"2\",\"17\",\"4\",\"S\",\"C\",\"41\"
\"\",\"\",\"approach-retreat\",\"190\",\"1262183\",\"0.0-190.0\",\"\",\"\",\"3-2\",\"4816\",\"38\",\"1\",\"Testing\",\"Stims/Figures/144-C-30-3.bmp\",\"malana\",\"Down\",\"38\",\"2\",\"18\",\"4\",\"S\",\"C\",\"42\"
\"\",\"\",\"approach-retreat\",\"191\",\"1267854\",\"0.0-191.0\",\"\",\"\",\"3-2\",\"4165\",\"39\",\"1\",\"Testing\",\"Stims/Figures/111-C-30-3.bmp\",\"nalala\",\"Left\",\"39\",\"2\",\"19\",\"4\",\"S\",\"C\",\"43\"
\"\",\"\",\"approach-retreat\",\"192\",\"1274231\",\"0.0-192.0\",\"\",\"\",\"3-2\",\"4873\",\"39\",\"1\",\"Testing\",\"Stims/Figures/111-J-10-3.bmp\",\"papata\",\"Right\",\"39\",\"2\",\"20\",\"4\",\"P\",\"C\",\"44\"
\"\",\"\",\"approach-retreat\",\"193\",\"1280144\",\"0.0-193.0\",\"\",\"\",\"3-2\",\"4404\",\"39\",\"0\",\"Testing\",\"Stims/Figures/7-C-20-4.bmp\",\"nala:la\",\"Right\",\"37\",\"2\",\"21\",\"4\",\"S\",\"C\",\"45\"
\"\",\"\",\"approach-retreat\",\"194\",\"1286132\",\"0.0-194.0\",\"\",\"\",\"3-2\",\"4481\",\"38\",\"1\",\"Testing\",\"Stims/Figures/71-J-0-1.bmp\",\"pakata\",\"Up\",\"38\",\"2\",\"22\",\"4\",\"P\",\"C\",\"46\"
\"\",\"\",\"approach-retreat\",\"195\",\"1291898\",\"0.0-195.0\",\"\",\"\",\"3-2\",\"4260\",\"40\",\"1\",\"Testing\",\"Stims/Figures/84-J-0-2.bmp\",\"pa:pata\",\"Down\",\"40\",\"2\",\"23\",\"4\",\"P\",\"C\",\"47\"
\"\",\"\",\"approach-retreat\",\"196\",\"1297736\",\"0.0-196.0\",\"\",\"\",\"3-2\",\"4332\",\"39\",\"0\",\"Testing\",\"Stims/Figures/139-C-20-2.bmp\",\"mama:na\",\"Right\",\"37\",\"2\",\"24\",\"4\",\"S\",\"C\",\"48\"
\"\",\"\",\"approach-retreat\",\"197\",\"1303455\",\"0.0-197.0\",\"\",\"\",\"3-2\",\"4212\",\"38\",\"1\",\"Testing\",\"Stims/Figures/139-C-20-2.bmp\",\"mama:na\",\"Down\",\"38\",\"3\",\"1\",\"4\",\"S\",\"C\",\"49\"
\"\",\"\",\"approach-retreat\",\"198\",\"1309106\",\"0.0-198.0\",\"\",\"\",\"3-2\",\"4144\",\"40\",\"1\",\"Testing\",\"Stims/Figures/84-C-20-2.bmp\",\"nama:na\",\"Up\",\"40\",\"3\",\"2\",\"4\",\"S\",\"C\",\"50\"
\"\",\"\",\"approach-retreat\",\"199\",\"1315086\",\"0.0-199.0\",\"\",\"\",\"3-2\",\"4474\",\"39\",\"1\",\"Testing\",\"Stims/Figures/84-J-0-2.bmp\",\"pa:pata\",\"Right\",\"39\",\"3\",\"3\",\"4\",\"P\",\"C\",\"51\"
\"\",\"\",\"approach-retreat\",\"200\",\"1320737\",\"0.0-200.0\",\"\",\"\",\"3-2\",\"4144\",\"38\",\"1\",\"Testing\",\"Stims/Figures/71-J-0-1.bmp\",\"pakata\",\"Up\",\"38\",\"3\",\"4\",\"4\",\"P\",\"C\",\"52\"
\"\",\"\",\"approach-retreat\",\"201\",\"1326316\",\"0.0-201.0\",\"\",\"\",\"3-2\",\"4072\",\"40\",\"1\",\"Testing\",\"Stims/Figures/71-C-30-1.bmp\",\"namana\",\"Up\",\"40\",\"3\",\"5\",\"4\",\"S\",\"C\",\"53\"
\"\",\"\",\"approach-retreat\",\"202\",\"1331918\",\"0.0-202.0\",\"\",\"\",\"3-2\",\"4095\",\"37\",\"1\",\"Testing\",\"Stims/Figures/7-J-10-4.bmp\",\"paka:ka\",\"Left\",\"37\",\"3\",\"6\",\"4\",\"P\",\"C\",\"54\"
\"\",\"\",\"approach-retreat\",\"203\",\"1337756\",\"0.0-203.0\",\"\",\"\",\"3-2\",\"4331\",\"40\",\"1\",\"Testing\",\"Stims/Figures/111-J-10-3.bmp\",\"papata\",\"Down\",\"40\",\"3\",\"7\",\"4\",\"P\",\"C\",\"55\"
\"\",\"\",\"approach-retreat\",\"204\",\"1343357\",\"0.0-204.0\",\"\",\"\",\"3-2\",\"4096\",\"37\",\"1\",\"Testing\",\"Stims/Figures/144-C-30-3.bmp\",\"malana\",\"Right\",\"37\",\"3\",\"8\",\"4\",\"S\",\"C\",\"56\"
\"\",\"\",\"approach-retreat\",\"205\",\"1348910\",\"0.0-205.0\",\"\",\"\",\"3-2\",\"4047\",\"39\",\"0\",\"Testing\",\"Stims/Figures/86-J-0-1.bmp\",\"ta:ka:ka\",\"Left\",\"37\",\"3\",\"9\",\"4\",\"P\",\"C\",\"57\"
\"\",\"\",\"approach-retreat\",\"206\",\"1354495\",\"0.0-206.0\",\"\",\"\",\"3-2\",\"4078\",\"38\",\"1\",\"Testing\",\"Stims/Figures/102-J-10-4.bmp\",\"ta:kaka\",\"Up\",\"38\",\"3\",\"10\",\"4\",\"P\",\"C\",\"58\"
\"\",\"\",\"approach-retreat\",\"207\",\"1360371\",\"0.0-207.0\",\"\",\"\",\"3-2\",\"4369\",\"38\",\"1\",\"Testing\",\"Stims/Figures/86-C-30-1.bmp\",\"ma:ma:la\",\"Down\",\"38\",\"3\",\"11\",\"4\",\"S\",\"C\",\"59\"
\"\",\"\",\"approach-retreat\",\"208\",\"1366049\",\"0.0-208.0\",\"\",\"\",\"3-2\",\"4172\",\"38\",\"1\",\"Testing\",\"Stims/Figures/144-J-10-3.bmp\",\"papa:ka\",\"Up\",\"38\",\"3\",\"12\",\"4\",\"P\",\"C\",\"60\"
\"\",\"\",\"approach-retreat\",\"209\",\"1371558\",\"0.0-209.0\",\"\",\"\",\"3-2\",\"4003\",\"39\",\"1\",\"Testing\",\"Stims/Figures/57-C-30-1.bmp\",\"ma:mala\",\"Left\",\"39\",\"3\",\"13\",\"4\",\"S\",\"C\",\"61\"
\"\",\"\",\"approach-retreat\",\"210\",\"1377962\",\"0.0-210.0\",\"\",\"\",\"3-2\",\"4897\",\"40\",\"1\",\"Testing\",\"Stims/Figures/100-C-30-3.bmp\",\"na:mana\",\"Up\",\"40\",\"3\",\"14\",\"4\",\"S\",\"C\",\"62\"
\"\",\"\",\"approach-retreat\",\"211\",\"1383650\",\"0.0-211.0\",\"\",\"\",\"3-2\",\"4180\",\"39\",\"0\",\"Testing\",\"Stims/Figures/102-C-20-4.bmp\",\"mala:na\",\"Right\",\"37\",\"3\",\"15\",\"4\",\"S\",\"C\",\"63\"
\"\",\"\",\"approach-retreat\",\"212\",\"1389286\",\"0.0-212.0\",\"\",\"\",\"3-2\",\"4130\",\"40\",\"1\",\"Testing\",\"Stims/Figures/85-J-0-2.bmp\",\"takaka\",\"Down\",\"40\",\"3\",\"16\",\"4\",\"P\",\"C\",\"64\"
\"\",\"\",\"approach-retreat\",\"213\",\"1395682\",\"0.0-213.0\",\"\",\"\",\"3-2\",\"4889\",\"38\",\"1\",\"Testing\",\"Stims/Figures/85-C-20-2.bmp\",\"ma:lala\",\"Down\",\"38\",\"3\",\"17\",\"4\",\"S\",\"C\",\"65\"
\"\",\"\",\"approach-retreat\",\"214\",\"1401223\",\"0.0-214.0\",\"\",\"\",\"3-2\",\"4034\",\"37\",\"1\",\"Testing\",\"Stims/Figures/74-J-10-4.bmp\",\"papa:ta\",\"Left\",\"37\",\"3\",\"18\",\"4\",\"P\",\"C\",\"66\"
\"\",\"\",\"approach-retreat\",\"215\",\"1406777\",\"0.0-215.0\",\"\",\"\",\"3-2\",\"4047\",\"39\",\"1\",\"Testing\",\"Stims/Figures/111-C-30-3.bmp\",\"nalala\",\"Left\",\"39\",\"3\",\"19\",\"4\",\"S\",\"C\",\"67\"
\"\",\"\",\"approach-retreat\",\"216\",\"1412365\",\"0.0-216.0\",\"\",\"\",\"3-2\",\"4082\",\"37\",\"0\",\"Testing\",\"Stims/Figures/7-C-20-4.bmp\",\"nala:la\",\"Left\",\"39\",\"3\",\"20\",\"4\",\"S\",\"C\",\"68\"
\"\",\"\",\"approach-retreat\",\"217\",\"1417944\",\"0.0-217.0\",\"\",\"\",\"3-2\",\"4072\",\"39\",\"1\",\"Testing\",\"Stims/Figures/100-J-10-3.bmp\",\"pa:ka:ka\",\"Right\",\"39\",\"3\",\"21\",\"4\",\"P\",\"C\",\"69\"
\"\",\"\",\"approach-retreat\",\"218\",\"1423767\",\"0.0-218.0\",\"\",\"\",\"3-2\",\"4315\",\"39\",\"1\",\"Testing\",\"Stims/Figures/57-J-0-1.bmp\",\"tapa:ta\",\"Right\",\"39\",\"3\",\"22\",\"4\",\"P\",\"C\",\"70\"
\"\",\"\",\"approach-retreat\",\"219\",\"1429515\",\"0.0-219.0\",\"\",\"\",\"3-2\",\"4241\",\"39\",\"0\",\"Testing\",\"Stims/Figures/74-C-20-4.bmp\",\"na:lana\",\"Right\",\"37\",\"3\",\"23\",\"4\",\"S\",\"C\",\"71\"
\"\",\"\",\"approach-retreat\",\"220\",\"1435374\",\"0.0-220.0\",\"\",\"\",\"3-2\",\"4350\",\"40\",\"1\",\"Testing\",\"Stims/Figures/139-J-0-2.bmp\",\"ta:paka\",\"Down\",\"40\",\"3\",\"24\",\"4\",\"P\",\"C\",\"72\"
\"\",\"\",\"approach-retreat\",\"221\",\"1440906\",\"0.0-221.0\",\"\",\"\",\"3-2\",\"4025\",\"37\",\"0\",\"Testing\",\"Stims/Figures/74-J-10-4.bmp\",\"papa:ta\",\"Right\",\"39\",\"4\",\"1\",\"4\",\"P\",\"C\",\"73\"
\"\",\"\",\"approach-retreat\",\"222\",\"1446512\",\"0.0-222.0\",\"\",\"\",\"3-2\",\"4100\",\"37\",\"1\",\"Testing\",\"Stims/Figures/100-C-30-3.bmp\",\"na:mana\",\"Right\",\"37\",\"4\",\"2\",\"4\",\"S\",\"C\",\"74\"
\"\",\"\",\"approach-retreat\",\"223\",\"1452512\",\"0.0-223.0\",\"\",\"\",\"3-2\",\"4492\",\"38\",\"1\",\"Testing\",\"Stims/Figures/139-J-0-2.bmp\",\"ta:paka\",\"Up\",\"38\",\"4\",\"3\",\"4\",\"P\",\"C\",\"75\"
\"\",\"\",\"approach-retreat\",\"224\",\"1458321\",\"0.0-224.0\",\"\",\"\",\"3-2\",\"4303\",\"38\",\"1\",\"Testing\",\"Stims/Figures/57-C-30-1.bmp\",\"ma:mala\",\"Down\",\"38\",\"4\",\"4\",\"4\",\"S\",\"C\",\"76\"
\"\",\"\",\"approach-retreat\",\"225\",\"1464223\",\"0.0-225.0\",\"\",\"\",\"3-2\",\"4396\",\"40\",\"1\",\"Testing\",\"Stims/Figures/84-J-0-2.bmp\",\"pa:pata\",\"Down\",\"40\",\"4\",\"5\",\"4\",\"P\",\"C\",\"77\"
\"\",\"\",\"approach-retreat\",\"226\",\"1469706\",\"0.0-226.0\",\"\",\"\",\"3-2\",\"3978\",\"39\",\"1\",\"Testing\",\"Stims/Figures/71-C-30-1.bmp\",\"namana\",\"Left\",\"39\",\"4\",\"6\",\"4\",\"S\",\"C\",\"78\"
\"\",\"\",\"approach-retreat\",\"227\",\"1475262\",\"0.0-227.0\",\"\",\"\",\"3-2\",\"4050\",\"38\",\"1\",\"Testing\",\"Stims/Figures/86-C-30-1.bmp\",\"ma:ma:la\",\"Down\",\"38\",\"4\",\"7\",\"4\",\"S\",\"C\",\"79\"
\"\",\"\",\"approach-retreat\",\"228\",\"1480831\",\"0.0-228.0\",\"\",\"\",\"3-2\",\"4063\",\"38\",\"0\",\"Testing\",\"Stims/Figures/7-C-20-4.bmp\",\"nala:la\",\"Up\",\"40\",\"4\",\"8\",\"4\",\"S\",\"C\",\"80\"
\"\",\"\",\"approach-retreat\",\"229\",\"1486310\",\"0.0-229.0\",\"\",\"\",\"3-2\",\"3971\",\"37\",\"1\",\"Testing\",\"Stims/Figures/102-J-10-4.bmp\",\"ta:kaka\",\"Left\",\"37\",\"4\",\"9\",\"4\",\"P\",\"C\",\"81\"
\"\",\"\",\"approach-retreat\",\"230\",\"1491927\",\"0.0-230.0\",\"\",\"\",\"3-2\",\"4110\",\"37\",\"1\",\"Testing\",\"Stims/Figures/7-J-10-4.bmp\",\"paka:ka\",\"Left\",\"37\",\"4\",\"10\",\"4\",\"P\",\"C\",\"82\"
\"\",\"\",\"approach-retreat\",\"231\",\"1497414\",\"0.0-231.0\",\"\",\"\",\"3-2\",\"3981\",\"37\",\"1\",\"Testing\",\"Stims/Figures/86-J-0-1.bmp\",\"ta:ka:ka\",\"Left\",\"37\",\"4\",\"11\",\"4\",\"P\",\"C\",\"83\"
\"\",\"\",\"approach-retreat\",\"232\",\"1502985\",\"0.0-232.0\",\"\",\"\",\"3-2\",\"4065\",\"37\",\"1\",\"Testing\",\"Stims/Figures/111-C-30-3.bmp\",\"nalala\",\"Right\",\"37\",\"4\",\"12\",\"4\",\"S\",\"C\",\"84\"
\"\",\"\",\"approach-retreat\",\"233\",\"1509083\",\"0.0-233.0\",\"\",\"\",\"3-2\",\"4590\",\"40\",\"0\",\"Testing\",\"Stims/Figures/102-C-20-4.bmp\",\"mala:na\",\"Down\",\"38\",\"4\",\"13\",\"4\",\"S\",\"C\",\"85\"
\"\",\"\",\"approach-retreat\",\"234\",\"1514596\",\"0.0-234.0\",\"\",\"\",\"3-2\",\"4006\",\"39\",\"1\",\"Testing\",\"Stims/Figures/144-J-10-3.bmp\",\"papa:ka\",\"Right\",\"39\",\"4\",\"14\",\"4\",\"P\",\"C\",\"86\"
\"\",\"\",\"approach-retreat\",\"235\",\"1520128\",\"0.0-235.0\",\"\",\"\",\"3-2\",\"4026\",\"39\",\"1\",\"Testing\",\"Stims/Figures/85-J-0-2.bmp\",\"takaka\",\"Right\",\"39\",\"4\",\"15\",\"4\",\"P\",\"C\",\"87\"
\"\",\"\",\"approach-retreat\",\"236\",\"1527144\",\"0.0-236.0\",\"\",\"\",\"3-2\",\"5510\",\"39\",\"1\",\"Testing\",\"Stims/Figures/84-C-20-2.bmp\",\"nama:na\",\"Left\",\"39\",\"4\",\"16\",\"4\",\"S\",\"C\",\"88\"
\"\",\"\",\"approach-retreat\",\"237\",\"1533271\",\"0.0-237.0\",\"\",\"\",\"3-2\",\"4620\",\"40\",\"1\",\"Testing\",\"Stims/Figures/71-J-0-1.bmp\",\"pakata\",\"Down\",\"40\",\"4\",\"17\",\"4\",\"P\",\"C\",\"89\"
\"\",\"\",\"approach-retreat\",\"238\",\"1538853\",\"0.0-238.0\",\"\",\"\",\"3-2\",\"4076\",\"38\",\"1\",\"Testing\",\"Stims/Figures/139-C-20-2.bmp\",\"mama:na\",\"Down\",\"38\",\"4\",\"18\",\"4\",\"S\",\"C\",\"90\"
\"\",\"\",\"approach-retreat\",\"239\",\"1544429\",\"0.0-239.0\",\"\",\"\",\"3-2\",\"4069\",\"39\",\"0\",\"Testing\",\"Stims/Figures/100-J-10-3.bmp\",\"pa:ka:ka\",\"Left\",\"37\",\"4\",\"19\",\"4\",\"P\",\"C\",\"91\"
\"\",\"\",\"approach-retreat\",\"240\",\"1549958\",\"0.0-240.0\",\"\",\"\",\"3-2\",\"4022\",\"39\",\"1\",\"Testing\",\"Stims/Figures/57-J-0-1.bmp\",\"tapa:ta\",\"Right\",\"39\",\"4\",\"20\",\"4\",\"P\",\"C\",\"92\"
\"\",\"\",\"approach-retreat\",\"241\",\"1555730\",\"0.0-241.0\",\"\",\"\",\"3-2\",\"4265\",\"38\",\"1\",\"Testing\",\"Stims/Figures/111-J-10-3.bmp\",\"papata\",\"Up\",\"38\",\"4\",\"21\",\"4\",\"P\",\"C\",\"93\"
\"\",\"\",\"approach-retreat\",\"242\",\"1561365\",\"0.0-242.0\",\"\",\"\",\"3-2\",\"4127\",\"40\",\"1\",\"Testing\",\"Stims/Figures/74-C-20-4.bmp\",\"na:lana\",\"Up\",\"40\",\"4\",\"22\",\"4\",\"S\",\"C\",\"94\"
\"\",\"\",\"approach-retreat\",\"243\",\"1567080\",\"0.0-243.0\",\"\",\"\",\"3-2\",\"4210\",\"40\",\"1\",\"Testing\",\"Stims/Figures/85-C-20-2.bmp\",\"ma:lala\",\"Up\",\"40\",\"4\",\"23\",\"4\",\"S\",\"C\",\"95\"
\"\",\"\",\"approach-retreat\",\"244\",\"1572648\",\"0.0-244.0\",\"\",\"\",\"3-2\",\"4063\",\"40\",\"1\",\"Testing\",\"Stims/Figures/144-C-30-3.bmp\",\"malana\",\"Up\",\"40\",\"4\",\"24\",\"4\",\"S\",\"C\",\"96\"
\"27895\",\"\",\"survey-text\",\"245\",\"1600550\",\"0.0-245.0\",\"\",\"{\"\"Q0\"\":\"\"ps170204\"\"}\",\"\",\"\",\"\",\"\",\"\",\"\",\"\",\"\",\"\",\"\",\"\",\"\",\"\",\"\",\"\"
