\"rt\",\"key_press\",\"trial_type\",\"trial_index\",\"time_elapsed\",\"internal_node_id\",\"view_history\",\"responses\",\"Id\",\"Rt\",\"ResKeyCode\",\"ResCorr\",\"TrialType2\",\"Image\",\"Label\",\"Location\",\"CorrectResponse\",\"Block\",\"BlockTrial\",\"Condition\",\"LabelType\",\"Subcondition\",\"trialNum\"
\"138129\",\"32\",\"text\",\"0\",\"138134\",\"0.0-0.0-0.0\",\"\",\"\",\"\",\"\",\"\",\"\",\"\",\"\",\"\",\"\",\"\",\"\",\"\",\"\",\"\",\"\",\"\"
\"59254\",\"\",\"instructions\",\"1\",\"197388\",\"0.0-1.0\",\"[{\"\"page_index\"\":0,\"\"viewing_time\"\":59253}]\",\"\",\"\",\"\",\"\",\"\",\"\",\"\",\"\",\"\",\"\",\"\",\"\",\"\",\"\",\"\",\"\"
\"20381\",\"\",\"survey-multi-choice\",\"2\",\"217792\",\"0.0-2.0\",\"\",\"{\"\"Q0\"\":\"\"Da\"\",\"\"Q1\"\":\"\"Da\"\",\"\"Q2\"\":\"\"Da\"\",\"\"Q3\"\":\"\"Da\"\",\"\"Q4\"\":\"\"Da\"\",\"\"Q5\"\":\"\"Da\"\"}\",\"\",\"\",\"\",\"\",\"\",\"\",\"\",\"\",\"\",\"\",\"\",\"\",\"\",\"\",\"\"
\"\",\"\",\"bio\",\"3\",\"223469\",\"0.0-3.0\",\"\",\"{\"\"age\"\":\"\"19\"\",\"\"gender\"\":\"\"m\"\",\"\"specify\"\":\"\"\"\"}\",\"\",\"\",\"\",\"\",\"\",\"\",\"\",\"\",\"\",\"\",\"\",\"\",\"\",\"\",\"\"
\"\",\"\",\"approach-retreat\",\"4\",\"232704\",\"0.0-4.0\",\"\",\"\",\"3-2\",\"7728\",\"37\",\"0\",\"Training\",\"Stims/Figures/71-C-30-1.bmp\",\"ta:kaka\",\"Right\",\"39\",\"1\",\"1\",\"7\",\"P\",\"J\",\"1\"
\"\",\"\",\"approach-retreat\",\"5\",\"238647\",\"0.0-5.0\",\"\",\"\",\"3-2\",\"4438\",\"37\",\"1\",\"Training\",\"Stims/Figures/71-J-0-1.bmp\",\"papata\",\"Right\",\"37\",\"1\",\"2\",\"7\",\"P\",\"J\",\"2\"
\"\",\"\",\"approach-retreat\",\"6\",\"245352\",\"0.0-6.0\",\"\",\"\",\"3-2\",\"5200\",\"38\",\"0\",\"Training\",\"Stims/Figures/139-J-0-2.bmp\",\"ta:ka:ka\",\"Up\",\"40\",\"1\",\"3\",\"7\",\"P\",\"J\",\"3\"
\"\",\"\",\"approach-retreat\",\"7\",\"251312\",\"0.0-7.0\",\"\",\"\",\"3-2\",\"4454\",\"37\",\"0\",\"Training\",\"Stims/Figures/19-C-20-4.bmp\",\"na:lala\",\"Right\",\"39\",\"1\",\"4\",\"7\",\"S\",\"J\",\"4\"
\"\",\"\",\"approach-retreat\",\"8\",\"256991\",\"0.0-8.0\",\"\",\"\",\"3-2\",\"4175\",\"38\",\"1\",\"Training\",\"Stims/Figures/100-J-10-3.bmp\",\"mamana\",\"Down\",\"38\",\"1\",\"5\",\"7\",\"S\",\"J\",\"5\"
\"\",\"\",\"approach-retreat\",\"9\",\"263001\",\"0.0-9.0\",\"\",\"\",\"3-2\",\"4504\",\"37\",\"0\",\"Training\",\"Stims/Figures/74-J-10-4.bmp\",\"nama:la\",\"Left\",\"39\",\"1\",\"6\",\"7\",\"S\",\"J\",\"6\"
\"\",\"\",\"approach-retreat\",\"10\",\"268840\",\"0.0-10.0\",\"\",\"\",\"3-2\",\"4334\",\"40\",\"1\",\"Training\",\"Stims/Figures/57-J-0-1.bmp\",\"ta:pa:ta\",\"Up\",\"40\",\"1\",\"7\",\"7\",\"P\",\"J\",\"7\"
\"\",\"\",\"approach-retreat\",\"11\",\"274687\",\"0.0-11.0\",\"\",\"\",\"3-2\",\"4342\",\"40\",\"1\",\"Training\",\"Stims/Figures/74-C-20-4.bmp\",\"ma:la:la\",\"Down\",\"40\",\"1\",\"8\",\"7\",\"S\",\"J\",\"8\"
\"\",\"\",\"approach-retreat\",\"12\",\"281064\",\"0.0-12.0\",\"\",\"\",\"3-2\",\"4871\",\"39\",\"0\",\"Training\",\"Stims/Figures/111-C-30-3.bmp\",\"ma:mana\",\"Left\",\"37\",\"1\",\"9\",\"7\",\"S\",\"J\",\"9\"
\"\",\"\",\"approach-retreat\",\"13\",\"288119\",\"0.0-13.0\",\"\",\"\",\"3-2\",\"5550\",\"40\",\"1\",\"Training\",\"Stims/Figures/85-J-0-2.bmp\",\"pa:ka:ka\",\"Up\",\"40\",\"1\",\"10\",\"7\",\"P\",\"J\",\"10\"
\"\",\"\",\"approach-retreat\",\"14\",\"294080\",\"0.0-14.0\",\"\",\"\",\"3-2\",\"4455\",\"39\",\"0\",\"Training\",\"Stims/Figures/85-C-20-2.bmp\",\"pa:ka:ta\",\"Left\",\"37\",\"1\",\"11\",\"7\",\"P\",\"J\",\"11\"
\"\",\"\",\"approach-retreat\",\"15\",\"300112\",\"0.0-15.0\",\"\",\"\",\"3-2\",\"4527\",\"40\",\"1\",\"Training\",\"Stims/Figures/100-C-30-3.bmp\",\"mamala\",\"Down\",\"40\",\"1\",\"12\",\"7\",\"S\",\"J\",\"12\"
\"\",\"\",\"approach-retreat\",\"16\",\"306704\",\"0.0-16.0\",\"\",\"\",\"3-2\",\"5088\",\"38\",\"0\",\"Training\",\"Stims/Figures/57-C-30-1.bmp\",\"taka:ta\",\"Down\",\"40\",\"1\",\"13\",\"7\",\"P\",\"J\",\"13\"
\"\",\"\",\"approach-retreat\",\"17\",\"312879\",\"0.0-17.0\",\"\",\"\",\"3-2\",\"4670\",\"38\",\"0\",\"Training\",\"Stims/Figures/19-J-10-4.bmp\",\"malala\",\"Up\",\"40\",\"1\",\"14\",\"7\",\"S\",\"J\",\"14\"
\"\",\"\",\"approach-retreat\",\"18\",\"318824\",\"0.0-18.0\",\"\",\"\",\"3-2\",\"4439\",\"37\",\"1\",\"Training\",\"Stims/Figures/111-J-10-3.bmp\",\"malana\",\"Right\",\"37\",\"1\",\"15\",\"7\",\"S\",\"J\",\"15\"
\"\",\"\",\"approach-retreat\",\"19\",\"324679\",\"0.0-19.0\",\"\",\"\",\"3-2\",\"4349\",\"39\",\"0\",\"Training\",\"Stims/Figures/139-C-20-2.bmp\",\"paka:ka\",\"Left\",\"37\",\"1\",\"16\",\"7\",\"P\",\"J\",\"16\"
\"\",\"\",\"approach-retreat\",\"20\",\"330824\",\"0.0-20.0\",\"\",\"\",\"3-2\",\"4639\",\"37\",\"0\",\"Training\",\"Stims/Figures/74-J-10-4.bmp\",\"nama:la\",\"Left\",\"39\",\"2\",\"1\",\"7\",\"S\",\"J\",\"17\"
\"\",\"\",\"approach-retreat\",\"21\",\"337190\",\"0.0-21.0\",\"\",\"\",\"3-2\",\"4861\",\"38\",\"0\",\"Training\",\"Stims/Figures/100-C-30-3.bmp\",\"mamala\",\"Down\",\"40\",\"2\",\"2\",\"7\",\"S\",\"J\",\"18\"
\"\",\"\",\"approach-retreat\",\"22\",\"343096\",\"0.0-22.0\",\"\",\"\",\"3-2\",\"4401\",\"40\",\"1\",\"Training\",\"Stims/Figures/57-J-0-1.bmp\",\"ta:pa:ta\",\"Up\",\"40\",\"2\",\"3\",\"7\",\"P\",\"J\",\"19\"
\"\",\"\",\"approach-retreat\",\"23\",\"348822\",\"0.0-23.0\",\"\",\"\",\"3-2\",\"4221\",\"37\",\"1\",\"Training\",\"Stims/Figures/139-C-20-2.bmp\",\"paka:ka\",\"Left\",\"37\",\"2\",\"4\",\"7\",\"P\",\"J\",\"20\"
\"\",\"\",\"approach-retreat\",\"24\",\"355024\",\"0.0-24.0\",\"\",\"\",\"3-2\",\"4697\",\"39\",\"1\",\"Training\",\"Stims/Figures/74-C-20-4.bmp\",\"ma:la:la\",\"Right\",\"39\",\"2\",\"5\",\"7\",\"S\",\"J\",\"21\"
\"\",\"\",\"approach-retreat\",\"25\",\"360670\",\"0.0-25.0\",\"\",\"\",\"3-2\",\"4142\",\"37\",\"0\",\"Training\",\"Stims/Figures/111-C-30-3.bmp\",\"ma:mana\",\"Right\",\"39\",\"2\",\"6\",\"7\",\"S\",\"J\",\"22\"
\"\",\"\",\"approach-retreat\",\"26\",\"366431\",\"0.0-26.0\",\"\",\"\",\"3-2\",\"4256\",\"38\",\"0\",\"Training\",\"Stims/Figures/71-J-0-1.bmp\",\"papata\",\"Up\",\"40\",\"2\",\"7\",\"7\",\"P\",\"J\",\"23\"
\"\",\"\",\"approach-retreat\",\"27\",\"372703\",\"0.0-27.0\",\"\",\"\",\"3-2\",\"4769\",\"37\",\"0\",\"Training\",\"Stims/Figures/85-C-20-2.bmp\",\"pa:ka:ta\",\"Right\",\"39\",\"2\",\"8\",\"7\",\"P\",\"J\",\"24\"
\"\",\"\",\"approach-retreat\",\"28\",\"378264\",\"0.0-28.0\",\"\",\"\",\"3-2\",\"4055\",\"38\",\"1\",\"Training\",\"Stims/Figures/19-C-20-4.bmp\",\"na:lala\",\"Up\",\"38\",\"2\",\"9\",\"7\",\"S\",\"J\",\"25\"
\"\",\"\",\"approach-retreat\",\"29\",\"384023\",\"0.0-29.0\",\"\",\"\",\"3-2\",\"4255\",\"37\",\"1\",\"Training\",\"Stims/Figures/111-J-10-3.bmp\",\"malana\",\"Right\",\"37\",\"2\",\"10\",\"7\",\"S\",\"J\",\"26\"
\"\",\"\",\"approach-retreat\",\"30\",\"389744\",\"0.0-30.0\",\"\",\"\",\"3-2\",\"4216\",\"40\",\"1\",\"Training\",\"Stims/Figures/85-J-0-2.bmp\",\"pa:ka:ka\",\"Up\",\"40\",\"2\",\"11\",\"7\",\"P\",\"J\",\"27\"
\"\",\"\",\"approach-retreat\",\"31\",\"396480\",\"0.0-31.0\",\"\",\"\",\"3-2\",\"5230\",\"38\",\"0\",\"Training\",\"Stims/Figures/71-C-30-1.bmp\",\"ta:kaka\",\"Down\",\"40\",\"2\",\"12\",\"7\",\"P\",\"J\",\"28\"
\"\",\"\",\"approach-retreat\",\"32\",\"402151\",\"0.0-32.0\",\"\",\"\",\"3-2\",\"4168\",\"40\",\"1\",\"Training\",\"Stims/Figures/57-C-30-1.bmp\",\"taka:ta\",\"Down\",\"40\",\"2\",\"13\",\"7\",\"P\",\"J\",\"29\"
\"\",\"\",\"approach-retreat\",\"33\",\"408311\",\"0.0-33.0\",\"\",\"\",\"3-2\",\"4654\",\"39\",\"1\",\"Training\",\"Stims/Figures/100-J-10-3.bmp\",\"mamana\",\"Left\",\"39\",\"2\",\"14\",\"7\",\"S\",\"J\",\"30\"
\"\",\"\",\"approach-retreat\",\"34\",\"414072\",\"0.0-34.0\",\"\",\"\",\"3-2\",\"4256\",\"37\",\"0\",\"Training\",\"Stims/Figures/19-J-10-4.bmp\",\"malala\",\"Left\",\"39\",\"2\",\"15\",\"7\",\"S\",\"J\",\"31\"
\"\",\"\",\"approach-retreat\",\"35\",\"419647\",\"0.0-35.0\",\"\",\"\",\"3-2\",\"4071\",\"38\",\"1\",\"Training\",\"Stims/Figures/139-J-0-2.bmp\",\"ta:ka:ka\",\"Down\",\"38\",\"2\",\"16\",\"7\",\"P\",\"J\",\"32\"
\"\",\"\",\"approach-retreat\",\"36\",\"425256\",\"0.0-36.0\",\"\",\"\",\"3-2\",\"4104\",\"40\",\"1\",\"Training\",\"Stims/Figures/85-C-20-2.bmp\",\"pa:ka:ta\",\"Down\",\"40\",\"3\",\"1\",\"7\",\"P\",\"J\",\"33\"
\"\",\"\",\"approach-retreat\",\"37\",\"430895\",\"0.0-37.0\",\"\",\"\",\"3-2\",\"4134\",\"38\",\"1\",\"Training\",\"Stims/Figures/57-J-0-1.bmp\",\"ta:pa:ta\",\"Down\",\"38\",\"3\",\"2\",\"7\",\"P\",\"J\",\"34\"
\"\",\"\",\"approach-retreat\",\"38\",\"436679\",\"0.0-38.0\",\"\",\"\",\"3-2\",\"4279\",\"37\",\"0\",\"Training\",\"Stims/Figures/19-J-10-4.bmp\",\"malala\",\"Left\",\"39\",\"3\",\"3\",\"7\",\"S\",\"J\",\"35\"
\"\",\"\",\"approach-retreat\",\"39\",\"442296\",\"0.0-39.0\",\"\",\"\",\"3-2\",\"4110\",\"37\",\"0\",\"Training\",\"Stims/Figures/74-C-20-4.bmp\",\"ma:la:la\",\"Right\",\"39\",\"3\",\"4\",\"7\",\"S\",\"J\",\"36\"
\"\",\"\",\"approach-retreat\",\"40\",\"448127\",\"0.0-40.0\",\"\",\"\",\"3-2\",\"4328\",\"39\",\"0\",\"Training\",\"Stims/Figures/71-C-30-1.bmp\",\"ta:kaka\",\"Left\",\"37\",\"3\",\"5\",\"7\",\"P\",\"J\",\"37\"
\"\",\"\",\"approach-retreat\",\"41\",\"453935\",\"0.0-41.0\",\"\",\"\",\"3-2\",\"4303\",\"39\",\"0\",\"Training\",\"Stims/Figures/74-J-10-4.bmp\",\"nama:la\",\"Right\",\"37\",\"3\",\"6\",\"7\",\"S\",\"J\",\"38\"
\"\",\"\",\"approach-retreat\",\"42\",\"459551\",\"0.0-42.0\",\"\",\"\",\"3-2\",\"4113\",\"37\",\"1\",\"Training\",\"Stims/Figures/85-J-0-2.bmp\",\"pa:ka:ka\",\"Right\",\"37\",\"3\",\"7\",\"7\",\"P\",\"J\",\"39\"
\"\",\"\",\"approach-retreat\",\"43\",\"465415\",\"0.0-43.0\",\"\",\"\",\"3-2\",\"4360\",\"39\",\"1\",\"Training\",\"Stims/Figures/139-J-0-2.bmp\",\"ta:ka:ka\",\"Left\",\"39\",\"3\",\"8\",\"7\",\"P\",\"J\",\"40\"
\"\",\"\",\"approach-retreat\",\"44\",\"471190\",\"0.0-44.0\",\"\",\"\",\"3-2\",\"4271\",\"38\",\"1\",\"Training\",\"Stims/Figures/139-C-20-2.bmp\",\"paka:ka\",\"Up\",\"38\",\"3\",\"9\",\"7\",\"P\",\"J\",\"41\"
\"\",\"\",\"approach-retreat\",\"45\",\"477000\",\"0.0-45.0\",\"\",\"\",\"3-2\",\"4303\",\"40\",\"1\",\"Training\",\"Stims/Figures/111-J-10-3.bmp\",\"malana\",\"Up\",\"40\",\"3\",\"10\",\"7\",\"S\",\"J\",\"42\"
\"\",\"\",\"approach-retreat\",\"46\",\"482687\",\"0.0-46.0\",\"\",\"\",\"3-2\",\"4185\",\"37\",\"1\",\"Training\",\"Stims/Figures/19-C-20-4.bmp\",\"na:lala\",\"Left\",\"37\",\"3\",\"11\",\"7\",\"S\",\"J\",\"43\"
\"\",\"\",\"approach-retreat\",\"47\",\"488319\",\"0.0-47.0\",\"\",\"\",\"3-2\",\"4127\",\"40\",\"1\",\"Training\",\"Stims/Figures/100-C-30-3.bmp\",\"mamala\",\"Down\",\"40\",\"3\",\"12\",\"7\",\"S\",\"J\",\"44\"
\"\",\"\",\"approach-retreat\",\"48\",\"494048\",\"0.0-48.0\",\"\",\"\",\"3-2\",\"4224\",\"39\",\"0\",\"Training\",\"Stims/Figures/100-J-10-3.bmp\",\"mamana\",\"Right\",\"37\",\"3\",\"13\",\"7\",\"S\",\"J\",\"45\"
\"\",\"\",\"approach-retreat\",\"49\",\"500215\",\"0.0-49.0\",\"\",\"\",\"3-2\",\"4661\",\"38\",\"0\",\"Training\",\"Stims/Figures/71-J-0-1.bmp\",\"papata\",\"Up\",\"40\",\"3\",\"14\",\"7\",\"P\",\"J\",\"46\"
\"\",\"\",\"approach-retreat\",\"50\",\"505927\",\"0.0-50.0\",\"\",\"\",\"3-2\",\"4208\",\"38\",\"0\",\"Training\",\"Stims/Figures/111-C-30-3.bmp\",\"ma:mana\",\"Down\",\"40\",\"3\",\"15\",\"7\",\"S\",\"J\",\"47\"
\"\",\"\",\"approach-retreat\",\"51\",\"511416\",\"0.0-51.0\",\"\",\"\",\"3-2\",\"3984\",\"40\",\"0\",\"Training\",\"Stims/Figures/57-C-30-1.bmp\",\"taka:ta\",\"Up\",\"38\",\"3\",\"16\",\"7\",\"P\",\"J\",\"48\"
\"\",\"\",\"approach-retreat\",\"52\",\"517136\",\"0.0-52.0\",\"\",\"\",\"3-2\",\"4216\",\"37\",\"0\",\"Training\",\"Stims/Figures/111-C-30-3.bmp\",\"ma:mana\",\"Right\",\"39\",\"4\",\"1\",\"7\",\"S\",\"J\",\"49\"
\"\",\"\",\"approach-retreat\",\"53\",\"522911\",\"0.0-53.0\",\"\",\"\",\"3-2\",\"4271\",\"39\",\"0\",\"Training\",\"Stims/Figures/100-C-30-3.bmp\",\"mamala\",\"Left\",\"37\",\"4\",\"2\",\"7\",\"S\",\"J\",\"50\"
\"\",\"\",\"approach-retreat\",\"54\",\"528600\",\"0.0-54.0\",\"\",\"\",\"3-2\",\"4185\",\"40\",\"0\",\"Training\",\"Stims/Figures/139-J-0-2.bmp\",\"ta:ka:ka\",\"Down\",\"38\",\"4\",\"3\",\"7\",\"P\",\"J\",\"51\"
\"\",\"\",\"approach-retreat\",\"55\",\"534359\",\"0.0-55.0\",\"\",\"\",\"3-2\",\"4255\",\"40\",\"1\",\"Training\",\"Stims/Figures/71-J-0-1.bmp\",\"papata\",\"Up\",\"40\",\"4\",\"4\",\"7\",\"P\",\"J\",\"52\"
\"\",\"\",\"approach-retreat\",\"56\",\"540319\",\"0.0-56.0\",\"\",\"\",\"3-2\",\"4455\",\"40\",\"1\",\"Training\",\"Stims/Figures/71-C-30-1.bmp\",\"ta:kaka\",\"Down\",\"40\",\"4\",\"5\",\"7\",\"P\",\"J\",\"53\"
\"\",\"\",\"approach-retreat\",\"57\",\"546160\",\"0.0-57.0\",\"\",\"\",\"3-2\",\"4335\",\"38\",\"1\",\"Training\",\"Stims/Figures/85-C-20-2.bmp\",\"pa:ka:ta\",\"Up\",\"38\",\"4\",\"6\",\"7\",\"P\",\"J\",\"54\"
\"\",\"\",\"approach-retreat\",\"58\",\"552248\",\"0.0-58.0\",\"\",\"\",\"3-2\",\"4584\",\"39\",\"1\",\"Training\",\"Stims/Figures/74-J-10-4.bmp\",\"nama:la\",\"Left\",\"39\",\"4\",\"7\",\"7\",\"S\",\"J\",\"55\"
\"\",\"\",\"approach-retreat\",\"59\",\"558135\",\"0.0-59.0\",\"\",\"\",\"3-2\",\"4382\",\"38\",\"1\",\"Training\",\"Stims/Figures/74-C-20-4.bmp\",\"ma:la:la\",\"Up\",\"38\",\"4\",\"8\",\"7\",\"S\",\"J\",\"56\"
\"\",\"\",\"approach-retreat\",\"60\",\"563792\",\"0.0-60.0\",\"\",\"\",\"3-2\",\"4151\",\"37\",\"0\",\"Training\",\"Stims/Figures/139-C-20-2.bmp\",\"paka:ka\",\"Right\",\"39\",\"4\",\"9\",\"7\",\"P\",\"J\",\"57\"
\"\",\"\",\"approach-retreat\",\"61\",\"569575\",\"0.0-61.0\",\"\",\"\",\"3-2\",\"4277\",\"40\",\"1\",\"Training\",\"Stims/Figures/19-C-20-4.bmp\",\"na:lala\",\"Down\",\"40\",\"4\",\"10\",\"7\",\"S\",\"J\",\"58\"
\"\",\"\",\"approach-retreat\",\"62\",\"575207\",\"0.0-62.0\",\"\",\"\",\"3-2\",\"4129\",\"38\",\"1\",\"Training\",\"Stims/Figures/57-C-30-1.bmp\",\"taka:ta\",\"Up\",\"38\",\"4\",\"11\",\"7\",\"P\",\"J\",\"59\"
\"\",\"\",\"approach-retreat\",\"63\",\"580991\",\"0.0-63.0\",\"\",\"\",\"3-2\",\"4279\",\"39\",\"0\",\"Training\",\"Stims/Figures/85-J-0-2.bmp\",\"pa:ka:ka\",\"Right\",\"37\",\"4\",\"12\",\"7\",\"P\",\"J\",\"60\"
\"\",\"\",\"approach-retreat\",\"64\",\"586647\",\"0.0-64.0\",\"\",\"\",\"3-2\",\"4153\",\"38\",\"1\",\"Training\",\"Stims/Figures/19-J-10-4.bmp\",\"malala\",\"Down\",\"38\",\"4\",\"13\",\"7\",\"S\",\"J\",\"61\"
\"\",\"\",\"approach-retreat\",\"65\",\"592303\",\"0.0-65.0\",\"\",\"\",\"3-2\",\"4151\",\"37\",\"0\",\"Training\",\"Stims/Figures/111-J-10-3.bmp\",\"malana\",\"Left\",\"39\",\"4\",\"14\",\"7\",\"S\",\"J\",\"62\"
\"\",\"\",\"approach-retreat\",\"66\",\"597864\",\"0.0-66.0\",\"\",\"\",\"3-2\",\"4056\",\"37\",\"0\",\"Training\",\"Stims/Figures/100-J-10-3.bmp\",\"mamana\",\"Left\",\"39\",\"4\",\"15\",\"7\",\"S\",\"J\",\"63\"
\"\",\"\",\"approach-retreat\",\"67\",\"603415\",\"0.0-67.0\",\"\",\"\",\"3-2\",\"4047\",\"37\",\"1\",\"Training\",\"Stims/Figures/57-J-0-1.bmp\",\"ta:pa:ta\",\"Right\",\"37\",\"4\",\"16\",\"7\",\"P\",\"J\",\"64\"
\"\",\"\",\"approach-retreat\",\"68\",\"609231\",\"0.0-68.0\",\"\",\"\",\"3-2\",\"4312\",\"39\",\"1\",\"Training\",\"Stims/Figures/19-J-10-4.bmp\",\"malala\",\"Left\",\"39\",\"5\",\"1\",\"7\",\"S\",\"J\",\"65\"
\"\",\"\",\"approach-retreat\",\"69\",\"614960\",\"0.0-69.0\",\"\",\"\",\"3-2\",\"4226\",\"39\",\"0\",\"Training\",\"Stims/Figures/57-C-30-1.bmp\",\"taka:ta\",\"Left\",\"37\",\"5\",\"2\",\"7\",\"P\",\"J\",\"66\"
\"\",\"\",\"approach-retreat\",\"70\",\"620615\",\"0.0-70.0\",\"\",\"\",\"3-2\",\"4151\",\"39\",\"0\",\"Training\",\"Stims/Figures/139-C-20-2.bmp\",\"paka:ka\",\"Left\",\"37\",\"5\",\"3\",\"7\",\"P\",\"J\",\"67\"
\"\",\"\",\"approach-retreat\",\"71\",\"626207\",\"0.0-71.0\",\"\",\"\",\"3-2\",\"4088\",\"37\",\"1\",\"Training\",\"Stims/Figures/85-J-0-2.bmp\",\"pa:ka:ka\",\"Right\",\"37\",\"5\",\"4\",\"7\",\"P\",\"J\",\"68\"
\"\",\"\",\"approach-retreat\",\"72\",\"631952\",\"0.0-72.0\",\"\",\"\",\"3-2\",\"4241\",\"40\",\"0\",\"Training\",\"Stims/Figures/57-J-0-1.bmp\",\"ta:pa:ta\",\"Down\",\"38\",\"5\",\"5\",\"7\",\"P\",\"J\",\"69\"
\"\",\"\",\"approach-retreat\",\"73\",\"637814\",\"0.0-73.0\",\"\",\"\",\"3-2\",\"4358\",\"40\",\"0\",\"Training\",\"Stims/Figures/74-J-10-4.bmp\",\"nama:la\",\"Down\",\"38\",\"5\",\"6\",\"7\",\"S\",\"J\",\"70\"
\"\",\"\",\"approach-retreat\",\"74\",\"643504\",\"0.0-74.0\",\"\",\"\",\"3-2\",\"4185\",\"40\",\"0\",\"Training\",\"Stims/Figures/85-C-20-2.bmp\",\"pa:ka:ta\",\"Up\",\"38\",\"5\",\"7\",\"7\",\"P\",\"J\",\"71\"
\"\",\"\",\"approach-retreat\",\"75\",\"649176\",\"0.0-75.0\",\"\",\"\",\"3-2\",\"4167\",\"37\",\"0\",\"Training\",\"Stims/Figures/100-J-10-3.bmp\",\"mamana\",\"Left\",\"39\",\"5\",\"8\",\"7\",\"S\",\"J\",\"72\"
\"\",\"\",\"approach-retreat\",\"76\",\"654800\",\"0.0-76.0\",\"\",\"\",\"3-2\",\"4120\",\"39\",\"1\",\"Training\",\"Stims/Figures/19-C-20-4.bmp\",\"na:lala\",\"Right\",\"39\",\"5\",\"9\",\"7\",\"S\",\"J\",\"73\"
\"\",\"\",\"approach-retreat\",\"77\",\"660591\",\"0.0-77.0\",\"\",\"\",\"3-2\",\"4286\",\"38\",\"1\",\"Training\",\"Stims/Figures/139-J-0-2.bmp\",\"ta:ka:ka\",\"Down\",\"38\",\"5\",\"10\",\"7\",\"P\",\"J\",\"74\"
\"\",\"\",\"approach-retreat\",\"78\",\"666304\",\"0.0-78.0\",\"\",\"\",\"3-2\",\"4209\",\"39\",\"1\",\"Training\",\"Stims/Figures/111-C-30-3.bmp\",\"ma:mana\",\"Right\",\"39\",\"5\",\"11\",\"7\",\"S\",\"J\",\"75\"
\"\",\"\",\"approach-retreat\",\"79\",\"671991\",\"0.0-79.0\",\"\",\"\",\"3-2\",\"4182\",\"38\",\"0\",\"Training\",\"Stims/Figures/111-J-10-3.bmp\",\"malana\",\"Up\",\"40\",\"5\",\"12\",\"7\",\"S\",\"J\",\"76\"
\"\",\"\",\"approach-retreat\",\"80\",\"677952\",\"0.0-80.0\",\"\",\"\",\"3-2\",\"4455\",\"40\",\"1\",\"Training\",\"Stims/Figures/71-C-30-1.bmp\",\"ta:kaka\",\"Down\",\"40\",\"5\",\"13\",\"7\",\"P\",\"J\",\"77\"
\"\",\"\",\"approach-retreat\",\"81\",\"683648\",\"0.0-81.0\",\"\",\"\",\"3-2\",\"4191\",\"40\",\"0\",\"Training\",\"Stims/Figures/74-C-20-4.bmp\",\"ma:la:la\",\"Up\",\"38\",\"5\",\"14\",\"7\",\"S\",\"J\",\"78\"
\"\",\"\",\"approach-retreat\",\"82\",\"688695\",\"0.0-82.0\",\"\",\"\",\"3-2\",\"3544\",\"40\",\"1\",\"Training\",\"Stims/Figures/71-J-0-1.bmp\",\"papata\",\"Up\",\"40\",\"5\",\"15\",\"7\",\"P\",\"J\",\"79\"
\"\",\"\",\"approach-retreat\",\"83\",\"694553\",\"0.0-83.0\",\"\",\"\",\"3-2\",\"4351\",\"39\",\"1\",\"Training\",\"Stims/Figures/100-C-30-3.bmp\",\"mamala\",\"Right\",\"39\",\"5\",\"16\",\"7\",\"S\",\"J\",\"80\"
\"\",\"\",\"approach-retreat\",\"84\",\"700271\",\"0.0-84.0\",\"\",\"\",\"3-2\",\"4213\",\"40\",\"0\",\"Training\",\"Stims/Figures/71-J-0-1.bmp\",\"papata\",\"Down\",\"38\",\"6\",\"1\",\"7\",\"P\",\"J\",\"81\"
\"\",\"\",\"approach-retreat\",\"85\",\"705783\",\"0.0-85.0\",\"\",\"\",\"3-2\",\"4008\",\"39\",\"0\",\"Training\",\"Stims/Figures/85-J-0-2.bmp\",\"pa:ka:ka\",\"Right\",\"37\",\"6\",\"2\",\"7\",\"P\",\"J\",\"82\"
\"\",\"\",\"approach-retreat\",\"86\",\"711503\",\"0.0-86.0\",\"\",\"\",\"3-2\",\"4214\",\"40\",\"0\",\"Training\",\"Stims/Figures/57-C-30-1.bmp\",\"taka:ta\",\"Up\",\"38\",\"6\",\"3\",\"7\",\"P\",\"J\",\"83\"
\"\",\"\",\"approach-retreat\",\"87\",\"717104\",\"0.0-87.0\",\"\",\"\",\"3-2\",\"4096\",\"37\",\"0\",\"Training\",\"Stims/Figures/85-C-20-2.bmp\",\"pa:ka:ta\",\"Right\",\"39\",\"6\",\"4\",\"7\",\"P\",\"J\",\"84\"
\"\",\"\",\"approach-retreat\",\"88\",\"723207\",\"0.0-88.0\",\"\",\"\",\"3-2\",\"4598\",\"38\",\"1\",\"Training\",\"Stims/Figures/19-C-20-4.bmp\",\"na:lala\",\"Up\",\"38\",\"6\",\"5\",\"7\",\"S\",\"J\",\"85\"
\"\",\"\",\"approach-retreat\",\"89\",\"728846\",\"0.0-89.0\",\"\",\"\",\"3-2\",\"4133\",\"40\",\"0\",\"Training\",\"Stims/Figures/139-C-20-2.bmp\",\"paka:ka\",\"Up\",\"38\",\"6\",\"6\",\"7\",\"P\",\"J\",\"86\"
\"\",\"\",\"approach-retreat\",\"90\",\"734600\",\"0.0-90.0\",\"\",\"\",\"3-2\",\"4248\",\"39\",\"0\",\"Training\",\"Stims/Figures/74-C-20-4.bmp\",\"ma:la:la\",\"Left\",\"37\",\"6\",\"7\",\"7\",\"S\",\"J\",\"87\"
\"\",\"\",\"approach-retreat\",\"91\",\"740375\",\"0.0-91.0\",\"\",\"\",\"3-2\",\"4271\",\"38\",\"1\",\"Training\",\"Stims/Figures/19-J-10-4.bmp\",\"malala\",\"Down\",\"38\",\"6\",\"8\",\"7\",\"S\",\"J\",\"88\"
\"\",\"\",\"approach-retreat\",\"92\",\"745911\",\"0.0-92.0\",\"\",\"\",\"3-2\",\"4031\",\"37\",\"0\",\"Training\",\"Stims/Figures/100-C-30-3.bmp\",\"mamala\",\"Right\",\"39\",\"6\",\"9\",\"7\",\"S\",\"J\",\"89\"
\"\",\"\",\"approach-retreat\",\"93\",\"751695\",\"0.0-93.0\",\"\",\"\",\"3-2\",\"4280\",\"39\",\"0\",\"Training\",\"Stims/Figures/71-C-30-1.bmp\",\"ta:kaka\",\"Left\",\"37\",\"6\",\"10\",\"7\",\"P\",\"J\",\"90\"
\"\",\"\",\"approach-retreat\",\"94\",\"757408\",\"0.0-94.0\",\"\",\"\",\"3-2\",\"4208\",\"37\",\"1\",\"Training\",\"Stims/Figures/111-C-30-3.bmp\",\"ma:mana\",\"Left\",\"37\",\"6\",\"11\",\"7\",\"S\",\"J\",\"91\"
\"\",\"\",\"approach-retreat\",\"95\",\"763239\",\"0.0-95.0\",\"\",\"\",\"3-2\",\"4326\",\"38\",\"0\",\"Training\",\"Stims/Figures/100-J-10-3.bmp\",\"mamana\",\"Up\",\"40\",\"6\",\"12\",\"7\",\"S\",\"J\",\"92\"
\"\",\"\",\"approach-retreat\",\"96\",\"769223\",\"0.0-96.0\",\"\",\"\",\"3-2\",\"4479\",\"37\",\"0\",\"Training\",\"Stims/Figures/111-J-10-3.bmp\",\"malana\",\"Left\",\"39\",\"6\",\"13\",\"7\",\"S\",\"J\",\"93\"
\"\",\"\",\"approach-retreat\",\"97\",\"774888\",\"0.0-97.0\",\"\",\"\",\"3-2\",\"4161\",\"38\",\"1\",\"Training\",\"Stims/Figures/74-J-10-4.bmp\",\"nama:la\",\"Down\",\"38\",\"6\",\"14\",\"7\",\"S\",\"J\",\"94\"
\"\",\"\",\"approach-retreat\",\"98\",\"780926\",\"0.0-98.0\",\"\",\"\",\"3-2\",\"4535\",\"40\",\"0\",\"Training\",\"Stims/Figures/139-J-0-2.bmp\",\"ta:ka:ka\",\"Down\",\"38\",\"6\",\"15\",\"7\",\"P\",\"J\",\"95\"
\"\",\"\",\"approach-retreat\",\"99\",\"788648\",\"0.0-99.0\",\"\",\"\",\"3-2\",\"6218\",\"37\",\"1\",\"Training\",\"Stims/Figures/57-J-0-1.bmp\",\"ta:pa:ta\",\"Right\",\"37\",\"6\",\"16\",\"7\",\"P\",\"J\",\"96\"
\"\",\"\",\"approach-retreat\",\"100\",\"797208\",\"0.0-100.0\",\"\",\"\",\"3-2\",\"7056\",\"38\",\"0\",\"Training\",\"Stims/Figures/85-J-0-2.bmp\",\"pa:ka:ka\",\"Up\",\"40\",\"7\",\"1\",\"7\",\"P\",\"J\",\"97\"
\"\",\"\",\"approach-retreat\",\"101\",\"802799\",\"0.0-101.0\",\"\",\"\",\"3-2\",\"4087\",\"38\",\"1\",\"Training\",\"Stims/Figures/19-C-20-4.bmp\",\"na:lala\",\"Up\",\"38\",\"7\",\"2\",\"7\",\"S\",\"J\",\"98\"
\"\",\"\",\"approach-retreat\",\"102\",\"808840\",\"0.0-102.0\",\"\",\"\",\"3-2\",\"4536\",\"39\",\"1\",\"Training\",\"Stims/Figures/100-C-30-3.bmp\",\"mamala\",\"Right\",\"39\",\"7\",\"3\",\"7\",\"S\",\"J\",\"99\"
\"\",\"\",\"approach-retreat\",\"103\",\"814927\",\"0.0-103.0\",\"\",\"\",\"3-2\",\"4581\",\"40\",\"0\",\"Training\",\"Stims/Figures/111-C-30-3.bmp\",\"ma:mana\",\"Up\",\"38\",\"7\",\"4\",\"7\",\"S\",\"J\",\"100\"
\"\",\"\",\"approach-retreat\",\"104\",\"821824\",\"0.0-104.0\",\"\",\"\",\"3-2\",\"5392\",\"38\",\"1\",\"Training\",\"Stims/Figures/74-J-10-4.bmp\",\"nama:la\",\"Down\",\"38\",\"7\",\"5\",\"7\",\"S\",\"J\",\"101\"
\"\",\"\",\"approach-retreat\",\"105\",\"827799\",\"0.0-105.0\",\"\",\"\",\"3-2\",\"4470\",\"39\",\"1\",\"Training\",\"Stims/Figures/57-C-30-1.bmp\",\"taka:ta\",\"Right\",\"39\",\"7\",\"6\",\"7\",\"P\",\"J\",\"102\"
\"\",\"\",\"approach-retreat\",\"106\",\"833729\",\"0.0-106.0\",\"\",\"\",\"3-2\",\"4424\",\"38\",\"1\",\"Training\",\"Stims/Figures/74-C-20-4.bmp\",\"ma:la:la\",\"Up\",\"38\",\"7\",\"7\",\"7\",\"S\",\"J\",\"103\"
\"\",\"\",\"approach-retreat\",\"107\",\"839536\",\"0.0-107.0\",\"\",\"\",\"3-2\",\"4304\",\"40\",\"0\",\"Training\",\"Stims/Figures/57-J-0-1.bmp\",\"ta:pa:ta\",\"Down\",\"38\",\"7\",\"8\",\"7\",\"P\",\"J\",\"104\"
\"\",\"\",\"approach-retreat\",\"108\",\"845121\",\"0.0-108.0\",\"\",\"\",\"3-2\",\"4079\",\"39\",\"1\",\"Training\",\"Stims/Figures/139-C-20-2.bmp\",\"paka:ka\",\"Right\",\"39\",\"7\",\"9\",\"7\",\"P\",\"J\",\"105\"
\"\",\"\",\"approach-retreat\",\"109\",\"850711\",\"0.0-109.0\",\"\",\"\",\"3-2\",\"4087\",\"39\",\"1\",\"Training\",\"Stims/Figures/71-J-0-1.bmp\",\"papata\",\"Left\",\"39\",\"7\",\"10\",\"7\",\"P\",\"J\",\"106\"
\"\",\"\",\"approach-retreat\",\"110\",\"856511\",\"0.0-110.0\",\"\",\"\",\"3-2\",\"4295\",\"37\",\"0\",\"Training\",\"Stims/Figures/100-J-10-3.bmp\",\"mamana\",\"Left\",\"39\",\"7\",\"11\",\"7\",\"S\",\"J\",\"107\"
\"\",\"\",\"approach-retreat\",\"111\",\"862303\",\"0.0-111.0\",\"\",\"\",\"3-2\",\"4288\",\"39\",\"0\",\"Training\",\"Stims/Figures/71-C-30-1.bmp\",\"ta:kaka\",\"Left\",\"37\",\"7\",\"12\",\"7\",\"P\",\"J\",\"108\"
\"\",\"\",\"approach-retreat\",\"112\",\"867928\",\"0.0-112.0\",\"\",\"\",\"3-2\",\"4121\",\"40\",\"1\",\"Training\",\"Stims/Figures/85-C-20-2.bmp\",\"pa:ka:ta\",\"Down\",\"40\",\"7\",\"13\",\"7\",\"P\",\"J\",\"109\"
\"\",\"\",\"approach-retreat\",\"113\",\"873479\",\"0.0-113.0\",\"\",\"\",\"3-2\",\"4046\",\"39\",\"0\",\"Training\",\"Stims/Figures/139-J-0-2.bmp\",\"ta:ka:ka\",\"Right\",\"37\",\"7\",\"14\",\"7\",\"P\",\"J\",\"110\"
\"\",\"\",\"approach-retreat\",\"114\",\"879199\",\"0.0-114.0\",\"\",\"\",\"3-2\",\"4217\",\"40\",\"0\",\"Training\",\"Stims/Figures/111-J-10-3.bmp\",\"malana\",\"Down\",\"38\",\"7\",\"15\",\"7\",\"S\",\"J\",\"111\"
\"\",\"\",\"approach-retreat\",\"115\",\"886023\",\"0.0-115.0\",\"\",\"\",\"3-2\",\"5319\",\"39\",\"1\",\"Training\",\"Stims/Figures/19-J-10-4.bmp\",\"malala\",\"Left\",\"39\",\"7\",\"16\",\"7\",\"S\",\"J\",\"112\"
\"\",\"\",\"approach-retreat\",\"116\",\"892376\",\"0.0-116.0\",\"\",\"\",\"3-2\",\"4848\",\"38\",\"1\",\"Training\",\"Stims/Figures/74-J-10-4.bmp\",\"nama:la\",\"Down\",\"38\",\"8\",\"1\",\"7\",\"S\",\"J\",\"113\"
\"\",\"\",\"approach-retreat\",\"117\",\"898479\",\"0.0-117.0\",\"\",\"\",\"3-2\",\"4599\",\"37\",\"0\",\"Training\",\"Stims/Figures/57-J-0-1.bmp\",\"ta:pa:ta\",\"Left\",\"39\",\"8\",\"2\",\"7\",\"P\",\"J\",\"114\"
\"\",\"\",\"approach-retreat\",\"118\",\"904735\",\"0.0-118.0\",\"\",\"\",\"3-2\",\"4752\",\"40\",\"1\",\"Training\",\"Stims/Figures/19-J-10-4.bmp\",\"malala\",\"Up\",\"40\",\"8\",\"3\",\"7\",\"S\",\"J\",\"115\"
\"\",\"\",\"approach-retreat\",\"119\",\"918879\",\"0.0-119.0\",\"\",\"\",\"3-2\",\"12638\",\"39\",\"0\",\"Training\",\"Stims/Figures/139-C-20-2.bmp\",\"paka:ka\",\"Left\",\"37\",\"8\",\"4\",\"7\",\"P\",\"J\",\"116\"
\"\",\"\",\"approach-retreat\",\"120\",\"924607\",\"0.0-120.0\",\"\",\"\",\"3-2\",\"4224\",\"40\",\"0\",\"Training\",\"Stims/Figures/139-J-0-2.bmp\",\"ta:ka:ka\",\"Down\",\"38\",\"8\",\"5\",\"7\",\"P\",\"J\",\"117\"
\"\",\"\",\"approach-retreat\",\"121\",\"930512\",\"0.0-121.0\",\"\",\"\",\"3-2\",\"4398\",\"40\",\"0\",\"Training\",\"Stims/Figures/111-J-10-3.bmp\",\"malana\",\"Down\",\"38\",\"8\",\"6\",\"7\",\"S\",\"J\",\"118\"
\"\",\"\",\"approach-retreat\",\"122\",\"948072\",\"0.0-122.0\",\"\",\"\",\"3-2\",\"16056\",\"40\",\"0\",\"Training\",\"Stims/Figures/111-C-30-3.bmp\",\"ma:mana\",\"Up\",\"38\",\"8\",\"7\",\"7\",\"S\",\"J\",\"119\"
\"\",\"\",\"approach-retreat\",\"123\",\"953743\",\"0.0-123.0\",\"\",\"\",\"3-2\",\"4167\",\"37\",\"0\",\"Training\",\"Stims/Figures/57-C-30-1.bmp\",\"taka:ta\",\"Right\",\"39\",\"8\",\"8\",\"7\",\"P\",\"J\",\"120\"
\"\",\"\",\"approach-retreat\",\"124\",\"959432\",\"0.0-124.0\",\"\",\"\",\"3-2\",\"4183\",\"38\",\"0\",\"Training\",\"Stims/Figures/100-C-30-3.bmp\",\"mamala\",\"Down\",\"40\",\"8\",\"9\",\"7\",\"S\",\"J\",\"121\"
\"\",\"\",\"approach-retreat\",\"125\",\"968304\",\"0.0-125.0\",\"\",\"\",\"3-2\",\"7367\",\"37\",\"1\",\"Training\",\"Stims/Figures/85-J-0-2.bmp\",\"pa:ka:ka\",\"Right\",\"37\",\"8\",\"10\",\"7\",\"P\",\"J\",\"122\"
\"\",\"\",\"approach-retreat\",\"126\",\"976711\",\"0.0-126.0\",\"\",\"\",\"3-2\",\"6903\",\"37\",\"1\",\"Training\",\"Stims/Figures/74-C-20-4.bmp\",\"ma:la:la\",\"Left\",\"37\",\"8\",\"11\",\"7\",\"S\",\"J\",\"123\"
\"\",\"\",\"approach-retreat\",\"127\",\"982448\",\"0.0-127.0\",\"\",\"\",\"3-2\",\"4233\",\"37\",\"1\",\"Training\",\"Stims/Figures/100-J-10-3.bmp\",\"mamana\",\"Right\",\"37\",\"8\",\"12\",\"7\",\"S\",\"J\",\"124\"
\"\",\"\",\"approach-retreat\",\"128\",\"988248\",\"0.0-128.0\",\"\",\"\",\"3-2\",\"4295\",\"37\",\"0\",\"Training\",\"Stims/Figures/19-C-20-4.bmp\",\"na:lala\",\"Right\",\"39\",\"8\",\"13\",\"7\",\"S\",\"J\",\"125\"
\"\",\"\",\"approach-retreat\",\"129\",\"993878\",\"0.0-129.0\",\"\",\"\",\"3-2\",\"4126\",\"38\",\"1\",\"Training\",\"Stims/Figures/71-C-30-1.bmp\",\"ta:kaka\",\"Up\",\"38\",\"8\",\"14\",\"7\",\"P\",\"J\",\"126\"
\"\",\"\",\"approach-retreat\",\"130\",\"1013335\",\"0.0-130.0\",\"\",\"\",\"3-2\",\"17953\",\"40\",\"1\",\"Training\",\"Stims/Figures/71-J-0-1.bmp\",\"papata\",\"Up\",\"40\",\"8\",\"15\",\"7\",\"P\",\"J\",\"127\"
\"\",\"\",\"approach-retreat\",\"131\",\"1019862\",\"0.0-131.0\",\"\",\"\",\"3-2\",\"5023\",\"37\",\"1\",\"Training\",\"Stims/Figures/85-C-20-2.bmp\",\"pa:ka:ta\",\"Left\",\"37\",\"8\",\"16\",\"7\",\"P\",\"J\",\"128\"
\"\",\"\",\"approach-retreat\",\"132\",\"1025584\",\"0.0-132.0\",\"\",\"\",\"3-2\",\"4215\",\"37\",\"1\",\"Training\",\"Stims/Figures/139-C-20-2.bmp\",\"paka:ka\",\"Left\",\"37\",\"9\",\"1\",\"7\",\"P\",\"J\",\"129\"
\"\",\"\",\"approach-retreat\",\"133\",\"1047801\",\"0.0-133.0\",\"\",\"\",\"3-2\",\"20712\",\"37\",\"1\",\"Training\",\"Stims/Figures/85-J-0-2.bmp\",\"pa:ka:ka\",\"Right\",\"37\",\"9\",\"2\",\"7\",\"P\",\"J\",\"130\"
\"\",\"\",\"approach-retreat\",\"134\",\"1053496\",\"0.0-134.0\",\"\",\"\",\"3-2\",\"4190\",\"38\",\"1\",\"Training\",\"Stims/Figures/57-C-30-1.bmp\",\"taka:ta\",\"Up\",\"38\",\"9\",\"3\",\"7\",\"P\",\"J\",\"131\"
\"\",\"\",\"approach-retreat\",\"135\",\"1061648\",\"0.0-135.0\",\"\",\"\",\"3-2\",\"6640\",\"39\",\"0\",\"Training\",\"Stims/Figures/85-C-20-2.bmp\",\"pa:ka:ta\",\"Left\",\"37\",\"9\",\"4\",\"7\",\"P\",\"J\",\"132\"
\"\",\"\",\"approach-retreat\",\"136\",\"1066888\",\"0.0-136.0\",\"\",\"\",\"3-2\",\"3736\",\"38\",\"1\",\"Training\",\"Stims/Figures/71-J-0-1.bmp\",\"papata\",\"Down\",\"38\",\"9\",\"5\",\"7\",\"P\",\"J\",\"133\"
\"\",\"\",\"approach-retreat\",\"137\",\"1072488\",\"0.0-137.0\",\"\",\"\",\"3-2\",\"4096\",\"38\",\"0\",\"Training\",\"Stims/Figures/19-J-10-4.bmp\",\"malala\",\"Up\",\"40\",\"9\",\"6\",\"7\",\"S\",\"J\",\"134\"
\"\",\"\",\"approach-retreat\",\"138\",\"1079528\",\"0.0-138.0\",\"\",\"\",\"3-2\",\"5536\",\"40\",\"0\",\"Training\",\"Stims/Figures/100-C-30-3.bmp\",\"mamala\",\"Up\",\"38\",\"9\",\"7\",\"7\",\"S\",\"J\",\"135\"
\"\",\"\",\"approach-retreat\",\"139\",\"1085281\",\"0.0-139.0\",\"\",\"\",\"3-2\",\"4249\",\"40\",\"1\",\"Training\",\"Stims/Figures/111-J-10-3.bmp\",\"malana\",\"Up\",\"40\",\"9\",\"8\",\"7\",\"S\",\"J\",\"136\"
\"\",\"\",\"approach-retreat\",\"140\",\"1091040\",\"0.0-140.0\",\"\",\"\",\"3-2\",\"4254\",\"40\",\"0\",\"Training\",\"Stims/Figures/139-J-0-2.bmp\",\"ta:ka:ka\",\"Down\",\"38\",\"9\",\"9\",\"7\",\"P\",\"J\",\"137\"
\"\",\"\",\"approach-retreat\",\"141\",\"1096584\",\"0.0-141.0\",\"\",\"\",\"3-2\",\"4040\",\"38\",\"0\",\"Training\",\"Stims/Figures/71-C-30-1.bmp\",\"ta:kaka\",\"Down\",\"40\",\"9\",\"10\",\"7\",\"P\",\"J\",\"138\"
\"\",\"\",\"approach-retreat\",\"142\",\"1102128\",\"0.0-142.0\",\"\",\"\",\"3-2\",\"4039\",\"37\",\"0\",\"Training\",\"Stims/Figures/111-C-30-3.bmp\",\"ma:mana\",\"Right\",\"39\",\"9\",\"11\",\"7\",\"S\",\"J\",\"139\"
\"\",\"\",\"approach-retreat\",\"143\",\"1107961\",\"0.0-143.0\",\"\",\"\",\"3-2\",\"4328\",\"37\",\"0\",\"Training\",\"Stims/Figures/74-J-10-4.bmp\",\"nama:la\",\"Left\",\"39\",\"9\",\"12\",\"7\",\"S\",\"J\",\"140\"
\"\",\"\",\"approach-retreat\",\"144\",\"1113711\",\"0.0-144.0\",\"\",\"\",\"3-2\",\"4245\",\"37\",\"1\",\"Training\",\"Stims/Figures/100-J-10-3.bmp\",\"mamana\",\"Right\",\"37\",\"9\",\"13\",\"7\",\"S\",\"J\",\"141\"
\"\",\"\",\"approach-retreat\",\"145\",\"1119416\",\"0.0-145.0\",\"\",\"\",\"3-2\",\"4201\",\"40\",\"1\",\"Training\",\"Stims/Figures/74-C-20-4.bmp\",\"ma:la:la\",\"Down\",\"40\",\"9\",\"14\",\"7\",\"S\",\"J\",\"142\"
\"\",\"\",\"approach-retreat\",\"146\",\"1125031\",\"0.0-146.0\",\"\",\"\",\"3-2\",\"4111\",\"39\",\"1\",\"Training\",\"Stims/Figures/19-C-20-4.bmp\",\"na:lala\",\"Right\",\"39\",\"9\",\"15\",\"7\",\"S\",\"J\",\"143\"
\"\",\"\",\"approach-retreat\",\"147\",\"1130551\",\"0.0-147.0\",\"\",\"\",\"3-2\",\"4014\",\"37\",\"0\",\"Training\",\"Stims/Figures/57-J-0-1.bmp\",\"ta:pa:ta\",\"Left\",\"39\",\"9\",\"16\",\"7\",\"P\",\"J\",\"144\"
\"46763\",\"\",\"instructions\",\"148\",\"1177314\",\"0.0-148.0\",\"[{\"\"page_index\"\":0,\"\"viewing_time\"\":46763}]\",\"\",\"\",\"\",\"\",\"\",\"\",\"\",\"\",\"\",\"\",\"\",\"\",\"\",\"\",\"\",\"\"
\"\",\"\",\"approach-retreat\",\"149\",\"1184382\",\"0.0-149.0\",\"\",\"\",\"3-2\",\"5564\",\"39\",\"0\",\"Testing\",\"Stims/Figures/74-J-10-4.bmp\",\"nama:la\",\"Right\",\"37\",\"1\",\"1\",\"7\",\"S\",\"J\",\"1\"
\"\",\"\",\"approach-retreat\",\"150\",\"1191782\",\"0.0-150.0\",\"\",\"\",\"3-2\",\"5896\",\"39\",\"0\",\"Testing\",\"Stims/Figures/100-C-30-3.bmp\",\"mamala\",\"Left\",\"37\",\"1\",\"2\",\"7\",\"S\",\"J\",\"2\"
\"\",\"\",\"approach-retreat\",\"151\",\"1197718\",\"0.0-151.0\",\"\",\"\",\"3-2\",\"4432\",\"38\",\"1\",\"Testing\",\"Stims/Figures/71-C-30-1.bmp\",\"ta:kaka\",\"Up\",\"38\",\"1\",\"3\",\"7\",\"P\",\"J\",\"3\"
\"\",\"\",\"approach-retreat\",\"152\",\"1203470\",\"0.0-152.0\",\"\",\"\",\"3-2\",\"4247\",\"38\",\"0\",\"Testing\",\"Stims/Figures/111-C-30-3.bmp\",\"ma:mana\",\"Down\",\"40\",\"1\",\"4\",\"7\",\"S\",\"J\",\"4\"
\"\",\"\",\"approach-retreat\",\"153\",\"1209126\",\"0.0-153.0\",\"\",\"\",\"3-2\",\"4155\",\"39\",\"1\",\"Testing\",\"Stims/Figures/74-C-20-4.bmp\",\"ma:la:la\",\"Right\",\"39\",\"1\",\"5\",\"7\",\"S\",\"J\",\"5\"
\"\",\"\",\"approach-retreat\",\"154\",\"1214822\",\"0.0-154.0\",\"\",\"\",\"3-2\",\"4193\",\"39\",\"1\",\"Testing\",\"Stims/Figures/93-C-30-1.bmp\",\"pa:pa:ka\",\"Right\",\"39\",\"1\",\"6\",\"7\",\"P\",\"J\",\"6\"
\"\",\"\",\"approach-retreat\",\"155\",\"1220438\",\"0.0-155.0\",\"\",\"\",\"3-2\",\"4112\",\"38\",\"0\",\"Testing\",\"Stims/Figures/85-J-0-2.bmp\",\"pa:ka:ka\",\"Up\",\"40\",\"1\",\"7\",\"7\",\"P\",\"J\",\"7\"
\"\",\"\",\"approach-retreat\",\"156\",\"1230263\",\"0.0-156.0\",\"\",\"\",\"3-2\",\"8322\",\"39\",\"1\",\"Testing\",\"Stims/Figures/102-C-20-4.bmp\",\"na:mala\",\"Right\",\"39\",\"1\",\"8\",\"7\",\"S\",\"J\",\"8\"
\"\",\"\",\"approach-retreat\",\"157\",\"1235935\",\"0.0-157.0\",\"\",\"\",\"3-2\",\"4168\",\"38\",\"1\",\"Testing\",\"Stims/Figures/71-J-0-1.bmp\",\"papata\",\"Down\",\"38\",\"1\",\"9\",\"7\",\"P\",\"J\",\"9\"
\"\",\"\",\"approach-retreat\",\"158\",\"1241527\",\"0.0-158.0\",\"\",\"\",\"3-2\",\"4088\",\"38\",\"0\",\"Testing\",\"Stims/Figures/19-C-20-4.bmp\",\"na:lala\",\"Down\",\"40\",\"1\",\"10\",\"7\",\"S\",\"J\",\"10\"
\"\",\"\",\"approach-retreat\",\"159\",\"1251247\",\"0.0-159.0\",\"\",\"\",\"3-2\",\"8216\",\"37\",\"1\",\"Testing\",\"Stims/Figures/85-C-20-2.bmp\",\"pa:ka:ta\",\"Left\",\"37\",\"1\",\"11\",\"7\",\"P\",\"J\",\"11\"
\"\",\"\",\"approach-retreat\",\"160\",\"1258558\",\"0.0-160.0\",\"\",\"\",\"3-2\",\"5807\",\"38\",\"1\",\"Testing\",\"Stims/Figures/19-J-10-4.bmp\",\"malala\",\"Down\",\"38\",\"1\",\"12\",\"7\",\"S\",\"J\",\"12\"
\"\",\"\",\"approach-retreat\",\"161\",\"1265551\",\"0.0-161.0\",\"\",\"\",\"3-2\",\"5490\",\"38\",\"0\",\"Testing\",\"Stims/Figures/102-J-10-4.bmp\",\"namala\",\"Up\",\"40\",\"1\",\"13\",\"7\",\"S\",\"J\",\"13\"
\"\",\"\",\"approach-retreat\",\"162\",\"1271342\",\"0.0-162.0\",\"\",\"\",\"3-2\",\"4287\",\"38\",\"1\",\"Testing\",\"Stims/Figures/94-C-20-2.bmp\",\"ta:pata\",\"Up\",\"38\",\"1\",\"14\",\"7\",\"P\",\"J\",\"14\"
\"\",\"\",\"approach-retreat\",\"163\",\"1276976\",\"0.0-163.0\",\"\",\"\",\"3-2\",\"4130\",\"38\",\"1\",\"Testing\",\"Stims/Figures/139-J-0-2.bmp\",\"ta:ka:ka\",\"Down\",\"38\",\"1\",\"15\",\"7\",\"P\",\"J\",\"15\"
\"\",\"\",\"approach-retreat\",\"164\",\"1286055\",\"0.0-164.0\",\"\",\"\",\"3-2\",\"7575\",\"37\",\"0\",\"Testing\",\"Stims/Figures/94-J-0-2.bmp\",\"takata\",\"Left\",\"39\",\"1\",\"16\",\"7\",\"P\",\"J\",\"16\"
\"\",\"\",\"approach-retreat\",\"165\",\"1291687\",\"0.0-165.0\",\"\",\"\",\"3-2\",\"4127\",\"37\",\"1\",\"Testing\",\"Stims/Figures/128-C-30-3.bmp\",\"nama:na\",\"Left\",\"37\",\"1\",\"17\",\"7\",\"S\",\"J\",\"17\"
\"\",\"\",\"approach-retreat\",\"166\",\"1297518\",\"0.0-166.0\",\"\",\"\",\"3-2\",\"4328\",\"38\",\"0\",\"Testing\",\"Stims/Figures/111-J-10-3.bmp\",\"malana\",\"Up\",\"40\",\"1\",\"18\",\"7\",\"S\",\"J\",\"18\"
\"\",\"\",\"approach-retreat\",\"167\",\"1304303\",\"0.0-167.0\",\"\",\"\",\"3-2\",\"5278\",\"38\",\"1\",\"Testing\",\"Stims/Figures/128-J-10-3.bmp\",\"nala:na\",\"Down\",\"38\",\"1\",\"19\",\"7\",\"S\",\"J\",\"19\"
\"\",\"\",\"approach-retreat\",\"168\",\"1310126\",\"0.0-168.0\",\"\",\"\",\"3-2\",\"4320\",\"37\",\"0\",\"Testing\",\"Stims/Figures/57-C-30-1.bmp\",\"taka:ta\",\"Right\",\"39\",\"1\",\"20\",\"7\",\"P\",\"J\",\"20\"
\"\",\"\",\"approach-retreat\",\"169\",\"1315919\",\"0.0-169.0\",\"\",\"\",\"3-2\",\"4289\",\"39\",\"1\",\"Testing\",\"Stims/Figures/93-J-0-1.bmp\",\"ta:kata\",\"Left\",\"39\",\"1\",\"21\",\"7\",\"P\",\"J\",\"21\"
\"\",\"\",\"approach-retreat\",\"170\",\"1335359\",\"0.0-170.0\",\"\",\"\",\"3-2\",\"17937\",\"39\",\"1\",\"Testing\",\"Stims/Figures/100-J-10-3.bmp\",\"mamana\",\"Left\",\"39\",\"1\",\"22\",\"7\",\"S\",\"J\",\"22\"
\"\",\"\",\"approach-retreat\",\"171\",\"1341021\",\"0.0-171.0\",\"\",\"\",\"3-2\",\"4160\",\"38\",\"1\",\"Testing\",\"Stims/Figures/139-C-20-2.bmp\",\"paka:ka\",\"Up\",\"38\",\"1\",\"23\",\"7\",\"P\",\"J\",\"23\"
\"\",\"\",\"approach-retreat\",\"172\",\"1347904\",\"0.0-172.0\",\"\",\"\",\"3-2\",\"5378\",\"39\",\"0\",\"Testing\",\"Stims/Figures/57-J-0-1.bmp\",\"ta:pa:ta\",\"Right\",\"37\",\"1\",\"24\",\"7\",\"P\",\"J\",\"24\"
\"\",\"\",\"approach-retreat\",\"173\",\"1353486\",\"0.0-173.0\",\"\",\"\",\"3-2\",\"4080\",\"38\",\"1\",\"Testing\",\"Stims/Figures/100-C-30-3.bmp\",\"mamala\",\"Up\",\"38\",\"2\",\"1\",\"7\",\"S\",\"J\",\"25\"
\"\",\"\",\"approach-retreat\",\"174\",\"1359127\",\"0.0-174.0\",\"\",\"\",\"3-2\",\"4137\",\"37\",\"0\",\"Testing\",\"Stims/Figures/19-C-20-4.bmp\",\"na:lala\",\"Right\",\"39\",\"2\",\"2\",\"7\",\"S\",\"J\",\"26\"
\"\",\"\",\"approach-retreat\",\"175\",\"1366207\",\"0.0-175.0\",\"\",\"\",\"3-2\",\"5577\",\"39\",\"1\",\"Testing\",\"Stims/Figures/57-C-30-1.bmp\",\"taka:ta\",\"Right\",\"39\",\"2\",\"3\",\"7\",\"P\",\"J\",\"27\"
\"\",\"\",\"approach-retreat\",\"176\",\"1371839\",\"0.0-176.0\",\"\",\"\",\"3-2\",\"4129\",\"38\",\"0\",\"Testing\",\"Stims/Figures/128-J-10-3.bmp\",\"nala:na\",\"Up\",\"40\",\"2\",\"4\",\"7\",\"S\",\"J\",\"28\"
\"\",\"\",\"approach-retreat\",\"177\",\"1377526\",\"0.0-177.0\",\"\",\"\",\"3-2\",\"4183\",\"37\",\"1\",\"Testing\",\"Stims/Figures/71-J-0-1.bmp\",\"papata\",\"Right\",\"37\",\"2\",\"5\",\"7\",\"P\",\"J\",\"29\"
\"\",\"\",\"approach-retreat\",\"178\",\"1383463\",\"0.0-178.0\",\"\",\"\",\"3-2\",\"4434\",\"39\",\"1\",\"Testing\",\"Stims/Figures/85-C-20-2.bmp\",\"pa:ka:ta\",\"Right\",\"39\",\"2\",\"6\",\"7\",\"P\",\"J\",\"30\"
\"\",\"\",\"approach-retreat\",\"179\",\"1389103\",\"0.0-179.0\",\"\",\"\",\"3-2\",\"4137\",\"38\",\"1\",\"Testing\",\"Stims/Figures/85-J-0-2.bmp\",\"pa:ka:ka\",\"Down\",\"38\",\"2\",\"7\",\"7\",\"P\",\"J\",\"31\"
\"\",\"\",\"approach-retreat\",\"180\",\"1395335\",\"0.0-180.0\",\"\",\"\",\"3-2\",\"4729\",\"37\",\"1\",\"Testing\",\"Stims/Figures/102-C-20-4.bmp\",\"na:mala\",\"Left\",\"37\",\"2\",\"8\",\"7\",\"S\",\"J\",\"32\"
\"\",\"\",\"approach-retreat\",\"181\",\"1407271\",\"0.0-181.0\",\"\",\"\",\"3-2\",\"10433\",\"37\",\"1\",\"Testing\",\"Stims/Figures/139-C-20-2.bmp\",\"paka:ka\",\"Left\",\"37\",\"2\",\"9\",\"7\",\"P\",\"J\",\"33\"
\"\",\"\",\"approach-retreat\",\"182\",\"1414486\",\"0.0-182.0\",\"\",\"\",\"3-2\",\"5710\",\"38\",\"1\",\"Testing\",\"Stims/Figures/111-J-10-3.bmp\",\"malana\",\"Down\",\"38\",\"2\",\"10\",\"7\",\"S\",\"J\",\"34\"
\"\",\"\",\"approach-retreat\",\"183\",\"1420974\",\"0.0-183.0\",\"\",\"\",\"3-2\",\"4984\",\"40\",\"0\",\"Testing\",\"Stims/Figures/71-C-30-1.bmp\",\"ta:kaka\",\"Up\",\"38\",\"2\",\"11\",\"7\",\"P\",\"J\",\"35\"
\"\",\"\",\"approach-retreat\",\"184\",\"1426758\",\"0.0-184.0\",\"\",\"\",\"3-2\",\"4279\",\"37\",\"0\",\"Testing\",\"Stims/Figures/94-J-0-2.bmp\",\"takata\",\"Left\",\"39\",\"2\",\"12\",\"7\",\"P\",\"J\",\"36\"
\"\",\"\",\"approach-retreat\",\"185\",\"1433070\",\"0.0-185.0\",\"\",\"\",\"3-2\",\"4807\",\"39\",\"0\",\"Testing\",\"Stims/Figures/111-C-30-3.bmp\",\"ma:mana\",\"Left\",\"37\",\"2\",\"13\",\"7\",\"S\",\"J\",\"37\"
\"\",\"\",\"approach-retreat\",\"186\",\"1438831\",\"0.0-186.0\",\"\",\"\",\"3-2\",\"4255\",\"38\",\"0\",\"Testing\",\"Stims/Figures/139-J-0-2.bmp\",\"ta:ka:ka\",\"Up\",\"40\",\"2\",\"14\",\"7\",\"P\",\"J\",\"38\"
\"\",\"\",\"approach-retreat\",\"187\",\"1446263\",\"0.0-187.0\",\"\",\"\",\"3-2\",\"5927\",\"37\",\"0\",\"Testing\",\"Stims/Figures/19-J-10-4.bmp\",\"malala\",\"Left\",\"39\",\"2\",\"15\",\"7\",\"S\",\"J\",\"39\"
\"\",\"\",\"approach-retreat\",\"188\",\"1453798\",\"0.0-188.0\",\"\",\"\",\"3-2\",\"6032\",\"39\",\"1\",\"Testing\",\"Stims/Figures/74-C-20-4.bmp\",\"ma:la:la\",\"Right\",\"39\",\"2\",\"16\",\"7\",\"S\",\"J\",\"40\"
\"\",\"\",\"approach-retreat\",\"189\",\"1462399\",\"0.0-189.0\",\"\",\"\",\"3-2\",\"7097\",\"37\",\"1\",\"Testing\",\"Stims/Figures/57-J-0-1.bmp\",\"ta:pa:ta\",\"Right\",\"37\",\"2\",\"17\",\"7\",\"P\",\"J\",\"41\"
\"\",\"\",\"approach-retreat\",\"190\",\"1468133\",\"0.0-190.0\",\"\",\"\",\"3-2\",\"4231\",\"40\",\"1\",\"Testing\",\"Stims/Figures/93-C-30-1.bmp\",\"pa:pa:ka\",\"Down\",\"40\",\"2\",\"18\",\"7\",\"P\",\"J\",\"42\"
\"\",\"\",\"approach-retreat\",\"191\",\"1473976\",\"0.0-191.0\",\"\",\"\",\"3-2\",\"4339\",\"40\",\"1\",\"Testing\",\"Stims/Figures/94-C-20-2.bmp\",\"ta:pata\",\"Down\",\"40\",\"2\",\"19\",\"7\",\"P\",\"J\",\"43\"
\"\",\"\",\"approach-retreat\",\"192\",\"1480110\",\"0.0-192.0\",\"\",\"\",\"3-2\",\"4632\",\"38\",\"1\",\"Testing\",\"Stims/Figures/93-J-0-1.bmp\",\"ta:kata\",\"Down\",\"38\",\"2\",\"20\",\"7\",\"P\",\"J\",\"44\"
\"\",\"\",\"approach-retreat\",\"193\",\"1488992\",\"0.0-193.0\",\"\",\"\",\"3-2\",\"7378\",\"37\",\"0\",\"Testing\",\"Stims/Figures/100-J-10-3.bmp\",\"mamana\",\"Left\",\"39\",\"2\",\"21\",\"7\",\"S\",\"J\",\"45\"
\"\",\"\",\"approach-retreat\",\"194\",\"1494879\",\"0.0-194.0\",\"\",\"\",\"3-2\",\"4383\",\"38\",\"1\",\"Testing\",\"Stims/Figures/74-J-10-4.bmp\",\"nama:la\",\"Down\",\"38\",\"2\",\"22\",\"7\",\"S\",\"J\",\"46\"
\"\",\"\",\"approach-retreat\",\"195\",\"1560984\",\"0.0-195.0\",\"\",\"\",\"3-2\",\"64600\",\"38\",\"1\",\"Testing\",\"Stims/Figures/128-C-30-3.bmp\",\"nama:na\",\"Up\",\"38\",\"2\",\"23\",\"7\",\"S\",\"J\",\"47\"
\"\",\"\",\"approach-retreat\",\"196\",\"1574985\",\"0.0-196.0\",\"\",\"\",\"3-2\",\"12499\",\"40\",\"1\",\"Testing\",\"Stims/Figures/102-J-10-4.bmp\",\"namala\",\"Up\",\"40\",\"2\",\"24\",\"7\",\"S\",\"J\",\"48\"
\"\",\"\",\"approach-retreat\",\"197\",\"1581934\",\"0.0-197.0\",\"\",\"\",\"3-2\",\"5445\",\"38\",\"1\",\"Testing\",\"Stims/Figures/19-C-20-4.bmp\",\"na:lala\",\"Up\",\"38\",\"3\",\"1\",\"7\",\"S\",\"J\",\"49\"
\"\",\"\",\"approach-retreat\",\"198\",\"1590343\",\"0.0-198.0\",\"\",\"\",\"3-2\",\"6906\",\"40\",\"1\",\"Testing\",\"Stims/Figures/71-C-30-1.bmp\",\"ta:kaka\",\"Down\",\"40\",\"3\",\"2\",\"7\",\"P\",\"J\",\"50\"
\"\",\"\",\"approach-retreat\",\"199\",\"1596070\",\"0.0-199.0\",\"\",\"\",\"3-2\",\"4224\",\"40\",\"1\",\"Testing\",\"Stims/Figures/128-J-10-3.bmp\",\"nala:na\",\"Up\",\"40\",\"3\",\"3\",\"7\",\"S\",\"J\",\"51\"
\"\",\"\",\"approach-retreat\",\"200\",\"1602502\",\"0.0-200.0\",\"\",\"\",\"3-2\",\"4929\",\"37\",\"1\",\"Testing\",\"Stims/Figures/93-J-0-1.bmp\",\"ta:kata\",\"Right\",\"37\",\"3\",\"4\",\"7\",\"P\",\"J\",\"52\"
\"\",\"\",\"approach-retreat\",\"201\",\"1608142\",\"0.0-201.0\",\"\",\"\",\"3-2\",\"4136\",\"37\",\"0\",\"Testing\",\"Stims/Figures/85-J-0-2.bmp\",\"pa:ka:ka\",\"Left\",\"39\",\"3\",\"5\",\"7\",\"P\",\"J\",\"53\"
\"\",\"\",\"approach-retreat\",\"202\",\"1613894\",\"0.0-202.0\",\"\",\"\",\"3-2\",\"4249\",\"40\",\"0\",\"Testing\",\"Stims/Figures/139-J-0-2.bmp\",\"ta:ka:ka\",\"Down\",\"38\",\"3\",\"6\",\"7\",\"P\",\"J\",\"54\"
\"\",\"\",\"approach-retreat\",\"203\",\"1620215\",\"0.0-203.0\",\"\",\"\",\"3-2\",\"4816\",\"37\",\"1\",\"Testing\",\"Stims/Figures/85-C-20-2.bmp\",\"pa:ka:ta\",\"Left\",\"37\",\"3\",\"7\",\"7\",\"P\",\"J\",\"55\"
\"\",\"\",\"approach-retreat\",\"204\",\"1631504\",\"0.0-204.0\",\"\",\"\",\"3-2\",\"9785\",\"38\",\"1\",\"Testing\",\"Stims/Figures/128-C-30-3.bmp\",\"nama:na\",\"Up\",\"38\",\"3\",\"8\",\"7\",\"S\",\"J\",\"56\"
\"\",\"\",\"approach-retreat\",\"205\",\"1637159\",\"0.0-205.0\",\"\",\"\",\"3-2\",\"4151\",\"39\",\"1\",\"Testing\",\"Stims/Figures/71-J-0-1.bmp\",\"papata\",\"Left\",\"39\",\"3\",\"9\",\"7\",\"P\",\"J\",\"57\"
\"\",\"\",\"approach-retreat\",\"206\",\"1648687\",\"0.0-206.0\",\"\",\"\",\"3-2\",\"10025\",\"39\",\"0\",\"Testing\",\"Stims/Figures/100-J-10-3.bmp\",\"mamana\",\"Right\",\"37\",\"3\",\"10\",\"7\",\"S\",\"J\",\"58\"
\"\",\"\",\"approach-retreat\",\"207\",\"1654367\",\"0.0-207.0\",\"\",\"\",\"3-2\",\"4177\",\"38\",\"1\",\"Testing\",\"Stims/Figures/93-C-30-1.bmp\",\"pa:pa:ka\",\"Up\",\"38\",\"3\",\"11\",\"7\",\"P\",\"J\",\"59\"
\"\",\"\",\"approach-retreat\",\"208\",\"1675383\",\"0.0-208.0\",\"\",\"\",\"3-2\",\"19513\",\"37\",\"1\",\"Testing\",\"Stims/Figures/100-C-30-3.bmp\",\"mamala\",\"Left\",\"37\",\"3\",\"12\",\"7\",\"S\",\"J\",\"60\"
\"\",\"\",\"approach-retreat\",\"209\",\"1681566\",\"0.0-209.0\",\"\",\"\",\"3-2\",\"4681\",\"40\",\"1\",\"Testing\",\"Stims/Figures/74-C-20-4.bmp\",\"ma:la:la\",\"Down\",\"40\",\"3\",\"13\",\"7\",\"S\",\"J\",\"61\"
\"\",\"\",\"approach-retreat\",\"210\",\"1687439\",\"0.0-210.0\",\"\",\"\",\"3-2\",\"4369\",\"37\",\"1\",\"Testing\",\"Stims/Figures/139-C-20-2.bmp\",\"paka:ka\",\"Left\",\"37\",\"3\",\"14\",\"7\",\"P\",\"J\",\"62\"
\"\",\"\",\"approach-retreat\",\"211\",\"1694174\",\"0.0-211.0\",\"\",\"\",\"3-2\",\"5232\",\"37\",\"0\",\"Testing\",\"Stims/Figures/57-C-30-1.bmp\",\"taka:ta\",\"Right\",\"39\",\"3\",\"15\",\"7\",\"P\",\"J\",\"63\"
\"\",\"\",\"approach-retreat\",\"212\",\"1702438\",\"0.0-212.0\",\"\",\"\",\"3-2\",\"6762\",\"40\",\"0\",\"Testing\",\"Stims/Figures/111-J-10-3.bmp\",\"malana\",\"Down\",\"38\",\"3\",\"16\",\"7\",\"S\",\"J\",\"64\"
\"\",\"\",\"approach-retreat\",\"213\",\"1708182\",\"0.0-213.0\",\"\",\"\",\"3-2\",\"4240\",\"37\",\"0\",\"Testing\",\"Stims/Figures/102-C-20-4.bmp\",\"na:mala\",\"Right\",\"39\",\"3\",\"17\",\"7\",\"S\",\"J\",\"65\"
\"\",\"\",\"approach-retreat\",\"214\",\"1713944\",\"0.0-214.0\",\"\",\"\",\"3-2\",\"4259\",\"39\",\"1\",\"Testing\",\"Stims/Figures/94-C-20-2.bmp\",\"ta:pata\",\"Right\",\"39\",\"3\",\"18\",\"7\",\"P\",\"J\",\"66\"
\"\",\"\",\"approach-retreat\",\"215\",\"1719639\",\"0.0-215.0\",\"\",\"\",\"3-2\",\"4192\",\"38\",\"0\",\"Testing\",\"Stims/Figures/111-C-30-3.bmp\",\"ma:mana\",\"Down\",\"40\",\"3\",\"19\",\"7\",\"S\",\"J\",\"67\"
\"\",\"\",\"approach-retreat\",\"216\",\"1726103\",\"0.0-216.0\",\"\",\"\",\"3-2\",\"4961\",\"39\",\"0\",\"Testing\",\"Stims/Figures/74-J-10-4.bmp\",\"nama:la\",\"Right\",\"37\",\"3\",\"20\",\"7\",\"S\",\"J\",\"68\"
\"\",\"\",\"approach-retreat\",\"217\",\"1733958\",\"0.0-217.0\",\"\",\"\",\"3-2\",\"6353\",\"39\",\"1\",\"Testing\",\"Stims/Figures/102-J-10-4.bmp\",\"namala\",\"Left\",\"39\",\"3\",\"21\",\"7\",\"S\",\"J\",\"69\"
\"\",\"\",\"approach-retreat\",\"218\",\"1741599\",\"0.0-218.0\",\"\",\"\",\"3-2\",\"6135\",\"40\",\"1\",\"Testing\",\"Stims/Figures/19-J-10-4.bmp\",\"malala\",\"Up\",\"40\",\"3\",\"22\",\"7\",\"S\",\"J\",\"70\"
\"\",\"\",\"approach-retreat\",\"219\",\"1753255\",\"0.0-219.0\",\"\",\"\",\"3-2\",\"10153\",\"38\",\"0\",\"Testing\",\"Stims/Figures/94-J-0-2.bmp\",\"takata\",\"Up\",\"40\",\"3\",\"23\",\"7\",\"P\",\"J\",\"71\"
\"\",\"\",\"approach-retreat\",\"220\",\"1763263\",\"0.0-220.0\",\"\",\"\",\"3-2\",\"8505\",\"38\",\"1\",\"Testing\",\"Stims/Figures/57-J-0-1.bmp\",\"ta:pa:ta\",\"Down\",\"38\",\"3\",\"24\",\"7\",\"P\",\"J\",\"72\"
\"\",\"\",\"approach-retreat\",\"221\",\"1784496\",\"0.0-221.0\",\"\",\"\",\"3-2\",\"19730\",\"39\",\"0\",\"Testing\",\"Stims/Figures/111-J-10-3.bmp\",\"malana\",\"Right\",\"37\",\"4\",\"1\",\"7\",\"S\",\"J\",\"73\"
\"\",\"\",\"approach-retreat\",\"222\",\"1791263\",\"0.0-222.0\",\"\",\"\",\"3-2\",\"5263\",\"37\",\"1\",\"Testing\",\"Stims/Figures/102-J-10-4.bmp\",\"namala\",\"Right\",\"37\",\"4\",\"2\",\"7\",\"S\",\"J\",\"74\"
\"\",\"\",\"approach-retreat\",\"223\",\"1796815\",\"0.0-223.0\",\"\",\"\",\"3-2\",\"4049\",\"38\",\"0\",\"Testing\",\"Stims/Figures/85-J-0-2.bmp\",\"pa:ka:ka\",\"Up\",\"40\",\"4\",\"3\",\"7\",\"P\",\"J\",\"75\"
\"\",\"\",\"approach-retreat\",\"224\",\"1804511\",\"0.0-224.0\",\"\",\"\",\"3-2\",\"6191\",\"38\",\"0\",\"Testing\",\"Stims/Figures/100-J-10-3.bmp\",\"mamana\",\"Up\",\"40\",\"4\",\"4\",\"7\",\"S\",\"J\",\"76\"
\"\",\"\",\"approach-retreat\",\"225\",\"1811022\",\"0.0-225.0\",\"\",\"\",\"3-2\",\"5007\",\"37\",\"1\",\"Testing\",\"Stims/Figures/85-C-20-2.bmp\",\"pa:ka:ta\",\"Left\",\"37\",\"4\",\"5\",\"7\",\"P\",\"J\",\"77\"
\"\",\"\",\"approach-retreat\",\"226\",\"1817558\",\"0.0-226.0\",\"\",\"\",\"3-2\",\"5032\",\"39\",\"0\",\"Testing\",\"Stims/Figures/74-C-20-4.bmp\",\"ma:la:la\",\"Left\",\"37\",\"4\",\"6\",\"7\",\"S\",\"J\",\"78\"
\"\",\"\",\"approach-retreat\",\"227\",\"1823231\",\"0.0-227.0\",\"\",\"\",\"3-2\",\"4171\",\"40\",\"1\",\"Testing\",\"Stims/Figures/71-C-30-1.bmp\",\"ta:kaka\",\"Down\",\"40\",\"4\",\"7\",\"7\",\"P\",\"J\",\"79\"
\"\",\"\",\"approach-retreat\",\"228\",\"1828990\",\"0.0-228.0\",\"\",\"\",\"3-2\",\"4255\",\"40\",\"0\",\"Testing\",\"Stims/Figures/128-J-10-3.bmp\",\"nala:na\",\"Down\",\"38\",\"4\",\"8\",\"7\",\"S\",\"J\",\"80\"
\"\",\"\",\"approach-retreat\",\"229\",\"1834712\",\"0.0-229.0\",\"\",\"\",\"3-2\",\"4216\",\"40\",\"1\",\"Testing\",\"Stims/Figures/93-C-30-1.bmp\",\"pa:pa:ka\",\"Down\",\"40\",\"4\",\"9\",\"7\",\"P\",\"J\",\"81\"
\"\",\"\",\"approach-retreat\",\"230\",\"1840470\",\"0.0-230.0\",\"\",\"\",\"3-2\",\"4257\",\"39\",\"1\",\"Testing\",\"Stims/Figures/139-J-0-2.bmp\",\"ta:ka:ka\",\"Left\",\"39\",\"4\",\"10\",\"7\",\"P\",\"J\",\"82\"
\"\",\"\",\"approach-retreat\",\"231\",\"1846351\",\"0.0-231.0\",\"\",\"\",\"3-2\",\"4375\",\"37\",\"0\",\"Testing\",\"Stims/Figures/128-C-30-3.bmp\",\"nama:na\",\"Right\",\"39\",\"4\",\"11\",\"7\",\"S\",\"J\",\"83\"
\"\",\"\",\"approach-retreat\",\"232\",\"1852238\",\"0.0-232.0\",\"\",\"\",\"3-2\",\"4385\",\"39\",\"1\",\"Testing\",\"Stims/Figures/93-J-0-1.bmp\",\"ta:kata\",\"Left\",\"39\",\"4\",\"12\",\"7\",\"P\",\"J\",\"84\"
\"\",\"\",\"approach-retreat\",\"233\",\"1858758\",\"0.0-233.0\",\"\",\"\",\"3-2\",\"5017\",\"38\",\"0\",\"Testing\",\"Stims/Figures/19-J-10-4.bmp\",\"malala\",\"Up\",\"40\",\"4\",\"13\",\"7\",\"S\",\"J\",\"85\"
\"\",\"\",\"approach-retreat\",\"234\",\"1864423\",\"0.0-234.0\",\"\",\"\",\"3-2\",\"4162\",\"37\",\"1\",\"Testing\",\"Stims/Figures/139-C-20-2.bmp\",\"paka:ka\",\"Left\",\"37\",\"4\",\"14\",\"7\",\"P\",\"J\",\"86\"
\"\",\"\",\"approach-retreat\",\"235\",\"1870135\",\"0.0-235.0\",\"\",\"\",\"3-2\",\"4208\",\"40\",\"1\",\"Testing\",\"Stims/Figures/94-C-20-2.bmp\",\"ta:pata\",\"Down\",\"40\",\"4\",\"15\",\"7\",\"P\",\"J\",\"87\"
\"\",\"\",\"approach-retreat\",\"236\",\"1875839\",\"0.0-236.0\",\"\",\"\",\"3-2\",\"4200\",\"37\",\"1\",\"Testing\",\"Stims/Figures/74-J-10-4.bmp\",\"nama:la\",\"Right\",\"37\",\"4\",\"16\",\"7\",\"S\",\"J\",\"88\"
\"\",\"\",\"approach-retreat\",\"237\",\"1881567\",\"0.0-237.0\",\"\",\"\",\"3-2\",\"4225\",\"38\",\"0\",\"Testing\",\"Stims/Figures/57-J-0-1.bmp\",\"ta:pa:ta\",\"Up\",\"40\",\"4\",\"17\",\"7\",\"P\",\"J\",\"89\"
\"\",\"\",\"approach-retreat\",\"238\",\"1887238\",\"0.0-238.0\",\"\",\"\",\"3-2\",\"4168\",\"40\",\"0\",\"Testing\",\"Stims/Figures/102-C-20-4.bmp\",\"na:mala\",\"Up\",\"38\",\"4\",\"18\",\"7\",\"S\",\"J\",\"90\"
\"\",\"\",\"approach-retreat\",\"239\",\"1892935\",\"0.0-239.0\",\"\",\"\",\"3-2\",\"4194\",\"38\",\"0\",\"Testing\",\"Stims/Figures/111-C-30-3.bmp\",\"ma:mana\",\"Down\",\"40\",\"4\",\"19\",\"7\",\"S\",\"J\",\"91\"
\"\",\"\",\"approach-retreat\",\"240\",\"1900703\",\"0.0-240.0\",\"\",\"\",\"3-2\",\"6264\",\"37\",\"1\",\"Testing\",\"Stims/Figures/100-C-30-3.bmp\",\"mamala\",\"Left\",\"37\",\"4\",\"20\",\"7\",\"S\",\"J\",\"92\"
\"\",\"\",\"approach-retreat\",\"241\",\"1906480\",\"0.0-241.0\",\"\",\"\",\"3-2\",\"4273\",\"38\",\"0\",\"Testing\",\"Stims/Figures/57-C-30-1.bmp\",\"taka:ta\",\"Down\",\"40\",\"4\",\"21\",\"7\",\"P\",\"J\",\"93\"
\"\",\"\",\"approach-retreat\",\"242\",\"1915775\",\"0.0-242.0\",\"\",\"\",\"3-2\",\"7792\",\"39\",\"1\",\"Testing\",\"Stims/Figures/19-C-20-4.bmp\",\"na:lala\",\"Right\",\"39\",\"4\",\"22\",\"7\",\"S\",\"J\",\"94\"
\"\",\"\",\"approach-retreat\",\"243\",\"1921607\",\"0.0-243.0\",\"\",\"\",\"3-2\",\"4328\",\"39\",\"0\",\"Testing\",\"Stims/Figures/94-J-0-2.bmp\",\"takata\",\"Right\",\"37\",\"4\",\"23\",\"7\",\"P\",\"J\",\"95\"
\"\",\"\",\"approach-retreat\",\"244\",\"1927366\",\"0.0-244.0\",\"\",\"\",\"3-2\",\"4256\",\"40\",\"1\",\"Testing\",\"Stims/Figures/71-J-0-1.bmp\",\"papata\",\"Up\",\"40\",\"4\",\"24\",\"7\",\"P\",\"J\",\"96\"
\"20843\",\"\",\"survey-text\",\"245\",\"1948214\",\"0.0-245.0\",\"\",\"{\"\"Q0\"\":\"\"PS170035\"\"}\",\"\",\"\",\"\",\"\",\"\",\"\",\"\",\"\",\"\",\"\",\"\",\"\",\"\",\"\",\"\"
