\"rt\",\"key_press\",\"trial_type\",\"trial_index\",\"time_elapsed\",\"internal_node_id\",\"view_history\",\"responses\",\"Id\",\"Rt\",\"ResKeyCode\",\"ResCorr\",\"TrialType2\",\"Image\",\"Label\",\"Location\",\"CorrectResponse\",\"Block\",\"BlockTrial\",\"Condition\",\"LabelType\",\"Subcondition\",\"trialNum\"
\"4545\",\"32\",\"text\",\"0\",\"4548\",\"0.0-0.0-0.0\",\"\",\"\",\"\",\"\",\"\",\"\",\"\",\"\",\"\",\"\",\"\",\"\",\"\",\"\",\"\",\"\",\"\"
\"65372\",\"\",\"instructions\",\"1\",\"69921\",\"0.0-1.0\",\"[{\"\"page_index\"\":0,\"\"viewing_time\"\":65371}]\",\"\",\"\",\"\",\"\",\"\",\"\",\"\",\"\",\"\",\"\",\"\",\"\",\"\",\"\",\"\",\"\"
\"40747\",\"\",\"survey-multi-choice\",\"2\",\"110696\",\"0.0-2.0\",\"\",\"{\"\"Q0\"\":\"\"Da\"\",\"\"Q1\"\":\"\"Da\"\",\"\"Q2\"\":\"\"Da\"\",\"\"Q3\"\":\"\"Da\"\",\"\"Q4\"\":\"\"Da\"\",\"\"Q5\"\":\"\"Da\"\"}\",\"\",\"\",\"\",\"\",\"\",\"\",\"\",\"\",\"\",\"\",\"\",\"\",\"\",\"\",\"\"
\"\",\"\",\"bio\",\"3\",\"121134\",\"0.0-3.0\",\"\",\"{\"\"age\"\":\"\"20\"\",\"\"gender\"\":\"\"m\"\",\"\"specify\"\":\"\"\"\"}\",\"\",\"\",\"\",\"\",\"\",\"\",\"\",\"\",\"\",\"\",\"\",\"\",\"\",\"\",\"\"
\"\",\"\",\"approach-retreat\",\"4\",\"127866\",\"0.0-4.0\",\"\",\"\",\"3-1\",\"5226\",\"37\",\"0\",\"Training\",\"Stims/Figures/27-C-30-1.bmp\",\"None\",\"Left\",\"39\",\"1\",\"1\",\"10\",\"N\",\"C\",\"1\"
\"\",\"\",\"approach-retreat\",\"5\",\"134104\",\"0.0-5.0\",\"\",\"\",\"3-1\",\"4735\",\"40\",\"1\",\"Training\",\"Stims/Figures/87-C-20-4.bmp\",\"None\",\"Up\",\"40\",\"1\",\"2\",\"10\",\"N\",\"C\",\"2\"
\"\",\"\",\"approach-retreat\",\"6\",\"141287\",\"0.0-6.0\",\"\",\"\",\"3-1\",\"5678\",\"37\",\"0\",\"Training\",\"Stims/Figures/139-C-20-2.bmp\",\"None\",\"Left\",\"39\",\"1\",\"3\",\"10\",\"N\",\"C\",\"3\"
\"\",\"\",\"approach-retreat\",\"7\",\"147279\",\"0.0-7.0\",\"\",\"\",\"3-1\",\"4489\",\"39\",\"1\",\"Training\",\"Stims/Figures/139-J-0-2.bmp\",\"None\",\"Right\",\"39\",\"1\",\"4\",\"10\",\"N\",\"C\",\"4\"
\"\",\"\",\"approach-retreat\",\"8\",\"153778\",\"0.0-8.0\",\"\",\"\",\"3-1\",\"4994\",\"38\",\"1\",\"Training\",\"Stims/Figures/27-J-0-1.bmp\",\"None\",\"Up\",\"38\",\"1\",\"5\",\"10\",\"N\",\"C\",\"5\"
\"\",\"\",\"approach-retreat\",\"9\",\"159522\",\"0.0-9.0\",\"\",\"\",\"3-1\",\"4240\",\"37\",\"1\",\"Training\",\"Stims/Figures/102-C-20-4.bmp\",\"None\",\"Right\",\"37\",\"1\",\"6\",\"10\",\"N\",\"C\",\"6\"
\"\",\"\",\"approach-retreat\",\"10\",\"165962\",\"0.0-10.0\",\"\",\"\",\"3-1\",\"4935\",\"38\",\"0\",\"Training\",\"Stims/Figures/102-J-10-4.bmp\",\"None\",\"Down\",\"40\",\"1\",\"7\",\"10\",\"N\",\"C\",\"7\"
\"\",\"\",\"approach-retreat\",\"11\",\"171886\",\"0.0-11.0\",\"\",\"\",\"3-1\",\"4416\",\"37\",\"1\",\"Training\",\"Stims/Figures/84-C-20-2.bmp\",\"None\",\"Right\",\"37\",\"1\",\"8\",\"10\",\"N\",\"C\",\"8\"
\"\",\"\",\"approach-retreat\",\"12\",\"180036\",\"0.0-12.0\",\"\",\"\",\"3-1\",\"6643\",\"37\",\"0\",\"Training\",\"Stims/Figures/44-C-30-3.bmp\",\"None\",\"Left\",\"39\",\"1\",\"9\",\"10\",\"N\",\"C\",\"9\"
\"\",\"\",\"approach-retreat\",\"13\",\"186339\",\"0.0-13.0\",\"\",\"\",\"3-1\",\"4797\",\"38\",\"1\",\"Training\",\"Stims/Figures/57-C-30-1.bmp\",\"None\",\"Down\",\"38\",\"1\",\"10\",\"10\",\"N\",\"C\",\"10\"
\"\",\"\",\"approach-retreat\",\"14\",\"192456\",\"0.0-14.0\",\"\",\"\",\"3-1\",\"4608\",\"40\",\"1\",\"Training\",\"Stims/Figures/100-C-30-3.bmp\",\"None\",\"Up\",\"40\",\"1\",\"11\",\"10\",\"N\",\"C\",\"11\"
\"\",\"\",\"approach-retreat\",\"15\",\"199481\",\"0.0-15.0\",\"\",\"\",\"3-1\",\"5523\",\"40\",\"0\",\"Training\",\"Stims/Figures/100-J-10-3.bmp\",\"None\",\"Up\",\"38\",\"1\",\"12\",\"10\",\"N\",\"C\",\"12\"
\"\",\"\",\"approach-retreat\",\"16\",\"205397\",\"0.0-16.0\",\"\",\"\",\"3-1\",\"4412\",\"37\",\"1\",\"Training\",\"Stims/Figures/87-J-10-4.bmp\",\"None\",\"Left\",\"37\",\"1\",\"13\",\"10\",\"N\",\"C\",\"13\"
\"\",\"\",\"approach-retreat\",\"17\",\"215116\",\"0.0-17.0\",\"\",\"\",\"3-1\",\"8215\",\"40\",\"1\",\"Training\",\"Stims/Figures/44-J-10-3.bmp\",\"None\",\"Down\",\"40\",\"1\",\"14\",\"10\",\"N\",\"C\",\"14\"
\"\",\"\",\"approach-retreat\",\"18\",\"225532\",\"0.0-18.0\",\"\",\"\",\"3-1\",\"8915\",\"39\",\"1\",\"Training\",\"Stims/Figures/57-J-0-1.bmp\",\"None\",\"Right\",\"39\",\"1\",\"15\",\"10\",\"N\",\"C\",\"15\"
\"\",\"\",\"approach-retreat\",\"19\",\"231605\",\"0.0-19.0\",\"\",\"\",\"3-1\",\"4570\",\"40\",\"1\",\"Training\",\"Stims/Figures/84-J-0-2.bmp\",\"None\",\"Down\",\"40\",\"1\",\"16\",\"10\",\"N\",\"C\",\"16\"
\"\",\"\",\"approach-retreat\",\"20\",\"238074\",\"0.0-20.0\",\"\",\"\",\"3-1\",\"4966\",\"39\",\"1\",\"Training\",\"Stims/Figures/27-J-0-1.bmp\",\"None\",\"Right\",\"39\",\"2\",\"1\",\"10\",\"N\",\"C\",\"17\"
\"\",\"\",\"approach-retreat\",\"21\",\"244163\",\"0.0-21.0\",\"\",\"\",\"3-1\",\"4582\",\"38\",\"1\",\"Training\",\"Stims/Figures/84-J-0-2.bmp\",\"None\",\"Up\",\"38\",\"2\",\"2\",\"10\",\"N\",\"C\",\"18\"
\"\",\"\",\"approach-retreat\",\"22\",\"250623\",\"0.0-22.0\",\"\",\"\",\"3-1\",\"4956\",\"38\",\"1\",\"Training\",\"Stims/Figures/44-C-30-3.bmp\",\"None\",\"Down\",\"38\",\"2\",\"3\",\"10\",\"N\",\"C\",\"19\"
\"\",\"\",\"approach-retreat\",\"23\",\"256459\",\"0.0-23.0\",\"\",\"\",\"3-1\",\"4332\",\"38\",\"1\",\"Training\",\"Stims/Figures/100-C-30-3.bmp\",\"None\",\"Down\",\"38\",\"2\",\"4\",\"10\",\"N\",\"C\",\"20\"
\"\",\"\",\"approach-retreat\",\"24\",\"262489\",\"0.0-24.0\",\"\",\"\",\"3-1\",\"4524\",\"37\",\"1\",\"Training\",\"Stims/Figures/27-C-30-1.bmp\",\"None\",\"Right\",\"37\",\"2\",\"5\",\"10\",\"N\",\"C\",\"21\"
\"\",\"\",\"approach-retreat\",\"25\",\"269908\",\"0.0-25.0\",\"\",\"\",\"3-1\",\"5913\",\"39\",\"1\",\"Training\",\"Stims/Figures/87-C-20-4.bmp\",\"None\",\"Left\",\"39\",\"2\",\"6\",\"10\",\"N\",\"C\",\"22\"
\"\",\"\",\"approach-retreat\",\"26\",\"275731\",\"0.0-26.0\",\"\",\"\",\"3-1\",\"4317\",\"39\",\"1\",\"Training\",\"Stims/Figures/102-C-20-4.bmp\",\"None\",\"Left\",\"39\",\"2\",\"7\",\"10\",\"N\",\"C\",\"23\"
\"\",\"\",\"approach-retreat\",\"27\",\"281565\",\"0.0-27.0\",\"\",\"\",\"3-1\",\"4327\",\"40\",\"0\",\"Training\",\"Stims/Figures/100-J-10-3.bmp\",\"None\",\"Up\",\"38\",\"2\",\"8\",\"10\",\"N\",\"C\",\"24\"
\"\",\"\",\"approach-retreat\",\"28\",\"287702\",\"0.0-28.0\",\"\",\"\",\"3-1\",\"4634\",\"40\",\"1\",\"Training\",\"Stims/Figures/102-J-10-4.bmp\",\"None\",\"Down\",\"40\",\"2\",\"9\",\"10\",\"N\",\"C\",\"25\"
\"\",\"\",\"approach-retreat\",\"29\",\"294144\",\"0.0-29.0\",\"\",\"\",\"3-1\",\"4937\",\"38\",\"1\",\"Training\",\"Stims/Figures/57-C-30-1.bmp\",\"None\",\"Down\",\"38\",\"2\",\"10\",\"10\",\"N\",\"C\",\"26\"
\"\",\"\",\"approach-retreat\",\"30\",\"302357\",\"0.0-30.0\",\"\",\"\",\"3-1\",\"6708\",\"39\",\"1\",\"Training\",\"Stims/Figures/44-J-10-3.bmp\",\"None\",\"Right\",\"39\",\"2\",\"11\",\"10\",\"N\",\"C\",\"27\"
\"\",\"\",\"approach-retreat\",\"31\",\"311056\",\"0.0-31.0\",\"\",\"\",\"3-1\",\"7195\",\"37\",\"1\",\"Training\",\"Stims/Figures/84-C-20-2.bmp\",\"None\",\"Right\",\"37\",\"2\",\"12\",\"10\",\"N\",\"C\",\"28\"
\"\",\"\",\"approach-retreat\",\"32\",\"317423\",\"0.0-32.0\",\"\",\"\",\"3-1\",\"4861\",\"38\",\"1\",\"Training\",\"Stims/Figures/87-J-10-4.bmp\",\"None\",\"Up\",\"38\",\"2\",\"13\",\"10\",\"N\",\"C\",\"29\"
\"\",\"\",\"approach-retreat\",\"33\",\"323224\",\"0.0-33.0\",\"\",\"\",\"3-1\",\"4296\",\"37\",\"1\",\"Training\",\"Stims/Figures/57-J-0-1.bmp\",\"None\",\"Left\",\"37\",\"2\",\"14\",\"10\",\"N\",\"C\",\"30\"
\"\",\"\",\"approach-retreat\",\"34\",\"329735\",\"0.0-34.0\",\"\",\"\",\"3-1\",\"5005\",\"39\",\"1\",\"Training\",\"Stims/Figures/139-C-20-2.bmp\",\"None\",\"Left\",\"39\",\"2\",\"15\",\"10\",\"N\",\"C\",\"31\"
\"\",\"\",\"approach-retreat\",\"35\",\"335601\",\"0.0-35.0\",\"\",\"\",\"3-1\",\"4360\",\"38\",\"1\",\"Training\",\"Stims/Figures/139-J-0-2.bmp\",\"None\",\"Up\",\"38\",\"2\",\"16\",\"10\",\"N\",\"C\",\"32\"
\"\",\"\",\"approach-retreat\",\"36\",\"342199\",\"0.0-36.0\",\"\",\"\",\"3-1\",\"5092\",\"39\",\"1\",\"Training\",\"Stims/Figures/27-J-0-1.bmp\",\"None\",\"Right\",\"39\",\"3\",\"1\",\"10\",\"N\",\"C\",\"33\"
\"\",\"\",\"approach-retreat\",\"37\",\"349540\",\"0.0-37.0\",\"\",\"\",\"3-1\",\"5836\",\"39\",\"1\",\"Training\",\"Stims/Figures/87-J-10-4.bmp\",\"None\",\"Right\",\"39\",\"3\",\"2\",\"10\",\"N\",\"C\",\"34\"
\"\",\"\",\"approach-retreat\",\"38\",\"357469\",\"0.0-38.0\",\"\",\"\",\"3-1\",\"6424\",\"40\",\"0\",\"Training\",\"Stims/Figures/102-C-20-4.bmp\",\"None\",\"Down\",\"38\",\"3\",\"3\",\"10\",\"N\",\"C\",\"35\"
\"\",\"\",\"approach-retreat\",\"39\",\"363560\",\"0.0-39.0\",\"\",\"\",\"3-1\",\"4585\",\"40\",\"1\",\"Training\",\"Stims/Figures/44-J-10-3.bmp\",\"None\",\"Down\",\"40\",\"3\",\"4\",\"10\",\"N\",\"C\",\"36\"
\"\",\"\",\"approach-retreat\",\"40\",\"369557\",\"0.0-40.0\",\"\",\"\",\"3-1\",\"4492\",\"38\",\"1\",\"Training\",\"Stims/Figures/100-J-10-3.bmp\",\"None\",\"Up\",\"38\",\"3\",\"5\",\"10\",\"N\",\"C\",\"37\"
\"\",\"\",\"approach-retreat\",\"41\",\"375449\",\"0.0-41.0\",\"\",\"\",\"3-1\",\"4387\",\"37\",\"1\",\"Training\",\"Stims/Figures/139-J-0-2.bmp\",\"None\",\"Left\",\"37\",\"3\",\"6\",\"10\",\"N\",\"C\",\"38\"
\"\",\"\",\"approach-retreat\",\"42\",\"381296\",\"0.0-42.0\",\"\",\"\",\"3-1\",\"4342\",\"37\",\"1\",\"Training\",\"Stims/Figures/57-J-0-1.bmp\",\"None\",\"Left\",\"37\",\"3\",\"7\",\"10\",\"N\",\"C\",\"39\"
\"\",\"\",\"approach-retreat\",\"43\",\"387205\",\"0.0-43.0\",\"\",\"\",\"3-1\",\"4404\",\"39\",\"1\",\"Training\",\"Stims/Figures/100-C-30-3.bmp\",\"None\",\"Left\",\"39\",\"3\",\"8\",\"10\",\"N\",\"C\",\"40\"
\"\",\"\",\"approach-retreat\",\"44\",\"393167\",\"0.0-44.0\",\"\",\"\",\"3-1\",\"4457\",\"37\",\"1\",\"Training\",\"Stims/Figures/57-C-30-1.bmp\",\"None\",\"Right\",\"37\",\"3\",\"9\",\"10\",\"N\",\"C\",\"41\"
\"\",\"\",\"approach-retreat\",\"45\",\"399164\",\"0.0-45.0\",\"\",\"\",\"3-1\",\"4492\",\"38\",\"1\",\"Training\",\"Stims/Figures/84-J-0-2.bmp\",\"None\",\"Up\",\"38\",\"3\",\"10\",\"10\",\"N\",\"C\",\"42\"
\"\",\"\",\"approach-retreat\",\"46\",\"405231\",\"0.0-46.0\",\"\",\"\",\"3-1\",\"4563\",\"40\",\"1\",\"Training\",\"Stims/Figures/44-C-30-3.bmp\",\"None\",\"Up\",\"40\",\"3\",\"11\",\"10\",\"N\",\"C\",\"43\"
\"\",\"\",\"approach-retreat\",\"47\",\"412373\",\"0.0-47.0\",\"\",\"\",\"3-1\",\"5636\",\"38\",\"1\",\"Training\",\"Stims/Figures/102-J-10-4.bmp\",\"None\",\"Up\",\"38\",\"3\",\"12\",\"10\",\"N\",\"C\",\"44\"
\"\",\"\",\"approach-retreat\",\"48\",\"418715\",\"0.0-48.0\",\"\",\"\",\"3-1\",\"4838\",\"38\",\"1\",\"Training\",\"Stims/Figures/27-C-30-1.bmp\",\"None\",\"Down\",\"38\",\"3\",\"13\",\"10\",\"N\",\"C\",\"45\"
\"\",\"\",\"approach-retreat\",\"49\",\"428297\",\"0.0-49.0\",\"\",\"\",\"3-1\",\"8076\",\"39\",\"0\",\"Training\",\"Stims/Figures/84-C-20-2.bmp\",\"None\",\"Right\",\"37\",\"3\",\"14\",\"10\",\"N\",\"C\",\"46\"
\"\",\"\",\"approach-retreat\",\"50\",\"437560\",\"0.0-50.0\",\"\",\"\",\"3-1\",\"7759\",\"37\",\"0\",\"Training\",\"Stims/Figures/139-C-20-2.bmp\",\"None\",\"Left\",\"39\",\"3\",\"15\",\"10\",\"N\",\"C\",\"47\"
\"\",\"\",\"approach-retreat\",\"51\",\"443359\",\"0.0-51.0\",\"\",\"\",\"3-1\",\"4295\",\"38\",\"1\",\"Training\",\"Stims/Figures/87-C-20-4.bmp\",\"None\",\"Down\",\"38\",\"3\",\"16\",\"10\",\"N\",\"C\",\"48\"
\"\",\"\",\"approach-retreat\",\"52\",\"449454\",\"0.0-52.0\",\"\",\"\",\"3-1\",\"4590\",\"38\",\"1\",\"Training\",\"Stims/Figures/102-C-20-4.bmp\",\"None\",\"Down\",\"38\",\"4\",\"1\",\"10\",\"N\",\"C\",\"49\"
\"\",\"\",\"approach-retreat\",\"53\",\"455295\",\"0.0-53.0\",\"\",\"\",\"3-1\",\"4335\",\"37\",\"1\",\"Training\",\"Stims/Figures/44-J-10-3.bmp\",\"None\",\"Left\",\"37\",\"4\",\"2\",\"10\",\"N\",\"C\",\"50\"
\"\",\"\",\"approach-retreat\",\"54\",\"462111\",\"0.0-54.0\",\"\",\"\",\"3-1\",\"5310\",\"37\",\"0\",\"Training\",\"Stims/Figures/57-J-0-1.bmp\",\"None\",\"Right\",\"39\",\"4\",\"3\",\"10\",\"N\",\"C\",\"51\"
\"\",\"\",\"approach-retreat\",\"55\",\"470751\",\"0.0-55.0\",\"\",\"\",\"3-1\",\"7134\",\"38\",\"1\",\"Training\",\"Stims/Figures/100-J-10-3.bmp\",\"None\",\"Up\",\"38\",\"4\",\"4\",\"10\",\"N\",\"C\",\"52\"
\"\",\"\",\"approach-retreat\",\"56\",\"477560\",\"0.0-56.0\",\"\",\"\",\"3-1\",\"5305\",\"37\",\"1\",\"Training\",\"Stims/Figures/84-C-20-2.bmp\",\"None\",\"Right\",\"37\",\"4\",\"5\",\"10\",\"N\",\"C\",\"53\"
\"\",\"\",\"approach-retreat\",\"57\",\"484410\",\"0.0-57.0\",\"\",\"\",\"3-1\",\"5347\",\"40\",\"1\",\"Training\",\"Stims/Figures/100-C-30-3.bmp\",\"None\",\"Up\",\"40\",\"4\",\"6\",\"10\",\"N\",\"C\",\"54\"
\"\",\"\",\"approach-retreat\",\"58\",\"491612\",\"0.0-58.0\",\"\",\"\",\"3-1\",\"5697\",\"38\",\"1\",\"Training\",\"Stims/Figures/84-J-0-2.bmp\",\"None\",\"Up\",\"38\",\"4\",\"7\",\"10\",\"N\",\"C\",\"55\"
\"\",\"\",\"approach-retreat\",\"59\",\"497505\",\"0.0-59.0\",\"\",\"\",\"3-1\",\"4388\",\"38\",\"1\",\"Training\",\"Stims/Figures/57-C-30-1.bmp\",\"None\",\"Down\",\"38\",\"4\",\"8\",\"10\",\"N\",\"C\",\"56\"
\"\",\"\",\"approach-retreat\",\"60\",\"503382\",\"0.0-60.0\",\"\",\"\",\"3-1\",\"4372\",\"39\",\"1\",\"Training\",\"Stims/Figures/102-J-10-4.bmp\",\"None\",\"Right\",\"39\",\"4\",\"9\",\"10\",\"N\",\"C\",\"57\"
\"\",\"\",\"approach-retreat\",\"61\",\"515036\",\"0.0-61.0\",\"\",\"\",\"3-1\",\"10148\",\"40\",\"0\",\"Training\",\"Stims/Figures/139-C-20-2.bmp\",\"None\",\"Down\",\"38\",\"4\",\"10\",\"10\",\"N\",\"C\",\"58\"
\"\",\"\",\"approach-retreat\",\"62\",\"520889\",\"0.0-62.0\",\"\",\"\",\"3-1\",\"4349\",\"39\",\"1\",\"Training\",\"Stims/Figures/87-C-20-4.bmp\",\"None\",\"Left\",\"39\",\"4\",\"11\",\"10\",\"N\",\"C\",\"59\"
\"\",\"\",\"approach-retreat\",\"63\",\"527036\",\"0.0-63.0\",\"\",\"\",\"3-1\",\"4642\",\"37\",\"1\",\"Training\",\"Stims/Figures/87-J-10-4.bmp\",\"None\",\"Left\",\"37\",\"4\",\"12\",\"10\",\"N\",\"C\",\"60\"
\"\",\"\",\"approach-retreat\",\"64\",\"532912\",\"0.0-64.0\",\"\",\"\",\"3-1\",\"4371\",\"40\",\"1\",\"Training\",\"Stims/Figures/27-C-30-1.bmp\",\"None\",\"Up\",\"40\",\"4\",\"13\",\"10\",\"N\",\"C\",\"61\"
\"\",\"\",\"approach-retreat\",\"65\",\"539000\",\"0.0-65.0\",\"\",\"\",\"3-1\",\"4584\",\"37\",\"1\",\"Training\",\"Stims/Figures/27-J-0-1.bmp\",\"None\",\"Left\",\"37\",\"4\",\"14\",\"10\",\"N\",\"C\",\"62\"
\"\",\"\",\"approach-retreat\",\"66\",\"544779\",\"0.0-66.0\",\"\",\"\",\"3-1\",\"4276\",\"40\",\"1\",\"Training\",\"Stims/Figures/139-J-0-2.bmp\",\"None\",\"Down\",\"40\",\"4\",\"15\",\"10\",\"N\",\"C\",\"63\"
\"\",\"\",\"approach-retreat\",\"67\",\"550634\",\"0.0-67.0\",\"\",\"\",\"3-1\",\"4349\",\"37\",\"1\",\"Training\",\"Stims/Figures/44-C-30-3.bmp\",\"None\",\"Right\",\"37\",\"4\",\"16\",\"10\",\"N\",\"C\",\"64\"
\"\",\"\",\"approach-retreat\",\"68\",\"558621\",\"0.0-68.0\",\"\",\"\",\"3-1\",\"6483\",\"37\",\"0\",\"Training\",\"Stims/Figures/139-C-20-2.bmp\",\"None\",\"Left\",\"39\",\"5\",\"1\",\"10\",\"N\",\"C\",\"65\"
\"\",\"\",\"approach-retreat\",\"69\",\"564804\",\"0.0-69.0\",\"\",\"\",\"3-1\",\"4677\",\"39\",\"1\",\"Training\",\"Stims/Figures/139-J-0-2.bmp\",\"None\",\"Right\",\"39\",\"5\",\"2\",\"10\",\"N\",\"C\",\"66\"
\"\",\"\",\"approach-retreat\",\"70\",\"570499\",\"0.0-70.0\",\"\",\"\",\"3-1\",\"4190\",\"37\",\"1\",\"Training\",\"Stims/Figures/100-J-10-3.bmp\",\"None\",\"Left\",\"37\",\"5\",\"3\",\"10\",\"N\",\"C\",\"67\"
\"\",\"\",\"approach-retreat\",\"71\",\"576146\",\"0.0-71.0\",\"\",\"\",\"3-1\",\"4142\",\"39\",\"1\",\"Training\",\"Stims/Figures/44-J-10-3.bmp\",\"None\",\"Right\",\"39\",\"5\",\"4\",\"10\",\"N\",\"C\",\"68\"
\"\",\"\",\"approach-retreat\",\"72\",\"582152\",\"0.0-72.0\",\"\",\"\",\"3-1\",\"4498\",\"38\",\"1\",\"Training\",\"Stims/Figures/57-J-0-1.bmp\",\"None\",\"Up\",\"38\",\"5\",\"5\",\"10\",\"N\",\"C\",\"69\"
\"\",\"\",\"approach-retreat\",\"73\",\"588808\",\"0.0-73.0\",\"\",\"\",\"3-1\",\"5153\",\"40\",\"1\",\"Training\",\"Stims/Figures/102-J-10-4.bmp\",\"None\",\"Down\",\"40\",\"5\",\"6\",\"10\",\"N\",\"C\",\"70\"
\"\",\"\",\"approach-retreat\",\"74\",\"594688\",\"0.0-74.0\",\"\",\"\",\"3-1\",\"4375\",\"40\",\"1\",\"Training\",\"Stims/Figures/100-C-30-3.bmp\",\"None\",\"Up\",\"40\",\"5\",\"7\",\"10\",\"N\",\"C\",\"71\"
\"\",\"\",\"approach-retreat\",\"75\",\"601785\",\"0.0-75.0\",\"\",\"\",\"3-1\",\"5593\",\"39\",\"1\",\"Training\",\"Stims/Figures/87-J-10-4.bmp\",\"None\",\"Right\",\"39\",\"5\",\"8\",\"10\",\"N\",\"C\",\"72\"
\"\",\"\",\"approach-retreat\",\"76\",\"608144\",\"0.0-76.0\",\"\",\"\",\"3-1\",\"4854\",\"38\",\"1\",\"Training\",\"Stims/Figures/27-C-30-1.bmp\",\"None\",\"Down\",\"38\",\"5\",\"9\",\"10\",\"N\",\"C\",\"73\"
\"\",\"\",\"approach-retreat\",\"77\",\"613824\",\"0.0-77.0\",\"\",\"\",\"3-1\",\"4175\",\"38\",\"1\",\"Training\",\"Stims/Figures/44-C-30-3.bmp\",\"None\",\"Down\",\"38\",\"5\",\"10\",\"10\",\"N\",\"C\",\"74\"
\"\",\"\",\"approach-retreat\",\"78\",\"620384\",\"0.0-78.0\",\"\",\"\",\"3-1\",\"5055\",\"39\",\"1\",\"Training\",\"Stims/Figures/27-J-0-1.bmp\",\"None\",\"Right\",\"39\",\"5\",\"11\",\"10\",\"N\",\"C\",\"75\"
\"\",\"\",\"approach-retreat\",\"79\",\"626965\",\"0.0-79.0\",\"\",\"\",\"3-1\",\"5076\",\"39\",\"1\",\"Training\",\"Stims/Figures/84-C-20-2.bmp\",\"None\",\"Left\",\"39\",\"5\",\"12\",\"10\",\"N\",\"C\",\"76\"
\"\",\"\",\"approach-retreat\",\"80\",\"632695\",\"0.0-80.0\",\"\",\"\",\"3-1\",\"4226\",\"40\",\"1\",\"Training\",\"Stims/Figures/84-J-0-2.bmp\",\"None\",\"Down\",\"40\",\"5\",\"13\",\"10\",\"N\",\"C\",\"77\"
\"\",\"\",\"approach-retreat\",\"81\",\"638355\",\"0.0-81.0\",\"\",\"\",\"3-1\",\"4156\",\"40\",\"1\",\"Training\",\"Stims/Figures/57-C-30-1.bmp\",\"None\",\"Up\",\"40\",\"5\",\"14\",\"10\",\"N\",\"C\",\"78\"
\"\",\"\",\"approach-retreat\",\"82\",\"644878\",\"0.0-82.0\",\"\",\"\",\"3-1\",\"5018\",\"40\",\"1\",\"Training\",\"Stims/Figures/102-C-20-4.bmp\",\"None\",\"Up\",\"40\",\"5\",\"15\",\"10\",\"N\",\"C\",\"79\"
\"\",\"\",\"approach-retreat\",\"83\",\"651006\",\"0.0-83.0\",\"\",\"\",\"3-1\",\"4623\",\"39\",\"1\",\"Training\",\"Stims/Figures/87-C-20-4.bmp\",\"None\",\"Left\",\"39\",\"5\",\"16\",\"10\",\"N\",\"C\",\"80\"
\"\",\"\",\"approach-retreat\",\"84\",\"656834\",\"0.0-84.0\",\"\",\"\",\"3-1\",\"4323\",\"39\",\"1\",\"Training\",\"Stims/Figures/84-J-0-2.bmp\",\"None\",\"Right\",\"39\",\"6\",\"1\",\"10\",\"N\",\"C\",\"81\"
\"\",\"\",\"approach-retreat\",\"85\",\"662973\",\"0.0-85.0\",\"\",\"\",\"3-1\",\"4633\",\"38\",\"1\",\"Training\",\"Stims/Figures/139-C-20-2.bmp\",\"None\",\"Down\",\"38\",\"6\",\"2\",\"10\",\"N\",\"C\",\"82\"
\"\",\"\",\"approach-retreat\",\"86\",\"668923\",\"0.0-86.0\",\"\",\"\",\"3-1\",\"4447\",\"39\",\"1\",\"Training\",\"Stims/Figures/100-J-10-3.bmp\",\"None\",\"Right\",\"39\",\"6\",\"3\",\"10\",\"N\",\"C\",\"83\"
\"\",\"\",\"approach-retreat\",\"87\",\"676873\",\"0.0-87.0\",\"\",\"\",\"3-1\",\"6443\",\"40\",\"0\",\"Training\",\"Stims/Figures/102-C-20-4.bmp\",\"None\",\"Down\",\"38\",\"6\",\"4\",\"10\",\"N\",\"C\",\"84\"
\"\",\"\",\"approach-retreat\",\"88\",\"683436\",\"0.0-88.0\",\"\",\"\",\"3-1\",\"5059\",\"39\",\"1\",\"Training\",\"Stims/Figures/100-C-30-3.bmp\",\"None\",\"Left\",\"39\",\"6\",\"5\",\"10\",\"N\",\"C\",\"85\"
\"\",\"\",\"approach-retreat\",\"89\",\"689727\",\"0.0-89.0\",\"\",\"\",\"3-1\",\"4785\",\"39\",\"1\",\"Training\",\"Stims/Figures/84-C-20-2.bmp\",\"None\",\"Left\",\"39\",\"6\",\"6\",\"10\",\"N\",\"C\",\"86\"
\"\",\"\",\"approach-retreat\",\"90\",\"695561\",\"0.0-90.0\",\"\",\"\",\"3-1\",\"4329\",\"38\",\"1\",\"Training\",\"Stims/Figures/44-C-30-3.bmp\",\"None\",\"Down\",\"38\",\"6\",\"7\",\"10\",\"N\",\"C\",\"87\"
\"\",\"\",\"approach-retreat\",\"91\",\"701231\",\"0.0-91.0\",\"\",\"\",\"3-1\",\"4165\",\"40\",\"1\",\"Training\",\"Stims/Figures/57-C-30-1.bmp\",\"None\",\"Up\",\"40\",\"6\",\"8\",\"10\",\"N\",\"C\",\"88\"
\"\",\"\",\"approach-retreat\",\"92\",\"707262\",\"0.0-92.0\",\"\",\"\",\"3-1\",\"4527\",\"40\",\"1\",\"Training\",\"Stims/Figures/27-J-0-1.bmp\",\"None\",\"Down\",\"40\",\"6\",\"9\",\"10\",\"N\",\"C\",\"89\"
\"\",\"\",\"approach-retreat\",\"93\",\"713376\",\"0.0-93.0\",\"\",\"\",\"3-1\",\"4610\",\"38\",\"1\",\"Training\",\"Stims/Figures/102-J-10-4.bmp\",\"None\",\"Up\",\"38\",\"6\",\"10\",\"10\",\"N\",\"C\",\"90\"
\"\",\"\",\"approach-retreat\",\"94\",\"719254\",\"0.0-94.0\",\"\",\"\",\"3-1\",\"4372\",\"38\",\"1\",\"Training\",\"Stims/Figures/139-J-0-2.bmp\",\"None\",\"Up\",\"38\",\"6\",\"11\",\"10\",\"N\",\"C\",\"91\"
\"\",\"\",\"approach-retreat\",\"95\",\"724923\",\"0.0-95.0\",\"\",\"\",\"3-1\",\"4165\",\"38\",\"1\",\"Training\",\"Stims/Figures/87-J-10-4.bmp\",\"None\",\"Up\",\"38\",\"6\",\"12\",\"10\",\"N\",\"C\",\"92\"
\"\",\"\",\"approach-retreat\",\"96\",\"735783\",\"0.0-96.0\",\"\",\"\",\"3-1\",\"9355\",\"37\",\"1\",\"Training\",\"Stims/Figures/87-C-20-4.bmp\",\"None\",\"Right\",\"37\",\"6\",\"13\",\"10\",\"N\",\"C\",\"93\"
\"\",\"\",\"approach-retreat\",\"97\",\"742604\",\"0.0-97.0\",\"\",\"\",\"3-1\",\"5317\",\"37\",\"1\",\"Training\",\"Stims/Figures/57-J-0-1.bmp\",\"None\",\"Left\",\"37\",\"6\",\"14\",\"10\",\"N\",\"C\",\"94\"
\"\",\"\",\"approach-retreat\",\"98\",\"748264\",\"0.0-98.0\",\"\",\"\",\"3-1\",\"4155\",\"37\",\"1\",\"Training\",\"Stims/Figures/44-J-10-3.bmp\",\"None\",\"Left\",\"37\",\"6\",\"15\",\"10\",\"N\",\"C\",\"95\"
\"\",\"\",\"approach-retreat\",\"99\",\"756548\",\"0.0-99.0\",\"\",\"\",\"3-1\",\"6777\",\"37\",\"1\",\"Training\",\"Stims/Figures/27-C-30-1.bmp\",\"None\",\"Right\",\"37\",\"6\",\"16\",\"10\",\"N\",\"C\",\"96\"
\"\",\"\",\"approach-retreat\",\"100\",\"762409\",\"0.0-100.0\",\"\",\"\",\"3-1\",\"4357\",\"38\",\"1\",\"Training\",\"Stims/Figures/84-C-20-2.bmp\",\"None\",\"Down\",\"38\",\"7\",\"1\",\"10\",\"N\",\"C\",\"97\"
\"\",\"\",\"approach-retreat\",\"101\",\"771686\",\"0.0-101.0\",\"\",\"\",\"3-1\",\"7771\",\"38\",\"1\",\"Training\",\"Stims/Figures/100-J-10-3.bmp\",\"None\",\"Up\",\"38\",\"7\",\"2\",\"10\",\"N\",\"C\",\"98\"
\"\",\"\",\"approach-retreat\",\"102\",\"778575\",\"0.0-102.0\",\"\",\"\",\"3-1\",\"5383\",\"38\",\"1\",\"Training\",\"Stims/Figures/57-C-30-1.bmp\",\"None\",\"Down\",\"38\",\"7\",\"3\",\"10\",\"N\",\"C\",\"99\"
\"\",\"\",\"approach-retreat\",\"103\",\"784523\",\"0.0-103.0\",\"\",\"\",\"3-1\",\"4441\",\"38\",\"1\",\"Training\",\"Stims/Figures/44-J-10-3.bmp\",\"None\",\"Up\",\"38\",\"7\",\"4\",\"10\",\"N\",\"C\",\"100\"
\"\",\"\",\"approach-retreat\",\"104\",\"790695\",\"0.0-104.0\",\"\",\"\",\"3-1\",\"4667\",\"39\",\"1\",\"Training\",\"Stims/Figures/44-C-30-3.bmp\",\"None\",\"Left\",\"39\",\"7\",\"5\",\"10\",\"N\",\"C\",\"101\"
\"\",\"\",\"approach-retreat\",\"105\",\"797253\",\"0.0-105.0\",\"\",\"\",\"3-1\",\"5053\",\"38\",\"1\",\"Training\",\"Stims/Figures/102-J-10-4.bmp\",\"None\",\"Up\",\"38\",\"7\",\"6\",\"10\",\"N\",\"C\",\"102\"
\"\",\"\",\"approach-retreat\",\"106\",\"802964\",\"0.0-106.0\",\"\",\"\",\"3-1\",\"4206\",\"39\",\"1\",\"Training\",\"Stims/Figures/27-C-30-1.bmp\",\"None\",\"Left\",\"39\",\"7\",\"7\",\"10\",\"N\",\"C\",\"103\"
\"\",\"\",\"approach-retreat\",\"107\",\"809583\",\"0.0-107.0\",\"\",\"\",\"3-1\",\"5114\",\"40\",\"1\",\"Training\",\"Stims/Figures/87-J-10-4.bmp\",\"None\",\"Down\",\"40\",\"7\",\"8\",\"10\",\"N\",\"C\",\"104\"
\"\",\"\",\"approach-retreat\",\"108\",\"815343\",\"0.0-108.0\",\"\",\"\",\"3-1\",\"4256\",\"39\",\"0\",\"Training\",\"Stims/Figures/84-J-0-2.bmp\",\"None\",\"Left\",\"37\",\"7\",\"9\",\"10\",\"N\",\"C\",\"105\"
\"\",\"\",\"approach-retreat\",\"109\",\"821660\",\"0.0-109.0\",\"\",\"\",\"3-1\",\"4809\",\"39\",\"1\",\"Training\",\"Stims/Figures/139-J-0-2.bmp\",\"None\",\"Right\",\"39\",\"7\",\"10\",\"10\",\"N\",\"C\",\"106\"
\"\",\"\",\"approach-retreat\",\"110\",\"827877\",\"0.0-110.0\",\"\",\"\",\"3-1\",\"4711\",\"38\",\"1\",\"Training\",\"Stims/Figures/139-C-20-2.bmp\",\"None\",\"Down\",\"38\",\"7\",\"11\",\"10\",\"N\",\"C\",\"107\"
\"\",\"\",\"approach-retreat\",\"111\",\"833628\",\"0.0-111.0\",\"\",\"\",\"3-1\",\"4246\",\"37\",\"1\",\"Training\",\"Stims/Figures/87-C-20-4.bmp\",\"None\",\"Right\",\"37\",\"7\",\"12\",\"10\",\"N\",\"C\",\"108\"
\"\",\"\",\"approach-retreat\",\"112\",\"840612\",\"0.0-112.0\",\"\",\"\",\"3-1\",\"5478\",\"40\",\"1\",\"Training\",\"Stims/Figures/102-C-20-4.bmp\",\"None\",\"Up\",\"40\",\"7\",\"13\",\"10\",\"N\",\"C\",\"109\"
\"\",\"\",\"approach-retreat\",\"113\",\"846442\",\"0.0-113.0\",\"\",\"\",\"3-1\",\"4323\",\"39\",\"1\",\"Training\",\"Stims/Figures/100-C-30-3.bmp\",\"None\",\"Left\",\"39\",\"7\",\"14\",\"10\",\"N\",\"C\",\"110\"
\"\",\"\",\"approach-retreat\",\"114\",\"853912\",\"0.0-114.0\",\"\",\"\",\"3-1\",\"5965\",\"39\",\"1\",\"Training\",\"Stims/Figures/27-J-0-1.bmp\",\"None\",\"Right\",\"39\",\"7\",\"15\",\"10\",\"N\",\"C\",\"111\"
\"\",\"\",\"approach-retreat\",\"115\",\"861033\",\"0.0-115.0\",\"\",\"\",\"3-1\",\"5615\",\"39\",\"1\",\"Training\",\"Stims/Figures/57-J-0-1.bmp\",\"None\",\"Right\",\"39\",\"7\",\"16\",\"10\",\"N\",\"C\",\"112\"
\"\",\"\",\"approach-retreat\",\"116\",\"867728\",\"0.0-116.0\",\"\",\"\",\"3-1\",\"5191\",\"40\",\"1\",\"Training\",\"Stims/Figures/139-C-20-2.bmp\",\"None\",\"Up\",\"40\",\"8\",\"1\",\"10\",\"N\",\"C\",\"113\"
\"\",\"\",\"approach-retreat\",\"117\",\"873896\",\"0.0-117.0\",\"\",\"\",\"3-1\",\"4662\",\"40\",\"1\",\"Training\",\"Stims/Figures/100-C-30-3.bmp\",\"None\",\"Up\",\"40\",\"8\",\"2\",\"10\",\"N\",\"C\",\"114\"
\"\",\"\",\"approach-retreat\",\"118\",\"880050\",\"0.0-118.0\",\"\",\"\",\"3-1\",\"4650\",\"37\",\"1\",\"Training\",\"Stims/Figures/84-C-20-2.bmp\",\"None\",\"Right\",\"37\",\"8\",\"3\",\"10\",\"N\",\"C\",\"115\"
\"\",\"\",\"approach-retreat\",\"119\",\"886197\",\"0.0-119.0\",\"\",\"\",\"3-1\",\"4643\",\"40\",\"1\",\"Training\",\"Stims/Figures/87-J-10-4.bmp\",\"None\",\"Down\",\"40\",\"8\",\"4\",\"10\",\"N\",\"C\",\"116\"
\"\",\"\",\"approach-retreat\",\"120\",\"892903\",\"0.0-120.0\",\"\",\"\",\"3-1\",\"5201\",\"38\",\"1\",\"Training\",\"Stims/Figures/27-C-30-1.bmp\",\"None\",\"Down\",\"38\",\"8\",\"5\",\"10\",\"N\",\"C\",\"117\"
\"\",\"\",\"approach-retreat\",\"121\",\"899042\",\"0.0-121.0\",\"\",\"\",\"3-1\",\"4635\",\"37\",\"1\",\"Training\",\"Stims/Figures/84-J-0-2.bmp\",\"None\",\"Left\",\"37\",\"8\",\"6\",\"10\",\"N\",\"C\",\"118\"
\"\",\"\",\"approach-retreat\",\"122\",\"905153\",\"0.0-122.0\",\"\",\"\",\"3-1\",\"4606\",\"40\",\"1\",\"Training\",\"Stims/Figures/102-J-10-4.bmp\",\"None\",\"Down\",\"40\",\"8\",\"7\",\"10\",\"N\",\"C\",\"119\"
\"\",\"\",\"approach-retreat\",\"123\",\"911632\",\"0.0-123.0\",\"\",\"\",\"3-1\",\"4975\",\"37\",\"0\",\"Training\",\"Stims/Figures/102-C-20-4.bmp\",\"None\",\"Left\",\"39\",\"8\",\"8\",\"10\",\"N\",\"C\",\"120\"
\"\",\"\",\"approach-retreat\",\"124\",\"919724\",\"0.0-124.0\",\"\",\"\",\"3-1\",\"6585\",\"37\",\"1\",\"Training\",\"Stims/Figures/87-C-20-4.bmp\",\"None\",\"Right\",\"37\",\"8\",\"9\",\"10\",\"N\",\"C\",\"121\"
\"\",\"\",\"approach-retreat\",\"125\",\"925763\",\"0.0-125.0\",\"\",\"\",\"3-1\",\"4533\",\"38\",\"1\",\"Training\",\"Stims/Figures/139-J-0-2.bmp\",\"None\",\"Up\",\"38\",\"8\",\"10\",\"10\",\"N\",\"C\",\"122\"
\"\",\"\",\"approach-retreat\",\"126\",\"932837\",\"0.0-126.0\",\"\",\"\",\"3-1\",\"5568\",\"38\",\"1\",\"Training\",\"Stims/Figures/27-J-0-1.bmp\",\"None\",\"Up\",\"38\",\"8\",\"11\",\"10\",\"N\",\"C\",\"123\"
\"\",\"\",\"approach-retreat\",\"127\",\"939630\",\"0.0-127.0\",\"\",\"\",\"3-1\",\"5288\",\"37\",\"1\",\"Training\",\"Stims/Figures/44-J-10-3.bmp\",\"None\",\"Left\",\"37\",\"8\",\"12\",\"10\",\"N\",\"C\",\"124\"
\"\",\"\",\"approach-retreat\",\"128\",\"945552\",\"0.0-128.0\",\"\",\"\",\"3-1\",\"4417\",\"37\",\"1\",\"Training\",\"Stims/Figures/100-J-10-3.bmp\",\"None\",\"Left\",\"37\",\"8\",\"13\",\"10\",\"N\",\"C\",\"125\"
\"\",\"\",\"approach-retreat\",\"129\",\"953520\",\"0.0-129.0\",\"\",\"\",\"3-1\",\"6464\",\"39\",\"1\",\"Training\",\"Stims/Figures/57-J-0-1.bmp\",\"None\",\"Right\",\"39\",\"8\",\"14\",\"10\",\"N\",\"C\",\"126\"
\"\",\"\",\"approach-retreat\",\"130\",\"960057\",\"0.0-130.0\",\"\",\"\",\"3-1\",\"5032\",\"37\",\"1\",\"Training\",\"Stims/Figures/44-C-30-3.bmp\",\"None\",\"Right\",\"37\",\"8\",\"15\",\"10\",\"N\",\"C\",\"127\"
\"\",\"\",\"approach-retreat\",\"131\",\"966327\",\"0.0-131.0\",\"\",\"\",\"3-1\",\"4763\",\"38\",\"1\",\"Training\",\"Stims/Figures/57-C-30-1.bmp\",\"None\",\"Down\",\"38\",\"8\",\"16\",\"10\",\"N\",\"C\",\"128\"
\"\",\"\",\"approach-retreat\",\"132\",\"973849\",\"0.0-132.0\",\"\",\"\",\"3-1\",\"6017\",\"40\",\"1\",\"Training\",\"Stims/Figures/44-C-30-3.bmp\",\"None\",\"Up\",\"40\",\"9\",\"1\",\"10\",\"N\",\"C\",\"129\"
\"\",\"\",\"approach-retreat\",\"133\",\"980945\",\"0.0-133.0\",\"\",\"\",\"3-1\",\"5589\",\"37\",\"1\",\"Training\",\"Stims/Figures/84-C-20-2.bmp\",\"None\",\"Right\",\"37\",\"9\",\"2\",\"10\",\"N\",\"C\",\"130\"
\"\",\"\",\"approach-retreat\",\"134\",\"987953\",\"0.0-134.0\",\"\",\"\",\"3-1\",\"5504\",\"37\",\"1\",\"Training\",\"Stims/Figures/102-J-10-4.bmp\",\"None\",\"Left\",\"37\",\"9\",\"3\",\"10\",\"N\",\"C\",\"131\"
\"\",\"\",\"approach-retreat\",\"135\",\"994265\",\"0.0-135.0\",\"\",\"\",\"3-1\",\"4807\",\"40\",\"1\",\"Training\",\"Stims/Figures/27-J-0-1.bmp\",\"None\",\"Down\",\"40\",\"9\",\"4\",\"10\",\"N\",\"C\",\"132\"
\"\",\"\",\"approach-retreat\",\"136\",\"999980\",\"0.0-136.0\",\"\",\"\",\"3-1\",\"4209\",\"38\",\"1\",\"Training\",\"Stims/Figures/100-J-10-3.bmp\",\"None\",\"Up\",\"38\",\"9\",\"5\",\"10\",\"N\",\"C\",\"133\"
\"\",\"\",\"approach-retreat\",\"137\",\"1006637\",\"0.0-137.0\",\"\",\"\",\"3-1\",\"5151\",\"40\",\"1\",\"Training\",\"Stims/Figures/44-J-10-3.bmp\",\"None\",\"Down\",\"40\",\"9\",\"6\",\"10\",\"N\",\"C\",\"134\"
\"\",\"\",\"approach-retreat\",\"138\",\"1012677\",\"0.0-138.0\",\"\",\"\",\"3-1\",\"4535\",\"39\",\"1\",\"Training\",\"Stims/Figures/139-J-0-2.bmp\",\"None\",\"Right\",\"39\",\"9\",\"7\",\"10\",\"N\",\"C\",\"135\"
\"\",\"\",\"approach-retreat\",\"139\",\"1018626\",\"0.0-139.0\",\"\",\"\",\"3-1\",\"4443\",\"38\",\"1\",\"Training\",\"Stims/Figures/57-C-30-1.bmp\",\"None\",\"Down\",\"38\",\"9\",\"8\",\"10\",\"N\",\"C\",\"136\"
\"\",\"\",\"approach-retreat\",\"140\",\"1024399\",\"0.0-140.0\",\"\",\"\",\"3-1\",\"4268\",\"40\",\"1\",\"Training\",\"Stims/Figures/57-J-0-1.bmp\",\"None\",\"Down\",\"40\",\"9\",\"9\",\"10\",\"N\",\"C\",\"137\"
\"\",\"\",\"approach-retreat\",\"141\",\"1032130\",\"0.0-141.0\",\"\",\"\",\"3-1\",\"6224\",\"39\",\"0\",\"Training\",\"Stims/Figures/139-C-20-2.bmp\",\"None\",\"Right\",\"37\",\"9\",\"10\",\"10\",\"N\",\"C\",\"138\"
\"\",\"\",\"approach-retreat\",\"142\",\"1037632\",\"0.0-142.0\",\"\",\"\",\"3-1\",\"3997\",\"37\",\"1\",\"Training\",\"Stims/Figures/100-C-30-3.bmp\",\"None\",\"Right\",\"37\",\"9\",\"11\",\"10\",\"N\",\"C\",\"139\"
\"\",\"\",\"approach-retreat\",\"143\",\"1044718\",\"0.0-143.0\",\"\",\"\",\"3-1\",\"5580\",\"40\",\"1\",\"Training\",\"Stims/Figures/27-C-30-1.bmp\",\"None\",\"Up\",\"40\",\"9\",\"12\",\"10\",\"N\",\"C\",\"140\"
\"\",\"\",\"approach-retreat\",\"144\",\"1050934\",\"0.0-144.0\",\"\",\"\",\"3-1\",\"4710\",\"40\",\"1\",\"Training\",\"Stims/Figures/87-C-20-4.bmp\",\"None\",\"Up\",\"40\",\"9\",\"13\",\"10\",\"N\",\"C\",\"141\"
\"\",\"\",\"approach-retreat\",\"145\",\"1057067\",\"0.0-145.0\",\"\",\"\",\"3-1\",\"4628\",\"39\",\"1\",\"Training\",\"Stims/Figures/102-C-20-4.bmp\",\"None\",\"Left\",\"39\",\"9\",\"14\",\"10\",\"N\",\"C\",\"142\"
\"\",\"\",\"approach-retreat\",\"146\",\"1062637\",\"0.0-146.0\",\"\",\"\",\"3-1\",\"4066\",\"37\",\"1\",\"Training\",\"Stims/Figures/87-J-10-4.bmp\",\"None\",\"Left\",\"37\",\"9\",\"15\",\"10\",\"N\",\"C\",\"143\"
\"\",\"\",\"approach-retreat\",\"147\",\"1068585\",\"0.0-147.0\",\"\",\"\",\"3-1\",\"4441\",\"37\",\"1\",\"Training\",\"Stims/Figures/84-J-0-2.bmp\",\"None\",\"Left\",\"37\",\"9\",\"16\",\"10\",\"N\",\"C\",\"144\"
\"13266\",\"\",\"instructions\",\"148\",\"1081851\",\"0.0-148.0\",\"[{\"\"page_index\"\":0,\"\"viewing_time\"\":13266}]\",\"\",\"\",\"\",\"\",\"\",\"\",\"\",\"\",\"\",\"\",\"\",\"\",\"\",\"\",\"\",\"\"
\"\",\"\",\"approach-retreat\",\"149\",\"1087747\",\"0.0-149.0\",\"\",\"\",\"3-1\",\"4393\",\"37\",\"1\",\"Testing\",\"Stims/Figures/84-J-0-2.bmp\",\"None\",\"Left\",\"37\",\"1\",\"1\",\"10\",\"N\",\"C\",\"1\"
\"\",\"\",\"approach-retreat\",\"150\",\"1094760\",\"0.0-150.0\",\"\",\"\",\"3-1\",\"5507\",\"40\",\"1\",\"Testing\",\"Stims/Figures/84-C-20-2.bmp\",\"None\",\"Up\",\"40\",\"1\",\"2\",\"10\",\"N\",\"C\",\"2\"
\"\",\"\",\"approach-retreat\",\"151\",\"1100616\",\"0.0-151.0\",\"\",\"\",\"3-1\",\"4350\",\"39\",\"1\",\"Testing\",\"Stims/Figures/87-J-10-4.bmp\",\"None\",\"Right\",\"39\",\"1\",\"3\",\"10\",\"N\",\"C\",\"3\"
\"\",\"\",\"approach-retreat\",\"152\",\"1108179\",\"0.0-152.0\",\"\",\"\",\"3-1\",\"6058\",\"37\",\"1\",\"Testing\",\"Stims/Figures/102-J-10-4.bmp\",\"None\",\"Left\",\"37\",\"1\",\"4\",\"10\",\"N\",\"C\",\"4\"
\"\",\"\",\"approach-retreat\",\"153\",\"1114038\",\"0.0-153.0\",\"\",\"\",\"3-1\",\"4354\",\"40\",\"1\",\"Testing\",\"Stims/Figures/128-C-30-3.bmp\",\"None\",\"Up\",\"40\",\"1\",\"5\",\"10\",\"N\",\"C\",\"5\"
\"\",\"\",\"approach-retreat\",\"154\",\"1121669\",\"0.0-154.0\",\"\",\"\",\"3-1\",\"6126\",\"40\",\"0\",\"Testing\",\"Stims/Figures/7-C-20-4.bmp\",\"None\",\"Down\",\"38\",\"1\",\"6\",\"10\",\"N\",\"C\",\"6\"
\"\",\"\",\"approach-retreat\",\"155\",\"1128925\",\"0.0-155.0\",\"\",\"\",\"3-1\",\"5750\",\"39\",\"1\",\"Testing\",\"Stims/Figures/100-J-10-3.bmp\",\"None\",\"Right\",\"39\",\"1\",\"7\",\"10\",\"N\",\"C\",\"7\"
\"\",\"\",\"approach-retreat\",\"156\",\"1139296\",\"0.0-156.0\",\"\",\"\",\"3-1\",\"8866\",\"37\",\"1\",\"Testing\",\"Stims/Figures/102-C-20-4.bmp\",\"None\",\"Right\",\"37\",\"1\",\"8\",\"10\",\"N\",\"C\",\"8\"
\"\",\"\",\"approach-retreat\",\"157\",\"1146314\",\"0.0-157.0\",\"\",\"\",\"3-1\",\"5513\",\"38\",\"1\",\"Testing\",\"Stims/Figures/139-C-20-2.bmp\",\"None\",\"Down\",\"38\",\"1\",\"9\",\"10\",\"N\",\"C\",\"9\"
\"\",\"\",\"approach-retreat\",\"158\",\"1153255\",\"0.0-158.0\",\"\",\"\",\"3-1\",\"5435\",\"37\",\"1\",\"Testing\",\"Stims/Figures/57-C-30-1.bmp\",\"None\",\"Right\",\"37\",\"1\",\"10\",\"10\",\"N\",\"C\",\"10\"
\"\",\"\",\"approach-retreat\",\"159\",\"1160339\",\"0.0-159.0\",\"\",\"\",\"3-1\",\"5578\",\"40\",\"1\",\"Testing\",\"Stims/Figures/27-C-30-1.bmp\",\"None\",\"Up\",\"40\",\"1\",\"11\",\"10\",\"N\",\"C\",\"11\"
\"\",\"\",\"approach-retreat\",\"160\",\"1168358\",\"0.0-160.0\",\"\",\"\",\"3-1\",\"6514\",\"37\",\"1\",\"Testing\",\"Stims/Figures/100-C-30-3.bmp\",\"None\",\"Right\",\"37\",\"1\",\"12\",\"10\",\"N\",\"C\",\"12\"
\"\",\"\",\"approach-retreat\",\"161\",\"1174173\",\"0.0-161.0\",\"\",\"\",\"3-1\",\"4311\",\"40\",\"1\",\"Testing\",\"Stims/Figures/128-J-10-3.bmp\",\"None\",\"Down\",\"40\",\"1\",\"13\",\"10\",\"N\",\"C\",\"13\"
\"\",\"\",\"approach-retreat\",\"162\",\"1180095\",\"0.0-162.0\",\"\",\"\",\"3-1\",\"4416\",\"40\",\"1\",\"Testing\",\"Stims/Figures/27-J-0-1.bmp\",\"None\",\"Down\",\"40\",\"1\",\"14\",\"10\",\"N\",\"C\",\"14\"
\"\",\"\",\"approach-retreat\",\"163\",\"1186274\",\"0.0-163.0\",\"\",\"\",\"3-1\",\"4677\",\"39\",\"1\",\"Testing\",\"Stims/Figures/44-C-30-3.bmp\",\"None\",\"Left\",\"39\",\"1\",\"15\",\"10\",\"N\",\"C\",\"15\"
\"\",\"\",\"approach-retreat\",\"164\",\"1195733\",\"0.0-164.0\",\"\",\"\",\"3-1\",\"7953\",\"40\",\"1\",\"Testing\",\"Stims/Figures/87-C-20-4.bmp\",\"None\",\"Up\",\"40\",\"1\",\"16\",\"10\",\"N\",\"C\",\"16\"
\"\",\"\",\"approach-retreat\",\"165\",\"1202140\",\"0.0-165.0\",\"\",\"\",\"3-1\",\"4904\",\"40\",\"1\",\"Testing\",\"Stims/Figures/7-J-10-4.bmp\",\"None\",\"Down\",\"40\",\"1\",\"17\",\"10\",\"N\",\"C\",\"17\"
\"\",\"\",\"approach-retreat\",\"166\",\"1207965\",\"0.0-166.0\",\"\",\"\",\"3-1\",\"4321\",\"37\",\"1\",\"Testing\",\"Stims/Figures/139-J-0-2.bmp\",\"None\",\"Left\",\"37\",\"1\",\"18\",\"10\",\"N\",\"C\",\"18\"
\"\",\"\",\"approach-retreat\",\"167\",\"1214735\",\"0.0-167.0\",\"\",\"\",\"3-1\",\"5266\",\"39\",\"1\",\"Testing\",\"Stims/Figures/118-J-0-2.bmp\",\"None\",\"Right\",\"39\",\"1\",\"19\",\"10\",\"N\",\"C\",\"19\"
\"\",\"\",\"approach-retreat\",\"168\",\"1219750\",\"0.0-168.0\",\"\",\"\",\"3-1\",\"3509\",\"39\",\"0\",\"Testing\",\"Stims/Figures/93-J-0-1.bmp\",\"None\",\"Left\",\"37\",\"1\",\"20\",\"10\",\"N\",\"C\",\"20\"
\"\",\"\",\"approach-retreat\",\"169\",\"1225552\",\"0.0-169.0\",\"\",\"\",\"3-1\",\"4297\",\"40\",\"1\",\"Testing\",\"Stims/Figures/93-C-30-1.bmp\",\"None\",\"Up\",\"40\",\"1\",\"21\",\"10\",\"N\",\"C\",\"21\"
\"\",\"\",\"approach-retreat\",\"170\",\"1234957\",\"0.0-170.0\",\"\",\"\",\"3-1\",\"7899\",\"38\",\"0\",\"Testing\",\"Stims/Figures/118-C-20-2.bmp\",\"None\",\"Up\",\"40\",\"1\",\"22\",\"10\",\"N\",\"C\",\"22\"
\"\",\"\",\"approach-retreat\",\"171\",\"1240664\",\"0.0-171.0\",\"\",\"\",\"3-1\",\"4203\",\"37\",\"1\",\"Testing\",\"Stims/Figures/44-J-10-3.bmp\",\"None\",\"Left\",\"37\",\"1\",\"23\",\"10\",\"N\",\"C\",\"23\"
\"\",\"\",\"approach-retreat\",\"172\",\"1250209\",\"0.0-172.0\",\"\",\"\",\"3-1\",\"8040\",\"40\",\"1\",\"Testing\",\"Stims/Figures/57-J-0-1.bmp\",\"None\",\"Down\",\"40\",\"1\",\"24\",\"10\",\"N\",\"C\",\"24\"
\"\",\"\",\"approach-retreat\",\"173\",\"1257570\",\"0.0-173.0\",\"\",\"\",\"3-1\",\"5856\",\"40\",\"1\",\"Testing\",\"Stims/Figures/128-J-10-3.bmp\",\"None\",\"Down\",\"40\",\"2\",\"1\",\"10\",\"N\",\"C\",\"25\"
\"\",\"\",\"approach-retreat\",\"174\",\"1265284\",\"0.0-174.0\",\"\",\"\",\"3-1\",\"6208\",\"38\",\"1\",\"Testing\",\"Stims/Figures/27-C-30-1.bmp\",\"None\",\"Down\",\"38\",\"2\",\"2\",\"10\",\"N\",\"C\",\"26\"
\"\",\"\",\"approach-retreat\",\"175\",\"1276173\",\"0.0-175.0\",\"\",\"\",\"3-1\",\"9385\",\"37\",\"1\",\"Testing\",\"Stims/Figures/102-J-10-4.bmp\",\"None\",\"Left\",\"37\",\"2\",\"3\",\"10\",\"N\",\"C\",\"27\"
\"\",\"\",\"approach-retreat\",\"176\",\"1284096\",\"0.0-176.0\",\"\",\"\",\"3-1\",\"6418\",\"38\",\"0\",\"Testing\",\"Stims/Figures/44-C-30-3.bmp\",\"None\",\"Up\",\"40\",\"2\",\"4\",\"10\",\"N\",\"C\",\"28\"
\"\",\"\",\"approach-retreat\",\"177\",\"1290343\",\"0.0-177.0\",\"\",\"\",\"3-1\",\"4742\",\"40\",\"1\",\"Testing\",\"Stims/Figures/100-C-30-3.bmp\",\"None\",\"Up\",\"40\",\"2\",\"5\",\"10\",\"N\",\"C\",\"29\"
\"\",\"\",\"approach-retreat\",\"178\",\"1297078\",\"0.0-178.0\",\"\",\"\",\"3-1\",\"5229\",\"38\",\"0\",\"Testing\",\"Stims/Figures/118-C-20-2.bmp\",\"None\",\"Up\",\"40\",\"2\",\"6\",\"10\",\"N\",\"C\",\"30\"
\"\",\"\",\"approach-retreat\",\"179\",\"1303797\",\"0.0-179.0\",\"\",\"\",\"3-1\",\"5214\",\"39\",\"0\",\"Testing\",\"Stims/Figures/7-C-20-4.bmp\",\"None\",\"Right\",\"37\",\"2\",\"7\",\"10\",\"N\",\"C\",\"31\"
\"\",\"\",\"approach-retreat\",\"180\",\"1310073\",\"0.0-180.0\",\"\",\"\",\"3-1\",\"4772\",\"39\",\"1\",\"Testing\",\"Stims/Figures/84-C-20-2.bmp\",\"None\",\"Left\",\"39\",\"2\",\"8\",\"10\",\"N\",\"C\",\"32\"
\"\",\"\",\"approach-retreat\",\"181\",\"1317891\",\"0.0-181.0\",\"\",\"\",\"3-1\",\"6312\",\"39\",\"1\",\"Testing\",\"Stims/Figures/93-C-30-1.bmp\",\"None\",\"Left\",\"39\",\"2\",\"9\",\"10\",\"N\",\"C\",\"33\"
\"\",\"\",\"approach-retreat\",\"182\",\"1323554\",\"0.0-182.0\",\"\",\"\",\"3-1\",\"4158\",\"37\",\"1\",\"Testing\",\"Stims/Figures/57-C-30-1.bmp\",\"None\",\"Right\",\"37\",\"2\",\"10\",\"10\",\"N\",\"C\",\"34\"
\"\",\"\",\"approach-retreat\",\"183\",\"1329899\",\"0.0-183.0\",\"\",\"\",\"3-1\",\"4841\",\"39\",\"1\",\"Testing\",\"Stims/Figures/84-J-0-2.bmp\",\"None\",\"Right\",\"39\",\"2\",\"11\",\"10\",\"N\",\"C\",\"35\"
\"\",\"\",\"approach-retreat\",\"184\",\"1335952\",\"0.0-184.0\",\"\",\"\",\"3-1\",\"4548\",\"38\",\"1\",\"Testing\",\"Stims/Figures/100-J-10-3.bmp\",\"None\",\"Up\",\"38\",\"2\",\"12\",\"10\",\"N\",\"C\",\"36\"
\"\",\"\",\"approach-retreat\",\"185\",\"1344001\",\"0.0-185.0\",\"\",\"\",\"3-1\",\"6544\",\"40\",\"0\",\"Testing\",\"Stims/Figures/139-C-20-2.bmp\",\"None\",\"Down\",\"38\",\"2\",\"13\",\"10\",\"N\",\"C\",\"37\"
\"\",\"\",\"approach-retreat\",\"186\",\"1351695\",\"0.0-186.0\",\"\",\"\",\"3-1\",\"6189\",\"37\",\"1\",\"Testing\",\"Stims/Figures/87-C-20-4.bmp\",\"None\",\"Right\",\"37\",\"2\",\"14\",\"10\",\"N\",\"C\",\"38\"
\"\",\"\",\"approach-retreat\",\"187\",\"1358089\",\"0.0-187.0\",\"\",\"\",\"3-1\",\"4888\",\"40\",\"1\",\"Testing\",\"Stims/Figures/7-J-10-4.bmp\",\"None\",\"Down\",\"40\",\"2\",\"15\",\"10\",\"N\",\"C\",\"39\"
\"\",\"\",\"approach-retreat\",\"188\",\"1364240\",\"0.0-188.0\",\"\",\"\",\"3-1\",\"4646\",\"39\",\"1\",\"Testing\",\"Stims/Figures/44-J-10-3.bmp\",\"None\",\"Right\",\"39\",\"2\",\"16\",\"10\",\"N\",\"C\",\"40\"
\"\",\"\",\"approach-retreat\",\"189\",\"1370791\",\"0.0-189.0\",\"\",\"\",\"3-1\",\"5045\",\"37\",\"1\",\"Testing\",\"Stims/Figures/57-J-0-1.bmp\",\"None\",\"Left\",\"37\",\"2\",\"17\",\"10\",\"N\",\"C\",\"41\"
\"\",\"\",\"approach-retreat\",\"190\",\"1376815\",\"0.0-190.0\",\"\",\"\",\"3-1\",\"4518\",\"37\",\"1\",\"Testing\",\"Stims/Figures/27-J-0-1.bmp\",\"None\",\"Left\",\"37\",\"2\",\"18\",\"10\",\"N\",\"C\",\"42\"
\"\",\"\",\"approach-retreat\",\"191\",\"1385285\",\"0.0-191.0\",\"\",\"\",\"3-1\",\"6964\",\"40\",\"1\",\"Testing\",\"Stims/Figures/87-J-10-4.bmp\",\"None\",\"Down\",\"40\",\"2\",\"19\",\"10\",\"N\",\"C\",\"43\"
\"\",\"\",\"approach-retreat\",\"192\",\"1391807\",\"0.0-192.0\",\"\",\"\",\"3-1\",\"5018\",\"38\",\"1\",\"Testing\",\"Stims/Figures/93-J-0-1.bmp\",\"None\",\"Up\",\"38\",\"2\",\"20\",\"10\",\"N\",\"C\",\"44\"
\"\",\"\",\"approach-retreat\",\"193\",\"1397534\",\"0.0-193.0\",\"\",\"\",\"3-1\",\"4222\",\"37\",\"1\",\"Testing\",\"Stims/Figures/118-J-0-2.bmp\",\"None\",\"Left\",\"37\",\"2\",\"21\",\"10\",\"N\",\"C\",\"45\"
\"\",\"\",\"approach-retreat\",\"194\",\"1403863\",\"0.0-194.0\",\"\",\"\",\"3-1\",\"4825\",\"39\",\"1\",\"Testing\",\"Stims/Figures/139-J-0-2.bmp\",\"None\",\"Right\",\"39\",\"2\",\"22\",\"10\",\"N\",\"C\",\"46\"
\"\",\"\",\"approach-retreat\",\"195\",\"1409420\",\"0.0-195.0\",\"\",\"\",\"3-1\",\"4050\",\"40\",\"1\",\"Testing\",\"Stims/Figures/128-C-30-3.bmp\",\"None\",\"Up\",\"40\",\"2\",\"23\",\"10\",\"N\",\"C\",\"47\"
\"\",\"\",\"approach-retreat\",\"196\",\"1415026\",\"0.0-196.0\",\"\",\"\",\"3-1\",\"4101\",\"38\",\"1\",\"Testing\",\"Stims/Figures/102-C-20-4.bmp\",\"None\",\"Down\",\"38\",\"2\",\"24\",\"10\",\"N\",\"C\",\"48\"
\"\",\"\",\"approach-retreat\",\"197\",\"1420765\",\"0.0-197.0\",\"\",\"\",\"3-1\",\"4234\",\"40\",\"1\",\"Testing\",\"Stims/Figures/93-C-30-1.bmp\",\"None\",\"Up\",\"40\",\"3\",\"1\",\"10\",\"N\",\"C\",\"49\"
\"\",\"\",\"approach-retreat\",\"198\",\"1427191\",\"0.0-198.0\",\"\",\"\",\"3-1\",\"4921\",\"40\",\"1\",\"Testing\",\"Stims/Figures/57-J-0-1.bmp\",\"None\",\"Down\",\"40\",\"3\",\"2\",\"10\",\"N\",\"C\",\"50\"
\"\",\"\",\"approach-retreat\",\"199\",\"1432933\",\"0.0-199.0\",\"\",\"\",\"3-1\",\"4237\",\"37\",\"1\",\"Testing\",\"Stims/Figures/87-C-20-4.bmp\",\"None\",\"Right\",\"37\",\"3\",\"3\",\"10\",\"N\",\"C\",\"51\"
\"\",\"\",\"approach-retreat\",\"200\",\"1441205\",\"0.0-200.0\",\"\",\"\",\"3-1\",\"6767\",\"38\",\"1\",\"Testing\",\"Stims/Figures/139-C-20-2.bmp\",\"None\",\"Down\",\"38\",\"3\",\"4\",\"10\",\"N\",\"C\",\"52\"
\"\",\"\",\"approach-retreat\",\"201\",\"1447385\",\"0.0-201.0\",\"\",\"\",\"3-1\",\"4675\",\"39\",\"1\",\"Testing\",\"Stims/Figures/139-J-0-2.bmp\",\"None\",\"Right\",\"39\",\"3\",\"5\",\"10\",\"N\",\"C\",\"53\"
\"\",\"\",\"approach-retreat\",\"202\",\"1461975\",\"0.0-202.0\",\"\",\"\",\"3-1\",\"13086\",\"39\",\"1\",\"Testing\",\"Stims/Figures/87-J-10-4.bmp\",\"None\",\"Right\",\"39\",\"3\",\"6\",\"10\",\"N\",\"C\",\"54\"
\"\",\"\",\"approach-retreat\",\"203\",\"1469167\",\"0.0-203.0\",\"\",\"\",\"3-1\",\"5686\",\"39\",\"1\",\"Testing\",\"Stims/Figures/27-C-30-1.bmp\",\"None\",\"Left\",\"39\",\"3\",\"7\",\"10\",\"N\",\"C\",\"55\"
\"\",\"\",\"approach-retreat\",\"204\",\"1474995\",\"0.0-204.0\",\"\",\"\",\"3-1\",\"4323\",\"37\",\"1\",\"Testing\",\"Stims/Figures/118-J-0-2.bmp\",\"None\",\"Left\",\"37\",\"3\",\"8\",\"10\",\"N\",\"C\",\"56\"
\"\",\"\",\"approach-retreat\",\"205\",\"1480794\",\"0.0-205.0\",\"\",\"\",\"3-1\",\"4294\",\"39\",\"1\",\"Testing\",\"Stims/Figures/7-C-20-4.bmp\",\"None\",\"Left\",\"39\",\"3\",\"9\",\"10\",\"N\",\"C\",\"57\"
\"\",\"\",\"approach-retreat\",\"206\",\"1486764\",\"0.0-206.0\",\"\",\"\",\"3-1\",\"4466\",\"40\",\"1\",\"Testing\",\"Stims/Figures/118-C-20-2.bmp\",\"None\",\"Up\",\"40\",\"3\",\"10\",\"10\",\"N\",\"C\",\"58\"
\"\",\"\",\"approach-retreat\",\"207\",\"1492504\",\"0.0-207.0\",\"\",\"\",\"3-1\",\"4235\",\"37\",\"1\",\"Testing\",\"Stims/Figures/93-J-0-1.bmp\",\"None\",\"Left\",\"37\",\"3\",\"11\",\"10\",\"N\",\"C\",\"59\"
\"\",\"\",\"approach-retreat\",\"208\",\"1499703\",\"0.0-208.0\",\"\",\"\",\"3-1\",\"5695\",\"38\",\"1\",\"Testing\",\"Stims/Figures/84-J-0-2.bmp\",\"None\",\"Up\",\"38\",\"3\",\"12\",\"10\",\"N\",\"C\",\"60\"
\"\",\"\",\"approach-retreat\",\"209\",\"1507247\",\"0.0-209.0\",\"\",\"\",\"3-1\",\"6039\",\"40\",\"1\",\"Testing\",\"Stims/Figures/102-C-20-4.bmp\",\"None\",\"Up\",\"40\",\"3\",\"13\",\"10\",\"N\",\"C\",\"61\"
\"\",\"\",\"approach-retreat\",\"210\",\"1513856\",\"0.0-210.0\",\"\",\"\",\"3-1\",\"5104\",\"37\",\"1\",\"Testing\",\"Stims/Figures/84-C-20-2.bmp\",\"None\",\"Right\",\"37\",\"3\",\"14\",\"10\",\"N\",\"C\",\"62\"
\"\",\"\",\"approach-retreat\",\"211\",\"1520596\",\"0.0-211.0\",\"\",\"\",\"3-1\",\"5236\",\"38\",\"1\",\"Testing\",\"Stims/Figures/27-J-0-1.bmp\",\"None\",\"Up\",\"38\",\"3\",\"15\",\"10\",\"N\",\"C\",\"63\"
\"\",\"\",\"approach-retreat\",\"212\",\"1526546\",\"0.0-212.0\",\"\",\"\",\"3-1\",\"4445\",\"38\",\"1\",\"Testing\",\"Stims/Figures/100-C-30-3.bmp\",\"None\",\"Down\",\"38\",\"3\",\"16\",\"10\",\"N\",\"C\",\"64\"
\"\",\"\",\"approach-retreat\",\"213\",\"1533354\",\"0.0-213.0\",\"\",\"\",\"3-1\",\"5304\",\"38\",\"1\",\"Testing\",\"Stims/Figures/128-J-10-3.bmp\",\"None\",\"Up\",\"38\",\"3\",\"17\",\"10\",\"N\",\"C\",\"65\"
\"\",\"\",\"approach-retreat\",\"214\",\"1539097\",\"0.0-214.0\",\"\",\"\",\"3-1\",\"4238\",\"39\",\"1\",\"Testing\",\"Stims/Figures/7-J-10-4.bmp\",\"None\",\"Right\",\"39\",\"3\",\"18\",\"10\",\"N\",\"C\",\"66\"
\"\",\"\",\"approach-retreat\",\"215\",\"1545799\",\"0.0-215.0\",\"\",\"\",\"3-1\",\"5197\",\"40\",\"1\",\"Testing\",\"Stims/Figures/102-J-10-4.bmp\",\"None\",\"Down\",\"40\",\"3\",\"19\",\"10\",\"N\",\"C\",\"67\"
\"\",\"\",\"approach-retreat\",\"216\",\"1551924\",\"0.0-216.0\",\"\",\"\",\"3-1\",\"4620\",\"39\",\"1\",\"Testing\",\"Stims/Figures/44-J-10-3.bmp\",\"None\",\"Right\",\"39\",\"3\",\"20\",\"10\",\"N\",\"C\",\"68\"
\"\",\"\",\"approach-retreat\",\"217\",\"1559235\",\"0.0-217.0\",\"\",\"\",\"3-1\",\"5806\",\"39\",\"1\",\"Testing\",\"Stims/Figures/44-C-30-3.bmp\",\"None\",\"Left\",\"39\",\"3\",\"21\",\"10\",\"N\",\"C\",\"69\"
\"\",\"\",\"approach-retreat\",\"218\",\"1566351\",\"0.0-218.0\",\"\",\"\",\"3-1\",\"5612\",\"37\",\"1\",\"Testing\",\"Stims/Figures/100-J-10-3.bmp\",\"None\",\"Left\",\"37\",\"3\",\"22\",\"10\",\"N\",\"C\",\"70\"
\"\",\"\",\"approach-retreat\",\"219\",\"1572878\",\"0.0-219.0\",\"\",\"\",\"3-1\",\"5021\",\"40\",\"0\",\"Testing\",\"Stims/Figures/128-C-30-3.bmp\",\"None\",\"Down\",\"38\",\"3\",\"23\",\"10\",\"N\",\"C\",\"71\"
\"\",\"\",\"approach-retreat\",\"220\",\"1580535\",\"0.0-220.0\",\"\",\"\",\"3-1\",\"6151\",\"38\",\"1\",\"Testing\",\"Stims/Figures/57-C-30-1.bmp\",\"None\",\"Down\",\"38\",\"3\",\"24\",\"10\",\"N\",\"C\",\"72\"
\"\",\"\",\"approach-retreat\",\"221\",\"1586577\",\"0.0-221.0\",\"\",\"\",\"3-1\",\"4536\",\"39\",\"1\",\"Testing\",\"Stims/Figures/100-C-30-3.bmp\",\"None\",\"Left\",\"39\",\"4\",\"1\",\"10\",\"N\",\"C\",\"73\"
\"\",\"\",\"approach-retreat\",\"222\",\"1594874\",\"0.0-222.0\",\"\",\"\",\"3-1\",\"6793\",\"40\",\"1\",\"Testing\",\"Stims/Figures/7-C-20-4.bmp\",\"None\",\"Up\",\"40\",\"4\",\"2\",\"10\",\"N\",\"C\",\"74\"
\"\",\"\",\"approach-retreat\",\"223\",\"1602232\",\"0.0-223.0\",\"\",\"\",\"3-1\",\"5853\",\"37\",\"1\",\"Testing\",\"Stims/Figures/57-C-30-1.bmp\",\"None\",\"Right\",\"37\",\"4\",\"3\",\"10\",\"N\",\"C\",\"75\"
\"\",\"\",\"approach-retreat\",\"224\",\"1608146\",\"0.0-224.0\",\"\",\"\",\"3-1\",\"4408\",\"39\",\"1\",\"Testing\",\"Stims/Figures/102-C-20-4.bmp\",\"None\",\"Left\",\"39\",\"4\",\"4\",\"10\",\"N\",\"C\",\"76\"
\"\",\"\",\"approach-retreat\",\"225\",\"1617496\",\"0.0-225.0\",\"\",\"\",\"3-1\",\"7845\",\"39\",\"1\",\"Testing\",\"Stims/Figures/100-J-10-3.bmp\",\"None\",\"Right\",\"39\",\"4\",\"5\",\"10\",\"N\",\"C\",\"77\"
\"\",\"\",\"approach-retreat\",\"226\",\"1623887\",\"0.0-226.0\",\"\",\"\",\"3-1\",\"4886\",\"38\",\"0\",\"Testing\",\"Stims/Figures/84-C-20-2.bmp\",\"None\",\"Up\",\"40\",\"4\",\"6\",\"10\",\"N\",\"C\",\"78\"
\"\",\"\",\"approach-retreat\",\"227\",\"1629779\",\"0.0-227.0\",\"\",\"\",\"3-1\",\"4388\",\"40\",\"1\",\"Testing\",\"Stims/Figures/44-C-30-3.bmp\",\"None\",\"Up\",\"40\",\"4\",\"7\",\"10\",\"N\",\"C\",\"79\"
\"\",\"\",\"approach-retreat\",\"228\",\"1636583\",\"0.0-228.0\",\"\",\"\",\"3-1\",\"5298\",\"38\",\"1\",\"Testing\",\"Stims/Figures/87-J-10-4.bmp\",\"None\",\"Up\",\"38\",\"4\",\"8\",\"10\",\"N\",\"C\",\"80\"
\"\",\"\",\"approach-retreat\",\"229\",\"1642664\",\"0.0-229.0\",\"\",\"\",\"3-1\",\"4575\",\"37\",\"1\",\"Testing\",\"Stims/Figures/102-J-10-4.bmp\",\"None\",\"Left\",\"37\",\"4\",\"9\",\"10\",\"N\",\"C\",\"81\"
\"\",\"\",\"approach-retreat\",\"230\",\"1649426\",\"0.0-230.0\",\"\",\"\",\"3-1\",\"5254\",\"39\",\"1\",\"Testing\",\"Stims/Figures/118-J-0-2.bmp\",\"None\",\"Right\",\"39\",\"4\",\"10\",\"10\",\"N\",\"C\",\"82\"
\"\",\"\",\"approach-retreat\",\"231\",\"1657043\",\"0.0-231.0\",\"\",\"\",\"3-1\",\"6113\",\"40\",\"1\",\"Testing\",\"Stims/Figures/44-J-10-3.bmp\",\"None\",\"Down\",\"40\",\"4\",\"11\",\"10\",\"N\",\"C\",\"83\"
\"\",\"\",\"approach-retreat\",\"232\",\"1665461\",\"0.0-232.0\",\"\",\"\",\"3-1\",\"6913\",\"39\",\"1\",\"Testing\",\"Stims/Figures/84-J-0-2.bmp\",\"None\",\"Right\",\"39\",\"4\",\"12\",\"10\",\"N\",\"C\",\"84\"
\"\",\"\",\"approach-retreat\",\"233\",\"1677000\",\"0.0-233.0\",\"\",\"\",\"3-1\",\"10036\",\"40\",\"0\",\"Testing\",\"Stims/Figures/139-C-20-2.bmp\",\"None\",\"Down\",\"38\",\"4\",\"13\",\"10\",\"N\",\"C\",\"85\"
\"\",\"\",\"approach-retreat\",\"234\",\"1682841\",\"0.0-234.0\",\"\",\"\",\"3-1\",\"4336\",\"39\",\"1\",\"Testing\",\"Stims/Figures/128-C-30-3.bmp\",\"None\",\"Left\",\"39\",\"4\",\"14\",\"10\",\"N\",\"C\",\"86\"
\"\",\"\",\"approach-retreat\",\"235\",\"1698037\",\"0.0-235.0\",\"\",\"\",\"3-1\",\"13691\",\"40\",\"1\",\"Testing\",\"Stims/Figures/93-J-0-1.bmp\",\"None\",\"Down\",\"40\",\"4\",\"15\",\"10\",\"N\",\"C\",\"87\"
\"\",\"\",\"approach-retreat\",\"236\",\"1703762\",\"0.0-236.0\",\"\",\"\",\"3-1\",\"4220\",\"39\",\"1\",\"Testing\",\"Stims/Figures/57-J-0-1.bmp\",\"None\",\"Right\",\"39\",\"4\",\"16\",\"10\",\"N\",\"C\",\"88\"
\"\",\"\",\"approach-retreat\",\"237\",\"1709943\",\"0.0-237.0\",\"\",\"\",\"3-1\",\"4675\",\"40\",\"1\",\"Testing\",\"Stims/Figures/93-C-30-1.bmp\",\"None\",\"Up\",\"40\",\"4\",\"17\",\"10\",\"N\",\"C\",\"89\"
\"\",\"\",\"approach-retreat\",\"238\",\"1715697\",\"0.0-238.0\",\"\",\"\",\"3-1\",\"4250\",\"38\",\"1\",\"Testing\",\"Stims/Figures/87-C-20-4.bmp\",\"None\",\"Down\",\"38\",\"4\",\"18\",\"10\",\"N\",\"C\",\"90\"
\"\",\"\",\"approach-retreat\",\"239\",\"1722711\",\"0.0-239.0\",\"\",\"\",\"3-1\",\"5509\",\"40\",\"1\",\"Testing\",\"Stims/Figures/128-J-10-3.bmp\",\"None\",\"Down\",\"40\",\"4\",\"19\",\"10\",\"N\",\"C\",\"91\"
\"\",\"\",\"approach-retreat\",\"240\",\"1730022\",\"0.0-240.0\",\"\",\"\",\"3-1\",\"5806\",\"40\",\"1\",\"Testing\",\"Stims/Figures/139-J-0-2.bmp\",\"None\",\"Down\",\"40\",\"4\",\"20\",\"10\",\"N\",\"C\",\"92\"
\"\",\"\",\"approach-retreat\",\"241\",\"1737449\",\"0.0-241.0\",\"\",\"\",\"3-1\",\"5922\",\"37\",\"1\",\"Testing\",\"Stims/Figures/7-J-10-4.bmp\",\"None\",\"Left\",\"37\",\"4\",\"21\",\"10\",\"N\",\"C\",\"93\"
\"\",\"\",\"approach-retreat\",\"242\",\"1743651\",\"0.0-242.0\",\"\",\"\",\"3-1\",\"4698\",\"38\",\"1\",\"Testing\",\"Stims/Figures/27-J-0-1.bmp\",\"None\",\"Up\",\"38\",\"4\",\"22\",\"10\",\"N\",\"C\",\"94\"
\"\",\"\",\"approach-retreat\",\"243\",\"1749654\",\"0.0-243.0\",\"\",\"\",\"3-1\",\"4499\",\"37\",\"1\",\"Testing\",\"Stims/Figures/118-C-20-2.bmp\",\"None\",\"Right\",\"37\",\"4\",\"23\",\"10\",\"N\",\"C\",\"95\"
\"\",\"\",\"approach-retreat\",\"244\",\"1756255\",\"0.0-244.0\",\"\",\"\",\"3-1\",\"5097\",\"39\",\"1\",\"Testing\",\"Stims/Figures/27-C-30-1.bmp\",\"None\",\"Left\",\"39\",\"4\",\"24\",\"10\",\"N\",\"C\",\"96\"
\"30154\",\"\",\"survey-text\",\"245\",\"1786412\",\"0.0-245.0\",\"\",\"{\"\"Q0\"\":\"\"PS170038\"\"}\",\"\",\"\",\"\",\"\",\"\",\"\",\"\",\"\",\"\",\"\",\"\",\"\",\"\",\"\",\"\"
