\"rt\",\"key_press\",\"trial_type\",\"trial_index\",\"time_elapsed\",\"internal_node_id\",\"view_history\",\"responses\",\"Id\",\"Rt\",\"ResKeyCode\",\"ResCorr\",\"TrialType2\",\"Image\",\"Label\",\"Location\",\"CorrectResponse\",\"Block\",\"BlockTrial\",\"Condition\",\"LabelType\",\"Subcondition\",\"trialNum\"
\"32036\",\"32\",\"text\",\"0\",\"32053\",\"0.0-0.0-0.0\",\"\",\"\",\"\",\"\",\"\",\"\",\"\",\"\",\"\",\"\",\"\",\"\",\"\",\"\",\"\",\"\",\"\"
\"3073345\",\"\",\"instructions\",\"1\",\"3105424\",\"0.0-1.0\",\"[{\"\"page_index\"\":0,\"\"viewing_time\"\":3073334}]\",\"\",\"\",\"\",\"\",\"\",\"\",\"\",\"\",\"\",\"\",\"\",\"\",\"\",\"\",\"\",\"\"
\"65818\",\"\",\"survey-multi-choice\",\"2\",\"3171332\",\"0.0-2.0\",\"\",\"{\"\"Q0\"\":\"\"Da\"\",\"\"Q1\"\":\"\"Da\"\",\"\"Q2\"\":\"\"Da\"\",\"\"Q3\"\":\"\"Da\"\",\"\"Q4\"\":\"\"Da\"\",\"\"Q5\"\":\"\"Da\"\"}\",\"\",\"\",\"\",\"\",\"\",\"\",\"\",\"\",\"\",\"\",\"\",\"\",\"\",\"\",\"\"
\"\",\"\",\"bio\",\"3\",\"3181119\",\"0.0-3.0\",\"\",\"{\"\"age\"\":\"\"26\"\",\"\"gender\"\":\"\"f\"\",\"\"specify\"\":\"\"\"\"}\",\"\",\"\",\"\",\"\",\"\",\"\",\"\",\"\",\"\",\"\",\"\",\"\",\"\",\"\",\"\"
\"\",\"\",\"approach-retreat\",\"4\",\"3210348\",\"0.0-4.0\",\"\",\"\",\"1-4\",\"27708\",\"39\",\"1\",\"Training\",\"Stims/Figures/87-J-10-4.bmp\",\"fa:fasha\",\"Left\",\"39\",\"1\",\"1\",\"3A\",\"C1\",\"J\",\"1\"
\"\",\"\",\"approach-retreat\",\"5\",\"3227011\",\"0.0-5.0\",\"\",\"\",\"1-4\",\"15112\",\"39\",\"1\",\"Training\",\"Stims/Figures/118-J-0-2.bmp\",\"fa:fasha\",\"Left\",\"39\",\"1\",\"2\",\"3A\",\"C1\",\"J\",\"2\"
\"\",\"\",\"approach-retreat\",\"6\",\"3236567\",\"0.0-6.0\",\"\",\"\",\"1-4\",\"8032\",\"40\",\"0\",\"Training\",\"Stims/Figures/93-C-30-1.bmp\",\"zasaha\",\"Up\",\"38\",\"1\",\"3\",\"3A\",\"C2\",\"J\",\"3\"
\"\",\"\",\"approach-retreat\",\"7\",\"3244608\",\"0.0-7.0\",\"\",\"\",\"1-4\",\"6522\",\"38\",\"0\",\"Training\",\"Stims/Figures/27-C-30-1.bmp\",\"zasaha\",\"Down\",\"40\",\"1\",\"4\",\"3A\",\"C2\",\"J\",\"4\"
\"\",\"\",\"approach-retreat\",\"8\",\"3252236\",\"0.0-8.0\",\"\",\"\",\"1-4\",\"6083\",\"40\",\"0\",\"Training\",\"Stims/Figures/44-C-30-3.bmp\",\"zasaha\",\"Up\",\"38\",\"1\",\"5\",\"3A\",\"C2\",\"J\",\"5\"
\"\",\"\",\"approach-retreat\",\"9\",\"3258155\",\"0.0-9.0\",\"\",\"\",\"1-4\",\"4379\",\"38\",\"1\",\"Training\",\"Stims/Figures/144-C-30-3.bmp\",\"zasaha\",\"Up\",\"38\",\"1\",\"6\",\"3A\",\"C2\",\"J\",\"6\"
\"\",\"\",\"approach-retreat\",\"10\",\"3266742\",\"0.0-10.0\",\"\",\"\",\"1-4\",\"7022\",\"37\",\"0\",\"Training\",\"Stims/Figures/87-C-20-4.bmp\",\"zasaha\",\"Right\",\"39\",\"1\",\"7\",\"3A\",\"C2\",\"J\",\"7\"
\"\",\"\",\"approach-retreat\",\"11\",\"3273254\",\"0.0-11.0\",\"\",\"\",\"1-4\",\"4973\",\"39\",\"1\",\"Training\",\"Stims/Figures/144-J-10-3.bmp\",\"fa:fasha\",\"Left\",\"39\",\"1\",\"8\",\"3A\",\"C1\",\"J\",\"8\"
\"\",\"\",\"approach-retreat\",\"12\",\"3280569\",\"0.0-12.0\",\"\",\"\",\"1-4\",\"5797\",\"40\",\"1\",\"Training\",\"Stims/Figures/27-J-0-1.bmp\",\"fa:fasha\",\"Up\",\"40\",\"1\",\"9\",\"3A\",\"C1\",\"J\",\"9\"
\"\",\"\",\"approach-retreat\",\"13\",\"3287332\",\"0.0-13.0\",\"\",\"\",\"1-4\",\"5215\",\"38\",\"0\",\"Training\",\"Stims/Figures/139-C-20-2.bmp\",\"zasaha\",\"Down\",\"40\",\"1\",\"10\",\"3A\",\"C2\",\"J\",\"10\"
\"\",\"\",\"approach-retreat\",\"14\",\"3293143\",\"0.0-14.0\",\"\",\"\",\"1-4\",\"4261\",\"38\",\"0\",\"Training\",\"Stims/Figures/118-C-20-2.bmp\",\"zasaha\",\"Down\",\"40\",\"1\",\"11\",\"3A\",\"C2\",\"J\",\"11\"
\"\",\"\",\"approach-retreat\",\"15\",\"3299346\",\"0.0-15.0\",\"\",\"\",\"1-4\",\"4666\",\"39\",\"1\",\"Training\",\"Stims/Figures/102-C-20-4.bmp\",\"zasaha\",\"Right\",\"39\",\"1\",\"12\",\"3A\",\"C2\",\"J\",\"12\"
\"\",\"\",\"approach-retreat\",\"16\",\"3307475\",\"0.0-16.0\",\"\",\"\",\"1-4\",\"6596\",\"40\",\"0\",\"Training\",\"Stims/Figures/139-J-0-2.bmp\",\"fa:fasha\",\"Down\",\"38\",\"1\",\"13\",\"3A\",\"C1\",\"J\",\"13\"
\"\",\"\",\"approach-retreat\",\"17\",\"3314299\",\"0.0-17.0\",\"\",\"\",\"1-4\",\"5314\",\"37\",\"1\",\"Training\",\"Stims/Figures/44-J-10-3.bmp\",\"fa:fasha\",\"Right\",\"37\",\"1\",\"14\",\"3A\",\"C1\",\"J\",\"14\"
\"\",\"\",\"approach-retreat\",\"18\",\"3321707\",\"0.0-18.0\",\"\",\"\",\"1-4\",\"5871\",\"37\",\"0\",\"Training\",\"Stims/Figures/93-J-0-1.bmp\",\"fa:fasha\",\"Left\",\"39\",\"1\",\"15\",\"3A\",\"C1\",\"J\",\"15\"
\"\",\"\",\"approach-retreat\",\"19\",\"3327437\",\"0.0-19.0\",\"\",\"\",\"1-4\",\"4199\",\"39\",\"0\",\"Training\",\"Stims/Figures/102-J-10-4.bmp\",\"fa:fasha\",\"Right\",\"37\",\"1\",\"16\",\"3A\",\"C1\",\"J\",\"16\"
\"\",\"\",\"approach-retreat\",\"20\",\"3333711\",\"0.0-20.0\",\"\",\"\",\"1-4\",\"4766\",\"40\",\"1\",\"Training\",\"Stims/Figures/44-J-10-3.bmp\",\"fa:fasha\",\"Up\",\"40\",\"2\",\"1\",\"3A\",\"C1\",\"J\",\"17\"
\"\",\"\",\"approach-retreat\",\"21\",\"3339778\",\"0.0-21.0\",\"\",\"\",\"1-4\",\"4538\",\"38\",\"1\",\"Training\",\"Stims/Figures/139-C-20-2.bmp\",\"zasaha\",\"Up\",\"38\",\"2\",\"2\",\"3A\",\"C2\",\"J\",\"18\"
\"\",\"\",\"approach-retreat\",\"22\",\"3345526\",\"0.0-22.0\",\"\",\"\",\"1-4\",\"4219\",\"38\",\"1\",\"Training\",\"Stims/Figures/93-C-30-1.bmp\",\"zasaha\",\"Up\",\"38\",\"2\",\"3\",\"3A\",\"C2\",\"J\",\"19\"
\"\",\"\",\"approach-retreat\",\"23\",\"3353087\",\"0.0-23.0\",\"\",\"\",\"1-4\",\"6033\",\"37\",\"0\",\"Training\",\"Stims/Figures/93-J-0-1.bmp\",\"fa:fasha\",\"Left\",\"39\",\"2\",\"4\",\"3A\",\"C1\",\"J\",\"20\"
\"\",\"\",\"approach-retreat\",\"24\",\"3358940\",\"0.0-24.0\",\"\",\"\",\"1-4\",\"4288\",\"38\",\"0\",\"Training\",\"Stims/Figures/87-C-20-4.bmp\",\"zasaha\",\"Down\",\"40\",\"2\",\"5\",\"3A\",\"C2\",\"J\",\"21\"
\"\",\"\",\"approach-retreat\",\"25\",\"3364976\",\"0.0-25.0\",\"\",\"\",\"1-4\",\"4465\",\"39\",\"1\",\"Training\",\"Stims/Figures/144-C-30-3.bmp\",\"zasaha\",\"Right\",\"39\",\"2\",\"6\",\"3A\",\"C2\",\"J\",\"22\"
\"\",\"\",\"approach-retreat\",\"26\",\"3371489\",\"0.0-26.0\",\"\",\"\",\"1-4\",\"4990\",\"39\",\"1\",\"Training\",\"Stims/Figures/118-J-0-2.bmp\",\"fa:fasha\",\"Left\",\"39\",\"2\",\"7\",\"3A\",\"C1\",\"J\",\"23\"
\"\",\"\",\"approach-retreat\",\"27\",\"3377941\",\"0.0-27.0\",\"\",\"\",\"1-4\",\"4914\",\"40\",\"0\",\"Training\",\"Stims/Figures/102-J-10-4.bmp\",\"fa:fasha\",\"Down\",\"38\",\"2\",\"8\",\"3A\",\"C1\",\"J\",\"24\"
\"\",\"\",\"approach-retreat\",\"28\",\"3384617\",\"0.0-28.0\",\"\",\"\",\"1-4\",\"5157\",\"38\",\"0\",\"Training\",\"Stims/Figures/27-C-30-1.bmp\",\"zasaha\",\"Down\",\"40\",\"2\",\"9\",\"3A\",\"C2\",\"J\",\"25\"
\"\",\"\",\"approach-retreat\",\"29\",\"3390743\",\"0.0-29.0\",\"\",\"\",\"1-4\",\"4603\",\"39\",\"0\",\"Training\",\"Stims/Figures/87-J-10-4.bmp\",\"fa:fasha\",\"Right\",\"37\",\"2\",\"10\",\"3A\",\"C1\",\"J\",\"26\"
\"\",\"\",\"approach-retreat\",\"30\",\"3396766\",\"0.0-30.0\",\"\",\"\",\"1-4\",\"4493\",\"39\",\"0\",\"Training\",\"Stims/Figures/118-C-20-2.bmp\",\"zasaha\",\"Left\",\"37\",\"2\",\"11\",\"3A\",\"C2\",\"J\",\"27\"
\"\",\"\",\"approach-retreat\",\"31\",\"3402568\",\"0.0-31.0\",\"\",\"\",\"1-4\",\"4291\",\"39\",\"0\",\"Training\",\"Stims/Figures/27-J-0-1.bmp\",\"fa:fasha\",\"Right\",\"37\",\"2\",\"12\",\"3A\",\"C1\",\"J\",\"28\"
\"\",\"\",\"approach-retreat\",\"32\",\"3408464\",\"0.0-32.0\",\"\",\"\",\"1-4\",\"4364\",\"40\",\"1\",\"Training\",\"Stims/Figures/139-J-0-2.bmp\",\"fa:fasha\",\"Up\",\"40\",\"2\",\"13\",\"3A\",\"C1\",\"J\",\"29\"
\"\",\"\",\"approach-retreat\",\"33\",\"3416047\",\"0.0-33.0\",\"\",\"\",\"1-4\",\"6052\",\"39\",\"0\",\"Training\",\"Stims/Figures/44-C-30-3.bmp\",\"zasaha\",\"Left\",\"37\",\"2\",\"14\",\"3A\",\"C2\",\"J\",\"30\"
\"\",\"\",\"approach-retreat\",\"34\",\"3422005\",\"0.0-34.0\",\"\",\"\",\"1-4\",\"4431\",\"40\",\"1\",\"Training\",\"Stims/Figures/102-C-20-4.bmp\",\"zasaha\",\"Down\",\"40\",\"2\",\"15\",\"3A\",\"C2\",\"J\",\"31\"
\"\",\"\",\"approach-retreat\",\"35\",\"3428023\",\"0.0-35.0\",\"\",\"\",\"1-4\",\"4490\",\"39\",\"0\",\"Training\",\"Stims/Figures/144-J-10-3.bmp\",\"fa:fasha\",\"Right\",\"37\",\"2\",\"16\",\"3A\",\"C1\",\"J\",\"32\"
\"\",\"\",\"approach-retreat\",\"36\",\"3434259\",\"0.0-36.0\",\"\",\"\",\"1-4\",\"4712\",\"37\",\"1\",\"Training\",\"Stims/Figures/144-C-30-3.bmp\",\"zasaha\",\"Left\",\"37\",\"3\",\"1\",\"3A\",\"C2\",\"J\",\"33\"
\"\",\"\",\"approach-retreat\",\"37\",\"3441387\",\"0.0-37.0\",\"\",\"\",\"1-4\",\"5568\",\"37\",\"1\",\"Training\",\"Stims/Figures/139-C-20-2.bmp\",\"zasaha\",\"Left\",\"37\",\"3\",\"2\",\"3A\",\"C2\",\"J\",\"34\"
\"\",\"\",\"approach-retreat\",\"38\",\"3447608\",\"0.0-38.0\",\"\",\"\",\"1-4\",\"4687\",\"37\",\"0\",\"Training\",\"Stims/Figures/87-C-20-4.bmp\",\"zasaha\",\"Right\",\"39\",\"3\",\"3\",\"3A\",\"C2\",\"J\",\"35\"
\"\",\"\",\"approach-retreat\",\"39\",\"3454172\",\"0.0-39.0\",\"\",\"\",\"1-4\",\"5041\",\"40\",\"1\",\"Training\",\"Stims/Figures/102-C-20-4.bmp\",\"zasaha\",\"Down\",\"40\",\"3\",\"4\",\"3A\",\"C2\",\"J\",\"36\"
\"\",\"\",\"approach-retreat\",\"40\",\"3461060\",\"0.0-40.0\",\"\",\"\",\"1-4\",\"5366\",\"37\",\"1\",\"Training\",\"Stims/Figures/102-J-10-4.bmp\",\"fa:fasha\",\"Right\",\"37\",\"3\",\"5\",\"3A\",\"C1\",\"J\",\"37\"
\"\",\"\",\"approach-retreat\",\"41\",\"3467374\",\"0.0-41.0\",\"\",\"\",\"1-4\",\"4781\",\"37\",\"0\",\"Training\",\"Stims/Figures/118-C-20-2.bmp\",\"zasaha\",\"Right\",\"39\",\"3\",\"6\",\"3A\",\"C2\",\"J\",\"38\"
\"\",\"\",\"approach-retreat\",\"42\",\"3473194\",\"0.0-42.0\",\"\",\"\",\"1-4\",\"4304\",\"39\",\"0\",\"Training\",\"Stims/Figures/118-J-0-2.bmp\",\"fa:fasha\",\"Right\",\"37\",\"3\",\"7\",\"3A\",\"C1\",\"J\",\"39\"
\"\",\"\",\"approach-retreat\",\"43\",\"3479322\",\"0.0-43.0\",\"\",\"\",\"1-4\",\"4595\",\"40\",\"0\",\"Training\",\"Stims/Figures/44-J-10-3.bmp\",\"fa:fasha\",\"Down\",\"38\",\"3\",\"8\",\"3A\",\"C1\",\"J\",\"40\"
\"\",\"\",\"approach-retreat\",\"44\",\"3485511\",\"0.0-44.0\",\"\",\"\",\"1-4\",\"4664\",\"38\",\"0\",\"Training\",\"Stims/Figures/87-J-10-4.bmp\",\"fa:fasha\",\"Up\",\"40\",\"3\",\"9\",\"3A\",\"C1\",\"J\",\"41\"
\"\",\"\",\"approach-retreat\",\"45\",\"3491206\",\"0.0-45.0\",\"\",\"\",\"1-4\",\"4170\",\"40\",\"0\",\"Training\",\"Stims/Figures/44-C-30-3.bmp\",\"zasaha\",\"Up\",\"38\",\"3\",\"10\",\"3A\",\"C2\",\"J\",\"42\"
\"\",\"\",\"approach-retreat\",\"46\",\"3496994\",\"0.0-46.0\",\"\",\"\",\"1-4\",\"4262\",\"38\",\"0\",\"Training\",\"Stims/Figures/27-C-30-1.bmp\",\"zasaha\",\"Down\",\"40\",\"3\",\"11\",\"3A\",\"C2\",\"J\",\"43\"
\"\",\"\",\"approach-retreat\",\"47\",\"3502884\",\"0.0-47.0\",\"\",\"\",\"1-4\",\"4364\",\"39\",\"1\",\"Training\",\"Stims/Figures/139-J-0-2.bmp\",\"fa:fasha\",\"Left\",\"39\",\"3\",\"12\",\"3A\",\"C1\",\"J\",\"44\"
\"\",\"\",\"approach-retreat\",\"48\",\"3512280\",\"0.0-48.0\",\"\",\"\",\"1-4\",\"7881\",\"38\",\"1\",\"Training\",\"Stims/Figures/93-C-30-1.bmp\",\"zasaha\",\"Up\",\"38\",\"3\",\"13\",\"3A\",\"C2\",\"J\",\"45\"
\"\",\"\",\"approach-retreat\",\"49\",\"3517954\",\"0.0-49.0\",\"\",\"\",\"1-4\",\"4148\",\"40\",\"0\",\"Training\",\"Stims/Figures/27-J-0-1.bmp\",\"fa:fasha\",\"Down\",\"38\",\"3\",\"14\",\"3A\",\"C1\",\"J\",\"46\"
\"\",\"\",\"approach-retreat\",\"50\",\"3524123\",\"0.0-50.0\",\"\",\"\",\"1-4\",\"4581\",\"39\",\"1\",\"Training\",\"Stims/Figures/93-J-0-1.bmp\",\"fa:fasha\",\"Left\",\"39\",\"3\",\"15\",\"3A\",\"C1\",\"J\",\"47\"
\"\",\"\",\"approach-retreat\",\"51\",\"3530010\",\"0.0-51.0\",\"\",\"\",\"1-4\",\"4371\",\"38\",\"0\",\"Training\",\"Stims/Figures/144-J-10-3.bmp\",\"fa:fasha\",\"Up\",\"40\",\"3\",\"16\",\"3A\",\"C1\",\"J\",\"48\"
\"\",\"\",\"approach-retreat\",\"52\",\"3536004\",\"0.0-52.0\",\"\",\"\",\"1-4\",\"4469\",\"40\",\"0\",\"Training\",\"Stims/Figures/139-J-0-2.bmp\",\"fa:fasha\",\"Down\",\"38\",\"4\",\"1\",\"3A\",\"C1\",\"J\",\"49\"
\"\",\"\",\"approach-retreat\",\"53\",\"3541809\",\"0.0-53.0\",\"\",\"\",\"1-4\",\"4284\",\"39\",\"1\",\"Training\",\"Stims/Figures/93-C-30-1.bmp\",\"zasaha\",\"Right\",\"39\",\"4\",\"2\",\"3A\",\"C2\",\"J\",\"50\"
\"\",\"\",\"approach-retreat\",\"54\",\"3547847\",\"0.0-54.0\",\"\",\"\",\"1-4\",\"4509\",\"38\",\"0\",\"Training\",\"Stims/Figures/87-C-20-4.bmp\",\"zasaha\",\"Down\",\"40\",\"4\",\"3\",\"3A\",\"C2\",\"J\",\"51\"
\"\",\"\",\"approach-retreat\",\"55\",\"3553571\",\"0.0-55.0\",\"\",\"\",\"1-4\",\"4213\",\"39\",\"1\",\"Training\",\"Stims/Figures/144-J-10-3.bmp\",\"fa:fasha\",\"Left\",\"39\",\"4\",\"4\",\"3A\",\"C1\",\"J\",\"52\"
\"\",\"\",\"approach-retreat\",\"56\",\"3559539\",\"0.0-56.0\",\"\",\"\",\"1-4\",\"4438\",\"38\",\"0\",\"Training\",\"Stims/Figures/44-J-10-3.bmp\",\"fa:fasha\",\"Up\",\"40\",\"4\",\"5\",\"3A\",\"C1\",\"J\",\"53\"
\"\",\"\",\"approach-retreat\",\"57\",\"3565586\",\"0.0-57.0\",\"\",\"\",\"1-4\",\"4521\",\"37\",\"0\",\"Training\",\"Stims/Figures/144-C-30-3.bmp\",\"zasaha\",\"Right\",\"39\",\"4\",\"6\",\"3A\",\"C2\",\"J\",\"54\"
\"\",\"\",\"approach-retreat\",\"58\",\"3572366\",\"0.0-58.0\",\"\",\"\",\"1-4\",\"5265\",\"40\",\"0\",\"Training\",\"Stims/Figures/118-C-20-2.bmp\",\"zasaha\",\"Up\",\"38\",\"4\",\"7\",\"3A\",\"C2\",\"J\",\"55\"
\"\",\"\",\"approach-retreat\",\"59\",\"3578621\",\"0.0-59.0\",\"\",\"\",\"1-4\",\"4731\",\"38\",\"1\",\"Training\",\"Stims/Figures/87-J-10-4.bmp\",\"fa:fasha\",\"Down\",\"38\",\"4\",\"8\",\"3A\",\"C1\",\"J\",\"56\"
\"\",\"\",\"approach-retreat\",\"60\",\"3585347\",\"0.0-60.0\",\"\",\"\",\"1-4\",\"5218\",\"40\",\"1\",\"Training\",\"Stims/Figures/44-C-30-3.bmp\",\"zasaha\",\"Down\",\"40\",\"4\",\"9\",\"3A\",\"C2\",\"J\",\"57\"
\"\",\"\",\"approach-retreat\",\"61\",\"3591374\",\"0.0-61.0\",\"\",\"\",\"1-4\",\"4496\",\"39\",\"0\",\"Training\",\"Stims/Figures/102-J-10-4.bmp\",\"fa:fasha\",\"Right\",\"37\",\"4\",\"10\",\"3A\",\"C1\",\"J\",\"58\"
\"\",\"\",\"approach-retreat\",\"62\",\"3601731\",\"0.0-62.0\",\"\",\"\",\"1-4\",\"8830\",\"37\",\"0\",\"Training\",\"Stims/Figures/93-J-0-1.bmp\",\"fa:fasha\",\"Left\",\"39\",\"4\",\"11\",\"3A\",\"C1\",\"J\",\"59\"
\"\",\"\",\"approach-retreat\",\"63\",\"3607544\",\"0.0-63.0\",\"\",\"\",\"1-4\",\"4281\",\"39\",\"1\",\"Training\",\"Stims/Figures/118-J-0-2.bmp\",\"fa:fasha\",\"Left\",\"39\",\"4\",\"12\",\"3A\",\"C1\",\"J\",\"60\"
\"\",\"\",\"approach-retreat\",\"64\",\"3613673\",\"0.0-64.0\",\"\",\"\",\"1-4\",\"4592\",\"37\",\"0\",\"Training\",\"Stims/Figures/27-C-30-1.bmp\",\"zasaha\",\"Right\",\"39\",\"4\",\"13\",\"3A\",\"C2\",\"J\",\"61\"
\"\",\"\",\"approach-retreat\",\"65\",\"3620906\",\"0.0-65.0\",\"\",\"\",\"1-4\",\"5702\",\"40\",\"0\",\"Training\",\"Stims/Figures/139-C-20-2.bmp\",\"zasaha\",\"Up\",\"38\",\"4\",\"14\",\"3A\",\"C2\",\"J\",\"62\"
\"\",\"\",\"approach-retreat\",\"66\",\"3627166\",\"0.0-66.0\",\"\",\"\",\"1-4\",\"4742\",\"38\",\"0\",\"Training\",\"Stims/Figures/27-J-0-1.bmp\",\"fa:fasha\",\"Up\",\"40\",\"4\",\"15\",\"3A\",\"C1\",\"J\",\"63\"
\"\",\"\",\"approach-retreat\",\"67\",\"3634285\",\"0.0-67.0\",\"\",\"\",\"1-4\",\"5597\",\"37\",\"1\",\"Training\",\"Stims/Figures/102-C-20-4.bmp\",\"zasaha\",\"Left\",\"37\",\"4\",\"16\",\"3A\",\"C2\",\"J\",\"64\"
\"\",\"\",\"approach-retreat\",\"68\",\"3642312\",\"0.0-68.0\",\"\",\"\",\"1-4\",\"6506\",\"39\",\"0\",\"Training\",\"Stims/Figures/27-C-30-1.bmp\",\"zasaha\",\"Left\",\"37\",\"5\",\"1\",\"3A\",\"C2\",\"J\",\"65\"
\"\",\"\",\"approach-retreat\",\"69\",\"3649380\",\"0.0-69.0\",\"\",\"\",\"1-4\",\"5558\",\"37\",\"1\",\"Training\",\"Stims/Figures/102-J-10-4.bmp\",\"fa:fasha\",\"Right\",\"37\",\"5\",\"2\",\"3A\",\"C1\",\"J\",\"66\"
\"\",\"\",\"approach-retreat\",\"70\",\"3655884\",\"0.0-70.0\",\"\",\"\",\"1-4\",\"4991\",\"40\",\"0\",\"Training\",\"Stims/Figures/118-C-20-2.bmp\",\"zasaha\",\"Up\",\"38\",\"5\",\"3\",\"3A\",\"C2\",\"J\",\"67\"
\"\",\"\",\"approach-retreat\",\"71\",\"3663255\",\"0.0-71.0\",\"\",\"\",\"1-4\",\"5840\",\"39\",\"0\",\"Training\",\"Stims/Figures/139-J-0-2.bmp\",\"fa:fasha\",\"Right\",\"37\",\"5\",\"4\",\"3A\",\"C1\",\"J\",\"68\"
\"\",\"\",\"approach-retreat\",\"72\",\"3668936\",\"0.0-72.0\",\"\",\"\",\"1-4\",\"4146\",\"37\",\"1\",\"Training\",\"Stims/Figures/87-C-20-4.bmp\",\"zasaha\",\"Left\",\"37\",\"5\",\"5\",\"3A\",\"C2\",\"J\",\"69\"
\"\",\"\",\"approach-retreat\",\"73\",\"3675432\",\"0.0-73.0\",\"\",\"\",\"1-4\",\"4970\",\"40\",\"1\",\"Training\",\"Stims/Figures/144-C-30-3.bmp\",\"zasaha\",\"Down\",\"40\",\"5\",\"6\",\"3A\",\"C2\",\"J\",\"70\"
\"\",\"\",\"approach-retreat\",\"74\",\"3681755\",\"0.0-74.0\",\"\",\"\",\"1-4\",\"4799\",\"38\",\"0\",\"Training\",\"Stims/Figures/93-J-0-1.bmp\",\"fa:fasha\",\"Up\",\"40\",\"5\",\"7\",\"3A\",\"C1\",\"J\",\"71\"
\"\",\"\",\"approach-retreat\",\"75\",\"3687686\",\"0.0-75.0\",\"\",\"\",\"1-4\",\"4410\",\"40\",\"0\",\"Training\",\"Stims/Figures/102-C-20-4.bmp\",\"zasaha\",\"Up\",\"38\",\"5\",\"8\",\"3A\",\"C2\",\"J\",\"72\"
\"\",\"\",\"approach-retreat\",\"76\",\"3695111\",\"0.0-76.0\",\"\",\"\",\"1-4\",\"5902\",\"39\",\"0\",\"Training\",\"Stims/Figures/27-J-0-1.bmp\",\"fa:fasha\",\"Right\",\"37\",\"5\",\"9\",\"3A\",\"C1\",\"J\",\"73\"
\"\",\"\",\"approach-retreat\",\"77\",\"3700772\",\"0.0-77.0\",\"\",\"\",\"1-4\",\"4139\",\"37\",\"1\",\"Training\",\"Stims/Figures/93-C-30-1.bmp\",\"zasaha\",\"Left\",\"37\",\"5\",\"10\",\"3A\",\"C2\",\"J\",\"74\"
\"\",\"\",\"approach-retreat\",\"78\",\"3706721\",\"0.0-78.0\",\"\",\"\",\"1-4\",\"4424\",\"40\",\"0\",\"Training\",\"Stims/Figures/118-J-0-2.bmp\",\"fa:fasha\",\"Down\",\"38\",\"5\",\"11\",\"3A\",\"C1\",\"J\",\"75\"
\"\",\"\",\"approach-retreat\",\"79\",\"3712547\",\"0.0-79.0\",\"\",\"\",\"1-4\",\"4305\",\"39\",\"1\",\"Training\",\"Stims/Figures/87-J-10-4.bmp\",\"fa:fasha\",\"Left\",\"39\",\"5\",\"12\",\"3A\",\"C1\",\"J\",\"76\"
\"\",\"\",\"approach-retreat\",\"80\",\"3718415\",\"0.0-80.0\",\"\",\"\",\"1-4\",\"4339\",\"38\",\"0\",\"Training\",\"Stims/Figures/139-C-20-2.bmp\",\"zasaha\",\"Down\",\"40\",\"5\",\"13\",\"3A\",\"C2\",\"J\",\"77\"
\"\",\"\",\"approach-retreat\",\"81\",\"3723992\",\"0.0-81.0\",\"\",\"\",\"1-4\",\"4055\",\"40\",\"1\",\"Training\",\"Stims/Figures/44-C-30-3.bmp\",\"zasaha\",\"Down\",\"40\",\"5\",\"14\",\"3A\",\"C2\",\"J\",\"78\"
\"\",\"\",\"approach-retreat\",\"82\",\"3730350\",\"0.0-82.0\",\"\",\"\",\"1-4\",\"4853\",\"37\",\"1\",\"Training\",\"Stims/Figures/144-J-10-3.bmp\",\"fa:fasha\",\"Right\",\"37\",\"5\",\"15\",\"3A\",\"C1\",\"J\",\"79\"
\"\",\"\",\"approach-retreat\",\"83\",\"3736694\",\"0.0-83.0\",\"\",\"\",\"1-4\",\"4820\",\"40\",\"1\",\"Training\",\"Stims/Figures/44-J-10-3.bmp\",\"fa:fasha\",\"Up\",\"40\",\"5\",\"16\",\"3A\",\"C1\",\"J\",\"80\"
\"\",\"\",\"approach-retreat\",\"84\",\"3743306\",\"0.0-84.0\",\"\",\"\",\"1-4\",\"5082\",\"37\",\"0\",\"Training\",\"Stims/Figures/118-C-20-2.bmp\",\"zasaha\",\"Right\",\"39\",\"6\",\"1\",\"3A\",\"C2\",\"J\",\"81\"
\"\",\"\",\"approach-retreat\",\"85\",\"3749173\",\"0.0-85.0\",\"\",\"\",\"1-4\",\"4347\",\"39\",\"1\",\"Training\",\"Stims/Figures/139-C-20-2.bmp\",\"zasaha\",\"Right\",\"39\",\"6\",\"2\",\"3A\",\"C2\",\"J\",\"82\"
\"\",\"\",\"approach-retreat\",\"86\",\"3755319\",\"0.0-86.0\",\"\",\"\",\"1-4\",\"4622\",\"37\",\"0\",\"Training\",\"Stims/Figures/144-J-10-3.bmp\",\"fa:fasha\",\"Left\",\"39\",\"6\",\"3\",\"3A\",\"C1\",\"J\",\"83\"
\"\",\"\",\"approach-retreat\",\"87\",\"3761219\",\"0.0-87.0\",\"\",\"\",\"1-4\",\"4378\",\"38\",\"0\",\"Training\",\"Stims/Figures/118-J-0-2.bmp\",\"fa:fasha\",\"Up\",\"40\",\"6\",\"4\",\"3A\",\"C1\",\"J\",\"84\"
\"\",\"\",\"approach-retreat\",\"88\",\"3767055\",\"0.0-88.0\",\"\",\"\",\"1-4\",\"4282\",\"39\",\"0\",\"Training\",\"Stims/Figures/87-C-20-4.bmp\",\"zasaha\",\"Left\",\"37\",\"6\",\"5\",\"3A\",\"C2\",\"J\",\"85\"
\"\",\"\",\"approach-retreat\",\"89\",\"3773206\",\"0.0-89.0\",\"\",\"\",\"1-4\",\"4618\",\"40\",\"0\",\"Training\",\"Stims/Figures/144-C-30-3.bmp\",\"zasaha\",\"Up\",\"38\",\"6\",\"6\",\"3A\",\"C2\",\"J\",\"86\"
\"\",\"\",\"approach-retreat\",\"90\",\"3780602\",\"0.0-90.0\",\"\",\"\",\"1-4\",\"5861\",\"37\",\"0\",\"Training\",\"Stims/Figures/93-C-30-1.bmp\",\"zasaha\",\"Right\",\"39\",\"6\",\"7\",\"3A\",\"C2\",\"J\",\"87\"
\"\",\"\",\"approach-retreat\",\"91\",\"3788174\",\"0.0-91.0\",\"\",\"\",\"1-4\",\"6057\",\"38\",\"1\",\"Training\",\"Stims/Figures/87-J-10-4.bmp\",\"fa:fasha\",\"Down\",\"38\",\"6\",\"8\",\"3A\",\"C1\",\"J\",\"88\"
\"\",\"\",\"approach-retreat\",\"92\",\"3794314\",\"0.0-92.0\",\"\",\"\",\"1-4\",\"4614\",\"39\",\"0\",\"Training\",\"Stims/Figures/27-C-30-1.bmp\",\"zasaha\",\"Left\",\"37\",\"6\",\"9\",\"3A\",\"C2\",\"J\",\"89\"
\"\",\"\",\"approach-retreat\",\"93\",\"3800682\",\"0.0-93.0\",\"\",\"\",\"1-4\",\"4854\",\"40\",\"0\",\"Training\",\"Stims/Figures/93-J-0-1.bmp\",\"fa:fasha\",\"Down\",\"38\",\"6\",\"10\",\"3A\",\"C1\",\"J\",\"90\"
\"\",\"\",\"approach-retreat\",\"94\",\"3807335\",\"0.0-94.0\",\"\",\"\",\"1-4\",\"5144\",\"37\",\"0\",\"Training\",\"Stims/Figures/102-C-20-4.bmp\",\"zasaha\",\"Right\",\"39\",\"6\",\"11\",\"3A\",\"C2\",\"J\",\"91\"
\"\",\"\",\"approach-retreat\",\"95\",\"3813314\",\"0.0-95.0\",\"\",\"\",\"1-4\",\"4409\",\"39\",\"1\",\"Training\",\"Stims/Figures/102-J-10-4.bmp\",\"fa:fasha\",\"Left\",\"39\",\"6\",\"12\",\"3A\",\"C1\",\"J\",\"92\"
\"\",\"\",\"approach-retreat\",\"96\",\"3819507\",\"0.0-96.0\",\"\",\"\",\"1-4\",\"4672\",\"38\",\"1\",\"Training\",\"Stims/Figures/139-J-0-2.bmp\",\"fa:fasha\",\"Down\",\"38\",\"6\",\"13\",\"3A\",\"C1\",\"J\",\"93\"
\"\",\"\",\"approach-retreat\",\"97\",\"3825960\",\"0.0-97.0\",\"\",\"\",\"1-4\",\"4939\",\"40\",\"0\",\"Training\",\"Stims/Figures/44-C-30-3.bmp\",\"zasaha\",\"Up\",\"38\",\"6\",\"14\",\"3A\",\"C2\",\"J\",\"94\"
\"\",\"\",\"approach-retreat\",\"98\",\"3831186\",\"0.0-98.0\",\"\",\"\",\"1-4\",\"3705\",\"40\",\"1\",\"Training\",\"Stims/Figures/44-J-10-3.bmp\",\"fa:fasha\",\"Up\",\"40\",\"6\",\"15\",\"3A\",\"C1\",\"J\",\"95\"
\"\",\"\",\"approach-retreat\",\"99\",\"3837100\",\"0.0-99.0\",\"\",\"\",\"1-4\",\"4391\",\"38\",\"1\",\"Training\",\"Stims/Figures/27-J-0-1.bmp\",\"fa:fasha\",\"Down\",\"38\",\"6\",\"16\",\"3A\",\"C1\",\"J\",\"96\"
\"\",\"\",\"approach-retreat\",\"100\",\"3843511\",\"0.0-100.0\",\"\",\"\",\"1-4\",\"4887\",\"40\",\"1\",\"Training\",\"Stims/Figures/44-C-30-3.bmp\",\"zasaha\",\"Down\",\"40\",\"7\",\"1\",\"3A\",\"C2\",\"J\",\"97\"
\"\",\"\",\"approach-retreat\",\"101\",\"3849972\",\"0.0-101.0\",\"\",\"\",\"1-4\",\"4935\",\"39\",\"1\",\"Training\",\"Stims/Figures/93-J-0-1.bmp\",\"fa:fasha\",\"Left\",\"39\",\"7\",\"2\",\"3A\",\"C1\",\"J\",\"98\"
\"\",\"\",\"approach-retreat\",\"102\",\"3856136\",\"0.0-102.0\",\"\",\"\",\"1-4\",\"4644\",\"38\",\"1\",\"Training\",\"Stims/Figures/118-C-20-2.bmp\",\"zasaha\",\"Up\",\"38\",\"7\",\"3\",\"3A\",\"C2\",\"J\",\"99\"
\"\",\"\",\"approach-retreat\",\"103\",\"3862015\",\"0.0-103.0\",\"\",\"\",\"1-4\",\"4357\",\"38\",\"0\",\"Training\",\"Stims/Figures/139-C-20-2.bmp\",\"zasaha\",\"Down\",\"40\",\"7\",\"4\",\"3A\",\"C2\",\"J\",\"100\"
\"\",\"\",\"approach-retreat\",\"104\",\"3868633\",\"0.0-104.0\",\"\",\"\",\"1-4\",\"5055\",\"37\",\"0\",\"Training\",\"Stims/Figures/139-J-0-2.bmp\",\"fa:fasha\",\"Left\",\"39\",\"7\",\"5\",\"3A\",\"C1\",\"J\",\"101\"
\"\",\"\",\"approach-retreat\",\"105\",\"3874891\",\"0.0-105.0\",\"\",\"\",\"1-4\",\"4735\",\"39\",\"0\",\"Training\",\"Stims/Figures/102-C-20-4.bmp\",\"zasaha\",\"Left\",\"37\",\"7\",\"6\",\"3A\",\"C2\",\"J\",\"102\"
\"\",\"\",\"approach-retreat\",\"106\",\"3881320\",\"0.0-106.0\",\"\",\"\",\"1-4\",\"4899\",\"40\",\"0\",\"Training\",\"Stims/Figures/93-C-30-1.bmp\",\"zasaha\",\"Up\",\"38\",\"7\",\"7\",\"3A\",\"C2\",\"J\",\"103\"
\"\",\"\",\"approach-retreat\",\"107\",\"3888879\",\"0.0-107.0\",\"\",\"\",\"1-4\",\"6039\",\"38\",\"0\",\"Training\",\"Stims/Figures/87-J-10-4.bmp\",\"fa:fasha\",\"Up\",\"40\",\"7\",\"8\",\"3A\",\"C1\",\"J\",\"104\"
\"\",\"\",\"approach-retreat\",\"108\",\"3895440\",\"0.0-108.0\",\"\",\"\",\"1-4\",\"5040\",\"40\",\"1\",\"Training\",\"Stims/Figures/144-J-10-3.bmp\",\"fa:fasha\",\"Up\",\"40\",\"7\",\"9\",\"3A\",\"C1\",\"J\",\"105\"
\"\",\"\",\"approach-retreat\",\"109\",\"3901486\",\"0.0-109.0\",\"\",\"\",\"1-4\",\"4519\",\"40\",\"1\",\"Training\",\"Stims/Figures/87-C-20-4.bmp\",\"zasaha\",\"Down\",\"40\",\"7\",\"10\",\"3A\",\"C2\",\"J\",\"106\"
\"\",\"\",\"approach-retreat\",\"110\",\"3907745\",\"0.0-110.0\",\"\",\"\",\"1-4\",\"4733\",\"39\",\"1\",\"Training\",\"Stims/Figures/27-J-0-1.bmp\",\"fa:fasha\",\"Left\",\"39\",\"7\",\"11\",\"3A\",\"C1\",\"J\",\"107\"
\"\",\"\",\"approach-retreat\",\"111\",\"3913449\",\"0.0-111.0\",\"\",\"\",\"1-4\",\"4183\",\"39\",\"0\",\"Training\",\"Stims/Figures/118-J-0-2.bmp\",\"fa:fasha\",\"Right\",\"37\",\"7\",\"12\",\"3A\",\"C1\",\"J\",\"108\"
\"\",\"\",\"approach-retreat\",\"112\",\"3919270\",\"0.0-112.0\",\"\",\"\",\"1-4\",\"4289\",\"37\",\"0\",\"Training\",\"Stims/Figures/144-C-30-3.bmp\",\"zasaha\",\"Right\",\"39\",\"7\",\"13\",\"3A\",\"C2\",\"J\",\"109\"
\"\",\"\",\"approach-retreat\",\"113\",\"3924848\",\"0.0-113.0\",\"\",\"\",\"1-4\",\"4051\",\"39\",\"0\",\"Training\",\"Stims/Figures/102-J-10-4.bmp\",\"fa:fasha\",\"Right\",\"37\",\"7\",\"14\",\"3A\",\"C1\",\"J\",\"110\"
\"\",\"\",\"approach-retreat\",\"114\",\"3931735\",\"0.0-114.0\",\"\",\"\",\"1-4\",\"5365\",\"38\",\"0\",\"Training\",\"Stims/Figures/27-C-30-1.bmp\",\"zasaha\",\"Down\",\"40\",\"7\",\"15\",\"3A\",\"C2\",\"J\",\"111\"
\"\",\"\",\"approach-retreat\",\"115\",\"3938093\",\"0.0-115.0\",\"\",\"\",\"1-4\",\"4835\",\"39\",\"0\",\"Training\",\"Stims/Figures/44-J-10-3.bmp\",\"fa:fasha\",\"Right\",\"37\",\"7\",\"16\",\"3A\",\"C1\",\"J\",\"112\"
\"\",\"\",\"approach-retreat\",\"116\",\"3944213\",\"0.0-116.0\",\"\",\"\",\"1-4\",\"4601\",\"37\",\"1\",\"Training\",\"Stims/Figures/144-J-10-3.bmp\",\"fa:fasha\",\"Right\",\"37\",\"8\",\"1\",\"3A\",\"C1\",\"J\",\"113\"
\"\",\"\",\"approach-retreat\",\"117\",\"3950120\",\"0.0-117.0\",\"\",\"\",\"1-4\",\"4381\",\"40\",\"0\",\"Training\",\"Stims/Figures/118-C-20-2.bmp\",\"zasaha\",\"Up\",\"38\",\"8\",\"2\",\"3A\",\"C2\",\"J\",\"114\"
\"\",\"\",\"approach-retreat\",\"118\",\"3956297\",\"0.0-118.0\",\"\",\"\",\"1-4\",\"4659\",\"38\",\"0\",\"Training\",\"Stims/Figures/27-C-30-1.bmp\",\"zasaha\",\"Down\",\"40\",\"8\",\"3\",\"3A\",\"C2\",\"J\",\"115\"
\"\",\"\",\"approach-retreat\",\"119\",\"3962574\",\"0.0-119.0\",\"\",\"\",\"1-4\",\"4751\",\"38\",\"0\",\"Training\",\"Stims/Figures/118-J-0-2.bmp\",\"fa:fasha\",\"Up\",\"40\",\"8\",\"4\",\"3A\",\"C1\",\"J\",\"116\"
\"\",\"\",\"approach-retreat\",\"120\",\"3968161\",\"0.0-120.0\",\"\",\"\",\"1-4\",\"4063\",\"40\",\"0\",\"Training\",\"Stims/Figures/144-C-30-3.bmp\",\"zasaha\",\"Up\",\"38\",\"8\",\"5\",\"3A\",\"C2\",\"J\",\"117\"
\"\",\"\",\"approach-retreat\",\"121\",\"3974836\",\"0.0-121.0\",\"\",\"\",\"1-4\",\"5150\",\"39\",\"0\",\"Training\",\"Stims/Figures/93-C-30-1.bmp\",\"zasaha\",\"Left\",\"37\",\"8\",\"6\",\"3A\",\"C2\",\"J\",\"118\"
\"\",\"\",\"approach-retreat\",\"122\",\"3989105\",\"0.0-122.0\",\"\",\"\",\"1-4\",\"12740\",\"37\",\"0\",\"Training\",\"Stims/Figures/102-C-20-4.bmp\",\"zasaha\",\"Right\",\"39\",\"8\",\"7\",\"3A\",\"C2\",\"J\",\"119\"
\"\",\"\",\"approach-retreat\",\"123\",\"3995518\",\"0.0-123.0\",\"\",\"\",\"1-4\",\"4893\",\"38\",\"0\",\"Training\",\"Stims/Figures/93-J-0-1.bmp\",\"fa:fasha\",\"Up\",\"40\",\"8\",\"8\",\"3A\",\"C1\",\"J\",\"120\"
\"\",\"\",\"approach-retreat\",\"124\",\"4003518\",\"0.0-124.0\",\"\",\"\",\"1-4\",\"6466\",\"40\",\"0\",\"Training\",\"Stims/Figures/44-J-10-3.bmp\",\"fa:fasha\",\"Down\",\"38\",\"8\",\"9\",\"3A\",\"C1\",\"J\",\"121\"
\"\",\"\",\"approach-retreat\",\"125\",\"4013090\",\"0.0-125.0\",\"\",\"\",\"1-4\",\"8054\",\"40\",\"0\",\"Training\",\"Stims/Figures/139-J-0-2.bmp\",\"fa:fasha\",\"Down\",\"38\",\"8\",\"10\",\"3A\",\"C1\",\"J\",\"122\"
\"\",\"\",\"approach-retreat\",\"126\",\"4018770\",\"0.0-126.0\",\"\",\"\",\"1-4\",\"4168\",\"38\",\"0\",\"Training\",\"Stims/Figures/139-C-20-2.bmp\",\"zasaha\",\"Down\",\"40\",\"8\",\"11\",\"3A\",\"C2\",\"J\",\"123\"
\"\",\"\",\"approach-retreat\",\"127\",\"4024469\",\"0.0-127.0\",\"\",\"\",\"1-4\",\"4175\",\"39\",\"0\",\"Training\",\"Stims/Figures/87-J-10-4.bmp\",\"fa:fasha\",\"Right\",\"37\",\"8\",\"12\",\"3A\",\"C1\",\"J\",\"124\"
\"\",\"\",\"approach-retreat\",\"128\",\"4035020\",\"0.0-128.0\",\"\",\"\",\"1-4\",\"9019\",\"37\",\"0\",\"Training\",\"Stims/Figures/102-J-10-4.bmp\",\"fa:fasha\",\"Left\",\"39\",\"8\",\"13\",\"3A\",\"C1\",\"J\",\"125\"
\"\",\"\",\"approach-retreat\",\"129\",\"4041086\",\"0.0-129.0\",\"\",\"\",\"1-4\",\"4551\",\"37\",\"0\",\"Training\",\"Stims/Figures/27-J-0-1.bmp\",\"fa:fasha\",\"Left\",\"39\",\"8\",\"14\",\"3A\",\"C1\",\"J\",\"126\"
\"\",\"\",\"approach-retreat\",\"130\",\"4046845\",\"0.0-130.0\",\"\",\"\",\"1-4\",\"4232\",\"39\",\"0\",\"Training\",\"Stims/Figures/87-C-20-4.bmp\",\"zasaha\",\"Left\",\"37\",\"8\",\"15\",\"3A\",\"C2\",\"J\",\"127\"
\"\",\"\",\"approach-retreat\",\"131\",\"4053188\",\"0.0-131.0\",\"\",\"\",\"1-4\",\"4823\",\"39\",\"1\",\"Training\",\"Stims/Figures/44-C-30-3.bmp\",\"zasaha\",\"Right\",\"39\",\"8\",\"16\",\"3A\",\"C2\",\"J\",\"128\"
\"\",\"\",\"approach-retreat\",\"132\",\"4058916\",\"0.0-132.0\",\"\",\"\",\"1-4\",\"4203\",\"39\",\"1\",\"Training\",\"Stims/Figures/93-J-0-1.bmp\",\"fa:fasha\",\"Left\",\"39\",\"9\",\"1\",\"3A\",\"C1\",\"J\",\"129\"
\"\",\"\",\"approach-retreat\",\"133\",\"4065123\",\"0.0-133.0\",\"\",\"\",\"1-4\",\"4699\",\"37\",\"1\",\"Training\",\"Stims/Figures/27-J-0-1.bmp\",\"fa:fasha\",\"Right\",\"37\",\"9\",\"2\",\"3A\",\"C1\",\"J\",\"130\"
\"\",\"\",\"approach-retreat\",\"134\",\"4071193\",\"0.0-134.0\",\"\",\"\",\"1-4\",\"4552\",\"38\",\"1\",\"Training\",\"Stims/Figures/44-J-10-3.bmp\",\"fa:fasha\",\"Down\",\"38\",\"9\",\"3\",\"3A\",\"C1\",\"J\",\"131\"
\"\",\"\",\"approach-retreat\",\"135\",\"4077184\",\"0.0-135.0\",\"\",\"\",\"1-4\",\"4470\",\"37\",\"1\",\"Training\",\"Stims/Figures/102-J-10-4.bmp\",\"fa:fasha\",\"Right\",\"37\",\"9\",\"4\",\"3A\",\"C1\",\"J\",\"132\"
\"\",\"\",\"approach-retreat\",\"136\",\"4083193\",\"0.0-136.0\",\"\",\"\",\"1-4\",\"4489\",\"40\",\"1\",\"Training\",\"Stims/Figures/118-C-20-2.bmp\",\"zasaha\",\"Down\",\"40\",\"9\",\"5\",\"3A\",\"C2\",\"J\",\"133\"
\"\",\"\",\"approach-retreat\",\"137\",\"4089078\",\"0.0-137.0\",\"\",\"\",\"1-4\",\"4363\",\"37\",\"1\",\"Training\",\"Stims/Figures/144-C-30-3.bmp\",\"zasaha\",\"Left\",\"37\",\"9\",\"6\",\"3A\",\"C2\",\"J\",\"134\"
\"\",\"\",\"approach-retreat\",\"138\",\"4095930\",\"0.0-138.0\",\"\",\"\",\"1-4\",\"5332\",\"40\",\"1\",\"Training\",\"Stims/Figures/87-C-20-4.bmp\",\"zasaha\",\"Down\",\"40\",\"9\",\"7\",\"3A\",\"C2\",\"J\",\"135\"
\"\",\"\",\"approach-retreat\",\"139\",\"4103722\",\"0.0-139.0\",\"\",\"\",\"1-4\",\"6208\",\"38\",\"0\",\"Training\",\"Stims/Figures/118-J-0-2.bmp\",\"fa:fasha\",\"Up\",\"40\",\"9\",\"8\",\"3A\",\"C1\",\"J\",\"136\"
\"\",\"\",\"approach-retreat\",\"140\",\"4110602\",\"0.0-140.0\",\"\",\"\",\"1-4\",\"5366\",\"38\",\"1\",\"Training\",\"Stims/Figures/44-C-30-3.bmp\",\"zasaha\",\"Up\",\"38\",\"9\",\"9\",\"3A\",\"C2\",\"J\",\"137\"
\"\",\"\",\"approach-retreat\",\"141\",\"4116667\",\"0.0-141.0\",\"\",\"\",\"1-4\",\"4538\",\"40\",\"0\",\"Training\",\"Stims/Figures/144-J-10-3.bmp\",\"fa:fasha\",\"Down\",\"38\",\"9\",\"10\",\"3A\",\"C1\",\"J\",\"138\"
\"\",\"\",\"approach-retreat\",\"142\",\"4122900\",\"0.0-142.0\",\"\",\"\",\"1-4\",\"4723\",\"37\",\"0\",\"Training\",\"Stims/Figures/93-C-30-1.bmp\",\"zasaha\",\"Right\",\"39\",\"9\",\"11\",\"3A\",\"C2\",\"J\",\"139\"
\"\",\"\",\"approach-retreat\",\"143\",\"4129078\",\"0.0-143.0\",\"\",\"\",\"1-4\",\"4657\",\"37\",\"1\",\"Training\",\"Stims/Figures/139-C-20-2.bmp\",\"zasaha\",\"Left\",\"37\",\"9\",\"12\",\"3A\",\"C2\",\"J\",\"140\"
\"\",\"\",\"approach-retreat\",\"144\",\"4135436\",\"0.0-144.0\",\"\",\"\",\"1-4\",\"4838\",\"39\",\"1\",\"Training\",\"Stims/Figures/87-J-10-4.bmp\",\"fa:fasha\",\"Left\",\"39\",\"9\",\"13\",\"3A\",\"C1\",\"J\",\"141\"
\"\",\"\",\"approach-retreat\",\"145\",\"4141491\",\"0.0-145.0\",\"\",\"\",\"1-4\",\"4533\",\"40\",\"1\",\"Training\",\"Stims/Figures/139-J-0-2.bmp\",\"fa:fasha\",\"Up\",\"40\",\"9\",\"14\",\"3A\",\"C1\",\"J\",\"142\"
\"\",\"\",\"approach-retreat\",\"146\",\"4147668\",\"0.0-146.0\",\"\",\"\",\"1-4\",\"4665\",\"38\",\"1\",\"Training\",\"Stims/Figures/27-C-30-1.bmp\",\"zasaha\",\"Up\",\"38\",\"9\",\"15\",\"3A\",\"C2\",\"J\",\"143\"
\"\",\"\",\"approach-retreat\",\"147\",\"4153641\",\"0.0-147.0\",\"\",\"\",\"1-4\",\"4452\",\"39\",\"1\",\"Training\",\"Stims/Figures/102-C-20-4.bmp\",\"zasaha\",\"Right\",\"39\",\"9\",\"16\",\"3A\",\"C2\",\"J\",\"144\"
\"19421\",\"\",\"instructions\",\"148\",\"4173065\",\"0.0-148.0\",\"[{\"\"page_index\"\":0,\"\"viewing_time\"\":19419}]\",\"\",\"\",\"\",\"\",\"\",\"\",\"\",\"\",\"\",\"\",\"\",\"\",\"\",\"\",\"\",\"\"
\"\",\"\",\"approach-retreat\",\"149\",\"4182583\",\"0.0-149.0\",\"\",\"\",\"1-4\",\"7976\",\"40\",\"1\",\"Testing\",\"Stims/Figures/111-C-30-3.bmp\",\"zasaha\",\"Down\",\"40\",\"1\",\"1\",\"3A\",\"C2\",\"J\",\"1\"
\"\",\"\",\"approach-retreat\",\"150\",\"4188990\",\"0.0-150.0\",\"\",\"\",\"1-4\",\"4880\",\"38\",\"1\",\"Testing\",\"Stims/Figures/93-J-0-1.bmp\",\"fa:fasha\",\"Down\",\"38\",\"1\",\"2\",\"3A\",\"C1\",\"J\",\"2\"
\"\",\"\",\"approach-retreat\",\"151\",\"4194939\",\"0.0-151.0\",\"\",\"\",\"1-4\",\"4419\",\"40\",\"1\",\"Testing\",\"Stims/Figures/94-J-0-2.bmp\",\"fa:fasha\",\"Up\",\"40\",\"1\",\"3\",\"3A\",\"C1\",\"J\",\"3\"
\"\",\"\",\"approach-retreat\",\"152\",\"4200725\",\"0.0-152.0\",\"\",\"\",\"1-4\",\"4257\",\"38\",\"1\",\"Testing\",\"Stims/Figures/19-C-20-4.bmp\",\"zasaha\",\"Up\",\"38\",\"1\",\"4\",\"3A\",\"C2\",\"J\",\"4\"
\"\",\"\",\"approach-retreat\",\"153\",\"4209385\",\"0.0-153.0\",\"\",\"\",\"1-4\",\"7129\",\"39\",\"1\",\"Testing\",\"Stims/Figures/94-C-20-2.bmp\",\"zasaha\",\"Right\",\"39\",\"1\",\"5\",\"3A\",\"C2\",\"J\",\"5\"
\"\",\"\",\"approach-retreat\",\"154\",\"4215394\",\"0.0-154.0\",\"\",\"\",\"1-4\",\"4488\",\"38\",\"0\",\"Testing\",\"Stims/Figures/87-C-20-4.bmp\",\"zasaha\",\"Down\",\"40\",\"1\",\"6\",\"3A\",\"C2\",\"J\",\"6\"
\"\",\"\",\"approach-retreat\",\"155\",\"4221458\",\"0.0-155.0\",\"\",\"\",\"1-4\",\"4551\",\"40\",\"1\",\"Testing\",\"Stims/Figures/102-J-10-4.bmp\",\"fa:fasha\",\"Up\",\"40\",\"1\",\"7\",\"3A\",\"C1\",\"J\",\"7\"
\"\",\"\",\"approach-retreat\",\"156\",\"4227543\",\"0.0-156.0\",\"\",\"\",\"1-4\",\"4558\",\"38\",\"0\",\"Testing\",\"Stims/Figures/118-C-20-2.bmp\",\"zasaha\",\"Down\",\"40\",\"1\",\"8\",\"3A\",\"C2\",\"J\",\"8\"
\"\",\"\",\"approach-retreat\",\"157\",\"4235143\",\"0.0-157.0\",\"\",\"\",\"1-4\",\"6085\",\"37\",\"1\",\"Testing\",\"Stims/Figures/144-J-10-3.bmp\",\"fa:fasha\",\"Right\",\"37\",\"1\",\"9\",\"3A\",\"C1\",\"J\",\"9\"
\"\",\"\",\"approach-retreat\",\"158\",\"4241106\",\"0.0-158.0\",\"\",\"\",\"1-4\",\"4440\",\"39\",\"1\",\"Testing\",\"Stims/Figures/44-J-10-3.bmp\",\"fa:fasha\",\"Left\",\"39\",\"1\",\"10\",\"3A\",\"C1\",\"J\",\"10\"
\"\",\"\",\"approach-retreat\",\"159\",\"4247160\",\"0.0-159.0\",\"\",\"\",\"1-4\",\"4544\",\"38\",\"0\",\"Testing\",\"Stims/Figures/118-J-0-2.bmp\",\"fa:fasha\",\"Up\",\"40\",\"1\",\"11\",\"3A\",\"C1\",\"J\",\"11\"
\"\",\"\",\"approach-retreat\",\"160\",\"4252912\",\"0.0-160.0\",\"\",\"\",\"1-4\",\"4205\",\"40\",\"1\",\"Testing\",\"Stims/Figures/139-J-0-2.bmp\",\"fa:fasha\",\"Up\",\"40\",\"1\",\"12\",\"3A\",\"C1\",\"J\",\"12\"
\"\",\"\",\"approach-retreat\",\"161\",\"4260546\",\"0.0-161.0\",\"\",\"\",\"1-4\",\"6123\",\"37\",\"1\",\"Testing\",\"Stims/Figures/87-J-10-4.bmp\",\"fa:fasha\",\"Right\",\"37\",\"1\",\"13\",\"3A\",\"C1\",\"J\",\"13\"
\"\",\"\",\"approach-retreat\",\"162\",\"4267371\",\"0.0-162.0\",\"\",\"\",\"1-4\",\"5300\",\"39\",\"0\",\"Testing\",\"Stims/Figures/102-C-20-4.bmp\",\"zasaha\",\"Left\",\"37\",\"1\",\"14\",\"3A\",\"C2\",\"J\",\"14\"
\"\",\"\",\"approach-retreat\",\"163\",\"4273499\",\"0.0-163.0\",\"\",\"\",\"1-4\",\"4606\",\"39\",\"0\",\"Testing\",\"Stims/Figures/144-C-30-3.bmp\",\"zasaha\",\"Left\",\"37\",\"1\",\"15\",\"3A\",\"C2\",\"J\",\"15\"
\"\",\"\",\"approach-retreat\",\"164\",\"4279503\",\"0.0-164.0\",\"\",\"\",\"1-4\",\"4480\",\"39\",\"1\",\"Testing\",\"Stims/Figures/93-C-30-1.bmp\",\"zasaha\",\"Right\",\"39\",\"1\",\"16\",\"3A\",\"C2\",\"J\",\"16\"
\"\",\"\",\"approach-retreat\",\"165\",\"4285597\",\"0.0-165.0\",\"\",\"\",\"1-4\",\"4566\",\"39\",\"0\",\"Testing\",\"Stims/Figures/111-J-10-3.bmp\",\"fa:fasha\",\"Right\",\"37\",\"1\",\"17\",\"3A\",\"C1\",\"J\",\"17\"
\"\",\"\",\"approach-retreat\",\"166\",\"4291791\",\"0.0-166.0\",\"\",\"\",\"1-4\",\"4685\",\"38\",\"1\",\"Testing\",\"Stims/Figures/27-J-0-1.bmp\",\"fa:fasha\",\"Down\",\"38\",\"1\",\"18\",\"3A\",\"C1\",\"J\",\"18\"
\"\",\"\",\"approach-retreat\",\"167\",\"4298607\",\"0.0-167.0\",\"\",\"\",\"1-4\",\"5252\",\"37\",\"0\",\"Testing\",\"Stims/Figures/19-J-10-4.bmp\",\"fa:fasha\",\"Left\",\"39\",\"1\",\"19\",\"3A\",\"C1\",\"J\",\"19\"
\"\",\"\",\"approach-retreat\",\"168\",\"4305057\",\"0.0-168.0\",\"\",\"\",\"1-4\",\"4925\",\"39\",\"1\",\"Testing\",\"Stims/Figures/139-C-20-2.bmp\",\"zasaha\",\"Right\",\"39\",\"1\",\"20\",\"3A\",\"C2\",\"J\",\"20\"
\"\",\"\",\"approach-retreat\",\"169\",\"4311761\",\"0.0-169.0\",\"\",\"\",\"1-4\",\"5168\",\"39\",\"1\",\"Testing\",\"Stims/Figures/57-J-0-1.bmp\",\"fa:fasha\",\"Left\",\"39\",\"1\",\"21\",\"3A\",\"C1\",\"J\",\"21\"
\"\",\"\",\"approach-retreat\",\"170\",\"4317934\",\"0.0-170.0\",\"\",\"\",\"1-4\",\"4643\",\"38\",\"0\",\"Testing\",\"Stims/Figures/44-C-30-3.bmp\",\"zasaha\",\"Down\",\"40\",\"1\",\"22\",\"3A\",\"C2\",\"J\",\"22\"
\"\",\"\",\"approach-retreat\",\"171\",\"4324156\",\"0.0-171.0\",\"\",\"\",\"1-4\",\"4697\",\"38\",\"1\",\"Testing\",\"Stims/Figures/27-C-30-1.bmp\",\"zasaha\",\"Up\",\"38\",\"1\",\"23\",\"3A\",\"C2\",\"J\",\"23\"
\"\",\"\",\"approach-retreat\",\"172\",\"4330110\",\"0.0-172.0\",\"\",\"\",\"1-4\",\"4445\",\"37\",\"1\",\"Testing\",\"Stims/Figures/57-C-30-1.bmp\",\"zasaha\",\"Left\",\"37\",\"1\",\"24\",\"3A\",\"C2\",\"J\",\"24\"
\"\",\"\",\"approach-retreat\",\"173\",\"4336809\",\"0.0-173.0\",\"\",\"\",\"1-4\",\"5191\",\"39\",\"0\",\"Testing\",\"Stims/Figures/87-J-10-4.bmp\",\"fa:fasha\",\"Right\",\"37\",\"2\",\"1\",\"3A\",\"C1\",\"J\",\"25\"
\"\",\"\",\"approach-retreat\",\"174\",\"4342664\",\"0.0-174.0\",\"\",\"\",\"1-4\",\"4335\",\"39\",\"1\",\"Testing\",\"Stims/Figures/27-J-0-1.bmp\",\"fa:fasha\",\"Left\",\"39\",\"2\",\"2\",\"3A\",\"C1\",\"J\",\"26\"
\"\",\"\",\"approach-retreat\",\"175\",\"4348896\",\"0.0-175.0\",\"\",\"\",\"1-4\",\"4703\",\"37\",\"1\",\"Testing\",\"Stims/Figures/44-J-10-3.bmp\",\"fa:fasha\",\"Right\",\"37\",\"2\",\"3\",\"3A\",\"C1\",\"J\",\"27\"
\"\",\"\",\"approach-retreat\",\"176\",\"4355266\",\"0.0-176.0\",\"\",\"\",\"1-4\",\"4845\",\"38\",\"0\",\"Testing\",\"Stims/Figures/44-C-30-3.bmp\",\"zasaha\",\"Down\",\"40\",\"2\",\"4\",\"3A\",\"C2\",\"J\",\"28\"
\"\",\"\",\"approach-retreat\",\"177\",\"4361052\",\"0.0-177.0\",\"\",\"\",\"1-4\",\"4267\",\"39\",\"1\",\"Testing\",\"Stims/Figures/102-J-10-4.bmp\",\"fa:fasha\",\"Left\",\"39\",\"2\",\"5\",\"3A\",\"C1\",\"J\",\"29\"
\"\",\"\",\"approach-retreat\",\"178\",\"4367043\",\"0.0-178.0\",\"\",\"\",\"1-4\",\"4465\",\"40\",\"1\",\"Testing\",\"Stims/Figures/139-J-0-2.bmp\",\"fa:fasha\",\"Up\",\"40\",\"2\",\"6\",\"3A\",\"C1\",\"J\",\"30\"
\"\",\"\",\"approach-retreat\",\"179\",\"4373839\",\"0.0-179.0\",\"\",\"\",\"1-4\",\"5272\",\"39\",\"0\",\"Testing\",\"Stims/Figures/144-C-30-3.bmp\",\"zasaha\",\"Left\",\"37\",\"2\",\"7\",\"3A\",\"C2\",\"J\",\"31\"
\"\",\"\",\"approach-retreat\",\"180\",\"4379971\",\"0.0-180.0\",\"\",\"\",\"1-4\",\"4606\",\"40\",\"0\",\"Testing\",\"Stims/Figures/94-J-0-2.bmp\",\"fa:fasha\",\"Down\",\"38\",\"2\",\"8\",\"3A\",\"C1\",\"J\",\"32\"
\"\",\"\",\"approach-retreat\",\"181\",\"4386455\",\"0.0-181.0\",\"\",\"\",\"1-4\",\"4962\",\"40\",\"0\",\"Testing\",\"Stims/Figures/87-C-20-4.bmp\",\"zasaha\",\"Up\",\"38\",\"2\",\"9\",\"3A\",\"C2\",\"J\",\"33\"
\"\",\"\",\"approach-retreat\",\"182\",\"4392508\",\"0.0-182.0\",\"\",\"\",\"1-4\",\"4530\",\"37\",\"1\",\"Testing\",\"Stims/Figures/144-J-10-3.bmp\",\"fa:fasha\",\"Right\",\"37\",\"2\",\"10\",\"3A\",\"C1\",\"J\",\"34\"
\"\",\"\",\"approach-retreat\",\"183\",\"4398390\",\"0.0-183.0\",\"\",\"\",\"1-4\",\"4355\",\"37\",\"1\",\"Testing\",\"Stims/Figures/139-C-20-2.bmp\",\"zasaha\",\"Left\",\"37\",\"2\",\"11\",\"3A\",\"C2\",\"J\",\"35\"
\"\",\"\",\"approach-retreat\",\"184\",\"4404319\",\"0.0-184.0\",\"\",\"\",\"1-4\",\"4390\",\"38\",\"1\",\"Testing\",\"Stims/Figures/102-C-20-4.bmp\",\"zasaha\",\"Up\",\"38\",\"2\",\"12\",\"3A\",\"C2\",\"J\",\"36\"
\"\",\"\",\"approach-retreat\",\"185\",\"4411787\",\"0.0-185.0\",\"\",\"\",\"1-4\",\"5938\",\"40\",\"1\",\"Testing\",\"Stims/Figures/111-C-30-3.bmp\",\"zasaha\",\"Down\",\"40\",\"2\",\"13\",\"3A\",\"C2\",\"J\",\"37\"
\"\",\"\",\"approach-retreat\",\"186\",\"4417741\",\"0.0-186.0\",\"\",\"\",\"1-4\",\"4428\",\"38\",\"1\",\"Testing\",\"Stims/Figures/19-J-10-4.bmp\",\"fa:fasha\",\"Down\",\"38\",\"2\",\"14\",\"3A\",\"C1\",\"J\",\"38\"
\"\",\"\",\"approach-retreat\",\"187\",\"4424062\",\"0.0-187.0\",\"\",\"\",\"1-4\",\"4793\",\"37\",\"0\",\"Testing\",\"Stims/Figures/19-C-20-4.bmp\",\"zasaha\",\"Right\",\"39\",\"2\",\"15\",\"3A\",\"C2\",\"J\",\"39\"
\"\",\"\",\"approach-retreat\",\"188\",\"4430584\",\"0.0-188.0\",\"\",\"\",\"1-4\",\"5003\",\"38\",\"1\",\"Testing\",\"Stims/Figures/93-C-30-1.bmp\",\"zasaha\",\"Up\",\"38\",\"2\",\"16\",\"3A\",\"C2\",\"J\",\"40\"
\"\",\"\",\"approach-retreat\",\"189\",\"4437047\",\"0.0-189.0\",\"\",\"\",\"1-4\",\"4941\",\"40\",\"0\",\"Testing\",\"Stims/Figures/118-J-0-2.bmp\",\"fa:fasha\",\"Down\",\"38\",\"2\",\"17\",\"3A\",\"C1\",\"J\",\"41\"
\"\",\"\",\"approach-retreat\",\"190\",\"4443059\",\"0.0-190.0\",\"\",\"\",\"1-4\",\"4489\",\"38\",\"0\",\"Testing\",\"Stims/Figures/111-J-10-3.bmp\",\"fa:fasha\",\"Up\",\"40\",\"2\",\"18\",\"3A\",\"C1\",\"J\",\"42\"
\"\",\"\",\"approach-retreat\",\"191\",\"4449177\",\"0.0-191.0\",\"\",\"\",\"1-4\",\"4594\",\"39\",\"0\",\"Testing\",\"Stims/Figures/93-J-0-1.bmp\",\"fa:fasha\",\"Right\",\"37\",\"2\",\"19\",\"3A\",\"C1\",\"J\",\"43\"
\"\",\"\",\"approach-retreat\",\"192\",\"4455607\",\"0.0-192.0\",\"\",\"\",\"1-4\",\"4879\",\"39\",\"0\",\"Testing\",\"Stims/Figures/27-C-30-1.bmp\",\"zasaha\",\"Left\",\"37\",\"2\",\"20\",\"3A\",\"C2\",\"J\",\"44\"
\"\",\"\",\"approach-retreat\",\"193\",\"4461949\",\"0.0-193.0\",\"\",\"\",\"1-4\",\"4819\",\"37\",\"1\",\"Testing\",\"Stims/Figures/94-C-20-2.bmp\",\"zasaha\",\"Left\",\"37\",\"2\",\"21\",\"3A\",\"C2\",\"J\",\"45\"
\"\",\"\",\"approach-retreat\",\"194\",\"4468379\",\"0.0-194.0\",\"\",\"\",\"1-4\",\"4908\",\"40\",\"1\",\"Testing\",\"Stims/Figures/57-J-0-1.bmp\",\"fa:fasha\",\"Up\",\"40\",\"2\",\"22\",\"3A\",\"C1\",\"J\",\"46\"
\"\",\"\",\"approach-retreat\",\"195\",\"4474982\",\"0.0-195.0\",\"\",\"\",\"1-4\",\"5088\",\"40\",\"1\",\"Testing\",\"Stims/Figures/57-C-30-1.bmp\",\"zasaha\",\"Down\",\"40\",\"2\",\"23\",\"3A\",\"C2\",\"J\",\"47\"
\"\",\"\",\"approach-retreat\",\"196\",\"4481126\",\"0.0-196.0\",\"\",\"\",\"1-4\",\"4604\",\"39\",\"1\",\"Testing\",\"Stims/Figures/118-C-20-2.bmp\",\"zasaha\",\"Right\",\"39\",\"2\",\"24\",\"3A\",\"C2\",\"J\",\"48\"
\"\",\"\",\"approach-retreat\",\"197\",\"4488201\",\"0.0-197.0\",\"\",\"\",\"1-4\",\"5557\",\"40\",\"0\",\"Testing\",\"Stims/Figures/144-J-10-3.bmp\",\"fa:fasha\",\"Down\",\"38\",\"3\",\"1\",\"3A\",\"C1\",\"J\",\"49\"
\"\",\"\",\"approach-retreat\",\"198\",\"4494089\",\"0.0-198.0\",\"\",\"\",\"1-4\",\"4378\",\"40\",\"1\",\"Testing\",\"Stims/Figures/27-C-30-1.bmp\",\"zasaha\",\"Down\",\"40\",\"3\",\"2\",\"3A\",\"C2\",\"J\",\"50\"
\"\",\"\",\"approach-retreat\",\"199\",\"4499811\",\"0.0-199.0\",\"\",\"\",\"1-4\",\"4207\",\"37\",\"1\",\"Testing\",\"Stims/Figures/87-C-20-4.bmp\",\"zasaha\",\"Left\",\"37\",\"3\",\"3\",\"3A\",\"C2\",\"J\",\"51\"
\"\",\"\",\"approach-retreat\",\"200\",\"4506769\",\"0.0-200.0\",\"\",\"\",\"1-4\",\"5437\",\"38\",\"0\",\"Testing\",\"Stims/Figures/118-J-0-2.bmp\",\"fa:fasha\",\"Up\",\"40\",\"3\",\"4\",\"3A\",\"C1\",\"J\",\"52\"
\"\",\"\",\"approach-retreat\",\"201\",\"4512989\",\"0.0-201.0\",\"\",\"\",\"1-4\",\"4692\",\"38\",\"0\",\"Testing\",\"Stims/Figures/93-J-0-1.bmp\",\"fa:fasha\",\"Up\",\"40\",\"3\",\"5\",\"3A\",\"C1\",\"J\",\"53\"
\"\",\"\",\"approach-retreat\",\"202\",\"4519314\",\"0.0-202.0\",\"\",\"\",\"1-4\",\"4806\",\"39\",\"0\",\"Testing\",\"Stims/Figures/94-J-0-2.bmp\",\"fa:fasha\",\"Right\",\"37\",\"3\",\"6\",\"3A\",\"C1\",\"J\",\"54\"
\"\",\"\",\"approach-retreat\",\"203\",\"4525334\",\"0.0-203.0\",\"\",\"\",\"1-4\",\"4496\",\"37\",\"1\",\"Testing\",\"Stims/Figures/57-J-0-1.bmp\",\"fa:fasha\",\"Right\",\"37\",\"3\",\"7\",\"3A\",\"C1\",\"J\",\"55\"
\"\",\"\",\"approach-retreat\",\"204\",\"4531235\",\"0.0-204.0\",\"\",\"\",\"1-4\",\"4377\",\"40\",\"0\",\"Testing\",\"Stims/Figures/19-J-10-4.bmp\",\"fa:fasha\",\"Down\",\"38\",\"3\",\"8\",\"3A\",\"C1\",\"J\",\"56\"
\"\",\"\",\"approach-retreat\",\"205\",\"4537353\",\"0.0-205.0\",\"\",\"\",\"1-4\",\"4584\",\"37\",\"1\",\"Testing\",\"Stims/Figures/118-C-20-2.bmp\",\"zasaha\",\"Left\",\"37\",\"3\",\"9\",\"3A\",\"C2\",\"J\",\"57\"
\"\",\"\",\"approach-retreat\",\"206\",\"4544536\",\"0.0-206.0\",\"\",\"\",\"1-4\",\"5664\",\"37\",\"1\",\"Testing\",\"Stims/Figures/139-C-20-2.bmp\",\"zasaha\",\"Left\",\"37\",\"3\",\"10\",\"3A\",\"C2\",\"J\",\"58\"
\"\",\"\",\"approach-retreat\",\"207\",\"4551347\",\"0.0-207.0\",\"\",\"\",\"1-4\",\"5284\",\"39\",\"1\",\"Testing\",\"Stims/Figures/94-C-20-2.bmp\",\"zasaha\",\"Right\",\"39\",\"3\",\"11\",\"3A\",\"C2\",\"J\",\"59\"
\"\",\"\",\"approach-retreat\",\"208\",\"4558501\",\"0.0-208.0\",\"\",\"\",\"1-4\",\"5631\",\"39\",\"1\",\"Testing\",\"Stims/Figures/111-J-10-3.bmp\",\"fa:fasha\",\"Left\",\"39\",\"3\",\"12\",\"3A\",\"C1\",\"J\",\"60\"
\"\",\"\",\"approach-retreat\",\"209\",\"4568797\",\"0.0-209.0\",\"\",\"\",\"1-4\",\"8785\",\"38\",\"0\",\"Testing\",\"Stims/Figures/44-J-10-3.bmp\",\"fa:fasha\",\"Up\",\"40\",\"3\",\"13\",\"3A\",\"C1\",\"J\",\"61\"
\"\",\"\",\"approach-retreat\",\"210\",\"4574391\",\"0.0-210.0\",\"\",\"\",\"1-4\",\"4076\",\"38\",\"1\",\"Testing\",\"Stims/Figures/44-C-30-3.bmp\",\"zasaha\",\"Up\",\"38\",\"3\",\"14\",\"3A\",\"C2\",\"J\",\"62\"
\"\",\"\",\"approach-retreat\",\"211\",\"4583195\",\"0.0-211.0\",\"\",\"\",\"1-4\",\"7289\",\"38\",\"1\",\"Testing\",\"Stims/Figures/102-J-10-4.bmp\",\"fa:fasha\",\"Down\",\"38\",\"3\",\"15\",\"3A\",\"C1\",\"J\",\"63\"
\"\",\"\",\"approach-retreat\",\"212\",\"4590275\",\"0.0-212.0\",\"\",\"\",\"1-4\",\"5557\",\"38\",\"0\",\"Testing\",\"Stims/Figures/19-C-20-4.bmp\",\"zasaha\",\"Down\",\"40\",\"3\",\"16\",\"3A\",\"C2\",\"J\",\"64\"
\"\",\"\",\"approach-retreat\",\"213\",\"4598555\",\"0.0-213.0\",\"\",\"\",\"1-4\",\"6762\",\"39\",\"1\",\"Testing\",\"Stims/Figures/87-J-10-4.bmp\",\"fa:fasha\",\"Left\",\"39\",\"3\",\"17\",\"3A\",\"C1\",\"J\",\"65\"
\"\",\"\",\"approach-retreat\",\"214\",\"4604684\",\"0.0-214.0\",\"\",\"\",\"1-4\",\"4611\",\"37\",\"0\",\"Testing\",\"Stims/Figures/111-C-30-3.bmp\",\"zasaha\",\"Right\",\"39\",\"3\",\"18\",\"3A\",\"C2\",\"J\",\"66\"
\"\",\"\",\"approach-retreat\",\"215\",\"4612872\",\"0.0-215.0\",\"\",\"\",\"1-4\",\"6661\",\"39\",\"1\",\"Testing\",\"Stims/Figures/93-C-30-1.bmp\",\"zasaha\",\"Right\",\"39\",\"3\",\"19\",\"3A\",\"C2\",\"J\",\"67\"
\"\",\"\",\"approach-retreat\",\"216\",\"4622709\",\"0.0-216.0\",\"\",\"\",\"1-4\",\"8310\",\"38\",\"0\",\"Testing\",\"Stims/Figures/139-J-0-2.bmp\",\"fa:fasha\",\"Up\",\"40\",\"3\",\"20\",\"3A\",\"C1\",\"J\",\"68\"
\"\",\"\",\"approach-retreat\",\"217\",\"4629142\",\"0.0-217.0\",\"\",\"\",\"1-4\",\"4912\",\"38\",\"1\",\"Testing\",\"Stims/Figures/144-C-30-3.bmp\",\"zasaha\",\"Up\",\"38\",\"3\",\"21\",\"3A\",\"C2\",\"J\",\"69\"
\"\",\"\",\"approach-retreat\",\"218\",\"4635328\",\"0.0-218.0\",\"\",\"\",\"1-4\",\"4657\",\"39\",\"1\",\"Testing\",\"Stims/Figures/27-J-0-1.bmp\",\"fa:fasha\",\"Left\",\"39\",\"3\",\"22\",\"3A\",\"C1\",\"J\",\"70\"
\"\",\"\",\"approach-retreat\",\"219\",\"4641361\",\"0.0-219.0\",\"\",\"\",\"1-4\",\"4503\",\"38\",\"0\",\"Testing\",\"Stims/Figures/102-C-20-4.bmp\",\"zasaha\",\"Down\",\"40\",\"3\",\"23\",\"3A\",\"C2\",\"J\",\"71\"
\"\",\"\",\"approach-retreat\",\"220\",\"4647466\",\"0.0-220.0\",\"\",\"\",\"1-4\",\"4581\",\"39\",\"1\",\"Testing\",\"Stims/Figures/57-C-30-1.bmp\",\"zasaha\",\"Right\",\"39\",\"3\",\"24\",\"3A\",\"C2\",\"J\",\"72\"
\"\",\"\",\"approach-retreat\",\"221\",\"4654210\",\"0.0-221.0\",\"\",\"\",\"1-4\",\"5229\",\"38\",\"0\",\"Testing\",\"Stims/Figures/19-C-20-4.bmp\",\"zasaha\",\"Down\",\"40\",\"4\",\"1\",\"3A\",\"C2\",\"J\",\"73\"
\"\",\"\",\"approach-retreat\",\"222\",\"4660699\",\"0.0-222.0\",\"\",\"\",\"1-4\",\"4964\",\"37\",\"0\",\"Testing\",\"Stims/Figures/144-C-30-3.bmp\",\"zasaha\",\"Right\",\"39\",\"4\",\"2\",\"3A\",\"C2\",\"J\",\"74\"
\"\",\"\",\"approach-retreat\",\"223\",\"4667049\",\"0.0-223.0\",\"\",\"\",\"1-4\",\"4830\",\"40\",\"1\",\"Testing\",\"Stims/Figures/57-C-30-1.bmp\",\"zasaha\",\"Down\",\"40\",\"4\",\"3\",\"3A\",\"C2\",\"J\",\"75\"
\"\",\"\",\"approach-retreat\",\"224\",\"4673224\",\"0.0-224.0\",\"\",\"\",\"1-4\",\"4649\",\"37\",\"1\",\"Testing\",\"Stims/Figures/102-C-20-4.bmp\",\"zasaha\",\"Left\",\"37\",\"4\",\"4\",\"3A\",\"C2\",\"J\",\"76\"
\"\",\"\",\"approach-retreat\",\"225\",\"4679434\",\"0.0-225.0\",\"\",\"\",\"1-4\",\"4700\",\"40\",\"1\",\"Testing\",\"Stims/Figures/139-J-0-2.bmp\",\"fa:fasha\",\"Up\",\"40\",\"4\",\"5\",\"3A\",\"C1\",\"J\",\"77\"
\"\",\"\",\"approach-retreat\",\"226\",\"4689911\",\"0.0-226.0\",\"\",\"\",\"1-4\",\"8950\",\"38\",\"1\",\"Testing\",\"Stims/Figures/144-J-10-3.bmp\",\"fa:fasha\",\"Down\",\"38\",\"4\",\"6\",\"3A\",\"C1\",\"J\",\"78\"
\"\",\"\",\"approach-retreat\",\"227\",\"4695995\",\"0.0-227.0\",\"\",\"\",\"1-4\",\"4556\",\"38\",\"0\",\"Testing\",\"Stims/Figures/118-J-0-2.bmp\",\"fa:fasha\",\"Up\",\"40\",\"4\",\"7\",\"3A\",\"C1\",\"J\",\"79\"
\"\",\"\",\"approach-retreat\",\"228\",\"4701634\",\"0.0-228.0\",\"\",\"\",\"1-4\",\"4119\",\"38\",\"0\",\"Testing\",\"Stims/Figures/93-J-0-1.bmp\",\"fa:fasha\",\"Up\",\"40\",\"4\",\"8\",\"3A\",\"C1\",\"J\",\"80\"
\"\",\"\",\"approach-retreat\",\"229\",\"4709202\",\"0.0-229.0\",\"\",\"\",\"1-4\",\"6057\",\"39\",\"1\",\"Testing\",\"Stims/Figures/57-J-0-1.bmp\",\"fa:fasha\",\"Left\",\"39\",\"4\",\"9\",\"3A\",\"C1\",\"J\",\"81\"
\"\",\"\",\"approach-retreat\",\"230\",\"4717245\",\"0.0-230.0\",\"\",\"\",\"1-4\",\"6522\",\"40\",\"1\",\"Testing\",\"Stims/Figures/44-J-10-3.bmp\",\"fa:fasha\",\"Up\",\"40\",\"4\",\"10\",\"3A\",\"C1\",\"J\",\"82\"
\"\",\"\",\"approach-retreat\",\"231\",\"4723717\",\"0.0-231.0\",\"\",\"\",\"1-4\",\"4949\",\"40\",\"0\",\"Testing\",\"Stims/Figures/102-J-10-4.bmp\",\"fa:fasha\",\"Down\",\"38\",\"4\",\"11\",\"3A\",\"C1\",\"J\",\"83\"
\"\",\"\",\"approach-retreat\",\"232\",\"4730567\",\"0.0-232.0\",\"\",\"\",\"1-4\",\"5324\",\"40\",\"0\",\"Testing\",\"Stims/Figures/27-C-30-1.bmp\",\"zasaha\",\"Up\",\"38\",\"4\",\"12\",\"3A\",\"C2\",\"J\",\"84\"
\"\",\"\",\"approach-retreat\",\"233\",\"4736778\",\"0.0-233.0\",\"\",\"\",\"1-4\",\"4677\",\"39\",\"1\",\"Testing\",\"Stims/Figures/118-C-20-2.bmp\",\"zasaha\",\"Right\",\"39\",\"4\",\"13\",\"3A\",\"C2\",\"J\",\"85\"
\"\",\"\",\"approach-retreat\",\"234\",\"4743028\",\"0.0-234.0\",\"\",\"\",\"1-4\",\"4733\",\"38\",\"1\",\"Testing\",\"Stims/Figures/139-C-20-2.bmp\",\"zasaha\",\"Up\",\"38\",\"4\",\"14\",\"3A\",\"C2\",\"J\",\"86\"
\"\",\"\",\"approach-retreat\",\"235\",\"4749278\",\"0.0-235.0\",\"\",\"\",\"1-4\",\"4727\",\"39\",\"0\",\"Testing\",\"Stims/Figures/19-J-10-4.bmp\",\"fa:fasha\",\"Right\",\"37\",\"4\",\"15\",\"3A\",\"C1\",\"J\",\"87\"
\"\",\"\",\"approach-retreat\",\"236\",\"4755597\",\"0.0-236.0\",\"\",\"\",\"1-4\",\"4800\",\"37\",\"0\",\"Testing\",\"Stims/Figures/94-J-0-2.bmp\",\"fa:fasha\",\"Left\",\"39\",\"4\",\"16\",\"3A\",\"C1\",\"J\",\"88\"
\"\",\"\",\"approach-retreat\",\"237\",\"4761573\",\"0.0-237.0\",\"\",\"\",\"1-4\",\"4461\",\"39\",\"1\",\"Testing\",\"Stims/Figures/87-C-20-4.bmp\",\"zasaha\",\"Right\",\"39\",\"4\",\"17\",\"3A\",\"C2\",\"J\",\"89\"
\"\",\"\",\"approach-retreat\",\"238\",\"4767444\",\"0.0-238.0\",\"\",\"\",\"1-4\",\"4354\",\"38\",\"0\",\"Testing\",\"Stims/Figures/44-C-30-3.bmp\",\"zasaha\",\"Down\",\"40\",\"4\",\"18\",\"3A\",\"C2\",\"J\",\"90\"
\"\",\"\",\"approach-retreat\",\"239\",\"4774586\",\"0.0-239.0\",\"\",\"\",\"1-4\",\"5618\",\"39\",\"1\",\"Testing\",\"Stims/Figures/111-C-30-3.bmp\",\"zasaha\",\"Right\",\"39\",\"4\",\"19\",\"3A\",\"C2\",\"J\",\"91\"
\"\",\"\",\"approach-retreat\",\"240\",\"4780440\",\"0.0-240.0\",\"\",\"\",\"1-4\",\"4328\",\"38\",\"0\",\"Testing\",\"Stims/Figures/93-C-30-1.bmp\",\"zasaha\",\"Down\",\"40\",\"4\",\"20\",\"3A\",\"C2\",\"J\",\"92\"
\"\",\"\",\"approach-retreat\",\"241\",\"4786613\",\"0.0-241.0\",\"\",\"\",\"1-4\",\"4651\",\"37\",\"1\",\"Testing\",\"Stims/Figures/94-C-20-2.bmp\",\"zasaha\",\"Left\",\"37\",\"4\",\"21\",\"3A\",\"C2\",\"J\",\"93\"
\"\",\"\",\"approach-retreat\",\"242\",\"4792839\",\"0.0-242.0\",\"\",\"\",\"1-4\",\"4696\",\"37\",\"0\",\"Testing\",\"Stims/Figures/27-J-0-1.bmp\",\"fa:fasha\",\"Left\",\"39\",\"4\",\"22\",\"3A\",\"C1\",\"J\",\"94\"
\"\",\"\",\"approach-retreat\",\"243\",\"4802855\",\"0.0-243.0\",\"\",\"\",\"1-4\",\"8489\",\"39\",\"1\",\"Testing\",\"Stims/Figures/111-J-10-3.bmp\",\"fa:fasha\",\"Left\",\"39\",\"4\",\"23\",\"3A\",\"C1\",\"J\",\"95\"
\"\",\"\",\"approach-retreat\",\"244\",\"4809583\",\"0.0-244.0\",\"\",\"\",\"1-4\",\"5201\",\"37\",\"1\",\"Testing\",\"Stims/Figures/87-J-10-4.bmp\",\"fa:fasha\",\"Right\",\"37\",\"4\",\"24\",\"3A\",\"C1\",\"J\",\"96\"
\"25393\",\"\",\"survey-text\",\"245\",\"4834997\",\"0.0-245.0\",\"\",\"{\"\"Q0\"\":\"\"\"\"}\",\"\",\"\",\"\",\"\",\"\",\"\",\"\",\"\",\"\",\"\",\"\",\"\",\"\",\"\",\"\"
