\"rt\",\"key_press\",\"trial_type\",\"trial_index\",\"time_elapsed\",\"internal_node_id\",\"view_history\",\"responses\",\"Id\",\"Rt\",\"ResKeyCode\",\"ResCorr\",\"TrialType2\",\"Image\",\"Label\",\"Location\",\"CorrectResponse\",\"Block\",\"BlockTrial\",\"Condition\",\"LabelType\",\"Subcondition\",\"trialNum\"
\"63712\",\"32\",\"text\",\"0\",\"63723\",\"0.0-0.0-0.0\",\"\",\"\",\"\",\"\",\"\",\"\",\"\",\"\",\"\",\"\",\"\",\"\",\"\",\"\",\"\",\"\",\"\"
\"69460\",\"\",\"instructions\",\"1\",\"133189\",\"0.0-1.0\",\"[{\"\"page_index\"\":0,\"\"viewing_time\"\":69458}]\",\"\",\"\",\"\",\"\",\"\",\"\",\"\",\"\",\"\",\"\",\"\",\"\",\"\",\"\",\"\",\"\"
\"31673\",\"\",\"survey-multi-choice\",\"2\",\"164945\",\"0.0-2.0\",\"\",\"{\"\"Q0\"\":\"\"Da\"\",\"\"Q1\"\":\"\"Da\"\",\"\"Q2\"\":\"\"Da\"\",\"\"Q3\"\":\"\"Ne\"\",\"\"Q4\"\":\"\"Da\"\",\"\"Q5\"\":\"\"Da\"\"}\",\"\",\"\",\"\",\"\",\"\",\"\",\"\",\"\",\"\",\"\",\"\",\"\",\"\",\"\",\"\"
\"\",\"\",\"bio\",\"3\",\"173647\",\"0.0-3.0\",\"\",\"{\"\"age\"\":\"\"19\"\",\"\"gender\"\":\"\"m\"\",\"\"specify\"\":\"\"\"\"}\",\"\",\"\",\"\",\"\",\"\",\"\",\"\",\"\",\"\",\"\",\"\",\"\",\"\",\"\",\"\"
\"\",\"\",\"approach-retreat\",\"4\",\"180089\",\"0.0-4.0\",\"\",\"\",\"3-4\",\"4925\",\"38\",\"0\",\"Training\",\"Stims/Figures/102-J-10-4.bmp\",\"na:lala\",\"Down\",\"40\",\"1\",\"1\",\"5\",\"S\",\"C\",\"1\"
\"\",\"\",\"approach-retreat\",\"5\",\"186012\",\"0.0-5.0\",\"\",\"\",\"3-4\",\"4396\",\"38\",\"1\",\"Training\",\"Stims/Figures/139-J-0-2.bmp\",\"na:la:la\",\"Up\",\"38\",\"1\",\"2\",\"5\",\"S\",\"C\",\"2\"
\"\",\"\",\"approach-retreat\",\"6\",\"191682\",\"0.0-6.0\",\"\",\"\",\"3-4\",\"4134\",\"40\",\"1\",\"Training\",\"Stims/Figures/44-C-30-3.bmp\",\"taka:ka\",\"Up\",\"40\",\"1\",\"3\",\"5\",\"P\",\"C\",\"3\"
\"\",\"\",\"approach-retreat\",\"7\",\"197390\",\"0.0-7.0\",\"\",\"\",\"3-4\",\"4169\",\"39\",\"1\",\"Training\",\"Stims/Figures/139-C-20-2.bmp\",\"takata\",\"Left\",\"39\",\"1\",\"4\",\"5\",\"P\",\"C\",\"4\"
\"\",\"\",\"approach-retreat\",\"8\",\"203132\",\"0.0-8.0\",\"\",\"\",\"3-4\",\"4218\",\"37\",\"0\",\"Training\",\"Stims/Figures/118-J-0-2.bmp\",\"nama:la\",\"Right\",\"39\",\"1\",\"5\",\"5\",\"S\",\"C\",\"5\"
\"\",\"\",\"approach-retreat\",\"9\",\"208810\",\"0.0-9.0\",\"\",\"\",\"3-4\",\"4155\",\"39\",\"1\",\"Training\",\"Stims/Figures/57-J-0-1.bmp\",\"na:ma:la\",\"Right\",\"39\",\"1\",\"6\",\"5\",\"S\",\"C\",\"6\"
\"\",\"\",\"approach-retreat\",\"10\",\"214640\",\"0.0-10.0\",\"\",\"\",\"3-4\",\"4303\",\"38\",\"1\",\"Training\",\"Stims/Figures/27-C-30-1.bmp\",\"pa:ka:ta\",\"Down\",\"38\",\"1\",\"7\",\"5\",\"P\",\"C\",\"7\"
\"\",\"\",\"approach-retreat\",\"11\",\"220185\",\"0.0-11.0\",\"\",\"\",\"3-4\",\"4019\",\"39\",\"0\",\"Training\",\"Stims/Figures/7-J-10-4.bmp\",\"na:la:na\",\"Left\",\"37\",\"1\",\"8\",\"5\",\"S\",\"C\",\"8\"
\"\",\"\",\"approach-retreat\",\"12\",\"226574\",\"0.0-12.0\",\"\",\"\",\"3-4\",\"4862\",\"40\",\"0\",\"Training\",\"Stims/Figures/44-J-10-3.bmp\",\"ma:la:na\",\"Up\",\"38\",\"1\",\"9\",\"5\",\"S\",\"C\",\"9\"
\"\",\"\",\"approach-retreat\",\"13\",\"232315\",\"0.0-13.0\",\"\",\"\",\"3-4\",\"4218\",\"37\",\"1\",\"Training\",\"Stims/Figures/118-C-20-2.bmp\",\"papa:ta\",\"Right\",\"37\",\"1\",\"10\",\"5\",\"P\",\"C\",\"10\"
\"\",\"\",\"approach-retreat\",\"14\",\"239159\",\"0.0-14.0\",\"\",\"\",\"3-4\",\"5307\",\"40\",\"1\",\"Training\",\"Stims/Figures/27-J-0-1.bmp\",\"mama:la\",\"Down\",\"40\",\"1\",\"11\",\"5\",\"S\",\"C\",\"11\"
\"\",\"\",\"approach-retreat\",\"15\",\"245517\",\"0.0-15.0\",\"\",\"\",\"3-4\",\"4834\",\"40\",\"1\",\"Training\",\"Stims/Figures/102-C-20-4.bmp\",\"taka:ta\",\"Up\",\"40\",\"1\",\"12\",\"5\",\"P\",\"C\",\"12\"
\"\",\"\",\"approach-retreat\",\"16\",\"251349\",\"0.0-16.0\",\"\",\"\",\"3-4\",\"4306\",\"39\",\"0\",\"Training\",\"Stims/Figures/7-C-20-4.bmp\",\"paka:ta\",\"Right\",\"37\",\"1\",\"13\",\"5\",\"P\",\"C\",\"13\"
\"\",\"\",\"approach-retreat\",\"17\",\"257094\",\"0.0-17.0\",\"\",\"\",\"3-4\",\"4208\",\"39\",\"1\",\"Training\",\"Stims/Figures/100-C-30-3.bmp\",\"pakata\",\"Left\",\"39\",\"1\",\"14\",\"5\",\"P\",\"C\",\"14\"
\"\",\"\",\"approach-retreat\",\"18\",\"262788\",\"0.0-18.0\",\"\",\"\",\"3-4\",\"4168\",\"37\",\"1\",\"Training\",\"Stims/Figures/100-J-10-3.bmp\",\"ma:ma:la\",\"Left\",\"37\",\"1\",\"15\",\"5\",\"S\",\"C\",\"15\"
\"\",\"\",\"approach-retreat\",\"19\",\"269028\",\"0.0-19.0\",\"\",\"\",\"3-4\",\"4718\",\"40\",\"0\",\"Training\",\"Stims/Figures/57-C-30-1.bmp\",\"tapa:ka\",\"Down\",\"38\",\"1\",\"16\",\"5\",\"P\",\"C\",\"16\"
\"\",\"\",\"approach-retreat\",\"20\",\"274612\",\"0.0-20.0\",\"\",\"\",\"3-4\",\"4060\",\"40\",\"1\",\"Training\",\"Stims/Figures/139-J-0-2.bmp\",\"na:la:la\",\"Down\",\"40\",\"2\",\"1\",\"5\",\"S\",\"C\",\"17\"
\"\",\"\",\"approach-retreat\",\"21\",\"280446\",\"0.0-21.0\",\"\",\"\",\"3-4\",\"4303\",\"39\",\"1\",\"Training\",\"Stims/Figures/27-C-30-1.bmp\",\"pa:ka:ta\",\"Left\",\"39\",\"2\",\"2\",\"5\",\"P\",\"C\",\"18\"
\"\",\"\",\"approach-retreat\",\"22\",\"286484\",\"0.0-22.0\",\"\",\"\",\"3-4\",\"4527\",\"39\",\"1\",\"Training\",\"Stims/Figures/44-J-10-3.bmp\",\"ma:la:na\",\"Right\",\"39\",\"2\",\"3\",\"5\",\"S\",\"C\",\"19\"
\"\",\"\",\"approach-retreat\",\"23\",\"292067\",\"0.0-23.0\",\"\",\"\",\"3-4\",\"4060\",\"37\",\"1\",\"Training\",\"Stims/Figures/100-J-10-3.bmp\",\"ma:ma:la\",\"Left\",\"37\",\"2\",\"4\",\"5\",\"S\",\"C\",\"20\"
\"\",\"\",\"approach-retreat\",\"24\",\"297771\",\"0.0-24.0\",\"\",\"\",\"3-4\",\"4173\",\"38\",\"0\",\"Training\",\"Stims/Figures/57-C-30-1.bmp\",\"tapa:ka\",\"Up\",\"40\",\"2\",\"5\",\"5\",\"P\",\"C\",\"21\"
\"\",\"\",\"approach-retreat\",\"25\",\"303372\",\"0.0-25.0\",\"\",\"\",\"3-4\",\"4079\",\"40\",\"0\",\"Training\",\"Stims/Figures/118-C-20-2.bmp\",\"papa:ta\",\"Down\",\"38\",\"2\",\"6\",\"5\",\"P\",\"C\",\"22\"
\"\",\"\",\"approach-retreat\",\"26\",\"309142\",\"0.0-26.0\",\"\",\"\",\"3-4\",\"4248\",\"38\",\"1\",\"Training\",\"Stims/Figures/7-J-10-4.bmp\",\"na:la:na\",\"Up\",\"38\",\"2\",\"7\",\"5\",\"S\",\"C\",\"23\"
\"\",\"\",\"approach-retreat\",\"27\",\"314978\",\"0.0-27.0\",\"\",\"\",\"3-4\",\"4309\",\"38\",\"1\",\"Training\",\"Stims/Figures/7-C-20-4.bmp\",\"paka:ta\",\"Down\",\"38\",\"2\",\"8\",\"5\",\"P\",\"C\",\"24\"
\"\",\"\",\"approach-retreat\",\"28\",\"320673\",\"0.0-28.0\",\"\",\"\",\"3-4\",\"4167\",\"39\",\"0\",\"Training\",\"Stims/Figures/139-C-20-2.bmp\",\"takata\",\"Right\",\"37\",\"2\",\"9\",\"5\",\"P\",\"C\",\"25\"
\"\",\"\",\"approach-retreat\",\"29\",\"326357\",\"0.0-29.0\",\"\",\"\",\"3-4\",\"4160\",\"37\",\"1\",\"Training\",\"Stims/Figures/57-J-0-1.bmp\",\"na:ma:la\",\"Left\",\"37\",\"2\",\"10\",\"5\",\"S\",\"C\",\"26\"
\"\",\"\",\"approach-retreat\",\"30\",\"332153\",\"0.0-30.0\",\"\",\"\",\"3-4\",\"4272\",\"39\",\"0\",\"Training\",\"Stims/Figures/102-C-20-4.bmp\",\"taka:ta\",\"Right\",\"37\",\"2\",\"11\",\"5\",\"P\",\"C\",\"27\"
\"\",\"\",\"approach-retreat\",\"31\",\"338080\",\"0.0-31.0\",\"\",\"\",\"3-4\",\"4401\",\"37\",\"0\",\"Training\",\"Stims/Figures/102-J-10-4.bmp\",\"na:lala\",\"Right\",\"39\",\"2\",\"12\",\"5\",\"S\",\"C\",\"28\"
\"\",\"\",\"approach-retreat\",\"32\",\"343942\",\"0.0-32.0\",\"\",\"\",\"3-4\",\"4327\",\"38\",\"1\",\"Training\",\"Stims/Figures/100-C-30-3.bmp\",\"pakata\",\"Down\",\"38\",\"2\",\"13\",\"5\",\"P\",\"C\",\"29\"
\"\",\"\",\"approach-retreat\",\"33\",\"350001\",\"0.0-33.0\",\"\",\"\",\"3-4\",\"4524\",\"38\",\"1\",\"Training\",\"Stims/Figures/27-J-0-1.bmp\",\"mama:la\",\"Up\",\"38\",\"2\",\"14\",\"5\",\"S\",\"C\",\"30\"
\"\",\"\",\"approach-retreat\",\"34\",\"356210\",\"0.0-34.0\",\"\",\"\",\"3-4\",\"4691\",\"40\",\"1\",\"Training\",\"Stims/Figures/44-C-30-3.bmp\",\"taka:ka\",\"Up\",\"40\",\"2\",\"15\",\"5\",\"P\",\"C\",\"31\"
\"\",\"\",\"approach-retreat\",\"35\",\"361773\",\"0.0-35.0\",\"\",\"\",\"3-4\",\"4039\",\"37\",\"1\",\"Training\",\"Stims/Figures/118-J-0-2.bmp\",\"nama:la\",\"Left\",\"37\",\"2\",\"16\",\"5\",\"S\",\"C\",\"32\"
\"\",\"\",\"approach-retreat\",\"36\",\"367511\",\"0.0-36.0\",\"\",\"\",\"3-4\",\"4213\",\"40\",\"1\",\"Training\",\"Stims/Figures/102-J-10-4.bmp\",\"na:lala\",\"Down\",\"40\",\"3\",\"1\",\"5\",\"S\",\"C\",\"33\"
\"\",\"\",\"approach-retreat\",\"37\",\"373617\",\"0.0-37.0\",\"\",\"\",\"3-4\",\"4576\",\"37\",\"1\",\"Training\",\"Stims/Figures/118-C-20-2.bmp\",\"papa:ta\",\"Right\",\"37\",\"3\",\"2\",\"5\",\"P\",\"C\",\"34\"
\"\",\"\",\"approach-retreat\",\"38\",\"379840\",\"0.0-38.0\",\"\",\"\",\"3-4\",\"4698\",\"38\",\"1\",\"Training\",\"Stims/Figures/7-C-20-4.bmp\",\"paka:ta\",\"Down\",\"38\",\"3\",\"3\",\"5\",\"P\",\"C\",\"35\"
\"\",\"\",\"approach-retreat\",\"39\",\"386548\",\"0.0-39.0\",\"\",\"\",\"3-4\",\"5171\",\"38\",\"1\",\"Training\",\"Stims/Figures/139-C-20-2.bmp\",\"takata\",\"Down\",\"38\",\"3\",\"4\",\"5\",\"P\",\"C\",\"36\"
\"\",\"\",\"approach-retreat\",\"40\",\"392115\",\"0.0-40.0\",\"\",\"\",\"3-4\",\"4045\",\"40\",\"1\",\"Training\",\"Stims/Figures/44-C-30-3.bmp\",\"taka:ka\",\"Up\",\"40\",\"3\",\"5\",\"5\",\"P\",\"C\",\"37\"
\"\",\"\",\"approach-retreat\",\"41\",\"398379\",\"0.0-41.0\",\"\",\"\",\"3-4\",\"4741\",\"37\",\"1\",\"Training\",\"Stims/Figures/139-J-0-2.bmp\",\"na:la:la\",\"Left\",\"37\",\"3\",\"6\",\"5\",\"S\",\"C\",\"38\"
\"\",\"\",\"approach-retreat\",\"42\",\"403994\",\"0.0-42.0\",\"\",\"\",\"3-4\",\"4080\",\"38\",\"1\",\"Training\",\"Stims/Figures/100-C-30-3.bmp\",\"pakata\",\"Down\",\"38\",\"3\",\"7\",\"5\",\"P\",\"C\",\"39\"
\"\",\"\",\"approach-retreat\",\"43\",\"409667\",\"0.0-43.0\",\"\",\"\",\"3-4\",\"4140\",\"37\",\"1\",\"Training\",\"Stims/Figures/57-C-30-1.bmp\",\"tapa:ka\",\"Right\",\"37\",\"3\",\"8\",\"5\",\"P\",\"C\",\"40\"
\"\",\"\",\"approach-retreat\",\"44\",\"415247\",\"0.0-44.0\",\"\",\"\",\"3-4\",\"4043\",\"37\",\"1\",\"Training\",\"Stims/Figures/7-J-10-4.bmp\",\"na:la:na\",\"Left\",\"37\",\"3\",\"9\",\"5\",\"S\",\"C\",\"41\"
\"\",\"\",\"approach-retreat\",\"45\",\"420941\",\"0.0-45.0\",\"\",\"\",\"3-4\",\"4164\",\"39\",\"1\",\"Training\",\"Stims/Figures/100-J-10-3.bmp\",\"ma:ma:la\",\"Right\",\"39\",\"3\",\"10\",\"5\",\"S\",\"C\",\"42\"
\"\",\"\",\"approach-retreat\",\"46\",\"426607\",\"0.0-46.0\",\"\",\"\",\"3-4\",\"4143\",\"39\",\"1\",\"Training\",\"Stims/Figures/102-C-20-4.bmp\",\"taka:ta\",\"Left\",\"39\",\"3\",\"11\",\"5\",\"P\",\"C\",\"43\"
\"\",\"\",\"approach-retreat\",\"47\",\"432660\",\"0.0-47.0\",\"\",\"\",\"3-4\",\"4524\",\"39\",\"1\",\"Training\",\"Stims/Figures/27-C-30-1.bmp\",\"pa:ka:ta\",\"Left\",\"39\",\"3\",\"12\",\"5\",\"P\",\"C\",\"44\"
\"\",\"\",\"approach-retreat\",\"48\",\"438428\",\"0.0-48.0\",\"\",\"\",\"3-4\",\"4232\",\"39\",\"1\",\"Training\",\"Stims/Figures/27-J-0-1.bmp\",\"mama:la\",\"Right\",\"39\",\"3\",\"13\",\"5\",\"S\",\"C\",\"45\"
\"\",\"\",\"approach-retreat\",\"49\",\"444286\",\"0.0-49.0\",\"\",\"\",\"3-4\",\"4333\",\"38\",\"1\",\"Training\",\"Stims/Figures/44-J-10-3.bmp\",\"ma:la:na\",\"Up\",\"38\",\"3\",\"14\",\"5\",\"S\",\"C\",\"46\"
\"\",\"\",\"approach-retreat\",\"50\",\"450676\",\"0.0-50.0\",\"\",\"\",\"3-4\",\"4859\",\"38\",\"1\",\"Training\",\"Stims/Figures/118-J-0-2.bmp\",\"nama:la\",\"Up\",\"38\",\"3\",\"15\",\"5\",\"S\",\"C\",\"47\"
\"\",\"\",\"approach-retreat\",\"51\",\"456544\",\"0.0-51.0\",\"\",\"\",\"3-4\",\"4334\",\"38\",\"1\",\"Training\",\"Stims/Figures/57-J-0-1.bmp\",\"na:ma:la\",\"Up\",\"38\",\"3\",\"16\",\"5\",\"S\",\"C\",\"48\"
\"\",\"\",\"approach-retreat\",\"52\",\"462170\",\"0.0-52.0\",\"\",\"\",\"3-4\",\"4097\",\"37\",\"1\",\"Training\",\"Stims/Figures/118-C-20-2.bmp\",\"papa:ta\",\"Right\",\"37\",\"4\",\"1\",\"5\",\"P\",\"C\",\"49\"
\"\",\"\",\"approach-retreat\",\"53\",\"468412\",\"0.0-53.0\",\"\",\"\",\"3-4\",\"4712\",\"38\",\"1\",\"Training\",\"Stims/Figures/102-J-10-4.bmp\",\"na:lala\",\"Up\",\"38\",\"4\",\"2\",\"5\",\"S\",\"C\",\"50\"
\"\",\"\",\"approach-retreat\",\"54\",\"474528\",\"0.0-54.0\",\"\",\"\",\"3-4\",\"4586\",\"37\",\"1\",\"Training\",\"Stims/Figures/57-C-30-1.bmp\",\"tapa:ka\",\"Right\",\"37\",\"4\",\"3\",\"5\",\"P\",\"C\",\"51\"
\"\",\"\",\"approach-retreat\",\"55\",\"480567\",\"0.0-55.0\",\"\",\"\",\"3-4\",\"4509\",\"40\",\"1\",\"Training\",\"Stims/Figures/118-J-0-2.bmp\",\"nama:la\",\"Down\",\"40\",\"4\",\"4\",\"5\",\"S\",\"C\",\"52\"
\"\",\"\",\"approach-retreat\",\"56\",\"487068\",\"0.0-56.0\",\"\",\"\",\"3-4\",\"4966\",\"38\",\"1\",\"Training\",\"Stims/Figures/7-J-10-4.bmp\",\"na:la:na\",\"Up\",\"38\",\"4\",\"5\",\"5\",\"S\",\"C\",\"53\"
\"\",\"\",\"approach-retreat\",\"57\",\"493024\",\"0.0-57.0\",\"\",\"\",\"3-4\",\"4425\",\"38\",\"1\",\"Training\",\"Stims/Figures/100-C-30-3.bmp\",\"pakata\",\"Down\",\"38\",\"4\",\"6\",\"5\",\"P\",\"C\",\"54\"
\"\",\"\",\"approach-retreat\",\"58\",\"498858\",\"0.0-58.0\",\"\",\"\",\"3-4\",\"4309\",\"38\",\"1\",\"Training\",\"Stims/Figures/57-J-0-1.bmp\",\"na:ma:la\",\"Up\",\"38\",\"4\",\"7\",\"5\",\"S\",\"C\",\"55\"
\"\",\"\",\"approach-retreat\",\"59\",\"504592\",\"0.0-59.0\",\"\",\"\",\"3-4\",\"4208\",\"38\",\"1\",\"Training\",\"Stims/Figures/100-J-10-3.bmp\",\"ma:ma:la\",\"Up\",\"38\",\"4\",\"8\",\"5\",\"S\",\"C\",\"56\"
\"\",\"\",\"approach-retreat\",\"60\",\"510484\",\"0.0-60.0\",\"\",\"\",\"3-4\",\"4364\",\"38\",\"1\",\"Training\",\"Stims/Figures/139-C-20-2.bmp\",\"takata\",\"Down\",\"38\",\"4\",\"9\",\"5\",\"P\",\"C\",\"57\"
\"\",\"\",\"approach-retreat\",\"61\",\"516391\",\"0.0-61.0\",\"\",\"\",\"3-4\",\"4384\",\"37\",\"1\",\"Training\",\"Stims/Figures/44-J-10-3.bmp\",\"ma:la:na\",\"Left\",\"37\",\"4\",\"10\",\"5\",\"S\",\"C\",\"58\"
\"\",\"\",\"approach-retreat\",\"62\",\"522083\",\"0.0-62.0\",\"\",\"\",\"3-4\",\"4162\",\"39\",\"1\",\"Training\",\"Stims/Figures/44-C-30-3.bmp\",\"taka:ka\",\"Left\",\"39\",\"4\",\"11\",\"5\",\"P\",\"C\",\"59\"
\"\",\"\",\"approach-retreat\",\"63\",\"527830\",\"0.0-63.0\",\"\",\"\",\"3-4\",\"4221\",\"37\",\"1\",\"Training\",\"Stims/Figures/27-J-0-1.bmp\",\"mama:la\",\"Left\",\"37\",\"4\",\"12\",\"5\",\"S\",\"C\",\"60\"
\"\",\"\",\"approach-retreat\",\"64\",\"533762\",\"0.0-64.0\",\"\",\"\",\"3-4\",\"4408\",\"38\",\"1\",\"Training\",\"Stims/Figures/102-C-20-4.bmp\",\"taka:ta\",\"Down\",\"38\",\"4\",\"13\",\"5\",\"P\",\"C\",\"61\"
\"\",\"\",\"approach-retreat\",\"65\",\"539527\",\"0.0-65.0\",\"\",\"\",\"3-4\",\"4251\",\"37\",\"1\",\"Training\",\"Stims/Figures/139-J-0-2.bmp\",\"na:la:la\",\"Left\",\"37\",\"4\",\"14\",\"5\",\"S\",\"C\",\"62\"
\"\",\"\",\"approach-retreat\",\"66\",\"545200\",\"0.0-66.0\",\"\",\"\",\"3-4\",\"4138\",\"37\",\"1\",\"Training\",\"Stims/Figures/27-C-30-1.bmp\",\"pa:ka:ta\",\"Right\",\"37\",\"4\",\"15\",\"5\",\"P\",\"C\",\"63\"
\"\",\"\",\"approach-retreat\",\"67\",\"550832\",\"0.0-67.0\",\"\",\"\",\"3-4\",\"4109\",\"37\",\"1\",\"Training\",\"Stims/Figures/7-C-20-4.bmp\",\"paka:ta\",\"Right\",\"37\",\"4\",\"16\",\"5\",\"P\",\"C\",\"64\"
\"\",\"\",\"approach-retreat\",\"68\",\"556455\",\"0.0-68.0\",\"\",\"\",\"3-4\",\"4080\",\"39\",\"1\",\"Training\",\"Stims/Figures/102-C-20-4.bmp\",\"taka:ta\",\"Left\",\"39\",\"5\",\"1\",\"5\",\"P\",\"C\",\"65\"
\"\",\"\",\"approach-retreat\",\"69\",\"562341\",\"0.0-69.0\",\"\",\"\",\"3-4\",\"4361\",\"38\",\"1\",\"Training\",\"Stims/Figures/118-J-0-2.bmp\",\"nama:la\",\"Up\",\"38\",\"5\",\"2\",\"5\",\"S\",\"C\",\"66\"
\"\",\"\",\"approach-retreat\",\"70\",\"568524\",\"0.0-70.0\",\"\",\"\",\"3-4\",\"4649\",\"38\",\"1\",\"Training\",\"Stims/Figures/27-C-30-1.bmp\",\"pa:ka:ta\",\"Down\",\"38\",\"5\",\"3\",\"5\",\"P\",\"C\",\"67\"
\"\",\"\",\"approach-retreat\",\"71\",\"574207\",\"0.0-71.0\",\"\",\"\",\"3-4\",\"4156\",\"39\",\"1\",\"Training\",\"Stims/Figures/44-C-30-3.bmp\",\"taka:ka\",\"Left\",\"39\",\"5\",\"4\",\"5\",\"P\",\"C\",\"68\"
\"\",\"\",\"approach-retreat\",\"72\",\"579955\",\"0.0-72.0\",\"\",\"\",\"3-4\",\"4215\",\"38\",\"1\",\"Training\",\"Stims/Figures/139-C-20-2.bmp\",\"takata\",\"Down\",\"38\",\"5\",\"5\",\"5\",\"P\",\"C\",\"69\"
\"\",\"\",\"approach-retreat\",\"73\",\"585560\",\"0.0-73.0\",\"\",\"\",\"3-4\",\"4069\",\"37\",\"1\",\"Training\",\"Stims/Figures/100-C-30-3.bmp\",\"pakata\",\"Right\",\"37\",\"5\",\"6\",\"5\",\"P\",\"C\",\"70\"
\"\",\"\",\"approach-retreat\",\"74\",\"591276\",\"0.0-74.0\",\"\",\"\",\"3-4\",\"4190\",\"38\",\"1\",\"Training\",\"Stims/Figures/44-J-10-3.bmp\",\"ma:la:na\",\"Up\",\"38\",\"5\",\"7\",\"5\",\"S\",\"C\",\"71\"
\"\",\"\",\"approach-retreat\",\"75\",\"597123\",\"0.0-75.0\",\"\",\"\",\"3-4\",\"4322\",\"40\",\"1\",\"Training\",\"Stims/Figures/139-J-0-2.bmp\",\"na:la:la\",\"Down\",\"40\",\"5\",\"8\",\"5\",\"S\",\"C\",\"72\"
\"\",\"\",\"approach-retreat\",\"76\",\"603389\",\"0.0-76.0\",\"\",\"\",\"3-4\",\"4742\",\"39\",\"1\",\"Training\",\"Stims/Figures/57-J-0-1.bmp\",\"na:ma:la\",\"Right\",\"39\",\"5\",\"9\",\"5\",\"S\",\"C\",\"73\"
\"\",\"\",\"approach-retreat\",\"77\",\"609098\",\"0.0-77.0\",\"\",\"\",\"3-4\",\"4178\",\"38\",\"1\",\"Training\",\"Stims/Figures/7-J-10-4.bmp\",\"na:la:na\",\"Up\",\"38\",\"5\",\"10\",\"5\",\"S\",\"C\",\"74\"
\"\",\"\",\"approach-retreat\",\"78\",\"614668\",\"0.0-78.0\",\"\",\"\",\"3-4\",\"4048\",\"39\",\"1\",\"Training\",\"Stims/Figures/57-C-30-1.bmp\",\"tapa:ka\",\"Left\",\"39\",\"5\",\"11\",\"5\",\"P\",\"C\",\"75\"
\"\",\"\",\"approach-retreat\",\"79\",\"620271\",\"0.0-79.0\",\"\",\"\",\"3-4\",\"4073\",\"37\",\"1\",\"Training\",\"Stims/Figures/118-C-20-2.bmp\",\"papa:ta\",\"Right\",\"37\",\"5\",\"12\",\"5\",\"P\",\"C\",\"76\"
\"\",\"\",\"approach-retreat\",\"80\",\"625902\",\"0.0-80.0\",\"\",\"\",\"3-4\",\"4094\",\"37\",\"1\",\"Training\",\"Stims/Figures/102-J-10-4.bmp\",\"na:lala\",\"Left\",\"37\",\"5\",\"13\",\"5\",\"S\",\"C\",\"77\"
\"\",\"\",\"approach-retreat\",\"81\",\"631592\",\"0.0-81.0\",\"\",\"\",\"3-4\",\"4166\",\"40\",\"1\",\"Training\",\"Stims/Figures/27-J-0-1.bmp\",\"mama:la\",\"Down\",\"40\",\"5\",\"14\",\"5\",\"S\",\"C\",\"78\"
\"\",\"\",\"approach-retreat\",\"82\",\"637455\",\"0.0-82.0\",\"\",\"\",\"3-4\",\"4341\",\"37\",\"0\",\"Training\",\"Stims/Figures/100-J-10-3.bmp\",\"ma:ma:la\",\"Right\",\"39\",\"5\",\"15\",\"5\",\"S\",\"C\",\"79\"
\"\",\"\",\"approach-retreat\",\"83\",\"642971\",\"0.0-83.0\",\"\",\"\",\"3-4\",\"3993\",\"40\",\"1\",\"Training\",\"Stims/Figures/7-C-20-4.bmp\",\"paka:ta\",\"Up\",\"40\",\"5\",\"16\",\"5\",\"P\",\"C\",\"80\"
\"\",\"\",\"approach-retreat\",\"84\",\"648478\",\"0.0-84.0\",\"\",\"\",\"3-4\",\"3983\",\"40\",\"1\",\"Training\",\"Stims/Figures/7-C-20-4.bmp\",\"paka:ta\",\"Up\",\"40\",\"6\",\"1\",\"5\",\"P\",\"C\",\"81\"
\"\",\"\",\"approach-retreat\",\"85\",\"654458\",\"0.0-85.0\",\"\",\"\",\"3-4\",\"4456\",\"37\",\"1\",\"Training\",\"Stims/Figures/139-J-0-2.bmp\",\"na:la:la\",\"Left\",\"37\",\"6\",\"2\",\"5\",\"S\",\"C\",\"82\"
\"\",\"\",\"approach-retreat\",\"86\",\"660154\",\"0.0-86.0\",\"\",\"\",\"3-4\",\"4165\",\"40\",\"1\",\"Training\",\"Stims/Figures/102-C-20-4.bmp\",\"taka:ta\",\"Up\",\"40\",\"6\",\"3\",\"5\",\"P\",\"C\",\"83\"
\"\",\"\",\"approach-retreat\",\"87\",\"666560\",\"0.0-87.0\",\"\",\"\",\"3-4\",\"4888\",\"37\",\"1\",\"Training\",\"Stims/Figures/7-J-10-4.bmp\",\"na:la:na\",\"Left\",\"37\",\"6\",\"4\",\"5\",\"S\",\"C\",\"84\"
\"\",\"\",\"approach-retreat\",\"88\",\"672427\",\"0.0-88.0\",\"\",\"\",\"3-4\",\"4334\",\"39\",\"1\",\"Training\",\"Stims/Figures/57-J-0-1.bmp\",\"na:ma:la\",\"Right\",\"39\",\"6\",\"5\",\"5\",\"S\",\"C\",\"85\"
\"\",\"\",\"approach-retreat\",\"89\",\"678139\",\"0.0-89.0\",\"\",\"\",\"3-4\",\"4186\",\"39\",\"0\",\"Training\",\"Stims/Figures/57-C-30-1.bmp\",\"tapa:ka\",\"Right\",\"37\",\"6\",\"6\",\"5\",\"P\",\"C\",\"86\"
\"\",\"\",\"approach-retreat\",\"90\",\"683811\",\"0.0-90.0\",\"\",\"\",\"3-4\",\"4145\",\"40\",\"1\",\"Training\",\"Stims/Figures/44-J-10-3.bmp\",\"ma:la:na\",\"Down\",\"40\",\"6\",\"7\",\"5\",\"S\",\"C\",\"87\"
\"\",\"\",\"approach-retreat\",\"91\",\"689894\",\"0.0-91.0\",\"\",\"\",\"3-4\",\"4554\",\"40\",\"1\",\"Training\",\"Stims/Figures/27-C-30-1.bmp\",\"pa:ka:ta\",\"Up\",\"40\",\"6\",\"8\",\"5\",\"P\",\"C\",\"88\"
\"\",\"\",\"approach-retreat\",\"92\",\"695575\",\"0.0-92.0\",\"\",\"\",\"3-4\",\"4152\",\"40\",\"1\",\"Training\",\"Stims/Figures/102-J-10-4.bmp\",\"na:lala\",\"Down\",\"40\",\"6\",\"9\",\"5\",\"S\",\"C\",\"89\"
\"\",\"\",\"approach-retreat\",\"93\",\"701724\",\"0.0-93.0\",\"\",\"\",\"3-4\",\"4627\",\"40\",\"1\",\"Training\",\"Stims/Figures/118-J-0-2.bmp\",\"nama:la\",\"Down\",\"40\",\"6\",\"10\",\"5\",\"S\",\"C\",\"90\"
\"\",\"\",\"approach-retreat\",\"94\",\"707411\",\"0.0-94.0\",\"\",\"\",\"3-4\",\"4175\",\"39\",\"1\",\"Training\",\"Stims/Figures/44-C-30-3.bmp\",\"taka:ka\",\"Left\",\"39\",\"6\",\"11\",\"5\",\"P\",\"C\",\"91\"
\"\",\"\",\"approach-retreat\",\"95\",\"712920\",\"0.0-95.0\",\"\",\"\",\"3-4\",\"3996\",\"40\",\"1\",\"Training\",\"Stims/Figures/118-C-20-2.bmp\",\"papa:ta\",\"Up\",\"40\",\"6\",\"12\",\"5\",\"P\",\"C\",\"92\"
\"\",\"\",\"approach-retreat\",\"96\",\"718829\",\"0.0-96.0\",\"\",\"\",\"3-4\",\"4381\",\"39\",\"1\",\"Training\",\"Stims/Figures/100-J-10-3.bmp\",\"ma:ma:la\",\"Right\",\"39\",\"6\",\"13\",\"5\",\"S\",\"C\",\"93\"
\"\",\"\",\"approach-retreat\",\"97\",\"724510\",\"0.0-97.0\",\"\",\"\",\"3-4\",\"4156\",\"39\",\"1\",\"Training\",\"Stims/Figures/100-C-30-3.bmp\",\"pakata\",\"Left\",\"39\",\"6\",\"14\",\"5\",\"P\",\"C\",\"94\"
\"\",\"\",\"approach-retreat\",\"98\",\"730037\",\"0.0-98.0\",\"\",\"\",\"3-4\",\"4001\",\"38\",\"1\",\"Training\",\"Stims/Figures/139-C-20-2.bmp\",\"takata\",\"Down\",\"38\",\"6\",\"15\",\"5\",\"P\",\"C\",\"95\"
\"\",\"\",\"approach-retreat\",\"99\",\"735646\",\"0.0-99.0\",\"\",\"\",\"3-4\",\"4084\",\"39\",\"1\",\"Training\",\"Stims/Figures/27-J-0-1.bmp\",\"mama:la\",\"Right\",\"39\",\"6\",\"16\",\"5\",\"S\",\"C\",\"96\"
\"\",\"\",\"approach-retreat\",\"100\",\"741185\",\"0.0-100.0\",\"\",\"\",\"3-4\",\"4015\",\"40\",\"1\",\"Training\",\"Stims/Figures/7-J-10-4.bmp\",\"na:la:na\",\"Down\",\"40\",\"7\",\"1\",\"5\",\"S\",\"C\",\"97\"
\"\",\"\",\"approach-retreat\",\"101\",\"746727\",\"0.0-101.0\",\"\",\"\",\"3-4\",\"4019\",\"37\",\"1\",\"Training\",\"Stims/Figures/44-J-10-3.bmp\",\"ma:la:na\",\"Left\",\"37\",\"7\",\"2\",\"5\",\"S\",\"C\",\"98\"
\"\",\"\",\"approach-retreat\",\"102\",\"752230\",\"0.0-102.0\",\"\",\"\",\"3-4\",\"3980\",\"39\",\"1\",\"Training\",\"Stims/Figures/44-C-30-3.bmp\",\"taka:ka\",\"Left\",\"39\",\"7\",\"3\",\"5\",\"P\",\"C\",\"99\"
\"\",\"\",\"approach-retreat\",\"103\",\"758157\",\"0.0-103.0\",\"\",\"\",\"3-4\",\"4394\",\"38\",\"1\",\"Training\",\"Stims/Figures/139-J-0-2.bmp\",\"na:la:la\",\"Up\",\"38\",\"7\",\"4\",\"5\",\"S\",\"C\",\"100\"
\"\",\"\",\"approach-retreat\",\"104\",\"763866\",\"0.0-104.0\",\"\",\"\",\"3-4\",\"4176\",\"37\",\"1\",\"Training\",\"Stims/Figures/7-C-20-4.bmp\",\"paka:ta\",\"Right\",\"37\",\"7\",\"5\",\"5\",\"P\",\"C\",\"101\"
\"\",\"\",\"approach-retreat\",\"105\",\"769380\",\"0.0-105.0\",\"\",\"\",\"3-4\",\"3988\",\"39\",\"1\",\"Training\",\"Stims/Figures/102-C-20-4.bmp\",\"taka:ta\",\"Left\",\"39\",\"7\",\"6\",\"5\",\"P\",\"C\",\"102\"
\"\",\"\",\"approach-retreat\",\"106\",\"774954\",\"0.0-106.0\",\"\",\"\",\"3-4\",\"4042\",\"40\",\"1\",\"Training\",\"Stims/Figures/139-C-20-2.bmp\",\"takata\",\"Up\",\"40\",\"7\",\"7\",\"5\",\"P\",\"C\",\"103\"
\"\",\"\",\"approach-retreat\",\"107\",\"780651\",\"0.0-107.0\",\"\",\"\",\"3-4\",\"4173\",\"38\",\"1\",\"Training\",\"Stims/Figures/118-J-0-2.bmp\",\"nama:la\",\"Up\",\"38\",\"7\",\"8\",\"5\",\"S\",\"C\",\"104\"
\"\",\"\",\"approach-retreat\",\"108\",\"786268\",\"0.0-108.0\",\"\",\"\",\"3-4\",\"4085\",\"38\",\"1\",\"Training\",\"Stims/Figures/102-J-10-4.bmp\",\"na:lala\",\"Up\",\"38\",\"7\",\"9\",\"5\",\"S\",\"C\",\"105\"
\"\",\"\",\"approach-retreat\",\"109\",\"791844\",\"0.0-109.0\",\"\",\"\",\"3-4\",\"4051\",\"38\",\"1\",\"Training\",\"Stims/Figures/27-C-30-1.bmp\",\"pa:ka:ta\",\"Down\",\"38\",\"7\",\"10\",\"5\",\"P\",\"C\",\"106\"
\"\",\"\",\"approach-retreat\",\"110\",\"798159\",\"0.0-110.0\",\"\",\"\",\"3-4\",\"4780\",\"37\",\"1\",\"Training\",\"Stims/Figures/27-J-0-1.bmp\",\"mama:la\",\"Left\",\"37\",\"7\",\"11\",\"5\",\"S\",\"C\",\"107\"
\"\",\"\",\"approach-retreat\",\"111\",\"803661\",\"0.0-111.0\",\"\",\"\",\"3-4\",\"3977\",\"37\",\"1\",\"Training\",\"Stims/Figures/118-C-20-2.bmp\",\"papa:ta\",\"Right\",\"37\",\"7\",\"12\",\"5\",\"P\",\"C\",\"108\"
\"\",\"\",\"approach-retreat\",\"112\",\"809494\",\"0.0-112.0\",\"\",\"\",\"3-4\",\"4306\",\"37\",\"1\",\"Training\",\"Stims/Figures/100-C-30-3.bmp\",\"pakata\",\"Right\",\"37\",\"7\",\"13\",\"5\",\"P\",\"C\",\"109\"
\"\",\"\",\"approach-retreat\",\"113\",\"815569\",\"0.0-113.0\",\"\",\"\",\"3-4\",\"4548\",\"40\",\"1\",\"Training\",\"Stims/Figures/57-J-0-1.bmp\",\"na:ma:la\",\"Down\",\"40\",\"7\",\"14\",\"5\",\"S\",\"C\",\"110\"
\"\",\"\",\"approach-retreat\",\"114\",\"822140\",\"0.0-114.0\",\"\",\"\",\"3-4\",\"5048\",\"40\",\"1\",\"Training\",\"Stims/Figures/100-J-10-3.bmp\",\"ma:ma:la\",\"Down\",\"40\",\"7\",\"15\",\"5\",\"S\",\"C\",\"111\"
\"\",\"\",\"approach-retreat\",\"115\",\"828081\",\"0.0-115.0\",\"\",\"\",\"3-4\",\"4417\",\"37\",\"1\",\"Training\",\"Stims/Figures/57-C-30-1.bmp\",\"tapa:ka\",\"Right\",\"37\",\"7\",\"16\",\"5\",\"P\",\"C\",\"112\"
\"\",\"\",\"approach-retreat\",\"116\",\"833911\",\"0.0-116.0\",\"\",\"\",\"3-4\",\"4308\",\"39\",\"1\",\"Training\",\"Stims/Figures/100-J-10-3.bmp\",\"ma:ma:la\",\"Right\",\"39\",\"8\",\"1\",\"5\",\"S\",\"C\",\"113\"
\"\",\"\",\"approach-retreat\",\"117\",\"839644\",\"0.0-117.0\",\"\",\"\",\"3-4\",\"4205\",\"37\",\"1\",\"Training\",\"Stims/Figures/139-J-0-2.bmp\",\"na:la:la\",\"Left\",\"37\",\"8\",\"2\",\"5\",\"S\",\"C\",\"114\"
\"\",\"\",\"approach-retreat\",\"118\",\"845248\",\"0.0-118.0\",\"\",\"\",\"3-4\",\"4080\",\"39\",\"1\",\"Training\",\"Stims/Figures/102-J-10-4.bmp\",\"na:lala\",\"Right\",\"39\",\"8\",\"3\",\"5\",\"S\",\"C\",\"115\"
\"\",\"\",\"approach-retreat\",\"119\",\"851412\",\"0.0-119.0\",\"\",\"\",\"3-4\",\"4630\",\"38\",\"1\",\"Training\",\"Stims/Figures/7-C-20-4.bmp\",\"paka:ta\",\"Down\",\"38\",\"8\",\"4\",\"5\",\"P\",\"C\",\"116\"
\"\",\"\",\"approach-retreat\",\"120\",\"857571\",\"0.0-120.0\",\"\",\"\",\"3-4\",\"4625\",\"39\",\"1\",\"Training\",\"Stims/Figures/27-J-0-1.bmp\",\"mama:la\",\"Right\",\"39\",\"8\",\"5\",\"5\",\"S\",\"C\",\"117\"
\"\",\"\",\"approach-retreat\",\"121\",\"863233\",\"0.0-121.0\",\"\",\"\",\"3-4\",\"4137\",\"40\",\"1\",\"Training\",\"Stims/Figures/44-J-10-3.bmp\",\"ma:la:na\",\"Down\",\"40\",\"8\",\"6\",\"5\",\"S\",\"C\",\"118\"
\"\",\"\",\"approach-retreat\",\"122\",\"868945\",\"0.0-122.0\",\"\",\"\",\"3-4\",\"4178\",\"38\",\"1\",\"Training\",\"Stims/Figures/118-J-0-2.bmp\",\"nama:la\",\"Up\",\"38\",\"8\",\"7\",\"5\",\"S\",\"C\",\"119\"
\"\",\"\",\"approach-retreat\",\"123\",\"874933\",\"0.0-123.0\",\"\",\"\",\"3-4\",\"4462\",\"40\",\"1\",\"Training\",\"Stims/Figures/27-C-30-1.bmp\",\"pa:ka:ta\",\"Up\",\"40\",\"8\",\"8\",\"5\",\"P\",\"C\",\"120\"
\"\",\"\",\"approach-retreat\",\"124\",\"880471\",\"0.0-124.0\",\"\",\"\",\"3-4\",\"4014\",\"37\",\"1\",\"Training\",\"Stims/Figures/118-C-20-2.bmp\",\"papa:ta\",\"Right\",\"37\",\"8\",\"9\",\"5\",\"P\",\"C\",\"121\"
\"\",\"\",\"approach-retreat\",\"125\",\"886509\",\"0.0-125.0\",\"\",\"\",\"3-4\",\"4525\",\"38\",\"1\",\"Training\",\"Stims/Figures/57-J-0-1.bmp\",\"na:ma:la\",\"Up\",\"38\",\"8\",\"10\",\"5\",\"S\",\"C\",\"122\"
\"\",\"\",\"approach-retreat\",\"126\",\"892777\",\"0.0-126.0\",\"\",\"\",\"3-4\",\"4742\",\"40\",\"1\",\"Training\",\"Stims/Figures/7-J-10-4.bmp\",\"na:la:na\",\"Down\",\"40\",\"8\",\"11\",\"5\",\"S\",\"C\",\"123\"
\"\",\"\",\"approach-retreat\",\"127\",\"898970\",\"0.0-127.0\",\"\",\"\",\"3-4\",\"4666\",\"38\",\"1\",\"Training\",\"Stims/Figures/44-C-30-3.bmp\",\"taka:ka\",\"Down\",\"38\",\"8\",\"12\",\"5\",\"P\",\"C\",\"124\"
\"\",\"\",\"approach-retreat\",\"128\",\"904546\",\"0.0-128.0\",\"\",\"\",\"3-4\",\"4048\",\"40\",\"1\",\"Training\",\"Stims/Figures/102-C-20-4.bmp\",\"taka:ta\",\"Up\",\"40\",\"8\",\"13\",\"5\",\"P\",\"C\",\"125\"
\"\",\"\",\"approach-retreat\",\"129\",\"910285\",\"0.0-129.0\",\"\",\"\",\"3-4\",\"4215\",\"39\",\"1\",\"Training\",\"Stims/Figures/57-C-30-1.bmp\",\"tapa:ka\",\"Left\",\"39\",\"8\",\"14\",\"5\",\"P\",\"C\",\"126\"
\"\",\"\",\"approach-retreat\",\"130\",\"915857\",\"0.0-130.0\",\"\",\"\",\"3-4\",\"4041\",\"39\",\"1\",\"Training\",\"Stims/Figures/139-C-20-2.bmp\",\"takata\",\"Left\",\"39\",\"8\",\"15\",\"5\",\"P\",\"C\",\"127\"
\"\",\"\",\"approach-retreat\",\"131\",\"921378\",\"0.0-131.0\",\"\",\"\",\"3-4\",\"3992\",\"39\",\"1\",\"Training\",\"Stims/Figures/100-C-30-3.bmp\",\"pakata\",\"Left\",\"39\",\"8\",\"16\",\"5\",\"P\",\"C\",\"128\"
\"\",\"\",\"approach-retreat\",\"132\",\"927485\",\"0.0-132.0\",\"\",\"\",\"3-4\",\"4583\",\"40\",\"1\",\"Training\",\"Stims/Figures/118-J-0-2.bmp\",\"nama:la\",\"Down\",\"40\",\"9\",\"1\",\"5\",\"S\",\"C\",\"129\"
\"\",\"\",\"approach-retreat\",\"133\",\"933340\",\"0.0-133.0\",\"\",\"\",\"3-4\",\"4319\",\"37\",\"1\",\"Training\",\"Stims/Figures/44-J-10-3.bmp\",\"ma:la:na\",\"Left\",\"37\",\"9\",\"2\",\"5\",\"S\",\"C\",\"130\"
\"\",\"\",\"approach-retreat\",\"134\",\"939014\",\"0.0-134.0\",\"\",\"\",\"3-4\",\"4147\",\"39\",\"1\",\"Training\",\"Stims/Figures/57-J-0-1.bmp\",\"na:ma:la\",\"Right\",\"39\",\"9\",\"3\",\"5\",\"S\",\"C\",\"131\"
\"\",\"\",\"approach-retreat\",\"135\",\"944548\",\"0.0-135.0\",\"\",\"\",\"3-4\",\"4013\",\"38\",\"1\",\"Training\",\"Stims/Figures/57-C-30-1.bmp\",\"tapa:ka\",\"Down\",\"38\",\"9\",\"4\",\"5\",\"P\",\"C\",\"132\"
\"\",\"\",\"approach-retreat\",\"136\",\"950276\",\"0.0-136.0\",\"\",\"\",\"3-4\",\"4204\",\"40\",\"1\",\"Training\",\"Stims/Figures/102-C-20-4.bmp\",\"taka:ta\",\"Up\",\"40\",\"9\",\"5\",\"5\",\"P\",\"C\",\"133\"
\"\",\"\",\"approach-retreat\",\"137\",\"955756\",\"0.0-137.0\",\"\",\"\",\"3-4\",\"3964\",\"37\",\"1\",\"Training\",\"Stims/Figures/27-J-0-1.bmp\",\"mama:la\",\"Left\",\"37\",\"9\",\"6\",\"5\",\"S\",\"C\",\"134\"
\"\",\"\",\"approach-retreat\",\"138\",\"961223\",\"0.0-138.0\",\"\",\"\",\"3-4\",\"3939\",\"37\",\"1\",\"Training\",\"Stims/Figures/139-C-20-2.bmp\",\"takata\",\"Right\",\"37\",\"9\",\"7\",\"5\",\"P\",\"C\",\"135\"
\"\",\"\",\"approach-retreat\",\"139\",\"966929\",\"0.0-139.0\",\"\",\"\",\"3-4\",\"4182\",\"40\",\"1\",\"Training\",\"Stims/Figures/7-J-10-4.bmp\",\"na:la:na\",\"Down\",\"40\",\"9\",\"8\",\"5\",\"S\",\"C\",\"136\"
\"\",\"\",\"approach-retreat\",\"140\",\"972538\",\"0.0-140.0\",\"\",\"\",\"3-4\",\"4082\",\"38\",\"1\",\"Training\",\"Stims/Figures/102-J-10-4.bmp\",\"na:lala\",\"Up\",\"38\",\"9\",\"9\",\"5\",\"S\",\"C\",\"137\"
\"\",\"\",\"approach-retreat\",\"141\",\"978132\",\"0.0-141.0\",\"\",\"\",\"3-4\",\"4065\",\"37\",\"1\",\"Training\",\"Stims/Figures/118-C-20-2.bmp\",\"papa:ta\",\"Right\",\"37\",\"9\",\"10\",\"5\",\"P\",\"C\",\"138\"
\"\",\"\",\"approach-retreat\",\"142\",\"984792\",\"0.0-142.0\",\"\",\"\",\"3-4\",\"5135\",\"39\",\"0\",\"Training\",\"Stims/Figures/100-J-10-3.bmp\",\"ma:ma:la\",\"Left\",\"37\",\"9\",\"11\",\"5\",\"S\",\"C\",\"139\"
\"\",\"\",\"approach-retreat\",\"143\",\"990419\",\"0.0-143.0\",\"\",\"\",\"3-4\",\"4103\",\"40\",\"1\",\"Training\",\"Stims/Figures/100-C-30-3.bmp\",\"pakata\",\"Up\",\"40\",\"9\",\"12\",\"5\",\"P\",\"C\",\"140\"
\"\",\"\",\"approach-retreat\",\"144\",\"996665\",\"0.0-144.0\",\"\",\"\",\"3-4\",\"4722\",\"38\",\"1\",\"Training\",\"Stims/Figures/44-C-30-3.bmp\",\"taka:ka\",\"Down\",\"38\",\"9\",\"13\",\"5\",\"P\",\"C\",\"141\"
\"\",\"\",\"approach-retreat\",\"145\",\"1002739\",\"0.0-145.0\",\"\",\"\",\"3-4\",\"4550\",\"40\",\"1\",\"Training\",\"Stims/Figures/7-C-20-4.bmp\",\"paka:ta\",\"Up\",\"40\",\"9\",\"14\",\"5\",\"P\",\"C\",\"142\"
\"\",\"\",\"approach-retreat\",\"146\",\"1008886\",\"0.0-146.0\",\"\",\"\",\"3-4\",\"4622\",\"39\",\"0\",\"Training\",\"Stims/Figures/139-J-0-2.bmp\",\"na:la:la\",\"Left\",\"37\",\"9\",\"15\",\"5\",\"S\",\"C\",\"143\"
\"\",\"\",\"approach-retreat\",\"147\",\"1014516\",\"0.0-147.0\",\"\",\"\",\"3-4\",\"4106\",\"37\",\"1\",\"Training\",\"Stims/Figures/27-C-30-1.bmp\",\"pa:ka:ta\",\"Right\",\"37\",\"9\",\"16\",\"5\",\"P\",\"C\",\"144\"
\"23166\",\"\",\"instructions\",\"148\",\"1037682\",\"0.0-148.0\",\"[{\"\"page_index\"\":0,\"\"viewing_time\"\":23165}]\",\"\",\"\",\"\",\"\",\"\",\"\",\"\",\"\",\"\",\"\",\"\",\"\",\"\",\"\",\"\",\"\"
\"\",\"\",\"approach-retreat\",\"149\",\"1043693\",\"0.0-149.0\",\"\",\"\",\"3-4\",\"4481\",\"38\",\"0\",\"Testing\",\"Stims/Figures/44-J-10-3.bmp\",\"ma:la:na\",\"Down\",\"40\",\"1\",\"1\",\"5\",\"S\",\"C\",\"1\"
\"\",\"\",\"approach-retreat\",\"150\",\"1049457\",\"0.0-150.0\",\"\",\"\",\"3-4\",\"4244\",\"37\",\"1\",\"Testing\",\"Stims/Figures/27-J-0-1.bmp\",\"mama:la\",\"Left\",\"37\",\"1\",\"2\",\"5\",\"S\",\"C\",\"2\"
\"\",\"\",\"approach-retreat\",\"151\",\"1055380\",\"0.0-151.0\",\"\",\"\",\"3-4\",\"4394\",\"37\",\"1\",\"Testing\",\"Stims/Figures/19-J-10-4.bmp\",\"mamala\",\"Left\",\"37\",\"1\",\"3\",\"5\",\"S\",\"C\",\"3\"
\"\",\"\",\"approach-retreat\",\"152\",\"1062213\",\"0.0-152.0\",\"\",\"\",\"3-4\",\"5300\",\"40\",\"1\",\"Testing\",\"Stims/Figures/128-J-10-3.bmp\",\"mama:na\",\"Down\",\"40\",\"1\",\"4\",\"5\",\"S\",\"C\",\"4\"
\"\",\"\",\"approach-retreat\",\"153\",\"1068177\",\"0.0-153.0\",\"\",\"\",\"3-4\",\"4437\",\"40\",\"1\",\"Testing\",\"Stims/Figures/57-C-30-1.bmp\",\"tapa:ka\",\"Up\",\"40\",\"1\",\"5\",\"5\",\"P\",\"C\",\"5\"
\"\",\"\",\"approach-retreat\",\"154\",\"1074844\",\"0.0-154.0\",\"\",\"\",\"3-4\",\"5146\",\"38\",\"1\",\"Testing\",\"Stims/Figures/71-C-30-1.bmp\",\"papata\",\"Down\",\"38\",\"1\",\"6\",\"5\",\"P\",\"C\",\"6\"
\"\",\"\",\"approach-retreat\",\"155\",\"1080754\",\"0.0-155.0\",\"\",\"\",\"3-4\",\"4386\",\"39\",\"1\",\"Testing\",\"Stims/Figures/100-J-10-3.bmp\",\"ma:ma:la\",\"Right\",\"39\",\"1\",\"7\",\"5\",\"S\",\"C\",\"7\"
\"\",\"\",\"approach-retreat\",\"156\",\"1087019\",\"0.0-156.0\",\"\",\"\",\"3-4\",\"4736\",\"37\",\"1\",\"Testing\",\"Stims/Figures/118-J-0-2.bmp\",\"nama:la\",\"Left\",\"37\",\"1\",\"8\",\"5\",\"S\",\"C\",\"8\"
\"\",\"\",\"approach-retreat\",\"157\",\"1093685\",\"0.0-157.0\",\"\",\"\",\"3-4\",\"5145\",\"40\",\"1\",\"Testing\",\"Stims/Figures/44-C-30-3.bmp\",\"taka:ka\",\"Up\",\"40\",\"1\",\"9\",\"5\",\"P\",\"C\",\"9\"
\"\",\"\",\"approach-retreat\",\"158\",\"1099441\",\"0.0-158.0\",\"\",\"\",\"3-4\",\"4239\",\"40\",\"1\",\"Testing\",\"Stims/Figures/71-J-0-1.bmp\",\"malala\",\"Down\",\"40\",\"1\",\"10\",\"5\",\"S\",\"C\",\"10\"
\"\",\"\",\"approach-retreat\",\"159\",\"1105218\",\"0.0-159.0\",\"\",\"\",\"3-4\",\"4248\",\"39\",\"0\",\"Testing\",\"Stims/Figures/102-C-20-4.bmp\",\"taka:ta\",\"Right\",\"37\",\"1\",\"11\",\"5\",\"P\",\"C\",\"11\"
\"\",\"\",\"approach-retreat\",\"160\",\"1111139\",\"0.0-160.0\",\"\",\"\",\"3-4\",\"4400\",\"39\",\"1\",\"Testing\",\"Stims/Figures/139-C-20-2.bmp\",\"takata\",\"Left\",\"39\",\"1\",\"12\",\"5\",\"P\",\"C\",\"12\"
\"\",\"\",\"approach-retreat\",\"161\",\"1116808\",\"0.0-161.0\",\"\",\"\",\"3-4\",\"4150\",\"40\",\"1\",\"Testing\",\"Stims/Figures/100-C-30-3.bmp\",\"pakata\",\"Up\",\"40\",\"1\",\"13\",\"5\",\"P\",\"C\",\"13\"
\"\",\"\",\"approach-retreat\",\"162\",\"1122439\",\"0.0-162.0\",\"\",\"\",\"3-4\",\"4111\",\"38\",\"1\",\"Testing\",\"Stims/Figures/7-J-10-4.bmp\",\"na:la:na\",\"Up\",\"38\",\"1\",\"14\",\"5\",\"S\",\"C\",\"14\"
\"\",\"\",\"approach-retreat\",\"163\",\"1128186\",\"0.0-163.0\",\"\",\"\",\"3-4\",\"4223\",\"39\",\"1\",\"Testing\",\"Stims/Figures/84-J-0-2.bmp\",\"nala:la\",\"Right\",\"39\",\"1\",\"15\",\"5\",\"S\",\"C\",\"15\"
\"\",\"\",\"approach-retreat\",\"164\",\"1133933\",\"0.0-164.0\",\"\",\"\",\"3-4\",\"4214\",\"37\",\"0\",\"Testing\",\"Stims/Figures/7-C-20-4.bmp\",\"paka:ta\",\"Left\",\"39\",\"1\",\"16\",\"5\",\"P\",\"C\",\"16\"
\"\",\"\",\"approach-retreat\",\"165\",\"1139571\",\"0.0-165.0\",\"\",\"\",\"3-4\",\"4110\",\"38\",\"1\",\"Testing\",\"Stims/Figures/139-J-0-2.bmp\",\"na:la:la\",\"Up\",\"38\",\"1\",\"17\",\"5\",\"S\",\"C\",\"17\"
\"\",\"\",\"approach-retreat\",\"166\",\"1146135\",\"0.0-166.0\",\"\",\"\",\"3-4\",\"5034\",\"38\",\"1\",\"Testing\",\"Stims/Figures/27-C-30-1.bmp\",\"pa:ka:ta\",\"Down\",\"38\",\"1\",\"18\",\"5\",\"P\",\"C\",\"18\"
\"\",\"\",\"approach-retreat\",\"167\",\"1152109\",\"0.0-167.0\",\"\",\"\",\"3-4\",\"4429\",\"39\",\"0\",\"Testing\",\"Stims/Figures/118-C-20-2.bmp\",\"papa:ta\",\"Right\",\"37\",\"1\",\"19\",\"5\",\"P\",\"C\",\"19\"
\"\",\"\",\"approach-retreat\",\"168\",\"1157851\",\"0.0-168.0\",\"\",\"\",\"3-4\",\"4211\",\"37\",\"1\",\"Testing\",\"Stims/Figures/128-C-30-3.bmp\",\"papa:ka\",\"Right\",\"37\",\"1\",\"20\",\"5\",\"P\",\"C\",\"20\"
\"\",\"\",\"approach-retreat\",\"169\",\"1163721\",\"0.0-169.0\",\"\",\"\",\"3-4\",\"4343\",\"37\",\"0\",\"Testing\",\"Stims/Figures/19-C-20-4.bmp\",\"tapata\",\"Left\",\"39\",\"1\",\"21\",\"5\",\"P\",\"C\",\"21\"
\"\",\"\",\"approach-retreat\",\"170\",\"1170665\",\"0.0-170.0\",\"\",\"\",\"3-4\",\"5419\",\"39\",\"0\",\"Testing\",\"Stims/Figures/84-C-20-2.bmp\",\"pa:pa:ka\",\"Right\",\"37\",\"1\",\"22\",\"5\",\"P\",\"C\",\"22\"
\"\",\"\",\"approach-retreat\",\"171\",\"1176613\",\"0.0-171.0\",\"\",\"\",\"3-4\",\"4420\",\"40\",\"1\",\"Testing\",\"Stims/Figures/102-J-10-4.bmp\",\"na:lala\",\"Down\",\"40\",\"1\",\"23\",\"5\",\"S\",\"C\",\"23\"
\"\",\"\",\"approach-retreat\",\"172\",\"1182176\",\"0.0-172.0\",\"\",\"\",\"3-4\",\"4043\",\"38\",\"1\",\"Testing\",\"Stims/Figures/57-J-0-1.bmp\",\"na:ma:la\",\"Up\",\"38\",\"1\",\"24\",\"5\",\"S\",\"C\",\"24\"
\"\",\"\",\"approach-retreat\",\"173\",\"1187937\",\"0.0-173.0\",\"\",\"\",\"3-4\",\"4225\",\"38\",\"0\",\"Testing\",\"Stims/Figures/71-C-30-1.bmp\",\"papata\",\"Up\",\"40\",\"2\",\"1\",\"5\",\"P\",\"C\",\"25\"
\"\",\"\",\"approach-retreat\",\"174\",\"1193735\",\"0.0-174.0\",\"\",\"\",\"3-4\",\"4257\",\"37\",\"1\",\"Testing\",\"Stims/Figures/27-J-0-1.bmp\",\"mama:la\",\"Left\",\"37\",\"2\",\"2\",\"5\",\"S\",\"C\",\"26\"
\"\",\"\",\"approach-retreat\",\"175\",\"1199713\",\"0.0-175.0\",\"\",\"\",\"3-4\",\"4461\",\"37\",\"1\",\"Testing\",\"Stims/Figures/139-J-0-2.bmp\",\"na:la:la\",\"Left\",\"37\",\"2\",\"3\",\"5\",\"S\",\"C\",\"27\"
\"\",\"\",\"approach-retreat\",\"176\",\"1205534\",\"0.0-176.0\",\"\",\"\",\"3-4\",\"4303\",\"40\",\"1\",\"Testing\",\"Stims/Figures/102-J-10-4.bmp\",\"na:lala\",\"Down\",\"40\",\"2\",\"4\",\"5\",\"S\",\"C\",\"28\"
\"\",\"\",\"approach-retreat\",\"177\",\"1211321\",\"0.0-177.0\",\"\",\"\",\"3-4\",\"4265\",\"37\",\"1\",\"Testing\",\"Stims/Figures/84-C-20-2.bmp\",\"pa:pa:ka\",\"Right\",\"37\",\"2\",\"5\",\"5\",\"P\",\"C\",\"29\"
\"\",\"\",\"approach-retreat\",\"178\",\"1217033\",\"0.0-178.0\",\"\",\"\",\"3-4\",\"4182\",\"40\",\"1\",\"Testing\",\"Stims/Figures/139-C-20-2.bmp\",\"takata\",\"Up\",\"40\",\"2\",\"6\",\"5\",\"P\",\"C\",\"30\"
\"\",\"\",\"approach-retreat\",\"179\",\"1223034\",\"0.0-179.0\",\"\",\"\",\"3-4\",\"4473\",\"39\",\"0\",\"Testing\",\"Stims/Figures/100-J-10-3.bmp\",\"ma:ma:la\",\"Left\",\"37\",\"2\",\"7\",\"5\",\"S\",\"C\",\"31\"
\"\",\"\",\"approach-retreat\",\"180\",\"1228921\",\"0.0-180.0\",\"\",\"\",\"3-4\",\"4361\",\"38\",\"1\",\"Testing\",\"Stims/Figures/44-C-30-3.bmp\",\"taka:ka\",\"Down\",\"38\",\"2\",\"8\",\"5\",\"P\",\"C\",\"32\"
\"\",\"\",\"approach-retreat\",\"181\",\"1235636\",\"0.0-181.0\",\"\",\"\",\"3-4\",\"5187\",\"38\",\"0\",\"Testing\",\"Stims/Figures/118-C-20-2.bmp\",\"papa:ta\",\"Up\",\"40\",\"2\",\"9\",\"5\",\"P\",\"C\",\"33\"
\"\",\"\",\"approach-retreat\",\"182\",\"1241416\",\"0.0-182.0\",\"\",\"\",\"3-4\",\"4249\",\"39\",\"0\",\"Testing\",\"Stims/Figures/7-C-20-4.bmp\",\"paka:ta\",\"Right\",\"37\",\"2\",\"10\",\"5\",\"P\",\"C\",\"34\"
\"\",\"\",\"approach-retreat\",\"183\",\"1247227\",\"0.0-183.0\",\"\",\"\",\"3-4\",\"4284\",\"37\",\"1\",\"Testing\",\"Stims/Figures/84-J-0-2.bmp\",\"nala:la\",\"Left\",\"37\",\"2\",\"11\",\"5\",\"S\",\"C\",\"35\"
\"\",\"\",\"approach-retreat\",\"184\",\"1252968\",\"0.0-184.0\",\"\",\"\",\"3-4\",\"4218\",\"39\",\"1\",\"Testing\",\"Stims/Figures/118-J-0-2.bmp\",\"nama:la\",\"Right\",\"39\",\"2\",\"12\",\"5\",\"S\",\"C\",\"36\"
\"\",\"\",\"approach-retreat\",\"185\",\"1259151\",\"0.0-185.0\",\"\",\"\",\"3-4\",\"4655\",\"40\",\"1\",\"Testing\",\"Stims/Figures/102-C-20-4.bmp\",\"taka:ta\",\"Up\",\"40\",\"2\",\"13\",\"5\",\"P\",\"C\",\"37\"
\"\",\"\",\"approach-retreat\",\"186\",\"1264863\",\"0.0-186.0\",\"\",\"\",\"3-4\",\"4191\",\"37\",\"0\",\"Testing\",\"Stims/Figures/100-C-30-3.bmp\",\"pakata\",\"Left\",\"39\",\"2\",\"14\",\"5\",\"P\",\"C\",\"38\"
\"\",\"\",\"approach-retreat\",\"187\",\"1270682\",\"0.0-187.0\",\"\",\"\",\"3-4\",\"4289\",\"40\",\"1\",\"Testing\",\"Stims/Figures/128-C-30-3.bmp\",\"papa:ka\",\"Up\",\"40\",\"2\",\"15\",\"5\",\"P\",\"C\",\"39\"
\"\",\"\",\"approach-retreat\",\"188\",\"1276520\",\"0.0-188.0\",\"\",\"\",\"3-4\",\"4312\",\"37\",\"1\",\"Testing\",\"Stims/Figures/57-C-30-1.bmp\",\"tapa:ka\",\"Right\",\"37\",\"2\",\"16\",\"5\",\"P\",\"C\",\"40\"
\"\",\"\",\"approach-retreat\",\"189\",\"1282449\",\"0.0-189.0\",\"\",\"\",\"3-4\",\"4401\",\"39\",\"1\",\"Testing\",\"Stims/Figures/44-J-10-3.bmp\",\"ma:la:na\",\"Right\",\"39\",\"2\",\"17\",\"5\",\"S\",\"C\",\"41\"
\"\",\"\",\"approach-retreat\",\"190\",\"1288949\",\"0.0-190.0\",\"\",\"\",\"3-4\",\"4968\",\"37\",\"1\",\"Testing\",\"Stims/Figures/128-J-10-3.bmp\",\"mama:na\",\"Left\",\"37\",\"2\",\"18\",\"5\",\"S\",\"C\",\"42\"
\"\",\"\",\"approach-retreat\",\"191\",\"1295231\",\"0.0-191.0\",\"\",\"\",\"3-4\",\"4760\",\"40\",\"0\",\"Testing\",\"Stims/Figures/19-C-20-4.bmp\",\"tapata\",\"Down\",\"38\",\"2\",\"19\",\"5\",\"P\",\"C\",\"43\"
\"\",\"\",\"approach-retreat\",\"192\",\"1301423\",\"0.0-192.0\",\"\",\"\",\"3-4\",\"4659\",\"39\",\"1\",\"Testing\",\"Stims/Figures/7-J-10-4.bmp\",\"na:la:na\",\"Right\",\"39\",\"2\",\"20\",\"5\",\"S\",\"C\",\"44\"
\"\",\"\",\"approach-retreat\",\"193\",\"1307139\",\"0.0-193.0\",\"\",\"\",\"3-4\",\"4189\",\"38\",\"1\",\"Testing\",\"Stims/Figures/19-J-10-4.bmp\",\"mamala\",\"Up\",\"38\",\"2\",\"21\",\"5\",\"S\",\"C\",\"45\"
\"\",\"\",\"approach-retreat\",\"194\",\"1312899\",\"0.0-194.0\",\"\",\"\",\"3-4\",\"4125\",\"40\",\"1\",\"Testing\",\"Stims/Figures/57-J-0-1.bmp\",\"na:ma:la\",\"Down\",\"40\",\"2\",\"22\",\"5\",\"S\",\"C\",\"46\"
\"\",\"\",\"approach-retreat\",\"195\",\"1318907\",\"0.0-195.0\",\"\",\"\",\"3-4\",\"4497\",\"38\",\"1\",\"Testing\",\"Stims/Figures/27-C-30-1.bmp\",\"pa:ka:ta\",\"Down\",\"38\",\"2\",\"23\",\"5\",\"P\",\"C\",\"47\"
\"\",\"\",\"approach-retreat\",\"196\",\"1324769\",\"0.0-196.0\",\"\",\"\",\"3-4\",\"4330\",\"40\",\"1\",\"Testing\",\"Stims/Figures/71-J-0-1.bmp\",\"malala\",\"Down\",\"40\",\"2\",\"24\",\"5\",\"S\",\"C\",\"48\"
\"\",\"\",\"approach-retreat\",\"197\",\"1330363\",\"0.0-197.0\",\"\",\"\",\"3-4\",\"4070\",\"39\",\"1\",\"Testing\",\"Stims/Figures/118-C-20-2.bmp\",\"papa:ta\",\"Left\",\"39\",\"3\",\"1\",\"5\",\"P\",\"C\",\"49\"
\"\",\"\",\"approach-retreat\",\"198\",\"1336439\",\"0.0-198.0\",\"\",\"\",\"3-4\",\"4559\",\"37\",\"1\",\"Testing\",\"Stims/Figures/100-C-30-3.bmp\",\"pakata\",\"Right\",\"37\",\"3\",\"2\",\"5\",\"P\",\"C\",\"50\"
\"\",\"\",\"approach-retreat\",\"199\",\"1341963\",\"0.0-199.0\",\"\",\"\",\"3-4\",\"3992\",\"37\",\"1\",\"Testing\",\"Stims/Figures/139-C-20-2.bmp\",\"takata\",\"Right\",\"37\",\"3\",\"3\",\"5\",\"P\",\"C\",\"51\"
\"\",\"\",\"approach-retreat\",\"200\",\"1347605\",\"0.0-200.0\",\"\",\"\",\"3-4\",\"4121\",\"39\",\"1\",\"Testing\",\"Stims/Figures/84-C-20-2.bmp\",\"pa:pa:ka\",\"Left\",\"39\",\"3\",\"4\",\"5\",\"P\",\"C\",\"52\"
\"\",\"\",\"approach-retreat\",\"201\",\"1353275\",\"0.0-201.0\",\"\",\"\",\"3-4\",\"4144\",\"37\",\"1\",\"Testing\",\"Stims/Figures/57-C-30-1.bmp\",\"tapa:ka\",\"Right\",\"37\",\"3\",\"5\",\"5\",\"P\",\"C\",\"53\"
\"\",\"\",\"approach-retreat\",\"202\",\"1358889\",\"0.0-202.0\",\"\",\"\",\"3-4\",\"4097\",\"40\",\"1\",\"Testing\",\"Stims/Figures/7-C-20-4.bmp\",\"paka:ta\",\"Up\",\"40\",\"3\",\"6\",\"5\",\"P\",\"C\",\"54\"
\"\",\"\",\"approach-retreat\",\"203\",\"1364767\",\"0.0-203.0\",\"\",\"\",\"3-4\",\"4349\",\"39\",\"1\",\"Testing\",\"Stims/Figures/100-J-10-3.bmp\",\"ma:ma:la\",\"Right\",\"39\",\"3\",\"7\",\"5\",\"S\",\"C\",\"55\"
\"\",\"\",\"approach-retreat\",\"204\",\"1370794\",\"0.0-204.0\",\"\",\"\",\"3-4\",\"4509\",\"37\",\"1\",\"Testing\",\"Stims/Figures/7-J-10-4.bmp\",\"na:la:na\",\"Left\",\"37\",\"3\",\"8\",\"5\",\"S\",\"C\",\"56\"
\"\",\"\",\"approach-retreat\",\"205\",\"1376782\",\"0.0-205.0\",\"\",\"\",\"3-4\",\"4470\",\"40\",\"0\",\"Testing\",\"Stims/Figures/19-C-20-4.bmp\",\"tapata\",\"Down\",\"38\",\"3\",\"9\",\"5\",\"P\",\"C\",\"57\"
\"\",\"\",\"approach-retreat\",\"206\",\"1383169\",\"0.0-206.0\",\"\",\"\",\"3-4\",\"4866\",\"40\",\"0\",\"Testing\",\"Stims/Figures/102-C-20-4.bmp\",\"taka:ta\",\"Down\",\"38\",\"3\",\"10\",\"5\",\"P\",\"C\",\"58\"
\"\",\"\",\"approach-retreat\",\"207\",\"1388960\",\"0.0-207.0\",\"\",\"\",\"3-4\",\"4270\",\"39\",\"1\",\"Testing\",\"Stims/Figures/57-J-0-1.bmp\",\"na:ma:la\",\"Right\",\"39\",\"3\",\"11\",\"5\",\"S\",\"C\",\"59\"
\"\",\"\",\"approach-retreat\",\"208\",\"1394767\",\"0.0-208.0\",\"\",\"\",\"3-4\",\"4286\",\"38\",\"1\",\"Testing\",\"Stims/Figures/71-C-30-1.bmp\",\"papata\",\"Down\",\"38\",\"3\",\"12\",\"5\",\"P\",\"C\",\"60\"
\"\",\"\",\"approach-retreat\",\"209\",\"1400538\",\"0.0-209.0\",\"\",\"\",\"3-4\",\"4250\",\"38\",\"1\",\"Testing\",\"Stims/Figures/118-J-0-2.bmp\",\"nama:la\",\"Up\",\"38\",\"3\",\"13\",\"5\",\"S\",\"C\",\"61\"
\"\",\"\",\"approach-retreat\",\"210\",\"1406252\",\"0.0-210.0\",\"\",\"\",\"3-4\",\"4196\",\"40\",\"1\",\"Testing\",\"Stims/Figures/27-J-0-1.bmp\",\"mama:la\",\"Down\",\"40\",\"3\",\"14\",\"5\",\"S\",\"C\",\"62\"
\"\",\"\",\"approach-retreat\",\"211\",\"1411951\",\"0.0-211.0\",\"\",\"\",\"3-4\",\"4175\",\"39\",\"1\",\"Testing\",\"Stims/Figures/19-J-10-4.bmp\",\"mamala\",\"Right\",\"39\",\"3\",\"15\",\"5\",\"S\",\"C\",\"63\"
\"\",\"\",\"approach-retreat\",\"212\",\"1417799\",\"0.0-212.0\",\"\",\"\",\"3-4\",\"4331\",\"40\",\"1\",\"Testing\",\"Stims/Figures/84-J-0-2.bmp\",\"nala:la\",\"Down\",\"40\",\"3\",\"16\",\"5\",\"S\",\"C\",\"64\"
\"\",\"\",\"approach-retreat\",\"213\",\"1424631\",\"0.0-213.0\",\"\",\"\",\"3-4\",\"5312\",\"40\",\"1\",\"Testing\",\"Stims/Figures/27-C-30-1.bmp\",\"pa:ka:ta\",\"Up\",\"40\",\"3\",\"17\",\"5\",\"P\",\"C\",\"65\"
\"\",\"\",\"approach-retreat\",\"214\",\"1430309\",\"0.0-214.0\",\"\",\"\",\"3-4\",\"4152\",\"37\",\"1\",\"Testing\",\"Stims/Figures/44-J-10-3.bmp\",\"ma:la:na\",\"Left\",\"37\",\"3\",\"18\",\"5\",\"S\",\"C\",\"66\"
\"\",\"\",\"approach-retreat\",\"215\",\"1436012\",\"0.0-215.0\",\"\",\"\",\"3-4\",\"4173\",\"37\",\"1\",\"Testing\",\"Stims/Figures/139-J-0-2.bmp\",\"na:la:la\",\"Left\",\"37\",\"3\",\"19\",\"5\",\"S\",\"C\",\"67\"
\"\",\"\",\"approach-retreat\",\"216\",\"1441962\",\"0.0-216.0\",\"\",\"\",\"3-4\",\"4431\",\"38\",\"1\",\"Testing\",\"Stims/Figures/128-J-10-3.bmp\",\"mama:na\",\"Up\",\"38\",\"3\",\"20\",\"5\",\"S\",\"C\",\"68\"
\"\",\"\",\"approach-retreat\",\"217\",\"1448153\",\"0.0-217.0\",\"\",\"\",\"3-4\",\"4669\",\"40\",\"1\",\"Testing\",\"Stims/Figures/102-J-10-4.bmp\",\"na:lala\",\"Down\",\"40\",\"3\",\"21\",\"5\",\"S\",\"C\",\"69\"
\"\",\"\",\"approach-retreat\",\"218\",\"1454366\",\"0.0-218.0\",\"\",\"\",\"3-4\",\"4684\",\"37\",\"1\",\"Testing\",\"Stims/Figures/71-J-0-1.bmp\",\"malala\",\"Left\",\"37\",\"3\",\"22\",\"5\",\"S\",\"C\",\"70\"
\"\",\"\",\"approach-retreat\",\"219\",\"1460522\",\"0.0-219.0\",\"\",\"\",\"3-4\",\"4633\",\"40\",\"1\",\"Testing\",\"Stims/Figures/44-C-30-3.bmp\",\"taka:ka\",\"Up\",\"40\",\"3\",\"23\",\"5\",\"P\",\"C\",\"71\"
\"\",\"\",\"approach-retreat\",\"220\",\"1466934\",\"0.0-220.0\",\"\",\"\",\"3-4\",\"4880\",\"40\",\"1\",\"Testing\",\"Stims/Figures/128-C-30-3.bmp\",\"papa:ka\",\"Up\",\"40\",\"3\",\"24\",\"5\",\"P\",\"C\",\"72\"
\"\",\"\",\"approach-retreat\",\"221\",\"1473455\",\"0.0-221.0\",\"\",\"\",\"3-4\",\"5001\",\"40\",\"1\",\"Testing\",\"Stims/Figures/19-J-10-4.bmp\",\"mamala\",\"Down\",\"40\",\"4\",\"1\",\"5\",\"S\",\"C\",\"73\"
\"\",\"\",\"approach-retreat\",\"222\",\"1480457\",\"0.0-222.0\",\"\",\"\",\"3-4\",\"5476\",\"37\",\"1\",\"Testing\",\"Stims/Figures/84-C-20-2.bmp\",\"pa:pa:ka\",\"Right\",\"37\",\"4\",\"2\",\"5\",\"P\",\"C\",\"74\"
\"\",\"\",\"approach-retreat\",\"223\",\"1486633\",\"0.0-223.0\",\"\",\"\",\"3-4\",\"4662\",\"39\",\"1\",\"Testing\",\"Stims/Figures/71-C-30-1.bmp\",\"papata\",\"Left\",\"39\",\"4\",\"3\",\"5\",\"P\",\"C\",\"75\"
\"\",\"\",\"approach-retreat\",\"224\",\"1493176\",\"0.0-224.0\",\"\",\"\",\"3-4\",\"5015\",\"38\",\"0\",\"Testing\",\"Stims/Figures/102-C-20-4.bmp\",\"taka:ta\",\"Up\",\"40\",\"4\",\"4\",\"5\",\"P\",\"C\",\"76\"
\"\",\"\",\"approach-retreat\",\"225\",\"1498786\",\"0.0-225.0\",\"\",\"\",\"3-4\",\"4092\",\"37\",\"0\",\"Testing\",\"Stims/Figures/19-C-20-4.bmp\",\"tapata\",\"Left\",\"39\",\"4\",\"5\",\"5\",\"P\",\"C\",\"77\"
\"\",\"\",\"approach-retreat\",\"226\",\"1504791\",\"0.0-226.0\",\"\",\"\",\"3-4\",\"4486\",\"39\",\"1\",\"Testing\",\"Stims/Figures/7-J-10-4.bmp\",\"na:la:na\",\"Right\",\"39\",\"4\",\"6\",\"5\",\"S\",\"C\",\"78\"
\"\",\"\",\"approach-retreat\",\"227\",\"1512032\",\"0.0-227.0\",\"\",\"\",\"3-4\",\"5715\",\"40\",\"1\",\"Testing\",\"Stims/Figures/100-J-10-3.bmp\",\"ma:ma:la\",\"Down\",\"40\",\"4\",\"7\",\"5\",\"S\",\"C\",\"79\"
\"\",\"\",\"approach-retreat\",\"228\",\"1518047\",\"0.0-228.0\",\"\",\"\",\"3-4\",\"4489\",\"40\",\"1\",\"Testing\",\"Stims/Figures/100-C-30-3.bmp\",\"pakata\",\"Up\",\"40\",\"4\",\"8\",\"5\",\"P\",\"C\",\"80\"
\"\",\"\",\"approach-retreat\",\"229\",\"1525535\",\"0.0-229.0\",\"\",\"\",\"3-4\",\"5959\",\"40\",\"1\",\"Testing\",\"Stims/Figures/84-J-0-2.bmp\",\"nala:la\",\"Down\",\"40\",\"4\",\"9\",\"5\",\"S\",\"C\",\"81\"
\"\",\"\",\"approach-retreat\",\"230\",\"1531172\",\"0.0-230.0\",\"\",\"\",\"3-4\",\"4119\",\"39\",\"1\",\"Testing\",\"Stims/Figures/57-C-30-1.bmp\",\"tapa:ka\",\"Left\",\"39\",\"4\",\"10\",\"5\",\"P\",\"C\",\"82\"
\"\",\"\",\"approach-retreat\",\"231\",\"1537558\",\"0.0-231.0\",\"\",\"\",\"3-4\",\"4861\",\"40\",\"0\",\"Testing\",\"Stims/Figures/7-C-20-4.bmp\",\"paka:ta\",\"Down\",\"38\",\"4\",\"11\",\"5\",\"P\",\"C\",\"83\"
\"\",\"\",\"approach-retreat\",\"232\",\"1543584\",\"0.0-232.0\",\"\",\"\",\"3-4\",\"4502\",\"38\",\"1\",\"Testing\",\"Stims/Figures/44-C-30-3.bmp\",\"taka:ka\",\"Down\",\"38\",\"4\",\"12\",\"5\",\"P\",\"C\",\"84\"
\"\",\"\",\"approach-retreat\",\"233\",\"1550559\",\"0.0-233.0\",\"\",\"\",\"3-4\",\"5452\",\"37\",\"1\",\"Testing\",\"Stims/Figures/27-C-30-1.bmp\",\"pa:ka:ta\",\"Right\",\"37\",\"4\",\"13\",\"5\",\"P\",\"C\",\"85\"
\"\",\"\",\"approach-retreat\",\"234\",\"1557008\",\"0.0-234.0\",\"\",\"\",\"3-4\",\"4924\",\"38\",\"1\",\"Testing\",\"Stims/Figures/71-J-0-1.bmp\",\"malala\",\"Up\",\"38\",\"4\",\"14\",\"5\",\"S\",\"C\",\"86\"
\"\",\"\",\"approach-retreat\",\"235\",\"1562669\",\"0.0-235.0\",\"\",\"\",\"3-4\",\"4140\",\"37\",\"1\",\"Testing\",\"Stims/Figures/118-J-0-2.bmp\",\"nama:la\",\"Left\",\"37\",\"4\",\"15\",\"5\",\"S\",\"C\",\"87\"
\"\",\"\",\"approach-retreat\",\"236\",\"1568450\",\"0.0-236.0\",\"\",\"\",\"3-4\",\"4241\",\"38\",\"1\",\"Testing\",\"Stims/Figures/128-J-10-3.bmp\",\"mama:na\",\"Up\",\"38\",\"4\",\"16\",\"5\",\"S\",\"C\",\"88\"
\"\",\"\",\"approach-retreat\",\"237\",\"1574310\",\"0.0-237.0\",\"\",\"\",\"3-4\",\"4341\",\"38\",\"1\",\"Testing\",\"Stims/Figures/128-C-30-3.bmp\",\"papa:ka\",\"Down\",\"38\",\"4\",\"17\",\"5\",\"P\",\"C\",\"89\"
\"\",\"\",\"approach-retreat\",\"238\",\"1581263\",\"0.0-238.0\",\"\",\"\",\"3-4\",\"5430\",\"37\",\"1\",\"Testing\",\"Stims/Figures/44-J-10-3.bmp\",\"ma:la:na\",\"Left\",\"37\",\"4\",\"18\",\"5\",\"S\",\"C\",\"90\"
\"\",\"\",\"approach-retreat\",\"239\",\"1586995\",\"0.0-239.0\",\"\",\"\",\"3-4\",\"4214\",\"37\",\"1\",\"Testing\",\"Stims/Figures/139-C-20-2.bmp\",\"takata\",\"Right\",\"37\",\"4\",\"19\",\"5\",\"P\",\"C\",\"91\"
\"\",\"\",\"approach-retreat\",\"240\",\"1592790\",\"0.0-240.0\",\"\",\"\",\"3-4\",\"4276\",\"38\",\"1\",\"Testing\",\"Stims/Figures/139-J-0-2.bmp\",\"na:la:la\",\"Up\",\"38\",\"4\",\"20\",\"5\",\"S\",\"C\",\"92\"
\"\",\"\",\"approach-retreat\",\"241\",\"1598682\",\"0.0-241.0\",\"\",\"\",\"3-4\",\"4368\",\"39\",\"0\",\"Testing\",\"Stims/Figures/118-C-20-2.bmp\",\"papa:ta\",\"Right\",\"37\",\"4\",\"21\",\"5\",\"P\",\"C\",\"93\"
\"\",\"\",\"approach-retreat\",\"242\",\"1604515\",\"0.0-242.0\",\"\",\"\",\"3-4\",\"4308\",\"38\",\"1\",\"Testing\",\"Stims/Figures/27-J-0-1.bmp\",\"mama:la\",\"Up\",\"38\",\"4\",\"22\",\"5\",\"S\",\"C\",\"94\"
\"\",\"\",\"approach-retreat\",\"243\",\"1610191\",\"0.0-243.0\",\"\",\"\",\"3-4\",\"4146\",\"39\",\"1\",\"Testing\",\"Stims/Figures/57-J-0-1.bmp\",\"na:ma:la\",\"Right\",\"39\",\"4\",\"23\",\"5\",\"S\",\"C\",\"95\"
\"\",\"\",\"approach-retreat\",\"244\",\"1616371\",\"0.0-244.0\",\"\",\"\",\"3-4\",\"4651\",\"37\",\"1\",\"Testing\",\"Stims/Figures/102-J-10-4.bmp\",\"na:lala\",\"Left\",\"37\",\"4\",\"24\",\"5\",\"S\",\"C\",\"96\"
\"\",\"\",\"survey-text\",\"245\",\"1634623\",\"0.0-245.0\",\"\",\"\",\"3-4\",\"22914\",\"39\",\"0\",\"Testing\",\"Stims/Figures/102-J-10-4.bmp\",\"na:lala\",\"Left\",\"37\",\"4\",\"24\",\"5\",\"S\",\"C\",\"\"
