\"rt\",\"key_press\",\"trial_type\",\"trial_index\",\"time_elapsed\",\"internal_node_id\",\"view_history\",\"responses\",\"Id\",\"Rt\",\"ResKeyCode\",\"ResCorr\",\"TrialType2\",\"Image\",\"Label\",\"Location\",\"CorrectResponse\",\"Block\",\"BlockTrial\",\"Condition\",\"LabelType\",\"Subcondition\",\"trialNum\"
\"27174\",\"32\",\"text\",\"0\",\"27178\",\"0.0-0.0-0.0\",\"\",\"\",\"\",\"\",\"\",\"\",\"\",\"\",\"\",\"\",\"\",\"\",\"\",\"\",\"\",\"\",\"\"
\"74423\",\"\",\"instructions\",\"1\",\"101605\",\"0.0-1.0\",\"[{\"\"page_index\"\":0,\"\"viewing_time\"\":74422}]\",\"\",\"\",\"\",\"\",\"\",\"\",\"\",\"\",\"\",\"\",\"\",\"\",\"\",\"\",\"\",\"\"
\"20468\",\"\",\"survey-multi-choice\",\"2\",\"122120\",\"0.0-2.0\",\"\",\"{\"\"Q0\"\":\"\"Da\"\",\"\"Q1\"\":\"\"Da\"\",\"\"Q2\"\":\"\"Da\"\",\"\"Q3\"\":\"\"Da\"\",\"\"Q4\"\":\"\"Da\"\",\"\"Q5\"\":\"\"Da\"\"}\",\"\",\"\",\"\",\"\",\"\",\"\",\"\",\"\",\"\",\"\",\"\",\"\",\"\",\"\",\"\"
\"\",\"\",\"bio\",\"3\",\"130161\",\"0.0-3.0\",\"\",\"{\"\"age\"\":\"\"20\"\",\"\"gender\"\":\"\"m\"\",\"\"specify\"\":\"\"\"\"}\",\"\",\"\",\"\",\"\",\"\",\"\",\"\",\"\",\"\",\"\",\"\",\"\",\"\",\"\",\"\"
\"\",\"\",\"approach-retreat\",\"4\",\"139262\",\"0.0-4.0\",\"\",\"\",\"2-4\",\"7595\",\"39\",\"0\",\"Training\",\"Stims/Figures/87-C-20-4.bmp\",\"papata\",\"Left\",\"37\",\"1\",\"1\",\"5\",\"P\",\"J\",\"1\"
\"\",\"\",\"approach-retreat\",\"5\",\"145793\",\"0.0-5.0\",\"\",\"\",\"2-4\",\"5017\",\"38\",\"0\",\"Training\",\"Stims/Figures/144-C-30-3.bmp\",\"takaka\",\"Down\",\"40\",\"1\",\"2\",\"5\",\"P\",\"J\",\"2\"
\"\",\"\",\"approach-retreat\",\"6\",\"151557\",\"0.0-6.0\",\"\",\"\",\"2-4\",\"4252\",\"39\",\"1\",\"Training\",\"Stims/Figures/27-J-0-1.bmp\",\"nalana\",\"Left\",\"39\",\"1\",\"3\",\"5\",\"S\",\"J\",\"3\"
\"\",\"\",\"approach-retreat\",\"7\",\"157722\",\"0.0-7.0\",\"\",\"\",\"2-4\",\"4651\",\"38\",\"1\",\"Training\",\"Stims/Figures/19-J-10-4.bmp\",\"na:mana\",\"Down\",\"38\",\"1\",\"4\",\"5\",\"S\",\"J\",\"4\"
\"\",\"\",\"approach-retreat\",\"8\",\"163400\",\"0.0-8.0\",\"\",\"\",\"2-4\",\"4165\",\"37\",\"0\",\"Training\",\"Stims/Figures/84-J-0-2.bmp\",\"ma:mana\",\"Left\",\"39\",\"1\",\"5\",\"5\",\"S\",\"J\",\"5\"
\"\",\"\",\"approach-retreat\",\"9\",\"171000\",\"0.0-9.0\",\"\",\"\",\"2-4\",\"6089\",\"38\",\"1\",\"Training\",\"Stims/Figures/57-C-30-1.bmp\",\"tapaka\",\"Up\",\"38\",\"1\",\"6\",\"5\",\"P\",\"J\",\"6\"
\"\",\"\",\"approach-retreat\",\"10\",\"178319\",\"0.0-10.0\",\"\",\"\",\"2-4\",\"5805\",\"40\",\"1\",\"Training\",\"Stims/Figures/84-C-20-2.bmp\",\"pa:kata\",\"Down\",\"40\",\"1\",\"7\",\"5\",\"P\",\"J\",\"7\"
\"\",\"\",\"approach-retreat\",\"11\",\"184200\",\"0.0-11.0\",\"\",\"\",\"2-4\",\"4370\",\"38\",\"0\",\"Training\",\"Stims/Figures/111-J-10-3.bmp\",\"nala:na\",\"Up\",\"40\",\"1\",\"8\",\"5\",\"S\",\"J\",\"8\"
\"\",\"\",\"approach-retreat\",\"12\",\"190231\",\"0.0-12.0\",\"\",\"\",\"2-4\",\"4515\",\"37\",\"1\",\"Training\",\"Stims/Figures/139-J-0-2.bmp\",\"na:ma:na\",\"Right\",\"37\",\"1\",\"9\",\"5\",\"S\",\"J\",\"9\"
\"\",\"\",\"approach-retreat\",\"13\",\"196584\",\"0.0-13.0\",\"\",\"\",\"2-4\",\"4840\",\"39\",\"0\",\"Training\",\"Stims/Figures/111-C-30-3.bmp\",\"tapa:ta\",\"Left\",\"37\",\"1\",\"10\",\"5\",\"P\",\"J\",\"10\"
\"\",\"\",\"approach-retreat\",\"14\",\"202407\",\"0.0-14.0\",\"\",\"\",\"2-4\",\"4310\",\"38\",\"1\",\"Training\",\"Stims/Figures/144-J-10-3.bmp\",\"malala\",\"Down\",\"38\",\"1\",\"11\",\"5\",\"S\",\"J\",\"11\"
\"\",\"\",\"approach-retreat\",\"15\",\"208233\",\"0.0-15.0\",\"\",\"\",\"2-4\",\"4315\",\"40\",\"1\",\"Training\",\"Stims/Figures/87-J-10-4.bmp\",\"mama:la\",\"Up\",\"40\",\"1\",\"12\",\"5\",\"S\",\"J\",\"12\"
\"\",\"\",\"approach-retreat\",\"16\",\"215023\",\"0.0-16.0\",\"\",\"\",\"2-4\",\"5277\",\"37\",\"0\",\"Training\",\"Stims/Figures/19-C-20-4.bmp\",\"ta:ka:ta\",\"Right\",\"39\",\"1\",\"13\",\"5\",\"P\",\"J\",\"13\"
\"\",\"\",\"approach-retreat\",\"17\",\"221694\",\"0.0-17.0\",\"\",\"\",\"2-4\",\"5160\",\"38\",\"1\",\"Training\",\"Stims/Figures/27-C-30-1.bmp\",\"pa:pa:ka\",\"Up\",\"38\",\"1\",\"14\",\"5\",\"P\",\"J\",\"14\"
\"\",\"\",\"approach-retreat\",\"18\",\"228014\",\"0.0-18.0\",\"\",\"\",\"2-4\",\"4807\",\"39\",\"0\",\"Training\",\"Stims/Figures/57-J-0-1.bmp\",\"namala\",\"Right\",\"37\",\"1\",\"15\",\"5\",\"S\",\"J\",\"15\"
\"\",\"\",\"approach-retreat\",\"19\",\"233895\",\"0.0-19.0\",\"\",\"\",\"2-4\",\"4367\",\"39\",\"1\",\"Training\",\"Stims/Figures/139-C-20-2.bmp\",\"pa:kaka\",\"Right\",\"39\",\"1\",\"16\",\"5\",\"P\",\"J\",\"16\"
\"\",\"\",\"approach-retreat\",\"20\",\"239574\",\"0.0-20.0\",\"\",\"\",\"2-4\",\"4167\",\"40\",\"1\",\"Training\",\"Stims/Figures/27-J-0-1.bmp\",\"nalana\",\"Up\",\"40\",\"2\",\"1\",\"5\",\"S\",\"J\",\"17\"
\"\",\"\",\"approach-retreat\",\"21\",\"245606\",\"0.0-21.0\",\"\",\"\",\"2-4\",\"4520\",\"39\",\"1\",\"Training\",\"Stims/Figures/57-J-0-1.bmp\",\"namala\",\"Left\",\"39\",\"2\",\"2\",\"5\",\"S\",\"J\",\"18\"
\"\",\"\",\"approach-retreat\",\"22\",\"252342\",\"0.0-22.0\",\"\",\"\",\"2-4\",\"5222\",\"40\",\"1\",\"Training\",\"Stims/Figures/139-C-20-2.bmp\",\"pa:kaka\",\"Down\",\"40\",\"2\",\"3\",\"5\",\"P\",\"J\",\"19\"
\"\",\"\",\"approach-retreat\",\"23\",\"258183\",\"0.0-23.0\",\"\",\"\",\"2-4\",\"4323\",\"37\",\"1\",\"Training\",\"Stims/Figures/111-J-10-3.bmp\",\"nala:na\",\"Right\",\"37\",\"2\",\"4\",\"5\",\"S\",\"J\",\"20\"
\"\",\"\",\"approach-retreat\",\"24\",\"264021\",\"0.0-24.0\",\"\",\"\",\"2-4\",\"4327\",\"38\",\"0\",\"Training\",\"Stims/Figures/111-C-30-3.bmp\",\"tapa:ta\",\"Down\",\"40\",\"2\",\"5\",\"5\",\"P\",\"J\",\"21\"
\"\",\"\",\"approach-retreat\",\"25\",\"270286\",\"0.0-25.0\",\"\",\"\",\"2-4\",\"4753\",\"39\",\"1\",\"Training\",\"Stims/Figures/19-C-20-4.bmp\",\"ta:ka:ta\",\"Right\",\"39\",\"2\",\"6\",\"5\",\"P\",\"J\",\"22\"
\"\",\"\",\"approach-retreat\",\"26\",\"276030\",\"0.0-26.0\",\"\",\"\",\"2-4\",\"4231\",\"38\",\"1\",\"Training\",\"Stims/Figures/144-J-10-3.bmp\",\"malala\",\"Down\",\"38\",\"2\",\"7\",\"5\",\"S\",\"J\",\"23\"
\"\",\"\",\"approach-retreat\",\"27\",\"282511\",\"0.0-27.0\",\"\",\"\",\"2-4\",\"4968\",\"39\",\"1\",\"Training\",\"Stims/Figures/87-J-10-4.bmp\",\"mama:la\",\"Left\",\"39\",\"2\",\"8\",\"5\",\"S\",\"J\",\"24\"
\"\",\"\",\"approach-retreat\",\"28\",\"288455\",\"0.0-28.0\",\"\",\"\",\"2-4\",\"4430\",\"40\",\"0\",\"Training\",\"Stims/Figures/27-C-30-1.bmp\",\"pa:pa:ka\",\"Up\",\"38\",\"2\",\"9\",\"5\",\"P\",\"J\",\"25\"
\"\",\"\",\"approach-retreat\",\"29\",\"294662\",\"0.0-29.0\",\"\",\"\",\"2-4\",\"4697\",\"38\",\"1\",\"Training\",\"Stims/Figures/144-C-30-3.bmp\",\"takaka\",\"Up\",\"38\",\"2\",\"10\",\"5\",\"P\",\"J\",\"26\"
\"\",\"\",\"approach-retreat\",\"30\",\"300566\",\"0.0-30.0\",\"\",\"\",\"2-4\",\"4389\",\"39\",\"1\",\"Training\",\"Stims/Figures/139-J-0-2.bmp\",\"na:ma:na\",\"Left\",\"39\",\"2\",\"11\",\"5\",\"S\",\"J\",\"27\"
\"\",\"\",\"approach-retreat\",\"31\",\"306855\",\"0.0-31.0\",\"\",\"\",\"2-4\",\"4776\",\"38\",\"1\",\"Training\",\"Stims/Figures/87-C-20-4.bmp\",\"papata\",\"Up\",\"38\",\"2\",\"12\",\"5\",\"P\",\"J\",\"28\"
\"\",\"\",\"approach-retreat\",\"32\",\"312862\",\"0.0-32.0\",\"\",\"\",\"2-4\",\"4496\",\"37\",\"1\",\"Training\",\"Stims/Figures/84-C-20-2.bmp\",\"pa:kata\",\"Left\",\"37\",\"2\",\"13\",\"5\",\"P\",\"J\",\"29\"
\"\",\"\",\"approach-retreat\",\"33\",\"318742\",\"0.0-33.0\",\"\",\"\",\"2-4\",\"4368\",\"39\",\"0\",\"Training\",\"Stims/Figures/19-J-10-4.bmp\",\"na:mana\",\"Right\",\"37\",\"2\",\"14\",\"5\",\"S\",\"J\",\"30\"
\"\",\"\",\"approach-retreat\",\"34\",\"324949\",\"0.0-34.0\",\"\",\"\",\"2-4\",\"4694\",\"39\",\"1\",\"Training\",\"Stims/Figures/57-C-30-1.bmp\",\"tapaka\",\"Right\",\"39\",\"2\",\"15\",\"5\",\"P\",\"J\",\"31\"
\"\",\"\",\"approach-retreat\",\"35\",\"330847\",\"0.0-35.0\",\"\",\"\",\"2-4\",\"4385\",\"38\",\"1\",\"Training\",\"Stims/Figures/84-J-0-2.bmp\",\"ma:mana\",\"Down\",\"38\",\"2\",\"16\",\"5\",\"S\",\"J\",\"32\"
\"\",\"\",\"approach-retreat\",\"36\",\"337150\",\"0.0-36.0\",\"\",\"\",\"2-4\",\"4790\",\"39\",\"1\",\"Training\",\"Stims/Figures/27-C-30-1.bmp\",\"pa:pa:ka\",\"Right\",\"39\",\"3\",\"1\",\"5\",\"P\",\"J\",\"33\"
\"\",\"\",\"approach-retreat\",\"37\",\"343287\",\"0.0-37.0\",\"\",\"\",\"2-4\",\"4624\",\"40\",\"0\",\"Training\",\"Stims/Figures/87-J-10-4.bmp\",\"mama:la\",\"Down\",\"38\",\"3\",\"2\",\"5\",\"S\",\"J\",\"34\"
\"\",\"\",\"approach-retreat\",\"38\",\"350000\",\"0.0-38.0\",\"\",\"\",\"2-4\",\"5198\",\"40\",\"1\",\"Training\",\"Stims/Figures/57-C-30-1.bmp\",\"tapaka\",\"Down\",\"40\",\"3\",\"3\",\"5\",\"P\",\"J\",\"35\"
\"\",\"\",\"approach-retreat\",\"39\",\"357039\",\"0.0-39.0\",\"\",\"\",\"2-4\",\"5524\",\"40\",\"1\",\"Training\",\"Stims/Figures/19-J-10-4.bmp\",\"na:mana\",\"Up\",\"40\",\"3\",\"4\",\"5\",\"S\",\"J\",\"36\"
\"\",\"\",\"approach-retreat\",\"40\",\"363573\",\"0.0-40.0\",\"\",\"\",\"2-4\",\"5023\",\"40\",\"1\",\"Training\",\"Stims/Figures/84-J-0-2.bmp\",\"ma:mana\",\"Up\",\"40\",\"3\",\"5\",\"5\",\"S\",\"J\",\"37\"
\"\",\"\",\"approach-retreat\",\"41\",\"370862\",\"0.0-41.0\",\"\",\"\",\"2-4\",\"5774\",\"37\",\"1\",\"Training\",\"Stims/Figures/144-J-10-3.bmp\",\"malala\",\"Right\",\"37\",\"3\",\"6\",\"5\",\"S\",\"J\",\"38\"
\"\",\"\",\"approach-retreat\",\"42\",\"378565\",\"0.0-42.0\",\"\",\"\",\"2-4\",\"6191\",\"37\",\"1\",\"Training\",\"Stims/Figures/111-C-30-3.bmp\",\"tapa:ta\",\"Left\",\"37\",\"3\",\"7\",\"5\",\"P\",\"J\",\"39\"
\"\",\"\",\"approach-retreat\",\"43\",\"393511\",\"0.0-43.0\",\"\",\"\",\"2-4\",\"13435\",\"39\",\"1\",\"Training\",\"Stims/Figures/27-J-0-1.bmp\",\"nalana\",\"Left\",\"39\",\"3\",\"8\",\"5\",\"S\",\"J\",\"40\"
\"\",\"\",\"approach-retreat\",\"44\",\"399790\",\"0.0-44.0\",\"\",\"\",\"2-4\",\"4766\",\"37\",\"1\",\"Training\",\"Stims/Figures/84-C-20-2.bmp\",\"pa:kata\",\"Left\",\"37\",\"3\",\"9\",\"5\",\"P\",\"J\",\"41\"
\"\",\"\",\"approach-retreat\",\"45\",\"406582\",\"0.0-45.0\",\"\",\"\",\"2-4\",\"5281\",\"40\",\"0\",\"Training\",\"Stims/Figures/57-J-0-1.bmp\",\"namala\",\"Down\",\"38\",\"3\",\"10\",\"5\",\"S\",\"J\",\"42\"
\"\",\"\",\"approach-retreat\",\"46\",\"412661\",\"0.0-46.0\",\"\",\"\",\"2-4\",\"4567\",\"39\",\"1\",\"Training\",\"Stims/Figures/144-C-30-3.bmp\",\"takaka\",\"Right\",\"39\",\"3\",\"11\",\"5\",\"P\",\"J\",\"43\"
\"\",\"\",\"approach-retreat\",\"47\",\"418542\",\"0.0-47.0\",\"\",\"\",\"2-4\",\"4367\",\"37\",\"1\",\"Training\",\"Stims/Figures/87-C-20-4.bmp\",\"papata\",\"Left\",\"37\",\"3\",\"12\",\"5\",\"P\",\"J\",\"44\"
\"\",\"\",\"approach-retreat\",\"48\",\"427157\",\"0.0-48.0\",\"\",\"\",\"2-4\",\"7102\",\"40\",\"1\",\"Training\",\"Stims/Figures/111-J-10-3.bmp\",\"nala:na\",\"Up\",\"40\",\"3\",\"13\",\"5\",\"S\",\"J\",\"45\"
\"\",\"\",\"approach-retreat\",\"49\",\"434229\",\"0.0-49.0\",\"\",\"\",\"2-4\",\"5565\",\"38\",\"1\",\"Training\",\"Stims/Figures/139-J-0-2.bmp\",\"na:ma:na\",\"Down\",\"38\",\"3\",\"14\",\"5\",\"S\",\"J\",\"46\"
\"\",\"\",\"approach-retreat\",\"50\",\"441101\",\"0.0-50.0\",\"\",\"\",\"2-4\",\"5358\",\"38\",\"1\",\"Training\",\"Stims/Figures/139-C-20-2.bmp\",\"pa:kaka\",\"Up\",\"38\",\"3\",\"15\",\"5\",\"P\",\"J\",\"47\"
\"\",\"\",\"approach-retreat\",\"51\",\"449949\",\"0.0-51.0\",\"\",\"\",\"2-4\",\"7337\",\"39\",\"1\",\"Training\",\"Stims/Figures/19-C-20-4.bmp\",\"ta:ka:ta\",\"Right\",\"39\",\"3\",\"16\",\"5\",\"P\",\"J\",\"48\"
\"\",\"\",\"approach-retreat\",\"52\",\"456013\",\"0.0-52.0\",\"\",\"\",\"2-4\",\"4552\",\"38\",\"1\",\"Training\",\"Stims/Figures/27-J-0-1.bmp\",\"nalana\",\"Down\",\"38\",\"4\",\"1\",\"5\",\"S\",\"J\",\"49\"
\"\",\"\",\"approach-retreat\",\"53\",\"461925\",\"0.0-53.0\",\"\",\"\",\"2-4\",\"4399\",\"37\",\"1\",\"Training\",\"Stims/Figures/84-J-0-2.bmp\",\"ma:mana\",\"Right\",\"37\",\"4\",\"2\",\"5\",\"S\",\"J\",\"50\"
\"\",\"\",\"approach-retreat\",\"54\",\"467805\",\"0.0-54.0\",\"\",\"\",\"2-4\",\"4368\",\"37\",\"1\",\"Training\",\"Stims/Figures/57-J-0-1.bmp\",\"namala\",\"Right\",\"37\",\"4\",\"3\",\"5\",\"S\",\"J\",\"51\"
\"\",\"\",\"approach-retreat\",\"55\",\"474629\",\"0.0-55.0\",\"\",\"\",\"2-4\",\"5310\",\"37\",\"0\",\"Training\",\"Stims/Figures/139-J-0-2.bmp\",\"na:ma:na\",\"Left\",\"39\",\"4\",\"4\",\"5\",\"S\",\"J\",\"52\"
\"\",\"\",\"approach-retreat\",\"56\",\"480733\",\"0.0-56.0\",\"\",\"\",\"2-4\",\"4599\",\"40\",\"1\",\"Training\",\"Stims/Figures/144-J-10-3.bmp\",\"malala\",\"Up\",\"40\",\"4\",\"5\",\"5\",\"S\",\"J\",\"53\"
\"\",\"\",\"approach-retreat\",\"57\",\"487045\",\"0.0-57.0\",\"\",\"\",\"2-4\",\"4799\",\"40\",\"1\",\"Training\",\"Stims/Figures/57-C-30-1.bmp\",\"tapaka\",\"Down\",\"40\",\"4\",\"6\",\"5\",\"P\",\"J\",\"54\"
\"\",\"\",\"approach-retreat\",\"58\",\"493221\",\"0.0-58.0\",\"\",\"\",\"2-4\",\"4664\",\"38\",\"1\",\"Training\",\"Stims/Figures/27-C-30-1.bmp\",\"pa:pa:ka\",\"Up\",\"38\",\"4\",\"7\",\"5\",\"P\",\"J\",\"55\"
\"\",\"\",\"approach-retreat\",\"59\",\"499916\",\"0.0-59.0\",\"\",\"\",\"2-4\",\"5181\",\"38\",\"1\",\"Training\",\"Stims/Figures/111-J-10-3.bmp\",\"nala:na\",\"Down\",\"38\",\"4\",\"8\",\"5\",\"S\",\"J\",\"56\"
\"\",\"\",\"approach-retreat\",\"60\",\"507268\",\"0.0-60.0\",\"\",\"\",\"2-4\",\"5839\",\"37\",\"1\",\"Training\",\"Stims/Figures/144-C-30-3.bmp\",\"takaka\",\"Left\",\"37\",\"4\",\"9\",\"5\",\"P\",\"J\",\"57\"
\"\",\"\",\"approach-retreat\",\"61\",\"513900\",\"0.0-61.0\",\"\",\"\",\"2-4\",\"5120\",\"37\",\"1\",\"Training\",\"Stims/Figures/84-C-20-2.bmp\",\"pa:kata\",\"Left\",\"37\",\"4\",\"10\",\"5\",\"P\",\"J\",\"58\"
\"\",\"\",\"approach-retreat\",\"62\",\"523527\",\"0.0-62.0\",\"\",\"\",\"2-4\",\"8114\",\"37\",\"1\",\"Training\",\"Stims/Figures/87-J-10-4.bmp\",\"mama:la\",\"Right\",\"37\",\"4\",\"11\",\"5\",\"S\",\"J\",\"59\"
\"\",\"\",\"approach-retreat\",\"63\",\"530565\",\"0.0-63.0\",\"\",\"\",\"2-4\",\"5525\",\"40\",\"1\",\"Training\",\"Stims/Figures/111-C-30-3.bmp\",\"tapa:ta\",\"Down\",\"40\",\"4\",\"12\",\"5\",\"P\",\"J\",\"60\"
\"\",\"\",\"approach-retreat\",\"64\",\"537181\",\"0.0-64.0\",\"\",\"\",\"2-4\",\"5103\",\"39\",\"1\",\"Training\",\"Stims/Figures/87-C-20-4.bmp\",\"papata\",\"Right\",\"39\",\"4\",\"13\",\"5\",\"P\",\"J\",\"61\"
\"\",\"\",\"approach-retreat\",\"65\",\"543716\",\"0.0-65.0\",\"\",\"\",\"2-4\",\"5022\",\"37\",\"1\",\"Training\",\"Stims/Figures/139-C-20-2.bmp\",\"pa:kaka\",\"Left\",\"37\",\"4\",\"14\",\"5\",\"P\",\"J\",\"62\"
\"\",\"\",\"approach-retreat\",\"66\",\"550581\",\"0.0-66.0\",\"\",\"\",\"2-4\",\"5359\",\"38\",\"1\",\"Training\",\"Stims/Figures/19-C-20-4.bmp\",\"ta:ka:ta\",\"Up\",\"38\",\"4\",\"15\",\"5\",\"P\",\"J\",\"63\"
\"\",\"\",\"approach-retreat\",\"67\",\"557877\",\"0.0-67.0\",\"\",\"\",\"2-4\",\"5784\",\"40\",\"1\",\"Training\",\"Stims/Figures/19-J-10-4.bmp\",\"na:mana\",\"Up\",\"40\",\"4\",\"16\",\"5\",\"S\",\"J\",\"64\"
\"\",\"\",\"approach-retreat\",\"68\",\"564398\",\"0.0-68.0\",\"\",\"\",\"2-4\",\"5004\",\"40\",\"1\",\"Training\",\"Stims/Figures/19-C-20-4.bmp\",\"ta:ka:ta\",\"Down\",\"40\",\"5\",\"1\",\"5\",\"P\",\"J\",\"65\"
\"\",\"\",\"approach-retreat\",\"69\",\"570332\",\"0.0-69.0\",\"\",\"\",\"2-4\",\"4422\",\"39\",\"1\",\"Training\",\"Stims/Figures/87-C-20-4.bmp\",\"papata\",\"Right\",\"39\",\"5\",\"2\",\"5\",\"P\",\"J\",\"66\"
\"\",\"\",\"approach-retreat\",\"70\",\"576445\",\"0.0-70.0\",\"\",\"\",\"2-4\",\"4601\",\"38\",\"1\",\"Training\",\"Stims/Figures/111-C-30-3.bmp\",\"tapa:ta\",\"Up\",\"38\",\"5\",\"3\",\"5\",\"P\",\"J\",\"67\"
\"\",\"\",\"approach-retreat\",\"71\",\"582277\",\"0.0-71.0\",\"\",\"\",\"2-4\",\"4327\",\"37\",\"1\",\"Training\",\"Stims/Figures/87-J-10-4.bmp\",\"mama:la\",\"Right\",\"37\",\"5\",\"4\",\"5\",\"S\",\"J\",\"68\"
\"\",\"\",\"approach-retreat\",\"72\",\"587962\",\"0.0-72.0\",\"\",\"\",\"2-4\",\"4171\",\"37\",\"1\",\"Training\",\"Stims/Figures/57-J-0-1.bmp\",\"namala\",\"Right\",\"37\",\"5\",\"5\",\"5\",\"S\",\"J\",\"69\"
\"\",\"\",\"approach-retreat\",\"73\",\"593828\",\"0.0-73.0\",\"\",\"\",\"2-4\",\"4355\",\"40\",\"1\",\"Training\",\"Stims/Figures/19-J-10-4.bmp\",\"na:mana\",\"Up\",\"40\",\"5\",\"6\",\"5\",\"S\",\"J\",\"70\"
\"\",\"\",\"approach-retreat\",\"74\",\"600405\",\"0.0-74.0\",\"\",\"\",\"2-4\",\"5066\",\"38\",\"1\",\"Training\",\"Stims/Figures/139-J-0-2.bmp\",\"na:ma:na\",\"Down\",\"38\",\"5\",\"7\",\"5\",\"S\",\"J\",\"71\"
\"\",\"\",\"approach-retreat\",\"75\",\"606619\",\"0.0-75.0\",\"\",\"\",\"2-4\",\"4702\",\"37\",\"1\",\"Training\",\"Stims/Figures/139-C-20-2.bmp\",\"pa:kaka\",\"Left\",\"37\",\"5\",\"8\",\"5\",\"P\",\"J\",\"72\"
\"\",\"\",\"approach-retreat\",\"76\",\"613101\",\"0.0-76.0\",\"\",\"\",\"2-4\",\"4970\",\"38\",\"1\",\"Training\",\"Stims/Figures/144-J-10-3.bmp\",\"malala\",\"Down\",\"38\",\"5\",\"9\",\"5\",\"S\",\"J\",\"73\"
\"\",\"\",\"approach-retreat\",\"77\",\"619732\",\"0.0-77.0\",\"\",\"\",\"2-4\",\"5118\",\"39\",\"1\",\"Training\",\"Stims/Figures/27-C-30-1.bmp\",\"pa:pa:ka\",\"Right\",\"39\",\"5\",\"10\",\"5\",\"P\",\"J\",\"74\"
\"\",\"\",\"approach-retreat\",\"78\",\"627428\",\"0.0-78.0\",\"\",\"\",\"2-4\",\"6184\",\"39\",\"1\",\"Training\",\"Stims/Figures/84-J-0-2.bmp\",\"ma:mana\",\"Left\",\"39\",\"5\",\"11\",\"5\",\"S\",\"J\",\"75\"
\"\",\"\",\"approach-retreat\",\"79\",\"633804\",\"0.0-79.0\",\"\",\"\",\"2-4\",\"4864\",\"40\",\"1\",\"Training\",\"Stims/Figures/27-J-0-1.bmp\",\"nalana\",\"Up\",\"40\",\"5\",\"12\",\"5\",\"S\",\"J\",\"76\"
\"\",\"\",\"approach-retreat\",\"80\",\"642421\",\"0.0-80.0\",\"\",\"\",\"2-4\",\"7102\",\"38\",\"1\",\"Training\",\"Stims/Figures/144-C-30-3.bmp\",\"takaka\",\"Up\",\"38\",\"5\",\"13\",\"5\",\"P\",\"J\",\"77\"
\"\",\"\",\"approach-retreat\",\"81\",\"648875\",\"0.0-81.0\",\"\",\"\",\"2-4\",\"4942\",\"37\",\"1\",\"Training\",\"Stims/Figures/57-C-30-1.bmp\",\"tapaka\",\"Left\",\"37\",\"5\",\"14\",\"5\",\"P\",\"J\",\"78\"
\"\",\"\",\"approach-retreat\",\"82\",\"654806\",\"0.0-82.0\",\"\",\"\",\"2-4\",\"4419\",\"37\",\"1\",\"Training\",\"Stims/Figures/84-C-20-2.bmp\",\"pa:kata\",\"Left\",\"37\",\"5\",\"15\",\"5\",\"P\",\"J\",\"79\"
\"\",\"\",\"approach-retreat\",\"83\",\"662443\",\"0.0-83.0\",\"\",\"\",\"2-4\",\"6124\",\"38\",\"1\",\"Training\",\"Stims/Figures/111-J-10-3.bmp\",\"nala:na\",\"Down\",\"38\",\"5\",\"16\",\"5\",\"S\",\"J\",\"80\"
\"\",\"\",\"approach-retreat\",\"84\",\"668451\",\"0.0-84.0\",\"\",\"\",\"2-4\",\"4496\",\"40\",\"1\",\"Training\",\"Stims/Figures/111-C-30-3.bmp\",\"tapa:ta\",\"Down\",\"40\",\"6\",\"1\",\"5\",\"P\",\"J\",\"81\"
\"\",\"\",\"approach-retreat\",\"85\",\"674995\",\"0.0-85.0\",\"\",\"\",\"2-4\",\"5030\",\"38\",\"1\",\"Training\",\"Stims/Figures/139-C-20-2.bmp\",\"pa:kaka\",\"Up\",\"38\",\"6\",\"2\",\"5\",\"P\",\"J\",\"82\"
\"\",\"\",\"approach-retreat\",\"86\",\"681268\",\"0.0-86.0\",\"\",\"\",\"2-4\",\"4761\",\"40\",\"1\",\"Training\",\"Stims/Figures/87-J-10-4.bmp\",\"mama:la\",\"Up\",\"40\",\"6\",\"3\",\"5\",\"S\",\"J\",\"83\"
\"\",\"\",\"approach-retreat\",\"87\",\"686875\",\"0.0-87.0\",\"\",\"\",\"2-4\",\"4096\",\"37\",\"1\",\"Training\",\"Stims/Figures/19-J-10-4.bmp\",\"na:mana\",\"Right\",\"37\",\"6\",\"4\",\"5\",\"S\",\"J\",\"84\"
\"\",\"\",\"approach-retreat\",\"88\",\"694444\",\"0.0-88.0\",\"\",\"\",\"2-4\",\"6057\",\"37\",\"1\",\"Training\",\"Stims/Figures/57-C-30-1.bmp\",\"tapaka\",\"Left\",\"37\",\"6\",\"5\",\"5\",\"P\",\"J\",\"85\"
\"\",\"\",\"approach-retreat\",\"89\",\"701763\",\"0.0-89.0\",\"\",\"\",\"2-4\",\"5807\",\"40\",\"1\",\"Training\",\"Stims/Figures/27-C-30-1.bmp\",\"pa:pa:ka\",\"Down\",\"40\",\"6\",\"6\",\"5\",\"P\",\"J\",\"86\"
\"\",\"\",\"approach-retreat\",\"90\",\"707844\",\"0.0-90.0\",\"\",\"\",\"2-4\",\"4569\",\"37\",\"1\",\"Training\",\"Stims/Figures/57-J-0-1.bmp\",\"namala\",\"Right\",\"37\",\"6\",\"7\",\"5\",\"S\",\"J\",\"87\"
\"\",\"\",\"approach-retreat\",\"91\",\"713668\",\"0.0-91.0\",\"\",\"\",\"2-4\",\"4313\",\"39\",\"1\",\"Training\",\"Stims/Figures/144-C-30-3.bmp\",\"takaka\",\"Right\",\"39\",\"6\",\"8\",\"5\",\"P\",\"J\",\"88\"
\"\",\"\",\"approach-retreat\",\"92\",\"721484\",\"0.0-92.0\",\"\",\"\",\"2-4\",\"6302\",\"38\",\"1\",\"Training\",\"Stims/Figures/139-J-0-2.bmp\",\"na:ma:na\",\"Down\",\"38\",\"6\",\"9\",\"5\",\"S\",\"J\",\"89\"
\"\",\"\",\"approach-retreat\",\"93\",\"732867\",\"0.0-93.0\",\"\",\"\",\"2-4\",\"9871\",\"38\",\"1\",\"Training\",\"Stims/Figures/111-J-10-3.bmp\",\"nala:na\",\"Down\",\"38\",\"6\",\"10\",\"5\",\"S\",\"J\",\"90\"
\"\",\"\",\"approach-retreat\",\"94\",\"740147\",\"0.0-94.0\",\"\",\"\",\"2-4\",\"5767\",\"37\",\"1\",\"Training\",\"Stims/Figures/87-C-20-4.bmp\",\"papata\",\"Left\",\"37\",\"6\",\"11\",\"5\",\"P\",\"J\",\"91\"
\"\",\"\",\"approach-retreat\",\"95\",\"747620\",\"0.0-95.0\",\"\",\"\",\"2-4\",\"5959\",\"38\",\"1\",\"Training\",\"Stims/Figures/84-C-20-2.bmp\",\"pa:kata\",\"Up\",\"38\",\"6\",\"12\",\"5\",\"P\",\"J\",\"92\"
\"\",\"\",\"approach-retreat\",\"96\",\"753701\",\"0.0-96.0\",\"\",\"\",\"2-4\",\"4569\",\"39\",\"1\",\"Training\",\"Stims/Figures/27-J-0-1.bmp\",\"nalana\",\"Left\",\"39\",\"6\",\"13\",\"5\",\"S\",\"J\",\"93\"
\"\",\"\",\"approach-retreat\",\"97\",\"762851\",\"0.0-97.0\",\"\",\"\",\"2-4\",\"7638\",\"40\",\"1\",\"Training\",\"Stims/Figures/84-J-0-2.bmp\",\"ma:mana\",\"Up\",\"40\",\"6\",\"14\",\"5\",\"S\",\"J\",\"94\"
\"\",\"\",\"approach-retreat\",\"98\",\"770922\",\"0.0-98.0\",\"\",\"\",\"2-4\",\"6559\",\"37\",\"1\",\"Training\",\"Stims/Figures/19-C-20-4.bmp\",\"ta:ka:ta\",\"Left\",\"37\",\"6\",\"15\",\"5\",\"P\",\"J\",\"95\"
\"\",\"\",\"approach-retreat\",\"99\",\"777451\",\"0.0-99.0\",\"\",\"\",\"2-4\",\"5017\",\"37\",\"1\",\"Training\",\"Stims/Figures/144-J-10-3.bmp\",\"malala\",\"Right\",\"37\",\"6\",\"16\",\"5\",\"S\",\"J\",\"96\"
\"\",\"\",\"approach-retreat\",\"100\",\"784849\",\"0.0-100.0\",\"\",\"\",\"2-4\",\"5886\",\"38\",\"1\",\"Training\",\"Stims/Figures/84-J-0-2.bmp\",\"ma:mana\",\"Down\",\"38\",\"7\",\"1\",\"5\",\"S\",\"J\",\"97\"
\"\",\"\",\"approach-retreat\",\"101\",\"791508\",\"0.0-101.0\",\"\",\"\",\"2-4\",\"5144\",\"39\",\"1\",\"Training\",\"Stims/Figures/87-J-10-4.bmp\",\"mama:la\",\"Left\",\"39\",\"7\",\"2\",\"5\",\"S\",\"J\",\"98\"
\"\",\"\",\"approach-retreat\",\"102\",\"797923\",\"0.0-102.0\",\"\",\"\",\"2-4\",\"4903\",\"38\",\"1\",\"Training\",\"Stims/Figures/19-C-20-4.bmp\",\"ta:ka:ta\",\"Up\",\"38\",\"7\",\"3\",\"5\",\"P\",\"J\",\"99\"
\"\",\"\",\"approach-retreat\",\"103\",\"805043\",\"0.0-103.0\",\"\",\"\",\"2-4\",\"5608\",\"37\",\"1\",\"Training\",\"Stims/Figures/57-J-0-1.bmp\",\"namala\",\"Right\",\"37\",\"7\",\"4\",\"5\",\"S\",\"J\",\"100\"
\"\",\"\",\"approach-retreat\",\"104\",\"813586\",\"0.0-104.0\",\"\",\"\",\"2-4\",\"7030\",\"40\",\"1\",\"Training\",\"Stims/Figures/111-C-30-3.bmp\",\"tapa:ta\",\"Down\",\"40\",\"7\",\"5\",\"5\",\"P\",\"J\",\"101\"
\"\",\"\",\"approach-retreat\",\"105\",\"821043\",\"0.0-105.0\",\"\",\"\",\"2-4\",\"5944\",\"39\",\"1\",\"Training\",\"Stims/Figures/139-J-0-2.bmp\",\"na:ma:na\",\"Left\",\"39\",\"7\",\"6\",\"5\",\"S\",\"J\",\"102\"
\"\",\"\",\"approach-retreat\",\"106\",\"826979\",\"0.0-106.0\",\"\",\"\",\"2-4\",\"4425\",\"37\",\"1\",\"Training\",\"Stims/Figures/84-C-20-2.bmp\",\"pa:kata\",\"Left\",\"37\",\"7\",\"7\",\"5\",\"P\",\"J\",\"103\"
\"\",\"\",\"approach-retreat\",\"107\",\"834027\",\"0.0-107.0\",\"\",\"\",\"2-4\",\"5536\",\"38\",\"1\",\"Training\",\"Stims/Figures/144-C-30-3.bmp\",\"takaka\",\"Up\",\"38\",\"7\",\"8\",\"5\",\"P\",\"J\",\"104\"
\"\",\"\",\"approach-retreat\",\"108\",\"840634\",\"0.0-108.0\",\"\",\"\",\"2-4\",\"5096\",\"40\",\"1\",\"Training\",\"Stims/Figures/139-C-20-2.bmp\",\"pa:kaka\",\"Down\",\"40\",\"7\",\"9\",\"5\",\"P\",\"J\",\"105\"
\"\",\"\",\"approach-retreat\",\"109\",\"846680\",\"0.0-109.0\",\"\",\"\",\"2-4\",\"4529\",\"40\",\"1\",\"Training\",\"Stims/Figures/144-J-10-3.bmp\",\"malala\",\"Up\",\"40\",\"7\",\"10\",\"5\",\"S\",\"J\",\"106\"
\"\",\"\",\"approach-retreat\",\"110\",\"853162\",\"0.0-110.0\",\"\",\"\",\"2-4\",\"4968\",\"39\",\"1\",\"Training\",\"Stims/Figures/27-J-0-1.bmp\",\"nalana\",\"Left\",\"39\",\"7\",\"11\",\"5\",\"S\",\"J\",\"107\"
\"\",\"\",\"approach-retreat\",\"111\",\"859147\",\"0.0-111.0\",\"\",\"\",\"2-4\",\"4472\",\"40\",\"1\",\"Training\",\"Stims/Figures/111-J-10-3.bmp\",\"nala:na\",\"Up\",\"40\",\"7\",\"12\",\"5\",\"S\",\"J\",\"108\"
\"\",\"\",\"approach-retreat\",\"112\",\"864914\",\"0.0-112.0\",\"\",\"\",\"2-4\",\"4255\",\"38\",\"1\",\"Training\",\"Stims/Figures/19-J-10-4.bmp\",\"na:mana\",\"Down\",\"38\",\"7\",\"13\",\"5\",\"S\",\"J\",\"109\"
\"\",\"\",\"approach-retreat\",\"113\",\"870811\",\"0.0-113.0\",\"\",\"\",\"2-4\",\"4384\",\"39\",\"1\",\"Training\",\"Stims/Figures/87-C-20-4.bmp\",\"papata\",\"Right\",\"39\",\"7\",\"14\",\"5\",\"P\",\"J\",\"110\"
\"\",\"\",\"approach-retreat\",\"114\",\"876988\",\"0.0-114.0\",\"\",\"\",\"2-4\",\"4664\",\"39\",\"1\",\"Training\",\"Stims/Figures/27-C-30-1.bmp\",\"pa:pa:ka\",\"Right\",\"39\",\"7\",\"15\",\"5\",\"P\",\"J\",\"111\"
\"\",\"\",\"approach-retreat\",\"115\",\"882787\",\"0.0-115.0\",\"\",\"\",\"2-4\",\"4293\",\"39\",\"1\",\"Training\",\"Stims/Figures/57-C-30-1.bmp\",\"tapaka\",\"Right\",\"39\",\"7\",\"16\",\"5\",\"P\",\"J\",\"112\"
\"\",\"\",\"approach-retreat\",\"116\",\"889979\",\"0.0-116.0\",\"\",\"\",\"2-4\",\"5680\",\"40\",\"1\",\"Training\",\"Stims/Figures/84-C-20-2.bmp\",\"pa:kata\",\"Down\",\"40\",\"8\",\"1\",\"5\",\"P\",\"J\",\"113\"
\"\",\"\",\"approach-retreat\",\"117\",\"895858\",\"0.0-117.0\",\"\",\"\",\"2-4\",\"4369\",\"40\",\"1\",\"Training\",\"Stims/Figures/111-J-10-3.bmp\",\"nala:na\",\"Up\",\"40\",\"8\",\"2\",\"5\",\"S\",\"J\",\"114\"
\"\",\"\",\"approach-retreat\",\"118\",\"901563\",\"0.0-118.0\",\"\",\"\",\"2-4\",\"4192\",\"38\",\"1\",\"Training\",\"Stims/Figures/84-J-0-2.bmp\",\"ma:mana\",\"Down\",\"38\",\"8\",\"3\",\"5\",\"S\",\"J\",\"115\"
\"\",\"\",\"approach-retreat\",\"119\",\"907322\",\"0.0-119.0\",\"\",\"\",\"2-4\",\"4248\",\"37\",\"1\",\"Training\",\"Stims/Figures/139-J-0-2.bmp\",\"na:ma:na\",\"Right\",\"37\",\"8\",\"4\",\"5\",\"S\",\"J\",\"116\"
\"\",\"\",\"approach-retreat\",\"120\",\"913442\",\"0.0-120.0\",\"\",\"\",\"2-4\",\"4607\",\"40\",\"1\",\"Training\",\"Stims/Figures/57-J-0-1.bmp\",\"namala\",\"Up\",\"40\",\"8\",\"5\",\"5\",\"S\",\"J\",\"117\"
\"\",\"\",\"approach-retreat\",\"121\",\"919098\",\"0.0-121.0\",\"\",\"\",\"2-4\",\"4144\",\"40\",\"1\",\"Training\",\"Stims/Figures/144-J-10-3.bmp\",\"malala\",\"Up\",\"40\",\"8\",\"6\",\"5\",\"S\",\"J\",\"118\"
\"\",\"\",\"approach-retreat\",\"122\",\"926210\",\"0.0-122.0\",\"\",\"\",\"2-4\",\"5597\",\"39\",\"1\",\"Training\",\"Stims/Figures/19-C-20-4.bmp\",\"ta:ka:ta\",\"Right\",\"39\",\"8\",\"7\",\"5\",\"P\",\"J\",\"119\"
\"\",\"\",\"approach-retreat\",\"123\",\"932101\",\"0.0-123.0\",\"\",\"\",\"2-4\",\"4380\",\"37\",\"1\",\"Training\",\"Stims/Figures/139-C-20-2.bmp\",\"pa:kaka\",\"Left\",\"37\",\"8\",\"8\",\"5\",\"P\",\"J\",\"120\"
\"\",\"\",\"approach-retreat\",\"124\",\"940258\",\"0.0-124.0\",\"\",\"\",\"2-4\",\"6643\",\"39\",\"1\",\"Training\",\"Stims/Figures/27-J-0-1.bmp\",\"nalana\",\"Left\",\"39\",\"8\",\"9\",\"5\",\"S\",\"J\",\"121\"
\"\",\"\",\"approach-retreat\",\"125\",\"946065\",\"0.0-125.0\",\"\",\"\",\"2-4\",\"4302\",\"40\",\"0\",\"Training\",\"Stims/Figures/144-C-30-3.bmp\",\"takaka\",\"Up\",\"38\",\"8\",\"10\",\"5\",\"P\",\"J\",\"122\"
\"\",\"\",\"approach-retreat\",\"126\",\"953025\",\"0.0-126.0\",\"\",\"\",\"2-4\",\"5448\",\"37\",\"1\",\"Training\",\"Stims/Figures/87-J-10-4.bmp\",\"mama:la\",\"Right\",\"37\",\"8\",\"11\",\"5\",\"S\",\"J\",\"123\"
\"\",\"\",\"approach-retreat\",\"127\",\"959979\",\"0.0-127.0\",\"\",\"\",\"2-4\",\"5441\",\"38\",\"1\",\"Training\",\"Stims/Figures/19-J-10-4.bmp\",\"na:mana\",\"Down\",\"38\",\"8\",\"12\",\"5\",\"S\",\"J\",\"124\"
\"\",\"\",\"approach-retreat\",\"128\",\"966081\",\"0.0-128.0\",\"\",\"\",\"2-4\",\"4586\",\"40\",\"1\",\"Training\",\"Stims/Figures/87-C-20-4.bmp\",\"papata\",\"Down\",\"40\",\"8\",\"13\",\"5\",\"P\",\"J\",\"125\"
\"\",\"\",\"approach-retreat\",\"129\",\"973866\",\"0.0-129.0\",\"\",\"\",\"2-4\",\"6271\",\"37\",\"1\",\"Training\",\"Stims/Figures/27-C-30-1.bmp\",\"pa:pa:ka\",\"Left\",\"37\",\"8\",\"14\",\"5\",\"P\",\"J\",\"126\"
\"\",\"\",\"approach-retreat\",\"130\",\"991067\",\"0.0-130.0\",\"\",\"\",\"2-4\",\"15688\",\"39\",\"1\",\"Training\",\"Stims/Figures/111-C-30-3.bmp\",\"tapa:ta\",\"Right\",\"39\",\"8\",\"15\",\"5\",\"P\",\"J\",\"127\"
\"\",\"\",\"approach-retreat\",\"131\",\"996761\",\"0.0-131.0\",\"\",\"\",\"2-4\",\"4180\",\"37\",\"1\",\"Training\",\"Stims/Figures/57-C-30-1.bmp\",\"tapaka\",\"Left\",\"37\",\"8\",\"16\",\"5\",\"P\",\"J\",\"128\"
\"\",\"\",\"approach-retreat\",\"132\",\"1003938\",\"0.0-132.0\",\"\",\"\",\"2-4\",\"5671\",\"40\",\"1\",\"Training\",\"Stims/Figures/139-J-0-2.bmp\",\"na:ma:na\",\"Up\",\"40\",\"9\",\"1\",\"5\",\"S\",\"J\",\"129\"
\"\",\"\",\"approach-retreat\",\"133\",\"1010880\",\"0.0-133.0\",\"\",\"\",\"2-4\",\"5431\",\"38\",\"1\",\"Training\",\"Stims/Figures/144-J-10-3.bmp\",\"malala\",\"Down\",\"38\",\"9\",\"2\",\"5\",\"S\",\"J\",\"130\"
\"\",\"\",\"approach-retreat\",\"134\",\"1017017\",\"0.0-134.0\",\"\",\"\",\"2-4\",\"4624\",\"38\",\"1\",\"Training\",\"Stims/Figures/27-C-30-1.bmp\",\"pa:pa:ka\",\"Up\",\"38\",\"9\",\"3\",\"5\",\"P\",\"J\",\"131\"
\"\",\"\",\"approach-retreat\",\"135\",\"1023682\",\"0.0-135.0\",\"\",\"\",\"2-4\",\"5152\",\"37\",\"1\",\"Training\",\"Stims/Figures/84-J-0-2.bmp\",\"ma:mana\",\"Right\",\"37\",\"9\",\"4\",\"5\",\"S\",\"J\",\"132\"
\"\",\"\",\"approach-retreat\",\"136\",\"1029939\",\"0.0-136.0\",\"\",\"\",\"2-4\",\"4746\",\"40\",\"1\",\"Training\",\"Stims/Figures/111-C-30-3.bmp\",\"tapa:ta\",\"Down\",\"40\",\"9\",\"5\",\"5\",\"P\",\"J\",\"133\"
\"\",\"\",\"approach-retreat\",\"137\",\"1036433\",\"0.0-137.0\",\"\",\"\",\"2-4\",\"4980\",\"39\",\"1\",\"Training\",\"Stims/Figures/111-J-10-3.bmp\",\"nala:na\",\"Left\",\"39\",\"9\",\"6\",\"5\",\"S\",\"J\",\"134\"
\"\",\"\",\"approach-retreat\",\"138\",\"1042745\",\"0.0-138.0\",\"\",\"\",\"2-4\",\"4800\",\"40\",\"1\",\"Training\",\"Stims/Figures/144-C-30-3.bmp\",\"takaka\",\"Down\",\"40\",\"9\",\"7\",\"5\",\"P\",\"J\",\"135\"
\"\",\"\",\"approach-retreat\",\"139\",\"1049184\",\"0.0-139.0\",\"\",\"\",\"2-4\",\"4926\",\"39\",\"1\",\"Training\",\"Stims/Figures/27-J-0-1.bmp\",\"nalana\",\"Left\",\"39\",\"9\",\"8\",\"5\",\"S\",\"J\",\"136\"
\"\",\"\",\"approach-retreat\",\"140\",\"1056922\",\"0.0-140.0\",\"\",\"\",\"2-4\",\"6226\",\"37\",\"1\",\"Training\",\"Stims/Figures/19-J-10-4.bmp\",\"na:mana\",\"Right\",\"37\",\"9\",\"9\",\"5\",\"S\",\"J\",\"137\"
\"\",\"\",\"approach-retreat\",\"141\",\"1063192\",\"0.0-141.0\",\"\",\"\",\"2-4\",\"4766\",\"39\",\"1\",\"Training\",\"Stims/Figures/84-C-20-2.bmp\",\"pa:kata\",\"Right\",\"39\",\"9\",\"10\",\"5\",\"P\",\"J\",\"138\"
\"\",\"\",\"approach-retreat\",\"142\",\"1069497\",\"0.0-142.0\",\"\",\"\",\"2-4\",\"4792\",\"39\",\"1\",\"Training\",\"Stims/Figures/57-J-0-1.bmp\",\"namala\",\"Left\",\"39\",\"9\",\"11\",\"5\",\"S\",\"J\",\"139\"
\"\",\"\",\"approach-retreat\",\"143\",\"1075507\",\"0.0-143.0\",\"\",\"\",\"2-4\",\"4497\",\"37\",\"1\",\"Training\",\"Stims/Figures/57-C-30-1.bmp\",\"tapaka\",\"Left\",\"37\",\"9\",\"12\",\"5\",\"P\",\"J\",\"140\"
\"\",\"\",\"approach-retreat\",\"144\",\"1081321\",\"0.0-144.0\",\"\",\"\",\"2-4\",\"4302\",\"38\",\"1\",\"Training\",\"Stims/Figures/87-C-20-4.bmp\",\"papata\",\"Up\",\"38\",\"9\",\"13\",\"5\",\"P\",\"J\",\"141\"
\"\",\"\",\"approach-retreat\",\"145\",\"1087825\",\"0.0-145.0\",\"\",\"\",\"2-4\",\"4994\",\"40\",\"1\",\"Training\",\"Stims/Figures/87-J-10-4.bmp\",\"mama:la\",\"Up\",\"40\",\"9\",\"14\",\"5\",\"S\",\"J\",\"142\"
\"\",\"\",\"approach-retreat\",\"146\",\"1093752\",\"0.0-146.0\",\"\",\"\",\"2-4\",\"4422\",\"39\",\"1\",\"Training\",\"Stims/Figures/139-C-20-2.bmp\",\"pa:kaka\",\"Right\",\"39\",\"9\",\"15\",\"5\",\"P\",\"J\",\"143\"
\"\",\"\",\"approach-retreat\",\"147\",\"1100497\",\"0.0-147.0\",\"\",\"\",\"2-4\",\"5232\",\"40\",\"1\",\"Training\",\"Stims/Figures/19-C-20-4.bmp\",\"ta:ka:ta\",\"Down\",\"40\",\"9\",\"16\",\"5\",\"P\",\"J\",\"144\"
\"15627\",\"\",\"instructions\",\"148\",\"1116125\",\"0.0-148.0\",\"[{\"\"page_index\"\":0,\"\"viewing_time\"\":15627}]\",\"\",\"\",\"\",\"\",\"\",\"\",\"\",\"\",\"\",\"\",\"\",\"\",\"\",\"\",\"\",\"\"
\"\",\"\",\"approach-retreat\",\"149\",\"1126080\",\"0.0-149.0\",\"\",\"\",\"2-4\",\"8446\",\"40\",\"1\",\"Testing\",\"Stims/Figures/84-J-0-2.bmp\",\"ma:mana\",\"Up\",\"40\",\"1\",\"1\",\"5\",\"S\",\"J\",\"1\"
\"\",\"\",\"approach-retreat\",\"150\",\"1135216\",\"0.0-150.0\",\"\",\"\",\"2-4\",\"7627\",\"38\",\"1\",\"Testing\",\"Stims/Figures/85-J-0-2.bmp\",\"na:lala\",\"Down\",\"38\",\"1\",\"2\",\"5\",\"S\",\"J\",\"2\"
\"\",\"\",\"approach-retreat\",\"151\",\"1141847\",\"0.0-151.0\",\"\",\"\",\"2-4\",\"5121\",\"37\",\"0\",\"Testing\",\"Stims/Figures/87-C-20-4.bmp\",\"papata\",\"Right\",\"39\",\"1\",\"3\",\"5\",\"P\",\"J\",\"3\"
\"\",\"\",\"approach-retreat\",\"152\",\"1147464\",\"0.0-152.0\",\"\",\"\",\"2-4\",\"4109\",\"38\",\"0\",\"Testing\",\"Stims/Figures/57-C-30-1.bmp\",\"tapaka\",\"Down\",\"40\",\"1\",\"4\",\"5\",\"P\",\"J\",\"4\"
\"\",\"\",\"approach-retreat\",\"153\",\"1154736\",\"0.0-153.0\",\"\",\"\",\"2-4\",\"5761\",\"37\",\"0\",\"Testing\",\"Stims/Figures/144-J-10-3.bmp\",\"malala\",\"Left\",\"39\",\"1\",\"5\",\"5\",\"S\",\"J\",\"5\"
\"\",\"\",\"approach-retreat\",\"154\",\"1160416\",\"0.0-154.0\",\"\",\"\",\"2-4\",\"4172\",\"37\",\"1\",\"Testing\",\"Stims/Figures/19-J-10-4.bmp\",\"na:mana\",\"Right\",\"37\",\"1\",\"6\",\"5\",\"S\",\"J\",\"6\"
\"\",\"\",\"approach-retreat\",\"155\",\"1166815\",\"0.0-155.0\",\"\",\"\",\"2-4\",\"4890\",\"37\",\"1\",\"Testing\",\"Stims/Figures/139-C-20-2.bmp\",\"pa:kaka\",\"Left\",\"37\",\"1\",\"7\",\"5\",\"P\",\"J\",\"7\"
\"\",\"\",\"approach-retreat\",\"156\",\"1172944\",\"0.0-156.0\",\"\",\"\",\"2-4\",\"4617\",\"40\",\"1\",\"Testing\",\"Stims/Figures/84-C-20-2.bmp\",\"pa:kata\",\"Down\",\"40\",\"1\",\"8\",\"5\",\"P\",\"J\",\"8\"
\"\",\"\",\"approach-retreat\",\"157\",\"1179240\",\"0.0-157.0\",\"\",\"\",\"2-4\",\"4785\",\"39\",\"1\",\"Testing\",\"Stims/Figures/139-J-0-2.bmp\",\"na:ma:na\",\"Left\",\"39\",\"1\",\"9\",\"5\",\"S\",\"J\",\"9\"
\"\",\"\",\"approach-retreat\",\"158\",\"1185272\",\"0.0-158.0\",\"\",\"\",\"2-4\",\"4523\",\"37\",\"0\",\"Testing\",\"Stims/Figures/7-C-20-4.bmp\",\"pa:pata\",\"Right\",\"39\",\"1\",\"10\",\"5\",\"P\",\"J\",\"10\"
\"\",\"\",\"approach-retreat\",\"159\",\"1191110\",\"0.0-159.0\",\"\",\"\",\"2-4\",\"4330\",\"39\",\"1\",\"Testing\",\"Stims/Figures/111-J-10-3.bmp\",\"nala:na\",\"Left\",\"39\",\"1\",\"11\",\"5\",\"S\",\"J\",\"11\"
\"\",\"\",\"approach-retreat\",\"160\",\"1197056\",\"0.0-160.0\",\"\",\"\",\"2-4\",\"4435\",\"40\",\"1\",\"Testing\",\"Stims/Figures/7-J-10-4.bmp\",\"malana\",\"Up\",\"40\",\"1\",\"12\",\"5\",\"S\",\"J\",\"12\"
\"\",\"\",\"approach-retreat\",\"161\",\"1203103\",\"0.0-161.0\",\"\",\"\",\"2-4\",\"4538\",\"37\",\"1\",\"Testing\",\"Stims/Figures/71-J-0-1.bmp\",\"nama:na\",\"Right\",\"37\",\"1\",\"13\",\"5\",\"S\",\"J\",\"13\"
\"\",\"\",\"approach-retreat\",\"162\",\"1209374\",\"0.0-162.0\",\"\",\"\",\"2-4\",\"4761\",\"37\",\"0\",\"Testing\",\"Stims/Figures/111-C-30-3.bmp\",\"tapa:ta\",\"Right\",\"39\",\"1\",\"14\",\"5\",\"P\",\"J\",\"14\"
\"\",\"\",\"approach-retreat\",\"163\",\"1215103\",\"0.0-163.0\",\"\",\"\",\"2-4\",\"4219\",\"39\",\"1\",\"Testing\",\"Stims/Figures/27-J-0-1.bmp\",\"nalana\",\"Left\",\"39\",\"1\",\"15\",\"5\",\"S\",\"J\",\"15\"
\"\",\"\",\"approach-retreat\",\"164\",\"1220808\",\"0.0-164.0\",\"\",\"\",\"2-4\",\"4194\",\"39\",\"0\",\"Testing\",\"Stims/Figures/27-C-30-1.bmp\",\"pa:pa:ka\",\"Left\",\"37\",\"1\",\"16\",\"5\",\"P\",\"J\",\"16\"
\"\",\"\",\"approach-retreat\",\"165\",\"1226599\",\"0.0-165.0\",\"\",\"\",\"2-4\",\"4275\",\"40\",\"0\",\"Testing\",\"Stims/Figures/144-C-30-3.bmp\",\"takaka\",\"Up\",\"38\",\"1\",\"17\",\"5\",\"P\",\"J\",\"17\"
\"\",\"\",\"approach-retreat\",\"166\",\"1232792\",\"0.0-166.0\",\"\",\"\",\"2-4\",\"4684\",\"39\",\"1\",\"Testing\",\"Stims/Figures/19-C-20-4.bmp\",\"ta:ka:ta\",\"Right\",\"39\",\"1\",\"18\",\"5\",\"P\",\"J\",\"18\"
\"\",\"\",\"approach-retreat\",\"167\",\"1238508\",\"0.0-167.0\",\"\",\"\",\"2-4\",\"4199\",\"40\",\"1\",\"Testing\",\"Stims/Figures/44-J-10-3.bmp\",\"ma:la:la\",\"Up\",\"40\",\"1\",\"19\",\"5\",\"S\",\"J\",\"19\"
\"\",\"\",\"approach-retreat\",\"168\",\"1244631\",\"0.0-168.0\",\"\",\"\",\"2-4\",\"4613\",\"40\",\"0\",\"Testing\",\"Stims/Figures/85-C-20-2.bmp\",\"papa:ta\",\"Up\",\"38\",\"1\",\"20\",\"5\",\"P\",\"J\",\"20\"
\"\",\"\",\"approach-retreat\",\"169\",\"1250264\",\"0.0-169.0\",\"\",\"\",\"2-4\",\"4121\",\"38\",\"1\",\"Testing\",\"Stims/Figures/57-J-0-1.bmp\",\"namala\",\"Down\",\"38\",\"1\",\"21\",\"5\",\"S\",\"J\",\"21\"
\"\",\"\",\"approach-retreat\",\"170\",\"1256094\",\"0.0-170.0\",\"\",\"\",\"2-4\",\"4321\",\"38\",\"1\",\"Testing\",\"Stims/Figures/87-J-10-4.bmp\",\"mama:la\",\"Down\",\"38\",\"1\",\"22\",\"5\",\"S\",\"J\",\"22\"
\"\",\"\",\"approach-retreat\",\"171\",\"1261846\",\"0.0-171.0\",\"\",\"\",\"2-4\",\"4242\",\"40\",\"0\",\"Testing\",\"Stims/Figures/44-C-30-3.bmp\",\"taka:ta\",\"Up\",\"38\",\"1\",\"23\",\"5\",\"P\",\"J\",\"23\"
\"\",\"\",\"approach-retreat\",\"172\",\"1267464\",\"0.0-172.0\",\"\",\"\",\"2-4\",\"4108\",\"38\",\"0\",\"Testing\",\"Stims/Figures/71-C-30-1.bmp\",\"ta:pa:ta\",\"Down\",\"40\",\"1\",\"24\",\"5\",\"P\",\"J\",\"24\"
\"\",\"\",\"approach-retreat\",\"173\",\"1273207\",\"0.0-173.0\",\"\",\"\",\"2-4\",\"4234\",\"37\",\"1\",\"Testing\",\"Stims/Figures/84-J-0-2.bmp\",\"ma:mana\",\"Right\",\"37\",\"2\",\"1\",\"5\",\"S\",\"J\",\"25\"
\"\",\"\",\"approach-retreat\",\"174\",\"1278865\",\"0.0-174.0\",\"\",\"\",\"2-4\",\"4145\",\"37\",\"1\",\"Testing\",\"Stims/Figures/7-J-10-4.bmp\",\"malana\",\"Right\",\"37\",\"2\",\"2\",\"5\",\"S\",\"J\",\"26\"
\"\",\"\",\"approach-retreat\",\"175\",\"1284415\",\"0.0-175.0\",\"\",\"\",\"2-4\",\"4040\",\"37\",\"0\",\"Testing\",\"Stims/Figures/87-C-20-4.bmp\",\"papata\",\"Right\",\"39\",\"2\",\"3\",\"5\",\"P\",\"J\",\"27\"
\"\",\"\",\"approach-retreat\",\"176\",\"1291335\",\"0.0-176.0\",\"\",\"\",\"2-4\",\"5410\",\"39\",\"1\",\"Testing\",\"Stims/Figures/111-J-10-3.bmp\",\"nala:na\",\"Left\",\"39\",\"2\",\"4\",\"5\",\"S\",\"J\",\"28\"
\"\",\"\",\"approach-retreat\",\"177\",\"1297111\",\"0.0-177.0\",\"\",\"\",\"2-4\",\"4267\",\"40\",\"0\",\"Testing\",\"Stims/Figures/85-C-20-2.bmp\",\"papa:ta\",\"Up\",\"38\",\"2\",\"5\",\"5\",\"P\",\"J\",\"29\"
\"\",\"\",\"approach-retreat\",\"178\",\"1302857\",\"0.0-178.0\",\"\",\"\",\"2-4\",\"4240\",\"40\",\"0\",\"Testing\",\"Stims/Figures/57-C-30-1.bmp\",\"tapaka\",\"Up\",\"38\",\"2\",\"6\",\"5\",\"P\",\"J\",\"30\"
\"\",\"\",\"approach-retreat\",\"179\",\"1308710\",\"0.0-179.0\",\"\",\"\",\"2-4\",\"4344\",\"38\",\"0\",\"Testing\",\"Stims/Figures/85-J-0-2.bmp\",\"na:lala\",\"Up\",\"40\",\"2\",\"7\",\"5\",\"S\",\"J\",\"31\"
\"\",\"\",\"approach-retreat\",\"180\",\"1314454\",\"0.0-180.0\",\"\",\"\",\"2-4\",\"4237\",\"39\",\"0\",\"Testing\",\"Stims/Figures/84-C-20-2.bmp\",\"pa:kata\",\"Left\",\"37\",\"2\",\"8\",\"5\",\"P\",\"J\",\"32\"
\"\",\"\",\"approach-retreat\",\"181\",\"1320078\",\"0.0-181.0\",\"\",\"\",\"2-4\",\"4114\",\"38\",\"1\",\"Testing\",\"Stims/Figures/19-J-10-4.bmp\",\"na:mana\",\"Down\",\"38\",\"2\",\"9\",\"5\",\"S\",\"J\",\"33\"
\"\",\"\",\"approach-retreat\",\"182\",\"1325575\",\"0.0-182.0\",\"\",\"\",\"2-4\",\"3988\",\"40\",\"1\",\"Testing\",\"Stims/Figures/111-C-30-3.bmp\",\"tapa:ta\",\"Down\",\"40\",\"2\",\"10\",\"5\",\"P\",\"J\",\"34\"
\"\",\"\",\"approach-retreat\",\"183\",\"1331862\",\"0.0-183.0\",\"\",\"\",\"2-4\",\"4777\",\"39\",\"1\",\"Testing\",\"Stims/Figures/71-J-0-1.bmp\",\"nama:na\",\"Left\",\"39\",\"2\",\"11\",\"5\",\"S\",\"J\",\"35\"
\"\",\"\",\"approach-retreat\",\"184\",\"1337534\",\"0.0-184.0\",\"\",\"\",\"2-4\",\"4163\",\"40\",\"1\",\"Testing\",\"Stims/Figures/87-J-10-4.bmp\",\"mama:la\",\"Up\",\"40\",\"2\",\"12\",\"5\",\"S\",\"J\",\"36\"
\"\",\"\",\"approach-retreat\",\"185\",\"1343414\",\"0.0-185.0\",\"\",\"\",\"2-4\",\"4369\",\"38\",\"0\",\"Testing\",\"Stims/Figures/7-C-20-4.bmp\",\"pa:pata\",\"Down\",\"40\",\"2\",\"13\",\"5\",\"P\",\"J\",\"37\"
\"\",\"\",\"approach-retreat\",\"186\",\"1349262\",\"0.0-186.0\",\"\",\"\",\"2-4\",\"4338\",\"40\",\"1\",\"Testing\",\"Stims/Figures/44-J-10-3.bmp\",\"ma:la:la\",\"Up\",\"40\",\"2\",\"14\",\"5\",\"S\",\"J\",\"38\"
\"\",\"\",\"approach-retreat\",\"187\",\"1355804\",\"0.0-187.0\",\"\",\"\",\"2-4\",\"5031\",\"37\",\"0\",\"Testing\",\"Stims/Figures/27-J-0-1.bmp\",\"nalana\",\"Left\",\"39\",\"2\",\"15\",\"5\",\"S\",\"J\",\"39\"
\"\",\"\",\"approach-retreat\",\"188\",\"1361309\",\"0.0-188.0\",\"\",\"\",\"2-4\",\"4001\",\"39\",\"0\",\"Testing\",\"Stims/Figures/44-C-30-3.bmp\",\"taka:ta\",\"Left\",\"37\",\"2\",\"16\",\"5\",\"P\",\"J\",\"40\"
\"\",\"\",\"approach-retreat\",\"189\",\"1367405\",\"0.0-189.0\",\"\",\"\",\"2-4\",\"4587\",\"40\",\"0\",\"Testing\",\"Stims/Figures/19-C-20-4.bmp\",\"ta:ka:ta\",\"Up\",\"38\",\"2\",\"17\",\"5\",\"P\",\"J\",\"41\"
\"\",\"\",\"approach-retreat\",\"190\",\"1373487\",\"0.0-190.0\",\"\",\"\",\"2-4\",\"4572\",\"37\",\"1\",\"Testing\",\"Stims/Figures/144-J-10-3.bmp\",\"malala\",\"Right\",\"37\",\"2\",\"18\",\"5\",\"S\",\"J\",\"42\"
\"\",\"\",\"approach-retreat\",\"191\",\"1379199\",\"0.0-191.0\",\"\",\"\",\"2-4\",\"4203\",\"38\",\"1\",\"Testing\",\"Stims/Figures/57-J-0-1.bmp\",\"namala\",\"Down\",\"38\",\"2\",\"19\",\"5\",\"S\",\"J\",\"43\"
\"\",\"\",\"approach-retreat\",\"192\",\"1386094\",\"0.0-192.0\",\"\",\"\",\"2-4\",\"5385\",\"37\",\"1\",\"Testing\",\"Stims/Figures/27-C-30-1.bmp\",\"pa:pa:ka\",\"Left\",\"37\",\"2\",\"20\",\"5\",\"P\",\"J\",\"44\"
\"\",\"\",\"approach-retreat\",\"193\",\"1392246\",\"0.0-193.0\",\"\",\"\",\"2-4\",\"4642\",\"38\",\"0\",\"Testing\",\"Stims/Figures/139-C-20-2.bmp\",\"pa:kaka\",\"Down\",\"40\",\"2\",\"21\",\"5\",\"P\",\"J\",\"45\"
\"\",\"\",\"approach-retreat\",\"194\",\"1398583\",\"0.0-194.0\",\"\",\"\",\"2-4\",\"4827\",\"37\",\"0\",\"Testing\",\"Stims/Figures/144-C-30-3.bmp\",\"takaka\",\"Right\",\"39\",\"2\",\"22\",\"5\",\"P\",\"J\",\"46\"
\"\",\"\",\"approach-retreat\",\"195\",\"1404502\",\"0.0-195.0\",\"\",\"\",\"2-4\",\"4410\",\"40\",\"1\",\"Testing\",\"Stims/Figures/71-C-30-1.bmp\",\"ta:pa:ta\",\"Down\",\"40\",\"2\",\"23\",\"5\",\"P\",\"J\",\"47\"
\"\",\"\",\"approach-retreat\",\"196\",\"1410486\",\"0.0-196.0\",\"\",\"\",\"2-4\",\"4475\",\"37\",\"1\",\"Testing\",\"Stims/Figures/139-J-0-2.bmp\",\"na:ma:na\",\"Right\",\"37\",\"2\",\"24\",\"5\",\"S\",\"J\",\"48\"
\"\",\"\",\"approach-retreat\",\"197\",\"1416052\",\"0.0-197.0\",\"\",\"\",\"2-4\",\"4056\",\"39\",\"1\",\"Testing\",\"Stims/Figures/85-J-0-2.bmp\",\"na:lala\",\"Left\",\"39\",\"3\",\"1\",\"5\",\"S\",\"J\",\"49\"
\"\",\"\",\"approach-retreat\",\"198\",\"1421423\",\"0.0-198.0\",\"\",\"\",\"2-4\",\"3858\",\"40\",\"0\",\"Testing\",\"Stims/Figures/111-J-10-3.bmp\",\"nala:na\",\"Down\",\"38\",\"3\",\"2\",\"5\",\"S\",\"J\",\"50\"
\"\",\"\",\"approach-retreat\",\"199\",\"1427125\",\"0.0-199.0\",\"\",\"\",\"2-4\",\"4193\",\"38\",\"1\",\"Testing\",\"Stims/Figures/57-J-0-1.bmp\",\"namala\",\"Down\",\"38\",\"3\",\"3\",\"5\",\"S\",\"J\",\"51\"
\"\",\"\",\"approach-retreat\",\"200\",\"1432759\",\"0.0-200.0\",\"\",\"\",\"2-4\",\"4125\",\"39\",\"0\",\"Testing\",\"Stims/Figures/139-C-20-2.bmp\",\"pa:kaka\",\"Left\",\"37\",\"3\",\"4\",\"5\",\"P\",\"J\",\"52\"
\"\",\"\",\"approach-retreat\",\"201\",\"1438597\",\"0.0-201.0\",\"\",\"\",\"2-4\",\"4329\",\"40\",\"0\",\"Testing\",\"Stims/Figures/84-C-20-2.bmp\",\"pa:kata\",\"Up\",\"38\",\"3\",\"5\",\"5\",\"P\",\"J\",\"53\"
\"\",\"\",\"approach-retreat\",\"202\",\"1444671\",\"0.0-202.0\",\"\",\"\",\"2-4\",\"4563\",\"38\",\"0\",\"Testing\",\"Stims/Figures/19-C-20-4.bmp\",\"ta:ka:ta\",\"Down\",\"40\",\"3\",\"6\",\"5\",\"P\",\"J\",\"54\"
\"\",\"\",\"approach-retreat\",\"203\",\"1450477\",\"0.0-203.0\",\"\",\"\",\"2-4\",\"4297\",\"40\",\"1\",\"Testing\",\"Stims/Figures/19-J-10-4.bmp\",\"na:mana\",\"Up\",\"40\",\"3\",\"7\",\"5\",\"S\",\"J\",\"55\"
\"\",\"\",\"approach-retreat\",\"204\",\"1456408\",\"0.0-204.0\",\"\",\"\",\"2-4\",\"4420\",\"39\",\"0\",\"Testing\",\"Stims/Figures/111-C-30-3.bmp\",\"tapa:ta\",\"Left\",\"37\",\"3\",\"8\",\"5\",\"P\",\"J\",\"56\"
\"\",\"\",\"approach-retreat\",\"205\",\"1461814\",\"0.0-205.0\",\"\",\"\",\"2-4\",\"3895\",\"37\",\"1\",\"Testing\",\"Stims/Figures/144-J-10-3.bmp\",\"malala\",\"Right\",\"37\",\"3\",\"9\",\"5\",\"S\",\"J\",\"57\"
\"\",\"\",\"approach-retreat\",\"206\",\"1467455\",\"0.0-206.0\",\"\",\"\",\"2-4\",\"4132\",\"38\",\"0\",\"Testing\",\"Stims/Figures/71-C-30-1.bmp\",\"ta:pa:ta\",\"Down\",\"40\",\"3\",\"10\",\"5\",\"P\",\"J\",\"58\"
\"\",\"\",\"approach-retreat\",\"207\",\"1473926\",\"0.0-207.0\",\"\",\"\",\"2-4\",\"4962\",\"40\",\"0\",\"Testing\",\"Stims/Figures/57-C-30-1.bmp\",\"tapaka\",\"Up\",\"38\",\"3\",\"11\",\"5\",\"P\",\"J\",\"59\"
\"\",\"\",\"approach-retreat\",\"208\",\"1479823\",\"0.0-208.0\",\"\",\"\",\"2-4\",\"4388\",\"37\",\"1\",\"Testing\",\"Stims/Figures/7-J-10-4.bmp\",\"malana\",\"Right\",\"37\",\"3\",\"12\",\"5\",\"S\",\"J\",\"60\"
\"\",\"\",\"approach-retreat\",\"209\",\"1486111\",\"0.0-209.0\",\"\",\"\",\"2-4\",\"4775\",\"39\",\"1\",\"Testing\",\"Stims/Figures/7-C-20-4.bmp\",\"pa:pata\",\"Right\",\"39\",\"3\",\"13\",\"5\",\"P\",\"J\",\"61\"
\"\",\"\",\"approach-retreat\",\"210\",\"1491813\",\"0.0-210.0\",\"\",\"\",\"2-4\",\"4194\",\"38\",\"1\",\"Testing\",\"Stims/Figures/144-C-30-3.bmp\",\"takaka\",\"Up\",\"38\",\"3\",\"14\",\"5\",\"P\",\"J\",\"62\"
\"\",\"\",\"approach-retreat\",\"211\",\"1497590\",\"0.0-211.0\",\"\",\"\",\"2-4\",\"4265\",\"39\",\"1\",\"Testing\",\"Stims/Figures/27-C-30-1.bmp\",\"pa:pa:ka\",\"Right\",\"39\",\"3\",\"15\",\"5\",\"P\",\"J\",\"63\"
\"\",\"\",\"approach-retreat\",\"212\",\"1503214\",\"0.0-212.0\",\"\",\"\",\"2-4\",\"4115\",\"40\",\"0\",\"Testing\",\"Stims/Figures/84-J-0-2.bmp\",\"ma:mana\",\"Down\",\"38\",\"3\",\"16\",\"5\",\"S\",\"J\",\"64\"
\"\",\"\",\"approach-retreat\",\"213\",\"1509331\",\"0.0-213.0\",\"\",\"\",\"2-4\",\"4607\",\"38\",\"0\",\"Testing\",\"Stims/Figures/27-J-0-1.bmp\",\"nalana\",\"Up\",\"40\",\"3\",\"17\",\"5\",\"S\",\"J\",\"65\"
\"\",\"\",\"approach-retreat\",\"214\",\"1514773\",\"0.0-214.0\",\"\",\"\",\"2-4\",\"3933\",\"37\",\"1\",\"Testing\",\"Stims/Figures/44-C-30-3.bmp\",\"taka:ta\",\"Left\",\"37\",\"3\",\"18\",\"5\",\"P\",\"J\",\"66\"
\"\",\"\",\"approach-retreat\",\"215\",\"1521917\",\"0.0-215.0\",\"\",\"\",\"2-4\",\"5635\",\"39\",\"0\",\"Testing\",\"Stims/Figures/85-C-20-2.bmp\",\"papa:ta\",\"Left\",\"37\",\"3\",\"19\",\"5\",\"P\",\"J\",\"67\"
\"\",\"\",\"approach-retreat\",\"216\",\"1528775\",\"0.0-216.0\",\"\",\"\",\"2-4\",\"5348\",\"37\",\"0\",\"Testing\",\"Stims/Figures/44-J-10-3.bmp\",\"ma:la:la\",\"Left\",\"39\",\"3\",\"20\",\"5\",\"S\",\"J\",\"68\"
\"\",\"\",\"approach-retreat\",\"217\",\"1534709\",\"0.0-217.0\",\"\",\"\",\"2-4\",\"4424\",\"37\",\"1\",\"Testing\",\"Stims/Figures/71-J-0-1.bmp\",\"nama:na\",\"Right\",\"37\",\"3\",\"21\",\"5\",\"S\",\"J\",\"69\"
\"\",\"\",\"approach-retreat\",\"218\",\"1540205\",\"0.0-218.0\",\"\",\"\",\"2-4\",\"3986\",\"38\",\"1\",\"Testing\",\"Stims/Figures/87-C-20-4.bmp\",\"papata\",\"Up\",\"38\",\"3\",\"22\",\"5\",\"P\",\"J\",\"70\"
\"\",\"\",\"approach-retreat\",\"219\",\"1545764\",\"0.0-219.0\",\"\",\"\",\"2-4\",\"4049\",\"40\",\"0\",\"Testing\",\"Stims/Figures/139-J-0-2.bmp\",\"na:ma:na\",\"Down\",\"38\",\"3\",\"23\",\"5\",\"S\",\"J\",\"71\"
\"\",\"\",\"approach-retreat\",\"220\",\"1551141\",\"0.0-220.0\",\"\",\"\",\"2-4\",\"3867\",\"39\",\"0\",\"Testing\",\"Stims/Figures/87-J-10-4.bmp\",\"mama:la\",\"Right\",\"37\",\"3\",\"24\",\"5\",\"S\",\"J\",\"72\"
\"\",\"\",\"approach-retreat\",\"221\",\"1557948\",\"0.0-221.0\",\"\",\"\",\"2-4\",\"5298\",\"37\",\"1\",\"Testing\",\"Stims/Figures/27-C-30-1.bmp\",\"pa:pa:ka\",\"Left\",\"37\",\"4\",\"1\",\"5\",\"P\",\"J\",\"73\"
\"\",\"\",\"approach-retreat\",\"222\",\"1563550\",\"0.0-222.0\",\"\",\"\",\"2-4\",\"4091\",\"40\",\"0\",\"Testing\",\"Stims/Figures/71-J-0-1.bmp\",\"nama:na\",\"Down\",\"38\",\"4\",\"2\",\"5\",\"S\",\"J\",\"74\"
\"\",\"\",\"approach-retreat\",\"223\",\"1569323\",\"0.0-223.0\",\"\",\"\",\"2-4\",\"4264\",\"37\",\"0\",\"Testing\",\"Stims/Figures/144-J-10-3.bmp\",\"malala\",\"Left\",\"39\",\"4\",\"3\",\"5\",\"S\",\"J\",\"75\"
\"\",\"\",\"approach-retreat\",\"224\",\"1575228\",\"0.0-224.0\",\"\",\"\",\"2-4\",\"4397\",\"38\",\"1\",\"Testing\",\"Stims/Figures/84-C-20-2.bmp\",\"pa:kata\",\"Up\",\"38\",\"4\",\"4\",\"5\",\"P\",\"J\",\"76\"
\"\",\"\",\"approach-retreat\",\"225\",\"1580869\",\"0.0-225.0\",\"\",\"\",\"2-4\",\"4129\",\"40\",\"1\",\"Testing\",\"Stims/Figures/144-C-30-3.bmp\",\"takaka\",\"Down\",\"40\",\"4\",\"5\",\"5\",\"P\",\"J\",\"77\"
\"\",\"\",\"approach-retreat\",\"226\",\"1586323\",\"0.0-226.0\",\"\",\"\",\"2-4\",\"3946\",\"38\",\"0\",\"Testing\",\"Stims/Figures/27-J-0-1.bmp\",\"nalana\",\"Up\",\"40\",\"4\",\"6\",\"5\",\"S\",\"J\",\"78\"
\"\",\"\",\"approach-retreat\",\"227\",\"1591916\",\"0.0-227.0\",\"\",\"\",\"2-4\",\"4084\",\"39\",\"1\",\"Testing\",\"Stims/Figures/84-J-0-2.bmp\",\"ma:mana\",\"Left\",\"39\",\"4\",\"7\",\"5\",\"S\",\"J\",\"79\"
\"\",\"\",\"approach-retreat\",\"228\",\"1597653\",\"0.0-228.0\",\"\",\"\",\"2-4\",\"4228\",\"40\",\"0\",\"Testing\",\"Stims/Figures/57-C-30-1.bmp\",\"tapaka\",\"Up\",\"38\",\"4\",\"8\",\"5\",\"P\",\"J\",\"80\"
\"\",\"\",\"approach-retreat\",\"229\",\"1602996\",\"0.0-229.0\",\"\",\"\",\"2-4\",\"3835\",\"37\",\"1\",\"Testing\",\"Stims/Figures/87-C-20-4.bmp\",\"papata\",\"Left\",\"37\",\"4\",\"9\",\"5\",\"P\",\"J\",\"81\"
\"\",\"\",\"approach-retreat\",\"230\",\"1608436\",\"0.0-230.0\",\"\",\"\",\"2-4\",\"3931\",\"39\",\"0\",\"Testing\",\"Stims/Figures/19-J-10-4.bmp\",\"na:mana\",\"Right\",\"37\",\"4\",\"10\",\"5\",\"S\",\"J\",\"82\"
\"\",\"\",\"approach-retreat\",\"231\",\"1614284\",\"0.0-231.0\",\"\",\"\",\"2-4\",\"4338\",\"39\",\"1\",\"Testing\",\"Stims/Figures/85-J-0-2.bmp\",\"na:lala\",\"Left\",\"39\",\"4\",\"11\",\"5\",\"S\",\"J\",\"83\"
\"\",\"\",\"approach-retreat\",\"232\",\"1620093\",\"0.0-232.0\",\"\",\"\",\"2-4\",\"4300\",\"38\",\"1\",\"Testing\",\"Stims/Figures/111-C-30-3.bmp\",\"tapa:ta\",\"Up\",\"38\",\"4\",\"12\",\"5\",\"P\",\"J\",\"84\"
\"\",\"\",\"approach-retreat\",\"233\",\"1625885\",\"0.0-233.0\",\"\",\"\",\"2-4\",\"4280\",\"37\",\"1\",\"Testing\",\"Stims/Figures/111-J-10-3.bmp\",\"nala:na\",\"Right\",\"37\",\"4\",\"13\",\"5\",\"S\",\"J\",\"85\"
\"\",\"\",\"approach-retreat\",\"234\",\"1631814\",\"0.0-234.0\",\"\",\"\",\"2-4\",\"4419\",\"39\",\"1\",\"Testing\",\"Stims/Figures/19-C-20-4.bmp\",\"ta:ka:ta\",\"Right\",\"39\",\"4\",\"14\",\"5\",\"P\",\"J\",\"86\"
\"\",\"\",\"approach-retreat\",\"235\",\"1637797\",\"0.0-235.0\",\"\",\"\",\"2-4\",\"4474\",\"37\",\"1\",\"Testing\",\"Stims/Figures/44-J-10-3.bmp\",\"ma:la:la\",\"Right\",\"37\",\"4\",\"15\",\"5\",\"S\",\"J\",\"87\"
\"\",\"\",\"approach-retreat\",\"236\",\"1643502\",\"0.0-236.0\",\"\",\"\",\"2-4\",\"4197\",\"37\",\"1\",\"Testing\",\"Stims/Figures/57-J-0-1.bmp\",\"namala\",\"Right\",\"37\",\"4\",\"16\",\"5\",\"S\",\"J\",\"88\"
\"\",\"\",\"approach-retreat\",\"237\",\"1649036\",\"0.0-237.0\",\"\",\"\",\"2-4\",\"4025\",\"38\",\"0\",\"Testing\",\"Stims/Figures/85-C-20-2.bmp\",\"papa:ta\",\"Down\",\"40\",\"4\",\"17\",\"5\",\"P\",\"J\",\"89\"
\"\",\"\",\"approach-retreat\",\"238\",\"1654916\",\"0.0-238.0\",\"\",\"\",\"2-4\",\"4371\",\"40\",\"1\",\"Testing\",\"Stims/Figures/71-C-30-1.bmp\",\"ta:pa:ta\",\"Down\",\"40\",\"4\",\"18\",\"5\",\"P\",\"J\",\"90\"
\"\",\"\",\"approach-retreat\",\"239\",\"1660493\",\"0.0-239.0\",\"\",\"\",\"2-4\",\"4067\",\"38\",\"0\",\"Testing\",\"Stims/Figures/44-C-30-3.bmp\",\"taka:ta\",\"Down\",\"40\",\"4\",\"19\",\"5\",\"P\",\"J\",\"91\"
\"\",\"\",\"approach-retreat\",\"240\",\"1666429\",\"0.0-240.0\",\"\",\"\",\"2-4\",\"4427\",\"40\",\"0\",\"Testing\",\"Stims/Figures/139-J-0-2.bmp\",\"na:ma:na\",\"Down\",\"38\",\"4\",\"20\",\"5\",\"S\",\"J\",\"92\"
\"\",\"\",\"approach-retreat\",\"241\",\"1672475\",\"0.0-241.0\",\"\",\"\",\"2-4\",\"4538\",\"40\",\"0\",\"Testing\",\"Stims/Figures/7-C-20-4.bmp\",\"pa:pata\",\"Up\",\"38\",\"4\",\"21\",\"5\",\"P\",\"J\",\"93\"
\"\",\"\",\"approach-retreat\",\"242\",\"1678148\",\"0.0-242.0\",\"\",\"\",\"2-4\",\"4163\",\"37\",\"0\",\"Testing\",\"Stims/Figures/87-J-10-4.bmp\",\"mama:la\",\"Left\",\"39\",\"4\",\"22\",\"5\",\"S\",\"J\",\"94\"
\"\",\"\",\"approach-retreat\",\"243\",\"1683764\",\"0.0-243.0\",\"\",\"\",\"2-4\",\"4106\",\"39\",\"0\",\"Testing\",\"Stims/Figures/7-J-10-4.bmp\",\"malana\",\"Right\",\"37\",\"4\",\"23\",\"5\",\"S\",\"J\",\"95\"
\"\",\"\",\"approach-retreat\",\"244\",\"1689530\",\"0.0-244.0\",\"\",\"\",\"2-4\",\"4256\",\"40\",\"0\",\"Testing\",\"Stims/Figures/139-C-20-2.bmp\",\"pa:kaka\",\"Up\",\"38\",\"4\",\"24\",\"5\",\"P\",\"J\",\"96\"
\"21473\",\"\",\"survey-text\",\"245\",\"1711010\",\"0.0-245.0\",\"\",\"{\"\"Q0\"\":\"\"PS160059\"\"}\",\"\",\"\",\"\",\"\",\"\",\"\",\"\",\"\",\"\",\"\",\"\",\"\",\"\",\"\",\"\"
