"rt","key_press","trial_type","trial_index","time_elapsed","internal_node_id","view_history","responses","Id","Rt","ResKeyCode","ResCorr","TrialType2","Image","Label","Location","CorrectResponse","Block","BlockTrial","Condition","LabelType","Subcondition","trialNum"
"1953","32","text","0","1971","0.0-0.0-0.0","","","","","","","","","","","","","","","","",""
"524","","instructions","1","2502","0.0-1.0","[{""page_index"":0,""viewing_time"":520}]","","","","","","","","","","","","","","","",""
"15825","","survey-multi-choice","2","18418","0.0-2.0","","{""Q0"":""Da"",""Q1"":""Da"",""Q2"":""Da"",""Q3"":""Da"",""Q4"":""Da"",""Q5"":""Da""}","","","","","","","","","","","","","","",""
"","","bio","3","26599","0.0-3.0","","{""age"":""18"",""gender"":""f"",""specify"":""""}","","","","","","","","","","","","","","",""
"","","approach-retreat","4","32601","0.0-4.0","","","2-3","4450","38","1","Training","Stims/Figures/93-J-0-1.bmp","za:saha","Down","38","1","1","3B","C2","J","1"
"","","approach-retreat","5","38165","0.0-5.0","","","2-3","4002","38","0","Training","Stims/Figures/7-C-20-4.bmp","fashava","Down","40","1","2","3B","C1","J","2"
"","","approach-retreat","6","43784","0.0-6.0","","","2-3","4057","39","1","Training","Stims/Figures/19-J-10-4.bmp","za:saha","Left","39","1","3","3B","C2","J","3"
"","","approach-retreat","7","49789","0.0-7.0","","","2-3","4443","39","1","Training","Stims/Figures/7-J-10-4.bmp","za:saha","Left","39","1","4","3B","C2","J","4"
"","","approach-retreat","8","55931","0.0-8.0","","","2-3","4611","39","1","Training","Stims/Figures/85-C-20-2.bmp","fashava","Right","39","1","5","3B","C1","J","5"
"","","approach-retreat","9","61558","0.0-9.0","","","2-3","4086","40","0","Training","Stims/Figures/84-J-0-2.bmp","za:saha","Down","38","1","6","3B","C2","J","6"
"","","approach-retreat","10","68051","0.0-10.0","","","2-3","4917","39","1","Training","Stims/Figures/85-J-0-2.bmp","za:saha","Left","39","1","7","3B","C2","J","7"
"","","approach-retreat","11","74510","0.0-11.0","","","2-3","4903","40","0","Training","Stims/Figures/19-C-20-4.bmp","fashava","Up","38","1","8","3B","C1","J","8"
"","","approach-retreat","12","80532","0.0-12.0","","","2-3","4465","38","0","Training","Stims/Figures/111-C-30-3.bmp","fashava","Down","40","1","9","3B","C1","J","9"
"","","approach-retreat","13","86084","0.0-13.0","","","2-3","4000","40","0","Training","Stims/Figures/84-C-20-2.bmp","fashava","Up","38","1","10","3B","C1","J","10"
"","","approach-retreat","14","91570","0.0-14.0","","","2-3","3945","39","1","Training","Stims/Figures/93-C-30-1.bmp","fashava","Right","39","1","11","3B","C1","J","11"
"","","approach-retreat","15","97286","0.0-15.0","","","2-3","4170","39","0","Training","Stims/Figures/71-J-0-1.bmp","za:saha","Right","37","1","12","3B","C2","J","12"
"","","approach-retreat","16","103127","0.0-16.0","","","2-3","4287","39","1","Training","Stims/Figures/71-C-30-1.bmp","fashava","Right","39","1","13","3B","C1","J","13"
"","","approach-retreat","17","108649","0.0-17.0","","","2-3","3974","39","1","Training","Stims/Figures/144-J-10-3.bmp","za:saha","Left","39","1","14","3B","C2","J","14"
"","","approach-retreat","18","114581","0.0-18.0","","","2-3","4384","38","0","Training","Stims/Figures/111-J-10-3.bmp","za:saha","Up","40","1","15","3B","C2","J","15"
"","","approach-retreat","19","120568","0.0-19.0","","","2-3","4438","38","1","Training","Stims/Figures/144-C-30-3.bmp","fashava","Up","38","1","16","3B","C1","J","16"
"","","approach-retreat","20","126841","0.0-20.0","","","2-3","4703","40","1","Training","Stims/Figures/84-C-20-2.bmp","fashava","Down","40","2","1","3B","C1","J","17"
"","","approach-retreat","21","133512","0.0-21.0","","","2-3","5133","38","0","Training","Stims/Figures/84-J-0-2.bmp","za:saha","Up","40","2","2","3B","C2","J","18"
"","","approach-retreat","22","139851","0.0-22.0","","","2-3","4783","38","1","Training","Stims/Figures/85-J-0-2.bmp","za:saha","Down","38","2","3","3B","C2","J","19"
"","","approach-retreat","23","146610","0.0-23.0","","","2-3","5234","39","0","Training","Stims/Figures/144-J-10-3.bmp","za:saha","Right","37","2","4","3B","C2","J","20"
"","","approach-retreat","24","153075","0.0-24.0","","","2-3","4899","39","1","Training","Stims/Figures/93-J-0-1.bmp","za:saha","Left","39","2","5","3B","C2","J","21"
"","","approach-retreat","25","159074","0.0-25.0","","","2-3","4447","40","0","Training","Stims/Figures/93-C-30-1.bmp","fashava","Up","38","2","6","3B","C1","J","22"
"","","approach-retreat","26","168369","0.0-26.0","","","2-3","7743","38","0","Training","Stims/Figures/85-C-20-2.bmp","fashava","Down","40","2","7","3B","C1","J","23"
"","","approach-retreat","27","174581","0.0-27.0","","","2-3","4641","40","1","Training","Stims/Figures/19-J-10-4.bmp","za:saha","Up","40","2","8","3B","C2","J","24"
"","","approach-retreat","28","180440","0.0-28.0","","","2-3","4310","39","0","Training","Stims/Figures/111-C-30-3.bmp","fashava","Left","37","2","9","3B","C1","J","25"
"","","approach-retreat","29","186569","0.0-29.0","","","2-3","4600","40","1","Training","Stims/Figures/7-C-20-4.bmp","fashava","Down","40","2","10","3B","C1","J","26"
"","","approach-retreat","30","192849","0.0-30.0","","","2-3","4728","39","0","Training","Stims/Figures/19-C-20-4.bmp","fashava","Left","37","2","11","3B","C1","J","27"
"","","approach-retreat","31","198520","0.0-31.0","","","2-3","4113","39","0","Training","Stims/Figures/7-J-10-4.bmp","za:saha","Right","37","2","12","3B","C2","J","28"
"","","approach-retreat","32","204456","0.0-32.0","","","2-3","4381","39","1","Training","Stims/Figures/71-J-0-1.bmp","za:saha","Left","39","2","13","3B","C2","J","29"
"","","approach-retreat","33","210160","0.0-33.0","","","2-3","4171","39","0","Training","Stims/Figures/111-J-10-3.bmp","za:saha","Right","37","2","14","3B","C2","J","30"
"","","approach-retreat","34","215937","0.0-34.0","","","2-3","4231","38","1","Training","Stims/Figures/71-C-30-1.bmp","fashava","Up","38","2","15","3B","C1","J","31"
"","","approach-retreat","35","221863","0.0-35.0","","","2-3","4379","39","1","Training","Stims/Figures/144-C-30-3.bmp","fashava","Right","39","2","16","3B","C1","J","32"
"","","approach-retreat","36","227474","0.0-36.0","","","2-3","4094","38","0","Training","Stims/Figures/85-J-0-2.bmp","za:saha","Up","40","3","1","3B","C2","J","33"
"","","approach-retreat","37","232787","0.0-37.0","","","2-3","3736","40","0","Training","Stims/Figures/7-J-10-4.bmp","za:saha","Down","38","3","2","3B","C2","J","34"
"","","approach-retreat","38","238424","0.0-38.0","","","2-3","4093","39","0","Training","Stims/Figures/144-J-10-3.bmp","za:saha","Right","37","3","3","3B","C2","J","35"
"","","approach-retreat","39","244274","0.0-39.0","","","2-3","4299","38","1","Training","Stims/Figures/111-C-30-3.bmp","fashava","Up","38","3","4","3B","C1","J","36"
"","","approach-retreat","40","250080","0.0-40.0","","","2-3","4253","38","1","Training","Stims/Figures/71-J-0-1.bmp","za:saha","Down","38","3","5","3B","C2","J","37"
"","","approach-retreat","41","255781","0.0-41.0","","","2-3","4142","38","0","Training","Stims/Figures/111-J-10-3.bmp","za:saha","Up","40","3","6","3B","C2","J","38"
"","","approach-retreat","42","261888","0.0-42.0","","","2-3","4543","39","0","Training","Stims/Figures/84-J-0-2.bmp","za:saha","Right","37","3","7","3B","C2","J","39"
"","","approach-retreat","43","267395","0.0-43.0","","","2-3","3956","39","1","Training","Stims/Figures/19-J-10-4.bmp","za:saha","Left","39","3","8","3B","C2","J","40"
"","","approach-retreat","44","273054","0.0-44.0","","","2-3","4101","40","1","Training","Stims/Figures/71-C-30-1.bmp","fashava","Down","40","3","9","3B","C1","J","41"
"","","approach-retreat","45","278837","0.0-45.0","","","2-3","4228","39","1","Training","Stims/Figures/19-C-20-4.bmp","fashava","Right","39","3","10","3B","C1","J","42"
"","","approach-retreat","46","284498","0.0-46.0","","","2-3","4100","39","1","Training","Stims/Figures/93-J-0-1.bmp","za:saha","Left","39","3","11","3B","C2","J","43"
"","","approach-retreat","47","292431","0.0-47.0","","","2-3","6385","39","0","Training","Stims/Figures/93-C-30-1.bmp","fashava","Left","37","3","12","3B","C1","J","44"
"","","approach-retreat","48","302007","0.0-48.0","","","2-3","8007","37","0","Training","Stims/Figures/7-C-20-4.bmp","fashava","Right","39","3","13","3B","C1","J","45"
"","","approach-retreat","49","308124","0.0-49.0","","","2-3","4563","39","0","Training","Stims/Figures/85-C-20-2.bmp","fashava","Left","37","3","14","3B","C1","J","46"
"","","approach-retreat","50","314244","0.0-50.0","","","2-3","4565","38","0","Training","Stims/Figures/84-C-20-2.bmp","fashava","Down","40","3","15","3B","C1","J","47"
"","","approach-retreat","51","320451","0.0-51.0","","","2-3","4665","40","0","Training","Stims/Figures/144-C-30-3.bmp","fashava","Up","38","3","16","3B","C1","J","48"
"","","approach-retreat","52","326326","0.0-52.0","","","2-3","4321","39","0","Training","Stims/Figures/7-J-10-4.bmp","za:saha","Right","37","4","1","3B","C2","J","49"
"","","approach-retreat","53","332908","0.0-53.0","","","2-3","5028","40","1","Training","Stims/Figures/19-J-10-4.bmp","za:saha","Up","40","4","2","3B","C2","J","50"
"","","approach-retreat","54","338545","0.0-54.0","","","2-3","4085","39","1","Training","Stims/Figures/111-J-10-3.bmp","za:saha","Left","39","4","3","3B","C2","J","51"
"","","approach-retreat","55","344899","0.0-55.0","","","2-3","4810","39","1","Training","Stims/Figures/84-C-20-2.bmp","fashava","Right","39","4","4","3B","C1","J","52"
"","","approach-retreat","56","349999","0.0-56.0","","","2-3","3541","40","1","Training","Stims/Figures/93-C-30-1.bmp","fashava","Down","40","4","5","3B","C1","J","53"
"","","approach-retreat","57","355738","0.0-57.0","","","2-3","4187","39","0","Training","Stims/Figures/84-J-0-2.bmp","za:saha","Right","37","4","6","3B","C2","J","54"
"","","approach-retreat","58","361268","0.0-58.0","","","2-3","3976","40","1","Training","Stims/Figures/93-J-0-1.bmp","za:saha","Up","40","4","7","3B","C2","J","55"
"","","approach-retreat","59","366999","0.0-59.0","","","2-3","4208","39","1","Training","Stims/Figures/85-J-0-2.bmp","za:saha","Left","39","4","8","3B","C2","J","56"
"","","approach-retreat","60","372444","0.0-60.0","","","2-3","3902","40","0","Training","Stims/Figures/71-C-30-1.bmp","fashava","Up","38","4","9","3B","C1","J","57"
"","","approach-retreat","61","378187","0.0-61.0","","","2-3","4192","39","1","Training","Stims/Figures/71-J-0-1.bmp","za:saha","Left","39","4","10","3B","C2","J","58"
"","","approach-retreat","62","383845","0.0-62.0","","","2-3","4112","38","0","Training","Stims/Figures/111-C-30-3.bmp","fashava","Down","40","4","11","3B","C1","J","59"
"","","approach-retreat","63","389655","0.0-63.0","","","2-3","4286","40","0","Training","Stims/Figures/85-C-20-2.bmp","fashava","Up","38","4","12","3B","C1","J","60"
"","","approach-retreat","64","395420","0.0-64.0","","","2-3","4207","38","0","Training","Stims/Figures/7-C-20-4.bmp","fashava","Down","40","4","13","3B","C1","J","61"
"","","approach-retreat","65","401205","0.0-65.0","","","2-3","4248","39","0","Training","Stims/Figures/144-J-10-3.bmp","za:saha","Right","37","4","14","3B","C2","J","62"
"","","approach-retreat","66","407221","0.0-66.0","","","2-3","4466","38","0","Training","Stims/Figures/19-C-20-4.bmp","fashava","Down","40","4","15","3B","C1","J","63"
"","","approach-retreat","67","413273","0.0-67.0","","","2-3","4507","39","0","Training","Stims/Figures/144-C-30-3.bmp","fashava","Left","37","4","16","3B","C1","J","64"
"","","approach-retreat","68","418567","0.0-68.0","","","2-3","3744","39","1","Training","Stims/Figures/84-C-20-2.bmp","fashava","Right","39","5","1","3B","C1","J","65"
"","","approach-retreat","69","424169","0.0-69.0","","","2-3","4067","40","0","Training","Stims/Figures/111-J-10-3.bmp","za:saha","Down","38","5","2","3B","C2","J","66"
"","","approach-retreat","70","429984","0.0-70.0","","","2-3","4255","39","0","Training","Stims/Figures/7-J-10-4.bmp","za:saha","Right","37","5","3","3B","C2","J","67"
"","","approach-retreat","71","435487","0.0-71.0","","","2-3","3933","40","0","Training","Stims/Figures/7-C-20-4.bmp","fashava","Up","38","5","4","3B","C1","J","68"
"","","approach-retreat","72","441484","0.0-72.0","","","2-3","4442","39","1","Training","Stims/Figures/71-J-0-1.bmp","za:saha","Left","39","5","5","3B","C2","J","69"
"","","approach-retreat","73","447776","0.0-73.0","","","2-3","4748","39","1","Training","Stims/Figures/85-C-20-2.bmp","fashava","Right","39","5","6","3B","C1","J","70"
"","","approach-retreat","74","453248","0.0-74.0","","","2-3","3938","38","1","Training","Stims/Figures/93-C-30-1.bmp","fashava","Up","38","5","7","3B","C1","J","71"
"","","approach-retreat","75","458711","0.0-75.0","","","2-3","3911","40","0","Training","Stims/Figures/84-J-0-2.bmp","za:saha","Down","38","5","8","3B","C2","J","72"
"","","approach-retreat","76","464012","0.0-76.0","","","2-3","3750","40","1","Training","Stims/Figures/85-J-0-2.bmp","za:saha","Up","40","5","9","3B","C2","J","73"
"","","approach-retreat","77","469185","0.0-77.0","","","2-3","3627","38","1","Training","Stims/Figures/71-C-30-1.bmp","fashava","Up","38","5","10","3B","C1","J","74"
"","","approach-retreat","78","475294","0.0-78.0","","","2-3","4565","40","0","Training","Stims/Figures/144-J-10-3.bmp","za:saha","Down","38","5","11","3B","C2","J","75"
"","","approach-retreat","79","481179","0.0-79.0","","","2-3","4328","39","0","Training","Stims/Figures/19-C-20-4.bmp","fashava","Left","37","5","12","3B","C1","J","76"
"","","approach-retreat","80","486907","0.0-80.0","","","2-3","4175","39","0","Training","Stims/Figures/19-J-10-4.bmp","za:saha","Right","37","5","13","3B","C2","J","77"
"","","approach-retreat","81","493007","0.0-81.0","","","2-3","4545","40","1","Training","Stims/Figures/111-C-30-3.bmp","fashava","Down","40","5","14","3B","C1","J","78"
"","","approach-retreat","82","498756","0.0-82.0","","","2-3","4208","39","1","Training","Stims/Figures/93-J-0-1.bmp","za:saha","Left","39","5","15","3B","C2","J","79"
"","","approach-retreat","83","504652","0.0-83.0","","","2-3","4344","39","0","Training","Stims/Figures/144-C-30-3.bmp","fashava","Left","37","5","16","3B","C1","J","80"
"","","approach-retreat","84","510491","0.0-84.0","","","2-3","4315","39","0","Training","Stims/Figures/111-C-30-3.bmp","fashava","Left","37","6","1","3B","C1","J","81"
"","","approach-retreat","85","516172","0.0-85.0","","","2-3","4128","39","0","Training","Stims/Figures/93-J-0-1.bmp","za:saha","Right","37","6","2","3B","C2","J","82"
"","","approach-retreat","86","521574","0.0-86.0","","","2-3","3850","38","0","Training","Stims/Figures/7-C-20-4.bmp","fashava","Down","40","6","3","3B","C1","J","83"
"","","approach-retreat","87","527250","0.0-87.0","","","2-3","4154","38","1","Training","Stims/Figures/111-J-10-3.bmp","za:saha","Down","38","6","4","3B","C2","J","84"
"","","approach-retreat","88","534901","0.0-88.0","","","2-3","6105","39","0","Training","Stims/Figures/144-C-30-3.bmp","fashava","Left","37","6","5","3B","C1","J","85"
"","","approach-retreat","89","540570","0.0-89.0","","","2-3","4126","39","0","Training","Stims/Figures/19-C-20-4.bmp","fashava","Left","37","6","6","3B","C1","J","86"
"","","approach-retreat","90","545971","0.0-90.0","","","2-3","3853","40","0","Training","Stims/Figures/19-J-10-4.bmp","za:saha","Down","38","6","7","3B","C2","J","87"
"","","approach-retreat","91","551576","0.0-91.0","","","2-3","4050","40","0","Training","Stims/Figures/85-C-20-2.bmp","fashava","Up","38","6","8","3B","C1","J","88"
"","","approach-retreat","92","557161","0.0-92.0","","","2-3","4043","40","1","Training","Stims/Figures/85-J-0-2.bmp","za:saha","Up","40","6","9","3B","C2","J","89"
"","","approach-retreat","93","563080","0.0-93.0","","","2-3","4381","39","1","Training","Stims/Figures/93-C-30-1.bmp","fashava","Right","39","6","10","3B","C1","J","90"
"","","approach-retreat","94","568905","0.0-94.0","","","2-3","4275","39","1","Training","Stims/Figures/71-C-30-1.bmp","fashava","Right","39","6","11","3B","C1","J","91"
"","","approach-retreat","95","574803","0.0-95.0","","","2-3","4359","38","1","Training","Stims/Figures/84-C-20-2.bmp","fashava","Up","38","6","12","3B","C1","J","92"
"","","approach-retreat","96","580944","0.0-96.0","","","2-3","4599","38","0","Training","Stims/Figures/144-J-10-3.bmp","za:saha","Up","40","6","13","3B","C2","J","93"
"","","approach-retreat","97","586810","0.0-97.0","","","2-3","4328","39","1","Training","Stims/Figures/84-J-0-2.bmp","za:saha","Left","39","6","14","3B","C2","J","94"
"","","approach-retreat","98","592849","0.0-98.0","","","2-3","4483","40","0","Training","Stims/Figures/71-J-0-1.bmp","za:saha","Down","38","6","15","3B","C2","J","95"
"","","approach-retreat","99","599219","0.0-99.0","","","2-3","4809","39","0","Training","Stims/Figures/7-J-10-4.bmp","za:saha","Right","37","6","16","3B","C2","J","96"
"","","approach-retreat","100","605066","0.0-100.0","","","2-3","4315","38","1","Training","Stims/Figures/93-J-0-1.bmp","za:saha","Down","38","7","1","3B","C2","J","97"
"","","approach-retreat","101","610845","0.0-101.0","","","2-3","4236","39","0","Training","Stims/Figures/144-J-10-3.bmp","za:saha","Right","37","7","2","3B","C2","J","98"
"","","approach-retreat","102","616489","0.0-102.0","","","2-3","4090","38","1","Training","Stims/Figures/84-J-0-2.bmp","za:saha","Down","38","7","3","3B","C2","J","99"
"","","approach-retreat","103","622136","0.0-103.0","","","2-3","4103","38","1","Training","Stims/Figures/85-C-20-2.bmp","fashava","Up","38","7","4","3B","C1","J","100"
"","","approach-retreat","104","627787","0.0-104.0","","","2-3","4122","38","1","Training","Stims/Figures/85-J-0-2.bmp","za:saha","Down","38","7","5","3B","C2","J","101"
"","","approach-retreat","105","633689","0.0-105.0","","","2-3","4347","39","0","Training","Stims/Figures/84-C-20-2.bmp","fashava","Left","37","7","6","3B","C1","J","102"
"","","approach-retreat","106","639369","0.0-106.0","","","2-3","4135","39","0","Training","Stims/Figures/19-J-10-4.bmp","za:saha","Right","37","7","7","3B","C2","J","103"
"","","approach-retreat","107","644575","0.0-107.0","","","2-3","3661","38","1","Training","Stims/Figures/7-C-20-4.bmp","fashava","Up","38","7","8","3B","C1","J","104"
"","","approach-retreat","108","651567","0.0-108.0","","","2-3","5440","39","0","Training","Stims/Figures/7-J-10-4.bmp","za:saha","Right","37","7","9","3B","C2","J","105"
"","","approach-retreat","109","656997","0.0-109.0","","","2-3","3881","40","0","Training","Stims/Figures/71-C-30-1.bmp","fashava","Up","38","7","10","3B","C1","J","106"
"","","approach-retreat","110","663661","0.0-110.0","","","2-3","5081","39","1","Training","Stims/Figures/93-C-30-1.bmp","fashava","Right","39","7","11","3B","C1","J","107"
"","","approach-retreat","111","669022","0.0-111.0","","","2-3","3808","40","1","Training","Stims/Figures/111-C-30-3.bmp","fashava","Down","40","7","12","3B","C1","J","108"
"","","approach-retreat","112","674937","0.0-112.0","","","2-3","4379","37","0","Training","Stims/Figures/71-J-0-1.bmp","za:saha","Left","39","7","13","3B","C2","J","109"
"","","approach-retreat","113","681998","0.0-113.0","","","2-3","5511","39","0","Training","Stims/Figures/19-C-20-4.bmp","fashava","Left","37","7","14","3B","C1","J","110"
"","","approach-retreat","114","687814","0.0-114.0","","","2-3","4267","39","1","Training","Stims/Figures/111-J-10-3.bmp","za:saha","Left","39","7","15","3B","C2","J","111"
"","","approach-retreat","115","692943","0.0-115.0","","","2-3","3584","40","0","Training","Stims/Figures/144-C-30-3.bmp","fashava","Up","38","7","16","3B","C1","J","112"
"","","approach-retreat","116","698870","0.0-116.0","","","2-3","4369","38","1","Training","Stims/Figures/144-J-10-3.bmp","za:saha","Down","38","8","1","3B","C2","J","113"
"","","approach-retreat","117","705935","0.0-117.0","","","2-3","5509","39","1","Training","Stims/Figures/144-C-30-3.bmp","fashava","Right","39","8","2","3B","C1","J","114"
"","","approach-retreat","118","713494","0.0-118.0","","","2-3","6011","37","0","Training","Stims/Figures/71-C-30-1.bmp","fashava","Right","39","8","3","3B","C1","J","115"
"","","approach-retreat","119","721010","0.0-119.0","","","2-3","5966","37","0","Training","Stims/Figures/7-J-10-4.bmp","za:saha","Left","39","8","4","3B","C2","J","116"
"","","approach-retreat","120","726849","0.0-120.0","","","2-3","4288","38","1","Training","Stims/Figures/93-C-30-1.bmp","fashava","Up","38","8","5","3B","C1","J","117"
"","","approach-retreat","121","732244","0.0-121.0","","","2-3","3848","38","1","Training","Stims/Figures/71-J-0-1.bmp","za:saha","Down","38","8","6","3B","C2","J","118"
"","","approach-retreat","122","738241","0.0-122.0","","","2-3","4456","40","0","Training","Stims/Figures/85-C-20-2.bmp","fashava","Up","38","8","7","3B","C1","J","119"
"","","approach-retreat","123","745063","0.0-123.0","","","2-3","5288","39","1","Training","Stims/Figures/111-C-30-3.bmp","fashava","Right","39","8","8","3B","C1","J","120"
"","","approach-retreat","124","751049","0.0-124.0","","","2-3","4457","39","1","Training","Stims/Figures/19-C-20-4.bmp","fashava","Right","39","8","9","3B","C1","J","121"
"","","approach-retreat","125","756863","0.0-125.0","","","2-3","4272","39","1","Training","Stims/Figures/93-J-0-1.bmp","za:saha","Left","39","8","10","3B","C2","J","122"
"","","approach-retreat","126","763411","0.0-126.0","","","2-3","5006","39","1","Training","Stims/Figures/84-J-0-2.bmp","za:saha","Left","39","8","11","3B","C2","J","123"
"","","approach-retreat","127","769313","0.0-127.0","","","2-3","4365","40","1","Training","Stims/Figures/84-C-20-2.bmp","fashava","Down","40","8","12","3B","C1","J","124"
"","","approach-retreat","128","775102","0.0-128.0","","","2-3","4268","37","1","Training","Stims/Figures/7-C-20-4.bmp","fashava","Left","37","8","13","3B","C1","J","125"
"","","approach-retreat","129","780577","0.0-129.0","","","2-3","3939","40","0","Training","Stims/Figures/111-J-10-3.bmp","za:saha","Down","38","8","14","3B","C2","J","126"
"","","approach-retreat","130","786572","0.0-130.0","","","2-3","4425","38","0","Training","Stims/Figures/19-J-10-4.bmp","za:saha","Up","40","8","15","3B","C2","J","127"
"","","approach-retreat","131","792867","0.0-131.0","","","2-3","4753","38","0","Training","Stims/Figures/85-J-0-2.bmp","za:saha","Up","40","8","16","3B","C2","J","128"
"","","approach-retreat","132","798731","0.0-132.0","","","2-3","4329","39","1","Training","Stims/Figures/144-J-10-3.bmp","za:saha","Left","39","9","1","3B","C2","J","129"
"","","approach-retreat","133","805292","0.0-133.0","","","2-3","5030","38","1","Training","Stims/Figures/85-C-20-2.bmp","fashava","Up","38","9","2","3B","C1","J","130"
"","","approach-retreat","134","810767","0.0-134.0","","","2-3","3946","40","1","Training","Stims/Figures/111-C-30-3.bmp","fashava","Down","40","9","3","3B","C1","J","131"
"","","approach-retreat","135","816926","0.0-135.0","","","2-3","4620","39","0","Training","Stims/Figures/84-C-20-2.bmp","fashava","Left","37","9","4","3B","C1","J","132"
"","","approach-retreat","136","822207","0.0-136.0","","","2-3","3741","40","1","Training","Stims/Figures/144-C-30-3.bmp","fashava","Down","40","9","5","3B","C1","J","133"
"","","approach-retreat","137","828026","0.0-137.0","","","2-3","4257","39","1","Training","Stims/Figures/93-C-30-1.bmp","fashava","Right","39","9","6","3B","C1","J","134"
"","","approach-retreat","138","834089","0.0-138.0","","","2-3","4508","38","1","Training","Stims/Figures/7-C-20-4.bmp","fashava","Up","38","9","7","3B","C1","J","135"
"","","approach-retreat","139","841411","0.0-139.0","","","2-3","5779","39","0","Training","Stims/Figures/93-J-0-1.bmp","za:saha","Right","37","9","8","3B","C2","J","136"
"","","approach-retreat","140","848541","0.0-140.0","","","2-3","5571","40","0","Training","Stims/Figures/7-J-10-4.bmp","za:saha","Down","38","9","9","3B","C2","J","137"
"","","approach-retreat","141","854595","0.0-141.0","","","2-3","4508","39","0","Training","Stims/Figures/84-J-0-2.bmp","za:saha","Right","37","9","10","3B","C2","J","138"
"","","approach-retreat","142","860277","0.0-142.0","","","2-3","4130","39","1","Training","Stims/Figures/19-C-20-4.bmp","fashava","Right","39","9","11","3B","C1","J","139"
"","","approach-retreat","143","865877","0.0-143.0","","","2-3","4068","40","1","Training","Stims/Figures/71-J-0-1.bmp","za:saha","Up","40","9","12","3B","C2","J","140"
"","","approach-retreat","144","871783","0.0-144.0","","","2-3","4369","39","0","Training","Stims/Figures/71-C-30-1.bmp","fashava","Left","37","9","13","3B","C1","J","141"
"","","approach-retreat","145","877481","0.0-145.0","","","2-3","4148","40","1","Training","Stims/Figures/111-J-10-3.bmp","za:saha","Up","40","9","14","3B","C2","J","142"
"","","approach-retreat","146","884409","0.0-146.0","","","2-3","5385","39","1","Training","Stims/Figures/85-J-0-2.bmp","za:saha","Left","39","9","15","3B","C2","J","143"
"","","approach-retreat","147","890493","0.0-147.0","","","2-3","4528","40","0","Training","Stims/Figures/19-J-10-4.bmp","za:saha","Down","38","9","16","3B","C2","J","144"
"9216","","instructions","148","899714","0.0-148.0","[{""page_index"":0,""viewing_time"":9208}]","","","","","","","","","","","","","","","",""
"","","approach-retreat","149","905946","0.0-149.0","","","2-3","4692","39","0","Testing","Stims/Figures/111-C-30-3.bmp","fashava","Left","37","1","1","3B","C1","J","1"
"","","approach-retreat","150","911483","0.0-150.0","","","2-3","3991","38","0","Testing","Stims/Figures/93-C-30-1.bmp","fashava","Down","40","1","2","3B","C1","J","2"
"","","approach-retreat","151","918861","0.0-151.0","","","2-3","5841","40","1","Testing","Stims/Figures/144-C-30-3.bmp","fashava","Down","40","1","3","3B","C1","J","3"
"","","approach-retreat","152","926927","0.0-152.0","","","2-3","6528","40","0","Testing","Stims/Figures/139-J-0-2.bmp","za:saha","Down","38","1","4","3B","C2","J","4"
"","","approach-retreat","153","932823","0.0-153.0","","","2-3","4359","40","1","Testing","Stims/Figures/19-J-10-4.bmp","za:saha","Up","40","1","5","3B","C2","J","5"
"","","approach-retreat","154","942771","0.0-154.0","","","2-3","8396","39","0","Testing","Stims/Figures/85-J-0-2.bmp","za:saha","Right","37","1","6","3B","C2","J","6"
"","","approach-retreat","155","949510","0.0-155.0","","","2-3","5200","39","0","Testing","Stims/Figures/128-J-10-3.bmp","za:saha","Right","37","1","7","3B","C2","J","7"
"","","approach-retreat","156","955856","0.0-156.0","","","2-3","4799","39","0","Testing","Stims/Figures/74-C-20-4.bmp","fashava","Left","37","1","8","3B","C1","J","8"
"","","approach-retreat","157","961377","0.0-157.0","","","2-3","3975","40","0","Testing","Stims/Figures/57-J-0-1.bmp","za:saha","Down","38","1","9","3B","C2","J","9"
"","","approach-retreat","158","967661","0.0-158.0","","","2-3","4745","37","0","Testing","Stims/Figures/7-C-20-4.bmp","fashava","Right","39","1","10","3B","C1","J","10"
"","","approach-retreat","159","973880","0.0-159.0","","","2-3","4662","39","0","Testing","Stims/Figures/84-J-0-2.bmp","za:saha","Right","37","1","11","3B","C2","J","11"
"","","approach-retreat","160","983436","0.0-160.0","","","2-3","8004","40","1","Testing","Stims/Figures/71-J-0-1.bmp","za:saha","Up","40","1","12","3B","C2","J","12"
"","","approach-retreat","161","989225","0.0-161.0","","","2-3","4232","39","1","Testing","Stims/Figures/139-C-20-2.bmp","fashava","Right","39","1","13","3B","C1","J","13"
"","","approach-retreat","162","994874","0.0-162.0","","","2-3","4108","39","1","Testing","Stims/Figures/85-C-20-2.bmp","fashava","Right","39","1","14","3B","C1","J","14"
"","","approach-retreat","163","1001863","0.0-163.0","","","2-3","5457","40","0","Testing","Stims/Figures/144-J-10-3.bmp","za:saha","Down","38","1","15","3B","C2","J","15"
"","","approach-retreat","164","1008702","0.0-164.0","","","2-3","5293","40","1","Testing","Stims/Figures/7-J-10-4.bmp","za:saha","Up","40","1","16","3B","C2","J","16"
"","","approach-retreat","165","1014414","0.0-165.0","","","2-3","4170","40","0","Testing","Stims/Figures/71-C-30-1.bmp","fashava","Up","38","1","17","3B","C1","J","17"
"","","approach-retreat","166","1021991","0.0-166.0","","","2-3","6058","40","0","Testing","Stims/Figures/128-C-30-3.bmp","fashava","Up","38","1","18","3B","C1","J","18"
"","","approach-retreat","167","1028581","0.0-167.0","","","2-3","5042","39","0","Testing","Stims/Figures/19-C-20-4.bmp","fashava","Left","37","1","19","3B","C1","J","19"
"","","approach-retreat","168","1034798","0.0-168.0","","","2-3","4661","39","0","Testing","Stims/Figures/57-C-30-1.bmp","fashava","Left","37","1","20","3B","C1","J","20"
"","","approach-retreat","169","1044724","0.0-169.0","","","2-3","8391","40","0","Testing","Stims/Figures/84-C-20-2.bmp","fashava","Up","38","1","21","3B","C1","J","21"
"","","approach-retreat","170","1051208","0.0-170.0","","","2-3","4924","39","1","Testing","Stims/Figures/74-J-10-4.bmp","za:saha","Left","39","1","22","3B","C2","J","22"
"","","approach-retreat","171","1056904","0.0-171.0","","","2-3","4163","40","0","Testing","Stims/Figures/111-J-10-3.bmp","za:saha","Down","38","1","23","3B","C2","J","23"
"","","approach-retreat","172","1063096","0.0-172.0","","","2-3","4656","39","1","Testing","Stims/Figures/93-J-0-1.bmp","za:saha","Left","39","1","24","3B","C2","J","24"
"","","approach-retreat","173","1069127","0.0-173.0","","","2-3","4492","40","1","Testing","Stims/Figures/74-J-10-4.bmp","za:saha","Up","40","2","1","3B","C2","J","25"
"","","approach-retreat","174","1074849","0.0-174.0","","","2-3","4170","39","0","Testing","Stims/Figures/19-C-20-4.bmp","fashava","Left","37","2","2","3B","C1","J","26"
"","","approach-retreat","175","1084559","0.0-175.0","","","2-3","8162","39","0","Testing","Stims/Figures/128-C-30-3.bmp","fashava","Left","37","2","3","3B","C1","J","27"
"","","approach-retreat","176","1090370","0.0-176.0","","","2-3","4258","39","0","Testing","Stims/Figures/144-J-10-3.bmp","za:saha","Right","37","2","4","3B","C2","J","28"
"","","approach-retreat","177","1096485","0.0-177.0","","","2-3","4564","39","0","Testing","Stims/Figures/111-C-30-3.bmp","fashava","Left","37","2","5","3B","C1","J","29"
"","","approach-retreat","178","1102576","0.0-178.0","","","2-3","4544","39","0","Testing","Stims/Figures/139-J-0-2.bmp","za:saha","Right","37","2","6","3B","C2","J","30"
"","","approach-retreat","179","1111568","0.0-179.0","","","2-3","7449","39","1","Testing","Stims/Figures/144-C-30-3.bmp","fashava","Right","39","2","7","3B","C1","J","31"
"","","approach-retreat","180","1119076","0.0-180.0","","","2-3","5958","38","1","Testing","Stims/Figures/85-J-0-2.bmp","za:saha","Down","38","2","8","3B","C2","J","32"
"","","approach-retreat","181","1124990","0.0-181.0","","","2-3","4360","38","0","Testing","Stims/Figures/139-C-20-2.bmp","fashava","Down","40","2","9","3B","C1","J","33"
"","","approach-retreat","182","1131344","0.0-182.0","","","2-3","4821","39","0","Testing","Stims/Figures/57-C-30-1.bmp","fashava","Left","37","2","10","3B","C1","J","34"
"","","approach-retreat","183","1137843","0.0-183.0","","","2-3","4956","40","0","Testing","Stims/Figures/93-C-30-1.bmp","fashava","Up","38","2","11","3B","C1","J","35"
"","","approach-retreat","184","1143999","0.0-184.0","","","2-3","4625","40","0","Testing","Stims/Figures/71-C-30-1.bmp","fashava","Up","38","2","12","3B","C1","J","36"
"","","approach-retreat","185","1151452","0.0-185.0","","","2-3","5896","39","1","Testing","Stims/Figures/111-J-10-3.bmp","za:saha","Left","39","2","13","3B","C2","J","37"
"","","approach-retreat","186","1157402","0.0-186.0","","","2-3","4399","40","0","Testing","Stims/Figures/74-C-20-4.bmp","fashava","Up","38","2","14","3B","C1","J","38"
"","","approach-retreat","187","1163378","0.0-187.0","","","2-3","4418","39","1","Testing","Stims/Figures/84-J-0-2.bmp","za:saha","Left","39","2","15","3B","C2","J","39"
"","","approach-retreat","188","1170474","0.0-188.0","","","2-3","5545","39","0","Testing","Stims/Figures/7-J-10-4.bmp","za:saha","Right","37","2","16","3B","C2","J","40"
"","","approach-retreat","189","1177452","0.0-189.0","","","2-3","5432","38","1","Testing","Stims/Figures/128-J-10-3.bmp","za:saha","Down","38","2","17","3B","C2","J","41"
"","","approach-retreat","190","1183230","0.0-190.0","","","2-3","4239","38","0","Testing","Stims/Figures/57-J-0-1.bmp","za:saha","Up","40","2","18","3B","C2","J","42"
"","","approach-retreat","191","1189388","0.0-191.0","","","2-3","4619","39","0","Testing","Stims/Figures/93-J-0-1.bmp","za:saha","Right","37","2","19","3B","C2","J","43"
"","","approach-retreat","192","1196276","0.0-192.0","","","2-3","5344","40","1","Testing","Stims/Figures/84-C-20-2.bmp","fashava","Down","40","2","20","3B","C1","J","44"
"","","approach-retreat","193","1202224","0.0-193.0","","","2-3","4397","39","1","Testing","Stims/Figures/7-C-20-4.bmp","fashava","Right","39","2","21","3B","C1","J","45"
"","","approach-retreat","194","1207897","0.0-194.0","","","2-3","4123","40","1","Testing","Stims/Figures/19-J-10-4.bmp","za:saha","Up","40","2","22","3B","C2","J","46"
"","","approach-retreat","195","1213802","0.0-195.0","","","2-3","4365","40","1","Testing","Stims/Figures/85-C-20-2.bmp","fashava","Down","40","2","23","3B","C1","J","47"
"","","approach-retreat","196","1220403","0.0-196.0","","","2-3","5071","40","0","Testing","Stims/Figures/71-J-0-1.bmp","za:saha","Down","38","2","24","3B","C2","J","48"
"","","approach-retreat","197","1227514","0.0-197.0","","","2-3","5552","39","0","Testing","Stims/Figures/85-C-20-2.bmp","fashava","Left","37","3","1","3B","C1","J","49"
"","","approach-retreat","198","1233385","0.0-198.0","","","2-3","4321","39","1","Testing","Stims/Figures/111-C-30-3.bmp","fashava","Right","39","3","2","3B","C1","J","50"
"","","approach-retreat","199","1239382","0.0-199.0","","","2-3","4438","39","1","Testing","Stims/Figures/111-J-10-3.bmp","za:saha","Left","39","3","3","3B","C2","J","51"
"","","approach-retreat","200","1245180","0.0-200.0","","","2-3","4258","39","0","Testing","Stims/Figures/93-J-0-1.bmp","za:saha","Right","37","3","4","3B","C2","J","52"
"","","approach-retreat","201","1250915","0.0-201.0","","","2-3","4198","39","0","Testing","Stims/Figures/74-J-10-4.bmp","za:saha","Right","37","3","5","3B","C2","J","53"
"","","approach-retreat","202","1256586","0.0-202.0","","","2-3","4132","39","0","Testing","Stims/Figures/19-C-20-4.bmp","fashava","Left","37","3","6","3B","C1","J","54"
"","","approach-retreat","203","1262239","0.0-203.0","","","2-3","4100","40","1","Testing","Stims/Figures/57-J-0-1.bmp","za:saha","Up","40","3","7","3B","C2","J","55"
"","","approach-retreat","204","1267948","0.0-204.0","","","2-3","4170","40","1","Testing","Stims/Figures/71-C-30-1.bmp","fashava","Down","40","3","8","3B","C1","J","56"
"","","approach-retreat","205","1273928","0.0-205.0","","","2-3","4432","40","1","Testing","Stims/Figures/57-C-30-1.bmp","fashava","Down","40","3","9","3B","C1","J","57"
"","","approach-retreat","206","1280103","0.0-206.0","","","2-3","4631","40","0","Testing","Stims/Figures/84-J-0-2.bmp","za:saha","Down","38","3","10","3B","C2","J","58"
"","","approach-retreat","207","1289221","0.0-207.0","","","2-3","7566","40","1","Testing","Stims/Figures/128-C-30-3.bmp","fashava","Down","40","3","11","3B","C1","J","59"
"","","approach-retreat","208","1295556","0.0-208.0","","","2-3","4790","39","0","Testing","Stims/Figures/85-J-0-2.bmp","za:saha","Right","37","3","12","3B","C2","J","60"
"","","approach-retreat","209","1301398","0.0-209.0","","","2-3","4293","39","0","Testing","Stims/Figures/93-C-30-1.bmp","fashava","Left","37","3","13","3B","C1","J","61"
"","","approach-retreat","210","1307144","0.0-210.0","","","2-3","4206","39","0","Testing","Stims/Figures/84-C-20-2.bmp","fashava","Left","37","3","14","3B","C1","J","62"
"","","approach-retreat","211","1313048","0.0-211.0","","","2-3","4356","40","0","Testing","Stims/Figures/139-C-20-2.bmp","fashava","Up","38","3","15","3B","C1","J","63"
"","","approach-retreat","212","1319080","0.0-212.0","","","2-3","4488","40","0","Testing","Stims/Figures/74-C-20-4.bmp","fashava","Up","38","3","16","3B","C1","J","64"
"","","approach-retreat","213","1325689","0.0-213.0","","","2-3","5059","40","1","Testing","Stims/Figures/128-J-10-3.bmp","za:saha","Up","40","3","17","3B","C2","J","65"
"","","approach-retreat","214","1331653","0.0-214.0","","","2-3","4427","40","0","Testing","Stims/Figures/144-C-30-3.bmp","fashava","Up","38","3","18","3B","C1","J","66"
"","","approach-retreat","215","1339581","0.0-215.0","","","2-3","6386","40","1","Testing","Stims/Figures/139-J-0-2.bmp","za:saha","Up","40","3","19","3B","C2","J","67"
"","","approach-retreat","216","1350294","0.0-216.0","","","2-3","9168","39","0","Testing","Stims/Figures/71-J-0-1.bmp","za:saha","Right","37","3","20","3B","C2","J","68"
"","","approach-retreat","217","1356051","0.0-217.0","","","2-3","4205","39","1","Testing","Stims/Figures/7-J-10-4.bmp","za:saha","Left","39","3","21","3B","C2","J","69"
"","","approach-retreat","218","1362237","0.0-218.0","","","2-3","4641","38","0","Testing","Stims/Figures/7-C-20-4.bmp","fashava","Down","40","3","22","3B","C1","J","70"
"","","approach-retreat","219","1367776","0.0-219.0","","","2-3","3980","40","0","Testing","Stims/Figures/19-J-10-4.bmp","za:saha","Down","38","3","23","3B","C2","J","71"
"","","approach-retreat","220","1374347","0.0-220.0","","","2-3","5015","39","0","Testing","Stims/Figures/144-J-10-3.bmp","za:saha","Right","37","3","24","3B","C2","J","72"
"","","approach-retreat","221","1380074","0.0-221.0","","","2-3","4191","40","1","Testing","Stims/Figures/57-J-0-1.bmp","za:saha","Up","40","4","1","3B","C2","J","73"
"","","approach-retreat","222","1385736","0.0-222.0","","","2-3","4124","39","0","Testing","Stims/Figures/144-C-30-3.bmp","fashava","Left","37","4","2","3B","C1","J","74"
"","","approach-retreat","223","1391385","0.0-223.0","","","2-3","4101","39","0","Testing","Stims/Figures/128-J-10-3.bmp","za:saha","Right","37","4","3","3B","C2","J","75"
"","","approach-retreat","224","1397742","0.0-224.0","","","2-3","4826","40","1","Testing","Stims/Figures/19-C-20-4.bmp","fashava","Down","40","4","4","3B","C1","J","76"
"","","approach-retreat","225","1403531","0.0-225.0","","","2-3","4253","39","0","Testing","Stims/Figures/57-C-30-1.bmp","fashava","Left","37","4","5","3B","C1","J","77"
"","","approach-retreat","226","1409065","0.0-226.0","","","2-3","3979","39","0","Testing","Stims/Figures/93-C-30-1.bmp","fashava","Left","37","4","6","3B","C1","J","78"
"","","approach-retreat","227","1414783","0.0-227.0","","","2-3","4165","40","0","Testing","Stims/Figures/139-J-0-2.bmp","za:saha","Down","38","4","7","3B","C2","J","79"
"","","approach-retreat","228","1420514","0.0-228.0","","","2-3","4185","38","1","Testing","Stims/Figures/144-J-10-3.bmp","za:saha","Down","38","4","8","3B","C2","J","80"
"","","approach-retreat","229","1426229","0.0-229.0","","","2-3","4166","40","1","Testing","Stims/Figures/111-J-10-3.bmp","za:saha","Up","40","4","9","3B","C2","J","81"
"","","approach-retreat","230","1431776","0.0-230.0","","","2-3","4014","40","0","Testing","Stims/Figures/84-C-20-2.bmp","fashava","Up","38","4","10","3B","C1","J","82"
"","","approach-retreat","231","1437359","0.0-231.0","","","2-3","4032","40","1","Testing","Stims/Figures/74-J-10-4.bmp","za:saha","Up","40","4","11","3B","C2","J","83"
"","","approach-retreat","232","1443798","0.0-232.0","","","2-3","4882","39","1","Testing","Stims/Figures/93-J-0-1.bmp","za:saha","Left","39","4","12","3B","C2","J","84"
"","","approach-retreat","233","1449881","0.0-233.0","","","2-3","4546","39","0","Testing","Stims/Figures/7-J-10-4.bmp","za:saha","Right","37","4","13","3B","C2","J","85"
"","","approach-retreat","234","1455640","0.0-234.0","","","2-3","4204","39","0","Testing","Stims/Figures/71-J-0-1.bmp","za:saha","Right","37","4","14","3B","C2","J","86"
"","","approach-retreat","235","1461596","0.0-235.0","","","2-3","4436","39","0","Testing","Stims/Figures/128-C-30-3.bmp","fashava","Left","37","4","15","3B","C1","J","87"
"","","approach-retreat","236","1467691","0.0-236.0","","","2-3","4564","40","0","Testing","Stims/Figures/85-J-0-2.bmp","za:saha","Down","38","4","16","3B","C2","J","88"
"","","approach-retreat","237","1473592","0.0-237.0","","","2-3","4359","40","0","Testing","Stims/Figures/139-C-20-2.bmp","fashava","Up","38","4","17","3B","C1","J","89"
"","","approach-retreat","238","1479427","0.0-238.0","","","2-3","4280","40","1","Testing","Stims/Figures/85-C-20-2.bmp","fashava","Down","40","4","18","3B","C1","J","90"
"","","approach-retreat","239","1491664","0.0-239.0","","","2-3","10682","39","0","Testing","Stims/Figures/71-C-30-1.bmp","fashava","Left","37","4","19","3B","C1","J","91"
"","","approach-retreat","240","1498105","0.0-240.0","","","2-3","4884","39","0","Testing","Stims/Figures/19-J-10-4.bmp","za:saha","Right","37","4","20","3B","C2","J","92"
"","","approach-retreat","241","1504388","0.0-241.0","","","2-3","4733","38","1","Testing","Stims/Figures/111-C-30-3.bmp","fashava","Up","38","4","21","3B","C1","J","93"
"","","approach-retreat","242","1512757","0.0-242.0","","","2-3","6837","39","0","Testing","Stims/Figures/84-J-0-2.bmp","za:saha","Right","37","4","22","3B","C2","J","94"
"","","approach-retreat","243","1518559","0.0-243.0","","","2-3","4260","39","1","Testing","Stims/Figures/7-C-20-4.bmp","fashava","Right","39","4","23","3B","C1","J","95"
"","","approach-retreat","244","1526883","0.0-244.0","","","2-3","6785","40","1","Testing","Stims/Figures/74-C-20-4.bmp","fashava","Down","40","4","24","3B","C1","J","96"
"44364","","survey-text","245","1571275","0.0-245.0","","{""Q0"":""0124""}","","","","","","","","","","","","","","",""
