\"rt\",\"key_press\",\"trial_type\",\"trial_index\",\"time_elapsed\",\"internal_node_id\",\"view_history\",\"responses\",\"Id\",\"Rt\",\"ResKeyCode\",\"ResCorr\",\"TrialType2\",\"Image\",\"Label\",\"Location\",\"CorrectResponse\",\"Block\",\"BlockTrial\",\"Condition\",\"LabelType\",\"Subcondition\",\"trialNum\"
\"84195\",\"32\",\"text\",\"0\",\"84204\",\"0.0-0.0-0.0\",\"\",\"\",\"\",\"\",\"\",\"\",\"\",\"\",\"\",\"\",\"\",\"\",\"\",\"\",\"\",\"\",\"\"
\"128025\",\"\",\"instructions\",\"1\",\"212236\",\"0.0-1.0\",\"[{\"\"page_index\"\":0,\"\"viewing_time\"\":128022}]\",\"\",\"\",\"\",\"\",\"\",\"\",\"\",\"\",\"\",\"\",\"\",\"\",\"\",\"\",\"\",\"\"
\"35886\",\"\",\"survey-multi-choice\",\"2\",\"248189\",\"0.0-2.0\",\"\",\"{\"\"Q0\"\":\"\"Da\"\",\"\"Q1\"\":\"\"Da\"\",\"\"Q2\"\":\"\"Da\"\",\"\"Q3\"\":\"\"Da\"\",\"\"Q4\"\":\"\"Da\"\",\"\"Q5\"\":\"\"Da\"\"}\",\"\",\"\",\"\",\"\",\"\",\"\",\"\",\"\",\"\",\"\",\"\",\"\",\"\",\"\",\"\"
\"\",\"\",\"bio\",\"3\",\"255199\",\"0.0-3.0\",\"\",\"{\"\"age\"\":\"\"22\"\",\"\"gender\"\":\"\"f\"\",\"\"specify\"\":\"\"\"\"}\",\"\",\"\",\"\",\"\",\"\",\"\",\"\",\"\",\"\",\"\",\"\",\"\",\"\",\"\",\"\"
\"\",\"\",\"approach-retreat\",\"4\",\"263268\",\"0.0-4.0\",\"\",\"\",\"3-5\",\"6540\",\"39\",\"1\",\"Training\",\"Stims/Figures/85-J-0-2.bmp\",\"sasaha\",\"Left\",\"39\",\"1\",\"1\",\"3B\",\"C2\",\"J\",\"1\"
\"\",\"\",\"approach-retreat\",\"5\",\"271015\",\"0.0-5.0\",\"\",\"\",\"3-5\",\"6232\",\"38\",\"1\",\"Training\",\"Stims/Figures/118-J-0-2.bmp\",\"sasaha\",\"Down\",\"38\",\"1\",\"2\",\"3B\",\"C2\",\"J\",\"2\"
\"\",\"\",\"approach-retreat\",\"6\",\"276449\",\"0.0-6.0\",\"\",\"\",\"3-5\",\"3922\",\"38\",\"1\",\"Training\",\"Stims/Figures/44-J-10-3.bmp\",\"sasaha\",\"Down\",\"38\",\"1\",\"3\",\"3B\",\"C2\",\"J\",\"3\"
\"\",\"\",\"approach-retreat\",\"7\",\"282865\",\"0.0-7.0\",\"\",\"\",\"3-5\",\"4900\",\"38\",\"1\",\"Training\",\"Stims/Figures/71-C-30-1.bmp\",\"vashava\",\"Up\",\"38\",\"1\",\"4\",\"3B\",\"C1\",\"J\",\"4\"
\"\",\"\",\"approach-retreat\",\"8\",\"289204\",\"0.0-8.0\",\"\",\"\",\"3-5\",\"4827\",\"39\",\"1\",\"Training\",\"Stims/Figures/87-C-20-4.bmp\",\"vashava\",\"Right\",\"39\",\"1\",\"5\",\"3B\",\"C1\",\"J\",\"5\"
\"\",\"\",\"approach-retreat\",\"9\",\"295107\",\"0.0-9.0\",\"\",\"\",\"3-5\",\"4388\",\"40\",\"1\",\"Training\",\"Stims/Figures/44-C-30-3.bmp\",\"vashava\",\"Down\",\"40\",\"1\",\"6\",\"3B\",\"C1\",\"J\",\"6\"
\"\",\"\",\"approach-retreat\",\"10\",\"301153\",\"0.0-10.0\",\"\",\"\",\"3-5\",\"4532\",\"40\",\"1\",\"Training\",\"Stims/Figures/87-J-10-4.bmp\",\"sasaha\",\"Up\",\"40\",\"1\",\"7\",\"3B\",\"C2\",\"J\",\"7\"
\"\",\"\",\"approach-retreat\",\"11\",\"308188\",\"0.0-11.0\",\"\",\"\",\"3-5\",\"5521\",\"38\",\"1\",\"Training\",\"Stims/Figures/74-C-20-4.bmp\",\"vashava\",\"Up\",\"38\",\"1\",\"8\",\"3B\",\"C1\",\"J\",\"8\"
\"\",\"\",\"approach-retreat\",\"12\",\"314015\",\"0.0-12.0\",\"\",\"\",\"3-5\",\"4311\",\"37\",\"1\",\"Training\",\"Stims/Figures/128-J-10-3.bmp\",\"sasaha\",\"Right\",\"37\",\"1\",\"9\",\"3B\",\"C2\",\"J\",\"9\"
\"\",\"\",\"approach-retreat\",\"13\",\"319723\",\"0.0-13.0\",\"\",\"\",\"3-5\",\"4196\",\"39\",\"1\",\"Training\",\"Stims/Figures/93-J-0-1.bmp\",\"sasaha\",\"Left\",\"39\",\"1\",\"10\",\"3B\",\"C2\",\"J\",\"10\"
\"\",\"\",\"approach-retreat\",\"14\",\"326253\",\"0.0-14.0\",\"\",\"\",\"3-5\",\"5009\",\"38\",\"1\",\"Training\",\"Stims/Figures/128-C-30-3.bmp\",\"vashava\",\"Up\",\"38\",\"1\",\"11\",\"3B\",\"C1\",\"J\",\"11\"
\"\",\"\",\"approach-retreat\",\"15\",\"332284\",\"0.0-15.0\",\"\",\"\",\"3-5\",\"4526\",\"37\",\"1\",\"Training\",\"Stims/Figures/71-J-0-1.bmp\",\"sasaha\",\"Right\",\"37\",\"1\",\"12\",\"3B\",\"C2\",\"J\",\"12\"
\"\",\"\",\"approach-retreat\",\"16\",\"338285\",\"0.0-16.0\",\"\",\"\",\"3-5\",\"4489\",\"39\",\"1\",\"Training\",\"Stims/Figures/85-C-20-2.bmp\",\"vashava\",\"Right\",\"39\",\"1\",\"13\",\"3B\",\"C1\",\"J\",\"13\"
\"\",\"\",\"approach-retreat\",\"17\",\"344058\",\"0.0-17.0\",\"\",\"\",\"3-5\",\"4260\",\"38\",\"1\",\"Training\",\"Stims/Figures/74-J-10-4.bmp\",\"sasaha\",\"Down\",\"38\",\"1\",\"14\",\"3B\",\"C2\",\"J\",\"14\"
\"\",\"\",\"approach-retreat\",\"18\",\"349807\",\"0.0-18.0\",\"\",\"\",\"3-5\",\"4232\",\"37\",\"1\",\"Training\",\"Stims/Figures/93-C-30-1.bmp\",\"vashava\",\"Left\",\"37\",\"1\",\"15\",\"3B\",\"C1\",\"J\",\"15\"
\"\",\"\",\"approach-retreat\",\"19\",\"356789\",\"0.0-19.0\",\"\",\"\",\"3-5\",\"5470\",\"37\",\"1\",\"Training\",\"Stims/Figures/118-C-20-2.bmp\",\"vashava\",\"Left\",\"37\",\"1\",\"16\",\"3B\",\"C1\",\"J\",\"16\"
\"\",\"\",\"approach-retreat\",\"20\",\"362229\",\"0.0-20.0\",\"\",\"\",\"3-5\",\"3925\",\"38\",\"0\",\"Training\",\"Stims/Figures/74-J-10-4.bmp\",\"sasaha\",\"Up\",\"40\",\"2\",\"1\",\"3B\",\"C2\",\"J\",\"17\"
\"\",\"\",\"approach-retreat\",\"21\",\"367747\",\"0.0-21.0\",\"\",\"\",\"3-5\",\"4007\",\"40\",\"1\",\"Training\",\"Stims/Figures/87-C-20-4.bmp\",\"vashava\",\"Down\",\"40\",\"2\",\"2\",\"3B\",\"C1\",\"J\",\"18\"
\"\",\"\",\"approach-retreat\",\"22\",\"373648\",\"0.0-22.0\",\"\",\"\",\"3-5\",\"4392\",\"37\",\"1\",\"Training\",\"Stims/Figures/93-J-0-1.bmp\",\"sasaha\",\"Right\",\"37\",\"2\",\"3\",\"3B\",\"C2\",\"J\",\"19\"
\"\",\"\",\"approach-retreat\",\"23\",\"379427\",\"0.0-23.0\",\"\",\"\",\"3-5\",\"4271\",\"39\",\"1\",\"Training\",\"Stims/Figures/128-J-10-3.bmp\",\"sasaha\",\"Left\",\"39\",\"2\",\"4\",\"3B\",\"C2\",\"J\",\"20\"
\"\",\"\",\"approach-retreat\",\"24\",\"386977\",\"0.0-24.0\",\"\",\"\",\"3-5\",\"6033\",\"39\",\"1\",\"Training\",\"Stims/Figures/44-C-30-3.bmp\",\"vashava\",\"Right\",\"39\",\"2\",\"5\",\"3B\",\"C1\",\"J\",\"21\"
\"\",\"\",\"approach-retreat\",\"25\",\"392650\",\"0.0-25.0\",\"\",\"\",\"3-5\",\"4162\",\"37\",\"1\",\"Training\",\"Stims/Figures/118-J-0-2.bmp\",\"sasaha\",\"Right\",\"37\",\"2\",\"6\",\"3B\",\"C2\",\"J\",\"22\"
\"\",\"\",\"approach-retreat\",\"26\",\"399485\",\"0.0-26.0\",\"\",\"\",\"3-5\",\"5326\",\"37\",\"1\",\"Training\",\"Stims/Figures/71-C-30-1.bmp\",\"vashava\",\"Left\",\"37\",\"2\",\"7\",\"3B\",\"C1\",\"J\",\"23\"
\"\",\"\",\"approach-retreat\",\"27\",\"405799\",\"0.0-27.0\",\"\",\"\",\"3-5\",\"4805\",\"38\",\"1\",\"Training\",\"Stims/Figures/74-C-20-4.bmp\",\"vashava\",\"Up\",\"38\",\"2\",\"8\",\"3B\",\"C1\",\"J\",\"24\"
\"\",\"\",\"approach-retreat\",\"28\",\"411875\",\"0.0-28.0\",\"\",\"\",\"3-5\",\"4566\",\"39\",\"1\",\"Training\",\"Stims/Figures/93-C-30-1.bmp\",\"vashava\",\"Right\",\"39\",\"2\",\"9\",\"3B\",\"C1\",\"J\",\"25\"
\"\",\"\",\"approach-retreat\",\"29\",\"417495\",\"0.0-29.0\",\"\",\"\",\"3-5\",\"4112\",\"40\",\"1\",\"Training\",\"Stims/Figures/118-C-20-2.bmp\",\"vashava\",\"Down\",\"40\",\"2\",\"10\",\"3B\",\"C1\",\"J\",\"26\"
\"\",\"\",\"approach-retreat\",\"30\",\"423886\",\"0.0-30.0\",\"\",\"\",\"3-5\",\"4883\",\"40\",\"1\",\"Training\",\"Stims/Figures/44-J-10-3.bmp\",\"sasaha\",\"Up\",\"40\",\"2\",\"11\",\"3B\",\"C2\",\"J\",\"27\"
\"\",\"\",\"approach-retreat\",\"31\",\"429434\",\"0.0-31.0\",\"\",\"\",\"3-5\",\"4038\",\"38\",\"1\",\"Training\",\"Stims/Figures/87-J-10-4.bmp\",\"sasaha\",\"Down\",\"38\",\"2\",\"12\",\"3B\",\"C2\",\"J\",\"28\"
\"\",\"\",\"approach-retreat\",\"32\",\"435077\",\"0.0-32.0\",\"\",\"\",\"3-5\",\"4132\",\"38\",\"1\",\"Training\",\"Stims/Figures/71-J-0-1.bmp\",\"sasaha\",\"Down\",\"38\",\"2\",\"13\",\"3B\",\"C2\",\"J\",\"29\"
\"\",\"\",\"approach-retreat\",\"33\",\"441047\",\"0.0-33.0\",\"\",\"\",\"3-5\",\"4461\",\"37\",\"1\",\"Training\",\"Stims/Figures/128-C-30-3.bmp\",\"vashava\",\"Left\",\"37\",\"2\",\"14\",\"3B\",\"C1\",\"J\",\"30\"
\"\",\"\",\"approach-retreat\",\"34\",\"446799\",\"0.0-34.0\",\"\",\"\",\"3-5\",\"4243\",\"38\",\"1\",\"Training\",\"Stims/Figures/85-C-20-2.bmp\",\"vashava\",\"Up\",\"38\",\"2\",\"15\",\"3B\",\"C1\",\"J\",\"31\"
\"\",\"\",\"approach-retreat\",\"35\",\"453201\",\"0.0-35.0\",\"\",\"\",\"3-5\",\"4892\",\"39\",\"1\",\"Training\",\"Stims/Figures/85-J-0-2.bmp\",\"sasaha\",\"Left\",\"39\",\"2\",\"16\",\"3B\",\"C2\",\"J\",\"32\"
\"\",\"\",\"approach-retreat\",\"36\",\"458997\",\"0.0-36.0\",\"\",\"\",\"3-5\",\"4293\",\"40\",\"1\",\"Training\",\"Stims/Figures/71-J-0-1.bmp\",\"sasaha\",\"Up\",\"40\",\"3\",\"1\",\"3B\",\"C2\",\"J\",\"33\"
\"\",\"\",\"approach-retreat\",\"37\",\"464707\",\"0.0-37.0\",\"\",\"\",\"3-5\",\"4185\",\"37\",\"1\",\"Training\",\"Stims/Figures/93-C-30-1.bmp\",\"vashava\",\"Left\",\"37\",\"3\",\"2\",\"3B\",\"C1\",\"J\",\"34\"
\"\",\"\",\"approach-retreat\",\"38\",\"470359\",\"0.0-38.0\",\"\",\"\",\"3-5\",\"4142\",\"40\",\"1\",\"Training\",\"Stims/Figures/118-C-20-2.bmp\",\"vashava\",\"Down\",\"40\",\"3\",\"3\",\"3B\",\"C1\",\"J\",\"35\"
\"\",\"\",\"approach-retreat\",\"39\",\"476030\",\"0.0-39.0\",\"\",\"\",\"3-5\",\"4164\",\"37\",\"1\",\"Training\",\"Stims/Figures/44-J-10-3.bmp\",\"sasaha\",\"Right\",\"37\",\"3\",\"4\",\"3B\",\"C2\",\"J\",\"36\"
\"\",\"\",\"approach-retreat\",\"40\",\"481937\",\"0.0-40.0\",\"\",\"\",\"3-5\",\"4398\",\"40\",\"1\",\"Training\",\"Stims/Figures/44-C-30-3.bmp\",\"vashava\",\"Down\",\"40\",\"3\",\"5\",\"3B\",\"C1\",\"J\",\"37\"
\"\",\"\",\"approach-retreat\",\"41\",\"487601\",\"0.0-41.0\",\"\",\"\",\"3-5\",\"4155\",\"40\",\"1\",\"Training\",\"Stims/Figures/85-C-20-2.bmp\",\"vashava\",\"Down\",\"40\",\"3\",\"6\",\"3B\",\"C1\",\"J\",\"38\"
\"\",\"\",\"approach-retreat\",\"42\",\"493213\",\"0.0-42.0\",\"\",\"\",\"3-5\",\"4103\",\"39\",\"1\",\"Training\",\"Stims/Figures/93-J-0-1.bmp\",\"sasaha\",\"Left\",\"39\",\"3\",\"7\",\"3B\",\"C2\",\"J\",\"39\"
\"\",\"\",\"approach-retreat\",\"43\",\"498795\",\"0.0-43.0\",\"\",\"\",\"3-5\",\"4072\",\"40\",\"1\",\"Training\",\"Stims/Figures/85-J-0-2.bmp\",\"sasaha\",\"Up\",\"40\",\"3\",\"8\",\"3B\",\"C2\",\"J\",\"40\"
\"\",\"\",\"approach-retreat\",\"44\",\"504380\",\"0.0-44.0\",\"\",\"\",\"3-5\",\"4078\",\"40\",\"1\",\"Training\",\"Stims/Figures/87-J-10-4.bmp\",\"sasaha\",\"Up\",\"40\",\"3\",\"9\",\"3B\",\"C2\",\"J\",\"41\"
\"\",\"\",\"approach-retreat\",\"45\",\"510257\",\"0.0-45.0\",\"\",\"\",\"3-5\",\"4367\",\"37\",\"1\",\"Training\",\"Stims/Figures/128-J-10-3.bmp\",\"sasaha\",\"Right\",\"37\",\"3\",\"10\",\"3B\",\"C2\",\"J\",\"42\"
\"\",\"\",\"approach-retreat\",\"46\",\"516127\",\"0.0-46.0\",\"\",\"\",\"3-5\",\"4362\",\"39\",\"1\",\"Training\",\"Stims/Figures/128-C-30-3.bmp\",\"vashava\",\"Right\",\"39\",\"3\",\"11\",\"3B\",\"C1\",\"J\",\"43\"
\"\",\"\",\"approach-retreat\",\"47\",\"521847\",\"0.0-47.0\",\"\",\"\",\"3-5\",\"4204\",\"39\",\"0\",\"Training\",\"Stims/Figures/87-C-20-4.bmp\",\"vashava\",\"Left\",\"37\",\"3\",\"12\",\"3B\",\"C1\",\"J\",\"44\"
\"\",\"\",\"approach-retreat\",\"48\",\"528143\",\"0.0-48.0\",\"\",\"\",\"3-5\",\"4789\",\"39\",\"1\",\"Training\",\"Stims/Figures/74-J-10-4.bmp\",\"sasaha\",\"Left\",\"39\",\"3\",\"13\",\"3B\",\"C2\",\"J\",\"45\"
\"\",\"\",\"approach-retreat\",\"49\",\"533883\",\"0.0-49.0\",\"\",\"\",\"3-5\",\"4231\",\"38\",\"1\",\"Training\",\"Stims/Figures/71-C-30-1.bmp\",\"vashava\",\"Up\",\"38\",\"3\",\"14\",\"3B\",\"C1\",\"J\",\"46\"
\"\",\"\",\"approach-retreat\",\"50\",\"540298\",\"0.0-50.0\",\"\",\"\",\"3-5\",\"4905\",\"40\",\"1\",\"Training\",\"Stims/Figures/74-C-20-4.bmp\",\"vashava\",\"Down\",\"40\",\"3\",\"15\",\"3B\",\"C1\",\"J\",\"47\"
\"\",\"\",\"approach-retreat\",\"51\",\"546080\",\"0.0-51.0\",\"\",\"\",\"3-5\",\"4275\",\"37\",\"1\",\"Training\",\"Stims/Figures/118-J-0-2.bmp\",\"sasaha\",\"Right\",\"37\",\"3\",\"16\",\"3B\",\"C2\",\"J\",\"48\"
\"\",\"\",\"approach-retreat\",\"52\",\"552000\",\"0.0-52.0\",\"\",\"\",\"3-5\",\"4412\",\"38\",\"1\",\"Training\",\"Stims/Figures/85-C-20-2.bmp\",\"vashava\",\"Up\",\"38\",\"4\",\"1\",\"3B\",\"C1\",\"J\",\"49\"
\"\",\"\",\"approach-retreat\",\"53\",\"557829\",\"0.0-53.0\",\"\",\"\",\"3-5\",\"4321\",\"38\",\"1\",\"Training\",\"Stims/Figures/44-C-30-3.bmp\",\"vashava\",\"Up\",\"38\",\"4\",\"2\",\"3B\",\"C1\",\"J\",\"50\"
\"\",\"\",\"approach-retreat\",\"54\",\"563620\",\"0.0-54.0\",\"\",\"\",\"3-5\",\"4283\",\"38\",\"1\",\"Training\",\"Stims/Figures/71-C-30-1.bmp\",\"vashava\",\"Up\",\"38\",\"4\",\"3\",\"3B\",\"C1\",\"J\",\"51\"
\"\",\"\",\"approach-retreat\",\"55\",\"569426\",\"0.0-55.0\",\"\",\"\",\"3-5\",\"4295\",\"37\",\"0\",\"Training\",\"Stims/Figures/74-J-10-4.bmp\",\"sasaha\",\"Left\",\"39\",\"4\",\"4\",\"3B\",\"C2\",\"J\",\"52\"
\"\",\"\",\"approach-retreat\",\"56\",\"575765\",\"0.0-56.0\",\"\",\"\",\"3-5\",\"4832\",\"38\",\"1\",\"Training\",\"Stims/Figures/128-J-10-3.bmp\",\"sasaha\",\"Down\",\"38\",\"4\",\"5\",\"3B\",\"C2\",\"J\",\"53\"
\"\",\"\",\"approach-retreat\",\"57\",\"581381\",\"0.0-57.0\",\"\",\"\",\"3-5\",\"4107\",\"38\",\"1\",\"Training\",\"Stims/Figures/71-J-0-1.bmp\",\"sasaha\",\"Down\",\"38\",\"4\",\"6\",\"3B\",\"C2\",\"J\",\"54\"
\"\",\"\",\"approach-retreat\",\"58\",\"587456\",\"0.0-58.0\",\"\",\"\",\"3-5\",\"4566\",\"40\",\"1\",\"Training\",\"Stims/Figures/85-J-0-2.bmp\",\"sasaha\",\"Up\",\"40\",\"4\",\"7\",\"3B\",\"C2\",\"J\",\"55\"
\"\",\"\",\"approach-retreat\",\"59\",\"593129\",\"0.0-59.0\",\"\",\"\",\"3-5\",\"4166\",\"39\",\"1\",\"Training\",\"Stims/Figures/118-J-0-2.bmp\",\"sasaha\",\"Left\",\"39\",\"4\",\"8\",\"3B\",\"C2\",\"J\",\"56\"
\"\",\"\",\"approach-retreat\",\"60\",\"598761\",\"0.0-60.0\",\"\",\"\",\"3-5\",\"4125\",\"39\",\"1\",\"Training\",\"Stims/Figures/128-C-30-3.bmp\",\"vashava\",\"Right\",\"39\",\"4\",\"9\",\"3B\",\"C1\",\"J\",\"57\"
\"\",\"\",\"approach-retreat\",\"61\",\"604352\",\"0.0-61.0\",\"\",\"\",\"3-5\",\"4083\",\"37\",\"1\",\"Training\",\"Stims/Figures/87-C-20-4.bmp\",\"vashava\",\"Left\",\"37\",\"4\",\"10\",\"3B\",\"C1\",\"J\",\"58\"
\"\",\"\",\"approach-retreat\",\"62\",\"610340\",\"0.0-62.0\",\"\",\"\",\"3-5\",\"4480\",\"39\",\"1\",\"Training\",\"Stims/Figures/87-J-10-4.bmp\",\"sasaha\",\"Left\",\"39\",\"4\",\"11\",\"3B\",\"C2\",\"J\",\"59\"
\"\",\"\",\"approach-retreat\",\"63\",\"615980\",\"0.0-63.0\",\"\",\"\",\"3-5\",\"4132\",\"37\",\"1\",\"Training\",\"Stims/Figures/44-J-10-3.bmp\",\"sasaha\",\"Right\",\"37\",\"4\",\"12\",\"3B\",\"C2\",\"J\",\"60\"
\"\",\"\",\"approach-retreat\",\"64\",\"621553\",\"0.0-64.0\",\"\",\"\",\"3-5\",\"4057\",\"37\",\"0\",\"Training\",\"Stims/Figures/93-C-30-1.bmp\",\"vashava\",\"Right\",\"39\",\"4\",\"13\",\"3B\",\"C1\",\"J\",\"61\"
\"\",\"\",\"approach-retreat\",\"65\",\"627290\",\"0.0-65.0\",\"\",\"\",\"3-5\",\"4226\",\"38\",\"1\",\"Training\",\"Stims/Figures/93-J-0-1.bmp\",\"sasaha\",\"Down\",\"38\",\"4\",\"14\",\"3B\",\"C2\",\"J\",\"62\"
\"\",\"\",\"approach-retreat\",\"66\",\"633255\",\"0.0-66.0\",\"\",\"\",\"3-5\",\"4456\",\"40\",\"1\",\"Training\",\"Stims/Figures/74-C-20-4.bmp\",\"vashava\",\"Down\",\"40\",\"4\",\"15\",\"3B\",\"C1\",\"J\",\"63\"
\"\",\"\",\"approach-retreat\",\"67\",\"639626\",\"0.0-67.0\",\"\",\"\",\"3-5\",\"4865\",\"39\",\"1\",\"Training\",\"Stims/Figures/118-C-20-2.bmp\",\"vashava\",\"Right\",\"39\",\"4\",\"16\",\"3B\",\"C1\",\"J\",\"64\"
\"\",\"\",\"approach-retreat\",\"68\",\"646207\",\"0.0-68.0\",\"\",\"\",\"3-5\",\"5074\",\"40\",\"1\",\"Training\",\"Stims/Figures/93-J-0-1.bmp\",\"sasaha\",\"Up\",\"40\",\"5\",\"1\",\"3B\",\"C2\",\"J\",\"65\"
\"\",\"\",\"approach-retreat\",\"69\",\"652068\",\"0.0-69.0\",\"\",\"\",\"3-5\",\"4353\",\"38\",\"1\",\"Training\",\"Stims/Figures/118-C-20-2.bmp\",\"vashava\",\"Up\",\"38\",\"5\",\"2\",\"3B\",\"C1\",\"J\",\"66\"
\"\",\"\",\"approach-retreat\",\"70\",\"657733\",\"0.0-70.0\",\"\",\"\",\"3-5\",\"4159\",\"39\",\"1\",\"Training\",\"Stims/Figures/87-J-10-4.bmp\",\"sasaha\",\"Left\",\"39\",\"5\",\"3\",\"3B\",\"C2\",\"J\",\"67\"
\"\",\"\",\"approach-retreat\",\"71\",\"663580\",\"0.0-71.0\",\"\",\"\",\"3-5\",\"4338\",\"37\",\"1\",\"Training\",\"Stims/Figures/44-J-10-3.bmp\",\"sasaha\",\"Right\",\"37\",\"5\",\"4\",\"3B\",\"C2\",\"J\",\"68\"
\"\",\"\",\"approach-retreat\",\"72\",\"669661\",\"0.0-72.0\",\"\",\"\",\"3-5\",\"4569\",\"38\",\"1\",\"Training\",\"Stims/Figures/93-C-30-1.bmp\",\"vashava\",\"Up\",\"38\",\"5\",\"5\",\"3B\",\"C1\",\"J\",\"69\"
\"\",\"\",\"approach-retreat\",\"73\",\"675689\",\"0.0-73.0\",\"\",\"\",\"3-5\",\"4519\",\"40\",\"1\",\"Training\",\"Stims/Figures/87-C-20-4.bmp\",\"vashava\",\"Down\",\"40\",\"5\",\"6\",\"3B\",\"C1\",\"J\",\"70\"
\"\",\"\",\"approach-retreat\",\"74\",\"681212\",\"0.0-74.0\",\"\",\"\",\"3-5\",\"4013\",\"40\",\"0\",\"Training\",\"Stims/Figures/128-C-30-3.bmp\",\"vashava\",\"Up\",\"38\",\"5\",\"7\",\"3B\",\"C1\",\"J\",\"71\"
\"\",\"\",\"approach-retreat\",\"75\",\"686809\",\"0.0-75.0\",\"\",\"\",\"3-5\",\"4091\",\"39\",\"1\",\"Training\",\"Stims/Figures/71-C-30-1.bmp\",\"vashava\",\"Right\",\"39\",\"5\",\"8\",\"3B\",\"C1\",\"J\",\"72\"
\"\",\"\",\"approach-retreat\",\"76\",\"692301\",\"0.0-76.0\",\"\",\"\",\"3-5\",\"3987\",\"37\",\"1\",\"Training\",\"Stims/Figures/74-J-10-4.bmp\",\"sasaha\",\"Right\",\"37\",\"5\",\"9\",\"3B\",\"C2\",\"J\",\"73\"
\"\",\"\",\"approach-retreat\",\"77\",\"697902\",\"0.0-77.0\",\"\",\"\",\"3-5\",\"4095\",\"37\",\"1\",\"Training\",\"Stims/Figures/128-J-10-3.bmp\",\"sasaha\",\"Right\",\"37\",\"5\",\"10\",\"3B\",\"C2\",\"J\",\"74\"
\"\",\"\",\"approach-retreat\",\"78\",\"703548\",\"0.0-78.0\",\"\",\"\",\"3-5\",\"4142\",\"39\",\"1\",\"Training\",\"Stims/Figures/85-J-0-2.bmp\",\"sasaha\",\"Left\",\"39\",\"5\",\"11\",\"3B\",\"C2\",\"J\",\"75\"
\"\",\"\",\"approach-retreat\",\"79\",\"709550\",\"0.0-79.0\",\"\",\"\",\"3-5\",\"4496\",\"39\",\"1\",\"Training\",\"Stims/Figures/71-J-0-1.bmp\",\"sasaha\",\"Left\",\"39\",\"5\",\"12\",\"3B\",\"C2\",\"J\",\"76\"
\"\",\"\",\"approach-retreat\",\"80\",\"715128\",\"0.0-80.0\",\"\",\"\",\"3-5\",\"4069\",\"37\",\"1\",\"Training\",\"Stims/Figures/85-C-20-2.bmp\",\"vashava\",\"Left\",\"37\",\"5\",\"13\",\"3B\",\"C1\",\"J\",\"77\"
\"\",\"\",\"approach-retreat\",\"81\",\"720769\",\"0.0-81.0\",\"\",\"\",\"3-5\",\"4132\",\"38\",\"1\",\"Training\",\"Stims/Figures/118-J-0-2.bmp\",\"sasaha\",\"Down\",\"38\",\"5\",\"14\",\"3B\",\"C2\",\"J\",\"78\"
\"\",\"\",\"approach-retreat\",\"82\",\"727049\",\"0.0-82.0\",\"\",\"\",\"3-5\",\"4771\",\"40\",\"1\",\"Training\",\"Stims/Figures/44-C-30-3.bmp\",\"vashava\",\"Down\",\"40\",\"5\",\"15\",\"3B\",\"C1\",\"J\",\"79\"
\"\",\"\",\"approach-retreat\",\"83\",\"732683\",\"0.0-83.0\",\"\",\"\",\"3-5\",\"4127\",\"40\",\"1\",\"Training\",\"Stims/Figures/74-C-20-4.bmp\",\"vashava\",\"Down\",\"40\",\"5\",\"16\",\"3B\",\"C1\",\"J\",\"80\"
\"\",\"\",\"approach-retreat\",\"84\",\"738523\",\"0.0-84.0\",\"\",\"\",\"3-5\",\"4333\",\"38\",\"1\",\"Training\",\"Stims/Figures/93-J-0-1.bmp\",\"sasaha\",\"Down\",\"38\",\"6\",\"1\",\"3B\",\"C2\",\"J\",\"81\"
\"\",\"\",\"approach-retreat\",\"85\",\"744742\",\"0.0-85.0\",\"\",\"\",\"3-5\",\"4710\",\"37\",\"1\",\"Training\",\"Stims/Figures/128-J-10-3.bmp\",\"sasaha\",\"Right\",\"37\",\"6\",\"2\",\"3B\",\"C2\",\"J\",\"82\"
\"\",\"\",\"approach-retreat\",\"86\",\"750535\",\"0.0-86.0\",\"\",\"\",\"3-5\",\"4286\",\"37\",\"1\",\"Training\",\"Stims/Figures/71-C-30-1.bmp\",\"vashava\",\"Left\",\"37\",\"6\",\"3\",\"3B\",\"C1\",\"J\",\"83\"
\"\",\"\",\"approach-retreat\",\"87\",\"756816\",\"0.0-87.0\",\"\",\"\",\"3-5\",\"4774\",\"37\",\"1\",\"Training\",\"Stims/Figures/118-J-0-2.bmp\",\"sasaha\",\"Right\",\"37\",\"6\",\"4\",\"3B\",\"C2\",\"J\",\"84\"
\"\",\"\",\"approach-retreat\",\"88\",\"762455\",\"0.0-88.0\",\"\",\"\",\"3-5\",\"4126\",\"40\",\"1\",\"Training\",\"Stims/Figures/71-J-0-1.bmp\",\"sasaha\",\"Up\",\"40\",\"6\",\"5\",\"3B\",\"C2\",\"J\",\"85\"
\"\",\"\",\"approach-retreat\",\"89\",\"768221\",\"0.0-89.0\",\"\",\"\",\"3-5\",\"4262\",\"39\",\"1\",\"Training\",\"Stims/Figures/74-C-20-4.bmp\",\"vashava\",\"Right\",\"39\",\"6\",\"6\",\"3B\",\"C1\",\"J\",\"86\"
\"\",\"\",\"approach-retreat\",\"90\",\"773882\",\"0.0-90.0\",\"\",\"\",\"3-5\",\"4155\",\"37\",\"1\",\"Training\",\"Stims/Figures/87-C-20-4.bmp\",\"vashava\",\"Left\",\"37\",\"6\",\"7\",\"3B\",\"C1\",\"J\",\"87\"
\"\",\"\",\"approach-retreat\",\"91\",\"779772\",\"0.0-91.0\",\"\",\"\",\"3-5\",\"4384\",\"38\",\"1\",\"Training\",\"Stims/Figures/44-J-10-3.bmp\",\"sasaha\",\"Down\",\"38\",\"6\",\"8\",\"3B\",\"C2\",\"J\",\"88\"
\"\",\"\",\"approach-retreat\",\"92\",\"785760\",\"0.0-92.0\",\"\",\"\",\"3-5\",\"4480\",\"40\",\"1\",\"Training\",\"Stims/Figures/93-C-30-1.bmp\",\"vashava\",\"Down\",\"40\",\"6\",\"9\",\"3B\",\"C1\",\"J\",\"89\"
\"\",\"\",\"approach-retreat\",\"93\",\"791488\",\"0.0-93.0\",\"\",\"\",\"3-5\",\"4222\",\"38\",\"1\",\"Training\",\"Stims/Figures/44-C-30-3.bmp\",\"vashava\",\"Up\",\"38\",\"6\",\"10\",\"3B\",\"C1\",\"J\",\"90\"
\"\",\"\",\"approach-retreat\",\"94\",\"796971\",\"0.0-94.0\",\"\",\"\",\"3-5\",\"3978\",\"40\",\"1\",\"Training\",\"Stims/Figures/74-J-10-4.bmp\",\"sasaha\",\"Up\",\"40\",\"6\",\"11\",\"3B\",\"C2\",\"J\",\"91\"
\"\",\"\",\"approach-retreat\",\"95\",\"802606\",\"0.0-95.0\",\"\",\"\",\"3-5\",\"4126\",\"40\",\"1\",\"Training\",\"Stims/Figures/128-C-30-3.bmp\",\"vashava\",\"Down\",\"40\",\"6\",\"12\",\"3B\",\"C1\",\"J\",\"92\"
\"\",\"\",\"approach-retreat\",\"96\",\"808511\",\"0.0-96.0\",\"\",\"\",\"3-5\",\"4400\",\"37\",\"1\",\"Training\",\"Stims/Figures/85-C-20-2.bmp\",\"vashava\",\"Left\",\"37\",\"6\",\"13\",\"3B\",\"C1\",\"J\",\"93\"
\"\",\"\",\"approach-retreat\",\"97\",\"814328\",\"0.0-97.0\",\"\",\"\",\"3-5\",\"4311\",\"39\",\"1\",\"Training\",\"Stims/Figures/118-C-20-2.bmp\",\"vashava\",\"Right\",\"39\",\"6\",\"14\",\"3B\",\"C1\",\"J\",\"94\"
\"\",\"\",\"approach-retreat\",\"98\",\"819792\",\"0.0-98.0\",\"\",\"\",\"3-5\",\"3956\",\"39\",\"1\",\"Training\",\"Stims/Figures/85-J-0-2.bmp\",\"sasaha\",\"Left\",\"39\",\"6\",\"15\",\"3B\",\"C2\",\"J\",\"95\"
\"\",\"\",\"approach-retreat\",\"99\",\"825674\",\"0.0-99.0\",\"\",\"\",\"3-5\",\"4377\",\"40\",\"1\",\"Training\",\"Stims/Figures/87-J-10-4.bmp\",\"sasaha\",\"Up\",\"40\",\"6\",\"16\",\"3B\",\"C2\",\"J\",\"96\"
\"\",\"\",\"approach-retreat\",\"100\",\"831653\",\"0.0-100.0\",\"\",\"\",\"3-5\",\"4474\",\"37\",\"1\",\"Training\",\"Stims/Figures/71-C-30-1.bmp\",\"vashava\",\"Left\",\"37\",\"7\",\"1\",\"3B\",\"C1\",\"J\",\"97\"
\"\",\"\",\"approach-retreat\",\"101\",\"837053\",\"0.0-101.0\",\"\",\"\",\"3-5\",\"3895\",\"38\",\"1\",\"Training\",\"Stims/Figures/93-J-0-1.bmp\",\"sasaha\",\"Down\",\"38\",\"7\",\"2\",\"3B\",\"C2\",\"J\",\"98\"
\"\",\"\",\"approach-retreat\",\"102\",\"842489\",\"0.0-102.0\",\"\",\"\",\"3-5\",\"3929\",\"38\",\"1\",\"Training\",\"Stims/Figures/74-J-10-4.bmp\",\"sasaha\",\"Down\",\"38\",\"7\",\"3\",\"3B\",\"C2\",\"J\",\"99\"
\"\",\"\",\"approach-retreat\",\"103\",\"848331\",\"0.0-103.0\",\"\",\"\",\"3-5\",\"4337\",\"37\",\"1\",\"Training\",\"Stims/Figures/71-J-0-1.bmp\",\"sasaha\",\"Right\",\"37\",\"7\",\"4\",\"3B\",\"C2\",\"J\",\"100\"
\"\",\"\",\"approach-retreat\",\"104\",\"854165\",\"0.0-104.0\",\"\",\"\",\"3-5\",\"4329\",\"40\",\"1\",\"Training\",\"Stims/Figures/128-C-30-3.bmp\",\"vashava\",\"Down\",\"40\",\"7\",\"5\",\"3B\",\"C1\",\"J\",\"101\"
\"\",\"\",\"approach-retreat\",\"105\",\"859668\",\"0.0-105.0\",\"\",\"\",\"3-5\",\"3997\",\"37\",\"1\",\"Training\",\"Stims/Figures/118-J-0-2.bmp\",\"sasaha\",\"Right\",\"37\",\"7\",\"6\",\"3B\",\"C2\",\"J\",\"102\"
\"\",\"\",\"approach-retreat\",\"106\",\"865256\",\"0.0-106.0\",\"\",\"\",\"3-5\",\"4084\",\"37\",\"1\",\"Training\",\"Stims/Figures/74-C-20-4.bmp\",\"vashava\",\"Left\",\"37\",\"7\",\"7\",\"3B\",\"C1\",\"J\",\"103\"
\"\",\"\",\"approach-retreat\",\"107\",\"870865\",\"0.0-107.0\",\"\",\"\",\"3-5\",\"4099\",\"40\",\"0\",\"Training\",\"Stims/Figures/44-C-30-3.bmp\",\"vashava\",\"Up\",\"38\",\"7\",\"8\",\"3B\",\"C1\",\"J\",\"104\"
\"\",\"\",\"approach-retreat\",\"108\",\"876496\",\"0.0-108.0\",\"\",\"\",\"3-5\",\"4128\",\"39\",\"1\",\"Training\",\"Stims/Figures/93-C-30-1.bmp\",\"vashava\",\"Right\",\"39\",\"7\",\"9\",\"3B\",\"C1\",\"J\",\"105\"
\"\",\"\",\"approach-retreat\",\"109\",\"882130\",\"0.0-109.0\",\"\",\"\",\"3-5\",\"4130\",\"39\",\"1\",\"Training\",\"Stims/Figures/128-J-10-3.bmp\",\"sasaha\",\"Left\",\"39\",\"7\",\"10\",\"3B\",\"C2\",\"J\",\"106\"
\"\",\"\",\"approach-retreat\",\"110\",\"887600\",\"0.0-110.0\",\"\",\"\",\"3-5\",\"3967\",\"37\",\"1\",\"Training\",\"Stims/Figures/85-C-20-2.bmp\",\"vashava\",\"Left\",\"37\",\"7\",\"11\",\"3B\",\"C1\",\"J\",\"107\"
\"\",\"\",\"approach-retreat\",\"111\",\"893464\",\"0.0-111.0\",\"\",\"\",\"3-5\",\"4360\",\"38\",\"1\",\"Training\",\"Stims/Figures/118-C-20-2.bmp\",\"vashava\",\"Up\",\"38\",\"7\",\"12\",\"3B\",\"C1\",\"J\",\"108\"
\"\",\"\",\"approach-retreat\",\"112\",\"898986\",\"0.0-112.0\",\"\",\"\",\"3-5\",\"4018\",\"40\",\"1\",\"Training\",\"Stims/Figures/85-J-0-2.bmp\",\"sasaha\",\"Up\",\"40\",\"7\",\"13\",\"3B\",\"C2\",\"J\",\"109\"
\"\",\"\",\"approach-retreat\",\"113\",\"904467\",\"0.0-113.0\",\"\",\"\",\"3-5\",\"3977\",\"37\",\"1\",\"Training\",\"Stims/Figures/44-J-10-3.bmp\",\"sasaha\",\"Right\",\"37\",\"7\",\"14\",\"3B\",\"C2\",\"J\",\"110\"
\"\",\"\",\"approach-retreat\",\"114\",\"909932\",\"0.0-114.0\",\"\",\"\",\"3-5\",\"3960\",\"38\",\"1\",\"Training\",\"Stims/Figures/87-C-20-4.bmp\",\"vashava\",\"Up\",\"38\",\"7\",\"15\",\"3B\",\"C1\",\"J\",\"111\"
\"\",\"\",\"approach-retreat\",\"115\",\"915372\",\"0.0-115.0\",\"\",\"\",\"3-5\",\"3936\",\"38\",\"1\",\"Training\",\"Stims/Figures/87-J-10-4.bmp\",\"sasaha\",\"Down\",\"38\",\"7\",\"16\",\"3B\",\"C2\",\"J\",\"112\"
\"\",\"\",\"approach-retreat\",\"116\",\"920923\",\"0.0-116.0\",\"\",\"\",\"3-5\",\"4047\",\"39\",\"1\",\"Training\",\"Stims/Figures/74-J-10-4.bmp\",\"sasaha\",\"Left\",\"39\",\"8\",\"1\",\"3B\",\"C2\",\"J\",\"113\"
\"\",\"\",\"approach-retreat\",\"117\",\"926615\",\"0.0-117.0\",\"\",\"\",\"3-5\",\"4188\",\"40\",\"1\",\"Training\",\"Stims/Figures/93-C-30-1.bmp\",\"vashava\",\"Down\",\"40\",\"8\",\"2\",\"3B\",\"C1\",\"J\",\"114\"
\"\",\"\",\"approach-retreat\",\"118\",\"932760\",\"0.0-118.0\",\"\",\"\",\"3-5\",\"4642\",\"37\",\"1\",\"Training\",\"Stims/Figures/118-J-0-2.bmp\",\"sasaha\",\"Right\",\"37\",\"8\",\"3\",\"3B\",\"C2\",\"J\",\"115\"
\"\",\"\",\"approach-retreat\",\"119\",\"939252\",\"0.0-119.0\",\"\",\"\",\"3-5\",\"4987\",\"37\",\"1\",\"Training\",\"Stims/Figures/85-C-20-2.bmp\",\"vashava\",\"Left\",\"37\",\"8\",\"4\",\"3B\",\"C1\",\"J\",\"116\"
\"\",\"\",\"approach-retreat\",\"120\",\"945387\",\"0.0-120.0\",\"\",\"\",\"3-5\",\"4631\",\"37\",\"1\",\"Training\",\"Stims/Figures/44-C-30-3.bmp\",\"vashava\",\"Left\",\"37\",\"8\",\"5\",\"3B\",\"C1\",\"J\",\"117\"
\"\",\"\",\"approach-retreat\",\"121\",\"951520\",\"0.0-121.0\",\"\",\"\",\"3-5\",\"4620\",\"40\",\"0\",\"Training\",\"Stims/Figures/71-J-0-1.bmp\",\"sasaha\",\"Down\",\"38\",\"8\",\"6\",\"3B\",\"C2\",\"J\",\"118\"
\"\",\"\",\"approach-retreat\",\"122\",\"957114\",\"0.0-122.0\",\"\",\"\",\"3-5\",\"4089\",\"40\",\"1\",\"Training\",\"Stims/Figures/93-J-0-1.bmp\",\"sasaha\",\"Up\",\"40\",\"8\",\"7\",\"3B\",\"C2\",\"J\",\"119\"
\"\",\"\",\"approach-retreat\",\"123\",\"962616\",\"0.0-123.0\",\"\",\"\",\"3-5\",\"3998\",\"37\",\"1\",\"Training\",\"Stims/Figures/85-J-0-2.bmp\",\"sasaha\",\"Right\",\"37\",\"8\",\"8\",\"3B\",\"C2\",\"J\",\"120\"
\"\",\"\",\"approach-retreat\",\"124\",\"968363\",\"0.0-124.0\",\"\",\"\",\"3-5\",\"4242\",\"37\",\"1\",\"Training\",\"Stims/Figures/71-C-30-1.bmp\",\"vashava\",\"Left\",\"37\",\"8\",\"9\",\"3B\",\"C1\",\"J\",\"121\"
\"\",\"\",\"approach-retreat\",\"125\",\"974093\",\"0.0-125.0\",\"\",\"\",\"3-5\",\"4226\",\"37\",\"1\",\"Training\",\"Stims/Figures/128-J-10-3.bmp\",\"sasaha\",\"Right\",\"37\",\"8\",\"10\",\"3B\",\"C2\",\"J\",\"122\"
\"\",\"\",\"approach-retreat\",\"126\",\"979703\",\"0.0-126.0\",\"\",\"\",\"3-5\",\"4107\",\"40\",\"1\",\"Training\",\"Stims/Figures/87-J-10-4.bmp\",\"sasaha\",\"Up\",\"40\",\"8\",\"11\",\"3B\",\"C2\",\"J\",\"123\"
\"\",\"\",\"approach-retreat\",\"127\",\"985318\",\"0.0-127.0\",\"\",\"\",\"3-5\",\"4078\",\"39\",\"1\",\"Training\",\"Stims/Figures/87-C-20-4.bmp\",\"vashava\",\"Right\",\"39\",\"8\",\"12\",\"3B\",\"C1\",\"J\",\"124\"
\"\",\"\",\"approach-retreat\",\"128\",\"990936\",\"0.0-128.0\",\"\",\"\",\"3-5\",\"4115\",\"40\",\"1\",\"Training\",\"Stims/Figures/128-C-30-3.bmp\",\"vashava\",\"Down\",\"40\",\"8\",\"13\",\"3B\",\"C1\",\"J\",\"125\"
\"\",\"\",\"approach-retreat\",\"129\",\"996629\",\"0.0-129.0\",\"\",\"\",\"3-5\",\"4188\",\"38\",\"1\",\"Training\",\"Stims/Figures/118-C-20-2.bmp\",\"vashava\",\"Up\",\"38\",\"8\",\"14\",\"3B\",\"C1\",\"J\",\"126\"
\"\",\"\",\"approach-retreat\",\"130\",\"1002554\",\"0.0-130.0\",\"\",\"\",\"3-5\",\"4423\",\"38\",\"1\",\"Training\",\"Stims/Figures/44-J-10-3.bmp\",\"sasaha\",\"Down\",\"38\",\"8\",\"15\",\"3B\",\"C2\",\"J\",\"127\"
\"\",\"\",\"approach-retreat\",\"131\",\"1008100\",\"0.0-131.0\",\"\",\"\",\"3-5\",\"4041\",\"38\",\"1\",\"Training\",\"Stims/Figures/74-C-20-4.bmp\",\"vashava\",\"Up\",\"38\",\"8\",\"16\",\"3B\",\"C1\",\"J\",\"128\"
\"\",\"\",\"approach-retreat\",\"132\",\"1014131\",\"0.0-132.0\",\"\",\"\",\"3-5\",\"4525\",\"39\",\"1\",\"Training\",\"Stims/Figures/93-C-30-1.bmp\",\"vashava\",\"Right\",\"39\",\"9\",\"1\",\"3B\",\"C1\",\"J\",\"129\"
\"\",\"\",\"approach-retreat\",\"133\",\"1019663\",\"0.0-133.0\",\"\",\"\",\"3-5\",\"4029\",\"39\",\"1\",\"Training\",\"Stims/Figures/71-J-0-1.bmp\",\"sasaha\",\"Left\",\"39\",\"9\",\"2\",\"3B\",\"C2\",\"J\",\"130\"
\"\",\"\",\"approach-retreat\",\"134\",\"1025136\",\"0.0-134.0\",\"\",\"\",\"3-5\",\"3968\",\"37\",\"1\",\"Training\",\"Stims/Figures/128-J-10-3.bmp\",\"sasaha\",\"Right\",\"37\",\"9\",\"3\",\"3B\",\"C2\",\"J\",\"131\"
\"\",\"\",\"approach-retreat\",\"135\",\"1030796\",\"0.0-135.0\",\"\",\"\",\"3-5\",\"4156\",\"38\",\"1\",\"Training\",\"Stims/Figures/93-J-0-1.bmp\",\"sasaha\",\"Down\",\"38\",\"9\",\"4\",\"3B\",\"C2\",\"J\",\"132\"
\"\",\"\",\"approach-retreat\",\"136\",\"1036453\",\"0.0-136.0\",\"\",\"\",\"3-5\",\"4154\",\"37\",\"1\",\"Training\",\"Stims/Figures/128-C-30-3.bmp\",\"vashava\",\"Left\",\"37\",\"9\",\"5\",\"3B\",\"C1\",\"J\",\"133\"
\"\",\"\",\"approach-retreat\",\"137\",\"1042043\",\"0.0-137.0\",\"\",\"\",\"3-5\",\"4086\",\"40\",\"1\",\"Training\",\"Stims/Figures/44-J-10-3.bmp\",\"sasaha\",\"Up\",\"40\",\"9\",\"6\",\"3B\",\"C2\",\"J\",\"134\"
\"\",\"\",\"approach-retreat\",\"138\",\"1047576\",\"0.0-138.0\",\"\",\"\",\"3-5\",\"4029\",\"40\",\"1\",\"Training\",\"Stims/Figures/87-J-10-4.bmp\",\"sasaha\",\"Up\",\"40\",\"9\",\"7\",\"3B\",\"C2\",\"J\",\"135\"
\"\",\"\",\"approach-retreat\",\"139\",\"1053244\",\"0.0-139.0\",\"\",\"\",\"3-5\",\"4162\",\"39\",\"1\",\"Training\",\"Stims/Figures/44-C-30-3.bmp\",\"vashava\",\"Right\",\"39\",\"9\",\"8\",\"3B\",\"C1\",\"J\",\"136\"
\"\",\"\",\"approach-retreat\",\"140\",\"1058744\",\"0.0-140.0\",\"\",\"\",\"3-5\",\"3994\",\"38\",\"1\",\"Training\",\"Stims/Figures/87-C-20-4.bmp\",\"vashava\",\"Up\",\"38\",\"9\",\"9\",\"3B\",\"C1\",\"J\",\"137\"
\"\",\"\",\"approach-retreat\",\"141\",\"1064221\",\"0.0-141.0\",\"\",\"\",\"3-5\",\"3975\",\"38\",\"1\",\"Training\",\"Stims/Figures/85-J-0-2.bmp\",\"sasaha\",\"Down\",\"38\",\"9\",\"10\",\"3B\",\"C2\",\"J\",\"138\"
\"\",\"\",\"approach-retreat\",\"142\",\"1069752\",\"0.0-142.0\",\"\",\"\",\"3-5\",\"4028\",\"38\",\"1\",\"Training\",\"Stims/Figures/118-J-0-2.bmp\",\"sasaha\",\"Down\",\"38\",\"9\",\"11\",\"3B\",\"C2\",\"J\",\"139\"
\"\",\"\",\"approach-retreat\",\"143\",\"1075345\",\"0.0-143.0\",\"\",\"\",\"3-5\",\"4090\",\"39\",\"1\",\"Training\",\"Stims/Figures/118-C-20-2.bmp\",\"vashava\",\"Right\",\"39\",\"9\",\"12\",\"3B\",\"C1\",\"J\",\"140\"
\"\",\"\",\"approach-retreat\",\"144\",\"1080897\",\"0.0-144.0\",\"\",\"\",\"3-5\",\"4049\",\"37\",\"1\",\"Training\",\"Stims/Figures/71-C-30-1.bmp\",\"vashava\",\"Left\",\"37\",\"9\",\"13\",\"3B\",\"C1\",\"J\",\"141\"
\"\",\"\",\"approach-retreat\",\"145\",\"1086339\",\"0.0-145.0\",\"\",\"\",\"3-5\",\"3937\",\"37\",\"1\",\"Training\",\"Stims/Figures/74-C-20-4.bmp\",\"vashava\",\"Left\",\"37\",\"9\",\"14\",\"3B\",\"C1\",\"J\",\"142\"
\"\",\"\",\"approach-retreat\",\"146\",\"1091808\",\"0.0-146.0\",\"\",\"\",\"3-5\",\"3965\",\"38\",\"1\",\"Training\",\"Stims/Figures/74-J-10-4.bmp\",\"sasaha\",\"Down\",\"38\",\"9\",\"15\",\"3B\",\"C2\",\"J\",\"143\"
\"\",\"\",\"approach-retreat\",\"147\",\"1097498\",\"0.0-147.0\",\"\",\"\",\"3-5\",\"4183\",\"40\",\"0\",\"Training\",\"Stims/Figures/85-C-20-2.bmp\",\"vashava\",\"Up\",\"38\",\"9\",\"16\",\"3B\",\"C1\",\"J\",\"144\"
\"13548\",\"\",\"instructions\",\"148\",\"1111047\",\"0.0-148.0\",\"[{\"\"page_index\"\":0,\"\"viewing_time\"\":13548}]\",\"\",\"\",\"\",\"\",\"\",\"\",\"\",\"\",\"\",\"\",\"\",\"\",\"\",\"\",\"\",\"\"
\"\",\"\",\"approach-retreat\",\"149\",\"1117277\",\"0.0-149.0\",\"\",\"\",\"3-5\",\"4717\",\"39\",\"1\",\"Testing\",\"Stims/Figures/94-C-20-2.bmp\",\"vashava\",\"Right\",\"39\",\"1\",\"1\",\"3B\",\"C1\",\"J\",\"1\"
\"\",\"\",\"approach-retreat\",\"150\",\"1124307\",\"0.0-150.0\",\"\",\"\",\"3-5\",\"5517\",\"40\",\"1\",\"Testing\",\"Stims/Figures/85-C-20-2.bmp\",\"vashava\",\"Down\",\"40\",\"1\",\"2\",\"3B\",\"C1\",\"J\",\"2\"
\"\",\"\",\"approach-retreat\",\"151\",\"1130666\",\"0.0-151.0\",\"\",\"\",\"3-5\",\"4852\",\"38\",\"1\",\"Testing\",\"Stims/Figures/7-J-10-4.bmp\",\"sasaha\",\"Down\",\"38\",\"1\",\"3\",\"3B\",\"C2\",\"J\",\"3\"
\"\",\"\",\"approach-retreat\",\"152\",\"1136486\",\"0.0-152.0\",\"\",\"\",\"3-5\",\"4311\",\"37\",\"1\",\"Testing\",\"Stims/Figures/118-C-20-2.bmp\",\"vashava\",\"Left\",\"37\",\"1\",\"4\",\"3B\",\"C1\",\"J\",\"4\"
\"\",\"\",\"approach-retreat\",\"153\",\"1142107\",\"0.0-153.0\",\"\",\"\",\"3-5\",\"4116\",\"39\",\"1\",\"Testing\",\"Stims/Figures/144-C-30-3.bmp\",\"vashava\",\"Right\",\"39\",\"1\",\"5\",\"3B\",\"C1\",\"J\",\"5\"
\"\",\"\",\"approach-retreat\",\"154\",\"1147767\",\"0.0-154.0\",\"\",\"\",\"3-5\",\"4147\",\"38\",\"1\",\"Testing\",\"Stims/Figures/44-J-10-3.bmp\",\"sasaha\",\"Down\",\"38\",\"1\",\"6\",\"3B\",\"C2\",\"J\",\"6\"
\"\",\"\",\"approach-retreat\",\"155\",\"1153287\",\"0.0-155.0\",\"\",\"\",\"3-5\",\"4013\",\"40\",\"1\",\"Testing\",\"Stims/Figures/7-C-20-4.bmp\",\"vashava\",\"Down\",\"40\",\"1\",\"7\",\"3B\",\"C1\",\"J\",\"7\"
\"\",\"\",\"approach-retreat\",\"156\",\"1158926\",\"0.0-156.0\",\"\",\"\",\"3-5\",\"4127\",\"40\",\"1\",\"Testing\",\"Stims/Figures/144-J-10-3.bmp\",\"sasaha\",\"Up\",\"40\",\"1\",\"8\",\"3B\",\"C2\",\"J\",\"8\"
\"\",\"\",\"approach-retreat\",\"157\",\"1164536\",\"0.0-157.0\",\"\",\"\",\"3-5\",\"4104\",\"38\",\"1\",\"Testing\",\"Stims/Figures/44-C-30-3.bmp\",\"vashava\",\"Up\",\"38\",\"1\",\"9\",\"3B\",\"C1\",\"J\",\"9\"
\"\",\"\",\"approach-retreat\",\"158\",\"1170216\",\"0.0-158.0\",\"\",\"\",\"3-5\",\"4167\",\"40\",\"1\",\"Testing\",\"Stims/Figures/71-C-30-1.bmp\",\"vashava\",\"Down\",\"40\",\"1\",\"10\",\"3B\",\"C1\",\"J\",\"10\"
\"\",\"\",\"approach-retreat\",\"159\",\"1176566\",\"0.0-159.0\",\"\",\"\",\"3-5\",\"4838\",\"39\",\"1\",\"Testing\",\"Stims/Figures/118-J-0-2.bmp\",\"sasaha\",\"Left\",\"39\",\"1\",\"11\",\"3B\",\"C2\",\"J\",\"11\"
\"\",\"\",\"approach-retreat\",\"160\",\"1182706\",\"0.0-160.0\",\"\",\"\",\"3-5\",\"4625\",\"39\",\"1\",\"Testing\",\"Stims/Figures/128-J-10-3.bmp\",\"sasaha\",\"Left\",\"39\",\"1\",\"12\",\"3B\",\"C2\",\"J\",\"12\"
\"\",\"\",\"approach-retreat\",\"161\",\"1188405\",\"0.0-161.0\",\"\",\"\",\"3-5\",\"4186\",\"39\",\"1\",\"Testing\",\"Stims/Figures/87-J-10-4.bmp\",\"sasaha\",\"Left\",\"39\",\"1\",\"13\",\"3B\",\"C2\",\"J\",\"13\"
\"\",\"\",\"approach-retreat\",\"162\",\"1194035\",\"0.0-162.0\",\"\",\"\",\"3-5\",\"4124\",\"40\",\"1\",\"Testing\",\"Stims/Figures/93-J-0-1.bmp\",\"sasaha\",\"Up\",\"40\",\"1\",\"14\",\"3B\",\"C2\",\"J\",\"14\"
\"\",\"\",\"approach-retreat\",\"163\",\"1199605\",\"0.0-163.0\",\"\",\"\",\"3-5\",\"4064\",\"37\",\"1\",\"Testing\",\"Stims/Figures/128-C-30-3.bmp\",\"vashava\",\"Left\",\"37\",\"1\",\"15\",\"3B\",\"C1\",\"J\",\"15\"
\"\",\"\",\"approach-retreat\",\"164\",\"1205225\",\"0.0-164.0\",\"\",\"\",\"3-5\",\"4111\",\"38\",\"1\",\"Testing\",\"Stims/Figures/57-J-0-1.bmp\",\"sasaha\",\"Down\",\"38\",\"1\",\"16\",\"3B\",\"C2\",\"J\",\"16\"
\"\",\"\",\"approach-retreat\",\"165\",\"1211035\",\"0.0-165.0\",\"\",\"\",\"3-5\",\"4306\",\"39\",\"1\",\"Testing\",\"Stims/Figures/94-J-0-2.bmp\",\"sasaha\",\"Left\",\"39\",\"1\",\"17\",\"3B\",\"C2\",\"J\",\"17\"
\"\",\"\",\"approach-retreat\",\"166\",\"1216695\",\"0.0-166.0\",\"\",\"\",\"3-5\",\"4150\",\"38\",\"1\",\"Testing\",\"Stims/Figures/57-C-30-1.bmp\",\"vashava\",\"Up\",\"38\",\"1\",\"18\",\"3B\",\"C1\",\"J\",\"18\"
\"\",\"\",\"approach-retreat\",\"167\",\"1222234\",\"0.0-167.0\",\"\",\"\",\"3-5\",\"4029\",\"37\",\"1\",\"Testing\",\"Stims/Figures/85-J-0-2.bmp\",\"sasaha\",\"Right\",\"37\",\"1\",\"19\",\"3B\",\"C2\",\"J\",\"19\"
\"\",\"\",\"approach-retreat\",\"168\",\"1228626\",\"0.0-168.0\",\"\",\"\",\"3-5\",\"4877\",\"38\",\"1\",\"Testing\",\"Stims/Figures/87-C-20-4.bmp\",\"vashava\",\"Up\",\"38\",\"1\",\"20\",\"3B\",\"C1\",\"J\",\"20\"
\"\",\"\",\"approach-retreat\",\"169\",\"1234204\",\"0.0-169.0\",\"\",\"\",\"3-5\",\"4073\",\"39\",\"1\",\"Testing\",\"Stims/Figures/93-C-30-1.bmp\",\"vashava\",\"Right\",\"39\",\"1\",\"21\",\"3B\",\"C1\",\"J\",\"21\"
\"\",\"\",\"approach-retreat\",\"170\",\"1240144\",\"0.0-170.0\",\"\",\"\",\"3-5\",\"4430\",\"37\",\"0\",\"Testing\",\"Stims/Figures/74-C-20-4.bmp\",\"vashava\",\"Right\",\"39\",\"1\",\"22\",\"3B\",\"C1\",\"J\",\"22\"
\"\",\"\",\"approach-retreat\",\"171\",\"1245884\",\"0.0-171.0\",\"\",\"\",\"3-5\",\"4237\",\"37\",\"1\",\"Testing\",\"Stims/Figures/74-J-10-4.bmp\",\"sasaha\",\"Right\",\"37\",\"1\",\"23\",\"3B\",\"C2\",\"J\",\"23\"
\"\",\"\",\"approach-retreat\",\"172\",\"1251413\",\"0.0-172.0\",\"\",\"\",\"3-5\",\"4023\",\"40\",\"1\",\"Testing\",\"Stims/Figures/71-J-0-1.bmp\",\"sasaha\",\"Up\",\"40\",\"1\",\"24\",\"3B\",\"C2\",\"J\",\"24\"
\"\",\"\",\"approach-retreat\",\"173\",\"1257244\",\"0.0-173.0\",\"\",\"\",\"3-5\",\"4318\",\"37\",\"1\",\"Testing\",\"Stims/Figures/144-J-10-3.bmp\",\"sasaha\",\"Right\",\"37\",\"2\",\"1\",\"3B\",\"C2\",\"J\",\"25\"
\"\",\"\",\"approach-retreat\",\"174\",\"1263103\",\"0.0-174.0\",\"\",\"\",\"3-5\",\"4353\",\"37\",\"1\",\"Testing\",\"Stims/Figures/87-C-20-4.bmp\",\"vashava\",\"Left\",\"37\",\"2\",\"2\",\"3B\",\"C1\",\"J\",\"26\"
\"\",\"\",\"approach-retreat\",\"175\",\"1268634\",\"0.0-175.0\",\"\",\"\",\"3-5\",\"4024\",\"39\",\"1\",\"Testing\",\"Stims/Figures/94-J-0-2.bmp\",\"sasaha\",\"Left\",\"39\",\"2\",\"3\",\"3B\",\"C2\",\"J\",\"27\"
\"\",\"\",\"approach-retreat\",\"176\",\"1274333\",\"0.0-176.0\",\"\",\"\",\"3-5\",\"4187\",\"39\",\"1\",\"Testing\",\"Stims/Figures/57-C-30-1.bmp\",\"vashava\",\"Right\",\"39\",\"2\",\"4\",\"3B\",\"C1\",\"J\",\"28\"
\"\",\"\",\"approach-retreat\",\"177\",\"1279982\",\"0.0-177.0\",\"\",\"\",\"3-5\",\"4139\",\"38\",\"1\",\"Testing\",\"Stims/Figures/93-J-0-1.bmp\",\"sasaha\",\"Down\",\"38\",\"2\",\"5\",\"3B\",\"C2\",\"J\",\"29\"
\"\",\"\",\"approach-retreat\",\"178\",\"1286535\",\"0.0-178.0\",\"\",\"\",\"3-5\",\"5048\",\"39\",\"1\",\"Testing\",\"Stims/Figures/93-C-30-1.bmp\",\"vashava\",\"Right\",\"39\",\"2\",\"6\",\"3B\",\"C1\",\"J\",\"30\"
\"\",\"\",\"approach-retreat\",\"179\",\"1292843\",\"0.0-179.0\",\"\",\"\",\"3-5\",\"4804\",\"38\",\"1\",\"Testing\",\"Stims/Figures/7-J-10-4.bmp\",\"sasaha\",\"Down\",\"38\",\"2\",\"7\",\"3B\",\"C2\",\"J\",\"31\"
\"\",\"\",\"approach-retreat\",\"180\",\"1298542\",\"0.0-180.0\",\"\",\"\",\"3-5\",\"4194\",\"39\",\"1\",\"Testing\",\"Stims/Figures/71-C-30-1.bmp\",\"vashava\",\"Right\",\"39\",\"2\",\"8\",\"3B\",\"C1\",\"J\",\"32\"
\"\",\"\",\"approach-retreat\",\"181\",\"1304192\",\"0.0-181.0\",\"\",\"\",\"3-5\",\"4140\",\"40\",\"1\",\"Testing\",\"Stims/Figures/118-J-0-2.bmp\",\"sasaha\",\"Up\",\"40\",\"2\",\"9\",\"3B\",\"C2\",\"J\",\"33\"
\"\",\"\",\"approach-retreat\",\"182\",\"1309702\",\"0.0-182.0\",\"\",\"\",\"3-5\",\"4000\",\"39\",\"1\",\"Testing\",\"Stims/Figures/74-J-10-4.bmp\",\"sasaha\",\"Left\",\"39\",\"2\",\"10\",\"3B\",\"C2\",\"J\",\"34\"
\"\",\"\",\"approach-retreat\",\"183\",\"1315862\",\"0.0-183.0\",\"\",\"\",\"3-5\",\"4649\",\"37\",\"1\",\"Testing\",\"Stims/Figures/144-C-30-3.bmp\",\"vashava\",\"Left\",\"37\",\"2\",\"11\",\"3B\",\"C1\",\"J\",\"35\"
\"\",\"\",\"approach-retreat\",\"184\",\"1321392\",\"0.0-184.0\",\"\",\"\",\"3-5\",\"4022\",\"38\",\"1\",\"Testing\",\"Stims/Figures/85-J-0-2.bmp\",\"sasaha\",\"Down\",\"38\",\"2\",\"12\",\"3B\",\"C2\",\"J\",\"36\"
\"\",\"\",\"approach-retreat\",\"185\",\"1327082\",\"0.0-185.0\",\"\",\"\",\"3-5\",\"4179\",\"39\",\"1\",\"Testing\",\"Stims/Figures/71-J-0-1.bmp\",\"sasaha\",\"Left\",\"39\",\"2\",\"13\",\"3B\",\"C2\",\"J\",\"37\"
\"\",\"\",\"approach-retreat\",\"186\",\"1334251\",\"0.0-186.0\",\"\",\"\",\"3-5\",\"5665\",\"40\",\"0\",\"Testing\",\"Stims/Figures/94-C-20-2.bmp\",\"vashava\",\"Up\",\"38\",\"2\",\"14\",\"3B\",\"C1\",\"J\",\"38\"
\"\",\"\",\"approach-retreat\",\"187\",\"1339771\",\"0.0-187.0\",\"\",\"\",\"3-5\",\"4011\",\"38\",\"1\",\"Testing\",\"Stims/Figures/57-J-0-1.bmp\",\"sasaha\",\"Down\",\"38\",\"2\",\"15\",\"3B\",\"C2\",\"J\",\"39\"
\"\",\"\",\"approach-retreat\",\"188\",\"1345251\",\"0.0-188.0\",\"\",\"\",\"3-5\",\"3968\",\"38\",\"1\",\"Testing\",\"Stims/Figures/128-J-10-3.bmp\",\"sasaha\",\"Down\",\"38\",\"2\",\"16\",\"3B\",\"C2\",\"J\",\"40\"
\"\",\"\",\"approach-retreat\",\"189\",\"1351201\",\"0.0-189.0\",\"\",\"\",\"3-5\",\"4446\",\"38\",\"1\",\"Testing\",\"Stims/Figures/44-C-30-3.bmp\",\"vashava\",\"Up\",\"38\",\"2\",\"17\",\"3B\",\"C1\",\"J\",\"41\"
\"\",\"\",\"approach-retreat\",\"190\",\"1357081\",\"0.0-190.0\",\"\",\"\",\"3-5\",\"4373\",\"39\",\"1\",\"Testing\",\"Stims/Figures/44-J-10-3.bmp\",\"sasaha\",\"Left\",\"39\",\"2\",\"18\",\"3B\",\"C2\",\"J\",\"42\"
\"\",\"\",\"approach-retreat\",\"191\",\"1362650\",\"0.0-191.0\",\"\",\"\",\"3-5\",\"4065\",\"38\",\"1\",\"Testing\",\"Stims/Figures/128-C-30-3.bmp\",\"vashava\",\"Up\",\"38\",\"2\",\"19\",\"3B\",\"C1\",\"J\",\"43\"
\"\",\"\",\"approach-retreat\",\"192\",\"1371110\",\"0.0-192.0\",\"\",\"\",\"3-5\",\"6953\",\"39\",\"1\",\"Testing\",\"Stims/Figures/118-C-20-2.bmp\",\"vashava\",\"Right\",\"39\",\"2\",\"20\",\"3B\",\"C1\",\"J\",\"44\"
\"\",\"\",\"approach-retreat\",\"193\",\"1376630\",\"0.0-193.0\",\"\",\"\",\"3-5\",\"4016\",\"37\",\"1\",\"Testing\",\"Stims/Figures/87-J-10-4.bmp\",\"sasaha\",\"Right\",\"37\",\"2\",\"21\",\"3B\",\"C2\",\"J\",\"45\"
\"\",\"\",\"approach-retreat\",\"194\",\"1383770\",\"0.0-194.0\",\"\",\"\",\"3-5\",\"5631\",\"40\",\"1\",\"Testing\",\"Stims/Figures/85-C-20-2.bmp\",\"vashava\",\"Down\",\"40\",\"2\",\"22\",\"3B\",\"C1\",\"J\",\"46\"
\"\",\"\",\"approach-retreat\",\"195\",\"1390260\",\"0.0-195.0\",\"\",\"\",\"3-5\",\"4981\",\"38\",\"1\",\"Testing\",\"Stims/Figures/7-C-20-4.bmp\",\"vashava\",\"Up\",\"38\",\"2\",\"23\",\"3B\",\"C1\",\"J\",\"47\"
\"\",\"\",\"approach-retreat\",\"196\",\"1397229\",\"0.0-196.0\",\"\",\"\",\"3-5\",\"5460\",\"40\",\"0\",\"Testing\",\"Stims/Figures/74-C-20-4.bmp\",\"vashava\",\"Up\",\"38\",\"2\",\"24\",\"3B\",\"C1\",\"J\",\"48\"
\"\",\"\",\"approach-retreat\",\"197\",\"1403770\",\"0.0-197.0\",\"\",\"\",\"3-5\",\"5035\",\"40\",\"0\",\"Testing\",\"Stims/Figures/74-C-20-4.bmp\",\"vashava\",\"Up\",\"38\",\"3\",\"1\",\"3B\",\"C1\",\"J\",\"49\"
\"\",\"\",\"approach-retreat\",\"198\",\"1409939\",\"0.0-198.0\",\"\",\"\",\"3-5\",\"4664\",\"38\",\"1\",\"Testing\",\"Stims/Figures/94-C-20-2.bmp\",\"vashava\",\"Up\",\"38\",\"3\",\"2\",\"3B\",\"C1\",\"J\",\"50\"
\"\",\"\",\"approach-retreat\",\"199\",\"1415699\",\"0.0-199.0\",\"\",\"\",\"3-5\",\"4256\",\"38\",\"1\",\"Testing\",\"Stims/Figures/57-J-0-1.bmp\",\"sasaha\",\"Down\",\"38\",\"3\",\"3\",\"3B\",\"C2\",\"J\",\"51\"
\"\",\"\",\"approach-retreat\",\"200\",\"1423759\",\"0.0-200.0\",\"\",\"\",\"3-5\",\"6551\",\"37\",\"0\",\"Testing\",\"Stims/Figures/85-C-20-2.bmp\",\"vashava\",\"Right\",\"39\",\"3\",\"4\",\"3B\",\"C1\",\"J\",\"52\"
\"\",\"\",\"approach-retreat\",\"201\",\"1429648\",\"0.0-201.0\",\"\",\"\",\"3-5\",\"4380\",\"37\",\"1\",\"Testing\",\"Stims/Figures/118-C-20-2.bmp\",\"vashava\",\"Left\",\"37\",\"3\",\"5\",\"3B\",\"C1\",\"J\",\"53\"
\"\",\"\",\"approach-retreat\",\"202\",\"1435289\",\"0.0-202.0\",\"\",\"\",\"3-5\",\"4129\",\"40\",\"1\",\"Testing\",\"Stims/Figures/7-C-20-4.bmp\",\"vashava\",\"Down\",\"40\",\"3\",\"6\",\"3B\",\"C1\",\"J\",\"54\"
\"\",\"\",\"approach-retreat\",\"203\",\"1440938\",\"0.0-203.0\",\"\",\"\",\"3-5\",\"4141\",\"39\",\"1\",\"Testing\",\"Stims/Figures/93-J-0-1.bmp\",\"sasaha\",\"Left\",\"39\",\"3\",\"7\",\"3B\",\"C2\",\"J\",\"55\"
\"\",\"\",\"approach-retreat\",\"204\",\"1446538\",\"0.0-204.0\",\"\",\"\",\"3-5\",\"4095\",\"38\",\"1\",\"Testing\",\"Stims/Figures/94-J-0-2.bmp\",\"sasaha\",\"Down\",\"38\",\"3\",\"8\",\"3B\",\"C2\",\"J\",\"56\"
\"\",\"\",\"approach-retreat\",\"205\",\"1452281\",\"0.0-205.0\",\"\",\"\",\"3-5\",\"4235\",\"39\",\"1\",\"Testing\",\"Stims/Figures/144-C-30-3.bmp\",\"vashava\",\"Right\",\"39\",\"3\",\"9\",\"3B\",\"C1\",\"J\",\"57\"
\"\",\"\",\"approach-retreat\",\"206\",\"1457917\",\"0.0-206.0\",\"\",\"\",\"3-5\",\"4133\",\"38\",\"1\",\"Testing\",\"Stims/Figures/87-C-20-4.bmp\",\"vashava\",\"Up\",\"38\",\"3\",\"10\",\"3B\",\"C1\",\"J\",\"58\"
\"\",\"\",\"approach-retreat\",\"207\",\"1463488\",\"0.0-207.0\",\"\",\"\",\"3-5\",\"4063\",\"38\",\"1\",\"Testing\",\"Stims/Figures/71-C-30-1.bmp\",\"vashava\",\"Up\",\"38\",\"3\",\"11\",\"3B\",\"C1\",\"J\",\"59\"
\"\",\"\",\"approach-retreat\",\"208\",\"1469048\",\"0.0-208.0\",\"\",\"\",\"3-5\",\"4049\",\"38\",\"1\",\"Testing\",\"Stims/Figures/74-J-10-4.bmp\",\"sasaha\",\"Down\",\"38\",\"3\",\"12\",\"3B\",\"C2\",\"J\",\"60\"
\"\",\"\",\"approach-retreat\",\"209\",\"1474868\",\"0.0-209.0\",\"\",\"\",\"3-5\",\"4314\",\"39\",\"1\",\"Testing\",\"Stims/Figures/93-C-30-1.bmp\",\"vashava\",\"Right\",\"39\",\"3\",\"13\",\"3B\",\"C1\",\"J\",\"61\"
\"\",\"\",\"approach-retreat\",\"210\",\"1480827\",\"0.0-210.0\",\"\",\"\",\"3-5\",\"4451\",\"40\",\"1\",\"Testing\",\"Stims/Figures/7-J-10-4.bmp\",\"sasaha\",\"Up\",\"40\",\"3\",\"14\",\"3B\",\"C2\",\"J\",\"62\"
\"\",\"\",\"approach-retreat\",\"211\",\"1486469\",\"0.0-211.0\",\"\",\"\",\"3-5\",\"4133\",\"40\",\"1\",\"Testing\",\"Stims/Figures/57-C-30-1.bmp\",\"vashava\",\"Down\",\"40\",\"3\",\"15\",\"3B\",\"C1\",\"J\",\"63\"
\"\",\"\",\"approach-retreat\",\"212\",\"1492487\",\"0.0-212.0\",\"\",\"\",\"3-5\",\"4507\",\"39\",\"1\",\"Testing\",\"Stims/Figures/144-J-10-3.bmp\",\"sasaha\",\"Left\",\"39\",\"3\",\"16\",\"3B\",\"C2\",\"J\",\"64\"
\"\",\"\",\"approach-retreat\",\"213\",\"1497957\",\"0.0-213.0\",\"\",\"\",\"3-5\",\"3960\",\"37\",\"1\",\"Testing\",\"Stims/Figures/128-C-30-3.bmp\",\"vashava\",\"Left\",\"37\",\"3\",\"17\",\"3B\",\"C1\",\"J\",\"65\"
\"\",\"\",\"approach-retreat\",\"214\",\"1503517\",\"0.0-214.0\",\"\",\"\",\"3-5\",\"4050\",\"37\",\"1\",\"Testing\",\"Stims/Figures/87-J-10-4.bmp\",\"sasaha\",\"Right\",\"37\",\"3\",\"18\",\"3B\",\"C2\",\"J\",\"66\"
\"\",\"\",\"approach-retreat\",\"215\",\"1509066\",\"0.0-215.0\",\"\",\"\",\"3-5\",\"4047\",\"39\",\"1\",\"Testing\",\"Stims/Figures/85-J-0-2.bmp\",\"sasaha\",\"Left\",\"39\",\"3\",\"19\",\"3B\",\"C2\",\"J\",\"67\"
\"\",\"\",\"approach-retreat\",\"216\",\"1515306\",\"0.0-216.0\",\"\",\"\",\"3-5\",\"4730\",\"39\",\"1\",\"Testing\",\"Stims/Figures/44-J-10-3.bmp\",\"sasaha\",\"Left\",\"39\",\"3\",\"20\",\"3B\",\"C2\",\"J\",\"68\"
\"\",\"\",\"approach-retreat\",\"217\",\"1520936\",\"0.0-217.0\",\"\",\"\",\"3-5\",\"4126\",\"40\",\"1\",\"Testing\",\"Stims/Figures/71-J-0-1.bmp\",\"sasaha\",\"Up\",\"40\",\"3\",\"21\",\"3B\",\"C2\",\"J\",\"69\"
\"\",\"\",\"approach-retreat\",\"218\",\"1526406\",\"0.0-218.0\",\"\",\"\",\"3-5\",\"3963\",\"37\",\"1\",\"Testing\",\"Stims/Figures/118-J-0-2.bmp\",\"sasaha\",\"Right\",\"37\",\"3\",\"22\",\"3B\",\"C2\",\"J\",\"70\"
\"\",\"\",\"approach-retreat\",\"219\",\"1532126\",\"0.0-219.0\",\"\",\"\",\"3-5\",\"4206\",\"38\",\"1\",\"Testing\",\"Stims/Figures/128-J-10-3.bmp\",\"sasaha\",\"Down\",\"38\",\"3\",\"23\",\"3B\",\"C2\",\"J\",\"71\"
\"\",\"\",\"approach-retreat\",\"220\",\"1537635\",\"0.0-220.0\",\"\",\"\",\"3-5\",\"3998\",\"39\",\"1\",\"Testing\",\"Stims/Figures/44-C-30-3.bmp\",\"vashava\",\"Right\",\"39\",\"3\",\"24\",\"3B\",\"C1\",\"J\",\"72\"
\"\",\"\",\"approach-retreat\",\"221\",\"1543126\",\"0.0-221.0\",\"\",\"\",\"3-5\",\"3980\",\"40\",\"1\",\"Testing\",\"Stims/Figures/93-C-30-1.bmp\",\"vashava\",\"Down\",\"40\",\"4\",\"1\",\"3B\",\"C1\",\"J\",\"73\"
\"\",\"\",\"approach-retreat\",\"222\",\"1548758\",\"0.0-222.0\",\"\",\"\",\"3-5\",\"4123\",\"40\",\"1\",\"Testing\",\"Stims/Figures/71-J-0-1.bmp\",\"sasaha\",\"Up\",\"40\",\"4\",\"2\",\"3B\",\"C2\",\"J\",\"74\"
\"\",\"\",\"approach-retreat\",\"223\",\"1554515\",\"0.0-223.0\",\"\",\"\",\"3-5\",\"4245\",\"39\",\"1\",\"Testing\",\"Stims/Figures/44-C-30-3.bmp\",\"vashava\",\"Right\",\"39\",\"4\",\"3\",\"3B\",\"C1\",\"J\",\"75\"
\"\",\"\",\"approach-retreat\",\"224\",\"1560065\",\"0.0-224.0\",\"\",\"\",\"3-5\",\"4046\",\"39\",\"1\",\"Testing\",\"Stims/Figures/71-C-30-1.bmp\",\"vashava\",\"Right\",\"39\",\"4\",\"4\",\"3B\",\"C1\",\"J\",\"76\"
\"\",\"\",\"approach-retreat\",\"225\",\"1565544\",\"0.0-225.0\",\"\",\"\",\"3-5\",\"3968\",\"39\",\"1\",\"Testing\",\"Stims/Figures/118-J-0-2.bmp\",\"sasaha\",\"Left\",\"39\",\"4\",\"5\",\"3B\",\"C2\",\"J\",\"77\"
\"\",\"\",\"approach-retreat\",\"226\",\"1572135\",\"0.0-226.0\",\"\",\"\",\"3-5\",\"5083\",\"40\",\"1\",\"Testing\",\"Stims/Figures/74-C-20-4.bmp\",\"vashava\",\"Down\",\"40\",\"4\",\"6\",\"3B\",\"C1\",\"J\",\"78\"
\"\",\"\",\"approach-retreat\",\"227\",\"1577605\",\"0.0-227.0\",\"\",\"\",\"3-5\",\"3963\",\"39\",\"1\",\"Testing\",\"Stims/Figures/128-J-10-3.bmp\",\"sasaha\",\"Left\",\"39\",\"4\",\"7\",\"3B\",\"C2\",\"J\",\"79\"
\"\",\"\",\"approach-retreat\",\"228\",\"1583844\",\"0.0-228.0\",\"\",\"\",\"3-5\",\"4730\",\"37\",\"1\",\"Testing\",\"Stims/Figures/87-C-20-4.bmp\",\"vashava\",\"Left\",\"37\",\"4\",\"8\",\"3B\",\"C1\",\"J\",\"80\"
\"\",\"\",\"approach-retreat\",\"229\",\"1589304\",\"0.0-229.0\",\"\",\"\",\"3-5\",\"3954\",\"37\",\"1\",\"Testing\",\"Stims/Figures/128-C-30-3.bmp\",\"vashava\",\"Left\",\"37\",\"4\",\"9\",\"3B\",\"C1\",\"J\",\"81\"
\"\",\"\",\"approach-retreat\",\"230\",\"1594924\",\"0.0-230.0\",\"\",\"\",\"3-5\",\"4108\",\"40\",\"1\",\"Testing\",\"Stims/Figures/57-J-0-1.bmp\",\"sasaha\",\"Up\",\"40\",\"4\",\"10\",\"3B\",\"C2\",\"J\",\"82\"
\"\",\"\",\"approach-retreat\",\"231\",\"1600474\",\"0.0-231.0\",\"\",\"\",\"3-5\",\"4039\",\"38\",\"1\",\"Testing\",\"Stims/Figures/74-J-10-4.bmp\",\"sasaha\",\"Down\",\"38\",\"4\",\"11\",\"3B\",\"C2\",\"J\",\"83\"
\"\",\"\",\"approach-retreat\",\"232\",\"1606349\",\"0.0-232.0\",\"\",\"\",\"3-5\",\"4364\",\"37\",\"1\",\"Testing\",\"Stims/Figures/57-C-30-1.bmp\",\"vashava\",\"Left\",\"37\",\"4\",\"12\",\"3B\",\"C1\",\"J\",\"84\"
\"\",\"\",\"approach-retreat\",\"233\",\"1611803\",\"0.0-233.0\",\"\",\"\",\"3-5\",\"3951\",\"37\",\"1\",\"Testing\",\"Stims/Figures/7-J-10-4.bmp\",\"sasaha\",\"Right\",\"37\",\"4\",\"13\",\"3B\",\"C2\",\"J\",\"85\"
\"\",\"\",\"approach-retreat\",\"234\",\"1617303\",\"0.0-234.0\",\"\",\"\",\"3-5\",\"3994\",\"37\",\"1\",\"Testing\",\"Stims/Figures/144-J-10-3.bmp\",\"sasaha\",\"Right\",\"37\",\"4\",\"14\",\"3B\",\"C2\",\"J\",\"86\"
\"\",\"\",\"approach-retreat\",\"235\",\"1622953\",\"0.0-235.0\",\"\",\"\",\"3-5\",\"4145\",\"38\",\"1\",\"Testing\",\"Stims/Figures/87-J-10-4.bmp\",\"sasaha\",\"Down\",\"38\",\"4\",\"15\",\"3B\",\"C2\",\"J\",\"87\"
\"\",\"\",\"approach-retreat\",\"236\",\"1628573\",\"0.0-236.0\",\"\",\"\",\"3-5\",\"4115\",\"37\",\"1\",\"Testing\",\"Stims/Figures/94-J-0-2.bmp\",\"sasaha\",\"Right\",\"37\",\"4\",\"16\",\"3B\",\"C2\",\"J\",\"88\"
\"\",\"\",\"approach-retreat\",\"237\",\"1634478\",\"0.0-237.0\",\"\",\"\",\"3-5\",\"4400\",\"40\",\"1\",\"Testing\",\"Stims/Figures/94-C-20-2.bmp\",\"vashava\",\"Down\",\"40\",\"4\",\"17\",\"3B\",\"C1\",\"J\",\"89\"
\"\",\"\",\"approach-retreat\",\"238\",\"1640288\",\"0.0-238.0\",\"\",\"\",\"3-5\",\"4306\",\"38\",\"1\",\"Testing\",\"Stims/Figures/7-C-20-4.bmp\",\"vashava\",\"Up\",\"38\",\"4\",\"18\",\"3B\",\"C1\",\"J\",\"90\"
\"\",\"\",\"approach-retreat\",\"239\",\"1645957\",\"0.0-239.0\",\"\",\"\",\"3-5\",\"4158\",\"40\",\"1\",\"Testing\",\"Stims/Figures/85-J-0-2.bmp\",\"sasaha\",\"Up\",\"40\",\"4\",\"19\",\"3B\",\"C2\",\"J\",\"91\"
\"\",\"\",\"approach-retreat\",\"240\",\"1651437\",\"0.0-240.0\",\"\",\"\",\"3-5\",\"3968\",\"38\",\"1\",\"Testing\",\"Stims/Figures/93-J-0-1.bmp\",\"sasaha\",\"Down\",\"38\",\"4\",\"20\",\"3B\",\"C2\",\"J\",\"92\"
\"\",\"\",\"approach-retreat\",\"241\",\"1657008\",\"0.0-241.0\",\"\",\"\",\"3-5\",\"4061\",\"37\",\"1\",\"Testing\",\"Stims/Figures/85-C-20-2.bmp\",\"vashava\",\"Left\",\"37\",\"4\",\"21\",\"3B\",\"C1\",\"J\",\"93\"
\"\",\"\",\"approach-retreat\",\"242\",\"1664330\",\"0.0-242.0\",\"\",\"\",\"3-5\",\"5813\",\"38\",\"1\",\"Testing\",\"Stims/Figures/118-C-20-2.bmp\",\"vashava\",\"Up\",\"38\",\"4\",\"22\",\"3B\",\"C1\",\"J\",\"94\"
\"\",\"\",\"approach-retreat\",\"243\",\"1669969\",\"0.0-243.0\",\"\",\"\",\"3-5\",\"4134\",\"39\",\"1\",\"Testing\",\"Stims/Figures/144-C-30-3.bmp\",\"vashava\",\"Right\",\"39\",\"4\",\"23\",\"3B\",\"C1\",\"J\",\"95\"
\"\",\"\",\"approach-retreat\",\"244\",\"1676238\",\"0.0-244.0\",\"\",\"\",\"3-5\",\"4759\",\"40\",\"1\",\"Testing\",\"Stims/Figures/44-J-10-3.bmp\",\"sasaha\",\"Up\",\"40\",\"4\",\"24\",\"3B\",\"C2\",\"J\",\"96\"
\"17242\",\"\",\"survey-text\",\"245\",\"1693485\",\"0.0-245.0\",\"\",\"{\"\"Q0\"\":\"\"PS140086\"\"}\",\"\",\"\",\"\",\"\",\"\",\"\",\"\",\"\",\"\",\"\",\"\",\"\",\"\",\"\",\"\"
