\"rt\",\"key_press\",\"trial_type\",\"trial_index\",\"time_elapsed\",\"internal_node_id\",\"view_history\",\"responses\",\"Id\",\"Rt\",\"ResKeyCode\",\"ResCorr\",\"TrialType2\",\"Image\",\"Label\",\"Location\",\"CorrectResponse\",\"Block\",\"BlockTrial\",\"Condition\",\"LabelType\",\"Subcondition\",\"trialNum\"
\"28454\",\"32\",\"text\",\"0\",\"28462\",\"0.0-0.0-0.0\",\"\",\"\",\"\",\"\",\"\",\"\",\"\",\"\",\"\",\"\",\"\",\"\",\"\",\"\",\"\",\"\",\"\"
\"45010\",\"\",\"instructions\",\"1\",\"73477\",\"0.0-1.0\",\"[{\"\"page_index\"\":0,\"\"viewing_time\"\":45007}]\",\"\",\"\",\"\",\"\",\"\",\"\",\"\",\"\",\"\",\"\",\"\",\"\",\"\",\"\",\"\",\"\"
\"20667\",\"\",\"survey-multi-choice\",\"2\",\"94216\",\"0.0-2.0\",\"\",\"{\"\"Q0\"\":\"\"Da\"\",\"\"Q1\"\":\"\"Da\"\",\"\"Q2\"\":\"\"Da\"\",\"\"Q3\"\":\"\"Da\"\",\"\"Q4\"\":\"\"Da\"\",\"\"Q5\"\":\"\"Da\"\"}\",\"\",\"\",\"\",\"\",\"\",\"\",\"\",\"\",\"\",\"\",\"\",\"\",\"\",\"\",\"\"
\"\",\"\",\"bio\",\"3\",\"101256\",\"0.0-3.0\",\"\",\"{\"\"age\"\":\"\"19\"\",\"\"gender\"\":\"\"f\"\",\"\"specify\"\":\"\"\"\"}\",\"\",\"\",\"\",\"\",\"\",\"\",\"\",\"\",\"\",\"\",\"\",\"\",\"\",\"\",\"\"
\"\",\"\",\"approach-retreat\",\"4\",\"111729\",\"0.0-4.0\",\"\",\"\",\"2-2\",\"8958\",\"37\",\"0\",\"Training\",\"Stims/Figures/118-C-20-2.bmp\",\"na:la:na\",\"Left\",\"39\",\"1\",\"1\",\"1\",\"S\",\"C\",\"1\"
\"\",\"\",\"approach-retreat\",\"5\",\"118254\",\"0.0-5.0\",\"\",\"\",\"2-2\",\"5011\",\"40\",\"0\",\"Training\",\"Stims/Figures/118-J-0-2.bmp\",\"pakaka\",\"Up\",\"38\",\"1\",\"2\",\"1\",\"P\",\"C\",\"2\"
\"\",\"\",\"approach-retreat\",\"6\",\"126354\",\"0.0-6.0\",\"\",\"\",\"2-2\",\"6585\",\"39\",\"1\",\"Training\",\"Stims/Figures/94-J-0-2.bmp\",\"pakaka\",\"Right\",\"39\",\"1\",\"3\",\"1\",\"P\",\"C\",\"3\"
\"\",\"\",\"approach-retreat\",\"7\",\"133059\",\"0.0-7.0\",\"\",\"\",\"2-2\",\"5193\",\"37\",\"0\",\"Training\",\"Stims/Figures/93-C-30-1.bmp\",\"na:la:na\",\"Left\",\"39\",\"1\",\"4\",\"1\",\"S\",\"C\",\"4\"
\"\",\"\",\"approach-retreat\",\"8\",\"142102\",\"0.0-8.0\",\"\",\"\",\"2-2\",\"7529\",\"40\",\"1\",\"Training\",\"Stims/Figures/144-C-30-3.bmp\",\"na:la:na\",\"Up\",\"40\",\"1\",\"5\",\"1\",\"S\",\"C\",\"5\"
\"\",\"\",\"approach-retreat\",\"9\",\"147764\",\"0.0-9.0\",\"\",\"\",\"2-2\",\"4147\",\"40\",\"1\",\"Training\",\"Stims/Figures/19-C-20-4.bmp\",\"na:la:na\",\"Up\",\"40\",\"1\",\"6\",\"1\",\"S\",\"C\",\"6\"
\"\",\"\",\"approach-retreat\",\"10\",\"154015\",\"0.0-10.0\",\"\",\"\",\"2-2\",\"4725\",\"40\",\"0\",\"Training\",\"Stims/Figures/87-J-10-4.bmp\",\"pakaka\",\"Up\",\"38\",\"1\",\"7\",\"1\",\"P\",\"C\",\"7\"
\"\",\"\",\"approach-retreat\",\"11\",\"160120\",\"0.0-11.0\",\"\",\"\",\"2-2\",\"4592\",\"39\",\"1\",\"Training\",\"Stims/Figures/100-C-30-3.bmp\",\"na:la:na\",\"Left\",\"39\",\"1\",\"8\",\"1\",\"S\",\"C\",\"8\"
\"\",\"\",\"approach-retreat\",\"12\",\"167743\",\"0.0-12.0\",\"\",\"\",\"2-2\",\"6106\",\"39\",\"1\",\"Training\",\"Stims/Figures/93-J-0-1.bmp\",\"pakaka\",\"Right\",\"39\",\"1\",\"9\",\"1\",\"P\",\"C\",\"9\"
\"\",\"\",\"approach-retreat\",\"13\",\"173581\",\"0.0-13.0\",\"\",\"\",\"2-2\",\"4326\",\"39\",\"1\",\"Training\",\"Stims/Figures/86-C-30-1.bmp\",\"na:la:na\",\"Left\",\"39\",\"1\",\"10\",\"1\",\"S\",\"C\",\"10\"
\"\",\"\",\"approach-retreat\",\"14\",\"179646\",\"0.0-14.0\",\"\",\"\",\"2-2\",\"4553\",\"40\",\"1\",\"Training\",\"Stims/Figures/144-J-10-3.bmp\",\"pakaka\",\"Down\",\"40\",\"1\",\"11\",\"1\",\"P\",\"C\",\"11\"
\"\",\"\",\"approach-retreat\",\"15\",\"185819\",\"0.0-15.0\",\"\",\"\",\"2-2\",\"4661\",\"38\",\"1\",\"Training\",\"Stims/Figures/94-C-20-2.bmp\",\"na:la:na\",\"Down\",\"38\",\"1\",\"12\",\"1\",\"S\",\"C\",\"12\"
\"\",\"\",\"approach-retreat\",\"16\",\"191900\",\"0.0-16.0\",\"\",\"\",\"2-2\",\"4567\",\"40\",\"1\",\"Training\",\"Stims/Figures/19-J-10-4.bmp\",\"pakaka\",\"Down\",\"40\",\"1\",\"13\",\"1\",\"P\",\"C\",\"13\"
\"\",\"\",\"approach-retreat\",\"17\",\"197352\",\"0.0-17.0\",\"\",\"\",\"2-2\",\"3941\",\"40\",\"1\",\"Training\",\"Stims/Figures/86-J-0-1.bmp\",\"pakaka\",\"Down\",\"40\",\"1\",\"14\",\"1\",\"P\",\"C\",\"14\"
\"\",\"\",\"approach-retreat\",\"18\",\"203276\",\"0.0-18.0\",\"\",\"\",\"2-2\",\"4406\",\"39\",\"1\",\"Training\",\"Stims/Figures/100-J-10-3.bmp\",\"pakaka\",\"Right\",\"39\",\"1\",\"15\",\"1\",\"P\",\"C\",\"15\"
\"\",\"\",\"approach-retreat\",\"19\",\"209296\",\"0.0-19.0\",\"\",\"\",\"2-2\",\"4504\",\"37\",\"1\",\"Training\",\"Stims/Figures/87-C-20-4.bmp\",\"na:la:na\",\"Right\",\"37\",\"1\",\"16\",\"1\",\"S\",\"C\",\"16\"
\"\",\"\",\"approach-retreat\",\"20\",\"215483\",\"0.0-20.0\",\"\",\"\",\"2-2\",\"4661\",\"40\",\"1\",\"Training\",\"Stims/Figures/86-C-30-1.bmp\",\"na:la:na\",\"Up\",\"40\",\"2\",\"1\",\"1\",\"S\",\"C\",\"17\"
\"\",\"\",\"approach-retreat\",\"21\",\"221443\",\"0.0-21.0\",\"\",\"\",\"2-2\",\"4446\",\"40\",\"1\",\"Training\",\"Stims/Figures/19-J-10-4.bmp\",\"pakaka\",\"Down\",\"40\",\"2\",\"2\",\"1\",\"P\",\"C\",\"18\"
\"\",\"\",\"approach-retreat\",\"22\",\"228239\",\"0.0-22.0\",\"\",\"\",\"2-2\",\"5254\",\"39\",\"1\",\"Training\",\"Stims/Figures/86-J-0-1.bmp\",\"pakaka\",\"Right\",\"39\",\"2\",\"3\",\"1\",\"P\",\"C\",\"19\"
\"\",\"\",\"approach-retreat\",\"23\",\"234677\",\"0.0-23.0\",\"\",\"\",\"2-2\",\"4928\",\"37\",\"1\",\"Training\",\"Stims/Figures/87-J-10-4.bmp\",\"pakaka\",\"Left\",\"37\",\"2\",\"4\",\"1\",\"P\",\"C\",\"20\"
\"\",\"\",\"approach-retreat\",\"24\",\"240448\",\"0.0-24.0\",\"\",\"\",\"2-2\",\"4257\",\"38\",\"1\",\"Training\",\"Stims/Figures/100-C-30-3.bmp\",\"na:la:na\",\"Down\",\"38\",\"2\",\"5\",\"1\",\"S\",\"C\",\"21\"
\"\",\"\",\"approach-retreat\",\"25\",\"246135\",\"0.0-25.0\",\"\",\"\",\"2-2\",\"4170\",\"40\",\"1\",\"Training\",\"Stims/Figures/19-C-20-4.bmp\",\"na:la:na\",\"Up\",\"40\",\"2\",\"6\",\"1\",\"S\",\"C\",\"22\"
\"\",\"\",\"approach-retreat\",\"26\",\"251756\",\"0.0-26.0\",\"\",\"\",\"2-2\",\"4104\",\"40\",\"1\",\"Training\",\"Stims/Figures/87-C-20-4.bmp\",\"na:la:na\",\"Up\",\"40\",\"2\",\"7\",\"1\",\"S\",\"C\",\"23\"
\"\",\"\",\"approach-retreat\",\"27\",\"258100\",\"0.0-27.0\",\"\",\"\",\"2-2\",\"4830\",\"39\",\"1\",\"Training\",\"Stims/Figures/118-J-0-2.bmp\",\"pakaka\",\"Right\",\"39\",\"2\",\"8\",\"1\",\"P\",\"C\",\"24\"
\"\",\"\",\"approach-retreat\",\"28\",\"264128\",\"0.0-28.0\",\"\",\"\",\"2-2\",\"4516\",\"37\",\"1\",\"Training\",\"Stims/Figures/94-J-0-2.bmp\",\"pakaka\",\"Left\",\"37\",\"2\",\"9\",\"1\",\"P\",\"C\",\"25\"
\"\",\"\",\"approach-retreat\",\"29\",\"269898\",\"0.0-29.0\",\"\",\"\",\"2-2\",\"4254\",\"37\",\"1\",\"Training\",\"Stims/Figures/144-J-10-3.bmp\",\"pakaka\",\"Left\",\"37\",\"2\",\"10\",\"1\",\"P\",\"C\",\"26\"
\"\",\"\",\"approach-retreat\",\"30\",\"276424\",\"0.0-30.0\",\"\",\"\",\"2-2\",\"4984\",\"37\",\"1\",\"Training\",\"Stims/Figures/94-C-20-2.bmp\",\"na:la:na\",\"Right\",\"37\",\"2\",\"11\",\"1\",\"S\",\"C\",\"27\"
\"\",\"\",\"approach-retreat\",\"31\",\"282376\",\"0.0-31.0\",\"\",\"\",\"2-2\",\"4421\",\"39\",\"1\",\"Training\",\"Stims/Figures/144-C-30-3.bmp\",\"na:la:na\",\"Left\",\"39\",\"2\",\"12\",\"1\",\"S\",\"C\",\"28\"
\"\",\"\",\"approach-retreat\",\"32\",\"288506\",\"0.0-32.0\",\"\",\"\",\"2-2\",\"4617\",\"40\",\"1\",\"Training\",\"Stims/Figures/100-J-10-3.bmp\",\"pakaka\",\"Down\",\"40\",\"2\",\"13\",\"1\",\"P\",\"C\",\"29\"
\"\",\"\",\"approach-retreat\",\"33\",\"295862\",\"0.0-33.0\",\"\",\"\",\"2-2\",\"5826\",\"38\",\"0\",\"Training\",\"Stims/Figures/118-C-20-2.bmp\",\"na:la:na\",\"Up\",\"40\",\"2\",\"14\",\"1\",\"S\",\"C\",\"30\"
\"\",\"\",\"approach-retreat\",\"34\",\"302370\",\"0.0-34.0\",\"\",\"\",\"2-2\",\"4996\",\"40\",\"1\",\"Training\",\"Stims/Figures/93-J-0-1.bmp\",\"pakaka\",\"Down\",\"40\",\"2\",\"15\",\"1\",\"P\",\"C\",\"31\"
\"\",\"\",\"approach-retreat\",\"35\",\"308407\",\"0.0-35.0\",\"\",\"\",\"2-2\",\"4522\",\"37\",\"1\",\"Training\",\"Stims/Figures/93-C-30-1.bmp\",\"na:la:na\",\"Right\",\"37\",\"2\",\"16\",\"1\",\"S\",\"C\",\"32\"
\"\",\"\",\"approach-retreat\",\"36\",\"314318\",\"0.0-36.0\",\"\",\"\",\"2-2\",\"4396\",\"37\",\"1\",\"Training\",\"Stims/Figures/100-C-30-3.bmp\",\"na:la:na\",\"Right\",\"37\",\"3\",\"1\",\"1\",\"S\",\"C\",\"33\"
\"\",\"\",\"approach-retreat\",\"37\",\"320415\",\"0.0-37.0\",\"\",\"\",\"2-2\",\"4576\",\"39\",\"1\",\"Training\",\"Stims/Figures/86-C-30-1.bmp\",\"na:la:na\",\"Left\",\"39\",\"3\",\"2\",\"1\",\"S\",\"C\",\"34\"
\"\",\"\",\"approach-retreat\",\"38\",\"326168\",\"0.0-38.0\",\"\",\"\",\"2-2\",\"4226\",\"40\",\"1\",\"Training\",\"Stims/Figures/19-C-20-4.bmp\",\"na:la:na\",\"Up\",\"40\",\"3\",\"3\",\"1\",\"S\",\"C\",\"35\"
\"\",\"\",\"approach-retreat\",\"39\",\"332016\",\"0.0-39.0\",\"\",\"\",\"2-2\",\"4338\",\"37\",\"1\",\"Training\",\"Stims/Figures/86-J-0-1.bmp\",\"pakaka\",\"Left\",\"37\",\"3\",\"4\",\"1\",\"P\",\"C\",\"36\"
\"\",\"\",\"approach-retreat\",\"40\",\"337925\",\"0.0-40.0\",\"\",\"\",\"2-2\",\"4377\",\"39\",\"1\",\"Training\",\"Stims/Figures/118-J-0-2.bmp\",\"pakaka\",\"Right\",\"39\",\"3\",\"5\",\"1\",\"P\",\"C\",\"37\"
\"\",\"\",\"approach-retreat\",\"41\",\"344006\",\"0.0-41.0\",\"\",\"\",\"2-2\",\"4569\",\"38\",\"1\",\"Training\",\"Stims/Figures/100-J-10-3.bmp\",\"pakaka\",\"Up\",\"38\",\"3\",\"6\",\"1\",\"P\",\"C\",\"38\"
\"\",\"\",\"approach-retreat\",\"42\",\"349679\",\"0.0-42.0\",\"\",\"\",\"2-2\",\"4162\",\"38\",\"1\",\"Training\",\"Stims/Figures/19-J-10-4.bmp\",\"pakaka\",\"Up\",\"38\",\"3\",\"7\",\"1\",\"P\",\"C\",\"39\"
\"\",\"\",\"approach-retreat\",\"43\",\"355338\",\"0.0-43.0\",\"\",\"\",\"2-2\",\"4145\",\"38\",\"1\",\"Training\",\"Stims/Figures/87-J-10-4.bmp\",\"pakaka\",\"Up\",\"38\",\"3\",\"8\",\"1\",\"P\",\"C\",\"40\"
\"\",\"\",\"approach-retreat\",\"44\",\"360991\",\"0.0-44.0\",\"\",\"\",\"2-2\",\"4138\",\"39\",\"0\",\"Training\",\"Stims/Figures/87-C-20-4.bmp\",\"na:la:na\",\"Right\",\"37\",\"3\",\"9\",\"1\",\"S\",\"C\",\"41\"
\"\",\"\",\"approach-retreat\",\"45\",\"367665\",\"0.0-45.0\",\"\",\"\",\"2-2\",\"5162\",\"38\",\"1\",\"Training\",\"Stims/Figures/94-C-20-2.bmp\",\"na:la:na\",\"Down\",\"38\",\"3\",\"10\",\"1\",\"S\",\"C\",\"42\"
\"\",\"\",\"approach-retreat\",\"46\",\"373333\",\"0.0-46.0\",\"\",\"\",\"2-2\",\"4156\",\"40\",\"1\",\"Training\",\"Stims/Figures/93-J-0-1.bmp\",\"pakaka\",\"Down\",\"40\",\"3\",\"11\",\"1\",\"P\",\"C\",\"43\"
\"\",\"\",\"approach-retreat\",\"47\",\"379411\",\"0.0-47.0\",\"\",\"\",\"2-2\",\"4567\",\"40\",\"1\",\"Training\",\"Stims/Figures/94-J-0-2.bmp\",\"pakaka\",\"Down\",\"40\",\"3\",\"12\",\"1\",\"P\",\"C\",\"44\"
\"\",\"\",\"approach-retreat\",\"48\",\"385891\",\"0.0-48.0\",\"\",\"\",\"2-2\",\"4968\",\"38\",\"1\",\"Training\",\"Stims/Figures/144-C-30-3.bmp\",\"na:la:na\",\"Down\",\"38\",\"3\",\"13\",\"1\",\"S\",\"C\",\"45\"
\"\",\"\",\"approach-retreat\",\"49\",\"392850\",\"0.0-49.0\",\"\",\"\",\"2-2\",\"5444\",\"39\",\"1\",\"Training\",\"Stims/Figures/118-C-20-2.bmp\",\"na:la:na\",\"Left\",\"39\",\"3\",\"14\",\"1\",\"S\",\"C\",\"46\"
\"\",\"\",\"approach-retreat\",\"50\",\"399788\",\"0.0-50.0\",\"\",\"\",\"2-2\",\"5421\",\"39\",\"1\",\"Training\",\"Stims/Figures/144-J-10-3.bmp\",\"pakaka\",\"Right\",\"39\",\"3\",\"15\",\"1\",\"P\",\"C\",\"47\"
\"\",\"\",\"approach-retreat\",\"51\",\"406409\",\"0.0-51.0\",\"\",\"\",\"2-2\",\"5108\",\"39\",\"1\",\"Training\",\"Stims/Figures/93-C-30-1.bmp\",\"na:la:na\",\"Left\",\"39\",\"3\",\"16\",\"1\",\"S\",\"C\",\"48\"
\"\",\"\",\"approach-retreat\",\"52\",\"412444\",\"0.0-52.0\",\"\",\"\",\"2-2\",\"4520\",\"37\",\"1\",\"Training\",\"Stims/Figures/93-C-30-1.bmp\",\"na:la:na\",\"Right\",\"37\",\"4\",\"1\",\"1\",\"S\",\"C\",\"49\"
\"\",\"\",\"approach-retreat\",\"53\",\"418462\",\"0.0-53.0\",\"\",\"\",\"2-2\",\"4492\",\"37\",\"1\",\"Training\",\"Stims/Figures/86-J-0-1.bmp\",\"pakaka\",\"Left\",\"37\",\"4\",\"2\",\"1\",\"P\",\"C\",\"50\"
\"\",\"\",\"approach-retreat\",\"54\",\"424904\",\"0.0-54.0\",\"\",\"\",\"2-2\",\"4932\",\"38\",\"1\",\"Training\",\"Stims/Figures/19-C-20-4.bmp\",\"na:la:na\",\"Down\",\"38\",\"4\",\"3\",\"1\",\"S\",\"C\",\"51\"
\"\",\"\",\"approach-retreat\",\"55\",\"431041\",\"0.0-55.0\",\"\",\"\",\"2-2\",\"4623\",\"38\",\"1\",\"Training\",\"Stims/Figures/86-C-30-1.bmp\",\"na:la:na\",\"Down\",\"38\",\"4\",\"4\",\"1\",\"S\",\"C\",\"52\"
\"\",\"\",\"approach-retreat\",\"56\",\"437635\",\"0.0-56.0\",\"\",\"\",\"2-2\",\"5076\",\"40\",\"1\",\"Training\",\"Stims/Figures/94-C-20-2.bmp\",\"na:la:na\",\"Up\",\"40\",\"4\",\"5\",\"1\",\"S\",\"C\",\"53\"
\"\",\"\",\"approach-retreat\",\"57\",\"443352\",\"0.0-57.0\",\"\",\"\",\"2-2\",\"4203\",\"39\",\"1\",\"Training\",\"Stims/Figures/94-J-0-2.bmp\",\"pakaka\",\"Right\",\"39\",\"4\",\"6\",\"1\",\"P\",\"C\",\"54\"
\"\",\"\",\"approach-retreat\",\"58\",\"449446\",\"0.0-58.0\",\"\",\"\",\"2-2\",\"4583\",\"38\",\"1\",\"Training\",\"Stims/Figures/19-J-10-4.bmp\",\"pakaka\",\"Up\",\"38\",\"4\",\"7\",\"1\",\"P\",\"C\",\"55\"
\"\",\"\",\"approach-retreat\",\"59\",\"455543\",\"0.0-59.0\",\"\",\"\",\"2-2\",\"4582\",\"40\",\"1\",\"Training\",\"Stims/Figures/93-J-0-1.bmp\",\"pakaka\",\"Down\",\"40\",\"4\",\"8\",\"1\",\"P\",\"C\",\"56\"
\"\",\"\",\"approach-retreat\",\"60\",\"461267\",\"0.0-60.0\",\"\",\"\",\"2-2\",\"4214\",\"37\",\"1\",\"Training\",\"Stims/Figures/100-J-10-3.bmp\",\"pakaka\",\"Left\",\"37\",\"4\",\"9\",\"1\",\"P\",\"C\",\"57\"
\"\",\"\",\"approach-retreat\",\"61\",\"466922\",\"0.0-61.0\",\"\",\"\",\"2-2\",\"4142\",\"39\",\"1\",\"Training\",\"Stims/Figures/87-J-10-4.bmp\",\"pakaka\",\"Right\",\"39\",\"4\",\"10\",\"1\",\"P\",\"C\",\"58\"
\"\",\"\",\"approach-retreat\",\"62\",\"473676\",\"0.0-62.0\",\"\",\"\",\"2-2\",\"5241\",\"38\",\"1\",\"Training\",\"Stims/Figures/144-J-10-3.bmp\",\"pakaka\",\"Up\",\"38\",\"4\",\"11\",\"1\",\"P\",\"C\",\"59\"
\"\",\"\",\"approach-retreat\",\"63\",\"479619\",\"0.0-63.0\",\"\",\"\",\"2-2\",\"4428\",\"38\",\"0\",\"Training\",\"Stims/Figures/144-C-30-3.bmp\",\"na:la:na\",\"Up\",\"40\",\"4\",\"12\",\"1\",\"S\",\"C\",\"60\"
\"\",\"\",\"approach-retreat\",\"64\",\"485702\",\"0.0-64.0\",\"\",\"\",\"2-2\",\"4572\",\"37\",\"1\",\"Training\",\"Stims/Figures/87-C-20-4.bmp\",\"na:la:na\",\"Right\",\"37\",\"4\",\"13\",\"1\",\"S\",\"C\",\"61\"
\"\",\"\",\"approach-retreat\",\"65\",\"493770\",\"0.0-65.0\",\"\",\"\",\"2-2\",\"6558\",\"37\",\"1\",\"Training\",\"Stims/Figures/118-J-0-2.bmp\",\"pakaka\",\"Left\",\"37\",\"4\",\"14\",\"1\",\"P\",\"C\",\"62\"
\"\",\"\",\"approach-retreat\",\"66\",\"499834\",\"0.0-66.0\",\"\",\"\",\"2-2\",\"4549\",\"39\",\"1\",\"Training\",\"Stims/Figures/100-C-30-3.bmp\",\"na:la:na\",\"Left\",\"39\",\"4\",\"15\",\"1\",\"S\",\"C\",\"63\"
\"\",\"\",\"approach-retreat\",\"67\",\"505707\",\"0.0-67.0\",\"\",\"\",\"2-2\",\"4358\",\"38\",\"1\",\"Training\",\"Stims/Figures/118-C-20-2.bmp\",\"na:la:na\",\"Down\",\"38\",\"4\",\"16\",\"1\",\"S\",\"C\",\"64\"
\"\",\"\",\"approach-retreat\",\"68\",\"512459\",\"0.0-68.0\",\"\",\"\",\"2-2\",\"5241\",\"40\",\"1\",\"Training\",\"Stims/Figures/94-J-0-2.bmp\",\"pakaka\",\"Down\",\"40\",\"5\",\"1\",\"1\",\"P\",\"C\",\"65\"
\"\",\"\",\"approach-retreat\",\"69\",\"518362\",\"0.0-69.0\",\"\",\"\",\"2-2\",\"4390\",\"37\",\"1\",\"Training\",\"Stims/Figures/86-J-0-1.bmp\",\"pakaka\",\"Left\",\"37\",\"5\",\"2\",\"1\",\"P\",\"C\",\"66\"
\"\",\"\",\"approach-retreat\",\"70\",\"525036\",\"0.0-70.0\",\"\",\"\",\"2-2\",\"5159\",\"40\",\"1\",\"Training\",\"Stims/Figures/93-C-30-1.bmp\",\"na:la:na\",\"Up\",\"40\",\"5\",\"3\",\"1\",\"S\",\"C\",\"67\"
\"\",\"\",\"approach-retreat\",\"71\",\"531165\",\"0.0-71.0\",\"\",\"\",\"2-2\",\"4602\",\"37\",\"1\",\"Training\",\"Stims/Figures/118-C-20-2.bmp\",\"na:la:na\",\"Right\",\"37\",\"5\",\"4\",\"1\",\"S\",\"C\",\"68\"
\"\",\"\",\"approach-retreat\",\"72\",\"538825\",\"0.0-72.0\",\"\",\"\",\"2-2\",\"6146\",\"39\",\"1\",\"Training\",\"Stims/Figures/19-C-20-4.bmp\",\"na:la:na\",\"Left\",\"39\",\"5\",\"5\",\"1\",\"S\",\"C\",\"69\"
\"\",\"\",\"approach-retreat\",\"73\",\"545128\",\"0.0-73.0\",\"\",\"\",\"2-2\",\"4792\",\"39\",\"1\",\"Training\",\"Stims/Figures/87-J-10-4.bmp\",\"pakaka\",\"Right\",\"39\",\"5\",\"6\",\"1\",\"P\",\"C\",\"70\"
\"\",\"\",\"approach-retreat\",\"74\",\"551131\",\"0.0-74.0\",\"\",\"\",\"2-2\",\"4489\",\"40\",\"1\",\"Training\",\"Stims/Figures/100-C-30-3.bmp\",\"na:la:na\",\"Up\",\"40\",\"5\",\"7\",\"1\",\"S\",\"C\",\"71\"
\"\",\"\",\"approach-retreat\",\"75\",\"557001\",\"0.0-75.0\",\"\",\"\",\"2-2\",\"4358\",\"39\",\"1\",\"Training\",\"Stims/Figures/93-J-0-1.bmp\",\"pakaka\",\"Right\",\"39\",\"5\",\"8\",\"1\",\"P\",\"C\",\"72\"
\"\",\"\",\"approach-retreat\",\"76\",\"563121\",\"0.0-76.0\",\"\",\"\",\"2-2\",\"4605\",\"40\",\"1\",\"Training\",\"Stims/Figures/19-J-10-4.bmp\",\"pakaka\",\"Down\",\"40\",\"5\",\"9\",\"1\",\"P\",\"C\",\"73\"
\"\",\"\",\"approach-retreat\",\"77\",\"569383\",\"0.0-77.0\",\"\",\"\",\"2-2\",\"4747\",\"38\",\"1\",\"Training\",\"Stims/Figures/100-J-10-3.bmp\",\"pakaka\",\"Up\",\"38\",\"5\",\"10\",\"1\",\"P\",\"C\",\"74\"
\"\",\"\",\"approach-retreat\",\"78\",\"575163\",\"0.0-78.0\",\"\",\"\",\"2-2\",\"4262\",\"37\",\"1\",\"Training\",\"Stims/Figures/144-J-10-3.bmp\",\"pakaka\",\"Left\",\"37\",\"5\",\"11\",\"1\",\"P\",\"C\",\"75\"
\"\",\"\",\"approach-retreat\",\"79\",\"580977\",\"0.0-79.0\",\"\",\"\",\"2-2\",\"4299\",\"38\",\"1\",\"Training\",\"Stims/Figures/144-C-30-3.bmp\",\"na:la:na\",\"Down\",\"38\",\"5\",\"12\",\"1\",\"S\",\"C\",\"76\"
\"\",\"\",\"approach-retreat\",\"80\",\"586587\",\"0.0-80.0\",\"\",\"\",\"2-2\",\"4090\",\"38\",\"1\",\"Training\",\"Stims/Figures/94-C-20-2.bmp\",\"na:la:na\",\"Down\",\"38\",\"5\",\"13\",\"1\",\"S\",\"C\",\"77\"
\"\",\"\",\"approach-retreat\",\"81\",\"592353\",\"0.0-81.0\",\"\",\"\",\"2-2\",\"4252\",\"39\",\"1\",\"Training\",\"Stims/Figures/86-C-30-1.bmp\",\"na:la:na\",\"Left\",\"39\",\"5\",\"14\",\"1\",\"S\",\"C\",\"78\"
\"\",\"\",\"approach-retreat\",\"82\",\"597978\",\"0.0-82.0\",\"\",\"\",\"2-2\",\"4114\",\"39\",\"1\",\"Training\",\"Stims/Figures/118-J-0-2.bmp\",\"pakaka\",\"Right\",\"39\",\"5\",\"15\",\"1\",\"P\",\"C\",\"79\"
\"\",\"\",\"approach-retreat\",\"83\",\"603742\",\"0.0-83.0\",\"\",\"\",\"2-2\",\"4248\",\"40\",\"1\",\"Training\",\"Stims/Figures/87-C-20-4.bmp\",\"na:la:na\",\"Up\",\"40\",\"5\",\"16\",\"1\",\"S\",\"C\",\"80\"
\"\",\"\",\"approach-retreat\",\"84\",\"609349\",\"0.0-84.0\",\"\",\"\",\"2-2\",\"4096\",\"37\",\"1\",\"Training\",\"Stims/Figures/144-C-30-3.bmp\",\"na:la:na\",\"Right\",\"37\",\"6\",\"1\",\"1\",\"S\",\"C\",\"81\"
\"\",\"\",\"approach-retreat\",\"85\",\"615206\",\"0.0-85.0\",\"\",\"\",\"2-2\",\"4345\",\"39\",\"1\",\"Training\",\"Stims/Figures/19-J-10-4.bmp\",\"pakaka\",\"Right\",\"39\",\"6\",\"2\",\"1\",\"P\",\"C\",\"82\"
\"\",\"\",\"approach-retreat\",\"86\",\"621012\",\"0.0-86.0\",\"\",\"\",\"2-2\",\"4296\",\"37\",\"1\",\"Training\",\"Stims/Figures/118-C-20-2.bmp\",\"na:la:na\",\"Right\",\"37\",\"6\",\"3\",\"1\",\"S\",\"C\",\"83\"
\"\",\"\",\"approach-retreat\",\"87\",\"626723\",\"0.0-87.0\",\"\",\"\",\"2-2\",\"4193\",\"39\",\"1\",\"Training\",\"Stims/Figures/19-C-20-4.bmp\",\"na:la:na\",\"Left\",\"39\",\"6\",\"4\",\"1\",\"S\",\"C\",\"84\"
\"\",\"\",\"approach-retreat\",\"88\",\"632436\",\"0.0-88.0\",\"\",\"\",\"2-2\",\"4202\",\"38\",\"1\",\"Training\",\"Stims/Figures/94-C-20-2.bmp\",\"na:la:na\",\"Down\",\"38\",\"6\",\"5\",\"1\",\"S\",\"C\",\"85\"
\"\",\"\",\"approach-retreat\",\"89\",\"638749\",\"0.0-89.0\",\"\",\"\",\"2-2\",\"4795\",\"39\",\"1\",\"Training\",\"Stims/Figures/93-C-30-1.bmp\",\"na:la:na\",\"Left\",\"39\",\"6\",\"6\",\"1\",\"S\",\"C\",\"86\"
\"\",\"\",\"approach-retreat\",\"90\",\"644389\",\"0.0-90.0\",\"\",\"\",\"2-2\",\"4129\",\"37\",\"1\",\"Training\",\"Stims/Figures/118-J-0-2.bmp\",\"pakaka\",\"Left\",\"37\",\"6\",\"7\",\"1\",\"P\",\"C\",\"87\"
\"\",\"\",\"approach-retreat\",\"91\",\"650163\",\"0.0-91.0\",\"\",\"\",\"2-2\",\"4263\",\"39\",\"1\",\"Training\",\"Stims/Figures/100-C-30-3.bmp\",\"na:la:na\",\"Left\",\"39\",\"6\",\"8\",\"1\",\"S\",\"C\",\"88\"
\"\",\"\",\"approach-retreat\",\"92\",\"655740\",\"0.0-92.0\",\"\",\"\",\"2-2\",\"4065\",\"40\",\"1\",\"Training\",\"Stims/Figures/144-J-10-3.bmp\",\"pakaka\",\"Down\",\"40\",\"6\",\"9\",\"1\",\"P\",\"C\",\"89\"
\"\",\"\",\"approach-retreat\",\"93\",\"661456\",\"0.0-93.0\",\"\",\"\",\"2-2\",\"4203\",\"40\",\"1\",\"Training\",\"Stims/Figures/100-J-10-3.bmp\",\"pakaka\",\"Down\",\"40\",\"6\",\"10\",\"1\",\"P\",\"C\",\"90\"
\"\",\"\",\"approach-retreat\",\"94\",\"667356\",\"0.0-94.0\",\"\",\"\",\"2-2\",\"4380\",\"37\",\"1\",\"Training\",\"Stims/Figures/86-C-30-1.bmp\",\"na:la:na\",\"Right\",\"37\",\"6\",\"11\",\"1\",\"S\",\"C\",\"91\"
\"\",\"\",\"approach-retreat\",\"95\",\"673727\",\"0.0-95.0\",\"\",\"\",\"2-2\",\"4859\",\"38\",\"1\",\"Training\",\"Stims/Figures/86-J-0-1.bmp\",\"pakaka\",\"Up\",\"38\",\"6\",\"12\",\"1\",\"P\",\"C\",\"92\"
\"\",\"\",\"approach-retreat\",\"96\",\"679564\",\"0.0-96.0\",\"\",\"\",\"2-2\",\"4326\",\"40\",\"1\",\"Training\",\"Stims/Figures/87-J-10-4.bmp\",\"pakaka\",\"Down\",\"40\",\"6\",\"13\",\"1\",\"P\",\"C\",\"93\"
\"\",\"\",\"approach-retreat\",\"97\",\"685573\",\"0.0-97.0\",\"\",\"\",\"2-2\",\"4496\",\"38\",\"1\",\"Training\",\"Stims/Figures/93-J-0-1.bmp\",\"pakaka\",\"Up\",\"38\",\"6\",\"14\",\"1\",\"P\",\"C\",\"94\"
\"\",\"\",\"approach-retreat\",\"98\",\"691731\",\"0.0-98.0\",\"\",\"\",\"2-2\",\"4646\",\"40\",\"1\",\"Training\",\"Stims/Figures/87-C-20-4.bmp\",\"na:la:na\",\"Up\",\"40\",\"6\",\"15\",\"1\",\"S\",\"C\",\"95\"
\"\",\"\",\"approach-retreat\",\"99\",\"698225\",\"0.0-99.0\",\"\",\"\",\"2-2\",\"4980\",\"38\",\"1\",\"Training\",\"Stims/Figures/94-J-0-2.bmp\",\"pakaka\",\"Up\",\"38\",\"6\",\"16\",\"1\",\"P\",\"C\",\"96\"
\"\",\"\",\"approach-retreat\",\"100\",\"704539\",\"0.0-100.0\",\"\",\"\",\"2-2\",\"4787\",\"37\",\"1\",\"Training\",\"Stims/Figures/100-J-10-3.bmp\",\"pakaka\",\"Left\",\"37\",\"7\",\"1\",\"1\",\"P\",\"C\",\"97\"
\"\",\"\",\"approach-retreat\",\"101\",\"711324\",\"0.0-101.0\",\"\",\"\",\"2-2\",\"5267\",\"38\",\"1\",\"Training\",\"Stims/Figures/86-C-30-1.bmp\",\"na:la:na\",\"Down\",\"38\",\"7\",\"2\",\"1\",\"S\",\"C\",\"98\"
\"\",\"\",\"approach-retreat\",\"102\",\"717482\",\"0.0-102.0\",\"\",\"\",\"2-2\",\"4640\",\"38\",\"1\",\"Training\",\"Stims/Figures/94-J-0-2.bmp\",\"pakaka\",\"Up\",\"38\",\"7\",\"3\",\"1\",\"P\",\"C\",\"99\"
\"\",\"\",\"approach-retreat\",\"103\",\"723307\",\"0.0-103.0\",\"\",\"\",\"2-2\",\"4285\",\"37\",\"1\",\"Training\",\"Stims/Figures/19-C-20-4.bmp\",\"na:la:na\",\"Right\",\"37\",\"7\",\"4\",\"1\",\"S\",\"C\",\"100\"
\"\",\"\",\"approach-retreat\",\"104\",\"729280\",\"0.0-104.0\",\"\",\"\",\"2-2\",\"4457\",\"38\",\"1\",\"Training\",\"Stims/Figures/87-J-10-4.bmp\",\"pakaka\",\"Up\",\"38\",\"7\",\"5\",\"1\",\"P\",\"C\",\"101\"
\"\",\"\",\"approach-retreat\",\"105\",\"734939\",\"0.0-105.0\",\"\",\"\",\"2-2\",\"4147\",\"37\",\"1\",\"Training\",\"Stims/Figures/86-J-0-1.bmp\",\"pakaka\",\"Left\",\"37\",\"7\",\"6\",\"1\",\"P\",\"C\",\"102\"
\"\",\"\",\"approach-retreat\",\"106\",\"740850\",\"0.0-106.0\",\"\",\"\",\"2-2\",\"4392\",\"38\",\"1\",\"Training\",\"Stims/Figures/144-C-30-3.bmp\",\"na:la:na\",\"Down\",\"38\",\"7\",\"7\",\"1\",\"S\",\"C\",\"103\"
\"\",\"\",\"approach-retreat\",\"107\",\"746792\",\"0.0-107.0\",\"\",\"\",\"2-2\",\"4429\",\"38\",\"1\",\"Training\",\"Stims/Figures/100-C-30-3.bmp\",\"na:la:na\",\"Down\",\"38\",\"7\",\"8\",\"1\",\"S\",\"C\",\"104\"
\"\",\"\",\"approach-retreat\",\"108\",\"752762\",\"0.0-108.0\",\"\",\"\",\"2-2\",\"4452\",\"39\",\"1\",\"Training\",\"Stims/Figures/118-C-20-2.bmp\",\"na:la:na\",\"Left\",\"39\",\"7\",\"9\",\"1\",\"S\",\"C\",\"105\"
\"\",\"\",\"approach-retreat\",\"109\",\"758737\",\"0.0-109.0\",\"\",\"\",\"2-2\",\"4449\",\"38\",\"1\",\"Training\",\"Stims/Figures/144-J-10-3.bmp\",\"pakaka\",\"Up\",\"38\",\"7\",\"10\",\"1\",\"P\",\"C\",\"106\"
\"\",\"\",\"approach-retreat\",\"110\",\"764810\",\"0.0-110.0\",\"\",\"\",\"2-2\",\"4555\",\"37\",\"1\",\"Training\",\"Stims/Figures/87-C-20-4.bmp\",\"na:la:na\",\"Right\",\"37\",\"7\",\"11\",\"1\",\"S\",\"C\",\"107\"
\"\",\"\",\"approach-retreat\",\"111\",\"770693\",\"0.0-111.0\",\"\",\"\",\"2-2\",\"4369\",\"39\",\"1\",\"Training\",\"Stims/Figures/93-C-30-1.bmp\",\"na:la:na\",\"Left\",\"39\",\"7\",\"12\",\"1\",\"S\",\"C\",\"108\"
\"\",\"\",\"approach-retreat\",\"112\",\"776406\",\"0.0-112.0\",\"\",\"\",\"2-2\",\"4199\",\"39\",\"1\",\"Training\",\"Stims/Figures/93-J-0-1.bmp\",\"pakaka\",\"Right\",\"39\",\"7\",\"13\",\"1\",\"P\",\"C\",\"109\"
\"\",\"\",\"approach-retreat\",\"113\",\"782420\",\"0.0-113.0\",\"\",\"\",\"2-2\",\"4504\",\"39\",\"1\",\"Training\",\"Stims/Figures/19-J-10-4.bmp\",\"pakaka\",\"Right\",\"39\",\"7\",\"14\",\"1\",\"P\",\"C\",\"110\"
\"\",\"\",\"approach-retreat\",\"114\",\"788197\",\"0.0-114.0\",\"\",\"\",\"2-2\",\"4264\",\"38\",\"1\",\"Training\",\"Stims/Figures/94-C-20-2.bmp\",\"na:la:na\",\"Down\",\"38\",\"7\",\"15\",\"1\",\"S\",\"C\",\"111\"
\"\",\"\",\"approach-retreat\",\"115\",\"794083\",\"0.0-115.0\",\"\",\"\",\"2-2\",\"4351\",\"38\",\"1\",\"Training\",\"Stims/Figures/118-J-0-2.bmp\",\"pakaka\",\"Up\",\"38\",\"7\",\"16\",\"1\",\"P\",\"C\",\"112\"
\"\",\"\",\"approach-retreat\",\"116\",\"799811\",\"0.0-116.0\",\"\",\"\",\"2-2\",\"4216\",\"39\",\"1\",\"Training\",\"Stims/Figures/144-C-30-3.bmp\",\"na:la:na\",\"Left\",\"39\",\"8\",\"1\",\"1\",\"S\",\"C\",\"113\"
\"\",\"\",\"approach-retreat\",\"117\",\"805490\",\"0.0-117.0\",\"\",\"\",\"2-2\",\"4162\",\"37\",\"1\",\"Training\",\"Stims/Figures/144-J-10-3.bmp\",\"pakaka\",\"Left\",\"37\",\"8\",\"2\",\"1\",\"P\",\"C\",\"114\"
\"\",\"\",\"approach-retreat\",\"118\",\"811877\",\"0.0-118.0\",\"\",\"\",\"2-2\",\"4870\",\"40\",\"1\",\"Training\",\"Stims/Figures/19-J-10-4.bmp\",\"pakaka\",\"Down\",\"40\",\"8\",\"3\",\"1\",\"P\",\"C\",\"115\"
\"\",\"\",\"approach-retreat\",\"119\",\"817862\",\"0.0-119.0\",\"\",\"\",\"2-2\",\"4472\",\"39\",\"1\",\"Training\",\"Stims/Figures/100-J-10-3.bmp\",\"pakaka\",\"Right\",\"39\",\"8\",\"4\",\"1\",\"P\",\"C\",\"116\"
\"\",\"\",\"approach-retreat\",\"120\",\"823945\",\"0.0-120.0\",\"\",\"\",\"2-2\",\"4571\",\"39\",\"1\",\"Training\",\"Stims/Figures/87-C-20-4.bmp\",\"na:la:na\",\"Left\",\"39\",\"8\",\"5\",\"1\",\"S\",\"C\",\"117\"
\"\",\"\",\"approach-retreat\",\"121\",\"830000\",\"0.0-121.0\",\"\",\"\",\"2-2\",\"4540\",\"38\",\"1\",\"Training\",\"Stims/Figures/118-C-20-2.bmp\",\"na:la:na\",\"Down\",\"38\",\"8\",\"6\",\"1\",\"S\",\"C\",\"118\"
\"\",\"\",\"approach-retreat\",\"122\",\"835633\",\"0.0-122.0\",\"\",\"\",\"2-2\",\"4124\",\"40\",\"1\",\"Training\",\"Stims/Figures/86-J-0-1.bmp\",\"pakaka\",\"Down\",\"40\",\"8\",\"7\",\"1\",\"P\",\"C\",\"119\"
\"\",\"\",\"approach-retreat\",\"123\",\"841233\",\"0.0-123.0\",\"\",\"\",\"2-2\",\"4086\",\"37\",\"1\",\"Training\",\"Stims/Figures/94-C-20-2.bmp\",\"na:la:na\",\"Right\",\"37\",\"8\",\"8\",\"1\",\"S\",\"C\",\"120\"
\"\",\"\",\"approach-retreat\",\"124\",\"847312\",\"0.0-124.0\",\"\",\"\",\"2-2\",\"4557\",\"38\",\"1\",\"Training\",\"Stims/Figures/93-J-0-1.bmp\",\"pakaka\",\"Up\",\"38\",\"8\",\"9\",\"1\",\"P\",\"C\",\"121\"
\"\",\"\",\"approach-retreat\",\"125\",\"853418\",\"0.0-125.0\",\"\",\"\",\"2-2\",\"4591\",\"40\",\"1\",\"Training\",\"Stims/Figures/19-C-20-4.bmp\",\"na:la:na\",\"Up\",\"40\",\"8\",\"10\",\"1\",\"S\",\"C\",\"122\"
\"\",\"\",\"approach-retreat\",\"126\",\"859714\",\"0.0-126.0\",\"\",\"\",\"2-2\",\"4783\",\"37\",\"0\",\"Training\",\"Stims/Figures/94-J-0-2.bmp\",\"pakaka\",\"Right\",\"39\",\"8\",\"11\",\"1\",\"P\",\"C\",\"123\"
\"\",\"\",\"approach-retreat\",\"127\",\"865606\",\"0.0-127.0\",\"\",\"\",\"2-2\",\"4380\",\"40\",\"1\",\"Training\",\"Stims/Figures/118-J-0-2.bmp\",\"pakaka\",\"Down\",\"40\",\"8\",\"12\",\"1\",\"P\",\"C\",\"124\"
\"\",\"\",\"approach-retreat\",\"128\",\"871429\",\"0.0-128.0\",\"\",\"\",\"2-2\",\"4297\",\"40\",\"1\",\"Training\",\"Stims/Figures/93-C-30-1.bmp\",\"na:la:na\",\"Up\",\"40\",\"8\",\"13\",\"1\",\"S\",\"C\",\"125\"
\"\",\"\",\"approach-retreat\",\"129\",\"877561\",\"0.0-129.0\",\"\",\"\",\"2-2\",\"4607\",\"37\",\"1\",\"Training\",\"Stims/Figures/87-J-10-4.bmp\",\"pakaka\",\"Left\",\"37\",\"8\",\"14\",\"1\",\"P\",\"C\",\"126\"
\"\",\"\",\"approach-retreat\",\"130\",\"883332\",\"0.0-130.0\",\"\",\"\",\"2-2\",\"4255\",\"37\",\"1\",\"Training\",\"Stims/Figures/86-C-30-1.bmp\",\"na:la:na\",\"Right\",\"37\",\"8\",\"15\",\"1\",\"S\",\"C\",\"127\"
\"\",\"\",\"approach-retreat\",\"131\",\"889248\",\"0.0-131.0\",\"\",\"\",\"2-2\",\"4401\",\"40\",\"1\",\"Training\",\"Stims/Figures/100-C-30-3.bmp\",\"na:la:na\",\"Up\",\"40\",\"8\",\"16\",\"1\",\"S\",\"C\",\"128\"
\"\",\"\",\"approach-retreat\",\"132\",\"894923\",\"0.0-132.0\",\"\",\"\",\"2-2\",\"4164\",\"39\",\"1\",\"Training\",\"Stims/Figures/86-J-0-1.bmp\",\"pakaka\",\"Right\",\"39\",\"9\",\"1\",\"1\",\"P\",\"C\",\"129\"
\"\",\"\",\"approach-retreat\",\"133\",\"901579\",\"0.0-133.0\",\"\",\"\",\"2-2\",\"5141\",\"40\",\"1\",\"Training\",\"Stims/Figures/94-J-0-2.bmp\",\"pakaka\",\"Down\",\"40\",\"9\",\"2\",\"1\",\"P\",\"C\",\"130\"
\"\",\"\",\"approach-retreat\",\"134\",\"908180\",\"0.0-134.0\",\"\",\"\",\"2-2\",\"5085\",\"38\",\"1\",\"Training\",\"Stims/Figures/118-J-0-2.bmp\",\"pakaka\",\"Up\",\"38\",\"9\",\"3\",\"1\",\"P\",\"C\",\"131\"
\"\",\"\",\"approach-retreat\",\"135\",\"913972\",\"0.0-135.0\",\"\",\"\",\"2-2\",\"4272\",\"39\",\"1\",\"Training\",\"Stims/Figures/19-J-10-4.bmp\",\"pakaka\",\"Right\",\"39\",\"9\",\"4\",\"1\",\"P\",\"C\",\"132\"
\"\",\"\",\"approach-retreat\",\"136\",\"919881\",\"0.0-136.0\",\"\",\"\",\"2-2\",\"4396\",\"40\",\"1\",\"Training\",\"Stims/Figures/100-J-10-3.bmp\",\"pakaka\",\"Down\",\"40\",\"9\",\"5\",\"1\",\"P\",\"C\",\"133\"
\"\",\"\",\"approach-retreat\",\"137\",\"925920\",\"0.0-137.0\",\"\",\"\",\"2-2\",\"4517\",\"39\",\"1\",\"Training\",\"Stims/Figures/93-C-30-1.bmp\",\"na:la:na\",\"Left\",\"39\",\"9\",\"6\",\"1\",\"S\",\"C\",\"134\"
\"\",\"\",\"approach-retreat\",\"138\",\"933218\",\"0.0-138.0\",\"\",\"\",\"2-2\",\"5779\",\"38\",\"1\",\"Training\",\"Stims/Figures/86-C-30-1.bmp\",\"na:la:na\",\"Down\",\"38\",\"9\",\"7\",\"1\",\"S\",\"C\",\"135\"
\"\",\"\",\"approach-retreat\",\"139\",\"939767\",\"0.0-139.0\",\"\",\"\",\"2-2\",\"5033\",\"38\",\"1\",\"Training\",\"Stims/Figures/87-J-10-4.bmp\",\"pakaka\",\"Up\",\"38\",\"9\",\"8\",\"1\",\"P\",\"C\",\"136\"
\"\",\"\",\"approach-retreat\",\"140\",\"945852\",\"0.0-140.0\",\"\",\"\",\"2-2\",\"4561\",\"40\",\"1\",\"Training\",\"Stims/Figures/118-C-20-2.bmp\",\"na:la:na\",\"Up\",\"40\",\"9\",\"9\",\"1\",\"S\",\"C\",\"137\"
\"\",\"\",\"approach-retreat\",\"141\",\"951551\",\"0.0-141.0\",\"\",\"\",\"2-2\",\"4182\",\"40\",\"1\",\"Training\",\"Stims/Figures/144-C-30-3.bmp\",\"na:la:na\",\"Up\",\"40\",\"9\",\"10\",\"1\",\"S\",\"C\",\"138\"
\"\",\"\",\"approach-retreat\",\"142\",\"957245\",\"0.0-142.0\",\"\",\"\",\"2-2\",\"4182\",\"38\",\"1\",\"Training\",\"Stims/Figures/87-C-20-4.bmp\",\"na:la:na\",\"Down\",\"38\",\"9\",\"11\",\"1\",\"S\",\"C\",\"139\"
\"\",\"\",\"approach-retreat\",\"143\",\"962819\",\"0.0-143.0\",\"\",\"\",\"2-2\",\"4052\",\"39\",\"1\",\"Training\",\"Stims/Figures/100-C-30-3.bmp\",\"na:la:na\",\"Left\",\"39\",\"9\",\"12\",\"1\",\"S\",\"C\",\"140\"
\"\",\"\",\"approach-retreat\",\"144\",\"968643\",\"0.0-144.0\",\"\",\"\",\"2-2\",\"4296\",\"39\",\"1\",\"Training\",\"Stims/Figures/144-J-10-3.bmp\",\"pakaka\",\"Right\",\"39\",\"9\",\"13\",\"1\",\"P\",\"C\",\"141\"
\"\",\"\",\"approach-retreat\",\"145\",\"974237\",\"0.0-145.0\",\"\",\"\",\"2-2\",\"4083\",\"39\",\"1\",\"Training\",\"Stims/Figures/94-C-20-2.bmp\",\"na:la:na\",\"Left\",\"39\",\"9\",\"14\",\"1\",\"S\",\"C\",\"142\"
\"\",\"\",\"approach-retreat\",\"146\",\"979942\",\"0.0-146.0\",\"\",\"\",\"2-2\",\"4192\",\"37\",\"1\",\"Training\",\"Stims/Figures/93-J-0-1.bmp\",\"pakaka\",\"Left\",\"37\",\"9\",\"15\",\"1\",\"P\",\"C\",\"143\"
\"\",\"\",\"approach-retreat\",\"147\",\"986091\",\"0.0-147.0\",\"\",\"\",\"2-2\",\"4635\",\"37\",\"1\",\"Training\",\"Stims/Figures/19-C-20-4.bmp\",\"na:la:na\",\"Right\",\"37\",\"9\",\"16\",\"1\",\"S\",\"C\",\"144\"
\"10993\",\"\",\"instructions\",\"148\",\"997084\",\"0.0-148.0\",\"[{\"\"page_index\"\":0,\"\"viewing_time\"\":10993}]\",\"\",\"\",\"\",\"\",\"\",\"\",\"\",\"\",\"\",\"\",\"\",\"\",\"\",\"\",\"\",\"\"
\"\",\"\",\"approach-retreat\",\"149\",\"1003433\",\"0.0-149.0\",\"\",\"\",\"2-2\",\"4841\",\"38\",\"1\",\"Testing\",\"Stims/Figures/144-J-10-3.bmp\",\"pakaka\",\"Up\",\"38\",\"1\",\"1\",\"1\",\"P\",\"C\",\"1\"
\"\",\"\",\"approach-retreat\",\"150\",\"1009485\",\"0.0-150.0\",\"\",\"\",\"2-2\",\"4540\",\"37\",\"1\",\"Testing\",\"Stims/Figures/86-J-0-1.bmp\",\"pakaka\",\"Left\",\"37\",\"1\",\"2\",\"1\",\"P\",\"C\",\"2\"
\"\",\"\",\"approach-retreat\",\"151\",\"1015304\",\"0.0-151.0\",\"\",\"\",\"2-2\",\"4310\",\"39\",\"1\",\"Testing\",\"Stims/Figures/93-J-0-1.bmp\",\"pakaka\",\"Right\",\"39\",\"1\",\"3\",\"1\",\"P\",\"C\",\"3\"
\"\",\"\",\"approach-retreat\",\"152\",\"1020966\",\"0.0-152.0\",\"\",\"\",\"2-2\",\"4149\",\"39\",\"1\",\"Testing\",\"Stims/Figures/94-J-0-2.bmp\",\"pakaka\",\"Right\",\"39\",\"1\",\"4\",\"1\",\"P\",\"C\",\"4\"
\"\",\"\",\"approach-retreat\",\"153\",\"1026833\",\"0.0-153.0\",\"\",\"\",\"2-2\",\"4356\",\"38\",\"1\",\"Testing\",\"Stims/Figures/84-C-20-2.bmp\",\"na:la:na\",\"Down\",\"38\",\"1\",\"5\",\"1\",\"S\",\"C\",\"5\"
\"\",\"\",\"approach-retreat\",\"154\",\"1032563\",\"0.0-154.0\",\"\",\"\",\"2-2\",\"4221\",\"38\",\"1\",\"Testing\",\"Stims/Figures/118-C-20-2.bmp\",\"na:la:na\",\"Down\",\"38\",\"1\",\"6\",\"1\",\"S\",\"C\",\"6\"
\"\",\"\",\"approach-retreat\",\"155\",\"1038349\",\"0.0-155.0\",\"\",\"\",\"2-2\",\"4278\",\"40\",\"0\",\"Testing\",\"Stims/Figures/87-J-10-4.bmp\",\"pakaka\",\"Up\",\"38\",\"1\",\"7\",\"1\",\"P\",\"C\",\"7\"
\"\",\"\",\"approach-retreat\",\"156\",\"1044880\",\"0.0-156.0\",\"\",\"\",\"2-2\",\"5010\",\"40\",\"1\",\"Testing\",\"Stims/Figures/84-J-0-2.bmp\",\"pakaka\",\"Down\",\"40\",\"1\",\"8\",\"1\",\"P\",\"C\",\"8\"
\"\",\"\",\"approach-retreat\",\"157\",\"1050620\",\"0.0-157.0\",\"\",\"\",\"2-2\",\"4224\",\"40\",\"1\",\"Testing\",\"Stims/Figures/94-C-20-2.bmp\",\"na:la:na\",\"Up\",\"40\",\"1\",\"9\",\"1\",\"S\",\"C\",\"9\"
\"\",\"\",\"approach-retreat\",\"158\",\"1056584\",\"0.0-158.0\",\"\",\"\",\"2-2\",\"4442\",\"37\",\"1\",\"Testing\",\"Stims/Figures/144-C-30-3.bmp\",\"na:la:na\",\"Right\",\"37\",\"1\",\"10\",\"1\",\"S\",\"C\",\"10\"
\"\",\"\",\"approach-retreat\",\"159\",\"1062295\",\"0.0-159.0\",\"\",\"\",\"2-2\",\"4201\",\"40\",\"0\",\"Testing\",\"Stims/Figures/44-J-10-3.bmp\",\"pakaka\",\"Up\",\"38\",\"1\",\"11\",\"1\",\"P\",\"C\",\"11\"
\"\",\"\",\"approach-retreat\",\"160\",\"1068981\",\"0.0-160.0\",\"\",\"\",\"2-2\",\"5163\",\"40\",\"1\",\"Testing\",\"Stims/Figures/100-J-10-3.bmp\",\"pakaka\",\"Down\",\"40\",\"1\",\"12\",\"1\",\"P\",\"C\",\"12\"
\"\",\"\",\"approach-retreat\",\"161\",\"1074672\",\"0.0-161.0\",\"\",\"\",\"2-2\",\"4150\",\"39\",\"1\",\"Testing\",\"Stims/Figures/19-J-10-4.bmp\",\"pakaka\",\"Right\",\"39\",\"1\",\"13\",\"1\",\"P\",\"C\",\"13\"
\"\",\"\",\"approach-retreat\",\"162\",\"1080344\",\"0.0-162.0\",\"\",\"\",\"2-2\",\"4141\",\"37\",\"1\",\"Testing\",\"Stims/Figures/57-J-0-1.bmp\",\"pakaka\",\"Left\",\"37\",\"1\",\"14\",\"1\",\"P\",\"C\",\"14\"
\"\",\"\",\"approach-retreat\",\"163\",\"1085979\",\"0.0-163.0\",\"\",\"\",\"2-2\",\"4118\",\"40\",\"1\",\"Testing\",\"Stims/Figures/57-C-30-1.bmp\",\"na:la:na\",\"Up\",\"40\",\"1\",\"15\",\"1\",\"S\",\"C\",\"15\"
\"\",\"\",\"approach-retreat\",\"164\",\"1091904\",\"0.0-164.0\",\"\",\"\",\"2-2\",\"4405\",\"39\",\"1\",\"Testing\",\"Stims/Figures/44-C-30-3.bmp\",\"na:la:na\",\"Left\",\"39\",\"1\",\"16\",\"1\",\"S\",\"C\",\"16\"
\"\",\"\",\"approach-retreat\",\"165\",\"1097534\",\"0.0-165.0\",\"\",\"\",\"2-2\",\"4111\",\"39\",\"1\",\"Testing\",\"Stims/Figures/19-C-20-4.bmp\",\"na:la:na\",\"Left\",\"39\",\"1\",\"17\",\"1\",\"S\",\"C\",\"17\"
\"\",\"\",\"approach-retreat\",\"166\",\"1103283\",\"0.0-166.0\",\"\",\"\",\"2-2\",\"4240\",\"38\",\"1\",\"Testing\",\"Stims/Figures/74-C-20-4.bmp\",\"na:la:na\",\"Down\",\"38\",\"1\",\"18\",\"1\",\"S\",\"C\",\"18\"
\"\",\"\",\"approach-retreat\",\"167\",\"1108835\",\"0.0-167.0\",\"\",\"\",\"2-2\",\"4036\",\"39\",\"1\",\"Testing\",\"Stims/Figures/87-C-20-4.bmp\",\"na:la:na\",\"Left\",\"39\",\"1\",\"19\",\"1\",\"S\",\"C\",\"19\"
\"\",\"\",\"approach-retreat\",\"168\",\"1114418\",\"0.0-168.0\",\"\",\"\",\"2-2\",\"4067\",\"38\",\"1\",\"Testing\",\"Stims/Figures/100-C-30-3.bmp\",\"na:la:na\",\"Down\",\"38\",\"1\",\"20\",\"1\",\"S\",\"C\",\"20\"
\"\",\"\",\"approach-retreat\",\"169\",\"1120180\",\"0.0-169.0\",\"\",\"\",\"2-2\",\"4251\",\"38\",\"1\",\"Testing\",\"Stims/Figures/74-J-10-4.bmp\",\"pakaka\",\"Up\",\"38\",\"1\",\"21\",\"1\",\"P\",\"C\",\"21\"
\"\",\"\",\"approach-retreat\",\"170\",\"1126023\",\"0.0-170.0\",\"\",\"\",\"2-2\",\"4333\",\"37\",\"1\",\"Testing\",\"Stims/Figures/93-C-30-1.bmp\",\"na:la:na\",\"Right\",\"37\",\"1\",\"22\",\"1\",\"S\",\"C\",\"22\"
\"\",\"\",\"approach-retreat\",\"171\",\"1131754\",\"0.0-171.0\",\"\",\"\",\"2-2\",\"4222\",\"39\",\"1\",\"Testing\",\"Stims/Figures/118-J-0-2.bmp\",\"pakaka\",\"Right\",\"39\",\"1\",\"23\",\"1\",\"P\",\"C\",\"23\"
\"\",\"\",\"approach-retreat\",\"172\",\"1137432\",\"0.0-172.0\",\"\",\"\",\"2-2\",\"4165\",\"39\",\"1\",\"Testing\",\"Stims/Figures/86-C-30-1.bmp\",\"na:la:na\",\"Left\",\"39\",\"1\",\"24\",\"1\",\"S\",\"C\",\"24\"
\"\",\"\",\"approach-retreat\",\"173\",\"1143261\",\"0.0-173.0\",\"\",\"\",\"2-2\",\"4315\",\"39\",\"1\",\"Testing\",\"Stims/Figures/93-C-30-1.bmp\",\"na:la:na\",\"Left\",\"39\",\"2\",\"1\",\"1\",\"S\",\"C\",\"25\"
\"\",\"\",\"approach-retreat\",\"174\",\"1148980\",\"0.0-174.0\",\"\",\"\",\"2-2\",\"4209\",\"38\",\"1\",\"Testing\",\"Stims/Figures/19-C-20-4.bmp\",\"na:la:na\",\"Down\",\"38\",\"2\",\"2\",\"1\",\"S\",\"C\",\"26\"
\"\",\"\",\"approach-retreat\",\"175\",\"1154847\",\"0.0-175.0\",\"\",\"\",\"2-2\",\"4348\",\"37\",\"1\",\"Testing\",\"Stims/Figures/144-J-10-3.bmp\",\"pakaka\",\"Left\",\"37\",\"2\",\"3\",\"1\",\"P\",\"C\",\"27\"
\"\",\"\",\"approach-retreat\",\"176\",\"1160688\",\"0.0-176.0\",\"\",\"\",\"2-2\",\"4330\",\"40\",\"1\",\"Testing\",\"Stims/Figures/44-C-30-3.bmp\",\"na:la:na\",\"Up\",\"40\",\"2\",\"4\",\"1\",\"S\",\"C\",\"28\"
\"\",\"\",\"approach-retreat\",\"177\",\"1166358\",\"0.0-177.0\",\"\",\"\",\"2-2\",\"4161\",\"38\",\"1\",\"Testing\",\"Stims/Figures/86-C-30-1.bmp\",\"na:la:na\",\"Down\",\"38\",\"2\",\"5\",\"1\",\"S\",\"C\",\"29\"
\"\",\"\",\"approach-retreat\",\"178\",\"1172410\",\"0.0-178.0\",\"\",\"\",\"2-2\",\"4543\",\"40\",\"1\",\"Testing\",\"Stims/Figures/57-C-30-1.bmp\",\"na:la:na\",\"Up\",\"40\",\"2\",\"6\",\"1\",\"S\",\"C\",\"30\"
\"\",\"\",\"approach-retreat\",\"179\",\"1178083\",\"0.0-179.0\",\"\",\"\",\"2-2\",\"4164\",\"39\",\"1\",\"Testing\",\"Stims/Figures/74-J-10-4.bmp\",\"pakaka\",\"Right\",\"39\",\"2\",\"7\",\"1\",\"P\",\"C\",\"31\"
\"\",\"\",\"approach-retreat\",\"180\",\"1184716\",\"0.0-180.0\",\"\",\"\",\"2-2\",\"5106\",\"38\",\"1\",\"Testing\",\"Stims/Figures/144-C-30-3.bmp\",\"na:la:na\",\"Down\",\"38\",\"2\",\"8\",\"1\",\"S\",\"C\",\"32\"
\"\",\"\",\"approach-retreat\",\"181\",\"1190906\",\"0.0-181.0\",\"\",\"\",\"2-2\",\"4683\",\"38\",\"1\",\"Testing\",\"Stims/Figures/87-J-10-4.bmp\",\"pakaka\",\"Up\",\"38\",\"2\",\"9\",\"1\",\"P\",\"C\",\"33\"
\"\",\"\",\"approach-retreat\",\"182\",\"1197690\",\"0.0-182.0\",\"\",\"\",\"2-2\",\"5275\",\"37\",\"1\",\"Testing\",\"Stims/Figures/118-C-20-2.bmp\",\"na:la:na\",\"Right\",\"37\",\"2\",\"10\",\"1\",\"S\",\"C\",\"34\"
\"\",\"\",\"approach-retreat\",\"183\",\"1203556\",\"0.0-183.0\",\"\",\"\",\"2-2\",\"4355\",\"40\",\"1\",\"Testing\",\"Stims/Figures/100-J-10-3.bmp\",\"pakaka\",\"Down\",\"40\",\"2\",\"11\",\"1\",\"P\",\"C\",\"35\"
\"\",\"\",\"approach-retreat\",\"184\",\"1209310\",\"0.0-184.0\",\"\",\"\",\"2-2\",\"4244\",\"39\",\"0\",\"Testing\",\"Stims/Figures/44-J-10-3.bmp\",\"pakaka\",\"Left\",\"37\",\"2\",\"12\",\"1\",\"P\",\"C\",\"36\"
\"\",\"\",\"approach-retreat\",\"185\",\"1214969\",\"0.0-185.0\",\"\",\"\",\"2-2\",\"4144\",\"37\",\"1\",\"Testing\",\"Stims/Figures/84-J-0-2.bmp\",\"pakaka\",\"Left\",\"37\",\"2\",\"13\",\"1\",\"P\",\"C\",\"37\"
\"\",\"\",\"approach-retreat\",\"186\",\"1220753\",\"0.0-186.0\",\"\",\"\",\"2-2\",\"4271\",\"37\",\"1\",\"Testing\",\"Stims/Figures/57-J-0-1.bmp\",\"pakaka\",\"Left\",\"37\",\"2\",\"14\",\"1\",\"P\",\"C\",\"38\"
\"\",\"\",\"approach-retreat\",\"187\",\"1226508\",\"0.0-187.0\",\"\",\"\",\"2-2\",\"4241\",\"38\",\"1\",\"Testing\",\"Stims/Figures/93-J-0-1.bmp\",\"pakaka\",\"Up\",\"38\",\"2\",\"15\",\"1\",\"P\",\"C\",\"39\"
\"\",\"\",\"approach-retreat\",\"188\",\"1232618\",\"0.0-188.0\",\"\",\"\",\"2-2\",\"4602\",\"40\",\"1\",\"Testing\",\"Stims/Figures/19-J-10-4.bmp\",\"pakaka\",\"Down\",\"40\",\"2\",\"16\",\"1\",\"P\",\"C\",\"40\"
\"\",\"\",\"approach-retreat\",\"189\",\"1238560\",\"0.0-189.0\",\"\",\"\",\"2-2\",\"4423\",\"37\",\"1\",\"Testing\",\"Stims/Figures/84-C-20-2.bmp\",\"na:la:na\",\"Right\",\"37\",\"2\",\"17\",\"1\",\"S\",\"C\",\"41\"
\"\",\"\",\"approach-retreat\",\"190\",\"1244167\",\"0.0-190.0\",\"\",\"\",\"2-2\",\"4092\",\"40\",\"1\",\"Testing\",\"Stims/Figures/94-C-20-2.bmp\",\"na:la:na\",\"Up\",\"40\",\"2\",\"18\",\"1\",\"S\",\"C\",\"42\"
\"\",\"\",\"approach-retreat\",\"191\",\"1250087\",\"0.0-191.0\",\"\",\"\",\"2-2\",\"4408\",\"37\",\"1\",\"Testing\",\"Stims/Figures/87-C-20-4.bmp\",\"na:la:na\",\"Right\",\"37\",\"2\",\"19\",\"1\",\"S\",\"C\",\"43\"
\"\",\"\",\"approach-retreat\",\"192\",\"1256052\",\"0.0-192.0\",\"\",\"\",\"2-2\",\"4454\",\"39\",\"1\",\"Testing\",\"Stims/Figures/118-J-0-2.bmp\",\"pakaka\",\"Right\",\"39\",\"2\",\"20\",\"1\",\"P\",\"C\",\"44\"
\"\",\"\",\"approach-retreat\",\"193\",\"1262794\",\"0.0-193.0\",\"\",\"\",\"2-2\",\"5230\",\"39\",\"1\",\"Testing\",\"Stims/Figures/86-J-0-1.bmp\",\"pakaka\",\"Right\",\"39\",\"2\",\"21\",\"1\",\"P\",\"C\",\"45\"
\"\",\"\",\"approach-retreat\",\"194\",\"1268886\",\"0.0-194.0\",\"\",\"\",\"2-2\",\"4585\",\"40\",\"1\",\"Testing\",\"Stims/Figures/74-C-20-4.bmp\",\"na:la:na\",\"Up\",\"40\",\"2\",\"22\",\"1\",\"S\",\"C\",\"46\"
\"\",\"\",\"approach-retreat\",\"195\",\"1276916\",\"0.0-195.0\",\"\",\"\",\"2-2\",\"6520\",\"38\",\"1\",\"Testing\",\"Stims/Figures/100-C-30-3.bmp\",\"na:la:na\",\"Down\",\"38\",\"2\",\"23\",\"1\",\"S\",\"C\",\"47\"
\"\",\"\",\"approach-retreat\",\"196\",\"1282788\",\"0.0-196.0\",\"\",\"\",\"2-2\",\"4335\",\"37\",\"1\",\"Testing\",\"Stims/Figures/94-J-0-2.bmp\",\"pakaka\",\"Left\",\"37\",\"2\",\"24\",\"1\",\"P\",\"C\",\"48\"
\"\",\"\",\"approach-retreat\",\"197\",\"1288735\",\"0.0-197.0\",\"\",\"\",\"2-2\",\"4439\",\"39\",\"1\",\"Testing\",\"Stims/Figures/84-C-20-2.bmp\",\"na:la:na\",\"Left\",\"39\",\"3\",\"1\",\"1\",\"S\",\"C\",\"49\"
\"\",\"\",\"approach-retreat\",\"198\",\"1294433\",\"0.0-198.0\",\"\",\"\",\"2-2\",\"4185\",\"37\",\"1\",\"Testing\",\"Stims/Figures/74-J-10-4.bmp\",\"pakaka\",\"Left\",\"37\",\"3\",\"2\",\"1\",\"P\",\"C\",\"50\"
\"\",\"\",\"approach-retreat\",\"199\",\"1300283\",\"0.0-199.0\",\"\",\"\",\"2-2\",\"4341\",\"38\",\"1\",\"Testing\",\"Stims/Figures/100-J-10-3.bmp\",\"pakaka\",\"Up\",\"38\",\"3\",\"3\",\"1\",\"P\",\"C\",\"51\"
\"\",\"\",\"approach-retreat\",\"200\",\"1305928\",\"0.0-200.0\",\"\",\"\",\"2-2\",\"4131\",\"39\",\"1\",\"Testing\",\"Stims/Figures/84-J-0-2.bmp\",\"pakaka\",\"Right\",\"39\",\"3\",\"4\",\"1\",\"P\",\"C\",\"52\"
\"\",\"\",\"approach-retreat\",\"201\",\"1312386\",\"0.0-201.0\",\"\",\"\",\"2-2\",\"4950\",\"38\",\"1\",\"Testing\",\"Stims/Figures/74-C-20-4.bmp\",\"na:la:na\",\"Down\",\"38\",\"3\",\"5\",\"1\",\"S\",\"C\",\"53\"
\"\",\"\",\"approach-retreat\",\"202\",\"1317980\",\"0.0-202.0\",\"\",\"\",\"2-2\",\"4085\",\"39\",\"1\",\"Testing\",\"Stims/Figures/118-J-0-2.bmp\",\"pakaka\",\"Right\",\"39\",\"3\",\"6\",\"1\",\"P\",\"C\",\"54\"
\"\",\"\",\"approach-retreat\",\"203\",\"1323909\",\"0.0-203.0\",\"\",\"\",\"2-2\",\"4419\",\"38\",\"1\",\"Testing\",\"Stims/Figures/86-J-0-1.bmp\",\"pakaka\",\"Up\",\"38\",\"3\",\"7\",\"1\",\"P\",\"C\",\"55\"
\"\",\"\",\"approach-retreat\",\"204\",\"1329542\",\"0.0-204.0\",\"\",\"\",\"2-2\",\"4117\",\"38\",\"1\",\"Testing\",\"Stims/Figures/44-C-30-3.bmp\",\"na:la:na\",\"Down\",\"38\",\"3\",\"8\",\"1\",\"S\",\"C\",\"56\"
\"\",\"\",\"approach-retreat\",\"205\",\"1335580\",\"0.0-205.0\",\"\",\"\",\"2-2\",\"4528\",\"40\",\"1\",\"Testing\",\"Stims/Figures/144-C-30-3.bmp\",\"na:la:na\",\"Up\",\"40\",\"3\",\"9\",\"1\",\"S\",\"C\",\"57\"
\"\",\"\",\"approach-retreat\",\"206\",\"1341347\",\"0.0-206.0\",\"\",\"\",\"2-2\",\"4254\",\"39\",\"1\",\"Testing\",\"Stims/Figures/57-C-30-1.bmp\",\"na:la:na\",\"Left\",\"39\",\"3\",\"10\",\"1\",\"S\",\"C\",\"58\"
\"\",\"\",\"approach-retreat\",\"207\",\"1347156\",\"0.0-207.0\",\"\",\"\",\"2-2\",\"4298\",\"37\",\"1\",\"Testing\",\"Stims/Figures/87-J-10-4.bmp\",\"pakaka\",\"Left\",\"37\",\"3\",\"11\",\"1\",\"P\",\"C\",\"59\"
\"\",\"\",\"approach-retreat\",\"208\",\"1352837\",\"0.0-208.0\",\"\",\"\",\"2-2\",\"4172\",\"39\",\"0\",\"Testing\",\"Stims/Figures/44-J-10-3.bmp\",\"pakaka\",\"Left\",\"37\",\"3\",\"12\",\"1\",\"P\",\"C\",\"60\"
\"\",\"\",\"approach-retreat\",\"209\",\"1359477\",\"0.0-209.0\",\"\",\"\",\"2-2\",\"5129\",\"38\",\"1\",\"Testing\",\"Stims/Figures/57-J-0-1.bmp\",\"pakaka\",\"Up\",\"38\",\"3\",\"13\",\"1\",\"P\",\"C\",\"61\"
\"\",\"\",\"approach-retreat\",\"210\",\"1365275\",\"0.0-210.0\",\"\",\"\",\"2-2\",\"4283\",\"39\",\"1\",\"Testing\",\"Stims/Figures/118-C-20-2.bmp\",\"na:la:na\",\"Left\",\"39\",\"3\",\"14\",\"1\",\"S\",\"C\",\"62\"
\"\",\"\",\"approach-retreat\",\"211\",\"1371088\",\"0.0-211.0\",\"\",\"\",\"2-2\",\"4305\",\"37\",\"1\",\"Testing\",\"Stims/Figures/86-C-30-1.bmp\",\"na:la:na\",\"Right\",\"37\",\"3\",\"15\",\"1\",\"S\",\"C\",\"63\"
\"\",\"\",\"approach-retreat\",\"212\",\"1376740\",\"0.0-212.0\",\"\",\"\",\"2-2\",\"4140\",\"39\",\"1\",\"Testing\",\"Stims/Figures/93-J-0-1.bmp\",\"pakaka\",\"Right\",\"39\",\"3\",\"16\",\"1\",\"P\",\"C\",\"64\"
\"\",\"\",\"approach-retreat\",\"213\",\"1383000\",\"0.0-213.0\",\"\",\"\",\"2-2\",\"4750\",\"37\",\"1\",\"Testing\",\"Stims/Figures/100-C-30-3.bmp\",\"na:la:na\",\"Right\",\"37\",\"3\",\"17\",\"1\",\"S\",\"C\",\"65\"
\"\",\"\",\"approach-retreat\",\"214\",\"1391141\",\"0.0-214.0\",\"\",\"\",\"2-2\",\"6632\",\"40\",\"0\",\"Testing\",\"Stims/Figures/19-J-10-4.bmp\",\"pakaka\",\"Up\",\"38\",\"3\",\"18\",\"1\",\"P\",\"C\",\"66\"
\"\",\"\",\"approach-retreat\",\"215\",\"1396893\",\"0.0-215.0\",\"\",\"\",\"2-2\",\"4243\",\"40\",\"1\",\"Testing\",\"Stims/Figures/94-J-0-2.bmp\",\"pakaka\",\"Down\",\"40\",\"3\",\"19\",\"1\",\"P\",\"C\",\"67\"
\"\",\"\",\"approach-retreat\",\"216\",\"1402486\",\"0.0-216.0\",\"\",\"\",\"2-2\",\"4084\",\"40\",\"1\",\"Testing\",\"Stims/Figures/87-C-20-4.bmp\",\"na:la:na\",\"Up\",\"40\",\"3\",\"20\",\"1\",\"S\",\"C\",\"68\"
\"\",\"\",\"approach-retreat\",\"217\",\"1408478\",\"0.0-217.0\",\"\",\"\",\"2-2\",\"4465\",\"38\",\"1\",\"Testing\",\"Stims/Figures/93-C-30-1.bmp\",\"na:la:na\",\"Down\",\"38\",\"3\",\"21\",\"1\",\"S\",\"C\",\"69\"
\"\",\"\",\"approach-retreat\",\"218\",\"1414142\",\"0.0-218.0\",\"\",\"\",\"2-2\",\"4154\",\"38\",\"1\",\"Testing\",\"Stims/Figures/19-C-20-4.bmp\",\"na:la:na\",\"Down\",\"38\",\"3\",\"22\",\"1\",\"S\",\"C\",\"70\"
\"\",\"\",\"approach-retreat\",\"219\",\"1422425\",\"0.0-219.0\",\"\",\"\",\"2-2\",\"6775\",\"39\",\"1\",\"Testing\",\"Stims/Figures/144-J-10-3.bmp\",\"pakaka\",\"Right\",\"39\",\"3\",\"23\",\"1\",\"P\",\"C\",\"71\"
\"\",\"\",\"approach-retreat\",\"220\",\"1428001\",\"0.0-220.0\",\"\",\"\",\"2-2\",\"4065\",\"38\",\"1\",\"Testing\",\"Stims/Figures/94-C-20-2.bmp\",\"na:la:na\",\"Down\",\"38\",\"3\",\"24\",\"1\",\"S\",\"C\",\"72\"
\"\",\"\",\"approach-retreat\",\"221\",\"1434892\",\"0.0-221.0\",\"\",\"\",\"2-2\",\"5381\",\"38\",\"0\",\"Testing\",\"Stims/Figures/87-C-20-4.bmp\",\"na:la:na\",\"Up\",\"40\",\"4\",\"1\",\"1\",\"S\",\"C\",\"73\"
\"\",\"\",\"approach-retreat\",\"222\",\"1440671\",\"0.0-222.0\",\"\",\"\",\"2-2\",\"4262\",\"40\",\"1\",\"Testing\",\"Stims/Figures/44-C-30-3.bmp\",\"na:la:na\",\"Up\",\"40\",\"4\",\"2\",\"1\",\"S\",\"C\",\"74\"
\"\",\"\",\"approach-retreat\",\"223\",\"1446803\",\"0.0-223.0\",\"\",\"\",\"2-2\",\"4624\",\"38\",\"0\",\"Testing\",\"Stims/Figures/87-J-10-4.bmp\",\"pakaka\",\"Down\",\"40\",\"4\",\"3\",\"1\",\"P\",\"C\",\"75\"
\"\",\"\",\"approach-retreat\",\"224\",\"1452490\",\"0.0-224.0\",\"\",\"\",\"2-2\",\"4177\",\"40\",\"1\",\"Testing\",\"Stims/Figures/144-C-30-3.bmp\",\"na:la:na\",\"Up\",\"40\",\"4\",\"4\",\"1\",\"S\",\"C\",\"76\"
\"\",\"\",\"approach-retreat\",\"225\",\"1458178\",\"0.0-225.0\",\"\",\"\",\"2-2\",\"4177\",\"37\",\"1\",\"Testing\",\"Stims/Figures/84-C-20-2.bmp\",\"na:la:na\",\"Right\",\"37\",\"4\",\"5\",\"1\",\"S\",\"C\",\"77\"
\"\",\"\",\"approach-retreat\",\"226\",\"1463909\",\"0.0-226.0\",\"\",\"\",\"2-2\",\"4221\",\"40\",\"1\",\"Testing\",\"Stims/Figures/94-C-20-2.bmp\",\"na:la:na\",\"Up\",\"40\",\"4\",\"6\",\"1\",\"S\",\"C\",\"78\"
\"\",\"\",\"approach-retreat\",\"227\",\"1469561\",\"0.0-227.0\",\"\",\"\",\"2-2\",\"4144\",\"40\",\"1\",\"Testing\",\"Stims/Figures/94-J-0-2.bmp\",\"pakaka\",\"Down\",\"40\",\"4\",\"7\",\"1\",\"P\",\"C\",\"79\"
\"\",\"\",\"approach-retreat\",\"228\",\"1475798\",\"0.0-228.0\",\"\",\"\",\"2-2\",\"4730\",\"39\",\"1\",\"Testing\",\"Stims/Figures/100-C-30-3.bmp\",\"na:la:na\",\"Left\",\"39\",\"4\",\"8\",\"1\",\"S\",\"C\",\"80\"
\"\",\"\",\"approach-retreat\",\"229\",\"1481365\",\"0.0-229.0\",\"\",\"\",\"2-2\",\"4055\",\"40\",\"1\",\"Testing\",\"Stims/Figures/19-J-10-4.bmp\",\"pakaka\",\"Down\",\"40\",\"4\",\"9\",\"1\",\"P\",\"C\",\"81\"
\"\",\"\",\"approach-retreat\",\"230\",\"1487197\",\"0.0-230.0\",\"\",\"\",\"2-2\",\"4322\",\"38\",\"1\",\"Testing\",\"Stims/Figures/57-C-30-1.bmp\",\"na:la:na\",\"Down\",\"38\",\"4\",\"10\",\"1\",\"S\",\"C\",\"82\"
\"\",\"\",\"approach-retreat\",\"231\",\"1492808\",\"0.0-231.0\",\"\",\"\",\"2-2\",\"4101\",\"39\",\"1\",\"Testing\",\"Stims/Figures/93-J-0-1.bmp\",\"pakaka\",\"Right\",\"39\",\"4\",\"11\",\"1\",\"P\",\"C\",\"83\"
\"\",\"\",\"approach-retreat\",\"232\",\"1498404\",\"0.0-232.0\",\"\",\"\",\"2-2\",\"4088\",\"39\",\"1\",\"Testing\",\"Stims/Figures/74-C-20-4.bmp\",\"na:la:na\",\"Left\",\"39\",\"4\",\"12\",\"1\",\"S\",\"C\",\"84\"
\"\",\"\",\"approach-retreat\",\"233\",\"1504026\",\"0.0-233.0\",\"\",\"\",\"2-2\",\"4112\",\"37\",\"1\",\"Testing\",\"Stims/Figures/118-J-0-2.bmp\",\"pakaka\",\"Left\",\"37\",\"4\",\"13\",\"1\",\"P\",\"C\",\"85\"
\"\",\"\",\"approach-retreat\",\"234\",\"1509724\",\"0.0-234.0\",\"\",\"\",\"2-2\",\"4188\",\"39\",\"1\",\"Testing\",\"Stims/Figures/19-C-20-4.bmp\",\"na:la:na\",\"Left\",\"39\",\"4\",\"14\",\"1\",\"S\",\"C\",\"86\"
\"\",\"\",\"approach-retreat\",\"235\",\"1515386\",\"0.0-235.0\",\"\",\"\",\"2-2\",\"4152\",\"38\",\"1\",\"Testing\",\"Stims/Figures/93-C-30-1.bmp\",\"na:la:na\",\"Down\",\"38\",\"4\",\"15\",\"1\",\"S\",\"C\",\"87\"
\"\",\"\",\"approach-retreat\",\"236\",\"1520973\",\"0.0-236.0\",\"\",\"\",\"2-2\",\"4074\",\"37\",\"1\",\"Testing\",\"Stims/Figures/86-J-0-1.bmp\",\"pakaka\",\"Left\",\"37\",\"4\",\"16\",\"1\",\"P\",\"C\",\"88\"
\"\",\"\",\"approach-retreat\",\"237\",\"1528122\",\"0.0-237.0\",\"\",\"\",\"2-2\",\"5638\",\"38\",\"1\",\"Testing\",\"Stims/Figures/118-C-20-2.bmp\",\"na:la:na\",\"Down\",\"38\",\"4\",\"17\",\"1\",\"S\",\"C\",\"89\"
\"\",\"\",\"approach-retreat\",\"238\",\"1534015\",\"0.0-238.0\",\"\",\"\",\"2-2\",\"4385\",\"39\",\"1\",\"Testing\",\"Stims/Figures/57-J-0-1.bmp\",\"pakaka\",\"Right\",\"39\",\"4\",\"18\",\"1\",\"P\",\"C\",\"90\"
\"\",\"\",\"approach-retreat\",\"239\",\"1539993\",\"0.0-239.0\",\"\",\"\",\"2-2\",\"4463\",\"38\",\"1\",\"Testing\",\"Stims/Figures/74-J-10-4.bmp\",\"pakaka\",\"Up\",\"38\",\"4\",\"19\",\"1\",\"P\",\"C\",\"91\"
\"\",\"\",\"approach-retreat\",\"240\",\"1545577\",\"0.0-240.0\",\"\",\"\",\"2-2\",\"4075\",\"39\",\"1\",\"Testing\",\"Stims/Figures/100-J-10-3.bmp\",\"pakaka\",\"Right\",\"39\",\"4\",\"20\",\"1\",\"P\",\"C\",\"92\"
\"\",\"\",\"approach-retreat\",\"241\",\"1551452\",\"0.0-241.0\",\"\",\"\",\"2-2\",\"4365\",\"39\",\"1\",\"Testing\",\"Stims/Figures/86-C-30-1.bmp\",\"na:la:na\",\"Left\",\"39\",\"4\",\"21\",\"1\",\"S\",\"C\",\"93\"
\"\",\"\",\"approach-retreat\",\"242\",\"1557705\",\"0.0-242.0\",\"\",\"\",\"2-2\",\"4745\",\"39\",\"1\",\"Testing\",\"Stims/Figures/84-J-0-2.bmp\",\"pakaka\",\"Right\",\"39\",\"4\",\"22\",\"1\",\"P\",\"C\",\"94\"
\"\",\"\",\"approach-retreat\",\"243\",\"1563885\",\"0.0-243.0\",\"\",\"\",\"2-2\",\"4667\",\"37\",\"0\",\"Testing\",\"Stims/Figures/44-J-10-3.bmp\",\"pakaka\",\"Right\",\"39\",\"4\",\"23\",\"1\",\"P\",\"C\",\"95\"
\"\",\"\",\"approach-retreat\",\"244\",\"1569836\",\"0.0-244.0\",\"\",\"\",\"2-2\",\"4423\",\"38\",\"1\",\"Testing\",\"Stims/Figures/144-J-10-3.bmp\",\"pakaka\",\"Up\",\"38\",\"4\",\"24\",\"1\",\"P\",\"C\",\"96\"
\"20618\",\"\",\"survey-text\",\"245\",\"1590479\",\"0.0-245.0\",\"\",\"{\"\"Q0\"\":\"\"PS170017\"\"}\",\"\",\"\",\"\",\"\",\"\",\"\",\"\",\"\",\"\",\"\",\"\",\"\",\"\",\"\",\"\"
