"rt","key_press","trial_type","trial_index","time_elapsed","internal_node_id","view_history","responses","Id","Rt","ResKeyCode","ResCorr","TrialType2","Image","Label","Location","CorrectResponse","Block","BlockTrial","Condition","LabelType","Subcondition","trialNum"
"55196","32","text","0","55202","0.0-0.0-0.0","","","","","","","","","","","","","","","","",""
"402941","","instructions","1","458147","0.0-1.0","[{""page_index"":0,""viewing_time"":402940}]","","","","","","","","","","","","","","","",""
"70710","","survey-multi-choice","2","528902","0.0-2.0","","{""Q0"":""Da"",""Q1"":""Da"",""Q2"":""Da"",""Q3"":""Da"",""Q4"":""Da"",""Q5"":""Da""}","","","","","","","","","","","","","","",""
"","","bio","3","568780","0.0-3.0","","{""age"":""19"",""gender"":""f"",""specify"":""""}","","","","","","","","","","","","","","",""
"","","approach-retreat","4","588118","0.0-4.0","","","1-2","17818","39","0","Training","Stims/Figures/71-C-30-1.bmp","nala:na","Right","37","1","1","1","S","C","1"
"","","approach-retreat","5","595792","0.0-5.0","","","1-2","6160","38","0","Training","Stims/Figures/71-J-0-1.bmp","tapaka","Down","40","1","2","1","P","C","2"
"","","approach-retreat","6","604511","0.0-6.0","","","1-2","7207","39","1","Training","Stims/Figures/74-C-20-4.bmp","nala:na","Left","39","1","3","1","S","C","3"
"","","approach-retreat","7","611485","0.0-7.0","","","1-2","5462","37","1","Training","Stims/Figures/87-C-20-4.bmp","nala:na","Right","37","1","4","1","S","C","4"
"","","approach-retreat","8","622916","0.0-8.0","","","1-2","9916","37","1","Training","Stims/Figures/87-J-10-4.bmp","tapaka","Left","37","1","5","1","P","C","5"
"","","approach-retreat","9","630520","0.0-9.0","","","1-2","6093","40","0","Training","Stims/Figures/84-J-0-2.bmp","tapaka","Up","38","1","6","1","P","C","6"
"","","approach-retreat","10","639479","0.0-10.0","","","1-2","7449","40","1","Training","Stims/Figures/144-J-10-3.bmp","tapaka","Down","40","1","7","1","P","C","7"
"","","approach-retreat","11","647070","0.0-11.0","","","1-2","6078","37","1","Training","Stims/Figures/100-J-10-3.bmp","tapaka","Left","37","1","8","1","P","C","8"
"","","approach-retreat","12","652866","0.0-12.0","","","1-2","4284","38","1","Training","Stims/Figures/27-C-30-1.bmp","nala:na","Down","38","1","9","1","S","C","9"
"","","approach-retreat","13","658949","0.0-13.0","","","1-2","4570","40","1","Training","Stims/Figures/74-J-10-4.bmp","tapaka","Down","40","1","10","1","P","C","10"
"","","approach-retreat","14","669118","0.0-14.0","","","1-2","8657","37","0","Training","Stims/Figures/94-C-20-2.bmp","nala:na","Left","39","1","11","1","S","C","11"
"","","approach-retreat","15","675449","0.0-15.0","","","1-2","4820","38","1","Training","Stims/Figures/27-J-0-1.bmp","tapaka","Up","38","1","12","1","P","C","12"
"","","approach-retreat","16","681710","0.0-16.0","","","1-2","4748","39","1","Training","Stims/Figures/94-J-0-2.bmp","tapaka","Right","39","1","13","1","P","C","13"
"","","approach-retreat","17","687830","0.0-17.0","","","1-2","4608","37","1","Training","Stims/Figures/84-C-20-2.bmp","nala:na","Right","37","1","14","1","S","C","14"
"","","approach-retreat","18","694522","0.0-18.0","","","1-2","5180","40","1","Training","Stims/Figures/144-C-30-3.bmp","nala:na","Up","40","1","15","1","S","C","15"
"","","approach-retreat","19","700216","0.0-19.0","","","1-2","4182","40","1","Training","Stims/Figures/100-C-30-3.bmp","nala:na","Up","40","1","16","1","S","C","16"
"","","approach-retreat","20","706153","0.0-20.0","","","1-2","4424","40","1","Training","Stims/Figures/144-C-30-3.bmp","nala:na","Up","40","2","1","1","S","C","17"
"","","approach-retreat","21","711868","0.0-21.0","","","1-2","4203","40","1","Training","Stims/Figures/84-C-20-2.bmp","nala:na","Up","40","2","2","1","S","C","18"
"","","approach-retreat","22","718334","0.0-22.0","","","1-2","4954","37","1","Training","Stims/Figures/74-J-10-4.bmp","tapaka","Left","37","2","3","1","P","C","19"
"","","approach-retreat","23","724783","0.0-23.0","","","1-2","4937","38","1","Training","Stims/Figures/27-C-30-1.bmp","nala:na","Down","38","2","4","1","S","C","20"
"","","approach-retreat","24","730892","0.0-24.0","","","1-2","4599","40","1","Training","Stims/Figures/144-J-10-3.bmp","tapaka","Down","40","2","5","1","P","C","21"
"","","approach-retreat","25","738760","0.0-25.0","","","1-2","6355","39","1","Training","Stims/Figures/27-J-0-1.bmp","tapaka","Right","39","2","6","1","P","C","22"
"","","approach-retreat","26","744888","0.0-26.0","","","1-2","4617","37","1","Training","Stims/Figures/100-C-30-3.bmp","nala:na","Right","37","2","7","1","S","C","23"
"","","approach-retreat","27","751224","0.0-27.0","","","1-2","4823","39","1","Training","Stims/Figures/71-J-0-1.bmp","tapaka","Right","39","2","8","1","P","C","24"
"","","approach-retreat","28","757320","0.0-28.0","","","1-2","4585","37","1","Training","Stims/Figures/87-J-10-4.bmp","tapaka","Left","37","2","9","1","P","C","25"
"","","approach-retreat","29","764487","0.0-29.0","","","1-2","5655","38","1","Training","Stims/Figures/94-C-20-2.bmp","nala:na","Down","38","2","10","1","S","C","26"
"","","approach-retreat","30","771097","0.0-30.0","","","1-2","5101","39","1","Training","Stims/Figures/87-C-20-4.bmp","nala:na","Left","39","2","11","1","S","C","27"
"","","approach-retreat","31","777232","0.0-31.0","","","1-2","4621","40","1","Training","Stims/Figures/74-C-20-4.bmp","nala:na","Up","40","2","12","1","S","C","28"
"","","approach-retreat","32","783334","0.0-32.0","","","1-2","4587","37","1","Training","Stims/Figures/100-J-10-3.bmp","tapaka","Left","37","2","13","1","P","C","29"
"","","approach-retreat","33","789966","0.0-33.0","","","1-2","5120","38","1","Training","Stims/Figures/94-J-0-2.bmp","tapaka","Up","38","2","14","1","P","C","30"
"","","approach-retreat","34","796327","0.0-34.0","","","1-2","4848","39","1","Training","Stims/Figures/84-J-0-2.bmp","tapaka","Right","39","2","15","1","P","C","31"
"","","approach-retreat","35","803296","0.0-35.0","","","1-2","5457","38","1","Training","Stims/Figures/71-C-30-1.bmp","nala:na","Down","38","2","16","1","S","C","32"
"","","approach-retreat","36","810143","0.0-36.0","","","1-2","5337","40","1","Training","Stims/Figures/100-J-10-3.bmp","tapaka","Down","40","3","1","1","P","C","33"
"","","approach-retreat","37","816255","0.0-37.0","","","1-2","4600","40","1","Training","Stims/Figures/84-J-0-2.bmp","tapaka","Down","40","3","2","1","P","C","34"
"","","approach-retreat","38","822560","0.0-38.0","","","1-2","4792","39","1","Training","Stims/Figures/87-J-10-4.bmp","tapaka","Right","39","3","3","1","P","C","35"
"","","approach-retreat","39","828611","0.0-39.0","","","1-2","4537","40","1","Training","Stims/Figures/94-C-20-2.bmp","nala:na","Up","40","3","4","1","S","C","36"
"","","approach-retreat","40","834794","0.0-40.0","","","1-2","4673","40","1","Training","Stims/Figures/87-C-20-4.bmp","nala:na","Up","40","3","5","1","S","C","37"
"","","approach-retreat","41","840844","0.0-41.0","","","1-2","4539","37","1","Training","Stims/Figures/74-C-20-4.bmp","nala:na","Right","37","3","6","1","S","C","38"
"","","approach-retreat","42","847280","0.0-42.0","","","1-2","4925","38","1","Training","Stims/Figures/144-C-30-3.bmp","nala:na","Down","38","3","7","1","S","C","39"
"","","approach-retreat","43","853682","0.0-43.0","","","1-2","4891","37","1","Training","Stims/Figures/94-J-0-2.bmp","tapaka","Left","37","3","8","1","P","C","40"
"","","approach-retreat","44","860654","0.0-44.0","","","1-2","5459","39","1","Training","Stims/Figures/71-C-30-1.bmp","nala:na","Left","39","3","9","1","S","C","41"
"","","approach-retreat","45","867075","0.0-45.0","","","1-2","4910","38","1","Training","Stims/Figures/71-J-0-1.bmp","tapaka","Up","38","3","10","1","P","C","42"
"","","approach-retreat","46","873398","0.0-46.0","","","1-2","4812","39","1","Training","Stims/Figures/144-J-10-3.bmp","tapaka","Right","39","3","11","1","P","C","43"
"","","approach-retreat","47","879752","0.0-47.0","","","1-2","4843","37","1","Training","Stims/Figures/74-J-10-4.bmp","tapaka","Left","37","3","12","1","P","C","44"
"","","approach-retreat","48","888298","0.0-48.0","","","1-2","7035","39","1","Training","Stims/Figures/27-J-0-1.bmp","tapaka","Right","39","3","13","1","P","C","45"
"","","approach-retreat","49","894938","0.0-49.0","","","1-2","5128","40","1","Training","Stims/Figures/100-C-30-3.bmp","nala:na","Up","40","3","14","1","S","C","46"
"","","approach-retreat","50","901224","0.0-50.0","","","1-2","4775","39","1","Training","Stims/Figures/27-C-30-1.bmp","nala:na","Left","39","3","15","1","S","C","47"
"","","approach-retreat","51","907886","0.0-51.0","","","1-2","5151","38","1","Training","Stims/Figures/84-C-20-2.bmp","nala:na","Down","38","3","16","1","S","C","48"
"","","approach-retreat","52","914284","0.0-52.0","","","1-2","4884","37","1","Training","Stims/Figures/87-C-20-4.bmp","nala:na","Right","37","4","1","1","S","C","49"
"","","approach-retreat","53","920975","0.0-53.0","","","1-2","5179","39","1","Training","Stims/Figures/144-C-30-3.bmp","nala:na","Left","39","4","2","1","S","C","50"
"","","approach-retreat","54","927071","0.0-54.0","","","1-2","4584","39","1","Training","Stims/Figures/94-J-0-2.bmp","tapaka","Right","39","4","3","1","P","C","51"
"","","approach-retreat","55","934911","0.0-55.0","","","1-2","6330","40","1","Training","Stims/Figures/87-J-10-4.bmp","tapaka","Down","40","4","4","1","P","C","52"
"","","approach-retreat","56","941462","0.0-56.0","","","1-2","5038","40","1","Training","Stims/Figures/144-J-10-3.bmp","tapaka","Down","40","4","5","1","P","C","53"
"","","approach-retreat","57","948304","0.0-57.0","","","1-2","5330","40","1","Training","Stims/Figures/84-C-20-2.bmp","nala:na","Up","40","4","6","1","S","C","54"
"","","approach-retreat","58","954731","0.0-58.0","","","1-2","4914","37","1","Training","Stims/Figures/27-C-30-1.bmp","nala:na","Right","37","4","7","1","S","C","55"
"","","approach-retreat","59","961028","0.0-59.0","","","1-2","4785","38","1","Training","Stims/Figures/84-J-0-2.bmp","tapaka","Up","38","4","8","1","P","C","56"
"","","approach-retreat","60","967582","0.0-60.0","","","1-2","5043","39","1","Training","Stims/Figures/71-C-30-1.bmp","nala:na","Left","39","4","9","1","S","C","57"
"","","approach-retreat","61","974097","0.0-61.0","","","1-2","5004","38","1","Training","Stims/Figures/100-J-10-3.bmp","tapaka","Up","38","4","10","1","P","C","58"
"","","approach-retreat","62","980633","0.0-62.0","","","1-2","5024","38","1","Training","Stims/Figures/100-C-30-3.bmp","nala:na","Down","38","4","11","1","S","C","59"
"","","approach-retreat","63","987431","0.0-63.0","","","1-2","5285","39","1","Training","Stims/Figures/71-J-0-1.bmp","tapaka","Right","39","4","12","1","P","C","60"
"","","approach-retreat","64","993787","0.0-64.0","","","1-2","4847","39","1","Training","Stims/Figures/94-C-20-2.bmp","nala:na","Left","39","4","13","1","S","C","61"
"","","approach-retreat","65","1000286","0.0-65.0","","","1-2","4986","39","1","Training","Stims/Figures/74-C-20-4.bmp","nala:na","Left","39","4","14","1","S","C","62"
"","","approach-retreat","66","1006781","0.0-66.0","","","1-2","4983","38","1","Training","Stims/Figures/27-J-0-1.bmp","tapaka","Up","38","4","15","1","P","C","63"
"","","approach-retreat","67","1013232","0.0-67.0","","","1-2","4940","40","1","Training","Stims/Figures/74-J-10-4.bmp","tapaka","Down","40","4","16","1","P","C","64"
"","","approach-retreat","68","1019976","0.0-68.0","","","1-2","5231","37","1","Training","Stims/Figures/71-J-0-1.bmp","tapaka","Left","37","5","1","1","P","C","65"
"","","approach-retreat","69","1026238","0.0-69.0","","","1-2","4750","38","1","Training","Stims/Figures/87-C-20-4.bmp","nala:na","Down","38","5","2","1","S","C","66"
"","","approach-retreat","70","1032496","0.0-70.0","","","1-2","4747","37","1","Training","Stims/Figures/74-C-20-4.bmp","nala:na","Right","37","5","3","1","S","C","67"
"","","approach-retreat","71","1039222","0.0-71.0","","","1-2","5214","39","1","Training","Stims/Figures/94-C-20-2.bmp","nala:na","Left","39","5","4","1","S","C","68"
"","","approach-retreat","72","1045589","0.0-72.0","","","1-2","4855","38","1","Training","Stims/Figures/27-J-0-1.bmp","tapaka","Up","38","5","5","1","P","C","69"
"","","approach-retreat","73","1051901","0.0-73.0","","","1-2","4801","37","1","Training","Stims/Figures/100-C-30-3.bmp","nala:na","Right","37","5","6","1","S","C","70"
"","","approach-retreat","74","1058318","0.0-74.0","","","1-2","4906","38","1","Training","Stims/Figures/74-J-10-4.bmp","tapaka","Up","38","5","7","1","P","C","71"
"","","approach-retreat","75","1067393","0.0-75.0","","","1-2","7561","37","1","Training","Stims/Figures/27-C-30-1.bmp","nala:na","Right","37","5","8","1","S","C","72"
"","","approach-retreat","76","1073851","0.0-76.0","","","1-2","4947","37","1","Training","Stims/Figures/144-J-10-3.bmp","tapaka","Left","37","5","9","1","P","C","73"
"","","approach-retreat","77","1080468","0.0-77.0","","","1-2","5105","38","1","Training","Stims/Figures/100-J-10-3.bmp","tapaka","Up","38","5","10","1","P","C","74"
"","","approach-retreat","78","1087009","0.0-78.0","","","1-2","5030","40","1","Training","Stims/Figures/87-J-10-4.bmp","tapaka","Down","40","5","11","1","P","C","75"
"","","approach-retreat","79","1093573","0.0-79.0","","","1-2","5051","39","1","Training","Stims/Figures/71-C-30-1.bmp","nala:na","Left","39","5","12","1","S","C","76"
"","","approach-retreat","80","1099968","0.0-80.0","","","1-2","4882","40","1","Training","Stims/Figures/94-J-0-2.bmp","tapaka","Down","40","5","13","1","P","C","77"
"","","approach-retreat","81","1107714","0.0-81.0","","","1-2","6234","37","1","Training","Stims/Figures/84-C-20-2.bmp","nala:na","Right","37","5","14","1","S","C","78"
"","","approach-retreat","82","1114281","0.0-82.0","","","1-2","5057","40","1","Training","Stims/Figures/84-J-0-2.bmp","tapaka","Down","40","5","15","1","P","C","79"
"","","approach-retreat","83","1120580","0.0-83.0","","","1-2","4787","40","1","Training","Stims/Figures/144-C-30-3.bmp","nala:na","Up","40","5","16","1","S","C","80"
"","","approach-retreat","84","1126842","0.0-84.0","","","1-2","4751","40","1","Training","Stims/Figures/87-C-20-4.bmp","nala:na","Up","40","6","1","1","S","C","81"
"","","approach-retreat","85","1132961","0.0-85.0","","","1-2","4608","40","1","Training","Stims/Figures/94-J-0-2.bmp","tapaka","Down","40","6","2","1","P","C","82"
"","","approach-retreat","86","1139089","0.0-86.0","","","1-2","4616","40","1","Training","Stims/Figures/74-J-10-4.bmp","tapaka","Down","40","6","3","1","P","C","83"
"","","approach-retreat","87","1145317","0.0-87.0","","","1-2","4717","37","1","Training","Stims/Figures/100-J-10-3.bmp","tapaka","Left","37","6","4","1","P","C","84"
"","","approach-retreat","88","1151781","0.0-88.0","","","1-2","4947","39","1","Training","Stims/Figures/71-C-30-1.bmp","nala:na","Left","39","6","5","1","S","C","85"
"","","approach-retreat","89","1158332","0.0-89.0","","","1-2","5040","39","1","Training","Stims/Figures/87-J-10-4.bmp","tapaka","Right","39","6","6","1","P","C","86"
"","","approach-retreat","90","1164847","0.0-90.0","","","1-2","5003","40","1","Training","Stims/Figures/27-C-30-1.bmp","nala:na","Up","40","6","7","1","S","C","87"
"","","approach-retreat","91","1171376","0.0-91.0","","","1-2","5017","40","1","Training","Stims/Figures/71-J-0-1.bmp","tapaka","Down","40","6","8","1","P","C","88"
"","","approach-retreat","92","1178140","0.0-92.0","","","1-2","5252","39","0","Training","Stims/Figures/100-C-30-3.bmp","nala:na","Right","37","6","9","1","S","C","89"
"","","approach-retreat","93","1186291","0.0-93.0","","","1-2","6640","38","1","Training","Stims/Figures/27-J-0-1.bmp","tapaka","Up","38","6","10","1","P","C","90"
"","","approach-retreat","94","1193461","0.0-94.0","","","1-2","5659","39","1","Training","Stims/Figures/94-C-20-2.bmp","nala:na","Left","39","6","11","1","S","C","91"
"","","approach-retreat","95","1199890","0.0-95.0","","","1-2","4917","39","1","Training","Stims/Figures/84-J-0-2.bmp","tapaka","Right","39","6","12","1","P","C","92"
"","","approach-retreat","96","1206205","0.0-96.0","","","1-2","4803","37","1","Training","Stims/Figures/84-C-20-2.bmp","nala:na","Right","37","6","13","1","S","C","93"
"","","approach-retreat","97","1212463","0.0-97.0","","","1-2","4747","39","1","Training","Stims/Figures/144-C-30-3.bmp","nala:na","Left","39","6","14","1","S","C","94"
"","","approach-retreat","98","1218725","0.0-98.0","","","1-2","4751","38","1","Training","Stims/Figures/74-C-20-4.bmp","nala:na","Down","38","6","15","1","S","C","95"
"","","approach-retreat","99","1225087","0.0-99.0","","","1-2","4852","38","1","Training","Stims/Figures/144-J-10-3.bmp","tapaka","Up","38","6","16","1","P","C","96"
"","","approach-retreat","100","1231559","0.0-100.0","","","1-2","4961","39","1","Training","Stims/Figures/100-J-10-3.bmp","tapaka","Right","39","7","1","1","P","C","97"
"","","approach-retreat","101","1237827","0.0-101.0","","","1-2","4757","37","1","Training","Stims/Figures/144-J-10-3.bmp","tapaka","Left","37","7","2","1","P","C","98"
"","","approach-retreat","102","1244173","0.0-102.0","","","1-2","4834","40","1","Training","Stims/Figures/100-C-30-3.bmp","nala:na","Up","40","7","3","1","S","C","99"
"","","approach-retreat","103","1250360","0.0-103.0","","","1-2","4676","38","1","Training","Stims/Figures/87-C-20-4.bmp","nala:na","Down","38","7","4","1","S","C","100"
"","","approach-retreat","104","1256803","0.0-104.0","","","1-2","4932","39","1","Training","Stims/Figures/94-J-0-2.bmp","tapaka","Right","39","7","5","1","P","C","101"
"","","approach-retreat","105","1262961","0.0-105.0","","","1-2","4644","39","1","Training","Stims/Figures/94-C-20-2.bmp","nala:na","Left","39","7","6","1","S","C","102"
"","","approach-retreat","106","1268902","0.0-106.0","","","1-2","4428","40","1","Training","Stims/Figures/71-J-0-1.bmp","tapaka","Down","40","7","7","1","P","C","103"
"","","approach-retreat","107","1275085","0.0-107.0","","","1-2","4671","39","1","Training","Stims/Figures/27-J-0-1.bmp","tapaka","Right","39","7","8","1","P","C","104"
"","","approach-retreat","108","1281265","0.0-108.0","","","1-2","4669","40","1","Training","Stims/Figures/84-C-20-2.bmp","nala:na","Up","40","7","9","1","S","C","105"
"","","approach-retreat","109","1287592","0.0-109.0","","","1-2","4816","38","1","Training","Stims/Figures/71-C-30-1.bmp","nala:na","Down","38","7","10","1","S","C","106"
"","","approach-retreat","110","1293939","0.0-110.0","","","1-2","4836","40","1","Training","Stims/Figures/74-C-20-4.bmp","nala:na","Up","40","7","11","1","S","C","107"
"","","approach-retreat","111","1300174","0.0-111.0","","","1-2","4725","39","1","Training","Stims/Figures/27-C-30-1.bmp","nala:na","Left","39","7","12","1","S","C","108"
"","","approach-retreat","112","1306411","0.0-112.0","","","1-2","4724","39","1","Training","Stims/Figures/84-J-0-2.bmp","tapaka","Right","39","7","13","1","P","C","109"
"","","approach-retreat","113","1312801","0.0-113.0","","","1-2","4877","40","1","Training","Stims/Figures/74-J-10-4.bmp","tapaka","Down","40","7","14","1","P","C","110"
"","","approach-retreat","114","1319173","0.0-114.0","","","1-2","4861","38","1","Training","Stims/Figures/87-J-10-4.bmp","tapaka","Up","38","7","15","1","P","C","111"
"","","approach-retreat","115","1325439","0.0-115.0","","","1-2","4754","39","1","Training","Stims/Figures/144-C-30-3.bmp","nala:na","Left","39","7","16","1","S","C","112"
"","","approach-retreat","116","1331634","0.0-116.0","","","1-2","4685","39","1","Training","Stims/Figures/74-C-20-4.bmp","nala:na","Left","39","8","1","1","S","C","113"
"","","approach-retreat","117","1337778","0.0-117.0","","","1-2","4627","39","1","Training","Stims/Figures/74-J-10-4.bmp","tapaka","Right","39","8","2","1","P","C","114"
"","","approach-retreat","118","1343986","0.0-118.0","","","1-2","4696","37","1","Training","Stims/Figures/94-J-0-2.bmp","tapaka","Left","37","8","3","1","P","C","115"
"","","approach-retreat","119","1350587","0.0-119.0","","","1-2","5089","40","1","Training","Stims/Figures/94-C-20-2.bmp","nala:na","Up","40","8","4","1","S","C","116"
"","","approach-retreat","120","1356806","0.0-120.0","","","1-2","4710","39","1","Training","Stims/Figures/87-J-10-4.bmp","tapaka","Right","39","8","5","1","P","C","117"
"","","approach-retreat","121","1363066","0.0-121.0","","","1-2","4749","38","1","Training","Stims/Figures/100-J-10-3.bmp","tapaka","Up","38","8","6","1","P","C","118"
"","","approach-retreat","122","1369186","0.0-122.0","","","1-2","4607","38","1","Training","Stims/Figures/87-C-20-4.bmp","nala:na","Down","38","8","7","1","S","C","119"
"","","approach-retreat","123","1375406","0.0-123.0","","","1-2","4709","39","1","Training","Stims/Figures/27-J-0-1.bmp","tapaka","Right","39","8","8","1","P","C","120"
"","","approach-retreat","124","1381539","0.0-124.0","","","1-2","4623","37","1","Training","Stims/Figures/144-C-30-3.bmp","nala:na","Right","37","8","9","1","S","C","121"
"","","approach-retreat","125","1387858","0.0-125.0","","","1-2","4806","40","1","Training","Stims/Figures/71-J-0-1.bmp","tapaka","Down","40","8","10","1","P","C","122"
"","","approach-retreat","126","1394308","0.0-126.0","","","1-2","4939","38","1","Training","Stims/Figures/144-J-10-3.bmp","tapaka","Up","38","8","11","1","P","C","123"
"","","approach-retreat","127","1400730","0.0-127.0","","","1-2","4912","38","1","Training","Stims/Figures/100-C-30-3.bmp","nala:na","Down","38","8","12","1","S","C","124"
"","","approach-retreat","128","1407025","0.0-128.0","","","1-2","4785","39","1","Training","Stims/Figures/27-C-30-1.bmp","nala:na","Left","39","8","13","1","S","C","125"
"","","approach-retreat","129","1413590","0.0-129.0","","","1-2","5054","39","1","Training","Stims/Figures/71-C-30-1.bmp","nala:na","Left","39","8","14","1","S","C","126"
"","","approach-retreat","130","1419819","0.0-130.0","","","1-2","4716","40","1","Training","Stims/Figures/84-C-20-2.bmp","nala:na","Up","40","8","15","1","S","C","127"
"","","approach-retreat","131","1426251","0.0-131.0","","","1-2","4921","40","1","Training","Stims/Figures/84-J-0-2.bmp","tapaka","Down","40","8","16","1","P","C","128"
"","","approach-retreat","132","1432521","0.0-132.0","","","1-2","4758","37","1","Training","Stims/Figures/27-C-30-1.bmp","nala:na","Right","37","9","1","1","S","C","129"
"","","approach-retreat","133","1438657","0.0-133.0","","","1-2","4622","37","1","Training","Stims/Figures/94-C-20-2.bmp","nala:na","Right","37","9","2","1","S","C","130"
"","","approach-retreat","134","1444863","0.0-134.0","","","1-2","4696","40","1","Training","Stims/Figures/144-J-10-3.bmp","tapaka","Down","40","9","3","1","P","C","131"
"","","approach-retreat","135","1450962","0.0-135.0","","","1-2","4586","40","1","Training","Stims/Figures/100-J-10-3.bmp","tapaka","Down","40","9","4","1","P","C","132"
"","","approach-retreat","136","1457335","0.0-136.0","","","1-2","4861","38","1","Training","Stims/Figures/71-J-0-1.bmp","tapaka","Up","38","9","5","1","P","C","133"
"","","approach-retreat","137","1463646","0.0-137.0","","","1-2","4800","39","1","Training","Stims/Figures/87-J-10-4.bmp","tapaka","Right","39","9","6","1","P","C","134"
"","","approach-retreat","138","1469883","0.0-138.0","","","1-2","4724","39","1","Training","Stims/Figures/100-C-30-3.bmp","nala:na","Left","39","9","7","1","S","C","135"
"","","approach-retreat","139","1476299","0.0-139.0","","","1-2","4904","37","1","Training","Stims/Figures/144-C-30-3.bmp","nala:na","Right","37","9","8","1","S","C","136"
"","","approach-retreat","140","1482688","0.0-140.0","","","1-2","4877","40","1","Training","Stims/Figures/94-J-0-2.bmp","tapaka","Down","40","9","9","1","P","C","137"
"","","approach-retreat","141","1488928","0.0-141.0","","","1-2","4727","38","1","Training","Stims/Figures/84-J-0-2.bmp","tapaka","Up","38","9","10","1","P","C","138"
"","","approach-retreat","142","1495235","0.0-142.0","","","1-2","4794","38","1","Training","Stims/Figures/74-J-10-4.bmp","tapaka","Up","38","9","11","1","P","C","139"
"","","approach-retreat","143","1501676","0.0-143.0","","","1-2","4929","38","1","Training","Stims/Figures/74-C-20-4.bmp","nala:na","Down","38","9","12","1","S","C","140"
"","","approach-retreat","144","1508133","0.0-144.0","","","1-2","4943","37","1","Training","Stims/Figures/27-J-0-1.bmp","tapaka","Left","37","9","13","1","P","C","141"
"","","approach-retreat","145","1514394","0.0-145.0","","","1-2","4750","40","1","Training","Stims/Figures/87-C-20-4.bmp","nala:na","Up","40","9","14","1","S","C","142"
"","","approach-retreat","146","1520631","0.0-146.0","","","1-2","4725","39","1","Training","Stims/Figures/71-C-30-1.bmp","nala:na","Left","39","9","15","1","S","C","143"
"","","approach-retreat","147","1526757","0.0-147.0","","","1-2","4614","39","1","Training","Stims/Figures/84-C-20-2.bmp","nala:na","Left","39","9","16","1","S","C","144"
"60257","","instructions","148","1587015","0.0-148.0","[{""page_index"":0,""viewing_time"":60256}]","","","","","","","","","","","","","","","",""
"","","approach-retreat","149","1596047","0.0-149.0","","","1-2","7524","40","0","Testing","Stims/Figures/84-J-0-2.bmp","tapaka","Up","38","1","1","1","P","C","1"
"","","approach-retreat","150","1602507","0.0-150.0","","","1-2","4950","37","1","Testing","Stims/Figures/71-J-0-1.bmp","tapaka","Left","37","1","2","1","P","C","2"
"","","approach-retreat","151","1608958","0.0-151.0","","","1-2","4941","40","0","Testing","Stims/Figures/74-J-10-4.bmp","tapaka","Up","38","1","3","1","P","C","3"
"","","approach-retreat","152","1615163","0.0-152.0","","","1-2","4695","40","0","Testing","Stims/Figures/94-C-20-2.bmp","nala:na","Down","38","1","4","1","S","C","4"
"","","approach-retreat","153","1621978","0.0-153.0","","","1-2","5305","39","1","Testing","Stims/Figures/128-C-30-3.bmp","nala:na","Left","39","1","5","1","S","C","5"
"","","approach-retreat","154","1628150","0.0-154.0","","","1-2","4662","39","1","Testing","Stims/Figures/7-C-20-4.bmp","nala:na","Left","39","1","6","1","S","C","6"
"","","approach-retreat","155","1636488","0.0-155.0","","","1-2","6829","37","1","Testing","Stims/Figures/144-C-30-3.bmp","nala:na","Right","37","1","7","1","S","C","7"
"","","approach-retreat","156","1643008","0.0-156.0","","","1-2","5009","39","1","Testing","Stims/Figures/85-J-0-2.bmp","tapaka","Right","39","1","8","1","P","C","8"
"","","approach-retreat","157","1649718","0.0-157.0","","","1-2","5199","40","1","Testing","Stims/Figures/144-J-10-3.bmp","tapaka","Down","40","1","9","1","P","C","9"
"","","approach-retreat","158","1664788","0.0-158.0","","","1-2","13562","37","0","Testing","Stims/Figures/7-J-10-4.bmp","tapaka","Right","39","1","10","1","P","C","10"
"","","approach-retreat","159","1672520","0.0-159.0","","","1-2","6223","38","1","Testing","Stims/Figures/100-J-10-3.bmp","tapaka","Up","38","1","11","1","P","C","11"
"","","approach-retreat","160","1678628","0.0-160.0","","","1-2","4597","40","1","Testing","Stims/Figures/84-C-20-2.bmp","nala:na","Up","40","1","12","1","S","C","12"
"","","approach-retreat","161","1685476","0.0-161.0","","","1-2","5340","39","0","Testing","Stims/Figures/128-J-10-3.bmp","tapaka","Left","37","1","13","1","P","C","13"
"","","approach-retreat","162","1691834","0.0-162.0","","","1-2","4847","39","0","Testing","Stims/Figures/86-J-0-1.bmp","tapaka","Left","37","1","14","1","P","C","14"
"","","approach-retreat","163","1698307","0.0-163.0","","","1-2","4961","39","0","Testing","Stims/Figures/71-C-30-1.bmp","nala:na","Right","37","1","15","1","S","C","15"
"","","approach-retreat","164","1704896","0.0-164.0","","","1-2","5078","38","0","Testing","Stims/Figures/87-C-20-4.bmp","nala:na","Up","40","1","16","1","S","C","16"
"","","approach-retreat","165","1712205","0.0-165.0","","","1-2","5797","39","1","Testing","Stims/Figures/87-J-10-4.bmp","tapaka","Right","39","1","17","1","P","C","17"
"","","approach-retreat","166","1718822","0.0-166.0","","","1-2","5106","38","0","Testing","Stims/Figures/27-J-0-1.bmp","tapaka","Down","40","1","18","1","P","C","18"
"","","approach-retreat","167","1726106","0.0-167.0","","","1-2","5769","40","1","Testing","Stims/Figures/27-C-30-1.bmp","nala:na","Up","40","1","19","1","S","C","19"
"","","approach-retreat","168","1733246","0.0-168.0","","","1-2","5631","39","1","Testing","Stims/Figures/74-C-20-4.bmp","nala:na","Left","39","1","20","1","S","C","20"
"","","approach-retreat","169","1739632","0.0-169.0","","","1-2","4878","40","0","Testing","Stims/Figures/85-C-20-2.bmp","nala:na","Down","38","1","21","1","S","C","21"
"","","approach-retreat","170","1745903","0.0-170.0","","","1-2","4761","39","0","Testing","Stims/Figures/86-C-30-1.bmp","nala:na","Right","37","1","22","1","S","C","22"
"","","approach-retreat","171","1751809","0.0-171.0","","","1-2","4394","40","1","Testing","Stims/Figures/94-J-0-2.bmp","tapaka","Down","40","1","23","1","P","C","23"
"","","approach-retreat","172","1758064","0.0-172.0","","","1-2","4746","40","0","Testing","Stims/Figures/100-C-30-3.bmp","nala:na","Down","38","1","24","1","S","C","24"
"","","approach-retreat","173","1766085","0.0-173.0","","","1-2","6511","38","1","Testing","Stims/Figures/27-C-30-1.bmp","nala:na","Down","38","2","1","1","S","C","25"
"","","approach-retreat","174","1776183","0.0-174.0","","","1-2","8589","37","1","Testing","Stims/Figures/7-C-20-4.bmp","nala:na","Right","37","2","2","1","S","C","26"
"","","approach-retreat","175","1782219","0.0-175.0","","","1-2","4527","39","1","Testing","Stims/Figures/85-J-0-2.bmp","tapaka","Right","39","2","3","1","P","C","27"
"","","approach-retreat","176","1789654","0.0-176.0","","","1-2","5926","39","0","Testing","Stims/Figures/86-J-0-1.bmp","tapaka","Left","37","2","4","1","P","C","28"
"","","approach-retreat","177","1795610","0.0-177.0","","","1-2","4446","40","1","Testing","Stims/Figures/84-C-20-2.bmp","nala:na","Up","40","2","5","1","S","C","29"
"","","approach-retreat","178","1801382","0.0-178.0","","","1-2","4262","38","0","Testing","Stims/Figures/128-C-30-3.bmp","nala:na","Up","40","2","6","1","S","C","30"
"","","approach-retreat","179","1807429","0.0-179.0","","","1-2","4545","37","1","Testing","Stims/Figures/100-J-10-3.bmp","tapaka","Left","37","2","7","1","P","C","31"
"","","approach-retreat","180","1835419","0.0-180.0","","","1-2","26480","39","0","Testing","Stims/Figures/7-J-10-4.bmp","tapaka","Left","37","2","8","1","P","C","32"
"","","approach-retreat","181","1843939","0.0-181.0","","","1-2","7012","38","1","Testing","Stims/Figures/71-J-0-1.bmp","tapaka","Up","38","2","9","1","P","C","33"
"","","approach-retreat","182","1850450","0.0-182.0","","","1-2","5002","40","0","Testing","Stims/Figures/87-C-20-4.bmp","nala:na","Down","38","2","10","1","S","C","34"
"","","approach-retreat","183","1857737","0.0-183.0","","","1-2","5778","37","0","Testing","Stims/Figures/100-C-30-3.bmp","nala:na","Left","39","2","11","1","S","C","35"
"","","approach-retreat","184","1863864","0.0-184.0","","","1-2","4618","37","1","Testing","Stims/Figures/94-J-0-2.bmp","tapaka","Left","37","2","12","1","P","C","36"
"","","approach-retreat","185","1873008","0.0-185.0","","","1-2","7634","40","0","Testing","Stims/Figures/85-C-20-2.bmp","nala:na","Down","38","2","13","1","S","C","37"
"","","approach-retreat","186","1879324","0.0-186.0","","","1-2","4805","39","0","Testing","Stims/Figures/94-C-20-2.bmp","nala:na","Right","37","2","14","1","S","C","38"
"","","approach-retreat","187","1886076","0.0-187.0","","","1-2","5243","40","1","Testing","Stims/Figures/87-J-10-4.bmp","tapaka","Down","40","2","15","1","P","C","39"
"","","approach-retreat","188","1892209","0.0-188.0","","","1-2","4623","39","1","Testing","Stims/Figures/128-J-10-3.bmp","tapaka","Right","39","2","16","1","P","C","40"
"","","approach-retreat","189","1898415","0.0-189.0","","","1-2","4698","37","0","Testing","Stims/Figures/27-J-0-1.bmp","tapaka","Right","39","2","17","1","P","C","41"
"","","approach-retreat","190","1905000","0.0-190.0","","","1-2","5075","40","0","Testing","Stims/Figures/84-J-0-2.bmp","tapaka","Up","38","2","18","1","P","C","42"
"","","approach-retreat","191","1911453","0.0-191.0","","","1-2","4945","38","1","Testing","Stims/Figures/144-C-30-3.bmp","nala:na","Down","38","2","19","1","S","C","43"
"","","approach-retreat","192","1917768","0.0-192.0","","","1-2","4805","39","0","Testing","Stims/Figures/74-J-10-4.bmp","tapaka","Left","37","2","20","1","P","C","44"
"","","approach-retreat","193","1923677","0.0-193.0","","","1-2","4400","38","0","Testing","Stims/Figures/144-J-10-3.bmp","tapaka","Down","40","2","21","1","P","C","45"
"","","approach-retreat","194","1929971","0.0-194.0","","","1-2","4784","37","1","Testing","Stims/Figures/74-C-20-4.bmp","nala:na","Right","37","2","22","1","S","C","46"
"","","approach-retreat","195","1936771","0.0-195.0","","","1-2","5291","38","0","Testing","Stims/Figures/71-C-30-1.bmp","nala:na","Up","40","2","23","1","S","C","47"
"","","approach-retreat","196","1943139","0.0-196.0","","","1-2","4860","38","0","Testing","Stims/Figures/86-C-30-1.bmp","nala:na","Up","40","2","24","1","S","C","48"
"","","approach-retreat","197","1949601","0.0-197.0","","","1-2","4952","39","1","Testing","Stims/Figures/71-J-0-1.bmp","tapaka","Right","39","3","1","1","P","C","49"
"","","approach-retreat","198","1955813","0.0-198.0","","","1-2","4700","40","0","Testing","Stims/Figures/85-C-20-2.bmp","nala:na","Down","38","3","2","1","S","C","50"
"","","approach-retreat","199","1962459","0.0-199.0","","","1-2","5136","40","1","Testing","Stims/Figures/86-J-0-1.bmp","tapaka","Down","40","3","3","1","P","C","51"
"","","approach-retreat","200","1970109","0.0-200.0","","","1-2","6140","38","1","Testing","Stims/Figures/94-J-0-2.bmp","tapaka","Up","38","3","4","1","P","C","52"
"","","approach-retreat","201","1981562","0.0-201.0","","","1-2","9944","38","0","Testing","Stims/Figures/128-J-10-3.bmp","tapaka","Down","40","3","5","1","P","C","53"
"","","approach-retreat","202","1987970","0.0-202.0","","","1-2","4900","39","0","Testing","Stims/Figures/86-C-30-1.bmp","nala:na","Right","37","3","6","1","S","C","54"
"","","approach-retreat","203","2006699","0.0-203.0","","","1-2","17219","39","0","Testing","Stims/Figures/71-C-30-1.bmp","nala:na","Right","37","3","7","1","S","C","55"
"","","approach-retreat","204","2013028","0.0-204.0","","","1-2","4819","40","0","Testing","Stims/Figures/74-J-10-4.bmp","tapaka","Up","38","3","8","1","P","C","56"
"","","approach-retreat","205","2023927","0.0-205.0","","","1-2","9388","37","1","Testing","Stims/Figures/144-J-10-3.bmp","tapaka","Left","37","3","9","1","P","C","57"
"","","approach-retreat","206","2033119","0.0-206.0","","","1-2","7683","39","1","Testing","Stims/Figures/128-C-30-3.bmp","nala:na","Left","39","3","10","1","S","C","58"
"","","approach-retreat","207","2039510","0.0-207.0","","","1-2","4881","37","0","Testing","Stims/Figures/87-C-20-4.bmp","nala:na","Left","39","3","11","1","S","C","59"
"","","approach-retreat","208","2045952","0.0-208.0","","","1-2","4934","38","1","Testing","Stims/Figures/85-J-0-2.bmp","tapaka","Up","38","3","12","1","P","C","60"
"","","approach-retreat","209","2057164","0.0-209.0","","","1-2","9703","37","0","Testing","Stims/Figures/7-J-10-4.bmp","tapaka","Right","39","3","13","1","P","C","61"
"","","approach-retreat","210","2064099","0.0-210.0","","","1-2","5424","40","1","Testing","Stims/Figures/27-C-30-1.bmp","nala:na","Up","40","3","14","1","S","C","62"
"","","approach-retreat","211","2070602","0.0-211.0","","","1-2","4993","38","1","Testing","Stims/Figures/84-C-20-2.bmp","nala:na","Down","38","3","15","1","S","C","63"
"","","approach-retreat","212","2076860","0.0-212.0","","","1-2","4746","37","1","Testing","Stims/Figures/87-J-10-4.bmp","tapaka","Left","37","3","16","1","P","C","64"
"","","approach-retreat","213","2085223","0.0-213.0","","","1-2","6854","40","0","Testing","Stims/Figures/84-J-0-2.bmp","tapaka","Up","38","3","17","1","P","C","65"
"","","approach-retreat","214","2091357","0.0-214.0","","","1-2","4626","39","0","Testing","Stims/Figures/144-C-30-3.bmp","nala:na","Right","37","3","18","1","S","C","66"
"","","approach-retreat","215","2098057","0.0-215.0","","","1-2","5189","40","1","Testing","Stims/Figures/100-J-10-3.bmp","tapaka","Down","40","3","19","1","P","C","67"
"","","approach-retreat","216","2104821","0.0-216.0","","","1-2","5256","37","0","Testing","Stims/Figures/94-C-20-2.bmp","nala:na","Left","39","3","20","1","S","C","68"
"","","approach-retreat","217","2118012","0.0-217.0","","","1-2","11681","39","0","Testing","Stims/Figures/27-J-0-1.bmp","tapaka","Left","37","3","21","1","P","C","69"
"","","approach-retreat","218","2124462","0.0-218.0","","","1-2","4941","40","1","Testing","Stims/Figures/7-C-20-4.bmp","nala:na","Up","40","3","22","1","S","C","70"
"","","approach-retreat","219","2131058","0.0-219.0","","","1-2","5087","40","0","Testing","Stims/Figures/100-C-30-3.bmp","nala:na","Down","38","3","23","1","S","C","71"
"","","approach-retreat","220","2137302","0.0-220.0","","","1-2","4732","37","1","Testing","Stims/Figures/74-C-20-4.bmp","nala:na","Right","37","3","24","1","S","C","72"
"","","approach-retreat","221","2143469","0.0-221.0","","","1-2","4659","39","1","Testing","Stims/Figures/94-J-0-2.bmp","tapaka","Right","39","4","1","1","P","C","73"
"","","approach-retreat","222","2149912","0.0-222.0","","","1-2","4935","39","0","Testing","Stims/Figures/7-J-10-4.bmp","tapaka","Left","37","4","2","1","P","C","74"
"","","approach-retreat","223","2156422","0.0-223.0","","","1-2","5001","40","0","Testing","Stims/Figures/86-J-0-1.bmp","tapaka","Up","38","4","3","1","P","C","75"
"","","approach-retreat","224","2162455","0.0-224.0","","","1-2","4523","39","1","Testing","Stims/Figures/74-C-20-4.bmp","nala:na","Left","39","4","4","1","S","C","76"
"","","approach-retreat","225","2168974","0.0-225.0","","","1-2","5009","37","0","Testing","Stims/Figures/74-J-10-4.bmp","tapaka","Right","39","4","5","1","P","C","77"
"","","approach-retreat","226","2175140","0.0-226.0","","","1-2","4658","40","1","Testing","Stims/Figures/100-J-10-3.bmp","tapaka","Down","40","4","6","1","P","C","78"
"","","approach-retreat","227","2182104","0.0-227.0","","","1-2","5456","39","1","Testing","Stims/Figures/7-C-20-4.bmp","nala:na","Left","39","4","7","1","S","C","79"
"","","approach-retreat","228","2191693","0.0-228.0","","","1-2","8080","39","0","Testing","Stims/Figures/85-C-20-2.bmp","nala:na","Right","37","4","8","1","S","C","80"
"","","approach-retreat","229","2198230","0.0-229.0","","","1-2","5026","40","0","Testing","Stims/Figures/94-C-20-2.bmp","nala:na","Down","38","4","9","1","S","C","81"
"","","approach-retreat","230","2204787","0.0-230.0","","","1-2","5046","38","1","Testing","Stims/Figures/85-J-0-2.bmp","tapaka","Up","38","4","10","1","P","C","82"
"","","approach-retreat","231","2211027","0.0-231.0","","","1-2","4731","40","0","Testing","Stims/Figures/27-J-0-1.bmp","tapaka","Up","38","4","11","1","P","C","83"
"","","approach-retreat","232","2217695","0.0-232.0","","","1-2","5158","39","0","Testing","Stims/Figures/128-J-10-3.bmp","tapaka","Left","37","4","12","1","P","C","84"
"","","approach-retreat","233","2225806","0.0-233.0","","","1-2","6601","38","1","Testing","Stims/Figures/87-J-10-4.bmp","tapaka","Up","38","4","13","1","P","C","85"
"","","approach-retreat","234","2232069","0.0-234.0","","","1-2","4754","37","0","Testing","Stims/Figures/144-C-30-3.bmp","nala:na","Left","39","4","14","1","S","C","86"
"","","approach-retreat","235","2240543","0.0-235.0","","","1-2","6963","38","0","Testing","Stims/Figures/71-C-30-1.bmp","nala:na","Up","40","4","15","1","S","C","87"
"","","approach-retreat","236","2246731","0.0-236.0","","","1-2","4679","38","1","Testing","Stims/Figures/128-C-30-3.bmp","nala:na","Down","38","4","16","1","S","C","88"
"","","approach-retreat","237","2253145","0.0-237.0","","","1-2","4905","38","1","Testing","Stims/Figures/71-J-0-1.bmp","tapaka","Up","38","4","17","1","P","C","89"
"","","approach-retreat","238","2259460","0.0-238.0","","","1-2","4803","40","0","Testing","Stims/Figures/87-C-20-4.bmp","nala:na","Down","38","4","18","1","S","C","90"
"","","approach-retreat","239","2265850","0.0-239.0","","","1-2","4880","39","0","Testing","Stims/Figures/100-C-30-3.bmp","nala:na","Right","37","4","19","1","S","C","91"
"","","approach-retreat","240","2272200","0.0-240.0","","","1-2","4840","37","1","Testing","Stims/Figures/84-C-20-2.bmp","nala:na","Right","37","4","20","1","S","C","92"
"","","approach-retreat","241","2280079","0.0-241.0","","","1-2","6368","39","1","Testing","Stims/Figures/144-J-10-3.bmp","tapaka","Right","39","4","21","1","P","C","93"
"","","approach-retreat","242","2287208","0.0-242.0","","","1-2","5620","40","0","Testing","Stims/Figures/86-C-30-1.bmp","nala:na","Down","38","4","22","1","S","C","94"
"","","approach-retreat","243","2293535","0.0-243.0","","","1-2","4818","38","0","Testing","Stims/Figures/84-J-0-2.bmp","tapaka","Down","40","4","23","1","P","C","95"
"","","approach-retreat","244","2299895","0.0-244.0","","","1-2","4849","39","1","Testing","Stims/Figures/27-C-30-1.bmp","nala:na","Left","39","4","24","1","S","C","96"
"162165","","survey-text","245","2462070","0.0-245.0","","{""Q0"":""0023/2018""}","","","","","","","","","","","","","","",""
