\"rt\",\"key_press\",\"trial_type\",\"trial_index\",\"time_elapsed\",\"internal_node_id\",\"view_history\",\"responses\",\"Id\",\"Rt\",\"ResKeyCode\",\"ResCorr\",\"TrialType2\",\"Image\",\"Label\",\"Location\",\"CorrectResponse\",\"Block\",\"BlockTrial\",\"Condition\",\"LabelType\",\"Subcondition\",\"trialNum\"
\"16947\",\"32\",\"text\",\"0\",\"16953\",\"0.0-0.0-0.0\",\"\",\"\",\"\",\"\",\"\",\"\",\"\",\"\",\"\",\"\",\"\",\"\",\"\",\"\",\"\",\"\",\"\"
\"88969\",\"\",\"instructions\",\"1\",\"105926\",\"0.0-1.0\",\"[{\"\"page_index\"\":0,\"\"viewing_time\"\":88968}]\",\"\",\"\",\"\",\"\",\"\",\"\",\"\",\"\",\"\",\"\",\"\",\"\",\"\",\"\",\"\",\"\"
\"27223\",\"\",\"survey-multi-choice\",\"2\",\"133194\",\"0.0-2.0\",\"\",\"{\"\"Q0\"\":\"\"Da\"\",\"\"Q1\"\":\"\"Da\"\",\"\"Q2\"\":\"\"Da\"\",\"\"Q3\"\":\"\"Da\"\",\"\"Q4\"\":\"\"Da\"\",\"\"Q5\"\":\"\"Da\"\"}\",\"\",\"\",\"\",\"\",\"\",\"\",\"\",\"\",\"\",\"\",\"\",\"\",\"\",\"\",\"\"
\"\",\"\",\"bio\",\"3\",\"141042\",\"0.0-3.0\",\"\",\"{\"\"age\"\":\"\"20\"\",\"\"gender\"\":\"\"f\"\",\"\"specify\"\":\"\"\"\"}\",\"\",\"\",\"\",\"\",\"\",\"\",\"\",\"\",\"\",\"\",\"\",\"\",\"\",\"\",\"\"
\"\",\"\",\"approach-retreat\",\"4\",\"147844\",\"0.0-4.0\",\"\",\"\",\"1-1\",\"5285\",\"37\",\"0\",\"Training\",\"Stims/Figures/84-C-20-2.bmp\",\"vafa:va\",\"Left\",\"39\",\"1\",\"1\",\"6B\",\"C1\",\"C\",\"1\"
\"\",\"\",\"approach-retreat\",\"5\",\"154479\",\"0.0-5.0\",\"\",\"\",\"1-1\",\"5124\",\"40\",\"1\",\"Training\",\"Stims/Figures/57-C-30-1.bmp\",\"fa:fava\",\"Up\",\"40\",\"1\",\"2\",\"6B\",\"C1\",\"C\",\"2\"
\"\",\"\",\"approach-retreat\",\"6\",\"160065\",\"0.0-6.0\",\"\",\"\",\"1-1\",\"4071\",\"39\",\"1\",\"Training\",\"Stims/Figures/87-C-20-4.bmp\",\"vafasha\",\"Left\",\"39\",\"1\",\"3\",\"6B\",\"C1\",\"C\",\"3\"
\"\",\"\",\"approach-retreat\",\"7\",\"165808\",\"0.0-7.0\",\"\",\"\",\"1-1\",\"4235\",\"40\",\"1\",\"Training\",\"Stims/Figures/94-C-20-2.bmp\",\"va:shasha\",\"Up\",\"40\",\"1\",\"4\",\"6B\",\"C1\",\"C\",\"4\"
\"\",\"\",\"approach-retreat\",\"8\",\"171372\",\"0.0-8.0\",\"\",\"\",\"1-1\",\"4050\",\"39\",\"1\",\"Training\",\"Stims/Figures/94-J-0-2.bmp\",\"za:saha\",\"Right\",\"39\",\"1\",\"5\",\"6B\",\"C2\",\"C\",\"5\"
\"\",\"\",\"approach-retreat\",\"9\",\"177550\",\"0.0-9.0\",\"\",\"\",\"1-1\",\"4662\",\"39\",\"1\",\"Training\",\"Stims/Figures/19-C-20-4.bmp\",\"va:sha:sha\",\"Left\",\"39\",\"1\",\"6\",\"6B\",\"C1\",\"C\",\"6\"
\"\",\"\",\"approach-retreat\",\"10\",\"183506\",\"0.0-10.0\",\"\",\"\",\"1-1\",\"4447\",\"40\",\"0\",\"Training\",\"Stims/Figures/111-C-30-3.bmp\",\"fa:sha:sha\",\"Down\",\"38\",\"1\",\"7\",\"6B\",\"C1\",\"C\",\"7\"
\"\",\"\",\"approach-retreat\",\"11\",\"189079\",\"0.0-11.0\",\"\",\"\",\"1-1\",\"4059\",\"39\",\"0\",\"Training\",\"Stims/Figures/57-J-0-1.bmp\",\"zasaza\",\"Left\",\"37\",\"1\",\"8\",\"6B\",\"C2\",\"C\",\"8\"
\"\",\"\",\"approach-retreat\",\"12\",\"194632\",\"0.0-12.0\",\"\",\"\",\"1-1\",\"4045\",\"40\",\"0\",\"Training\",\"Stims/Figures/111-J-10-3.bmp\",\"za:sa:ha\",\"Up\",\"38\",\"1\",\"9\",\"6B\",\"C2\",\"C\",\"9\"
\"\",\"\",\"approach-retreat\",\"13\",\"200371\",\"0.0-13.0\",\"\",\"\",\"1-1\",\"4233\",\"39\",\"1\",\"Training\",\"Stims/Figures/87-J-10-4.bmp\",\"sahaza\",\"Right\",\"39\",\"1\",\"10\",\"6B\",\"C2\",\"C\",\"10\"
\"\",\"\",\"approach-retreat\",\"14\",\"206171\",\"0.0-14.0\",\"\",\"\",\"1-1\",\"4290\",\"39\",\"1\",\"Training\",\"Stims/Figures/128-J-10-3.bmp\",\"zasa:za\",\"Right\",\"39\",\"1\",\"11\",\"6B\",\"C2\",\"C\",\"11\"
\"\",\"\",\"approach-retreat\",\"15\",\"211687\",\"0.0-15.0\",\"\",\"\",\"1-1\",\"4003\",\"40\",\"1\",\"Training\",\"Stims/Figures/86-C-30-1.bmp\",\"vafa:sha\",\"Up\",\"40\",\"1\",\"12\",\"6B\",\"C1\",\"C\",\"12\"
\"\",\"\",\"approach-retreat\",\"16\",\"221553\",\"0.0-16.0\",\"\",\"\",\"1-1\",\"8353\",\"40\",\"1\",\"Training\",\"Stims/Figures/84-J-0-2.bmp\",\"zaha:za\",\"Down\",\"40\",\"1\",\"13\",\"6B\",\"C2\",\"C\",\"13\"
\"\",\"\",\"approach-retreat\",\"17\",\"228423\",\"0.0-17.0\",\"\",\"\",\"1-1\",\"5353\",\"37\",\"1\",\"Training\",\"Stims/Figures/128-C-30-3.bmp\",\"va:fa:va\",\"Right\",\"37\",\"1\",\"14\",\"6B\",\"C1\",\"C\",\"14\"
\"\",\"\",\"approach-retreat\",\"18\",\"235205\",\"0.0-18.0\",\"\",\"\",\"1-1\",\"5272\",\"40\",\"1\",\"Training\",\"Stims/Figures/86-J-0-1.bmp\",\"saha:za\",\"Down\",\"40\",\"1\",\"15\",\"6B\",\"C2\",\"C\",\"15\"
\"\",\"\",\"approach-retreat\",\"19\",\"240691\",\"0.0-19.0\",\"\",\"\",\"1-1\",\"3974\",\"38\",\"0\",\"Training\",\"Stims/Figures/19-J-10-4.bmp\",\"sasaza\",\"Down\",\"40\",\"1\",\"16\",\"6B\",\"C2\",\"C\",\"16\"
\"\",\"\",\"approach-retreat\",\"20\",\"246605\",\"0.0-20.0\",\"\",\"\",\"1-1\",\"4405\",\"37\",\"0\",\"Training\",\"Stims/Figures/86-C-30-1.bmp\",\"vafa:sha\",\"Left\",\"39\",\"2\",\"1\",\"6B\",\"C1\",\"C\",\"17\"
\"\",\"\",\"approach-retreat\",\"21\",\"252491\",\"0.0-21.0\",\"\",\"\",\"1-1\",\"4372\",\"40\",\"0\",\"Training\",\"Stims/Figures/128-J-10-3.bmp\",\"zasa:za\",\"Up\",\"38\",\"2\",\"2\",\"6B\",\"C2\",\"C\",\"18\"
\"\",\"\",\"approach-retreat\",\"22\",\"258521\",\"0.0-22.0\",\"\",\"\",\"1-1\",\"4517\",\"37\",\"1\",\"Training\",\"Stims/Figures/57-C-30-1.bmp\",\"fa:fava\",\"Right\",\"37\",\"2\",\"3\",\"6B\",\"C1\",\"C\",\"19\"
\"\",\"\",\"approach-retreat\",\"23\",\"265381\",\"0.0-23.0\",\"\",\"\",\"1-1\",\"5348\",\"37\",\"0\",\"Training\",\"Stims/Figures/84-J-0-2.bmp\",\"zaha:za\",\"Right\",\"39\",\"2\",\"4\",\"6B\",\"C2\",\"C\",\"20\"
\"\",\"\",\"approach-retreat\",\"24\",\"271043\",\"0.0-24.0\",\"\",\"\",\"1-1\",\"4152\",\"40\",\"1\",\"Training\",\"Stims/Figures/87-C-20-4.bmp\",\"vafasha\",\"Up\",\"40\",\"2\",\"5\",\"6B\",\"C1\",\"C\",\"21\"
\"\",\"\",\"approach-retreat\",\"25\",\"276882\",\"0.0-25.0\",\"\",\"\",\"1-1\",\"4327\",\"40\",\"1\",\"Training\",\"Stims/Figures/94-J-0-2.bmp\",\"za:saha\",\"Down\",\"40\",\"2\",\"6\",\"6B\",\"C2\",\"C\",\"22\"
\"\",\"\",\"approach-retreat\",\"26\",\"283070\",\"0.0-26.0\",\"\",\"\",\"1-1\",\"4678\",\"39\",\"1\",\"Training\",\"Stims/Figures/19-J-10-4.bmp\",\"sasaza\",\"Right\",\"39\",\"2\",\"7\",\"6B\",\"C2\",\"C\",\"23\"
\"\",\"\",\"approach-retreat\",\"27\",\"288828\",\"0.0-27.0\",\"\",\"\",\"1-1\",\"4244\",\"40\",\"0\",\"Training\",\"Stims/Figures/87-J-10-4.bmp\",\"sahaza\",\"Up\",\"38\",\"2\",\"8\",\"6B\",\"C2\",\"C\",\"24\"
\"\",\"\",\"approach-retreat\",\"28\",\"294905\",\"0.0-28.0\",\"\",\"\",\"1-1\",\"4563\",\"37\",\"1\",\"Training\",\"Stims/Figures/57-J-0-1.bmp\",\"zasaza\",\"Left\",\"37\",\"2\",\"9\",\"6B\",\"C2\",\"C\",\"25\"
\"\",\"\",\"approach-retreat\",\"29\",\"300693\",\"0.0-29.0\",\"\",\"\",\"1-1\",\"4256\",\"37\",\"0\",\"Training\",\"Stims/Figures/84-C-20-2.bmp\",\"vafa:va\",\"Left\",\"39\",\"2\",\"10\",\"6B\",\"C1\",\"C\",\"26\"
\"\",\"\",\"approach-retreat\",\"30\",\"306756\",\"0.0-30.0\",\"\",\"\",\"1-1\",\"4553\",\"40\",\"0\",\"Training\",\"Stims/Figures/111-J-10-3.bmp\",\"za:sa:ha\",\"Up\",\"38\",\"2\",\"11\",\"6B\",\"C2\",\"C\",\"27\"
\"\",\"\",\"approach-retreat\",\"31\",\"312803\",\"0.0-31.0\",\"\",\"\",\"1-1\",\"4540\",\"38\",\"1\",\"Training\",\"Stims/Figures/128-C-30-3.bmp\",\"va:fa:va\",\"Down\",\"38\",\"2\",\"12\",\"6B\",\"C1\",\"C\",\"28\"
\"\",\"\",\"approach-retreat\",\"32\",\"318864\",\"0.0-32.0\",\"\",\"\",\"1-1\",\"4550\",\"37\",\"1\",\"Training\",\"Stims/Figures/86-J-0-1.bmp\",\"saha:za\",\"Left\",\"37\",\"2\",\"13\",\"6B\",\"C2\",\"C\",\"29\"
\"\",\"\",\"approach-retreat\",\"33\",\"325273\",\"0.0-33.0\",\"\",\"\",\"1-1\",\"4901\",\"40\",\"0\",\"Training\",\"Stims/Figures/111-C-30-3.bmp\",\"fa:sha:sha\",\"Down\",\"38\",\"2\",\"14\",\"6B\",\"C1\",\"C\",\"30\"
\"\",\"\",\"approach-retreat\",\"34\",\"331504\",\"0.0-34.0\",\"\",\"\",\"1-1\",\"4714\",\"39\",\"0\",\"Training\",\"Stims/Figures/19-C-20-4.bmp\",\"va:sha:sha\",\"Right\",\"37\",\"2\",\"15\",\"6B\",\"C1\",\"C\",\"31\"
\"\",\"\",\"approach-retreat\",\"35\",\"337635\",\"0.0-35.0\",\"\",\"\",\"1-1\",\"4618\",\"38\",\"1\",\"Training\",\"Stims/Figures/94-C-20-2.bmp\",\"va:shasha\",\"Down\",\"38\",\"2\",\"16\",\"6B\",\"C1\",\"C\",\"32\"
\"\",\"\",\"approach-retreat\",\"36\",\"343331\",\"0.0-36.0\",\"\",\"\",\"1-1\",\"4188\",\"37\",\"1\",\"Training\",\"Stims/Figures/128-J-10-3.bmp\",\"zasa:za\",\"Left\",\"37\",\"3\",\"1\",\"6B\",\"C2\",\"C\",\"33\"
\"\",\"\",\"approach-retreat\",\"37\",\"349312\",\"0.0-37.0\",\"\",\"\",\"1-1\",\"4466\",\"39\",\"1\",\"Training\",\"Stims/Figures/84-C-20-2.bmp\",\"vafa:va\",\"Left\",\"39\",\"3\",\"2\",\"6B\",\"C1\",\"C\",\"34\"
\"\",\"\",\"approach-retreat\",\"38\",\"355123\",\"0.0-38.0\",\"\",\"\",\"1-1\",\"4288\",\"38\",\"1\",\"Training\",\"Stims/Figures/94-C-20-2.bmp\",\"va:shasha\",\"Down\",\"38\",\"3\",\"3\",\"6B\",\"C1\",\"C\",\"35\"
\"\",\"\",\"approach-retreat\",\"39\",\"360801\",\"0.0-39.0\",\"\",\"\",\"1-1\",\"4166\",\"37\",\"1\",\"Training\",\"Stims/Figures/86-J-0-1.bmp\",\"saha:za\",\"Left\",\"37\",\"3\",\"4\",\"6B\",\"C2\",\"C\",\"36\"
\"\",\"\",\"approach-retreat\",\"40\",\"366768\",\"0.0-40.0\",\"\",\"\",\"1-1\",\"4460\",\"39\",\"1\",\"Training\",\"Stims/Figures/84-J-0-2.bmp\",\"zaha:za\",\"Right\",\"39\",\"3\",\"5\",\"6B\",\"C2\",\"C\",\"37\"
\"\",\"\",\"approach-retreat\",\"41\",\"373096\",\"0.0-41.0\",\"\",\"\",\"1-1\",\"4817\",\"37\",\"0\",\"Training\",\"Stims/Figures/57-J-0-1.bmp\",\"zasaza\",\"Right\",\"39\",\"3\",\"6\",\"6B\",\"C2\",\"C\",\"38\"
\"\",\"\",\"approach-retreat\",\"42\",\"379015\",\"0.0-42.0\",\"\",\"\",\"1-1\",\"4407\",\"39\",\"0\",\"Training\",\"Stims/Figures/87-C-20-4.bmp\",\"vafasha\",\"Right\",\"37\",\"3\",\"7\",\"6B\",\"C1\",\"C\",\"39\"
\"\",\"\",\"approach-retreat\",\"43\",\"385254\",\"0.0-43.0\",\"\",\"\",\"1-1\",\"4730\",\"37\",\"0\",\"Training\",\"Stims/Figures/128-C-30-3.bmp\",\"va:fa:va\",\"Left\",\"39\",\"3\",\"8\",\"6B\",\"C1\",\"C\",\"40\"
\"\",\"\",\"approach-retreat\",\"44\",\"390782\",\"0.0-44.0\",\"\",\"\",\"1-1\",\"4018\",\"38\",\"1\",\"Training\",\"Stims/Figures/111-J-10-3.bmp\",\"za:sa:ha\",\"Up\",\"38\",\"3\",\"9\",\"6B\",\"C2\",\"C\",\"41\"
\"\",\"\",\"approach-retreat\",\"45\",\"397133\",\"0.0-45.0\",\"\",\"\",\"1-1\",\"4838\",\"39\",\"1\",\"Training\",\"Stims/Figures/87-J-10-4.bmp\",\"sahaza\",\"Right\",\"39\",\"3\",\"10\",\"6B\",\"C2\",\"C\",\"42\"
\"\",\"\",\"approach-retreat\",\"46\",\"402606\",\"0.0-46.0\",\"\",\"\",\"1-1\",\"3966\",\"38\",\"0\",\"Training\",\"Stims/Figures/111-C-30-3.bmp\",\"fa:sha:sha\",\"Up\",\"40\",\"3\",\"11\",\"6B\",\"C1\",\"C\",\"43\"
\"\",\"\",\"approach-retreat\",\"47\",\"408885\",\"0.0-47.0\",\"\",\"\",\"1-1\",\"4762\",\"38\",\"0\",\"Training\",\"Stims/Figures/19-J-10-4.bmp\",\"sasaza\",\"Down\",\"40\",\"3\",\"12\",\"6B\",\"C2\",\"C\",\"44\"
\"\",\"\",\"approach-retreat\",\"48\",\"414778\",\"0.0-48.0\",\"\",\"\",\"1-1\",\"4379\",\"38\",\"1\",\"Training\",\"Stims/Figures/19-C-20-4.bmp\",\"va:sha:sha\",\"Down\",\"38\",\"3\",\"13\",\"6B\",\"C1\",\"C\",\"45\"
\"\",\"\",\"approach-retreat\",\"49\",\"420400\",\"0.0-49.0\",\"\",\"\",\"1-1\",\"4109\",\"38\",\"1\",\"Training\",\"Stims/Figures/57-C-30-1.bmp\",\"fa:fava\",\"Down\",\"38\",\"3\",\"14\",\"6B\",\"C1\",\"C\",\"46\"
\"\",\"\",\"approach-retreat\",\"50\",\"425816\",\"0.0-50.0\",\"\",\"\",\"1-1\",\"3907\",\"40\",\"1\",\"Training\",\"Stims/Figures/86-C-30-1.bmp\",\"vafa:sha\",\"Up\",\"40\",\"3\",\"15\",\"6B\",\"C1\",\"C\",\"47\"
\"\",\"\",\"approach-retreat\",\"51\",\"431417\",\"0.0-51.0\",\"\",\"\",\"1-1\",\"4090\",\"38\",\"1\",\"Training\",\"Stims/Figures/94-J-0-2.bmp\",\"za:saha\",\"Up\",\"38\",\"3\",\"16\",\"6B\",\"C2\",\"C\",\"48\"
\"\",\"\",\"approach-retreat\",\"52\",\"437418\",\"0.0-52.0\",\"\",\"\",\"1-1\",\"4491\",\"38\",\"1\",\"Training\",\"Stims/Figures/86-C-30-1.bmp\",\"vafa:sha\",\"Down\",\"38\",\"4\",\"1\",\"6B\",\"C1\",\"C\",\"49\"
\"\",\"\",\"approach-retreat\",\"53\",\"443639\",\"0.0-53.0\",\"\",\"\",\"1-1\",\"4711\",\"39\",\"1\",\"Training\",\"Stims/Figures/94-J-0-2.bmp\",\"za:saha\",\"Right\",\"39\",\"4\",\"2\",\"6B\",\"C2\",\"C\",\"50\"
\"\",\"\",\"approach-retreat\",\"54\",\"450941\",\"0.0-54.0\",\"\",\"\",\"1-1\",\"5787\",\"38\",\"1\",\"Training\",\"Stims/Figures/57-J-0-1.bmp\",\"zasaza\",\"Up\",\"38\",\"4\",\"3\",\"6B\",\"C2\",\"C\",\"51\"
\"\",\"\",\"approach-retreat\",\"55\",\"456541\",\"0.0-55.0\",\"\",\"\",\"1-1\",\"4093\",\"37\",\"1\",\"Training\",\"Stims/Figures/128-J-10-3.bmp\",\"zasa:za\",\"Left\",\"37\",\"4\",\"4\",\"6B\",\"C2\",\"C\",\"52\"
\"\",\"\",\"approach-retreat\",\"56\",\"462337\",\"0.0-56.0\",\"\",\"\",\"1-1\",\"4286\",\"40\",\"1\",\"Training\",\"Stims/Figures/84-J-0-2.bmp\",\"zaha:za\",\"Down\",\"40\",\"4\",\"5\",\"6B\",\"C2\",\"C\",\"53\"
\"\",\"\",\"approach-retreat\",\"57\",\"467993\",\"0.0-57.0\",\"\",\"\",\"1-1\",\"4138\",\"37\",\"1\",\"Training\",\"Stims/Figures/86-J-0-1.bmp\",\"saha:za\",\"Left\",\"37\",\"4\",\"6\",\"6B\",\"C2\",\"C\",\"54\"
\"\",\"\",\"approach-retreat\",\"58\",\"473636\",\"0.0-58.0\",\"\",\"\",\"1-1\",\"4131\",\"40\",\"0\",\"Training\",\"Stims/Figures/84-C-20-2.bmp\",\"vafa:va\",\"Down\",\"38\",\"4\",\"7\",\"6B\",\"C1\",\"C\",\"55\"
\"\",\"\",\"approach-retreat\",\"59\",\"479474\",\"0.0-59.0\",\"\",\"\",\"1-1\",\"4316\",\"38\",\"0\",\"Training\",\"Stims/Figures/94-C-20-2.bmp\",\"va:shasha\",\"Up\",\"40\",\"4\",\"8\",\"6B\",\"C1\",\"C\",\"56\"
\"\",\"\",\"approach-retreat\",\"60\",\"485197\",\"0.0-60.0\",\"\",\"\",\"1-1\",\"4214\",\"39\",\"1\",\"Training\",\"Stims/Figures/19-J-10-4.bmp\",\"sasaza\",\"Right\",\"39\",\"4\",\"9\",\"6B\",\"C2\",\"C\",\"57\"
\"\",\"\",\"approach-retreat\",\"61\",\"490781\",\"0.0-61.0\",\"\",\"\",\"1-1\",\"4075\",\"37\",\"0\",\"Training\",\"Stims/Figures/87-C-20-4.bmp\",\"vafasha\",\"Left\",\"39\",\"4\",\"10\",\"6B\",\"C1\",\"C\",\"58\"
\"\",\"\",\"approach-retreat\",\"62\",\"496669\",\"0.0-62.0\",\"\",\"\",\"1-1\",\"4379\",\"40\",\"1\",\"Training\",\"Stims/Figures/111-C-30-3.bmp\",\"fa:sha:sha\",\"Up\",\"40\",\"4\",\"11\",\"6B\",\"C1\",\"C\",\"59\"
\"\",\"\",\"approach-retreat\",\"63\",\"502302\",\"0.0-63.0\",\"\",\"\",\"1-1\",\"4125\",\"40\",\"1\",\"Training\",\"Stims/Figures/19-C-20-4.bmp\",\"va:sha:sha\",\"Up\",\"40\",\"4\",\"12\",\"6B\",\"C1\",\"C\",\"60\"
\"\",\"\",\"approach-retreat\",\"64\",\"508095\",\"0.0-64.0\",\"\",\"\",\"1-1\",\"4278\",\"40\",\"1\",\"Training\",\"Stims/Figures/87-J-10-4.bmp\",\"sahaza\",\"Down\",\"40\",\"4\",\"13\",\"6B\",\"C2\",\"C\",\"61\"
\"\",\"\",\"approach-retreat\",\"65\",\"513847\",\"0.0-65.0\",\"\",\"\",\"1-1\",\"4242\",\"39\",\"0\",\"Training\",\"Stims/Figures/57-C-30-1.bmp\",\"fa:fava\",\"Right\",\"37\",\"4\",\"14\",\"6B\",\"C1\",\"C\",\"62\"
\"\",\"\",\"approach-retreat\",\"66\",\"520282\",\"0.0-66.0\",\"\",\"\",\"1-1\",\"4921\",\"39\",\"0\",\"Training\",\"Stims/Figures/128-C-30-3.bmp\",\"va:fa:va\",\"Right\",\"37\",\"4\",\"15\",\"6B\",\"C1\",\"C\",\"63\"
\"\",\"\",\"approach-retreat\",\"67\",\"527709\",\"0.0-67.0\",\"\",\"\",\"1-1\",\"5914\",\"39\",\"0\",\"Training\",\"Stims/Figures/111-J-10-3.bmp\",\"za:sa:ha\",\"Left\",\"37\",\"4\",\"16\",\"6B\",\"C2\",\"C\",\"64\"
\"\",\"\",\"approach-retreat\",\"68\",\"535023\",\"0.0-68.0\",\"\",\"\",\"1-1\",\"5802\",\"39\",\"1\",\"Training\",\"Stims/Figures/111-J-10-3.bmp\",\"za:sa:ha\",\"Right\",\"39\",\"5\",\"1\",\"6B\",\"C2\",\"C\",\"65\"
\"\",\"\",\"approach-retreat\",\"69\",\"541173\",\"0.0-69.0\",\"\",\"\",\"1-1\",\"4642\",\"38\",\"0\",\"Training\",\"Stims/Figures/19-C-20-4.bmp\",\"va:sha:sha\",\"Up\",\"40\",\"5\",\"2\",\"6B\",\"C1\",\"C\",\"66\"
\"\",\"\",\"approach-retreat\",\"70\",\"546913\",\"0.0-70.0\",\"\",\"\",\"1-1\",\"4233\",\"37\",\"0\",\"Training\",\"Stims/Figures/94-J-0-2.bmp\",\"za:saha\",\"Right\",\"39\",\"5\",\"3\",\"6B\",\"C2\",\"C\",\"67\"
\"\",\"\",\"approach-retreat\",\"71\",\"553147\",\"0.0-71.0\",\"\",\"\",\"1-1\",\"4721\",\"40\",\"0\",\"Training\",\"Stims/Figures/128-C-30-3.bmp\",\"va:fa:va\",\"Down\",\"38\",\"5\",\"4\",\"6B\",\"C1\",\"C\",\"68\"
\"\",\"\",\"approach-retreat\",\"72\",\"559667\",\"0.0-72.0\",\"\",\"\",\"1-1\",\"5012\",\"37\",\"1\",\"Training\",\"Stims/Figures/128-J-10-3.bmp\",\"zasa:za\",\"Left\",\"37\",\"5\",\"5\",\"6B\",\"C2\",\"C\",\"69\"
\"\",\"\",\"approach-retreat\",\"73\",\"565394\",\"0.0-73.0\",\"\",\"\",\"1-1\",\"4213\",\"39\",\"1\",\"Training\",\"Stims/Figures/84-J-0-2.bmp\",\"zaha:za\",\"Right\",\"39\",\"5\",\"6\",\"6B\",\"C2\",\"C\",\"70\"
\"\",\"\",\"approach-retreat\",\"74\",\"570971\",\"0.0-74.0\",\"\",\"\",\"1-1\",\"4069\",\"37\",\"1\",\"Training\",\"Stims/Figures/86-J-0-1.bmp\",\"saha:za\",\"Left\",\"37\",\"5\",\"7\",\"6B\",\"C2\",\"C\",\"71\"
\"\",\"\",\"approach-retreat\",\"75\",\"576710\",\"0.0-75.0\",\"\",\"\",\"1-1\",\"4231\",\"40\",\"1\",\"Training\",\"Stims/Figures/94-C-20-2.bmp\",\"va:shasha\",\"Up\",\"40\",\"5\",\"8\",\"6B\",\"C1\",\"C\",\"72\"
\"\",\"\",\"approach-retreat\",\"76\",\"583213\",\"0.0-76.0\",\"\",\"\",\"1-1\",\"4986\",\"38\",\"1\",\"Training\",\"Stims/Figures/86-C-30-1.bmp\",\"vafa:sha\",\"Down\",\"38\",\"5\",\"9\",\"6B\",\"C1\",\"C\",\"73\"
\"\",\"\",\"approach-retreat\",\"77\",\"589787\",\"0.0-77.0\",\"\",\"\",\"1-1\",\"5062\",\"39\",\"0\",\"Training\",\"Stims/Figures/87-J-10-4.bmp\",\"sahaza\",\"Left\",\"37\",\"5\",\"10\",\"6B\",\"C2\",\"C\",\"74\"
\"\",\"\",\"approach-retreat\",\"78\",\"595728\",\"0.0-78.0\",\"\",\"\",\"1-1\",\"4429\",\"38\",\"1\",\"Training\",\"Stims/Figures/57-J-0-1.bmp\",\"zasaza\",\"Up\",\"38\",\"5\",\"11\",\"6B\",\"C2\",\"C\",\"75\"
\"\",\"\",\"approach-retreat\",\"79\",\"601472\",\"0.0-79.0\",\"\",\"\",\"1-1\",\"4229\",\"40\",\"0\",\"Training\",\"Stims/Figures/84-C-20-2.bmp\",\"vafa:va\",\"Down\",\"38\",\"5\",\"12\",\"6B\",\"C1\",\"C\",\"76\"
\"\",\"\",\"approach-retreat\",\"80\",\"607174\",\"0.0-80.0\",\"\",\"\",\"1-1\",\"4189\",\"40\",\"0\",\"Training\",\"Stims/Figures/57-C-30-1.bmp\",\"fa:fava\",\"Down\",\"38\",\"5\",\"13\",\"6B\",\"C1\",\"C\",\"77\"
\"\",\"\",\"approach-retreat\",\"81\",\"614169\",\"0.0-81.0\",\"\",\"\",\"1-1\",\"5480\",\"40\",\"1\",\"Training\",\"Stims/Figures/87-C-20-4.bmp\",\"vafasha\",\"Up\",\"40\",\"5\",\"14\",\"6B\",\"C1\",\"C\",\"78\"
\"\",\"\",\"approach-retreat\",\"82\",\"619742\",\"0.0-82.0\",\"\",\"\",\"1-1\",\"4067\",\"37\",\"1\",\"Training\",\"Stims/Figures/19-J-10-4.bmp\",\"sasaza\",\"Left\",\"37\",\"5\",\"15\",\"6B\",\"C2\",\"C\",\"79\"
\"\",\"\",\"approach-retreat\",\"83\",\"625595\",\"0.0-83.0\",\"\",\"\",\"1-1\",\"4341\",\"37\",\"1\",\"Training\",\"Stims/Figures/111-C-30-3.bmp\",\"fa:sha:sha\",\"Right\",\"37\",\"5\",\"16\",\"6B\",\"C1\",\"C\",\"80\"
\"\",\"\",\"approach-retreat\",\"84\",\"631364\",\"0.0-84.0\",\"\",\"\",\"1-1\",\"4254\",\"38\",\"0\",\"Training\",\"Stims/Figures/86-J-0-1.bmp\",\"saha:za\",\"Down\",\"40\",\"6\",\"1\",\"6B\",\"C2\",\"C\",\"81\"
\"\",\"\",\"approach-retreat\",\"85\",\"637036\",\"0.0-85.0\",\"\",\"\",\"1-1\",\"4165\",\"39\",\"1\",\"Training\",\"Stims/Figures/128-C-30-3.bmp\",\"va:fa:va\",\"Left\",\"39\",\"6\",\"2\",\"6B\",\"C1\",\"C\",\"82\"
\"\",\"\",\"approach-retreat\",\"86\",\"643051\",\"0.0-86.0\",\"\",\"\",\"1-1\",\"4505\",\"40\",\"1\",\"Training\",\"Stims/Figures/111-C-30-3.bmp\",\"fa:sha:sha\",\"Up\",\"40\",\"6\",\"3\",\"6B\",\"C1\",\"C\",\"83\"
\"\",\"\",\"approach-retreat\",\"87\",\"648901\",\"0.0-87.0\",\"\",\"\",\"1-1\",\"4335\",\"37\",\"1\",\"Training\",\"Stims/Figures/84-C-20-2.bmp\",\"vafa:va\",\"Right\",\"37\",\"6\",\"4\",\"6B\",\"C1\",\"C\",\"84\"
\"\",\"\",\"approach-retreat\",\"88\",\"654998\",\"0.0-88.0\",\"\",\"\",\"1-1\",\"4589\",\"38\",\"1\",\"Training\",\"Stims/Figures/19-C-20-4.bmp\",\"va:sha:sha\",\"Down\",\"38\",\"6\",\"5\",\"6B\",\"C1\",\"C\",\"85\"
\"\",\"\",\"approach-retreat\",\"89\",\"660548\",\"0.0-89.0\",\"\",\"\",\"1-1\",\"4040\",\"37\",\"1\",\"Training\",\"Stims/Figures/57-C-30-1.bmp\",\"fa:fava\",\"Right\",\"37\",\"6\",\"6\",\"6B\",\"C1\",\"C\",\"86\"
\"\",\"\",\"approach-retreat\",\"90\",\"666348\",\"0.0-90.0\",\"\",\"\",\"1-1\",\"4289\",\"39\",\"0\",\"Training\",\"Stims/Figures/84-J-0-2.bmp\",\"zaha:za\",\"Left\",\"37\",\"6\",\"7\",\"6B\",\"C2\",\"C\",\"87\"
\"\",\"\",\"approach-retreat\",\"91\",\"671893\",\"0.0-91.0\",\"\",\"\",\"1-1\",\"4030\",\"37\",\"1\",\"Training\",\"Stims/Figures/128-J-10-3.bmp\",\"zasa:za\",\"Left\",\"37\",\"6\",\"8\",\"6B\",\"C2\",\"C\",\"88\"
\"\",\"\",\"approach-retreat\",\"92\",\"677740\",\"0.0-92.0\",\"\",\"\",\"1-1\",\"4339\",\"38\",\"1\",\"Training\",\"Stims/Figures/57-J-0-1.bmp\",\"zasaza\",\"Up\",\"38\",\"6\",\"9\",\"6B\",\"C2\",\"C\",\"89\"
\"\",\"\",\"approach-retreat\",\"93\",\"683669\",\"0.0-93.0\",\"\",\"\",\"1-1\",\"4416\",\"39\",\"1\",\"Training\",\"Stims/Figures/87-J-10-4.bmp\",\"sahaza\",\"Right\",\"39\",\"6\",\"10\",\"6B\",\"C2\",\"C\",\"90\"
\"\",\"\",\"approach-retreat\",\"94\",\"689726\",\"0.0-94.0\",\"\",\"\",\"1-1\",\"4548\",\"40\",\"0\",\"Training\",\"Stims/Figures/94-J-0-2.bmp\",\"za:saha\",\"Up\",\"38\",\"6\",\"11\",\"6B\",\"C2\",\"C\",\"91\"
\"\",\"\",\"approach-retreat\",\"95\",\"695585\",\"0.0-95.0\",\"\",\"\",\"1-1\",\"4343\",\"40\",\"1\",\"Training\",\"Stims/Figures/19-J-10-4.bmp\",\"sasaza\",\"Down\",\"40\",\"6\",\"12\",\"6B\",\"C2\",\"C\",\"92\"
\"\",\"\",\"approach-retreat\",\"96\",\"700988\",\"0.0-96.0\",\"\",\"\",\"1-1\",\"3894\",\"40\",\"0\",\"Training\",\"Stims/Figures/87-C-20-4.bmp\",\"vafasha\",\"Down\",\"38\",\"6\",\"13\",\"6B\",\"C1\",\"C\",\"93\"
\"\",\"\",\"approach-retreat\",\"97\",\"706719\",\"0.0-97.0\",\"\",\"\",\"1-1\",\"4219\",\"39\",\"1\",\"Training\",\"Stims/Figures/86-C-30-1.bmp\",\"vafa:sha\",\"Left\",\"39\",\"6\",\"14\",\"6B\",\"C1\",\"C\",\"94\"
\"\",\"\",\"approach-retreat\",\"98\",\"712632\",\"0.0-98.0\",\"\",\"\",\"1-1\",\"4404\",\"39\",\"0\",\"Training\",\"Stims/Figures/94-C-20-2.bmp\",\"va:shasha\",\"Right\",\"37\",\"6\",\"15\",\"6B\",\"C1\",\"C\",\"95\"
\"\",\"\",\"approach-retreat\",\"99\",\"718364\",\"0.0-99.0\",\"\",\"\",\"1-1\",\"4218\",\"40\",\"0\",\"Training\",\"Stims/Figures/111-J-10-3.bmp\",\"za:sa:ha\",\"Up\",\"38\",\"6\",\"16\",\"6B\",\"C2\",\"C\",\"96\"
\"\",\"\",\"approach-retreat\",\"100\",\"724038\",\"0.0-100.0\",\"\",\"\",\"1-1\",\"4164\",\"38\",\"0\",\"Training\",\"Stims/Figures/57-C-30-1.bmp\",\"fa:fava\",\"Up\",\"40\",\"7\",\"1\",\"6B\",\"C1\",\"C\",\"97\"
\"\",\"\",\"approach-retreat\",\"101\",\"729569\",\"0.0-101.0\",\"\",\"\",\"1-1\",\"4023\",\"40\",\"1\",\"Training\",\"Stims/Figures/19-C-20-4.bmp\",\"va:sha:sha\",\"Up\",\"40\",\"7\",\"2\",\"6B\",\"C1\",\"C\",\"98\"
\"\",\"\",\"approach-retreat\",\"102\",\"735195\",\"0.0-102.0\",\"\",\"\",\"1-1\",\"4115\",\"39\",\"1\",\"Training\",\"Stims/Figures/128-J-10-3.bmp\",\"zasa:za\",\"Right\",\"39\",\"7\",\"3\",\"6B\",\"C2\",\"C\",\"99\"
\"\",\"\",\"approach-retreat\",\"103\",\"740845\",\"0.0-103.0\",\"\",\"\",\"1-1\",\"4135\",\"39\",\"1\",\"Training\",\"Stims/Figures/94-J-0-2.bmp\",\"za:saha\",\"Right\",\"39\",\"7\",\"4\",\"6B\",\"C2\",\"C\",\"100\"
\"\",\"\",\"approach-retreat\",\"104\",\"746482\",\"0.0-104.0\",\"\",\"\",\"1-1\",\"4120\",\"37\",\"0\",\"Training\",\"Stims/Figures/87-C-20-4.bmp\",\"vafasha\",\"Left\",\"39\",\"7\",\"5\",\"6B\",\"C1\",\"C\",\"101\"
\"\",\"\",\"approach-retreat\",\"105\",\"752335\",\"0.0-105.0\",\"\",\"\",\"1-1\",\"4337\",\"38\",\"1\",\"Training\",\"Stims/Figures/128-C-30-3.bmp\",\"va:fa:va\",\"Down\",\"38\",\"7\",\"6\",\"6B\",\"C1\",\"C\",\"102\"
\"\",\"\",\"approach-retreat\",\"106\",\"758138\",\"0.0-106.0\",\"\",\"\",\"1-1\",\"4293\",\"38\",\"1\",\"Training\",\"Stims/Figures/86-J-0-1.bmp\",\"saha:za\",\"Up\",\"38\",\"7\",\"7\",\"6B\",\"C2\",\"C\",\"103\"
\"\",\"\",\"approach-retreat\",\"107\",\"763821\",\"0.0-107.0\",\"\",\"\",\"1-1\",\"4178\",\"38\",\"0\",\"Training\",\"Stims/Figures/57-J-0-1.bmp\",\"zasaza\",\"Down\",\"40\",\"7\",\"8\",\"6B\",\"C2\",\"C\",\"104\"
\"\",\"\",\"approach-retreat\",\"108\",\"770664\",\"0.0-108.0\",\"\",\"\",\"1-1\",\"5328\",\"38\",\"1\",\"Training\",\"Stims/Figures/94-C-20-2.bmp\",\"va:shasha\",\"Down\",\"38\",\"7\",\"9\",\"6B\",\"C1\",\"C\",\"105\"
\"\",\"\",\"approach-retreat\",\"109\",\"776573\",\"0.0-109.0\",\"\",\"\",\"1-1\",\"4394\",\"40\",\"0\",\"Training\",\"Stims/Figures/86-C-30-1.bmp\",\"vafa:sha\",\"Down\",\"38\",\"7\",\"10\",\"6B\",\"C1\",\"C\",\"106\"
\"\",\"\",\"approach-retreat\",\"110\",\"782220\",\"0.0-110.0\",\"\",\"\",\"1-1\",\"4138\",\"39\",\"1\",\"Training\",\"Stims/Figures/87-J-10-4.bmp\",\"sahaza\",\"Right\",\"39\",\"7\",\"11\",\"6B\",\"C2\",\"C\",\"107\"
\"\",\"\",\"approach-retreat\",\"111\",\"787930\",\"0.0-111.0\",\"\",\"\",\"1-1\",\"4205\",\"37\",\"1\",\"Training\",\"Stims/Figures/111-J-10-3.bmp\",\"za:sa:ha\",\"Left\",\"37\",\"7\",\"12\",\"6B\",\"C2\",\"C\",\"108\"
\"\",\"\",\"approach-retreat\",\"112\",\"793624\",\"0.0-112.0\",\"\",\"\",\"1-1\",\"4182\",\"40\",\"1\",\"Training\",\"Stims/Figures/111-C-30-3.bmp\",\"fa:sha:sha\",\"Up\",\"40\",\"7\",\"13\",\"6B\",\"C1\",\"C\",\"109\"
\"\",\"\",\"approach-retreat\",\"113\",\"799303\",\"0.0-113.0\",\"\",\"\",\"1-1\",\"4170\",\"37\",\"1\",\"Training\",\"Stims/Figures/19-J-10-4.bmp\",\"sasaza\",\"Left\",\"37\",\"7\",\"14\",\"6B\",\"C2\",\"C\",\"110\"
\"\",\"\",\"approach-retreat\",\"114\",\"804969\",\"0.0-114.0\",\"\",\"\",\"1-1\",\"4155\",\"39\",\"1\",\"Training\",\"Stims/Figures/84-C-20-2.bmp\",\"vafa:va\",\"Left\",\"39\",\"7\",\"15\",\"6B\",\"C1\",\"C\",\"111\"
\"\",\"\",\"approach-retreat\",\"115\",\"810591\",\"0.0-115.0\",\"\",\"\",\"1-1\",\"4113\",\"39\",\"1\",\"Training\",\"Stims/Figures/84-J-0-2.bmp\",\"zaha:za\",\"Right\",\"39\",\"7\",\"16\",\"6B\",\"C2\",\"C\",\"112\"
\"\",\"\",\"approach-retreat\",\"116\",\"816212\",\"0.0-116.0\",\"\",\"\",\"1-1\",\"4109\",\"39\",\"1\",\"Training\",\"Stims/Figures/87-J-10-4.bmp\",\"sahaza\",\"Right\",\"39\",\"8\",\"1\",\"6B\",\"C2\",\"C\",\"113\"
\"\",\"\",\"approach-retreat\",\"117\",\"821921\",\"0.0-117.0\",\"\",\"\",\"1-1\",\"4202\",\"39\",\"1\",\"Training\",\"Stims/Figures/111-C-30-3.bmp\",\"fa:sha:sha\",\"Left\",\"39\",\"8\",\"2\",\"6B\",\"C1\",\"C\",\"114\"
\"\",\"\",\"approach-retreat\",\"118\",\"827867\",\"0.0-118.0\",\"\",\"\",\"1-1\",\"4435\",\"37\",\"1\",\"Training\",\"Stims/Figures/19-J-10-4.bmp\",\"sasaza\",\"Left\",\"37\",\"8\",\"3\",\"6B\",\"C2\",\"C\",\"115\"
\"\",\"\",\"approach-retreat\",\"119\",\"833679\",\"0.0-119.0\",\"\",\"\",\"1-1\",\"4295\",\"37\",\"1\",\"Training\",\"Stims/Figures/128-C-30-3.bmp\",\"va:fa:va\",\"Right\",\"37\",\"8\",\"4\",\"6B\",\"C1\",\"C\",\"116\"
\"\",\"\",\"approach-retreat\",\"120\",\"839892\",\"0.0-120.0\",\"\",\"\",\"1-1\",\"4706\",\"38\",\"1\",\"Training\",\"Stims/Figures/84-J-0-2.bmp\",\"zaha:za\",\"Up\",\"38\",\"8\",\"5\",\"6B\",\"C2\",\"C\",\"117\"
\"\",\"\",\"approach-retreat\",\"121\",\"846151\",\"0.0-121.0\",\"\",\"\",\"1-1\",\"4746\",\"38\",\"1\",\"Training\",\"Stims/Figures/19-C-20-4.bmp\",\"va:sha:sha\",\"Down\",\"38\",\"8\",\"6\",\"6B\",\"C1\",\"C\",\"118\"
\"\",\"\",\"approach-retreat\",\"122\",\"852426\",\"0.0-122.0\",\"\",\"\",\"1-1\",\"4763\",\"39\",\"1\",\"Training\",\"Stims/Figures/86-C-30-1.bmp\",\"vafa:sha\",\"Left\",\"39\",\"8\",\"7\",\"6B\",\"C1\",\"C\",\"119\"
\"\",\"\",\"approach-retreat\",\"123\",\"858450\",\"0.0-123.0\",\"\",\"\",\"1-1\",\"4513\",\"39\",\"1\",\"Training\",\"Stims/Figures/84-C-20-2.bmp\",\"vafa:va\",\"Left\",\"39\",\"8\",\"8\",\"6B\",\"C1\",\"C\",\"120\"
\"\",\"\",\"approach-retreat\",\"124\",\"864084\",\"0.0-124.0\",\"\",\"\",\"1-1\",\"4126\",\"40\",\"0\",\"Training\",\"Stims/Figures/57-J-0-1.bmp\",\"zasaza\",\"Up\",\"38\",\"8\",\"9\",\"6B\",\"C2\",\"C\",\"121\"
\"\",\"\",\"approach-retreat\",\"125\",\"870274\",\"0.0-125.0\",\"\",\"\",\"1-1\",\"4679\",\"38\",\"0\",\"Training\",\"Stims/Figures/94-J-0-2.bmp\",\"za:saha\",\"Down\",\"40\",\"8\",\"10\",\"6B\",\"C2\",\"C\",\"122\"
\"\",\"\",\"approach-retreat\",\"126\",\"876761\",\"0.0-126.0\",\"\",\"\",\"1-1\",\"4972\",\"40\",\"0\",\"Training\",\"Stims/Figures/128-J-10-3.bmp\",\"zasa:za\",\"Up\",\"38\",\"8\",\"11\",\"6B\",\"C2\",\"C\",\"123\"
\"\",\"\",\"approach-retreat\",\"127\",\"882993\",\"0.0-127.0\",\"\",\"\",\"1-1\",\"4725\",\"38\",\"0\",\"Training\",\"Stims/Figures/86-J-0-1.bmp\",\"saha:za\",\"Down\",\"40\",\"8\",\"12\",\"6B\",\"C2\",\"C\",\"124\"
\"\",\"\",\"approach-retreat\",\"128\",\"889204\",\"0.0-128.0\",\"\",\"\",\"1-1\",\"4700\",\"38\",\"1\",\"Training\",\"Stims/Figures/94-C-20-2.bmp\",\"va:shasha\",\"Down\",\"38\",\"8\",\"13\",\"6B\",\"C1\",\"C\",\"125\"
\"\",\"\",\"approach-retreat\",\"129\",\"894879\",\"0.0-129.0\",\"\",\"\",\"1-1\",\"4163\",\"39\",\"1\",\"Training\",\"Stims/Figures/111-J-10-3.bmp\",\"za:sa:ha\",\"Right\",\"39\",\"8\",\"14\",\"6B\",\"C2\",\"C\",\"126\"
\"\",\"\",\"approach-retreat\",\"130\",\"900422\",\"0.0-130.0\",\"\",\"\",\"1-1\",\"4030\",\"37\",\"1\",\"Training\",\"Stims/Figures/57-C-30-1.bmp\",\"fa:fava\",\"Right\",\"37\",\"8\",\"15\",\"6B\",\"C1\",\"C\",\"127\"
\"\",\"\",\"approach-retreat\",\"131\",\"906052\",\"0.0-131.0\",\"\",\"\",\"1-1\",\"4121\",\"40\",\"1\",\"Training\",\"Stims/Figures/87-C-20-4.bmp\",\"vafasha\",\"Up\",\"40\",\"8\",\"16\",\"6B\",\"C1\",\"C\",\"128\"
\"\",\"\",\"approach-retreat\",\"132\",\"911889\",\"0.0-132.0\",\"\",\"\",\"1-1\",\"4322\",\"37\",\"0\",\"Training\",\"Stims/Figures/87-J-10-4.bmp\",\"sahaza\",\"Right\",\"39\",\"9\",\"1\",\"6B\",\"C2\",\"C\",\"129\"
\"\",\"\",\"approach-retreat\",\"133\",\"917492\",\"0.0-133.0\",\"\",\"\",\"1-1\",\"4096\",\"40\",\"0\",\"Training\",\"Stims/Figures/84-J-0-2.bmp\",\"zaha:za\",\"Up\",\"38\",\"9\",\"2\",\"6B\",\"C2\",\"C\",\"130\"
\"\",\"\",\"approach-retreat\",\"134\",\"923244\",\"0.0-134.0\",\"\",\"\",\"1-1\",\"4241\",\"39\",\"1\",\"Training\",\"Stims/Figures/19-J-10-4.bmp\",\"sasaza\",\"Right\",\"39\",\"9\",\"3\",\"6B\",\"C2\",\"C\",\"131\"
\"\",\"\",\"approach-retreat\",\"135\",\"930609\",\"0.0-135.0\",\"\",\"\",\"1-1\",\"5858\",\"38\",\"1\",\"Training\",\"Stims/Figures/111-C-30-3.bmp\",\"fa:sha:sha\",\"Down\",\"38\",\"9\",\"4\",\"6B\",\"C1\",\"C\",\"132\"
\"\",\"\",\"approach-retreat\",\"136\",\"936352\",\"0.0-136.0\",\"\",\"\",\"1-1\",\"4236\",\"39\",\"1\",\"Training\",\"Stims/Figures/19-C-20-4.bmp\",\"va:sha:sha\",\"Left\",\"39\",\"9\",\"5\",\"6B\",\"C1\",\"C\",\"133\"
\"\",\"\",\"approach-retreat\",\"137\",\"942310\",\"0.0-137.0\",\"\",\"\",\"1-1\",\"4445\",\"38\",\"1\",\"Training\",\"Stims/Figures/94-C-20-2.bmp\",\"va:shasha\",\"Down\",\"38\",\"9\",\"6\",\"6B\",\"C1\",\"C\",\"134\"
\"\",\"\",\"approach-retreat\",\"138\",\"948795\",\"0.0-138.0\",\"\",\"\",\"1-1\",\"4964\",\"37\",\"1\",\"Training\",\"Stims/Figures/84-C-20-2.bmp\",\"vafa:va\",\"Right\",\"37\",\"9\",\"7\",\"6B\",\"C1\",\"C\",\"135\"
\"\",\"\",\"approach-retreat\",\"139\",\"955175\",\"0.0-139.0\",\"\",\"\",\"1-1\",\"4866\",\"40\",\"1\",\"Training\",\"Stims/Figures/128-C-30-3.bmp\",\"va:fa:va\",\"Up\",\"40\",\"9\",\"8\",\"6B\",\"C1\",\"C\",\"136\"
\"\",\"\",\"approach-retreat\",\"140\",\"961900\",\"0.0-140.0\",\"\",\"\",\"1-1\",\"5213\",\"40\",\"1\",\"Training\",\"Stims/Figures/57-J-0-1.bmp\",\"zasaza\",\"Down\",\"40\",\"9\",\"9\",\"6B\",\"C2\",\"C\",\"137\"
\"\",\"\",\"approach-retreat\",\"141\",\"967607\",\"0.0-141.0\",\"\",\"\",\"1-1\",\"4199\",\"37\",\"1\",\"Training\",\"Stims/Figures/94-J-0-2.bmp\",\"za:saha\",\"Left\",\"37\",\"9\",\"10\",\"6B\",\"C2\",\"C\",\"138\"
\"\",\"\",\"approach-retreat\",\"142\",\"973177\",\"0.0-142.0\",\"\",\"\",\"1-1\",\"4060\",\"37\",\"0\",\"Training\",\"Stims/Figures/57-C-30-1.bmp\",\"fa:fava\",\"Left\",\"39\",\"9\",\"11\",\"6B\",\"C1\",\"C\",\"139\"
\"\",\"\",\"approach-retreat\",\"143\",\"979592\",\"0.0-143.0\",\"\",\"\",\"1-1\",\"4902\",\"38\",\"1\",\"Training\",\"Stims/Figures/87-C-20-4.bmp\",\"vafasha\",\"Down\",\"38\",\"9\",\"12\",\"6B\",\"C1\",\"C\",\"140\"
\"\",\"\",\"approach-retreat\",\"144\",\"985632\",\"0.0-144.0\",\"\",\"\",\"1-1\",\"4533\",\"39\",\"1\",\"Training\",\"Stims/Figures/128-J-10-3.bmp\",\"zasa:za\",\"Right\",\"39\",\"9\",\"13\",\"6B\",\"C2\",\"C\",\"141\"
\"\",\"\",\"approach-retreat\",\"145\",\"991307\",\"0.0-145.0\",\"\",\"\",\"1-1\",\"4162\",\"40\",\"1\",\"Training\",\"Stims/Figures/86-C-30-1.bmp\",\"vafa:sha\",\"Up\",\"40\",\"9\",\"14\",\"6B\",\"C1\",\"C\",\"142\"
\"\",\"\",\"approach-retreat\",\"146\",\"997882\",\"0.0-146.0\",\"\",\"\",\"1-1\",\"5065\",\"40\",\"0\",\"Training\",\"Stims/Figures/111-J-10-3.bmp\",\"za:sa:ha\",\"Up\",\"38\",\"9\",\"15\",\"6B\",\"C2\",\"C\",\"143\"
\"\",\"\",\"approach-retreat\",\"147\",\"1003472\",\"0.0-147.0\",\"\",\"\",\"1-1\",\"4081\",\"37\",\"1\",\"Training\",\"Stims/Figures/86-J-0-1.bmp\",\"saha:za\",\"Left\",\"37\",\"9\",\"16\",\"6B\",\"C2\",\"C\",\"144\"
\"165512\",\"\",\"instructions\",\"148\",\"1168984\",\"0.0-148.0\",\"[{\"\"page_index\"\":0,\"\"viewing_time\"\":165512}]\",\"\",\"\",\"\",\"\",\"\",\"\",\"\",\"\",\"\",\"\",\"\",\"\",\"\",\"\",\"\",\"\"
\"\",\"\",\"approach-retreat\",\"149\",\"1174930\",\"0.0-149.0\",\"\",\"\",\"1-1\",\"4430\",\"39\",\"0\",\"Testing\",\"Stims/Figures/84-C-20-2.bmp\",\"vafa:va\",\"Right\",\"37\",\"1\",\"1\",\"6B\",\"C1\",\"C\",\"1\"
\"\",\"\",\"approach-retreat\",\"150\",\"1180883\",\"0.0-150.0\",\"\",\"\",\"1-1\",\"4442\",\"39\",\"1\",\"Testing\",\"Stims/Figures/19-C-20-4.bmp\",\"va:sha:sha\",\"Left\",\"39\",\"1\",\"2\",\"6B\",\"C1\",\"C\",\"2\"
\"\",\"\",\"approach-retreat\",\"151\",\"1187701\",\"0.0-151.0\",\"\",\"\",\"1-1\",\"5312\",\"38\",\"0\",\"Testing\",\"Stims/Figures/71-C-30-1.bmp\",\"vashasha\",\"Up\",\"40\",\"1\",\"3\",\"6B\",\"C1\",\"C\",\"3\"
\"\",\"\",\"approach-retreat\",\"152\",\"1194713\",\"0.0-152.0\",\"\",\"\",\"1-1\",\"5506\",\"40\",\"0\",\"Testing\",\"Stims/Figures/102-C-20-4.bmp\",\"vashava\",\"Down\",\"38\",\"1\",\"4\",\"6B\",\"C1\",\"C\",\"4\"
\"\",\"\",\"approach-retreat\",\"153\",\"1200904\",\"0.0-153.0\",\"\",\"\",\"1-1\",\"4679\",\"40\",\"1\",\"Testing\",\"Stims/Figures/128-J-10-3.bmp\",\"zasa:za\",\"Down\",\"40\",\"1\",\"5\",\"6B\",\"C2\",\"C\",\"5\"
\"\",\"\",\"approach-retreat\",\"154\",\"1206856\",\"0.0-154.0\",\"\",\"\",\"1-1\",\"4444\",\"37\",\"1\",\"Testing\",\"Stims/Figures/87-C-20-4.bmp\",\"vafasha\",\"Right\",\"37\",\"1\",\"6\",\"6B\",\"C1\",\"C\",\"6\"
\"\",\"\",\"approach-retreat\",\"155\",\"1213060\",\"0.0-155.0\",\"\",\"\",\"1-1\",\"4697\",\"38\",\"1\",\"Testing\",\"Stims/Figures/86-C-30-1.bmp\",\"vafa:sha\",\"Down\",\"38\",\"1\",\"7\",\"6B\",\"C1\",\"C\",\"7\"
\"\",\"\",\"approach-retreat\",\"156\",\"1219042\",\"0.0-156.0\",\"\",\"\",\"1-1\",\"4474\",\"38\",\"1\",\"Testing\",\"Stims/Figures/111-C-30-3.bmp\",\"fa:sha:sha\",\"Down\",\"38\",\"1\",\"8\",\"6B\",\"C1\",\"C\",\"8\"
\"\",\"\",\"approach-retreat\",\"157\",\"1225064\",\"0.0-157.0\",\"\",\"\",\"1-1\",\"4510\",\"37\",\"0\",\"Testing\",\"Stims/Figures/128-C-30-3.bmp\",\"va:fa:va\",\"Left\",\"39\",\"1\",\"9\",\"6B\",\"C1\",\"C\",\"9\"
\"\",\"\",\"approach-retreat\",\"158\",\"1230704\",\"0.0-158.0\",\"\",\"\",\"1-1\",\"4131\",\"37\",\"1\",\"Testing\",\"Stims/Figures/86-J-0-1.bmp\",\"saha:za\",\"Left\",\"37\",\"1\",\"10\",\"6B\",\"C2\",\"C\",\"10\"
\"\",\"\",\"approach-retreat\",\"159\",\"1237703\",\"0.0-159.0\",\"\",\"\",\"1-1\",\"5490\",\"39\",\"0\",\"Testing\",\"Stims/Figures/44-C-30-3.bmp\",\"va:shava\",\"Right\",\"37\",\"1\",\"11\",\"6B\",\"C1\",\"C\",\"11\"
\"\",\"\",\"approach-retreat\",\"160\",\"1244402\",\"0.0-160.0\",\"\",\"\",\"1-1\",\"5186\",\"38\",\"1\",\"Testing\",\"Stims/Figures/57-J-0-1.bmp\",\"zasaza\",\"Up\",\"38\",\"1\",\"12\",\"6B\",\"C2\",\"C\",\"12\"
\"\",\"\",\"approach-retreat\",\"161\",\"1251570\",\"0.0-161.0\",\"\",\"\",\"1-1\",\"5655\",\"38\",\"1\",\"Testing\",\"Stims/Figures/84-J-0-2.bmp\",\"zaha:za\",\"Up\",\"38\",\"1\",\"13\",\"6B\",\"C2\",\"C\",\"13\"
\"\",\"\",\"approach-retreat\",\"162\",\"1257376\",\"0.0-162.0\",\"\",\"\",\"1-1\",\"4293\",\"39\",\"1\",\"Testing\",\"Stims/Figures/44-J-10-3.bmp\",\"sa:haha\",\"Right\",\"39\",\"1\",\"14\",\"6B\",\"C2\",\"C\",\"14\"
\"\",\"\",\"approach-retreat\",\"163\",\"1263958\",\"0.0-163.0\",\"\",\"\",\"1-1\",\"5077\",\"39\",\"1\",\"Testing\",\"Stims/Figures/85-C-20-2.bmp\",\"vasha:sha\",\"Left\",\"39\",\"1\",\"15\",\"6B\",\"C1\",\"C\",\"15\"
\"\",\"\",\"approach-retreat\",\"164\",\"1270237\",\"0.0-164.0\",\"\",\"\",\"1-1\",\"4773\",\"40\",\"0\",\"Testing\",\"Stims/Figures/85-J-0-2.bmp\",\"sa:saha\",\"Up\",\"38\",\"1\",\"16\",\"6B\",\"C2\",\"C\",\"16\"
\"\",\"\",\"approach-retreat\",\"165\",\"1276036\",\"0.0-165.0\",\"\",\"\",\"1-1\",\"4283\",\"37\",\"0\",\"Testing\",\"Stims/Figures/57-C-30-1.bmp\",\"fa:fava\",\"Left\",\"39\",\"1\",\"17\",\"6B\",\"C1\",\"C\",\"17\"
\"\",\"\",\"approach-retreat\",\"166\",\"1282957\",\"0.0-166.0\",\"\",\"\",\"1-1\",\"5412\",\"39\",\"1\",\"Testing\",\"Stims/Figures/71-J-0-1.bmp\",\"za:sa:za\",\"Right\",\"39\",\"1\",\"18\",\"6B\",\"C2\",\"C\",\"18\"
\"\",\"\",\"approach-retreat\",\"167\",\"1290348\",\"0.0-167.0\",\"\",\"\",\"1-1\",\"5837\",\"39\",\"0\",\"Testing\",\"Stims/Figures/94-J-0-2.bmp\",\"za:saha\",\"Left\",\"37\",\"1\",\"19\",\"6B\",\"C2\",\"C\",\"19\"
\"\",\"\",\"approach-retreat\",\"168\",\"1297345\",\"0.0-168.0\",\"\",\"\",\"1-1\",\"5486\",\"40\",\"0\",\"Testing\",\"Stims/Figures/87-J-10-4.bmp\",\"sahaza\",\"Up\",\"38\",\"1\",\"20\",\"6B\",\"C2\",\"C\",\"20\"
\"\",\"\",\"approach-retreat\",\"169\",\"1304964\",\"0.0-169.0\",\"\",\"\",\"1-1\",\"6113\",\"40\",\"1\",\"Testing\",\"Stims/Figures/94-C-20-2.bmp\",\"va:shasha\",\"Up\",\"40\",\"1\",\"21\",\"6B\",\"C1\",\"C\",\"21\"
\"\",\"\",\"approach-retreat\",\"170\",\"1312190\",\"0.0-170.0\",\"\",\"\",\"1-1\",\"5713\",\"40\",\"1\",\"Testing\",\"Stims/Figures/19-J-10-4.bmp\",\"sasaza\",\"Down\",\"40\",\"1\",\"22\",\"6B\",\"C2\",\"C\",\"22\"
\"\",\"\",\"approach-retreat\",\"171\",\"1318280\",\"0.0-171.0\",\"\",\"\",\"1-1\",\"4584\",\"38\",\"0\",\"Testing\",\"Stims/Figures/111-J-10-3.bmp\",\"za:sa:ha\",\"Down\",\"40\",\"1\",\"23\",\"6B\",\"C2\",\"C\",\"23\"
\"\",\"\",\"approach-retreat\",\"172\",\"1324696\",\"0.0-172.0\",\"\",\"\",\"1-1\",\"4910\",\"39\",\"1\",\"Testing\",\"Stims/Figures/102-J-10-4.bmp\",\"zasa:ha\",\"Right\",\"39\",\"1\",\"24\",\"6B\",\"C2\",\"C\",\"24\"
\"\",\"\",\"approach-retreat\",\"173\",\"1330634\",\"0.0-173.0\",\"\",\"\",\"1-1\",\"4427\",\"38\",\"1\",\"Testing\",\"Stims/Figures/44-C-30-3.bmp\",\"va:shava\",\"Down\",\"38\",\"2\",\"1\",\"6B\",\"C1\",\"C\",\"25\"
\"\",\"\",\"approach-retreat\",\"174\",\"1337757\",\"0.0-174.0\",\"\",\"\",\"1-1\",\"5609\",\"38\",\"1\",\"Testing\",\"Stims/Figures/57-J-0-1.bmp\",\"zasaza\",\"Up\",\"38\",\"2\",\"2\",\"6B\",\"C2\",\"C\",\"26\"
\"\",\"\",\"approach-retreat\",\"175\",\"1345704\",\"0.0-175.0\",\"\",\"\",\"1-1\",\"6432\",\"37\",\"0\",\"Testing\",\"Stims/Figures/128-C-30-3.bmp\",\"va:fa:va\",\"Left\",\"39\",\"2\",\"3\",\"6B\",\"C1\",\"C\",\"27\"
\"\",\"\",\"approach-retreat\",\"176\",\"1351677\",\"0.0-176.0\",\"\",\"\",\"1-1\",\"4472\",\"39\",\"1\",\"Testing\",\"Stims/Figures/86-J-0-1.bmp\",\"saha:za\",\"Right\",\"39\",\"2\",\"4\",\"6B\",\"C2\",\"C\",\"28\"
\"\",\"\",\"approach-retreat\",\"177\",\"1358988\",\"0.0-177.0\",\"\",\"\",\"1-1\",\"5806\",\"38\",\"1\",\"Testing\",\"Stims/Figures/84-C-20-2.bmp\",\"vafa:va\",\"Down\",\"38\",\"2\",\"5\",\"6B\",\"C1\",\"C\",\"29\"
\"\",\"\",\"approach-retreat\",\"178\",\"1364780\",\"0.0-178.0\",\"\",\"\",\"1-1\",\"4285\",\"39\",\"1\",\"Testing\",\"Stims/Figures/111-C-30-3.bmp\",\"fa:sha:sha\",\"Left\",\"39\",\"2\",\"6\",\"6B\",\"C1\",\"C\",\"30\"
\"\",\"\",\"approach-retreat\",\"179\",\"1370863\",\"0.0-179.0\",\"\",\"\",\"1-1\",\"4570\",\"38\",\"0\",\"Testing\",\"Stims/Figures/85-J-0-2.bmp\",\"sa:saha\",\"Down\",\"40\",\"2\",\"7\",\"6B\",\"C2\",\"C\",\"31\"
\"\",\"\",\"approach-retreat\",\"180\",\"1377364\",\"0.0-180.0\",\"\",\"\",\"1-1\",\"4993\",\"37\",\"0\",\"Testing\",\"Stims/Figures/86-C-30-1.bmp\",\"vafa:sha\",\"Left\",\"39\",\"2\",\"8\",\"6B\",\"C1\",\"C\",\"32\"
\"\",\"\",\"approach-retreat\",\"181\",\"1383687\",\"0.0-181.0\",\"\",\"\",\"1-1\",\"4810\",\"40\",\"0\",\"Testing\",\"Stims/Figures/19-C-20-4.bmp\",\"va:sha:sha\",\"Down\",\"38\",\"2\",\"9\",\"6B\",\"C1\",\"C\",\"33\"
\"\",\"\",\"approach-retreat\",\"182\",\"1390088\",\"0.0-182.0\",\"\",\"\",\"1-1\",\"4885\",\"38\",\"0\",\"Testing\",\"Stims/Figures/102-C-20-4.bmp\",\"vashava\",\"Up\",\"40\",\"2\",\"10\",\"6B\",\"C1\",\"C\",\"34\"
\"\",\"\",\"approach-retreat\",\"183\",\"1396597\",\"0.0-183.0\",\"\",\"\",\"1-1\",\"5000\",\"40\",\"1\",\"Testing\",\"Stims/Figures/102-J-10-4.bmp\",\"zasa:ha\",\"Down\",\"40\",\"2\",\"11\",\"6B\",\"C2\",\"C\",\"35\"
\"\",\"\",\"approach-retreat\",\"184\",\"1403966\",\"0.0-184.0\",\"\",\"\",\"1-1\",\"5860\",\"39\",\"1\",\"Testing\",\"Stims/Figures/85-C-20-2.bmp\",\"vasha:sha\",\"Left\",\"39\",\"2\",\"12\",\"6B\",\"C1\",\"C\",\"36\"
\"\",\"\",\"approach-retreat\",\"185\",\"1409636\",\"0.0-185.0\",\"\",\"\",\"1-1\",\"4156\",\"39\",\"0\",\"Testing\",\"Stims/Figures/57-C-30-1.bmp\",\"fa:fava\",\"Right\",\"37\",\"2\",\"13\",\"6B\",\"C1\",\"C\",\"37\"
\"\",\"\",\"approach-retreat\",\"186\",\"1415554\",\"0.0-186.0\",\"\",\"\",\"1-1\",\"4410\",\"37\",\"0\",\"Testing\",\"Stims/Figures/87-J-10-4.bmp\",\"sahaza\",\"Right\",\"39\",\"2\",\"14\",\"6B\",\"C2\",\"C\",\"38\"
\"\",\"\",\"approach-retreat\",\"187\",\"1421473\",\"0.0-187.0\",\"\",\"\",\"1-1\",\"4407\",\"39\",\"0\",\"Testing\",\"Stims/Figures/44-J-10-3.bmp\",\"sa:haha\",\"Left\",\"37\",\"2\",\"15\",\"6B\",\"C2\",\"C\",\"39\"
\"\",\"\",\"approach-retreat\",\"188\",\"1428296\",\"0.0-188.0\",\"\",\"\",\"1-1\",\"5314\",\"39\",\"1\",\"Testing\",\"Stims/Figures/128-J-10-3.bmp\",\"zasa:za\",\"Right\",\"39\",\"2\",\"16\",\"6B\",\"C2\",\"C\",\"40\"
\"\",\"\",\"approach-retreat\",\"189\",\"1434673\",\"0.0-189.0\",\"\",\"\",\"1-1\",\"4864\",\"38\",\"1\",\"Testing\",\"Stims/Figures/111-J-10-3.bmp\",\"za:sa:ha\",\"Up\",\"38\",\"2\",\"17\",\"6B\",\"C2\",\"C\",\"41\"
\"\",\"\",\"approach-retreat\",\"190\",\"1442346\",\"0.0-190.0\",\"\",\"\",\"1-1\",\"6158\",\"38\",\"1\",\"Testing\",\"Stims/Figures/19-J-10-4.bmp\",\"sasaza\",\"Up\",\"38\",\"2\",\"18\",\"6B\",\"C2\",\"C\",\"42\"
\"\",\"\",\"approach-retreat\",\"191\",\"1450580\",\"0.0-191.0\",\"\",\"\",\"1-1\",\"6728\",\"38\",\"1\",\"Testing\",\"Stims/Figures/94-C-20-2.bmp\",\"va:shasha\",\"Down\",\"38\",\"2\",\"19\",\"6B\",\"C1\",\"C\",\"43\"
\"\",\"\",\"approach-retreat\",\"192\",\"1457377\",\"0.0-192.0\",\"\",\"\",\"1-1\",\"5291\",\"38\",\"0\",\"Testing\",\"Stims/Figures/71-C-30-1.bmp\",\"vashasha\",\"Up\",\"40\",\"2\",\"20\",\"6B\",\"C1\",\"C\",\"44\"
\"\",\"\",\"approach-retreat\",\"193\",\"1463044\",\"0.0-193.0\",\"\",\"\",\"1-1\",\"4157\",\"39\",\"0\",\"Testing\",\"Stims/Figures/84-J-0-2.bmp\",\"zaha:za\",\"Left\",\"37\",\"2\",\"21\",\"6B\",\"C2\",\"C\",\"45\"
\"\",\"\",\"approach-retreat\",\"194\",\"1469162\",\"0.0-194.0\",\"\",\"\",\"1-1\",\"4606\",\"37\",\"0\",\"Testing\",\"Stims/Figures/71-J-0-1.bmp\",\"za:sa:za\",\"Right\",\"39\",\"2\",\"22\",\"6B\",\"C2\",\"C\",\"46\"
\"\",\"\",\"approach-retreat\",\"195\",\"1476262\",\"0.0-195.0\",\"\",\"\",\"1-1\",\"5596\",\"38\",\"1\",\"Testing\",\"Stims/Figures/94-J-0-2.bmp\",\"za:saha\",\"Up\",\"38\",\"2\",\"23\",\"6B\",\"C2\",\"C\",\"47\"
\"\",\"\",\"approach-retreat\",\"196\",\"1481890\",\"0.0-196.0\",\"\",\"\",\"1-1\",\"4118\",\"37\",\"1\",\"Testing\",\"Stims/Figures/87-C-20-4.bmp\",\"vafasha\",\"Right\",\"37\",\"2\",\"24\",\"6B\",\"C1\",\"C\",\"48\"
\"\",\"\",\"approach-retreat\",\"197\",\"1487645\",\"0.0-197.0\",\"\",\"\",\"1-1\",\"4246\",\"38\",\"0\",\"Testing\",\"Stims/Figures/87-J-10-4.bmp\",\"sahaza\",\"Down\",\"40\",\"3\",\"1\",\"6B\",\"C2\",\"C\",\"49\"
\"\",\"\",\"approach-retreat\",\"198\",\"1493480\",\"0.0-198.0\",\"\",\"\",\"1-1\",\"4325\",\"39\",\"1\",\"Testing\",\"Stims/Figures/102-J-10-4.bmp\",\"zasa:ha\",\"Right\",\"39\",\"3\",\"2\",\"6B\",\"C2\",\"C\",\"50\"
\"\",\"\",\"approach-retreat\",\"199\",\"1499383\",\"0.0-199.0\",\"\",\"\",\"1-1\",\"4397\",\"39\",\"0\",\"Testing\",\"Stims/Figures/71-J-0-1.bmp\",\"za:sa:za\",\"Left\",\"37\",\"3\",\"3\",\"6B\",\"C2\",\"C\",\"51\"
\"\",\"\",\"approach-retreat\",\"200\",\"1505905\",\"0.0-200.0\",\"\",\"\",\"1-1\",\"5010\",\"40\",\"0\",\"Testing\",\"Stims/Figures/102-C-20-4.bmp\",\"vashava\",\"Down\",\"38\",\"3\",\"4\",\"6B\",\"C1\",\"C\",\"52\"
\"\",\"\",\"approach-retreat\",\"201\",\"1512086\",\"0.0-201.0\",\"\",\"\",\"1-1\",\"4670\",\"37\",\"1\",\"Testing\",\"Stims/Figures/87-C-20-4.bmp\",\"vafasha\",\"Right\",\"37\",\"3\",\"5\",\"6B\",\"C1\",\"C\",\"53\"
\"\",\"\",\"approach-retreat\",\"202\",\"1517639\",\"0.0-202.0\",\"\",\"\",\"1-1\",\"4047\",\"40\",\"0\",\"Testing\",\"Stims/Figures/44-J-10-3.bmp\",\"sa:haha\",\"Up\",\"38\",\"3\",\"6\",\"6B\",\"C2\",\"C\",\"54\"
\"\",\"\",\"approach-retreat\",\"203\",\"1523838\",\"0.0-203.0\",\"\",\"\",\"1-1\",\"4687\",\"39\",\"1\",\"Testing\",\"Stims/Figures/85-J-0-2.bmp\",\"sa:saha\",\"Right\",\"39\",\"3\",\"7\",\"6B\",\"C2\",\"C\",\"55\"
\"\",\"\",\"approach-retreat\",\"204\",\"1534068\",\"0.0-204.0\",\"\",\"\",\"1-1\",\"8715\",\"37\",\"0\",\"Testing\",\"Stims/Figures/57-C-30-1.bmp\",\"fa:fava\",\"Left\",\"39\",\"3\",\"8\",\"6B\",\"C1\",\"C\",\"56\"
\"\",\"\",\"approach-retreat\",\"205\",\"1540022\",\"0.0-205.0\",\"\",\"\",\"1-1\",\"4442\",\"39\",\"1\",\"Testing\",\"Stims/Figures/71-C-30-1.bmp\",\"vashasha\",\"Left\",\"39\",\"3\",\"9\",\"6B\",\"C1\",\"C\",\"57\"
\"\",\"\",\"approach-retreat\",\"206\",\"1548091\",\"0.0-206.0\",\"\",\"\",\"1-1\",\"6554\",\"38\",\"1\",\"Testing\",\"Stims/Figures/57-J-0-1.bmp\",\"zasaza\",\"Up\",\"38\",\"3\",\"10\",\"6B\",\"C2\",\"C\",\"58\"
\"\",\"\",\"approach-retreat\",\"207\",\"1553895\",\"0.0-207.0\",\"\",\"\",\"1-1\",\"4297\",\"39\",\"0\",\"Testing\",\"Stims/Figures/19-C-20-4.bmp\",\"va:sha:sha\",\"Right\",\"37\",\"3\",\"11\",\"6B\",\"C1\",\"C\",\"59\"
\"\",\"\",\"approach-retreat\",\"208\",\"1559996\",\"0.0-208.0\",\"\",\"\",\"1-1\",\"4593\",\"38\",\"0\",\"Testing\",\"Stims/Figures/111-J-10-3.bmp\",\"za:sa:ha\",\"Down\",\"40\",\"3\",\"12\",\"6B\",\"C2\",\"C\",\"60\"
\"\",\"\",\"approach-retreat\",\"209\",\"1568435\",\"0.0-209.0\",\"\",\"\",\"1-1\",\"6933\",\"40\",\"1\",\"Testing\",\"Stims/Figures/128-C-30-3.bmp\",\"va:fa:va\",\"Up\",\"40\",\"3\",\"13\",\"6B\",\"C1\",\"C\",\"61\"
\"\",\"\",\"approach-retreat\",\"210\",\"1575362\",\"0.0-210.0\",\"\",\"\",\"1-1\",\"5415\",\"37\",\"1\",\"Testing\",\"Stims/Figures/84-J-0-2.bmp\",\"zaha:za\",\"Left\",\"37\",\"3\",\"14\",\"6B\",\"C2\",\"C\",\"62\"
\"\",\"\",\"approach-retreat\",\"211\",\"1583201\",\"0.0-211.0\",\"\",\"\",\"1-1\",\"6327\",\"37\",\"1\",\"Testing\",\"Stims/Figures/19-J-10-4.bmp\",\"sasaza\",\"Left\",\"37\",\"3\",\"15\",\"6B\",\"C2\",\"C\",\"63\"
\"\",\"\",\"approach-retreat\",\"212\",\"1589209\",\"0.0-212.0\",\"\",\"\",\"1-1\",\"4498\",\"37\",\"1\",\"Testing\",\"Stims/Figures/44-C-30-3.bmp\",\"va:shava\",\"Right\",\"37\",\"3\",\"16\",\"6B\",\"C1\",\"C\",\"64\"
\"\",\"\",\"approach-retreat\",\"213\",\"1595483\",\"0.0-213.0\",\"\",\"\",\"1-1\",\"4765\",\"40\",\"0\",\"Testing\",\"Stims/Figures/111-C-30-3.bmp\",\"fa:sha:sha\",\"Down\",\"38\",\"3\",\"17\",\"6B\",\"C1\",\"C\",\"65\"
\"\",\"\",\"approach-retreat\",\"214\",\"1603408\",\"0.0-214.0\",\"\",\"\",\"1-1\",\"6419\",\"40\",\"0\",\"Testing\",\"Stims/Figures/86-J-0-1.bmp\",\"saha:za\",\"Up\",\"38\",\"3\",\"18\",\"6B\",\"C2\",\"C\",\"66\"
\"\",\"\",\"approach-retreat\",\"215\",\"1609464\",\"0.0-215.0\",\"\",\"\",\"1-1\",\"4549\",\"38\",\"1\",\"Testing\",\"Stims/Figures/86-C-30-1.bmp\",\"vafa:sha\",\"Down\",\"38\",\"3\",\"19\",\"6B\",\"C1\",\"C\",\"67\"
\"\",\"\",\"approach-retreat\",\"216\",\"1615897\",\"0.0-216.0\",\"\",\"\",\"1-1\",\"4921\",\"38\",\"1\",\"Testing\",\"Stims/Figures/94-J-0-2.bmp\",\"za:saha\",\"Up\",\"38\",\"3\",\"20\",\"6B\",\"C2\",\"C\",\"68\"
\"\",\"\",\"approach-retreat\",\"217\",\"1621924\",\"0.0-217.0\",\"\",\"\",\"1-1\",\"4517\",\"38\",\"0\",\"Testing\",\"Stims/Figures/84-C-20-2.bmp\",\"vafa:va\",\"Up\",\"40\",\"3\",\"21\",\"6B\",\"C1\",\"C\",\"69\"
\"\",\"\",\"approach-retreat\",\"218\",\"1627858\",\"0.0-218.0\",\"\",\"\",\"1-1\",\"4428\",\"39\",\"1\",\"Testing\",\"Stims/Figures/85-C-20-2.bmp\",\"vasha:sha\",\"Left\",\"39\",\"3\",\"22\",\"6B\",\"C1\",\"C\",\"70\"
\"\",\"\",\"approach-retreat\",\"219\",\"1633817\",\"0.0-219.0\",\"\",\"\",\"1-1\",\"4454\",\"38\",\"0\",\"Testing\",\"Stims/Figures/128-J-10-3.bmp\",\"zasa:za\",\"Down\",\"40\",\"3\",\"23\",\"6B\",\"C2\",\"C\",\"71\"
\"\",\"\",\"approach-retreat\",\"220\",\"1640657\",\"0.0-220.0\",\"\",\"\",\"1-1\",\"5330\",\"39\",\"0\",\"Testing\",\"Stims/Figures/94-C-20-2.bmp\",\"va:shasha\",\"Right\",\"37\",\"3\",\"24\",\"6B\",\"C1\",\"C\",\"72\"
\"\",\"\",\"approach-retreat\",\"221\",\"1647216\",\"0.0-221.0\",\"\",\"\",\"1-1\",\"5044\",\"40\",\"0\",\"Testing\",\"Stims/Figures/86-C-30-1.bmp\",\"vafa:sha\",\"Down\",\"38\",\"4\",\"1\",\"6B\",\"C1\",\"C\",\"73\"
\"\",\"\",\"approach-retreat\",\"222\",\"1656477\",\"0.0-222.0\",\"\",\"\",\"1-1\",\"7752\",\"40\",\"0\",\"Testing\",\"Stims/Figures/84-C-20-2.bmp\",\"vafa:va\",\"Down\",\"38\",\"4\",\"2\",\"6B\",\"C1\",\"C\",\"74\"
\"\",\"\",\"approach-retreat\",\"223\",\"1662439\",\"0.0-223.0\",\"\",\"\",\"1-1\",\"4451\",\"38\",\"0\",\"Testing\",\"Stims/Figures/111-C-30-3.bmp\",\"fa:sha:sha\",\"Up\",\"40\",\"4\",\"3\",\"6B\",\"C1\",\"C\",\"75\"
\"\",\"\",\"approach-retreat\",\"224\",\"1669313\",\"0.0-224.0\",\"\",\"\",\"1-1\",\"5369\",\"40\",\"0\",\"Testing\",\"Stims/Figures/87-J-10-4.bmp\",\"sahaza\",\"Up\",\"38\",\"4\",\"4\",\"6B\",\"C2\",\"C\",\"76\"
\"\",\"\",\"approach-retreat\",\"225\",\"1675246\",\"0.0-225.0\",\"\",\"\",\"1-1\",\"4425\",\"39\",\"1\",\"Testing\",\"Stims/Figures/71-C-30-1.bmp\",\"vashasha\",\"Left\",\"39\",\"4\",\"5\",\"6B\",\"C1\",\"C\",\"77\"
\"\",\"\",\"approach-retreat\",\"226\",\"1683965\",\"0.0-226.0\",\"\",\"\",\"1-1\",\"7210\",\"39\",\"0\",\"Testing\",\"Stims/Figures/102-C-20-4.bmp\",\"vashava\",\"Right\",\"37\",\"4\",\"6\",\"6B\",\"C1\",\"C\",\"78\"
\"\",\"\",\"approach-retreat\",\"227\",\"1691921\",\"0.0-227.0\",\"\",\"\",\"1-1\",\"6442\",\"39\",\"0\",\"Testing\",\"Stims/Figures/87-C-20-4.bmp\",\"vafasha\",\"Right\",\"37\",\"4\",\"7\",\"6B\",\"C1\",\"C\",\"79\"
\"\",\"\",\"approach-retreat\",\"228\",\"1698604\",\"0.0-228.0\",\"\",\"\",\"1-1\",\"5174\",\"39\",\"1\",\"Testing\",\"Stims/Figures/85-C-20-2.bmp\",\"vasha:sha\",\"Left\",\"39\",\"4\",\"8\",\"6B\",\"C1\",\"C\",\"80\"
\"\",\"\",\"approach-retreat\",\"229\",\"1704483\",\"0.0-229.0\",\"\",\"\",\"1-1\",\"4374\",\"39\",\"1\",\"Testing\",\"Stims/Figures/86-J-0-1.bmp\",\"saha:za\",\"Right\",\"39\",\"4\",\"9\",\"6B\",\"C2\",\"C\",\"81\"
\"\",\"\",\"approach-retreat\",\"230\",\"1713424\",\"0.0-230.0\",\"\",\"\",\"1-1\",\"7436\",\"39\",\"0\",\"Testing\",\"Stims/Figures/128-J-10-3.bmp\",\"zasa:za\",\"Left\",\"37\",\"4\",\"10\",\"6B\",\"C2\",\"C\",\"82\"
\"\",\"\",\"approach-retreat\",\"231\",\"1719324\",\"0.0-231.0\",\"\",\"\",\"1-1\",\"4390\",\"38\",\"0\",\"Testing\",\"Stims/Figures/102-J-10-4.bmp\",\"zasa:ha\",\"Down\",\"40\",\"4\",\"11\",\"6B\",\"C2\",\"C\",\"83\"
\"\",\"\",\"approach-retreat\",\"232\",\"1725141\",\"0.0-232.0\",\"\",\"\",\"1-1\",\"4310\",\"37\",\"0\",\"Testing\",\"Stims/Figures/85-J-0-2.bmp\",\"sa:saha\",\"Right\",\"39\",\"4\",\"12\",\"6B\",\"C2\",\"C\",\"84\"
\"\",\"\",\"approach-retreat\",\"233\",\"1730903\",\"0.0-233.0\",\"\",\"\",\"1-1\",\"4252\",\"38\",\"1\",\"Testing\",\"Stims/Figures/57-C-30-1.bmp\",\"fa:fava\",\"Down\",\"38\",\"4\",\"13\",\"6B\",\"C1\",\"C\",\"85\"
\"\",\"\",\"approach-retreat\",\"234\",\"1737112\",\"0.0-234.0\",\"\",\"\",\"1-1\",\"4696\",\"39\",\"0\",\"Testing\",\"Stims/Figures/44-J-10-3.bmp\",\"sa:haha\",\"Left\",\"37\",\"4\",\"14\",\"6B\",\"C2\",\"C\",\"86\"
\"\",\"\",\"approach-retreat\",\"235\",\"1742998\",\"0.0-235.0\",\"\",\"\",\"1-1\",\"4371\",\"40\",\"0\",\"Testing\",\"Stims/Figures/94-J-0-2.bmp\",\"za:saha\",\"Up\",\"38\",\"4\",\"15\",\"6B\",\"C2\",\"C\",\"87\"
\"\",\"\",\"approach-retreat\",\"236\",\"1748685\",\"0.0-236.0\",\"\",\"\",\"1-1\",\"4172\",\"39\",\"1\",\"Testing\",\"Stims/Figures/94-C-20-2.bmp\",\"va:shasha\",\"Left\",\"39\",\"4\",\"16\",\"6B\",\"C1\",\"C\",\"88\"
\"\",\"\",\"approach-retreat\",\"237\",\"1754453\",\"0.0-237.0\",\"\",\"\",\"1-1\",\"4255\",\"38\",\"0\",\"Testing\",\"Stims/Figures/44-C-30-3.bmp\",\"va:shava\",\"Up\",\"40\",\"4\",\"17\",\"6B\",\"C1\",\"C\",\"89\"
\"\",\"\",\"approach-retreat\",\"238\",\"1760602\",\"0.0-238.0\",\"\",\"\",\"1-1\",\"4643\",\"38\",\"0\",\"Testing\",\"Stims/Figures/111-J-10-3.bmp\",\"za:sa:ha\",\"Down\",\"40\",\"4\",\"18\",\"6B\",\"C2\",\"C\",\"90\"
\"\",\"\",\"approach-retreat\",\"239\",\"1766540\",\"0.0-239.0\",\"\",\"\",\"1-1\",\"4431\",\"39\",\"0\",\"Testing\",\"Stims/Figures/19-C-20-4.bmp\",\"va:sha:sha\",\"Right\",\"37\",\"4\",\"19\",\"6B\",\"C1\",\"C\",\"91\"
\"\",\"\",\"approach-retreat\",\"240\",\"1772958\",\"0.0-240.0\",\"\",\"\",\"1-1\",\"4909\",\"40\",\"0\",\"Testing\",\"Stims/Figures/57-J-0-1.bmp\",\"zasaza\",\"Up\",\"38\",\"4\",\"20\",\"6B\",\"C2\",\"C\",\"92\"
\"\",\"\",\"approach-retreat\",\"241\",\"1778682\",\"0.0-241.0\",\"\",\"\",\"1-1\",\"4217\",\"38\",\"1\",\"Testing\",\"Stims/Figures/19-J-10-4.bmp\",\"sasaza\",\"Up\",\"38\",\"4\",\"21\",\"6B\",\"C2\",\"C\",\"93\"
\"\",\"\",\"approach-retreat\",\"242\",\"1784534\",\"0.0-242.0\",\"\",\"\",\"1-1\",\"4347\",\"39\",\"1\",\"Testing\",\"Stims/Figures/84-J-0-2.bmp\",\"zaha:za\",\"Right\",\"39\",\"4\",\"22\",\"6B\",\"C2\",\"C\",\"94\"
\"\",\"\",\"approach-retreat\",\"243\",\"1790491\",\"0.0-243.0\",\"\",\"\",\"1-1\",\"4449\",\"38\",\"1\",\"Testing\",\"Stims/Figures/128-C-30-3.bmp\",\"va:fa:va\",\"Down\",\"38\",\"4\",\"23\",\"6B\",\"C1\",\"C\",\"95\"
\"\",\"\",\"approach-retreat\",\"244\",\"1796378\",\"0.0-244.0\",\"\",\"\",\"1-1\",\"4380\",\"37\",\"1\",\"Testing\",\"Stims/Figures/71-J-0-1.bmp\",\"za:sa:za\",\"Left\",\"37\",\"4\",\"24\",\"6B\",\"C2\",\"C\",\"96\"
\"22117\",\"\",\"survey-text\",\"245\",\"1818501\",\"0.0-245.0\",\"\",\"{\"\"Q0\"\":\"\"PS160028\"\"}\",\"\",\"\",\"\",\"\",\"\",\"\",\"\",\"\",\"\",\"\",\"\",\"\",\"\",\"\",\"\"
