\"rt\",\"key_press\",\"trial_type\",\"trial_index\",\"time_elapsed\",\"internal_node_id\",\"view_history\",\"responses\",\"Id\",\"Rt\",\"ResKeyCode\",\"ResCorr\",\"TrialType2\",\"Image\",\"Label\",\"Location\",\"CorrectResponse\",\"Block\",\"BlockTrial\",\"Condition\",\"LabelType\",\"Subcondition\",\"trialNum\"
\"74900\",\"32\",\"text\",\"0\",\"74908\",\"0.0-0.0-0.0\",\"\",\"\",\"\",\"\",\"\",\"\",\"\",\"\",\"\",\"\",\"\",\"\",\"\",\"\",\"\",\"\",\"\"
\"82000\",\"\",\"instructions\",\"1\",\"156912\",\"0.0-1.0\",\"[{\"\"page_index\"\":0,\"\"viewing_time\"\":81996}]\",\"\",\"\",\"\",\"\",\"\",\"\",\"\",\"\",\"\",\"\",\"\",\"\",\"\",\"\",\"\",\"\"
\"21790\",\"\",\"survey-multi-choice\",\"2\",\"178800\",\"0.0-2.0\",\"\",\"{\"\"Q0\"\":\"\"Da\"\",\"\"Q1\"\":\"\"Da\"\",\"\"Q2\"\":\"\"Da\"\",\"\"Q3\"\":\"\"Da\"\",\"\"Q4\"\":\"\"Da\"\",\"\"Q5\"\":\"\"Da\"\"}\",\"\",\"\",\"\",\"\",\"\",\"\",\"\",\"\",\"\",\"\",\"\",\"\",\"\",\"\",\"\"
\"\",\"\",\"bio\",\"3\",\"190446\",\"0.0-3.0\",\"\",\"{\"\"age\"\":\"\"19\"\",\"\"gender\"\":\"\"f\"\",\"\"specify\"\":\"\"\"\"}\",\"\",\"\",\"\",\"\",\"\",\"\",\"\",\"\",\"\",\"\",\"\",\"\",\"\",\"\",\"\"
\"\",\"\",\"approach-retreat\",\"4\",\"197832\",\"0.0-4.0\",\"\",\"\",\"1-2\",\"5724\",\"38\",\"1\",\"Training\",\"Stims/Figures/118-C-20-2.bmp\",\"zasaha\",\"Up\",\"38\",\"1\",\"1\",\"3A\",\"C2\",\"J\",\"1\"
\"\",\"\",\"approach-retreat\",\"5\",\"204650\",\"0.0-5.0\",\"\",\"\",\"1-2\",\"5304\",\"38\",\"1\",\"Training\",\"Stims/Figures/27-J-0-1.bmp\",\"fa:fasha\",\"Down\",\"38\",\"1\",\"2\",\"3A\",\"C1\",\"J\",\"2\"
\"\",\"\",\"approach-retreat\",\"6\",\"211492\",\"0.0-6.0\",\"\",\"\",\"1-2\",\"5332\",\"37\",\"1\",\"Training\",\"Stims/Figures/93-C-30-1.bmp\",\"zasaha\",\"Left\",\"37\",\"1\",\"3\",\"3A\",\"C2\",\"J\",\"3\"
\"\",\"\",\"approach-retreat\",\"7\",\"217582\",\"0.0-7.0\",\"\",\"\",\"1-2\",\"4576\",\"39\",\"1\",\"Training\",\"Stims/Figures/87-C-20-4.bmp\",\"zasaha\",\"Right\",\"39\",\"1\",\"4\",\"3A\",\"C2\",\"J\",\"4\"
\"\",\"\",\"approach-retreat\",\"8\",\"223390\",\"0.0-8.0\",\"\",\"\",\"1-2\",\"4290\",\"40\",\"1\",\"Training\",\"Stims/Figures/44-C-30-3.bmp\",\"zasaha\",\"Down\",\"40\",\"1\",\"5\",\"3A\",\"C2\",\"J\",\"5\"
\"\",\"\",\"approach-retreat\",\"9\",\"230422\",\"0.0-9.0\",\"\",\"\",\"1-2\",\"5506\",\"37\",\"0\",\"Training\",\"Stims/Figures/139-J-0-2.bmp\",\"fa:fasha\",\"Left\",\"39\",\"1\",\"6\",\"3A\",\"C1\",\"J\",\"6\"
\"\",\"\",\"approach-retreat\",\"10\",\"236506\",\"0.0-10.0\",\"\",\"\",\"1-2\",\"4564\",\"39\",\"1\",\"Training\",\"Stims/Figures/102-C-20-4.bmp\",\"zasaha\",\"Right\",\"39\",\"1\",\"7\",\"3A\",\"C2\",\"J\",\"7\"
\"\",\"\",\"approach-retreat\",\"11\",\"242252\",\"0.0-11.0\",\"\",\"\",\"1-2\",\"4234\",\"38\",\"1\",\"Training\",\"Stims/Figures/144-C-30-3.bmp\",\"zasaha\",\"Up\",\"38\",\"1\",\"8\",\"3A\",\"C2\",\"J\",\"8\"
\"\",\"\",\"approach-retreat\",\"12\",\"247808\",\"0.0-12.0\",\"\",\"\",\"1-2\",\"4038\",\"39\",\"1\",\"Training\",\"Stims/Figures/27-C-30-1.bmp\",\"zasaha\",\"Right\",\"39\",\"1\",\"9\",\"3A\",\"C2\",\"J\",\"9\"
\"\",\"\",\"approach-retreat\",\"13\",\"253666\",\"0.0-13.0\",\"\",\"\",\"1-2\",\"4334\",\"38\",\"1\",\"Training\",\"Stims/Figures/139-C-20-2.bmp\",\"zasaha\",\"Up\",\"38\",\"1\",\"10\",\"3A\",\"C2\",\"J\",\"10\"
\"\",\"\",\"approach-retreat\",\"14\",\"259230\",\"0.0-14.0\",\"\",\"\",\"1-2\",\"4028\",\"37\",\"0\",\"Training\",\"Stims/Figures/44-J-10-3.bmp\",\"fa:fasha\",\"Left\",\"39\",\"1\",\"11\",\"3A\",\"C1\",\"J\",\"11\"
\"\",\"\",\"approach-retreat\",\"15\",\"265278\",\"0.0-15.0\",\"\",\"\",\"1-2\",\"4520\",\"37\",\"0\",\"Training\",\"Stims/Figures/102-J-10-4.bmp\",\"fa:fasha\",\"Left\",\"39\",\"1\",\"12\",\"3A\",\"C1\",\"J\",\"12\"
\"\",\"\",\"approach-retreat\",\"16\",\"271322\",\"0.0-16.0\",\"\",\"\",\"1-2\",\"4530\",\"40\",\"1\",\"Training\",\"Stims/Figures/118-J-0-2.bmp\",\"fa:fasha\",\"Up\",\"40\",\"1\",\"13\",\"3A\",\"C1\",\"J\",\"13\"
\"\",\"\",\"approach-retreat\",\"17\",\"277430\",\"0.0-17.0\",\"\",\"\",\"1-2\",\"4594\",\"38\",\"1\",\"Training\",\"Stims/Figures/144-J-10-3.bmp\",\"fa:fasha\",\"Down\",\"38\",\"1\",\"14\",\"3A\",\"C1\",\"J\",\"14\"
\"\",\"\",\"approach-retreat\",\"18\",\"283110\",\"0.0-18.0\",\"\",\"\",\"1-2\",\"4170\",\"37\",\"1\",\"Training\",\"Stims/Figures/93-J-0-1.bmp\",\"fa:fasha\",\"Right\",\"37\",\"1\",\"15\",\"3A\",\"C1\",\"J\",\"15\"
\"\",\"\",\"approach-retreat\",\"19\",\"288626\",\"0.0-19.0\",\"\",\"\",\"1-2\",\"4000\",\"38\",\"1\",\"Training\",\"Stims/Figures/87-J-10-4.bmp\",\"fa:fasha\",\"Down\",\"38\",\"1\",\"16\",\"3A\",\"C1\",\"J\",\"16\"
\"\",\"\",\"approach-retreat\",\"20\",\"294592\",\"0.0-20.0\",\"\",\"\",\"1-2\",\"4458\",\"40\",\"1\",\"Training\",\"Stims/Figures/27-J-0-1.bmp\",\"fa:fasha\",\"Up\",\"40\",\"2\",\"1\",\"3A\",\"C1\",\"J\",\"17\"
\"\",\"\",\"approach-retreat\",\"21\",\"300474\",\"0.0-21.0\",\"\",\"\",\"1-2\",\"4358\",\"39\",\"0\",\"Training\",\"Stims/Figures/44-C-30-3.bmp\",\"zasaha\",\"Left\",\"37\",\"2\",\"2\",\"3A\",\"C2\",\"J\",\"18\"
\"\",\"\",\"approach-retreat\",\"22\",\"306304\",\"0.0-22.0\",\"\",\"\",\"1-2\",\"4310\",\"37\",\"0\",\"Training\",\"Stims/Figures/102-C-20-4.bmp\",\"zasaha\",\"Right\",\"39\",\"2\",\"3\",\"3A\",\"C2\",\"J\",\"19\"
\"\",\"\",\"approach-retreat\",\"23\",\"312224\",\"0.0-23.0\",\"\",\"\",\"1-2\",\"4406\",\"37\",\"1\",\"Training\",\"Stims/Figures/87-C-20-4.bmp\",\"zasaha\",\"Left\",\"37\",\"2\",\"4\",\"3A\",\"C2\",\"J\",\"20\"
\"\",\"\",\"approach-retreat\",\"24\",\"318066\",\"0.0-24.0\",\"\",\"\",\"1-2\",\"4328\",\"38\",\"1\",\"Training\",\"Stims/Figures/44-J-10-3.bmp\",\"fa:fasha\",\"Down\",\"38\",\"2\",\"5\",\"3A\",\"C1\",\"J\",\"21\"
\"\",\"\",\"approach-retreat\",\"25\",\"323772\",\"0.0-25.0\",\"\",\"\",\"1-2\",\"4198\",\"37\",\"1\",\"Training\",\"Stims/Figures/144-J-10-3.bmp\",\"fa:fasha\",\"Right\",\"37\",\"2\",\"6\",\"3A\",\"C1\",\"J\",\"22\"
\"\",\"\",\"approach-retreat\",\"26\",\"329708\",\"0.0-26.0\",\"\",\"\",\"1-2\",\"4428\",\"38\",\"1\",\"Training\",\"Stims/Figures/139-C-20-2.bmp\",\"zasaha\",\"Up\",\"38\",\"2\",\"7\",\"3A\",\"C2\",\"J\",\"23\"
\"\",\"\",\"approach-retreat\",\"27\",\"335796\",\"0.0-27.0\",\"\",\"\",\"1-2\",\"4576\",\"37\",\"1\",\"Training\",\"Stims/Figures/118-C-20-2.bmp\",\"zasaha\",\"Left\",\"37\",\"2\",\"8\",\"3A\",\"C2\",\"J\",\"24\"
\"\",\"\",\"approach-retreat\",\"28\",\"341538\",\"0.0-28.0\",\"\",\"\",\"1-2\",\"4232\",\"38\",\"1\",\"Training\",\"Stims/Figures/87-J-10-4.bmp\",\"fa:fasha\",\"Down\",\"38\",\"2\",\"9\",\"3A\",\"C1\",\"J\",\"25\"
\"\",\"\",\"approach-retreat\",\"29\",\"347274\",\"0.0-29.0\",\"\",\"\",\"1-2\",\"4230\",\"39\",\"1\",\"Training\",\"Stims/Figures/27-C-30-1.bmp\",\"zasaha\",\"Right\",\"39\",\"2\",\"10\",\"3A\",\"C2\",\"J\",\"26\"
\"\",\"\",\"approach-retreat\",\"30\",\"353170\",\"0.0-30.0\",\"\",\"\",\"1-2\",\"4374\",\"40\",\"0\",\"Training\",\"Stims/Figures/93-J-0-1.bmp\",\"fa:fasha\",\"Down\",\"38\",\"2\",\"11\",\"3A\",\"C1\",\"J\",\"27\"
\"\",\"\",\"approach-retreat\",\"31\",\"359170\",\"0.0-31.0\",\"\",\"\",\"1-2\",\"4490\",\"40\",\"0\",\"Training\",\"Stims/Figures/93-C-30-1.bmp\",\"zasaha\",\"Up\",\"38\",\"2\",\"12\",\"3A\",\"C2\",\"J\",\"28\"
\"\",\"\",\"approach-retreat\",\"32\",\"366190\",\"0.0-32.0\",\"\",\"\",\"1-2\",\"5512\",\"37\",\"1\",\"Training\",\"Stims/Figures/102-J-10-4.bmp\",\"fa:fasha\",\"Right\",\"37\",\"2\",\"13\",\"3A\",\"C1\",\"J\",\"29\"
\"\",\"\",\"approach-retreat\",\"33\",\"372676\",\"0.0-33.0\",\"\",\"\",\"1-2\",\"4978\",\"40\",\"1\",\"Training\",\"Stims/Figures/144-C-30-3.bmp\",\"zasaha\",\"Down\",\"40\",\"2\",\"14\",\"3A\",\"C2\",\"J\",\"30\"
\"\",\"\",\"approach-retreat\",\"34\",\"378940\",\"0.0-34.0\",\"\",\"\",\"1-2\",\"4748\",\"37\",\"0\",\"Training\",\"Stims/Figures/118-J-0-2.bmp\",\"fa:fasha\",\"Left\",\"39\",\"2\",\"15\",\"3A\",\"C1\",\"J\",\"31\"
\"\",\"\",\"approach-retreat\",\"35\",\"385534\",\"0.0-35.0\",\"\",\"\",\"1-2\",\"5084\",\"40\",\"1\",\"Training\",\"Stims/Figures/139-J-0-2.bmp\",\"fa:fasha\",\"Up\",\"40\",\"2\",\"16\",\"3A\",\"C1\",\"J\",\"32\"
\"\",\"\",\"approach-retreat\",\"36\",\"391820\",\"0.0-36.0\",\"\",\"\",\"1-2\",\"4778\",\"38\",\"1\",\"Training\",\"Stims/Figures/118-C-20-2.bmp\",\"zasaha\",\"Up\",\"38\",\"3\",\"1\",\"3A\",\"C2\",\"J\",\"33\"
\"\",\"\",\"approach-retreat\",\"37\",\"397814\",\"0.0-37.0\",\"\",\"\",\"1-2\",\"4470\",\"40\",\"1\",\"Training\",\"Stims/Figures/44-C-30-3.bmp\",\"zasaha\",\"Down\",\"40\",\"3\",\"2\",\"3A\",\"C2\",\"J\",\"34\"
\"\",\"\",\"approach-retreat\",\"38\",\"404326\",\"0.0-38.0\",\"\",\"\",\"1-2\",\"5000\",\"39\",\"1\",\"Training\",\"Stims/Figures/118-J-0-2.bmp\",\"fa:fasha\",\"Left\",\"39\",\"3\",\"3\",\"3A\",\"C1\",\"J\",\"35\"
\"\",\"\",\"approach-retreat\",\"39\",\"410424\",\"0.0-39.0\",\"\",\"\",\"1-2\",\"4592\",\"37\",\"1\",\"Training\",\"Stims/Figures/102-J-10-4.bmp\",\"fa:fasha\",\"Right\",\"37\",\"3\",\"4\",\"3A\",\"C1\",\"J\",\"36\"
\"\",\"\",\"approach-retreat\",\"40\",\"416428\",\"0.0-40.0\",\"\",\"\",\"1-2\",\"4496\",\"40\",\"1\",\"Training\",\"Stims/Figures/102-C-20-4.bmp\",\"zasaha\",\"Down\",\"40\",\"3\",\"5\",\"3A\",\"C2\",\"J\",\"37\"
\"\",\"\",\"approach-retreat\",\"41\",\"422764\",\"0.0-41.0\",\"\",\"\",\"1-2\",\"4826\",\"37\",\"1\",\"Training\",\"Stims/Figures/44-J-10-3.bmp\",\"fa:fasha\",\"Right\",\"37\",\"3\",\"6\",\"3A\",\"C1\",\"J\",\"38\"
\"\",\"\",\"approach-retreat\",\"42\",\"428660\",\"0.0-42.0\",\"\",\"\",\"1-2\",\"4388\",\"38\",\"1\",\"Training\",\"Stims/Figures/27-C-30-1.bmp\",\"zasaha\",\"Up\",\"38\",\"3\",\"7\",\"3A\",\"C2\",\"J\",\"39\"
\"\",\"\",\"approach-retreat\",\"43\",\"434208\",\"0.0-43.0\",\"\",\"\",\"1-2\",\"4042\",\"38\",\"1\",\"Training\",\"Stims/Figures/27-J-0-1.bmp\",\"fa:fasha\",\"Down\",\"38\",\"3\",\"8\",\"3A\",\"C1\",\"J\",\"40\"
\"\",\"\",\"approach-retreat\",\"44\",\"440188\",\"0.0-44.0\",\"\",\"\",\"1-2\",\"4458\",\"37\",\"0\",\"Training\",\"Stims/Figures/139-J-0-2.bmp\",\"fa:fasha\",\"Left\",\"39\",\"3\",\"9\",\"3A\",\"C1\",\"J\",\"41\"
\"\",\"\",\"approach-retreat\",\"45\",\"445788\",\"0.0-45.0\",\"\",\"\",\"1-2\",\"4088\",\"40\",\"1\",\"Training\",\"Stims/Figures/93-J-0-1.bmp\",\"fa:fasha\",\"Up\",\"40\",\"3\",\"10\",\"3A\",\"C1\",\"J\",\"42\"
\"\",\"\",\"approach-retreat\",\"46\",\"451394\",\"0.0-46.0\",\"\",\"\",\"1-2\",\"4088\",\"37\",\"1\",\"Training\",\"Stims/Figures/87-J-10-4.bmp\",\"fa:fasha\",\"Right\",\"37\",\"3\",\"11\",\"3A\",\"C1\",\"J\",\"43\"
\"\",\"\",\"approach-retreat\",\"47\",\"457076\",\"0.0-47.0\",\"\",\"\",\"1-2\",\"4168\",\"37\",\"1\",\"Training\",\"Stims/Figures/93-C-30-1.bmp\",\"zasaha\",\"Left\",\"37\",\"3\",\"12\",\"3A\",\"C2\",\"J\",\"44\"
\"\",\"\",\"approach-retreat\",\"48\",\"463358\",\"0.0-48.0\",\"\",\"\",\"1-2\",\"4768\",\"38\",\"1\",\"Training\",\"Stims/Figures/144-J-10-3.bmp\",\"fa:fasha\",\"Down\",\"38\",\"3\",\"13\",\"3A\",\"C1\",\"J\",\"45\"
\"\",\"\",\"approach-retreat\",\"49\",\"469358\",\"0.0-49.0\",\"\",\"\",\"1-2\",\"4486\",\"37\",\"1\",\"Training\",\"Stims/Figures/87-C-20-4.bmp\",\"zasaha\",\"Left\",\"37\",\"3\",\"14\",\"3A\",\"C2\",\"J\",\"46\"
\"\",\"\",\"approach-retreat\",\"50\",\"475260\",\"0.0-50.0\",\"\",\"\",\"1-2\",\"4390\",\"38\",\"1\",\"Training\",\"Stims/Figures/144-C-30-3.bmp\",\"zasaha\",\"Up\",\"38\",\"3\",\"15\",\"3A\",\"C2\",\"J\",\"47\"
\"\",\"\",\"approach-retreat\",\"51\",\"481428\",\"0.0-51.0\",\"\",\"\",\"1-2\",\"4650\",\"39\",\"1\",\"Training\",\"Stims/Figures/139-C-20-2.bmp\",\"zasaha\",\"Right\",\"39\",\"3\",\"16\",\"3A\",\"C2\",\"J\",\"48\"
\"\",\"\",\"approach-retreat\",\"52\",\"487218\",\"0.0-52.0\",\"\",\"\",\"1-2\",\"4284\",\"40\",\"1\",\"Training\",\"Stims/Figures/93-C-30-1.bmp\",\"zasaha\",\"Down\",\"40\",\"4\",\"1\",\"3A\",\"C2\",\"J\",\"49\"
\"\",\"\",\"approach-retreat\",\"53\",\"492778\",\"0.0-53.0\",\"\",\"\",\"1-2\",\"4044\",\"39\",\"1\",\"Training\",\"Stims/Figures/102-C-20-4.bmp\",\"zasaha\",\"Right\",\"39\",\"4\",\"2\",\"3A\",\"C2\",\"J\",\"50\"
\"\",\"\",\"approach-retreat\",\"54\",\"498300\",\"0.0-54.0\",\"\",\"\",\"1-2\",\"4014\",\"37\",\"1\",\"Training\",\"Stims/Figures/102-J-10-4.bmp\",\"fa:fasha\",\"Right\",\"37\",\"4\",\"3\",\"3A\",\"C1\",\"J\",\"51\"
\"\",\"\",\"approach-retreat\",\"55\",\"503892\",\"0.0-55.0\",\"\",\"\",\"1-2\",\"4084\",\"38\",\"1\",\"Training\",\"Stims/Figures/144-J-10-3.bmp\",\"fa:fasha\",\"Down\",\"38\",\"4\",\"4\",\"3A\",\"C1\",\"J\",\"52\"
\"\",\"\",\"approach-retreat\",\"56\",\"509428\",\"0.0-56.0\",\"\",\"\",\"1-2\",\"4030\",\"40\",\"1\",\"Training\",\"Stims/Figures/144-C-30-3.bmp\",\"zasaha\",\"Down\",\"40\",\"4\",\"5\",\"3A\",\"C2\",\"J\",\"53\"
\"\",\"\",\"approach-retreat\",\"57\",\"514870\",\"0.0-57.0\",\"\",\"\",\"1-2\",\"3928\",\"38\",\"1\",\"Training\",\"Stims/Figures/27-J-0-1.bmp\",\"fa:fasha\",\"Down\",\"38\",\"4\",\"6\",\"3A\",\"C1\",\"J\",\"54\"
\"\",\"\",\"approach-retreat\",\"58\",\"521018\",\"0.0-58.0\",\"\",\"\",\"1-2\",\"4642\",\"40\",\"1\",\"Training\",\"Stims/Figures/87-J-10-4.bmp\",\"fa:fasha\",\"Up\",\"40\",\"4\",\"7\",\"3A\",\"C1\",\"J\",\"55\"
\"\",\"\",\"approach-retreat\",\"59\",\"526476\",\"0.0-59.0\",\"\",\"\",\"1-2\",\"3952\",\"39\",\"1\",\"Training\",\"Stims/Figures/118-C-20-2.bmp\",\"zasaha\",\"Right\",\"39\",\"4\",\"8\",\"3A\",\"C2\",\"J\",\"56\"
\"\",\"\",\"approach-retreat\",\"60\",\"533018\",\"0.0-60.0\",\"\",\"\",\"1-2\",\"5024\",\"40\",\"0\",\"Training\",\"Stims/Figures/87-C-20-4.bmp\",\"zasaha\",\"Up\",\"38\",\"4\",\"9\",\"3A\",\"C2\",\"J\",\"57\"
\"\",\"\",\"approach-retreat\",\"61\",\"539072\",\"0.0-61.0\",\"\",\"\",\"1-2\",\"4540\",\"38\",\"1\",\"Training\",\"Stims/Figures/44-C-30-3.bmp\",\"zasaha\",\"Up\",\"38\",\"4\",\"10\",\"3A\",\"C2\",\"J\",\"58\"
\"\",\"\",\"approach-retreat\",\"62\",\"544716\",\"0.0-62.0\",\"\",\"\",\"1-2\",\"4136\",\"39\",\"1\",\"Training\",\"Stims/Figures/139-C-20-2.bmp\",\"zasaha\",\"Right\",\"39\",\"4\",\"11\",\"3A\",\"C2\",\"J\",\"59\"
\"\",\"\",\"approach-retreat\",\"63\",\"550318\",\"0.0-63.0\",\"\",\"\",\"1-2\",\"4090\",\"40\",\"1\",\"Training\",\"Stims/Figures/139-J-0-2.bmp\",\"fa:fasha\",\"Up\",\"40\",\"4\",\"12\",\"3A\",\"C1\",\"J\",\"60\"
\"\",\"\",\"approach-retreat\",\"64\",\"555788\",\"0.0-64.0\",\"\",\"\",\"1-2\",\"3962\",\"39\",\"1\",\"Training\",\"Stims/Figures/93-J-0-1.bmp\",\"fa:fasha\",\"Left\",\"39\",\"4\",\"13\",\"3A\",\"C1\",\"J\",\"61\"
\"\",\"\",\"approach-retreat\",\"65\",\"561158\",\"0.0-65.0\",\"\",\"\",\"1-2\",\"3862\",\"39\",\"1\",\"Training\",\"Stims/Figures/44-J-10-3.bmp\",\"fa:fasha\",\"Left\",\"39\",\"4\",\"14\",\"3A\",\"C1\",\"J\",\"62\"
\"\",\"\",\"approach-retreat\",\"66\",\"566640\",\"0.0-66.0\",\"\",\"\",\"1-2\",\"3966\",\"37\",\"1\",\"Training\",\"Stims/Figures/27-C-30-1.bmp\",\"zasaha\",\"Left\",\"37\",\"4\",\"15\",\"3A\",\"C2\",\"J\",\"63\"
\"\",\"\",\"approach-retreat\",\"67\",\"572070\",\"0.0-67.0\",\"\",\"\",\"1-2\",\"3912\",\"39\",\"1\",\"Training\",\"Stims/Figures/118-J-0-2.bmp\",\"fa:fasha\",\"Left\",\"39\",\"4\",\"16\",\"3A\",\"C1\",\"J\",\"64\"
\"\",\"\",\"approach-retreat\",\"68\",\"578560\",\"0.0-68.0\",\"\",\"\",\"1-2\",\"4980\",\"39\",\"0\",\"Training\",\"Stims/Figures/144-J-10-3.bmp\",\"fa:fasha\",\"Right\",\"37\",\"5\",\"1\",\"3A\",\"C1\",\"J\",\"65\"
\"\",\"\",\"approach-retreat\",\"69\",\"584116\",\"0.0-69.0\",\"\",\"\",\"1-2\",\"4050\",\"37\",\"1\",\"Training\",\"Stims/Figures/87-C-20-4.bmp\",\"zasaha\",\"Left\",\"37\",\"5\",\"2\",\"3A\",\"C2\",\"J\",\"66\"
\"\",\"\",\"approach-retreat\",\"70\",\"589816\",\"0.0-70.0\",\"\",\"\",\"1-2\",\"4192\",\"38\",\"1\",\"Training\",\"Stims/Figures/139-C-20-2.bmp\",\"zasaha\",\"Up\",\"38\",\"5\",\"3\",\"3A\",\"C2\",\"J\",\"67\"
\"\",\"\",\"approach-retreat\",\"71\",\"595654\",\"0.0-71.0\",\"\",\"\",\"1-2\",\"4332\",\"39\",\"1\",\"Training\",\"Stims/Figures/44-J-10-3.bmp\",\"fa:fasha\",\"Left\",\"39\",\"5\",\"4\",\"3A\",\"C1\",\"J\",\"68\"
\"\",\"\",\"approach-retreat\",\"72\",\"601180\",\"0.0-72.0\",\"\",\"\",\"1-2\",\"4018\",\"39\",\"1\",\"Training\",\"Stims/Figures/27-C-30-1.bmp\",\"zasaha\",\"Right\",\"39\",\"5\",\"5\",\"3A\",\"C2\",\"J\",\"69\"
\"\",\"\",\"approach-retreat\",\"73\",\"606958\",\"0.0-73.0\",\"\",\"\",\"1-2\",\"4264\",\"39\",\"1\",\"Training\",\"Stims/Figures/102-J-10-4.bmp\",\"fa:fasha\",\"Left\",\"39\",\"5\",\"6\",\"3A\",\"C1\",\"J\",\"70\"
\"\",\"\",\"approach-retreat\",\"74\",\"612918\",\"0.0-74.0\",\"\",\"\",\"1-2\",\"4452\",\"38\",\"1\",\"Training\",\"Stims/Figures/118-J-0-2.bmp\",\"fa:fasha\",\"Down\",\"38\",\"5\",\"7\",\"3A\",\"C1\",\"J\",\"71\"
\"\",\"\",\"approach-retreat\",\"75\",\"618486\",\"0.0-75.0\",\"\",\"\",\"1-2\",\"4062\",\"39\",\"1\",\"Training\",\"Stims/Figures/118-C-20-2.bmp\",\"zasaha\",\"Right\",\"39\",\"5\",\"8\",\"3A\",\"C2\",\"J\",\"72\"
\"\",\"\",\"approach-retreat\",\"76\",\"624850\",\"0.0-76.0\",\"\",\"\",\"1-2\",\"4842\",\"37\",\"0\",\"Training\",\"Stims/Figures/27-J-0-1.bmp\",\"fa:fasha\",\"Left\",\"39\",\"5\",\"9\",\"3A\",\"C1\",\"J\",\"73\"
\"\",\"\",\"approach-retreat\",\"77\",\"630790\",\"0.0-77.0\",\"\",\"\",\"1-2\",\"4432\",\"40\",\"1\",\"Training\",\"Stims/Figures/44-C-30-3.bmp\",\"zasaha\",\"Down\",\"40\",\"5\",\"10\",\"3A\",\"C2\",\"J\",\"74\"
\"\",\"\",\"approach-retreat\",\"78\",\"637160\",\"0.0-78.0\",\"\",\"\",\"1-2\",\"4862\",\"40\",\"1\",\"Training\",\"Stims/Figures/144-C-30-3.bmp\",\"zasaha\",\"Down\",\"40\",\"5\",\"11\",\"3A\",\"C2\",\"J\",\"75\"
\"\",\"\",\"approach-retreat\",\"79\",\"643500\",\"0.0-79.0\",\"\",\"\",\"1-2\",\"4834\",\"38\",\"1\",\"Training\",\"Stims/Figures/102-C-20-4.bmp\",\"zasaha\",\"Up\",\"38\",\"5\",\"12\",\"3A\",\"C2\",\"J\",\"76\"
\"\",\"\",\"approach-retreat\",\"80\",\"649704\",\"0.0-80.0\",\"\",\"\",\"1-2\",\"4698\",\"38\",\"1\",\"Training\",\"Stims/Figures/87-J-10-4.bmp\",\"fa:fasha\",\"Down\",\"38\",\"5\",\"13\",\"3A\",\"C1\",\"J\",\"77\"
\"\",\"\",\"approach-retreat\",\"81\",\"655202\",\"0.0-81.0\",\"\",\"\",\"1-2\",\"3990\",\"40\",\"1\",\"Training\",\"Stims/Figures/139-J-0-2.bmp\",\"fa:fasha\",\"Up\",\"40\",\"5\",\"14\",\"3A\",\"C1\",\"J\",\"78\"
\"\",\"\",\"approach-retreat\",\"82\",\"660652\",\"0.0-82.0\",\"\",\"\",\"1-2\",\"3942\",\"40\",\"1\",\"Training\",\"Stims/Figures/93-J-0-1.bmp\",\"fa:fasha\",\"Up\",\"40\",\"5\",\"15\",\"3A\",\"C1\",\"J\",\"79\"
\"\",\"\",\"approach-retreat\",\"83\",\"666326\",\"0.0-83.0\",\"\",\"\",\"1-2\",\"4168\",\"39\",\"1\",\"Training\",\"Stims/Figures/93-C-30-1.bmp\",\"zasaha\",\"Right\",\"39\",\"5\",\"16\",\"3A\",\"C2\",\"J\",\"80\"
\"\",\"\",\"approach-retreat\",\"84\",\"671784\",\"0.0-84.0\",\"\",\"\",\"1-2\",\"3950\",\"37\",\"1\",\"Training\",\"Stims/Figures/118-J-0-2.bmp\",\"fa:fasha\",\"Right\",\"37\",\"6\",\"1\",\"3A\",\"C1\",\"J\",\"81\"
\"\",\"\",\"approach-retreat\",\"85\",\"677212\",\"0.0-85.0\",\"\",\"\",\"1-2\",\"3918\",\"37\",\"1\",\"Training\",\"Stims/Figures/139-J-0-2.bmp\",\"fa:fasha\",\"Right\",\"37\",\"6\",\"2\",\"3A\",\"C1\",\"J\",\"82\"
\"\",\"\",\"approach-retreat\",\"86\",\"682774\",\"0.0-86.0\",\"\",\"\",\"1-2\",\"4056\",\"39\",\"0\",\"Training\",\"Stims/Figures/44-C-30-3.bmp\",\"zasaha\",\"Left\",\"37\",\"6\",\"3\",\"3A\",\"C2\",\"J\",\"83\"
\"\",\"\",\"approach-retreat\",\"87\",\"688632\",\"0.0-87.0\",\"\",\"\",\"1-2\",\"4354\",\"39\",\"1\",\"Training\",\"Stims/Figures/27-J-0-1.bmp\",\"fa:fasha\",\"Left\",\"39\",\"6\",\"4\",\"3A\",\"C1\",\"J\",\"84\"
\"\",\"\",\"approach-retreat\",\"88\",\"694142\",\"0.0-88.0\",\"\",\"\",\"1-2\",\"3996\",\"40\",\"1\",\"Training\",\"Stims/Figures/139-C-20-2.bmp\",\"zasaha\",\"Down\",\"40\",\"6\",\"5\",\"3A\",\"C2\",\"J\",\"85\"
\"\",\"\",\"approach-retreat\",\"89\",\"699756\",\"0.0-89.0\",\"\",\"\",\"1-2\",\"4106\",\"39\",\"1\",\"Training\",\"Stims/Figures/118-C-20-2.bmp\",\"zasaha\",\"Right\",\"39\",\"6\",\"6\",\"3A\",\"C2\",\"J\",\"86\"
\"\",\"\",\"approach-retreat\",\"90\",\"705268\",\"0.0-90.0\",\"\",\"\",\"1-2\",\"4004\",\"40\",\"1\",\"Training\",\"Stims/Figures/27-C-30-1.bmp\",\"zasaha\",\"Down\",\"40\",\"6\",\"7\",\"3A\",\"C2\",\"J\",\"87\"
\"\",\"\",\"approach-retreat\",\"91\",\"710730\",\"0.0-91.0\",\"\",\"\",\"1-2\",\"3954\",\"37\",\"1\",\"Training\",\"Stims/Figures/87-J-10-4.bmp\",\"fa:fasha\",\"Right\",\"37\",\"6\",\"8\",\"3A\",\"C1\",\"J\",\"88\"
\"\",\"\",\"approach-retreat\",\"92\",\"716230\",\"0.0-92.0\",\"\",\"\",\"1-2\",\"3992\",\"37\",\"1\",\"Training\",\"Stims/Figures/93-C-30-1.bmp\",\"zasaha\",\"Left\",\"37\",\"6\",\"9\",\"3A\",\"C2\",\"J\",\"89\"
\"\",\"\",\"approach-retreat\",\"93\",\"721778\",\"0.0-93.0\",\"\",\"\",\"1-2\",\"4034\",\"38\",\"1\",\"Training\",\"Stims/Figures/102-J-10-4.bmp\",\"fa:fasha\",\"Down\",\"38\",\"6\",\"10\",\"3A\",\"C1\",\"J\",\"90\"
\"\",\"\",\"approach-retreat\",\"94\",\"727232\",\"0.0-94.0\",\"\",\"\",\"1-2\",\"3944\",\"38\",\"1\",\"Training\",\"Stims/Figures/144-J-10-3.bmp\",\"fa:fasha\",\"Down\",\"38\",\"6\",\"11\",\"3A\",\"C1\",\"J\",\"91\"
\"\",\"\",\"approach-retreat\",\"95\",\"733324\",\"0.0-95.0\",\"\",\"\",\"1-2\",\"4582\",\"39\",\"1\",\"Training\",\"Stims/Figures/93-J-0-1.bmp\",\"fa:fasha\",\"Left\",\"39\",\"6\",\"12\",\"3A\",\"C1\",\"J\",\"92\"
\"\",\"\",\"approach-retreat\",\"96\",\"738930\",\"0.0-96.0\",\"\",\"\",\"1-2\",\"4098\",\"38\",\"1\",\"Training\",\"Stims/Figures/144-C-30-3.bmp\",\"zasaha\",\"Up\",\"38\",\"6\",\"13\",\"3A\",\"C2\",\"J\",\"93\"
\"\",\"\",\"approach-retreat\",\"97\",\"744398\",\"0.0-97.0\",\"\",\"\",\"1-2\",\"3960\",\"38\",\"1\",\"Training\",\"Stims/Figures/102-C-20-4.bmp\",\"zasaha\",\"Up\",\"38\",\"6\",\"14\",\"3A\",\"C2\",\"J\",\"94\"
\"\",\"\",\"approach-retreat\",\"98\",\"750296\",\"0.0-98.0\",\"\",\"\",\"1-2\",\"4382\",\"40\",\"1\",\"Training\",\"Stims/Figures/44-J-10-3.bmp\",\"fa:fasha\",\"Up\",\"40\",\"6\",\"15\",\"3A\",\"C1\",\"J\",\"95\"
\"\",\"\",\"approach-retreat\",\"99\",\"755872\",\"0.0-99.0\",\"\",\"\",\"1-2\",\"4068\",\"38\",\"1\",\"Training\",\"Stims/Figures/87-C-20-4.bmp\",\"zasaha\",\"Up\",\"38\",\"6\",\"16\",\"3A\",\"C2\",\"J\",\"96\"
\"\",\"\",\"approach-retreat\",\"100\",\"761444\",\"0.0-100.0\",\"\",\"\",\"1-2\",\"4060\",\"37\",\"1\",\"Training\",\"Stims/Figures/44-C-30-3.bmp\",\"zasaha\",\"Left\",\"37\",\"7\",\"1\",\"3A\",\"C2\",\"J\",\"97\"
\"\",\"\",\"approach-retreat\",\"101\",\"766966\",\"0.0-101.0\",\"\",\"\",\"1-2\",\"4014\",\"40\",\"1\",\"Training\",\"Stims/Figures/87-C-20-4.bmp\",\"zasaha\",\"Down\",\"40\",\"7\",\"2\",\"3A\",\"C2\",\"J\",\"98\"
\"\",\"\",\"approach-retreat\",\"102\",\"772416\",\"0.0-102.0\",\"\",\"\",\"1-2\",\"3944\",\"39\",\"1\",\"Training\",\"Stims/Figures/144-C-30-3.bmp\",\"zasaha\",\"Right\",\"39\",\"7\",\"3\",\"3A\",\"C2\",\"J\",\"99\"
\"\",\"\",\"approach-retreat\",\"103\",\"777832\",\"0.0-103.0\",\"\",\"\",\"1-2\",\"3904\",\"38\",\"1\",\"Training\",\"Stims/Figures/27-C-30-1.bmp\",\"zasaha\",\"Up\",\"38\",\"7\",\"4\",\"3A\",\"C2\",\"J\",\"100\"
\"\",\"\",\"approach-retreat\",\"104\",\"783332\",\"0.0-104.0\",\"\",\"\",\"1-2\",\"3990\",\"40\",\"1\",\"Training\",\"Stims/Figures/102-J-10-4.bmp\",\"fa:fasha\",\"Up\",\"40\",\"7\",\"5\",\"3A\",\"C1\",\"J\",\"101\"
\"\",\"\",\"approach-retreat\",\"105\",\"788750\",\"0.0-105.0\",\"\",\"\",\"1-2\",\"3904\",\"39\",\"1\",\"Training\",\"Stims/Figures/118-J-0-2.bmp\",\"fa:fasha\",\"Left\",\"39\",\"7\",\"6\",\"3A\",\"C1\",\"J\",\"102\"
\"\",\"\",\"approach-retreat\",\"106\",\"794622\",\"0.0-106.0\",\"\",\"\",\"1-2\",\"4356\",\"40\",\"1\",\"Training\",\"Stims/Figures/44-J-10-3.bmp\",\"fa:fasha\",\"Up\",\"40\",\"7\",\"7\",\"3A\",\"C1\",\"J\",\"103\"
\"\",\"\",\"approach-retreat\",\"107\",\"800112\",\"0.0-107.0\",\"\",\"\",\"1-2\",\"3978\",\"39\",\"1\",\"Training\",\"Stims/Figures/102-C-20-4.bmp\",\"zasaha\",\"Right\",\"39\",\"7\",\"8\",\"3A\",\"C2\",\"J\",\"104\"
\"\",\"\",\"approach-retreat\",\"108\",\"805552\",\"0.0-108.0\",\"\",\"\",\"1-2\",\"3932\",\"37\",\"1\",\"Training\",\"Stims/Figures/139-C-20-2.bmp\",\"zasaha\",\"Left\",\"37\",\"7\",\"9\",\"3A\",\"C2\",\"J\",\"105\"
\"\",\"\",\"approach-retreat\",\"109\",\"811076\",\"0.0-109.0\",\"\",\"\",\"1-2\",\"4012\",\"40\",\"1\",\"Training\",\"Stims/Figures/118-C-20-2.bmp\",\"zasaha\",\"Down\",\"40\",\"7\",\"10\",\"3A\",\"C2\",\"J\",\"106\"
\"\",\"\",\"approach-retreat\",\"110\",\"816522\",\"0.0-110.0\",\"\",\"\",\"1-2\",\"3934\",\"37\",\"1\",\"Training\",\"Stims/Figures/27-J-0-1.bmp\",\"fa:fasha\",\"Right\",\"37\",\"7\",\"11\",\"3A\",\"C1\",\"J\",\"107\"
\"\",\"\",\"approach-retreat\",\"111\",\"822002\",\"0.0-111.0\",\"\",\"\",\"1-2\",\"3968\",\"40\",\"1\",\"Training\",\"Stims/Figures/87-J-10-4.bmp\",\"fa:fasha\",\"Up\",\"40\",\"7\",\"12\",\"3A\",\"C1\",\"J\",\"108\"
\"\",\"\",\"approach-retreat\",\"112\",\"827516\",\"0.0-112.0\",\"\",\"\",\"1-2\",\"4004\",\"38\",\"1\",\"Training\",\"Stims/Figures/139-J-0-2.bmp\",\"fa:fasha\",\"Down\",\"38\",\"7\",\"13\",\"3A\",\"C1\",\"J\",\"109\"
\"\",\"\",\"approach-retreat\",\"113\",\"832940\",\"0.0-113.0\",\"\",\"\",\"1-2\",\"3920\",\"37\",\"1\",\"Training\",\"Stims/Figures/144-J-10-3.bmp\",\"fa:fasha\",\"Right\",\"37\",\"7\",\"14\",\"3A\",\"C1\",\"J\",\"110\"
\"\",\"\",\"approach-retreat\",\"114\",\"838422\",\"0.0-114.0\",\"\",\"\",\"1-2\",\"3976\",\"38\",\"1\",\"Training\",\"Stims/Figures/93-J-0-1.bmp\",\"fa:fasha\",\"Down\",\"38\",\"7\",\"15\",\"3A\",\"C1\",\"J\",\"111\"
\"\",\"\",\"approach-retreat\",\"115\",\"843788\",\"0.0-115.0\",\"\",\"\",\"1-2\",\"3860\",\"37\",\"1\",\"Training\",\"Stims/Figures/93-C-30-1.bmp\",\"zasaha\",\"Left\",\"37\",\"7\",\"16\",\"3A\",\"C2\",\"J\",\"112\"
\"\",\"\",\"approach-retreat\",\"116\",\"849210\",\"0.0-116.0\",\"\",\"\",\"1-2\",\"3916\",\"38\",\"1\",\"Training\",\"Stims/Figures/118-J-0-2.bmp\",\"fa:fasha\",\"Down\",\"38\",\"8\",\"1\",\"3A\",\"C1\",\"J\",\"113\"
\"\",\"\",\"approach-retreat\",\"117\",\"854690\",\"0.0-117.0\",\"\",\"\",\"1-2\",\"3972\",\"40\",\"1\",\"Training\",\"Stims/Figures/118-C-20-2.bmp\",\"zasaha\",\"Down\",\"40\",\"8\",\"2\",\"3A\",\"C2\",\"J\",\"114\"
\"\",\"\",\"approach-retreat\",\"118\",\"860136\",\"0.0-118.0\",\"\",\"\",\"1-2\",\"3938\",\"37\",\"1\",\"Training\",\"Stims/Figures/27-J-0-1.bmp\",\"fa:fasha\",\"Right\",\"37\",\"8\",\"3\",\"3A\",\"C1\",\"J\",\"115\"
\"\",\"\",\"approach-retreat\",\"119\",\"865770\",\"0.0-119.0\",\"\",\"\",\"1-2\",\"4128\",\"38\",\"1\",\"Training\",\"Stims/Figures/27-C-30-1.bmp\",\"zasaha\",\"Up\",\"38\",\"8\",\"4\",\"3A\",\"C2\",\"J\",\"116\"
\"\",\"\",\"approach-retreat\",\"120\",\"871166\",\"0.0-120.0\",\"\",\"\",\"1-2\",\"3892\",\"39\",\"1\",\"Training\",\"Stims/Figures/93-J-0-1.bmp\",\"fa:fasha\",\"Left\",\"39\",\"8\",\"5\",\"3A\",\"C1\",\"J\",\"117\"
\"\",\"\",\"approach-retreat\",\"121\",\"876782\",\"0.0-121.0\",\"\",\"\",\"1-2\",\"4110\",\"40\",\"1\",\"Training\",\"Stims/Figures/87-J-10-4.bmp\",\"fa:fasha\",\"Up\",\"40\",\"8\",\"6\",\"3A\",\"C1\",\"J\",\"118\"
\"\",\"\",\"approach-retreat\",\"122\",\"882754\",\"0.0-122.0\",\"\",\"\",\"1-2\",\"4464\",\"38\",\"1\",\"Training\",\"Stims/Figures/102-C-20-4.bmp\",\"zasaha\",\"Up\",\"38\",\"8\",\"7\",\"3A\",\"C2\",\"J\",\"119\"
\"\",\"\",\"approach-retreat\",\"123\",\"888280\",\"0.0-123.0\",\"\",\"\",\"1-2\",\"4016\",\"37\",\"1\",\"Training\",\"Stims/Figures/87-C-20-4.bmp\",\"zasaha\",\"Left\",\"37\",\"8\",\"8\",\"3A\",\"C2\",\"J\",\"120\"
\"\",\"\",\"approach-retreat\",\"124\",\"893756\",\"0.0-124.0\",\"\",\"\",\"1-2\",\"3964\",\"37\",\"1\",\"Training\",\"Stims/Figures/93-C-30-1.bmp\",\"zasaha\",\"Left\",\"37\",\"8\",\"9\",\"3A\",\"C2\",\"J\",\"121\"
\"\",\"\",\"approach-retreat\",\"125\",\"899416\",\"0.0-125.0\",\"\",\"\",\"1-2\",\"4146\",\"40\",\"1\",\"Training\",\"Stims/Figures/44-C-30-3.bmp\",\"zasaha\",\"Down\",\"40\",\"8\",\"10\",\"3A\",\"C2\",\"J\",\"122\"
\"\",\"\",\"approach-retreat\",\"126\",\"904846\",\"0.0-126.0\",\"\",\"\",\"1-2\",\"3924\",\"37\",\"1\",\"Training\",\"Stims/Figures/102-J-10-4.bmp\",\"fa:fasha\",\"Right\",\"37\",\"8\",\"11\",\"3A\",\"C1\",\"J\",\"123\"
\"\",\"\",\"approach-retreat\",\"127\",\"910336\",\"0.0-127.0\",\"\",\"\",\"1-2\",\"3972\",\"40\",\"0\",\"Training\",\"Stims/Figures/139-C-20-2.bmp\",\"zasaha\",\"Up\",\"38\",\"8\",\"12\",\"3A\",\"C2\",\"J\",\"124\"
\"\",\"\",\"approach-retreat\",\"128\",\"915852\",\"0.0-128.0\",\"\",\"\",\"1-2\",\"4010\",\"37\",\"1\",\"Training\",\"Stims/Figures/144-C-30-3.bmp\",\"zasaha\",\"Left\",\"37\",\"8\",\"13\",\"3A\",\"C2\",\"J\",\"125\"
\"\",\"\",\"approach-retreat\",\"129\",\"921278\",\"0.0-129.0\",\"\",\"\",\"1-2\",\"3918\",\"38\",\"1\",\"Training\",\"Stims/Figures/44-J-10-3.bmp\",\"fa:fasha\",\"Down\",\"38\",\"8\",\"14\",\"3A\",\"C1\",\"J\",\"126\"
\"\",\"\",\"approach-retreat\",\"130\",\"926624\",\"0.0-130.0\",\"\",\"\",\"1-2\",\"3842\",\"37\",\"1\",\"Training\",\"Stims/Figures/139-J-0-2.bmp\",\"fa:fasha\",\"Right\",\"37\",\"8\",\"15\",\"3A\",\"C1\",\"J\",\"127\"
\"\",\"\",\"approach-retreat\",\"131\",\"931984\",\"0.0-131.0\",\"\",\"\",\"1-2\",\"3852\",\"37\",\"1\",\"Training\",\"Stims/Figures/144-J-10-3.bmp\",\"fa:fasha\",\"Right\",\"37\",\"8\",\"16\",\"3A\",\"C1\",\"J\",\"128\"
\"\",\"\",\"approach-retreat\",\"132\",\"937550\",\"0.0-132.0\",\"\",\"\",\"1-2\",\"4052\",\"40\",\"1\",\"Training\",\"Stims/Figures/118-C-20-2.bmp\",\"zasaha\",\"Down\",\"40\",\"9\",\"1\",\"3A\",\"C2\",\"J\",\"129\"
\"\",\"\",\"approach-retreat\",\"133\",\"943100\",\"0.0-133.0\",\"\",\"\",\"1-2\",\"4044\",\"40\",\"1\",\"Training\",\"Stims/Figures/44-C-30-3.bmp\",\"zasaha\",\"Down\",\"40\",\"9\",\"2\",\"3A\",\"C2\",\"J\",\"130\"
\"\",\"\",\"approach-retreat\",\"134\",\"948728\",\"0.0-134.0\",\"\",\"\",\"1-2\",\"4122\",\"39\",\"1\",\"Training\",\"Stims/Figures/27-C-30-1.bmp\",\"zasaha\",\"Right\",\"39\",\"9\",\"3\",\"3A\",\"C2\",\"J\",\"131\"
\"\",\"\",\"approach-retreat\",\"135\",\"954214\",\"0.0-135.0\",\"\",\"\",\"1-2\",\"3978\",\"38\",\"1\",\"Training\",\"Stims/Figures/87-C-20-4.bmp\",\"zasaha\",\"Up\",\"38\",\"9\",\"4\",\"3A\",\"C2\",\"J\",\"132\"
\"\",\"\",\"approach-retreat\",\"136\",\"959632\",\"0.0-136.0\",\"\",\"\",\"1-2\",\"3904\",\"39\",\"1\",\"Training\",\"Stims/Figures/93-J-0-1.bmp\",\"fa:fasha\",\"Left\",\"39\",\"9\",\"5\",\"3A\",\"C1\",\"J\",\"133\"
\"\",\"\",\"approach-retreat\",\"137\",\"965250\",\"0.0-137.0\",\"\",\"\",\"1-2\",\"4112\",\"38\",\"1\",\"Training\",\"Stims/Figures/93-C-30-1.bmp\",\"zasaha\",\"Up\",\"38\",\"9\",\"6\",\"3A\",\"C2\",\"J\",\"134\"
\"\",\"\",\"approach-retreat\",\"138\",\"970738\",\"0.0-138.0\",\"\",\"\",\"1-2\",\"3980\",\"40\",\"1\",\"Training\",\"Stims/Figures/144-C-30-3.bmp\",\"zasaha\",\"Down\",\"40\",\"9\",\"7\",\"3A\",\"C2\",\"J\",\"135\"
\"\",\"\",\"approach-retreat\",\"139\",\"976214\",\"0.0-139.0\",\"\",\"\",\"1-2\",\"3962\",\"37\",\"1\",\"Training\",\"Stims/Figures/139-C-20-2.bmp\",\"zasaha\",\"Left\",\"37\",\"9\",\"8\",\"3A\",\"C2\",\"J\",\"136\"
\"\",\"\",\"approach-retreat\",\"140\",\"981658\",\"0.0-140.0\",\"\",\"\",\"1-2\",\"3934\",\"37\",\"1\",\"Training\",\"Stims/Figures/44-J-10-3.bmp\",\"fa:fasha\",\"Right\",\"37\",\"9\",\"9\",\"3A\",\"C1\",\"J\",\"137\"
\"\",\"\",\"approach-retreat\",\"141\",\"986964\",\"0.0-141.0\",\"\",\"\",\"1-2\",\"3800\",\"39\",\"1\",\"Training\",\"Stims/Figures/87-J-10-4.bmp\",\"fa:fasha\",\"Left\",\"39\",\"9\",\"10\",\"3A\",\"C1\",\"J\",\"138\"
\"\",\"\",\"approach-retreat\",\"142\",\"992460\",\"0.0-142.0\",\"\",\"\",\"1-2\",\"3990\",\"37\",\"1\",\"Training\",\"Stims/Figures/102-J-10-4.bmp\",\"fa:fasha\",\"Right\",\"37\",\"9\",\"11\",\"3A\",\"C1\",\"J\",\"139\"
\"\",\"\",\"approach-retreat\",\"143\",\"997912\",\"0.0-143.0\",\"\",\"\",\"1-2\",\"3942\",\"38\",\"1\",\"Training\",\"Stims/Figures/27-J-0-1.bmp\",\"fa:fasha\",\"Down\",\"38\",\"9\",\"12\",\"3A\",\"C1\",\"J\",\"140\"
\"\",\"\",\"approach-retreat\",\"144\",\"1003384\",\"0.0-144.0\",\"\",\"\",\"1-2\",\"3964\",\"37\",\"1\",\"Training\",\"Stims/Figures/102-C-20-4.bmp\",\"zasaha\",\"Left\",\"37\",\"9\",\"13\",\"3A\",\"C2\",\"J\",\"141\"
\"\",\"\",\"approach-retreat\",\"145\",\"1009518\",\"0.0-145.0\",\"\",\"\",\"1-2\",\"4620\",\"40\",\"1\",\"Training\",\"Stims/Figures/118-J-0-2.bmp\",\"fa:fasha\",\"Up\",\"40\",\"9\",\"14\",\"3A\",\"C1\",\"J\",\"142\"
\"\",\"\",\"approach-retreat\",\"146\",\"1014918\",\"0.0-146.0\",\"\",\"\",\"1-2\",\"3892\",\"37\",\"1\",\"Training\",\"Stims/Figures/144-J-10-3.bmp\",\"fa:fasha\",\"Right\",\"37\",\"9\",\"15\",\"3A\",\"C1\",\"J\",\"143\"
\"\",\"\",\"approach-retreat\",\"147\",\"1020478\",\"0.0-147.0\",\"\",\"\",\"1-2\",\"4050\",\"40\",\"1\",\"Training\",\"Stims/Figures/139-J-0-2.bmp\",\"fa:fasha\",\"Up\",\"40\",\"9\",\"16\",\"3A\",\"C1\",\"J\",\"144\"
\"18478\",\"\",\"instructions\",\"148\",\"1038958\",\"0.0-148.0\",\"[{\"\"page_index\"\":0,\"\"viewing_time\"\":18478}]\",\"\",\"\",\"\",\"\",\"\",\"\",\"\",\"\",\"\",\"\",\"\",\"\",\"\",\"\",\"\",\"\"
\"\",\"\",\"approach-retreat\",\"149\",\"1047340\",\"0.0-149.0\",\"\",\"\",\"1-2\",\"6868\",\"39\",\"0\",\"Testing\",\"Stims/Figures/111-C-30-3.bmp\",\"zasaha\",\"Left\",\"37\",\"1\",\"1\",\"3A\",\"C2\",\"J\",\"1\"
\"\",\"\",\"approach-retreat\",\"150\",\"1053240\",\"0.0-150.0\",\"\",\"\",\"1-2\",\"4386\",\"39\",\"0\",\"Testing\",\"Stims/Figures/57-J-0-1.bmp\",\"fa:fasha\",\"Right\",\"37\",\"1\",\"2\",\"3A\",\"C1\",\"J\",\"2\"
\"\",\"\",\"approach-retreat\",\"151\",\"1058836\",\"0.0-151.0\",\"\",\"\",\"1-2\",\"4080\",\"40\",\"1\",\"Testing\",\"Stims/Figures/87-J-10-4.bmp\",\"fa:fasha\",\"Up\",\"40\",\"1\",\"3\",\"3A\",\"C1\",\"J\",\"3\"
\"\",\"\",\"approach-retreat\",\"152\",\"1064462\",\"0.0-152.0\",\"\",\"\",\"1-2\",\"4106\",\"37\",\"1\",\"Testing\",\"Stims/Figures/111-J-10-3.bmp\",\"fa:fasha\",\"Right\",\"37\",\"1\",\"4\",\"3A\",\"C1\",\"J\",\"4\"
\"\",\"\",\"approach-retreat\",\"153\",\"1070136\",\"0.0-153.0\",\"\",\"\",\"1-2\",\"4160\",\"40\",\"1\",\"Testing\",\"Stims/Figures/19-J-10-4.bmp\",\"fa:fasha\",\"Up\",\"40\",\"1\",\"5\",\"3A\",\"C1\",\"J\",\"5\"
\"\",\"\",\"approach-retreat\",\"154\",\"1075914\",\"0.0-154.0\",\"\",\"\",\"1-2\",\"4264\",\"38\",\"0\",\"Testing\",\"Stims/Figures/93-C-30-1.bmp\",\"zasaha\",\"Down\",\"40\",\"1\",\"6\",\"3A\",\"C2\",\"J\",\"6\"
\"\",\"\",\"approach-retreat\",\"155\",\"1081746\",\"0.0-155.0\",\"\",\"\",\"1-2\",\"4308\",\"37\",\"0\",\"Testing\",\"Stims/Figures/27-J-0-1.bmp\",\"fa:fasha\",\"Left\",\"39\",\"1\",\"7\",\"3A\",\"C1\",\"J\",\"7\"
\"\",\"\",\"approach-retreat\",\"156\",\"1087698\",\"0.0-156.0\",\"\",\"\",\"1-2\",\"4438\",\"38\",\"1\",\"Testing\",\"Stims/Figures/44-J-10-3.bmp\",\"fa:fasha\",\"Down\",\"38\",\"1\",\"8\",\"3A\",\"C1\",\"J\",\"8\"
\"\",\"\",\"approach-retreat\",\"157\",\"1093308\",\"0.0-157.0\",\"\",\"\",\"1-2\",\"4088\",\"39\",\"0\",\"Testing\",\"Stims/Figures/144-J-10-3.bmp\",\"fa:fasha\",\"Right\",\"37\",\"1\",\"9\",\"3A\",\"C1\",\"J\",\"9\"
\"\",\"\",\"approach-retreat\",\"158\",\"1098878\",\"0.0-158.0\",\"\",\"\",\"1-2\",\"4066\",\"37\",\"0\",\"Testing\",\"Stims/Figures/144-C-30-3.bmp\",\"zasaha\",\"Right\",\"39\",\"1\",\"10\",\"3A\",\"C2\",\"J\",\"10\"
\"\",\"\",\"approach-retreat\",\"159\",\"1105056\",\"0.0-159.0\",\"\",\"\",\"1-2\",\"4662\",\"38\",\"1\",\"Testing\",\"Stims/Figures/139-C-20-2.bmp\",\"zasaha\",\"Up\",\"38\",\"1\",\"11\",\"3A\",\"C2\",\"J\",\"11\"
\"\",\"\",\"approach-retreat\",\"160\",\"1111414\",\"0.0-160.0\",\"\",\"\",\"1-2\",\"4842\",\"40\",\"1\",\"Testing\",\"Stims/Figures/19-C-20-4.bmp\",\"zasaha\",\"Down\",\"40\",\"1\",\"12\",\"3A\",\"C2\",\"J\",\"12\"
\"\",\"\",\"approach-retreat\",\"161\",\"1117016\",\"0.0-161.0\",\"\",\"\",\"1-2\",\"4090\",\"39\",\"0\",\"Testing\",\"Stims/Figures/94-C-20-2.bmp\",\"zasaha\",\"Left\",\"37\",\"1\",\"13\",\"3A\",\"C2\",\"J\",\"13\"
\"\",\"\",\"approach-retreat\",\"162\",\"1122798\",\"0.0-162.0\",\"\",\"\",\"1-2\",\"4268\",\"38\",\"0\",\"Testing\",\"Stims/Figures/93-J-0-1.bmp\",\"fa:fasha\",\"Up\",\"40\",\"1\",\"14\",\"3A\",\"C1\",\"J\",\"14\"
\"\",\"\",\"approach-retreat\",\"163\",\"1128424\",\"0.0-163.0\",\"\",\"\",\"1-2\",\"4106\",\"39\",\"1\",\"Testing\",\"Stims/Figures/102-C-20-4.bmp\",\"zasaha\",\"Right\",\"39\",\"1\",\"15\",\"3A\",\"C2\",\"J\",\"15\"
\"\",\"\",\"approach-retreat\",\"164\",\"1134066\",\"0.0-164.0\",\"\",\"\",\"1-2\",\"4126\",\"37\",\"0\",\"Testing\",\"Stims/Figures/102-J-10-4.bmp\",\"fa:fasha\",\"Left\",\"39\",\"1\",\"16\",\"3A\",\"C1\",\"J\",\"16\"
\"\",\"\",\"approach-retreat\",\"165\",\"1139716\",\"0.0-165.0\",\"\",\"\",\"1-2\",\"4136\",\"38\",\"1\",\"Testing\",\"Stims/Figures/118-C-20-2.bmp\",\"zasaha\",\"Up\",\"38\",\"1\",\"17\",\"3A\",\"C2\",\"J\",\"17\"
\"\",\"\",\"approach-retreat\",\"166\",\"1145412\",\"0.0-166.0\",\"\",\"\",\"1-2\",\"4172\",\"38\",\"1\",\"Testing\",\"Stims/Figures/57-C-30-1.bmp\",\"zasaha\",\"Up\",\"38\",\"1\",\"18\",\"3A\",\"C2\",\"J\",\"18\"
\"\",\"\",\"approach-retreat\",\"167\",\"1150908\",\"0.0-167.0\",\"\",\"\",\"1-2\",\"3986\",\"39\",\"0\",\"Testing\",\"Stims/Figures/87-C-20-4.bmp\",\"zasaha\",\"Left\",\"37\",\"1\",\"19\",\"3A\",\"C2\",\"J\",\"19\"
\"\",\"\",\"approach-retreat\",\"168\",\"1156662\",\"0.0-168.0\",\"\",\"\",\"1-2\",\"4238\",\"40\",\"0\",\"Testing\",\"Stims/Figures/118-J-0-2.bmp\",\"fa:fasha\",\"Down\",\"38\",\"1\",\"20\",\"3A\",\"C1\",\"J\",\"20\"
\"\",\"\",\"approach-retreat\",\"169\",\"1162786\",\"0.0-169.0\",\"\",\"\",\"1-2\",\"4616\",\"38\",\"0\",\"Testing\",\"Stims/Figures/27-C-30-1.bmp\",\"zasaha\",\"Down\",\"40\",\"1\",\"21\",\"3A\",\"C2\",\"J\",\"21\"
\"\",\"\",\"approach-retreat\",\"170\",\"1168390\",\"0.0-170.0\",\"\",\"\",\"1-2\",\"4098\",\"40\",\"0\",\"Testing\",\"Stims/Figures/139-J-0-2.bmp\",\"fa:fasha\",\"Down\",\"38\",\"1\",\"22\",\"3A\",\"C1\",\"J\",\"22\"
\"\",\"\",\"approach-retreat\",\"171\",\"1173856\",\"0.0-171.0\",\"\",\"\",\"1-2\",\"3954\",\"39\",\"0\",\"Testing\",\"Stims/Figures/44-C-30-3.bmp\",\"zasaha\",\"Left\",\"37\",\"1\",\"23\",\"3A\",\"C2\",\"J\",\"23\"
\"\",\"\",\"approach-retreat\",\"172\",\"1179476\",\"0.0-172.0\",\"\",\"\",\"1-2\",\"4098\",\"39\",\"0\",\"Testing\",\"Stims/Figures/94-J-0-2.bmp\",\"fa:fasha\",\"Right\",\"37\",\"1\",\"24\",\"3A\",\"C1\",\"J\",\"24\"
\"\",\"\",\"approach-retreat\",\"173\",\"1185284\",\"0.0-173.0\",\"\",\"\",\"1-2\",\"4288\",\"39\",\"1\",\"Testing\",\"Stims/Figures/27-C-30-1.bmp\",\"zasaha\",\"Right\",\"39\",\"2\",\"1\",\"3A\",\"C2\",\"J\",\"25\"
\"\",\"\",\"approach-retreat\",\"174\",\"1190824\",\"0.0-174.0\",\"\",\"\",\"1-2\",\"4026\",\"40\",\"0\",\"Testing\",\"Stims/Figures/118-C-20-2.bmp\",\"zasaha\",\"Up\",\"38\",\"2\",\"2\",\"3A\",\"C2\",\"J\",\"26\"
\"\",\"\",\"approach-retreat\",\"175\",\"1196386\",\"0.0-175.0\",\"\",\"\",\"1-2\",\"4054\",\"39\",\"0\",\"Testing\",\"Stims/Figures/144-J-10-3.bmp\",\"fa:fasha\",\"Right\",\"37\",\"2\",\"3\",\"3A\",\"C1\",\"J\",\"27\"
\"\",\"\",\"approach-retreat\",\"176\",\"1201854\",\"0.0-176.0\",\"\",\"\",\"1-2\",\"3956\",\"39\",\"1\",\"Testing\",\"Stims/Figures/57-C-30-1.bmp\",\"zasaha\",\"Right\",\"39\",\"2\",\"4\",\"3A\",\"C2\",\"J\",\"28\"
\"\",\"\",\"approach-retreat\",\"177\",\"1207484\",\"0.0-177.0\",\"\",\"\",\"1-2\",\"4116\",\"38\",\"0\",\"Testing\",\"Stims/Figures/111-J-10-3.bmp\",\"fa:fasha\",\"Up\",\"40\",\"2\",\"5\",\"3A\",\"C1\",\"J\",\"29\"
\"\",\"\",\"approach-retreat\",\"178\",\"1213214\",\"0.0-178.0\",\"\",\"\",\"1-2\",\"4212\",\"37\",\"1\",\"Testing\",\"Stims/Figures/139-C-20-2.bmp\",\"zasaha\",\"Left\",\"37\",\"2\",\"6\",\"3A\",\"C2\",\"J\",\"30\"
\"\",\"\",\"approach-retreat\",\"179\",\"1218740\",\"0.0-179.0\",\"\",\"\",\"1-2\",\"4016\",\"39\",\"0\",\"Testing\",\"Stims/Figures/139-J-0-2.bmp\",\"fa:fasha\",\"Right\",\"37\",\"2\",\"7\",\"3A\",\"C1\",\"J\",\"31\"
\"\",\"\",\"approach-retreat\",\"180\",\"1224406\",\"0.0-180.0\",\"\",\"\",\"1-2\",\"4154\",\"38\",\"1\",\"Testing\",\"Stims/Figures/87-J-10-4.bmp\",\"fa:fasha\",\"Down\",\"38\",\"2\",\"8\",\"3A\",\"C1\",\"J\",\"32\"
\"\",\"\",\"approach-retreat\",\"181\",\"1229958\",\"0.0-181.0\",\"\",\"\",\"1-2\",\"4032\",\"37\",\"0\",\"Testing\",\"Stims/Figures/57-J-0-1.bmp\",\"fa:fasha\",\"Left\",\"39\",\"2\",\"9\",\"3A\",\"C1\",\"J\",\"33\"
\"\",\"\",\"approach-retreat\",\"182\",\"1235462\",\"0.0-182.0\",\"\",\"\",\"1-2\",\"3992\",\"38\",\"0\",\"Testing\",\"Stims/Figures/19-C-20-4.bmp\",\"zasaha\",\"Down\",\"40\",\"2\",\"10\",\"3A\",\"C2\",\"J\",\"34\"
\"\",\"\",\"approach-retreat\",\"183\",\"1241104\",\"0.0-183.0\",\"\",\"\",\"1-2\",\"4126\",\"39\",\"0\",\"Testing\",\"Stims/Figures/44-C-30-3.bmp\",\"zasaha\",\"Left\",\"37\",\"2\",\"11\",\"3A\",\"C2\",\"J\",\"35\"
\"\",\"\",\"approach-retreat\",\"184\",\"1247236\",\"0.0-184.0\",\"\",\"\",\"1-2\",\"4618\",\"40\",\"1\",\"Testing\",\"Stims/Figures/27-J-0-1.bmp\",\"fa:fasha\",\"Up\",\"40\",\"2\",\"12\",\"3A\",\"C1\",\"J\",\"36\"
\"\",\"\",\"approach-retreat\",\"185\",\"1252654\",\"0.0-185.0\",\"\",\"\",\"1-2\",\"3898\",\"39\",\"1\",\"Testing\",\"Stims/Figures/102-J-10-4.bmp\",\"fa:fasha\",\"Left\",\"39\",\"2\",\"13\",\"3A\",\"C1\",\"J\",\"37\"
\"\",\"\",\"approach-retreat\",\"186\",\"1258398\",\"0.0-186.0\",\"\",\"\",\"1-2\",\"4222\",\"40\",\"0\",\"Testing\",\"Stims/Figures/93-J-0-1.bmp\",\"fa:fasha\",\"Down\",\"38\",\"2\",\"14\",\"3A\",\"C1\",\"J\",\"38\"
\"\",\"\",\"approach-retreat\",\"187\",\"1265150\",\"0.0-187.0\",\"\",\"\",\"1-2\",\"5244\",\"38\",\"0\",\"Testing\",\"Stims/Figures/144-C-30-3.bmp\",\"zasaha\",\"Down\",\"40\",\"2\",\"15\",\"3A\",\"C2\",\"J\",\"39\"
\"\",\"\",\"approach-retreat\",\"188\",\"1270800\",\"0.0-188.0\",\"\",\"\",\"1-2\",\"4142\",\"39\",\"1\",\"Testing\",\"Stims/Figures/44-J-10-3.bmp\",\"fa:fasha\",\"Left\",\"39\",\"2\",\"16\",\"3A\",\"C1\",\"J\",\"40\"
\"\",\"\",\"approach-retreat\",\"189\",\"1276450\",\"0.0-189.0\",\"\",\"\",\"1-2\",\"4134\",\"40\",\"1\",\"Testing\",\"Stims/Figures/19-J-10-4.bmp\",\"fa:fasha\",\"Up\",\"40\",\"2\",\"17\",\"3A\",\"C1\",\"J\",\"41\"
\"\",\"\",\"approach-retreat\",\"190\",\"1282024\",\"0.0-190.0\",\"\",\"\",\"1-2\",\"4062\",\"37\",\"0\",\"Testing\",\"Stims/Figures/111-C-30-3.bmp\",\"zasaha\",\"Right\",\"39\",\"2\",\"18\",\"3A\",\"C2\",\"J\",\"42\"
\"\",\"\",\"approach-retreat\",\"191\",\"1287674\",\"0.0-191.0\",\"\",\"\",\"1-2\",\"4124\",\"38\",\"0\",\"Testing\",\"Stims/Figures/102-C-20-4.bmp\",\"zasaha\",\"Down\",\"40\",\"2\",\"19\",\"3A\",\"C2\",\"J\",\"43\"
\"\",\"\",\"approach-retreat\",\"192\",\"1293224\",\"0.0-192.0\",\"\",\"\",\"1-2\",\"4040\",\"37\",\"0\",\"Testing\",\"Stims/Figures/94-J-0-2.bmp\",\"fa:fasha\",\"Left\",\"39\",\"2\",\"20\",\"3A\",\"C1\",\"J\",\"44\"
\"\",\"\",\"approach-retreat\",\"193\",\"1298886\",\"0.0-193.0\",\"\",\"\",\"1-2\",\"4152\",\"40\",\"0\",\"Testing\",\"Stims/Figures/118-J-0-2.bmp\",\"fa:fasha\",\"Down\",\"38\",\"2\",\"21\",\"3A\",\"C1\",\"J\",\"45\"
\"\",\"\",\"approach-retreat\",\"194\",\"1304576\",\"0.0-194.0\",\"\",\"\",\"1-2\",\"4176\",\"38\",\"1\",\"Testing\",\"Stims/Figures/93-C-30-1.bmp\",\"zasaha\",\"Up\",\"38\",\"2\",\"22\",\"3A\",\"C2\",\"J\",\"46\"
\"\",\"\",\"approach-retreat\",\"195\",\"1310176\",\"0.0-195.0\",\"\",\"\",\"1-2\",\"4090\",\"37\",\"0\",\"Testing\",\"Stims/Figures/94-C-20-2.bmp\",\"zasaha\",\"Right\",\"39\",\"2\",\"23\",\"3A\",\"C2\",\"J\",\"47\"
\"\",\"\",\"approach-retreat\",\"196\",\"1315812\",\"0.0-196.0\",\"\",\"\",\"1-2\",\"4116\",\"40\",\"0\",\"Testing\",\"Stims/Figures/87-C-20-4.bmp\",\"zasaha\",\"Up\",\"38\",\"2\",\"24\",\"3A\",\"C2\",\"J\",\"48\"
\"\",\"\",\"approach-retreat\",\"197\",\"1321412\",\"0.0-197.0\",\"\",\"\",\"1-2\",\"4084\",\"39\",\"0\",\"Testing\",\"Stims/Figures/19-C-20-4.bmp\",\"zasaha\",\"Left\",\"37\",\"3\",\"1\",\"3A\",\"C2\",\"J\",\"49\"
\"\",\"\",\"approach-retreat\",\"198\",\"1326858\",\"0.0-198.0\",\"\",\"\",\"1-2\",\"3934\",\"37\",\"0\",\"Testing\",\"Stims/Figures/144-C-30-3.bmp\",\"zasaha\",\"Right\",\"39\",\"3\",\"2\",\"3A\",\"C2\",\"J\",\"50\"
\"\",\"\",\"approach-retreat\",\"199\",\"1332612\",\"0.0-199.0\",\"\",\"\",\"1-2\",\"4242\",\"40\",\"0\",\"Testing\",\"Stims/Figures/57-J-0-1.bmp\",\"fa:fasha\",\"Down\",\"38\",\"3\",\"3\",\"3A\",\"C1\",\"J\",\"51\"
\"\",\"\",\"approach-retreat\",\"200\",\"1338462\",\"0.0-200.0\",\"\",\"\",\"1-2\",\"4332\",\"38\",\"0\",\"Testing\",\"Stims/Figures/139-J-0-2.bmp\",\"fa:fasha\",\"Up\",\"40\",\"3\",\"4\",\"3A\",\"C1\",\"J\",\"52\"
\"\",\"\",\"approach-retreat\",\"201\",\"1344932\",\"0.0-201.0\",\"\",\"\",\"1-2\",\"4954\",\"38\",\"0\",\"Testing\",\"Stims/Figures/87-J-10-4.bmp\",\"fa:fasha\",\"Up\",\"40\",\"3\",\"5\",\"3A\",\"C1\",\"J\",\"53\"
\"\",\"\",\"approach-retreat\",\"202\",\"1350534\",\"0.0-202.0\",\"\",\"\",\"1-2\",\"4090\",\"37\",\"0\",\"Testing\",\"Stims/Figures/27-C-30-1.bmp\",\"zasaha\",\"Right\",\"39\",\"3\",\"6\",\"3A\",\"C2\",\"J\",\"54\"
\"\",\"\",\"approach-retreat\",\"203\",\"1356292\",\"0.0-203.0\",\"\",\"\",\"1-2\",\"4242\",\"38\",\"0\",\"Testing\",\"Stims/Figures/118-J-0-2.bmp\",\"fa:fasha\",\"Up\",\"40\",\"3\",\"7\",\"3A\",\"C1\",\"J\",\"55\"
\"\",\"\",\"approach-retreat\",\"204\",\"1362080\",\"0.0-204.0\",\"\",\"\",\"1-2\",\"4276\",\"37\",\"0\",\"Testing\",\"Stims/Figures/111-J-10-3.bmp\",\"fa:fasha\",\"Left\",\"39\",\"3\",\"8\",\"3A\",\"C1\",\"J\",\"56\"
\"\",\"\",\"approach-retreat\",\"205\",\"1369086\",\"0.0-205.0\",\"\",\"\",\"1-2\",\"5494\",\"38\",\"0\",\"Testing\",\"Stims/Figures/27-J-0-1.bmp\",\"fa:fasha\",\"Up\",\"40\",\"3\",\"9\",\"3A\",\"C1\",\"J\",\"57\"
\"\",\"\",\"approach-retreat\",\"206\",\"1374552\",\"0.0-206.0\",\"\",\"\",\"1-2\",\"3950\",\"39\",\"0\",\"Testing\",\"Stims/Figures/44-C-30-3.bmp\",\"zasaha\",\"Left\",\"37\",\"3\",\"10\",\"3A\",\"C2\",\"J\",\"58\"
\"\",\"\",\"approach-retreat\",\"207\",\"1381128\",\"0.0-207.0\",\"\",\"\",\"1-2\",\"5054\",\"38\",\"0\",\"Testing\",\"Stims/Figures/94-J-0-2.bmp\",\"fa:fasha\",\"Up\",\"40\",\"3\",\"11\",\"3A\",\"C1\",\"J\",\"59\"
\"\",\"\",\"approach-retreat\",\"208\",\"1386604\",\"0.0-208.0\",\"\",\"\",\"1-2\",\"3962\",\"39\",\"0\",\"Testing\",\"Stims/Figures/57-C-30-1.bmp\",\"zasaha\",\"Left\",\"37\",\"3\",\"12\",\"3A\",\"C2\",\"J\",\"60\"
\"\",\"\",\"approach-retreat\",\"209\",\"1392116\",\"0.0-209.0\",\"\",\"\",\"1-2\",\"4000\",\"37\",\"0\",\"Testing\",\"Stims/Figures/118-C-20-2.bmp\",\"zasaha\",\"Right\",\"39\",\"3\",\"13\",\"3A\",\"C2\",\"J\",\"61\"
\"\",\"\",\"approach-retreat\",\"210\",\"1397738\",\"0.0-210.0\",\"\",\"\",\"1-2\",\"4100\",\"38\",\"0\",\"Testing\",\"Stims/Figures/94-C-20-2.bmp\",\"zasaha\",\"Down\",\"40\",\"3\",\"14\",\"3A\",\"C2\",\"J\",\"62\"
\"\",\"\",\"approach-retreat\",\"211\",\"1403404\",\"0.0-211.0\",\"\",\"\",\"1-2\",\"4150\",\"40\",\"1\",\"Testing\",\"Stims/Figures/102-J-10-4.bmp\",\"fa:fasha\",\"Up\",\"40\",\"3\",\"15\",\"3A\",\"C1\",\"J\",\"63\"
\"\",\"\",\"approach-retreat\",\"212\",\"1408906\",\"0.0-212.0\",\"\",\"\",\"1-2\",\"3992\",\"37\",\"0\",\"Testing\",\"Stims/Figures/87-C-20-4.bmp\",\"zasaha\",\"Right\",\"39\",\"3\",\"16\",\"3A\",\"C2\",\"J\",\"64\"
\"\",\"\",\"approach-retreat\",\"213\",\"1414558\",\"0.0-213.0\",\"\",\"\",\"1-2\",\"4142\",\"37\",\"1\",\"Testing\",\"Stims/Figures/44-J-10-3.bmp\",\"fa:fasha\",\"Right\",\"37\",\"3\",\"17\",\"3A\",\"C1\",\"J\",\"65\"
\"\",\"\",\"approach-retreat\",\"214\",\"1420244\",\"0.0-214.0\",\"\",\"\",\"1-2\",\"4176\",\"38\",\"0\",\"Testing\",\"Stims/Figures/111-C-30-3.bmp\",\"zasaha\",\"Down\",\"40\",\"3\",\"18\",\"3A\",\"C2\",\"J\",\"66\"
\"\",\"\",\"approach-retreat\",\"215\",\"1425806\",\"0.0-215.0\",\"\",\"\",\"1-2\",\"4054\",\"38\",\"0\",\"Testing\",\"Stims/Figures/102-C-20-4.bmp\",\"zasaha\",\"Down\",\"40\",\"3\",\"19\",\"3A\",\"C2\",\"J\",\"67\"
\"\",\"\",\"approach-retreat\",\"216\",\"1431368\",\"0.0-216.0\",\"\",\"\",\"1-2\",\"4054\",\"38\",\"0\",\"Testing\",\"Stims/Figures/93-C-30-1.bmp\",\"zasaha\",\"Down\",\"40\",\"3\",\"20\",\"3A\",\"C2\",\"J\",\"68\"
\"\",\"\",\"approach-retreat\",\"217\",\"1437068\",\"0.0-217.0\",\"\",\"\",\"1-2\",\"4192\",\"37\",\"0\",\"Testing\",\"Stims/Figures/93-J-0-1.bmp\",\"fa:fasha\",\"Left\",\"39\",\"3\",\"21\",\"3A\",\"C1\",\"J\",\"69\"
\"\",\"\",\"approach-retreat\",\"218\",\"1442548\",\"0.0-218.0\",\"\",\"\",\"1-2\",\"3960\",\"38\",\"1\",\"Testing\",\"Stims/Figures/19-J-10-4.bmp\",\"fa:fasha\",\"Down\",\"38\",\"3\",\"22\",\"3A\",\"C1\",\"J\",\"70\"
\"\",\"\",\"approach-retreat\",\"219\",\"1448414\",\"0.0-219.0\",\"\",\"\",\"1-2\",\"4344\",\"39\",\"1\",\"Testing\",\"Stims/Figures/139-C-20-2.bmp\",\"zasaha\",\"Right\",\"39\",\"3\",\"23\",\"3A\",\"C2\",\"J\",\"71\"
\"\",\"\",\"approach-retreat\",\"220\",\"1453908\",\"0.0-220.0\",\"\",\"\",\"1-2\",\"3986\",\"37\",\"0\",\"Testing\",\"Stims/Figures/144-J-10-3.bmp\",\"fa:fasha\",\"Left\",\"39\",\"3\",\"24\",\"3A\",\"C1\",\"J\",\"72\"
\"\",\"\",\"approach-retreat\",\"221\",\"1459620\",\"0.0-221.0\",\"\",\"\",\"1-2\",\"4200\",\"37\",\"0\",\"Testing\",\"Stims/Figures/139-J-0-2.bmp\",\"fa:fasha\",\"Left\",\"39\",\"4\",\"1\",\"3A\",\"C1\",\"J\",\"73\"
\"\",\"\",\"approach-retreat\",\"222\",\"1465804\",\"0.0-222.0\",\"\",\"\",\"1-2\",\"4666\",\"37\",\"0\",\"Testing\",\"Stims/Figures/118-C-20-2.bmp\",\"zasaha\",\"Right\",\"39\",\"4\",\"2\",\"3A\",\"C2\",\"J\",\"74\"
\"\",\"\",\"approach-retreat\",\"223\",\"1471420\",\"0.0-223.0\",\"\",\"\",\"1-2\",\"4090\",\"40\",\"1\",\"Testing\",\"Stims/Figures/87-J-10-4.bmp\",\"fa:fasha\",\"Up\",\"40\",\"4\",\"3\",\"3A\",\"C1\",\"J\",\"75\"
\"\",\"\",\"approach-retreat\",\"224\",\"1476952\",\"0.0-224.0\",\"\",\"\",\"1-2\",\"4018\",\"38\",\"0\",\"Testing\",\"Stims/Figures/93-C-30-1.bmp\",\"zasaha\",\"Down\",\"40\",\"4\",\"4\",\"3A\",\"C2\",\"J\",\"76\"
\"\",\"\",\"approach-retreat\",\"225\",\"1482448\",\"0.0-225.0\",\"\",\"\",\"1-2\",\"3974\",\"38\",\"0\",\"Testing\",\"Stims/Figures/57-C-30-1.bmp\",\"zasaha\",\"Down\",\"40\",\"4\",\"5\",\"3A\",\"C2\",\"J\",\"77\"
\"\",\"\",\"approach-retreat\",\"226\",\"1487988\",\"0.0-226.0\",\"\",\"\",\"1-2\",\"4036\",\"40\",\"1\",\"Testing\",\"Stims/Figures/111-J-10-3.bmp\",\"fa:fasha\",\"Up\",\"40\",\"4\",\"6\",\"3A\",\"C1\",\"J\",\"78\"
\"\",\"\",\"approach-retreat\",\"227\",\"1493840\",\"0.0-227.0\",\"\",\"\",\"1-2\",\"4334\",\"40\",\"0\",\"Testing\",\"Stims/Figures/57-J-0-1.bmp\",\"fa:fasha\",\"Down\",\"38\",\"4\",\"7\",\"3A\",\"C1\",\"J\",\"79\"
\"\",\"\",\"approach-retreat\",\"228\",\"1499446\",\"0.0-228.0\",\"\",\"\",\"1-2\",\"4086\",\"39\",\"0\",\"Testing\",\"Stims/Figures/27-C-30-1.bmp\",\"zasaha\",\"Left\",\"37\",\"4\",\"8\",\"3A\",\"C2\",\"J\",\"80\"
\"\",\"\",\"approach-retreat\",\"229\",\"1505250\",\"0.0-229.0\",\"\",\"\",\"1-2\",\"4284\",\"37\",\"1\",\"Testing\",\"Stims/Figures/19-J-10-4.bmp\",\"fa:fasha\",\"Right\",\"37\",\"4\",\"9\",\"3A\",\"C1\",\"J\",\"81\"
\"\",\"\",\"approach-retreat\",\"230\",\"1510834\",\"0.0-230.0\",\"\",\"\",\"1-2\",\"4070\",\"39\",\"0\",\"Testing\",\"Stims/Figures/144-J-10-3.bmp\",\"fa:fasha\",\"Right\",\"37\",\"4\",\"10\",\"3A\",\"C1\",\"J\",\"82\"
\"\",\"\",\"approach-retreat\",\"231\",\"1516728\",\"0.0-231.0\",\"\",\"\",\"1-2\",\"4368\",\"38\",\"0\",\"Testing\",\"Stims/Figures/44-J-10-3.bmp\",\"fa:fasha\",\"Up\",\"40\",\"4\",\"11\",\"3A\",\"C1\",\"J\",\"83\"
\"\",\"\",\"approach-retreat\",\"232\",\"1522440\",\"0.0-232.0\",\"\",\"\",\"1-2\",\"4202\",\"38\",\"0\",\"Testing\",\"Stims/Figures/94-C-20-2.bmp\",\"zasaha\",\"Down\",\"40\",\"4\",\"12\",\"3A\",\"C2\",\"J\",\"84\"
\"\",\"\",\"approach-retreat\",\"233\",\"1528386\",\"0.0-233.0\",\"\",\"\",\"1-2\",\"4426\",\"38\",\"0\",\"Testing\",\"Stims/Figures/94-J-0-2.bmp\",\"fa:fasha\",\"Up\",\"40\",\"4\",\"13\",\"3A\",\"C1\",\"J\",\"85\"
\"\",\"\",\"approach-retreat\",\"234\",\"1534066\",\"0.0-234.0\",\"\",\"\",\"1-2\",\"4164\",\"39\",\"0\",\"Testing\",\"Stims/Figures/102-C-20-4.bmp\",\"zasaha\",\"Left\",\"37\",\"4\",\"14\",\"3A\",\"C2\",\"J\",\"86\"
\"\",\"\",\"approach-retreat\",\"235\",\"1539700\",\"0.0-235.0\",\"\",\"\",\"1-2\",\"4114\",\"37\",\"0\",\"Testing\",\"Stims/Figures/144-C-30-3.bmp\",\"zasaha\",\"Right\",\"39\",\"4\",\"15\",\"3A\",\"C2\",\"J\",\"87\"
\"\",\"\",\"approach-retreat\",\"236\",\"1545412\",\"0.0-236.0\",\"\",\"\",\"1-2\",\"4194\",\"40\",\"0\",\"Testing\",\"Stims/Figures/87-C-20-4.bmp\",\"zasaha\",\"Up\",\"38\",\"4\",\"16\",\"3A\",\"C2\",\"J\",\"88\"
\"\",\"\",\"approach-retreat\",\"237\",\"1551098\",\"0.0-237.0\",\"\",\"\",\"1-2\",\"4166\",\"39\",\"0\",\"Testing\",\"Stims/Figures/27-J-0-1.bmp\",\"fa:fasha\",\"Right\",\"37\",\"4\",\"17\",\"3A\",\"C1\",\"J\",\"89\"
\"\",\"\",\"approach-retreat\",\"238\",\"1557230\",\"0.0-238.0\",\"\",\"\",\"1-2\",\"4624\",\"38\",\"0\",\"Testing\",\"Stims/Figures/93-J-0-1.bmp\",\"fa:fasha\",\"Up\",\"40\",\"4\",\"18\",\"3A\",\"C1\",\"J\",\"90\"
\"\",\"\",\"approach-retreat\",\"239\",\"1563374\",\"0.0-239.0\",\"\",\"\",\"1-2\",\"4632\",\"37\",\"0\",\"Testing\",\"Stims/Figures/111-C-30-3.bmp\",\"zasaha\",\"Right\",\"39\",\"4\",\"19\",\"3A\",\"C2\",\"J\",\"91\"
\"\",\"\",\"approach-retreat\",\"240\",\"1568902\",\"0.0-240.0\",\"\",\"\",\"1-2\",\"4010\",\"39\",\"1\",\"Testing\",\"Stims/Figures/102-J-10-4.bmp\",\"fa:fasha\",\"Left\",\"39\",\"4\",\"20\",\"3A\",\"C1\",\"J\",\"92\"
\"\",\"\",\"approach-retreat\",\"241\",\"1574520\",\"0.0-241.0\",\"\",\"\",\"1-2\",\"4106\",\"38\",\"0\",\"Testing\",\"Stims/Figures/139-C-20-2.bmp\",\"zasaha\",\"Down\",\"40\",\"4\",\"21\",\"3A\",\"C2\",\"J\",\"93\"
\"\",\"\",\"approach-retreat\",\"242\",\"1580080\",\"0.0-242.0\",\"\",\"\",\"1-2\",\"4038\",\"39\",\"1\",\"Testing\",\"Stims/Figures/118-J-0-2.bmp\",\"fa:fasha\",\"Left\",\"39\",\"4\",\"22\",\"3A\",\"C1\",\"J\",\"94\"
\"\",\"\",\"approach-retreat\",\"243\",\"1585668\",\"0.0-243.0\",\"\",\"\",\"1-2\",\"4070\",\"38\",\"0\",\"Testing\",\"Stims/Figures/19-C-20-4.bmp\",\"zasaha\",\"Down\",\"40\",\"4\",\"23\",\"3A\",\"C2\",\"J\",\"95\"
\"\",\"\",\"approach-retreat\",\"244\",\"1591598\",\"0.0-244.0\",\"\",\"\",\"1-2\",\"4424\",\"39\",\"0\",\"Testing\",\"Stims/Figures/44-C-30-3.bmp\",\"zasaha\",\"Left\",\"37\",\"4\",\"24\",\"3A\",\"C2\",\"J\",\"96\"
\"38910\",\"\",\"survey-text\",\"245\",\"1630520\",\"0.0-245.0\",\"\",\"{\"\"Q0\"\":\"\"PS170023\"\"}\",\"\",\"\",\"\",\"\",\"\",\"\",\"\",\"\",\"\",\"\",\"\",\"\",\"\",\"\",\"\"
