"rt","key_press","trial_type","trial_index","time_elapsed","internal_node_id","view_history","responses","Id","Rt","ResKeyCode","ResCorr","TrialType2","Image","Label","Location","CorrectResponse","Block","BlockTrial","Condition","LabelType","Subcondition","trialNum"
"31020","32","text","0","31025","0.0-0.0-0.0","","","","","","","","","","","","","","","","",""
"58122","","instructions","1","89148","0.0-1.0","[{""page_index"":0,""viewing_time"":58120}]","","","","","","","","","","","","","","","",""
"27646","","survey-multi-choice","2","116841","0.0-2.0","","{""Q0"":""Da"",""Q1"":""Da"",""Q2"":""Da"",""Q3"":""Da"",""Q4"":""Da"",""Q5"":""Da""}","","","","","","","","","","","","","","",""
"","","bio","3","125430","0.0-3.0","","{""age"":""19"",""gender"":""m"",""specify"":""""}","","","","","","","","","","","","","","",""
"","","approach-retreat","4","136404","0.0-4.0","","","3-4","9429","37","1","Training","Stims/Figures/100-C-30-3.bmp","None","Right","37","1","1","10","N","C","1"
"","","approach-retreat","5","144922","0.0-5.0","","","3-4","7005","39","0","Training","Stims/Figures/27-J-0-1.bmp","None","Left","37","1","2","10","N","C","2"
"","","approach-retreat","6","151951","0.0-6.0","","","3-4","5518","38","0","Training","Stims/Figures/87-C-20-4.bmp","None","Up","40","1","3","10","N","C","3"
"","","approach-retreat","7","159005","0.0-7.0","","","3-4","5543","38","1","Training","Stims/Figures/27-C-30-1.bmp","None","Down","38","1","4","10","N","C","4"
"","","approach-retreat","8","164606","0.0-8.0","","","3-4","4090","39","0","Training","Stims/Figures/102-C-20-4.bmp","None","Right","37","1","5","10","N","C","5"
"","","approach-retreat","9","171402","0.0-9.0","","","3-4","5286","40","1","Training","Stims/Figures/139-C-20-2.bmp","None","Up","40","1","6","10","N","C","6"
"","","approach-retreat","10","177285","0.0-10.0","","","3-4","4372","40","0","Training","Stims/Figures/100-J-10-3.bmp","None","Up","38","1","7","10","N","C","7"
"","","approach-retreat","11","183289","0.0-11.0","","","3-4","4491","37","0","Training","Stims/Figures/44-C-30-3.bmp","None","Left","39","1","8","10","N","C","8"
"","","approach-retreat","12","189217","0.0-12.0","","","3-4","4420","38","0","Training","Stims/Figures/57-J-0-1.bmp","None","Down","40","1","9","10","N","C","9"
"","","approach-retreat","13","194870","0.0-13.0","","","3-4","4143","40","1","Training","Stims/Figures/84-C-20-2.bmp","None","Up","40","1","10","10","N","C","10"
"","","approach-retreat","14","200484","0.0-14.0","","","3-4","4103","40","1","Training","Stims/Figures/87-J-10-4.bmp","None","Down","40","1","11","10","N","C","11"
"","","approach-retreat","15","206752","0.0-15.0","","","3-4","4758","39","1","Training","Stims/Figures/57-C-30-1.bmp","None","Left","39","1","12","10","N","C","12"
"","","approach-retreat","16","212504","0.0-16.0","","","3-4","4240","38","0","Training","Stims/Figures/44-J-10-3.bmp","None","Down","40","1","13","10","N","C","13"
"","","approach-retreat","17","218839","0.0-17.0","","","3-4","4826","37","0","Training","Stims/Figures/84-J-0-2.bmp","None","Right","39","1","14","10","N","C","14"
"","","approach-retreat","18","225547","0.0-18.0","","","3-4","5197","37","0","Training","Stims/Figures/102-J-10-4.bmp","None","Right","39","1","15","10","N","C","15"
"","","approach-retreat","19","232921","0.0-19.0","","","3-4","5868","37","1","Training","Stims/Figures/139-J-0-2.bmp","None","Left","37","1","16","10","N","C","16"
"","","approach-retreat","20","238672","0.0-20.0","","","3-4","4240","40","1","Training","Stims/Figures/44-C-30-3.bmp","None","Up","40","2","1","10","N","C","17"
"","","approach-retreat","21","244346","0.0-21.0","","","3-4","4168","39","1","Training","Stims/Figures/57-C-30-1.bmp","None","Left","39","2","2","10","N","C","18"
"","","approach-retreat","22","250132","0.0-22.0","","","3-4","4274","40","1","Training","Stims/Figures/102-J-10-4.bmp","None","Down","40","2","3","10","N","C","19"
"","","approach-retreat","23","256839","0.0-23.0","","","3-4","5200","37","1","Training","Stims/Figures/87-C-20-4.bmp","None","Right","37","2","4","10","N","C","20"
"","","approach-retreat","24","262767","0.0-24.0","","","3-4","4421","39","0","Training","Stims/Figures/27-J-0-1.bmp","None","Left","37","2","5","10","N","C","21"
"","","approach-retreat","25","268395","0.0-25.0","","","3-4","4121","39","1","Training","Stims/Figures/139-C-20-2.bmp","None","Left","39","2","6","10","N","C","22"
"","","approach-retreat","26","274263","0.0-26.0","","","3-4","4363","40","1","Training","Stims/Figures/102-C-20-4.bmp","None","Up","40","2","7","10","N","C","23"
"","","approach-retreat","27","280149","0.0-27.0","","","3-4","4377","37","1","Training","Stims/Figures/100-J-10-3.bmp","None","Left","37","2","8","10","N","C","24"
"","","approach-retreat","28","285989","0.0-28.0","","","3-4","4330","40","1","Training","Stims/Figures/84-J-0-2.bmp","None","Down","40","2","9","10","N","C","25"
"","","approach-retreat","29","293867","0.0-29.0","","","3-4","6366","39","1","Training","Stims/Figures/87-J-10-4.bmp","None","Right","39","2","10","10","N","C","26"
"","","approach-retreat","30","300605","0.0-30.0","","","3-4","5231","38","1","Training","Stims/Figures/57-J-0-1.bmp","None","Up","38","2","11","10","N","C","27"
"","","approach-retreat","31","306450","0.0-31.0","","","3-4","4336","39","1","Training","Stims/Figures/44-J-10-3.bmp","None","Right","39","2","12","10","N","C","28"
"","","approach-retreat","32","313125","0.0-32.0","","","3-4","5164","37","1","Training","Stims/Figures/27-C-30-1.bmp","None","Right","37","2","13","10","N","C","29"
"","","approach-retreat","33","319004","0.0-33.0","","","3-4","4368","40","1","Training","Stims/Figures/139-J-0-2.bmp","None","Down","40","2","14","10","N","C","30"
"","","approach-retreat","34","324646","0.0-34.0","","","3-4","4135","38","1","Training","Stims/Figures/84-C-20-2.bmp","None","Down","38","2","15","10","N","C","31"
"","","approach-retreat","35","331825","0.0-35.0","","","3-4","5672","38","0","Training","Stims/Figures/100-C-30-3.bmp","None","Up","40","2","16","10","N","C","32"
"","","approach-retreat","36","342227","0.0-36.0","","","3-4","8894","38","1","Training","Stims/Figures/102-C-20-4.bmp","None","Down","38","3","1","10","N","C","33"
"","","approach-retreat","37","347918","0.0-37.0","","","3-4","4180","40","1","Training","Stims/Figures/44-J-10-3.bmp","None","Down","40","3","2","10","N","C","34"
"","","approach-retreat","38","353777","0.0-38.0","","","3-4","4346","37","1","Training","Stims/Figures/27-C-30-1.bmp","None","Right","37","3","3","10","N","C","35"
"","","approach-retreat","39","359524","0.0-39.0","","","3-4","4240","40","0","Training","Stims/Figures/87-J-10-4.bmp","None","Up","38","3","4","10","N","C","36"
"","","approach-retreat","40","365454","0.0-40.0","","","3-4","4423","38","1","Training","Stims/Figures/84-C-20-2.bmp","None","Down","38","3","5","10","N","C","37"
"","","approach-retreat","41","372762","0.0-41.0","","","3-4","5796","38","1","Training","Stims/Figures/100-C-30-3.bmp","None","Down","38","3","6","10","N","C","38"
"","","approach-retreat","42","378737","0.0-42.0","","","3-4","4464","39","1","Training","Stims/Figures/87-C-20-4.bmp","None","Left","39","3","7","10","N","C","39"
"","","approach-retreat","43","384405","0.0-43.0","","","3-4","4158","39","1","Training","Stims/Figures/57-C-30-1.bmp","None","Left","39","3","8","10","N","C","40"
"","","approach-retreat","44","390327","0.0-44.0","","","3-4","4415","37","1","Training","Stims/Figures/27-J-0-1.bmp","None","Left","37","3","9","10","N","C","41"
"","","approach-retreat","45","396943","0.0-45.0","","","3-4","5105","37","0","Training","Stims/Figures/57-J-0-1.bmp","None","Right","39","3","10","10","N","C","42"
"","","approach-retreat","46","402689","0.0-46.0","","","3-4","4239","38","1","Training","Stims/Figures/84-J-0-2.bmp","None","Up","38","3","11","10","N","C","43"
"","","approach-retreat","47","408457","0.0-47.0","","","3-4","4258","37","1","Training","Stims/Figures/139-C-20-2.bmp","None","Right","37","3","12","10","N","C","44"
"","","approach-retreat","48","414533","0.0-48.0","","","3-4","4566","37","1","Training","Stims/Figures/139-J-0-2.bmp","None","Left","37","3","13","10","N","C","45"
"","","approach-retreat","49","421886","0.0-49.0","","","3-4","5842","40","0","Training","Stims/Figures/100-J-10-3.bmp","None","Up","38","3","14","10","N","C","46"
"","","approach-retreat","50","427629","0.0-50.0","","","3-4","4237","37","0","Training","Stims/Figures/102-J-10-4.bmp","None","Right","39","3","15","10","N","C","47"
"","","approach-retreat","51","433512","0.0-51.0","","","3-4","4373","40","1","Training","Stims/Figures/44-C-30-3.bmp","None","Up","40","3","16","10","N","C","48"
"","","approach-retreat","52","439161","0.0-52.0","","","3-4","4138","39","1","Training","Stims/Figures/27-C-30-1.bmp","None","Left","39","4","1","10","N","C","49"
"","","approach-retreat","53","445071","0.0-53.0","","","3-4","4401","38","1","Training","Stims/Figures/139-J-0-2.bmp","None","Up","38","4","2","10","N","C","50"
"","","approach-retreat","54","450883","0.0-54.0","","","3-4","4306","40","1","Training","Stims/Figures/84-C-20-2.bmp","None","Up","40","4","3","10","N","C","51"
"","","approach-retreat","55","456509","0.0-55.0","","","3-4","4120","39","1","Training","Stims/Figures/100-J-10-3.bmp","None","Right","39","4","4","10","N","C","52"
"","","approach-retreat","56","462329","0.0-56.0","","","3-4","4308","39","1","Training","Stims/Figures/44-J-10-3.bmp","None","Right","39","4","5","10","N","C","53"
"","","approach-retreat","57","468067","0.0-57.0","","","3-4","4232","40","1","Training","Stims/Figures/84-J-0-2.bmp","None","Down","40","4","6","10","N","C","54"
"","","approach-retreat","58","473797","0.0-58.0","","","3-4","4220","38","0","Training","Stims/Figures/102-J-10-4.bmp","None","Down","40","4","7","10","N","C","55"
"","","approach-retreat","59","479466","0.0-59.0","","","3-4","4162","39","1","Training","Stims/Figures/87-J-10-4.bmp","None","Right","39","4","8","10","N","C","56"
"","","approach-retreat","60","485110","0.0-60.0","","","3-4","4137","38","1","Training","Stims/Figures/57-C-30-1.bmp","None","Down","38","4","9","10","N","C","57"
"","","approach-retreat","61","491281","0.0-61.0","","","3-4","4665","38","1","Training","Stims/Figures/57-J-0-1.bmp","None","Up","38","4","10","10","N","C","58"
"","","approach-retreat","62","497133","0.0-62.0","","","3-4","4342","37","0","Training","Stims/Figures/87-C-20-4.bmp","None","Left","39","4","11","10","N","C","59"
"","","approach-retreat","63","502735","0.0-63.0","","","3-4","4094","40","1","Training","Stims/Figures/44-C-30-3.bmp","None","Up","40","4","12","10","N","C","60"
"","","approach-retreat","64","508522","0.0-64.0","","","3-4","4276","37","0","Training","Stims/Figures/100-C-30-3.bmp","None","Left","39","4","13","10","N","C","61"
"","","approach-retreat","65","514060","0.0-65.0","","","3-4","4031","37","1","Training","Stims/Figures/139-C-20-2.bmp","None","Right","37","4","14","10","N","C","62"
"","","approach-retreat","66","521117","0.0-66.0","","","3-4","5546","37","0","Training","Stims/Figures/102-C-20-4.bmp","None","Left","39","4","15","10","N","C","63"
"","","approach-retreat","67","526793","0.0-67.0","","","3-4","4168","40","1","Training","Stims/Figures/27-J-0-1.bmp","None","Down","40","4","16","10","N","C","64"
"","","approach-retreat","68","532636","0.0-68.0","","","3-4","4332","40","1","Training","Stims/Figures/57-J-0-1.bmp","None","Down","40","5","1","10","N","C","65"
"","","approach-retreat","69","538339","0.0-69.0","","","3-4","4191","37","1","Training","Stims/Figures/139-J-0-2.bmp","None","Left","37","5","2","10","N","C","66"
"","","approach-retreat","70","545414","0.0-70.0","","","3-4","5569","40","1","Training","Stims/Figures/87-C-20-4.bmp","None","Up","40","5","3","10","N","C","67"
"","","approach-retreat","71","551095","0.0-71.0","","","3-4","4172","37","1","Training","Stims/Figures/100-C-30-3.bmp","None","Right","37","5","4","10","N","C","68"
"","","approach-retreat","72","556722","0.0-72.0","","","3-4","4120","37","1","Training","Stims/Figures/102-J-10-4.bmp","None","Left","37","5","5","10","N","C","69"
"","","approach-retreat","73","562442","0.0-73.0","","","3-4","4208","40","1","Training","Stims/Figures/84-J-0-2.bmp","None","Down","40","5","6","10","N","C","70"
"","","approach-retreat","74","568136","0.0-74.0","","","3-4","4187","40","1","Training","Stims/Figures/57-C-30-1.bmp","None","Up","40","5","7","10","N","C","71"
"","","approach-retreat","75","573807","0.0-75.0","","","3-4","4159","38","1","Training","Stims/Figures/44-C-30-3.bmp","None","Down","38","5","8","10","N","C","72"
"","","approach-retreat","76","579534","0.0-76.0","","","3-4","4221","38","0","Training","Stims/Figures/102-C-20-4.bmp","None","Up","40","5","9","10","N","C","73"
"","","approach-retreat","77","585201","0.0-77.0","","","3-4","4161","40","1","Training","Stims/Figures/84-C-20-2.bmp","None","Up","40","5","10","10","N","C","74"
"","","approach-retreat","78","590985","0.0-78.0","","","3-4","4272","37","1","Training","Stims/Figures/44-J-10-3.bmp","None","Left","37","5","11","10","N","C","75"
"","","approach-retreat","79","596688","0.0-79.0","","","3-4","4197","39","1","Training","Stims/Figures/27-C-30-1.bmp","None","Left","39","5","12","10","N","C","76"
"","","approach-retreat","80","603037","0.0-80.0","","","3-4","4837","38","1","Training","Stims/Figures/139-C-20-2.bmp","None","Down","38","5","13","10","N","C","77"
"","","approach-retreat","81","608769","0.0-81.0","","","3-4","4223","39","1","Training","Stims/Figures/100-J-10-3.bmp","None","Right","39","5","14","10","N","C","78"
"","","approach-retreat","82","614501","0.0-82.0","","","3-4","4220","39","1","Training","Stims/Figures/87-J-10-4.bmp","None","Right","39","5","15","10","N","C","79"
"","","approach-retreat","83","620117","0.0-83.0","","","3-4","4105","39","1","Training","Stims/Figures/27-J-0-1.bmp","None","Right","39","5","16","10","N","C","80"
"","","approach-retreat","84","625770","0.0-84.0","","","3-4","4143","40","1","Training","Stims/Figures/87-C-20-4.bmp","None","Up","40","6","1","10","N","C","81"
"","","approach-retreat","85","631557","0.0-85.0","","","3-4","4275","38","1","Training","Stims/Figures/57-C-30-1.bmp","None","Down","38","6","2","10","N","C","82"
"","","approach-retreat","86","637812","0.0-86.0","","","3-4","4744","38","1","Training","Stims/Figures/100-J-10-3.bmp","None","Up","38","6","3","10","N","C","83"
"","","approach-retreat","87","643465","0.0-87.0","","","3-4","4142","39","1","Training","Stims/Figures/57-J-0-1.bmp","None","Right","39","6","4","10","N","C","84"
"","","approach-retreat","88","649090","0.0-88.0","","","3-4","4119","37","1","Training","Stims/Figures/27-C-30-1.bmp","None","Right","37","6","5","10","N","C","85"
"","","approach-retreat","89","654738","0.0-89.0","","","3-4","4137","38","0","Training","Stims/Figures/102-C-20-4.bmp","None","Up","40","6","6","10","N","C","86"
"","","approach-retreat","90","660327","0.0-90.0","","","3-4","4079","39","1","Training","Stims/Figures/139-C-20-2.bmp","None","Left","39","6","7","10","N","C","87"
"","","approach-retreat","91","666119","0.0-91.0","","","3-4","4287","38","1","Training","Stims/Figures/44-C-30-3.bmp","None","Down","38","6","8","10","N","C","88"
"","","approach-retreat","92","671828","0.0-92.0","","","3-4","4198","37","1","Training","Stims/Figures/100-C-30-3.bmp","None","Right","37","6","9","10","N","C","89"
"","","approach-retreat","93","677410","0.0-93.0","","","3-4","4075","38","1","Training","Stims/Figures/139-J-0-2.bmp","None","Up","38","6","10","10","N","C","90"
"","","approach-retreat","94","683269","0.0-94.0","","","3-4","4352","40","1","Training","Stims/Figures/27-J-0-1.bmp","None","Down","40","6","11","10","N","C","91"
"","","approach-retreat","95","688914","0.0-95.0","","","3-4","4134","37","1","Training","Stims/Figures/84-J-0-2.bmp","None","Left","37","6","12","10","N","C","92"
"","","approach-retreat","96","695502","0.0-96.0","","","3-4","5079","39","1","Training","Stims/Figures/84-C-20-2.bmp","None","Left","39","6","13","10","N","C","93"
"","","approach-retreat","97","701192","0.0-97.0","","","3-4","4177","38","0","Training","Stims/Figures/102-J-10-4.bmp","None","Down","40","6","14","10","N","C","94"
"","","approach-retreat","98","707999","0.0-98.0","","","3-4","5299","39","1","Training","Stims/Figures/44-J-10-3.bmp","None","Right","39","6","15","10","N","C","95"
"","","approach-retreat","99","713741","0.0-99.0","","","3-4","4232","37","1","Training","Stims/Figures/87-J-10-4.bmp","None","Left","37","6","16","10","N","C","96"
"","","approach-retreat","100","719508","0.0-100.0","","","3-4","4259","40","1","Training","Stims/Figures/84-C-20-2.bmp","None","Up","40","7","1","10","N","C","97"
"","","approach-retreat","101","725617","0.0-101.0","","","3-4","4599","40","1","Training","Stims/Figures/102-J-10-4.bmp","None","Down","40","7","2","10","N","C","98"
"","","approach-retreat","102","731410","0.0-102.0","","","3-4","4283","37","1","Training","Stims/Figures/57-C-30-1.bmp","None","Right","37","7","3","10","N","C","99"
"","","approach-retreat","103","737100","0.0-103.0","","","3-4","4181","39","1","Training","Stims/Figures/87-C-20-4.bmp","None","Left","39","7","4","10","N","C","100"
"","","approach-retreat","104","742842","0.0-104.0","","","3-4","4235","39","1","Training","Stims/Figures/27-J-0-1.bmp","None","Right","39","7","5","10","N","C","101"
"","","approach-retreat","105","748473","0.0-105.0","","","3-4","4125","37","0","Training","Stims/Figures/44-J-10-3.bmp","None","Right","39","7","6","10","N","C","102"
"","","approach-retreat","106","754973","0.0-106.0","","","3-4","4992","38","1","Training","Stims/Figures/139-J-0-2.bmp","None","Up","38","7","7","10","N","C","103"
"","","approach-retreat","107","760836","0.0-107.0","","","3-4","4354","40","1","Training","Stims/Figures/57-J-0-1.bmp","None","Down","40","7","8","10","N","C","104"
"","","approach-retreat","108","766587","0.0-108.0","","","3-4","4241","40","1","Training","Stims/Figures/87-J-10-4.bmp","None","Down","40","7","9","10","N","C","105"
"","","approach-retreat","109","772369","0.0-109.0","","","3-4","4269","40","1","Training","Stims/Figures/102-C-20-4.bmp","None","Up","40","7","10","10","N","C","106"
"","","approach-retreat","110","778573","0.0-110.0","","","3-4","4699","38","1","Training","Stims/Figures/100-J-10-3.bmp","None","Up","38","7","11","10","N","C","107"
"","","approach-retreat","111","784363","0.0-111.0","","","3-4","4278","39","1","Training","Stims/Figures/139-C-20-2.bmp","None","Left","39","7","12","10","N","C","108"
"","","approach-retreat","112","790058","0.0-112.0","","","3-4","4191","38","1","Training","Stims/Figures/27-C-30-1.bmp","None","Down","38","7","13","10","N","C","109"
"","","approach-retreat","113","795781","0.0-113.0","","","3-4","4215","39","1","Training","Stims/Figures/100-C-30-3.bmp","None","Left","39","7","14","10","N","C","110"
"","","approach-retreat","114","801490","0.0-114.0","","","3-4","4203","37","1","Training","Stims/Figures/44-C-30-3.bmp","None","Right","37","7","15","10","N","C","111"
"","","approach-retreat","115","807557","0.0-115.0","","","3-4","4555","37","1","Training","Stims/Figures/84-J-0-2.bmp","None","Left","37","7","16","10","N","C","112"
"","","approach-retreat","116","813691","0.0-116.0","","","3-4","4624","38","1","Training","Stims/Figures/44-J-10-3.bmp","None","Up","38","8","1","10","N","C","113"
"","","approach-retreat","117","819407","0.0-117.0","","","3-4","4205","39","1","Training","Stims/Figures/57-C-30-1.bmp","None","Left","39","8","2","10","N","C","114"
"","","approach-retreat","118","825161","0.0-118.0","","","3-4","4247","38","1","Training","Stims/Figures/100-C-30-3.bmp","None","Down","38","8","3","10","N","C","115"
"","","approach-retreat","119","830883","0.0-119.0","","","3-4","4211","39","1","Training","Stims/Figures/87-C-20-4.bmp","None","Left","39","8","4","10","N","C","116"
"","","approach-retreat","120","836769","0.0-120.0","","","3-4","4375","37","1","Training","Stims/Figures/87-J-10-4.bmp","None","Left","37","8","5","10","N","C","117"
"","","approach-retreat","121","842825","0.0-121.0","","","3-4","4546","40","1","Training","Stims/Figures/139-J-0-2.bmp","None","Down","40","8","6","10","N","C","118"
"","","approach-retreat","122","849337","0.0-122.0","","","3-4","5002","40","1","Training","Stims/Figures/139-C-20-2.bmp","None","Up","40","8","7","10","N","C","119"
"","","approach-retreat","123","856572","0.0-123.0","","","3-4","5725","37","1","Training","Stims/Figures/44-C-30-3.bmp","None","Right","37","8","8","10","N","C","120"
"","","approach-retreat","124","862379","0.0-124.0","","","3-4","4297","39","1","Training","Stims/Figures/100-J-10-3.bmp","None","Right","39","8","9","10","N","C","121"
"","","approach-retreat","125","868698","0.0-125.0","","","3-4","4811","39","1","Training","Stims/Figures/57-J-0-1.bmp","None","Right","39","8","10","10","N","C","122"
"","","approach-retreat","126","876325","0.0-126.0","","","3-4","6116","38","1","Training","Stims/Figures/84-C-20-2.bmp","None","Down","38","8","11","10","N","C","123"
"","","approach-retreat","127","882599","0.0-127.0","","","3-4","4769","37","1","Training","Stims/Figures/27-C-30-1.bmp","None","Right","37","8","12","10","N","C","124"
"","","approach-retreat","128","888444","0.0-128.0","","","3-4","4338","38","1","Training","Stims/Figures/27-J-0-1.bmp","None","Up","38","8","13","10","N","C","125"
"","","approach-retreat","129","894502","0.0-129.0","","","3-4","4548","40","1","Training","Stims/Figures/102-J-10-4.bmp","None","Down","40","8","14","10","N","C","126"
"","","approach-retreat","130","900446","0.0-130.0","","","3-4","4437","39","1","Training","Stims/Figures/102-C-20-4.bmp","None","Left","39","8","15","10","N","C","127"
"","","approach-retreat","131","906272","0.0-131.0","","","3-4","4313","38","1","Training","Stims/Figures/84-J-0-2.bmp","None","Up","38","8","16","10","N","C","128"
"","","approach-retreat","132","912813","0.0-132.0","","","3-4","5031","37","1","Training","Stims/Figures/57-J-0-1.bmp","None","Left","37","9","1","10","N","C","129"
"","","approach-retreat","133","919218","0.0-133.0","","","3-4","4895","39","1","Training","Stims/Figures/84-J-0-2.bmp","None","Right","39","9","2","10","N","C","130"
"","","approach-retreat","134","925409","0.0-134.0","","","3-4","4685","38","1","Training","Stims/Figures/44-C-30-3.bmp","None","Down","38","9","3","10","N","C","131"
"","","approach-retreat","135","931710","0.0-135.0","","","3-4","4791","38","1","Training","Stims/Figures/44-J-10-3.bmp","None","Up","38","9","4","10","N","C","132"
"","","approach-retreat","136","937830","0.0-136.0","","","3-4","4609","38","1","Training","Stims/Figures/139-C-20-2.bmp","None","Down","38","9","5","10","N","C","133"
"","","approach-retreat","137","944576","0.0-137.0","","","3-4","5236","39","1","Training","Stims/Figures/87-C-20-4.bmp","None","Left","39","9","6","10","N","C","134"
"","","approach-retreat","138","954452","0.0-138.0","","","3-4","8370","38","1","Training","Stims/Figures/102-C-20-4.bmp","None","Down","38","9","7","10","N","C","135"
"","","approach-retreat","139","960250","0.0-139.0","","","3-4","4287","37","1","Training","Stims/Figures/87-J-10-4.bmp","None","Left","37","9","8","10","N","C","136"
"","","approach-retreat","140","966606","0.0-140.0","","","3-4","4846","40","1","Training","Stims/Figures/27-C-30-1.bmp","None","Up","40","9","9","10","N","C","137"
"","","approach-retreat","141","973288","0.0-141.0","","","3-4","5171","38","1","Training","Stims/Figures/27-J-0-1.bmp","None","Up","38","9","10","10","N","C","138"
"","","approach-retreat","142","979051","0.0-142.0","","","3-4","4252","40","1","Training","Stims/Figures/100-C-30-3.bmp","None","Up","40","9","11","10","N","C","139"
"","","approach-retreat","143","984745","0.0-143.0","","","3-4","4183","37","1","Training","Stims/Figures/57-C-30-1.bmp","None","Right","37","9","12","10","N","C","140"
"","","approach-retreat","144","990549","0.0-144.0","","","3-4","4294","37","1","Training","Stims/Figures/102-J-10-4.bmp","None","Left","37","9","13","10","N","C","141"
"","","approach-retreat","145","996581","0.0-145.0","","","3-4","4520","39","1","Training","Stims/Figures/100-J-10-3.bmp","None","Right","39","9","14","10","N","C","142"
"","","approach-retreat","146","1002636","0.0-146.0","","","3-4","4545","40","1","Training","Stims/Figures/139-J-0-2.bmp","None","Down","40","9","15","10","N","C","143"
"","","approach-retreat","147","1008328","0.0-147.0","","","3-4","4181","37","1","Training","Stims/Figures/84-C-20-2.bmp","None","Right","37","9","16","10","N","C","144"
"106690","","instructions","148","1115018","0.0-148.0","[{""page_index"":0,""viewing_time"":106690}]","","","","","","","","","","","","","","","",""
"","","approach-retreat","149","1120931","0.0-149.0","","","3-4","4408","38","1","Testing","Stims/Figures/100-J-10-3.bmp","None","Up","38","1","1","10","N","C","1"
"","","approach-retreat","150","1127457","0.0-150.0","","","3-4","5018","39","0","Testing","Stims/Figures/118-C-20-2.bmp","None","Right","37","1","2","10","N","C","2"
"","","approach-retreat","151","1133206","0.0-151.0","","","3-4","4242","37","0","Testing","Stims/Figures/7-J-10-4.bmp","None","Right","39","1","3","10","N","C","3"
"","","approach-retreat","152","1138994","0.0-152.0","","","3-4","4282","40","1","Testing","Stims/Figures/118-J-0-2.bmp","None","Down","40","1","4","10","N","C","4"
"","","approach-retreat","153","1144799","0.0-153.0","","","3-4","4297","39","1","Testing","Stims/Figures/102-J-10-4.bmp","None","Right","39","1","5","10","N","C","5"
"","","approach-retreat","154","1150660","0.0-154.0","","","3-4","4353","39","1","Testing","Stims/Figures/102-C-20-4.bmp","None","Left","39","1","6","10","N","C","6"
"","","approach-retreat","155","1156358","0.0-155.0","","","3-4","4191","37","1","Testing","Stims/Figures/44-J-10-3.bmp","None","Left","37","1","7","10","N","C","7"
"","","approach-retreat","156","1163030","0.0-156.0","","","3-4","5165","39","1","Testing","Stims/Figures/128-C-30-3.bmp","None","Left","39","1","8","10","N","C","8"
"","","approach-retreat","157","1168891","0.0-157.0","","","3-4","4354","38","1","Testing","Stims/Figures/93-C-30-1.bmp","None","Down","38","1","9","10","N","C","9"
"","","approach-retreat","158","1175027","0.0-158.0","","","3-4","4629","39","1","Testing","Stims/Figures/139-J-0-2.bmp","None","Right","39","1","10","10","N","C","10"
"","","approach-retreat","159","1181051","0.0-159.0","","","3-4","4518","38","1","Testing","Stims/Figures/57-C-30-1.bmp","None","Down","38","1","11","10","N","C","11"
"","","approach-retreat","160","1187053","0.0-160.0","","","3-4","4495","40","1","Testing","Stims/Figures/7-C-20-4.bmp","None","Up","40","1","12","10","N","C","12"
"","","approach-retreat","161","1192944","0.0-161.0","","","3-4","4382","37","1","Testing","Stims/Figures/87-J-10-4.bmp","None","Left","37","1","13","10","N","C","13"
"","","approach-retreat","162","1198685","0.0-162.0","","","3-4","4233","37","1","Testing","Stims/Figures/27-C-30-1.bmp","None","Right","37","1","14","10","N","C","14"
"","","approach-retreat","163","1204537","0.0-163.0","","","3-4","4345","40","1","Testing","Stims/Figures/84-J-0-2.bmp","None","Down","40","1","15","10","N","C","15"
"","","approach-retreat","164","1210732","0.0-164.0","","","3-4","4688","38","1","Testing","Stims/Figures/84-C-20-2.bmp","None","Down","38","1","16","10","N","C","16"
"","","approach-retreat","165","1216892","0.0-165.0","","","3-4","4653","38","1","Testing","Stims/Figures/93-J-0-1.bmp","None","Up","38","1","17","10","N","C","17"
"","","approach-retreat","166","1222553","0.0-166.0","","","3-4","4153","37","1","Testing","Stims/Figures/87-C-20-4.bmp","None","Right","37","1","18","10","N","C","18"
"","","approach-retreat","167","1228345","0.0-167.0","","","3-4","4286","38","1","Testing","Stims/Figures/27-J-0-1.bmp","None","Up","38","1","19","10","N","C","19"
"","","approach-retreat","168","1234224","0.0-168.0","","","3-4","4372","38","1","Testing","Stims/Figures/128-J-10-3.bmp","None","Up","38","1","20","10","N","C","20"
"","","approach-retreat","169","1240246","0.0-169.0","","","3-4","4515","38","1","Testing","Stims/Figures/139-C-20-2.bmp","None","Down","38","1","21","10","N","C","21"
"","","approach-retreat","170","1245942","0.0-170.0","","","3-4","4189","37","1","Testing","Stims/Figures/57-J-0-1.bmp","None","Left","37","1","22","10","N","C","22"
"","","approach-retreat","171","1251824","0.0-171.0","","","3-4","4375","40","1","Testing","Stims/Figures/100-C-30-3.bmp","None","Up","40","1","23","10","N","C","23"
"","","approach-retreat","172","1257709","0.0-172.0","","","3-4","4377","39","1","Testing","Stims/Figures/44-C-30-3.bmp","None","Left","39","1","24","10","N","C","24"
"","","approach-retreat","173","1263674","0.0-173.0","","","3-4","4458","37","1","Testing","Stims/Figures/57-J-0-1.bmp","None","Left","37","2","1","10","N","C","25"
"","","approach-retreat","174","1269676","0.0-174.0","","","3-4","4496","37","0","Testing","Stims/Figures/102-C-20-4.bmp","None","Left","39","2","2","10","N","C","26"
"","","approach-retreat","175","1275736","0.0-175.0","","","3-4","4553","39","1","Testing","Stims/Figures/7-C-20-4.bmp","None","Left","39","2","3","10","N","C","27"
"","","approach-retreat","176","1281359","0.0-176.0","","","3-4","4115","40","1","Testing","Stims/Figures/118-J-0-2.bmp","None","Down","40","2","4","10","N","C","28"
"","","approach-retreat","177","1287784","0.0-177.0","","","3-4","4918","39","1","Testing","Stims/Figures/87-C-20-4.bmp","None","Left","39","2","5","10","N","C","29"
"","","approach-retreat","178","1294038","0.0-178.0","","","3-4","4747","39","1","Testing","Stims/Figures/128-J-10-3.bmp","None","Right","39","2","6","10","N","C","30"
"","","approach-retreat","179","1300247","0.0-179.0","","","3-4","4702","38","1","Testing","Stims/Figures/84-J-0-2.bmp","None","Up","38","2","7","10","N","C","31"
"","","approach-retreat","180","1306393","0.0-180.0","","","3-4","4639","38","1","Testing","Stims/Figures/139-C-20-2.bmp","None","Down","38","2","8","10","N","C","32"
"","","approach-retreat","181","1312371","0.0-181.0","","","3-4","4471","37","1","Testing","Stims/Figures/93-J-0-1.bmp","None","Left","37","2","9","10","N","C","33"
"","","approach-retreat","182","1318068","0.0-182.0","","","3-4","4188","38","1","Testing","Stims/Figures/100-J-10-3.bmp","None","Up","38","2","10","10","N","C","34"
"","","approach-retreat","183","1323727","0.0-183.0","","","3-4","4153","37","1","Testing","Stims/Figures/57-C-30-1.bmp","None","Right","37","2","11","10","N","C","35"
"","","approach-retreat","184","1330082","0.0-184.0","","","3-4","4848","39","1","Testing","Stims/Figures/87-J-10-4.bmp","None","Right","39","2","12","10","N","C","36"
"","","approach-retreat","185","1335737","0.0-185.0","","","3-4","4148","38","1","Testing","Stims/Figures/93-C-30-1.bmp","None","Down","38","2","13","10","N","C","37"
"","","approach-retreat","186","1341788","0.0-186.0","","","3-4","4541","38","1","Testing","Stims/Figures/44-J-10-3.bmp","None","Up","38","2","14","10","N","C","38"
"","","approach-retreat","187","1347492","0.0-187.0","","","3-4","4196","38","1","Testing","Stims/Figures/27-J-0-1.bmp","None","Up","38","2","15","10","N","C","39"
"","","approach-retreat","188","1353220","0.0-188.0","","","3-4","4219","39","0","Testing","Stims/Figures/118-C-20-2.bmp","None","Right","37","2","16","10","N","C","40"
"","","approach-retreat","189","1358750","0.0-189.0","","","3-4","4023","38","1","Testing","Stims/Figures/102-J-10-4.bmp","None","Up","38","2","17","10","N","C","41"
"","","approach-retreat","190","1364605","0.0-190.0","","","3-4","4349","37","1","Testing","Stims/Figures/44-C-30-3.bmp","None","Right","37","2","18","10","N","C","42"
"","","approach-retreat","191","1370398","0.0-191.0","","","3-4","4287","40","1","Testing","Stims/Figures/7-J-10-4.bmp","None","Down","40","2","19","10","N","C","43"
"","","approach-retreat","192","1376393","0.0-192.0","","","3-4","4487","38","1","Testing","Stims/Figures/84-C-20-2.bmp","None","Down","38","2","20","10","N","C","44"
"","","approach-retreat","193","1383932","0.0-193.0","","","3-4","6033","40","1","Testing","Stims/Figures/100-C-30-3.bmp","None","Up","40","2","21","10","N","C","45"
"","","approach-retreat","194","1389501","0.0-194.0","","","3-4","4061","38","1","Testing","Stims/Figures/128-C-30-3.bmp","None","Down","38","2","22","10","N","C","46"
"","","approach-retreat","195","1395467","0.0-195.0","","","3-4","4460","37","1","Testing","Stims/Figures/139-J-0-2.bmp","None","Left","37","2","23","10","N","C","47"
"","","approach-retreat","196","1401745","0.0-196.0","","","3-4","4771","37","1","Testing","Stims/Figures/27-C-30-1.bmp","None","Right","37","2","24","10","N","C","48"
"","","approach-retreat","197","1407939","0.0-197.0","","","3-4","4687","40","0","Testing","Stims/Figures/118-C-20-2.bmp","None","Down","38","3","1","10","N","C","49"
"","","approach-retreat","198","1413873","0.0-198.0","","","3-4","4427","37","1","Testing","Stims/Figures/87-J-10-4.bmp","None","Left","37","3","2","10","N","C","50"
"","","approach-retreat","199","1419710","0.0-199.0","","","3-4","4331","39","1","Testing","Stims/Figures/139-C-20-2.bmp","None","Left","39","3","3","10","N","C","51"
"","","approach-retreat","200","1426335","0.0-200.0","","","3-4","5119","40","0","Testing","Stims/Figures/102-C-20-4.bmp","None","Down","38","3","4","10","N","C","52"
"","","approach-retreat","201","1431915","0.0-201.0","","","3-4","4073","37","1","Testing","Stims/Figures/128-C-30-3.bmp","None","Right","37","3","5","10","N","C","53"
"","","approach-retreat","202","1437423","0.0-202.0","","","3-4","4002","37","1","Testing","Stims/Figures/93-J-0-1.bmp","None","Left","37","3","6","10","N","C","54"
"","","approach-retreat","203","1443335","0.0-203.0","","","3-4","4404","39","1","Testing","Stims/Figures/27-J-0-1.bmp","None","Right","39","3","7","10","N","C","55"
"","","approach-retreat","204","1449424","0.0-204.0","","","3-4","4583","40","1","Testing","Stims/Figures/102-J-10-4.bmp","None","Down","40","3","8","10","N","C","56"
"","","approach-retreat","205","1455119","0.0-205.0","","","3-4","4187","39","1","Testing","Stims/Figures/7-J-10-4.bmp","None","Right","39","3","9","10","N","C","57"
"","","approach-retreat","206","1460851","0.0-206.0","","","3-4","4225","37","1","Testing","Stims/Figures/118-J-0-2.bmp","None","Left","37","3","10","10","N","C","58"
"","","approach-retreat","207","1466685","0.0-207.0","","","3-4","4327","37","1","Testing","Stims/Figures/84-C-20-2.bmp","None","Right","37","3","11","10","N","C","59"
"","","approach-retreat","208","1472298","0.0-208.0","","","3-4","4107","38","1","Testing","Stims/Figures/57-J-0-1.bmp","None","Up","38","3","12","10","N","C","60"
"","","approach-retreat","209","1478093","0.0-209.0","","","3-4","4286","38","1","Testing","Stims/Figures/100-J-10-3.bmp","None","Up","38","3","13","10","N","C","61"
"","","approach-retreat","210","1483716","0.0-210.0","","","3-4","4117","37","1","Testing","Stims/Figures/100-C-30-3.bmp","None","Right","37","3","14","10","N","C","62"
"","","approach-retreat","211","1489895","0.0-211.0","","","3-4","4671","40","1","Testing","Stims/Figures/84-J-0-2.bmp","None","Down","40","3","15","10","N","C","63"
"","","approach-retreat","212","1495542","0.0-212.0","","","3-4","4140","37","1","Testing","Stims/Figures/7-C-20-4.bmp","None","Right","37","3","16","10","N","C","64"
"","","approach-retreat","213","1501293","0.0-213.0","","","3-4","4245","40","1","Testing","Stims/Figures/93-C-30-1.bmp","None","Up","40","3","17","10","N","C","65"
"","","approach-retreat","214","1507290","0.0-214.0","","","3-4","4489","40","1","Testing","Stims/Figures/139-J-0-2.bmp","None","Down","40","3","18","10","N","C","66"
"","","approach-retreat","215","1513127","0.0-215.0","","","3-4","4330","38","1","Testing","Stims/Figures/44-J-10-3.bmp","None","Up","38","3","19","10","N","C","67"
"","","approach-retreat","216","1518925","0.0-216.0","","","3-4","4291","40","1","Testing","Stims/Figures/44-C-30-3.bmp","None","Up","40","3","20","10","N","C","68"
"","","approach-retreat","217","1525516","0.0-217.0","","","3-4","5085","38","1","Testing","Stims/Figures/128-J-10-3.bmp","None","Up","38","3","21","10","N","C","69"
"","","approach-retreat","218","1531216","0.0-218.0","","","3-4","4193","38","1","Testing","Stims/Figures/57-C-30-1.bmp","None","Down","38","3","22","10","N","C","70"
"","","approach-retreat","219","1536826","0.0-219.0","","","3-4","4102","39","1","Testing","Stims/Figures/87-C-20-4.bmp","None","Left","39","3","23","10","N","C","71"
"","","approach-retreat","220","1542511","0.0-220.0","","","3-4","4178","39","1","Testing","Stims/Figures/27-C-30-1.bmp","None","Left","39","3","24","10","N","C","72"
"","","approach-retreat","221","1548148","0.0-221.0","","","3-4","4129","39","1","Testing","Stims/Figures/128-C-30-3.bmp","None","Left","39","4","1","10","N","C","73"
"","","approach-retreat","222","1553827","0.0-222.0","","","3-4","4171","37","1","Testing","Stims/Figures/7-J-10-4.bmp","None","Left","37","4","2","10","N","C","74"
"","","approach-retreat","223","1559505","0.0-223.0","","","3-4","4172","40","1","Testing","Stims/Figures/118-J-0-2.bmp","None","Down","40","4","3","10","N","C","75"
"","","approach-retreat","224","1565063","0.0-224.0","","","3-4","4051","38","1","Testing","Stims/Figures/57-C-30-1.bmp","None","Down","38","4","4","10","N","C","76"
"","","approach-retreat","225","1570676","0.0-225.0","","","3-4","4107","37","1","Testing","Stims/Figures/57-J-0-1.bmp","None","Left","37","4","5","10","N","C","77"
"","","approach-retreat","226","1576251","0.0-226.0","","","3-4","4069","39","1","Testing","Stims/Figures/139-C-20-2.bmp","None","Left","39","4","6","10","N","C","78"
"","","approach-retreat","227","1582871","0.0-227.0","","","3-4","5113","37","1","Testing","Stims/Figures/87-C-20-4.bmp","None","Right","37","4","7","10","N","C","79"
"","","approach-retreat","228","1588670","0.0-228.0","","","3-4","4292","40","1","Testing","Stims/Figures/27-J-0-1.bmp","None","Down","40","4","8","10","N","C","80"
"","","approach-retreat","229","1594597","0.0-229.0","","","3-4","4420","39","1","Testing","Stims/Figures/27-C-30-1.bmp","None","Left","39","4","9","10","N","C","81"
"","","approach-retreat","230","1600233","0.0-230.0","","","3-4","4129","38","1","Testing","Stims/Figures/100-C-30-3.bmp","None","Down","38","4","10","10","N","C","82"
"","","approach-retreat","231","1605995","0.0-231.0","","","3-4","4254","38","1","Testing","Stims/Figures/93-J-0-1.bmp","None","Up","38","4","11","10","N","C","83"
"","","approach-retreat","232","1612748","0.0-232.0","","","3-4","5247","38","0","Testing","Stims/Figures/102-C-20-4.bmp","None","Up","40","4","12","10","N","C","84"
"","","approach-retreat","233","1618624","0.0-233.0","","","3-4","4370","39","1","Testing","Stims/Figures/84-C-20-2.bmp","None","Left","39","4","13","10","N","C","85"
"","","approach-retreat","234","1627596","0.0-234.0","","","3-4","7464","37","1","Testing","Stims/Figures/118-C-20-2.bmp","None","Right","37","4","14","10","N","C","86"
"","","approach-retreat","235","1633226","0.0-235.0","","","3-4","4123","37","1","Testing","Stims/Figures/7-C-20-4.bmp","None","Right","37","4","15","10","N","C","87"
"","","approach-retreat","236","1638966","0.0-236.0","","","3-4","4233","39","1","Testing","Stims/Figures/139-J-0-2.bmp","None","Right","39","4","16","10","N","C","88"
"","","approach-retreat","237","1644670","0.0-237.0","","","3-4","4197","38","1","Testing","Stims/Figures/44-J-10-3.bmp","None","Up","38","4","17","10","N","C","89"
"","","approach-retreat","238","1650372","0.0-238.0","","","3-4","4195","38","1","Testing","Stims/Figures/84-J-0-2.bmp","None","Up","38","4","18","10","N","C","90"
"","","approach-retreat","239","1656222","0.0-239.0","","","3-4","4342","39","1","Testing","Stims/Figures/87-J-10-4.bmp","None","Right","39","4","19","10","N","C","91"
"","","approach-retreat","240","1661967","0.0-240.0","","","3-4","4237","40","1","Testing","Stims/Figures/100-J-10-3.bmp","None","Down","40","4","20","10","N","C","92"
"","","approach-retreat","241","1667506","0.0-241.0","","","3-4","4032","38","1","Testing","Stims/Figures/93-C-30-1.bmp","None","Down","38","4","21","10","N","C","93"
"","","approach-retreat","242","1673151","0.0-242.0","","","3-4","4137","39","1","Testing","Stims/Figures/102-J-10-4.bmp","None","Right","39","4","22","10","N","C","94"
"","","approach-retreat","243","1678892","0.0-243.0","","","3-4","4233","38","1","Testing","Stims/Figures/128-J-10-3.bmp","None","Up","38","4","23","10","N","C","95"
"","","approach-retreat","244","1684589","0.0-244.0","","","3-4","4191","40","1","Testing","Stims/Figures/44-C-30-3.bmp","None","Up","40","4","24","10","N","C","96"
"39696","","survey-text","245","1724296","0.0-245.0","","{""Q0"":""PS180012""}","","","","","","","","","","","","","","",""
