\"rt\",\"key_press\",\"trial_type\",\"trial_index\",\"time_elapsed\",\"internal_node_id\",\"view_history\",\"responses\",\"Id\",\"Rt\",\"ResKeyCode\",\"ResCorr\",\"TrialType2\",\"Image\",\"Label\",\"Location\",\"CorrectResponse\",\"Block\",\"BlockTrial\",\"Condition\",\"LabelType\",\"Subcondition\",\"trialNum\"
\"42258\",\"32\",\"text\",\"0\",\"42260\",\"0.0-0.0-0.0\",\"\",\"\",\"\",\"\",\"\",\"\",\"\",\"\",\"\",\"\",\"\",\"\",\"\",\"\",\"\",\"\",\"\"
\"89252\",\"\",\"instructions\",\"1\",\"131514\",\"0.0-1.0\",\"[{\"\"page_index\"\":0,\"\"viewing_time\"\":89251}]\",\"\",\"\",\"\",\"\",\"\",\"\",\"\",\"\",\"\",\"\",\"\",\"\",\"\",\"\",\"\",\"\"
\"35813\",\"\",\"survey-multi-choice\",\"2\",\"167345\",\"0.0-2.0\",\"\",\"{\"\"Q0\"\":\"\"Da\"\",\"\"Q1\"\":\"\"Da\"\",\"\"Q2\"\":\"\"Da\"\",\"\"Q3\"\":\"\"Da\"\",\"\"Q4\"\":\"\"Da\"\",\"\"Q5\"\":\"\"Da\"\"}\",\"\",\"\",\"\",\"\",\"\",\"\",\"\",\"\",\"\",\"\",\"\",\"\",\"\",\"\",\"\"
\"\",\"\",\"bio\",\"3\",\"183799\",\"0.0-3.0\",\"\",\"{\"\"age\"\":\"\"28\"\",\"\"gender\"\":\"\"m\"\",\"\"specify\"\":\"\"\"\"}\",\"\",\"\",\"\",\"\",\"\",\"\",\"\",\"\",\"\",\"\",\"\",\"\",\"\",\"\",\"\"
\"\",\"\",\"approach-retreat\",\"4\",\"190103\",\"0.0-4.0\",\"\",\"\",\"2-5\",\"4793\",\"39\",\"1\",\"Training\",\"Stims/Figures/118-C-20-2.bmp\",\"fa:shava\",\"Left\",\"39\",\"1\",\"1\",\"6B\",\"C1\",\"C\",\"1\"
\"\",\"\",\"approach-retreat\",\"5\",\"196010\",\"0.0-5.0\",\"\",\"\",\"2-5\",\"4399\",\"37\",\"0\",\"Training\",\"Stims/Figures/118-J-0-2.bmp\",\"za:haha\",\"Right\",\"39\",\"1\",\"2\",\"6B\",\"C2\",\"C\",\"2\"
\"\",\"\",\"approach-retreat\",\"6\",\"201958\",\"0.0-6.0\",\"\",\"\",\"2-5\",\"4444\",\"37\",\"0\",\"Training\",\"Stims/Figures/44-J-10-3.bmp\",\"zasaha\",\"Right\",\"39\",\"1\",\"3\",\"6B\",\"C2\",\"C\",\"3\"
\"\",\"\",\"approach-retreat\",\"7\",\"207948\",\"0.0-7.0\",\"\",\"\",\"2-5\",\"4484\",\"39\",\"1\",\"Training\",\"Stims/Figures/84-J-0-2.bmp\",\"zasa:za\",\"Right\",\"39\",\"1\",\"4\",\"6B\",\"C2\",\"C\",\"4\"
\"\",\"\",\"approach-retreat\",\"8\",\"213783\",\"0.0-8.0\",\"\",\"\",\"2-5\",\"4326\",\"38\",\"1\",\"Training\",\"Stims/Figures/144-C-30-3.bmp\",\"va:sha:sha\",\"Down\",\"38\",\"1\",\"5\",\"6B\",\"C1\",\"C\",\"5\"
\"\",\"\",\"approach-retreat\",\"9\",\"219534\",\"0.0-9.0\",\"\",\"\",\"2-5\",\"4244\",\"39\",\"0\",\"Training\",\"Stims/Figures/19-J-10-4.bmp\",\"zahaza\",\"Left\",\"37\",\"1\",\"6\",\"6B\",\"C2\",\"C\",\"6\"
\"\",\"\",\"approach-retreat\",\"10\",\"225229\",\"0.0-10.0\",\"\",\"\",\"2-5\",\"4188\",\"40\",\"1\",\"Training\",\"Stims/Figures/84-C-20-2.bmp\",\"vafava\",\"Up\",\"40\",\"1\",\"7\",\"6B\",\"C1\",\"C\",\"7\"
\"\",\"\",\"approach-retreat\",\"11\",\"230972\",\"0.0-11.0\",\"\",\"\",\"2-5\",\"4234\",\"39\",\"0\",\"Training\",\"Stims/Figures/44-C-30-3.bmp\",\"va:fava\",\"Right\",\"37\",\"1\",\"8\",\"6B\",\"C1\",\"C\",\"8\"
\"\",\"\",\"approach-retreat\",\"12\",\"237061\",\"0.0-12.0\",\"\",\"\",\"2-5\",\"4581\",\"37\",\"1\",\"Training\",\"Stims/Figures/93-J-0-1.bmp\",\"za:haza\",\"Left\",\"37\",\"1\",\"9\",\"6B\",\"C2\",\"C\",\"9\"
\"\",\"\",\"approach-retreat\",\"13\",\"243409\",\"0.0-13.0\",\"\",\"\",\"2-5\",\"4842\",\"38\",\"0\",\"Training\",\"Stims/Figures/19-C-20-4.bmp\",\"fafasha\",\"Up\",\"40\",\"1\",\"10\",\"6B\",\"C1\",\"C\",\"10\"
\"\",\"\",\"approach-retreat\",\"14\",\"249957\",\"0.0-14.0\",\"\",\"\",\"2-5\",\"5042\",\"37\",\"1\",\"Training\",\"Stims/Figures/7-J-10-4.bmp\",\"za:saha\",\"Left\",\"37\",\"1\",\"11\",\"6B\",\"C2\",\"C\",\"11\"
\"\",\"\",\"approach-retreat\",\"15\",\"255981\",\"0.0-15.0\",\"\",\"\",\"2-5\",\"4516\",\"38\",\"1\",\"Training\",\"Stims/Figures/93-C-30-1.bmp\",\"vafa:va\",\"Down\",\"38\",\"1\",\"12\",\"6B\",\"C1\",\"C\",\"12\"
\"\",\"\",\"approach-retreat\",\"16\",\"261579\",\"0.0-16.0\",\"\",\"\",\"2-5\",\"4088\",\"38\",\"0\",\"Training\",\"Stims/Figures/144-J-10-3.bmp\",\"zasaza\",\"Down\",\"40\",\"1\",\"13\",\"6B\",\"C2\",\"C\",\"13\"
\"\",\"\",\"approach-retreat\",\"17\",\"267265\",\"0.0-17.0\",\"\",\"\",\"2-5\",\"4178\",\"38\",\"1\",\"Training\",\"Stims/Figures/27-J-0-1.bmp\",\"za:ha:ha\",\"Up\",\"38\",\"1\",\"14\",\"6B\",\"C2\",\"C\",\"14\"
\"\",\"\",\"approach-retreat\",\"18\",\"273354\",\"0.0-18.0\",\"\",\"\",\"2-5\",\"4582\",\"40\",\"1\",\"Training\",\"Stims/Figures/7-C-20-4.bmp\",\"vafa:sha\",\"Up\",\"40\",\"1\",\"15\",\"6B\",\"C1\",\"C\",\"15\"
\"\",\"\",\"approach-retreat\",\"19\",\"279173\",\"0.0-19.0\",\"\",\"\",\"2-5\",\"4310\",\"40\",\"0\",\"Training\",\"Stims/Figures/27-C-30-1.bmp\",\"vasha:sha\",\"Down\",\"38\",\"1\",\"16\",\"6B\",\"C1\",\"C\",\"16\"
\"\",\"\",\"approach-retreat\",\"20\",\"285068\",\"0.0-20.0\",\"\",\"\",\"2-5\",\"4387\",\"38\",\"1\",\"Training\",\"Stims/Figures/144-C-30-3.bmp\",\"va:sha:sha\",\"Down\",\"38\",\"2\",\"1\",\"6B\",\"C1\",\"C\",\"17\"
\"\",\"\",\"approach-retreat\",\"21\",\"290994\",\"0.0-21.0\",\"\",\"\",\"2-5\",\"4419\",\"40\",\"1\",\"Training\",\"Stims/Figures/7-J-10-4.bmp\",\"za:saha\",\"Down\",\"40\",\"2\",\"2\",\"6B\",\"C2\",\"C\",\"18\"
\"\",\"\",\"approach-retreat\",\"22\",\"296666\",\"0.0-22.0\",\"\",\"\",\"2-5\",\"4165\",\"40\",\"1\",\"Training\",\"Stims/Figures/27-C-30-1.bmp\",\"vasha:sha\",\"Up\",\"40\",\"2\",\"3\",\"6B\",\"C1\",\"C\",\"19\"
\"\",\"\",\"approach-retreat\",\"23\",\"302192\",\"0.0-23.0\",\"\",\"\",\"2-5\",\"4019\",\"40\",\"0\",\"Training\",\"Stims/Figures/44-J-10-3.bmp\",\"zasaha\",\"Up\",\"38\",\"2\",\"4\",\"6B\",\"C2\",\"C\",\"20\"
\"\",\"\",\"approach-retreat\",\"24\",\"308226\",\"0.0-24.0\",\"\",\"\",\"2-5\",\"4527\",\"39\",\"0\",\"Training\",\"Stims/Figures/93-J-0-1.bmp\",\"za:haza\",\"Left\",\"37\",\"2\",\"5\",\"6B\",\"C2\",\"C\",\"21\"
\"\",\"\",\"approach-retreat\",\"25\",\"314032\",\"0.0-25.0\",\"\",\"\",\"2-5\",\"4299\",\"38\",\"1\",\"Training\",\"Stims/Figures/84-J-0-2.bmp\",\"zasa:za\",\"Up\",\"38\",\"2\",\"6\",\"6B\",\"C2\",\"C\",\"22\"
\"\",\"\",\"approach-retreat\",\"26\",\"320146\",\"0.0-26.0\",\"\",\"\",\"2-5\",\"4608\",\"37\",\"1\",\"Training\",\"Stims/Figures/19-J-10-4.bmp\",\"zahaza\",\"Left\",\"37\",\"2\",\"7\",\"6B\",\"C2\",\"C\",\"23\"
\"\",\"\",\"approach-retreat\",\"27\",\"325942\",\"0.0-27.0\",\"\",\"\",\"2-5\",\"4289\",\"39\",\"1\",\"Training\",\"Stims/Figures/93-C-30-1.bmp\",\"vafa:va\",\"Left\",\"39\",\"2\",\"8\",\"6B\",\"C1\",\"C\",\"24\"
\"\",\"\",\"approach-retreat\",\"28\",\"331761\",\"0.0-28.0\",\"\",\"\",\"2-5\",\"4312\",\"39\",\"1\",\"Training\",\"Stims/Figures/118-C-20-2.bmp\",\"fa:shava\",\"Left\",\"39\",\"2\",\"9\",\"6B\",\"C1\",\"C\",\"25\"
\"\",\"\",\"approach-retreat\",\"29\",\"337676\",\"0.0-29.0\",\"\",\"\",\"2-5\",\"4407\",\"40\",\"0\",\"Training\",\"Stims/Figures/44-C-30-3.bmp\",\"va:fava\",\"Down\",\"38\",\"2\",\"10\",\"6B\",\"C1\",\"C\",\"26\"
\"\",\"\",\"approach-retreat\",\"30\",\"343241\",\"0.0-30.0\",\"\",\"\",\"2-5\",\"4058\",\"37\",\"1\",\"Training\",\"Stims/Figures/7-C-20-4.bmp\",\"vafa:sha\",\"Right\",\"37\",\"2\",\"11\",\"6B\",\"C1\",\"C\",\"27\"
\"\",\"\",\"approach-retreat\",\"31\",\"349340\",\"0.0-31.0\",\"\",\"\",\"2-5\",\"4592\",\"39\",\"1\",\"Training\",\"Stims/Figures/144-J-10-3.bmp\",\"zasaza\",\"Right\",\"39\",\"2\",\"12\",\"6B\",\"C2\",\"C\",\"28\"
\"\",\"\",\"approach-retreat\",\"32\",\"355065\",\"0.0-32.0\",\"\",\"\",\"2-5\",\"4219\",\"38\",\"1\",\"Training\",\"Stims/Figures/118-J-0-2.bmp\",\"za:haha\",\"Up\",\"38\",\"2\",\"13\",\"6B\",\"C2\",\"C\",\"29\"
\"\",\"\",\"approach-retreat\",\"33\",\"360890\",\"0.0-33.0\",\"\",\"\",\"2-5\",\"4318\",\"40\",\"1\",\"Training\",\"Stims/Figures/27-J-0-1.bmp\",\"za:ha:ha\",\"Down\",\"40\",\"2\",\"14\",\"6B\",\"C2\",\"C\",\"30\"
\"\",\"\",\"approach-retreat\",\"34\",\"366416\",\"0.0-34.0\",\"\",\"\",\"2-5\",\"4020\",\"37\",\"1\",\"Training\",\"Stims/Figures/19-C-20-4.bmp\",\"fafasha\",\"Right\",\"37\",\"2\",\"15\",\"6B\",\"C1\",\"C\",\"31\"
\"\",\"\",\"approach-retreat\",\"35\",\"372445\",\"0.0-35.0\",\"\",\"\",\"2-5\",\"4522\",\"39\",\"0\",\"Training\",\"Stims/Figures/84-C-20-2.bmp\",\"vafava\",\"Right\",\"37\",\"2\",\"16\",\"6B\",\"C1\",\"C\",\"32\"
\"\",\"\",\"approach-retreat\",\"36\",\"377944\",\"0.0-36.0\",\"\",\"\",\"2-5\",\"3992\",\"40\",\"1\",\"Training\",\"Stims/Figures/7-C-20-4.bmp\",\"vafa:sha\",\"Up\",\"40\",\"3\",\"1\",\"6B\",\"C1\",\"C\",\"33\"
\"\",\"\",\"approach-retreat\",\"37\",\"383783\",\"0.0-37.0\",\"\",\"\",\"2-5\",\"4332\",\"37\",\"1\",\"Training\",\"Stims/Figures/118-C-20-2.bmp\",\"fa:shava\",\"Right\",\"37\",\"3\",\"2\",\"6B\",\"C1\",\"C\",\"34\"
\"\",\"\",\"approach-retreat\",\"38\",\"389473\",\"0.0-38.0\",\"\",\"\",\"2-5\",\"4181\",\"37\",\"0\",\"Training\",\"Stims/Figures/93-J-0-1.bmp\",\"za:haza\",\"Right\",\"39\",\"3\",\"3\",\"6B\",\"C2\",\"C\",\"35\"
\"\",\"\",\"approach-retreat\",\"39\",\"396443\",\"0.0-39.0\",\"\",\"\",\"2-5\",\"5465\",\"38\",\"1\",\"Training\",\"Stims/Figures/44-C-30-3.bmp\",\"va:fava\",\"Down\",\"38\",\"3\",\"4\",\"6B\",\"C1\",\"C\",\"36\"
\"\",\"\",\"approach-retreat\",\"40\",\"402519\",\"0.0-40.0\",\"\",\"\",\"2-5\",\"4572\",\"37\",\"1\",\"Training\",\"Stims/Figures/27-J-0-1.bmp\",\"za:ha:ha\",\"Left\",\"37\",\"3\",\"5\",\"6B\",\"C2\",\"C\",\"37\"
\"\",\"\",\"approach-retreat\",\"41\",\"408624\",\"0.0-41.0\",\"\",\"\",\"2-5\",\"4599\",\"38\",\"1\",\"Training\",\"Stims/Figures/144-C-30-3.bmp\",\"va:sha:sha\",\"Down\",\"38\",\"3\",\"6\",\"6B\",\"C1\",\"C\",\"38\"
\"\",\"\",\"approach-retreat\",\"42\",\"414457\",\"0.0-42.0\",\"\",\"\",\"2-5\",\"4325\",\"38\",\"1\",\"Training\",\"Stims/Figures/7-J-10-4.bmp\",\"za:saha\",\"Up\",\"38\",\"3\",\"7\",\"6B\",\"C2\",\"C\",\"39\"
\"\",\"\",\"approach-retreat\",\"43\",\"420168\",\"0.0-43.0\",\"\",\"\",\"2-5\",\"4205\",\"38\",\"1\",\"Training\",\"Stims/Figures/84-C-20-2.bmp\",\"vafava\",\"Down\",\"38\",\"3\",\"8\",\"6B\",\"C1\",\"C\",\"40\"
\"\",\"\",\"approach-retreat\",\"44\",\"425759\",\"0.0-44.0\",\"\",\"\",\"2-5\",\"4082\",\"40\",\"1\",\"Training\",\"Stims/Figures/27-C-30-1.bmp\",\"vasha:sha\",\"Up\",\"40\",\"3\",\"9\",\"6B\",\"C1\",\"C\",\"41\"
\"\",\"\",\"approach-retreat\",\"45\",\"431658\",\"0.0-45.0\",\"\",\"\",\"2-5\",\"4391\",\"40\",\"1\",\"Training\",\"Stims/Figures/93-C-30-1.bmp\",\"vafa:va\",\"Up\",\"40\",\"3\",\"10\",\"6B\",\"C1\",\"C\",\"42\"
\"\",\"\",\"approach-retreat\",\"46\",\"437525\",\"0.0-46.0\",\"\",\"\",\"2-5\",\"4361\",\"39\",\"0\",\"Training\",\"Stims/Figures/19-J-10-4.bmp\",\"zahaza\",\"Left\",\"37\",\"3\",\"11\",\"6B\",\"C2\",\"C\",\"43\"
\"\",\"\",\"approach-retreat\",\"47\",\"443330\",\"0.0-47.0\",\"\",\"\",\"2-5\",\"4298\",\"40\",\"1\",\"Training\",\"Stims/Figures/118-J-0-2.bmp\",\"za:haha\",\"Down\",\"40\",\"3\",\"12\",\"6B\",\"C2\",\"C\",\"44\"
\"\",\"\",\"approach-retreat\",\"48\",\"449685\",\"0.0-48.0\",\"\",\"\",\"2-5\",\"4848\",\"37\",\"1\",\"Training\",\"Stims/Figures/144-J-10-3.bmp\",\"zasaza\",\"Left\",\"37\",\"3\",\"13\",\"6B\",\"C2\",\"C\",\"45\"
\"\",\"\",\"approach-retreat\",\"49\",\"455057\",\"0.0-49.0\",\"\",\"\",\"2-5\",\"3865\",\"37\",\"1\",\"Training\",\"Stims/Figures/44-J-10-3.bmp\",\"zasaha\",\"Left\",\"37\",\"3\",\"14\",\"6B\",\"C2\",\"C\",\"46\"
\"\",\"\",\"approach-retreat\",\"50\",\"460998\",\"0.0-50.0\",\"\",\"\",\"2-5\",\"4433\",\"39\",\"1\",\"Training\",\"Stims/Figures/84-J-0-2.bmp\",\"zasa:za\",\"Right\",\"39\",\"3\",\"15\",\"6B\",\"C2\",\"C\",\"47\"
\"\",\"\",\"approach-retreat\",\"51\",\"466530\",\"0.0-51.0\",\"\",\"\",\"2-5\",\"4026\",\"37\",\"1\",\"Training\",\"Stims/Figures/19-C-20-4.bmp\",\"fafasha\",\"Right\",\"37\",\"3\",\"16\",\"6B\",\"C1\",\"C\",\"48\"
\"\",\"\",\"approach-retreat\",\"52\",\"472420\",\"0.0-52.0\",\"\",\"\",\"2-5\",\"4383\",\"40\",\"1\",\"Training\",\"Stims/Figures/27-C-30-1.bmp\",\"vasha:sha\",\"Up\",\"40\",\"4\",\"1\",\"6B\",\"C1\",\"C\",\"49\"
\"\",\"\",\"approach-retreat\",\"53\",\"478252\",\"0.0-53.0\",\"\",\"\",\"2-5\",\"4325\",\"37\",\"1\",\"Training\",\"Stims/Figures/93-C-30-1.bmp\",\"vafa:va\",\"Right\",\"37\",\"4\",\"2\",\"6B\",\"C1\",\"C\",\"50\"
\"\",\"\",\"approach-retreat\",\"54\",\"484061\",\"0.0-54.0\",\"\",\"\",\"2-5\",\"4301\",\"40\",\"1\",\"Training\",\"Stims/Figures/27-J-0-1.bmp\",\"za:ha:ha\",\"Down\",\"40\",\"4\",\"3\",\"6B\",\"C2\",\"C\",\"51\"
\"\",\"\",\"approach-retreat\",\"55\",\"490824\",\"0.0-55.0\",\"\",\"\",\"2-5\",\"5256\",\"38\",\"0\",\"Training\",\"Stims/Figures/19-J-10-4.bmp\",\"zahaza\",\"Down\",\"40\",\"4\",\"4\",\"6B\",\"C2\",\"C\",\"52\"
\"\",\"\",\"approach-retreat\",\"56\",\"497179\",\"0.0-56.0\",\"\",\"\",\"2-5\",\"4849\",\"38\",\"1\",\"Training\",\"Stims/Figures/44-J-10-3.bmp\",\"zasaha\",\"Up\",\"38\",\"4\",\"5\",\"6B\",\"C2\",\"C\",\"53\"
\"\",\"\",\"approach-retreat\",\"57\",\"503537\",\"0.0-57.0\",\"\",\"\",\"2-5\",\"4850\",\"37\",\"1\",\"Training\",\"Stims/Figures/7-J-10-4.bmp\",\"za:saha\",\"Left\",\"37\",\"4\",\"6\",\"6B\",\"C2\",\"C\",\"54\"
\"\",\"\",\"approach-retreat\",\"58\",\"509267\",\"0.0-58.0\",\"\",\"\",\"2-5\",\"4222\",\"39\",\"1\",\"Training\",\"Stims/Figures/84-J-0-2.bmp\",\"zasa:za\",\"Right\",\"39\",\"4\",\"7\",\"6B\",\"C2\",\"C\",\"55\"
\"\",\"\",\"approach-retreat\",\"59\",\"514937\",\"0.0-59.0\",\"\",\"\",\"2-5\",\"4163\",\"38\",\"1\",\"Training\",\"Stims/Figures/144-J-10-3.bmp\",\"zasaza\",\"Up\",\"38\",\"4\",\"8\",\"6B\",\"C2\",\"C\",\"56\"
\"\",\"\",\"approach-retreat\",\"60\",\"520491\",\"0.0-60.0\",\"\",\"\",\"2-5\",\"4047\",\"37\",\"0\",\"Training\",\"Stims/Figures/84-C-20-2.bmp\",\"vafava\",\"Left\",\"39\",\"4\",\"9\",\"6B\",\"C1\",\"C\",\"57\"
\"\",\"\",\"approach-retreat\",\"61\",\"526367\",\"0.0-61.0\",\"\",\"\",\"2-5\",\"4369\",\"38\",\"1\",\"Training\",\"Stims/Figures/44-C-30-3.bmp\",\"va:fava\",\"Down\",\"38\",\"4\",\"10\",\"6B\",\"C1\",\"C\",\"58\"
\"\",\"\",\"approach-retreat\",\"62\",\"532058\",\"0.0-62.0\",\"\",\"\",\"2-5\",\"4184\",\"39\",\"1\",\"Training\",\"Stims/Figures/7-C-20-4.bmp\",\"vafa:sha\",\"Left\",\"39\",\"4\",\"11\",\"6B\",\"C1\",\"C\",\"59\"
\"\",\"\",\"approach-retreat\",\"63\",\"537557\",\"0.0-63.0\",\"\",\"\",\"2-5\",\"3993\",\"39\",\"1\",\"Training\",\"Stims/Figures/144-C-30-3.bmp\",\"va:sha:sha\",\"Left\",\"39\",\"4\",\"12\",\"6B\",\"C1\",\"C\",\"60\"
\"\",\"\",\"approach-retreat\",\"64\",\"543105\",\"0.0-64.0\",\"\",\"\",\"2-5\",\"4040\",\"37\",\"1\",\"Training\",\"Stims/Figures/118-C-20-2.bmp\",\"fa:shava\",\"Right\",\"37\",\"4\",\"13\",\"6B\",\"C1\",\"C\",\"61\"
\"\",\"\",\"approach-retreat\",\"65\",\"549228\",\"0.0-65.0\",\"\",\"\",\"2-5\",\"4616\",\"37\",\"0\",\"Training\",\"Stims/Figures/93-J-0-1.bmp\",\"za:haza\",\"Right\",\"39\",\"4\",\"14\",\"6B\",\"C2\",\"C\",\"62\"
\"\",\"\",\"approach-retreat\",\"66\",\"554706\",\"0.0-66.0\",\"\",\"\",\"2-5\",\"3969\",\"40\",\"1\",\"Training\",\"Stims/Figures/19-C-20-4.bmp\",\"fafasha\",\"Up\",\"40\",\"4\",\"15\",\"6B\",\"C1\",\"C\",\"63\"
\"\",\"\",\"approach-retreat\",\"67\",\"560302\",\"0.0-67.0\",\"\",\"\",\"2-5\",\"4089\",\"40\",\"1\",\"Training\",\"Stims/Figures/118-J-0-2.bmp\",\"za:haha\",\"Down\",\"40\",\"4\",\"16\",\"6B\",\"C2\",\"C\",\"64\"
\"\",\"\",\"approach-retreat\",\"68\",\"565633\",\"0.0-68.0\",\"\",\"\",\"2-5\",\"3824\",\"40\",\"0\",\"Training\",\"Stims/Figures/44-J-10-3.bmp\",\"zasaha\",\"Up\",\"38\",\"5\",\"1\",\"6B\",\"C2\",\"C\",\"65\"
\"\",\"\",\"approach-retreat\",\"69\",\"571312\",\"0.0-69.0\",\"\",\"\",\"2-5\",\"4172\",\"39\",\"1\",\"Training\",\"Stims/Figures/7-C-20-4.bmp\",\"vafa:sha\",\"Left\",\"39\",\"5\",\"2\",\"6B\",\"C1\",\"C\",\"66\"
\"\",\"\",\"approach-retreat\",\"70\",\"576817\",\"0.0-70.0\",\"\",\"\",\"2-5\",\"3998\",\"37\",\"1\",\"Training\",\"Stims/Figures/144-C-30-3.bmp\",\"va:sha:sha\",\"Right\",\"37\",\"5\",\"3\",\"6B\",\"C1\",\"C\",\"67\"
\"\",\"\",\"approach-retreat\",\"71\",\"582453\",\"0.0-71.0\",\"\",\"\",\"2-5\",\"4128\",\"39\",\"1\",\"Training\",\"Stims/Figures/19-J-10-4.bmp\",\"zahaza\",\"Right\",\"39\",\"5\",\"4\",\"6B\",\"C2\",\"C\",\"68\"
\"\",\"\",\"approach-retreat\",\"72\",\"588064\",\"0.0-72.0\",\"\",\"\",\"2-5\",\"4104\",\"37\",\"1\",\"Training\",\"Stims/Figures/93-C-30-1.bmp\",\"vafa:va\",\"Right\",\"37\",\"5\",\"5\",\"6B\",\"C1\",\"C\",\"69\"
\"\",\"\",\"approach-retreat\",\"73\",\"593869\",\"0.0-73.0\",\"\",\"\",\"2-5\",\"4298\",\"39\",\"0\",\"Training\",\"Stims/Figures/93-J-0-1.bmp\",\"za:haza\",\"Left\",\"37\",\"5\",\"6\",\"6B\",\"C2\",\"C\",\"70\"
\"\",\"\",\"approach-retreat\",\"74\",\"599696\",\"0.0-74.0\",\"\",\"\",\"2-5\",\"4320\",\"38\",\"1\",\"Training\",\"Stims/Figures/44-C-30-3.bmp\",\"va:fava\",\"Down\",\"38\",\"5\",\"7\",\"6B\",\"C1\",\"C\",\"71\"
\"\",\"\",\"approach-retreat\",\"75\",\"605391\",\"0.0-75.0\",\"\",\"\",\"2-5\",\"4188\",\"38\",\"1\",\"Training\",\"Stims/Figures/27-C-30-1.bmp\",\"vasha:sha\",\"Down\",\"38\",\"5\",\"8\",\"6B\",\"C1\",\"C\",\"72\"
\"\",\"\",\"approach-retreat\",\"76\",\"611287\",\"0.0-76.0\",\"\",\"\",\"2-5\",\"4389\",\"39\",\"1\",\"Training\",\"Stims/Figures/118-C-20-2.bmp\",\"fa:shava\",\"Left\",\"39\",\"5\",\"9\",\"6B\",\"C1\",\"C\",\"73\"
\"\",\"\",\"approach-retreat\",\"77\",\"617213\",\"0.0-77.0\",\"\",\"\",\"2-5\",\"4419\",\"40\",\"1\",\"Training\",\"Stims/Figures/118-J-0-2.bmp\",\"za:haha\",\"Down\",\"40\",\"5\",\"10\",\"6B\",\"C2\",\"C\",\"74\"
\"\",\"\",\"approach-retreat\",\"78\",\"622935\",\"0.0-78.0\",\"\",\"\",\"2-5\",\"4214\",\"38\",\"1\",\"Training\",\"Stims/Figures/7-J-10-4.bmp\",\"za:saha\",\"Up\",\"38\",\"5\",\"11\",\"6B\",\"C2\",\"C\",\"75\"
\"\",\"\",\"approach-retreat\",\"79\",\"629179\",\"0.0-79.0\",\"\",\"\",\"2-5\",\"4738\",\"40\",\"1\",\"Training\",\"Stims/Figures/19-C-20-4.bmp\",\"fafasha\",\"Up\",\"40\",\"5\",\"12\",\"6B\",\"C1\",\"C\",\"76\"
\"\",\"\",\"approach-retreat\",\"80\",\"635486\",\"0.0-80.0\",\"\",\"\",\"2-5\",\"4801\",\"37\",\"1\",\"Training\",\"Stims/Figures/144-J-10-3.bmp\",\"zasaza\",\"Left\",\"37\",\"5\",\"13\",\"6B\",\"C2\",\"C\",\"77\"
\"\",\"\",\"approach-retreat\",\"81\",\"641077\",\"0.0-81.0\",\"\",\"\",\"2-5\",\"4084\",\"40\",\"1\",\"Training\",\"Stims/Figures/27-J-0-1.bmp\",\"za:ha:ha\",\"Down\",\"40\",\"5\",\"14\",\"6B\",\"C2\",\"C\",\"78\"
\"\",\"\",\"approach-retreat\",\"82\",\"646621\",\"0.0-82.0\",\"\",\"\",\"2-5\",\"4037\",\"40\",\"1\",\"Training\",\"Stims/Figures/84-C-20-2.bmp\",\"vafava\",\"Up\",\"40\",\"5\",\"15\",\"6B\",\"C1\",\"C\",\"79\"
\"\",\"\",\"approach-retreat\",\"83\",\"652786\",\"0.0-83.0\",\"\",\"\",\"2-5\",\"4658\",\"39\",\"1\",\"Training\",\"Stims/Figures/84-J-0-2.bmp\",\"zasa:za\",\"Right\",\"39\",\"5\",\"16\",\"6B\",\"C2\",\"C\",\"80\"
\"\",\"\",\"approach-retreat\",\"84\",\"658223\",\"0.0-84.0\",\"\",\"\",\"2-5\",\"3931\",\"40\",\"1\",\"Training\",\"Stims/Figures/7-C-20-4.bmp\",\"vafa:sha\",\"Up\",\"40\",\"6\",\"1\",\"6B\",\"C1\",\"C\",\"81\"
\"\",\"\",\"approach-retreat\",\"85\",\"663800\",\"0.0-85.0\",\"\",\"\",\"2-5\",\"4069\",\"40\",\"1\",\"Training\",\"Stims/Figures/84-C-20-2.bmp\",\"vafava\",\"Up\",\"40\",\"6\",\"2\",\"6B\",\"C1\",\"C\",\"82\"
\"\",\"\",\"approach-retreat\",\"86\",\"669782\",\"0.0-86.0\",\"\",\"\",\"2-5\",\"4475\",\"37\",\"1\",\"Training\",\"Stims/Figures/144-J-10-3.bmp\",\"zasaza\",\"Left\",\"37\",\"6\",\"3\",\"6B\",\"C2\",\"C\",\"83\"
\"\",\"\",\"approach-retreat\",\"87\",\"675467\",\"0.0-87.0\",\"\",\"\",\"2-5\",\"4178\",\"37\",\"1\",\"Training\",\"Stims/Figures/44-J-10-3.bmp\",\"zasaha\",\"Left\",\"37\",\"6\",\"4\",\"6B\",\"C2\",\"C\",\"84\"
\"\",\"\",\"approach-retreat\",\"88\",\"681093\",\"0.0-88.0\",\"\",\"\",\"2-5\",\"4119\",\"39\",\"1\",\"Training\",\"Stims/Figures/144-C-30-3.bmp\",\"va:sha:sha\",\"Left\",\"39\",\"6\",\"5\",\"6B\",\"C1\",\"C\",\"85\"
\"\",\"\",\"approach-retreat\",\"89\",\"687652\",\"0.0-89.0\",\"\",\"\",\"2-5\",\"5052\",\"37\",\"1\",\"Training\",\"Stims/Figures/84-J-0-2.bmp\",\"zasa:za\",\"Left\",\"37\",\"6\",\"6\",\"6B\",\"C2\",\"C\",\"86\"
\"\",\"\",\"approach-retreat\",\"90\",\"693445\",\"0.0-90.0\",\"\",\"\",\"2-5\",\"4286\",\"38\",\"1\",\"Training\",\"Stims/Figures/19-C-20-4.bmp\",\"fafasha\",\"Down\",\"38\",\"6\",\"7\",\"6B\",\"C1\",\"C\",\"87\"
\"\",\"\",\"approach-retreat\",\"91\",\"699412\",\"0.0-91.0\",\"\",\"\",\"2-5\",\"4460\",\"38\",\"1\",\"Training\",\"Stims/Figures/7-J-10-4.bmp\",\"za:saha\",\"Up\",\"38\",\"6\",\"8\",\"6B\",\"C2\",\"C\",\"88\"
\"\",\"\",\"approach-retreat\",\"92\",\"705148\",\"0.0-92.0\",\"\",\"\",\"2-5\",\"4228\",\"40\",\"1\",\"Training\",\"Stims/Figures/19-J-10-4.bmp\",\"zahaza\",\"Down\",\"40\",\"6\",\"9\",\"6B\",\"C2\",\"C\",\"89\"
\"\",\"\",\"approach-retreat\",\"93\",\"710958\",\"0.0-93.0\",\"\",\"\",\"2-5\",\"4302\",\"39\",\"1\",\"Training\",\"Stims/Figures/118-J-0-2.bmp\",\"za:haha\",\"Right\",\"39\",\"6\",\"10\",\"6B\",\"C2\",\"C\",\"90\"
\"\",\"\",\"approach-retreat\",\"94\",\"716547\",\"0.0-94.0\",\"\",\"\",\"2-5\",\"4082\",\"39\",\"1\",\"Training\",\"Stims/Figures/27-J-0-1.bmp\",\"za:ha:ha\",\"Right\",\"39\",\"6\",\"11\",\"6B\",\"C2\",\"C\",\"91\"
\"\",\"\",\"approach-retreat\",\"95\",\"722393\",\"0.0-95.0\",\"\",\"\",\"2-5\",\"4340\",\"38\",\"1\",\"Training\",\"Stims/Figures/44-C-30-3.bmp\",\"va:fava\",\"Down\",\"38\",\"6\",\"12\",\"6B\",\"C1\",\"C\",\"92\"
\"\",\"\",\"approach-retreat\",\"96\",\"728011\",\"0.0-96.0\",\"\",\"\",\"2-5\",\"4111\",\"37\",\"1\",\"Training\",\"Stims/Figures/93-C-30-1.bmp\",\"vafa:va\",\"Right\",\"37\",\"6\",\"13\",\"6B\",\"C1\",\"C\",\"93\"
\"\",\"\",\"approach-retreat\",\"97\",\"734511\",\"0.0-97.0\",\"\",\"\",\"2-5\",\"4992\",\"37\",\"0\",\"Training\",\"Stims/Figures/93-J-0-1.bmp\",\"za:haza\",\"Right\",\"39\",\"6\",\"14\",\"6B\",\"C2\",\"C\",\"94\"
\"\",\"\",\"approach-retreat\",\"98\",\"740259\",\"0.0-98.0\",\"\",\"\",\"2-5\",\"4243\",\"38\",\"1\",\"Training\",\"Stims/Figures/118-C-20-2.bmp\",\"fa:shava\",\"Down\",\"38\",\"6\",\"15\",\"6B\",\"C1\",\"C\",\"95\"
\"\",\"\",\"approach-retreat\",\"99\",\"746030\",\"0.0-99.0\",\"\",\"\",\"2-5\",\"4264\",\"40\",\"1\",\"Training\",\"Stims/Figures/27-C-30-1.bmp\",\"vasha:sha\",\"Up\",\"40\",\"6\",\"16\",\"6B\",\"C1\",\"C\",\"96\"
\"\",\"\",\"approach-retreat\",\"100\",\"752106\",\"0.0-100.0\",\"\",\"\",\"2-5\",\"4569\",\"38\",\"0\",\"Training\",\"Stims/Figures/144-J-10-3.bmp\",\"zasaza\",\"Down\",\"40\",\"7\",\"1\",\"6B\",\"C2\",\"C\",\"97\"
\"\",\"\",\"approach-retreat\",\"101\",\"757879\",\"0.0-101.0\",\"\",\"\",\"2-5\",\"4267\",\"37\",\"1\",\"Training\",\"Stims/Figures/7-C-20-4.bmp\",\"vafa:sha\",\"Right\",\"37\",\"7\",\"2\",\"6B\",\"C1\",\"C\",\"98\"
\"\",\"\",\"approach-retreat\",\"102\",\"763475\",\"0.0-102.0\",\"\",\"\",\"2-5\",\"4088\",\"39\",\"1\",\"Training\",\"Stims/Figures/19-J-10-4.bmp\",\"zahaza\",\"Right\",\"39\",\"7\",\"3\",\"6B\",\"C2\",\"C\",\"99\"
\"\",\"\",\"approach-retreat\",\"103\",\"769037\",\"0.0-103.0\",\"\",\"\",\"2-5\",\"4057\",\"39\",\"1\",\"Training\",\"Stims/Figures/144-C-30-3.bmp\",\"va:sha:sha\",\"Left\",\"39\",\"7\",\"4\",\"6B\",\"C1\",\"C\",\"100\"
\"\",\"\",\"approach-retreat\",\"104\",\"775330\",\"0.0-104.0\",\"\",\"\",\"2-5\",\"4785\",\"39\",\"1\",\"Training\",\"Stims/Figures/7-J-10-4.bmp\",\"za:saha\",\"Right\",\"39\",\"7\",\"5\",\"6B\",\"C2\",\"C\",\"101\"
\"\",\"\",\"approach-retreat\",\"105\",\"781675\",\"0.0-105.0\",\"\",\"\",\"2-5\",\"4838\",\"38\",\"1\",\"Training\",\"Stims/Figures/84-J-0-2.bmp\",\"zasa:za\",\"Up\",\"38\",\"7\",\"6\",\"6B\",\"C2\",\"C\",\"102\"
\"\",\"\",\"approach-retreat\",\"106\",\"787450\",\"0.0-106.0\",\"\",\"\",\"2-5\",\"4267\",\"37\",\"1\",\"Training\",\"Stims/Figures/84-C-20-2.bmp\",\"vafava\",\"Right\",\"37\",\"7\",\"7\",\"6B\",\"C1\",\"C\",\"103\"
\"\",\"\",\"approach-retreat\",\"107\",\"793374\",\"0.0-107.0\",\"\",\"\",\"2-5\",\"4417\",\"37\",\"1\",\"Training\",\"Stims/Figures/118-J-0-2.bmp\",\"za:haha\",\"Left\",\"37\",\"7\",\"8\",\"6B\",\"C2\",\"C\",\"104\"
\"\",\"\",\"approach-retreat\",\"108\",\"799217\",\"0.0-108.0\",\"\",\"\",\"2-5\",\"4336\",\"39\",\"1\",\"Training\",\"Stims/Figures/27-C-30-1.bmp\",\"vasha:sha\",\"Left\",\"39\",\"7\",\"9\",\"6B\",\"C1\",\"C\",\"105\"
\"\",\"\",\"approach-retreat\",\"109\",\"805044\",\"0.0-109.0\",\"\",\"\",\"2-5\",\"4320\",\"38\",\"1\",\"Training\",\"Stims/Figures/118-C-20-2.bmp\",\"fa:shava\",\"Down\",\"38\",\"7\",\"10\",\"6B\",\"C1\",\"C\",\"106\"
\"\",\"\",\"approach-retreat\",\"110\",\"811416\",\"0.0-110.0\",\"\",\"\",\"2-5\",\"4866\",\"38\",\"0\",\"Training\",\"Stims/Figures/44-J-10-3.bmp\",\"zasaha\",\"Down\",\"40\",\"7\",\"11\",\"6B\",\"C2\",\"C\",\"107\"
\"\",\"\",\"approach-retreat\",\"111\",\"817102\",\"0.0-111.0\",\"\",\"\",\"2-5\",\"4177\",\"39\",\"1\",\"Training\",\"Stims/Figures/44-C-30-3.bmp\",\"va:fava\",\"Left\",\"39\",\"7\",\"12\",\"6B\",\"C1\",\"C\",\"108\"
\"\",\"\",\"approach-retreat\",\"112\",\"822808\",\"0.0-112.0\",\"\",\"\",\"2-5\",\"4199\",\"38\",\"1\",\"Training\",\"Stims/Figures/93-J-0-1.bmp\",\"za:haza\",\"Up\",\"38\",\"7\",\"13\",\"6B\",\"C2\",\"C\",\"109\"
\"\",\"\",\"approach-retreat\",\"113\",\"828620\",\"0.0-113.0\",\"\",\"\",\"2-5\",\"4305\",\"40\",\"1\",\"Training\",\"Stims/Figures/93-C-30-1.bmp\",\"vafa:va\",\"Up\",\"40\",\"7\",\"14\",\"6B\",\"C1\",\"C\",\"110\"
\"\",\"\",\"approach-retreat\",\"114\",\"835016\",\"0.0-114.0\",\"\",\"\",\"2-5\",\"4889\",\"40\",\"1\",\"Training\",\"Stims/Figures/27-J-0-1.bmp\",\"za:ha:ha\",\"Down\",\"40\",\"7\",\"15\",\"6B\",\"C2\",\"C\",\"111\"
\"\",\"\",\"approach-retreat\",\"115\",\"840557\",\"0.0-115.0\",\"\",\"\",\"2-5\",\"4034\",\"40\",\"1\",\"Training\",\"Stims/Figures/19-C-20-4.bmp\",\"fafasha\",\"Up\",\"40\",\"7\",\"16\",\"6B\",\"C1\",\"C\",\"112\"
\"\",\"\",\"approach-retreat\",\"116\",\"846207\",\"0.0-116.0\",\"\",\"\",\"2-5\",\"4144\",\"37\",\"1\",\"Training\",\"Stims/Figures/118-J-0-2.bmp\",\"za:haha\",\"Left\",\"37\",\"8\",\"1\",\"6B\",\"C2\",\"C\",\"113\"
\"\",\"\",\"approach-retreat\",\"117\",\"852385\",\"0.0-117.0\",\"\",\"\",\"2-5\",\"4670\",\"39\",\"1\",\"Training\",\"Stims/Figures/7-J-10-4.bmp\",\"za:saha\",\"Right\",\"39\",\"8\",\"2\",\"6B\",\"C2\",\"C\",\"114\"
\"\",\"\",\"approach-retreat\",\"118\",\"857847\",\"0.0-118.0\",\"\",\"\",\"2-5\",\"3955\",\"39\",\"1\",\"Training\",\"Stims/Figures/44-J-10-3.bmp\",\"zasaha\",\"Right\",\"39\",\"8\",\"3\",\"6B\",\"C2\",\"C\",\"115\"
\"\",\"\",\"approach-retreat\",\"119\",\"863869\",\"0.0-119.0\",\"\",\"\",\"2-5\",\"4515\",\"38\",\"1\",\"Training\",\"Stims/Figures/44-C-30-3.bmp\",\"va:fava\",\"Down\",\"38\",\"8\",\"4\",\"6B\",\"C1\",\"C\",\"116\"
\"\",\"\",\"approach-retreat\",\"120\",\"869535\",\"0.0-120.0\",\"\",\"\",\"2-5\",\"4158\",\"40\",\"1\",\"Training\",\"Stims/Figures/93-C-30-1.bmp\",\"vafa:va\",\"Up\",\"40\",\"8\",\"5\",\"6B\",\"C1\",\"C\",\"117\"
\"\",\"\",\"approach-retreat\",\"121\",\"874953\",\"0.0-121.0\",\"\",\"\",\"2-5\",\"3912\",\"40\",\"1\",\"Training\",\"Stims/Figures/7-C-20-4.bmp\",\"vafa:sha\",\"Up\",\"40\",\"8\",\"6\",\"6B\",\"C1\",\"C\",\"118\"
\"\",\"\",\"approach-retreat\",\"122\",\"880391\",\"0.0-122.0\",\"\",\"\",\"2-5\",\"3931\",\"38\",\"1\",\"Training\",\"Stims/Figures/27-C-30-1.bmp\",\"vasha:sha\",\"Down\",\"38\",\"8\",\"7\",\"6B\",\"C1\",\"C\",\"119\"
\"\",\"\",\"approach-retreat\",\"123\",\"886072\",\"0.0-123.0\",\"\",\"\",\"2-5\",\"4175\",\"40\",\"1\",\"Training\",\"Stims/Figures/144-J-10-3.bmp\",\"zasaza\",\"Down\",\"40\",\"8\",\"8\",\"6B\",\"C2\",\"C\",\"120\"
\"\",\"\",\"approach-retreat\",\"124\",\"892341\",\"0.0-124.0\",\"\",\"\",\"2-5\",\"4762\",\"39\",\"1\",\"Training\",\"Stims/Figures/93-J-0-1.bmp\",\"za:haza\",\"Right\",\"39\",\"8\",\"9\",\"6B\",\"C2\",\"C\",\"121\"
\"\",\"\",\"approach-retreat\",\"125\",\"898013\",\"0.0-125.0\",\"\",\"\",\"2-5\",\"4165\",\"40\",\"1\",\"Training\",\"Stims/Figures/118-C-20-2.bmp\",\"fa:shava\",\"Up\",\"40\",\"8\",\"10\",\"6B\",\"C1\",\"C\",\"122\"
\"\",\"\",\"approach-retreat\",\"126\",\"904645\",\"0.0-126.0\",\"\",\"\",\"2-5\",\"5125\",\"37\",\"1\",\"Training\",\"Stims/Figures/19-J-10-4.bmp\",\"zahaza\",\"Left\",\"37\",\"8\",\"11\",\"6B\",\"C2\",\"C\",\"123\"
\"\",\"\",\"approach-retreat\",\"127\",\"910199\",\"0.0-127.0\",\"\",\"\",\"2-5\",\"4046\",\"38\",\"1\",\"Training\",\"Stims/Figures/144-C-30-3.bmp\",\"va:sha:sha\",\"Down\",\"38\",\"8\",\"12\",\"6B\",\"C1\",\"C\",\"124\"
\"\",\"\",\"approach-retreat\",\"128\",\"916156\",\"0.0-128.0\",\"\",\"\",\"2-5\",\"4451\",\"37\",\"1\",\"Training\",\"Stims/Figures/84-C-20-2.bmp\",\"vafava\",\"Right\",\"37\",\"8\",\"13\",\"6B\",\"C1\",\"C\",\"125\"
\"\",\"\",\"approach-retreat\",\"129\",\"922185\",\"0.0-129.0\",\"\",\"\",\"2-5\",\"4522\",\"38\",\"1\",\"Training\",\"Stims/Figures/27-J-0-1.bmp\",\"za:ha:ha\",\"Up\",\"38\",\"8\",\"14\",\"6B\",\"C2\",\"C\",\"126\"
\"\",\"\",\"approach-retreat\",\"130\",\"927749\",\"0.0-130.0\",\"\",\"\",\"2-5\",\"4056\",\"39\",\"1\",\"Training\",\"Stims/Figures/19-C-20-4.bmp\",\"fafasha\",\"Left\",\"39\",\"8\",\"15\",\"6B\",\"C1\",\"C\",\"127\"
\"\",\"\",\"approach-retreat\",\"131\",\"933850\",\"0.0-131.0\",\"\",\"\",\"2-5\",\"4594\",\"37\",\"1\",\"Training\",\"Stims/Figures/84-J-0-2.bmp\",\"zasa:za\",\"Left\",\"37\",\"8\",\"16\",\"6B\",\"C2\",\"C\",\"128\"
\"\",\"\",\"approach-retreat\",\"132\",\"939428\",\"0.0-132.0\",\"\",\"\",\"2-5\",\"4071\",\"40\",\"1\",\"Training\",\"Stims/Figures/19-C-20-4.bmp\",\"fafasha\",\"Up\",\"40\",\"9\",\"1\",\"6B\",\"C1\",\"C\",\"129\"
\"\",\"\",\"approach-retreat\",\"133\",\"946351\",\"0.0-133.0\",\"\",\"\",\"2-5\",\"5415\",\"37\",\"1\",\"Training\",\"Stims/Figures/93-J-0-1.bmp\",\"za:haza\",\"Left\",\"37\",\"9\",\"2\",\"6B\",\"C2\",\"C\",\"130\"
\"\",\"\",\"approach-retreat\",\"134\",\"952564\",\"0.0-134.0\",\"\",\"\",\"2-5\",\"4706\",\"39\",\"1\",\"Training\",\"Stims/Figures/7-J-10-4.bmp\",\"za:saha\",\"Right\",\"39\",\"9\",\"3\",\"6B\",\"C2\",\"C\",\"131\"
\"\",\"\",\"approach-retreat\",\"135\",\"959040\",\"0.0-135.0\",\"\",\"\",\"2-5\",\"4970\",\"38\",\"1\",\"Training\",\"Stims/Figures/93-C-30-1.bmp\",\"vafa:va\",\"Down\",\"38\",\"9\",\"4\",\"6B\",\"C1\",\"C\",\"132\"
\"\",\"\",\"approach-retreat\",\"136\",\"965531\",\"0.0-136.0\",\"\",\"\",\"2-5\",\"4984\",\"38\",\"1\",\"Training\",\"Stims/Figures/84-J-0-2.bmp\",\"zasa:za\",\"Up\",\"38\",\"9\",\"5\",\"6B\",\"C2\",\"C\",\"133\"
\"\",\"\",\"approach-retreat\",\"137\",\"971091\",\"0.0-137.0\",\"\",\"\",\"2-5\",\"4053\",\"37\",\"1\",\"Training\",\"Stims/Figures/144-J-10-3.bmp\",\"zasaza\",\"Left\",\"37\",\"9\",\"6\",\"6B\",\"C2\",\"C\",\"134\"
\"\",\"\",\"approach-retreat\",\"138\",\"976578\",\"0.0-138.0\",\"\",\"\",\"2-5\",\"3978\",\"39\",\"1\",\"Training\",\"Stims/Figures/144-C-30-3.bmp\",\"va:sha:sha\",\"Left\",\"39\",\"9\",\"7\",\"6B\",\"C1\",\"C\",\"135\"
\"\",\"\",\"approach-retreat\",\"139\",\"982045\",\"0.0-139.0\",\"\",\"\",\"2-5\",\"3960\",\"39\",\"1\",\"Training\",\"Stims/Figures/84-C-20-2.bmp\",\"vafava\",\"Left\",\"39\",\"9\",\"8\",\"6B\",\"C1\",\"C\",\"136\"
\"\",\"\",\"approach-retreat\",\"140\",\"987555\",\"0.0-140.0\",\"\",\"\",\"2-5\",\"4001\",\"37\",\"1\",\"Training\",\"Stims/Figures/44-C-30-3.bmp\",\"va:fava\",\"Right\",\"37\",\"9\",\"9\",\"6B\",\"C1\",\"C\",\"137\"
\"\",\"\",\"approach-retreat\",\"141\",\"993170\",\"0.0-141.0\",\"\",\"\",\"2-5\",\"4109\",\"40\",\"1\",\"Training\",\"Stims/Figures/118-J-0-2.bmp\",\"za:haha\",\"Down\",\"40\",\"9\",\"10\",\"6B\",\"C2\",\"C\",\"138\"
\"\",\"\",\"approach-retreat\",\"142\",\"998682\",\"0.0-142.0\",\"\",\"\",\"2-5\",\"4003\",\"39\",\"1\",\"Training\",\"Stims/Figures/44-J-10-3.bmp\",\"zasaha\",\"Right\",\"39\",\"9\",\"11\",\"6B\",\"C2\",\"C\",\"139\"
\"\",\"\",\"approach-retreat\",\"143\",\"1004270\",\"0.0-143.0\",\"\",\"\",\"2-5\",\"4082\",\"38\",\"1\",\"Training\",\"Stims/Figures/7-C-20-4.bmp\",\"vafa:sha\",\"Down\",\"38\",\"9\",\"12\",\"6B\",\"C1\",\"C\",\"140\"
\"\",\"\",\"approach-retreat\",\"144\",\"1009953\",\"0.0-144.0\",\"\",\"\",\"2-5\",\"4178\",\"40\",\"1\",\"Training\",\"Stims/Figures/118-C-20-2.bmp\",\"fa:shava\",\"Up\",\"40\",\"9\",\"13\",\"6B\",\"C1\",\"C\",\"141\"
\"\",\"\",\"approach-retreat\",\"145\",\"1015700\",\"0.0-145.0\",\"\",\"\",\"2-5\",\"4239\",\"40\",\"1\",\"Training\",\"Stims/Figures/19-J-10-4.bmp\",\"zahaza\",\"Down\",\"40\",\"9\",\"14\",\"6B\",\"C2\",\"C\",\"142\"
\"\",\"\",\"approach-retreat\",\"146\",\"1021305\",\"0.0-146.0\",\"\",\"\",\"2-5\",\"4099\",\"39\",\"1\",\"Training\",\"Stims/Figures/27-J-0-1.bmp\",\"za:ha:ha\",\"Right\",\"39\",\"9\",\"15\",\"6B\",\"C2\",\"C\",\"143\"
\"\",\"\",\"approach-retreat\",\"147\",\"1026848\",\"0.0-147.0\",\"\",\"\",\"2-5\",\"4036\",\"40\",\"1\",\"Training\",\"Stims/Figures/27-C-30-1.bmp\",\"vasha:sha\",\"Up\",\"40\",\"9\",\"16\",\"6B\",\"C1\",\"C\",\"144\"
\"25021\",\"\",\"instructions\",\"148\",\"1051869\",\"0.0-148.0\",\"[{\"\"page_index\"\":0,\"\"viewing_time\"\":25021}]\",\"\",\"\",\"\",\"\",\"\",\"\",\"\",\"\",\"\",\"\",\"\",\"\",\"\",\"\",\"\",\"\"
\"\",\"\",\"approach-retreat\",\"149\",\"1058046\",\"0.0-149.0\",\"\",\"\",\"2-5\",\"4675\",\"39\",\"1\",\"Testing\",\"Stims/Figures/44-J-10-3.bmp\",\"zasaha\",\"Right\",\"39\",\"1\",\"1\",\"6B\",\"C2\",\"C\",\"1\"
\"\",\"\",\"approach-retreat\",\"150\",\"1063246\",\"0.0-150.0\",\"\",\"\",\"2-5\",\"3694\",\"37\",\"0\",\"Testing\",\"Stims/Figures/44-C-30-3.bmp\",\"va:fava\",\"Left\",\"39\",\"1\",\"2\",\"6B\",\"C1\",\"C\",\"2\"
\"\",\"\",\"approach-retreat\",\"151\",\"1069823\",\"0.0-151.0\",\"\",\"\",\"2-5\",\"5069\",\"39\",\"0\",\"Testing\",\"Stims/Figures/19-J-10-4.bmp\",\"zahaza\",\"Left\",\"37\",\"1\",\"3\",\"6B\",\"C2\",\"C\",\"3\"
\"\",\"\",\"approach-retreat\",\"152\",\"1075599\",\"0.0-152.0\",\"\",\"\",\"2-5\",\"4271\",\"40\",\"0\",\"Testing\",\"Stims/Figures/84-J-0-2.bmp\",\"zasa:za\",\"Up\",\"38\",\"1\",\"4\",\"6B\",\"C2\",\"C\",\"4\"
\"\",\"\",\"approach-retreat\",\"153\",\"1082151\",\"0.0-153.0\",\"\",\"\",\"2-5\",\"5046\",\"38\",\"1\",\"Testing\",\"Stims/Figures/27-C-30-1.bmp\",\"vasha:sha\",\"Down\",\"38\",\"1\",\"5\",\"6B\",\"C1\",\"C\",\"5\"
\"\",\"\",\"approach-retreat\",\"154\",\"1087767\",\"0.0-154.0\",\"\",\"\",\"2-5\",\"4110\",\"37\",\"0\",\"Testing\",\"Stims/Figures/19-C-20-4.bmp\",\"fafasha\",\"Left\",\"39\",\"1\",\"6\",\"6B\",\"C1\",\"C\",\"6\"
\"\",\"\",\"approach-retreat\",\"155\",\"1094778\",\"0.0-155.0\",\"\",\"\",\"2-5\",\"5506\",\"40\",\"0\",\"Testing\",\"Stims/Figures/7-C-20-4.bmp\",\"vafa:sha\",\"Down\",\"38\",\"1\",\"7\",\"6B\",\"C1\",\"C\",\"7\"
\"\",\"\",\"approach-retreat\",\"156\",\"1100533\",\"0.0-156.0\",\"\",\"\",\"2-5\",\"4244\",\"40\",\"0\",\"Testing\",\"Stims/Figures/74-J-10-4.bmp\",\"sasa:ha\",\"Up\",\"38\",\"1\",\"8\",\"6B\",\"C2\",\"C\",\"8\"
\"\",\"\",\"approach-retreat\",\"157\",\"1107032\",\"0.0-157.0\",\"\",\"\",\"2-5\",\"4993\",\"37\",\"0\",\"Testing\",\"Stims/Figures/7-J-10-4.bmp\",\"za:saha\",\"Right\",\"39\",\"1\",\"9\",\"6B\",\"C2\",\"C\",\"9\"
\"\",\"\",\"approach-retreat\",\"158\",\"1113037\",\"0.0-158.0\",\"\",\"\",\"2-5\",\"4498\",\"38\",\"1\",\"Testing\",\"Stims/Figures/93-J-0-1.bmp\",\"za:haza\",\"Up\",\"38\",\"1\",\"10\",\"6B\",\"C2\",\"C\",\"10\"
\"\",\"\",\"approach-retreat\",\"159\",\"1118781\",\"0.0-159.0\",\"\",\"\",\"2-5\",\"4238\",\"39\",\"1\",\"Testing\",\"Stims/Figures/27-J-0-1.bmp\",\"za:ha:ha\",\"Right\",\"39\",\"1\",\"11\",\"6B\",\"C2\",\"C\",\"11\"
\"\",\"\",\"approach-retreat\",\"160\",\"1124245\",\"0.0-160.0\",\"\",\"\",\"2-5\",\"3959\",\"40\",\"1\",\"Testing\",\"Stims/Figures/144-C-30-3.bmp\",\"va:sha:sha\",\"Up\",\"40\",\"1\",\"12\",\"6B\",\"C1\",\"C\",\"12\"
\"\",\"\",\"approach-retreat\",\"161\",\"1130251\",\"0.0-161.0\",\"\",\"\",\"2-5\",\"4500\",\"39\",\"1\",\"Testing\",\"Stims/Figures/118-C-20-2.bmp\",\"fa:shava\",\"Left\",\"39\",\"1\",\"13\",\"6B\",\"C1\",\"C\",\"13\"
\"\",\"\",\"approach-retreat\",\"162\",\"1136156\",\"0.0-162.0\",\"\",\"\",\"2-5\",\"4399\",\"39\",\"1\",\"Testing\",\"Stims/Figures/118-J-0-2.bmp\",\"za:haha\",\"Right\",\"39\",\"1\",\"14\",\"6B\",\"C2\",\"C\",\"14\"
\"\",\"\",\"approach-retreat\",\"163\",\"1141880\",\"0.0-163.0\",\"\",\"\",\"2-5\",\"4219\",\"38\",\"1\",\"Testing\",\"Stims/Figures/86-C-30-1.bmp\",\"fa:sha:va\",\"Down\",\"38\",\"1\",\"15\",\"6B\",\"C1\",\"C\",\"15\"
\"\",\"\",\"approach-retreat\",\"164\",\"1147620\",\"0.0-164.0\",\"\",\"\",\"2-5\",\"4234\",\"37\",\"1\",\"Testing\",\"Stims/Figures/86-J-0-1.bmp\",\"za:saza\",\"Left\",\"37\",\"1\",\"16\",\"6B\",\"C2\",\"C\",\"16\"
\"\",\"\",\"approach-retreat\",\"165\",\"1155511\",\"0.0-165.0\",\"\",\"\",\"2-5\",\"6383\",\"37\",\"0\",\"Testing\",\"Stims/Figures/144-J-10-3.bmp\",\"zasaza\",\"Right\",\"39\",\"1\",\"17\",\"6B\",\"C2\",\"C\",\"17\"
\"\",\"\",\"approach-retreat\",\"166\",\"1161316\",\"0.0-166.0\",\"\",\"\",\"2-5\",\"4299\",\"37\",\"1\",\"Testing\",\"Stims/Figures/85-J-0-2.bmp\",\"zahaha\",\"Left\",\"37\",\"1\",\"18\",\"6B\",\"C2\",\"C\",\"18\"
\"\",\"\",\"approach-retreat\",\"167\",\"1166841\",\"0.0-167.0\",\"\",\"\",\"2-5\",\"4014\",\"37\",\"1\",\"Testing\",\"Stims/Figures/84-C-20-2.bmp\",\"vafava\",\"Right\",\"37\",\"1\",\"19\",\"6B\",\"C1\",\"C\",\"19\"
\"\",\"\",\"approach-retreat\",\"168\",\"1172468\",\"0.0-168.0\",\"\",\"\",\"2-5\",\"4121\",\"38\",\"0\",\"Testing\",\"Stims/Figures/128-J-10-3.bmp\",\"sa:ha:za\",\"Down\",\"40\",\"1\",\"20\",\"6B\",\"C2\",\"C\",\"20\"
\"\",\"\",\"approach-retreat\",\"169\",\"1178028\",\"0.0-169.0\",\"\",\"\",\"2-5\",\"4055\",\"38\",\"1\",\"Testing\",\"Stims/Figures/74-C-20-4.bmp\",\"fa:shasha\",\"Down\",\"38\",\"1\",\"21\",\"6B\",\"C1\",\"C\",\"21\"
\"\",\"\",\"approach-retreat\",\"170\",\"1183659\",\"0.0-170.0\",\"\",\"\",\"2-5\",\"4125\",\"40\",\"1\",\"Testing\",\"Stims/Figures/93-C-30-1.bmp\",\"vafa:va\",\"Up\",\"40\",\"1\",\"22\",\"6B\",\"C1\",\"C\",\"22\"
\"\",\"\",\"approach-retreat\",\"171\",\"1190452\",\"0.0-171.0\",\"\",\"\",\"2-5\",\"5289\",\"38\",\"0\",\"Testing\",\"Stims/Figures/85-C-20-2.bmp\",\"fafa:sha\",\"Up\",\"40\",\"1\",\"23\",\"6B\",\"C1\",\"C\",\"23\"
\"\",\"\",\"approach-retreat\",\"172\",\"1196106\",\"0.0-172.0\",\"\",\"\",\"2-5\",\"4148\",\"38\",\"1\",\"Testing\",\"Stims/Figures/128-C-30-3.bmp\",\"fa:fasha\",\"Down\",\"38\",\"1\",\"24\",\"6B\",\"C1\",\"C\",\"24\"
\"\",\"\",\"approach-retreat\",\"173\",\"1202418\",\"0.0-173.0\",\"\",\"\",\"2-5\",\"4806\",\"37\",\"0\",\"Testing\",\"Stims/Figures/144-J-10-3.bmp\",\"zasaza\",\"Right\",\"39\",\"2\",\"1\",\"6B\",\"C2\",\"C\",\"25\"
\"\",\"\",\"approach-retreat\",\"174\",\"1208161\",\"0.0-174.0\",\"\",\"\",\"2-5\",\"4238\",\"40\",\"0\",\"Testing\",\"Stims/Figures/128-J-10-3.bmp\",\"sa:ha:za\",\"Up\",\"38\",\"2\",\"2\",\"6B\",\"C2\",\"C\",\"26\"
\"\",\"\",\"approach-retreat\",\"175\",\"1214179\",\"0.0-175.0\",\"\",\"\",\"2-5\",\"4513\",\"40\",\"1\",\"Testing\",\"Stims/Figures/144-C-30-3.bmp\",\"va:sha:sha\",\"Up\",\"40\",\"2\",\"3\",\"6B\",\"C1\",\"C\",\"27\"
\"\",\"\",\"approach-retreat\",\"176\",\"1220177\",\"0.0-176.0\",\"\",\"\",\"2-5\",\"4492\",\"37\",\"0\",\"Testing\",\"Stims/Figures/44-C-30-3.bmp\",\"va:fava\",\"Left\",\"39\",\"2\",\"4\",\"6B\",\"C1\",\"C\",\"28\"
\"\",\"\",\"approach-retreat\",\"177\",\"1225965\",\"0.0-177.0\",\"\",\"\",\"2-5\",\"4283\",\"37\",\"0\",\"Testing\",\"Stims/Figures/7-C-20-4.bmp\",\"vafa:sha\",\"Left\",\"39\",\"2\",\"5\",\"6B\",\"C1\",\"C\",\"29\"
\"\",\"\",\"approach-retreat\",\"178\",\"1231681\",\"0.0-178.0\",\"\",\"\",\"2-5\",\"4210\",\"39\",\"1\",\"Testing\",\"Stims/Figures/74-C-20-4.bmp\",\"fa:shasha\",\"Left\",\"39\",\"2\",\"6\",\"6B\",\"C1\",\"C\",\"30\"
\"\",\"\",\"approach-retreat\",\"179\",\"1237448\",\"0.0-179.0\",\"\",\"\",\"2-5\",\"4262\",\"37\",\"1\",\"Testing\",\"Stims/Figures/93-J-0-1.bmp\",\"za:haza\",\"Left\",\"37\",\"2\",\"7\",\"6B\",\"C2\",\"C\",\"31\"
\"\",\"\",\"approach-retreat\",\"180\",\"1243040\",\"0.0-180.0\",\"\",\"\",\"2-5\",\"4086\",\"38\",\"1\",\"Testing\",\"Stims/Figures/128-C-30-3.bmp\",\"fa:fasha\",\"Down\",\"38\",\"2\",\"8\",\"6B\",\"C1\",\"C\",\"32\"
\"\",\"\",\"approach-retreat\",\"181\",\"1248894\",\"0.0-181.0\",\"\",\"\",\"2-5\",\"4348\",\"40\",\"1\",\"Testing\",\"Stims/Figures/19-J-10-4.bmp\",\"zahaza\",\"Down\",\"40\",\"2\",\"9\",\"6B\",\"C2\",\"C\",\"33\"
\"\",\"\",\"approach-retreat\",\"182\",\"1254520\",\"0.0-182.0\",\"\",\"\",\"2-5\",\"4121\",\"40\",\"0\",\"Testing\",\"Stims/Figures/74-J-10-4.bmp\",\"sasa:ha\",\"Up\",\"38\",\"2\",\"10\",\"6B\",\"C2\",\"C\",\"34\"
\"\",\"\",\"approach-retreat\",\"183\",\"1260848\",\"0.0-183.0\",\"\",\"\",\"2-5\",\"4823\",\"38\",\"1\",\"Testing\",\"Stims/Figures/84-J-0-2.bmp\",\"zasa:za\",\"Up\",\"38\",\"2\",\"11\",\"6B\",\"C2\",\"C\",\"35\"
\"\",\"\",\"approach-retreat\",\"184\",\"1266520\",\"0.0-184.0\",\"\",\"\",\"2-5\",\"4167\",\"40\",\"1\",\"Testing\",\"Stims/Figures/85-J-0-2.bmp\",\"zahaha\",\"Down\",\"40\",\"2\",\"12\",\"6B\",\"C2\",\"C\",\"36\"
\"\",\"\",\"approach-retreat\",\"185\",\"1272111\",\"0.0-185.0\",\"\",\"\",\"2-5\",\"4085\",\"40\",\"1\",\"Testing\",\"Stims/Figures/86-C-30-1.bmp\",\"fa:sha:va\",\"Up\",\"40\",\"2\",\"13\",\"6B\",\"C1\",\"C\",\"37\"
\"\",\"\",\"approach-retreat\",\"186\",\"1277679\",\"0.0-186.0\",\"\",\"\",\"2-5\",\"4063\",\"40\",\"1\",\"Testing\",\"Stims/Figures/7-J-10-4.bmp\",\"za:saha\",\"Down\",\"40\",\"2\",\"14\",\"6B\",\"C2\",\"C\",\"38\"
\"\",\"\",\"approach-retreat\",\"187\",\"1283810\",\"0.0-187.0\",\"\",\"\",\"2-5\",\"4625\",\"39\",\"1\",\"Testing\",\"Stims/Figures/84-C-20-2.bmp\",\"vafava\",\"Left\",\"39\",\"2\",\"15\",\"6B\",\"C1\",\"C\",\"39\"
\"\",\"\",\"approach-retreat\",\"188\",\"1289455\",\"0.0-188.0\",\"\",\"\",\"2-5\",\"4137\",\"37\",\"1\",\"Testing\",\"Stims/Figures/44-J-10-3.bmp\",\"zasaha\",\"Left\",\"37\",\"2\",\"16\",\"6B\",\"C2\",\"C\",\"40\"
\"\",\"\",\"approach-retreat\",\"189\",\"1295627\",\"0.0-189.0\",\"\",\"\",\"2-5\",\"4667\",\"37\",\"1\",\"Testing\",\"Stims/Figures/19-C-20-4.bmp\",\"fafasha\",\"Right\",\"37\",\"2\",\"17\",\"6B\",\"C1\",\"C\",\"41\"
\"\",\"\",\"approach-retreat\",\"190\",\"1301382\",\"0.0-190.0\",\"\",\"\",\"2-5\",\"4250\",\"40\",\"1\",\"Testing\",\"Stims/Figures/27-J-0-1.bmp\",\"za:ha:ha\",\"Down\",\"40\",\"2\",\"18\",\"6B\",\"C2\",\"C\",\"42\"
\"\",\"\",\"approach-retreat\",\"191\",\"1307304\",\"0.0-191.0\",\"\",\"\",\"2-5\",\"4415\",\"39\",\"1\",\"Testing\",\"Stims/Figures/86-J-0-1.bmp\",\"za:saza\",\"Right\",\"39\",\"2\",\"19\",\"6B\",\"C2\",\"C\",\"43\"
\"\",\"\",\"approach-retreat\",\"192\",\"1313389\",\"0.0-192.0\",\"\",\"\",\"2-5\",\"4581\",\"37\",\"1\",\"Testing\",\"Stims/Figures/93-C-30-1.bmp\",\"vafa:va\",\"Right\",\"37\",\"2\",\"20\",\"6B\",\"C1\",\"C\",\"44\"
\"\",\"\",\"approach-retreat\",\"193\",\"1319236\",\"0.0-193.0\",\"\",\"\",\"2-5\",\"4342\",\"38\",\"1\",\"Testing\",\"Stims/Figures/118-C-20-2.bmp\",\"fa:shava\",\"Down\",\"38\",\"2\",\"21\",\"6B\",\"C1\",\"C\",\"45\"
\"\",\"\",\"approach-retreat\",\"194\",\"1325254\",\"0.0-194.0\",\"\",\"\",\"2-5\",\"4511\",\"39\",\"1\",\"Testing\",\"Stims/Figures/118-J-0-2.bmp\",\"za:haha\",\"Right\",\"39\",\"2\",\"22\",\"6B\",\"C2\",\"C\",\"46\"
\"\",\"\",\"approach-retreat\",\"195\",\"1331750\",\"0.0-195.0\",\"\",\"\",\"2-5\",\"4992\",\"37\",\"1\",\"Testing\",\"Stims/Figures/85-C-20-2.bmp\",\"fafa:sha\",\"Right\",\"37\",\"2\",\"23\",\"6B\",\"C1\",\"C\",\"47\"
\"\",\"\",\"approach-retreat\",\"196\",\"1337348\",\"0.0-196.0\",\"\",\"\",\"2-5\",\"4093\",\"40\",\"1\",\"Testing\",\"Stims/Figures/27-C-30-1.bmp\",\"vasha:sha\",\"Up\",\"40\",\"2\",\"24\",\"6B\",\"C1\",\"C\",\"48\"
\"\",\"\",\"approach-retreat\",\"197\",\"1343484\",\"0.0-197.0\",\"\",\"\",\"2-5\",\"4630\",\"37\",\"1\",\"Testing\",\"Stims/Figures/86-J-0-1.bmp\",\"za:saza\",\"Left\",\"37\",\"3\",\"1\",\"6B\",\"C2\",\"C\",\"49\"
\"\",\"\",\"approach-retreat\",\"198\",\"1348956\",\"0.0-198.0\",\"\",\"\",\"2-5\",\"3968\",\"40\",\"1\",\"Testing\",\"Stims/Figures/19-C-20-4.bmp\",\"fafasha\",\"Up\",\"40\",\"3\",\"2\",\"6B\",\"C1\",\"C\",\"50\"
\"\",\"\",\"approach-retreat\",\"199\",\"1354663\",\"0.0-199.0\",\"\",\"\",\"2-5\",\"4202\",\"40\",\"1\",\"Testing\",\"Stims/Figures/44-J-10-3.bmp\",\"zasaha\",\"Down\",\"40\",\"3\",\"3\",\"6B\",\"C2\",\"C\",\"51\"
\"\",\"\",\"approach-retreat\",\"200\",\"1360348\",\"0.0-200.0\",\"\",\"\",\"2-5\",\"4181\",\"39\",\"1\",\"Testing\",\"Stims/Figures/84-C-20-2.bmp\",\"vafava\",\"Left\",\"39\",\"3\",\"4\",\"6B\",\"C1\",\"C\",\"52\"
\"\",\"\",\"approach-retreat\",\"201\",\"1365917\",\"0.0-201.0\",\"\",\"\",\"2-5\",\"4064\",\"40\",\"1\",\"Testing\",\"Stims/Figures/93-J-0-1.bmp\",\"za:haza\",\"Down\",\"40\",\"3\",\"5\",\"6B\",\"C2\",\"C\",\"53\"
\"\",\"\",\"approach-retreat\",\"202\",\"1371452\",\"0.0-202.0\",\"\",\"\",\"2-5\",\"4029\",\"40\",\"0\",\"Testing\",\"Stims/Figures/74-J-10-4.bmp\",\"sasa:ha\",\"Up\",\"38\",\"3\",\"6\",\"6B\",\"C2\",\"C\",\"54\"
\"\",\"\",\"approach-retreat\",\"203\",\"1377235\",\"0.0-203.0\",\"\",\"\",\"2-5\",\"4278\",\"37\",\"1\",\"Testing\",\"Stims/Figures/118-C-20-2.bmp\",\"fa:shava\",\"Right\",\"37\",\"3\",\"7\",\"6B\",\"C1\",\"C\",\"55\"
\"\",\"\",\"approach-retreat\",\"204\",\"1383378\",\"0.0-204.0\",\"\",\"\",\"2-5\",\"4639\",\"37\",\"1\",\"Testing\",\"Stims/Figures/74-C-20-4.bmp\",\"fa:shasha\",\"Right\",\"37\",\"3\",\"8\",\"6B\",\"C1\",\"C\",\"56\"
\"\",\"\",\"approach-retreat\",\"205\",\"1389067\",\"0.0-205.0\",\"\",\"\",\"2-5\",\"4183\",\"37\",\"1\",\"Testing\",\"Stims/Figures/84-J-0-2.bmp\",\"zasa:za\",\"Left\",\"37\",\"3\",\"9\",\"6B\",\"C2\",\"C\",\"57\"
\"\",\"\",\"approach-retreat\",\"206\",\"1394835\",\"0.0-206.0\",\"\",\"\",\"2-5\",\"4262\",\"38\",\"1\",\"Testing\",\"Stims/Figures/144-J-10-3.bmp\",\"zasaza\",\"Up\",\"38\",\"3\",\"10\",\"6B\",\"C2\",\"C\",\"58\"
\"\",\"\",\"approach-retreat\",\"207\",\"1400570\",\"0.0-207.0\",\"\",\"\",\"2-5\",\"4231\",\"37\",\"1\",\"Testing\",\"Stims/Figures/7-J-10-4.bmp\",\"za:saha\",\"Left\",\"37\",\"3\",\"11\",\"6B\",\"C2\",\"C\",\"59\"
\"\",\"\",\"approach-retreat\",\"208\",\"1406082\",\"0.0-208.0\",\"\",\"\",\"2-5\",\"4009\",\"38\",\"1\",\"Testing\",\"Stims/Figures/93-C-30-1.bmp\",\"vafa:va\",\"Down\",\"38\",\"3\",\"12\",\"6B\",\"C1\",\"C\",\"60\"
\"\",\"\",\"approach-retreat\",\"209\",\"1411789\",\"0.0-209.0\",\"\",\"\",\"2-5\",\"4201\",\"38\",\"1\",\"Testing\",\"Stims/Figures/144-C-30-3.bmp\",\"va:sha:sha\",\"Down\",\"38\",\"3\",\"13\",\"6B\",\"C1\",\"C\",\"61\"
\"\",\"\",\"approach-retreat\",\"210\",\"1417435\",\"0.0-210.0\",\"\",\"\",\"2-5\",\"4140\",\"39\",\"1\",\"Testing\",\"Stims/Figures/128-J-10-3.bmp\",\"sa:ha:za\",\"Right\",\"39\",\"3\",\"14\",\"6B\",\"C2\",\"C\",\"62\"
\"\",\"\",\"approach-retreat\",\"211\",\"1423368\",\"0.0-211.0\",\"\",\"\",\"2-5\",\"4427\",\"38\",\"1\",\"Testing\",\"Stims/Figures/118-J-0-2.bmp\",\"za:haha\",\"Up\",\"38\",\"3\",\"15\",\"6B\",\"C2\",\"C\",\"63\"
\"\",\"\",\"approach-retreat\",\"212\",\"1429562\",\"0.0-212.0\",\"\",\"\",\"2-5\",\"4689\",\"38\",\"1\",\"Testing\",\"Stims/Figures/44-C-30-3.bmp\",\"va:fava\",\"Down\",\"38\",\"3\",\"16\",\"6B\",\"C1\",\"C\",\"64\"
\"\",\"\",\"approach-retreat\",\"213\",\"1435400\",\"0.0-213.0\",\"\",\"\",\"2-5\",\"4332\",\"37\",\"1\",\"Testing\",\"Stims/Figures/85-C-20-2.bmp\",\"fafa:sha\",\"Right\",\"37\",\"3\",\"17\",\"6B\",\"C1\",\"C\",\"65\"
\"\",\"\",\"approach-retreat\",\"214\",\"1441314\",\"0.0-214.0\",\"\",\"\",\"2-5\",\"4408\",\"37\",\"1\",\"Testing\",\"Stims/Figures/27-C-30-1.bmp\",\"vasha:sha\",\"Right\",\"37\",\"3\",\"18\",\"6B\",\"C1\",\"C\",\"66\"
\"\",\"\",\"approach-retreat\",\"215\",\"1447494\",\"0.0-215.0\",\"\",\"\",\"2-5\",\"4674\",\"38\",\"1\",\"Testing\",\"Stims/Figures/27-J-0-1.bmp\",\"za:ha:ha\",\"Up\",\"38\",\"3\",\"19\",\"6B\",\"C2\",\"C\",\"67\"
\"\",\"\",\"approach-retreat\",\"216\",\"1452993\",\"0.0-216.0\",\"\",\"\",\"2-5\",\"3994\",\"37\",\"1\",\"Testing\",\"Stims/Figures/7-C-20-4.bmp\",\"vafa:sha\",\"Right\",\"37\",\"3\",\"20\",\"6B\",\"C1\",\"C\",\"68\"
\"\",\"\",\"approach-retreat\",\"217\",\"1459340\",\"0.0-217.0\",\"\",\"\",\"2-5\",\"4842\",\"37\",\"1\",\"Testing\",\"Stims/Figures/19-J-10-4.bmp\",\"zahaza\",\"Left\",\"37\",\"3\",\"21\",\"6B\",\"C2\",\"C\",\"69\"
\"\",\"\",\"approach-retreat\",\"218\",\"1465162\",\"0.0-218.0\",\"\",\"\",\"2-5\",\"4317\",\"38\",\"1\",\"Testing\",\"Stims/Figures/128-C-30-3.bmp\",\"fa:fasha\",\"Down\",\"38\",\"3\",\"22\",\"6B\",\"C1\",\"C\",\"70\"
\"\",\"\",\"approach-retreat\",\"219\",\"1470800\",\"0.0-219.0\",\"\",\"\",\"2-5\",\"4133\",\"37\",\"1\",\"Testing\",\"Stims/Figures/85-J-0-2.bmp\",\"zahaha\",\"Left\",\"37\",\"3\",\"23\",\"6B\",\"C2\",\"C\",\"71\"
\"\",\"\",\"approach-retreat\",\"220\",\"1476929\",\"0.0-220.0\",\"\",\"\",\"2-5\",\"4624\",\"40\",\"1\",\"Testing\",\"Stims/Figures/86-C-30-1.bmp\",\"fa:sha:va\",\"Up\",\"40\",\"3\",\"24\",\"6B\",\"C1\",\"C\",\"72\"
\"\",\"\",\"approach-retreat\",\"221\",\"1482931\",\"0.0-221.0\",\"\",\"\",\"2-5\",\"4497\",\"39\",\"1\",\"Testing\",\"Stims/Figures/118-J-0-2.bmp\",\"za:haha\",\"Right\",\"39\",\"4\",\"1\",\"6B\",\"C2\",\"C\",\"73\"
\"\",\"\",\"approach-retreat\",\"222\",\"1488913\",\"0.0-222.0\",\"\",\"\",\"2-5\",\"4477\",\"38\",\"0\",\"Testing\",\"Stims/Figures/144-J-10-3.bmp\",\"zasaza\",\"Down\",\"40\",\"4\",\"2\",\"6B\",\"C2\",\"C\",\"74\"
\"\",\"\",\"approach-retreat\",\"223\",\"1494773\",\"0.0-223.0\",\"\",\"\",\"2-5\",\"4354\",\"39\",\"1\",\"Testing\",\"Stims/Figures/84-C-20-2.bmp\",\"vafava\",\"Left\",\"39\",\"4\",\"3\",\"6B\",\"C1\",\"C\",\"75\"
\"\",\"\",\"approach-retreat\",\"224\",\"1500311\",\"0.0-224.0\",\"\",\"\",\"2-5\",\"4032\",\"38\",\"1\",\"Testing\",\"Stims/Figures/85-C-20-2.bmp\",\"fafa:sha\",\"Down\",\"38\",\"4\",\"4\",\"6B\",\"C1\",\"C\",\"76\"
\"\",\"\",\"approach-retreat\",\"225\",\"1506561\",\"0.0-225.0\",\"\",\"\",\"2-5\",\"4744\",\"39\",\"1\",\"Testing\",\"Stims/Figures/27-J-0-1.bmp\",\"za:ha:ha\",\"Right\",\"39\",\"4\",\"5\",\"6B\",\"C2\",\"C\",\"77\"
\"\",\"\",\"approach-retreat\",\"226\",\"1512783\",\"0.0-226.0\",\"\",\"\",\"2-5\",\"4716\",\"37\",\"1\",\"Testing\",\"Stims/Figures/85-J-0-2.bmp\",\"zahaha\",\"Left\",\"37\",\"4\",\"6\",\"6B\",\"C2\",\"C\",\"78\"
\"\",\"\",\"approach-retreat\",\"227\",\"1518278\",\"0.0-227.0\",\"\",\"\",\"2-5\",\"3989\",\"40\",\"1\",\"Testing\",\"Stims/Figures/128-J-10-3.bmp\",\"sa:ha:za\",\"Down\",\"40\",\"4\",\"7\",\"6B\",\"C2\",\"C\",\"79\"
\"\",\"\",\"approach-retreat\",\"228\",\"1524599\",\"0.0-228.0\",\"\",\"\",\"2-5\",\"4815\",\"37\",\"1\",\"Testing\",\"Stims/Figures/144-C-30-3.bmp\",\"va:sha:sha\",\"Right\",\"37\",\"4\",\"8\",\"6B\",\"C1\",\"C\",\"80\"
\"\",\"\",\"approach-retreat\",\"229\",\"1530264\",\"0.0-229.0\",\"\",\"\",\"2-5\",\"4160\",\"38\",\"1\",\"Testing\",\"Stims/Figures/86-C-30-1.bmp\",\"fa:sha:va\",\"Down\",\"38\",\"4\",\"9\",\"6B\",\"C1\",\"C\",\"81\"
\"\",\"\",\"approach-retreat\",\"230\",\"1535926\",\"0.0-230.0\",\"\",\"\",\"2-5\",\"4157\",\"40\",\"1\",\"Testing\",\"Stims/Figures/27-C-30-1.bmp\",\"vasha:sha\",\"Up\",\"40\",\"4\",\"10\",\"6B\",\"C1\",\"C\",\"82\"
\"\",\"\",\"approach-retreat\",\"231\",\"1541607\",\"0.0-231.0\",\"\",\"\",\"2-5\",\"4175\",\"40\",\"1\",\"Testing\",\"Stims/Figures/19-C-20-4.bmp\",\"fafasha\",\"Up\",\"40\",\"4\",\"11\",\"6B\",\"C1\",\"C\",\"83\"
\"\",\"\",\"approach-retreat\",\"232\",\"1548054\",\"0.0-232.0\",\"\",\"\",\"2-5\",\"4944\",\"39\",\"1\",\"Testing\",\"Stims/Figures/7-C-20-4.bmp\",\"vafa:sha\",\"Left\",\"39\",\"4\",\"12\",\"6B\",\"C1\",\"C\",\"84\"
\"\",\"\",\"approach-retreat\",\"233\",\"1554020\",\"0.0-233.0\",\"\",\"\",\"2-5\",\"4461\",\"39\",\"1\",\"Testing\",\"Stims/Figures/74-J-10-4.bmp\",\"sasa:ha\",\"Right\",\"39\",\"4\",\"13\",\"6B\",\"C2\",\"C\",\"85\"
\"\",\"\",\"approach-retreat\",\"234\",\"1559878\",\"0.0-234.0\",\"\",\"\",\"2-5\",\"4354\",\"37\",\"1\",\"Testing\",\"Stims/Figures/128-C-30-3.bmp\",\"fa:fasha\",\"Right\",\"37\",\"4\",\"14\",\"6B\",\"C1\",\"C\",\"86\"
\"\",\"\",\"approach-retreat\",\"235\",\"1565901\",\"0.0-235.0\",\"\",\"\",\"2-5\",\"4517\",\"40\",\"1\",\"Testing\",\"Stims/Figures/86-J-0-1.bmp\",\"za:saza\",\"Down\",\"40\",\"4\",\"15\",\"6B\",\"C2\",\"C\",\"87\"
\"\",\"\",\"approach-retreat\",\"236\",\"1571869\",\"0.0-236.0\",\"\",\"\",\"2-5\",\"4462\",\"38\",\"1\",\"Testing\",\"Stims/Figures/44-J-10-3.bmp\",\"zasaha\",\"Up\",\"38\",\"4\",\"16\",\"6B\",\"C2\",\"C\",\"88\"
\"\",\"\",\"approach-retreat\",\"237\",\"1577541\",\"0.0-237.0\",\"\",\"\",\"2-5\",\"4167\",\"39\",\"0\",\"Testing\",\"Stims/Figures/93-C-30-1.bmp\",\"vafa:va\",\"Right\",\"37\",\"4\",\"17\",\"6B\",\"C1\",\"C\",\"89\"
\"\",\"\",\"approach-retreat\",\"238\",\"1583749\",\"0.0-238.0\",\"\",\"\",\"2-5\",\"4703\",\"38\",\"1\",\"Testing\",\"Stims/Figures/84-J-0-2.bmp\",\"zasa:za\",\"Up\",\"38\",\"4\",\"18\",\"6B\",\"C2\",\"C\",\"90\"
\"\",\"\",\"approach-retreat\",\"239\",\"1589270\",\"0.0-239.0\",\"\",\"\",\"2-5\",\"4016\",\"37\",\"1\",\"Testing\",\"Stims/Figures/93-J-0-1.bmp\",\"za:haza\",\"Left\",\"37\",\"4\",\"19\",\"6B\",\"C2\",\"C\",\"91\"
\"\",\"\",\"approach-retreat\",\"240\",\"1595653\",\"0.0-240.0\",\"\",\"\",\"2-5\",\"4875\",\"38\",\"1\",\"Testing\",\"Stims/Figures/19-J-10-4.bmp\",\"zahaza\",\"Up\",\"38\",\"4\",\"20\",\"6B\",\"C2\",\"C\",\"92\"
\"\",\"\",\"approach-retreat\",\"241\",\"1601149\",\"0.0-241.0\",\"\",\"\",\"2-5\",\"3991\",\"40\",\"1\",\"Testing\",\"Stims/Figures/74-C-20-4.bmp\",\"fa:shasha\",\"Up\",\"40\",\"4\",\"21\",\"6B\",\"C1\",\"C\",\"93\"
\"\",\"\",\"approach-retreat\",\"242\",\"1606892\",\"0.0-242.0\",\"\",\"\",\"2-5\",\"4238\",\"38\",\"1\",\"Testing\",\"Stims/Figures/44-C-30-3.bmp\",\"va:fava\",\"Down\",\"38\",\"4\",\"22\",\"6B\",\"C1\",\"C\",\"94\"
\"\",\"\",\"approach-retreat\",\"243\",\"1612681\",\"0.0-243.0\",\"\",\"\",\"2-5\",\"4285\",\"39\",\"1\",\"Testing\",\"Stims/Figures/118-C-20-2.bmp\",\"fa:shava\",\"Left\",\"39\",\"4\",\"23\",\"6B\",\"C1\",\"C\",\"95\"
\"\",\"\",\"approach-retreat\",\"244\",\"1618819\",\"0.0-244.0\",\"\",\"\",\"2-5\",\"4633\",\"37\",\"1\",\"Testing\",\"Stims/Figures/7-J-10-4.bmp\",\"za:saha\",\"Left\",\"37\",\"4\",\"24\",\"6B\",\"C2\",\"C\",\"96\"
\"35807\",\"\",\"survey-text\",\"245\",\"1654632\",\"0.0-245.0\",\"\",\"{\"\"Q0\"\":\"\"PS110059\"\"}\",\"\",\"\",\"\",\"\",\"\",\"\",\"\",\"\",\"\",\"\",\"\",\"\",\"\",\"\",\"\"
