"rt","key_press","trial_type","trial_index","time_elapsed","internal_node_id","view_history","responses","Id","Rt","ResKeyCode","ResCorr","TrialType2","Image","Label","Location","CorrectResponse","Block","BlockTrial","Condition","LabelType","Subcondition","trialNum"
"34259","32","text","0","34266","0.0-0.0-0.0","","","","","","","","","","","","","","","","",""
"146881","","instructions","1","181152","0.0-1.0","[{""page_index"":0,""viewing_time"":146881}]","","","","","","","","","","","","","","","",""
"47835","","survey-multi-choice","2","229051","0.0-2.0","","{""Q0"":""Da"",""Q1"":""Da"",""Q2"":""Da"",""Q3"":""Da"",""Q4"":""Da"",""Q5"":""Da""}","","","","","","","","","","","","","","",""
"","","bio","3","239009","0.0-3.0","","{""age"":""19"",""gender"":""f"",""specify"":""""}","","","","","","","","","","","","","","",""
"","","approach-retreat","4","255359","0.0-4.0","","","2-3","14831","39","1","Training","Stims/Figures/111-J-10-3.bmp","None","Left","39","1","1","10","N","J","1"
"","","approach-retreat","5","265519","0.0-5.0","","","2-3","8644","39","0","Training","Stims/Figures/71-C-30-1.bmp","None","Left","37","1","2","10","N","J","2"
"","","approach-retreat","6","275557","0.0-6.0","","","2-3","8523","37","0","Training","Stims/Figures/118-J-0-2.bmp","None","Left","39","1","3","10","N","J","3"
"","","approach-retreat","7","284766","0.0-7.0","","","2-3","7693","38","1","Training","Stims/Figures/100-J-10-3.bmp","None","Down","38","1","4","10","N","J","4"
"","","approach-retreat","8","294110","0.0-8.0","","","2-3","7828","39","0","Training","Stims/Figures/118-C-20-2.bmp","None","Left","37","1","5","10","N","J","5"
"","","approach-retreat","9","303082","0.0-9.0","","","2-3","7458","40","0","Training","Stims/Figures/19-C-20-4.bmp","None","Up","38","1","6","10","N","J","6"
"","","approach-retreat","10","309038","0.0-10.0","","","2-3","4439","39","1","Training","Stims/Figures/7-C-20-4.bmp","None","Right","39","1","7","10","N","J","7"
"","","approach-retreat","11","317727","0.0-11.0","","","2-3","7175","38","1","Training","Stims/Figures/100-C-30-3.bmp","None","Up","38","1","8","10","N","J","8"
"","","approach-retreat","12","324384","0.0-12.0","","","2-3","5141","39","0","Training","Stims/Figures/7-J-10-4.bmp","None","Right","37","1","9","10","N","J","9"
"","","approach-retreat","13","331830","0.0-13.0","","","2-3","5930","40","0","Training","Stims/Figures/19-J-10-4.bmp","None","Down","38","1","10","10","N","J","10"
"","","approach-retreat","14","339091","0.0-14.0","","","2-3","5748","38","0","Training","Stims/Figures/57-J-0-1.bmp","None","Up","40","1","11","10","N","J","11"
"","","approach-retreat","15","345541","0.0-15.0","","","2-3","4937","37","0","Training","Stims/Figures/94-C-20-2.bmp","None","Right","39","1","12","10","N","J","12"
"","","approach-retreat","16","353370","0.0-16.0","","","2-3","6314","40","0","Training","Stims/Figures/94-J-0-2.bmp","None","Down","38","1","13","10","N","J","13"
"","","approach-retreat","17","360106","0.0-17.0","","","2-3","5221","40","0","Training","Stims/Figures/111-C-30-3.bmp","None","Up","38","1","14","10","N","J","14"
"","","approach-retreat","18","366295","0.0-18.0","","","2-3","4675","38","0","Training","Stims/Figures/57-C-30-1.bmp","None","Down","40","1","15","10","N","J","15"
"","","approach-retreat","19","372217","0.0-19.0","","","2-3","4407","37","1","Training","Stims/Figures/71-J-0-1.bmp","None","Right","37","1","16","10","N","J","16"
"","","approach-retreat","20","378343","0.0-20.0","","","2-3","4613","40","1","Training","Stims/Figures/100-J-10-3.bmp","None","Up","40","2","1","10","N","J","17"
"","","approach-retreat","21","384401","0.0-21.0","","","2-3","4542","38","1","Training","Stims/Figures/19-J-10-4.bmp","None","Down","38","2","2","10","N","J","18"
"","","approach-retreat","22","391020","0.0-22.0","","","2-3","5104","38","1","Training","Stims/Figures/57-C-30-1.bmp","None","Up","38","2","3","10","N","J","19"
"","","approach-retreat","23","397033","0.0-23.0","","","2-3","4498","37","0","Training","Stims/Figures/111-C-30-3.bmp","None","Right","39","2","4","10","N","J","20"
"","","approach-retreat","24","402917","0.0-24.0","","","2-3","4369","39","0","Training","Stims/Figures/19-C-20-4.bmp","None","Left","37","2","5","10","N","J","21"
"","","approach-retreat","25","408783","0.0-25.0","","","2-3","4351","37","1","Training","Stims/Figures/111-J-10-3.bmp","None","Right","37","2","6","10","N","J","22"
"","","approach-retreat","26","414861","0.0-26.0","","","2-3","4563","39","1","Training","Stims/Figures/100-C-30-3.bmp","None","Right","39","2","7","10","N","J","23"
"","","approach-retreat","27","420643","0.0-27.0","","","2-3","4267","37","0","Training","Stims/Figures/57-J-0-1.bmp","None","Left","39","2","8","10","N","J","24"
"","","approach-retreat","28","426958","0.0-28.0","","","2-3","4800","38","0","Training","Stims/Figures/118-C-20-2.bmp","None","Down","40","2","9","10","N","J","25"
"","","approach-retreat","29","434840","0.0-29.0","","","2-3","6367","38","0","Training","Stims/Figures/71-C-30-1.bmp","None","Down","40","2","10","10","N","J","26"
"","","approach-retreat","30","441613","0.0-30.0","","","2-3","5257","40","1","Training","Stims/Figures/94-J-0-2.bmp","None","Up","40","2","11","10","N","J","27"
"","","approach-retreat","31","447706","0.0-31.0","","","2-3","4578","39","1","Training","Stims/Figures/118-J-0-2.bmp","None","Left","39","2","12","10","N","J","28"
"","","approach-retreat","32","454823","0.0-32.0","","","2-3","5602","37","1","Training","Stims/Figures/7-J-10-4.bmp","None","Right","37","2","13","10","N","J","29"
"","","approach-retreat","33","460727","0.0-33.0","","","2-3","4388","38","1","Training","Stims/Figures/71-J-0-1.bmp","None","Down","38","2","14","10","N","J","30"
"","","approach-retreat","34","466865","0.0-34.0","","","2-3","4625","37","1","Training","Stims/Figures/7-C-20-4.bmp","None","Left","37","2","15","10","N","J","31"
"","","approach-retreat","35","473169","0.0-35.0","","","2-3","4789","38","1","Training","Stims/Figures/94-C-20-2.bmp","None","Up","38","2","16","10","N","J","32"
"","","approach-retreat","36","479502","0.0-36.0","","","2-3","4818","40","1","Training","Stims/Figures/57-C-30-1.bmp","None","Down","40","3","1","10","N","J","33"
"","","approach-retreat","37","485493","0.0-37.0","","","2-3","4475","40","1","Training","Stims/Figures/19-C-20-4.bmp","None","Down","40","3","2","10","N","J","34"
"","","approach-retreat","38","491746","0.0-38.0","","","2-3","4733","40","1","Training","Stims/Figures/111-J-10-3.bmp","None","Up","40","3","3","10","N","J","35"
"","","approach-retreat","39","497651","0.0-39.0","","","2-3","4390","39","1","Training","Stims/Figures/71-J-0-1.bmp","None","Left","39","3","4","10","N","J","36"
"","","approach-retreat","40","503481","0.0-40.0","","","2-3","4313","39","1","Training","Stims/Figures/94-C-20-2.bmp","None","Right","39","3","5","10","N","J","37"
"","","approach-retreat","41","509519","0.0-41.0","","","2-3","4522","37","1","Training","Stims/Figures/7-C-20-4.bmp","None","Left","37","3","6","10","N","J","38"
"","","approach-retreat","42","515486","0.0-42.0","","","2-3","4452","37","1","Training","Stims/Figures/118-C-20-2.bmp","None","Left","37","3","7","10","N","J","39"
"","","approach-retreat","43","521565","0.0-43.0","","","2-3","4563","38","1","Training","Stims/Figures/118-J-0-2.bmp","None","Down","38","3","8","10","N","J","40"
"","","approach-retreat","44","527501","0.0-44.0","","","2-3","4423","37","1","Training","Stims/Figures/111-C-30-3.bmp","None","Left","37","3","9","10","N","J","41"
"","","approach-retreat","45","535350","0.0-45.0","","","2-3","6335","37","1","Training","Stims/Figures/19-J-10-4.bmp","None","Right","37","3","10","10","N","J","42"
"","","approach-retreat","46","541658","0.0-46.0","","","2-3","4791","40","1","Training","Stims/Figures/57-J-0-1.bmp","None","Up","40","3","11","10","N","J","43"
"","","approach-retreat","47","547447","0.0-47.0","","","2-3","4275","37","1","Training","Stims/Figures/7-J-10-4.bmp","None","Right","37","3","12","10","N","J","44"
"","","approach-retreat","48","553521","0.0-48.0","","","2-3","4559","38","1","Training","Stims/Figures/94-J-0-2.bmp","None","Down","38","3","13","10","N","J","45"
"","","approach-retreat","49","560360","0.0-49.0","","","2-3","5326","37","1","Training","Stims/Figures/100-J-10-3.bmp","None","Right","37","3","14","10","N","J","46"
"","","approach-retreat","50","566543","0.0-50.0","","","2-3","4668","38","1","Training","Stims/Figures/71-C-30-1.bmp","None","Up","38","3","15","10","N","J","47"
"","","approach-retreat","51","572736","0.0-51.0","","","2-3","4678","38","1","Training","Stims/Figures/100-C-30-3.bmp","None","Up","38","3","16","10","N","J","48"
"","","approach-retreat","52","580136","0.0-52.0","","","2-3","5885","37","1","Training","Stims/Figures/100-J-10-3.bmp","None","Right","37","4","1","10","N","J","49"
"","","approach-retreat","53","586085","0.0-53.0","","","2-3","4436","39","1","Training","Stims/Figures/118-C-20-2.bmp","None","Right","39","4","2","10","N","J","50"
"","","approach-retreat","54","594554","0.0-54.0","","","2-3","6953","39","1","Training","Stims/Figures/7-J-10-4.bmp","None","Left","39","4","3","10","N","J","51"
"","","approach-retreat","55","601925","0.0-55.0","","","2-3","5857","40","1","Training","Stims/Figures/71-C-30-1.bmp","None","Down","40","4","4","10","N","J","52"
"","","approach-retreat","56","607931","0.0-56.0","","","2-3","4489","37","1","Training","Stims/Figures/71-J-0-1.bmp","None","Right","37","4","5","10","N","J","53"
"","","approach-retreat","57","613969","0.0-57.0","","","2-3","4522","39","1","Training","Stims/Figures/118-J-0-2.bmp","None","Left","39","4","6","10","N","J","54"
"","","approach-retreat","58","620372","0.0-58.0","","","2-3","4889","38","1","Training","Stims/Figures/7-C-20-4.bmp","None","Up","38","4","7","10","N","J","55"
"","","approach-retreat","59","627698","0.0-59.0","","","2-3","5810","38","1","Training","Stims/Figures/19-J-10-4.bmp","None","Down","38","4","8","10","N","J","56"
"","","approach-retreat","60","633493","0.0-60.0","","","2-3","4280","40","1","Training","Stims/Figures/19-C-20-4.bmp","None","Down","40","4","9","10","N","J","57"
"","","approach-retreat","61","639566","0.0-61.0","","","2-3","4564","39","1","Training","Stims/Figures/94-J-0-2.bmp","None","Left","39","4","10","10","N","J","58"
"","","approach-retreat","62","645767","0.0-62.0","","","2-3","4687","40","1","Training","Stims/Figures/94-C-20-2.bmp","None","Down","40","4","11","10","N","J","59"
"","","approach-retreat","63","652669","0.0-63.0","","","2-3","5387","38","1","Training","Stims/Figures/111-C-30-3.bmp","None","Up","38","4","12","10","N","J","60"
"","","approach-retreat","64","660318","0.0-64.0","","","2-3","6135","37","1","Training","Stims/Figures/57-J-0-1.bmp","None","Right","37","4","13","10","N","J","61"
"","","approach-retreat","65","666397","0.0-65.0","","","2-3","4563","38","1","Training","Stims/Figures/57-C-30-1.bmp","None","Up","38","4","14","10","N","J","62"
"","","approach-retreat","66","672495","0.0-66.0","","","2-3","4583","37","1","Training","Stims/Figures/100-C-30-3.bmp","None","Left","37","4","15","10","N","J","63"
"","","approach-retreat","67","680408","0.0-67.0","","","2-3","6396","40","1","Training","Stims/Figures/111-J-10-3.bmp","None","Up","40","4","16","10","N","J","64"
"","","approach-retreat","68","686412","0.0-68.0","","","2-3","4489","40","1","Training","Stims/Figures/94-J-0-2.bmp","None","Up","40","5","1","10","N","J","65"
"","","approach-retreat","69","692512","0.0-69.0","","","2-3","4586","39","1","Training","Stims/Figures/19-C-20-4.bmp","None","Right","39","5","2","10","N","J","66"
"","","approach-retreat","70","698713","0.0-70.0","","","2-3","4686","38","1","Training","Stims/Figures/111-C-30-3.bmp","None","Up","38","5","3","10","N","J","67"
"","","approach-retreat","71","705960","0.0-71.0","","","2-3","5733","38","1","Training","Stims/Figures/57-J-0-1.bmp","None","Down","38","5","4","10","N","J","68"
"","","approach-retreat","72","711773","0.0-72.0","","","2-3","4296","38","1","Training","Stims/Figures/100-J-10-3.bmp","None","Down","38","5","5","10","N","J","69"
"","","approach-retreat","73","717987","0.0-73.0","","","2-3","4698","37","1","Training","Stims/Figures/57-C-30-1.bmp","None","Left","37","5","6","10","N","J","70"
"","","approach-retreat","74","724563","0.0-74.0","","","2-3","5060","38","1","Training","Stims/Figures/71-J-0-1.bmp","None","Down","38","5","7","10","N","J","71"
"","","approach-retreat","75","735707","0.0-75.0","","","2-3","9629","39","1","Training","Stims/Figures/7-J-10-4.bmp","None","Left","39","5","8","10","N","J","72"
"","","approach-retreat","76","741738","0.0-76.0","","","2-3","4514","40","1","Training","Stims/Figures/94-C-20-2.bmp","None","Down","40","5","9","10","N","J","73"
"","","approach-retreat","77","750267","0.0-77.0","","","2-3","7014","39","1","Training","Stims/Figures/7-C-20-4.bmp","None","Right","39","5","10","10","N","J","74"
"","","approach-retreat","78","756656","0.0-78.0","","","2-3","4875","40","1","Training","Stims/Figures/118-J-0-2.bmp","None","Up","40","5","11","10","N","J","75"
"","","approach-retreat","79","765578","0.0-79.0","","","2-3","7406","38","1","Training","Stims/Figures/71-C-30-1.bmp","None","Up","38","5","12","10","N","J","76"
"","","approach-retreat","80","776317","0.0-80.0","","","2-3","9224","37","0","Training","Stims/Figures/19-J-10-4.bmp","None","Left","39","5","13","10","N","J","77"
"","","approach-retreat","81","782441","0.0-81.0","","","2-3","4609","39","1","Training","Stims/Figures/100-C-30-3.bmp","None","Right","39","5","14","10","N","J","78"
"","","approach-retreat","82","789108","0.0-82.0","","","2-3","5152","39","1","Training","Stims/Figures/118-C-20-2.bmp","None","Right","39","5","15","10","N","J","79"
"","","approach-retreat","83","796085","0.0-83.0","","","2-3","5463","37","0","Training","Stims/Figures/111-J-10-3.bmp","None","Left","39","5","16","10","N","J","80"
"","","approach-retreat","84","802811","0.0-84.0","","","2-3","5213","38","1","Training","Stims/Figures/111-C-30-3.bmp","None","Up","38","6","1","10","N","J","81"
"","","approach-retreat","85","809166","0.0-85.0","","","2-3","4841","38","1","Training","Stims/Figures/100-C-30-3.bmp","None","Up","38","6","2","10","N","J","82"
"","","approach-retreat","86","816338","0.0-86.0","","","2-3","5658","38","1","Training","Stims/Figures/57-C-30-1.bmp","None","Up","38","6","3","10","N","J","83"
"","","approach-retreat","87","822222","0.0-87.0","","","2-3","4369","39","1","Training","Stims/Figures/7-C-20-4.bmp","None","Right","39","6","4","10","N","J","84"
"","","approach-retreat","88","830761","0.0-88.0","","","2-3","7025","40","1","Training","Stims/Figures/71-C-30-1.bmp","None","Down","40","6","5","10","N","J","85"
"","","approach-retreat","89","837903","0.0-89.0","","","2-3","5626","37","1","Training","Stims/Figures/19-C-20-4.bmp","None","Left","37","6","6","10","N","J","86"
"","","approach-retreat","90","843910","0.0-90.0","","","2-3","4494","37","1","Training","Stims/Figures/57-J-0-1.bmp","None","Right","37","6","7","10","N","J","87"
"","","approach-retreat","91","850114","0.0-91.0","","","2-3","4686","39","1","Training","Stims/Figures/111-J-10-3.bmp","None","Left","39","6","8","10","N","J","88"
"","","approach-retreat","92","856039","0.0-92.0","","","2-3","4412","39","1","Training","Stims/Figures/94-J-0-2.bmp","None","Left","39","6","9","10","N","J","89"
"","","approach-retreat","93","862056","0.0-93.0","","","2-3","4502","37","1","Training","Stims/Figures/19-J-10-4.bmp","None","Right","37","6","10","10","N","J","90"
"","","approach-retreat","94","870266","0.0-94.0","","","2-3","6694","38","1","Training","Stims/Figures/100-J-10-3.bmp","None","Down","38","6","11","10","N","J","91"
"","","approach-retreat","95","876704","0.0-95.0","","","2-3","4924","38","1","Training","Stims/Figures/7-J-10-4.bmp","None","Down","38","6","12","10","N","J","92"
"","","approach-retreat","96","883390","0.0-96.0","","","2-3","5173","40","1","Training","Stims/Figures/71-J-0-1.bmp","None","Up","40","6","13","10","N","J","93"
"","","approach-retreat","97","889146","0.0-97.0","","","2-3","4238","39","1","Training","Stims/Figures/118-J-0-2.bmp","None","Left","39","6","14","10","N","J","94"
"","","approach-retreat","98","895800","0.0-98.0","","","2-3","5138","40","1","Training","Stims/Figures/94-C-20-2.bmp","None","Down","40","6","15","10","N","J","95"
"","","approach-retreat","99","902175","0.0-99.0","","","2-3","4859","39","1","Training","Stims/Figures/118-C-20-2.bmp","None","Right","39","6","16","10","N","J","96"
"","","approach-retreat","100","908936","0.0-100.0","","","2-3","5246","39","1","Training","Stims/Figures/94-J-0-2.bmp","None","Left","39","7","1","10","N","J","97"
"","","approach-retreat","101","914588","0.0-101.0","","","2-3","4136","39","1","Training","Stims/Figures/100-J-10-3.bmp","None","Left","39","7","2","10","N","J","98"
"","","approach-retreat","102","920838","0.0-102.0","","","2-3","4736","38","1","Training","Stims/Figures/57-C-30-1.bmp","None","Up","38","7","3","10","N","J","99"
"","","approach-retreat","103","927866","0.0-103.0","","","2-3","5512","38","1","Training","Stims/Figures/7-J-10-4.bmp","None","Down","38","7","4","10","N","J","100"
"","","approach-retreat","104","933888","0.0-104.0","","","2-3","4508","38","1","Training","Stims/Figures/100-C-30-3.bmp","None","Up","38","7","5","10","N","J","101"
"","","approach-retreat","105","939810","0.0-105.0","","","2-3","4405","37","1","Training","Stims/Figures/118-C-20-2.bmp","None","Left","37","7","6","10","N","J","102"
"","","approach-retreat","106","946054","0.0-106.0","","","2-3","4730","39","1","Training","Stims/Figures/118-J-0-2.bmp","None","Left","39","7","7","10","N","J","103"
"","","approach-retreat","107","953148","0.0-107.0","","","2-3","5581","40","1","Training","Stims/Figures/111-J-10-3.bmp","None","Up","40","7","8","10","N","J","104"
"","","approach-retreat","108","959082","0.0-108.0","","","2-3","4419","38","1","Training","Stims/Figures/57-J-0-1.bmp","None","Down","38","7","9","10","N","J","105"
"","","approach-retreat","109","965057","0.0-109.0","","","2-3","4458","37","1","Training","Stims/Figures/19-J-10-4.bmp","None","Right","37","7","10","10","N","J","106"
"","","approach-retreat","110","971439","0.0-110.0","","","2-3","4867","39","1","Training","Stims/Figures/7-C-20-4.bmp","None","Right","39","7","11","10","N","J","107"
"","","approach-retreat","111","977865","0.0-111.0","","","2-3","4910","39","1","Training","Stims/Figures/71-C-30-1.bmp","None","Right","39","7","12","10","N","J","108"
"","","approach-retreat","112","984029","0.0-112.0","","","2-3","4647","40","1","Training","Stims/Figures/71-J-0-1.bmp","None","Up","40","7","13","10","N","J","109"
"","","approach-retreat","113","992125","0.0-113.0","","","2-3","6581","39","1","Training","Stims/Figures/111-C-30-3.bmp","None","Right","39","7","14","10","N","J","110"
"","","approach-retreat","114","998490","0.0-114.0","","","2-3","4851","40","1","Training","Stims/Figures/19-C-20-4.bmp","None","Down","40","7","15","10","N","J","111"
"","","approach-retreat","115","1004336","0.0-115.0","","","2-3","4329","40","1","Training","Stims/Figures/94-C-20-2.bmp","None","Down","40","7","16","10","N","J","112"
"","","approach-retreat","116","1011487","0.0-116.0","","","2-3","5636","39","1","Training","Stims/Figures/111-C-30-3.bmp","None","Right","39","8","1","10","N","J","113"
"","","approach-retreat","117","1017661","0.0-117.0","","","2-3","4656","39","1","Training","Stims/Figures/57-C-30-1.bmp","None","Right","39","8","2","10","N","J","114"
"","","approach-retreat","118","1023598","0.0-118.0","","","2-3","4421","37","1","Training","Stims/Figures/19-C-20-4.bmp","None","Left","37","8","3","10","N","J","115"
"","","approach-retreat","119","1029713","0.0-119.0","","","2-3","4600","38","1","Training","Stims/Figures/100-C-30-3.bmp","None","Up","38","8","4","10","N","J","116"
"","","approach-retreat","120","1035594","0.0-120.0","","","2-3","4366","38","1","Training","Stims/Figures/57-J-0-1.bmp","None","Down","38","8","5","10","N","J","117"
"","","approach-retreat","121","1042122","0.0-121.0","","","2-3","5013","37","1","Training","Stims/Figures/71-J-0-1.bmp","None","Right","37","8","6","10","N","J","118"
"","","approach-retreat","122","1048657","0.0-122.0","","","2-3","5022","37","1","Training","Stims/Figures/71-C-30-1.bmp","None","Left","37","8","7","10","N","J","119"
"","","approach-retreat","123","1054928","0.0-123.0","","","2-3","4757","39","1","Training","Stims/Figures/118-J-0-2.bmp","None","Left","39","8","8","10","N","J","120"
"","","approach-retreat","124","1060688","0.0-124.0","","","2-3","4245","38","1","Training","Stims/Figures/19-J-10-4.bmp","None","Down","38","8","9","10","N","J","121"
"","","approach-retreat","125","1066944","0.0-125.0","","","2-3","4742","38","1","Training","Stims/Figures/94-C-20-2.bmp","None","Up","38","8","10","10","N","J","122"
"","","approach-retreat","126","1072668","0.0-126.0","","","2-3","4210","40","1","Training","Stims/Figures/100-J-10-3.bmp","None","Up","40","8","11","10","N","J","123"
"","","approach-retreat","127","1079737","0.0-127.0","","","2-3","5554","38","1","Training","Stims/Figures/118-C-20-2.bmp","None","Up","38","8","12","10","N","J","124"
"","","approach-retreat","128","1089035","0.0-128.0","","","2-3","7783","38","1","Training","Stims/Figures/7-J-10-4.bmp","None","Down","38","8","13","10","N","J","125"
"","","approach-retreat","129","1095666","0.0-129.0","","","2-3","5116","38","1","Training","Stims/Figures/111-J-10-3.bmp","None","Down","38","8","14","10","N","J","126"
"","","approach-retreat","130","1101968","0.0-130.0","","","2-3","4788","39","1","Training","Stims/Figures/7-C-20-4.bmp","None","Right","39","8","15","10","N","J","127"
"","","approach-retreat","131","1108058","0.0-131.0","","","2-3","4573","39","1","Training","Stims/Figures/94-J-0-2.bmp","None","Left","39","8","16","10","N","J","128"
"","","approach-retreat","132","1115237","0.0-132.0","","","2-3","5664","39","1","Training","Stims/Figures/7-J-10-4.bmp","None","Left","39","9","1","10","N","J","129"
"","","approach-retreat","133","1125339","0.0-133.0","","","2-3","8586","40","1","Training","Stims/Figures/118-J-0-2.bmp","None","Up","40","9","2","10","N","J","130"
"","","approach-retreat","134","1135457","0.0-134.0","","","2-3","8602","40","1","Training","Stims/Figures/57-C-30-1.bmp","None","Down","40","9","3","10","N","J","131"
"","","approach-retreat","135","1144929","0.0-135.0","","","2-3","7958","39","1","Training","Stims/Figures/94-C-20-2.bmp","None","Right","39","9","4","10","N","J","132"
"","","approach-retreat","136","1155912","0.0-136.0","","","2-3","9469","38","1","Training","Stims/Figures/71-J-0-1.bmp","None","Down","38","9","5","10","N","J","133"
"","","approach-retreat","137","1164413","0.0-137.0","","","2-3","6988","38","1","Training","Stims/Figures/100-C-30-3.bmp","None","Up","38","9","6","10","N","J","134"
"","","approach-retreat","138","1172640","0.0-138.0","","","2-3","6712","39","1","Training","Stims/Figures/7-C-20-4.bmp","None","Right","39","9","7","10","N","J","135"
"","","approach-retreat","139","1179022","0.0-139.0","","","2-3","4866","38","1","Training","Stims/Figures/100-J-10-3.bmp","None","Down","38","9","8","10","N","J","136"
"","","approach-retreat","140","1195966","0.0-140.0","","","2-3","15428","37","1","Training","Stims/Figures/71-C-30-1.bmp","None","Left","37","9","9","10","N","J","137"
"","","approach-retreat","141","1205719","0.0-141.0","","","2-3","8246","39","1","Training","Stims/Figures/118-C-20-2.bmp","None","Right","39","9","10","10","N","J","138"
"","","approach-retreat","142","1214051","0.0-142.0","","","2-3","6819","39","1","Training","Stims/Figures/19-J-10-4.bmp","None","Left","39","9","11","10","N","J","139"
"","","approach-retreat","143","1223239","0.0-143.0","","","2-3","7675","40","1","Training","Stims/Figures/111-C-30-3.bmp","None","Down","40","9","12","10","N","J","140"
"","","approach-retreat","144","1230045","0.0-144.0","","","2-3","5292","38","1","Training","Stims/Figures/19-C-20-4.bmp","None","Up","38","9","13","10","N","J","141"
"","","approach-retreat","145","1236447","0.0-145.0","","","2-3","4887","37","1","Training","Stims/Figures/94-J-0-2.bmp","None","Right","37","9","14","10","N","J","142"
"","","approach-retreat","146","1246670","0.0-146.0","","","2-3","8708","39","1","Training","Stims/Figures/57-J-0-1.bmp","None","Left","39","9","15","10","N","J","143"
"","","approach-retreat","147","1254438","0.0-147.0","","","2-3","6253","40","1","Training","Stims/Figures/111-J-10-3.bmp","None","Up","40","9","16","10","N","J","144"
"18593","","instructions","148","1273031","0.0-148.0","[{""page_index"":0,""viewing_time"":18592}]","","","","","","","","","","","","","","","",""
"","","approach-retreat","149","1279136","0.0-149.0","","","2-3","4591","40","1","Testing","Stims/Figures/7-J-10-4.bmp","None","Up","40","1","1","10","N","J","1"
"","","approach-retreat","150","1285469","0.0-150.0","","","2-3","4816","39","1","Testing","Stims/Figures/19-J-10-4.bmp","None","Left","39","1","2","10","N","J","2"
"","","approach-retreat","151","1291798","0.0-151.0","","","2-3","4815","37","1","Testing","Stims/Figures/94-C-20-2.bmp","None","Left","37","1","3","10","N","J","3"
"","","approach-retreat","152","1299360","0.0-152.0","","","2-3","6048","37","1","Testing","Stims/Figures/87-J-10-4.bmp","None","Right","37","1","4","10","N","J","4"
"","","approach-retreat","153","1305783","0.0-153.0","","","2-3","4906","40","0","Testing","Stims/Figures/118-C-20-2.bmp","None","Up","38","1","5","10","N","J","5"
"","","approach-retreat","154","1312061","0.0-154.0","","","2-3","4763","37","1","Testing","Stims/Figures/71-C-30-1.bmp","None","Left","37","1","6","10","N","J","6"
"","","approach-retreat","155","1318405","0.0-155.0","","","2-3","4831","39","1","Testing","Stims/Figures/100-C-30-3.bmp","None","Right","39","1","7","10","N","J","7"
"","","approach-retreat","156","1324699","0.0-156.0","","","2-3","4780","38","1","Testing","Stims/Figures/71-J-0-1.bmp","None","Down","38","1","8","10","N","J","8"
"","","approach-retreat","157","1331727","0.0-157.0","","","2-3","5514","39","1","Testing","Stims/Figures/7-C-20-4.bmp","None","Right","39","1","9","10","N","J","9"
"","","approach-retreat","158","1337952","0.0-158.0","","","2-3","4712","40","1","Testing","Stims/Figures/93-J-0-1.bmp","None","Up","40","1","10","10","N","J","10"
"","","approach-retreat","159","1344463","0.0-159.0","","","2-3","4997","40","1","Testing","Stims/Figures/57-C-30-1.bmp","None","Down","40","1","11","10","N","J","11"
"","","approach-retreat","160","1351153","0.0-160.0","","","2-3","5175","40","1","Testing","Stims/Figures/44-J-10-3.bmp","None","Up","40","1","12","10","N","J","12"
"","","approach-retreat","161","1357635","0.0-161.0","","","2-3","4969","40","1","Testing","Stims/Figures/44-C-30-3.bmp","None","Down","40","1","13","10","N","J","13"
"","","approach-retreat","162","1364123","0.0-162.0","","","2-3","4974","38","1","Testing","Stims/Figures/57-J-0-1.bmp","None","Down","38","1","14","10","N","J","14"
"","","approach-retreat","163","1371027","0.0-163.0","","","2-3","5389","37","1","Testing","Stims/Figures/111-J-10-3.bmp","None","Right","37","1","15","10","N","J","15"
"","","approach-retreat","164","1377904","0.0-164.0","","","2-3","5361","39","1","Testing","Stims/Figures/87-C-20-4.bmp","None","Right","39","1","16","10","N","J","16"
"","","approach-retreat","165","1386391","0.0-165.0","","","2-3","6973","37","1","Testing","Stims/Figures/19-C-20-4.bmp","None","Left","37","1","17","10","N","J","17"
"","","approach-retreat","166","1392873","0.0-166.0","","","2-3","4968","38","1","Testing","Stims/Figures/100-J-10-3.bmp","None","Down","38","1","18","10","N","J","18"
"","","approach-retreat","167","1399243","0.0-167.0","","","2-3","4856","40","1","Testing","Stims/Figures/118-J-0-2.bmp","None","Up","40","1","19","10","N","J","19"
"","","approach-retreat","168","1405840","0.0-168.0","","","2-3","5090","38","1","Testing","Stims/Figures/139-J-0-2.bmp","None","Down","38","1","20","10","N","J","20"
"","","approach-retreat","169","1412268","0.0-169.0","","","2-3","4914","39","1","Testing","Stims/Figures/94-J-0-2.bmp","None","Left","39","1","21","10","N","J","21"
"","","approach-retreat","170","1418808","0.0-170.0","","","2-3","5026","39","1","Testing","Stims/Figures/111-C-30-3.bmp","None","Right","39","1","22","10","N","J","22"
"","","approach-retreat","171","1425186","0.0-171.0","","","2-3","4864","37","1","Testing","Stims/Figures/139-C-20-2.bmp","None","Left","37","1","23","10","N","J","23"
"","","approach-retreat","172","1431513","0.0-172.0","","","2-3","4812","38","1","Testing","Stims/Figures/93-C-30-1.bmp","None","Up","38","1","24","10","N","J","24"
"","","approach-retreat","173","1437716","0.0-173.0","","","2-3","4690","37","1","Testing","Stims/Figures/44-C-30-3.bmp","None","Left","37","2","1","10","N","J","25"
"","","approach-retreat","174","1443908","0.0-174.0","","","2-3","4678","39","1","Testing","Stims/Figures/44-J-10-3.bmp","None","Left","39","2","2","10","N","J","26"
"","","approach-retreat","175","1451424","0.0-175.0","","","2-3","6000","37","1","Testing","Stims/Figures/139-J-0-2.bmp","None","Right","37","2","3","10","N","J","27"
"","","approach-retreat","176","1460971","0.0-176.0","","","2-3","8034","37","1","Testing","Stims/Figures/93-J-0-1.bmp","None","Right","37","2","4","10","N","J","28"
"","","approach-retreat","177","1481906","0.0-177.0","","","2-3","19421","39","1","Testing","Stims/Figures/118-C-20-2.bmp","None","Right","39","2","5","10","N","J","29"
"","","approach-retreat","178","1488206","0.0-178.0","","","2-3","4786","37","1","Testing","Stims/Figures/100-C-30-3.bmp","None","Left","37","2","6","10","N","J","30"
"","","approach-retreat","179","1494342","0.0-179.0","","","2-3","4623","40","1","Testing","Stims/Figures/94-J-0-2.bmp","None","Up","40","2","7","10","N","J","31"
"","","approach-retreat","180","1500656","0.0-180.0","","","2-3","4800","40","1","Testing","Stims/Figures/87-C-20-4.bmp","None","Down","40","2","8","10","N","J","32"
"","","approach-retreat","181","1512099","0.0-181.0","","","2-3","9927","38","1","Testing","Stims/Figures/111-C-30-3.bmp","None","Up","38","2","9","10","N","J","33"
"","","approach-retreat","182","1518617","0.0-182.0","","","2-3","5003","37","1","Testing","Stims/Figures/57-J-0-1.bmp","None","Right","37","2","10","10","N","J","34"
"","","approach-retreat","183","1527170","0.0-183.0","","","2-3","7038","40","1","Testing","Stims/Figures/57-C-30-1.bmp","None","Down","40","2","11","10","N","J","35"
"","","approach-retreat","184","1533763","0.0-184.0","","","2-3","5080","38","1","Testing","Stims/Figures/7-C-20-4.bmp","None","Up","38","2","12","10","N","J","36"
"","","approach-retreat","185","1540323","0.0-185.0","","","2-3","5045","40","1","Testing","Stims/Figures/139-C-20-2.bmp","None","Down","40","2","13","10","N","J","37"
"","","approach-retreat","186","1546605","0.0-186.0","","","2-3","4769","37","1","Testing","Stims/Figures/111-J-10-3.bmp","None","Right","37","2","14","10","N","J","38"
"","","approach-retreat","187","1553558","0.0-187.0","","","2-3","5437","38","1","Testing","Stims/Figures/93-C-30-1.bmp","None","Up","38","2","15","10","N","J","39"
"","","approach-retreat","188","1559953","0.0-188.0","","","2-3","4878","38","1","Testing","Stims/Figures/71-J-0-1.bmp","None","Down","38","2","16","10","N","J","40"
"","","approach-retreat","189","1571141","0.0-189.0","","","2-3","9673","40","1","Testing","Stims/Figures/94-C-20-2.bmp","None","Down","40","2","17","10","N","J","41"
"","","approach-retreat","190","1578784","0.0-190.0","","","2-3","6128","39","1","Testing","Stims/Figures/100-J-10-3.bmp","None","Left","39","2","18","10","N","J","42"
"","","approach-retreat","191","1584886","0.0-191.0","","","2-3","4586","38","1","Testing","Stims/Figures/19-J-10-4.bmp","None","Down","38","2","19","10","N","J","43"
"","","approach-retreat","192","1592721","0.0-192.0","","","2-3","6320","40","0","Testing","Stims/Figures/19-C-20-4.bmp","None","Up","38","2","20","10","N","J","44"
"","","approach-retreat","193","1599147","0.0-193.0","","","2-3","4912","38","1","Testing","Stims/Figures/71-C-30-1.bmp","None","Up","38","2","21","10","N","J","45"
"","","approach-retreat","194","1605417","0.0-194.0","","","2-3","4757","37","1","Testing","Stims/Figures/7-J-10-4.bmp","None","Right","37","2","22","10","N","J","46"
"","","approach-retreat","195","1611733","0.0-195.0","","","2-3","4800","39","1","Testing","Stims/Figures/118-J-0-2.bmp","None","Left","39","2","23","10","N","J","47"
"","","approach-retreat","196","1617998","0.0-196.0","","","2-3","4751","39","1","Testing","Stims/Figures/87-J-10-4.bmp","None","Left","39","2","24","10","N","J","48"
"","","approach-retreat","197","1624112","0.0-197.0","","","2-3","4601","40","1","Testing","Stims/Figures/7-J-10-4.bmp","None","Up","40","3","1","10","N","J","49"
"","","approach-retreat","198","1630195","0.0-198.0","","","2-3","4570","40","1","Testing","Stims/Figures/93-C-30-1.bmp","None","Down","40","3","2","10","N","J","50"
"","","approach-retreat","199","1637306","0.0-199.0","","","2-3","5597","37","1","Testing","Stims/Figures/19-C-20-4.bmp","None","Left","37","3","3","10","N","J","51"
"","","approach-retreat","200","1643668","0.0-200.0","","","2-3","4847","40","1","Testing","Stims/Figures/19-J-10-4.bmp","None","Up","40","3","4","10","N","J","52"
"","","approach-retreat","201","1649925","0.0-201.0","","","2-3","4743","40","1","Testing","Stims/Figures/71-J-0-1.bmp","None","Up","40","3","5","10","N","J","53"
"","","approach-retreat","202","1657488","0.0-202.0","","","2-3","6050","40","1","Testing","Stims/Figures/100-J-10-3.bmp","None","Up","40","3","6","10","N","J","54"
"","","approach-retreat","203","1681312","0.0-203.0","","","2-3","22309","39","1","Testing","Stims/Figures/87-J-10-4.bmp","None","Left","39","3","7","10","N","J","55"
"","","approach-retreat","204","1689390","0.0-204.0","","","2-3","6566","37","1","Testing","Stims/Figures/57-J-0-1.bmp","None","Right","37","3","8","10","N","J","56"
"","","approach-retreat","205","1695643","0.0-205.0","","","2-3","4739","37","1","Testing","Stims/Figures/7-C-20-4.bmp","None","Left","37","3","9","10","N","J","57"
"","","approach-retreat","206","1703513","0.0-206.0","","","2-3","6355","37","1","Testing","Stims/Figures/44-C-30-3.bmp","None","Left","37","3","10","10","N","J","58"
"","","approach-retreat","207","1719954","0.0-207.0","","","2-3","14926","38","1","Testing","Stims/Figures/139-J-0-2.bmp","None","Down","38","3","11","10","N","J","59"
"","","approach-retreat","208","1726492","0.0-208.0","","","2-3","5023","37","1","Testing","Stims/Figures/139-C-20-2.bmp","None","Left","37","3","12","10","N","J","60"
"","","approach-retreat","209","1750733","0.0-209.0","","","2-3","22726","37","1","Testing","Stims/Figures/111-J-10-3.bmp","None","Right","37","3","13","10","N","J","61"
"","","approach-retreat","210","1756832","0.0-210.0","","","2-3","4586","38","1","Testing","Stims/Figures/118-J-0-2.bmp","None","Down","38","3","14","10","N","J","62"
"","","approach-retreat","211","1763057","0.0-211.0","","","2-3","4711","37","1","Testing","Stims/Figures/44-J-10-3.bmp","None","Right","37","3","15","10","N","J","63"
"","","approach-retreat","212","1772316","0.0-212.0","","","2-3","7746","39","1","Testing","Stims/Figures/94-C-20-2.bmp","None","Right","39","3","16","10","N","J","64"
"","","approach-retreat","213","1779409","0.0-213.0","","","2-3","5578","38","1","Testing","Stims/Figures/57-C-30-1.bmp","None","Up","38","3","17","10","N","J","65"
"","","approach-retreat","214","1785670","0.0-214.0","","","2-3","4748","38","1","Testing","Stims/Figures/94-J-0-2.bmp","None","Down","38","3","18","10","N","J","66"
"","","approach-retreat","215","1792033","0.0-215.0","","","2-3","4848","39","1","Testing","Stims/Figures/93-J-0-1.bmp","None","Left","39","3","19","10","N","J","67"
"","","approach-retreat","216","1798514","0.0-216.0","","","2-3","4967","40","1","Testing","Stims/Figures/87-C-20-4.bmp","None","Down","40","3","20","10","N","J","68"
"","","approach-retreat","217","1805080","0.0-217.0","","","2-3","5052","40","1","Testing","Stims/Figures/118-C-20-2.bmp","None","Down","40","3","21","10","N","J","69"
"","","approach-retreat","218","1812167","0.0-218.0","","","2-3","5573","38","1","Testing","Stims/Figures/71-C-30-1.bmp","None","Up","38","3","22","10","N","J","70"
"","","approach-retreat","219","1820239","0.0-219.0","","","2-3","6559","39","1","Testing","Stims/Figures/100-C-30-3.bmp","None","Right","39","3","23","10","N","J","71"
"","","approach-retreat","220","1826990","0.0-220.0","","","2-3","5236","39","1","Testing","Stims/Figures/111-C-30-3.bmp","None","Right","39","3","24","10","N","J","72"
"","","approach-retreat","221","1833011","0.0-221.0","","","2-3","4506","40","1","Testing","Stims/Figures/44-J-10-3.bmp","None","Up","40","4","1","10","N","J","73"
"","","approach-retreat","222","1843350","0.0-222.0","","","2-3","8825","37","1","Testing","Stims/Figures/87-J-10-4.bmp","None","Right","37","4","2","10","N","J","74"
"","","approach-retreat","223","1849790","0.0-223.0","","","2-3","4924","37","1","Testing","Stims/Figures/93-C-30-1.bmp","None","Left","37","4","3","10","N","J","75"
"","","approach-retreat","224","1857262","0.0-224.0","","","2-3","5956","39","1","Testing","Stims/Figures/100-C-30-3.bmp","None","Right","39","4","4","10","N","J","76"
"","","approach-retreat","225","1865455","0.0-225.0","","","2-3","6676","39","1","Testing","Stims/Figures/7-J-10-4.bmp","None","Left","39","4","5","10","N","J","77"
"","","approach-retreat","226","1871555","0.0-226.0","","","2-3","4587","40","1","Testing","Stims/Figures/57-J-0-1.bmp","None","Up","40","4","6","10","N","J","78"
"","","approach-retreat","227","1877842","0.0-227.0","","","2-3","4772","38","1","Testing","Stims/Figures/94-J-0-2.bmp","None","Down","38","4","7","10","N","J","79"
"","","approach-retreat","228","1884230","0.0-228.0","","","2-3","4873","37","1","Testing","Stims/Figures/111-C-30-3.bmp","None","Left","37","4","8","10","N","J","80"
"","","approach-retreat","229","1892180","0.0-229.0","","","2-3","6442","39","1","Testing","Stims/Figures/71-C-30-1.bmp","None","Right","39","4","9","10","N","J","81"
"","","approach-retreat","230","1898290","0.0-230.0","","","2-3","4593","40","1","Testing","Stims/Figures/44-C-30-3.bmp","None","Down","40","4","10","10","N","J","82"
"","","approach-retreat","231","1904964","0.0-231.0","","","2-3","5161","39","1","Testing","Stims/Figures/118-C-20-2.bmp","None","Right","39","4","11","10","N","J","83"
"","","approach-retreat","232","1910856","0.0-232.0","","","2-3","4379","39","1","Testing","Stims/Figures/7-C-20-4.bmp","None","Right","39","4","12","10","N","J","84"
"","","approach-retreat","233","1917176","0.0-233.0","","","2-3","4807","38","1","Testing","Stims/Figures/57-C-30-1.bmp","None","Up","38","4","13","10","N","J","85"
"","","approach-retreat","234","1925104","0.0-234.0","","","2-3","6414","38","1","Testing","Stims/Figures/139-C-20-2.bmp","None","Up","38","4","14","10","N","J","86"
"","","approach-retreat","235","1933167","0.0-235.0","","","2-3","6548","37","1","Testing","Stims/Figures/94-C-20-2.bmp","None","Left","37","4","15","10","N","J","87"
"","","approach-retreat","236","1939079","0.0-236.0","","","2-3","4398","40","1","Testing","Stims/Figures/93-J-0-1.bmp","None","Up","40","4","16","10","N","J","88"
"","","approach-retreat","237","1944950","0.0-237.0","","","2-3","4356","39","1","Testing","Stims/Figures/139-J-0-2.bmp","None","Left","39","4","17","10","N","J","89"
"","","approach-retreat","238","1950865","0.0-238.0","","","2-3","4401","38","1","Testing","Stims/Figures/111-J-10-3.bmp","None","Down","38","4","18","10","N","J","90"
"","","approach-retreat","239","1956524","0.0-239.0","","","2-3","4145","37","1","Testing","Stims/Figures/118-J-0-2.bmp","None","Right","37","4","19","10","N","J","91"
"","","approach-retreat","240","1962481","0.0-240.0","","","2-3","4443","40","1","Testing","Stims/Figures/19-C-20-4.bmp","None","Down","40","4","20","10","N","J","92"
"","","approach-retreat","241","1969568","0.0-241.0","","","2-3","5573","39","1","Testing","Stims/Figures/19-J-10-4.bmp","None","Left","39","4","21","10","N","J","93"
"","","approach-retreat","242","1977225","0.0-242.0","","","2-3","6142","38","1","Testing","Stims/Figures/100-J-10-3.bmp","None","Down","38","4","22","10","N","J","94"
"","","approach-retreat","243","1983058","0.0-243.0","","","2-3","4318","38","1","Testing","Stims/Figures/87-C-20-4.bmp","None","Up","38","4","23","10","N","J","95"
"","","approach-retreat","244","1988942","0.0-244.0","","","2-3","4368","38","1","Testing","Stims/Figures/71-J-0-1.bmp","None","Down","38","4","24","10","N","J","96"
"32149","","survey-text","245","2021101","0.0-245.0","","{""Q0"":""1038/2018""}","","","","","","","","","","","","","","",""
