\"rt\",\"key_press\",\"trial_type\",\"trial_index\",\"time_elapsed\",\"internal_node_id\",\"view_history\",\"responses\",\"Id\",\"Rt\",\"ResKeyCode\",\"ResCorr\",\"TrialType2\",\"Image\",\"Label\",\"Location\",\"CorrectResponse\",\"Block\",\"BlockTrial\",\"Condition\",\"LabelType\",\"Subcondition\",\"trialNum\"
\"19215\",\"32\",\"text\",\"0\",\"19219\",\"0.0-0.0-0.0\",\"\",\"\",\"\",\"\",\"\",\"\",\"\",\"\",\"\",\"\",\"\",\"\",\"\",\"\",\"\",\"\",\"\"
\"44175\",\"\",\"instructions\",\"1\",\"63397\",\"0.0-1.0\",\"[{\"\"page_index\"\":0,\"\"viewing_time\"\":44174}]\",\"\",\"\",\"\",\"\",\"\",\"\",\"\",\"\",\"\",\"\",\"\",\"\",\"\",\"\",\"\",\"\"
\"35977\",\"\",\"survey-multi-choice\",\"2\",\"99417\",\"0.0-2.0\",\"\",\"{\"\"Q0\"\":\"\"Da\"\",\"\"Q1\"\":\"\"Da\"\",\"\"Q2\"\":\"\"Da\"\",\"\"Q3\"\":\"\"Da\"\",\"\"Q4\"\":\"\"Da\"\",\"\"Q5\"\":\"\"Da\"\"}\",\"\",\"\",\"\",\"\",\"\",\"\",\"\",\"\",\"\",\"\",\"\",\"\",\"\",\"\",\"\"
\"\",\"\",\"bio\",\"3\",\"105369\",\"0.0-3.0\",\"\",\"{\"\"age\"\":\"\"19\"\",\"\"gender\"\":\"\"f\"\",\"\"specify\"\":\"\"\"\"}\",\"\",\"\",\"\",\"\",\"\",\"\",\"\",\"\",\"\",\"\",\"\",\"\",\"\",\"\",\"\"
\"\",\"\",\"approach-retreat\",\"4\",\"113936\",\"0.0-4.0\",\"\",\"\",\"1-3\",\"7049\",\"38\",\"1\",\"Training\",\"Stims/Figures/118-J-0-2.bmp\",\"za:ha:ha\",\"Down\",\"38\",\"1\",\"1\",\"6B\",\"C2\",\"J\",\"1\"
\"\",\"\",\"approach-retreat\",\"5\",\"121081\",\"0.0-5.0\",\"\",\"\",\"1-3\",\"5636\",\"39\",\"0\",\"Training\",\"Stims/Figures/118-C-20-2.bmp\",\"fa:fa:va\",\"Left\",\"37\",\"1\",\"2\",\"6B\",\"C1\",\"J\",\"2\"
\"\",\"\",\"approach-retreat\",\"6\",\"127664\",\"0.0-6.0\",\"\",\"\",\"1-3\",\"5075\",\"37\",\"1\",\"Training\",\"Stims/Figures/128-C-30-3.bmp\",\"fa:shasha\",\"Left\",\"37\",\"1\",\"3\",\"6B\",\"C1\",\"J\",\"3\"
\"\",\"\",\"approach-retreat\",\"7\",\"134240\",\"0.0-7.0\",\"\",\"\",\"1-3\",\"5066\",\"40\",\"1\",\"Training\",\"Stims/Figures/44-C-30-3.bmp\",\"fafa:va\",\"Down\",\"40\",\"1\",\"4\",\"6B\",\"C1\",\"J\",\"4\"
\"\",\"\",\"approach-retreat\",\"8\",\"140106\",\"0.0-8.0\",\"\",\"\",\"1-3\",\"4358\",\"37\",\"0\",\"Training\",\"Stims/Figures/84-C-20-2.bmp\",\"vafa:sha\",\"Right\",\"39\",\"1\",\"5\",\"6B\",\"C1\",\"J\",\"5\"
\"\",\"\",\"approach-retreat\",\"9\",\"146397\",\"0.0-9.0\",\"\",\"\",\"1-3\",\"4784\",\"40\",\"0\",\"Training\",\"Stims/Figures/128-J-10-3.bmp\",\"sa:ha:ha\",\"Down\",\"38\",\"1\",\"6\",\"6B\",\"C2\",\"J\",\"6\"
\"\",\"\",\"approach-retreat\",\"10\",\"152716\",\"0.0-10.0\",\"\",\"\",\"1-3\",\"4811\",\"40\",\"1\",\"Training\",\"Stims/Figures/19-J-10-4.bmp\",\"saha:za\",\"Up\",\"40\",\"1\",\"7\",\"6B\",\"C2\",\"J\",\"7\"
\"\",\"\",\"approach-retreat\",\"11\",\"159393\",\"0.0-11.0\",\"\",\"\",\"1-3\",\"5169\",\"39\",\"0\",\"Training\",\"Stims/Figures/44-J-10-3.bmp\",\"saha:ha\",\"Right\",\"37\",\"1\",\"8\",\"6B\",\"C2\",\"J\",\"8\"
\"\",\"\",\"approach-retreat\",\"12\",\"167149\",\"0.0-12.0\",\"\",\"\",\"1-3\",\"6249\",\"37\",\"1\",\"Training\",\"Stims/Figures/57-C-30-1.bmp\",\"fa:sha:va\",\"Left\",\"37\",\"1\",\"9\",\"6B\",\"C1\",\"J\",\"9\"
\"\",\"\",\"approach-retreat\",\"13\",\"173246\",\"0.0-13.0\",\"\",\"\",\"1-3\",\"4589\",\"37\",\"0\",\"Training\",\"Stims/Figures/74-C-20-4.bmp\",\"va:fa:va\",\"Right\",\"39\",\"1\",\"10\",\"6B\",\"C1\",\"J\",\"10\"
\"\",\"\",\"approach-retreat\",\"14\",\"180525\",\"0.0-14.0\",\"\",\"\",\"1-3\",\"5771\",\"37\",\"0\",\"Training\",\"Stims/Figures/27-C-30-1.bmp\",\"vafa:va\",\"Right\",\"39\",\"1\",\"11\",\"6B\",\"C1\",\"J\",\"11\"
\"\",\"\",\"approach-retreat\",\"15\",\"186611\",\"0.0-15.0\",\"\",\"\",\"1-3\",\"4579\",\"40\",\"1\",\"Training\",\"Stims/Figures/57-J-0-1.bmp\",\"zasa:ha\",\"Up\",\"40\",\"1\",\"12\",\"6B\",\"C2\",\"J\",\"12\"
\"\",\"\",\"approach-retreat\",\"16\",\"193271\",\"0.0-16.0\",\"\",\"\",\"1-3\",\"5151\",\"38\",\"0\",\"Training\",\"Stims/Figures/84-J-0-2.bmp\",\"zasa:za\",\"Up\",\"40\",\"1\",\"13\",\"6B\",\"C2\",\"J\",\"13\"
\"\",\"\",\"approach-retreat\",\"17\",\"199771\",\"0.0-17.0\",\"\",\"\",\"1-3\",\"4990\",\"37\",\"0\",\"Training\",\"Stims/Figures/27-J-0-1.bmp\",\"sa:ha:za\",\"Left\",\"39\",\"1\",\"14\",\"6B\",\"C2\",\"J\",\"14\"
\"\",\"\",\"approach-retreat\",\"18\",\"206384\",\"0.0-18.0\",\"\",\"\",\"1-3\",\"5105\",\"38\",\"0\",\"Training\",\"Stims/Figures/19-C-20-4.bmp\",\"va:sha:sha\",\"Down\",\"40\",\"1\",\"15\",\"6B\",\"C1\",\"J\",\"15\"
\"\",\"\",\"approach-retreat\",\"19\",\"212286\",\"0.0-19.0\",\"\",\"\",\"1-3\",\"4395\",\"40\",\"1\",\"Training\",\"Stims/Figures/74-J-10-4.bmp\",\"zahaha\",\"Up\",\"40\",\"1\",\"16\",\"6B\",\"C2\",\"J\",\"16\"
\"\",\"\",\"approach-retreat\",\"20\",\"218861\",\"0.0-20.0\",\"\",\"\",\"1-3\",\"5067\",\"39\",\"0\",\"Training\",\"Stims/Figures/84-J-0-2.bmp\",\"zasa:za\",\"Right\",\"37\",\"2\",\"1\",\"6B\",\"C2\",\"J\",\"17\"
\"\",\"\",\"approach-retreat\",\"21\",\"224843\",\"0.0-21.0\",\"\",\"\",\"1-3\",\"4473\",\"37\",\"0\",\"Training\",\"Stims/Figures/44-J-10-3.bmp\",\"saha:ha\",\"Left\",\"39\",\"2\",\"2\",\"6B\",\"C2\",\"J\",\"18\"
\"\",\"\",\"approach-retreat\",\"22\",\"230906\",\"0.0-22.0\",\"\",\"\",\"1-3\",\"4554\",\"40\",\"0\",\"Training\",\"Stims/Figures/84-C-20-2.bmp\",\"vafa:sha\",\"Up\",\"38\",\"2\",\"3\",\"6B\",\"C1\",\"J\",\"19\"
\"\",\"\",\"approach-retreat\",\"23\",\"237249\",\"0.0-23.0\",\"\",\"\",\"1-3\",\"4836\",\"40\",\"1\",\"Training\",\"Stims/Figures/74-J-10-4.bmp\",\"zahaha\",\"Up\",\"40\",\"2\",\"4\",\"6B\",\"C2\",\"J\",\"20\"
\"\",\"\",\"approach-retreat\",\"24\",\"244927\",\"0.0-24.0\",\"\",\"\",\"1-3\",\"6171\",\"40\",\"0\",\"Training\",\"Stims/Figures/128-J-10-3.bmp\",\"sa:ha:ha\",\"Down\",\"38\",\"2\",\"5\",\"6B\",\"C2\",\"J\",\"21\"
\"\",\"\",\"approach-retreat\",\"25\",\"252628\",\"0.0-25.0\",\"\",\"\",\"1-3\",\"6192\",\"39\",\"1\",\"Training\",\"Stims/Figures/27-C-30-1.bmp\",\"vafa:va\",\"Right\",\"39\",\"2\",\"6\",\"6B\",\"C1\",\"J\",\"22\"
\"\",\"\",\"approach-retreat\",\"26\",\"258522\",\"0.0-26.0\",\"\",\"\",\"1-3\",\"4385\",\"37\",\"1\",\"Training\",\"Stims/Figures/118-C-20-2.bmp\",\"fa:fa:va\",\"Left\",\"37\",\"2\",\"7\",\"6B\",\"C1\",\"J\",\"23\"
\"\",\"\",\"approach-retreat\",\"27\",\"264825\",\"0.0-27.0\",\"\",\"\",\"1-3\",\"4794\",\"40\",\"0\",\"Training\",\"Stims/Figures/74-C-20-4.bmp\",\"va:fa:va\",\"Up\",\"38\",\"2\",\"8\",\"6B\",\"C1\",\"J\",\"24\"
\"\",\"\",\"approach-retreat\",\"28\",\"271420\",\"0.0-28.0\",\"\",\"\",\"1-3\",\"5088\",\"39\",\"1\",\"Training\",\"Stims/Figures/44-C-30-3.bmp\",\"fafa:va\",\"Right\",\"39\",\"2\",\"9\",\"6B\",\"C1\",\"J\",\"25\"
\"\",\"\",\"approach-retreat\",\"29\",\"277657\",\"0.0-29.0\",\"\",\"\",\"1-3\",\"4728\",\"38\",\"0\",\"Training\",\"Stims/Figures/57-C-30-1.bmp\",\"fa:sha:va\",\"Down\",\"40\",\"2\",\"10\",\"6B\",\"C1\",\"J\",\"26\"
\"\",\"\",\"approach-retreat\",\"30\",\"285718\",\"0.0-30.0\",\"\",\"\",\"1-3\",\"6554\",\"39\",\"0\",\"Training\",\"Stims/Figures/19-J-10-4.bmp\",\"saha:za\",\"Right\",\"37\",\"2\",\"11\",\"6B\",\"C2\",\"J\",\"27\"
\"\",\"\",\"approach-retreat\",\"31\",\"291910\",\"0.0-31.0\",\"\",\"\",\"1-3\",\"4684\",\"37\",\"0\",\"Training\",\"Stims/Figures/27-J-0-1.bmp\",\"sa:ha:za\",\"Left\",\"39\",\"2\",\"12\",\"6B\",\"C2\",\"J\",\"28\"
\"\",\"\",\"approach-retreat\",\"32\",\"298677\",\"0.0-32.0\",\"\",\"\",\"1-3\",\"5258\",\"40\",\"1\",\"Training\",\"Stims/Figures/128-C-30-3.bmp\",\"fa:shasha\",\"Down\",\"40\",\"2\",\"13\",\"6B\",\"C1\",\"J\",\"29\"
\"\",\"\",\"approach-retreat\",\"33\",\"305911\",\"0.0-33.0\",\"\",\"\",\"1-3\",\"5727\",\"39\",\"0\",\"Training\",\"Stims/Figures/19-C-20-4.bmp\",\"va:sha:sha\",\"Left\",\"37\",\"2\",\"14\",\"6B\",\"C1\",\"J\",\"30\"
\"\",\"\",\"approach-retreat\",\"34\",\"314816\",\"0.0-34.0\",\"\",\"\",\"1-3\",\"6998\",\"40\",\"1\",\"Training\",\"Stims/Figures/57-J-0-1.bmp\",\"zasa:ha\",\"Up\",\"40\",\"2\",\"15\",\"6B\",\"C2\",\"J\",\"31\"
\"\",\"\",\"approach-retreat\",\"35\",\"321614\",\"0.0-35.0\",\"\",\"\",\"1-3\",\"5289\",\"40\",\"0\",\"Training\",\"Stims/Figures/118-J-0-2.bmp\",\"za:ha:ha\",\"Down\",\"38\",\"2\",\"16\",\"6B\",\"C2\",\"J\",\"32\"
\"\",\"\",\"approach-retreat\",\"36\",\"329901\",\"0.0-36.0\",\"\",\"\",\"1-3\",\"6780\",\"39\",\"1\",\"Training\",\"Stims/Figures/118-C-20-2.bmp\",\"fa:fa:va\",\"Right\",\"39\",\"3\",\"1\",\"6B\",\"C1\",\"J\",\"33\"
\"\",\"\",\"approach-retreat\",\"37\",\"337384\",\"0.0-37.0\",\"\",\"\",\"1-3\",\"5975\",\"40\",\"0\",\"Training\",\"Stims/Figures/57-C-30-1.bmp\",\"fa:sha:va\",\"Up\",\"38\",\"3\",\"2\",\"6B\",\"C1\",\"J\",\"34\"
\"\",\"\",\"approach-retreat\",\"38\",\"343218\",\"0.0-38.0\",\"\",\"\",\"1-3\",\"4326\",\"37\",\"0\",\"Training\",\"Stims/Figures/118-J-0-2.bmp\",\"za:ha:ha\",\"Left\",\"39\",\"3\",\"3\",\"6B\",\"C2\",\"J\",\"35\"
\"\",\"\",\"approach-retreat\",\"39\",\"349470\",\"0.0-39.0\",\"\",\"\",\"1-3\",\"4744\",\"40\",\"1\",\"Training\",\"Stims/Figures/128-C-30-3.bmp\",\"fa:shasha\",\"Down\",\"40\",\"3\",\"4\",\"6B\",\"C1\",\"J\",\"36\"
\"\",\"\",\"approach-retreat\",\"40\",\"359781\",\"0.0-40.0\",\"\",\"\",\"1-3\",\"8803\",\"40\",\"1\",\"Training\",\"Stims/Figures/19-J-10-4.bmp\",\"saha:za\",\"Up\",\"40\",\"3\",\"5\",\"6B\",\"C2\",\"J\",\"37\"
\"\",\"\",\"approach-retreat\",\"41\",\"365837\",\"0.0-41.0\",\"\",\"\",\"1-3\",\"4547\",\"38\",\"1\",\"Training\",\"Stims/Figures/74-C-20-4.bmp\",\"va:fa:va\",\"Up\",\"38\",\"3\",\"6\",\"6B\",\"C1\",\"J\",\"38\"
\"\",\"\",\"approach-retreat\",\"42\",\"371999\",\"0.0-42.0\",\"\",\"\",\"1-3\",\"4655\",\"39\",\"1\",\"Training\",\"Stims/Figures/84-C-20-2.bmp\",\"vafa:sha\",\"Right\",\"39\",\"3\",\"7\",\"6B\",\"C1\",\"J\",\"39\"
\"\",\"\",\"approach-retreat\",\"43\",\"378279\",\"0.0-43.0\",\"\",\"\",\"1-3\",\"4772\",\"40\",\"1\",\"Training\",\"Stims/Figures/44-C-30-3.bmp\",\"fafa:va\",\"Down\",\"40\",\"3\",\"8\",\"6B\",\"C1\",\"J\",\"40\"
\"\",\"\",\"approach-retreat\",\"44\",\"384226\",\"0.0-44.0\",\"\",\"\",\"1-3\",\"4439\",\"37\",\"0\",\"Training\",\"Stims/Figures/44-J-10-3.bmp\",\"saha:ha\",\"Left\",\"39\",\"3\",\"9\",\"6B\",\"C2\",\"J\",\"41\"
\"\",\"\",\"approach-retreat\",\"45\",\"390004\",\"0.0-45.0\",\"\",\"\",\"1-3\",\"4269\",\"38\",\"1\",\"Training\",\"Stims/Figures/27-J-0-1.bmp\",\"sa:ha:za\",\"Down\",\"38\",\"3\",\"10\",\"6B\",\"C2\",\"J\",\"42\"
\"\",\"\",\"approach-retreat\",\"46\",\"395813\",\"0.0-46.0\",\"\",\"\",\"1-3\",\"4300\",\"39\",\"0\",\"Training\",\"Stims/Figures/19-C-20-4.bmp\",\"va:sha:sha\",\"Left\",\"37\",\"3\",\"11\",\"6B\",\"C1\",\"J\",\"43\"
\"\",\"\",\"approach-retreat\",\"47\",\"401778\",\"0.0-47.0\",\"\",\"\",\"1-3\",\"4456\",\"40\",\"1\",\"Training\",\"Stims/Figures/74-J-10-4.bmp\",\"zahaha\",\"Up\",\"40\",\"3\",\"12\",\"6B\",\"C2\",\"J\",\"44\"
\"\",\"\",\"approach-retreat\",\"48\",\"407549\",\"0.0-48.0\",\"\",\"\",\"1-3\",\"4264\",\"37\",\"1\",\"Training\",\"Stims/Figures/128-J-10-3.bmp\",\"sa:ha:ha\",\"Right\",\"37\",\"3\",\"13\",\"6B\",\"C2\",\"J\",\"45\"
\"\",\"\",\"approach-retreat\",\"49\",\"413415\",\"0.0-49.0\",\"\",\"\",\"1-3\",\"4358\",\"38\",\"1\",\"Training\",\"Stims/Figures/57-J-0-1.bmp\",\"zasa:ha\",\"Down\",\"38\",\"3\",\"14\",\"6B\",\"C2\",\"J\",\"46\"
\"\",\"\",\"approach-retreat\",\"50\",\"420553\",\"0.0-50.0\",\"\",\"\",\"1-3\",\"5629\",\"39\",\"1\",\"Training\",\"Stims/Figures/84-J-0-2.bmp\",\"zasa:za\",\"Left\",\"39\",\"3\",\"15\",\"6B\",\"C2\",\"J\",\"47\"
\"\",\"\",\"approach-retreat\",\"51\",\"426373\",\"0.0-51.0\",\"\",\"\",\"1-3\",\"4312\",\"37\",\"0\",\"Training\",\"Stims/Figures/27-C-30-1.bmp\",\"vafa:va\",\"Right\",\"39\",\"3\",\"16\",\"6B\",\"C1\",\"J\",\"48\"
\"\",\"\",\"approach-retreat\",\"52\",\"432522\",\"0.0-52.0\",\"\",\"\",\"1-3\",\"4642\",\"40\",\"1\",\"Training\",\"Stims/Figures/118-J-0-2.bmp\",\"za:ha:ha\",\"Up\",\"40\",\"4\",\"1\",\"6B\",\"C2\",\"J\",\"49\"
\"\",\"\",\"approach-retreat\",\"53\",\"439138\",\"0.0-53.0\",\"\",\"\",\"1-3\",\"5108\",\"40\",\"1\",\"Training\",\"Stims/Figures/19-C-20-4.bmp\",\"va:sha:sha\",\"Down\",\"40\",\"4\",\"2\",\"6B\",\"C1\",\"J\",\"50\"
\"\",\"\",\"approach-retreat\",\"54\",\"445697\",\"0.0-54.0\",\"\",\"\",\"1-3\",\"5049\",\"39\",\"1\",\"Training\",\"Stims/Figures/57-C-30-1.bmp\",\"fa:sha:va\",\"Right\",\"39\",\"4\",\"3\",\"6B\",\"C1\",\"J\",\"51\"
\"\",\"\",\"approach-retreat\",\"55\",\"451644\",\"0.0-55.0\",\"\",\"\",\"1-3\",\"4438\",\"39\",\"0\",\"Training\",\"Stims/Figures/44-C-30-3.bmp\",\"fafa:va\",\"Left\",\"37\",\"4\",\"4\",\"6B\",\"C1\",\"J\",\"52\"
\"\",\"\",\"approach-retreat\",\"56\",\"459831\",\"0.0-56.0\",\"\",\"\",\"1-3\",\"6680\",\"38\",\"0\",\"Training\",\"Stims/Figures/74-C-20-4.bmp\",\"va:fa:va\",\"Down\",\"40\",\"4\",\"5\",\"6B\",\"C1\",\"J\",\"53\"
\"\",\"\",\"approach-retreat\",\"57\",\"465657\",\"0.0-57.0\",\"\",\"\",\"1-3\",\"4317\",\"39\",\"1\",\"Training\",\"Stims/Figures/57-J-0-1.bmp\",\"zasa:ha\",\"Left\",\"39\",\"4\",\"6\",\"6B\",\"C2\",\"J\",\"54\"
\"\",\"\",\"approach-retreat\",\"58\",\"472525\",\"0.0-58.0\",\"\",\"\",\"1-3\",\"5358\",\"39\",\"0\",\"Training\",\"Stims/Figures/19-J-10-4.bmp\",\"saha:za\",\"Right\",\"37\",\"4\",\"7\",\"6B\",\"C2\",\"J\",\"55\"
\"\",\"\",\"approach-retreat\",\"59\",\"478455\",\"0.0-59.0\",\"\",\"\",\"1-3\",\"4421\",\"37\",\"0\",\"Training\",\"Stims/Figures/27-C-30-1.bmp\",\"vafa:va\",\"Right\",\"39\",\"4\",\"8\",\"6B\",\"C1\",\"J\",\"56\"
\"\",\"\",\"approach-retreat\",\"60\",\"484706\",\"0.0-60.0\",\"\",\"\",\"1-3\",\"4743\",\"40\",\"0\",\"Training\",\"Stims/Figures/128-C-30-3.bmp\",\"fa:shasha\",\"Up\",\"38\",\"4\",\"9\",\"6B\",\"C1\",\"J\",\"57\"
\"\",\"\",\"approach-retreat\",\"61\",\"490757\",\"0.0-61.0\",\"\",\"\",\"1-3\",\"4544\",\"39\",\"1\",\"Training\",\"Stims/Figures/128-J-10-3.bmp\",\"sa:ha:ha\",\"Left\",\"39\",\"4\",\"10\",\"6B\",\"C2\",\"J\",\"58\"
\"\",\"\",\"approach-retreat\",\"62\",\"498253\",\"0.0-62.0\",\"\",\"\",\"1-3\",\"5989\",\"39\",\"1\",\"Training\",\"Stims/Figures/84-J-0-2.bmp\",\"zasa:za\",\"Left\",\"39\",\"4\",\"11\",\"6B\",\"C2\",\"J\",\"59\"
\"\",\"\",\"approach-retreat\",\"63\",\"504285\",\"0.0-63.0\",\"\",\"\",\"1-3\",\"4524\",\"40\",\"1\",\"Training\",\"Stims/Figures/84-C-20-2.bmp\",\"vafa:sha\",\"Down\",\"40\",\"4\",\"12\",\"6B\",\"C1\",\"J\",\"60\"
\"\",\"\",\"approach-retreat\",\"64\",\"512769\",\"0.0-64.0\",\"\",\"\",\"1-3\",\"6976\",\"40\",\"1\",\"Training\",\"Stims/Figures/27-J-0-1.bmp\",\"sa:ha:za\",\"Up\",\"40\",\"4\",\"13\",\"6B\",\"C2\",\"J\",\"61\"
\"\",\"\",\"approach-retreat\",\"65\",\"520081\",\"0.0-65.0\",\"\",\"\",\"1-3\",\"5804\",\"39\",\"0\",\"Training\",\"Stims/Figures/44-J-10-3.bmp\",\"saha:ha\",\"Right\",\"37\",\"4\",\"14\",\"6B\",\"C2\",\"J\",\"62\"
\"\",\"\",\"approach-retreat\",\"66\",\"526141\",\"0.0-66.0\",\"\",\"\",\"1-3\",\"4552\",\"40\",\"1\",\"Training\",\"Stims/Figures/74-J-10-4.bmp\",\"zahaha\",\"Up\",\"40\",\"4\",\"15\",\"6B\",\"C2\",\"J\",\"63\"
\"\",\"\",\"approach-retreat\",\"67\",\"533256\",\"0.0-67.0\",\"\",\"\",\"1-3\",\"5608\",\"38\",\"0\",\"Training\",\"Stims/Figures/118-C-20-2.bmp\",\"fa:fa:va\",\"Down\",\"40\",\"4\",\"16\",\"6B\",\"C1\",\"J\",\"64\"
\"\",\"\",\"approach-retreat\",\"68\",\"540154\",\"0.0-68.0\",\"\",\"\",\"1-3\",\"5391\",\"37\",\"1\",\"Training\",\"Stims/Figures/128-J-10-3.bmp\",\"sa:ha:ha\",\"Right\",\"37\",\"5\",\"1\",\"6B\",\"C2\",\"J\",\"65\"
\"\",\"\",\"approach-retreat\",\"69\",\"546491\",\"0.0-69.0\",\"\",\"\",\"1-3\",\"4830\",\"39\",\"1\",\"Training\",\"Stims/Figures/84-J-0-2.bmp\",\"zasa:za\",\"Left\",\"39\",\"5\",\"2\",\"6B\",\"C2\",\"J\",\"66\"
\"\",\"\",\"approach-retreat\",\"70\",\"552974\",\"0.0-70.0\",\"\",\"\",\"1-3\",\"4976\",\"40\",\"1\",\"Training\",\"Stims/Figures/19-C-20-4.bmp\",\"va:sha:sha\",\"Down\",\"40\",\"5\",\"3\",\"6B\",\"C1\",\"J\",\"67\"
\"\",\"\",\"approach-retreat\",\"71\",\"559277\",\"0.0-71.0\",\"\",\"\",\"1-3\",\"4789\",\"37\",\"1\",\"Training\",\"Stims/Figures/74-J-10-4.bmp\",\"zahaha\",\"Right\",\"37\",\"5\",\"4\",\"6B\",\"C2\",\"J\",\"68\"
\"\",\"\",\"approach-retreat\",\"72\",\"565702\",\"0.0-72.0\",\"\",\"\",\"1-3\",\"4916\",\"40\",\"1\",\"Training\",\"Stims/Figures/27-C-30-1.bmp\",\"vafa:va\",\"Down\",\"40\",\"5\",\"5\",\"6B\",\"C1\",\"J\",\"69\"
\"\",\"\",\"approach-retreat\",\"73\",\"572202\",\"0.0-73.0\",\"\",\"\",\"1-3\",\"4992\",\"38\",\"0\",\"Training\",\"Stims/Figures/74-C-20-4.bmp\",\"va:fa:va\",\"Down\",\"40\",\"5\",\"6\",\"6B\",\"C1\",\"J\",\"70\"
\"\",\"\",\"approach-retreat\",\"74\",\"578215\",\"0.0-74.0\",\"\",\"\",\"1-3\",\"4506\",\"40\",\"0\",\"Training\",\"Stims/Figures/118-C-20-2.bmp\",\"fa:fa:va\",\"Up\",\"38\",\"5\",\"7\",\"6B\",\"C1\",\"J\",\"71\"
\"\",\"\",\"approach-retreat\",\"75\",\"584263\",\"0.0-75.0\",\"\",\"\",\"1-3\",\"4540\",\"40\",\"1\",\"Training\",\"Stims/Figures/19-J-10-4.bmp\",\"saha:za\",\"Up\",\"40\",\"5\",\"8\",\"6B\",\"C2\",\"J\",\"72\"
\"\",\"\",\"approach-retreat\",\"76\",\"591792\",\"0.0-76.0\",\"\",\"\",\"1-3\",\"6020\",\"38\",\"1\",\"Training\",\"Stims/Figures/84-C-20-2.bmp\",\"vafa:sha\",\"Up\",\"38\",\"5\",\"9\",\"6B\",\"C1\",\"J\",\"73\"
\"\",\"\",\"approach-retreat\",\"77\",\"599262\",\"0.0-77.0\",\"\",\"\",\"1-3\",\"5962\",\"37\",\"0\",\"Training\",\"Stims/Figures/118-J-0-2.bmp\",\"za:ha:ha\",\"Left\",\"39\",\"5\",\"10\",\"6B\",\"C2\",\"J\",\"74\"
\"\",\"\",\"approach-retreat\",\"78\",\"605568\",\"0.0-78.0\",\"\",\"\",\"1-3\",\"4798\",\"39\",\"0\",\"Training\",\"Stims/Figures/44-C-30-3.bmp\",\"fafa:va\",\"Left\",\"37\",\"5\",\"11\",\"6B\",\"C1\",\"J\",\"75\"
\"\",\"\",\"approach-retreat\",\"79\",\"612427\",\"0.0-79.0\",\"\",\"\",\"1-3\",\"5350\",\"39\",\"0\",\"Training\",\"Stims/Figures/27-J-0-1.bmp\",\"sa:ha:za\",\"Right\",\"37\",\"5\",\"12\",\"6B\",\"C2\",\"J\",\"76\"
\"\",\"\",\"approach-retreat\",\"80\",\"619891\",\"0.0-80.0\",\"\",\"\",\"1-3\",\"5956\",\"40\",\"0\",\"Training\",\"Stims/Figures/57-J-0-1.bmp\",\"zasa:ha\",\"Down\",\"38\",\"5\",\"13\",\"6B\",\"C2\",\"J\",\"77\"
\"\",\"\",\"approach-retreat\",\"81\",\"626120\",\"0.0-81.0\",\"\",\"\",\"1-3\",\"4722\",\"40\",\"1\",\"Training\",\"Stims/Figures/44-J-10-3.bmp\",\"saha:ha\",\"Up\",\"40\",\"5\",\"14\",\"6B\",\"C2\",\"J\",\"78\"
\"\",\"\",\"approach-retreat\",\"82\",\"634423\",\"0.0-82.0\",\"\",\"\",\"1-3\",\"6795\",\"39\",\"1\",\"Training\",\"Stims/Figures/57-C-30-1.bmp\",\"fa:sha:va\",\"Right\",\"39\",\"5\",\"15\",\"6B\",\"C1\",\"J\",\"79\"
\"\",\"\",\"approach-retreat\",\"83\",\"640366\",\"0.0-83.0\",\"\",\"\",\"1-3\",\"4434\",\"37\",\"1\",\"Training\",\"Stims/Figures/128-C-30-3.bmp\",\"fa:shasha\",\"Left\",\"37\",\"5\",\"16\",\"6B\",\"C1\",\"J\",\"80\"
\"\",\"\",\"approach-retreat\",\"84\",\"646960\",\"0.0-84.0\",\"\",\"\",\"1-3\",\"5087\",\"39\",\"0\",\"Training\",\"Stims/Figures/27-C-30-1.bmp\",\"vafa:va\",\"Left\",\"37\",\"6\",\"1\",\"6B\",\"C1\",\"J\",\"81\"
\"\",\"\",\"approach-retreat\",\"85\",\"653130\",\"0.0-85.0\",\"\",\"\",\"1-3\",\"4663\",\"40\",\"1\",\"Training\",\"Stims/Figures/118-C-20-2.bmp\",\"fa:fa:va\",\"Down\",\"40\",\"6\",\"2\",\"6B\",\"C1\",\"J\",\"82\"
\"\",\"\",\"approach-retreat\",\"86\",\"660597\",\"0.0-86.0\",\"\",\"\",\"1-3\",\"5958\",\"39\",\"0\",\"Training\",\"Stims/Figures/74-J-10-4.bmp\",\"zahaha\",\"Right\",\"37\",\"6\",\"3\",\"6B\",\"C2\",\"J\",\"83\"
\"\",\"\",\"approach-retreat\",\"87\",\"667543\",\"0.0-87.0\",\"\",\"\",\"1-3\",\"5439\",\"38\",\"1\",\"Training\",\"Stims/Figures/84-J-0-2.bmp\",\"zasa:za\",\"Down\",\"38\",\"6\",\"4\",\"6B\",\"C2\",\"J\",\"84\"
\"\",\"\",\"approach-retreat\",\"88\",\"675966\",\"0.0-88.0\",\"\",\"\",\"1-3\",\"6915\",\"38\",\"0\",\"Training\",\"Stims/Figures/128-J-10-3.bmp\",\"sa:ha:ha\",\"Up\",\"40\",\"6\",\"5\",\"6B\",\"C2\",\"J\",\"85\"
\"\",\"\",\"approach-retreat\",\"89\",\"684139\",\"0.0-89.0\",\"\",\"\",\"1-3\",\"6664\",\"38\",\"0\",\"Training\",\"Stims/Figures/57-C-30-1.bmp\",\"fa:sha:va\",\"Down\",\"40\",\"6\",\"6\",\"6B\",\"C1\",\"J\",\"86\"
\"\",\"\",\"approach-retreat\",\"90\",\"689889\",\"0.0-90.0\",\"\",\"\",\"1-3\",\"4242\",\"40\",\"1\",\"Training\",\"Stims/Figures/44-C-30-3.bmp\",\"fafa:va\",\"Down\",\"40\",\"6\",\"7\",\"6B\",\"C1\",\"J\",\"87\"
\"\",\"\",\"approach-retreat\",\"91\",\"697920\",\"0.0-91.0\",\"\",\"\",\"1-3\",\"6521\",\"39\",\"1\",\"Training\",\"Stims/Figures/74-C-20-4.bmp\",\"va:fa:va\",\"Right\",\"39\",\"6\",\"8\",\"6B\",\"C1\",\"J\",\"88\"
\"\",\"\",\"approach-retreat\",\"92\",\"706665\",\"0.0-92.0\",\"\",\"\",\"1-3\",\"7238\",\"37\",\"0\",\"Training\",\"Stims/Figures/19-J-10-4.bmp\",\"saha:za\",\"Left\",\"39\",\"6\",\"9\",\"6B\",\"C2\",\"J\",\"89\"
\"\",\"\",\"approach-retreat\",\"93\",\"713915\",\"0.0-93.0\",\"\",\"\",\"1-3\",\"5741\",\"39\",\"0\",\"Training\",\"Stims/Figures/19-C-20-4.bmp\",\"va:sha:sha\",\"Left\",\"37\",\"6\",\"10\",\"6B\",\"C1\",\"J\",\"90\"
\"\",\"\",\"approach-retreat\",\"94\",\"720993\",\"0.0-94.0\",\"\",\"\",\"1-3\",\"5571\",\"40\",\"1\",\"Training\",\"Stims/Figures/118-J-0-2.bmp\",\"za:ha:ha\",\"Up\",\"40\",\"6\",\"11\",\"6B\",\"C2\",\"J\",\"91\"
\"\",\"\",\"approach-retreat\",\"95\",\"727645\",\"0.0-95.0\",\"\",\"\",\"1-3\",\"5144\",\"38\",\"1\",\"Training\",\"Stims/Figures/84-C-20-2.bmp\",\"vafa:sha\",\"Up\",\"38\",\"6\",\"12\",\"6B\",\"C1\",\"J\",\"92\"
\"\",\"\",\"approach-retreat\",\"96\",\"733552\",\"0.0-96.0\",\"\",\"\",\"1-3\",\"4399\",\"40\",\"1\",\"Training\",\"Stims/Figures/57-J-0-1.bmp\",\"zasa:ha\",\"Up\",\"40\",\"6\",\"13\",\"6B\",\"C2\",\"J\",\"93\"
\"\",\"\",\"approach-retreat\",\"97\",\"739549\",\"0.0-97.0\",\"\",\"\",\"1-3\",\"4489\",\"37\",\"1\",\"Training\",\"Stims/Figures/27-J-0-1.bmp\",\"sa:ha:za\",\"Right\",\"37\",\"6\",\"14\",\"6B\",\"C2\",\"J\",\"94\"
\"\",\"\",\"approach-retreat\",\"98\",\"745421\",\"0.0-98.0\",\"\",\"\",\"1-3\",\"4364\",\"37\",\"1\",\"Training\",\"Stims/Figures/44-J-10-3.bmp\",\"saha:ha\",\"Right\",\"37\",\"6\",\"15\",\"6B\",\"C2\",\"J\",\"95\"
\"\",\"\",\"approach-retreat\",\"99\",\"751236\",\"0.0-99.0\",\"\",\"\",\"1-3\",\"4307\",\"37\",\"1\",\"Training\",\"Stims/Figures/128-C-30-3.bmp\",\"fa:shasha\",\"Left\",\"37\",\"6\",\"16\",\"6B\",\"C1\",\"J\",\"96\"
\"\",\"\",\"approach-retreat\",\"100\",\"758228\",\"0.0-100.0\",\"\",\"\",\"1-3\",\"5485\",\"38\",\"1\",\"Training\",\"Stims/Figures/74-C-20-4.bmp\",\"va:fa:va\",\"Up\",\"38\",\"7\",\"1\",\"6B\",\"C1\",\"J\",\"97\"
\"\",\"\",\"approach-retreat\",\"101\",\"766971\",\"0.0-101.0\",\"\",\"\",\"1-3\",\"7234\",\"39\",\"1\",\"Training\",\"Stims/Figures/84-J-0-2.bmp\",\"zasa:za\",\"Left\",\"39\",\"7\",\"2\",\"6B\",\"C2\",\"J\",\"98\"
\"\",\"\",\"approach-retreat\",\"102\",\"773401\",\"0.0-102.0\",\"\",\"\",\"1-3\",\"4924\",\"40\",\"1\",\"Training\",\"Stims/Figures/27-J-0-1.bmp\",\"sa:ha:za\",\"Up\",\"40\",\"7\",\"3\",\"6B\",\"C2\",\"J\",\"99\"
\"\",\"\",\"approach-retreat\",\"103\",\"779595\",\"0.0-103.0\",\"\",\"\",\"1-3\",\"4686\",\"37\",\"1\",\"Training\",\"Stims/Figures/118-C-20-2.bmp\",\"fa:fa:va\",\"Left\",\"37\",\"7\",\"4\",\"6B\",\"C1\",\"J\",\"100\"
\"\",\"\",\"approach-retreat\",\"104\",\"786348\",\"0.0-104.0\",\"\",\"\",\"1-3\",\"5244\",\"39\",\"1\",\"Training\",\"Stims/Figures/19-C-20-4.bmp\",\"va:sha:sha\",\"Right\",\"39\",\"7\",\"5\",\"6B\",\"C1\",\"J\",\"101\"
\"\",\"\",\"approach-retreat\",\"105\",\"792331\",\"0.0-105.0\",\"\",\"\",\"1-3\",\"4474\",\"37\",\"1\",\"Training\",\"Stims/Figures/57-J-0-1.bmp\",\"zasa:ha\",\"Right\",\"37\",\"7\",\"6\",\"6B\",\"C2\",\"J\",\"102\"
\"\",\"\",\"approach-retreat\",\"106\",\"798301\",\"0.0-106.0\",\"\",\"\",\"1-3\",\"4461\",\"40\",\"1\",\"Training\",\"Stims/Figures/128-J-10-3.bmp\",\"sa:ha:ha\",\"Up\",\"40\",\"7\",\"7\",\"6B\",\"C2\",\"J\",\"103\"
\"\",\"\",\"approach-retreat\",\"107\",\"804238\",\"0.0-107.0\",\"\",\"\",\"1-3\",\"4428\",\"38\",\"1\",\"Training\",\"Stims/Figures/44-J-10-3.bmp\",\"saha:ha\",\"Down\",\"38\",\"7\",\"8\",\"6B\",\"C2\",\"J\",\"104\"
\"\",\"\",\"approach-retreat\",\"108\",\"810567\",\"0.0-108.0\",\"\",\"\",\"1-3\",\"4821\",\"39\",\"1\",\"Training\",\"Stims/Figures/44-C-30-3.bmp\",\"fafa:va\",\"Right\",\"39\",\"7\",\"9\",\"6B\",\"C1\",\"J\",\"105\"
\"\",\"\",\"approach-retreat\",\"109\",\"817772\",\"0.0-109.0\",\"\",\"\",\"1-3\",\"5697\",\"39\",\"0\",\"Training\",\"Stims/Figures/27-C-30-1.bmp\",\"vafa:va\",\"Left\",\"37\",\"7\",\"10\",\"6B\",\"C1\",\"J\",\"106\"
\"\",\"\",\"approach-retreat\",\"110\",\"824559\",\"0.0-110.0\",\"\",\"\",\"1-3\",\"5279\",\"38\",\"1\",\"Training\",\"Stims/Figures/74-J-10-4.bmp\",\"zahaha\",\"Down\",\"38\",\"7\",\"11\",\"6B\",\"C2\",\"J\",\"107\"
\"\",\"\",\"approach-retreat\",\"111\",\"830757\",\"0.0-111.0\",\"\",\"\",\"1-3\",\"4689\",\"37\",\"1\",\"Training\",\"Stims/Figures/57-C-30-1.bmp\",\"fa:sha:va\",\"Left\",\"37\",\"7\",\"12\",\"6B\",\"C1\",\"J\",\"108\"
\"\",\"\",\"approach-retreat\",\"112\",\"837004\",\"0.0-112.0\",\"\",\"\",\"1-3\",\"4735\",\"40\",\"1\",\"Training\",\"Stims/Figures/128-C-30-3.bmp\",\"fa:shasha\",\"Down\",\"40\",\"7\",\"13\",\"6B\",\"C1\",\"J\",\"109\"
\"\",\"\",\"approach-retreat\",\"113\",\"844908\",\"0.0-113.0\",\"\",\"\",\"1-3\",\"6397\",\"40\",\"1\",\"Training\",\"Stims/Figures/19-J-10-4.bmp\",\"saha:za\",\"Up\",\"40\",\"7\",\"14\",\"6B\",\"C2\",\"J\",\"110\"
\"\",\"\",\"approach-retreat\",\"114\",\"852131\",\"0.0-114.0\",\"\",\"\",\"1-3\",\"5715\",\"38\",\"1\",\"Training\",\"Stims/Figures/118-J-0-2.bmp\",\"za:ha:ha\",\"Down\",\"38\",\"7\",\"15\",\"6B\",\"C2\",\"J\",\"111\"
\"\",\"\",\"approach-retreat\",\"115\",\"859531\",\"0.0-115.0\",\"\",\"\",\"1-3\",\"5891\",\"39\",\"1\",\"Training\",\"Stims/Figures/84-C-20-2.bmp\",\"vafa:sha\",\"Right\",\"39\",\"7\",\"16\",\"6B\",\"C1\",\"J\",\"112\"
\"\",\"\",\"approach-retreat\",\"116\",\"867710\",\"0.0-116.0\",\"\",\"\",\"1-3\",\"6672\",\"40\",\"1\",\"Training\",\"Stims/Figures/27-J-0-1.bmp\",\"sa:ha:za\",\"Up\",\"40\",\"8\",\"1\",\"6B\",\"C2\",\"J\",\"113\"
\"\",\"\",\"approach-retreat\",\"117\",\"878097\",\"0.0-117.0\",\"\",\"\",\"1-3\",\"8878\",\"39\",\"0\",\"Training\",\"Stims/Figures/27-C-30-1.bmp\",\"vafa:va\",\"Left\",\"37\",\"8\",\"2\",\"6B\",\"C1\",\"J\",\"114\"
\"\",\"\",\"approach-retreat\",\"118\",\"887224\",\"0.0-118.0\",\"\",\"\",\"1-3\",\"7619\",\"37\",\"1\",\"Training\",\"Stims/Figures/19-J-10-4.bmp\",\"saha:za\",\"Right\",\"37\",\"8\",\"3\",\"6B\",\"C2\",\"J\",\"115\"
\"\",\"\",\"approach-retreat\",\"119\",\"893463\",\"0.0-119.0\",\"\",\"\",\"1-3\",\"4731\",\"37\",\"1\",\"Training\",\"Stims/Figures/74-J-10-4.bmp\",\"zahaha\",\"Right\",\"37\",\"8\",\"4\",\"6B\",\"C2\",\"J\",\"116\"
\"\",\"\",\"approach-retreat\",\"120\",\"900277\",\"0.0-120.0\",\"\",\"\",\"1-3\",\"5305\",\"40\",\"1\",\"Training\",\"Stims/Figures/57-C-30-1.bmp\",\"fa:sha:va\",\"Down\",\"40\",\"8\",\"5\",\"6B\",\"C1\",\"J\",\"117\"
\"\",\"\",\"approach-retreat\",\"121\",\"906965\",\"0.0-121.0\",\"\",\"\",\"1-3\",\"5178\",\"37\",\"1\",\"Training\",\"Stims/Figures/19-C-20-4.bmp\",\"va:sha:sha\",\"Left\",\"37\",\"8\",\"6\",\"6B\",\"C1\",\"J\",\"118\"
\"\",\"\",\"approach-retreat\",\"122\",\"912678\",\"0.0-122.0\",\"\",\"\",\"1-3\",\"4202\",\"39\",\"1\",\"Training\",\"Stims/Figures/118-J-0-2.bmp\",\"za:ha:ha\",\"Left\",\"39\",\"8\",\"7\",\"6B\",\"C2\",\"J\",\"119\"
\"\",\"\",\"approach-retreat\",\"123\",\"921438\",\"0.0-123.0\",\"\",\"\",\"1-3\",\"7252\",\"40\",\"1\",\"Training\",\"Stims/Figures/74-C-20-4.bmp\",\"va:fa:va\",\"Down\",\"40\",\"8\",\"8\",\"6B\",\"C1\",\"J\",\"120\"
\"\",\"\",\"approach-retreat\",\"124\",\"928407\",\"0.0-124.0\",\"\",\"\",\"1-3\",\"5460\",\"38\",\"1\",\"Training\",\"Stims/Figures/128-C-30-3.bmp\",\"fa:shasha\",\"Up\",\"38\",\"8\",\"9\",\"6B\",\"C1\",\"J\",\"121\"
\"\",\"\",\"approach-retreat\",\"125\",\"935681\",\"0.0-125.0\",\"\",\"\",\"1-3\",\"5767\",\"39\",\"1\",\"Training\",\"Stims/Figures/57-J-0-1.bmp\",\"zasa:ha\",\"Left\",\"39\",\"8\",\"10\",\"6B\",\"C2\",\"J\",\"122\"
\"\",\"\",\"approach-retreat\",\"126\",\"942502\",\"0.0-126.0\",\"\",\"\",\"1-3\",\"5312\",\"40\",\"1\",\"Training\",\"Stims/Figures/84-J-0-2.bmp\",\"zasa:za\",\"Up\",\"40\",\"8\",\"11\",\"6B\",\"C2\",\"J\",\"123\"
\"\",\"\",\"approach-retreat\",\"127\",\"948812\",\"0.0-127.0\",\"\",\"\",\"1-3\",\"4803\",\"39\",\"1\",\"Training\",\"Stims/Figures/44-C-30-3.bmp\",\"fafa:va\",\"Right\",\"39\",\"8\",\"12\",\"6B\",\"C1\",\"J\",\"124\"
\"\",\"\",\"approach-retreat\",\"128\",\"955645\",\"0.0-128.0\",\"\",\"\",\"1-3\",\"5326\",\"40\",\"1\",\"Training\",\"Stims/Figures/84-C-20-2.bmp\",\"vafa:sha\",\"Down\",\"40\",\"8\",\"13\",\"6B\",\"C1\",\"J\",\"125\"
\"\",\"\",\"approach-retreat\",\"129\",\"963074\",\"0.0-129.0\",\"\",\"\",\"1-3\",\"5920\",\"39\",\"1\",\"Training\",\"Stims/Figures/118-C-20-2.bmp\",\"fa:fa:va\",\"Right\",\"39\",\"8\",\"14\",\"6B\",\"C1\",\"J\",\"126\"
\"\",\"\",\"approach-retreat\",\"130\",\"970652\",\"0.0-130.0\",\"\",\"\",\"1-3\",\"6070\",\"40\",\"1\",\"Training\",\"Stims/Figures/44-J-10-3.bmp\",\"saha:ha\",\"Up\",\"40\",\"8\",\"15\",\"6B\",\"C2\",\"J\",\"127\"
\"\",\"\",\"approach-retreat\",\"131\",\"978317\",\"0.0-131.0\",\"\",\"\",\"1-3\",\"6156\",\"38\",\"1\",\"Training\",\"Stims/Figures/128-J-10-3.bmp\",\"sa:ha:ha\",\"Down\",\"38\",\"8\",\"16\",\"6B\",\"C2\",\"J\",\"128\"
\"\",\"\",\"approach-retreat\",\"132\",\"984604\",\"0.0-132.0\",\"\",\"\",\"1-3\",\"4778\",\"39\",\"1\",\"Training\",\"Stims/Figures/44-J-10-3.bmp\",\"saha:ha\",\"Left\",\"39\",\"9\",\"1\",\"6B\",\"C2\",\"J\",\"129\"
\"\",\"\",\"approach-retreat\",\"133\",\"990490\",\"0.0-133.0\",\"\",\"\",\"1-3\",\"4377\",\"38\",\"1\",\"Training\",\"Stims/Figures/74-J-10-4.bmp\",\"zahaha\",\"Down\",\"38\",\"9\",\"2\",\"6B\",\"C2\",\"J\",\"130\"
\"\",\"\",\"approach-retreat\",\"134\",\"996534\",\"0.0-134.0\",\"\",\"\",\"1-3\",\"4536\",\"37\",\"1\",\"Training\",\"Stims/Figures/19-J-10-4.bmp\",\"saha:za\",\"Right\",\"37\",\"9\",\"3\",\"6B\",\"C2\",\"J\",\"131\"
\"\",\"\",\"approach-retreat\",\"135\",\"1004471\",\"0.0-135.0\",\"\",\"\",\"1-3\",\"6428\",\"38\",\"1\",\"Training\",\"Stims/Figures/27-C-30-1.bmp\",\"vafa:va\",\"Up\",\"38\",\"9\",\"4\",\"6B\",\"C1\",\"J\",\"132\"
\"\",\"\",\"approach-retreat\",\"136\",\"1010757\",\"0.0-136.0\",\"\",\"\",\"1-3\",\"4777\",\"40\",\"1\",\"Training\",\"Stims/Figures/57-J-0-1.bmp\",\"zasa:ha\",\"Up\",\"40\",\"9\",\"5\",\"6B\",\"C2\",\"J\",\"133\"
\"\",\"\",\"approach-retreat\",\"137\",\"1017190\",\"0.0-137.0\",\"\",\"\",\"1-3\",\"4924\",\"38\",\"1\",\"Training\",\"Stims/Figures/74-C-20-4.bmp\",\"va:fa:va\",\"Up\",\"38\",\"9\",\"6\",\"6B\",\"C1\",\"J\",\"134\"
\"\",\"\",\"approach-retreat\",\"138\",\"1023327\",\"0.0-138.0\",\"\",\"\",\"1-3\",\"4628\",\"40\",\"1\",\"Training\",\"Stims/Figures/118-C-20-2.bmp\",\"fa:fa:va\",\"Down\",\"40\",\"9\",\"7\",\"6B\",\"C1\",\"J\",\"135\"
\"\",\"\",\"approach-retreat\",\"139\",\"1029690\",\"0.0-139.0\",\"\",\"\",\"1-3\",\"4853\",\"40\",\"1\",\"Training\",\"Stims/Figures/84-C-20-2.bmp\",\"vafa:sha\",\"Down\",\"40\",\"9\",\"8\",\"6B\",\"C1\",\"J\",\"136\"
\"\",\"\",\"approach-retreat\",\"140\",\"1036511\",\"0.0-140.0\",\"\",\"\",\"1-3\",\"5313\",\"38\",\"1\",\"Training\",\"Stims/Figures/44-C-30-3.bmp\",\"fafa:va\",\"Up\",\"38\",\"9\",\"9\",\"6B\",\"C1\",\"J\",\"137\"
\"\",\"\",\"approach-retreat\",\"141\",\"1043930\",\"0.0-141.0\",\"\",\"\",\"1-3\",\"5912\",\"37\",\"1\",\"Training\",\"Stims/Figures/128-J-10-3.bmp\",\"sa:ha:ha\",\"Right\",\"37\",\"9\",\"10\",\"6B\",\"C2\",\"J\",\"138\"
\"\",\"\",\"approach-retreat\",\"142\",\"1049966\",\"0.0-142.0\",\"\",\"\",\"1-3\",\"4527\",\"39\",\"1\",\"Training\",\"Stims/Figures/84-J-0-2.bmp\",\"zasa:za\",\"Left\",\"39\",\"9\",\"11\",\"6B\",\"C2\",\"J\",\"139\"
\"\",\"\",\"approach-retreat\",\"143\",\"1057130\",\"0.0-143.0\",\"\",\"\",\"1-3\",\"4780\",\"37\",\"1\",\"Training\",\"Stims/Figures/57-C-30-1.bmp\",\"fa:sha:va\",\"Left\",\"37\",\"9\",\"12\",\"6B\",\"C1\",\"J\",\"140\"
\"\",\"\",\"approach-retreat\",\"144\",\"1064912\",\"0.0-144.0\",\"\",\"\",\"1-3\",\"5287\",\"38\",\"1\",\"Training\",\"Stims/Figures/118-J-0-2.bmp\",\"za:ha:ha\",\"Down\",\"38\",\"9\",\"13\",\"6B\",\"C2\",\"J\",\"141\"
\"\",\"\",\"approach-retreat\",\"145\",\"1072060\",\"0.0-145.0\",\"\",\"\",\"1-3\",\"5636\",\"39\",\"1\",\"Training\",\"Stims/Figures/27-J-0-1.bmp\",\"sa:ha:za\",\"Left\",\"39\",\"9\",\"14\",\"6B\",\"C2\",\"J\",\"142\"
\"\",\"\",\"approach-retreat\",\"146\",\"1078432\",\"0.0-146.0\",\"\",\"\",\"1-3\",\"4865\",\"39\",\"1\",\"Training\",\"Stims/Figures/19-C-20-4.bmp\",\"va:sha:sha\",\"Right\",\"39\",\"9\",\"15\",\"6B\",\"C1\",\"J\",\"143\"
\"\",\"\",\"approach-retreat\",\"147\",\"1084985\",\"0.0-147.0\",\"\",\"\",\"1-3\",\"5046\",\"39\",\"1\",\"Training\",\"Stims/Figures/128-C-30-3.bmp\",\"fa:shasha\",\"Right\",\"39\",\"9\",\"16\",\"6B\",\"C1\",\"J\",\"144\"
\"10529\",\"\",\"instructions\",\"148\",\"1095514\",\"0.0-148.0\",\"[{\"\"page_index\"\":0,\"\"viewing_time\"\":10528}]\",\"\",\"\",\"\",\"\",\"\",\"\",\"\",\"\",\"\",\"\",\"\",\"\",\"\",\"\",\"\",\"\"
\"\",\"\",\"approach-retreat\",\"149\",\"1104855\",\"0.0-149.0\",\"\",\"\",\"1-3\",\"7836\",\"40\",\"1\",\"Testing\",\"Stims/Figures/111-C-30-3.bmp\",\"fa:fasha\",\"Down\",\"40\",\"1\",\"1\",\"6B\",\"C1\",\"J\",\"1\"
\"\",\"\",\"approach-retreat\",\"150\",\"1111403\",\"0.0-150.0\",\"\",\"\",\"1-3\",\"5042\",\"37\",\"1\",\"Testing\",\"Stims/Figures/57-C-30-1.bmp\",\"fa:sha:va\",\"Left\",\"37\",\"1\",\"2\",\"6B\",\"C1\",\"J\",\"2\"
\"\",\"\",\"approach-retreat\",\"151\",\"1119188\",\"0.0-151.0\",\"\",\"\",\"1-3\",\"6280\",\"39\",\"0\",\"Testing\",\"Stims/Figures/74-C-20-4.bmp\",\"va:fa:va\",\"Left\",\"37\",\"1\",\"3\",\"6B\",\"C1\",\"J\",\"3\"
\"\",\"\",\"approach-retreat\",\"152\",\"1125101\",\"0.0-152.0\",\"\",\"\",\"1-3\",\"4408\",\"37\",\"1\",\"Testing\",\"Stims/Figures/118-C-20-2.bmp\",\"fa:fa:va\",\"Left\",\"37\",\"1\",\"4\",\"6B\",\"C1\",\"J\",\"4\"
\"\",\"\",\"approach-retreat\",\"153\",\"1132637\",\"0.0-153.0\",\"\",\"\",\"1-3\",\"6031\",\"39\",\"1\",\"Testing\",\"Stims/Figures/19-C-20-4.bmp\",\"va:sha:sha\",\"Right\",\"39\",\"1\",\"5\",\"6B\",\"C1\",\"J\",\"5\"
\"\",\"\",\"approach-retreat\",\"154\",\"1138938\",\"0.0-154.0\",\"\",\"\",\"1-3\",\"4793\",\"38\",\"1\",\"Testing\",\"Stims/Figures/74-J-10-4.bmp\",\"zahaha\",\"Down\",\"38\",\"1\",\"6\",\"6B\",\"C2\",\"J\",\"6\"
\"\",\"\",\"approach-retreat\",\"155\",\"1144959\",\"0.0-155.0\",\"\",\"\",\"1-3\",\"4515\",\"37\",\"0\",\"Testing\",\"Stims/Figures/139-C-20-2.bmp\",\"va:fa:sha\",\"Right\",\"39\",\"1\",\"7\",\"6B\",\"C1\",\"J\",\"7\"
\"\",\"\",\"approach-retreat\",\"156\",\"1150879\",\"0.0-156.0\",\"\",\"\",\"1-3\",\"4415\",\"39\",\"1\",\"Testing\",\"Stims/Figures/86-C-30-1.bmp\",\"vashasha\",\"Right\",\"39\",\"1\",\"8\",\"6B\",\"C1\",\"J\",\"8\"
\"\",\"\",\"approach-retreat\",\"157\",\"1157440\",\"0.0-157.0\",\"\",\"\",\"1-3\",\"5056\",\"40\",\"1\",\"Testing\",\"Stims/Figures/84-J-0-2.bmp\",\"zasa:za\",\"Up\",\"40\",\"1\",\"9\",\"6B\",\"C2\",\"J\",\"9\"
\"\",\"\",\"approach-retreat\",\"158\",\"1163392\",\"0.0-158.0\",\"\",\"\",\"1-3\",\"4446\",\"40\",\"1\",\"Testing\",\"Stims/Figures/44-J-10-3.bmp\",\"saha:ha\",\"Up\",\"40\",\"1\",\"10\",\"6B\",\"C2\",\"J\",\"10\"
\"\",\"\",\"approach-retreat\",\"159\",\"1170476\",\"0.0-159.0\",\"\",\"\",\"1-3\",\"5578\",\"38\",\"1\",\"Testing\",\"Stims/Figures/19-J-10-4.bmp\",\"saha:za\",\"Down\",\"38\",\"1\",\"11\",\"6B\",\"C2\",\"J\",\"11\"
\"\",\"\",\"approach-retreat\",\"160\",\"1176286\",\"0.0-160.0\",\"\",\"\",\"1-3\",\"4303\",\"37\",\"1\",\"Testing\",\"Stims/Figures/86-J-0-1.bmp\",\"zaha:ha\",\"Right\",\"37\",\"1\",\"12\",\"6B\",\"C2\",\"J\",\"12\"
\"\",\"\",\"approach-retreat\",\"161\",\"1182133\",\"0.0-161.0\",\"\",\"\",\"1-3\",\"4342\",\"39\",\"1\",\"Testing\",\"Stims/Figures/7-J-10-4.bmp\",\"zasaza\",\"Left\",\"39\",\"1\",\"13\",\"6B\",\"C2\",\"J\",\"13\"
\"\",\"\",\"approach-retreat\",\"162\",\"1187796\",\"0.0-162.0\",\"\",\"\",\"1-3\",\"4156\",\"40\",\"1\",\"Testing\",\"Stims/Figures/118-J-0-2.bmp\",\"za:ha:ha\",\"Up\",\"40\",\"1\",\"14\",\"6B\",\"C2\",\"J\",\"14\"
\"\",\"\",\"approach-retreat\",\"163\",\"1196561\",\"0.0-163.0\",\"\",\"\",\"1-3\",\"7258\",\"40\",\"1\",\"Testing\",\"Stims/Figures/7-C-20-4.bmp\",\"fafava\",\"Down\",\"40\",\"1\",\"15\",\"6B\",\"C1\",\"J\",\"15\"
\"\",\"\",\"approach-retreat\",\"164\",\"1202343\",\"0.0-164.0\",\"\",\"\",\"1-3\",\"4276\",\"39\",\"1\",\"Testing\",\"Stims/Figures/111-J-10-3.bmp\",\"zahaza\",\"Left\",\"39\",\"1\",\"16\",\"6B\",\"C2\",\"J\",\"16\"
\"\",\"\",\"approach-retreat\",\"165\",\"1208348\",\"0.0-165.0\",\"\",\"\",\"1-3\",\"4499\",\"40\",\"0\",\"Testing\",\"Stims/Figures/27-C-30-1.bmp\",\"vafa:va\",\"Up\",\"38\",\"1\",\"17\",\"6B\",\"C1\",\"J\",\"17\"
\"\",\"\",\"approach-retreat\",\"166\",\"1214353\",\"0.0-166.0\",\"\",\"\",\"1-3\",\"4499\",\"38\",\"1\",\"Testing\",\"Stims/Figures/128-J-10-3.bmp\",\"sa:ha:ha\",\"Down\",\"38\",\"1\",\"18\",\"6B\",\"C2\",\"J\",\"18\"
\"\",\"\",\"approach-retreat\",\"167\",\"1220049\",\"0.0-167.0\",\"\",\"\",\"1-3\",\"4191\",\"40\",\"1\",\"Testing\",\"Stims/Figures/128-C-30-3.bmp\",\"fa:shasha\",\"Down\",\"40\",\"1\",\"19\",\"6B\",\"C1\",\"J\",\"19\"
\"\",\"\",\"approach-retreat\",\"168\",\"1225950\",\"0.0-168.0\",\"\",\"\",\"1-3\",\"4395\",\"38\",\"1\",\"Testing\",\"Stims/Figures/84-C-20-2.bmp\",\"vafa:sha\",\"Up\",\"38\",\"1\",\"20\",\"6B\",\"C1\",\"J\",\"20\"
\"\",\"\",\"approach-retreat\",\"169\",\"1232004\",\"0.0-169.0\",\"\",\"\",\"1-3\",\"4548\",\"40\",\"1\",\"Testing\",\"Stims/Figures/139-J-0-2.bmp\",\"sa:saha\",\"Up\",\"40\",\"1\",\"21\",\"6B\",\"C2\",\"J\",\"21\"
\"\",\"\",\"approach-retreat\",\"170\",\"1238402\",\"0.0-170.0\",\"\",\"\",\"1-3\",\"4474\",\"39\",\"1\",\"Testing\",\"Stims/Figures/44-C-30-3.bmp\",\"fafa:va\",\"Right\",\"39\",\"1\",\"22\",\"6B\",\"C1\",\"J\",\"22\"
\"\",\"\",\"approach-retreat\",\"171\",\"1244266\",\"0.0-171.0\",\"\",\"\",\"1-3\",\"4357\",\"37\",\"1\",\"Testing\",\"Stims/Figures/57-J-0-1.bmp\",\"zasa:ha\",\"Right\",\"37\",\"1\",\"23\",\"6B\",\"C2\",\"J\",\"23\"
\"\",\"\",\"approach-retreat\",\"172\",\"1250069\",\"0.0-172.0\",\"\",\"\",\"1-3\",\"4298\",\"39\",\"1\",\"Testing\",\"Stims/Figures/27-J-0-1.bmp\",\"sa:ha:za\",\"Left\",\"39\",\"1\",\"24\",\"6B\",\"C2\",\"J\",\"24\"
\"\",\"\",\"approach-retreat\",\"173\",\"1257456\",\"0.0-173.0\",\"\",\"\",\"1-3\",\"5882\",\"38\",\"1\",\"Testing\",\"Stims/Figures/128-C-30-3.bmp\",\"fa:shasha\",\"Up\",\"38\",\"2\",\"1\",\"6B\",\"C1\",\"J\",\"25\"
\"\",\"\",\"approach-retreat\",\"174\",\"1263300\",\"0.0-174.0\",\"\",\"\",\"1-3\",\"4338\",\"38\",\"0\",\"Testing\",\"Stims/Figures/27-C-30-1.bmp\",\"vafa:va\",\"Down\",\"40\",\"2\",\"2\",\"6B\",\"C1\",\"J\",\"26\"
\"\",\"\",\"approach-retreat\",\"175\",\"1269358\",\"0.0-175.0\",\"\",\"\",\"1-3\",\"4553\",\"39\",\"1\",\"Testing\",\"Stims/Figures/44-C-30-3.bmp\",\"fafa:va\",\"Right\",\"39\",\"2\",\"3\",\"6B\",\"C1\",\"J\",\"27\"
\"\",\"\",\"approach-retreat\",\"176\",\"1275177\",\"0.0-176.0\",\"\",\"\",\"1-3\",\"4312\",\"40\",\"1\",\"Testing\",\"Stims/Figures/19-J-10-4.bmp\",\"saha:za\",\"Up\",\"40\",\"2\",\"4\",\"6B\",\"C2\",\"J\",\"28\"
\"\",\"\",\"approach-retreat\",\"177\",\"1280991\",\"0.0-177.0\",\"\",\"\",\"1-3\",\"4309\",\"37\",\"1\",\"Testing\",\"Stims/Figures/86-C-30-1.bmp\",\"vashasha\",\"Left\",\"37\",\"2\",\"5\",\"6B\",\"C1\",\"J\",\"29\"
\"\",\"\",\"approach-retreat\",\"178\",\"1287040\",\"0.0-178.0\",\"\",\"\",\"1-3\",\"4543\",\"38\",\"1\",\"Testing\",\"Stims/Figures/86-J-0-1.bmp\",\"zaha:ha\",\"Down\",\"38\",\"2\",\"6\",\"6B\",\"C2\",\"J\",\"30\"
\"\",\"\",\"approach-retreat\",\"179\",\"1293122\",\"0.0-179.0\",\"\",\"\",\"1-3\",\"4576\",\"37\",\"1\",\"Testing\",\"Stims/Figures/19-C-20-4.bmp\",\"va:sha:sha\",\"Left\",\"37\",\"2\",\"7\",\"6B\",\"C1\",\"J\",\"31\"
\"\",\"\",\"approach-retreat\",\"180\",\"1299919\",\"0.0-180.0\",\"\",\"\",\"1-3\",\"5291\",\"39\",\"1\",\"Testing\",\"Stims/Figures/111-C-30-3.bmp\",\"fa:fasha\",\"Right\",\"39\",\"2\",\"8\",\"6B\",\"C1\",\"J\",\"32\"
\"\",\"\",\"approach-retreat\",\"181\",\"1305629\",\"0.0-181.0\",\"\",\"\",\"1-3\",\"4201\",\"37\",\"1\",\"Testing\",\"Stims/Figures/57-C-30-1.bmp\",\"fa:sha:va\",\"Left\",\"37\",\"2\",\"9\",\"6B\",\"C1\",\"J\",\"33\"
\"\",\"\",\"approach-retreat\",\"182\",\"1311983\",\"0.0-182.0\",\"\",\"\",\"1-3\",\"4848\",\"37\",\"1\",\"Testing\",\"Stims/Figures/7-J-10-4.bmp\",\"zasaza\",\"Right\",\"37\",\"2\",\"10\",\"6B\",\"C2\",\"J\",\"34\"
\"\",\"\",\"approach-retreat\",\"183\",\"1317972\",\"0.0-183.0\",\"\",\"\",\"1-3\",\"4483\",\"37\",\"0\",\"Testing\",\"Stims/Figures/139-C-20-2.bmp\",\"va:fa:sha\",\"Right\",\"39\",\"2\",\"11\",\"6B\",\"C1\",\"J\",\"35\"
\"\",\"\",\"approach-retreat\",\"184\",\"1323773\",\"0.0-184.0\",\"\",\"\",\"1-3\",\"4296\",\"39\",\"1\",\"Testing\",\"Stims/Figures/44-J-10-3.bmp\",\"saha:ha\",\"Left\",\"39\",\"2\",\"12\",\"6B\",\"C2\",\"J\",\"36\"
\"\",\"\",\"approach-retreat\",\"185\",\"1330105\",\"0.0-185.0\",\"\",\"\",\"1-3\",\"4826\",\"38\",\"1\",\"Testing\",\"Stims/Figures/128-J-10-3.bmp\",\"sa:ha:ha\",\"Down\",\"38\",\"2\",\"13\",\"6B\",\"C2\",\"J\",\"37\"
\"\",\"\",\"approach-retreat\",\"186\",\"1335811\",\"0.0-186.0\",\"\",\"\",\"1-3\",\"4200\",\"39\",\"1\",\"Testing\",\"Stims/Figures/118-J-0-2.bmp\",\"za:ha:ha\",\"Left\",\"39\",\"2\",\"14\",\"6B\",\"C2\",\"J\",\"38\"
\"\",\"\",\"approach-retreat\",\"187\",\"1341489\",\"0.0-187.0\",\"\",\"\",\"1-3\",\"4171\",\"38\",\"1\",\"Testing\",\"Stims/Figures/27-J-0-1.bmp\",\"sa:ha:za\",\"Down\",\"38\",\"2\",\"15\",\"6B\",\"C2\",\"J\",\"39\"
\"\",\"\",\"approach-retreat\",\"188\",\"1347580\",\"0.0-188.0\",\"\",\"\",\"1-3\",\"4586\",\"37\",\"1\",\"Testing\",\"Stims/Figures/118-C-20-2.bmp\",\"fa:fa:va\",\"Left\",\"37\",\"2\",\"16\",\"6B\",\"C1\",\"J\",\"40\"
\"\",\"\",\"approach-retreat\",\"189\",\"1353579\",\"0.0-189.0\",\"\",\"\",\"1-3\",\"4494\",\"40\",\"1\",\"Testing\",\"Stims/Figures/57-J-0-1.bmp\",\"zasa:ha\",\"Up\",\"40\",\"2\",\"17\",\"6B\",\"C2\",\"J\",\"41\"
\"\",\"\",\"approach-retreat\",\"190\",\"1360918\",\"0.0-190.0\",\"\",\"\",\"1-3\",\"5833\",\"39\",\"1\",\"Testing\",\"Stims/Figures/84-C-20-2.bmp\",\"vafa:sha\",\"Right\",\"39\",\"2\",\"18\",\"6B\",\"C1\",\"J\",\"42\"
\"\",\"\",\"approach-retreat\",\"191\",\"1367791\",\"0.0-191.0\",\"\",\"\",\"1-3\",\"5367\",\"38\",\"1\",\"Testing\",\"Stims/Figures/7-C-20-4.bmp\",\"fafava\",\"Up\",\"38\",\"2\",\"19\",\"6B\",\"C1\",\"J\",\"43\"
\"\",\"\",\"approach-retreat\",\"192\",\"1374028\",\"0.0-192.0\",\"\",\"\",\"1-3\",\"4731\",\"38\",\"0\",\"Testing\",\"Stims/Figures/111-J-10-3.bmp\",\"zahaza\",\"Up\",\"40\",\"2\",\"20\",\"6B\",\"C2\",\"J\",\"44\"
\"\",\"\",\"approach-retreat\",\"193\",\"1379960\",\"0.0-193.0\",\"\",\"\",\"1-3\",\"4427\",\"38\",\"1\",\"Testing\",\"Stims/Figures/74-J-10-4.bmp\",\"zahaha\",\"Down\",\"38\",\"2\",\"21\",\"6B\",\"C2\",\"J\",\"45\"
\"\",\"\",\"approach-retreat\",\"194\",\"1385663\",\"0.0-194.0\",\"\",\"\",\"1-3\",\"4198\",\"37\",\"1\",\"Testing\",\"Stims/Figures/139-J-0-2.bmp\",\"sa:saha\",\"Right\",\"37\",\"2\",\"22\",\"6B\",\"C2\",\"J\",\"46\"
\"\",\"\",\"approach-retreat\",\"195\",\"1391723\",\"0.0-195.0\",\"\",\"\",\"1-3\",\"4158\",\"38\",\"1\",\"Testing\",\"Stims/Figures/84-J-0-2.bmp\",\"zasa:za\",\"Down\",\"38\",\"2\",\"23\",\"6B\",\"C2\",\"J\",\"47\"
\"\",\"\",\"approach-retreat\",\"196\",\"1401878\",\"0.0-196.0\",\"\",\"\",\"1-3\",\"8649\",\"38\",\"1\",\"Testing\",\"Stims/Figures/74-C-20-4.bmp\",\"va:fa:va\",\"Up\",\"38\",\"2\",\"24\",\"6B\",\"C1\",\"J\",\"48\"
\"\",\"\",\"approach-retreat\",\"197\",\"1408302\",\"0.0-197.0\",\"\",\"\",\"1-3\",\"4917\",\"40\",\"1\",\"Testing\",\"Stims/Figures/139-C-20-2.bmp\",\"va:fa:sha\",\"Down\",\"40\",\"3\",\"1\",\"6B\",\"C1\",\"J\",\"49\"
\"\",\"\",\"approach-retreat\",\"198\",\"1414101\",\"0.0-198.0\",\"\",\"\",\"1-3\",\"4294\",\"40\",\"1\",\"Testing\",\"Stims/Figures/86-J-0-1.bmp\",\"zaha:ha\",\"Up\",\"40\",\"3\",\"2\",\"6B\",\"C2\",\"J\",\"50\"
\"\",\"\",\"approach-retreat\",\"199\",\"1419994\",\"0.0-199.0\",\"\",\"\",\"1-3\",\"4387\",\"39\",\"1\",\"Testing\",\"Stims/Figures/139-J-0-2.bmp\",\"sa:saha\",\"Left\",\"39\",\"3\",\"3\",\"6B\",\"C2\",\"J\",\"51\"
\"\",\"\",\"approach-retreat\",\"200\",\"1425939\",\"0.0-200.0\",\"\",\"\",\"1-3\",\"4439\",\"37\",\"1\",\"Testing\",\"Stims/Figures/111-C-30-3.bmp\",\"fa:fasha\",\"Left\",\"37\",\"3\",\"4\",\"6B\",\"C1\",\"J\",\"52\"
\"\",\"\",\"approach-retreat\",\"201\",\"1432798\",\"0.0-201.0\",\"\",\"\",\"1-3\",\"5354\",\"39\",\"1\",\"Testing\",\"Stims/Figures/118-C-20-2.bmp\",\"fa:fa:va\",\"Right\",\"39\",\"3\",\"5\",\"6B\",\"C1\",\"J\",\"53\"
\"\",\"\",\"approach-retreat\",\"202\",\"1438652\",\"0.0-202.0\",\"\",\"\",\"1-3\",\"4348\",\"39\",\"1\",\"Testing\",\"Stims/Figures/57-C-30-1.bmp\",\"fa:sha:va\",\"Right\",\"39\",\"3\",\"6\",\"6B\",\"C1\",\"J\",\"54\"
\"\",\"\",\"approach-retreat\",\"203\",\"1446550\",\"0.0-203.0\",\"\",\"\",\"1-3\",\"6392\",\"38\",\"1\",\"Testing\",\"Stims/Figures/44-C-30-3.bmp\",\"fafa:va\",\"Up\",\"38\",\"3\",\"7\",\"6B\",\"C1\",\"J\",\"55\"
\"\",\"\",\"approach-retreat\",\"204\",\"1452586\",\"0.0-204.0\",\"\",\"\",\"1-3\",\"4531\",\"37\",\"1\",\"Testing\",\"Stims/Figures/7-C-20-4.bmp\",\"fafava\",\"Left\",\"37\",\"3\",\"8\",\"6B\",\"C1\",\"J\",\"56\"
\"\",\"\",\"approach-retreat\",\"205\",\"1458761\",\"0.0-205.0\",\"\",\"\",\"1-3\",\"4668\",\"38\",\"1\",\"Testing\",\"Stims/Figures/128-J-10-3.bmp\",\"sa:ha:ha\",\"Down\",\"38\",\"3\",\"9\",\"6B\",\"C2\",\"J\",\"57\"
\"\",\"\",\"approach-retreat\",\"206\",\"1464592\",\"0.0-206.0\",\"\",\"\",\"1-3\",\"4326\",\"40\",\"1\",\"Testing\",\"Stims/Figures/111-J-10-3.bmp\",\"zahaza\",\"Up\",\"40\",\"3\",\"10\",\"6B\",\"C2\",\"J\",\"58\"
\"\",\"\",\"approach-retreat\",\"207\",\"1471711\",\"0.0-207.0\",\"\",\"\",\"1-3\",\"5614\",\"38\",\"1\",\"Testing\",\"Stims/Figures/74-J-10-4.bmp\",\"zahaha\",\"Down\",\"38\",\"3\",\"11\",\"6B\",\"C2\",\"J\",\"59\"
\"\",\"\",\"approach-retreat\",\"208\",\"1477789\",\"0.0-208.0\",\"\",\"\",\"1-3\",\"4572\",\"38\",\"1\",\"Testing\",\"Stims/Figures/118-J-0-2.bmp\",\"za:ha:ha\",\"Down\",\"38\",\"3\",\"12\",\"6B\",\"C2\",\"J\",\"60\"
\"\",\"\",\"approach-retreat\",\"209\",\"1483425\",\"0.0-209.0\",\"\",\"\",\"1-3\",\"4130\",\"40\",\"1\",\"Testing\",\"Stims/Figures/84-J-0-2.bmp\",\"zasa:za\",\"Up\",\"40\",\"3\",\"13\",\"6B\",\"C2\",\"J\",\"61\"
\"\",\"\",\"approach-retreat\",\"210\",\"1489670\",\"0.0-210.0\",\"\",\"\",\"1-3\",\"4739\",\"37\",\"1\",\"Testing\",\"Stims/Figures/128-C-30-3.bmp\",\"fa:shasha\",\"Left\",\"37\",\"3\",\"14\",\"6B\",\"C1\",\"J\",\"62\"
\"\",\"\",\"approach-retreat\",\"211\",\"1495821\",\"0.0-211.0\",\"\",\"\",\"1-3\",\"4645\",\"37\",\"1\",\"Testing\",\"Stims/Figures/19-J-10-4.bmp\",\"saha:za\",\"Right\",\"37\",\"3\",\"15\",\"6B\",\"C2\",\"J\",\"63\"
\"\",\"\",\"approach-retreat\",\"212\",\"1501939\",\"0.0-212.0\",\"\",\"\",\"1-3\",\"4611\",\"39\",\"1\",\"Testing\",\"Stims/Figures/86-C-30-1.bmp\",\"vashasha\",\"Right\",\"39\",\"3\",\"16\",\"6B\",\"C1\",\"J\",\"64\"
\"\",\"\",\"approach-retreat\",\"213\",\"1507898\",\"0.0-213.0\",\"\",\"\",\"1-3\",\"4454\",\"37\",\"1\",\"Testing\",\"Stims/Figures/74-C-20-4.bmp\",\"va:fa:va\",\"Left\",\"37\",\"3\",\"17\",\"6B\",\"C1\",\"J\",\"65\"
\"\",\"\",\"approach-retreat\",\"214\",\"1514076\",\"0.0-214.0\",\"\",\"\",\"1-3\",\"4672\",\"38\",\"1\",\"Testing\",\"Stims/Figures/19-C-20-4.bmp\",\"va:sha:sha\",\"Up\",\"38\",\"3\",\"18\",\"6B\",\"C1\",\"J\",\"66\"
\"\",\"\",\"approach-retreat\",\"215\",\"1520125\",\"0.0-215.0\",\"\",\"\",\"1-3\",\"4542\",\"37\",\"1\",\"Testing\",\"Stims/Figures/84-C-20-2.bmp\",\"vafa:sha\",\"Left\",\"37\",\"3\",\"19\",\"6B\",\"C1\",\"J\",\"67\"
\"\",\"\",\"approach-retreat\",\"216\",\"1525899\",\"0.0-216.0\",\"\",\"\",\"1-3\",\"4270\",\"40\",\"1\",\"Testing\",\"Stims/Figures/7-J-10-4.bmp\",\"zasaza\",\"Up\",\"40\",\"3\",\"20\",\"6B\",\"C2\",\"J\",\"68\"
\"\",\"\",\"approach-retreat\",\"217\",\"1531464\",\"0.0-217.0\",\"\",\"\",\"1-3\",\"4059\",\"37\",\"1\",\"Testing\",\"Stims/Figures/27-J-0-1.bmp\",\"sa:ha:za\",\"Right\",\"37\",\"3\",\"21\",\"6B\",\"C2\",\"J\",\"69\"
\"\",\"\",\"approach-retreat\",\"218\",\"1537224\",\"0.0-218.0\",\"\",\"\",\"1-3\",\"4254\",\"37\",\"1\",\"Testing\",\"Stims/Figures/44-J-10-3.bmp\",\"saha:ha\",\"Right\",\"37\",\"3\",\"22\",\"6B\",\"C2\",\"J\",\"70\"
\"\",\"\",\"approach-retreat\",\"219\",\"1544027\",\"0.0-219.0\",\"\",\"\",\"1-3\",\"5297\",\"40\",\"1\",\"Testing\",\"Stims/Figures/27-C-30-1.bmp\",\"vafa:va\",\"Down\",\"40\",\"3\",\"23\",\"6B\",\"C1\",\"J\",\"71\"
\"\",\"\",\"approach-retreat\",\"220\",\"1549728\",\"0.0-220.0\",\"\",\"\",\"1-3\",\"4196\",\"38\",\"1\",\"Testing\",\"Stims/Figures/57-J-0-1.bmp\",\"zasa:ha\",\"Down\",\"38\",\"3\",\"24\",\"6B\",\"C2\",\"J\",\"72\"
\"\",\"\",\"approach-retreat\",\"221\",\"1555440\",\"0.0-221.0\",\"\",\"\",\"1-3\",\"4207\",\"37\",\"1\",\"Testing\",\"Stims/Figures/84-J-0-2.bmp\",\"zasa:za\",\"Right\",\"37\",\"4\",\"1\",\"6B\",\"C2\",\"J\",\"73\"
\"\",\"\",\"approach-retreat\",\"222\",\"1561659\",\"0.0-222.0\",\"\",\"\",\"1-3\",\"4713\",\"40\",\"1\",\"Testing\",\"Stims/Figures/111-C-30-3.bmp\",\"fa:fasha\",\"Down\",\"40\",\"4\",\"2\",\"6B\",\"C1\",\"J\",\"74\"
\"\",\"\",\"approach-retreat\",\"223\",\"1567721\",\"0.0-223.0\",\"\",\"\",\"1-3\",\"4556\",\"40\",\"1\",\"Testing\",\"Stims/Figures/86-J-0-1.bmp\",\"zaha:ha\",\"Up\",\"40\",\"4\",\"3\",\"6B\",\"C2\",\"J\",\"75\"
\"\",\"\",\"approach-retreat\",\"224\",\"1573550\",\"0.0-224.0\",\"\",\"\",\"1-3\",\"4322\",\"40\",\"1\",\"Testing\",\"Stims/Figures/139-J-0-2.bmp\",\"sa:saha\",\"Up\",\"40\",\"4\",\"4\",\"6B\",\"C2\",\"J\",\"76\"
\"\",\"\",\"approach-retreat\",\"225\",\"1579936\",\"0.0-225.0\",\"\",\"\",\"1-3\",\"4881\",\"39\",\"0\",\"Testing\",\"Stims/Figures/7-J-10-4.bmp\",\"zasaza\",\"Right\",\"37\",\"4\",\"5\",\"6B\",\"C2\",\"J\",\"77\"
\"\",\"\",\"approach-retreat\",\"226\",\"1585574\",\"0.0-226.0\",\"\",\"\",\"1-3\",\"4133\",\"37\",\"1\",\"Testing\",\"Stims/Figures/57-J-0-1.bmp\",\"zasa:ha\",\"Right\",\"37\",\"4\",\"6\",\"6B\",\"C2\",\"J\",\"78\"
\"\",\"\",\"approach-retreat\",\"227\",\"1591721\",\"0.0-227.0\",\"\",\"\",\"1-3\",\"4640\",\"39\",\"1\",\"Testing\",\"Stims/Figures/7-C-20-4.bmp\",\"fafava\",\"Right\",\"39\",\"4\",\"7\",\"6B\",\"C1\",\"J\",\"79\"
\"\",\"\",\"approach-retreat\",\"228\",\"1597969\",\"0.0-228.0\",\"\",\"\",\"1-3\",\"4739\",\"40\",\"0\",\"Testing\",\"Stims/Figures/74-J-10-4.bmp\",\"zahaha\",\"Down\",\"38\",\"4\",\"8\",\"6B\",\"C2\",\"J\",\"80\"
\"\",\"\",\"approach-retreat\",\"229\",\"1604604\",\"0.0-229.0\",\"\",\"\",\"1-3\",\"5116\",\"38\",\"1\",\"Testing\",\"Stims/Figures/27-C-30-1.bmp\",\"vafa:va\",\"Up\",\"38\",\"4\",\"9\",\"6B\",\"C1\",\"J\",\"81\"
\"\",\"\",\"approach-retreat\",\"230\",\"1610426\",\"0.0-230.0\",\"\",\"\",\"1-3\",\"4316\",\"38\",\"1\",\"Testing\",\"Stims/Figures/128-J-10-3.bmp\",\"sa:ha:ha\",\"Down\",\"38\",\"4\",\"10\",\"6B\",\"C2\",\"J\",\"82\"
\"\",\"\",\"approach-retreat\",\"231\",\"1617823\",\"0.0-231.0\",\"\",\"\",\"1-3\",\"5890\",\"37\",\"1\",\"Testing\",\"Stims/Figures/86-C-30-1.bmp\",\"vashasha\",\"Left\",\"37\",\"4\",\"11\",\"6B\",\"C1\",\"J\",\"83\"
\"\",\"\",\"approach-retreat\",\"232\",\"1623942\",\"0.0-232.0\",\"\",\"\",\"1-3\",\"4614\",\"38\",\"1\",\"Testing\",\"Stims/Figures/118-C-20-2.bmp\",\"fa:fa:va\",\"Up\",\"38\",\"4\",\"12\",\"6B\",\"C1\",\"J\",\"84\"
\"\",\"\",\"approach-retreat\",\"233\",\"1630061\",\"0.0-233.0\",\"\",\"\",\"1-3\",\"4612\",\"39\",\"1\",\"Testing\",\"Stims/Figures/19-C-20-4.bmp\",\"va:sha:sha\",\"Right\",\"39\",\"4\",\"13\",\"6B\",\"C1\",\"J\",\"85\"
\"\",\"\",\"approach-retreat\",\"234\",\"1636720\",\"0.0-234.0\",\"\",\"\",\"1-3\",\"5153\",\"37\",\"1\",\"Testing\",\"Stims/Figures/44-C-30-3.bmp\",\"fafa:va\",\"Left\",\"37\",\"4\",\"14\",\"6B\",\"C1\",\"J\",\"86\"
\"\",\"\",\"approach-retreat\",\"235\",\"1642633\",\"0.0-235.0\",\"\",\"\",\"1-3\",\"4408\",\"37\",\"1\",\"Testing\",\"Stims/Figures/57-C-30-1.bmp\",\"fa:sha:va\",\"Left\",\"37\",\"4\",\"15\",\"6B\",\"C1\",\"J\",\"87\"
\"\",\"\",\"approach-retreat\",\"236\",\"1648383\",\"0.0-236.0\",\"\",\"\",\"1-3\",\"4243\",\"40\",\"1\",\"Testing\",\"Stims/Figures/118-J-0-2.bmp\",\"za:ha:ha\",\"Up\",\"40\",\"4\",\"16\",\"6B\",\"C2\",\"J\",\"88\"
\"\",\"\",\"approach-retreat\",\"237\",\"1654405\",\"0.0-237.0\",\"\",\"\",\"1-3\",\"4516\",\"37\",\"1\",\"Testing\",\"Stims/Figures/139-C-20-2.bmp\",\"va:fa:sha\",\"Left\",\"37\",\"4\",\"17\",\"6B\",\"C1\",\"J\",\"89\"
\"\",\"\",\"approach-retreat\",\"238\",\"1660281\",\"0.0-238.0\",\"\",\"\",\"1-3\",\"4371\",\"38\",\"1\",\"Testing\",\"Stims/Figures/27-J-0-1.bmp\",\"sa:ha:za\",\"Down\",\"38\",\"4\",\"18\",\"6B\",\"C2\",\"J\",\"90\"
\"\",\"\",\"approach-retreat\",\"239\",\"1665922\",\"0.0-239.0\",\"\",\"\",\"1-3\",\"4134\",\"40\",\"1\",\"Testing\",\"Stims/Figures/19-J-10-4.bmp\",\"saha:za\",\"Up\",\"40\",\"4\",\"19\",\"6B\",\"C2\",\"J\",\"91\"
\"\",\"\",\"approach-retreat\",\"240\",\"1672074\",\"0.0-240.0\",\"\",\"\",\"1-3\",\"4646\",\"39\",\"0\",\"Testing\",\"Stims/Figures/74-C-20-4.bmp\",\"va:fa:va\",\"Left\",\"37\",\"4\",\"20\",\"6B\",\"C1\",\"J\",\"92\"
\"\",\"\",\"approach-retreat\",\"241\",\"1677700\",\"0.0-241.0\",\"\",\"\",\"1-3\",\"4120\",\"37\",\"1\",\"Testing\",\"Stims/Figures/111-J-10-3.bmp\",\"zahaza\",\"Right\",\"37\",\"4\",\"21\",\"6B\",\"C2\",\"J\",\"93\"
\"\",\"\",\"approach-retreat\",\"242\",\"1685274\",\"0.0-242.0\",\"\",\"\",\"1-3\",\"6068\",\"40\",\"1\",\"Testing\",\"Stims/Figures/84-C-20-2.bmp\",\"vafa:sha\",\"Down\",\"40\",\"4\",\"22\",\"6B\",\"C1\",\"J\",\"94\"
\"\",\"\",\"approach-retreat\",\"243\",\"1691279\",\"0.0-243.0\",\"\",\"\",\"1-3\",\"4499\",\"37\",\"1\",\"Testing\",\"Stims/Figures/128-C-30-3.bmp\",\"fa:shasha\",\"Left\",\"37\",\"4\",\"23\",\"6B\",\"C1\",\"J\",\"95\"
\"\",\"\",\"approach-retreat\",\"244\",\"1697108\",\"0.0-244.0\",\"\",\"\",\"1-3\",\"4321\",\"38\",\"1\",\"Testing\",\"Stims/Figures/44-J-10-3.bmp\",\"saha:ha\",\"Down\",\"38\",\"4\",\"24\",\"6B\",\"C2\",\"J\",\"96\"
\"25054\",\"\",\"survey-text\",\"245\",\"1722166\",\"0.0-245.0\",\"\",\"{\"\"Q0\"\":\"\"PS170068\"\"}\",\"\",\"\",\"\",\"\",\"\",\"\",\"\",\"\",\"\",\"\",\"\",\"\",\"\",\"\",\"\"
