\"rt\",\"key_press\",\"trial_type\",\"trial_index\",\"time_elapsed\",\"internal_node_id\",\"view_history\",\"responses\",\"Id\",\"Rt\",\"ResKeyCode\",\"ResCorr\",\"TrialType2\",\"Image\",\"Label\",\"Location\",\"CorrectResponse\",\"Block\",\"BlockTrial\",\"Condition\",\"LabelType\",\"Subcondition\",\"trialNum\"
\"43911\",\"32\",\"text\",\"0\",\"43928\",\"0.0-0.0-0.0\",\"\",\"\",\"\",\"\",\"\",\"\",\"\",\"\",\"\",\"\",\"\",\"\",\"\",\"\",\"\",\"\",\"\"
\"164326\",\"\",\"instructions\",\"1\",\"208255\",\"0.0-1.0\",\"[{\"\"page_index\"\":0,\"\"viewing_time\"\":164326}]\",\"\",\"\",\"\",\"\",\"\",\"\",\"\",\"\",\"\",\"\",\"\",\"\",\"\",\"\",\"\",\"\"
\"43683\",\"\",\"survey-multi-choice\",\"2\",\"251989\",\"0.0-2.0\",\"\",\"{\"\"Q0\"\":\"\"Da\"\",\"\"Q1\"\":\"\"Da\"\",\"\"Q2\"\":\"\"Da\"\",\"\"Q3\"\":\"\"Da\"\",\"\"Q4\"\":\"\"Da\"\",\"\"Q5\"\":\"\"Da\"\"}\",\"\",\"\",\"\",\"\",\"\",\"\",\"\",\"\",\"\",\"\",\"\",\"\",\"\",\"\",\"\"
\"\",\"\",\"bio\",\"3\",\"263860\",\"0.0-3.0\",\"\",\"{\"\"age\"\":\"\"20\"\",\"\"gender\"\":\"\"m\"\",\"\"specify\"\":\"\"\"\"}\",\"\",\"\",\"\",\"\",\"\",\"\",\"\",\"\",\"\",\"\",\"\",\"\",\"\",\"\",\"\"
\"\",\"\",\"approach-retreat\",\"4\",\"270846\",\"0.0-4.0\",\"\",\"\",\"1-3\",\"5486\",\"39\",\"0\",\"Training\",\"Stims/Figures/86-C-30-1.bmp\",\"None\",\"Left\",\"37\",\"1\",\"1\",\"10\",\"N\",\"J\",\"1\"
\"\",\"\",\"approach-retreat\",\"5\",\"277046\",\"0.0-5.0\",\"\",\"\",\"1-3\",\"4693\",\"39\",\"1\",\"Training\",\"Stims/Figures/111-J-10-3.bmp\",\"None\",\"Left\",\"39\",\"1\",\"2\",\"10\",\"N\",\"J\",\"2\"
\"\",\"\",\"approach-retreat\",\"6\",\"284247\",\"0.0-6.0\",\"\",\"\",\"1-3\",\"5694\",\"39\",\"0\",\"Training\",\"Stims/Figures/87-J-10-4.bmp\",\"None\",\"Right\",\"37\",\"1\",\"3\",\"10\",\"N\",\"J\",\"3\"
\"\",\"\",\"approach-retreat\",\"7\",\"290771\",\"0.0-7.0\",\"\",\"\",\"1-3\",\"5019\",\"37\",\"0\",\"Training\",\"Stims/Figures/84-C-20-2.bmp\",\"None\",\"Right\",\"39\",\"1\",\"4\",\"10\",\"N\",\"J\",\"4\"
\"\",\"\",\"approach-retreat\",\"8\",\"297246\",\"0.0-8.0\",\"\",\"\",\"1-3\",\"4975\",\"38\",\"0\",\"Training\",\"Stims/Figures/87-C-20-4.bmp\",\"None\",\"Down\",\"40\",\"1\",\"5\",\"10\",\"N\",\"J\",\"5\"
\"\",\"\",\"approach-retreat\",\"9\",\"303377\",\"0.0-9.0\",\"\",\"\",\"1-3\",\"4625\",\"40\",\"0\",\"Training\",\"Stims/Figures/44-C-30-3.bmp\",\"None\",\"Up\",\"38\",\"1\",\"6\",\"10\",\"N\",\"J\",\"6\"
\"\",\"\",\"approach-retreat\",\"10\",\"309928\",\"0.0-10.0\",\"\",\"\",\"1-3\",\"5048\",\"40\",\"1\",\"Training\",\"Stims/Figures/139-C-20-2.bmp\",\"None\",\"Down\",\"40\",\"1\",\"7\",\"10\",\"N\",\"J\",\"7\"
\"\",\"\",\"approach-retreat\",\"11\",\"317144\",\"0.0-11.0\",\"\",\"\",\"1-3\",\"5711\",\"40\",\"0\",\"Training\",\"Stims/Figures/139-J-0-2.bmp\",\"None\",\"Down\",\"38\",\"1\",\"8\",\"10\",\"N\",\"J\",\"8\"
\"\",\"\",\"approach-retreat\",\"12\",\"323395\",\"0.0-12.0\",\"\",\"\",\"1-3\",\"4748\",\"40\",\"0\",\"Training\",\"Stims/Figures/27-C-30-1.bmp\",\"None\",\"Up\",\"38\",\"1\",\"9\",\"10\",\"N\",\"J\",\"9\"
\"\",\"\",\"approach-retreat\",\"13\",\"329461\",\"0.0-13.0\",\"\",\"\",\"1-3\",\"4561\",\"40\",\"1\",\"Training\",\"Stims/Figures/27-J-0-1.bmp\",\"None\",\"Up\",\"40\",\"1\",\"10\",\"10\",\"N\",\"J\",\"10\"
\"\",\"\",\"approach-retreat\",\"14\",\"336685\",\"0.0-14.0\",\"\",\"\",\"1-3\",\"5723\",\"38\",\"1\",\"Training\",\"Stims/Figures/7-C-20-4.bmp\",\"None\",\"Up\",\"38\",\"1\",\"11\",\"10\",\"N\",\"J\",\"11\"
\"\",\"\",\"approach-retreat\",\"15\",\"344433\",\"0.0-15.0\",\"\",\"\",\"1-3\",\"6241\",\"39\",\"0\",\"Training\",\"Stims/Figures/84-J-0-2.bmp\",\"None\",\"Right\",\"37\",\"1\",\"12\",\"10\",\"N\",\"J\",\"12\"
\"\",\"\",\"approach-retreat\",\"16\",\"351593\",\"0.0-16.0\",\"\",\"\",\"1-3\",\"5656\",\"37\",\"0\",\"Training\",\"Stims/Figures/86-J-0-1.bmp\",\"None\",\"Left\",\"39\",\"1\",\"13\",\"10\",\"N\",\"J\",\"13\"
\"\",\"\",\"approach-retreat\",\"17\",\"358692\",\"0.0-17.0\",\"\",\"\",\"1-3\",\"5599\",\"40\",\"0\",\"Training\",\"Stims/Figures/7-J-10-4.bmp\",\"None\",\"Down\",\"38\",\"1\",\"14\",\"10\",\"N\",\"J\",\"14\"
\"\",\"\",\"approach-retreat\",\"18\",\"366509\",\"0.0-18.0\",\"\",\"\",\"1-3\",\"6310\",\"37\",\"1\",\"Training\",\"Stims/Figures/44-J-10-3.bmp\",\"None\",\"Right\",\"37\",\"1\",\"15\",\"10\",\"N\",\"J\",\"15\"
\"\",\"\",\"approach-retreat\",\"19\",\"373000\",\"0.0-19.0\",\"\",\"\",\"1-3\",\"4990\",\"39\",\"0\",\"Training\",\"Stims/Figures/111-C-30-3.bmp\",\"None\",\"Left\",\"37\",\"1\",\"16\",\"10\",\"N\",\"J\",\"16\"
\"\",\"\",\"approach-retreat\",\"20\",\"379474\",\"0.0-20.0\",\"\",\"\",\"1-3\",\"4966\",\"40\",\"1\",\"Training\",\"Stims/Figures/44-J-10-3.bmp\",\"None\",\"Up\",\"40\",\"2\",\"1\",\"10\",\"N\",\"J\",\"17\"
\"\",\"\",\"approach-retreat\",\"21\",\"386175\",\"0.0-21.0\",\"\",\"\",\"1-3\",\"5199\",\"37\",\"1\",\"Training\",\"Stims/Figures/139-C-20-2.bmp\",\"None\",\"Left\",\"37\",\"2\",\"2\",\"10\",\"N\",\"J\",\"18\"
\"\",\"\",\"approach-retreat\",\"22\",\"392134\",\"0.0-22.0\",\"\",\"\",\"1-3\",\"4459\",\"37\",\"1\",\"Training\",\"Stims/Figures/27-J-0-1.bmp\",\"None\",\"Right\",\"37\",\"2\",\"3\",\"10\",\"N\",\"J\",\"19\"
\"\",\"\",\"approach-retreat\",\"23\",\"398310\",\"0.0-23.0\",\"\",\"\",\"1-3\",\"4669\",\"37\",\"0\",\"Training\",\"Stims/Figures/7-C-20-4.bmp\",\"None\",\"Right\",\"39\",\"2\",\"4\",\"10\",\"N\",\"J\",\"20\"
\"\",\"\",\"approach-retreat\",\"24\",\"404891\",\"0.0-24.0\",\"\",\"\",\"1-3\",\"5076\",\"40\",\"1\",\"Training\",\"Stims/Figures/86-C-30-1.bmp\",\"None\",\"Down\",\"40\",\"2\",\"5\",\"10\",\"N\",\"J\",\"21\"
\"\",\"\",\"approach-retreat\",\"25\",\"410982\",\"0.0-25.0\",\"\",\"\",\"1-3\",\"4591\",\"37\",\"1\",\"Training\",\"Stims/Figures/27-C-30-1.bmp\",\"None\",\"Left\",\"37\",\"2\",\"6\",\"10\",\"N\",\"J\",\"22\"
\"\",\"\",\"approach-retreat\",\"26\",\"417518\",\"0.0-26.0\",\"\",\"\",\"1-3\",\"5035\",\"39\",\"1\",\"Training\",\"Stims/Figures/111-J-10-3.bmp\",\"None\",\"Left\",\"39\",\"2\",\"7\",\"10\",\"N\",\"J\",\"23\"
\"\",\"\",\"approach-retreat\",\"27\",\"425108\",\"0.0-27.0\",\"\",\"\",\"1-3\",\"6083\",\"38\",\"0\",\"Training\",\"Stims/Figures/87-J-10-4.bmp\",\"None\",\"Up\",\"40\",\"2\",\"8\",\"10\",\"N\",\"J\",\"24\"
\"\",\"\",\"approach-retreat\",\"28\",\"431990\",\"0.0-28.0\",\"\",\"\",\"1-3\",\"5379\",\"40\",\"0\",\"Training\",\"Stims/Figures/84-C-20-2.bmp\",\"None\",\"Up\",\"38\",\"2\",\"9\",\"10\",\"N\",\"J\",\"25\"
\"\",\"\",\"approach-retreat\",\"29\",\"438525\",\"0.0-29.0\",\"\",\"\",\"1-3\",\"5028\",\"37\",\"1\",\"Training\",\"Stims/Figures/7-J-10-4.bmp\",\"None\",\"Right\",\"37\",\"2\",\"10\",\"10\",\"N\",\"J\",\"26\"
\"\",\"\",\"approach-retreat\",\"30\",\"446013\",\"0.0-30.0\",\"\",\"\",\"1-3\",\"5982\",\"40\",\"0\",\"Training\",\"Stims/Figures/84-J-0-2.bmp\",\"None\",\"Down\",\"38\",\"2\",\"11\",\"10\",\"N\",\"J\",\"27\"
\"\",\"\",\"approach-retreat\",\"31\",\"451864\",\"0.0-31.0\",\"\",\"\",\"1-3\",\"4350\",\"38\",\"1\",\"Training\",\"Stims/Figures/139-J-0-2.bmp\",\"None\",\"Down\",\"38\",\"2\",\"12\",\"10\",\"N\",\"J\",\"28\"
\"\",\"\",\"approach-retreat\",\"32\",\"458980\",\"0.0-32.0\",\"\",\"\",\"1-3\",\"5614\",\"39\",\"0\",\"Training\",\"Stims/Figures/86-J-0-1.bmp\",\"None\",\"Right\",\"37\",\"2\",\"13\",\"10\",\"N\",\"J\",\"29\"
\"\",\"\",\"approach-retreat\",\"33\",\"465888\",\"0.0-33.0\",\"\",\"\",\"1-3\",\"5403\",\"40\",\"0\",\"Training\",\"Stims/Figures/44-C-30-3.bmp\",\"None\",\"Up\",\"38\",\"2\",\"14\",\"10\",\"N\",\"J\",\"30\"
\"\",\"\",\"approach-retreat\",\"34\",\"473596\",\"0.0-34.0\",\"\",\"\",\"1-3\",\"6202\",\"38\",\"0\",\"Training\",\"Stims/Figures/111-C-30-3.bmp\",\"None\",\"Down\",\"40\",\"2\",\"15\",\"10\",\"N\",\"J\",\"31\"
\"\",\"\",\"approach-retreat\",\"35\",\"479787\",\"0.0-35.0\",\"\",\"\",\"1-3\",\"4685\",\"39\",\"0\",\"Training\",\"Stims/Figures/87-C-20-4.bmp\",\"None\",\"Left\",\"37\",\"2\",\"16\",\"10\",\"N\",\"J\",\"32\"
\"\",\"\",\"approach-retreat\",\"36\",\"487564\",\"0.0-36.0\",\"\",\"\",\"1-3\",\"6272\",\"39\",\"0\",\"Training\",\"Stims/Figures/139-C-20-2.bmp\",\"None\",\"Left\",\"37\",\"3\",\"1\",\"10\",\"N\",\"J\",\"33\"
\"\",\"\",\"approach-retreat\",\"37\",\"494039\",\"0.0-37.0\",\"\",\"\",\"1-3\",\"4973\",\"40\",\"0\",\"Training\",\"Stims/Figures/44-C-30-3.bmp\",\"None\",\"Up\",\"38\",\"3\",\"2\",\"10\",\"N\",\"J\",\"34\"
\"\",\"\",\"approach-retreat\",\"38\",\"501796\",\"0.0-38.0\",\"\",\"\",\"1-3\",\"6254\",\"39\",\"1\",\"Training\",\"Stims/Figures/86-C-30-1.bmp\",\"None\",\"Right\",\"39\",\"3\",\"3\",\"10\",\"N\",\"J\",\"35\"
\"\",\"\",\"approach-retreat\",\"39\",\"510246\",\"0.0-39.0\",\"\",\"\",\"1-3\",\"6949\",\"40\",\"1\",\"Training\",\"Stims/Figures/111-C-30-3.bmp\",\"None\",\"Down\",\"40\",\"3\",\"4\",\"10\",\"N\",\"J\",\"36\"
\"\",\"\",\"approach-retreat\",\"40\",\"517268\",\"0.0-40.0\",\"\",\"\",\"1-3\",\"5518\",\"39\",\"0\",\"Training\",\"Stims/Figures/7-J-10-4.bmp\",\"None\",\"Right\",\"37\",\"3\",\"5\",\"10\",\"N\",\"J\",\"37\"
\"\",\"\",\"approach-retreat\",\"41\",\"523710\",\"0.0-41.0\",\"\",\"\",\"1-3\",\"4937\",\"40\",\"0\",\"Training\",\"Stims/Figures/84-C-20-2.bmp\",\"None\",\"Up\",\"38\",\"3\",\"6\",\"10\",\"N\",\"J\",\"38\"
\"\",\"\",\"approach-retreat\",\"42\",\"532093\",\"0.0-42.0\",\"\",\"\",\"1-3\",\"6881\",\"40\",\"0\",\"Training\",\"Stims/Figures/44-J-10-3.bmp\",\"None\",\"Down\",\"38\",\"3\",\"7\",\"10\",\"N\",\"J\",\"39\"
\"\",\"\",\"approach-retreat\",\"43\",\"538110\",\"0.0-43.0\",\"\",\"\",\"1-3\",\"4513\",\"37\",\"1\",\"Training\",\"Stims/Figures/86-J-0-1.bmp\",\"None\",\"Right\",\"37\",\"3\",\"8\",\"10\",\"N\",\"J\",\"40\"
\"\",\"\",\"approach-retreat\",\"44\",\"544410\",\"0.0-44.0\",\"\",\"\",\"1-3\",\"4794\",\"38\",\"1\",\"Training\",\"Stims/Figures/139-J-0-2.bmp\",\"None\",\"Down\",\"38\",\"3\",\"9\",\"10\",\"N\",\"J\",\"41\"
\"\",\"\",\"approach-retreat\",\"45\",\"550193\",\"0.0-45.0\",\"\",\"\",\"1-3\",\"4278\",\"38\",\"1\",\"Training\",\"Stims/Figures/87-J-10-4.bmp\",\"None\",\"Down\",\"38\",\"3\",\"10\",\"10\",\"N\",\"J\",\"42\"
\"\",\"\",\"approach-retreat\",\"46\",\"556402\",\"0.0-46.0\",\"\",\"\",\"1-3\",\"4706\",\"40\",\"0\",\"Training\",\"Stims/Figures/27-C-30-1.bmp\",\"None\",\"Up\",\"38\",\"3\",\"11\",\"10\",\"N\",\"J\",\"43\"
\"\",\"\",\"approach-retreat\",\"47\",\"563918\",\"0.0-47.0\",\"\",\"\",\"1-3\",\"6015\",\"39\",\"0\",\"Training\",\"Stims/Figures/87-C-20-4.bmp\",\"None\",\"Left\",\"37\",\"3\",\"12\",\"10\",\"N\",\"J\",\"44\"
\"\",\"\",\"approach-retreat\",\"48\",\"570051\",\"0.0-48.0\",\"\",\"\",\"1-3\",\"4629\",\"40\",\"1\",\"Training\",\"Stims/Figures/84-J-0-2.bmp\",\"None\",\"Up\",\"40\",\"3\",\"13\",\"10\",\"N\",\"J\",\"45\"
\"\",\"\",\"approach-retreat\",\"49\",\"575984\",\"0.0-49.0\",\"\",\"\",\"1-3\",\"4428\",\"37\",\"1\",\"Training\",\"Stims/Figures/27-J-0-1.bmp\",\"None\",\"Right\",\"37\",\"3\",\"14\",\"10\",\"N\",\"J\",\"46\"
\"\",\"\",\"approach-retreat\",\"50\",\"582142\",\"0.0-50.0\",\"\",\"\",\"1-3\",\"4653\",\"39\",\"1\",\"Training\",\"Stims/Figures/111-J-10-3.bmp\",\"None\",\"Left\",\"39\",\"3\",\"15\",\"10\",\"N\",\"J\",\"47\"
\"\",\"\",\"approach-retreat\",\"51\",\"587918\",\"0.0-51.0\",\"\",\"\",\"1-3\",\"4271\",\"39\",\"0\",\"Training\",\"Stims/Figures/7-C-20-4.bmp\",\"None\",\"Left\",\"37\",\"3\",\"16\",\"10\",\"N\",\"J\",\"48\"
\"\",\"\",\"approach-retreat\",\"52\",\"593704\",\"0.0-52.0\",\"\",\"\",\"1-3\",\"4279\",\"37\",\"0\",\"Training\",\"Stims/Figures/84-C-20-2.bmp\",\"None\",\"Right\",\"39\",\"4\",\"1\",\"10\",\"N\",\"J\",\"49\"
\"\",\"\",\"approach-retreat\",\"53\",\"599700\",\"0.0-53.0\",\"\",\"\",\"1-3\",\"4494\",\"38\",\"0\",\"Training\",\"Stims/Figures/27-C-30-1.bmp\",\"None\",\"Down\",\"40\",\"4\",\"2\",\"10\",\"N\",\"J\",\"50\"
\"\",\"\",\"approach-retreat\",\"54\",\"606082\",\"0.0-54.0\",\"\",\"\",\"1-3\",\"4880\",\"37\",\"0\",\"Training\",\"Stims/Figures/87-C-20-4.bmp\",\"None\",\"Right\",\"39\",\"4\",\"3\",\"10\",\"N\",\"J\",\"51\"
\"\",\"\",\"approach-retreat\",\"55\",\"611916\",\"0.0-55.0\",\"\",\"\",\"1-3\",\"4334\",\"37\",\"1\",\"Training\",\"Stims/Figures/111-J-10-3.bmp\",\"None\",\"Right\",\"37\",\"4\",\"4\",\"10\",\"N\",\"J\",\"52\"
\"\",\"\",\"approach-retreat\",\"56\",\"617916\",\"0.0-56.0\",\"\",\"\",\"1-3\",\"4497\",\"40\",\"1\",\"Training\",\"Stims/Figures/139-J-0-2.bmp\",\"None\",\"Up\",\"40\",\"4\",\"5\",\"10\",\"N\",\"J\",\"53\"
\"\",\"\",\"approach-retreat\",\"57\",\"623757\",\"0.0-57.0\",\"\",\"\",\"1-3\",\"4335\",\"37\",\"1\",\"Training\",\"Stims/Figures/84-J-0-2.bmp\",\"None\",\"Right\",\"37\",\"4\",\"6\",\"10\",\"N\",\"J\",\"54\"
\"\",\"\",\"approach-retreat\",\"58\",\"629706\",\"0.0-58.0\",\"\",\"\",\"1-3\",\"4443\",\"38\",\"1\",\"Training\",\"Stims/Figures/44-J-10-3.bmp\",\"None\",\"Down\",\"38\",\"4\",\"7\",\"10\",\"N\",\"J\",\"55\"
\"\",\"\",\"approach-retreat\",\"59\",\"636574\",\"0.0-59.0\",\"\",\"\",\"1-3\",\"5363\",\"37\",\"1\",\"Training\",\"Stims/Figures/86-C-30-1.bmp\",\"None\",\"Left\",\"37\",\"4\",\"8\",\"10\",\"N\",\"J\",\"56\"
\"\",\"\",\"approach-retreat\",\"60\",\"642972\",\"0.0-60.0\",\"\",\"\",\"1-3\",\"4895\",\"37\",\"0\",\"Training\",\"Stims/Figures/87-J-10-4.bmp\",\"None\",\"Left\",\"39\",\"4\",\"9\",\"10\",\"N\",\"J\",\"57\"
\"\",\"\",\"approach-retreat\",\"61\",\"648756\",\"0.0-61.0\",\"\",\"\",\"1-3\",\"4280\",\"39\",\"1\",\"Training\",\"Stims/Figures/27-J-0-1.bmp\",\"None\",\"Left\",\"39\",\"4\",\"10\",\"10\",\"N\",\"J\",\"58\"
\"\",\"\",\"approach-retreat\",\"62\",\"655509\",\"0.0-62.0\",\"\",\"\",\"1-3\",\"5253\",\"38\",\"0\",\"Training\",\"Stims/Figures/7-J-10-4.bmp\",\"None\",\"Up\",\"40\",\"4\",\"11\",\"10\",\"N\",\"J\",\"59\"
\"\",\"\",\"approach-retreat\",\"63\",\"661364\",\"0.0-63.0\",\"\",\"\",\"1-3\",\"4354\",\"38\",\"0\",\"Training\",\"Stims/Figures/44-C-30-3.bmp\",\"None\",\"Down\",\"40\",\"4\",\"12\",\"10\",\"N\",\"J\",\"60\"
\"\",\"\",\"approach-retreat\",\"64\",\"668781\",\"0.0-64.0\",\"\",\"\",\"1-3\",\"5915\",\"40\",\"1\",\"Training\",\"Stims/Figures/86-J-0-1.bmp\",\"None\",\"Up\",\"40\",\"4\",\"13\",\"10\",\"N\",\"J\",\"61\"
\"\",\"\",\"approach-retreat\",\"65\",\"674592\",\"0.0-65.0\",\"\",\"\",\"1-3\",\"4309\",\"39\",\"0\",\"Training\",\"Stims/Figures/111-C-30-3.bmp\",\"None\",\"Left\",\"37\",\"4\",\"14\",\"10\",\"N\",\"J\",\"62\"
\"\",\"\",\"approach-retreat\",\"66\",\"681032\",\"0.0-66.0\",\"\",\"\",\"1-3\",\"4938\",\"40\",\"1\",\"Training\",\"Stims/Figures/139-C-20-2.bmp\",\"None\",\"Down\",\"40\",\"4\",\"15\",\"10\",\"N\",\"J\",\"63\"
\"\",\"\",\"approach-retreat\",\"67\",\"687484\",\"0.0-67.0\",\"\",\"\",\"1-3\",\"4947\",\"40\",\"0\",\"Training\",\"Stims/Figures/7-C-20-4.bmp\",\"None\",\"Up\",\"38\",\"4\",\"16\",\"10\",\"N\",\"J\",\"64\"
\"\",\"\",\"approach-retreat\",\"68\",\"693334\",\"0.0-68.0\",\"\",\"\",\"1-3\",\"4344\",\"39\",\"1\",\"Training\",\"Stims/Figures/111-J-10-3.bmp\",\"None\",\"Left\",\"39\",\"5\",\"1\",\"10\",\"N\",\"J\",\"65\"
\"\",\"\",\"approach-retreat\",\"69\",\"699480\",\"0.0-69.0\",\"\",\"\",\"1-3\",\"4642\",\"38\",\"1\",\"Training\",\"Stims/Figures/86-C-30-1.bmp\",\"None\",\"Up\",\"38\",\"5\",\"2\",\"10\",\"N\",\"J\",\"66\"
\"\",\"\",\"approach-retreat\",\"70\",\"705546\",\"0.0-70.0\",\"\",\"\",\"1-3\",\"4560\",\"40\",\"0\",\"Training\",\"Stims/Figures/44-C-30-3.bmp\",\"None\",\"Up\",\"38\",\"5\",\"3\",\"10\",\"N\",\"J\",\"67\"
\"\",\"\",\"approach-retreat\",\"71\",\"711254\",\"0.0-71.0\",\"\",\"\",\"1-3\",\"4207\",\"37\",\"1\",\"Training\",\"Stims/Figures/86-J-0-1.bmp\",\"None\",\"Right\",\"37\",\"5\",\"4\",\"10\",\"N\",\"J\",\"68\"
\"\",\"\",\"approach-retreat\",\"72\",\"718156\",\"0.0-72.0\",\"\",\"\",\"1-3\",\"5397\",\"38\",\"0\",\"Training\",\"Stims/Figures/27-C-30-1.bmp\",\"None\",\"Down\",\"40\",\"5\",\"5\",\"10\",\"N\",\"J\",\"69\"
\"\",\"\",\"approach-retreat\",\"73\",\"723878\",\"0.0-73.0\",\"\",\"\",\"1-3\",\"4222\",\"38\",\"1\",\"Training\",\"Stims/Figures/87-J-10-4.bmp\",\"None\",\"Down\",\"38\",\"5\",\"6\",\"10\",\"N\",\"J\",\"70\"
\"\",\"\",\"approach-retreat\",\"74\",\"731902\",\"0.0-74.0\",\"\",\"\",\"1-3\",\"6522\",\"37\",\"0\",\"Training\",\"Stims/Figures/87-C-20-4.bmp\",\"None\",\"Right\",\"39\",\"5\",\"7\",\"10\",\"N\",\"J\",\"71\"
\"\",\"\",\"approach-retreat\",\"75\",\"738329\",\"0.0-75.0\",\"\",\"\",\"1-3\",\"4921\",\"39\",\"0\",\"Training\",\"Stims/Figures/7-J-10-4.bmp\",\"None\",\"Right\",\"37\",\"5\",\"8\",\"10\",\"N\",\"J\",\"72\"
\"\",\"\",\"approach-retreat\",\"76\",\"744545\",\"0.0-76.0\",\"\",\"\",\"1-3\",\"4714\",\"40\",\"0\",\"Training\",\"Stims/Figures/111-C-30-3.bmp\",\"None\",\"Up\",\"38\",\"5\",\"9\",\"10\",\"N\",\"J\",\"73\"
\"\",\"\",\"approach-retreat\",\"77\",\"750885\",\"0.0-77.0\",\"\",\"\",\"1-3\",\"4839\",\"37\",\"1\",\"Training\",\"Stims/Figures/84-J-0-2.bmp\",\"None\",\"Right\",\"37\",\"5\",\"10\",\"10\",\"N\",\"J\",\"74\"
\"\",\"\",\"approach-retreat\",\"78\",\"757176\",\"0.0-78.0\",\"\",\"\",\"1-3\",\"4786\",\"38\",\"1\",\"Training\",\"Stims/Figures/139-C-20-2.bmp\",\"None\",\"Up\",\"38\",\"5\",\"11\",\"10\",\"N\",\"J\",\"75\"
\"\",\"\",\"approach-retreat\",\"79\",\"763059\",\"0.0-79.0\",\"\",\"\",\"1-3\",\"4380\",\"39\",\"1\",\"Training\",\"Stims/Figures/44-J-10-3.bmp\",\"None\",\"Left\",\"39\",\"5\",\"12\",\"10\",\"N\",\"J\",\"76\"
\"\",\"\",\"approach-retreat\",\"80\",\"769168\",\"0.0-80.0\",\"\",\"\",\"1-3\",\"4585\",\"38\",\"1\",\"Training\",\"Stims/Figures/27-J-0-1.bmp\",\"None\",\"Down\",\"38\",\"5\",\"13\",\"10\",\"N\",\"J\",\"77\"
\"\",\"\",\"approach-retreat\",\"81\",\"775459\",\"0.0-81.0\",\"\",\"\",\"1-3\",\"4788\",\"39\",\"1\",\"Training\",\"Stims/Figures/139-J-0-2.bmp\",\"None\",\"Left\",\"39\",\"5\",\"14\",\"10\",\"N\",\"J\",\"78\"
\"\",\"\",\"approach-retreat\",\"82\",\"781278\",\"0.0-82.0\",\"\",\"\",\"1-3\",\"4318\",\"39\",\"0\",\"Training\",\"Stims/Figures/84-C-20-2.bmp\",\"None\",\"Left\",\"37\",\"5\",\"15\",\"10\",\"N\",\"J\",\"79\"
\"\",\"\",\"approach-retreat\",\"83\",\"787349\",\"0.0-83.0\",\"\",\"\",\"1-3\",\"4565\",\"40\",\"1\",\"Training\",\"Stims/Figures/7-C-20-4.bmp\",\"None\",\"Down\",\"40\",\"5\",\"16\",\"10\",\"N\",\"J\",\"80\"
\"\",\"\",\"approach-retreat\",\"84\",\"793392\",\"0.0-84.0\",\"\",\"\",\"1-3\",\"4537\",\"40\",\"1\",\"Training\",\"Stims/Figures/87-J-10-4.bmp\",\"None\",\"Up\",\"40\",\"6\",\"1\",\"10\",\"N\",\"J\",\"81\"
\"\",\"\",\"approach-retreat\",\"85\",\"799442\",\"0.0-85.0\",\"\",\"\",\"1-3\",\"4543\",\"37\",\"1\",\"Training\",\"Stims/Figures/86-J-0-1.bmp\",\"None\",\"Right\",\"37\",\"6\",\"2\",\"10\",\"N\",\"J\",\"82\"
\"\",\"\",\"approach-retreat\",\"86\",\"806057\",\"0.0-86.0\",\"\",\"\",\"1-3\",\"5109\",\"40\",\"1\",\"Training\",\"Stims/Figures/86-C-30-1.bmp\",\"None\",\"Down\",\"40\",\"6\",\"3\",\"10\",\"N\",\"J\",\"83\"
\"\",\"\",\"approach-retreat\",\"87\",\"812017\",\"0.0-87.0\",\"\",\"\",\"1-3\",\"4459\",\"40\",\"1\",\"Training\",\"Stims/Figures/27-J-0-1.bmp\",\"None\",\"Up\",\"40\",\"6\",\"4\",\"10\",\"N\",\"J\",\"84\"
\"\",\"\",\"approach-retreat\",\"88\",\"817815\",\"0.0-88.0\",\"\",\"\",\"1-3\",\"4294\",\"37\",\"1\",\"Training\",\"Stims/Figures/139-C-20-2.bmp\",\"None\",\"Left\",\"37\",\"6\",\"5\",\"10\",\"N\",\"J\",\"85\"
\"\",\"\",\"approach-retreat\",\"89\",\"823692\",\"0.0-89.0\",\"\",\"\",\"1-3\",\"4373\",\"40\",\"1\",\"Training\",\"Stims/Figures/111-J-10-3.bmp\",\"None\",\"Up\",\"40\",\"6\",\"6\",\"10\",\"N\",\"J\",\"86\"
\"\",\"\",\"approach-retreat\",\"90\",\"830640\",\"0.0-90.0\",\"\",\"\",\"1-3\",\"5444\",\"39\",\"1\",\"Training\",\"Stims/Figures/7-C-20-4.bmp\",\"None\",\"Right\",\"39\",\"6\",\"7\",\"10\",\"N\",\"J\",\"87\"
\"\",\"\",\"approach-retreat\",\"91\",\"837098\",\"0.0-91.0\",\"\",\"\",\"1-3\",\"4952\",\"38\",\"0\",\"Training\",\"Stims/Figures/84-C-20-2.bmp\",\"None\",\"Down\",\"40\",\"6\",\"8\",\"10\",\"N\",\"J\",\"88\"
\"\",\"\",\"approach-retreat\",\"92\",\"843033\",\"0.0-92.0\",\"\",\"\",\"1-3\",\"4428\",\"38\",\"1\",\"Training\",\"Stims/Figures/44-J-10-3.bmp\",\"None\",\"Down\",\"38\",\"6\",\"9\",\"10\",\"N\",\"J\",\"89\"
\"\",\"\",\"approach-retreat\",\"93\",\"849174\",\"0.0-93.0\",\"\",\"\",\"1-3\",\"4637\",\"37\",\"1\",\"Training\",\"Stims/Figures/44-C-30-3.bmp\",\"None\",\"Left\",\"37\",\"6\",\"10\",\"10\",\"N\",\"J\",\"90\"
\"\",\"\",\"approach-retreat\",\"94\",\"856055\",\"0.0-94.0\",\"\",\"\",\"1-3\",\"5380\",\"37\",\"0\",\"Training\",\"Stims/Figures/84-J-0-2.bmp\",\"None\",\"Left\",\"39\",\"6\",\"11\",\"10\",\"N\",\"J\",\"91\"
\"\",\"\",\"approach-retreat\",\"95\",\"862315\",\"0.0-95.0\",\"\",\"\",\"1-3\",\"4757\",\"39\",\"0\",\"Training\",\"Stims/Figures/7-J-10-4.bmp\",\"None\",\"Right\",\"37\",\"6\",\"12\",\"10\",\"N\",\"J\",\"92\"
\"\",\"\",\"approach-retreat\",\"96\",\"868480\",\"0.0-96.0\",\"\",\"\",\"1-3\",\"4662\",\"40\",\"1\",\"Training\",\"Stims/Figures/139-J-0-2.bmp\",\"None\",\"Up\",\"40\",\"6\",\"13\",\"10\",\"N\",\"J\",\"93\"
\"\",\"\",\"approach-retreat\",\"97\",\"874446\",\"0.0-97.0\",\"\",\"\",\"1-3\",\"4459\",\"38\",\"0\",\"Training\",\"Stims/Figures/87-C-20-4.bmp\",\"None\",\"Down\",\"40\",\"6\",\"14\",\"10\",\"N\",\"J\",\"94\"
\"\",\"\",\"approach-retreat\",\"98\",\"880774\",\"0.0-98.0\",\"\",\"\",\"1-3\",\"4823\",\"37\",\"1\",\"Training\",\"Stims/Figures/111-C-30-3.bmp\",\"None\",\"Left\",\"37\",\"6\",\"15\",\"10\",\"N\",\"J\",\"95\"
\"\",\"\",\"approach-retreat\",\"99\",\"886656\",\"0.0-99.0\",\"\",\"\",\"1-3\",\"4380\",\"39\",\"1\",\"Training\",\"Stims/Figures/27-C-30-1.bmp\",\"None\",\"Right\",\"39\",\"6\",\"16\",\"10\",\"N\",\"J\",\"96\"
\"\",\"\",\"approach-retreat\",\"100\",\"892654\",\"0.0-100.0\",\"\",\"\",\"1-3\",\"4497\",\"38\",\"0\",\"Training\",\"Stims/Figures/7-C-20-4.bmp\",\"None\",\"Down\",\"40\",\"7\",\"1\",\"10\",\"N\",\"J\",\"97\"
\"\",\"\",\"approach-retreat\",\"101\",\"899861\",\"0.0-101.0\",\"\",\"\",\"1-3\",\"5700\",\"39\",\"1\",\"Training\",\"Stims/Figures/84-C-20-2.bmp\",\"None\",\"Right\",\"39\",\"7\",\"2\",\"10\",\"N\",\"J\",\"98\"
\"\",\"\",\"approach-retreat\",\"102\",\"905853\",\"0.0-102.0\",\"\",\"\",\"1-3\",\"4490\",\"40\",\"1\",\"Training\",\"Stims/Figures/87-J-10-4.bmp\",\"None\",\"Up\",\"40\",\"7\",\"3\",\"10\",\"N\",\"J\",\"99\"
\"\",\"\",\"approach-retreat\",\"103\",\"911988\",\"0.0-103.0\",\"\",\"\",\"1-3\",\"4631\",\"38\",\"1\",\"Training\",\"Stims/Figures/111-J-10-3.bmp\",\"None\",\"Down\",\"38\",\"7\",\"4\",\"10\",\"N\",\"J\",\"100\"
\"\",\"\",\"approach-retreat\",\"104\",\"918394\",\"0.0-104.0\",\"\",\"\",\"1-3\",\"4904\",\"39\",\"1\",\"Training\",\"Stims/Figures/44-J-10-3.bmp\",\"None\",\"Left\",\"39\",\"7\",\"5\",\"10\",\"N\",\"J\",\"101\"
\"\",\"\",\"approach-retreat\",\"105\",\"924245\",\"0.0-105.0\",\"\",\"\",\"1-3\",\"4350\",\"37\",\"1\",\"Training\",\"Stims/Figures/139-C-20-2.bmp\",\"None\",\"Left\",\"37\",\"7\",\"6\",\"10\",\"N\",\"J\",\"102\"
\"\",\"\",\"approach-retreat\",\"106\",\"930814\",\"0.0-106.0\",\"\",\"\",\"1-3\",\"5066\",\"37\",\"1\",\"Training\",\"Stims/Figures/27-J-0-1.bmp\",\"None\",\"Right\",\"37\",\"7\",\"7\",\"10\",\"N\",\"J\",\"103\"
\"\",\"\",\"approach-retreat\",\"107\",\"937061\",\"0.0-107.0\",\"\",\"\",\"1-3\",\"4745\",\"38\",\"1\",\"Training\",\"Stims/Figures/86-C-30-1.bmp\",\"None\",\"Up\",\"38\",\"7\",\"8\",\"10\",\"N\",\"J\",\"104\"
\"\",\"\",\"approach-retreat\",\"108\",\"943194\",\"0.0-108.0\",\"\",\"\",\"1-3\",\"4631\",\"39\",\"1\",\"Training\",\"Stims/Figures/44-C-30-3.bmp\",\"None\",\"Right\",\"39\",\"7\",\"9\",\"10\",\"N\",\"J\",\"105\"
\"\",\"\",\"approach-retreat\",\"109\",\"949069\",\"0.0-109.0\",\"\",\"\",\"1-3\",\"4372\",\"38\",\"1\",\"Training\",\"Stims/Figures/86-J-0-1.bmp\",\"None\",\"Down\",\"38\",\"7\",\"10\",\"10\",\"N\",\"J\",\"106\"
\"\",\"\",\"approach-retreat\",\"110\",\"954961\",\"0.0-110.0\",\"\",\"\",\"1-3\",\"4390\",\"39\",\"1\",\"Training\",\"Stims/Figures/84-J-0-2.bmp\",\"None\",\"Left\",\"39\",\"7\",\"11\",\"10\",\"N\",\"J\",\"107\"
\"\",\"\",\"approach-retreat\",\"111\",\"960737\",\"0.0-111.0\",\"\",\"\",\"1-3\",\"4271\",\"38\",\"0\",\"Training\",\"Stims/Figures/111-C-30-3.bmp\",\"None\",\"Down\",\"40\",\"7\",\"12\",\"10\",\"N\",\"J\",\"108\"
\"\",\"\",\"approach-retreat\",\"112\",\"966669\",\"0.0-112.0\",\"\",\"\",\"1-3\",\"4426\",\"40\",\"1\",\"Training\",\"Stims/Figures/139-J-0-2.bmp\",\"None\",\"Up\",\"40\",\"7\",\"13\",\"10\",\"N\",\"J\",\"109\"
\"\",\"\",\"approach-retreat\",\"113\",\"972415\",\"0.0-113.0\",\"\",\"\",\"1-3\",\"4240\",\"37\",\"0\",\"Training\",\"Stims/Figures/7-J-10-4.bmp\",\"None\",\"Left\",\"39\",\"7\",\"14\",\"10\",\"N\",\"J\",\"110\"
\"\",\"\",\"approach-retreat\",\"114\",\"979785\",\"0.0-114.0\",\"\",\"\",\"1-3\",\"5868\",\"38\",\"1\",\"Training\",\"Stims/Figures/27-C-30-1.bmp\",\"None\",\"Up\",\"38\",\"7\",\"15\",\"10\",\"N\",\"J\",\"111\"
\"\",\"\",\"approach-retreat\",\"115\",\"986152\",\"0.0-115.0\",\"\",\"\",\"1-3\",\"4865\",\"39\",\"1\",\"Training\",\"Stims/Figures/87-C-20-4.bmp\",\"None\",\"Right\",\"39\",\"7\",\"16\",\"10\",\"N\",\"J\",\"112\"
\"\",\"\",\"approach-retreat\",\"116\",\"991945\",\"0.0-116.0\",\"\",\"\",\"1-3\",\"4293\",\"39\",\"0\",\"Training\",\"Stims/Figures/139-J-0-2.bmp\",\"None\",\"Right\",\"37\",\"8\",\"1\",\"10\",\"N\",\"J\",\"113\"
\"\",\"\",\"approach-retreat\",\"117\",\"998324\",\"0.0-117.0\",\"\",\"\",\"1-3\",\"4879\",\"38\",\"1\",\"Training\",\"Stims/Figures/87-J-10-4.bmp\",\"None\",\"Down\",\"38\",\"8\",\"2\",\"10\",\"N\",\"J\",\"114\"
\"\",\"\",\"approach-retreat\",\"118\",\"1004400\",\"0.0-118.0\",\"\",\"\",\"1-3\",\"4569\",\"37\",\"1\",\"Training\",\"Stims/Figures/7-J-10-4.bmp\",\"None\",\"Right\",\"37\",\"8\",\"3\",\"10\",\"N\",\"J\",\"115\"
\"\",\"\",\"approach-retreat\",\"119\",\"1010659\",\"0.0-119.0\",\"\",\"\",\"1-3\",\"4756\",\"39\",\"1\",\"Training\",\"Stims/Figures/84-J-0-2.bmp\",\"None\",\"Left\",\"39\",\"8\",\"4\",\"10\",\"N\",\"J\",\"116\"
\"\",\"\",\"approach-retreat\",\"120\",\"1016642\",\"0.0-120.0\",\"\",\"\",\"1-3\",\"4480\",\"38\",\"1\",\"Training\",\"Stims/Figures/44-J-10-3.bmp\",\"None\",\"Down\",\"38\",\"8\",\"5\",\"10\",\"N\",\"J\",\"117\"
\"\",\"\",\"approach-retreat\",\"121\",\"1022651\",\"0.0-121.0\",\"\",\"\",\"1-3\",\"4505\",\"40\",\"1\",\"Training\",\"Stims/Figures/27-J-0-1.bmp\",\"None\",\"Up\",\"40\",\"8\",\"6\",\"10\",\"N\",\"J\",\"118\"
\"\",\"\",\"approach-retreat\",\"122\",\"1028549\",\"0.0-122.0\",\"\",\"\",\"1-3\",\"4395\",\"37\",\"1\",\"Training\",\"Stims/Figures/86-C-30-1.bmp\",\"None\",\"Left\",\"37\",\"8\",\"7\",\"10\",\"N\",\"J\",\"119\"
\"\",\"\",\"approach-retreat\",\"123\",\"1035233\",\"0.0-123.0\",\"\",\"\",\"1-3\",\"5183\",\"38\",\"1\",\"Training\",\"Stims/Figures/44-C-30-3.bmp\",\"None\",\"Up\",\"38\",\"8\",\"8\",\"10\",\"N\",\"J\",\"120\"
\"\",\"\",\"approach-retreat\",\"124\",\"1041734\",\"0.0-124.0\",\"\",\"\",\"1-3\",\"4998\",\"38\",\"1\",\"Training\",\"Stims/Figures/7-C-20-4.bmp\",\"None\",\"Up\",\"38\",\"8\",\"9\",\"10\",\"N\",\"J\",\"121\"
\"\",\"\",\"approach-retreat\",\"125\",\"1047657\",\"0.0-125.0\",\"\",\"\",\"1-3\",\"4419\",\"40\",\"1\",\"Training\",\"Stims/Figures/86-J-0-1.bmp\",\"None\",\"Up\",\"40\",\"8\",\"10\",\"10\",\"N\",\"J\",\"122\"
\"\",\"\",\"approach-retreat\",\"126\",\"1053456\",\"0.0-126.0\",\"\",\"\",\"1-3\",\"4295\",\"37\",\"1\",\"Training\",\"Stims/Figures/27-C-30-1.bmp\",\"None\",\"Left\",\"37\",\"8\",\"11\",\"10\",\"N\",\"J\",\"123\"
\"\",\"\",\"approach-retreat\",\"127\",\"1059264\",\"0.0-127.0\",\"\",\"\",\"1-3\",\"4304\",\"39\",\"1\",\"Training\",\"Stims/Figures/111-J-10-3.bmp\",\"None\",\"Left\",\"39\",\"8\",\"12\",\"10\",\"N\",\"J\",\"124\"
\"\",\"\",\"approach-retreat\",\"128\",\"1065438\",\"0.0-128.0\",\"\",\"\",\"1-3\",\"4672\",\"40\",\"1\",\"Training\",\"Stims/Figures/139-C-20-2.bmp\",\"None\",\"Down\",\"40\",\"8\",\"13\",\"10\",\"N\",\"J\",\"125\"
\"\",\"\",\"approach-retreat\",\"129\",\"1071438\",\"0.0-129.0\",\"\",\"\",\"1-3\",\"4498\",\"39\",\"1\",\"Training\",\"Stims/Figures/87-C-20-4.bmp\",\"None\",\"Right\",\"39\",\"8\",\"14\",\"10\",\"N\",\"J\",\"126\"
\"\",\"\",\"approach-retreat\",\"130\",\"1077364\",\"0.0-130.0\",\"\",\"\",\"1-3\",\"4421\",\"39\",\"1\",\"Training\",\"Stims/Figures/84-C-20-2.bmp\",\"None\",\"Right\",\"39\",\"8\",\"15\",\"10\",\"N\",\"J\",\"127\"
\"\",\"\",\"approach-retreat\",\"131\",\"1083480\",\"0.0-131.0\",\"\",\"\",\"1-3\",\"4615\",\"40\",\"1\",\"Training\",\"Stims/Figures/111-C-30-3.bmp\",\"None\",\"Down\",\"40\",\"8\",\"16\",\"10\",\"N\",\"J\",\"128\"
\"\",\"\",\"approach-retreat\",\"132\",\"1089445\",\"0.0-132.0\",\"\",\"\",\"1-3\",\"4458\",\"38\",\"0\",\"Training\",\"Stims/Figures/44-J-10-3.bmp\",\"None\",\"Up\",\"40\",\"9\",\"1\",\"10\",\"N\",\"J\",\"129\"
\"\",\"\",\"approach-retreat\",\"133\",\"1095804\",\"0.0-133.0\",\"\",\"\",\"1-3\",\"4852\",\"39\",\"0\",\"Training\",\"Stims/Figures/84-C-20-2.bmp\",\"None\",\"Left\",\"37\",\"9\",\"2\",\"10\",\"N\",\"J\",\"130\"
\"\",\"\",\"approach-retreat\",\"134\",\"1101788\",\"0.0-134.0\",\"\",\"\",\"1-3\",\"4484\",\"40\",\"1\",\"Training\",\"Stims/Figures/7-J-10-4.bmp\",\"None\",\"Up\",\"40\",\"9\",\"3\",\"10\",\"N\",\"J\",\"131\"
\"\",\"\",\"approach-retreat\",\"135\",\"1107570\",\"0.0-135.0\",\"\",\"\",\"1-3\",\"4279\",\"39\",\"1\",\"Training\",\"Stims/Figures/27-J-0-1.bmp\",\"None\",\"Left\",\"39\",\"9\",\"4\",\"10\",\"N\",\"J\",\"132\"
\"\",\"\",\"approach-retreat\",\"136\",\"1114354\",\"0.0-136.0\",\"\",\"\",\"1-3\",\"5281\",\"39\",\"1\",\"Training\",\"Stims/Figures/27-C-30-1.bmp\",\"None\",\"Right\",\"39\",\"9\",\"5\",\"10\",\"N\",\"J\",\"133\"
\"\",\"\",\"approach-retreat\",\"137\",\"1120137\",\"0.0-137.0\",\"\",\"\",\"1-3\",\"4279\",\"40\",\"1\",\"Training\",\"Stims/Figures/86-J-0-1.bmp\",\"None\",\"Up\",\"40\",\"9\",\"6\",\"10\",\"N\",\"J\",\"134\"
\"\",\"\",\"approach-retreat\",\"138\",\"1125887\",\"0.0-138.0\",\"\",\"\",\"1-3\",\"4249\",\"39\",\"1\",\"Training\",\"Stims/Figures/139-J-0-2.bmp\",\"None\",\"Left\",\"39\",\"9\",\"7\",\"10\",\"N\",\"J\",\"135\"
\"\",\"\",\"approach-retreat\",\"139\",\"1132244\",\"0.0-139.0\",\"\",\"\",\"1-3\",\"4850\",\"37\",\"1\",\"Training\",\"Stims/Figures/84-J-0-2.bmp\",\"None\",\"Right\",\"37\",\"9\",\"8\",\"10\",\"N\",\"J\",\"136\"
\"\",\"\",\"approach-retreat\",\"140\",\"1138227\",\"0.0-140.0\",\"\",\"\",\"1-3\",\"4475\",\"40\",\"1\",\"Training\",\"Stims/Figures/111-J-10-3.bmp\",\"None\",\"Up\",\"40\",\"9\",\"9\",\"10\",\"N\",\"J\",\"137\"
\"\",\"\",\"approach-retreat\",\"141\",\"1144296\",\"0.0-141.0\",\"\",\"\",\"1-3\",\"4562\",\"37\",\"1\",\"Training\",\"Stims/Figures/87-J-10-4.bmp\",\"None\",\"Right\",\"37\",\"9\",\"10\",\"10\",\"N\",\"J\",\"138\"
\"\",\"\",\"approach-retreat\",\"142\",\"1150723\",\"0.0-142.0\",\"\",\"\",\"1-3\",\"4925\",\"40\",\"1\",\"Training\",\"Stims/Figures/86-C-30-1.bmp\",\"None\",\"Down\",\"40\",\"9\",\"11\",\"10\",\"N\",\"J\",\"139\"
\"\",\"\",\"approach-retreat\",\"143\",\"1157069\",\"0.0-143.0\",\"\",\"\",\"1-3\",\"4846\",\"40\",\"1\",\"Training\",\"Stims/Figures/87-C-20-4.bmp\",\"None\",\"Down\",\"40\",\"9\",\"12\",\"10\",\"N\",\"J\",\"140\"
\"\",\"\",\"approach-retreat\",\"144\",\"1163611\",\"0.0-144.0\",\"\",\"\",\"1-3\",\"5039\",\"37\",\"1\",\"Training\",\"Stims/Figures/139-C-20-2.bmp\",\"None\",\"Left\",\"37\",\"9\",\"13\",\"10\",\"N\",\"J\",\"141\"
\"\",\"\",\"approach-retreat\",\"145\",\"1169685\",\"0.0-145.0\",\"\",\"\",\"1-3\",\"4567\",\"40\",\"1\",\"Training\",\"Stims/Figures/44-C-30-3.bmp\",\"None\",\"Down\",\"40\",\"9\",\"14\",\"10\",\"N\",\"J\",\"142\"
\"\",\"\",\"approach-retreat\",\"146\",\"1176170\",\"0.0-146.0\",\"\",\"\",\"1-3\",\"4982\",\"39\",\"1\",\"Training\",\"Stims/Figures/7-C-20-4.bmp\",\"None\",\"Right\",\"39\",\"9\",\"15\",\"10\",\"N\",\"J\",\"143\"
\"\",\"\",\"approach-retreat\",\"147\",\"1181995\",\"0.0-147.0\",\"\",\"\",\"1-3\",\"4324\",\"40\",\"1\",\"Training\",\"Stims/Figures/111-C-30-3.bmp\",\"None\",\"Down\",\"40\",\"9\",\"16\",\"10\",\"N\",\"J\",\"144\"
\"38081\",\"\",\"instructions\",\"148\",\"1220076\",\"0.0-148.0\",\"[{\"\"page_index\"\":0,\"\"viewing_time\"\":38081}]\",\"\",\"\",\"\",\"\",\"\",\"\",\"\",\"\",\"\",\"\",\"\",\"\",\"\",\"\",\"\",\"\"
\"\",\"\",\"approach-retreat\",\"149\",\"1226388\",\"0.0-149.0\",\"\",\"\",\"1-3\",\"4792\",\"37\",\"1\",\"Testing\",\"Stims/Figures/111-J-10-3.bmp\",\"None\",\"Right\",\"37\",\"1\",\"1\",\"10\",\"N\",\"J\",\"1\"
\"\",\"\",\"approach-retreat\",\"150\",\"1232780\",\"0.0-150.0\",\"\",\"\",\"1-3\",\"4891\",\"40\",\"1\",\"Testing\",\"Stims/Figures/71-J-0-1.bmp\",\"None\",\"Up\",\"40\",\"1\",\"2\",\"10\",\"N\",\"J\",\"2\"
\"\",\"\",\"approach-retreat\",\"151\",\"1238804\",\"0.0-151.0\",\"\",\"\",\"1-3\",\"4523\",\"39\",\"1\",\"Testing\",\"Stims/Figures/84-J-0-2.bmp\",\"None\",\"Left\",\"39\",\"1\",\"3\",\"10\",\"N\",\"J\",\"3\"
\"\",\"\",\"approach-retreat\",\"152\",\"1245656\",\"0.0-152.0\",\"\",\"\",\"1-3\",\"5347\",\"38\",\"1\",\"Testing\",\"Stims/Figures/94-C-20-2.bmp\",\"None\",\"Up\",\"38\",\"1\",\"4\",\"10\",\"N\",\"J\",\"4\"
\"\",\"\",\"approach-retreat\",\"153\",\"1252521\",\"0.0-153.0\",\"\",\"\",\"1-3\",\"5358\",\"37\",\"1\",\"Testing\",\"Stims/Figures/94-J-0-2.bmp\",\"None\",\"Right\",\"37\",\"1\",\"5\",\"10\",\"N\",\"J\",\"5\"
\"\",\"\",\"approach-retreat\",\"154\",\"1258886\",\"0.0-154.0\",\"\",\"\",\"1-3\",\"4860\",\"39\",\"1\",\"Testing\",\"Stims/Figures/71-C-30-1.bmp\",\"None\",\"Right\",\"39\",\"1\",\"6\",\"10\",\"N\",\"J\",\"6\"
\"\",\"\",\"approach-retreat\",\"155\",\"1264987\",\"0.0-155.0\",\"\",\"\",\"1-3\",\"4595\",\"37\",\"1\",\"Testing\",\"Stims/Figures/86-J-0-1.bmp\",\"None\",\"Right\",\"37\",\"1\",\"7\",\"10\",\"N\",\"J\",\"7\"
\"\",\"\",\"approach-retreat\",\"156\",\"1271370\",\"0.0-156.0\",\"\",\"\",\"1-3\",\"4875\",\"38\",\"1\",\"Testing\",\"Stims/Figures/27-J-0-1.bmp\",\"None\",\"Down\",\"38\",\"1\",\"8\",\"10\",\"N\",\"J\",\"8\"
\"\",\"\",\"approach-retreat\",\"157\",\"1277904\",\"0.0-157.0\",\"\",\"\",\"1-3\",\"5032\",\"40\",\"1\",\"Testing\",\"Stims/Figures/7-J-10-4.bmp\",\"None\",\"Up\",\"40\",\"1\",\"9\",\"10\",\"N\",\"J\",\"9\"
\"\",\"\",\"approach-retreat\",\"158\",\"1284187\",\"0.0-158.0\",\"\",\"\",\"1-3\",\"4779\",\"40\",\"1\",\"Testing\",\"Stims/Figures/74-C-20-4.bmp\",\"None\",\"Down\",\"40\",\"1\",\"10\",\"10\",\"N\",\"J\",\"10\"
\"\",\"\",\"approach-retreat\",\"159\",\"1290769\",\"0.0-159.0\",\"\",\"\",\"1-3\",\"5077\",\"38\",\"1\",\"Testing\",\"Stims/Figures/7-C-20-4.bmp\",\"None\",\"Up\",\"38\",\"1\",\"11\",\"10\",\"N\",\"J\",\"11\"
\"\",\"\",\"approach-retreat\",\"160\",\"1297069\",\"0.0-160.0\",\"\",\"\",\"1-3\",\"4798\",\"39\",\"1\",\"Testing\",\"Stims/Figures/44-C-30-3.bmp\",\"None\",\"Right\",\"39\",\"1\",\"12\",\"10\",\"N\",\"J\",\"12\"
\"\",\"\",\"approach-retreat\",\"161\",\"1303918\",\"0.0-161.0\",\"\",\"\",\"1-3\",\"5344\",\"37\",\"1\",\"Testing\",\"Stims/Figures/111-C-30-3.bmp\",\"None\",\"Left\",\"37\",\"1\",\"13\",\"10\",\"N\",\"J\",\"13\"
\"\",\"\",\"approach-retreat\",\"162\",\"1310284\",\"0.0-162.0\",\"\",\"\",\"1-3\",\"4861\",\"38\",\"0\",\"Testing\",\"Stims/Figures/74-J-10-4.bmp\",\"None\",\"Up\",\"40\",\"1\",\"14\",\"10\",\"N\",\"J\",\"14\"
\"\",\"\",\"approach-retreat\",\"163\",\"1316300\",\"0.0-163.0\",\"\",\"\",\"1-3\",\"4500\",\"37\",\"1\",\"Testing\",\"Stims/Figures/87-C-20-4.bmp\",\"None\",\"Left\",\"37\",\"1\",\"15\",\"10\",\"N\",\"J\",\"15\"
\"\",\"\",\"approach-retreat\",\"164\",\"1322468\",\"0.0-164.0\",\"\",\"\",\"1-3\",\"4659\",\"38\",\"1\",\"Testing\",\"Stims/Figures/87-J-10-4.bmp\",\"None\",\"Down\",\"38\",\"1\",\"16\",\"10\",\"N\",\"J\",\"16\"
\"\",\"\",\"approach-retreat\",\"165\",\"1328333\",\"0.0-165.0\",\"\",\"\",\"1-3\",\"4360\",\"39\",\"1\",\"Testing\",\"Stims/Figures/44-J-10-3.bmp\",\"None\",\"Left\",\"39\",\"1\",\"17\",\"10\",\"N\",\"J\",\"17\"
\"\",\"\",\"approach-retreat\",\"166\",\"1334499\",\"0.0-166.0\",\"\",\"\",\"1-3\",\"4658\",\"37\",\"1\",\"Testing\",\"Stims/Figures/139-C-20-2.bmp\",\"None\",\"Left\",\"37\",\"1\",\"18\",\"10\",\"N\",\"J\",\"18\"
\"\",\"\",\"approach-retreat\",\"167\",\"1340734\",\"0.0-167.0\",\"\",\"\",\"1-3\",\"4721\",\"38\",\"1\",\"Testing\",\"Stims/Figures/139-J-0-2.bmp\",\"None\",\"Down\",\"38\",\"1\",\"19\",\"10\",\"N\",\"J\",\"19\"
\"\",\"\",\"approach-retreat\",\"168\",\"1346733\",\"0.0-168.0\",\"\",\"\",\"1-3\",\"4485\",\"40\",\"1\",\"Testing\",\"Stims/Figures/86-C-30-1.bmp\",\"None\",\"Down\",\"40\",\"1\",\"20\",\"10\",\"N\",\"J\",\"20\"
\"\",\"\",\"approach-retreat\",\"169\",\"1353017\",\"0.0-169.0\",\"\",\"\",\"1-3\",\"4782\",\"38\",\"1\",\"Testing\",\"Stims/Figures/100-C-30-3.bmp\",\"None\",\"Up\",\"38\",\"1\",\"21\",\"10\",\"N\",\"J\",\"21\"
\"\",\"\",\"approach-retreat\",\"170\",\"1360650\",\"0.0-170.0\",\"\",\"\",\"1-3\",\"6125\",\"39\",\"1\",\"Testing\",\"Stims/Figures/27-C-30-1.bmp\",\"None\",\"Right\",\"39\",\"1\",\"22\",\"10\",\"N\",\"J\",\"22\"
\"\",\"\",\"approach-retreat\",\"171\",\"1366916\",\"0.0-171.0\",\"\",\"\",\"1-3\",\"4749\",\"38\",\"1\",\"Testing\",\"Stims/Figures/100-J-10-3.bmp\",\"None\",\"Down\",\"38\",\"1\",\"23\",\"10\",\"N\",\"J\",\"23\"
\"\",\"\",\"approach-retreat\",\"172\",\"1372933\",\"0.0-172.0\",\"\",\"\",\"1-3\",\"4515\",\"37\",\"1\",\"Testing\",\"Stims/Figures/84-C-20-2.bmp\",\"None\",\"Left\",\"37\",\"1\",\"24\",\"10\",\"N\",\"J\",\"24\"
\"\",\"\",\"approach-retreat\",\"173\",\"1378831\",\"0.0-173.0\",\"\",\"\",\"1-3\",\"4390\",\"37\",\"1\",\"Testing\",\"Stims/Figures/94-C-20-2.bmp\",\"None\",\"Left\",\"37\",\"2\",\"1\",\"10\",\"N\",\"J\",\"25\"
\"\",\"\",\"approach-retreat\",\"174\",\"1385465\",\"0.0-174.0\",\"\",\"\",\"1-3\",\"5127\",\"37\",\"0\",\"Testing\",\"Stims/Figures/84-C-20-2.bmp\",\"None\",\"Right\",\"39\",\"2\",\"2\",\"10\",\"N\",\"J\",\"26\"
\"\",\"\",\"approach-retreat\",\"175\",\"1392348\",\"0.0-175.0\",\"\",\"\",\"1-3\",\"5377\",\"40\",\"0\",\"Testing\",\"Stims/Figures/74-J-10-4.bmp\",\"None\",\"Down\",\"38\",\"2\",\"3\",\"10\",\"N\",\"J\",\"27\"
\"\",\"\",\"approach-retreat\",\"176\",\"1398599\",\"0.0-176.0\",\"\",\"\",\"1-3\",\"4751\",\"37\",\"1\",\"Testing\",\"Stims/Figures/111-J-10-3.bmp\",\"None\",\"Right\",\"37\",\"2\",\"4\",\"10\",\"N\",\"J\",\"28\"
\"\",\"\",\"approach-retreat\",\"177\",\"1404432\",\"0.0-177.0\",\"\",\"\",\"1-3\",\"4328\",\"38\",\"1\",\"Testing\",\"Stims/Figures/27-J-0-1.bmp\",\"None\",\"Down\",\"38\",\"2\",\"5\",\"10\",\"N\",\"J\",\"29\"
\"\",\"\",\"approach-retreat\",\"178\",\"1410782\",\"0.0-178.0\",\"\",\"\",\"1-3\",\"4845\",\"38\",\"1\",\"Testing\",\"Stims/Figures/86-C-30-1.bmp\",\"None\",\"Up\",\"38\",\"2\",\"6\",\"10\",\"N\",\"J\",\"30\"
\"\",\"\",\"approach-retreat\",\"179\",\"1416614\",\"0.0-179.0\",\"\",\"\",\"1-3\",\"4327\",\"39\",\"1\",\"Testing\",\"Stims/Figures/7-C-20-4.bmp\",\"None\",\"Right\",\"39\",\"2\",\"7\",\"10\",\"N\",\"J\",\"31\"
\"\",\"\",\"approach-retreat\",\"180\",\"1422730\",\"0.0-180.0\",\"\",\"\",\"1-3\",\"4609\",\"39\",\"1\",\"Testing\",\"Stims/Figures/94-J-0-2.bmp\",\"None\",\"Left\",\"39\",\"2\",\"8\",\"10\",\"N\",\"J\",\"32\"
\"\",\"\",\"approach-retreat\",\"181\",\"1429064\",\"0.0-181.0\",\"\",\"\",\"1-3\",\"4829\",\"40\",\"1\",\"Testing\",\"Stims/Figures/44-C-30-3.bmp\",\"None\",\"Down\",\"40\",\"2\",\"9\",\"10\",\"N\",\"J\",\"33\"
\"\",\"\",\"approach-retreat\",\"182\",\"1436080\",\"0.0-182.0\",\"\",\"\",\"1-3\",\"5500\",\"37\",\"1\",\"Testing\",\"Stims/Figures/86-J-0-1.bmp\",\"None\",\"Right\",\"37\",\"2\",\"10\",\"10\",\"N\",\"J\",\"34\"
\"\",\"\",\"approach-retreat\",\"183\",\"1442143\",\"0.0-183.0\",\"\",\"\",\"1-3\",\"4563\",\"40\",\"1\",\"Testing\",\"Stims/Figures/71-C-30-1.bmp\",\"None\",\"Down\",\"40\",\"2\",\"11\",\"10\",\"N\",\"J\",\"35\"
\"\",\"\",\"approach-retreat\",\"184\",\"1448363\",\"0.0-184.0\",\"\",\"\",\"1-3\",\"4704\",\"38\",\"1\",\"Testing\",\"Stims/Figures/100-C-30-3.bmp\",\"None\",\"Up\",\"38\",\"2\",\"12\",\"10\",\"N\",\"J\",\"36\"
\"\",\"\",\"approach-retreat\",\"185\",\"1455414\",\"0.0-185.0\",\"\",\"\",\"1-3\",\"5547\",\"38\",\"1\",\"Testing\",\"Stims/Figures/100-J-10-3.bmp\",\"None\",\"Down\",\"38\",\"2\",\"13\",\"10\",\"N\",\"J\",\"37\"
\"\",\"\",\"approach-retreat\",\"186\",\"1462029\",\"0.0-186.0\",\"\",\"\",\"1-3\",\"5108\",\"37\",\"1\",\"Testing\",\"Stims/Figures/74-C-20-4.bmp\",\"None\",\"Left\",\"37\",\"2\",\"14\",\"10\",\"N\",\"J\",\"38\"
\"\",\"\",\"approach-retreat\",\"187\",\"1468295\",\"0.0-187.0\",\"\",\"\",\"1-3\",\"4750\",\"39\",\"1\",\"Testing\",\"Stims/Figures/139-C-20-2.bmp\",\"None\",\"Right\",\"39\",\"2\",\"15\",\"10\",\"N\",\"J\",\"39\"
\"\",\"\",\"approach-retreat\",\"188\",\"1475395\",\"0.0-188.0\",\"\",\"\",\"1-3\",\"5595\",\"40\",\"1\",\"Testing\",\"Stims/Figures/71-J-0-1.bmp\",\"None\",\"Up\",\"40\",\"2\",\"16\",\"10\",\"N\",\"J\",\"40\"
\"\",\"\",\"approach-retreat\",\"189\",\"1481645\",\"0.0-189.0\",\"\",\"\",\"1-3\",\"4750\",\"39\",\"1\",\"Testing\",\"Stims/Figures/27-C-30-1.bmp\",\"None\",\"Right\",\"39\",\"2\",\"17\",\"10\",\"N\",\"J\",\"41\"
\"\",\"\",\"approach-retreat\",\"190\",\"1488028\",\"0.0-190.0\",\"\",\"\",\"1-3\",\"4875\",\"40\",\"1\",\"Testing\",\"Stims/Figures/87-J-10-4.bmp\",\"None\",\"Up\",\"40\",\"2\",\"18\",\"10\",\"N\",\"J\",\"42\"
\"\",\"\",\"approach-retreat\",\"191\",\"1493843\",\"0.0-191.0\",\"\",\"\",\"1-3\",\"4313\",\"39\",\"1\",\"Testing\",\"Stims/Figures/44-J-10-3.bmp\",\"None\",\"Left\",\"39\",\"2\",\"19\",\"10\",\"N\",\"J\",\"43\"
\"\",\"\",\"approach-retreat\",\"192\",\"1499844\",\"0.0-192.0\",\"\",\"\",\"1-3\",\"4501\",\"40\",\"1\",\"Testing\",\"Stims/Figures/139-J-0-2.bmp\",\"None\",\"Up\",\"40\",\"2\",\"20\",\"10\",\"N\",\"J\",\"44\"
\"\",\"\",\"approach-retreat\",\"193\",\"1505710\",\"0.0-193.0\",\"\",\"\",\"1-3\",\"4360\",\"37\",\"1\",\"Testing\",\"Stims/Figures/87-C-20-4.bmp\",\"None\",\"Left\",\"37\",\"2\",\"21\",\"10\",\"N\",\"J\",\"45\"
\"\",\"\",\"approach-retreat\",\"194\",\"1512028\",\"0.0-194.0\",\"\",\"\",\"1-3\",\"4813\",\"40\",\"1\",\"Testing\",\"Stims/Figures/84-J-0-2.bmp\",\"None\",\"Up\",\"40\",\"2\",\"22\",\"10\",\"N\",\"J\",\"46\"
\"\",\"\",\"approach-retreat\",\"195\",\"1518610\",\"0.0-195.0\",\"\",\"\",\"1-3\",\"5077\",\"40\",\"1\",\"Testing\",\"Stims/Figures/111-C-30-3.bmp\",\"None\",\"Down\",\"40\",\"2\",\"23\",\"10\",\"N\",\"J\",\"47\"
\"\",\"\",\"approach-retreat\",\"196\",\"1524977\",\"0.0-196.0\",\"\",\"\",\"1-3\",\"4859\",\"39\",\"1\",\"Testing\",\"Stims/Figures/7-J-10-4.bmp\",\"None\",\"Left\",\"39\",\"2\",\"24\",\"10\",\"N\",\"J\",\"48\"
\"\",\"\",\"approach-retreat\",\"197\",\"1530959\",\"0.0-197.0\",\"\",\"\",\"1-3\",\"4471\",\"40\",\"1\",\"Testing\",\"Stims/Figures/84-J-0-2.bmp\",\"None\",\"Up\",\"40\",\"3\",\"1\",\"10\",\"N\",\"J\",\"49\"
\"\",\"\",\"approach-retreat\",\"198\",\"1537093\",\"0.0-198.0\",\"\",\"\",\"1-3\",\"4627\",\"40\",\"1\",\"Testing\",\"Stims/Figures/94-C-20-2.bmp\",\"None\",\"Down\",\"40\",\"3\",\"2\",\"10\",\"N\",\"J\",\"50\"
\"\",\"\",\"approach-retreat\",\"199\",\"1542877\",\"0.0-199.0\",\"\",\"\",\"1-3\",\"4282\",\"39\",\"1\",\"Testing\",\"Stims/Figures/7-J-10-4.bmp\",\"None\",\"Left\",\"39\",\"3\",\"3\",\"10\",\"N\",\"J\",\"51\"
\"\",\"\",\"approach-retreat\",\"200\",\"1550442\",\"0.0-200.0\",\"\",\"\",\"1-3\",\"6062\",\"39\",\"1\",\"Testing\",\"Stims/Figures/74-C-20-4.bmp\",\"None\",\"Right\",\"39\",\"3\",\"4\",\"10\",\"N\",\"J\",\"52\"
\"\",\"\",\"approach-retreat\",\"201\",\"1556241\",\"0.0-201.0\",\"\",\"\",\"1-3\",\"4298\",\"39\",\"1\",\"Testing\",\"Stims/Figures/44-C-30-3.bmp\",\"None\",\"Right\",\"39\",\"3\",\"5\",\"10\",\"N\",\"J\",\"53\"
\"\",\"\",\"approach-retreat\",\"202\",\"1563609\",\"0.0-202.0\",\"\",\"\",\"1-3\",\"5860\",\"38\",\"1\",\"Testing\",\"Stims/Figures/86-J-0-1.bmp\",\"None\",\"Down\",\"38\",\"3\",\"6\",\"10\",\"N\",\"J\",\"54\"
\"\",\"\",\"approach-retreat\",\"203\",\"1569925\",\"0.0-203.0\",\"\",\"\",\"1-3\",\"4813\",\"39\",\"1\",\"Testing\",\"Stims/Figures/27-C-30-1.bmp\",\"None\",\"Right\",\"39\",\"3\",\"7\",\"10\",\"N\",\"J\",\"55\"
\"\",\"\",\"approach-retreat\",\"204\",\"1575724\",\"0.0-204.0\",\"\",\"\",\"1-3\",\"4297\",\"38\",\"1\",\"Testing\",\"Stims/Figures/100-J-10-3.bmp\",\"None\",\"Down\",\"38\",\"3\",\"8\",\"10\",\"N\",\"J\",\"56\"
\"\",\"\",\"approach-retreat\",\"205\",\"1581775\",\"0.0-205.0\",\"\",\"\",\"1-3\",\"4548\",\"38\",\"1\",\"Testing\",\"Stims/Figures/74-J-10-4.bmp\",\"None\",\"Down\",\"38\",\"3\",\"9\",\"10\",\"N\",\"J\",\"57\"
\"\",\"\",\"approach-retreat\",\"206\",\"1588292\",\"0.0-206.0\",\"\",\"\",\"1-3\",\"5013\",\"39\",\"1\",\"Testing\",\"Stims/Figures/84-C-20-2.bmp\",\"None\",\"Right\",\"39\",\"3\",\"10\",\"10\",\"N\",\"J\",\"58\"
\"\",\"\",\"approach-retreat\",\"207\",\"1594293\",\"0.0-207.0\",\"\",\"\",\"1-3\",\"4498\",\"38\",\"1\",\"Testing\",\"Stims/Figures/100-C-30-3.bmp\",\"None\",\"Up\",\"38\",\"3\",\"11\",\"10\",\"N\",\"J\",\"59\"
\"\",\"\",\"approach-retreat\",\"208\",\"1600172\",\"0.0-208.0\",\"\",\"\",\"1-3\",\"4375\",\"39\",\"1\",\"Testing\",\"Stims/Figures/27-J-0-1.bmp\",\"None\",\"Left\",\"39\",\"3\",\"12\",\"10\",\"N\",\"J\",\"60\"
\"\",\"\",\"approach-retreat\",\"209\",\"1605905\",\"0.0-209.0\",\"\",\"\",\"1-3\",\"4220\",\"38\",\"1\",\"Testing\",\"Stims/Figures/7-C-20-4.bmp\",\"None\",\"Up\",\"38\",\"3\",\"13\",\"10\",\"N\",\"J\",\"61\"
\"\",\"\",\"approach-retreat\",\"210\",\"1611723\",\"0.0-210.0\",\"\",\"\",\"1-3\",\"4313\",\"39\",\"1\",\"Testing\",\"Stims/Figures/71-J-0-1.bmp\",\"None\",\"Left\",\"39\",\"3\",\"14\",\"10\",\"N\",\"J\",\"62\"
\"\",\"\",\"approach-retreat\",\"211\",\"1618122\",\"0.0-211.0\",\"\",\"\",\"1-3\",\"4892\",\"39\",\"1\",\"Testing\",\"Stims/Figures/139-C-20-2.bmp\",\"None\",\"Right\",\"39\",\"3\",\"15\",\"10\",\"N\",\"J\",\"63\"
\"\",\"\",\"approach-retreat\",\"212\",\"1624088\",\"0.0-212.0\",\"\",\"\",\"1-3\",\"4454\",\"40\",\"1\",\"Testing\",\"Stims/Figures/44-J-10-3.bmp\",\"None\",\"Up\",\"40\",\"3\",\"16\",\"10\",\"N\",\"J\",\"64\"
\"\",\"\",\"approach-retreat\",\"213\",\"1629971\",\"0.0-213.0\",\"\",\"\",\"1-3\",\"4378\",\"40\",\"1\",\"Testing\",\"Stims/Figures/111-J-10-3.bmp\",\"None\",\"Up\",\"40\",\"3\",\"17\",\"10\",\"N\",\"J\",\"65\"
\"\",\"\",\"approach-retreat\",\"214\",\"1636055\",\"0.0-214.0\",\"\",\"\",\"1-3\",\"4580\",\"37\",\"1\",\"Testing\",\"Stims/Figures/94-J-0-2.bmp\",\"None\",\"Right\",\"37\",\"3\",\"18\",\"10\",\"N\",\"J\",\"66\"
\"\",\"\",\"approach-retreat\",\"215\",\"1641938\",\"0.0-215.0\",\"\",\"\",\"1-3\",\"4375\",\"38\",\"1\",\"Testing\",\"Stims/Figures/87-C-20-4.bmp\",\"None\",\"Up\",\"38\",\"3\",\"19\",\"10\",\"N\",\"J\",\"67\"
\"\",\"\",\"approach-retreat\",\"216\",\"1647938\",\"0.0-216.0\",\"\",\"\",\"1-3\",\"4499\",\"37\",\"1\",\"Testing\",\"Stims/Figures/71-C-30-1.bmp\",\"None\",\"Left\",\"37\",\"3\",\"20\",\"10\",\"N\",\"J\",\"68\"
\"\",\"\",\"approach-retreat\",\"217\",\"1653738\",\"0.0-217.0\",\"\",\"\",\"1-3\",\"4297\",\"38\",\"1\",\"Testing\",\"Stims/Figures/87-J-10-4.bmp\",\"None\",\"Down\",\"38\",\"3\",\"21\",\"10\",\"N\",\"J\",\"69\"
\"\",\"\",\"approach-retreat\",\"218\",\"1659703\",\"0.0-218.0\",\"\",\"\",\"1-3\",\"4453\",\"37\",\"1\",\"Testing\",\"Stims/Figures/111-C-30-3.bmp\",\"None\",\"Left\",\"37\",\"3\",\"22\",\"10\",\"N\",\"J\",\"70\"
\"\",\"\",\"approach-retreat\",\"219\",\"1666256\",\"0.0-219.0\",\"\",\"\",\"1-3\",\"5049\",\"38\",\"1\",\"Testing\",\"Stims/Figures/139-J-0-2.bmp\",\"None\",\"Down\",\"38\",\"3\",\"23\",\"10\",\"N\",\"J\",\"71\"
\"\",\"\",\"approach-retreat\",\"220\",\"1672054\",\"0.0-220.0\",\"\",\"\",\"1-3\",\"4295\",\"37\",\"1\",\"Testing\",\"Stims/Figures/86-C-30-1.bmp\",\"None\",\"Left\",\"37\",\"3\",\"24\",\"10\",\"N\",\"J\",\"72\"
\"\",\"\",\"approach-retreat\",\"221\",\"1678553\",\"0.0-221.0\",\"\",\"\",\"1-3\",\"4987\",\"38\",\"1\",\"Testing\",\"Stims/Figures/111-C-30-3.bmp\",\"None\",\"Up\",\"38\",\"4\",\"1\",\"10\",\"N\",\"J\",\"73\"
\"\",\"\",\"approach-retreat\",\"222\",\"1684621\",\"0.0-222.0\",\"\",\"\",\"1-3\",\"4565\",\"39\",\"1\",\"Testing\",\"Stims/Figures/84-J-0-2.bmp\",\"None\",\"Left\",\"39\",\"4\",\"2\",\"10\",\"N\",\"J\",\"74\"
\"\",\"\",\"approach-retreat\",\"223\",\"1690570\",\"0.0-223.0\",\"\",\"\",\"1-3\",\"4435\",\"39\",\"1\",\"Testing\",\"Stims/Figures/100-C-30-3.bmp\",\"None\",\"Right\",\"39\",\"4\",\"3\",\"10\",\"N\",\"J\",\"75\"
\"\",\"\",\"approach-retreat\",\"224\",\"1696616\",\"0.0-224.0\",\"\",\"\",\"1-3\",\"4547\",\"40\",\"1\",\"Testing\",\"Stims/Figures/7-C-20-4.bmp\",\"None\",\"Down\",\"40\",\"4\",\"4\",\"10\",\"N\",\"J\",\"76\"
\"\",\"\",\"approach-retreat\",\"225\",\"1703785\",\"0.0-225.0\",\"\",\"\",\"1-3\",\"5656\",\"38\",\"1\",\"Testing\",\"Stims/Figures/84-C-20-2.bmp\",\"None\",\"Up\",\"38\",\"4\",\"5\",\"10\",\"N\",\"J\",\"77\"
\"\",\"\",\"approach-retreat\",\"226\",\"1711036\",\"0.0-226.0\",\"\",\"\",\"1-3\",\"5735\",\"39\",\"1\",\"Testing\",\"Stims/Figures/94-J-0-2.bmp\",\"None\",\"Left\",\"39\",\"4\",\"6\",\"10\",\"N\",\"J\",\"78\"
\"\",\"\",\"approach-retreat\",\"227\",\"1717084\",\"0.0-227.0\",\"\",\"\",\"1-3\",\"4547\",\"39\",\"1\",\"Testing\",\"Stims/Figures/87-C-20-4.bmp\",\"None\",\"Right\",\"39\",\"4\",\"7\",\"10\",\"N\",\"J\",\"79\"
\"\",\"\",\"approach-retreat\",\"228\",\"1723451\",\"0.0-228.0\",\"\",\"\",\"1-3\",\"4857\",\"38\",\"1\",\"Testing\",\"Stims/Figures/111-J-10-3.bmp\",\"None\",\"Down\",\"38\",\"4\",\"8\",\"10\",\"N\",\"J\",\"80\"
\"\",\"\",\"approach-retreat\",\"229\",\"1729650\",\"0.0-229.0\",\"\",\"\",\"1-3\",\"4687\",\"40\",\"1\",\"Testing\",\"Stims/Figures/74-J-10-4.bmp\",\"None\",\"Up\",\"40\",\"4\",\"9\",\"10\",\"N\",\"J\",\"81\"
\"\",\"\",\"approach-retreat\",\"230\",\"1735418\",\"0.0-230.0\",\"\",\"\",\"1-3\",\"4251\",\"38\",\"1\",\"Testing\",\"Stims/Figures/44-J-10-3.bmp\",\"None\",\"Down\",\"38\",\"4\",\"10\",\"10\",\"N\",\"J\",\"82\"
\"\",\"\",\"approach-retreat\",\"231\",\"1741484\",\"0.0-231.0\",\"\",\"\",\"1-3\",\"4563\",\"37\",\"1\",\"Testing\",\"Stims/Figures/86-C-30-1.bmp\",\"None\",\"Left\",\"37\",\"4\",\"11\",\"10\",\"N\",\"J\",\"83\"
\"\",\"\",\"approach-retreat\",\"232\",\"1747502\",\"0.0-232.0\",\"\",\"\",\"1-3\",\"4516\",\"40\",\"1\",\"Testing\",\"Stims/Figures/86-J-0-1.bmp\",\"None\",\"Up\",\"40\",\"4\",\"12\",\"10\",\"N\",\"J\",\"84\"
\"\",\"\",\"approach-retreat\",\"233\",\"1754002\",\"0.0-233.0\",\"\",\"\",\"1-3\",\"5000\",\"37\",\"1\",\"Testing\",\"Stims/Figures/74-C-20-4.bmp\",\"None\",\"Left\",\"37\",\"4\",\"13\",\"10\",\"N\",\"J\",\"85\"
\"\",\"\",\"approach-retreat\",\"234\",\"1760020\",\"0.0-234.0\",\"\",\"\",\"1-3\",\"4514\",\"37\",\"1\",\"Testing\",\"Stims/Figures/71-J-0-1.bmp\",\"None\",\"Right\",\"37\",\"4\",\"14\",\"10\",\"N\",\"J\",\"86\"
\"\",\"\",\"approach-retreat\",\"235\",\"1765866\",\"0.0-235.0\",\"\",\"\",\"1-3\",\"4340\",\"37\",\"1\",\"Testing\",\"Stims/Figures/27-J-0-1.bmp\",\"None\",\"Right\",\"37\",\"4\",\"15\",\"10\",\"N\",\"J\",\"87\"
\"\",\"\",\"approach-retreat\",\"236\",\"1771782\",\"0.0-236.0\",\"\",\"\",\"1-3\",\"4409\",\"40\",\"1\",\"Testing\",\"Stims/Figures/139-J-0-2.bmp\",\"None\",\"Up\",\"40\",\"4\",\"16\",\"10\",\"N\",\"J\",\"88\"
\"\",\"\",\"approach-retreat\",\"237\",\"1777465\",\"0.0-237.0\",\"\",\"\",\"1-3\",\"4174\",\"37\",\"1\",\"Testing\",\"Stims/Figures/100-J-10-3.bmp\",\"None\",\"Right\",\"37\",\"4\",\"17\",\"10\",\"N\",\"J\",\"89\"
\"\",\"\",\"approach-retreat\",\"238\",\"1784000\",\"0.0-238.0\",\"\",\"\",\"1-3\",\"5033\",\"40\",\"1\",\"Testing\",\"Stims/Figures/71-C-30-1.bmp\",\"None\",\"Down\",\"40\",\"4\",\"18\",\"10\",\"N\",\"J\",\"90\"
\"\",\"\",\"approach-retreat\",\"239\",\"1789899\",\"0.0-239.0\",\"\",\"\",\"1-3\",\"4390\",\"37\",\"1\",\"Testing\",\"Stims/Figures/44-C-30-3.bmp\",\"None\",\"Left\",\"37\",\"4\",\"19\",\"10\",\"N\",\"J\",\"91\"
\"\",\"\",\"approach-retreat\",\"240\",\"1795799\",\"0.0-240.0\",\"\",\"\",\"1-3\",\"4391\",\"40\",\"1\",\"Testing\",\"Stims/Figures/94-C-20-2.bmp\",\"None\",\"Down\",\"40\",\"4\",\"20\",\"10\",\"N\",\"J\",\"92\"
\"\",\"\",\"approach-retreat\",\"241\",\"1801681\",\"0.0-241.0\",\"\",\"\",\"1-3\",\"4376\",\"40\",\"1\",\"Testing\",\"Stims/Figures/87-J-10-4.bmp\",\"None\",\"Up\",\"40\",\"4\",\"21\",\"10\",\"N\",\"J\",\"93\"
\"\",\"\",\"approach-retreat\",\"242\",\"1808698\",\"0.0-242.0\",\"\",\"\",\"1-3\",\"5502\",\"40\",\"1\",\"Testing\",\"Stims/Figures/27-C-30-1.bmp\",\"None\",\"Down\",\"40\",\"4\",\"22\",\"10\",\"N\",\"J\",\"94\"
\"\",\"\",\"approach-retreat\",\"243\",\"1814514\",\"0.0-243.0\",\"\",\"\",\"1-3\",\"4312\",\"39\",\"1\",\"Testing\",\"Stims/Figures/7-J-10-4.bmp\",\"None\",\"Left\",\"39\",\"4\",\"23\",\"10\",\"N\",\"J\",\"95\"
\"\",\"\",\"approach-retreat\",\"244\",\"1820764\",\"0.0-244.0\",\"\",\"\",\"1-3\",\"4737\",\"39\",\"1\",\"Testing\",\"Stims/Figures/139-C-20-2.bmp\",\"None\",\"Right\",\"39\",\"4\",\"24\",\"10\",\"N\",\"J\",\"96\"
\"29289\",\"\",\"survey-text\",\"245\",\"1850053\",\"0.0-245.0\",\"\",\"{\"\"Q0\"\":\"\"PS160009\"\"}\",\"\",\"\",\"\",\"\",\"\",\"\",\"\",\"\",\"\",\"\",\"\",\"\",\"\",\"\",\"\"
