"rt","key_press","trial_type","trial_index","time_elapsed","internal_node_id","view_history","responses","Id","Rt","ResKeyCode","ResCorr","TrialType2","Image","Label","Location","CorrectResponse","Block","BlockTrial","Condition","LabelType","Subcondition","trialNum"
"31960","32","text","0","31967","0.0-0.0-0.0","","","","","","","","","","","","","","","","",""
"97570","","instructions","1","129540","0.0-1.0","[{""page_index"":0,""viewing_time"":97570}]","","","","","","","","","","","","","","","",""
"47491","","survey-multi-choice","2","177088","0.0-2.0","","{""Q0"":""Da"",""Q1"":""Da"",""Q2"":""Da"",""Q3"":""Da"",""Q4"":""Da"",""Q5"":""Da""}","","","","","","","","","","","","","","",""
"","","bio","3","187750","0.0-3.0","","{""age"":""18"",""gender"":""m"",""specify"":""""}","","","","","","","","","","","","","","",""
"","","approach-retreat","4","194839","0.0-4.0","","","1-5","5573","39","0","Training","Stims/Figures/7-C-20-4.bmp","za:saza","Left","37","1","1","6A","C2","J","1"
"","","approach-retreat","5","203349","0.0-5.0","","","1-5","6997","39","0","Training","Stims/Figures/44-C-30-3.bmp","za:ha:ha","Left","37","1","2","6A","C2","J","2"
"","","approach-retreat","6","209438","0.0-6.0","","","1-5","4576","37","0","Training","Stims/Figures/118-J-0-2.bmp","va:fasha","Left","39","1","3","6A","C1","J","3"
"","","approach-retreat","7","216509","0.0-7.0","","","1-5","5560","40","1","Training","Stims/Figures/44-J-10-3.bmp","fashasha","Up","40","1","4","6A","C1","J","4"
"","","approach-retreat","8","223398","0.0-8.0","","","1-5","5377","37","1","Training","Stims/Figures/139-J-0-2.bmp","fafa:sha","Right","37","1","5","6A","C1","J","5"
"","","approach-retreat","9","229125","0.0-9.0","","","1-5","4216","39","1","Training","Stims/Figures/19-C-20-4.bmp","sasa:ha","Right","39","1","6","6A","C2","J","6"
"","","approach-retreat","10","235847","0.0-10.0","","","1-5","5209","39","0","Training","Stims/Figures/93-J-0-1.bmp","vasha:sha","Right","37","1","7","6A","C1","J","7"
"","","approach-retreat","11","242519","0.0-11.0","","","1-5","5159","40","0","Training","Stims/Figures/19-J-10-4.bmp","vafa:sha","Down","38","1","8","6A","C1","J","8"
"","","approach-retreat","12","248454","0.0-12.0","","","1-5","4422","38","0","Training","Stims/Figures/57-J-0-1.bmp","fa:fa:va","Up","40","1","9","6A","C1","J","9"
"","","approach-retreat","13","254405","0.0-13.0","","","1-5","4440","40","1","Training","Stims/Figures/128-J-10-3.bmp","va:sha:va","Up","40","1","10","6A","C1","J","10"
"","","approach-retreat","14","260143","0.0-14.0","","","1-5","4227","37","1","Training","Stims/Figures/128-C-30-3.bmp","sa:sa:za","Left","37","1","11","6A","C2","J","11"
"","","approach-retreat","15","266445","0.0-15.0","","","1-5","4791","40","1","Training","Stims/Figures/93-C-30-1.bmp","za:ha:za","Down","40","1","12","6A","C2","J","12"
"","","approach-retreat","16","273158","0.0-16.0","","","1-5","5202","38","1","Training","Stims/Figures/57-C-30-1.bmp","za:saha","Up","38","1","13","6A","C2","J","13"
"","","approach-retreat","17","279414","0.0-17.0","","","1-5","4743","37","0","Training","Stims/Figures/118-C-20-2.bmp","zahaza","Right","39","1","14","6A","C2","J","14"
"","","approach-retreat","18","285758","0.0-18.0","","","1-5","4832","40","1","Training","Stims/Figures/139-C-20-2.bmp","sahaha","Down","40","1","15","6A","C2","J","15"
"","","approach-retreat","19","292557","0.0-19.0","","","1-5","5288","40","0","Training","Stims/Figures/7-J-10-4.bmp","va:fa:va","Down","38","1","16","6A","C1","J","16"
"","","approach-retreat","20","299309","0.0-20.0","","","1-5","5249","38","1","Training","Stims/Figures/19-C-20-4.bmp","sasa:ha","Up","38","2","1","6A","C2","J","17"
"","","approach-retreat","21","305573","0.0-21.0","","","1-5","4752","37","1","Training","Stims/Figures/44-C-30-3.bmp","za:ha:ha","Left","37","2","2","6A","C2","J","18"
"","","approach-retreat","22","311581","0.0-22.0","","","1-5","4497","39","0","Training","Stims/Figures/139-C-20-2.bmp","sahaha","Left","37","2","3","6A","C2","J","19"
"","","approach-retreat","23","317165","0.0-23.0","","","1-5","4072","37","1","Training","Stims/Figures/7-C-20-4.bmp","za:saza","Left","37","2","4","6A","C2","J","20"
"","","approach-retreat","24","322998","0.0-24.0","","","1-5","4321","38","1","Training","Stims/Figures/57-J-0-1.bmp","fa:fa:va","Down","38","2","5","6A","C1","J","21"
"","","approach-retreat","25","328884","0.0-25.0","","","1-5","4376","37","1","Training","Stims/Figures/93-J-0-1.bmp","vasha:sha","Right","37","2","6","6A","C1","J","22"
"","","approach-retreat","26","334709","0.0-26.0","","","1-5","4309","37","1","Training","Stims/Figures/118-J-0-2.bmp","va:fasha","Right","37","2","7","6A","C1","J","23"
"","","approach-retreat","27","340652","0.0-27.0","","","1-5","4432","40","1","Training","Stims/Figures/44-J-10-3.bmp","fashasha","Up","40","2","8","6A","C1","J","24"
"","","approach-retreat","28","346261","0.0-28.0","","","1-5","4096","37","1","Training","Stims/Figures/128-J-10-3.bmp","va:sha:va","Right","37","2","9","6A","C1","J","25"
"","","approach-retreat","29","351893","0.0-29.0","","","1-5","4119","38","1","Training","Stims/Figures/139-J-0-2.bmp","fafa:sha","Down","38","2","10","6A","C1","J","26"
"","","approach-retreat","30","357958","0.0-30.0","","","1-5","4553","38","1","Training","Stims/Figures/128-C-30-3.bmp","sa:sa:za","Up","38","2","11","6A","C2","J","27"
"","","approach-retreat","31","363652","0.0-31.0","","","1-5","4182","37","1","Training","Stims/Figures/93-C-30-1.bmp","za:ha:za","Left","37","2","12","6A","C2","J","28"
"","","approach-retreat","32","369254","0.0-32.0","","","1-5","4091","39","1","Training","Stims/Figures/57-C-30-1.bmp","za:saha","Right","39","2","13","6A","C2","J","29"
"","","approach-retreat","33","374925","0.0-33.0","","","1-5","4161","38","1","Training","Stims/Figures/19-J-10-4.bmp","vafa:sha","Down","38","2","14","6A","C1","J","30"
"","","approach-retreat","34","380702","0.0-34.0","","","1-5","4265","40","1","Training","Stims/Figures/118-C-20-2.bmp","zahaza","Down","40","2","15","6A","C2","J","31"
"","","approach-retreat","35","386669","0.0-35.0","","","1-5","4456","40","1","Training","Stims/Figures/7-J-10-4.bmp","va:fa:va","Up","40","2","16","6A","C1","J","32"
"","","approach-retreat","36","392686","0.0-36.0","","","1-5","4506","39","1","Training","Stims/Figures/19-J-10-4.bmp","vafa:sha","Left","39","3","1","6A","C1","J","33"
"","","approach-retreat","37","398365","0.0-37.0","","","1-5","4168","39","1","Training","Stims/Figures/57-C-30-1.bmp","za:saha","Right","39","3","2","6A","C2","J","34"
"","","approach-retreat","38","404168","0.0-38.0","","","1-5","4290","38","1","Training","Stims/Figures/7-J-10-4.bmp","va:fa:va","Down","38","3","3","6A","C1","J","35"
"","","approach-retreat","39","409820","0.0-39.0","","","1-5","4142","40","1","Training","Stims/Figures/118-C-20-2.bmp","zahaza","Down","40","3","4","6A","C2","J","36"
"","","approach-retreat","40","415517","0.0-40.0","","","1-5","4185","39","1","Training","Stims/Figures/57-J-0-1.bmp","fa:fa:va","Left","39","3","5","6A","C1","J","37"
"","","approach-retreat","41","421317","0.0-41.0","","","1-5","4290","37","1","Training","Stims/Figures/93-J-0-1.bmp","vasha:sha","Right","37","3","6","6A","C1","J","38"
"","","approach-retreat","42","426902","0.0-42.0","","","1-5","4073","37","1","Training","Stims/Figures/139-C-20-2.bmp","sahaha","Left","37","3","7","6A","C2","J","39"
"","","approach-retreat","43","432725","0.0-43.0","","","1-5","4312","40","1","Training","Stims/Figures/44-J-10-3.bmp","fashasha","Up","40","3","8","6A","C1","J","40"
"","","approach-retreat","44","438533","0.0-44.0","","","1-5","4298","38","1","Training","Stims/Figures/44-C-30-3.bmp","za:ha:ha","Up","38","3","9","6A","C2","J","41"
"","","approach-retreat","45","444165","0.0-45.0","","","1-5","4120","37","1","Training","Stims/Figures/19-C-20-4.bmp","sasa:ha","Left","37","3","10","6A","C2","J","42"
"","","approach-retreat","46","449957","0.0-46.0","","","1-5","4280","40","1","Training","Stims/Figures/118-J-0-2.bmp","va:fasha","Up","40","3","11","6A","C1","J","43"
"","","approach-retreat","47","455764","0.0-47.0","","","1-5","4295","39","1","Training","Stims/Figures/7-C-20-4.bmp","za:saza","Right","39","3","12","6A","C2","J","44"
"","","approach-retreat","48","461445","0.0-48.0","","","1-5","4170","39","1","Training","Stims/Figures/128-C-30-3.bmp","sa:sa:za","Right","39","3","13","6A","C2","J","45"
"","","approach-retreat","49","467036","0.0-49.0","","","1-5","4080","40","1","Training","Stims/Figures/128-J-10-3.bmp","va:sha:va","Up","40","3","14","6A","C1","J","46"
"","","approach-retreat","50","472813","0.0-50.0","","","1-5","4266","40","1","Training","Stims/Figures/93-C-30-1.bmp","za:ha:za","Down","40","3","15","6A","C2","J","47"
"","","approach-retreat","51","478524","0.0-51.0","","","1-5","4200","38","1","Training","Stims/Figures/139-J-0-2.bmp","fafa:sha","Down","38","3","16","6A","C1","J","48"
"","","approach-retreat","52","484165","0.0-52.0","","","1-5","4130","40","1","Training","Stims/Figures/44-J-10-3.bmp","fashasha","Up","40","4","1","6A","C1","J","49"
"","","approach-retreat","53","489932","0.0-53.0","","","1-5","4264","40","1","Training","Stims/Figures/93-J-0-1.bmp","vasha:sha","Up","40","4","2","6A","C1","J","50"
"","","approach-retreat","54","495910","0.0-54.0","","","1-5","4466","38","1","Training","Stims/Figures/19-J-10-4.bmp","vafa:sha","Down","38","4","3","6A","C1","J","51"
"","","approach-retreat","55","501613","0.0-55.0","","","1-5","4193","38","1","Training","Stims/Figures/57-J-0-1.bmp","fa:fa:va","Down","38","4","4","6A","C1","J","52"
"","","approach-retreat","56","507365","0.0-56.0","","","1-5","4243","38","1","Training","Stims/Figures/128-C-30-3.bmp","sa:sa:za","Up","38","4","5","6A","C2","J","53"
"","","approach-retreat","57","513029","0.0-57.0","","","1-5","4153","37","1","Training","Stims/Figures/93-C-30-1.bmp","za:ha:za","Left","37","4","6","6A","C2","J","54"
"","","approach-retreat","58","518614","0.0-58.0","","","1-5","4074","37","1","Training","Stims/Figures/139-J-0-2.bmp","fafa:sha","Right","37","4","7","6A","C1","J","55"
"","","approach-retreat","59","524461","0.0-59.0","","","1-5","4336","40","1","Training","Stims/Figures/44-C-30-3.bmp","za:ha:ha","Down","40","4","8","6A","C2","J","56"
"","","approach-retreat","60","530118","0.0-60.0","","","1-5","4147","37","1","Training","Stims/Figures/128-J-10-3.bmp","va:sha:va","Right","37","4","9","6A","C1","J","57"
"","","approach-retreat","61","535868","0.0-61.0","","","1-5","4239","38","1","Training","Stims/Figures/7-C-20-4.bmp","za:saza","Up","38","4","10","6A","C2","J","58"
"","","approach-retreat","62","541486","0.0-62.0","","","1-5","4107","39","1","Training","Stims/Figures/19-C-20-4.bmp","sasa:ha","Right","39","4","11","6A","C2","J","59"
"","","approach-retreat","63","547261","0.0-63.0","","","1-5","4265","40","1","Training","Stims/Figures/118-C-20-2.bmp","zahaza","Down","40","4","12","6A","C2","J","60"
"","","approach-retreat","64","552894","0.0-64.0","","","1-5","4121","37","1","Training","Stims/Figures/57-C-30-1.bmp","za:saha","Left","37","4","13","6A","C2","J","61"
"","","approach-retreat","65","558430","0.0-65.0","","","1-5","4025","39","1","Training","Stims/Figures/139-C-20-2.bmp","sahaha","Right","39","4","14","6A","C2","J","62"
"","","approach-retreat","66","564198","0.0-66.0","","","1-5","4257","39","1","Training","Stims/Figures/7-J-10-4.bmp","va:fa:va","Left","39","4","15","6A","C1","J","63"
"","","approach-retreat","67","570006","0.0-67.0","","","1-5","4296","39","1","Training","Stims/Figures/118-J-0-2.bmp","va:fasha","Left","39","4","16","6A","C1","J","64"
"","","approach-retreat","68","575727","0.0-68.0","","","1-5","4210","38","1","Training","Stims/Figures/7-C-20-4.bmp","za:saza","Up","38","5","1","6A","C2","J","65"
"","","approach-retreat","69","581286","0.0-69.0","","","1-5","4047","39","1","Training","Stims/Figures/128-C-30-3.bmp","sa:sa:za","Right","39","5","2","6A","C2","J","66"
"","","approach-retreat","70","587014","0.0-70.0","","","1-5","4218","38","1","Training","Stims/Figures/7-J-10-4.bmp","va:fa:va","Down","38","5","3","6A","C1","J","67"
"","","approach-retreat","71","592734","0.0-71.0","","","1-5","4209","40","1","Training","Stims/Figures/93-J-0-1.bmp","vasha:sha","Up","40","5","4","6A","C1","J","68"
"","","approach-retreat","72","598406","0.0-72.0","","","1-5","4161","37","0","Training","Stims/Figures/139-C-20-2.bmp","sahaha","Right","39","5","5","6A","C2","J","69"
"","","approach-retreat","73","604109","0.0-73.0","","","1-5","4191","40","1","Training","Stims/Figures/44-C-30-3.bmp","za:ha:ha","Down","40","5","6","6A","C2","J","70"
"","","approach-retreat","74","610143","0.0-74.0","","","1-5","4523","37","1","Training","Stims/Figures/44-J-10-3.bmp","fashasha","Right","37","5","7","6A","C1","J","71"
"","","approach-retreat","75","615909","0.0-75.0","","","1-5","4254","37","1","Training","Stims/Figures/93-C-30-1.bmp","za:ha:za","Left","37","5","8","6A","C2","J","72"
"","","approach-retreat","76","621614","0.0-76.0","","","1-5","4193","37","1","Training","Stims/Figures/118-C-20-2.bmp","zahaza","Left","37","5","9","6A","C2","J","73"
"","","approach-retreat","77","627365","0.0-77.0","","","1-5","4242","38","1","Training","Stims/Figures/57-J-0-1.bmp","fa:fa:va","Down","38","5","10","6A","C1","J","74"
"","","approach-retreat","78","633110","0.0-78.0","","","1-5","4233","39","1","Training","Stims/Figures/19-J-10-4.bmp","vafa:sha","Left","39","5","11","6A","C1","J","75"
"","","approach-retreat","79","638829","0.0-79.0","","","1-5","4207","39","1","Training","Stims/Figures/57-C-30-1.bmp","za:saha","Right","39","5","12","6A","C2","J","76"
"","","approach-retreat","80","645045","0.0-80.0","","","1-5","4705","40","1","Training","Stims/Figures/118-J-0-2.bmp","va:fasha","Up","40","5","13","6A","C1","J","77"
"","","approach-retreat","81","650733","0.0-81.0","","","1-5","4176","40","1","Training","Stims/Figures/19-C-20-4.bmp","sasa:ha","Down","40","5","14","6A","C2","J","78"
"","","approach-retreat","82","656494","0.0-82.0","","","1-5","4249","39","1","Training","Stims/Figures/128-J-10-3.bmp","va:sha:va","Left","39","5","15","6A","C1","J","79"
"","","approach-retreat","83","662317","0.0-83.0","","","1-5","4314","40","1","Training","Stims/Figures/139-J-0-2.bmp","fafa:sha","Up","40","5","16","6A","C1","J","80"
"","","approach-retreat","84","668054","0.0-84.0","","","1-5","4224","38","1","Training","Stims/Figures/44-C-30-3.bmp","za:ha:ha","Up","38","6","1","6A","C2","J","81"
"","","approach-retreat","85","673893","0.0-85.0","","","1-5","4328","37","1","Training","Stims/Figures/7-J-10-4.bmp","va:fa:va","Right","37","6","2","6A","C1","J","82"
"","","approach-retreat","86","679903","0.0-86.0","","","1-5","4499","40","1","Training","Stims/Figures/93-C-30-1.bmp","za:ha:za","Down","40","6","3","6A","C2","J","83"
"","","approach-retreat","87","685894","0.0-87.0","","","1-5","4478","39","1","Training","Stims/Figures/118-J-0-2.bmp","va:fasha","Left","39","6","4","6A","C1","J","84"
"","","approach-retreat","88","691517","0.0-88.0","","","1-5","4114","38","1","Training","Stims/Figures/57-J-0-1.bmp","fa:fa:va","Down","38","6","5","6A","C1","J","85"
"","","approach-retreat","89","697141","0.0-89.0","","","1-5","4114","38","1","Training","Stims/Figures/139-J-0-2.bmp","fafa:sha","Down","38","6","6","6A","C1","J","86"
"","","approach-retreat","90","703478","0.0-90.0","","","1-5","4826","38","1","Training","Stims/Figures/19-C-20-4.bmp","sasa:ha","Up","38","6","7","6A","C2","J","87"
"","","approach-retreat","91","709862","0.0-91.0","","","1-5","4872","37","1","Training","Stims/Figures/93-J-0-1.bmp","vasha:sha","Right","37","6","8","6A","C1","J","88"
"","","approach-retreat","92","715798","0.0-92.0","","","1-5","4424","40","1","Training","Stims/Figures/57-C-30-1.bmp","za:saha","Down","40","6","9","6A","C2","J","89"
"","","approach-retreat","93","721981","0.0-93.0","","","1-5","4672","38","1","Training","Stims/Figures/7-C-20-4.bmp","za:saza","Up","38","6","10","6A","C2","J","90"
"","","approach-retreat","94","727510","0.0-94.0","","","1-5","4018","37","1","Training","Stims/Figures/139-C-20-2.bmp","sahaha","Left","37","6","11","6A","C2","J","91"
"","","approach-retreat","95","733678","0.0-95.0","","","1-5","4656","39","1","Training","Stims/Figures/19-J-10-4.bmp","vafa:sha","Left","39","6","12","6A","C1","J","92"
"","","approach-retreat","96","739389","0.0-96.0","","","1-5","4201","40","1","Training","Stims/Figures/44-J-10-3.bmp","fashasha","Up","40","6","13","6A","C1","J","93"
"","","approach-retreat","97","745325","0.0-97.0","","","1-5","4425","39","1","Training","Stims/Figures/128-C-30-3.bmp","sa:sa:za","Right","39","6","14","6A","C2","J","94"
"","","approach-retreat","98","751045","0.0-98.0","","","1-5","4211","39","1","Training","Stims/Figures/118-C-20-2.bmp","zahaza","Right","39","6","15","6A","C2","J","95"
"","","approach-retreat","99","756901","0.0-99.0","","","1-5","4345","39","1","Training","Stims/Figures/128-J-10-3.bmp","va:sha:va","Left","39","6","16","6A","C1","J","96"
"","","approach-retreat","100","762654","0.0-100.0","","","1-5","4241","37","1","Training","Stims/Figures/118-C-20-2.bmp","zahaza","Left","37","7","1","6A","C2","J","97"
"","","approach-retreat","101","768597","0.0-101.0","","","1-5","4432","40","1","Training","Stims/Figures/128-J-10-3.bmp","va:sha:va","Up","40","7","2","6A","C1","J","98"
"","","approach-retreat","102","774430","0.0-102.0","","","1-5","4321","37","1","Training","Stims/Figures/93-C-30-1.bmp","za:ha:za","Left","37","7","3","6A","C2","J","99"
"","","approach-retreat","103","780181","0.0-103.0","","","1-5","4240","37","1","Training","Stims/Figures/7-J-10-4.bmp","va:fa:va","Right","37","7","4","6A","C1","J","100"
"","","approach-retreat","104","785797","0.0-104.0","","","1-5","4106","37","1","Training","Stims/Figures/44-J-10-3.bmp","fashasha","Right","37","7","5","6A","C1","J","101"
"","","approach-retreat","105","791476","0.0-105.0","","","1-5","4173","40","1","Training","Stims/Figures/139-J-0-2.bmp","fafa:sha","Up","40","7","6","6A","C1","J","102"
"","","approach-retreat","106","797198","0.0-106.0","","","1-5","4211","40","1","Training","Stims/Figures/57-C-30-1.bmp","za:saha","Down","40","7","7","6A","C2","J","103"
"","","approach-retreat","107","802750","0.0-107.0","","","1-5","4041","37","1","Training","Stims/Figures/19-C-20-4.bmp","sasa:ha","Left","37","7","8","6A","C2","J","104"
"","","approach-retreat","108","808414","0.0-108.0","","","1-5","4153","37","1","Training","Stims/Figures/118-J-0-2.bmp","va:fasha","Right","37","7","9","6A","C1","J","105"
"","","approach-retreat","109","814109","0.0-109.0","","","1-5","4184","37","1","Training","Stims/Figures/139-C-20-2.bmp","sahaha","Left","37","7","10","6A","C2","J","106"
"","","approach-retreat","110","820710","0.0-110.0","","","1-5","5090","40","1","Training","Stims/Figures/93-J-0-1.bmp","vasha:sha","Up","40","7","11","6A","C1","J","107"
"","","approach-retreat","111","826493","0.0-111.0","","","1-5","4272","40","1","Training","Stims/Figures/44-C-30-3.bmp","za:ha:ha","Down","40","7","12","6A","C2","J","108"
"","","approach-retreat","112","832326","0.0-112.0","","","1-5","4322","40","1","Training","Stims/Figures/19-J-10-4.bmp","vafa:sha","Up","40","7","13","6A","C1","J","109"
"","","approach-retreat","113","838230","0.0-113.0","","","1-5","4393","39","1","Training","Stims/Figures/7-C-20-4.bmp","za:saza","Right","39","7","14","6A","C2","J","110"
"","","approach-retreat","114","844030","0.0-114.0","","","1-5","4289","40","1","Training","Stims/Figures/128-C-30-3.bmp","sa:sa:za","Down","40","7","15","6A","C2","J","111"
"","","approach-retreat","115","850221","0.0-115.0","","","1-5","4680","38","1","Training","Stims/Figures/57-J-0-1.bmp","fa:fa:va","Down","38","7","16","6A","C1","J","112"
"","","approach-retreat","116","855862","0.0-116.0","","","1-5","4130","40","1","Training","Stims/Figures/57-C-30-1.bmp","za:saha","Down","40","8","1","6A","C2","J","113"
"","","approach-retreat","117","861629","0.0-117.0","","","1-5","4257","39","1","Training","Stims/Figures/139-J-0-2.bmp","fafa:sha","Left","39","8","2","6A","C1","J","114"
"","","approach-retreat","118","867845","0.0-118.0","","","1-5","4704","39","1","Training","Stims/Figures/93-C-30-1.bmp","za:ha:za","Right","39","8","3","6A","C2","J","115"
"","","approach-retreat","119","873702","0.0-119.0","","","1-5","4344","39","1","Training","Stims/Figures/7-C-20-4.bmp","za:saza","Right","39","8","4","6A","C2","J","116"
"","","approach-retreat","120","879734","0.0-120.0","","","1-5","4521","40","1","Training","Stims/Figures/118-J-0-2.bmp","va:fasha","Up","40","8","5","6A","C1","J","117"
"","","approach-retreat","121","885484","0.0-121.0","","","1-5","4240","38","1","Training","Stims/Figures/128-C-30-3.bmp","sa:sa:za","Up","38","8","6","6A","C2","J","118"
"","","approach-retreat","122","891126","0.0-122.0","","","1-5","4131","37","1","Training","Stims/Figures/19-C-20-4.bmp","sasa:ha","Left","37","8","7","6A","C2","J","119"
"","","approach-retreat","123","896844","0.0-123.0","","","1-5","4207","38","1","Training","Stims/Figures/7-J-10-4.bmp","va:fa:va","Down","38","8","8","6A","C1","J","120"
"","","approach-retreat","124","902654","0.0-124.0","","","1-5","4299","40","1","Training","Stims/Figures/57-J-0-1.bmp","fa:fa:va","Up","40","8","9","6A","C1","J","121"
"","","approach-retreat","125","908502","0.0-125.0","","","1-5","4338","39","1","Training","Stims/Figures/93-J-0-1.bmp","vasha:sha","Left","39","8","10","6A","C1","J","122"
"","","approach-retreat","126","914117","0.0-126.0","","","1-5","4105","39","1","Training","Stims/Figures/118-C-20-2.bmp","zahaza","Right","39","8","11","6A","C2","J","123"
"","","approach-retreat","127","920125","0.0-127.0","","","1-5","4497","37","1","Training","Stims/Figures/128-J-10-3.bmp","va:sha:va","Right","37","8","12","6A","C1","J","124"
"","","approach-retreat","128","925847","0.0-128.0","","","1-5","4210","40","1","Training","Stims/Figures/19-J-10-4.bmp","vafa:sha","Up","40","8","13","6A","C1","J","125"
"","","approach-retreat","129","931541","0.0-129.0","","","1-5","4184","40","1","Training","Stims/Figures/44-C-30-3.bmp","za:ha:ha","Down","40","8","14","6A","C2","J","126"
"","","approach-retreat","130","937430","0.0-130.0","","","1-5","4378","38","1","Training","Stims/Figures/44-J-10-3.bmp","fashasha","Down","38","8","15","6A","C1","J","127"
"","","approach-retreat","131","943093","0.0-131.0","","","1-5","4153","37","1","Training","Stims/Figures/139-C-20-2.bmp","sahaha","Left","37","8","16","6A","C2","J","128"
"","","approach-retreat","132","948677","0.0-132.0","","","1-5","4072","39","1","Training","Stims/Figures/19-C-20-4.bmp","sasa:ha","Right","39","9","1","6A","C2","J","129"
"","","approach-retreat","133","955052","0.0-133.0","","","1-5","4863","38","1","Training","Stims/Figures/93-C-30-1.bmp","za:ha:za","Up","38","9","2","6A","C2","J","130"
"","","approach-retreat","134","961133","0.0-134.0","","","1-5","4570","40","1","Training","Stims/Figures/93-J-0-1.bmp","vasha:sha","Up","40","9","3","6A","C1","J","131"
"","","approach-retreat","135","967165","0.0-135.0","","","1-5","4520","38","1","Training","Stims/Figures/128-C-30-3.bmp","sa:sa:za","Up","38","9","4","6A","C2","J","132"
"","","approach-retreat","136","972782","0.0-136.0","","","1-5","4106","38","1","Training","Stims/Figures/139-J-0-2.bmp","fafa:sha","Down","38","9","5","6A","C1","J","133"
"","","approach-retreat","137","978478","0.0-137.0","","","1-5","4185","37","1","Training","Stims/Figures/44-J-10-3.bmp","fashasha","Right","37","9","6","6A","C1","J","134"
"","","approach-retreat","138","984174","0.0-138.0","","","1-5","4185","40","1","Training","Stims/Figures/139-C-20-2.bmp","sahaha","Down","40","9","7","6A","C2","J","135"
"","","approach-retreat","139","989852","0.0-139.0","","","1-5","4168","37","1","Training","Stims/Figures/128-J-10-3.bmp","va:sha:va","Right","37","9","8","6A","C1","J","136"
"","","approach-retreat","140","995613","0.0-140.0","","","1-5","4250","37","1","Training","Stims/Figures/118-C-20-2.bmp","zahaza","Left","37","9","9","6A","C2","J","137"
"","","approach-retreat","141","1001604","0.0-141.0","","","1-5","4479","38","1","Training","Stims/Figures/118-J-0-2.bmp","va:fasha","Down","38","9","10","6A","C1","J","138"
"","","approach-retreat","142","1007231","0.0-142.0","","","1-5","4116","40","1","Training","Stims/Figures/44-C-30-3.bmp","za:ha:ha","Down","40","9","11","6A","C2","J","139"
"","","approach-retreat","143","1013109","0.0-143.0","","","1-5","4367","40","1","Training","Stims/Figures/7-J-10-4.bmp","va:fa:va","Up","40","9","12","6A","C1","J","140"
"","","approach-retreat","144","1019181","0.0-144.0","","","1-5","4562","37","1","Training","Stims/Figures/57-C-30-1.bmp","za:saha","Left","37","9","13","6A","C2","J","141"
"","","approach-retreat","145","1024972","0.0-145.0","","","1-5","4279","37","1","Training","Stims/Figures/7-C-20-4.bmp","za:saza","Left","37","9","14","6A","C2","J","142"
"","","approach-retreat","146","1030878","0.0-146.0","","","1-5","4395","39","1","Training","Stims/Figures/57-J-0-1.bmp","fa:fa:va","Left","39","9","15","6A","C1","J","143"
"","","approach-retreat","147","1036468","0.0-147.0","","","1-5","4081","37","1","Training","Stims/Figures/19-J-10-4.bmp","vafa:sha","Right","37","9","16","6A","C1","J","144"
"273448","","instructions","148","1309916","0.0-148.0","[{""page_index"":0,""viewing_time"":273446}]","","","","","","","","","","","","","","","",""
"","","approach-retreat","149","1317428","0.0-149.0","","","1-5","6004","40","0","Testing","Stims/Figures/118-C-20-2.bmp","zahaza","Up","38","1","1","6A","C2","J","1"
"","","approach-retreat","150","1324126","0.0-150.0","","","1-5","5188","40","1","Testing","Stims/Figures/111-C-30-3.bmp","zasa:za","Down","40","1","2","6A","C2","J","2"
"","","approach-retreat","151","1329924","0.0-151.0","","","1-5","4290","37","1","Testing","Stims/Figures/94-C-20-2.bmp","zaha:za","Left","37","1","3","6A","C2","J","3"
"","","approach-retreat","152","1336117","0.0-152.0","","","1-5","4682","39","0","Testing","Stims/Figures/93-C-30-1.bmp","za:ha:za","Left","37","1","4","6A","C2","J","4"
"","","approach-retreat","153","1341964","0.0-153.0","","","1-5","4338","40","1","Testing","Stims/Figures/139-C-20-2.bmp","sahaha","Down","40","1","5","6A","C2","J","5"
"","","approach-retreat","154","1348758","0.0-154.0","","","1-5","5283","37","1","Testing","Stims/Figures/128-C-30-3.bmp","sa:sa:za","Left","37","1","6","6A","C2","J","6"
"","","approach-retreat","155","1354541","0.0-155.0","","","1-5","4273","37","0","Testing","Stims/Figures/7-C-20-4.bmp","za:saza","Right","39","1","7","6A","C2","J","7"
"","","approach-retreat","156","1360397","0.0-156.0","","","1-5","4348","40","1","Testing","Stims/Figures/118-J-0-2.bmp","va:fasha","Up","40","1","8","6A","C1","J","8"
"","","approach-retreat","157","1366020","0.0-157.0","","","1-5","4115","40","1","Testing","Stims/Figures/19-J-10-4.bmp","vafa:sha","Up","40","1","9","6A","C1","J","9"
"","","approach-retreat","158","1371757","0.0-158.0","","","1-5","4228","39","0","Testing","Stims/Figures/111-J-10-3.bmp","fafasha","Right","37","1","10","6A","C1","J","10"
"","","approach-retreat","159","1377516","0.0-159.0","","","1-5","4250","37","1","Testing","Stims/Figures/44-J-10-3.bmp","fashasha","Right","37","1","11","6A","C1","J","11"
"","","approach-retreat","160","1383966","0.0-160.0","","","1-5","4941","38","0","Testing","Stims/Figures/19-C-20-4.bmp","sasa:ha","Down","40","1","12","6A","C2","J","12"
"","","approach-retreat","161","1390477","0.0-161.0","","","1-5","5002","39","1","Testing","Stims/Figures/57-C-30-1.bmp","za:saha","Right","39","1","13","6A","C2","J","13"
"","","approach-retreat","162","1396021","0.0-162.0","","","1-5","4036","40","1","Testing","Stims/Figures/102-C-20-4.bmp","sasaza","Down","40","1","14","6A","C2","J","14"
"","","approach-retreat","163","1402037","0.0-163.0","","","1-5","4505","38","0","Testing","Stims/Figures/102-J-10-4.bmp","va:shava","Up","40","1","15","6A","C1","J","15"
"","","approach-retreat","164","1407685","0.0-164.0","","","1-5","4138","37","0","Testing","Stims/Figures/128-J-10-3.bmp","va:sha:va","Left","39","1","16","6A","C1","J","16"
"","","approach-retreat","165","1413485","0.0-165.0","","","1-5","4289","40","0","Testing","Stims/Figures/93-J-0-1.bmp","vasha:sha","Down","38","1","17","6A","C1","J","17"
"","","approach-retreat","166","1419070","0.0-166.0","","","1-5","4076","38","1","Testing","Stims/Figures/57-J-0-1.bmp","fa:fa:va","Down","38","1","18","6A","C1","J","18"
"","","approach-retreat","167","1424653","0.0-167.0","","","1-5","4064","37","1","Testing","Stims/Figures/139-J-0-2.bmp","fafa:sha","Right","37","1","19","6A","C1","J","19"
"","","approach-retreat","168","1430397","0.0-168.0","","","1-5","4235","40","1","Testing","Stims/Figures/7-J-10-4.bmp","va:fa:va","Up","40","1","20","6A","C1","J","20"
"","","approach-retreat","169","1436212","0.0-169.0","","","1-5","4307","38","1","Testing","Stims/Figures/27-C-30-1.bmp","sa:ha:ha","Up","38","1","21","6A","C2","J","21"
"","","approach-retreat","170","1441941","0.0-170.0","","","1-5","4219","37","0","Testing","Stims/Figures/94-J-0-2.bmp","fa:sha:sha","Left","39","1","22","6A","C1","J","22"
"","","approach-retreat","171","1447675","0.0-171.0","","","1-5","4225","39","0","Testing","Stims/Figures/44-C-30-3.bmp","za:ha:ha","Left","37","1","23","6A","C2","J","23"
"","","approach-retreat","172","1453262","0.0-172.0","","","1-5","4076","37","1","Testing","Stims/Figures/27-J-0-1.bmp","fa:fasha","Right","37","1","24","6A","C1","J","24"
"","","approach-retreat","173","1458924","0.0-173.0","","","1-5","4155","39","1","Testing","Stims/Figures/102-C-20-4.bmp","sasaza","Right","39","2","1","6A","C2","J","25"
"","","approach-retreat","174","1464740","0.0-174.0","","","1-5","4308","39","1","Testing","Stims/Figures/27-C-30-1.bmp","sa:ha:ha","Right","39","2","2","6A","C2","J","26"
"","","approach-retreat","175","1470573","0.0-175.0","","","1-5","4324","38","0","Testing","Stims/Figures/7-C-20-4.bmp","za:saza","Down","40","2","3","6A","C2","J","27"
"","","approach-retreat","176","1476372","0.0-176.0","","","1-5","4291","40","0","Testing","Stims/Figures/44-C-30-3.bmp","za:ha:ha","Up","38","2","4","6A","C2","J","28"
"","","approach-retreat","177","1481965","0.0-177.0","","","1-5","4082","37","0","Testing","Stims/Figures/118-C-20-2.bmp","zahaza","Right","39","2","5","6A","C2","J","29"
"","","approach-retreat","178","1487693","0.0-178.0","","","1-5","4219","38","1","Testing","Stims/Figures/139-C-20-2.bmp","sahaha","Up","38","2","6","6A","C2","J","30"
"","","approach-retreat","179","1493396","0.0-179.0","","","1-5","4194","38","1","Testing","Stims/Figures/94-C-20-2.bmp","zaha:za","Up","38","2","7","6A","C2","J","31"
"","","approach-retreat","180","1499126","0.0-180.0","","","1-5","4220","38","1","Testing","Stims/Figures/111-J-10-3.bmp","fafasha","Down","38","2","8","6A","C1","J","32"
"","","approach-retreat","181","1504789","0.0-181.0","","","1-5","4154","40","1","Testing","Stims/Figures/57-J-0-1.bmp","fa:fa:va","Up","40","2","9","6A","C1","J","33"
"","","approach-retreat","182","1511501","0.0-182.0","","","1-5","5203","40","1","Testing","Stims/Figures/27-J-0-1.bmp","fa:fasha","Up","40","2","10","6A","C1","J","34"
"","","approach-retreat","183","1517340","0.0-183.0","","","1-5","4329","39","1","Testing","Stims/Figures/111-C-30-3.bmp","zasa:za","Right","39","2","11","6A","C2","J","35"
"","","approach-retreat","184","1523142","0.0-184.0","","","1-5","4293","40","0","Testing","Stims/Figures/94-J-0-2.bmp","fa:sha:sha","Down","38","2","12","6A","C1","J","36"
"","","approach-retreat","185","1529875","0.0-185.0","","","1-5","5225","39","0","Testing","Stims/Figures/19-C-20-4.bmp","sasa:ha","Left","37","2","13","6A","C2","J","37"
"","","approach-retreat","186","1536013","0.0-186.0","","","1-5","4629","39","1","Testing","Stims/Figures/44-J-10-3.bmp","fashasha","Left","39","2","14","6A","C1","J","38"
"","","approach-retreat","187","1542389","0.0-187.0","","","1-5","4865","37","1","Testing","Stims/Figures/7-J-10-4.bmp","va:fa:va","Right","37","2","15","6A","C1","J","39"
"","","approach-retreat","188","1549005","0.0-188.0","","","1-5","5108","37","1","Testing","Stims/Figures/19-J-10-4.bmp","vafa:sha","Right","37","2","16","6A","C1","J","40"
"","","approach-retreat","189","1555765","0.0-189.0","","","1-5","5251","38","0","Testing","Stims/Figures/93-J-0-1.bmp","vasha:sha","Up","40","2","17","6A","C1","J","41"
"","","approach-retreat","190","1562300","0.0-190.0","","","1-5","5027","37","1","Testing","Stims/Figures/57-C-30-1.bmp","za:saha","Left","37","2","18","6A","C2","J","42"
"","","approach-retreat","191","1568845","0.0-191.0","","","1-5","5034","37","1","Testing","Stims/Figures/128-C-30-3.bmp","sa:sa:za","Left","37","2","19","6A","C2","J","43"
"","","approach-retreat","192","1575837","0.0-192.0","","","1-5","5483","40","0","Testing","Stims/Figures/128-J-10-3.bmp","va:sha:va","Down","38","2","20","6A","C1","J","44"
"","","approach-retreat","193","1581548","0.0-193.0","","","1-5","4201","39","1","Testing","Stims/Figures/139-J-0-2.bmp","fafa:sha","Left","39","2","21","6A","C1","J","45"
"","","approach-retreat","194","1587348","0.0-194.0","","","1-5","4291","40","1","Testing","Stims/Figures/93-C-30-1.bmp","za:ha:za","Down","40","2","22","6A","C2","J","46"
"","","approach-retreat","195","1595413","0.0-195.0","","","1-5","6555","38","1","Testing","Stims/Figures/118-J-0-2.bmp","va:fasha","Down","38","2","23","6A","C1","J","47"
"","","approach-retreat","196","1601109","0.0-196.0","","","1-5","4188","37","0","Testing","Stims/Figures/102-J-10-4.bmp","va:shava","Left","39","2","24","6A","C1","J","48"
"","","approach-retreat","197","1606788","0.0-197.0","","","1-5","4171","40","1","Testing","Stims/Figures/93-C-30-1.bmp","za:ha:za","Down","40","3","1","6A","C2","J","49"
"","","approach-retreat","198","1612445","0.0-198.0","","","1-5","4148","39","1","Testing","Stims/Figures/118-J-0-2.bmp","va:fasha","Left","39","3","2","6A","C1","J","50"
"","","approach-retreat","199","1622381","0.0-199.0","","","1-5","8425","38","1","Testing","Stims/Figures/94-C-20-2.bmp","zaha:za","Up","38","3","3","6A","C2","J","51"
"","","approach-retreat","200","1632973","0.0-200.0","","","1-5","9083","37","1","Testing","Stims/Figures/128-J-10-3.bmp","va:sha:va","Right","37","3","4","6A","C1","J","52"
"","","approach-retreat","201","1647270","0.0-201.0","","","1-5","12787","38","1","Testing","Stims/Figures/93-J-0-1.bmp","vasha:sha","Down","38","3","5","6A","C1","J","53"
"","","approach-retreat","202","1652916","0.0-202.0","","","1-5","4137","38","0","Testing","Stims/Figures/139-C-20-2.bmp","sahaha","Down","40","3","6","6A","C2","J","54"
"","","approach-retreat","203","1658982","0.0-203.0","","","1-5","4556","40","0","Testing","Stims/Figures/7-C-20-4.bmp","za:saza","Up","38","3","7","6A","C2","J","55"
"","","approach-retreat","204","1667716","0.0-204.0","","","1-5","7227","37","0","Testing","Stims/Figures/128-C-30-3.bmp","sa:sa:za","Right","39","3","8","6A","C2","J","56"
"","","approach-retreat","205","1676077","0.0-205.0","","","1-5","6851","37","0","Testing","Stims/Figures/44-C-30-3.bmp","za:ha:ha","Right","39","3","9","6A","C2","J","57"
"","","approach-retreat","206","1684132","0.0-206.0","","","1-5","6545","38","1","Testing","Stims/Figures/57-C-30-1.bmp","za:saha","Up","38","3","10","6A","C2","J","58"
"","","approach-retreat","207","1691237","0.0-207.0","","","1-5","5596","37","1","Testing","Stims/Figures/102-C-20-4.bmp","sasaza","Left","37","3","11","6A","C2","J","59"
"","","approach-retreat","208","1708580","0.0-208.0","","","1-5","15834","38","1","Testing","Stims/Figures/111-C-30-3.bmp","zasa:za","Up","38","3","12","6A","C2","J","60"
"","","approach-retreat","209","1715885","0.0-209.0","","","1-5","5796","38","0","Testing","Stims/Figures/111-J-10-3.bmp","fafasha","Up","40","3","13","6A","C1","J","61"
"","","approach-retreat","210","1721564","0.0-210.0","","","1-5","4171","38","0","Testing","Stims/Figures/19-C-20-4.bmp","sasa:ha","Down","40","3","14","6A","C2","J","62"
"","","approach-retreat","211","1727267","0.0-211.0","","","1-5","4195","37","0","Testing","Stims/Figures/94-J-0-2.bmp","fa:sha:sha","Left","39","3","15","6A","C1","J","63"
"","","approach-retreat","212","1733325","0.0-212.0","","","1-5","4549","37","1","Testing","Stims/Figures/102-J-10-4.bmp","va:shava","Right","37","3","16","6A","C1","J","64"
"","","approach-retreat","213","1739595","0.0-213.0","","","1-5","4762","39","1","Testing","Stims/Figures/44-J-10-3.bmp","fashasha","Left","39","3","17","6A","C1","J","65"
"","","approach-retreat","214","1745454","0.0-214.0","","","1-5","4350","39","1","Testing","Stims/Figures/19-J-10-4.bmp","vafa:sha","Left","39","3","18","6A","C1","J","66"
"","","approach-retreat","215","1751197","0.0-215.0","","","1-5","4235","39","0","Testing","Stims/Figures/57-J-0-1.bmp","fa:fa:va","Right","37","3","19","6A","C1","J","67"
"","","approach-retreat","216","1758077","0.0-216.0","","","1-5","5372","39","0","Testing","Stims/Figures/118-C-20-2.bmp","zahaza","Left","37","3","20","6A","C2","J","68"
"","","approach-retreat","217","1763773","0.0-217.0","","","1-5","4187","37","1","Testing","Stims/Figures/139-J-0-2.bmp","fafa:sha","Right","37","3","21","6A","C1","J","69"
"","","approach-retreat","218","1769630","0.0-218.0","","","1-5","4349","38","1","Testing","Stims/Figures/27-C-30-1.bmp","sa:ha:ha","Up","38","3","22","6A","C2","J","70"
"","","approach-retreat","219","1775244","0.0-219.0","","","1-5","4105","38","1","Testing","Stims/Figures/27-J-0-1.bmp","fa:fasha","Down","38","3","23","6A","C1","J","71"
"","","approach-retreat","220","1780934","0.0-220.0","","","1-5","4181","38","1","Testing","Stims/Figures/7-J-10-4.bmp","va:fa:va","Down","38","3","24","6A","C1","J","72"
"","","approach-retreat","221","1786501","0.0-221.0","","","1-5","4058","37","0","Testing","Stims/Figures/19-C-20-4.bmp","sasa:ha","Right","39","4","1","6A","C2","J","73"
"","","approach-retreat","222","1792109","0.0-222.0","","","1-5","4099","37","1","Testing","Stims/Figures/128-J-10-3.bmp","va:sha:va","Right","37","4","2","6A","C1","J","74"
"","","approach-retreat","223","1797764","0.0-223.0","","","1-5","4147","38","0","Testing","Stims/Figures/93-J-0-1.bmp","vasha:sha","Up","40","4","3","6A","C1","J","75"
"","","approach-retreat","224","1803525","0.0-224.0","","","1-5","4251","38","0","Testing","Stims/Figures/111-J-10-3.bmp","fafasha","Up","40","4","4","6A","C1","J","76"
"","","approach-retreat","225","1810028","0.0-225.0","","","1-5","4994","39","1","Testing","Stims/Figures/139-C-20-2.bmp","sahaha","Right","39","4","5","6A","C2","J","77"
"","","approach-retreat","226","1815958","0.0-226.0","","","1-5","4421","40","0","Testing","Stims/Figures/118-C-20-2.bmp","zahaza","Up","38","4","6","6A","C2","J","78"
"","","approach-retreat","227","1821780","0.0-227.0","","","1-5","4313","38","0","Testing","Stims/Figures/7-C-20-4.bmp","za:saza","Down","40","4","7","6A","C2","J","79"
"","","approach-retreat","228","1827764","0.0-228.0","","","1-5","4475","40","0","Testing","Stims/Figures/44-C-30-3.bmp","za:ha:ha","Up","38","4","8","6A","C2","J","80"
"","","approach-retreat","229","1835004","0.0-229.0","","","1-5","5731","37","1","Testing","Stims/Figures/128-C-30-3.bmp","sa:sa:za","Left","37","4","9","6A","C2","J","81"
"","","approach-retreat","230","1840717","0.0-230.0","","","1-5","4205","37","1","Testing","Stims/Figures/44-J-10-3.bmp","fashasha","Right","37","4","10","6A","C1","J","82"
"","","approach-retreat","231","1846452","0.0-231.0","","","1-5","4226","40","0","Testing","Stims/Figures/94-J-0-2.bmp","fa:sha:sha","Down","38","4","11","6A","C1","J","83"
"","","approach-retreat","232","1852077","0.0-232.0","","","1-5","4118","38","0","Testing","Stims/Figures/102-J-10-4.bmp","va:shava","Up","40","4","12","6A","C1","J","84"
"","","approach-retreat","233","1857941","0.0-233.0","","","1-5","4354","37","1","Testing","Stims/Figures/111-C-30-3.bmp","zasa:za","Left","37","4","13","6A","C2","J","85"
"","","approach-retreat","234","1863956","0.0-234.0","","","1-5","4508","38","1","Testing","Stims/Figures/93-C-30-1.bmp","za:ha:za","Up","38","4","14","6A","C2","J","86"
"","","approach-retreat","235","1870052","0.0-235.0","","","1-5","4587","38","1","Testing","Stims/Figures/19-J-10-4.bmp","vafa:sha","Down","38","4","15","6A","C1","J","87"
"","","approach-retreat","236","1875462","0.0-236.0","","","1-5","3901","37","1","Testing","Stims/Figures/102-C-20-4.bmp","sasaza","Left","37","4","16","6A","C2","J","88"
"","","approach-retreat","237","1881732","0.0-237.0","","","1-5","4761","39","0","Testing","Stims/Figures/57-J-0-1.bmp","fa:fa:va","Right","37","4","17","6A","C1","J","89"
"","","approach-retreat","238","1887557","0.0-238.0","","","1-5","4317","38","1","Testing","Stims/Figures/139-J-0-2.bmp","fafa:sha","Down","38","4","18","6A","C1","J","90"
"","","approach-retreat","239","1893276","0.0-239.0","","","1-5","4210","37","1","Testing","Stims/Figures/94-C-20-2.bmp","zaha:za","Left","37","4","19","6A","C2","J","91"
"","","approach-retreat","240","1899133","0.0-240.0","","","1-5","4347","37","1","Testing","Stims/Figures/27-J-0-1.bmp","fa:fasha","Right","37","4","20","6A","C1","J","92"
"","","approach-retreat","241","1904612","0.0-241.0","","","1-5","3972","39","0","Testing","Stims/Figures/27-C-30-1.bmp","sa:ha:ha","Left","37","4","21","6A","C2","J","93"
"","","approach-retreat","242","1910566","0.0-242.0","","","1-5","4443","40","1","Testing","Stims/Figures/57-C-30-1.bmp","za:saha","Down","40","4","22","6A","C2","J","94"
"","","approach-retreat","243","1917644","0.0-243.0","","","1-5","5570","38","1","Testing","Stims/Figures/7-J-10-4.bmp","va:fa:va","Down","38","4","23","6A","C1","J","95"
"","","approach-retreat","244","1923493","0.0-244.0","","","1-5","4341","39","1","Testing","Stims/Figures/118-J-0-2.bmp","va:fasha","Left","39","4","24","6A","C1","J","96"
"160845","","survey-text","245","2084346","0.0-245.0","","{""Q0"":""PS180059""}","","","","","","","","","","","","","","",""
