\"rt\",\"key_press\",\"trial_type\",\"trial_index\",\"time_elapsed\",\"internal_node_id\",\"view_history\",\"responses\",\"Id\",\"Rt\",\"ResKeyCode\",\"ResCorr\",\"TrialType2\",\"Image\",\"Label\",\"Location\",\"CorrectResponse\",\"Block\",\"BlockTrial\",\"Condition\",\"LabelType\",\"Subcondition\",\"trialNum\"
\"19429\",\"32\",\"text\",\"0\",\"19445\",\"0.0-0.0-0.0\",\"\",\"\",\"\",\"\",\"\",\"\",\"\",\"\",\"\",\"\",\"\",\"\",\"\",\"\",\"\",\"\",\"\"
\"62240\",\"\",\"instructions\",\"1\",\"81690\",\"0.0-1.0\",\"[{\"\"page_index\"\":0,\"\"viewing_time\"\":62238}]\",\"\",\"\",\"\",\"\",\"\",\"\",\"\",\"\",\"\",\"\",\"\",\"\",\"\",\"\",\"\",\"\"
\"30218\",\"\",\"survey-multi-choice\",\"2\",\"112029\",\"0.0-2.0\",\"\",\"{\"\"Q0\"\":\"\"Da\"\",\"\"Q1\"\":\"\"Da\"\",\"\"Q2\"\":\"\"Da\"\",\"\"Q3\"\":\"\"Da\"\",\"\"Q4\"\":\"\"Da\"\",\"\"Q5\"\":\"\"Da\"\"}\",\"\",\"\",\"\",\"\",\"\",\"\",\"\",\"\",\"\",\"\",\"\",\"\",\"\",\"\",\"\"
\"\",\"\",\"bio\",\"3\",\"119287\",\"0.0-3.0\",\"\",\"{\"\"age\"\":\"\"21\"\",\"\"gender\"\":\"\"f\"\",\"\"specify\"\":\"\"\"\"}\",\"\",\"\",\"\",\"\",\"\",\"\",\"\",\"\",\"\",\"\",\"\",\"\",\"\",\"\",\"\"
\"\",\"\",\"approach-retreat\",\"4\",\"128642\",\"0.0-4.0\",\"\",\"\",\"2-4\",\"7832\",\"39\",\"1\",\"Training\",\"Stims/Figures/118-J-0-2.bmp\",\"ta:pa:ta\",\"Right\",\"39\",\"1\",\"1\",\"4\",\"P\",\"C\",\"1\"
\"\",\"\",\"approach-retreat\",\"5\",\"138009\",\"0.0-5.0\",\"\",\"\",\"2-4\",\"7852\",\"38\",\"1\",\"Training\",\"Stims/Figures/27-C-30-1.bmp\",\"nalana\",\"Down\",\"38\",\"1\",\"2\",\"4\",\"S\",\"C\",\"2\"
\"\",\"\",\"approach-retreat\",\"6\",\"144825\",\"0.0-6.0\",\"\",\"\",\"2-4\",\"5301\",\"38\",\"0\",\"Training\",\"Stims/Figures/44-J-10-3.bmp\",\"tapa:ta\",\"Down\",\"40\",\"1\",\"3\",\"4\",\"P\",\"C\",\"3\"
\"\",\"\",\"approach-retreat\",\"7\",\"153344\",\"0.0-7.0\",\"\",\"\",\"2-4\",\"7005\",\"39\",\"0\",\"Training\",\"Stims/Figures/102-C-20-4.bmp\",\"ma:mala\",\"Right\",\"37\",\"1\",\"4\",\"4\",\"S\",\"C\",\"4\"
\"\",\"\",\"approach-retreat\",\"8\",\"161782\",\"0.0-8.0\",\"\",\"\",\"2-4\",\"6923\",\"37\",\"0\",\"Training\",\"Stims/Figures/128-C-30-3.bmp\",\"namala\",\"Left\",\"39\",\"1\",\"5\",\"4\",\"S\",\"C\",\"5\"
\"\",\"\",\"approach-retreat\",\"9\",\"168622\",\"0.0-9.0\",\"\",\"\",\"2-4\",\"5323\",\"39\",\"0\",\"Training\",\"Stims/Figures/85-J-0-2.bmp\",\"ta:ka:ka\",\"Left\",\"37\",\"1\",\"6\",\"4\",\"P\",\"C\",\"6\"
\"\",\"\",\"approach-retreat\",\"10\",\"175714\",\"0.0-10.0\",\"\",\"\",\"2-4\",\"5578\",\"37\",\"0\",\"Training\",\"Stims/Figures/85-C-20-2.bmp\",\"na:lala\",\"Left\",\"39\",\"1\",\"7\",\"4\",\"S\",\"C\",\"7\"
\"\",\"\",\"approach-retreat\",\"11\",\"185035\",\"0.0-11.0\",\"\",\"\",\"2-4\",\"7807\",\"40\",\"1\",\"Training\",\"Stims/Figures/86-C-30-1.bmp\",\"ma:ma:la\",\"Up\",\"40\",\"1\",\"8\",\"4\",\"S\",\"C\",\"8\"
\"\",\"\",\"approach-retreat\",\"12\",\"191104\",\"0.0-12.0\",\"\",\"\",\"2-4\",\"4553\",\"40\",\"1\",\"Training\",\"Stims/Figures/118-C-20-2.bmp\",\"ma:la:la\",\"Up\",\"40\",\"1\",\"9\",\"4\",\"S\",\"C\",\"9\"
\"\",\"\",\"approach-retreat\",\"13\",\"198297\",\"0.0-13.0\",\"\",\"\",\"2-4\",\"5679\",\"38\",\"1\",\"Training\",\"Stims/Figures/87-C-20-4.bmp\",\"na:mala\",\"Down\",\"38\",\"1\",\"10\",\"4\",\"S\",\"C\",\"10\"
\"\",\"\",\"approach-retreat\",\"14\",\"206127\",\"0.0-14.0\",\"\",\"\",\"2-4\",\"6316\",\"40\",\"1\",\"Training\",\"Stims/Figures/102-J-10-4.bmp\",\"paka:ka\",\"Down\",\"40\",\"1\",\"11\",\"4\",\"P\",\"C\",\"11\"
\"\",\"\",\"approach-retreat\",\"15\",\"212687\",\"0.0-15.0\",\"\",\"\",\"2-4\",\"5045\",\"39\",\"1\",\"Training\",\"Stims/Figures/44-C-30-3.bmp\",\"mamana\",\"Left\",\"39\",\"1\",\"12\",\"4\",\"S\",\"C\",\"12\"
\"\",\"\",\"approach-retreat\",\"16\",\"220842\",\"0.0-16.0\",\"\",\"\",\"2-4\",\"6641\",\"38\",\"1\",\"Training\",\"Stims/Figures/87-J-10-4.bmp\",\"papa:ka\",\"Up\",\"38\",\"1\",\"13\",\"4\",\"P\",\"C\",\"13\"
\"\",\"\",\"approach-retreat\",\"17\",\"227720\",\"0.0-17.0\",\"\",\"\",\"2-4\",\"5364\",\"39\",\"1\",\"Training\",\"Stims/Figures/27-J-0-1.bmp\",\"tapaka\",\"Right\",\"39\",\"1\",\"14\",\"4\",\"P\",\"C\",\"14\"
\"\",\"\",\"approach-retreat\",\"18\",\"233889\",\"0.0-18.0\",\"\",\"\",\"2-4\",\"4654\",\"39\",\"1\",\"Training\",\"Stims/Figures/128-J-10-3.bmp\",\"papata\",\"Right\",\"39\",\"1\",\"15\",\"4\",\"P\",\"C\",\"15\"
\"\",\"\",\"approach-retreat\",\"19\",\"240452\",\"0.0-19.0\",\"\",\"\",\"2-4\",\"5046\",\"38\",\"1\",\"Training\",\"Stims/Figures/86-J-0-1.bmp\",\"taka:ta\",\"Up\",\"38\",\"1\",\"16\",\"4\",\"P\",\"C\",\"16\"
\"\",\"\",\"approach-retreat\",\"20\",\"247449\",\"0.0-20.0\",\"\",\"\",\"2-4\",\"5482\",\"38\",\"1\",\"Training\",\"Stims/Figures/87-C-20-4.bmp\",\"na:mala\",\"Down\",\"38\",\"2\",\"1\",\"4\",\"S\",\"C\",\"17\"
\"\",\"\",\"approach-retreat\",\"21\",\"253882\",\"0.0-21.0\",\"\",\"\",\"2-4\",\"4919\",\"38\",\"1\",\"Training\",\"Stims/Figures/85-C-20-2.bmp\",\"na:lala\",\"Down\",\"38\",\"2\",\"2\",\"4\",\"S\",\"C\",\"18\"
\"\",\"\",\"approach-retreat\",\"22\",\"261658\",\"0.0-22.0\",\"\",\"\",\"2-4\",\"6262\",\"38\",\"1\",\"Training\",\"Stims/Figures/44-J-10-3.bmp\",\"tapa:ta\",\"Up\",\"38\",\"2\",\"3\",\"4\",\"P\",\"C\",\"19\"
\"\",\"\",\"approach-retreat\",\"23\",\"268849\",\"0.0-23.0\",\"\",\"\",\"2-4\",\"5677\",\"38\",\"1\",\"Training\",\"Stims/Figures/27-C-30-1.bmp\",\"nalana\",\"Down\",\"38\",\"2\",\"4\",\"4\",\"S\",\"C\",\"20\"
\"\",\"\",\"approach-retreat\",\"24\",\"275137\",\"0.0-24.0\",\"\",\"\",\"2-4\",\"4773\",\"37\",\"1\",\"Training\",\"Stims/Figures/86-C-30-1.bmp\",\"ma:ma:la\",\"Right\",\"37\",\"2\",\"5\",\"4\",\"S\",\"C\",\"21\"
\"\",\"\",\"approach-retreat\",\"25\",\"281540\",\"0.0-25.0\",\"\",\"\",\"2-4\",\"4883\",\"38\",\"1\",\"Training\",\"Stims/Figures/128-J-10-3.bmp\",\"papata\",\"Up\",\"38\",\"2\",\"6\",\"4\",\"P\",\"C\",\"22\"
\"\",\"\",\"approach-retreat\",\"26\",\"288075\",\"0.0-26.0\",\"\",\"\",\"2-4\",\"5019\",\"37\",\"1\",\"Training\",\"Stims/Figures/27-J-0-1.bmp\",\"tapaka\",\"Left\",\"37\",\"2\",\"7\",\"4\",\"P\",\"C\",\"23\"
\"\",\"\",\"approach-retreat\",\"27\",\"294974\",\"0.0-27.0\",\"\",\"\",\"2-4\",\"5382\",\"39\",\"1\",\"Training\",\"Stims/Figures/87-J-10-4.bmp\",\"papa:ka\",\"Right\",\"39\",\"2\",\"8\",\"4\",\"P\",\"C\",\"24\"
\"\",\"\",\"approach-retreat\",\"28\",\"301239\",\"0.0-28.0\",\"\",\"\",\"2-4\",\"4751\",\"40\",\"1\",\"Training\",\"Stims/Figures/102-C-20-4.bmp\",\"ma:mala\",\"Up\",\"40\",\"2\",\"9\",\"4\",\"S\",\"C\",\"25\"
\"\",\"\",\"approach-retreat\",\"29\",\"307737\",\"0.0-29.0\",\"\",\"\",\"2-4\",\"4983\",\"37\",\"1\",\"Training\",\"Stims/Figures/118-C-20-2.bmp\",\"ma:la:la\",\"Right\",\"37\",\"2\",\"10\",\"4\",\"S\",\"C\",\"26\"
\"\",\"\",\"approach-retreat\",\"30\",\"313961\",\"0.0-30.0\",\"\",\"\",\"2-4\",\"4704\",\"39\",\"1\",\"Training\",\"Stims/Figures/86-J-0-1.bmp\",\"taka:ta\",\"Right\",\"39\",\"2\",\"11\",\"4\",\"P\",\"C\",\"27\"
\"\",\"\",\"approach-retreat\",\"31\",\"320213\",\"0.0-31.0\",\"\",\"\",\"2-4\",\"4737\",\"38\",\"1\",\"Training\",\"Stims/Figures/118-J-0-2.bmp\",\"ta:pa:ta\",\"Up\",\"38\",\"2\",\"12\",\"4\",\"P\",\"C\",\"28\"
\"\",\"\",\"approach-retreat\",\"32\",\"327586\",\"0.0-32.0\",\"\",\"\",\"2-4\",\"5858\",\"39\",\"1\",\"Training\",\"Stims/Figures/128-C-30-3.bmp\",\"namala\",\"Left\",\"39\",\"2\",\"13\",\"4\",\"S\",\"C\",\"29\"
\"\",\"\",\"approach-retreat\",\"33\",\"333720\",\"0.0-33.0\",\"\",\"\",\"2-4\",\"4613\",\"39\",\"1\",\"Training\",\"Stims/Figures/44-C-30-3.bmp\",\"mamana\",\"Left\",\"39\",\"2\",\"14\",\"4\",\"S\",\"C\",\"30\"
\"\",\"\",\"approach-retreat\",\"34\",\"340502\",\"0.0-34.0\",\"\",\"\",\"2-4\",\"5266\",\"40\",\"1\",\"Training\",\"Stims/Figures/102-J-10-4.bmp\",\"paka:ka\",\"Down\",\"40\",\"2\",\"15\",\"4\",\"P\",\"C\",\"31\"
\"\",\"\",\"approach-retreat\",\"35\",\"346630\",\"0.0-35.0\",\"\",\"\",\"2-4\",\"4613\",\"37\",\"1\",\"Training\",\"Stims/Figures/85-J-0-2.bmp\",\"ta:ka:ka\",\"Left\",\"37\",\"2\",\"16\",\"4\",\"P\",\"C\",\"32\"
\"\",\"\",\"approach-retreat\",\"36\",\"352524\",\"0.0-36.0\",\"\",\"\",\"2-4\",\"4379\",\"39\",\"1\",\"Training\",\"Stims/Figures/86-C-30-1.bmp\",\"ma:ma:la\",\"Left\",\"39\",\"3\",\"1\",\"4\",\"S\",\"C\",\"33\"
\"\",\"\",\"approach-retreat\",\"37\",\"359756\",\"0.0-37.0\",\"\",\"\",\"2-4\",\"5718\",\"37\",\"1\",\"Training\",\"Stims/Figures/87-J-10-4.bmp\",\"papa:ka\",\"Left\",\"37\",\"3\",\"2\",\"4\",\"P\",\"C\",\"34\"
\"\",\"\",\"approach-retreat\",\"38\",\"368230\",\"0.0-38.0\",\"\",\"\",\"2-4\",\"6677\",\"37\",\"1\",\"Training\",\"Stims/Figures/85-C-20-2.bmp\",\"na:lala\",\"Right\",\"37\",\"3\",\"3\",\"4\",\"S\",\"C\",\"35\"
\"\",\"\",\"approach-retreat\",\"39\",\"375940\",\"0.0-39.0\",\"\",\"\",\"2-4\",\"6194\",\"38\",\"0\",\"Training\",\"Stims/Figures/27-C-30-1.bmp\",\"nalana\",\"Up\",\"40\",\"3\",\"4\",\"4\",\"S\",\"C\",\"36\"
\"\",\"\",\"approach-retreat\",\"40\",\"382424\",\"0.0-40.0\",\"\",\"\",\"2-4\",\"4971\",\"38\",\"1\",\"Training\",\"Stims/Figures/85-J-0-2.bmp\",\"ta:ka:ka\",\"Up\",\"38\",\"3\",\"5\",\"4\",\"P\",\"C\",\"37\"
\"\",\"\",\"approach-retreat\",\"41\",\"389202\",\"0.0-41.0\",\"\",\"\",\"2-4\",\"5264\",\"38\",\"1\",\"Training\",\"Stims/Figures/44-C-30-3.bmp\",\"mamana\",\"Down\",\"38\",\"3\",\"6\",\"4\",\"S\",\"C\",\"38\"
\"\",\"\",\"approach-retreat\",\"42\",\"396004\",\"0.0-42.0\",\"\",\"\",\"2-4\",\"5288\",\"40\",\"1\",\"Training\",\"Stims/Figures/86-J-0-1.bmp\",\"taka:ta\",\"Down\",\"40\",\"3\",\"7\",\"4\",\"P\",\"C\",\"39\"
\"\",\"\",\"approach-retreat\",\"43\",\"403918\",\"0.0-43.0\",\"\",\"\",\"2-4\",\"6401\",\"38\",\"1\",\"Training\",\"Stims/Figures/27-J-0-1.bmp\",\"tapaka\",\"Up\",\"38\",\"3\",\"8\",\"4\",\"P\",\"C\",\"40\"
\"\",\"\",\"approach-retreat\",\"44\",\"411272\",\"0.0-44.0\",\"\",\"\",\"2-4\",\"5756\",\"39\",\"1\",\"Training\",\"Stims/Figures/44-J-10-3.bmp\",\"tapa:ta\",\"Right\",\"39\",\"3\",\"9\",\"4\",\"P\",\"C\",\"41\"
\"\",\"\",\"approach-retreat\",\"45\",\"418629\",\"0.0-45.0\",\"\",\"\",\"2-4\",\"5816\",\"37\",\"1\",\"Training\",\"Stims/Figures/128-J-10-3.bmp\",\"papata\",\"Left\",\"37\",\"3\",\"10\",\"4\",\"P\",\"C\",\"42\"
\"\",\"\",\"approach-retreat\",\"46\",\"426412\",\"0.0-46.0\",\"\",\"\",\"2-4\",\"6268\",\"39\",\"1\",\"Training\",\"Stims/Figures/118-J-0-2.bmp\",\"ta:pa:ta\",\"Right\",\"39\",\"3\",\"11\",\"4\",\"P\",\"C\",\"43\"
\"\",\"\",\"approach-retreat\",\"47\",\"432907\",\"0.0-47.0\",\"\",\"\",\"2-4\",\"4980\",\"38\",\"1\",\"Training\",\"Stims/Figures/128-C-30-3.bmp\",\"namala\",\"Down\",\"38\",\"3\",\"12\",\"4\",\"S\",\"C\",\"44\"
\"\",\"\",\"approach-retreat\",\"48\",\"439150\",\"0.0-48.0\",\"\",\"\",\"2-4\",\"4722\",\"40\",\"1\",\"Training\",\"Stims/Figures/118-C-20-2.bmp\",\"ma:la:la\",\"Up\",\"40\",\"3\",\"13\",\"4\",\"S\",\"C\",\"45\"
\"\",\"\",\"approach-retreat\",\"49\",\"445353\",\"0.0-49.0\",\"\",\"\",\"2-4\",\"4690\",\"39\",\"1\",\"Training\",\"Stims/Figures/102-C-20-4.bmp\",\"ma:mala\",\"Left\",\"39\",\"3\",\"14\",\"4\",\"S\",\"C\",\"46\"
\"\",\"\",\"approach-retreat\",\"50\",\"451691\",\"0.0-50.0\",\"\",\"\",\"2-4\",\"4821\",\"37\",\"0\",\"Training\",\"Stims/Figures/102-J-10-4.bmp\",\"paka:ka\",\"Right\",\"39\",\"3\",\"15\",\"4\",\"P\",\"C\",\"47\"
\"\",\"\",\"approach-retreat\",\"51\",\"457847\",\"0.0-51.0\",\"\",\"\",\"2-4\",\"4642\",\"38\",\"1\",\"Training\",\"Stims/Figures/87-C-20-4.bmp\",\"na:mala\",\"Down\",\"38\",\"3\",\"16\",\"4\",\"S\",\"C\",\"48\"
\"\",\"\",\"approach-retreat\",\"52\",\"463867\",\"0.0-52.0\",\"\",\"\",\"2-4\",\"4502\",\"38\",\"1\",\"Training\",\"Stims/Figures/44-C-30-3.bmp\",\"mamana\",\"Down\",\"38\",\"4\",\"1\",\"4\",\"S\",\"C\",\"49\"
\"\",\"\",\"approach-retreat\",\"53\",\"471051\",\"0.0-53.0\",\"\",\"\",\"2-4\",\"5668\",\"40\",\"1\",\"Training\",\"Stims/Figures/102-J-10-4.bmp\",\"paka:ka\",\"Down\",\"40\",\"4\",\"2\",\"4\",\"P\",\"C\",\"50\"
\"\",\"\",\"approach-retreat\",\"54\",\"477135\",\"0.0-54.0\",\"\",\"\",\"2-4\",\"4570\",\"39\",\"1\",\"Training\",\"Stims/Figures/27-C-30-1.bmp\",\"nalana\",\"Left\",\"39\",\"4\",\"3\",\"4\",\"S\",\"C\",\"51\"
\"\",\"\",\"approach-retreat\",\"55\",\"483263\",\"0.0-55.0\",\"\",\"\",\"2-4\",\"4615\",\"37\",\"1\",\"Training\",\"Stims/Figures/128-C-30-3.bmp\",\"namala\",\"Right\",\"37\",\"4\",\"4\",\"4\",\"S\",\"C\",\"52\"
\"\",\"\",\"approach-retreat\",\"56\",\"489816\",\"0.0-56.0\",\"\",\"\",\"2-4\",\"5039\",\"38\",\"1\",\"Training\",\"Stims/Figures/85-J-0-2.bmp\",\"ta:ka:ka\",\"Up\",\"38\",\"4\",\"5\",\"4\",\"P\",\"C\",\"53\"
\"\",\"\",\"approach-retreat\",\"57\",\"496107\",\"0.0-57.0\",\"\",\"\",\"2-4\",\"4778\",\"39\",\"1\",\"Training\",\"Stims/Figures/85-C-20-2.bmp\",\"na:lala\",\"Left\",\"39\",\"4\",\"6\",\"4\",\"S\",\"C\",\"54\"
\"\",\"\",\"approach-retreat\",\"58\",\"502166\",\"0.0-58.0\",\"\",\"\",\"2-4\",\"4545\",\"40\",\"1\",\"Training\",\"Stims/Figures/86-C-30-1.bmp\",\"ma:ma:la\",\"Up\",\"40\",\"4\",\"7\",\"4\",\"S\",\"C\",\"55\"
\"\",\"\",\"approach-retreat\",\"59\",\"508123\",\"0.0-59.0\",\"\",\"\",\"2-4\",\"4441\",\"39\",\"1\",\"Training\",\"Stims/Figures/128-J-10-3.bmp\",\"papata\",\"Right\",\"39\",\"4\",\"8\",\"4\",\"P\",\"C\",\"56\"
\"\",\"\",\"approach-retreat\",\"60\",\"514946\",\"0.0-60.0\",\"\",\"\",\"2-4\",\"5307\",\"37\",\"1\",\"Training\",\"Stims/Figures/27-J-0-1.bmp\",\"tapaka\",\"Left\",\"37\",\"4\",\"9\",\"4\",\"P\",\"C\",\"57\"
\"\",\"\",\"approach-retreat\",\"61\",\"520969\",\"0.0-61.0\",\"\",\"\",\"2-4\",\"4507\",\"40\",\"1\",\"Training\",\"Stims/Figures/118-C-20-2.bmp\",\"ma:la:la\",\"Up\",\"40\",\"4\",\"10\",\"4\",\"S\",\"C\",\"58\"
\"\",\"\",\"approach-retreat\",\"62\",\"527830\",\"0.0-62.0\",\"\",\"\",\"2-4\",\"5343\",\"40\",\"1\",\"Training\",\"Stims/Figures/86-J-0-1.bmp\",\"taka:ta\",\"Down\",\"40\",\"4\",\"11\",\"4\",\"P\",\"C\",\"59\"
\"\",\"\",\"approach-retreat\",\"63\",\"534552\",\"0.0-63.0\",\"\",\"\",\"2-4\",\"5208\",\"39\",\"1\",\"Training\",\"Stims/Figures/118-J-0-2.bmp\",\"ta:pa:ta\",\"Right\",\"39\",\"4\",\"12\",\"4\",\"P\",\"C\",\"60\"
\"\",\"\",\"approach-retreat\",\"64\",\"540600\",\"0.0-64.0\",\"\",\"\",\"2-4\",\"4533\",\"38\",\"1\",\"Training\",\"Stims/Figures/102-C-20-4.bmp\",\"ma:mala\",\"Down\",\"38\",\"4\",\"13\",\"4\",\"S\",\"C\",\"61\"
\"\",\"\",\"approach-retreat\",\"65\",\"547492\",\"0.0-65.0\",\"\",\"\",\"2-4\",\"5376\",\"37\",\"1\",\"Training\",\"Stims/Figures/87-C-20-4.bmp\",\"na:mala\",\"Right\",\"37\",\"4\",\"14\",\"4\",\"S\",\"C\",\"62\"
\"\",\"\",\"approach-retreat\",\"66\",\"553408\",\"0.0-66.0\",\"\",\"\",\"2-4\",\"4398\",\"38\",\"1\",\"Training\",\"Stims/Figures/44-J-10-3.bmp\",\"tapa:ta\",\"Up\",\"38\",\"4\",\"15\",\"4\",\"P\",\"C\",\"63\"
\"\",\"\",\"approach-retreat\",\"67\",\"559873\",\"0.0-67.0\",\"\",\"\",\"2-4\",\"4898\",\"37\",\"1\",\"Training\",\"Stims/Figures/87-J-10-4.bmp\",\"papa:ka\",\"Left\",\"37\",\"4\",\"16\",\"4\",\"P\",\"C\",\"64\"
\"\",\"\",\"approach-retreat\",\"68\",\"566692\",\"0.0-68.0\",\"\",\"\",\"2-4\",\"5303\",\"38\",\"1\",\"Training\",\"Stims/Figures/118-C-20-2.bmp\",\"ma:la:la\",\"Down\",\"38\",\"5\",\"1\",\"4\",\"S\",\"C\",\"65\"
\"\",\"\",\"approach-retreat\",\"69\",\"573507\",\"0.0-69.0\",\"\",\"\",\"2-4\",\"5299\",\"38\",\"1\",\"Training\",\"Stims/Figures/87-J-10-4.bmp\",\"papa:ka\",\"Up\",\"38\",\"5\",\"2\",\"4\",\"P\",\"C\",\"66\"
\"\",\"\",\"approach-retreat\",\"70\",\"580697\",\"0.0-70.0\",\"\",\"\",\"2-4\",\"5672\",\"37\",\"1\",\"Training\",\"Stims/Figures/102-J-10-4.bmp\",\"paka:ka\",\"Left\",\"37\",\"5\",\"3\",\"4\",\"P\",\"C\",\"67\"
\"\",\"\",\"approach-retreat\",\"71\",\"586628\",\"0.0-71.0\",\"\",\"\",\"2-4\",\"4417\",\"38\",\"1\",\"Training\",\"Stims/Figures/86-J-0-1.bmp\",\"taka:ta\",\"Up\",\"38\",\"5\",\"4\",\"4\",\"P\",\"C\",\"68\"
\"\",\"\",\"approach-retreat\",\"72\",\"593102\",\"0.0-72.0\",\"\",\"\",\"2-4\",\"4961\",\"37\",\"1\",\"Training\",\"Stims/Figures/27-C-30-1.bmp\",\"nalana\",\"Right\",\"37\",\"5\",\"5\",\"4\",\"S\",\"C\",\"69\"
\"\",\"\",\"approach-retreat\",\"73\",\"599074\",\"0.0-73.0\",\"\",\"\",\"2-4\",\"4457\",\"37\",\"1\",\"Training\",\"Stims/Figures/86-C-30-1.bmp\",\"ma:ma:la\",\"Right\",\"37\",\"5\",\"6\",\"4\",\"S\",\"C\",\"70\"
\"\",\"\",\"approach-retreat\",\"74\",\"605661\",\"0.0-74.0\",\"\",\"\",\"2-4\",\"5072\",\"37\",\"1\",\"Training\",\"Stims/Figures/128-C-30-3.bmp\",\"namala\",\"Right\",\"37\",\"5\",\"7\",\"4\",\"S\",\"C\",\"71\"
\"\",\"\",\"approach-retreat\",\"75\",\"611649\",\"0.0-75.0\",\"\",\"\",\"2-4\",\"4470\",\"38\",\"1\",\"Training\",\"Stims/Figures/85-C-20-2.bmp\",\"na:lala\",\"Down\",\"38\",\"5\",\"8\",\"4\",\"S\",\"C\",\"72\"
\"\",\"\",\"approach-retreat\",\"76\",\"617723\",\"0.0-76.0\",\"\",\"\",\"2-4\",\"4560\",\"39\",\"1\",\"Training\",\"Stims/Figures/87-C-20-4.bmp\",\"na:mala\",\"Left\",\"39\",\"5\",\"9\",\"4\",\"S\",\"C\",\"73\"
\"\",\"\",\"approach-retreat\",\"77\",\"623874\",\"0.0-77.0\",\"\",\"\",\"2-4\",\"4638\",\"40\",\"1\",\"Training\",\"Stims/Figures/102-C-20-4.bmp\",\"ma:mala\",\"Up\",\"40\",\"5\",\"10\",\"4\",\"S\",\"C\",\"74\"
\"\",\"\",\"approach-retreat\",\"78\",\"629899\",\"0.0-78.0\",\"\",\"\",\"2-4\",\"4511\",\"37\",\"1\",\"Training\",\"Stims/Figures/85-J-0-2.bmp\",\"ta:ka:ka\",\"Left\",\"37\",\"5\",\"11\",\"4\",\"P\",\"C\",\"75\"
\"\",\"\",\"approach-retreat\",\"79\",\"635986\",\"0.0-79.0\",\"\",\"\",\"2-4\",\"4573\",\"39\",\"1\",\"Training\",\"Stims/Figures/44-C-30-3.bmp\",\"mamana\",\"Left\",\"39\",\"5\",\"12\",\"4\",\"S\",\"C\",\"76\"
\"\",\"\",\"approach-retreat\",\"80\",\"642563\",\"0.0-80.0\",\"\",\"\",\"2-4\",\"5064\",\"40\",\"1\",\"Training\",\"Stims/Figures/44-J-10-3.bmp\",\"tapa:ta\",\"Down\",\"40\",\"5\",\"13\",\"4\",\"P\",\"C\",\"77\"
\"\",\"\",\"approach-retreat\",\"81\",\"648510\",\"0.0-81.0\",\"\",\"\",\"2-4\",\"4434\",\"39\",\"1\",\"Training\",\"Stims/Figures/128-J-10-3.bmp\",\"papata\",\"Right\",\"39\",\"5\",\"14\",\"4\",\"P\",\"C\",\"78\"
\"\",\"\",\"approach-retreat\",\"82\",\"655184\",\"0.0-82.0\",\"\",\"\",\"2-4\",\"5159\",\"38\",\"1\",\"Training\",\"Stims/Figures/118-J-0-2.bmp\",\"ta:pa:ta\",\"Up\",\"38\",\"5\",\"15\",\"4\",\"P\",\"C\",\"79\"
\"\",\"\",\"approach-retreat\",\"83\",\"661919\",\"0.0-83.0\",\"\",\"\",\"2-4\",\"5221\",\"40\",\"1\",\"Training\",\"Stims/Figures/27-J-0-1.bmp\",\"tapaka\",\"Down\",\"40\",\"5\",\"16\",\"4\",\"P\",\"C\",\"80\"
\"\",\"\",\"approach-retreat\",\"84\",\"668618\",\"0.0-84.0\",\"\",\"\",\"2-4\",\"5180\",\"39\",\"1\",\"Training\",\"Stims/Figures/27-J-0-1.bmp\",\"tapaka\",\"Right\",\"39\",\"6\",\"1\",\"4\",\"P\",\"C\",\"81\"
\"\",\"\",\"approach-retreat\",\"85\",\"674548\",\"0.0-85.0\",\"\",\"\",\"2-4\",\"4413\",\"39\",\"1\",\"Training\",\"Stims/Figures/102-C-20-4.bmp\",\"ma:mala\",\"Left\",\"39\",\"6\",\"2\",\"4\",\"S\",\"C\",\"82\"
\"\",\"\",\"approach-retreat\",\"86\",\"680325\",\"0.0-86.0\",\"\",\"\",\"2-4\",\"4262\",\"39\",\"1\",\"Training\",\"Stims/Figures/87-J-10-4.bmp\",\"papa:ka\",\"Right\",\"39\",\"6\",\"3\",\"4\",\"P\",\"C\",\"83\"
\"\",\"\",\"approach-retreat\",\"87\",\"686479\",\"0.0-87.0\",\"\",\"\",\"2-4\",\"4632\",\"38\",\"1\",\"Training\",\"Stims/Figures/85-J-0-2.bmp\",\"ta:ka:ka\",\"Up\",\"38\",\"6\",\"4\",\"4\",\"P\",\"C\",\"84\"
\"\",\"\",\"approach-retreat\",\"88\",\"692771\",\"0.0-88.0\",\"\",\"\",\"2-4\",\"4778\",\"40\",\"1\",\"Training\",\"Stims/Figures/128-J-10-3.bmp\",\"papata\",\"Down\",\"40\",\"6\",\"5\",\"4\",\"P\",\"C\",\"85\"
\"\",\"\",\"approach-retreat\",\"89\",\"699411\",\"0.0-89.0\",\"\",\"\",\"2-4\",\"5127\",\"40\",\"1\",\"Training\",\"Stims/Figures/86-J-0-1.bmp\",\"taka:ta\",\"Down\",\"40\",\"6\",\"6\",\"4\",\"P\",\"C\",\"86\"
\"\",\"\",\"approach-retreat\",\"90\",\"706116\",\"0.0-90.0\",\"\",\"\",\"2-4\",\"5190\",\"39\",\"1\",\"Training\",\"Stims/Figures/85-C-20-2.bmp\",\"na:lala\",\"Left\",\"39\",\"6\",\"7\",\"4\",\"S\",\"C\",\"87\"
\"\",\"\",\"approach-retreat\",\"91\",\"712883\",\"0.0-91.0\",\"\",\"\",\"2-4\",\"5253\",\"37\",\"1\",\"Training\",\"Stims/Figures/27-C-30-1.bmp\",\"nalana\",\"Right\",\"37\",\"6\",\"8\",\"4\",\"S\",\"C\",\"88\"
\"\",\"\",\"approach-retreat\",\"92\",\"719116\",\"0.0-92.0\",\"\",\"\",\"2-4\",\"4719\",\"37\",\"1\",\"Training\",\"Stims/Figures/87-C-20-4.bmp\",\"na:mala\",\"Right\",\"37\",\"6\",\"9\",\"4\",\"S\",\"C\",\"89\"
\"\",\"\",\"approach-retreat\",\"93\",\"725063\",\"0.0-93.0\",\"\",\"\",\"2-4\",\"4433\",\"38\",\"1\",\"Training\",\"Stims/Figures/44-C-30-3.bmp\",\"mamana\",\"Down\",\"38\",\"6\",\"10\",\"4\",\"S\",\"C\",\"90\"
\"\",\"\",\"approach-retreat\",\"94\",\"731228\",\"0.0-94.0\",\"\",\"\",\"2-4\",\"4651\",\"37\",\"1\",\"Training\",\"Stims/Figures/102-J-10-4.bmp\",\"paka:ka\",\"Left\",\"37\",\"6\",\"11\",\"4\",\"P\",\"C\",\"91\"
\"\",\"\",\"approach-retreat\",\"95\",\"739530\",\"0.0-95.0\",\"\",\"\",\"2-4\",\"6787\",\"38\",\"1\",\"Training\",\"Stims/Figures/118-C-20-2.bmp\",\"ma:la:la\",\"Down\",\"38\",\"6\",\"12\",\"4\",\"S\",\"C\",\"92\"
\"\",\"\",\"approach-retreat\",\"96\",\"745797\",\"0.0-96.0\",\"\",\"\",\"2-4\",\"4752\",\"38\",\"1\",\"Training\",\"Stims/Figures/118-J-0-2.bmp\",\"ta:pa:ta\",\"Up\",\"38\",\"6\",\"13\",\"4\",\"P\",\"C\",\"93\"
\"\",\"\",\"approach-retreat\",\"97\",\"752052\",\"0.0-97.0\",\"\",\"\",\"2-4\",\"4738\",\"40\",\"1\",\"Training\",\"Stims/Figures/128-C-30-3.bmp\",\"namala\",\"Up\",\"40\",\"6\",\"14\",\"4\",\"S\",\"C\",\"94\"
\"\",\"\",\"approach-retreat\",\"98\",\"758513\",\"0.0-98.0\",\"\",\"\",\"2-4\",\"4946\",\"38\",\"1\",\"Training\",\"Stims/Figures/44-J-10-3.bmp\",\"tapa:ta\",\"Up\",\"38\",\"6\",\"15\",\"4\",\"P\",\"C\",\"95\"
\"\",\"\",\"approach-retreat\",\"99\",\"765402\",\"0.0-99.0\",\"\",\"\",\"2-4\",\"5372\",\"39\",\"1\",\"Training\",\"Stims/Figures/86-C-30-1.bmp\",\"ma:ma:la\",\"Left\",\"39\",\"6\",\"16\",\"4\",\"S\",\"C\",\"96\"
\"\",\"\",\"approach-retreat\",\"100\",\"771691\",\"0.0-100.0\",\"\",\"\",\"2-4\",\"4776\",\"37\",\"1\",\"Training\",\"Stims/Figures/44-C-30-3.bmp\",\"mamana\",\"Right\",\"37\",\"7\",\"1\",\"4\",\"S\",\"C\",\"97\"
\"\",\"\",\"approach-retreat\",\"101\",\"777808\",\"0.0-101.0\",\"\",\"\",\"2-4\",\"4603\",\"37\",\"1\",\"Training\",\"Stims/Figures/85-C-20-2.bmp\",\"na:lala\",\"Right\",\"37\",\"7\",\"2\",\"4\",\"S\",\"C\",\"98\"
\"\",\"\",\"approach-retreat\",\"102\",\"784219\",\"0.0-102.0\",\"\",\"\",\"2-4\",\"4896\",\"40\",\"1\",\"Training\",\"Stims/Figures/44-J-10-3.bmp\",\"tapa:ta\",\"Down\",\"40\",\"7\",\"3\",\"4\",\"P\",\"C\",\"99\"
\"\",\"\",\"approach-retreat\",\"103\",\"791280\",\"0.0-103.0\",\"\",\"\",\"2-4\",\"5546\",\"37\",\"1\",\"Training\",\"Stims/Figures/128-J-10-3.bmp\",\"papata\",\"Left\",\"37\",\"7\",\"4\",\"4\",\"P\",\"C\",\"100\"
\"\",\"\",\"approach-retreat\",\"104\",\"797261\",\"0.0-104.0\",\"\",\"\",\"2-4\",\"4467\",\"38\",\"1\",\"Training\",\"Stims/Figures/102-J-10-4.bmp\",\"paka:ka\",\"Up\",\"38\",\"7\",\"5\",\"4\",\"P\",\"C\",\"101\"
\"\",\"\",\"approach-retreat\",\"105\",\"803614\",\"0.0-105.0\",\"\",\"\",\"2-4\",\"4839\",\"39\",\"1\",\"Training\",\"Stims/Figures/87-C-20-4.bmp\",\"na:mala\",\"Left\",\"39\",\"7\",\"6\",\"4\",\"S\",\"C\",\"102\"
\"\",\"\",\"approach-retreat\",\"106\",\"810208\",\"0.0-106.0\",\"\",\"\",\"2-4\",\"5079\",\"40\",\"1\",\"Training\",\"Stims/Figures/85-J-0-2.bmp\",\"ta:ka:ka\",\"Down\",\"40\",\"7\",\"7\",\"4\",\"P\",\"C\",\"103\"
\"\",\"\",\"approach-retreat\",\"107\",\"816127\",\"0.0-107.0\",\"\",\"\",\"2-4\",\"4404\",\"38\",\"1\",\"Training\",\"Stims/Figures/27-J-0-1.bmp\",\"tapaka\",\"Up\",\"38\",\"7\",\"8\",\"4\",\"P\",\"C\",\"104\"
\"\",\"\",\"approach-retreat\",\"108\",\"823134\",\"0.0-108.0\",\"\",\"\",\"2-4\",\"5494\",\"39\",\"1\",\"Training\",\"Stims/Figures/118-J-0-2.bmp\",\"ta:pa:ta\",\"Right\",\"39\",\"7\",\"9\",\"4\",\"P\",\"C\",\"105\"
\"\",\"\",\"approach-retreat\",\"109\",\"829347\",\"0.0-109.0\",\"\",\"\",\"2-4\",\"4699\",\"40\",\"1\",\"Training\",\"Stims/Figures/87-J-10-4.bmp\",\"papa:ka\",\"Down\",\"40\",\"7\",\"10\",\"4\",\"P\",\"C\",\"106\"
\"\",\"\",\"approach-retreat\",\"110\",\"835936\",\"0.0-110.0\",\"\",\"\",\"2-4\",\"5007\",\"39\",\"1\",\"Training\",\"Stims/Figures/86-C-30-1.bmp\",\"ma:ma:la\",\"Left\",\"39\",\"7\",\"11\",\"4\",\"S\",\"C\",\"107\"
\"\",\"\",\"approach-retreat\",\"111\",\"843054\",\"0.0-111.0\",\"\",\"\",\"2-4\",\"5602\",\"37\",\"1\",\"Training\",\"Stims/Figures/118-C-20-2.bmp\",\"ma:la:la\",\"Right\",\"37\",\"7\",\"12\",\"4\",\"S\",\"C\",\"108\"
\"\",\"\",\"approach-retreat\",\"112\",\"848965\",\"0.0-112.0\",\"\",\"\",\"2-4\",\"4394\",\"38\",\"1\",\"Training\",\"Stims/Figures/102-C-20-4.bmp\",\"ma:mala\",\"Down\",\"38\",\"7\",\"13\",\"4\",\"S\",\"C\",\"109\"
\"\",\"\",\"approach-retreat\",\"113\",\"855188\",\"0.0-113.0\",\"\",\"\",\"2-4\",\"4709\",\"40\",\"1\",\"Training\",\"Stims/Figures/128-C-30-3.bmp\",\"namala\",\"Up\",\"40\",\"7\",\"14\",\"4\",\"S\",\"C\",\"110\"
\"\",\"\",\"approach-retreat\",\"114\",\"860941\",\"0.0-114.0\",\"\",\"\",\"2-4\",\"4239\",\"40\",\"1\",\"Training\",\"Stims/Figures/27-C-30-1.bmp\",\"nalana\",\"Up\",\"40\",\"7\",\"15\",\"4\",\"S\",\"C\",\"111\"
\"\",\"\",\"approach-retreat\",\"115\",\"867951\",\"0.0-115.0\",\"\",\"\",\"2-4\",\"5496\",\"37\",\"1\",\"Training\",\"Stims/Figures/86-J-0-1.bmp\",\"taka:ta\",\"Left\",\"37\",\"7\",\"16\",\"4\",\"P\",\"C\",\"112\"
\"\",\"\",\"approach-retreat\",\"116\",\"874085\",\"0.0-116.0\",\"\",\"\",\"2-4\",\"4617\",\"37\",\"1\",\"Training\",\"Stims/Figures/85-C-20-2.bmp\",\"na:lala\",\"Right\",\"37\",\"8\",\"1\",\"4\",\"S\",\"C\",\"113\"
\"\",\"\",\"approach-retreat\",\"117\",\"880048\",\"0.0-117.0\",\"\",\"\",\"2-4\",\"4446\",\"40\",\"1\",\"Training\",\"Stims/Figures/27-J-0-1.bmp\",\"tapaka\",\"Down\",\"40\",\"8\",\"2\",\"4\",\"P\",\"C\",\"114\"
\"\",\"\",\"approach-retreat\",\"118\",\"886626\",\"0.0-118.0\",\"\",\"\",\"2-4\",\"5063\",\"37\",\"1\",\"Training\",\"Stims/Figures/85-J-0-2.bmp\",\"ta:ka:ka\",\"Left\",\"37\",\"8\",\"3\",\"4\",\"P\",\"C\",\"115\"
\"\",\"\",\"approach-retreat\",\"119\",\"892848\",\"0.0-119.0\",\"\",\"\",\"2-4\",\"4706\",\"40\",\"1\",\"Training\",\"Stims/Figures/27-C-30-1.bmp\",\"nalana\",\"Up\",\"40\",\"8\",\"4\",\"4\",\"S\",\"C\",\"116\"
\"\",\"\",\"approach-retreat\",\"120\",\"899070\",\"0.0-120.0\",\"\",\"\",\"2-4\",\"4708\",\"40\",\"1\",\"Training\",\"Stims/Figures/86-J-0-1.bmp\",\"taka:ta\",\"Down\",\"40\",\"8\",\"5\",\"4\",\"P\",\"C\",\"117\"
\"\",\"\",\"approach-retreat\",\"121\",\"905263\",\"0.0-121.0\",\"\",\"\",\"2-4\",\"4678\",\"38\",\"1\",\"Training\",\"Stims/Figures/128-C-30-3.bmp\",\"namala\",\"Down\",\"38\",\"8\",\"6\",\"4\",\"S\",\"C\",\"118\"
\"\",\"\",\"approach-retreat\",\"122\",\"911319\",\"0.0-122.0\",\"\",\"\",\"2-4\",\"4543\",\"40\",\"1\",\"Training\",\"Stims/Figures/87-J-10-4.bmp\",\"papa:ka\",\"Down\",\"40\",\"8\",\"7\",\"4\",\"P\",\"C\",\"119\"
\"\",\"\",\"approach-retreat\",\"123\",\"917286\",\"0.0-123.0\",\"\",\"\",\"2-4\",\"4452\",\"37\",\"1\",\"Training\",\"Stims/Figures/44-J-10-3.bmp\",\"tapa:ta\",\"Left\",\"37\",\"8\",\"8\",\"4\",\"P\",\"C\",\"120\"
\"\",\"\",\"approach-retreat\",\"124\",\"923360\",\"0.0-124.0\",\"\",\"\",\"2-4\",\"4561\",\"40\",\"1\",\"Training\",\"Stims/Figures/44-C-30-3.bmp\",\"mamana\",\"Up\",\"40\",\"8\",\"9\",\"4\",\"S\",\"C\",\"121\"
\"\",\"\",\"approach-retreat\",\"125\",\"929467\",\"0.0-125.0\",\"\",\"\",\"2-4\",\"4582\",\"39\",\"1\",\"Training\",\"Stims/Figures/87-C-20-4.bmp\",\"na:mala\",\"Left\",\"39\",\"8\",\"10\",\"4\",\"S\",\"C\",\"122\"
\"\",\"\",\"approach-retreat\",\"126\",\"935400\",\"0.0-126.0\",\"\",\"\",\"2-4\",\"4418\",\"40\",\"1\",\"Training\",\"Stims/Figures/86-C-30-1.bmp\",\"ma:ma:la\",\"Up\",\"40\",\"8\",\"11\",\"4\",\"S\",\"C\",\"123\"
\"\",\"\",\"approach-retreat\",\"127\",\"941535\",\"0.0-127.0\",\"\",\"\",\"2-4\",\"4621\",\"37\",\"1\",\"Training\",\"Stims/Figures/118-C-20-2.bmp\",\"ma:la:la\",\"Right\",\"37\",\"8\",\"12\",\"4\",\"S\",\"C\",\"124\"
\"\",\"\",\"approach-retreat\",\"128\",\"947736\",\"0.0-128.0\",\"\",\"\",\"2-4\",\"4688\",\"38\",\"1\",\"Training\",\"Stims/Figures/102-J-10-4.bmp\",\"paka:ka\",\"Up\",\"38\",\"8\",\"13\",\"4\",\"P\",\"C\",\"125\"
\"\",\"\",\"approach-retreat\",\"129\",\"954319\",\"0.0-129.0\",\"\",\"\",\"2-4\",\"5069\",\"39\",\"1\",\"Training\",\"Stims/Figures/128-J-10-3.bmp\",\"papata\",\"Right\",\"39\",\"8\",\"14\",\"4\",\"P\",\"C\",\"126\"
\"\",\"\",\"approach-retreat\",\"130\",\"960243\",\"0.0-130.0\",\"\",\"\",\"2-4\",\"4410\",\"39\",\"1\",\"Training\",\"Stims/Figures/102-C-20-4.bmp\",\"ma:mala\",\"Left\",\"39\",\"8\",\"15\",\"4\",\"S\",\"C\",\"127\"
\"\",\"\",\"approach-retreat\",\"131\",\"966509\",\"0.0-131.0\",\"\",\"\",\"2-4\",\"4749\",\"39\",\"1\",\"Training\",\"Stims/Figures/118-J-0-2.bmp\",\"ta:pa:ta\",\"Right\",\"39\",\"8\",\"16\",\"4\",\"P\",\"C\",\"128\"
\"\",\"\",\"approach-retreat\",\"132\",\"972086\",\"0.0-132.0\",\"\",\"\",\"2-4\",\"4057\",\"37\",\"1\",\"Training\",\"Stims/Figures/118-C-20-2.bmp\",\"ma:la:la\",\"Right\",\"37\",\"9\",\"1\",\"4\",\"S\",\"C\",\"129\"
\"\",\"\",\"approach-retreat\",\"133\",\"978139\",\"0.0-133.0\",\"\",\"\",\"2-4\",\"4538\",\"37\",\"1\",\"Training\",\"Stims/Figures/87-J-10-4.bmp\",\"papa:ka\",\"Left\",\"37\",\"9\",\"2\",\"4\",\"P\",\"C\",\"130\"
\"\",\"\",\"approach-retreat\",\"134\",\"984304\",\"0.0-134.0\",\"\",\"\",\"2-4\",\"4651\",\"39\",\"1\",\"Training\",\"Stims/Figures/44-C-30-3.bmp\",\"mamana\",\"Left\",\"39\",\"9\",\"3\",\"4\",\"S\",\"C\",\"131\"
\"\",\"\",\"approach-retreat\",\"135\",\"990501\",\"0.0-135.0\",\"\",\"\",\"2-4\",\"4678\",\"40\",\"1\",\"Training\",\"Stims/Figures/85-J-0-2.bmp\",\"ta:ka:ka\",\"Down\",\"40\",\"9\",\"4\",\"4\",\"P\",\"C\",\"132\"
\"\",\"\",\"approach-retreat\",\"136\",\"996505\",\"0.0-136.0\",\"\",\"\",\"2-4\",\"4489\",\"37\",\"1\",\"Training\",\"Stims/Figures/87-C-20-4.bmp\",\"na:mala\",\"Right\",\"37\",\"9\",\"5\",\"4\",\"S\",\"C\",\"133\"
\"\",\"\",\"approach-retreat\",\"137\",\"1003159\",\"0.0-137.0\",\"\",\"\",\"2-4\",\"5141\",\"38\",\"1\",\"Training\",\"Stims/Figures/27-J-0-1.bmp\",\"tapaka\",\"Up\",\"38\",\"9\",\"6\",\"4\",\"P\",\"C\",\"134\"
\"\",\"\",\"approach-retreat\",\"138\",\"1009338\",\"0.0-138.0\",\"\",\"\",\"2-4\",\"4665\",\"38\",\"1\",\"Training\",\"Stims/Figures/102-J-10-4.bmp\",\"paka:ka\",\"Up\",\"38\",\"9\",\"7\",\"4\",\"P\",\"C\",\"135\"
\"\",\"\",\"approach-retreat\",\"139\",\"1015322\",\"0.0-139.0\",\"\",\"\",\"2-4\",\"4468\",\"39\",\"1\",\"Training\",\"Stims/Figures/86-J-0-1.bmp\",\"taka:ta\",\"Right\",\"39\",\"9\",\"8\",\"4\",\"P\",\"C\",\"136\"
\"\",\"\",\"approach-retreat\",\"140\",\"1021094\",\"0.0-140.0\",\"\",\"\",\"2-4\",\"4257\",\"39\",\"1\",\"Training\",\"Stims/Figures/102-C-20-4.bmp\",\"ma:mala\",\"Left\",\"39\",\"9\",\"9\",\"4\",\"S\",\"C\",\"137\"
\"\",\"\",\"approach-retreat\",\"141\",\"1027250\",\"0.0-141.0\",\"\",\"\",\"2-4\",\"4641\",\"38\",\"1\",\"Training\",\"Stims/Figures/118-J-0-2.bmp\",\"ta:pa:ta\",\"Up\",\"38\",\"9\",\"10\",\"4\",\"P\",\"C\",\"138\"
\"\",\"\",\"approach-retreat\",\"142\",\"1032986\",\"0.0-142.0\",\"\",\"\",\"2-4\",\"4221\",\"37\",\"1\",\"Training\",\"Stims/Figures/85-C-20-2.bmp\",\"na:lala\",\"Right\",\"37\",\"9\",\"11\",\"4\",\"S\",\"C\",\"139\"
\"\",\"\",\"approach-retreat\",\"143\",\"1039714\",\"0.0-143.0\",\"\",\"\",\"2-4\",\"5214\",\"40\",\"1\",\"Training\",\"Stims/Figures/44-J-10-3.bmp\",\"tapa:ta\",\"Down\",\"40\",\"9\",\"12\",\"4\",\"P\",\"C\",\"140\"
\"\",\"\",\"approach-retreat\",\"144\",\"1045486\",\"0.0-144.0\",\"\",\"\",\"2-4\",\"4257\",\"39\",\"1\",\"Training\",\"Stims/Figures/86-C-30-1.bmp\",\"ma:ma:la\",\"Left\",\"39\",\"9\",\"13\",\"4\",\"S\",\"C\",\"141\"
\"\",\"\",\"approach-retreat\",\"145\",\"1051657\",\"0.0-145.0\",\"\",\"\",\"2-4\",\"4657\",\"38\",\"1\",\"Training\",\"Stims/Figures/27-C-30-1.bmp\",\"nalana\",\"Down\",\"38\",\"9\",\"14\",\"4\",\"S\",\"C\",\"142\"
\"\",\"\",\"approach-retreat\",\"146\",\"1057417\",\"0.0-146.0\",\"\",\"\",\"2-4\",\"4245\",\"38\",\"1\",\"Training\",\"Stims/Figures/128-C-30-3.bmp\",\"namala\",\"Down\",\"38\",\"9\",\"15\",\"4\",\"S\",\"C\",\"143\"
\"\",\"\",\"approach-retreat\",\"147\",\"1063238\",\"0.0-147.0\",\"\",\"\",\"2-4\",\"4307\",\"38\",\"1\",\"Training\",\"Stims/Figures/128-J-10-3.bmp\",\"papata\",\"Up\",\"38\",\"9\",\"16\",\"4\",\"P\",\"C\",\"144\"
\"12988\",\"\",\"instructions\",\"148\",\"1076227\",\"0.0-148.0\",\"[{\"\"page_index\"\":0,\"\"viewing_time\"\":12985}]\",\"\",\"\",\"\",\"\",\"\",\"\",\"\",\"\",\"\",\"\",\"\",\"\",\"\",\"\",\"\",\"\"
\"\",\"\",\"approach-retreat\",\"149\",\"1082983\",\"0.0-149.0\",\"\",\"\",\"2-4\",\"5244\",\"38\",\"1\",\"Testing\",\"Stims/Figures/128-C-30-3.bmp\",\"namala\",\"Down\",\"38\",\"1\",\"1\",\"4\",\"S\",\"C\",\"1\"
\"\",\"\",\"approach-retreat\",\"150\",\"1090292\",\"0.0-150.0\",\"\",\"\",\"2-4\",\"5797\",\"38\",\"1\",\"Testing\",\"Stims/Figures/94-J-0-2.bmp\",\"pa:pata\",\"Up\",\"38\",\"1\",\"2\",\"4\",\"P\",\"C\",\"2\"
\"\",\"\",\"approach-retreat\",\"151\",\"1097715\",\"0.0-151.0\",\"\",\"\",\"2-4\",\"5912\",\"38\",\"1\",\"Testing\",\"Stims/Figures/86-J-0-1.bmp\",\"taka:ta\",\"Up\",\"38\",\"1\",\"3\",\"4\",\"P\",\"C\",\"3\"
\"\",\"\",\"approach-retreat\",\"152\",\"1104255\",\"0.0-152.0\",\"\",\"\",\"2-4\",\"5029\",\"38\",\"1\",\"Testing\",\"Stims/Figures/7-J-10-4.bmp\",\"ta:paka\",\"Up\",\"38\",\"1\",\"4\",\"4\",\"P\",\"C\",\"4\"
\"\",\"\",\"approach-retreat\",\"153\",\"1110588\",\"0.0-153.0\",\"\",\"\",\"2-4\",\"4822\",\"40\",\"1\",\"Testing\",\"Stims/Figures/86-C-30-1.bmp\",\"ma:ma:la\",\"Up\",\"40\",\"1\",\"5\",\"4\",\"S\",\"C\",\"5\"
\"\",\"\",\"approach-retreat\",\"154\",\"1116955\",\"0.0-154.0\",\"\",\"\",\"2-4\",\"4856\",\"37\",\"1\",\"Testing\",\"Stims/Figures/118-C-20-2.bmp\",\"ma:la:la\",\"Right\",\"37\",\"1\",\"6\",\"4\",\"S\",\"C\",\"6\"
\"\",\"\",\"approach-retreat\",\"155\",\"1123638\",\"0.0-155.0\",\"\",\"\",\"2-4\",\"5171\",\"40\",\"1\",\"Testing\",\"Stims/Figures/102-J-10-4.bmp\",\"paka:ka\",\"Down\",\"40\",\"1\",\"7\",\"4\",\"P\",\"C\",\"7\"
\"\",\"\",\"approach-retreat\",\"156\",\"1132550\",\"0.0-156.0\",\"\",\"\",\"2-4\",\"7401\",\"39\",\"1\",\"Testing\",\"Stims/Figures/102-C-20-4.bmp\",\"ma:mala\",\"Left\",\"39\",\"1\",\"8\",\"4\",\"S\",\"C\",\"8\"
\"\",\"\",\"approach-retreat\",\"157\",\"1138654\",\"0.0-157.0\",\"\",\"\",\"2-4\",\"4593\",\"37\",\"1\",\"Testing\",\"Stims/Figures/85-C-20-2.bmp\",\"na:lala\",\"Right\",\"37\",\"1\",\"9\",\"4\",\"S\",\"C\",\"9\"
\"\",\"\",\"approach-retreat\",\"158\",\"1145204\",\"0.0-158.0\",\"\",\"\",\"2-4\",\"5039\",\"38\",\"1\",\"Testing\",\"Stims/Figures/128-J-10-3.bmp\",\"papata\",\"Up\",\"38\",\"1\",\"10\",\"4\",\"P\",\"C\",\"10\"
\"\",\"\",\"approach-retreat\",\"159\",\"1151166\",\"0.0-159.0\",\"\",\"\",\"2-4\",\"4447\",\"37\",\"1\",\"Testing\",\"Stims/Figures/94-C-20-2.bmp\",\"ma:ma:na\",\"Right\",\"37\",\"1\",\"11\",\"4\",\"S\",\"C\",\"11\"
\"\",\"\",\"approach-retreat\",\"160\",\"1157341\",\"0.0-160.0\",\"\",\"\",\"2-4\",\"4661\",\"37\",\"1\",\"Testing\",\"Stims/Figures/27-C-30-1.bmp\",\"nalana\",\"Right\",\"37\",\"1\",\"12\",\"4\",\"S\",\"C\",\"12\"
\"\",\"\",\"approach-retreat\",\"161\",\"1163814\",\"0.0-161.0\",\"\",\"\",\"2-4\",\"4963\",\"39\",\"1\",\"Testing\",\"Stims/Figures/44-C-30-3.bmp\",\"mamana\",\"Left\",\"39\",\"1\",\"13\",\"4\",\"S\",\"C\",\"13\"
\"\",\"\",\"approach-retreat\",\"162\",\"1170630\",\"0.0-162.0\",\"\",\"\",\"2-4\",\"5303\",\"40\",\"1\",\"Testing\",\"Stims/Figures/27-J-0-1.bmp\",\"tapaka\",\"Down\",\"40\",\"1\",\"14\",\"4\",\"P\",\"C\",\"14\"
\"\",\"\",\"approach-retreat\",\"163\",\"1177427\",\"0.0-163.0\",\"\",\"\",\"2-4\",\"5074\",\"40\",\"1\",\"Testing\",\"Stims/Figures/144-J-10-3.bmp\",\"takaka\",\"Down\",\"40\",\"1\",\"15\",\"4\",\"P\",\"C\",\"15\"
\"\",\"\",\"approach-retreat\",\"164\",\"1183440\",\"0.0-164.0\",\"\",\"\",\"2-4\",\"4499\",\"40\",\"1\",\"Testing\",\"Stims/Figures/44-J-10-3.bmp\",\"tapa:ta\",\"Down\",\"40\",\"1\",\"16\",\"4\",\"P\",\"C\",\"16\"
\"\",\"\",\"approach-retreat\",\"165\",\"1190580\",\"0.0-165.0\",\"\",\"\",\"2-4\",\"5629\",\"38\",\"1\",\"Testing\",\"Stims/Figures/87-J-10-4.bmp\",\"papa:ka\",\"Up\",\"38\",\"1\",\"17\",\"4\",\"P\",\"C\",\"17\"
\"\",\"\",\"approach-retreat\",\"166\",\"1196842\",\"0.0-166.0\",\"\",\"\",\"2-4\",\"4750\",\"38\",\"1\",\"Testing\",\"Stims/Figures/87-C-20-4.bmp\",\"na:mala\",\"Down\",\"38\",\"1\",\"18\",\"4\",\"S\",\"C\",\"18\"
\"\",\"\",\"approach-retreat\",\"167\",\"1203262\",\"0.0-167.0\",\"\",\"\",\"2-4\",\"4909\",\"39\",\"1\",\"Testing\",\"Stims/Figures/118-J-0-2.bmp\",\"ta:pa:ta\",\"Right\",\"39\",\"1\",\"19\",\"4\",\"P\",\"C\",\"19\"
\"\",\"\",\"approach-retreat\",\"168\",\"1210117\",\"0.0-168.0\",\"\",\"\",\"2-4\",\"5344\",\"37\",\"1\",\"Testing\",\"Stims/Figures/71-J-0-1.bmp\",\"tapa:ka\",\"Left\",\"37\",\"1\",\"20\",\"4\",\"P\",\"C\",\"20\"
\"\",\"\",\"approach-retreat\",\"169\",\"1216339\",\"0.0-169.0\",\"\",\"\",\"2-4\",\"4710\",\"39\",\"1\",\"Testing\",\"Stims/Figures/7-C-20-4.bmp\",\"mama:la\",\"Left\",\"39\",\"1\",\"21\",\"4\",\"S\",\"C\",\"21\"
\"\",\"\",\"approach-retreat\",\"170\",\"1222486\",\"0.0-170.0\",\"\",\"\",\"2-4\",\"4636\",\"37\",\"1\",\"Testing\",\"Stims/Figures/144-C-30-3.bmp\",\"nama:la\",\"Right\",\"37\",\"1\",\"22\",\"4\",\"S\",\"C\",\"22\"
\"\",\"\",\"approach-retreat\",\"171\",\"1228832\",\"0.0-171.0\",\"\",\"\",\"2-4\",\"4836\",\"37\",\"1\",\"Testing\",\"Stims/Figures/85-J-0-2.bmp\",\"ta:ka:ka\",\"Left\",\"37\",\"1\",\"23\",\"4\",\"P\",\"C\",\"23\"
\"\",\"\",\"approach-retreat\",\"172\",\"1235168\",\"0.0-172.0\",\"\",\"\",\"2-4\",\"4824\",\"39\",\"1\",\"Testing\",\"Stims/Figures/71-C-30-1.bmp\",\"mama:na\",\"Left\",\"39\",\"1\",\"24\",\"4\",\"S\",\"C\",\"24\"
\"\",\"\",\"approach-retreat\",\"173\",\"1241488\",\"0.0-173.0\",\"\",\"\",\"2-4\",\"4808\",\"40\",\"1\",\"Testing\",\"Stims/Figures/87-J-10-4.bmp\",\"papa:ka\",\"Down\",\"40\",\"2\",\"1\",\"4\",\"P\",\"C\",\"25\"
\"\",\"\",\"approach-retreat\",\"174\",\"1247601\",\"0.0-174.0\",\"\",\"\",\"2-4\",\"4600\",\"37\",\"1\",\"Testing\",\"Stims/Figures/27-C-30-1.bmp\",\"nalana\",\"Right\",\"37\",\"2\",\"2\",\"4\",\"S\",\"C\",\"26\"
\"\",\"\",\"approach-retreat\",\"175\",\"1253680\",\"0.0-175.0\",\"\",\"\",\"2-4\",\"4568\",\"40\",\"1\",\"Testing\",\"Stims/Figures/85-C-20-2.bmp\",\"na:lala\",\"Up\",\"40\",\"2\",\"3\",\"4\",\"S\",\"C\",\"27\"
\"\",\"\",\"approach-retreat\",\"176\",\"1260561\",\"0.0-176.0\",\"\",\"\",\"2-4\",\"5370\",\"37\",\"1\",\"Testing\",\"Stims/Figures/44-J-10-3.bmp\",\"tapa:ta\",\"Left\",\"37\",\"2\",\"4\",\"4\",\"P\",\"C\",\"28\"
\"\",\"\",\"approach-retreat\",\"177\",\"1267979\",\"0.0-177.0\",\"\",\"\",\"2-4\",\"5907\",\"40\",\"1\",\"Testing\",\"Stims/Figures/86-C-30-1.bmp\",\"ma:ma:la\",\"Up\",\"40\",\"2\",\"5\",\"4\",\"S\",\"C\",\"29\"
\"\",\"\",\"approach-retreat\",\"178\",\"1274064\",\"0.0-178.0\",\"\",\"\",\"2-4\",\"4574\",\"39\",\"1\",\"Testing\",\"Stims/Figures/102-C-20-4.bmp\",\"ma:mala\",\"Left\",\"39\",\"2\",\"6\",\"4\",\"S\",\"C\",\"30\"
\"\",\"\",\"approach-retreat\",\"179\",\"1280950\",\"0.0-179.0\",\"\",\"\",\"2-4\",\"5374\",\"39\",\"1\",\"Testing\",\"Stims/Figures/102-J-10-4.bmp\",\"paka:ka\",\"Right\",\"39\",\"2\",\"7\",\"4\",\"P\",\"C\",\"31\"
\"\",\"\",\"approach-retreat\",\"180\",\"1287019\",\"0.0-180.0\",\"\",\"\",\"2-4\",\"4557\",\"37\",\"0\",\"Testing\",\"Stims/Figures/118-C-20-2.bmp\",\"ma:la:la\",\"Left\",\"39\",\"2\",\"8\",\"4\",\"S\",\"C\",\"32\"
\"\",\"\",\"approach-retreat\",\"181\",\"1293301\",\"0.0-181.0\",\"\",\"\",\"2-4\",\"4770\",\"37\",\"1\",\"Testing\",\"Stims/Figures/128-J-10-3.bmp\",\"papata\",\"Left\",\"37\",\"2\",\"9\",\"4\",\"P\",\"C\",\"33\"
\"\",\"\",\"approach-retreat\",\"182\",\"1299616\",\"0.0-182.0\",\"\",\"\",\"2-4\",\"4804\",\"37\",\"1\",\"Testing\",\"Stims/Figures/144-C-30-3.bmp\",\"nama:la\",\"Right\",\"37\",\"2\",\"10\",\"4\",\"S\",\"C\",\"34\"
\"\",\"\",\"approach-retreat\",\"183\",\"1306401\",\"0.0-183.0\",\"\",\"\",\"2-4\",\"5274\",\"40\",\"1\",\"Testing\",\"Stims/Figures/71-J-0-1.bmp\",\"tapa:ka\",\"Down\",\"40\",\"2\",\"11\",\"4\",\"P\",\"C\",\"35\"
\"\",\"\",\"approach-retreat\",\"184\",\"1313157\",\"0.0-184.0\",\"\",\"\",\"2-4\",\"5245\",\"40\",\"1\",\"Testing\",\"Stims/Figures/7-C-20-4.bmp\",\"mama:la\",\"Up\",\"40\",\"2\",\"12\",\"4\",\"S\",\"C\",\"36\"
\"\",\"\",\"approach-retreat\",\"185\",\"1319121\",\"0.0-185.0\",\"\",\"\",\"2-4\",\"4453\",\"37\",\"1\",\"Testing\",\"Stims/Figures/44-C-30-3.bmp\",\"mamana\",\"Right\",\"37\",\"2\",\"13\",\"4\",\"S\",\"C\",\"37\"
\"\",\"\",\"approach-retreat\",\"186\",\"1325464\",\"0.0-186.0\",\"\",\"\",\"2-4\",\"4831\",\"40\",\"1\",\"Testing\",\"Stims/Figures/118-J-0-2.bmp\",\"ta:pa:ta\",\"Down\",\"40\",\"2\",\"14\",\"4\",\"P\",\"C\",\"38\"
\"\",\"\",\"approach-retreat\",\"187\",\"1331678\",\"0.0-187.0\",\"\",\"\",\"2-4\",\"4703\",\"38\",\"1\",\"Testing\",\"Stims/Figures/87-C-20-4.bmp\",\"na:mala\",\"Down\",\"38\",\"2\",\"15\",\"4\",\"S\",\"C\",\"39\"
\"\",\"\",\"approach-retreat\",\"188\",\"1337839\",\"0.0-188.0\",\"\",\"\",\"2-4\",\"4651\",\"38\",\"1\",\"Testing\",\"Stims/Figures/144-J-10-3.bmp\",\"takaka\",\"Up\",\"38\",\"2\",\"16\",\"4\",\"P\",\"C\",\"40\"
\"\",\"\",\"approach-retreat\",\"189\",\"1343744\",\"0.0-189.0\",\"\",\"\",\"2-4\",\"4394\",\"37\",\"1\",\"Testing\",\"Stims/Figures/128-C-30-3.bmp\",\"namala\",\"Right\",\"37\",\"2\",\"17\",\"4\",\"S\",\"C\",\"41\"
\"\",\"\",\"approach-retreat\",\"190\",\"1349871\",\"0.0-190.0\",\"\",\"\",\"2-4\",\"4616\",\"39\",\"1\",\"Testing\",\"Stims/Figures/94-J-0-2.bmp\",\"pa:pata\",\"Right\",\"39\",\"2\",\"18\",\"4\",\"P\",\"C\",\"42\"
\"\",\"\",\"approach-retreat\",\"191\",\"1355783\",\"0.0-191.0\",\"\",\"\",\"2-4\",\"4401\",\"37\",\"1\",\"Testing\",\"Stims/Figures/7-J-10-4.bmp\",\"ta:paka\",\"Left\",\"37\",\"2\",\"19\",\"4\",\"P\",\"C\",\"43\"
\"\",\"\",\"approach-retreat\",\"192\",\"1363108\",\"0.0-192.0\",\"\",\"\",\"2-4\",\"5813\",\"38\",\"0\",\"Testing\",\"Stims/Figures/94-C-20-2.bmp\",\"ma:ma:na\",\"Up\",\"40\",\"2\",\"20\",\"4\",\"S\",\"C\",\"44\"
\"\",\"\",\"approach-retreat\",\"193\",\"1368981\",\"0.0-193.0\",\"\",\"\",\"2-4\",\"4363\",\"37\",\"1\",\"Testing\",\"Stims/Figures/85-J-0-2.bmp\",\"ta:ka:ka\",\"Left\",\"37\",\"2\",\"21\",\"4\",\"P\",\"C\",\"45\"
\"\",\"\",\"approach-retreat\",\"194\",\"1375136\",\"0.0-194.0\",\"\",\"\",\"2-4\",\"4643\",\"40\",\"1\",\"Testing\",\"Stims/Figures/27-J-0-1.bmp\",\"tapaka\",\"Down\",\"40\",\"2\",\"22\",\"4\",\"P\",\"C\",\"46\"
\"\",\"\",\"approach-retreat\",\"195\",\"1381041\",\"0.0-195.0\",\"\",\"\",\"2-4\",\"4394\",\"38\",\"1\",\"Testing\",\"Stims/Figures/71-C-30-1.bmp\",\"mama:na\",\"Down\",\"38\",\"2\",\"23\",\"4\",\"S\",\"C\",\"47\"
\"\",\"\",\"approach-retreat\",\"196\",\"1387531\",\"0.0-196.0\",\"\",\"\",\"2-4\",\"4978\",\"38\",\"1\",\"Testing\",\"Stims/Figures/86-J-0-1.bmp\",\"taka:ta\",\"Up\",\"38\",\"2\",\"24\",\"4\",\"P\",\"C\",\"48\"
\"\",\"\",\"approach-retreat\",\"197\",\"1393458\",\"0.0-197.0\",\"\",\"\",\"2-4\",\"4414\",\"40\",\"1\",\"Testing\",\"Stims/Figures/144-C-30-3.bmp\",\"nama:la\",\"Up\",\"40\",\"3\",\"1\",\"4\",\"S\",\"C\",\"49\"
\"\",\"\",\"approach-retreat\",\"198\",\"1399530\",\"0.0-198.0\",\"\",\"\",\"2-4\",\"4560\",\"37\",\"1\",\"Testing\",\"Stims/Figures/86-J-0-1.bmp\",\"taka:ta\",\"Left\",\"37\",\"3\",\"2\",\"4\",\"P\",\"C\",\"50\"
\"\",\"\",\"approach-retreat\",\"199\",\"1405560\",\"0.0-199.0\",\"\",\"\",\"2-4\",\"4518\",\"38\",\"1\",\"Testing\",\"Stims/Figures/7-C-20-4.bmp\",\"mama:la\",\"Down\",\"38\",\"3\",\"3\",\"4\",\"S\",\"C\",\"51\"
\"\",\"\",\"approach-retreat\",\"200\",\"1411550\",\"0.0-200.0\",\"\",\"\",\"2-4\",\"4478\",\"38\",\"1\",\"Testing\",\"Stims/Figures/44-J-10-3.bmp\",\"tapa:ta\",\"Up\",\"38\",\"3\",\"4\",\"4\",\"P\",\"C\",\"52\"
\"\",\"\",\"approach-retreat\",\"201\",\"1417734\",\"0.0-201.0\",\"\",\"\",\"2-4\",\"4672\",\"38\",\"1\",\"Testing\",\"Stims/Figures/85-J-0-2.bmp\",\"ta:ka:ka\",\"Up\",\"38\",\"3\",\"5\",\"4\",\"P\",\"C\",\"53\"
\"\",\"\",\"approach-retreat\",\"202\",\"1424454\",\"0.0-202.0\",\"\",\"\",\"2-4\",\"5210\",\"37\",\"1\",\"Testing\",\"Stims/Figures/128-C-30-3.bmp\",\"namala\",\"Right\",\"37\",\"3\",\"6\",\"4\",\"S\",\"C\",\"54\"
\"\",\"\",\"approach-retreat\",\"203\",\"1430624\",\"0.0-203.0\",\"\",\"\",\"2-4\",\"4658\",\"37\",\"1\",\"Testing\",\"Stims/Figures/27-J-0-1.bmp\",\"tapaka\",\"Left\",\"37\",\"3\",\"7\",\"4\",\"P\",\"C\",\"55\"
\"\",\"\",\"approach-retreat\",\"204\",\"1436816\",\"0.0-204.0\",\"\",\"\",\"2-4\",\"4680\",\"38\",\"1\",\"Testing\",\"Stims/Figures/118-C-20-2.bmp\",\"ma:la:la\",\"Down\",\"38\",\"3\",\"8\",\"4\",\"S\",\"C\",\"56\"
\"\",\"\",\"approach-retreat\",\"205\",\"1442790\",\"0.0-205.0\",\"\",\"\",\"2-4\",\"4463\",\"37\",\"1\",\"Testing\",\"Stims/Figures/128-J-10-3.bmp\",\"papata\",\"Left\",\"37\",\"3\",\"9\",\"4\",\"P\",\"C\",\"57\"
\"\",\"\",\"approach-retreat\",\"206\",\"1449011\",\"0.0-206.0\",\"\",\"\",\"2-4\",\"4709\",\"40\",\"1\",\"Testing\",\"Stims/Figures/102-J-10-4.bmp\",\"paka:ka\",\"Down\",\"40\",\"3\",\"10\",\"4\",\"P\",\"C\",\"58\"
\"\",\"\",\"approach-retreat\",\"207\",\"1455219\",\"0.0-207.0\",\"\",\"\",\"2-4\",\"4696\",\"39\",\"1\",\"Testing\",\"Stims/Figures/94-J-0-2.bmp\",\"pa:pata\",\"Right\",\"39\",\"3\",\"11\",\"4\",\"P\",\"C\",\"59\"
\"\",\"\",\"approach-retreat\",\"208\",\"1461159\",\"0.0-208.0\",\"\",\"\",\"2-4\",\"4429\",\"40\",\"1\",\"Testing\",\"Stims/Figures/27-C-30-1.bmp\",\"nalana\",\"Up\",\"40\",\"3\",\"12\",\"4\",\"S\",\"C\",\"60\"
\"\",\"\",\"approach-retreat\",\"209\",\"1467287\",\"0.0-209.0\",\"\",\"\",\"2-4\",\"4617\",\"38\",\"1\",\"Testing\",\"Stims/Figures/102-C-20-4.bmp\",\"ma:mala\",\"Down\",\"38\",\"3\",\"13\",\"4\",\"S\",\"C\",\"61\"
\"\",\"\",\"approach-retreat\",\"210\",\"1474610\",\"0.0-210.0\",\"\",\"\",\"2-4\",\"5812\",\"38\",\"1\",\"Testing\",\"Stims/Figures/118-J-0-2.bmp\",\"ta:pa:ta\",\"Up\",\"38\",\"3\",\"14\",\"4\",\"P\",\"C\",\"62\"
\"\",\"\",\"approach-retreat\",\"211\",\"1480521\",\"0.0-211.0\",\"\",\"\",\"2-4\",\"4399\",\"37\",\"1\",\"Testing\",\"Stims/Figures/87-J-10-4.bmp\",\"papa:ka\",\"Left\",\"37\",\"3\",\"15\",\"4\",\"P\",\"C\",\"63\"
\"\",\"\",\"approach-retreat\",\"212\",\"1487622\",\"0.0-212.0\",\"\",\"\",\"2-4\",\"5588\",\"37\",\"1\",\"Testing\",\"Stims/Figures/44-C-30-3.bmp\",\"mamana\",\"Right\",\"37\",\"3\",\"16\",\"4\",\"S\",\"C\",\"64\"
\"\",\"\",\"approach-retreat\",\"213\",\"1493541\",\"0.0-213.0\",\"\",\"\",\"2-4\",\"4407\",\"37\",\"1\",\"Testing\",\"Stims/Figures/94-C-20-2.bmp\",\"ma:ma:na\",\"Right\",\"37\",\"3\",\"17\",\"4\",\"S\",\"C\",\"65\"
\"\",\"\",\"approach-retreat\",\"214\",\"1499715\",\"0.0-214.0\",\"\",\"\",\"2-4\",\"4662\",\"39\",\"1\",\"Testing\",\"Stims/Figures/87-C-20-4.bmp\",\"na:mala\",\"Left\",\"39\",\"3\",\"18\",\"4\",\"S\",\"C\",\"66\"
\"\",\"\",\"approach-retreat\",\"215\",\"1505755\",\"0.0-215.0\",\"\",\"\",\"2-4\",\"4529\",\"38\",\"1\",\"Testing\",\"Stims/Figures/85-C-20-2.bmp\",\"na:lala\",\"Down\",\"38\",\"3\",\"19\",\"4\",\"S\",\"C\",\"67\"
\"\",\"\",\"approach-retreat\",\"216\",\"1511675\",\"0.0-216.0\",\"\",\"\",\"2-4\",\"4410\",\"37\",\"1\",\"Testing\",\"Stims/Figures/71-J-0-1.bmp\",\"tapa:ka\",\"Left\",\"37\",\"3\",\"20\",\"4\",\"P\",\"C\",\"68\"
\"\",\"\",\"approach-retreat\",\"217\",\"1517873\",\"0.0-217.0\",\"\",\"\",\"2-4\",\"4687\",\"37\",\"1\",\"Testing\",\"Stims/Figures/71-C-30-1.bmp\",\"mama:na\",\"Right\",\"37\",\"3\",\"21\",\"4\",\"S\",\"C\",\"69\"
\"\",\"\",\"approach-retreat\",\"218\",\"1523846\",\"0.0-218.0\",\"\",\"\",\"2-4\",\"4461\",\"38\",\"1\",\"Testing\",\"Stims/Figures/144-J-10-3.bmp\",\"takaka\",\"Up\",\"38\",\"3\",\"22\",\"4\",\"P\",\"C\",\"70\"
\"\",\"\",\"approach-retreat\",\"219\",\"1531143\",\"0.0-219.0\",\"\",\"\",\"2-4\",\"5785\",\"38\",\"1\",\"Testing\",\"Stims/Figures/86-C-30-1.bmp\",\"ma:ma:la\",\"Down\",\"38\",\"3\",\"23\",\"4\",\"S\",\"C\",\"71\"
\"\",\"\",\"approach-retreat\",\"220\",\"1537262\",\"0.0-220.0\",\"\",\"\",\"2-4\",\"4607\",\"39\",\"1\",\"Testing\",\"Stims/Figures/7-J-10-4.bmp\",\"ta:paka\",\"Right\",\"39\",\"3\",\"24\",\"4\",\"P\",\"C\",\"72\"
\"\",\"\",\"approach-retreat\",\"221\",\"1543881\",\"0.0-221.0\",\"\",\"\",\"2-4\",\"5108\",\"39\",\"1\",\"Testing\",\"Stims/Figures/71-J-0-1.bmp\",\"tapa:ka\",\"Right\",\"39\",\"4\",\"1\",\"4\",\"P\",\"C\",\"73\"
\"\",\"\",\"approach-retreat\",\"222\",\"1550018\",\"0.0-222.0\",\"\",\"\",\"2-4\",\"4626\",\"37\",\"0\",\"Testing\",\"Stims/Figures/118-C-20-2.bmp\",\"ma:la:la\",\"Left\",\"39\",\"4\",\"2\",\"4\",\"S\",\"C\",\"74\"
\"\",\"\",\"approach-retreat\",\"223\",\"1556043\",\"0.0-223.0\",\"\",\"\",\"2-4\",\"4514\",\"40\",\"1\",\"Testing\",\"Stims/Figures/44-C-30-3.bmp\",\"mamana\",\"Up\",\"40\",\"4\",\"3\",\"4\",\"S\",\"C\",\"75\"
\"\",\"\",\"approach-retreat\",\"224\",\"1562077\",\"0.0-224.0\",\"\",\"\",\"2-4\",\"4523\",\"39\",\"1\",\"Testing\",\"Stims/Figures/128-C-30-3.bmp\",\"namala\",\"Left\",\"39\",\"4\",\"4\",\"4\",\"S\",\"C\",\"76\"
\"\",\"\",\"approach-retreat\",\"225\",\"1568316\",\"0.0-225.0\",\"\",\"\",\"2-4\",\"4727\",\"40\",\"1\",\"Testing\",\"Stims/Figures/27-J-0-1.bmp\",\"tapaka\",\"Down\",\"40\",\"4\",\"5\",\"4\",\"P\",\"C\",\"77\"
\"\",\"\",\"approach-retreat\",\"226\",\"1574466\",\"0.0-226.0\",\"\",\"\",\"2-4\",\"4639\",\"37\",\"1\",\"Testing\",\"Stims/Figures/128-J-10-3.bmp\",\"papata\",\"Left\",\"37\",\"4\",\"6\",\"4\",\"P\",\"C\",\"78\"
\"\",\"\",\"approach-retreat\",\"227\",\"1580303\",\"0.0-227.0\",\"\",\"\",\"2-4\",\"4326\",\"37\",\"1\",\"Testing\",\"Stims/Figures/144-J-10-3.bmp\",\"takaka\",\"Left\",\"37\",\"4\",\"7\",\"4\",\"P\",\"C\",\"79\"
\"\",\"\",\"approach-retreat\",\"228\",\"1586522\",\"0.0-228.0\",\"\",\"\",\"2-4\",\"4708\",\"37\",\"1\",\"Testing\",\"Stims/Figures/102-J-10-4.bmp\",\"paka:ka\",\"Left\",\"37\",\"4\",\"8\",\"4\",\"P\",\"C\",\"80\"
\"\",\"\",\"approach-retreat\",\"229\",\"1592593\",\"0.0-229.0\",\"\",\"\",\"2-4\",\"4561\",\"40\",\"1\",\"Testing\",\"Stims/Figures/144-C-30-3.bmp\",\"nama:la\",\"Up\",\"40\",\"4\",\"9\",\"4\",\"S\",\"C\",\"81\"
\"\",\"\",\"approach-retreat\",\"230\",\"1598521\",\"0.0-230.0\",\"\",\"\",\"2-4\",\"4416\",\"40\",\"1\",\"Testing\",\"Stims/Figures/7-C-20-4.bmp\",\"mama:la\",\"Up\",\"40\",\"4\",\"10\",\"4\",\"S\",\"C\",\"82\"
\"\",\"\",\"approach-retreat\",\"231\",\"1604464\",\"0.0-231.0\",\"\",\"\",\"2-4\",\"4432\",\"38\",\"1\",\"Testing\",\"Stims/Figures/71-C-30-1.bmp\",\"mama:na\",\"Down\",\"38\",\"4\",\"11\",\"4\",\"S\",\"C\",\"83\"
\"\",\"\",\"approach-retreat\",\"232\",\"1610536\",\"0.0-232.0\",\"\",\"\",\"2-4\",\"4562\",\"38\",\"1\",\"Testing\",\"Stims/Figures/27-C-30-1.bmp\",\"nalana\",\"Down\",\"38\",\"4\",\"12\",\"4\",\"S\",\"C\",\"84\"
\"\",\"\",\"approach-retreat\",\"233\",\"1616470\",\"0.0-233.0\",\"\",\"\",\"2-4\",\"4423\",\"40\",\"1\",\"Testing\",\"Stims/Figures/85-C-20-2.bmp\",\"na:lala\",\"Up\",\"40\",\"4\",\"13\",\"4\",\"S\",\"C\",\"85\"
\"\",\"\",\"approach-retreat\",\"234\",\"1622480\",\"0.0-234.0\",\"\",\"\",\"2-4\",\"4499\",\"40\",\"1\",\"Testing\",\"Stims/Figures/44-J-10-3.bmp\",\"tapa:ta\",\"Down\",\"40\",\"4\",\"14\",\"4\",\"P\",\"C\",\"86\"
\"\",\"\",\"approach-retreat\",\"235\",\"1628444\",\"0.0-235.0\",\"\",\"\",\"2-4\",\"4453\",\"37\",\"1\",\"Testing\",\"Stims/Figures/87-C-20-4.bmp\",\"na:mala\",\"Right\",\"37\",\"4\",\"15\",\"4\",\"S\",\"C\",\"87\"
\"\",\"\",\"approach-retreat\",\"236\",\"1634590\",\"0.0-236.0\",\"\",\"\",\"2-4\",\"4635\",\"40\",\"1\",\"Testing\",\"Stims/Figures/86-C-30-1.bmp\",\"ma:ma:la\",\"Up\",\"40\",\"4\",\"16\",\"4\",\"S\",\"C\",\"88\"
\"\",\"\",\"approach-retreat\",\"237\",\"1640405\",\"0.0-237.0\",\"\",\"\",\"2-4\",\"4303\",\"38\",\"1\",\"Testing\",\"Stims/Figures/87-J-10-4.bmp\",\"papa:ka\",\"Up\",\"38\",\"4\",\"17\",\"4\",\"P\",\"C\",\"89\"
\"\",\"\",\"approach-retreat\",\"238\",\"1647010\",\"0.0-238.0\",\"\",\"\",\"2-4\",\"5094\",\"39\",\"1\",\"Testing\",\"Stims/Figures/85-J-0-2.bmp\",\"ta:ka:ka\",\"Right\",\"39\",\"4\",\"18\",\"4\",\"P\",\"C\",\"90\"
\"\",\"\",\"approach-retreat\",\"239\",\"1653315\",\"0.0-239.0\",\"\",\"\",\"2-4\",\"4794\",\"39\",\"1\",\"Testing\",\"Stims/Figures/7-J-10-4.bmp\",\"ta:paka\",\"Right\",\"39\",\"4\",\"19\",\"4\",\"P\",\"C\",\"91\"
\"\",\"\",\"approach-retreat\",\"240\",\"1659322\",\"0.0-240.0\",\"\",\"\",\"2-4\",\"4493\",\"39\",\"1\",\"Testing\",\"Stims/Figures/86-J-0-1.bmp\",\"taka:ta\",\"Right\",\"39\",\"4\",\"20\",\"4\",\"P\",\"C\",\"92\"
\"\",\"\",\"approach-retreat\",\"241\",\"1665580\",\"0.0-241.0\",\"\",\"\",\"2-4\",\"4746\",\"40\",\"1\",\"Testing\",\"Stims/Figures/94-J-0-2.bmp\",\"pa:pata\",\"Down\",\"40\",\"4\",\"21\",\"4\",\"P\",\"C\",\"93\"
\"\",\"\",\"approach-retreat\",\"242\",\"1671335\",\"0.0-242.0\",\"\",\"\",\"2-4\",\"4243\",\"37\",\"1\",\"Testing\",\"Stims/Figures/94-C-20-2.bmp\",\"ma:ma:na\",\"Right\",\"37\",\"4\",\"22\",\"4\",\"S\",\"C\",\"94\"
\"\",\"\",\"approach-retreat\",\"243\",\"1677418\",\"0.0-243.0\",\"\",\"\",\"2-4\",\"4572\",\"38\",\"1\",\"Testing\",\"Stims/Figures/102-C-20-4.bmp\",\"ma:mala\",\"Down\",\"38\",\"4\",\"23\",\"4\",\"S\",\"C\",\"95\"
\"\",\"\",\"approach-retreat\",\"244\",\"1683265\",\"0.0-244.0\",\"\",\"\",\"2-4\",\"4334\",\"37\",\"1\",\"Testing\",\"Stims/Figures/118-J-0-2.bmp\",\"ta:pa:ta\",\"Left\",\"37\",\"4\",\"24\",\"4\",\"P\",\"C\",\"96\"
\"31628\",\"\",\"survey-text\",\"245\",\"1714913\",\"0.0-245.0\",\"\",\"{\"\"Q0\"\":\"\"PS160054\"\"}\",\"\",\"\",\"\",\"\",\"\",\"\",\"\",\"\",\"\",\"\",\"\",\"\",\"\",\"\",\"\"
