"rt","key_press","trial_type","trial_index","time_elapsed","internal_node_id","view_history","responses","Id","Rt","ResKeyCode","ResCorr","TrialType2","Image","Label","Location","CorrectResponse","Block","BlockTrial","Condition","LabelType","Subcondition","trialNum"
"58692","32","text","0","58703","0.0-0.0-0.0","","","","","","","","","","","","","","","","",""
"149626","","instructions","1","208335","0.0-1.0","[{""page_index"":0,""viewing_time"":149623}]","","","","","","","","","","","","","","","",""
"37362","","survey-multi-choice","2","245783","0.0-2.0","","{""Q0"":""Da"",""Q1"":""Da"",""Q2"":""Da"",""Q3"":""Da"",""Q4"":""Da"",""Q5"":""Da""}","","","","","","","","","","","","","","",""
"","","bio","3","261692","0.0-3.0","","{""age"":""19"",""gender"":""f"",""specify"":""""}","","","","","","","","","","","","","","",""
"","","approach-retreat","4","286416","0.0-4.0","","","2-2","23155","39","1","Training","Stims/Figures/27-C-30-1.bmp","za:sa:ha","Left","39","1","1","6A","C2","C","1"
"","","approach-retreat","5","295371","0.0-5.0","","","2-2","7374","38","0","Training","Stims/Figures/93-C-30-1.bmp","sa:saza","Up","40","1","2","6A","C2","C","2"
"","","approach-retreat","6","304903","0.0-6.0","","","2-2","7951","38","0","Training","Stims/Figures/100-C-30-3.bmp","zaha:ha","Up","40","1","3","6A","C2","C","3"
"","","approach-retreat","7","316189","0.0-7.0","","","2-2","9710","39","1","Training","Stims/Figures/100-J-10-3.bmp","fa:shasha","Right","39","1","4","6A","C1","C","4"
"","","approach-retreat","8","323178","0.0-8.0","","","2-2","5415","39","0","Training","Stims/Figures/102-J-10-4.bmp","fafa:va","Left","37","1","5","6A","C1","C","5"
"","","approach-retreat","9","330223","0.0-9.0","","","2-2","5474","39","1","Training","Stims/Figures/85-C-20-2.bmp","za:sa:za","Left","39","1","6","6A","C2","C","6"
"","","approach-retreat","10","339214","0.0-10.0","","","2-2","7422","39","1","Training","Stims/Figures/44-J-10-3.bmp","fa:fava","Right","39","1","7","6A","C1","C","7"
"","","approach-retreat","11","346308","0.0-11.0","","","2-2","5508","37","1","Training","Stims/Figures/93-J-0-1.bmp","va:fa:va","Left","37","1","8","6A","C1","C","8"
"","","approach-retreat","12","354698","0.0-12.0","","","2-2","6795","40","1","Training","Stims/Figures/74-C-20-4.bmp","sa:ha:ha","Up","40","1","9","6A","C2","C","9"
"","","approach-retreat","13","362109","0.0-13.0","","","2-2","5833","38","1","Training","Stims/Figures/44-C-30-3.bmp","sa:haha","Down","38","1","10","6A","C2","C","10"
"","","approach-retreat","14","369165","0.0-14.0","","","2-2","5485","40","1","Training","Stims/Figures/84-C-20-2.bmp","sa:sa:za","Up","40","1","11","6A","C2","C","11"
"","","approach-retreat","15","378979","0.0-15.0","","","2-2","8249","40","1","Training","Stims/Figures/74-J-10-4.bmp","vafa:sha","Down","40","1","12","6A","C1","C","12"
"","","approach-retreat","16","385292","0.0-16.0","","","2-2","4744","40","1","Training","Stims/Figures/85-J-0-2.bmp","fa:fa:sha","Down","40","1","13","6A","C1","C","13"
"","","approach-retreat","17","392539","0.0-17.0","","","2-2","5669","37","1","Training","Stims/Figures/102-C-20-4.bmp","za:saza","Right","37","1","14","6A","C2","C","14"
"","","approach-retreat","18","399440","0.0-18.0","","","2-2","5317","40","1","Training","Stims/Figures/84-J-0-2.bmp","va:sha:sha","Down","40","1","15","6A","C1","C","15"
"","","approach-retreat","19","406628","0.0-19.0","","","2-2","5611","39","1","Training","Stims/Figures/27-J-0-1.bmp","vafasha","Right","39","1","16","6A","C1","C","16"
"","","approach-retreat","20","413932","0.0-20.0","","","2-2","5719","38","1","Training","Stims/Figures/102-C-20-4.bmp","za:saza","Down","38","2","1","6A","C2","C","17"
"","","approach-retreat","21","420873","0.0-21.0","","","2-2","5369","40","1","Training","Stims/Figures/93-C-30-1.bmp","sa:saza","Up","40","2","2","6A","C2","C","18"
"","","approach-retreat","22","428017","0.0-22.0","","","2-2","5565","39","1","Training","Stims/Figures/27-J-0-1.bmp","vafasha","Right","39","2","3","6A","C1","C","19"
"","","approach-retreat","23","437524","0.0-23.0","","","2-2","7936","38","1","Training","Stims/Figures/85-J-0-2.bmp","fa:fa:sha","Up","38","2","4","6A","C1","C","20"
"","","approach-retreat","24","454942","0.0-24.0","","","2-2","15837","40","1","Training","Stims/Figures/100-C-30-3.bmp","zaha:ha","Up","40","2","5","6A","C2","C","21"
"","","approach-retreat","25","461381","0.0-25.0","","","2-2","4858","37","1","Training","Stims/Figures/102-J-10-4.bmp","fafa:va","Left","37","2","6","6A","C1","C","22"
"","","approach-retreat","26","469615","0.0-26.0","","","2-2","6660","38","1","Training","Stims/Figures/44-C-30-3.bmp","sa:haha","Down","38","2","7","6A","C2","C","23"
"","","approach-retreat","27","478578","0.0-27.0","","","2-2","7375","37","1","Training","Stims/Figures/85-C-20-2.bmp","za:sa:za","Right","37","2","8","6A","C2","C","24"
"","","approach-retreat","28","490219","0.0-28.0","","","2-2","10057","39","1","Training","Stims/Figures/27-C-30-1.bmp","za:sa:ha","Left","39","2","9","6A","C2","C","25"
"","","approach-retreat","29","505367","0.0-29.0","","","2-2","13554","37","0","Training","Stims/Figures/74-C-20-4.bmp","sa:ha:ha","Left","39","2","10","6A","C2","C","26"
"","","approach-retreat","30","512551","0.0-30.0","","","2-2","5617","40","1","Training","Stims/Figures/84-J-0-2.bmp","va:sha:sha","Down","40","2","11","6A","C1","C","27"
"","","approach-retreat","31","520168","0.0-31.0","","","2-2","6054","40","1","Training","Stims/Figures/84-C-20-2.bmp","sa:sa:za","Up","40","2","12","6A","C2","C","28"
"","","approach-retreat","32","527889","0.0-32.0","","","2-2","6149","37","1","Training","Stims/Figures/74-J-10-4.bmp","vafa:sha","Left","37","2","13","6A","C1","C","29"
"","","approach-retreat","33","535725","0.0-33.0","","","2-2","6256","39","1","Training","Stims/Figures/100-J-10-3.bmp","fa:shasha","Right","39","2","14","6A","C1","C","30"
"","","approach-retreat","34","543128","0.0-34.0","","","2-2","5812","39","1","Training","Stims/Figures/93-J-0-1.bmp","va:fa:va","Right","39","2","15","6A","C1","C","31"
"","","approach-retreat","35","550830","0.0-35.0","","","2-2","6121","40","1","Training","Stims/Figures/44-J-10-3.bmp","fa:fava","Down","40","2","16","6A","C1","C","32"
"","","approach-retreat","36","557472","0.0-36.0","","","2-2","5068","37","1","Training","Stims/Figures/27-J-0-1.bmp","vafasha","Left","37","3","1","6A","C1","C","33"
"","","approach-retreat","37","564824","0.0-37.0","","","2-2","5770","38","1","Training","Stims/Figures/100-C-30-3.bmp","zaha:ha","Down","38","3","2","6A","C2","C","34"
"","","approach-retreat","38","571441","0.0-38.0","","","2-2","5033","37","1","Training","Stims/Figures/93-C-30-1.bmp","sa:saza","Right","37","3","3","6A","C2","C","35"
"","","approach-retreat","39","578138","0.0-39.0","","","2-2","5108","40","1","Training","Stims/Figures/85-J-0-2.bmp","fa:fa:sha","Down","40","3","4","6A","C1","C","36"
"","","approach-retreat","40","584664","0.0-40.0","","","2-2","4938","40","1","Training","Stims/Figures/84-C-20-2.bmp","sa:sa:za","Up","40","3","5","6A","C2","C","37"
"","","approach-retreat","41","591440","0.0-41.0","","","2-2","5216","38","1","Training","Stims/Figures/44-C-30-3.bmp","sa:haha","Down","38","3","6","6A","C2","C","38"
"","","approach-retreat","42","599273","0.0-42.0","","","2-2","6255","38","1","Training","Stims/Figures/93-J-0-1.bmp","va:fa:va","Up","38","3","7","6A","C1","C","39"
"","","approach-retreat","43","606071","0.0-43.0","","","2-2","5215","39","1","Training","Stims/Figures/102-C-20-4.bmp","za:saza","Left","39","3","8","6A","C2","C","40"
"","","approach-retreat","44","614164","0.0-44.0","","","2-2","6509","38","1","Training","Stims/Figures/84-J-0-2.bmp","va:sha:sha","Up","38","3","9","6A","C1","C","41"
"","","approach-retreat","45","623928","0.0-45.0","","","2-2","8179","38","1","Training","Stims/Figures/44-J-10-3.bmp","fa:fava","Up","38","3","10","6A","C1","C","42"
"","","approach-retreat","46","630523","0.0-46.0","","","2-2","5016","37","1","Training","Stims/Figures/102-J-10-4.bmp","fafa:va","Left","37","3","11","6A","C1","C","43"
"","","approach-retreat","47","638044","0.0-47.0","","","2-2","5936","39","1","Training","Stims/Figures/27-C-30-1.bmp","za:sa:ha","Left","39","3","12","6A","C2","C","44"
"","","approach-retreat","48","652110","0.0-48.0","","","2-2","12505","37","1","Training","Stims/Figures/85-C-20-2.bmp","za:sa:za","Right","37","3","13","6A","C2","C","45"
"","","approach-retreat","49","659072","0.0-49.0","","","2-2","5358","39","1","Training","Stims/Figures/100-J-10-3.bmp","fa:shasha","Right","39","3","14","6A","C1","C","46"
"","","approach-retreat","50","665035","0.0-50.0","","","2-2","4375","37","1","Training","Stims/Figures/74-C-20-4.bmp","sa:ha:ha","Right","37","3","15","6A","C2","C","47"
"","","approach-retreat","51","673264","0.0-51.0","","","2-2","6653","40","1","Training","Stims/Figures/74-J-10-4.bmp","vafa:sha","Down","40","3","16","6A","C1","C","48"
"","","approach-retreat","52","683544","0.0-52.0","","","2-2","8702","39","1","Training","Stims/Figures/102-C-20-4.bmp","za:saza","Left","39","4","1","6A","C2","C","49"
"","","approach-retreat","53","695741","0.0-53.0","","","2-2","10623","38","1","Training","Stims/Figures/93-J-0-1.bmp","va:fa:va","Up","38","4","2","6A","C1","C","50"
"","","approach-retreat","54","708451","0.0-54.0","","","2-2","11120","37","1","Training","Stims/Figures/100-J-10-3.bmp","fa:shasha","Left","37","4","3","6A","C1","C","51"
"","","approach-retreat","55","715559","0.0-55.0","","","2-2","5520","40","1","Training","Stims/Figures/27-J-0-1.bmp","vafasha","Down","40","4","4","6A","C1","C","52"
"","","approach-retreat","56","721976","0.0-56.0","","","2-2","4836","37","1","Training","Stims/Figures/84-J-0-2.bmp","va:sha:sha","Left","37","4","5","6A","C1","C","53"
"","","approach-retreat","57","728907","0.0-57.0","","","2-2","5385","38","1","Training","Stims/Figures/85-C-20-2.bmp","za:sa:za","Down","38","4","6","6A","C2","C","54"
"","","approach-retreat","58","735205","0.0-58.0","","","2-2","4708","40","1","Training","Stims/Figures/93-C-30-1.bmp","sa:saza","Up","40","4","7","6A","C2","C","55"
"","","approach-retreat","59","741676","0.0-59.0","","","2-2","4900","39","1","Training","Stims/Figures/74-J-10-4.bmp","vafa:sha","Right","39","4","8","6A","C1","C","56"
"","","approach-retreat","60","749355","0.0-60.0","","","2-2","6104","37","1","Training","Stims/Figures/84-C-20-2.bmp","sa:sa:za","Right","37","4","9","6A","C2","C","57"
"","","approach-retreat","61","756492","0.0-61.0","","","2-2","5567","39","1","Training","Stims/Figures/74-C-20-4.bmp","sa:ha:ha","Left","39","4","10","6A","C2","C","58"
"","","approach-retreat","62","762805","0.0-62.0","","","2-2","4730","37","1","Training","Stims/Figures/44-C-30-3.bmp","sa:haha","Right","37","4","11","6A","C2","C","59"
"","","approach-retreat","63","769237","0.0-63.0","","","2-2","4847","39","1","Training","Stims/Figures/44-J-10-3.bmp","fa:fava","Right","39","4","12","6A","C1","C","60"
"","","approach-retreat","64","777533","0.0-64.0","","","2-2","6716","40","1","Training","Stims/Figures/102-J-10-4.bmp","fafa:va","Down","40","4","13","6A","C1","C","61"
"","","approach-retreat","65","785266","0.0-65.0","","","2-2","6152","40","1","Training","Stims/Figures/27-C-30-1.bmp","za:sa:ha","Up","40","4","14","6A","C2","C","62"
"","","approach-retreat","66","792254","0.0-66.0","","","2-2","5396","40","1","Training","Stims/Figures/85-J-0-2.bmp","fa:fa:sha","Down","40","4","15","6A","C1","C","63"
"","","approach-retreat","67","799166","0.0-67.0","","","2-2","5332","40","1","Training","Stims/Figures/100-C-30-3.bmp","zaha:ha","Up","40","4","16","6A","C2","C","64"
"","","approach-retreat","68","805600","0.0-68.0","","","2-2","4861","37","1","Training","Stims/Figures/100-J-10-3.bmp","fa:shasha","Left","37","5","1","6A","C1","C","65"
"","","approach-retreat","69","814741","0.0-69.0","","","2-2","7559","39","1","Training","Stims/Figures/84-J-0-2.bmp","va:sha:sha","Right","39","5","2","6A","C1","C","66"
"","","approach-retreat","70","823357","0.0-70.0","","","2-2","7050","38","1","Training","Stims/Figures/85-J-0-2.bmp","fa:fa:sha","Up","38","5","3","6A","C1","C","67"
"","","approach-retreat","71","829452","0.0-71.0","","","2-2","4525","37","1","Training","Stims/Figures/27-J-0-1.bmp","vafasha","Left","37","5","4","6A","C1","C","68"
"","","approach-retreat","72","835593","0.0-72.0","","","2-2","4568","40","1","Training","Stims/Figures/102-C-20-4.bmp","za:saza","Up","40","5","5","6A","C2","C","69"
"","","approach-retreat","73","843622","0.0-73.0","","","2-2","6455","38","1","Training","Stims/Figures/74-J-10-4.bmp","vafa:sha","Up","38","5","6","6A","C1","C","70"
"","","approach-retreat","74","850801","0.0-74.0","","","2-2","5595","38","1","Training","Stims/Figures/84-C-20-2.bmp","sa:sa:za","Down","38","5","7","6A","C2","C","71"
"","","approach-retreat","75","857905","0.0-75.0","","","2-2","5516","37","1","Training","Stims/Figures/85-C-20-2.bmp","za:sa:za","Right","37","5","8","6A","C2","C","72"
"","","approach-retreat","76","865324","0.0-76.0","","","2-2","5822","39","1","Training","Stims/Figures/93-C-30-1.bmp","sa:saza","Left","39","5","9","6A","C2","C","73"
"","","approach-retreat","77","873727","0.0-77.0","","","2-2","6834","38","1","Training","Stims/Figures/102-J-10-4.bmp","fafa:va","Up","38","5","10","6A","C1","C","74"
"","","approach-retreat","78","880345","0.0-78.0","","","2-2","5036","39","1","Training","Stims/Figures/74-C-20-4.bmp","sa:ha:ha","Left","39","5","11","6A","C2","C","75"
"","","approach-retreat","79","887246","0.0-79.0","","","2-2","5319","38","1","Training","Stims/Figures/44-C-30-3.bmp","sa:haha","Down","38","5","12","6A","C2","C","76"
"","","approach-retreat","80","894570","0.0-80.0","","","2-2","5741","40","1","Training","Stims/Figures/93-J-0-1.bmp","va:fa:va","Down","40","5","13","6A","C1","C","77"
"","","approach-retreat","81","902472","0.0-81.0","","","2-2","6329","40","1","Training","Stims/Figures/44-J-10-3.bmp","fa:fava","Down","40","5","14","6A","C1","C","78"
"","","approach-retreat","82","910025","0.0-82.0","","","2-2","5976","37","1","Training","Stims/Figures/27-C-30-1.bmp","za:sa:ha","Right","37","5","15","6A","C2","C","79"
"","","approach-retreat","83","916874","0.0-83.0","","","2-2","5257","37","1","Training","Stims/Figures/100-C-30-3.bmp","zaha:ha","Right","37","5","16","6A","C2","C","80"
"","","approach-retreat","84","925937","0.0-84.0","","","2-2","7482","40","1","Training","Stims/Figures/84-J-0-2.bmp","va:sha:sha","Down","40","6","1","6A","C1","C","81"
"","","approach-retreat","85","936237","0.0-85.0","","","2-2","8706","39","1","Training","Stims/Figures/27-C-30-1.bmp","za:sa:ha","Left","39","6","2","6A","C2","C","82"
"","","approach-retreat","86","946355","0.0-86.0","","","2-2","8549","38","1","Training","Stims/Figures/85-C-20-2.bmp","za:sa:za","Down","38","6","3","6A","C2","C","83"
"","","approach-retreat","87","959276","0.0-87.0","","","2-2","11349","40","1","Training","Stims/Figures/100-C-30-3.bmp","zaha:ha","Up","40","6","4","6A","C2","C","84"
"","","approach-retreat","88","966478","0.0-88.0","","","2-2","5629","40","1","Training","Stims/Figures/44-J-10-3.bmp","fa:fava","Down","40","6","5","6A","C1","C","85"
"","","approach-retreat","89","974196","0.0-89.0","","","2-2","6128","40","1","Training","Stims/Figures/93-C-30-1.bmp","sa:saza","Up","40","6","6","6A","C2","C","86"
"","","approach-retreat","90","981378","0.0-90.0","","","2-2","5604","39","1","Training","Stims/Figures/100-J-10-3.bmp","fa:shasha","Right","39","6","7","6A","C1","C","87"
"","","approach-retreat","91","987683","0.0-91.0","","","2-2","4716","40","1","Training","Stims/Figures/84-C-20-2.bmp","sa:sa:za","Up","40","6","8","6A","C2","C","88"
"","","approach-retreat","92","994626","0.0-92.0","","","2-2","5367","39","1","Training","Stims/Figures/102-J-10-4.bmp","fafa:va","Right","39","6","9","6A","C1","C","89"
"","","approach-retreat","93","1002620","0.0-93.0","","","2-2","6414","38","1","Training","Stims/Figures/93-J-0-1.bmp","va:fa:va","Up","38","6","10","6A","C1","C","90"
"","","approach-retreat","94","1010486","0.0-94.0","","","2-2","6276","40","1","Training","Stims/Figures/27-J-0-1.bmp","vafasha","Down","40","6","11","6A","C1","C","91"
"","","approach-retreat","95","1019343","0.0-95.0","","","2-2","7283","39","1","Training","Stims/Figures/44-C-30-3.bmp","sa:haha","Left","39","6","12","6A","C2","C","92"
"","","approach-retreat","96","1026214","0.0-96.0","","","2-2","5316","39","1","Training","Stims/Figures/85-J-0-2.bmp","fa:fa:sha","Right","39","6","13","6A","C1","C","93"
"","","approach-retreat","97","1034843","0.0-97.0","","","2-2","7060","37","1","Training","Stims/Figures/102-C-20-4.bmp","za:saza","Right","37","6","14","6A","C2","C","94"
"","","approach-retreat","98","1043611","0.0-98.0","","","2-2","7199","37","1","Training","Stims/Figures/74-J-10-4.bmp","vafa:sha","Left","37","6","15","6A","C1","C","95"
"","","approach-retreat","99","1053059","0.0-99.0","","","2-2","7867","39","1","Training","Stims/Figures/74-C-20-4.bmp","sa:ha:ha","Left","39","6","16","6A","C2","C","96"
"","","approach-retreat","100","1059697","0.0-100.0","","","2-2","5060","39","1","Training","Stims/Figures/85-C-20-2.bmp","za:sa:za","Left","39","7","1","6A","C2","C","97"
"","","approach-retreat","101","1066703","0.0-101.0","","","2-2","5436","39","1","Training","Stims/Figures/44-J-10-3.bmp","fa:fava","Right","39","7","2","6A","C1","C","98"
"","","approach-retreat","102","1075262","0.0-102.0","","","2-2","6986","38","1","Training","Stims/Figures/85-J-0-2.bmp","fa:fa:sha","Up","38","7","3","6A","C1","C","99"
"","","approach-retreat","103","1082532","0.0-103.0","","","2-2","5681","38","1","Training","Stims/Figures/74-C-20-4.bmp","sa:ha:ha","Down","38","7","4","6A","C2","C","100"
"","","approach-retreat","104","1090355","0.0-104.0","","","2-2","6253","40","1","Training","Stims/Figures/27-J-0-1.bmp","vafasha","Down","40","7","5","6A","C1","C","101"
"","","approach-retreat","105","1096370","0.0-105.0","","","2-2","4461","37","1","Training","Stims/Figures/93-C-30-1.bmp","sa:saza","Right","37","7","6","6A","C2","C","102"
"","","approach-retreat","106","1103302","0.0-106.0","","","2-2","5350","38","1","Training","Stims/Figures/102-J-10-4.bmp","fafa:va","Up","38","7","7","6A","C1","C","103"
"","","approach-retreat","107","1110933","0.0-107.0","","","2-2","6052","39","1","Training","Stims/Figures/27-C-30-1.bmp","za:sa:ha","Left","39","7","8","6A","C2","C","104"
"","","approach-retreat","108","1117735","0.0-108.0","","","2-2","5235","37","1","Training","Stims/Figures/74-J-10-4.bmp","vafa:sha","Left","37","7","9","6A","C1","C","105"
"","","approach-retreat","109","1126279","0.0-109.0","","","2-2","6961","40","1","Training","Stims/Figures/100-C-30-3.bmp","zaha:ha","Up","40","7","10","6A","C2","C","106"
"","","approach-retreat","110","1135379","0.0-110.0","","","2-2","7528","40","1","Training","Stims/Figures/102-C-20-4.bmp","za:saza","Up","40","7","11","6A","C2","C","107"
"","","approach-retreat","111","1143364","0.0-111.0","","","2-2","6410","40","1","Training","Stims/Figures/84-J-0-2.bmp","va:sha:sha","Down","40","7","12","6A","C1","C","108"
"","","approach-retreat","112","1149978","0.0-112.0","","","2-2","5029","37","1","Training","Stims/Figures/84-C-20-2.bmp","sa:sa:za","Right","37","7","13","6A","C2","C","109"
"","","approach-retreat","113","1156032","0.0-113.0","","","2-2","4489","38","1","Training","Stims/Figures/44-C-30-3.bmp","sa:haha","Down","38","7","14","6A","C2","C","110"
"","","approach-retreat","114","1163686","0.0-114.0","","","2-2","6078","39","1","Training","Stims/Figures/93-J-0-1.bmp","va:fa:va","Right","39","7","15","6A","C1","C","111"
"","","approach-retreat","115","1170371","0.0-115.0","","","2-2","5114","37","1","Training","Stims/Figures/100-J-10-3.bmp","fa:shasha","Left","37","7","16","6A","C1","C","112"
"","","approach-retreat","116","1176890","0.0-116.0","","","2-2","4942","40","1","Training","Stims/Figures/74-C-20-4.bmp","sa:ha:ha","Up","40","8","1","6A","C2","C","113"
"","","approach-retreat","117","1182995","0.0-117.0","","","2-2","4524","37","1","Training","Stims/Figures/85-C-20-2.bmp","za:sa:za","Right","37","8","2","6A","C2","C","114"
"","","approach-retreat","118","1188861","0.0-118.0","","","2-2","4278","39","1","Training","Stims/Figures/93-J-0-1.bmp","va:fa:va","Right","39","8","3","6A","C1","C","115"
"","","approach-retreat","119","1194975","0.0-119.0","","","2-2","4530","38","1","Training","Stims/Figures/44-C-30-3.bmp","sa:haha","Down","38","8","4","6A","C2","C","116"
"","","approach-retreat","120","1201021","0.0-120.0","","","2-2","4456","37","1","Training","Stims/Figures/74-J-10-4.bmp","vafa:sha","Left","37","8","5","6A","C1","C","117"
"","","approach-retreat","121","1207671","0.0-121.0","","","2-2","5058","39","1","Training","Stims/Figures/44-J-10-3.bmp","fa:fava","Right","39","8","6","6A","C1","C","118"
"","","approach-retreat","122","1213947","0.0-122.0","","","2-2","4702","40","1","Training","Stims/Figures/100-C-30-3.bmp","zaha:ha","Up","40","8","7","6A","C2","C","119"
"","","approach-retreat","123","1220056","0.0-123.0","","","2-2","4535","40","1","Training","Stims/Figures/84-C-20-2.bmp","sa:sa:za","Up","40","8","8","6A","C2","C","120"
"","","approach-retreat","124","1227370","0.0-124.0","","","2-2","5736","39","1","Training","Stims/Figures/102-J-10-4.bmp","fafa:va","Right","39","8","9","6A","C1","C","121"
"","","approach-retreat","125","1233662","0.0-125.0","","","2-2","4723","40","1","Training","Stims/Figures/27-J-0-1.bmp","vafasha","Down","40","8","10","6A","C1","C","122"
"","","approach-retreat","126","1240365","0.0-126.0","","","2-2","5117","40","1","Training","Stims/Figures/84-J-0-2.bmp","va:sha:sha","Down","40","8","11","6A","C1","C","123"
"","","approach-retreat","127","1246531","0.0-127.0","","","2-2","4587","37","1","Training","Stims/Figures/100-J-10-3.bmp","fa:shasha","Left","37","8","12","6A","C1","C","124"
"","","approach-retreat","128","1254656","0.0-128.0","","","2-2","6558","39","1","Training","Stims/Figures/102-C-20-4.bmp","za:saza","Left","39","8","13","6A","C2","C","125"
"","","approach-retreat","129","1260478","0.0-129.0","","","2-2","4233","40","1","Training","Stims/Figures/27-C-30-1.bmp","za:sa:ha","Up","40","8","14","6A","C2","C","126"
"","","approach-retreat","130","1267001","0.0-130.0","","","2-2","4939","37","1","Training","Stims/Figures/85-J-0-2.bmp","fa:fa:sha","Left","37","8","15","6A","C1","C","127"
"","","approach-retreat","131","1274535","0.0-131.0","","","2-2","5966","38","1","Training","Stims/Figures/93-C-30-1.bmp","sa:saza","Down","38","8","16","6A","C2","C","128"
"","","approach-retreat","132","1280853","0.0-132.0","","","2-2","4756","37","1","Training","Stims/Figures/85-C-20-2.bmp","za:sa:za","Right","37","9","1","6A","C2","C","129"
"","","approach-retreat","133","1287623","0.0-133.0","","","2-2","5197","39","1","Training","Stims/Figures/74-C-20-4.bmp","sa:ha:ha","Left","39","9","2","6A","C2","C","130"
"","","approach-retreat","134","1294040","0.0-134.0","","","2-2","4846","40","1","Training","Stims/Figures/93-C-30-1.bmp","sa:saza","Up","40","9","3","6A","C2","C","131"
"","","approach-retreat","135","1302798","0.0-135.0","","","2-2","7189","39","1","Training","Stims/Figures/44-J-10-3.bmp","fa:fava","Right","39","9","4","6A","C1","C","132"
"","","approach-retreat","136","1309587","0.0-136.0","","","2-2","5199","38","1","Training","Stims/Figures/85-J-0-2.bmp","fa:fa:sha","Up","38","9","5","6A","C1","C","133"
"","","approach-retreat","137","1320190","0.0-137.0","","","2-2","9018","37","1","Training","Stims/Figures/84-J-0-2.bmp","va:sha:sha","Left","37","9","6","6A","C1","C","134"
"","","approach-retreat","138","1327257","0.0-138.0","","","2-2","5469","40","1","Training","Stims/Figures/84-C-20-2.bmp","sa:sa:za","Up","40","9","7","6A","C2","C","135"
"","","approach-retreat","139","1335744","0.0-139.0","","","2-2","6929","37","1","Training","Stims/Figures/93-J-0-1.bmp","va:fa:va","Left","37","9","8","6A","C1","C","136"
"","","approach-retreat","140","1344355","0.0-140.0","","","2-2","7015","38","1","Training","Stims/Figures/102-C-20-4.bmp","za:saza","Down","38","9","9","6A","C2","C","137"
"","","approach-retreat","141","1350632","0.0-141.0","","","2-2","4727","37","1","Training","Stims/Figures/27-J-0-1.bmp","vafasha","Left","37","9","10","6A","C1","C","138"
"","","approach-retreat","142","1361195","0.0-142.0","","","2-2","8994","39","1","Training","Stims/Figures/74-J-10-4.bmp","vafa:sha","Right","39","9","11","6A","C1","C","139"
"","","approach-retreat","143","1368441","0.0-143.0","","","2-2","5671","38","1","Training","Stims/Figures/44-C-30-3.bmp","sa:haha","Down","38","9","12","6A","C2","C","140"
"","","approach-retreat","144","1374383","0.0-144.0","","","2-2","4368","38","1","Training","Stims/Figures/27-C-30-1.bmp","za:sa:ha","Down","38","9","13","6A","C2","C","141"
"","","approach-retreat","145","1381342","0.0-145.0","","","2-2","5400","39","1","Training","Stims/Figures/100-J-10-3.bmp","fa:shasha","Right","39","9","14","6A","C1","C","142"
"","","approach-retreat","146","1387794","0.0-146.0","","","2-2","4875","40","1","Training","Stims/Figures/102-J-10-4.bmp","fafa:va","Down","40","9","15","6A","C1","C","143"
"","","approach-retreat","147","1394089","0.0-147.0","","","2-2","4708","40","1","Training","Stims/Figures/100-C-30-3.bmp","zaha:ha","Up","40","9","16","6A","C2","C","144"
"28548","","instructions","148","1422640","0.0-148.0","[{""page_index"":0,""viewing_time"":28545}]","","","","","","","","","","","","","","","",""
"","","approach-retreat","149","1438214","0.0-149.0","","","2-2","14015","37","0","Testing","Stims/Figures/74-J-10-4.bmp","vafa:sha","Right","39","1","1","6A","C1","C","1"
"","","approach-retreat","150","1445393","0.0-150.0","","","2-2","5635","40","1","Testing","Stims/Figures/84-C-20-2.bmp","sa:sa:za","Up","40","1","2","6A","C2","C","2"
"","","approach-retreat","151","1452338","0.0-151.0","","","2-2","5391","37","1","Testing","Stims/Figures/93-C-30-1.bmp","sa:saza","Right","37","1","3","6A","C2","C","3"
"","","approach-retreat","152","1458480","0.0-152.0","","","2-2","4573","39","0","Testing","Stims/Figures/85-C-20-2.bmp","za:sa:za","Right","37","1","4","6A","C2","C","4"
"","","approach-retreat","153","1468883","0.0-153.0","","","2-2","8848","40","1","Testing","Stims/Figures/27-J-0-1.bmp","vafasha","Down","40","1","5","6A","C1","C","5"
"","","approach-retreat","154","1482431","0.0-154.0","","","2-2","11989","39","1","Testing","Stims/Figures/85-J-0-2.bmp","fa:fa:sha","Right","39","1","6","6A","C1","C","6"
"","","approach-retreat","155","1495446","0.0-155.0","","","2-2","11461","40","0","Testing","Stims/Figures/93-J-0-1.bmp","va:fa:va","Up","38","1","7","6A","C1","C","7"
"","","approach-retreat","156","1502004","0.0-156.0","","","2-2","5008","38","0","Testing","Stims/Figures/44-C-30-3.bmp","sa:haha","Up","40","1","8","6A","C2","C","8"
"","","approach-retreat","157","1508208","0.0-157.0","","","2-2","4651","40","1","Testing","Stims/Figures/44-J-10-3.bmp","fa:fava","Down","40","1","9","6A","C1","C","9"
"","","approach-retreat","158","1517218","0.0-158.0","","","2-2","7444","39","1","Testing","Stims/Figures/74-C-20-4.bmp","sa:ha:ha","Left","39","1","10","6A","C2","C","10"
"","","approach-retreat","159","1526108","0.0-159.0","","","2-2","7339","37","0","Testing","Stims/Figures/71-J-0-1.bmp","va:fasha","Right","39","1","11","6A","C1","C","11"
"","","approach-retreat","160","1534234","0.0-160.0","","","2-2","6563","38","0","Testing","Stims/Figures/87-C-20-4.bmp","za:haha","Up","40","1","12","6A","C2","C","12"
"","","approach-retreat","161","1540034","0.0-161.0","","","2-2","4228","39","1","Testing","Stims/Figures/128-C-30-3.bmp","za:haza","Left","39","1","13","6A","C2","C","13"
"","","approach-retreat","162","1546756","0.0-162.0","","","2-2","5165","38","1","Testing","Stims/Figures/102-C-20-4.bmp","za:saza","Down","38","1","14","6A","C2","C","14"
"","","approach-retreat","163","1553701","0.0-163.0","","","2-2","5388","37","1","Testing","Stims/Figures/118-C-20-2.bmp","sasa:ha","Right","37","1","15","6A","C2","C","15"
"","","approach-retreat","164","1560079","0.0-164.0","","","2-2","4822","39","1","Testing","Stims/Figures/100-C-30-3.bmp","zaha:ha","Left","39","1","16","6A","C2","C","16"
"","","approach-retreat","165","1565994","0.0-165.0","","","2-2","4359","40","1","Testing","Stims/Figures/102-J-10-4.bmp","fafa:va","Down","40","1","17","6A","C1","C","17"
"","","approach-retreat","166","1571840","0.0-166.0","","","2-2","4305","38","1","Testing","Stims/Figures/87-J-10-4.bmp","va:sha:va","Up","38","1","18","6A","C1","C","18"
"","","approach-retreat","167","1578635","0.0-167.0","","","2-2","5210","40","1","Testing","Stims/Figures/71-C-30-1.bmp","zasa:ha","Up","40","1","19","6A","C2","C","19"
"","","approach-retreat","168","1584558","0.0-168.0","","","2-2","4369","39","1","Testing","Stims/Figures/27-C-30-1.bmp","za:sa:ha","Left","39","1","20","6A","C2","C","20"
"","","approach-retreat","169","1590787","0.0-169.0","","","2-2","4672","40","1","Testing","Stims/Figures/128-J-10-3.bmp","fa:sha:va","Down","40","1","21","6A","C1","C","21"
"","","approach-retreat","170","1596530","0.0-170.0","","","2-2","4202","37","1","Testing","Stims/Figures/100-J-10-3.bmp","fa:shasha","Left","37","1","22","6A","C1","C","22"
"","","approach-retreat","171","1602741","0.0-171.0","","","2-2","4658","39","0","Testing","Stims/Figures/84-J-0-2.bmp","va:sha:sha","Left","37","1","23","6A","C1","C","23"
"","","approach-retreat","172","1608847","0.0-172.0","","","2-2","4544","38","0","Testing","Stims/Figures/118-J-0-2.bmp","va:shava","Down","40","1","24","6A","C1","C","24"
"","","approach-retreat","173","1619006","0.0-173.0","","","2-2","8601","38","1","Testing","Stims/Figures/44-J-10-3.bmp","fa:fava","Up","38","2","1","6A","C1","C","25"
"","","approach-retreat","174","1624941","0.0-174.0","","","2-2","4374","37","1","Testing","Stims/Figures/102-C-20-4.bmp","za:saza","Right","37","2","2","6A","C2","C","26"
"","","approach-retreat","175","1631104","0.0-175.0","","","2-2","4613","38","1","Testing","Stims/Figures/128-C-30-3.bmp","za:haza","Down","38","2","3","6A","C2","C","27"
"","","approach-retreat","176","1636758","0.0-176.0","","","2-2","4097","37","1","Testing","Stims/Figures/71-C-30-1.bmp","zasa:ha","Right","37","2","4","6A","C2","C","28"
"","","approach-retreat","177","1643171","0.0-177.0","","","2-2","4858","39","1","Testing","Stims/Figures/85-C-20-2.bmp","za:sa:za","Left","39","2","5","6A","C2","C","29"
"","","approach-retreat","178","1649158","0.0-178.0","","","2-2","4433","39","0","Testing","Stims/Figures/128-J-10-3.bmp","fa:sha:va","Left","37","2","6","6A","C1","C","30"
"","","approach-retreat","179","1656085","0.0-179.0","","","2-2","5372","39","0","Testing","Stims/Figures/85-J-0-2.bmp","fa:fa:sha","Left","37","2","7","6A","C1","C","31"
"","","approach-retreat","180","1662607","0.0-180.0","","","2-2","4968","40","0","Testing","Stims/Figures/84-J-0-2.bmp","va:sha:sha","Up","38","2","8","6A","C1","C","32"
"","","approach-retreat","181","1668629","0.0-181.0","","","2-2","4469","39","0","Testing","Stims/Figures/71-J-0-1.bmp","va:fasha","Left","37","2","9","6A","C1","C","33"
"","","approach-retreat","182","1674731","0.0-182.0","","","2-2","4545","38","1","Testing","Stims/Figures/84-C-20-2.bmp","sa:sa:za","Down","38","2","10","6A","C2","C","34"
"","","approach-retreat","183","1680910","0.0-183.0","","","2-2","4624","40","1","Testing","Stims/Figures/100-J-10-3.bmp","fa:shasha","Down","40","2","11","6A","C1","C","35"
"","","approach-retreat","184","1687272","0.0-184.0","","","2-2","4822","37","1","Testing","Stims/Figures/93-C-30-1.bmp","sa:saza","Right","37","2","12","6A","C2","C","36"
"","","approach-retreat","185","1693153","0.0-185.0","","","2-2","4321","39","0","Testing","Stims/Figures/87-J-10-4.bmp","va:sha:va","Left","37","2","13","6A","C1","C","37"
"","","approach-retreat","186","1699167","0.0-186.0","","","2-2","4453","37","0","Testing","Stims/Figures/102-J-10-4.bmp","fafa:va","Right","39","2","14","6A","C1","C","38"
"","","approach-retreat","187","1705373","0.0-187.0","","","2-2","4665","38","1","Testing","Stims/Figures/74-J-10-4.bmp","vafa:sha","Up","38","2","15","6A","C1","C","39"
"","","approach-retreat","188","1711213","0.0-188.0","","","2-2","4297","38","1","Testing","Stims/Figures/100-C-30-3.bmp","zaha:ha","Down","38","2","16","6A","C2","C","40"
"","","approach-retreat","189","1717498","0.0-189.0","","","2-2","4722","40","1","Testing","Stims/Figures/118-C-20-2.bmp","sasa:ha","Up","40","2","17","6A","C2","C","41"
"","","approach-retreat","190","1723231","0.0-190.0","","","2-2","4184","37","0","Testing","Stims/Figures/93-J-0-1.bmp","va:fa:va","Right","39","2","18","6A","C1","C","42"
"","","approach-retreat","191","1729372","0.0-191.0","","","2-2","4586","39","1","Testing","Stims/Figures/44-C-30-3.bmp","sa:haha","Left","39","2","19","6A","C2","C","43"
"","","approach-retreat","192","1735809","0.0-192.0","","","2-2","4886","40","0","Testing","Stims/Figures/27-C-30-1.bmp","za:sa:ha","Down","38","2","20","6A","C2","C","44"
"","","approach-retreat","193","1742246","0.0-193.0","","","2-2","4886","39","1","Testing","Stims/Figures/27-J-0-1.bmp","vafasha","Right","39","2","21","6A","C1","C","45"
"","","approach-retreat","194","1748251","0.0-194.0","","","2-2","4446","40","0","Testing","Stims/Figures/118-J-0-2.bmp","va:shava","Up","38","2","22","6A","C1","C","46"
"","","approach-retreat","195","1754100","0.0-195.0","","","2-2","4287","38","0","Testing","Stims/Figures/87-C-20-4.bmp","za:haha","Up","40","2","23","6A","C2","C","47"
"","","approach-retreat","196","1760052","0.0-196.0","","","2-2","4400","40","0","Testing","Stims/Figures/74-C-20-4.bmp","sa:ha:ha","Down","38","2","24","6A","C2","C","48"
"","","approach-retreat","197","1766049","0.0-197.0","","","2-2","4441","39","0","Testing","Stims/Figures/74-C-20-4.bmp","sa:ha:ha","Right","37","3","1","6A","C2","C","49"
"","","approach-retreat","198","1771640","0.0-198.0","","","2-2","4035","39","1","Testing","Stims/Figures/87-J-10-4.bmp","va:sha:va","Right","39","3","2","6A","C1","C","50"
"","","approach-retreat","199","1777258","0.0-199.0","","","2-2","4074","37","0","Testing","Stims/Figures/100-C-30-3.bmp","zaha:ha","Left","39","3","3","6A","C2","C","51"
"","","approach-retreat","200","1783299","0.0-200.0","","","2-2","4475","40","0","Testing","Stims/Figures/84-C-20-2.bmp","sa:sa:za","Down","38","3","4","6A","C2","C","52"
"","","approach-retreat","201","1790315","0.0-201.0","","","2-2","5459","38","1","Testing","Stims/Figures/118-J-0-2.bmp","va:shava","Up","38","3","5","6A","C1","C","53"
"","","approach-retreat","202","1796307","0.0-202.0","","","2-2","4424","40","0","Testing","Stims/Figures/102-C-20-4.bmp","za:saza","Down","38","3","6","6A","C2","C","54"
"","","approach-retreat","203","1802381","0.0-203.0","","","2-2","4509","37","0","Testing","Stims/Figures/84-J-0-2.bmp","va:sha:sha","Right","39","3","7","6A","C1","C","55"
"","","approach-retreat","204","1808373","0.0-204.0","","","2-2","4436","39","1","Testing","Stims/Figures/71-C-30-1.bmp","zasa:ha","Left","39","3","8","6A","C2","C","56"
"","","approach-retreat","205","1815395","0.0-205.0","","","2-2","5451","40","0","Testing","Stims/Figures/102-J-10-4.bmp","fafa:va","Up","38","3","9","6A","C1","C","57"
"","","approach-retreat","206","1822249","0.0-206.0","","","2-2","5302","37","0","Testing","Stims/Figures/71-J-0-1.bmp","va:fasha","Right","39","3","10","6A","C1","C","58"
"","","approach-retreat","207","1830042","0.0-207.0","","","2-2","6238","40","0","Testing","Stims/Figures/85-C-20-2.bmp","za:sa:za","Down","38","3","11","6A","C2","C","59"
"","","approach-retreat","208","1838701","0.0-208.0","","","2-2","7103","38","0","Testing","Stims/Figures/87-C-20-4.bmp","za:haha","Up","40","3","12","6A","C2","C","60"
"","","approach-retreat","209","1845755","0.0-209.0","","","2-2","5509","40","1","Testing","Stims/Figures/93-J-0-1.bmp","va:fa:va","Down","40","3","13","6A","C1","C","61"
"","","approach-retreat","210","1854154","0.0-210.0","","","2-2","6853","37","1","Testing","Stims/Figures/27-C-30-1.bmp","za:sa:ha","Right","37","3","14","6A","C2","C","62"
"","","approach-retreat","211","1860286","0.0-211.0","","","2-2","4606","39","0","Testing","Stims/Figures/44-C-30-3.bmp","sa:haha","Right","37","3","15","6A","C2","C","63"
"","","approach-retreat","212","1866814","0.0-212.0","","","2-2","4983","38","1","Testing","Stims/Figures/27-J-0-1.bmp","vafasha","Up","38","3","16","6A","C1","C","64"
"","","approach-retreat","213","1873930","0.0-213.0","","","2-2","5585","40","0","Testing","Stims/Figures/74-J-10-4.bmp","vafa:sha","Up","38","3","17","6A","C1","C","65"
"","","approach-retreat","214","1880306","0.0-214.0","","","2-2","4828","39","0","Testing","Stims/Figures/128-J-10-3.bmp","fa:sha:va","Left","37","3","18","6A","C1","C","66"
"","","approach-retreat","215","1886775","0.0-215.0","","","2-2","4923","37","1","Testing","Stims/Figures/44-J-10-3.bmp","fa:fava","Left","37","3","19","6A","C1","C","67"
"","","approach-retreat","216","1893562","0.0-216.0","","","2-2","5260","39","1","Testing","Stims/Figures/118-C-20-2.bmp","sasa:ha","Left","39","3","20","6A","C2","C","68"
"","","approach-retreat","217","1901005","0.0-217.0","","","2-2","5892","40","0","Testing","Stims/Figures/85-J-0-2.bmp","fa:fa:sha","Up","38","3","21","6A","C1","C","69"
"","","approach-retreat","218","1906976","0.0-218.0","","","2-2","4428","37","1","Testing","Stims/Figures/100-J-10-3.bmp","fa:shasha","Left","37","3","22","6A","C1","C","70"
"","","approach-retreat","219","1913403","0.0-219.0","","","2-2","4877","38","1","Testing","Stims/Figures/128-C-30-3.bmp","za:haza","Down","38","3","23","6A","C2","C","71"
"","","approach-retreat","220","1920825","0.0-220.0","","","2-2","5883","40","0","Testing","Stims/Figures/93-C-30-1.bmp","sa:saza","Down","38","3","24","6A","C2","C","72"
"","","approach-retreat","221","1926745","0.0-221.0","","","2-2","4388","40","0","Testing","Stims/Figures/118-J-0-2.bmp","va:shava","Up","38","4","1","6A","C1","C","73"
"","","approach-retreat","222","1933648","0.0-222.0","","","2-2","5362","38","0","Testing","Stims/Figures/100-J-10-3.bmp","fa:shasha","Down","40","4","2","6A","C1","C","74"
"","","approach-retreat","223","1939582","0.0-223.0","","","2-2","4407","40","1","Testing","Stims/Figures/87-J-10-4.bmp","va:sha:va","Down","40","4","3","6A","C1","C","75"
"","","approach-retreat","224","1945903","0.0-224.0","","","2-2","4787","37","0","Testing","Stims/Figures/128-C-30-3.bmp","za:haza","Left","39","4","4","6A","C2","C","76"
"","","approach-retreat","225","1952007","0.0-225.0","","","2-2","4568","39","0","Testing","Stims/Figures/102-J-10-4.bmp","fafa:va","Left","37","4","5","6A","C1","C","77"
"","","approach-retreat","226","1957798","0.0-226.0","","","2-2","4261","39","1","Testing","Stims/Figures/84-J-0-2.bmp","va:sha:sha","Right","39","4","6","6A","C1","C","78"
"","","approach-retreat","227","2009045","0.0-227.0","","","2-2","49715","40","0","Testing","Stims/Figures/118-C-20-2.bmp","sasa:ha","Down","38","4","7","6A","C2","C","79"
"","","approach-retreat","228","2021967","0.0-228.0","","","2-2","11381","38","0","Testing","Stims/Figures/100-C-30-3.bmp","zaha:ha","Up","40","4","8","6A","C2","C","80"
"","","approach-retreat","229","2034962","0.0-229.0","","","2-2","11461","37","1","Testing","Stims/Figures/93-J-0-1.bmp","va:fa:va","Left","37","4","9","6A","C1","C","81"
"","","approach-retreat","230","2042614","0.0-230.0","","","2-2","6097","37","1","Testing","Stims/Figures/71-C-30-1.bmp","zasa:ha","Right","37","4","10","6A","C2","C","82"
"","","approach-retreat","231","2052776","0.0-231.0","","","2-2","8631","40","1","Testing","Stims/Figures/74-J-10-4.bmp","vafa:sha","Down","40","4","11","6A","C1","C","83"
"","","approach-retreat","232","2059376","0.0-232.0","","","2-2","5052","37","1","Testing","Stims/Figures/74-C-20-4.bmp","sa:ha:ha","Right","37","4","12","6A","C2","C","84"
"","","approach-retreat","233","2068079","0.0-233.0","","","2-2","7155","37","1","Testing","Stims/Figures/85-J-0-2.bmp","fa:fa:sha","Left","37","4","13","6A","C1","C","85"
"","","approach-retreat","234","2074796","0.0-234.0","","","2-2","5177","40","1","Testing","Stims/Figures/93-C-30-1.bmp","sa:saza","Up","40","4","14","6A","C2","C","86"
"","","approach-retreat","235","2080316","0.0-235.0","","","2-2","3981","39","0","Testing","Stims/Figures/128-J-10-3.bmp","fa:sha:va","Left","37","4","15","6A","C1","C","87"
"","","approach-retreat","236","2086519","0.0-236.0","","","2-2","4655","38","0","Testing","Stims/Figures/44-C-30-3.bmp","sa:haha","Up","40","4","16","6A","C2","C","88"
"","","approach-retreat","237","2093986","0.0-237.0","","","2-2","5921","37","1","Testing","Stims/Figures/85-C-20-2.bmp","za:sa:za","Right","37","4","17","6A","C2","C","89"
"","","approach-retreat","238","2110266","0.0-238.0","","","2-2","14739","40","1","Testing","Stims/Figures/102-C-20-4.bmp","za:saza","Up","40","4","18","6A","C2","C","90"
"","","approach-retreat","239","2117504","0.0-239.0","","","2-2","5701","40","1","Testing","Stims/Figures/71-J-0-1.bmp","va:fasha","Down","40","4","19","6A","C1","C","91"
"","","approach-retreat","240","2123801","0.0-240.0","","","2-2","4745","39","1","Testing","Stims/Figures/27-J-0-1.bmp","vafasha","Right","39","4","20","6A","C1","C","92"
"","","approach-retreat","241","2129555","0.0-241.0","","","2-2","4210","37","1","Testing","Stims/Figures/27-C-30-1.bmp","za:sa:ha","Right","37","4","21","6A","C2","C","93"
"","","approach-retreat","242","2135470","0.0-242.0","","","2-2","4382","40","1","Testing","Stims/Figures/84-C-20-2.bmp","sa:sa:za","Up","40","4","22","6A","C2","C","94"
"","","approach-retreat","243","2141422","0.0-243.0","","","2-2","4424","39","0","Testing","Stims/Figures/44-J-10-3.bmp","fa:fava","Left","37","4","23","6A","C1","C","95"
"","","approach-retreat","244","2147273","0.0-244.0","","","2-2","4288","40","0","Testing","Stims/Figures/87-C-20-4.bmp","za:haha","Down","38","4","24","6A","C2","C","96"
"59076","","survey-text","245","2206367","0.0-245.0","","{""Q0"":""PS180002""}","","","","","","","","","","","","","","",""
