\"rt\",\"key_press\",\"trial_type\",\"trial_index\",\"time_elapsed\",\"internal_node_id\",\"view_history\",\"responses\",\"Id\",\"Rt\",\"ResKeyCode\",\"ResCorr\",\"TrialType2\",\"Image\",\"Label\",\"Location\",\"CorrectResponse\",\"Block\",\"BlockTrial\",\"Condition\",\"LabelType\",\"Subcondition\",\"trialNum\"
\"33512\",\"32\",\"text\",\"0\",\"33515\",\"0.0-0.0-0.0\",\"\",\"\",\"\",\"\",\"\",\"\",\"\",\"\",\"\",\"\",\"\",\"\",\"\",\"\",\"\",\"\",\"\"
\"77044\",\"\",\"instructions\",\"1\",\"110611\",\"0.0-1.0\",\"[{\"\"page_index\"\":0,\"\"viewing_time\"\":77043}]\",\"\",\"\",\"\",\"\",\"\",\"\",\"\",\"\",\"\",\"\",\"\",\"\",\"\",\"\",\"\",\"\"
\"26183\",\"\",\"survey-multi-choice\",\"2\",\"137022\",\"0.0-2.0\",\"\",\"{\"\"Q0\"\":\"\"Ne\"\",\"\"Q1\"\":\"\"Da\"\",\"\"Q2\"\":\"\"Da\"\",\"\"Q3\"\":\"\"Da\"\",\"\"Q4\"\":\"\"Da\"\",\"\"Q5\"\":\"\"Da\"\"}\",\"\",\"\",\"\",\"\",\"\",\"\",\"\",\"\",\"\",\"\",\"\",\"\",\"\",\"\",\"\"
\"\",\"\",\"bio\",\"3\",\"144551\",\"0.0-3.0\",\"\",\"{\"\"age\"\":\"\"20\"\",\"\"gender\"\":\"\"f\"\",\"\"specify\"\":\"\"\"\"}\",\"\",\"\",\"\",\"\",\"\",\"\",\"\",\"\",\"\",\"\",\"\",\"\",\"\",\"\",\"\"
\"\",\"\",\"approach-retreat\",\"4\",\"162554\",\"0.0-4.0\",\"\",\"\",\"3-1\",\"16351\",\"40\",\"1\",\"Training\",\"Stims/Figures/100-C-30-3.bmp\",\"pakata\",\"Up\",\"40\",\"1\",\"1\",\"5\",\"P\",\"C\",\"1\"
\"\",\"\",\"approach-retreat\",\"5\",\"174740\",\"0.0-5.0\",\"\",\"\",\"3-1\",\"10653\",\"39\",\"1\",\"Training\",\"Stims/Figures/100-J-10-3.bmp\",\"ma:ma:la\",\"Right\",\"39\",\"1\",\"2\",\"5\",\"S\",\"C\",\"2\"
\"\",\"\",\"approach-retreat\",\"6\",\"192270\",\"0.0-6.0\",\"\",\"\",\"3-1\",\"16024\",\"37\",\"1\",\"Training\",\"Stims/Figures/27-C-30-1.bmp\",\"pa:ka:ta\",\"Right\",\"37\",\"1\",\"3\",\"5\",\"P\",\"C\",\"3\"
\"\",\"\",\"approach-retreat\",\"7\",\"199327\",\"0.0-7.0\",\"\",\"\",\"3-1\",\"5551\",\"39\",\"1\",\"Training\",\"Stims/Figures/102-C-20-4.bmp\",\"taka:ta\",\"Left\",\"39\",\"1\",\"4\",\"5\",\"P\",\"C\",\"4\"
\"\",\"\",\"approach-retreat\",\"8\",\"206405\",\"0.0-8.0\",\"\",\"\",\"3-1\",\"5573\",\"37\",\"1\",\"Training\",\"Stims/Figures/27-J-0-1.bmp\",\"mama:la\",\"Left\",\"37\",\"1\",\"5\",\"5\",\"S\",\"C\",\"5\"
\"\",\"\",\"approach-retreat\",\"9\",\"215177\",\"0.0-9.0\",\"\",\"\",\"3-1\",\"7268\",\"39\",\"0\",\"Training\",\"Stims/Figures/139-J-0-2.bmp\",\"na:la:la\",\"Left\",\"37\",\"1\",\"6\",\"5\",\"S\",\"C\",\"6\"
\"\",\"\",\"approach-retreat\",\"10\",\"222220\",\"0.0-10.0\",\"\",\"\",\"3-1\",\"5538\",\"37\",\"0\",\"Training\",\"Stims/Figures/102-J-10-4.bmp\",\"na:lala\",\"Right\",\"39\",\"1\",\"7\",\"5\",\"S\",\"C\",\"7\"
\"\",\"\",\"approach-retreat\",\"11\",\"231007\",\"0.0-11.0\",\"\",\"\",\"3-1\",\"7282\",\"38\",\"1\",\"Training\",\"Stims/Figures/118-C-20-2.bmp\",\"papa:ta\",\"Down\",\"38\",\"1\",\"8\",\"5\",\"P\",\"C\",\"8\"
\"\",\"\",\"approach-retreat\",\"12\",\"240990\",\"0.0-12.0\",\"\",\"\",\"3-1\",\"8476\",\"39\",\"1\",\"Training\",\"Stims/Figures/118-J-0-2.bmp\",\"nama:la\",\"Right\",\"39\",\"1\",\"9\",\"5\",\"S\",\"C\",\"9\"
\"\",\"\",\"approach-retreat\",\"13\",\"251185\",\"0.0-13.0\",\"\",\"\",\"3-1\",\"8688\",\"38\",\"1\",\"Training\",\"Stims/Figures/44-J-10-3.bmp\",\"ma:la:na\",\"Up\",\"38\",\"1\",\"10\",\"5\",\"S\",\"C\",\"10\"
\"\",\"\",\"approach-retreat\",\"14\",\"268339\",\"0.0-14.0\",\"\",\"\",\"3-1\",\"15649\",\"40\",\"1\",\"Training\",\"Stims/Figures/7-C-20-4.bmp\",\"paka:ta\",\"Up\",\"40\",\"1\",\"11\",\"5\",\"P\",\"C\",\"11\"
\"\",\"\",\"approach-retreat\",\"15\",\"277654\",\"0.0-15.0\",\"\",\"\",\"3-1\",\"7809\",\"40\",\"1\",\"Training\",\"Stims/Figures/57-J-0-1.bmp\",\"na:ma:la\",\"Down\",\"40\",\"1\",\"12\",\"5\",\"S\",\"C\",\"12\"
\"\",\"\",\"approach-retreat\",\"16\",\"285708\",\"0.0-16.0\",\"\",\"\",\"3-1\",\"6546\",\"40\",\"1\",\"Training\",\"Stims/Figures/57-C-30-1.bmp\",\"tapa:ka\",\"Up\",\"40\",\"1\",\"13\",\"5\",\"P\",\"C\",\"13\"
\"\",\"\",\"approach-retreat\",\"17\",\"296374\",\"0.0-17.0\",\"\",\"\",\"3-1\",\"9161\",\"37\",\"1\",\"Training\",\"Stims/Figures/7-J-10-4.bmp\",\"na:la:na\",\"Left\",\"37\",\"1\",\"14\",\"5\",\"S\",\"C\",\"14\"
\"\",\"\",\"approach-retreat\",\"18\",\"305273\",\"0.0-18.0\",\"\",\"\",\"3-1\",\"7393\",\"38\",\"1\",\"Training\",\"Stims/Figures/139-C-20-2.bmp\",\"takata\",\"Down\",\"38\",\"1\",\"15\",\"5\",\"P\",\"C\",\"15\"
\"\",\"\",\"approach-retreat\",\"19\",\"312520\",\"0.0-19.0\",\"\",\"\",\"3-1\",\"5743\",\"38\",\"1\",\"Training\",\"Stims/Figures/44-C-30-3.bmp\",\"taka:ka\",\"Down\",\"38\",\"1\",\"16\",\"5\",\"P\",\"C\",\"16\"
\"\",\"\",\"approach-retreat\",\"20\",\"319246\",\"0.0-20.0\",\"\",\"\",\"3-1\",\"5221\",\"38\",\"1\",\"Training\",\"Stims/Figures/118-J-0-2.bmp\",\"nama:la\",\"Up\",\"38\",\"2\",\"1\",\"5\",\"S\",\"C\",\"17\"
\"\",\"\",\"approach-retreat\",\"21\",\"326330\",\"0.0-21.0\",\"\",\"\",\"3-1\",\"5578\",\"38\",\"1\",\"Training\",\"Stims/Figures/44-C-30-3.bmp\",\"taka:ka\",\"Down\",\"38\",\"2\",\"2\",\"5\",\"P\",\"C\",\"18\"
\"\",\"\",\"approach-retreat\",\"22\",\"332151\",\"0.0-22.0\",\"\",\"\",\"3-1\",\"4316\",\"40\",\"1\",\"Training\",\"Stims/Figures/44-J-10-3.bmp\",\"ma:la:na\",\"Down\",\"40\",\"2\",\"3\",\"5\",\"S\",\"C\",\"19\"
\"\",\"\",\"approach-retreat\",\"23\",\"338659\",\"0.0-23.0\",\"\",\"\",\"3-1\",\"5004\",\"40\",\"1\",\"Training\",\"Stims/Figures/139-J-0-2.bmp\",\"na:la:la\",\"Down\",\"40\",\"2\",\"4\",\"5\",\"S\",\"C\",\"20\"
\"\",\"\",\"approach-retreat\",\"24\",\"349771\",\"0.0-24.0\",\"\",\"\",\"3-1\",\"9607\",\"37\",\"0\",\"Training\",\"Stims/Figures/27-C-30-1.bmp\",\"pa:ka:ta\",\"Left\",\"39\",\"2\",\"5\",\"5\",\"P\",\"C\",\"21\"
\"\",\"\",\"approach-retreat\",\"25\",\"357377\",\"0.0-25.0\",\"\",\"\",\"3-1\",\"6101\",\"37\",\"1\",\"Training\",\"Stims/Figures/139-C-20-2.bmp\",\"takata\",\"Right\",\"37\",\"2\",\"6\",\"5\",\"P\",\"C\",\"22\"
\"\",\"\",\"approach-retreat\",\"26\",\"363595\",\"0.0-26.0\",\"\",\"\",\"3-1\",\"4712\",\"37\",\"0\",\"Training\",\"Stims/Figures/7-C-20-4.bmp\",\"paka:ta\",\"Left\",\"39\",\"2\",\"7\",\"5\",\"P\",\"C\",\"23\"
\"\",\"\",\"approach-retreat\",\"27\",\"369643\",\"0.0-27.0\",\"\",\"\",\"3-1\",\"4541\",\"38\",\"1\",\"Training\",\"Stims/Figures/27-J-0-1.bmp\",\"mama:la\",\"Up\",\"38\",\"2\",\"8\",\"5\",\"S\",\"C\",\"24\"
\"\",\"\",\"approach-retreat\",\"28\",\"377061\",\"0.0-28.0\",\"\",\"\",\"3-1\",\"5913\",\"40\",\"1\",\"Training\",\"Stims/Figures/100-J-10-3.bmp\",\"ma:ma:la\",\"Down\",\"40\",\"2\",\"9\",\"5\",\"S\",\"C\",\"25\"
\"\",\"\",\"approach-retreat\",\"29\",\"385892\",\"0.0-29.0\",\"\",\"\",\"3-1\",\"7315\",\"39\",\"0\",\"Training\",\"Stims/Figures/118-C-20-2.bmp\",\"papa:ta\",\"Right\",\"37\",\"2\",\"10\",\"5\",\"P\",\"C\",\"26\"
\"\",\"\",\"approach-retreat\",\"30\",\"391755\",\"0.0-30.0\",\"\",\"\",\"3-1\",\"4358\",\"37\",\"1\",\"Training\",\"Stims/Figures/7-J-10-4.bmp\",\"na:la:na\",\"Left\",\"37\",\"2\",\"11\",\"5\",\"S\",\"C\",\"27\"
\"\",\"\",\"approach-retreat\",\"31\",\"398718\",\"0.0-31.0\",\"\",\"\",\"3-1\",\"5459\",\"37\",\"1\",\"Training\",\"Stims/Figures/57-J-0-1.bmp\",\"na:ma:la\",\"Left\",\"37\",\"2\",\"12\",\"5\",\"S\",\"C\",\"28\"
\"\",\"\",\"approach-retreat\",\"32\",\"405479\",\"0.0-32.0\",\"\",\"\",\"3-1\",\"5255\",\"38\",\"1\",\"Training\",\"Stims/Figures/102-J-10-4.bmp\",\"na:lala\",\"Up\",\"38\",\"2\",\"13\",\"5\",\"S\",\"C\",\"29\"
\"\",\"\",\"approach-retreat\",\"33\",\"414013\",\"0.0-33.0\",\"\",\"\",\"3-1\",\"7030\",\"37\",\"1\",\"Training\",\"Stims/Figures/57-C-30-1.bmp\",\"tapa:ka\",\"Right\",\"37\",\"2\",\"14\",\"5\",\"P\",\"C\",\"30\"
\"\",\"\",\"approach-retreat\",\"34\",\"419719\",\"0.0-34.0\",\"\",\"\",\"3-1\",\"4197\",\"37\",\"1\",\"Training\",\"Stims/Figures/102-C-20-4.bmp\",\"taka:ta\",\"Right\",\"37\",\"2\",\"15\",\"5\",\"P\",\"C\",\"31\"
\"\",\"\",\"approach-retreat\",\"35\",\"426234\",\"0.0-35.0\",\"\",\"\",\"3-1\",\"5012\",\"40\",\"1\",\"Training\",\"Stims/Figures/100-C-30-3.bmp\",\"pakata\",\"Up\",\"40\",\"2\",\"16\",\"5\",\"P\",\"C\",\"32\"
\"\",\"\",\"approach-retreat\",\"36\",\"432968\",\"0.0-36.0\",\"\",\"\",\"3-1\",\"5228\",\"37\",\"1\",\"Training\",\"Stims/Figures/100-J-10-3.bmp\",\"ma:ma:la\",\"Left\",\"37\",\"3\",\"1\",\"5\",\"S\",\"C\",\"33\"
\"\",\"\",\"approach-retreat\",\"37\",\"440129\",\"0.0-37.0\",\"\",\"\",\"3-1\",\"5657\",\"39\",\"1\",\"Training\",\"Stims/Figures/100-C-30-3.bmp\",\"pakata\",\"Left\",\"39\",\"3\",\"2\",\"5\",\"P\",\"C\",\"34\"
\"\",\"\",\"approach-retreat\",\"38\",\"445937\",\"0.0-38.0\",\"\",\"\",\"3-1\",\"4303\",\"38\",\"1\",\"Training\",\"Stims/Figures/44-J-10-3.bmp\",\"ma:la:na\",\"Up\",\"38\",\"3\",\"3\",\"5\",\"S\",\"C\",\"35\"
\"\",\"\",\"approach-retreat\",\"39\",\"453184\",\"0.0-39.0\",\"\",\"\",\"3-1\",\"5741\",\"40\",\"1\",\"Training\",\"Stims/Figures/57-C-30-1.bmp\",\"tapa:ka\",\"Up\",\"40\",\"3\",\"4\",\"5\",\"P\",\"C\",\"36\"
\"\",\"\",\"approach-retreat\",\"40\",\"460330\",\"0.0-40.0\",\"\",\"\",\"3-1\",\"5642\",\"38\",\"1\",\"Training\",\"Stims/Figures/118-C-20-2.bmp\",\"papa:ta\",\"Down\",\"38\",\"3\",\"5\",\"5\",\"P\",\"C\",\"37\"
\"\",\"\",\"approach-retreat\",\"41\",\"466927\",\"0.0-41.0\",\"\",\"\",\"3-1\",\"5093\",\"40\",\"1\",\"Training\",\"Stims/Figures/7-J-10-4.bmp\",\"na:la:na\",\"Down\",\"40\",\"3\",\"6\",\"5\",\"S\",\"C\",\"38\"
\"\",\"\",\"approach-retreat\",\"42\",\"474904\",\"0.0-42.0\",\"\",\"\",\"3-1\",\"6471\",\"37\",\"1\",\"Training\",\"Stims/Figures/27-C-30-1.bmp\",\"pa:ka:ta\",\"Right\",\"37\",\"3\",\"7\",\"5\",\"P\",\"C\",\"39\"
\"\",\"\",\"approach-retreat\",\"43\",\"481831\",\"0.0-43.0\",\"\",\"\",\"3-1\",\"5422\",\"38\",\"1\",\"Training\",\"Stims/Figures/44-C-30-3.bmp\",\"taka:ka\",\"Down\",\"38\",\"3\",\"8\",\"5\",\"P\",\"C\",\"40\"
\"\",\"\",\"approach-retreat\",\"44\",\"488736\",\"0.0-44.0\",\"\",\"\",\"3-1\",\"5399\",\"38\",\"1\",\"Training\",\"Stims/Figures/27-J-0-1.bmp\",\"mama:la\",\"Up\",\"38\",\"3\",\"9\",\"5\",\"S\",\"C\",\"41\"
\"\",\"\",\"approach-retreat\",\"45\",\"494621\",\"0.0-45.0\",\"\",\"\",\"3-1\",\"4377\",\"39\",\"1\",\"Training\",\"Stims/Figures/7-C-20-4.bmp\",\"paka:ta\",\"Left\",\"39\",\"3\",\"10\",\"5\",\"P\",\"C\",\"42\"
\"\",\"\",\"approach-retreat\",\"46\",\"501207\",\"0.0-46.0\",\"\",\"\",\"3-1\",\"5078\",\"37\",\"1\",\"Training\",\"Stims/Figures/102-C-20-4.bmp\",\"taka:ta\",\"Right\",\"37\",\"3\",\"11\",\"5\",\"P\",\"C\",\"43\"
\"\",\"\",\"approach-retreat\",\"47\",\"507449\",\"0.0-47.0\",\"\",\"\",\"3-1\",\"4737\",\"39\",\"1\",\"Training\",\"Stims/Figures/57-J-0-1.bmp\",\"na:ma:la\",\"Right\",\"39\",\"3\",\"12\",\"5\",\"S\",\"C\",\"44\"
\"\",\"\",\"approach-retreat\",\"48\",\"513514\",\"0.0-48.0\",\"\",\"\",\"3-1\",\"4559\",\"37\",\"0\",\"Training\",\"Stims/Figures/139-J-0-2.bmp\",\"na:la:la\",\"Right\",\"39\",\"3\",\"13\",\"5\",\"S\",\"C\",\"45\"
\"\",\"\",\"approach-retreat\",\"49\",\"521519\",\"0.0-49.0\",\"\",\"\",\"3-1\",\"6499\",\"40\",\"1\",\"Training\",\"Stims/Figures/118-J-0-2.bmp\",\"nama:la\",\"Down\",\"40\",\"3\",\"14\",\"5\",\"S\",\"C\",\"46\"
\"\",\"\",\"approach-retreat\",\"50\",\"527499\",\"0.0-50.0\",\"\",\"\",\"3-1\",\"4472\",\"39\",\"1\",\"Training\",\"Stims/Figures/139-C-20-2.bmp\",\"takata\",\"Left\",\"39\",\"3\",\"15\",\"5\",\"P\",\"C\",\"47\"
\"\",\"\",\"approach-retreat\",\"51\",\"533752\",\"0.0-51.0\",\"\",\"\",\"3-1\",\"4747\",\"38\",\"1\",\"Training\",\"Stims/Figures/102-J-10-4.bmp\",\"na:lala\",\"Up\",\"38\",\"3\",\"16\",\"5\",\"S\",\"C\",\"48\"
\"\",\"\",\"approach-retreat\",\"52\",\"541356\",\"0.0-52.0\",\"\",\"\",\"3-1\",\"6099\",\"39\",\"1\",\"Training\",\"Stims/Figures/57-J-0-1.bmp\",\"na:ma:la\",\"Right\",\"39\",\"4\",\"1\",\"5\",\"S\",\"C\",\"49\"
\"\",\"\",\"approach-retreat\",\"53\",\"547603\",\"0.0-53.0\",\"\",\"\",\"3-1\",\"4741\",\"40\",\"1\",\"Training\",\"Stims/Figures/27-J-0-1.bmp\",\"mama:la\",\"Down\",\"40\",\"4\",\"2\",\"5\",\"S\",\"C\",\"50\"
\"\",\"\",\"approach-retreat\",\"54\",\"554327\",\"0.0-54.0\",\"\",\"\",\"3-1\",\"5220\",\"37\",\"1\",\"Training\",\"Stims/Figures/118-J-0-2.bmp\",\"nama:la\",\"Left\",\"37\",\"4\",\"3\",\"5\",\"S\",\"C\",\"51\"
\"\",\"\",\"approach-retreat\",\"55\",\"560819\",\"0.0-55.0\",\"\",\"\",\"3-1\",\"4986\",\"37\",\"1\",\"Training\",\"Stims/Figures/118-C-20-2.bmp\",\"papa:ta\",\"Right\",\"37\",\"4\",\"4\",\"5\",\"P\",\"C\",\"52\"
\"\",\"\",\"approach-retreat\",\"56\",\"567346\",\"0.0-56.0\",\"\",\"\",\"3-1\",\"5023\",\"39\",\"1\",\"Training\",\"Stims/Figures/7-C-20-4.bmp\",\"paka:ta\",\"Left\",\"39\",\"4\",\"5\",\"5\",\"P\",\"C\",\"53\"
\"\",\"\",\"approach-retreat\",\"57\",\"573989\",\"0.0-57.0\",\"\",\"\",\"3-1\",\"5138\",\"40\",\"1\",\"Training\",\"Stims/Figures/139-C-20-2.bmp\",\"takata\",\"Up\",\"40\",\"4\",\"6\",\"5\",\"P\",\"C\",\"54\"
\"\",\"\",\"approach-retreat\",\"58\",\"580479\",\"0.0-58.0\",\"\",\"\",\"3-1\",\"4983\",\"38\",\"1\",\"Training\",\"Stims/Figures/27-C-30-1.bmp\",\"pa:ka:ta\",\"Down\",\"38\",\"4\",\"7\",\"5\",\"P\",\"C\",\"55\"
\"\",\"\",\"approach-retreat\",\"59\",\"587251\",\"0.0-59.0\",\"\",\"\",\"3-1\",\"5266\",\"38\",\"1\",\"Training\",\"Stims/Figures/102-J-10-4.bmp\",\"na:lala\",\"Up\",\"38\",\"4\",\"8\",\"5\",\"S\",\"C\",\"56\"
\"\",\"\",\"approach-retreat\",\"60\",\"593054\",\"0.0-60.0\",\"\",\"\",\"3-1\",\"4296\",\"39\",\"1\",\"Training\",\"Stims/Figures/44-J-10-3.bmp\",\"ma:la:na\",\"Right\",\"39\",\"4\",\"9\",\"5\",\"S\",\"C\",\"57\"
\"\",\"\",\"approach-retreat\",\"61\",\"599760\",\"0.0-61.0\",\"\",\"\",\"3-1\",\"5200\",\"39\",\"1\",\"Training\",\"Stims/Figures/57-C-30-1.bmp\",\"tapa:ka\",\"Left\",\"39\",\"4\",\"10\",\"5\",\"P\",\"C\",\"58\"
\"\",\"\",\"approach-retreat\",\"62\",\"605877\",\"0.0-62.0\",\"\",\"\",\"3-1\",\"4611\",\"38\",\"1\",\"Training\",\"Stims/Figures/7-J-10-4.bmp\",\"na:la:na\",\"Up\",\"38\",\"4\",\"11\",\"5\",\"S\",\"C\",\"59\"
\"\",\"\",\"approach-retreat\",\"63\",\"611740\",\"0.0-63.0\",\"\",\"\",\"3-1\",\"4359\",\"37\",\"1\",\"Training\",\"Stims/Figures/102-C-20-4.bmp\",\"taka:ta\",\"Right\",\"37\",\"4\",\"12\",\"5\",\"P\",\"C\",\"60\"
\"\",\"\",\"approach-retreat\",\"64\",\"618684\",\"0.0-64.0\",\"\",\"\",\"3-1\",\"5438\",\"38\",\"1\",\"Training\",\"Stims/Figures/100-C-30-3.bmp\",\"pakata\",\"Down\",\"38\",\"4\",\"13\",\"5\",\"P\",\"C\",\"61\"
\"\",\"\",\"approach-retreat\",\"65\",\"624620\",\"0.0-65.0\",\"\",\"\",\"3-1\",\"4431\",\"39\",\"0\",\"Training\",\"Stims/Figures/139-J-0-2.bmp\",\"na:la:la\",\"Left\",\"37\",\"4\",\"14\",\"5\",\"S\",\"C\",\"62\"
\"\",\"\",\"approach-retreat\",\"66\",\"631423\",\"0.0-66.0\",\"\",\"\",\"3-1\",\"5298\",\"40\",\"1\",\"Training\",\"Stims/Figures/44-C-30-3.bmp\",\"taka:ka\",\"Up\",\"40\",\"4\",\"15\",\"5\",\"P\",\"C\",\"63\"
\"\",\"\",\"approach-retreat\",\"67\",\"637380\",\"0.0-67.0\",\"\",\"\",\"3-1\",\"4449\",\"40\",\"1\",\"Training\",\"Stims/Figures/100-J-10-3.bmp\",\"ma:ma:la\",\"Down\",\"40\",\"4\",\"16\",\"5\",\"S\",\"C\",\"64\"
\"\",\"\",\"approach-retreat\",\"68\",\"644108\",\"0.0-68.0\",\"\",\"\",\"3-1\",\"5222\",\"39\",\"1\",\"Training\",\"Stims/Figures/118-J-0-2.bmp\",\"nama:la\",\"Right\",\"39\",\"5\",\"1\",\"5\",\"S\",\"C\",\"65\"
\"\",\"\",\"approach-retreat\",\"69\",\"649793\",\"0.0-69.0\",\"\",\"\",\"3-1\",\"4178\",\"38\",\"1\",\"Training\",\"Stims/Figures/7-C-20-4.bmp\",\"paka:ta\",\"Down\",\"38\",\"5\",\"2\",\"5\",\"P\",\"C\",\"66\"
\"\",\"\",\"approach-retreat\",\"70\",\"658003\",\"0.0-70.0\",\"\",\"\",\"3-1\",\"6704\",\"40\",\"1\",\"Training\",\"Stims/Figures/102-C-20-4.bmp\",\"taka:ta\",\"Up\",\"40\",\"5\",\"3\",\"5\",\"P\",\"C\",\"67\"
\"\",\"\",\"approach-retreat\",\"71\",\"664157\",\"0.0-71.0\",\"\",\"\",\"3-1\",\"4648\",\"37\",\"1\",\"Training\",\"Stims/Figures/100-J-10-3.bmp\",\"ma:ma:la\",\"Left\",\"37\",\"5\",\"4\",\"5\",\"S\",\"C\",\"68\"
\"\",\"\",\"approach-retreat\",\"72\",\"670506\",\"0.0-72.0\",\"\",\"\",\"3-1\",\"4845\",\"38\",\"1\",\"Training\",\"Stims/Figures/27-J-0-1.bmp\",\"mama:la\",\"Up\",\"38\",\"5\",\"5\",\"5\",\"S\",\"C\",\"69\"
\"\",\"\",\"approach-retreat\",\"73\",\"677061\",\"0.0-73.0\",\"\",\"\",\"3-1\",\"5051\",\"38\",\"1\",\"Training\",\"Stims/Figures/7-J-10-4.bmp\",\"na:la:na\",\"Up\",\"38\",\"5\",\"6\",\"5\",\"S\",\"C\",\"70\"
\"\",\"\",\"approach-retreat\",\"74\",\"683829\",\"0.0-74.0\",\"\",\"\",\"3-1\",\"5263\",\"39\",\"1\",\"Training\",\"Stims/Figures/102-J-10-4.bmp\",\"na:lala\",\"Right\",\"39\",\"5\",\"7\",\"5\",\"S\",\"C\",\"71\"
\"\",\"\",\"approach-retreat\",\"75\",\"689906\",\"0.0-75.0\",\"\",\"\",\"3-1\",\"4571\",\"37\",\"0\",\"Training\",\"Stims/Figures/139-C-20-2.bmp\",\"takata\",\"Left\",\"39\",\"5\",\"8\",\"5\",\"P\",\"C\",\"72\"
\"\",\"\",\"approach-retreat\",\"76\",\"696460\",\"0.0-76.0\",\"\",\"\",\"3-1\",\"5050\",\"37\",\"1\",\"Training\",\"Stims/Figures/44-J-10-3.bmp\",\"ma:la:na\",\"Left\",\"37\",\"5\",\"9\",\"5\",\"S\",\"C\",\"73\"
\"\",\"\",\"approach-retreat\",\"77\",\"702141\",\"0.0-77.0\",\"\",\"\",\"3-1\",\"4176\",\"37\",\"1\",\"Training\",\"Stims/Figures/100-C-30-3.bmp\",\"pakata\",\"Right\",\"37\",\"5\",\"10\",\"5\",\"P\",\"C\",\"74\"
\"\",\"\",\"approach-retreat\",\"78\",\"708469\",\"0.0-78.0\",\"\",\"\",\"3-1\",\"4824\",\"37\",\"1\",\"Training\",\"Stims/Figures/57-J-0-1.bmp\",\"na:ma:la\",\"Left\",\"37\",\"5\",\"11\",\"5\",\"S\",\"C\",\"75\"
\"\",\"\",\"approach-retreat\",\"79\",\"714494\",\"0.0-79.0\",\"\",\"\",\"3-1\",\"4521\",\"37\",\"1\",\"Training\",\"Stims/Figures/27-C-30-1.bmp\",\"pa:ka:ta\",\"Right\",\"37\",\"5\",\"12\",\"5\",\"P\",\"C\",\"76\"
\"\",\"\",\"approach-retreat\",\"80\",\"721532\",\"0.0-80.0\",\"\",\"\",\"3-1\",\"5532\",\"40\",\"1\",\"Training\",\"Stims/Figures/139-J-0-2.bmp\",\"na:la:la\",\"Down\",\"40\",\"5\",\"13\",\"5\",\"S\",\"C\",\"77\"
\"\",\"\",\"approach-retreat\",\"81\",\"728655\",\"0.0-81.0\",\"\",\"\",\"3-1\",\"5616\",\"38\",\"0\",\"Training\",\"Stims/Figures/57-C-30-1.bmp\",\"tapa:ka\",\"Up\",\"40\",\"5\",\"14\",\"5\",\"P\",\"C\",\"78\"
\"\",\"\",\"approach-retreat\",\"82\",\"734533\",\"0.0-82.0\",\"\",\"\",\"3-1\",\"4373\",\"38\",\"1\",\"Training\",\"Stims/Figures/118-C-20-2.bmp\",\"papa:ta\",\"Down\",\"38\",\"5\",\"15\",\"5\",\"P\",\"C\",\"79\"
\"\",\"\",\"approach-retreat\",\"83\",\"740630\",\"0.0-83.0\",\"\",\"\",\"3-1\",\"4592\",\"38\",\"1\",\"Training\",\"Stims/Figures/44-C-30-3.bmp\",\"taka:ka\",\"Down\",\"38\",\"5\",\"16\",\"5\",\"P\",\"C\",\"80\"
\"\",\"\",\"approach-retreat\",\"84\",\"746416\",\"0.0-84.0\",\"\",\"\",\"3-1\",\"4281\",\"37\",\"1\",\"Training\",\"Stims/Figures/27-C-30-1.bmp\",\"pa:ka:ta\",\"Right\",\"37\",\"6\",\"1\",\"5\",\"P\",\"C\",\"81\"
\"\",\"\",\"approach-retreat\",\"85\",\"752196\",\"0.0-85.0\",\"\",\"\",\"3-1\",\"4274\",\"39\",\"1\",\"Training\",\"Stims/Figures/139-C-20-2.bmp\",\"takata\",\"Left\",\"39\",\"6\",\"2\",\"5\",\"P\",\"C\",\"82\"
\"\",\"\",\"approach-retreat\",\"86\",\"757947\",\"0.0-86.0\",\"\",\"\",\"3-1\",\"4247\",\"37\",\"1\",\"Training\",\"Stims/Figures/102-J-10-4.bmp\",\"na:lala\",\"Left\",\"37\",\"6\",\"3\",\"5\",\"S\",\"C\",\"83\"
\"\",\"\",\"approach-retreat\",\"87\",\"765481\",\"0.0-87.0\",\"\",\"\",\"3-1\",\"6029\",\"38\",\"1\",\"Training\",\"Stims/Figures/44-J-10-3.bmp\",\"ma:la:na\",\"Up\",\"38\",\"6\",\"4\",\"5\",\"S\",\"C\",\"84\"
\"\",\"\",\"approach-retreat\",\"88\",\"772837\",\"0.0-88.0\",\"\",\"\",\"3-1\",\"5848\",\"40\",\"1\",\"Training\",\"Stims/Figures/102-C-20-4.bmp\",\"taka:ta\",\"Up\",\"40\",\"6\",\"5\",\"5\",\"P\",\"C\",\"85\"
\"\",\"\",\"approach-retreat\",\"89\",\"778541\",\"0.0-89.0\",\"\",\"\",\"3-1\",\"4198\",\"37\",\"1\",\"Training\",\"Stims/Figures/139-J-0-2.bmp\",\"na:la:la\",\"Left\",\"37\",\"6\",\"6\",\"5\",\"S\",\"C\",\"86\"
\"\",\"\",\"approach-retreat\",\"90\",\"784249\",\"0.0-90.0\",\"\",\"\",\"3-1\",\"4201\",\"37\",\"1\",\"Training\",\"Stims/Figures/44-C-30-3.bmp\",\"taka:ka\",\"Right\",\"37\",\"6\",\"7\",\"5\",\"P\",\"C\",\"87\"
\"\",\"\",\"approach-retreat\",\"91\",\"789999\",\"0.0-91.0\",\"\",\"\",\"3-1\",\"4242\",\"39\",\"1\",\"Training\",\"Stims/Figures/7-J-10-4.bmp\",\"na:la:na\",\"Right\",\"39\",\"6\",\"8\",\"5\",\"S\",\"C\",\"88\"
\"\",\"\",\"approach-retreat\",\"92\",\"795827\",\"0.0-92.0\",\"\",\"\",\"3-1\",\"4316\",\"38\",\"1\",\"Training\",\"Stims/Figures/118-C-20-2.bmp\",\"papa:ta\",\"Down\",\"38\",\"6\",\"9\",\"5\",\"P\",\"C\",\"89\"
\"\",\"\",\"approach-retreat\",\"93\",\"802786\",\"0.0-93.0\",\"\",\"\",\"3-1\",\"5453\",\"37\",\"1\",\"Training\",\"Stims/Figures/100-C-30-3.bmp\",\"pakata\",\"Right\",\"37\",\"6\",\"10\",\"5\",\"P\",\"C\",\"90\"
\"\",\"\",\"approach-retreat\",\"94\",\"808713\",\"0.0-94.0\",\"\",\"\",\"3-1\",\"4422\",\"40\",\"1\",\"Training\",\"Stims/Figures/27-J-0-1.bmp\",\"mama:la\",\"Down\",\"40\",\"6\",\"11\",\"5\",\"S\",\"C\",\"91\"
\"\",\"\",\"approach-retreat\",\"95\",\"814538\",\"0.0-95.0\",\"\",\"\",\"3-1\",\"4319\",\"40\",\"1\",\"Training\",\"Stims/Figures/100-J-10-3.bmp\",\"ma:ma:la\",\"Down\",\"40\",\"6\",\"12\",\"5\",\"S\",\"C\",\"92\"
\"\",\"\",\"approach-retreat\",\"96\",\"820911\",\"0.0-96.0\",\"\",\"\",\"3-1\",\"4870\",\"38\",\"1\",\"Training\",\"Stims/Figures/118-J-0-2.bmp\",\"nama:la\",\"Up\",\"38\",\"6\",\"13\",\"5\",\"S\",\"C\",\"93\"
\"\",\"\",\"approach-retreat\",\"97\",\"826654\",\"0.0-97.0\",\"\",\"\",\"3-1\",\"4239\",\"37\",\"1\",\"Training\",\"Stims/Figures/57-J-0-1.bmp\",\"na:ma:la\",\"Left\",\"37\",\"6\",\"14\",\"5\",\"S\",\"C\",\"94\"
\"\",\"\",\"approach-retreat\",\"98\",\"832589\",\"0.0-98.0\",\"\",\"\",\"3-1\",\"4426\",\"40\",\"1\",\"Training\",\"Stims/Figures/7-C-20-4.bmp\",\"paka:ta\",\"Up\",\"40\",\"6\",\"15\",\"5\",\"P\",\"C\",\"95\"
\"\",\"\",\"approach-retreat\",\"99\",\"839259\",\"0.0-99.0\",\"\",\"\",\"3-1\",\"5160\",\"38\",\"1\",\"Training\",\"Stims/Figures/57-C-30-1.bmp\",\"tapa:ka\",\"Down\",\"38\",\"6\",\"16\",\"5\",\"P\",\"C\",\"96\"
\"\",\"\",\"approach-retreat\",\"100\",\"845267\",\"0.0-100.0\",\"\",\"\",\"3-1\",\"4499\",\"37\",\"1\",\"Training\",\"Stims/Figures/44-J-10-3.bmp\",\"ma:la:na\",\"Left\",\"37\",\"7\",\"1\",\"5\",\"S\",\"C\",\"97\"
\"\",\"\",\"approach-retreat\",\"101\",\"851793\",\"0.0-101.0\",\"\",\"\",\"3-1\",\"5021\",\"39\",\"1\",\"Training\",\"Stims/Figures/102-J-10-4.bmp\",\"na:lala\",\"Right\",\"39\",\"7\",\"2\",\"5\",\"S\",\"C\",\"98\"
\"\",\"\",\"approach-retreat\",\"102\",\"858071\",\"0.0-102.0\",\"\",\"\",\"3-1\",\"4773\",\"40\",\"1\",\"Training\",\"Stims/Figures/27-J-0-1.bmp\",\"mama:la\",\"Down\",\"40\",\"7\",\"3\",\"5\",\"S\",\"C\",\"99\"
\"\",\"\",\"approach-retreat\",\"103\",\"863980\",\"0.0-103.0\",\"\",\"\",\"3-1\",\"4404\",\"40\",\"1\",\"Training\",\"Stims/Figures/139-J-0-2.bmp\",\"na:la:la\",\"Down\",\"40\",\"7\",\"4\",\"5\",\"S\",\"C\",\"100\"
\"\",\"\",\"approach-retreat\",\"104\",\"870653\",\"0.0-104.0\",\"\",\"\",\"3-1\",\"5168\",\"39\",\"1\",\"Training\",\"Stims/Figures/100-J-10-3.bmp\",\"ma:ma:la\",\"Right\",\"39\",\"7\",\"5\",\"5\",\"S\",\"C\",\"101\"
\"\",\"\",\"approach-retreat\",\"105\",\"876498\",\"0.0-105.0\",\"\",\"\",\"3-1\",\"4340\",\"37\",\"1\",\"Training\",\"Stims/Figures/118-J-0-2.bmp\",\"nama:la\",\"Left\",\"37\",\"7\",\"6\",\"5\",\"S\",\"C\",\"102\"
\"\",\"\",\"approach-retreat\",\"106\",\"882205\",\"0.0-106.0\",\"\",\"\",\"3-1\",\"4202\",\"38\",\"1\",\"Training\",\"Stims/Figures/7-C-20-4.bmp\",\"paka:ta\",\"Down\",\"38\",\"7\",\"7\",\"5\",\"P\",\"C\",\"103\"
\"\",\"\",\"approach-retreat\",\"107\",\"888101\",\"0.0-107.0\",\"\",\"\",\"3-1\",\"4391\",\"37\",\"1\",\"Training\",\"Stims/Figures/100-C-30-3.bmp\",\"pakata\",\"Right\",\"37\",\"7\",\"8\",\"5\",\"P\",\"C\",\"104\"
\"\",\"\",\"approach-retreat\",\"108\",\"894482\",\"0.0-108.0\",\"\",\"\",\"3-1\",\"4873\",\"40\",\"1\",\"Training\",\"Stims/Figures/139-C-20-2.bmp\",\"takata\",\"Up\",\"40\",\"7\",\"9\",\"5\",\"P\",\"C\",\"105\"
\"\",\"\",\"approach-retreat\",\"109\",\"900255\",\"0.0-109.0\",\"\",\"\",\"3-1\",\"4266\",\"38\",\"1\",\"Training\",\"Stims/Figures/7-J-10-4.bmp\",\"na:la:na\",\"Up\",\"38\",\"7\",\"10\",\"5\",\"S\",\"C\",\"106\"
\"\",\"\",\"approach-retreat\",\"110\",\"907238\",\"0.0-110.0\",\"\",\"\",\"3-1\",\"5475\",\"37\",\"1\",\"Training\",\"Stims/Figures/44-C-30-3.bmp\",\"taka:ka\",\"Right\",\"37\",\"7\",\"11\",\"5\",\"P\",\"C\",\"107\"
\"\",\"\",\"approach-retreat\",\"111\",\"913089\",\"0.0-111.0\",\"\",\"\",\"3-1\",\"4347\",\"40\",\"1\",\"Training\",\"Stims/Figures/57-J-0-1.bmp\",\"na:ma:la\",\"Down\",\"40\",\"7\",\"12\",\"5\",\"S\",\"C\",\"108\"
\"\",\"\",\"approach-retreat\",\"112\",\"918973\",\"0.0-112.0\",\"\",\"\",\"3-1\",\"4379\",\"39\",\"1\",\"Training\",\"Stims/Figures/27-C-30-1.bmp\",\"pa:ka:ta\",\"Left\",\"39\",\"7\",\"13\",\"5\",\"P\",\"C\",\"109\"
\"\",\"\",\"approach-retreat\",\"113\",\"924791\",\"0.0-113.0\",\"\",\"\",\"3-1\",\"4312\",\"40\",\"1\",\"Training\",\"Stims/Figures/57-C-30-1.bmp\",\"tapa:ka\",\"Up\",\"40\",\"7\",\"14\",\"5\",\"P\",\"C\",\"110\"
\"\",\"\",\"approach-retreat\",\"114\",\"931015\",\"0.0-114.0\",\"\",\"\",\"3-1\",\"4716\",\"40\",\"1\",\"Training\",\"Stims/Figures/102-C-20-4.bmp\",\"taka:ta\",\"Up\",\"40\",\"7\",\"15\",\"5\",\"P\",\"C\",\"111\"
\"\",\"\",\"approach-retreat\",\"115\",\"936759\",\"0.0-115.0\",\"\",\"\",\"3-1\",\"4234\",\"39\",\"1\",\"Training\",\"Stims/Figures/118-C-20-2.bmp\",\"papa:ta\",\"Left\",\"39\",\"7\",\"16\",\"5\",\"P\",\"C\",\"112\"
\"\",\"\",\"approach-retreat\",\"116\",\"945020\",\"0.0-116.0\",\"\",\"\",\"3-1\",\"6756\",\"37\",\"1\",\"Training\",\"Stims/Figures/27-J-0-1.bmp\",\"mama:la\",\"Left\",\"37\",\"8\",\"1\",\"5\",\"S\",\"C\",\"113\"
\"\",\"\",\"approach-retreat\",\"117\",\"950775\",\"0.0-117.0\",\"\",\"\",\"3-1\",\"4250\",\"37\",\"1\",\"Training\",\"Stims/Figures/100-C-30-3.bmp\",\"pakata\",\"Right\",\"37\",\"8\",\"2\",\"5\",\"P\",\"C\",\"114\"
\"\",\"\",\"approach-retreat\",\"118\",\"957096\",\"0.0-118.0\",\"\",\"\",\"3-1\",\"4813\",\"39\",\"1\",\"Training\",\"Stims/Figures/44-J-10-3.bmp\",\"ma:la:na\",\"Right\",\"39\",\"8\",\"3\",\"5\",\"S\",\"C\",\"115\"
\"\",\"\",\"approach-retreat\",\"119\",\"964218\",\"0.0-119.0\",\"\",\"\",\"3-1\",\"5616\",\"40\",\"1\",\"Training\",\"Stims/Figures/57-J-0-1.bmp\",\"na:ma:la\",\"Down\",\"40\",\"8\",\"4\",\"5\",\"S\",\"C\",\"116\"
\"\",\"\",\"approach-retreat\",\"120\",\"971582\",\"0.0-120.0\",\"\",\"\",\"3-1\",\"5859\",\"37\",\"1\",\"Training\",\"Stims/Figures/139-J-0-2.bmp\",\"na:la:la\",\"Left\",\"37\",\"8\",\"5\",\"5\",\"S\",\"C\",\"117\"
\"\",\"\",\"approach-retreat\",\"121\",\"977200\",\"0.0-121.0\",\"\",\"\",\"3-1\",\"4110\",\"38\",\"1\",\"Training\",\"Stims/Figures/102-C-20-4.bmp\",\"taka:ta\",\"Down\",\"38\",\"8\",\"6\",\"5\",\"P\",\"C\",\"118\"
\"\",\"\",\"approach-retreat\",\"122\",\"982812\",\"0.0-122.0\",\"\",\"\",\"3-1\",\"4107\",\"39\",\"1\",\"Training\",\"Stims/Figures/7-C-20-4.bmp\",\"paka:ta\",\"Left\",\"39\",\"8\",\"7\",\"5\",\"P\",\"C\",\"119\"
\"\",\"\",\"approach-retreat\",\"123\",\"988721\",\"0.0-123.0\",\"\",\"\",\"3-1\",\"4403\",\"40\",\"1\",\"Training\",\"Stims/Figures/57-C-30-1.bmp\",\"tapa:ka\",\"Up\",\"40\",\"8\",\"8\",\"5\",\"P\",\"C\",\"120\"
\"\",\"\",\"approach-retreat\",\"124\",\"994512\",\"0.0-124.0\",\"\",\"\",\"3-1\",\"4283\",\"40\",\"1\",\"Training\",\"Stims/Figures/44-C-30-3.bmp\",\"taka:ka\",\"Up\",\"40\",\"8\",\"9\",\"5\",\"P\",\"C\",\"121\"
\"\",\"\",\"approach-retreat\",\"125\",\"1000241\",\"0.0-125.0\",\"\",\"\",\"3-1\",\"4218\",\"38\",\"1\",\"Training\",\"Stims/Figures/27-C-30-1.bmp\",\"pa:ka:ta\",\"Down\",\"38\",\"8\",\"10\",\"5\",\"P\",\"C\",\"122\"
\"\",\"\",\"approach-retreat\",\"126\",\"1006602\",\"0.0-126.0\",\"\",\"\",\"3-1\",\"4852\",\"39\",\"1\",\"Training\",\"Stims/Figures/7-J-10-4.bmp\",\"na:la:na\",\"Right\",\"39\",\"8\",\"11\",\"5\",\"S\",\"C\",\"123\"
\"\",\"\",\"approach-retreat\",\"127\",\"1014837\",\"0.0-127.0\",\"\",\"\",\"3-1\",\"6727\",\"39\",\"1\",\"Training\",\"Stims/Figures/102-J-10-4.bmp\",\"na:lala\",\"Right\",\"39\",\"8\",\"12\",\"5\",\"S\",\"C\",\"124\"
\"\",\"\",\"approach-retreat\",\"128\",\"1021081\",\"0.0-128.0\",\"\",\"\",\"3-1\",\"4735\",\"40\",\"1\",\"Training\",\"Stims/Figures/118-J-0-2.bmp\",\"nama:la\",\"Down\",\"40\",\"8\",\"13\",\"5\",\"S\",\"C\",\"125\"
\"\",\"\",\"approach-retreat\",\"129\",\"1026883\",\"0.0-129.0\",\"\",\"\",\"3-1\",\"4297\",\"39\",\"1\",\"Training\",\"Stims/Figures/118-C-20-2.bmp\",\"papa:ta\",\"Left\",\"39\",\"8\",\"14\",\"5\",\"P\",\"C\",\"126\"
\"\",\"\",\"approach-retreat\",\"130\",\"1032753\",\"0.0-130.0\",\"\",\"\",\"3-1\",\"4364\",\"40\",\"1\",\"Training\",\"Stims/Figures/139-C-20-2.bmp\",\"takata\",\"Up\",\"40\",\"8\",\"15\",\"5\",\"P\",\"C\",\"127\"
\"\",\"\",\"approach-retreat\",\"131\",\"1039189\",\"0.0-131.0\",\"\",\"\",\"3-1\",\"4931\",\"38\",\"1\",\"Training\",\"Stims/Figures/100-J-10-3.bmp\",\"ma:ma:la\",\"Up\",\"38\",\"8\",\"16\",\"5\",\"S\",\"C\",\"128\"
\"\",\"\",\"approach-retreat\",\"132\",\"1045173\",\"0.0-132.0\",\"\",\"\",\"3-1\",\"4479\",\"40\",\"1\",\"Training\",\"Stims/Figures/57-C-30-1.bmp\",\"tapa:ka\",\"Up\",\"40\",\"9\",\"1\",\"5\",\"P\",\"C\",\"129\"
\"\",\"\",\"approach-retreat\",\"133\",\"1050838\",\"0.0-133.0\",\"\",\"\",\"3-1\",\"4158\",\"39\",\"1\",\"Training\",\"Stims/Figures/57-J-0-1.bmp\",\"na:ma:la\",\"Right\",\"39\",\"9\",\"2\",\"5\",\"S\",\"C\",\"130\"
\"\",\"\",\"approach-retreat\",\"134\",\"1056531\",\"0.0-134.0\",\"\",\"\",\"3-1\",\"4187\",\"39\",\"1\",\"Training\",\"Stims/Figures/118-J-0-2.bmp\",\"nama:la\",\"Right\",\"39\",\"9\",\"3\",\"5\",\"S\",\"C\",\"131\"
\"\",\"\",\"approach-retreat\",\"135\",\"1062102\",\"0.0-135.0\",\"\",\"\",\"3-1\",\"4065\",\"37\",\"1\",\"Training\",\"Stims/Figures/100-C-30-3.bmp\",\"pakata\",\"Right\",\"37\",\"9\",\"4\",\"5\",\"P\",\"C\",\"132\"
\"\",\"\",\"approach-retreat\",\"136\",\"1068037\",\"0.0-136.0\",\"\",\"\",\"3-1\",\"4428\",\"40\",\"1\",\"Training\",\"Stims/Figures/27-J-0-1.bmp\",\"mama:la\",\"Down\",\"40\",\"9\",\"5\",\"5\",\"S\",\"C\",\"133\"
\"\",\"\",\"approach-retreat\",\"137\",\"1074160\",\"0.0-137.0\",\"\",\"\",\"3-1\",\"4618\",\"40\",\"1\",\"Training\",\"Stims/Figures/7-J-10-4.bmp\",\"na:la:na\",\"Down\",\"40\",\"9\",\"6\",\"5\",\"S\",\"C\",\"134\"
\"\",\"\",\"approach-retreat\",\"138\",\"1081090\",\"0.0-138.0\",\"\",\"\",\"3-1\",\"5424\",\"38\",\"1\",\"Training\",\"Stims/Figures/139-J-0-2.bmp\",\"na:la:la\",\"Up\",\"38\",\"9\",\"7\",\"5\",\"S\",\"C\",\"135\"
\"\",\"\",\"approach-retreat\",\"139\",\"1086929\",\"0.0-139.0\",\"\",\"\",\"3-1\",\"4334\",\"38\",\"1\",\"Training\",\"Stims/Figures/100-J-10-3.bmp\",\"ma:ma:la\",\"Up\",\"38\",\"9\",\"8\",\"5\",\"S\",\"C\",\"136\"
\"\",\"\",\"approach-retreat\",\"140\",\"1093296\",\"0.0-140.0\",\"\",\"\",\"3-1\",\"4862\",\"39\",\"1\",\"Training\",\"Stims/Figures/7-C-20-4.bmp\",\"paka:ta\",\"Left\",\"39\",\"9\",\"9\",\"5\",\"P\",\"C\",\"137\"
\"\",\"\",\"approach-retreat\",\"141\",\"1099237\",\"0.0-141.0\",\"\",\"\",\"3-1\",\"4436\",\"39\",\"0\",\"Training\",\"Stims/Figures/139-C-20-2.bmp\",\"takata\",\"Right\",\"37\",\"9\",\"10\",\"5\",\"P\",\"C\",\"138\"
\"\",\"\",\"approach-retreat\",\"142\",\"1105231\",\"0.0-142.0\",\"\",\"\",\"3-1\",\"4488\",\"39\",\"1\",\"Training\",\"Stims/Figures/102-C-20-4.bmp\",\"taka:ta\",\"Left\",\"39\",\"9\",\"11\",\"5\",\"P\",\"C\",\"139\"
\"\",\"\",\"approach-retreat\",\"143\",\"1113954\",\"0.0-143.0\",\"\",\"\",\"3-1\",\"7218\",\"40\",\"1\",\"Training\",\"Stims/Figures/44-C-30-3.bmp\",\"taka:ka\",\"Up\",\"40\",\"9\",\"12\",\"5\",\"P\",\"C\",\"140\"
\"\",\"\",\"approach-retreat\",\"144\",\"1119789\",\"0.0-144.0\",\"\",\"\",\"3-1\",\"4329\",\"37\",\"1\",\"Training\",\"Stims/Figures/44-J-10-3.bmp\",\"ma:la:na\",\"Left\",\"37\",\"9\",\"13\",\"5\",\"S\",\"C\",\"141\"
\"\",\"\",\"approach-retreat\",\"145\",\"1126528\",\"0.0-145.0\",\"\",\"\",\"3-1\",\"5233\",\"38\",\"1\",\"Training\",\"Stims/Figures/27-C-30-1.bmp\",\"pa:ka:ta\",\"Down\",\"38\",\"9\",\"14\",\"5\",\"P\",\"C\",\"142\"
\"\",\"\",\"approach-retreat\",\"146\",\"1132907\",\"0.0-146.0\",\"\",\"\",\"3-1\",\"4871\",\"37\",\"1\",\"Training\",\"Stims/Figures/102-J-10-4.bmp\",\"na:lala\",\"Left\",\"37\",\"9\",\"15\",\"5\",\"S\",\"C\",\"143\"
\"\",\"\",\"approach-retreat\",\"147\",\"1138570\",\"0.0-147.0\",\"\",\"\",\"3-1\",\"4156\",\"38\",\"1\",\"Training\",\"Stims/Figures/118-C-20-2.bmp\",\"papa:ta\",\"Down\",\"38\",\"9\",\"16\",\"5\",\"P\",\"C\",\"144\"
\"15966\",\"\",\"instructions\",\"148\",\"1154536\",\"0.0-148.0\",\"[{\"\"page_index\"\":0,\"\"viewing_time\"\":15966}]\",\"\",\"\",\"\",\"\",\"\",\"\",\"\",\"\",\"\",\"\",\"\",\"\",\"\",\"\",\"\",\"\"
\"\",\"\",\"approach-retreat\",\"149\",\"1166327\",\"0.0-149.0\",\"\",\"\",\"3-1\",\"10286\",\"40\",\"1\",\"Testing\",\"Stims/Figures/100-C-30-3.bmp\",\"pakata\",\"Up\",\"40\",\"1\",\"1\",\"5\",\"P\",\"C\",\"1\"
\"\",\"\",\"approach-retreat\",\"150\",\"1173043\",\"0.0-150.0\",\"\",\"\",\"3-1\",\"5202\",\"37\",\"0\",\"Testing\",\"Stims/Figures/128-J-10-3.bmp\",\"mama:na\",\"Right\",\"39\",\"1\",\"2\",\"5\",\"S\",\"C\",\"2\"
\"\",\"\",\"approach-retreat\",\"151\",\"1178782\",\"0.0-151.0\",\"\",\"\",\"3-1\",\"4235\",\"37\",\"0\",\"Testing\",\"Stims/Figures/44-J-10-3.bmp\",\"ma:la:na\",\"Right\",\"39\",\"1\",\"3\",\"5\",\"S\",\"C\",\"3\"
\"\",\"\",\"approach-retreat\",\"152\",\"1184786\",\"0.0-152.0\",\"\",\"\",\"3-1\",\"4499\",\"40\",\"1\",\"Testing\",\"Stims/Figures/7-J-10-4.bmp\",\"na:la:na\",\"Down\",\"40\",\"1\",\"4\",\"5\",\"S\",\"C\",\"4\"
\"\",\"\",\"approach-retreat\",\"153\",\"1190720\",\"0.0-153.0\",\"\",\"\",\"3-1\",\"4429\",\"38\",\"1\",\"Testing\",\"Stims/Figures/7-C-20-4.bmp\",\"paka:ta\",\"Down\",\"38\",\"1\",\"5\",\"5\",\"P\",\"C\",\"5\"
\"\",\"\",\"approach-retreat\",\"154\",\"1197172\",\"0.0-154.0\",\"\",\"\",\"3-1\",\"4948\",\"38\",\"1\",\"Testing\",\"Stims/Figures/19-J-10-4.bmp\",\"mamala\",\"Up\",\"38\",\"1\",\"6\",\"5\",\"S\",\"C\",\"6\"
\"\",\"\",\"approach-retreat\",\"155\",\"1203956\",\"0.0-155.0\",\"\",\"\",\"3-1\",\"5279\",\"37\",\"0\",\"Testing\",\"Stims/Figures/57-J-0-1.bmp\",\"na:ma:la\",\"Right\",\"39\",\"1\",\"7\",\"5\",\"S\",\"C\",\"7\"
\"\",\"\",\"approach-retreat\",\"156\",\"1209866\",\"0.0-156.0\",\"\",\"\",\"3-1\",\"4406\",\"40\",\"1\",\"Testing\",\"Stims/Figures/118-J-0-2.bmp\",\"nama:la\",\"Down\",\"40\",\"1\",\"8\",\"5\",\"S\",\"C\",\"8\"
\"\",\"\",\"approach-retreat\",\"157\",\"1216509\",\"0.0-157.0\",\"\",\"\",\"3-1\",\"5139\",\"38\",\"0\",\"Testing\",\"Stims/Figures/27-C-30-1.bmp\",\"pa:ka:ta\",\"Up\",\"40\",\"1\",\"9\",\"5\",\"P\",\"C\",\"9\"
\"\",\"\",\"approach-retreat\",\"158\",\"1222097\",\"0.0-158.0\",\"\",\"\",\"3-1\",\"4084\",\"37\",\"0\",\"Testing\",\"Stims/Figures/100-J-10-3.bmp\",\"ma:ma:la\",\"Right\",\"39\",\"1\",\"10\",\"5\",\"S\",\"C\",\"10\"
\"\",\"\",\"approach-retreat\",\"159\",\"1228827\",\"0.0-159.0\",\"\",\"\",\"3-1\",\"5225\",\"40\",\"1\",\"Testing\",\"Stims/Figures/57-C-30-1.bmp\",\"tapa:ka\",\"Up\",\"40\",\"1\",\"11\",\"5\",\"P\",\"C\",\"11\"
\"\",\"\",\"approach-retreat\",\"160\",\"1234541\",\"0.0-160.0\",\"\",\"\",\"3-1\",\"4210\",\"37\",\"0\",\"Testing\",\"Stims/Figures/128-C-30-3.bmp\",\"papa:ka\",\"Left\",\"39\",\"1\",\"12\",\"5\",\"P\",\"C\",\"12\"
\"\",\"\",\"approach-retreat\",\"161\",\"1242247\",\"0.0-161.0\",\"\",\"\",\"3-1\",\"6202\",\"37\",\"1\",\"Testing\",\"Stims/Figures/139-C-20-2.bmp\",\"takata\",\"Right\",\"37\",\"1\",\"13\",\"5\",\"P\",\"C\",\"13\"
\"\",\"\",\"approach-retreat\",\"162\",\"1249454\",\"0.0-162.0\",\"\",\"\",\"3-1\",\"5703\",\"38\",\"1\",\"Testing\",\"Stims/Figures/139-J-0-2.bmp\",\"na:la:la\",\"Up\",\"38\",\"1\",\"14\",\"5\",\"S\",\"C\",\"14\"
\"\",\"\",\"approach-retreat\",\"163\",\"1255490\",\"0.0-163.0\",\"\",\"\",\"3-1\",\"4531\",\"40\",\"1\",\"Testing\",\"Stims/Figures/84-J-0-2.bmp\",\"nala:la\",\"Down\",\"40\",\"1\",\"15\",\"5\",\"S\",\"C\",\"15\"
\"\",\"\",\"approach-retreat\",\"164\",\"1261267\",\"0.0-164.0\",\"\",\"\",\"3-1\",\"4273\",\"37\",\"0\",\"Testing\",\"Stims/Figures/84-C-20-2.bmp\",\"pa:pa:ka\",\"Left\",\"39\",\"1\",\"16\",\"5\",\"P\",\"C\",\"16\"
\"\",\"\",\"approach-retreat\",\"165\",\"1267566\",\"0.0-165.0\",\"\",\"\",\"3-1\",\"4796\",\"37\",\"0\",\"Testing\",\"Stims/Figures/102-J-10-4.bmp\",\"na:lala\",\"Right\",\"39\",\"1\",\"17\",\"5\",\"S\",\"C\",\"17\"
\"\",\"\",\"approach-retreat\",\"166\",\"1273369\",\"0.0-166.0\",\"\",\"\",\"3-1\",\"4296\",\"39\",\"1\",\"Testing\",\"Stims/Figures/118-C-20-2.bmp\",\"papa:ta\",\"Left\",\"39\",\"1\",\"18\",\"5\",\"P\",\"C\",\"18\"
\"\",\"\",\"approach-retreat\",\"167\",\"1279161\",\"0.0-167.0\",\"\",\"\",\"3-1\",\"4286\",\"37\",\"0\",\"Testing\",\"Stims/Figures/71-C-30-1.bmp\",\"papata\",\"Left\",\"39\",\"1\",\"19\",\"5\",\"P\",\"C\",\"19\"
\"\",\"\",\"approach-retreat\",\"168\",\"1285484\",\"0.0-168.0\",\"\",\"\",\"3-1\",\"4820\",\"38\",\"1\",\"Testing\",\"Stims/Figures/102-C-20-4.bmp\",\"taka:ta\",\"Down\",\"38\",\"1\",\"20\",\"5\",\"P\",\"C\",\"20\"
\"\",\"\",\"approach-retreat\",\"169\",\"1292845\",\"0.0-169.0\",\"\",\"\",\"3-1\",\"5853\",\"37\",\"1\",\"Testing\",\"Stims/Figures/71-J-0-1.bmp\",\"malala\",\"Left\",\"37\",\"1\",\"21\",\"5\",\"S\",\"C\",\"21\"
\"\",\"\",\"approach-retreat\",\"170\",\"1300430\",\"0.0-170.0\",\"\",\"\",\"3-1\",\"6081\",\"38\",\"1\",\"Testing\",\"Stims/Figures/27-J-0-1.bmp\",\"mama:la\",\"Up\",\"38\",\"1\",\"22\",\"5\",\"S\",\"C\",\"22\"
\"\",\"\",\"approach-retreat\",\"171\",\"1307648\",\"0.0-171.0\",\"\",\"\",\"3-1\",\"5712\",\"39\",\"1\",\"Testing\",\"Stims/Figures/19-C-20-4.bmp\",\"tapata\",\"Left\",\"39\",\"1\",\"23\",\"5\",\"P\",\"C\",\"23\"
\"\",\"\",\"approach-retreat\",\"172\",\"1313309\",\"0.0-172.0\",\"\",\"\",\"3-1\",\"4157\",\"38\",\"1\",\"Testing\",\"Stims/Figures/44-C-30-3.bmp\",\"taka:ka\",\"Down\",\"38\",\"1\",\"24\",\"5\",\"P\",\"C\",\"24\"
\"\",\"\",\"approach-retreat\",\"173\",\"1319313\",\"0.0-173.0\",\"\",\"\",\"3-1\",\"4500\",\"40\",\"1\",\"Testing\",\"Stims/Figures/71-J-0-1.bmp\",\"malala\",\"Down\",\"40\",\"2\",\"1\",\"5\",\"S\",\"C\",\"25\"
\"\",\"\",\"approach-retreat\",\"174\",\"1325166\",\"0.0-174.0\",\"\",\"\",\"3-1\",\"4348\",\"37\",\"1\",\"Testing\",\"Stims/Figures/44-C-30-3.bmp\",\"taka:ka\",\"Right\",\"37\",\"2\",\"2\",\"5\",\"P\",\"C\",\"26\"
\"\",\"\",\"approach-retreat\",\"175\",\"1332027\",\"0.0-175.0\",\"\",\"\",\"3-1\",\"5355\",\"40\",\"0\",\"Testing\",\"Stims/Figures/19-J-10-4.bmp\",\"mamala\",\"Up\",\"38\",\"2\",\"3\",\"5\",\"S\",\"C\",\"27\"
\"\",\"\",\"approach-retreat\",\"176\",\"1337731\",\"0.0-176.0\",\"\",\"\",\"3-1\",\"4200\",\"37\",\"1\",\"Testing\",\"Stims/Figures/71-C-30-1.bmp\",\"papata\",\"Right\",\"37\",\"2\",\"4\",\"5\",\"P\",\"C\",\"28\"
\"\",\"\",\"approach-retreat\",\"177\",\"1344591\",\"0.0-177.0\",\"\",\"\",\"3-1\",\"5357\",\"39\",\"1\",\"Testing\",\"Stims/Figures/7-J-10-4.bmp\",\"na:la:na\",\"Right\",\"39\",\"2\",\"5\",\"5\",\"S\",\"C\",\"29\"
\"\",\"\",\"approach-retreat\",\"178\",\"1351345\",\"0.0-178.0\",\"\",\"\",\"3-1\",\"5250\",\"38\",\"1\",\"Testing\",\"Stims/Figures/100-C-30-3.bmp\",\"pakata\",\"Down\",\"38\",\"2\",\"6\",\"5\",\"P\",\"C\",\"30\"
\"\",\"\",\"approach-retreat\",\"179\",\"1358395\",\"0.0-179.0\",\"\",\"\",\"3-1\",\"5546\",\"37\",\"0\",\"Testing\",\"Stims/Figures/100-J-10-3.bmp\",\"ma:ma:la\",\"Right\",\"39\",\"2\",\"7\",\"5\",\"S\",\"C\",\"31\"
\"\",\"\",\"approach-retreat\",\"180\",\"1365763\",\"0.0-180.0\",\"\",\"\",\"3-1\",\"5863\",\"38\",\"1\",\"Testing\",\"Stims/Figures/27-C-30-1.bmp\",\"pa:ka:ta\",\"Down\",\"38\",\"2\",\"8\",\"5\",\"P\",\"C\",\"32\"
\"\",\"\",\"approach-retreat\",\"181\",\"1373587\",\"0.0-181.0\",\"\",\"\",\"3-1\",\"6321\",\"39\",\"0\",\"Testing\",\"Stims/Figures/102-J-10-4.bmp\",\"na:lala\",\"Left\",\"37\",\"2\",\"9\",\"5\",\"S\",\"C\",\"33\"
\"\",\"\",\"approach-retreat\",\"182\",\"1379375\",\"0.0-182.0\",\"\",\"\",\"3-1\",\"4283\",\"40\",\"0\",\"Testing\",\"Stims/Figures/7-C-20-4.bmp\",\"paka:ta\",\"Down\",\"38\",\"2\",\"10\",\"5\",\"P\",\"C\",\"34\"
\"\",\"\",\"approach-retreat\",\"183\",\"1385535\",\"0.0-183.0\",\"\",\"\",\"3-1\",\"4656\",\"40\",\"1\",\"Testing\",\"Stims/Figures/128-J-10-3.bmp\",\"mama:na\",\"Down\",\"40\",\"2\",\"11\",\"5\",\"S\",\"C\",\"35\"
\"\",\"\",\"approach-retreat\",\"184\",\"1395084\",\"0.0-184.0\",\"\",\"\",\"3-1\",\"8044\",\"40\",\"1\",\"Testing\",\"Stims/Figures/118-C-20-2.bmp\",\"papa:ta\",\"Up\",\"40\",\"2\",\"12\",\"5\",\"P\",\"C\",\"36\"
\"\",\"\",\"approach-retreat\",\"185\",\"1402913\",\"0.0-185.0\",\"\",\"\",\"3-1\",\"6326\",\"40\",\"0\",\"Testing\",\"Stims/Figures/44-J-10-3.bmp\",\"ma:la:na\",\"Up\",\"38\",\"2\",\"13\",\"5\",\"S\",\"C\",\"37\"
\"\",\"\",\"approach-retreat\",\"186\",\"1408715\",\"0.0-186.0\",\"\",\"\",\"3-1\",\"4298\",\"39\",\"0\",\"Testing\",\"Stims/Figures/57-J-0-1.bmp\",\"na:ma:la\",\"Left\",\"37\",\"2\",\"14\",\"5\",\"S\",\"C\",\"38\"
\"\",\"\",\"approach-retreat\",\"187\",\"1421148\",\"0.0-187.0\",\"\",\"\",\"3-1\",\"10930\",\"39\",\"0\",\"Testing\",\"Stims/Figures/118-J-0-2.bmp\",\"nama:la\",\"Left\",\"37\",\"2\",\"15\",\"5\",\"S\",\"C\",\"39\"
\"\",\"\",\"approach-retreat\",\"188\",\"1426910\",\"0.0-188.0\",\"\",\"\",\"3-1\",\"4255\",\"39\",\"0\",\"Testing\",\"Stims/Figures/139-C-20-2.bmp\",\"takata\",\"Right\",\"37\",\"2\",\"16\",\"5\",\"P\",\"C\",\"40\"
\"\",\"\",\"approach-retreat\",\"189\",\"1432638\",\"0.0-189.0\",\"\",\"\",\"3-1\",\"4225\",\"38\",\"1\",\"Testing\",\"Stims/Figures/19-C-20-4.bmp\",\"tapata\",\"Down\",\"38\",\"2\",\"17\",\"5\",\"P\",\"C\",\"41\"
\"\",\"\",\"approach-retreat\",\"190\",\"1440038\",\"0.0-190.0\",\"\",\"\",\"3-1\",\"5896\",\"40\",\"1\",\"Testing\",\"Stims/Figures/84-C-20-2.bmp\",\"pa:pa:ka\",\"Up\",\"40\",\"2\",\"18\",\"5\",\"P\",\"C\",\"42\"
\"\",\"\",\"approach-retreat\",\"191\",\"1453049\",\"0.0-191.0\",\"\",\"\",\"3-1\",\"11507\",\"40\",\"1\",\"Testing\",\"Stims/Figures/128-C-30-3.bmp\",\"papa:ka\",\"Up\",\"40\",\"2\",\"19\",\"5\",\"P\",\"C\",\"43\"
\"\",\"\",\"approach-retreat\",\"192\",\"1458833\",\"0.0-192.0\",\"\",\"\",\"3-1\",\"4278\",\"38\",\"1\",\"Testing\",\"Stims/Figures/27-J-0-1.bmp\",\"mama:la\",\"Up\",\"38\",\"2\",\"20\",\"5\",\"S\",\"C\",\"44\"
\"\",\"\",\"approach-retreat\",\"193\",\"1465642\",\"0.0-193.0\",\"\",\"\",\"3-1\",\"5303\",\"37\",\"1\",\"Testing\",\"Stims/Figures/84-J-0-2.bmp\",\"nala:la\",\"Left\",\"37\",\"2\",\"21\",\"5\",\"S\",\"C\",\"45\"
\"\",\"\",\"approach-retreat\",\"194\",\"1471192\",\"0.0-194.0\",\"\",\"\",\"3-1\",\"4046\",\"39\",\"0\",\"Testing\",\"Stims/Figures/102-C-20-4.bmp\",\"taka:ta\",\"Right\",\"37\",\"2\",\"22\",\"5\",\"P\",\"C\",\"46\"
\"\",\"\",\"approach-retreat\",\"195\",\"1477206\",\"0.0-195.0\",\"\",\"\",\"3-1\",\"4511\",\"39\",\"1\",\"Testing\",\"Stims/Figures/57-C-30-1.bmp\",\"tapa:ka\",\"Left\",\"39\",\"2\",\"23\",\"5\",\"P\",\"C\",\"47\"
\"\",\"\",\"approach-retreat\",\"196\",\"1485576\",\"0.0-196.0\",\"\",\"\",\"3-1\",\"6865\",\"39\",\"0\",\"Testing\",\"Stims/Figures/139-J-0-2.bmp\",\"na:la:la\",\"Left\",\"37\",\"2\",\"24\",\"5\",\"S\",\"C\",\"48\"
\"\",\"\",\"approach-retreat\",\"197\",\"1500379\",\"0.0-197.0\",\"\",\"\",\"3-1\",\"13298\",\"39\",\"1\",\"Testing\",\"Stims/Figures/19-C-20-4.bmp\",\"tapata\",\"Left\",\"39\",\"3\",\"1\",\"5\",\"P\",\"C\",\"49\"
\"\",\"\",\"approach-retreat\",\"198\",\"1508057\",\"0.0-198.0\",\"\",\"\",\"3-1\",\"6173\",\"37\",\"0\",\"Testing\",\"Stims/Figures/7-J-10-4.bmp\",\"na:la:na\",\"Right\",\"39\",\"3\",\"2\",\"5\",\"S\",\"C\",\"50\"
\"\",\"\",\"approach-retreat\",\"199\",\"1515356\",\"0.0-199.0\",\"\",\"\",\"3-1\",\"5793\",\"38\",\"0\",\"Testing\",\"Stims/Figures/128-J-10-3.bmp\",\"mama:na\",\"Down\",\"40\",\"3\",\"3\",\"5\",\"S\",\"C\",\"51\"
\"\",\"\",\"approach-retreat\",\"200\",\"1521089\",\"0.0-200.0\",\"\",\"\",\"3-1\",\"4229\",\"40\",\"1\",\"Testing\",\"Stims/Figures/71-J-0-1.bmp\",\"malala\",\"Down\",\"40\",\"3\",\"4\",\"5\",\"S\",\"C\",\"52\"
\"\",\"\",\"approach-retreat\",\"201\",\"1527943\",\"0.0-201.0\",\"\",\"\",\"3-1\",\"5349\",\"37\",\"1\",\"Testing\",\"Stims/Figures/57-C-30-1.bmp\",\"tapa:ka\",\"Right\",\"37\",\"3\",\"5\",\"5\",\"P\",\"C\",\"53\"
\"\",\"\",\"approach-retreat\",\"202\",\"1535326\",\"0.0-202.0\",\"\",\"\",\"3-1\",\"5879\",\"37\",\"0\",\"Testing\",\"Stims/Figures/57-J-0-1.bmp\",\"na:ma:la\",\"Right\",\"39\",\"3\",\"6\",\"5\",\"S\",\"C\",\"54\"
\"\",\"\",\"approach-retreat\",\"203\",\"1540853\",\"0.0-203.0\",\"\",\"\",\"3-1\",\"4024\",\"38\",\"0\",\"Testing\",\"Stims/Figures/100-J-10-3.bmp\",\"ma:ma:la\",\"Down\",\"40\",\"3\",\"7\",\"5\",\"S\",\"C\",\"55\"
\"\",\"\",\"approach-retreat\",\"204\",\"1546447\",\"0.0-204.0\",\"\",\"\",\"3-1\",\"4090\",\"38\",\"1\",\"Testing\",\"Stims/Figures/128-C-30-3.bmp\",\"papa:ka\",\"Down\",\"38\",\"3\",\"8\",\"5\",\"P\",\"C\",\"56\"
\"\",\"\",\"approach-retreat\",\"205\",\"1552084\",\"0.0-205.0\",\"\",\"\",\"3-1\",\"4132\",\"39\",\"0\",\"Testing\",\"Stims/Figures/139-C-20-2.bmp\",\"takata\",\"Right\",\"37\",\"3\",\"9\",\"5\",\"P\",\"C\",\"57\"
\"\",\"\",\"approach-retreat\",\"206\",\"1557901\",\"0.0-206.0\",\"\",\"\",\"3-1\",\"4313\",\"40\",\"1\",\"Testing\",\"Stims/Figures/84-C-20-2.bmp\",\"pa:pa:ka\",\"Up\",\"40\",\"3\",\"10\",\"5\",\"P\",\"C\",\"58\"
\"\",\"\",\"approach-retreat\",\"207\",\"1563537\",\"0.0-207.0\",\"\",\"\",\"3-1\",\"4134\",\"39\",\"1\",\"Testing\",\"Stims/Figures/102-C-20-4.bmp\",\"taka:ta\",\"Left\",\"39\",\"3\",\"11\",\"5\",\"P\",\"C\",\"59\"
\"\",\"\",\"approach-retreat\",\"208\",\"1569621\",\"0.0-208.0\",\"\",\"\",\"3-1\",\"4578\",\"39\",\"1\",\"Testing\",\"Stims/Figures/118-C-20-2.bmp\",\"papa:ta\",\"Left\",\"39\",\"3\",\"12\",\"5\",\"P\",\"C\",\"60\"
\"\",\"\",\"approach-retreat\",\"209\",\"1575248\",\"0.0-209.0\",\"\",\"\",\"3-1\",\"4122\",\"39\",\"1\",\"Testing\",\"Stims/Figures/44-C-30-3.bmp\",\"taka:ka\",\"Left\",\"39\",\"3\",\"13\",\"5\",\"P\",\"C\",\"61\"
\"\",\"\",\"approach-retreat\",\"210\",\"1582220\",\"0.0-210.0\",\"\",\"\",\"3-1\",\"5470\",\"37\",\"1\",\"Testing\",\"Stims/Figures/71-C-30-1.bmp\",\"papata\",\"Right\",\"37\",\"3\",\"14\",\"5\",\"P\",\"C\",\"62\"
\"\",\"\",\"approach-retreat\",\"211\",\"1590354\",\"0.0-211.0\",\"\",\"\",\"3-1\",\"6628\",\"38\",\"1\",\"Testing\",\"Stims/Figures/102-J-10-4.bmp\",\"na:lala\",\"Up\",\"38\",\"3\",\"15\",\"5\",\"S\",\"C\",\"63\"
\"\",\"\",\"approach-retreat\",\"212\",\"1596281\",\"0.0-212.0\",\"\",\"\",\"3-1\",\"4425\",\"38\",\"1\",\"Testing\",\"Stims/Figures/27-C-30-1.bmp\",\"pa:ka:ta\",\"Down\",\"38\",\"3\",\"16\",\"5\",\"P\",\"C\",\"64\"
\"\",\"\",\"approach-retreat\",\"213\",\"1608873\",\"0.0-213.0\",\"\",\"\",\"3-1\",\"11088\",\"38\",\"1\",\"Testing\",\"Stims/Figures/7-C-20-4.bmp\",\"paka:ta\",\"Down\",\"38\",\"3\",\"17\",\"5\",\"P\",\"C\",\"65\"
\"\",\"\",\"approach-retreat\",\"214\",\"1616818\",\"0.0-214.0\",\"\",\"\",\"3-1\",\"6439\",\"37\",\"0\",\"Testing\",\"Stims/Figures/44-J-10-3.bmp\",\"ma:la:na\",\"Right\",\"39\",\"3\",\"18\",\"5\",\"S\",\"C\",\"66\"
\"\",\"\",\"approach-retreat\",\"215\",\"1632990\",\"0.0-215.0\",\"\",\"\",\"3-1\",\"14667\",\"40\",\"0\",\"Testing\",\"Stims/Figures/19-J-10-4.bmp\",\"mamala\",\"Up\",\"38\",\"3\",\"19\",\"5\",\"S\",\"C\",\"67\"
\"\",\"\",\"approach-retreat\",\"216\",\"1638635\",\"0.0-216.0\",\"\",\"\",\"3-1\",\"4142\",\"39\",\"0\",\"Testing\",\"Stims/Figures/84-J-0-2.bmp\",\"nala:la\",\"Left\",\"37\",\"3\",\"20\",\"5\",\"S\",\"C\",\"68\"
\"\",\"\",\"approach-retreat\",\"217\",\"1650841\",\"0.0-217.0\",\"\",\"\",\"3-1\",\"10702\",\"40\",\"0\",\"Testing\",\"Stims/Figures/118-J-0-2.bmp\",\"nama:la\",\"Up\",\"38\",\"3\",\"21\",\"5\",\"S\",\"C\",\"69\"
\"\",\"\",\"approach-retreat\",\"218\",\"1656492\",\"0.0-218.0\",\"\",\"\",\"3-1\",\"4146\",\"40\",\"1\",\"Testing\",\"Stims/Figures/100-C-30-3.bmp\",\"pakata\",\"Up\",\"40\",\"3\",\"22\",\"5\",\"P\",\"C\",\"70\"
\"\",\"\",\"approach-retreat\",\"219\",\"1662280\",\"0.0-219.0\",\"\",\"\",\"3-1\",\"4284\",\"38\",\"1\",\"Testing\",\"Stims/Figures/27-J-0-1.bmp\",\"mama:la\",\"Up\",\"38\",\"3\",\"23\",\"5\",\"S\",\"C\",\"71\"
\"\",\"\",\"approach-retreat\",\"220\",\"1676027\",\"0.0-220.0\",\"\",\"\",\"3-1\",\"12242\",\"39\",\"0\",\"Testing\",\"Stims/Figures/139-J-0-2.bmp\",\"na:la:la\",\"Left\",\"37\",\"3\",\"24\",\"5\",\"S\",\"C\",\"72\"
\"\",\"\",\"approach-retreat\",\"221\",\"1681898\",\"0.0-221.0\",\"\",\"\",\"3-1\",\"4365\",\"38\",\"0\",\"Testing\",\"Stims/Figures/27-C-30-1.bmp\",\"pa:ka:ta\",\"Up\",\"40\",\"4\",\"1\",\"5\",\"P\",\"C\",\"73\"
\"\",\"\",\"approach-retreat\",\"222\",\"1687638\",\"0.0-222.0\",\"\",\"\",\"3-1\",\"4233\",\"39\",\"0\",\"Testing\",\"Stims/Figures/19-J-10-4.bmp\",\"mamala\",\"Left\",\"37\",\"4\",\"2\",\"5\",\"S\",\"C\",\"74\"
\"\",\"\",\"approach-retreat\",\"223\",\"1700816\",\"0.0-223.0\",\"\",\"\",\"3-1\",\"11673\",\"39\",\"1\",\"Testing\",\"Stims/Figures/139-C-20-2.bmp\",\"takata\",\"Left\",\"39\",\"4\",\"3\",\"5\",\"P\",\"C\",\"75\"
\"\",\"\",\"approach-retreat\",\"224\",\"1710047\",\"0.0-224.0\",\"\",\"\",\"3-1\",\"7727\",\"37\",\"0\",\"Testing\",\"Stims/Figures/57-J-0-1.bmp\",\"na:ma:la\",\"Right\",\"39\",\"4\",\"4\",\"5\",\"S\",\"C\",\"76\"
\"\",\"\",\"approach-retreat\",\"225\",\"1716654\",\"0.0-225.0\",\"\",\"\",\"3-1\",\"5103\",\"39\",\"0\",\"Testing\",\"Stims/Figures/100-J-10-3.bmp\",\"ma:ma:la\",\"Left\",\"37\",\"4\",\"5\",\"5\",\"S\",\"C\",\"77\"
\"\",\"\",\"approach-retreat\",\"226\",\"1722623\",\"0.0-226.0\",\"\",\"\",\"3-1\",\"4466\",\"40\",\"1\",\"Testing\",\"Stims/Figures/7-J-10-4.bmp\",\"na:la:na\",\"Down\",\"40\",\"4\",\"6\",\"5\",\"S\",\"C\",\"78\"
\"\",\"\",\"approach-retreat\",\"227\",\"1728357\",\"0.0-227.0\",\"\",\"\",\"3-1\",\"4229\",\"39\",\"1\",\"Testing\",\"Stims/Figures/118-C-20-2.bmp\",\"papa:ta\",\"Left\",\"39\",\"4\",\"7\",\"5\",\"P\",\"C\",\"79\"
\"\",\"\",\"approach-retreat\",\"228\",\"1733934\",\"0.0-228.0\",\"\",\"\",\"3-1\",\"4075\",\"37\",\"1\",\"Testing\",\"Stims/Figures/19-C-20-4.bmp\",\"tapata\",\"Right\",\"37\",\"4\",\"8\",\"5\",\"P\",\"C\",\"80\"
\"\",\"\",\"approach-retreat\",\"229\",\"1740889\",\"0.0-229.0\",\"\",\"\",\"3-1\",\"5450\",\"38\",\"0\",\"Testing\",\"Stims/Figures/27-J-0-1.bmp\",\"mama:la\",\"Down\",\"40\",\"4\",\"9\",\"5\",\"S\",\"C\",\"81\"
\"\",\"\",\"approach-retreat\",\"230\",\"1746778\",\"0.0-230.0\",\"\",\"\",\"3-1\",\"4385\",\"37\",\"1\",\"Testing\",\"Stims/Figures/84-C-20-2.bmp\",\"pa:pa:ka\",\"Right\",\"37\",\"4\",\"10\",\"5\",\"P\",\"C\",\"82\"
\"\",\"\",\"approach-retreat\",\"231\",\"1752347\",\"0.0-231.0\",\"\",\"\",\"3-1\",\"4066\",\"38\",\"1\",\"Testing\",\"Stims/Figures/44-C-30-3.bmp\",\"taka:ka\",\"Down\",\"38\",\"4\",\"11\",\"5\",\"P\",\"C\",\"83\"
\"\",\"\",\"approach-retreat\",\"232\",\"1757881\",\"0.0-232.0\",\"\",\"\",\"3-1\",\"4031\",\"37\",\"1\",\"Testing\",\"Stims/Figures/102-J-10-4.bmp\",\"na:lala\",\"Left\",\"37\",\"4\",\"12\",\"5\",\"S\",\"C\",\"84\"
\"\",\"\",\"approach-retreat\",\"233\",\"1764258\",\"0.0-233.0\",\"\",\"\",\"3-1\",\"4873\",\"38\",\"0\",\"Testing\",\"Stims/Figures/7-C-20-4.bmp\",\"paka:ta\",\"Up\",\"40\",\"4\",\"13\",\"5\",\"P\",\"C\",\"85\"
\"\",\"\",\"approach-retreat\",\"234\",\"1772892\",\"0.0-234.0\",\"\",\"\",\"3-1\",\"7129\",\"37\",\"0\",\"Testing\",\"Stims/Figures/128-J-10-3.bmp\",\"mama:na\",\"Right\",\"39\",\"4\",\"14\",\"5\",\"S\",\"C\",\"86\"
\"\",\"\",\"approach-retreat\",\"235\",\"1779056\",\"0.0-235.0\",\"\",\"\",\"3-1\",\"4658\",\"37\",\"0\",\"Testing\",\"Stims/Figures/118-J-0-2.bmp\",\"nama:la\",\"Right\",\"39\",\"4\",\"15\",\"5\",\"S\",\"C\",\"87\"
\"\",\"\",\"approach-retreat\",\"236\",\"1785068\",\"0.0-236.0\",\"\",\"\",\"3-1\",\"4508\",\"40\",\"0\",\"Testing\",\"Stims/Figures/71-J-0-1.bmp\",\"malala\",\"Up\",\"38\",\"4\",\"16\",\"5\",\"S\",\"C\",\"88\"
\"\",\"\",\"approach-retreat\",\"237\",\"1791204\",\"0.0-237.0\",\"\",\"\",\"3-1\",\"4631\",\"38\",\"0\",\"Testing\",\"Stims/Figures/139-J-0-2.bmp\",\"na:la:la\",\"Down\",\"40\",\"4\",\"17\",\"5\",\"S\",\"C\",\"89\"
\"\",\"\",\"approach-retreat\",\"238\",\"1797478\",\"0.0-238.0\",\"\",\"\",\"3-1\",\"4772\",\"38\",\"1\",\"Testing\",\"Stims/Figures/102-C-20-4.bmp\",\"taka:ta\",\"Down\",\"38\",\"4\",\"18\",\"5\",\"P\",\"C\",\"90\"
\"\",\"\",\"approach-retreat\",\"239\",\"1803623\",\"0.0-239.0\",\"\",\"\",\"3-1\",\"4641\",\"39\",\"1\",\"Testing\",\"Stims/Figures/128-C-30-3.bmp\",\"papa:ka\",\"Left\",\"39\",\"4\",\"19\",\"5\",\"P\",\"C\",\"91\"
\"\",\"\",\"approach-retreat\",\"240\",\"1809410\",\"0.0-240.0\",\"\",\"\",\"3-1\",\"4283\",\"40\",\"0\",\"Testing\",\"Stims/Figures/100-C-30-3.bmp\",\"pakata\",\"Down\",\"38\",\"4\",\"20\",\"5\",\"P\",\"C\",\"92\"
\"\",\"\",\"approach-retreat\",\"241\",\"1815009\",\"0.0-241.0\",\"\",\"\",\"3-1\",\"4096\",\"37\",\"1\",\"Testing\",\"Stims/Figures/57-C-30-1.bmp\",\"tapa:ka\",\"Right\",\"37\",\"4\",\"21\",\"5\",\"P\",\"C\",\"93\"
\"\",\"\",\"approach-retreat\",\"242\",\"1833469\",\"0.0-242.0\",\"\",\"\",\"3-1\",\"16955\",\"40\",\"1\",\"Testing\",\"Stims/Figures/71-C-30-1.bmp\",\"papata\",\"Up\",\"40\",\"4\",\"22\",\"5\",\"P\",\"C\",\"94\"
\"\",\"\",\"approach-retreat\",\"243\",\"1841917\",\"0.0-243.0\",\"\",\"\",\"3-1\",\"6942\",\"40\",\"0\",\"Testing\",\"Stims/Figures/44-J-10-3.bmp\",\"ma:la:na\",\"Up\",\"38\",\"4\",\"23\",\"5\",\"S\",\"C\",\"95\"
\"\",\"\",\"approach-retreat\",\"244\",\"1850269\",\"0.0-244.0\",\"\",\"\",\"3-1\",\"6849\",\"40\",\"0\",\"Testing\",\"Stims/Figures/84-J-0-2.bmp\",\"nala:la\",\"Up\",\"38\",\"4\",\"24\",\"5\",\"S\",\"C\",\"96\"
\"19653\",\"\",\"survey-text\",\"245\",\"1869941\",\"0.0-245.0\",\"\",\"{\"\"Q0\"\":\"\"1258\"\"}\",\"\",\"\",\"\",\"\",\"\",\"\",\"\",\"\",\"\",\"\",\"\",\"\",\"\",\"\",\"\"
