\"rt\",\"key_press\",\"trial_type\",\"trial_index\",\"time_elapsed\",\"internal_node_id\",\"view_history\",\"responses\",\"Id\",\"Rt\",\"ResKeyCode\",\"ResCorr\",\"TrialType2\",\"Image\",\"Label\",\"Location\",\"CorrectResponse\",\"Block\",\"BlockTrial\",\"Condition\",\"LabelType\",\"Subcondition\",\"trialNum\"
\"22244\",\"32\",\"text\",\"0\",\"22248\",\"0.0-0.0-0.0\",\"\",\"\",\"\",\"\",\"\",\"\",\"\",\"\",\"\",\"\",\"\",\"\",\"\",\"\",\"\",\"\",\"\"
\"57502\",\"\",\"instructions\",\"1\",\"79752\",\"0.0-1.0\",\"[{\"\"page_index\"\":0,\"\"viewing_time\"\":57502}]\",\"\",\"\",\"\",\"\",\"\",\"\",\"\",\"\",\"\",\"\",\"\",\"\",\"\",\"\",\"\",\"\"
\"16833\",\"\",\"survey-multi-choice\",\"2\",\"96615\",\"0.0-2.0\",\"\",\"{\"\"Q0\"\":\"\"Da\"\",\"\"Q1\"\":\"\"Da\"\",\"\"Q2\"\":\"\"Da\"\",\"\"Q3\"\":\"\"Da\"\",\"\"Q4\"\":\"\"Da\"\",\"\"Q5\"\":\"\"Da\"\"}\",\"\",\"\",\"\",\"\",\"\",\"\",\"\",\"\",\"\",\"\",\"\",\"\",\"\",\"\",\"\"
\"\",\"\",\"bio\",\"3\",\"103899\",\"0.0-3.0\",\"\",\"{\"\"age\"\":\"\"19\"\",\"\"gender\"\":\"\"m\"\",\"\"specify\"\":\"\"\"\"}\",\"\",\"\",\"\",\"\",\"\",\"\",\"\",\"\",\"\",\"\",\"\",\"\",\"\",\"\",\"\"
\"\",\"\",\"approach-retreat\",\"4\",\"110755\",\"0.0-4.0\",\"\",\"\",\"1-5\",\"5350\",\"39\",\"1\",\"Training\",\"Stims/Figures/57-C-30-1.bmp\",\"None\",\"Left\",\"39\",\"1\",\"1\",\"10\",\"N\",\"C\",\"1\"
\"\",\"\",\"approach-retreat\",\"5\",\"116625\",\"0.0-5.0\",\"\",\"\",\"1-5\",\"4363\",\"40\",\"1\",\"Training\",\"Stims/Figures/128-C-30-3.bmp\",\"None\",\"Up\",\"40\",\"1\",\"2\",\"10\",\"N\",\"C\",\"2\"
\"\",\"\",\"approach-retreat\",\"6\",\"122392\",\"0.0-6.0\",\"\",\"\",\"1-5\",\"4262\",\"37\",\"1\",\"Training\",\"Stims/Figures/94-C-20-2.bmp\",\"None\",\"Right\",\"37\",\"1\",\"3\",\"10\",\"N\",\"C\",\"3\"
\"\",\"\",\"approach-retreat\",\"7\",\"128129\",\"0.0-7.0\",\"\",\"\",\"1-5\",\"4231\",\"38\",\"1\",\"Training\",\"Stims/Figures/85-C-20-2.bmp\",\"None\",\"Down\",\"38\",\"1\",\"4\",\"10\",\"N\",\"C\",\"4\"
\"\",\"\",\"approach-retreat\",\"8\",\"134457\",\"0.0-8.0\",\"\",\"\",\"1-5\",\"4820\",\"38\",\"0\",\"Training\",\"Stims/Figures/93-J-0-1.bmp\",\"None\",\"Down\",\"40\",\"1\",\"5\",\"10\",\"N\",\"C\",\"5\"
\"\",\"\",\"approach-retreat\",\"9\",\"140169\",\"0.0-9.0\",\"\",\"\",\"1-5\",\"4206\",\"37\",\"1\",\"Training\",\"Stims/Figures/19-C-20-4.bmp\",\"None\",\"Right\",\"37\",\"1\",\"6\",\"10\",\"N\",\"C\",\"6\"
\"\",\"\",\"approach-retreat\",\"10\",\"146097\",\"0.0-10.0\",\"\",\"\",\"1-5\",\"4421\",\"39\",\"1\",\"Training\",\"Stims/Figures/7-J-10-4.bmp\",\"None\",\"Right\",\"39\",\"1\",\"7\",\"10\",\"N\",\"C\",\"7\"
\"\",\"\",\"approach-retreat\",\"11\",\"151872\",\"0.0-11.0\",\"\",\"\",\"1-5\",\"4267\",\"38\",\"0\",\"Training\",\"Stims/Figures/57-J-0-1.bmp\",\"None\",\"Down\",\"40\",\"1\",\"8\",\"10\",\"N\",\"C\",\"8\"
\"\",\"\",\"approach-retreat\",\"12\",\"157665\",\"0.0-12.0\",\"\",\"\",\"1-5\",\"4285\",\"40\",\"0\",\"Training\",\"Stims/Figures/44-J-10-3.bmp\",\"None\",\"Up\",\"38\",\"1\",\"9\",\"10\",\"N\",\"C\",\"9\"
\"\",\"\",\"approach-retreat\",\"13\",\"163377\",\"0.0-13.0\",\"\",\"\",\"1-5\",\"4205\",\"40\",\"0\",\"Training\",\"Stims/Figures/94-J-0-2.bmp\",\"None\",\"Up\",\"38\",\"1\",\"10\",\"10\",\"N\",\"C\",\"10\"
\"\",\"\",\"approach-retreat\",\"14\",\"169209\",\"0.0-14.0\",\"\",\"\",\"1-5\",\"4325\",\"37\",\"1\",\"Training\",\"Stims/Figures/128-J-10-3.bmp\",\"None\",\"Left\",\"37\",\"1\",\"11\",\"10\",\"N\",\"C\",\"11\"
\"\",\"\",\"approach-retreat\",\"15\",\"175432\",\"0.0-15.0\",\"\",\"\",\"1-5\",\"4713\",\"38\",\"0\",\"Training\",\"Stims/Figures/44-C-30-3.bmp\",\"None\",\"Up\",\"40\",\"1\",\"12\",\"10\",\"N\",\"C\",\"12\"
\"\",\"\",\"approach-retreat\",\"16\",\"181208\",\"0.0-16.0\",\"\",\"\",\"1-5\",\"4270\",\"39\",\"1\",\"Training\",\"Stims/Figures/85-J-0-2.bmp\",\"None\",\"Right\",\"39\",\"1\",\"13\",\"10\",\"N\",\"C\",\"13\"
\"\",\"\",\"approach-retreat\",\"17\",\"186993\",\"0.0-17.0\",\"\",\"\",\"1-5\",\"4279\",\"39\",\"0\",\"Training\",\"Stims/Figures/19-J-10-4.bmp\",\"None\",\"Left\",\"37\",\"1\",\"14\",\"10\",\"N\",\"C\",\"14\"
\"\",\"\",\"approach-retreat\",\"18\",\"192689\",\"0.0-18.0\",\"\",\"\",\"1-5\",\"4191\",\"39\",\"1\",\"Training\",\"Stims/Figures/93-C-30-1.bmp\",\"None\",\"Left\",\"39\",\"1\",\"15\",\"10\",\"N\",\"C\",\"15\"
\"\",\"\",\"approach-retreat\",\"19\",\"198346\",\"0.0-19.0\",\"\",\"\",\"1-5\",\"4151\",\"40\",\"0\",\"Training\",\"Stims/Figures/7-C-20-4.bmp\",\"None\",\"Down\",\"38\",\"1\",\"16\",\"10\",\"N\",\"C\",\"16\"
\"\",\"\",\"approach-retreat\",\"20\",\"203800\",\"0.0-20.0\",\"\",\"\",\"1-5\",\"3949\",\"39\",\"0\",\"Training\",\"Stims/Figures/57-J-0-1.bmp\",\"None\",\"Left\",\"37\",\"2\",\"1\",\"10\",\"N\",\"C\",\"17\"
\"\",\"\",\"approach-retreat\",\"21\",\"209322\",\"0.0-21.0\",\"\",\"\",\"1-5\",\"4013\",\"37\",\"0\",\"Training\",\"Stims/Figures/93-J-0-1.bmp\",\"None\",\"Right\",\"39\",\"2\",\"2\",\"10\",\"N\",\"C\",\"18\"
\"\",\"\",\"approach-retreat\",\"22\",\"215002\",\"0.0-22.0\",\"\",\"\",\"1-5\",\"4174\",\"39\",\"0\",\"Training\",\"Stims/Figures/7-C-20-4.bmp\",\"None\",\"Right\",\"37\",\"2\",\"3\",\"10\",\"N\",\"C\",\"19\"
\"\",\"\",\"approach-retreat\",\"23\",\"220792\",\"0.0-23.0\",\"\",\"\",\"1-5\",\"4283\",\"38\",\"0\",\"Training\",\"Stims/Figures/44-C-30-3.bmp\",\"None\",\"Up\",\"40\",\"2\",\"4\",\"10\",\"N\",\"C\",\"20\"
\"\",\"\",\"approach-retreat\",\"24\",\"226424\",\"0.0-24.0\",\"\",\"\",\"1-5\",\"4129\",\"39\",\"0\",\"Training\",\"Stims/Figures/7-J-10-4.bmp\",\"None\",\"Left\",\"37\",\"2\",\"5\",\"10\",\"N\",\"C\",\"21\"
\"\",\"\",\"approach-retreat\",\"25\",\"232104\",\"0.0-25.0\",\"\",\"\",\"1-5\",\"4174\",\"38\",\"1\",\"Training\",\"Stims/Figures/85-J-0-2.bmp\",\"None\",\"Up\",\"38\",\"2\",\"6\",\"10\",\"N\",\"C\",\"22\"
\"\",\"\",\"approach-retreat\",\"26\",\"239280\",\"0.0-26.0\",\"\",\"\",\"1-5\",\"5670\",\"39\",\"1\",\"Training\",\"Stims/Figures/19-J-10-4.bmp\",\"None\",\"Right\",\"39\",\"2\",\"7\",\"10\",\"N\",\"C\",\"23\"
\"\",\"\",\"approach-retreat\",\"27\",\"247570\",\"0.0-27.0\",\"\",\"\",\"1-5\",\"6782\",\"38\",\"1\",\"Training\",\"Stims/Figures/93-C-30-1.bmp\",\"None\",\"Down\",\"38\",\"2\",\"8\",\"10\",\"N\",\"C\",\"24\"
\"\",\"\",\"approach-retreat\",\"28\",\"253944\",\"0.0-28.0\",\"\",\"\",\"1-5\",\"4855\",\"40\",\"1\",\"Training\",\"Stims/Figures/94-J-0-2.bmp\",\"None\",\"Down\",\"40\",\"2\",\"9\",\"10\",\"N\",\"C\",\"25\"
\"\",\"\",\"approach-retreat\",\"29\",\"259384\",\"0.0-29.0\",\"\",\"\",\"1-5\",\"3933\",\"38\",\"1\",\"Training\",\"Stims/Figures/128-C-30-3.bmp\",\"None\",\"Down\",\"38\",\"2\",\"10\",\"10\",\"N\",\"C\",\"26\"
\"\",\"\",\"approach-retreat\",\"30\",\"264794\",\"0.0-30.0\",\"\",\"\",\"1-5\",\"3905\",\"40\",\"0\",\"Training\",\"Stims/Figures/57-C-30-1.bmp\",\"None\",\"Down\",\"38\",\"2\",\"11\",\"10\",\"N\",\"C\",\"27\"
\"\",\"\",\"approach-retreat\",\"31\",\"270369\",\"0.0-31.0\",\"\",\"\",\"1-5\",\"4069\",\"38\",\"1\",\"Training\",\"Stims/Figures/44-J-10-3.bmp\",\"None\",\"Up\",\"38\",\"2\",\"12\",\"10\",\"N\",\"C\",\"28\"
\"\",\"\",\"approach-retreat\",\"32\",\"276800\",\"0.0-32.0\",\"\",\"\",\"1-5\",\"4925\",\"37\",\"0\",\"Training\",\"Stims/Figures/19-C-20-4.bmp\",\"None\",\"Left\",\"39\",\"2\",\"13\",\"10\",\"N\",\"C\",\"29\"
\"\",\"\",\"approach-retreat\",\"33\",\"282873\",\"0.0-33.0\",\"\",\"\",\"1-5\",\"4567\",\"39\",\"0\",\"Training\",\"Stims/Figures/128-J-10-3.bmp\",\"None\",\"Left\",\"37\",\"2\",\"14\",\"10\",\"N\",\"C\",\"30\"
\"\",\"\",\"approach-retreat\",\"34\",\"288968\",\"0.0-34.0\",\"\",\"\",\"1-5\",\"4587\",\"38\",\"0\",\"Training\",\"Stims/Figures/85-C-20-2.bmp\",\"None\",\"Up\",\"40\",\"2\",\"15\",\"10\",\"N\",\"C\",\"31\"
\"\",\"\",\"approach-retreat\",\"35\",\"294609\",\"0.0-35.0\",\"\",\"\",\"1-5\",\"4135\",\"37\",\"1\",\"Training\",\"Stims/Figures/94-C-20-2.bmp\",\"None\",\"Right\",\"37\",\"2\",\"16\",\"10\",\"N\",\"C\",\"32\"
\"\",\"\",\"approach-retreat\",\"36\",\"300152\",\"0.0-36.0\",\"\",\"\",\"1-5\",\"4037\",\"38\",\"1\",\"Training\",\"Stims/Figures/44-C-30-3.bmp\",\"None\",\"Down\",\"38\",\"3\",\"1\",\"10\",\"N\",\"C\",\"33\"
\"\",\"\",\"approach-retreat\",\"37\",\"306360\",\"0.0-37.0\",\"\",\"\",\"1-5\",\"4702\",\"38\",\"1\",\"Training\",\"Stims/Figures/93-J-0-1.bmp\",\"None\",\"Up\",\"38\",\"3\",\"2\",\"10\",\"N\",\"C\",\"34\"
\"\",\"\",\"approach-retreat\",\"38\",\"311969\",\"0.0-38.0\",\"\",\"\",\"1-5\",\"4101\",\"38\",\"0\",\"Training\",\"Stims/Figures/128-J-10-3.bmp\",\"None\",\"Down\",\"40\",\"3\",\"3\",\"10\",\"N\",\"C\",\"35\"
\"\",\"\",\"approach-retreat\",\"39\",\"317663\",\"0.0-39.0\",\"\",\"\",\"1-5\",\"4185\",\"37\",\"1\",\"Training\",\"Stims/Figures/128-C-30-3.bmp\",\"None\",\"Right\",\"37\",\"3\",\"4\",\"10\",\"N\",\"C\",\"36\"
\"\",\"\",\"approach-retreat\",\"40\",\"323640\",\"0.0-40.0\",\"\",\"\",\"1-5\",\"4471\",\"37\",\"1\",\"Training\",\"Stims/Figures/85-J-0-2.bmp\",\"None\",\"Left\",\"37\",\"3\",\"5\",\"10\",\"N\",\"C\",\"37\"
\"\",\"\",\"approach-retreat\",\"41\",\"329417\",\"0.0-41.0\",\"\",\"\",\"1-5\",\"4270\",\"39\",\"1\",\"Training\",\"Stims/Figures/85-C-20-2.bmp\",\"None\",\"Left\",\"39\",\"3\",\"6\",\"10\",\"N\",\"C\",\"38\"
\"\",\"\",\"approach-retreat\",\"42\",\"335705\",\"0.0-42.0\",\"\",\"\",\"1-5\",\"4781\",\"39\",\"0\",\"Training\",\"Stims/Figures/7-C-20-4.bmp\",\"None\",\"Right\",\"37\",\"3\",\"7\",\"10\",\"N\",\"C\",\"39\"
\"\",\"\",\"approach-retreat\",\"43\",\"341321\",\"0.0-43.0\",\"\",\"\",\"1-5\",\"4110\",\"37\",\"1\",\"Training\",\"Stims/Figures/93-C-30-1.bmp\",\"None\",\"Right\",\"37\",\"3\",\"8\",\"10\",\"N\",\"C\",\"40\"
\"\",\"\",\"approach-retreat\",\"44\",\"346969\",\"0.0-44.0\",\"\",\"\",\"1-5\",\"4143\",\"38\",\"0\",\"Training\",\"Stims/Figures/19-C-20-4.bmp\",\"None\",\"Up\",\"40\",\"3\",\"9\",\"10\",\"N\",\"C\",\"41\"
\"\",\"\",\"approach-retreat\",\"45\",\"352706\",\"0.0-45.0\",\"\",\"\",\"1-5\",\"4230\",\"37\",\"1\",\"Training\",\"Stims/Figures/57-J-0-1.bmp\",\"None\",\"Left\",\"37\",\"3\",\"10\",\"10\",\"N\",\"C\",\"42\"
\"\",\"\",\"approach-retreat\",\"46\",\"358457\",\"0.0-46.0\",\"\",\"\",\"1-5\",\"4245\",\"40\",\"1\",\"Training\",\"Stims/Figures/57-C-30-1.bmp\",\"None\",\"Up\",\"40\",\"3\",\"11\",\"10\",\"N\",\"C\",\"43\"
\"\",\"\",\"approach-retreat\",\"47\",\"364304\",\"0.0-47.0\",\"\",\"\",\"1-5\",\"4343\",\"40\",\"1\",\"Training\",\"Stims/Figures/7-J-10-4.bmp\",\"None\",\"Down\",\"40\",\"3\",\"12\",\"10\",\"N\",\"C\",\"44\"
\"\",\"\",\"approach-retreat\",\"48\",\"370048\",\"0.0-48.0\",\"\",\"\",\"1-5\",\"4239\",\"39\",\"0\",\"Training\",\"Stims/Figures/44-J-10-3.bmp\",\"None\",\"Left\",\"37\",\"3\",\"13\",\"10\",\"N\",\"C\",\"45\"
\"\",\"\",\"approach-retreat\",\"49\",\"375680\",\"0.0-49.0\",\"\",\"\",\"1-5\",\"4126\",\"39\",\"1\",\"Training\",\"Stims/Figures/94-J-0-2.bmp\",\"None\",\"Right\",\"39\",\"3\",\"14\",\"10\",\"N\",\"C\",\"46\"
\"\",\"\",\"approach-retreat\",\"50\",\"381281\",\"0.0-50.0\",\"\",\"\",\"1-5\",\"4098\",\"38\",\"0\",\"Training\",\"Stims/Figures/94-C-20-2.bmp\",\"None\",\"Up\",\"40\",\"3\",\"15\",\"10\",\"N\",\"C\",\"47\"
\"\",\"\",\"approach-retreat\",\"51\",\"387113\",\"0.0-51.0\",\"\",\"\",\"1-5\",\"4324\",\"40\",\"1\",\"Training\",\"Stims/Figures/19-J-10-4.bmp\",\"None\",\"Down\",\"40\",\"3\",\"16\",\"10\",\"N\",\"C\",\"48\"
\"\",\"\",\"approach-retreat\",\"52\",\"392576\",\"0.0-52.0\",\"\",\"\",\"1-5\",\"3956\",\"39\",\"1\",\"Training\",\"Stims/Figures/44-C-30-3.bmp\",\"None\",\"Left\",\"39\",\"4\",\"1\",\"10\",\"N\",\"C\",\"49\"
\"\",\"\",\"approach-retreat\",\"53\",\"397968\",\"0.0-53.0\",\"\",\"\",\"1-5\",\"3886\",\"39\",\"0\",\"Training\",\"Stims/Figures/93-C-30-1.bmp\",\"None\",\"Right\",\"37\",\"4\",\"2\",\"10\",\"N\",\"C\",\"50\"
\"\",\"\",\"approach-retreat\",\"54\",\"403495\",\"0.0-54.0\",\"\",\"\",\"1-5\",\"4020\",\"40\",\"1\",\"Training\",\"Stims/Figures/94-J-0-2.bmp\",\"None\",\"Down\",\"40\",\"4\",\"3\",\"10\",\"N\",\"C\",\"51\"
\"\",\"\",\"approach-retreat\",\"55\",\"410432\",\"0.0-55.0\",\"\",\"\",\"1-5\",\"5431\",\"38\",\"0\",\"Training\",\"Stims/Figures/44-J-10-3.bmp\",\"None\",\"Down\",\"40\",\"4\",\"4\",\"10\",\"N\",\"C\",\"52\"
\"\",\"\",\"approach-retreat\",\"56\",\"415991\",\"0.0-56.0\",\"\",\"\",\"1-5\",\"4053\",\"40\",\"1\",\"Training\",\"Stims/Figures/19-J-10-4.bmp\",\"None\",\"Down\",\"40\",\"4\",\"5\",\"10\",\"N\",\"C\",\"53\"
\"\",\"\",\"approach-retreat\",\"57\",\"422440\",\"0.0-57.0\",\"\",\"\",\"1-5\",\"4942\",\"37\",\"1\",\"Training\",\"Stims/Figures/57-C-30-1.bmp\",\"None\",\"Right\",\"37\",\"4\",\"6\",\"10\",\"N\",\"C\",\"54\"
\"\",\"\",\"approach-retreat\",\"58\",\"428232\",\"0.0-58.0\",\"\",\"\",\"1-5\",\"4285\",\"40\",\"1\",\"Training\",\"Stims/Figures/19-C-20-4.bmp\",\"None\",\"Up\",\"40\",\"4\",\"7\",\"10\",\"N\",\"C\",\"55\"
\"\",\"\",\"approach-retreat\",\"59\",\"433905\",\"0.0-59.0\",\"\",\"\",\"1-5\",\"4166\",\"38\",\"1\",\"Training\",\"Stims/Figures/128-J-10-3.bmp\",\"None\",\"Up\",\"38\",\"4\",\"8\",\"10\",\"N\",\"C\",\"56\"
\"\",\"\",\"approach-retreat\",\"60\",\"439624\",\"0.0-60.0\",\"\",\"\",\"1-5\",\"4213\",\"37\",\"0\",\"Training\",\"Stims/Figures/85-C-20-2.bmp\",\"None\",\"Left\",\"39\",\"4\",\"9\",\"10\",\"N\",\"C\",\"57\"
\"\",\"\",\"approach-retreat\",\"61\",\"446080\",\"0.0-61.0\",\"\",\"\",\"1-5\",\"4949\",\"37\",\"1\",\"Training\",\"Stims/Figures/85-J-0-2.bmp\",\"None\",\"Left\",\"37\",\"4\",\"10\",\"10\",\"N\",\"C\",\"58\"
\"\",\"\",\"approach-retreat\",\"62\",\"451888\",\"0.0-62.0\",\"\",\"\",\"1-5\",\"4301\",\"39\",\"0\",\"Training\",\"Stims/Figures/7-C-20-4.bmp\",\"None\",\"Right\",\"37\",\"4\",\"11\",\"10\",\"N\",\"C\",\"59\"
\"\",\"\",\"approach-retreat\",\"63\",\"457632\",\"0.0-63.0\",\"\",\"\",\"1-5\",\"4237\",\"38\",\"0\",\"Training\",\"Stims/Figures/7-J-10-4.bmp\",\"None\",\"Down\",\"40\",\"4\",\"12\",\"10\",\"N\",\"C\",\"60\"
\"\",\"\",\"approach-retreat\",\"64\",\"464248\",\"0.0-64.0\",\"\",\"\",\"1-5\",\"5109\",\"38\",\"0\",\"Training\",\"Stims/Figures/128-C-30-3.bmp\",\"None\",\"Up\",\"40\",\"4\",\"13\",\"10\",\"N\",\"C\",\"61\"
\"\",\"\",\"approach-retreat\",\"65\",\"470433\",\"0.0-65.0\",\"\",\"\",\"1-5\",\"4678\",\"39\",\"1\",\"Training\",\"Stims/Figures/94-C-20-2.bmp\",\"None\",\"Left\",\"39\",\"4\",\"14\",\"10\",\"N\",\"C\",\"62\"
\"\",\"\",\"approach-retreat\",\"66\",\"476105\",\"0.0-66.0\",\"\",\"\",\"1-5\",\"4166\",\"38\",\"1\",\"Training\",\"Stims/Figures/93-J-0-1.bmp\",\"None\",\"Up\",\"38\",\"4\",\"15\",\"10\",\"N\",\"C\",\"63\"
\"\",\"\",\"approach-retreat\",\"67\",\"482752\",\"0.0-67.0\",\"\",\"\",\"1-5\",\"5141\",\"39\",\"1\",\"Training\",\"Stims/Figures/57-J-0-1.bmp\",\"None\",\"Right\",\"39\",\"4\",\"16\",\"10\",\"N\",\"C\",\"64\"
\"\",\"\",\"approach-retreat\",\"68\",\"489584\",\"0.0-68.0\",\"\",\"\",\"1-5\",\"5325\",\"39\",\"0\",\"Training\",\"Stims/Figures/128-J-10-3.bmp\",\"None\",\"Left\",\"37\",\"5\",\"1\",\"10\",\"N\",\"C\",\"65\"
\"\",\"\",\"approach-retreat\",\"69\",\"495185\",\"0.0-69.0\",\"\",\"\",\"1-5\",\"4095\",\"38\",\"1\",\"Training\",\"Stims/Figures/85-C-20-2.bmp\",\"None\",\"Down\",\"38\",\"5\",\"2\",\"10\",\"N\",\"C\",\"66\"
\"\",\"\",\"approach-retreat\",\"70\",\"502280\",\"0.0-70.0\",\"\",\"\",\"1-5\",\"5585\",\"40\",\"0\",\"Training\",\"Stims/Figures/7-C-20-4.bmp\",\"None\",\"Down\",\"38\",\"5\",\"3\",\"10\",\"N\",\"C\",\"67\"
\"\",\"\",\"approach-retreat\",\"71\",\"508888\",\"0.0-71.0\",\"\",\"\",\"1-5\",\"5102\",\"39\",\"1\",\"Training\",\"Stims/Figures/93-J-0-1.bmp\",\"None\",\"Right\",\"39\",\"5\",\"4\",\"10\",\"N\",\"C\",\"68\"
\"\",\"\",\"approach-retreat\",\"72\",\"515096\",\"0.0-72.0\",\"\",\"\",\"1-5\",\"4702\",\"39\",\"1\",\"Training\",\"Stims/Figures/7-J-10-4.bmp\",\"None\",\"Right\",\"39\",\"5\",\"5\",\"10\",\"N\",\"C\",\"69\"
\"\",\"\",\"approach-retreat\",\"73\",\"522530\",\"0.0-73.0\",\"\",\"\",\"1-5\",\"5927\",\"38\",\"0\",\"Training\",\"Stims/Figures/57-C-30-1.bmp\",\"None\",\"Up\",\"40\",\"5\",\"6\",\"10\",\"N\",\"C\",\"70\"
\"\",\"\",\"approach-retreat\",\"74\",\"529760\",\"0.0-74.0\",\"\",\"\",\"1-5\",\"5724\",\"38\",\"1\",\"Training\",\"Stims/Figures/85-J-0-2.bmp\",\"None\",\"Up\",\"38\",\"5\",\"7\",\"10\",\"N\",\"C\",\"71\"
\"\",\"\",\"approach-retreat\",\"75\",\"536712\",\"0.0-75.0\",\"\",\"\",\"1-5\",\"5446\",\"39\",\"0\",\"Training\",\"Stims/Figures/57-J-0-1.bmp\",\"None\",\"Left\",\"37\",\"5\",\"8\",\"10\",\"N\",\"C\",\"72\"
\"\",\"\",\"approach-retreat\",\"76\",\"542248\",\"0.0-76.0\",\"\",\"\",\"1-5\",\"4029\",\"39\",\"1\",\"Training\",\"Stims/Figures/19-C-20-4.bmp\",\"None\",\"Left\",\"39\",\"5\",\"9\",\"10\",\"N\",\"C\",\"73\"
\"\",\"\",\"approach-retreat\",\"77\",\"548249\",\"0.0-77.0\",\"\",\"\",\"1-5\",\"4494\",\"37\",\"1\",\"Training\",\"Stims/Figures/93-C-30-1.bmp\",\"None\",\"Right\",\"37\",\"5\",\"10\",\"10\",\"N\",\"C\",\"74\"
\"\",\"\",\"approach-retreat\",\"78\",\"554344\",\"0.0-78.0\",\"\",\"\",\"1-5\",\"4587\",\"38\",\"1\",\"Training\",\"Stims/Figures/44-J-10-3.bmp\",\"None\",\"Up\",\"38\",\"5\",\"11\",\"10\",\"N\",\"C\",\"75\"
\"\",\"\",\"approach-retreat\",\"79\",\"560279\",\"0.0-79.0\",\"\",\"\",\"1-5\",\"4429\",\"38\",\"1\",\"Training\",\"Stims/Figures/128-C-30-3.bmp\",\"None\",\"Down\",\"38\",\"5\",\"12\",\"10\",\"N\",\"C\",\"76\"
\"\",\"\",\"approach-retreat\",\"80\",\"567847\",\"0.0-80.0\",\"\",\"\",\"1-5\",\"6062\",\"40\",\"1\",\"Training\",\"Stims/Figures/94-C-20-2.bmp\",\"None\",\"Up\",\"40\",\"5\",\"13\",\"10\",\"N\",\"C\",\"77\"
\"\",\"\",\"approach-retreat\",\"81\",\"573631\",\"0.0-81.0\",\"\",\"\",\"1-5\",\"4277\",\"37\",\"1\",\"Training\",\"Stims/Figures/94-J-0-2.bmp\",\"None\",\"Left\",\"37\",\"5\",\"14\",\"10\",\"N\",\"C\",\"78\"
\"\",\"\",\"approach-retreat\",\"82\",\"579710\",\"0.0-82.0\",\"\",\"\",\"1-5\",\"4572\",\"40\",\"0\",\"Training\",\"Stims/Figures/44-C-30-3.bmp\",\"None\",\"Down\",\"38\",\"5\",\"15\",\"10\",\"N\",\"C\",\"79\"
\"\",\"\",\"approach-retreat\",\"83\",\"585640\",\"0.0-83.0\",\"\",\"\",\"1-5\",\"4424\",\"39\",\"1\",\"Training\",\"Stims/Figures/19-J-10-4.bmp\",\"None\",\"Right\",\"39\",\"5\",\"16\",\"10\",\"N\",\"C\",\"80\"
\"\",\"\",\"approach-retreat\",\"84\",\"591871\",\"0.0-84.0\",\"\",\"\",\"1-5\",\"4725\",\"40\",\"0\",\"Training\",\"Stims/Figures/128-C-30-3.bmp\",\"None\",\"Down\",\"38\",\"6\",\"1\",\"10\",\"N\",\"C\",\"81\"
\"\",\"\",\"approach-retreat\",\"85\",\"597459\",\"0.0-85.0\",\"\",\"\",\"1-5\",\"4081\",\"39\",\"0\",\"Training\",\"Stims/Figures/57-C-30-1.bmp\",\"None\",\"Right\",\"37\",\"6\",\"2\",\"10\",\"N\",\"C\",\"82\"
\"\",\"\",\"approach-retreat\",\"86\",\"603446\",\"0.0-86.0\",\"\",\"\",\"1-5\",\"4478\",\"38\",\"0\",\"Training\",\"Stims/Figures/7-C-20-4.bmp\",\"None\",\"Up\",\"40\",\"6\",\"3\",\"10\",\"N\",\"C\",\"83\"
\"\",\"\",\"approach-retreat\",\"87\",\"609375\",\"0.0-87.0\",\"\",\"\",\"1-5\",\"4423\",\"37\",\"1\",\"Training\",\"Stims/Figures/19-J-10-4.bmp\",\"None\",\"Left\",\"37\",\"6\",\"4\",\"10\",\"N\",\"C\",\"84\"
\"\",\"\",\"approach-retreat\",\"88\",\"615488\",\"0.0-88.0\",\"\",\"\",\"1-5\",\"4606\",\"37\",\"0\",\"Training\",\"Stims/Figures/85-J-0-2.bmp\",\"None\",\"Right\",\"39\",\"6\",\"5\",\"10\",\"N\",\"C\",\"85\"
\"\",\"\",\"approach-retreat\",\"89\",\"621232\",\"0.0-89.0\",\"\",\"\",\"1-5\",\"4238\",\"38\",\"1\",\"Training\",\"Stims/Figures/19-C-20-4.bmp\",\"None\",\"Down\",\"38\",\"6\",\"6\",\"10\",\"N\",\"C\",\"86\"
\"\",\"\",\"approach-retreat\",\"90\",\"627423\",\"0.0-90.0\",\"\",\"\",\"1-5\",\"4685\",\"40\",\"1\",\"Training\",\"Stims/Figures/94-J-0-2.bmp\",\"None\",\"Down\",\"40\",\"6\",\"7\",\"10\",\"N\",\"C\",\"87\"
\"\",\"\",\"approach-retreat\",\"91\",\"633192\",\"0.0-91.0\",\"\",\"\",\"1-5\",\"4264\",\"39\",\"1\",\"Training\",\"Stims/Figures/44-J-10-3.bmp\",\"None\",\"Right\",\"39\",\"6\",\"8\",\"10\",\"N\",\"C\",\"88\"
\"\",\"\",\"approach-retreat\",\"92\",\"638888\",\"0.0-92.0\",\"\",\"\",\"1-5\",\"4190\",\"38\",\"0\",\"Training\",\"Stims/Figures/128-J-10-3.bmp\",\"None\",\"Down\",\"40\",\"6\",\"9\",\"10\",\"N\",\"C\",\"89\"
\"\",\"\",\"approach-retreat\",\"93\",\"644633\",\"0.0-93.0\",\"\",\"\",\"1-5\",\"4239\",\"38\",\"0\",\"Training\",\"Stims/Figures/85-C-20-2.bmp\",\"None\",\"Up\",\"40\",\"6\",\"10\",\"10\",\"N\",\"C\",\"90\"
\"\",\"\",\"approach-retreat\",\"94\",\"650254\",\"0.0-94.0\",\"\",\"\",\"1-5\",\"4115\",\"37\",\"0\",\"Training\",\"Stims/Figures/44-C-30-3.bmp\",\"None\",\"Left\",\"39\",\"6\",\"11\",\"10\",\"N\",\"C\",\"91\"
\"\",\"\",\"approach-retreat\",\"95\",\"655904\",\"0.0-95.0\",\"\",\"\",\"1-5\",\"4144\",\"37\",\"1\",\"Training\",\"Stims/Figures/93-J-0-1.bmp\",\"None\",\"Left\",\"37\",\"6\",\"12\",\"10\",\"N\",\"C\",\"92\"
\"\",\"\",\"approach-retreat\",\"96\",\"661903\",\"0.0-96.0\",\"\",\"\",\"1-5\",\"4494\",\"38\",\"0\",\"Training\",\"Stims/Figures/94-C-20-2.bmp\",\"None\",\"Up\",\"40\",\"6\",\"13\",\"10\",\"N\",\"C\",\"93\"
\"\",\"\",\"approach-retreat\",\"97\",\"667600\",\"0.0-97.0\",\"\",\"\",\"1-5\",\"4190\",\"37\",\"1\",\"Training\",\"Stims/Figures/7-J-10-4.bmp\",\"None\",\"Left\",\"37\",\"6\",\"14\",\"10\",\"N\",\"C\",\"94\"
\"\",\"\",\"approach-retreat\",\"98\",\"673959\",\"0.0-98.0\",\"\",\"\",\"1-5\",\"4851\",\"39\",\"1\",\"Training\",\"Stims/Figures/57-J-0-1.bmp\",\"None\",\"Right\",\"39\",\"6\",\"15\",\"10\",\"N\",\"C\",\"95\"
\"\",\"\",\"approach-retreat\",\"99\",\"680560\",\"0.0-99.0\",\"\",\"\",\"1-5\",\"5094\",\"40\",\"1\",\"Training\",\"Stims/Figures/93-C-30-1.bmp\",\"None\",\"Up\",\"40\",\"6\",\"16\",\"10\",\"N\",\"C\",\"96\"
\"\",\"\",\"approach-retreat\",\"100\",\"686671\",\"0.0-100.0\",\"\",\"\",\"1-5\",\"4604\",\"38\",\"1\",\"Training\",\"Stims/Figures/94-C-20-2.bmp\",\"None\",\"Down\",\"38\",\"7\",\"1\",\"10\",\"N\",\"C\",\"97\"
\"\",\"\",\"approach-retreat\",\"101\",\"693455\",\"0.0-101.0\",\"\",\"\",\"1-5\",\"5277\",\"39\",\"0\",\"Training\",\"Stims/Figures/19-C-20-4.bmp\",\"None\",\"Right\",\"37\",\"7\",\"2\",\"10\",\"N\",\"C\",\"98\"
\"\",\"\",\"approach-retreat\",\"102\",\"699384\",\"0.0-102.0\",\"\",\"\",\"1-5\",\"4422\",\"39\",\"1\",\"Training\",\"Stims/Figures/57-J-0-1.bmp\",\"None\",\"Right\",\"39\",\"7\",\"3\",\"10\",\"N\",\"C\",\"99\"
\"\",\"\",\"approach-retreat\",\"103\",\"704960\",\"0.0-103.0\",\"\",\"\",\"1-5\",\"4071\",\"37\",\"1\",\"Training\",\"Stims/Figures/93-J-0-1.bmp\",\"None\",\"Left\",\"37\",\"7\",\"4\",\"10\",\"N\",\"C\",\"100\"
\"\",\"\",\"approach-retreat\",\"104\",\"710713\",\"0.0-104.0\",\"\",\"\",\"1-5\",\"4245\",\"40\",\"0\",\"Training\",\"Stims/Figures/7-C-20-4.bmp\",\"None\",\"Down\",\"38\",\"7\",\"5\",\"10\",\"N\",\"C\",\"101\"
\"\",\"\",\"approach-retreat\",\"105\",\"716944\",\"0.0-105.0\",\"\",\"\",\"1-5\",\"4725\",\"40\",\"0\",\"Training\",\"Stims/Figures/128-J-10-3.bmp\",\"None\",\"Up\",\"38\",\"7\",\"6\",\"10\",\"N\",\"C\",\"102\"
\"\",\"\",\"approach-retreat\",\"106\",\"722592\",\"0.0-106.0\",\"\",\"\",\"1-5\",\"4140\",\"37\",\"1\",\"Training\",\"Stims/Figures/44-J-10-3.bmp\",\"None\",\"Left\",\"37\",\"7\",\"7\",\"10\",\"N\",\"C\",\"103\"
\"\",\"\",\"approach-retreat\",\"107\",\"728240\",\"0.0-107.0\",\"\",\"\",\"1-5\",\"4142\",\"38\",\"1\",\"Training\",\"Stims/Figures/94-J-0-2.bmp\",\"None\",\"Up\",\"38\",\"7\",\"8\",\"10\",\"N\",\"C\",\"104\"
\"\",\"\",\"approach-retreat\",\"108\",\"734216\",\"0.0-108.0\",\"\",\"\",\"1-5\",\"4470\",\"39\",\"1\",\"Training\",\"Stims/Figures/85-J-0-2.bmp\",\"None\",\"Right\",\"39\",\"7\",\"9\",\"10\",\"N\",\"C\",\"105\"
\"\",\"\",\"approach-retreat\",\"109\",\"740241\",\"0.0-109.0\",\"\",\"\",\"1-5\",\"4518\",\"40\",\"0\",\"Training\",\"Stims/Figures/128-C-30-3.bmp\",\"None\",\"Down\",\"38\",\"7\",\"10\",\"10\",\"N\",\"C\",\"106\"
\"\",\"\",\"approach-retreat\",\"110\",\"746328\",\"0.0-110.0\",\"\",\"\",\"1-5\",\"4580\",\"38\",\"1\",\"Training\",\"Stims/Figures/19-J-10-4.bmp\",\"None\",\"Up\",\"38\",\"7\",\"11\",\"10\",\"N\",\"C\",\"107\"
\"\",\"\",\"approach-retreat\",\"111\",\"751801\",\"0.0-111.0\",\"\",\"\",\"1-5\",\"3966\",\"38\",\"0\",\"Training\",\"Stims/Figures/93-C-30-1.bmp\",\"None\",\"Up\",\"40\",\"7\",\"12\",\"10\",\"N\",\"C\",\"108\"
\"\",\"\",\"approach-retreat\",\"112\",\"757663\",\"0.0-112.0\",\"\",\"\",\"1-5\",\"4356\",\"40\",\"0\",\"Training\",\"Stims/Figures/57-C-30-1.bmp\",\"None\",\"Down\",\"38\",\"7\",\"13\",\"10\",\"N\",\"C\",\"109\"
\"\",\"\",\"approach-retreat\",\"113\",\"764167\",\"0.0-113.0\",\"\",\"\",\"1-5\",\"4994\",\"39\",\"1\",\"Training\",\"Stims/Figures/7-J-10-4.bmp\",\"None\",\"Right\",\"39\",\"7\",\"14\",\"10\",\"N\",\"C\",\"110\"
\"\",\"\",\"approach-retreat\",\"114\",\"769969\",\"0.0-114.0\",\"\",\"\",\"1-5\",\"4295\",\"37\",\"0\",\"Training\",\"Stims/Figures/44-C-30-3.bmp\",\"None\",\"Left\",\"39\",\"7\",\"15\",\"10\",\"N\",\"C\",\"111\"
\"\",\"\",\"approach-retreat\",\"115\",\"776519\",\"0.0-115.0\",\"\",\"\",\"1-5\",\"5044\",\"39\",\"1\",\"Training\",\"Stims/Figures/85-C-20-2.bmp\",\"None\",\"Left\",\"39\",\"7\",\"16\",\"10\",\"N\",\"C\",\"112\"
\"\",\"\",\"approach-retreat\",\"116\",\"782169\",\"0.0-116.0\",\"\",\"\",\"1-5\",\"4145\",\"37\",\"1\",\"Training\",\"Stims/Figures/94-J-0-2.bmp\",\"None\",\"Left\",\"37\",\"8\",\"1\",\"10\",\"N\",\"C\",\"113\"
\"\",\"\",\"approach-retreat\",\"117\",\"788136\",\"0.0-117.0\",\"\",\"\",\"1-5\",\"4460\",\"38\",\"0\",\"Training\",\"Stims/Figures/85-C-20-2.bmp\",\"None\",\"Up\",\"40\",\"8\",\"2\",\"10\",\"N\",\"C\",\"114\"
\"\",\"\",\"approach-retreat\",\"118\",\"793783\",\"0.0-118.0\",\"\",\"\",\"1-5\",\"4140\",\"40\",\"1\",\"Training\",\"Stims/Figures/128-C-30-3.bmp\",\"None\",\"Up\",\"40\",\"8\",\"3\",\"10\",\"N\",\"C\",\"115\"
\"\",\"\",\"approach-retreat\",\"119\",\"799617\",\"0.0-119.0\",\"\",\"\",\"1-5\",\"4327\",\"37\",\"0\",\"Training\",\"Stims/Figures/7-C-20-4.bmp\",\"None\",\"Left\",\"39\",\"8\",\"4\",\"10\",\"N\",\"C\",\"116\"
\"\",\"\",\"approach-retreat\",\"120\",\"805783\",\"0.0-120.0\",\"\",\"\",\"1-5\",\"4660\",\"40\",\"0\",\"Training\",\"Stims/Figures/93-C-30-1.bmp\",\"None\",\"Down\",\"38\",\"8\",\"5\",\"10\",\"N\",\"C\",\"117\"
\"\",\"\",\"approach-retreat\",\"121\",\"811559\",\"0.0-121.0\",\"\",\"\",\"1-5\",\"4270\",\"38\",\"1\",\"Training\",\"Stims/Figures/19-J-10-4.bmp\",\"None\",\"Up\",\"38\",\"8\",\"6\",\"10\",\"N\",\"C\",\"118\"
\"\",\"\",\"approach-retreat\",\"122\",\"817288\",\"0.0-122.0\",\"\",\"\",\"1-5\",\"4222\",\"37\",\"0\",\"Training\",\"Stims/Figures/94-C-20-2.bmp\",\"None\",\"Left\",\"39\",\"8\",\"7\",\"10\",\"N\",\"C\",\"119\"
\"\",\"\",\"approach-retreat\",\"123\",\"822999\",\"0.0-123.0\",\"\",\"\",\"1-5\",\"4204\",\"39\",\"1\",\"Training\",\"Stims/Figures/93-J-0-1.bmp\",\"None\",\"Right\",\"39\",\"8\",\"8\",\"10\",\"N\",\"C\",\"120\"
\"\",\"\",\"approach-retreat\",\"124\",\"828367\",\"0.0-124.0\",\"\",\"\",\"1-5\",\"3863\",\"39\",\"1\",\"Training\",\"Stims/Figures/57-J-0-1.bmp\",\"None\",\"Right\",\"39\",\"8\",\"9\",\"10\",\"N\",\"C\",\"121\"
\"\",\"\",\"approach-retreat\",\"125\",\"834896\",\"0.0-125.0\",\"\",\"\",\"1-5\",\"5023\",\"37\",\"0\",\"Training\",\"Stims/Figures/57-C-30-1.bmp\",\"None\",\"Left\",\"39\",\"8\",\"10\",\"10\",\"N\",\"C\",\"122\"
\"\",\"\",\"approach-retreat\",\"126\",\"840616\",\"0.0-126.0\",\"\",\"\",\"1-5\",\"4213\",\"38\",\"1\",\"Training\",\"Stims/Figures/44-J-10-3.bmp\",\"None\",\"Up\",\"38\",\"8\",\"11\",\"10\",\"N\",\"C\",\"123\"
\"\",\"\",\"approach-retreat\",\"127\",\"846152\",\"0.0-127.0\",\"\",\"\",\"1-5\",\"4031\",\"39\",\"1\",\"Training\",\"Stims/Figures/7-J-10-4.bmp\",\"None\",\"Right\",\"39\",\"8\",\"12\",\"10\",\"N\",\"C\",\"124\"
\"\",\"\",\"approach-retreat\",\"128\",\"851968\",\"0.0-128.0\",\"\",\"\",\"1-5\",\"4308\",\"40\",\"1\",\"Training\",\"Stims/Figures/85-J-0-2.bmp\",\"None\",\"Down\",\"40\",\"8\",\"13\",\"10\",\"N\",\"C\",\"125\"
\"\",\"\",\"approach-retreat\",\"129\",\"857663\",\"0.0-129.0\",\"\",\"\",\"1-5\",\"4189\",\"40\",\"0\",\"Training\",\"Stims/Figures/44-C-30-3.bmp\",\"None\",\"Down\",\"38\",\"8\",\"14\",\"10\",\"N\",\"C\",\"126\"
\"\",\"\",\"approach-retreat\",\"130\",\"863199\",\"0.0-130.0\",\"\",\"\",\"1-5\",\"4030\",\"39\",\"1\",\"Training\",\"Stims/Figures/128-J-10-3.bmp\",\"None\",\"Right\",\"39\",\"8\",\"15\",\"10\",\"N\",\"C\",\"127\"
\"\",\"\",\"approach-retreat\",\"131\",\"869520\",\"0.0-131.0\",\"\",\"\",\"1-5\",\"4817\",\"40\",\"0\",\"Training\",\"Stims/Figures/19-C-20-4.bmp\",\"None\",\"Down\",\"38\",\"8\",\"16\",\"10\",\"N\",\"C\",\"128\"
\"\",\"\",\"approach-retreat\",\"132\",\"875751\",\"0.0-132.0\",\"\",\"\",\"1-5\",\"4725\",\"39\",\"0\",\"Training\",\"Stims/Figures/94-C-20-2.bmp\",\"None\",\"Right\",\"37\",\"9\",\"1\",\"10\",\"N\",\"C\",\"129\"
\"\",\"\",\"approach-retreat\",\"133\",\"883304\",\"0.0-133.0\",\"\",\"\",\"1-5\",\"6051\",\"39\",\"0\",\"Training\",\"Stims/Figures/7-C-20-4.bmp\",\"None\",\"Right\",\"37\",\"9\",\"2\",\"10\",\"N\",\"C\",\"130\"
\"\",\"\",\"approach-retreat\",\"134\",\"889775\",\"0.0-134.0\",\"\",\"\",\"1-5\",\"4965\",\"38\",\"1\",\"Training\",\"Stims/Figures/94-J-0-2.bmp\",\"None\",\"Up\",\"38\",\"9\",\"3\",\"10\",\"N\",\"C\",\"131\"
\"\",\"\",\"approach-retreat\",\"135\",\"895360\",\"0.0-135.0\",\"\",\"\",\"1-5\",\"4079\",\"39\",\"1\",\"Training\",\"Stims/Figures/93-C-30-1.bmp\",\"None\",\"Left\",\"39\",\"9\",\"4\",\"10\",\"N\",\"C\",\"132\"
\"\",\"\",\"approach-retreat\",\"136\",\"901777\",\"0.0-136.0\",\"\",\"\",\"1-5\",\"4909\",\"38\",\"0\",\"Training\",\"Stims/Figures/57-J-0-1.bmp\",\"None\",\"Down\",\"40\",\"9\",\"5\",\"10\",\"N\",\"C\",\"133\"
\"\",\"\",\"approach-retreat\",\"137\",\"907256\",\"0.0-137.0\",\"\",\"\",\"1-5\",\"3975\",\"37\",\"1\",\"Training\",\"Stims/Figures/7-J-10-4.bmp\",\"None\",\"Left\",\"37\",\"9\",\"6\",\"10\",\"N\",\"C\",\"134\"
\"\",\"\",\"approach-retreat\",\"138\",\"912830\",\"0.0-138.0\",\"\",\"\",\"1-5\",\"4068\",\"39\",\"1\",\"Training\",\"Stims/Figures/19-C-20-4.bmp\",\"None\",\"Left\",\"39\",\"9\",\"7\",\"10\",\"N\",\"C\",\"135\"
\"\",\"\",\"approach-retreat\",\"139\",\"918609\",\"0.0-139.0\",\"\",\"\",\"1-5\",\"4268\",\"40\",\"0\",\"Training\",\"Stims/Figures/85-C-20-2.bmp\",\"None\",\"Down\",\"38\",\"9\",\"8\",\"10\",\"N\",\"C\",\"136\"
\"\",\"\",\"approach-retreat\",\"140\",\"924480\",\"0.0-140.0\",\"\",\"\",\"1-5\",\"4366\",\"38\",\"1\",\"Training\",\"Stims/Figures/85-J-0-2.bmp\",\"None\",\"Up\",\"38\",\"9\",\"9\",\"10\",\"N\",\"C\",\"137\"
\"\",\"\",\"approach-retreat\",\"141\",\"931072\",\"0.0-141.0\",\"\",\"\",\"1-5\",\"5087\",\"40\",\"1\",\"Training\",\"Stims/Figures/44-J-10-3.bmp\",\"None\",\"Down\",\"40\",\"9\",\"10\",\"10\",\"N\",\"C\",\"138\"
\"\",\"\",\"approach-retreat\",\"142\",\"937399\",\"0.0-142.0\",\"\",\"\",\"1-5\",\"4821\",\"39\",\"0\",\"Training\",\"Stims/Figures/44-C-30-3.bmp\",\"None\",\"Right\",\"37\",\"9\",\"11\",\"10\",\"N\",\"C\",\"139\"
\"\",\"\",\"approach-retreat\",\"143\",\"944634\",\"0.0-143.0\",\"\",\"\",\"1-5\",\"5727\",\"38\",\"0\",\"Training\",\"Stims/Figures/128-J-10-3.bmp\",\"None\",\"Down\",\"40\",\"9\",\"12\",\"10\",\"N\",\"C\",\"140\"
\"\",\"\",\"approach-retreat\",\"144\",\"952208\",\"0.0-144.0\",\"\",\"\",\"1-5\",\"6069\",\"39\",\"1\",\"Training\",\"Stims/Figures/93-J-0-1.bmp\",\"None\",\"Right\",\"39\",\"9\",\"13\",\"10\",\"N\",\"C\",\"141\"
\"\",\"\",\"approach-retreat\",\"145\",\"958688\",\"0.0-145.0\",\"\",\"\",\"1-5\",\"4974\",\"39\",\"1\",\"Training\",\"Stims/Figures/128-C-30-3.bmp\",\"None\",\"Left\",\"39\",\"9\",\"14\",\"10\",\"N\",\"C\",\"142\"
\"\",\"\",\"approach-retreat\",\"146\",\"964479\",\"0.0-146.0\",\"\",\"\",\"1-5\",\"4284\",\"40\",\"1\",\"Training\",\"Stims/Figures/57-C-30-1.bmp\",\"None\",\"Up\",\"40\",\"9\",\"15\",\"10\",\"N\",\"C\",\"143\"
\"\",\"\",\"approach-retreat\",\"147\",\"970081\",\"0.0-147.0\",\"\",\"\",\"1-5\",\"4095\",\"40\",\"0\",\"Training\",\"Stims/Figures/19-J-10-4.bmp\",\"None\",\"Up\",\"38\",\"9\",\"16\",\"10\",\"N\",\"C\",\"144\"
\"15394\",\"\",\"instructions\",\"148\",\"985476\",\"0.0-148.0\",\"[{\"\"page_index\"\":0,\"\"viewing_time\"\":15394}]\",\"\",\"\",\"\",\"\",\"\",\"\",\"\",\"\",\"\",\"\",\"\",\"\",\"\",\"\",\"\",\"\"
\"\",\"\",\"approach-retreat\",\"149\",\"992151\",\"0.0-149.0\",\"\",\"\",\"1-5\",\"5169\",\"40\",\"1\",\"Testing\",\"Stims/Figures/85-J-0-2.bmp\",\"None\",\"Down\",\"40\",\"1\",\"1\",\"10\",\"N\",\"C\",\"1\"
\"\",\"\",\"approach-retreat\",\"150\",\"997736\",\"0.0-150.0\",\"\",\"\",\"1-5\",\"4078\",\"37\",\"1\",\"Testing\",\"Stims/Figures/57-C-30-1.bmp\",\"None\",\"Right\",\"37\",\"1\",\"2\",\"10\",\"N\",\"C\",\"2\"
\"\",\"\",\"approach-retreat\",\"151\",\"1003742\",\"0.0-151.0\",\"\",\"\",\"1-5\",\"4500\",\"38\",\"1\",\"Testing\",\"Stims/Figures/57-J-0-1.bmp\",\"None\",\"Up\",\"38\",\"1\",\"3\",\"10\",\"N\",\"C\",\"3\"
\"\",\"\",\"approach-retreat\",\"152\",\"1009392\",\"0.0-152.0\",\"\",\"\",\"1-5\",\"4142\",\"40\",\"1\",\"Testing\",\"Stims/Figures/128-C-30-3.bmp\",\"None\",\"Up\",\"40\",\"1\",\"4\",\"10\",\"N\",\"C\",\"4\"
\"\",\"\",\"approach-retreat\",\"153\",\"1015317\",\"0.0-153.0\",\"\",\"\",\"1-5\",\"4419\",\"40\",\"1\",\"Testing\",\"Stims/Figures/118-J-0-2.bmp\",\"None\",\"Down\",\"40\",\"1\",\"5\",\"10\",\"N\",\"C\",\"5\"
\"\",\"\",\"approach-retreat\",\"154\",\"1021536\",\"0.0-154.0\",\"\",\"\",\"1-5\",\"4716\",\"38\",\"1\",\"Testing\",\"Stims/Figures/7-J-10-4.bmp\",\"None\",\"Up\",\"38\",\"1\",\"6\",\"10\",\"N\",\"C\",\"6\"
\"\",\"\",\"approach-retreat\",\"155\",\"1027134\",\"0.0-155.0\",\"\",\"\",\"1-5\",\"4093\",\"38\",\"1\",\"Testing\",\"Stims/Figures/19-C-20-4.bmp\",\"None\",\"Down\",\"38\",\"1\",\"7\",\"10\",\"N\",\"C\",\"7\"
\"\",\"\",\"approach-retreat\",\"156\",\"1032767\",\"0.0-156.0\",\"\",\"\",\"1-5\",\"4128\",\"40\",\"1\",\"Testing\",\"Stims/Figures/100-C-30-3.bmp\",\"None\",\"Up\",\"40\",\"1\",\"8\",\"10\",\"N\",\"C\",\"8\"
\"\",\"\",\"approach-retreat\",\"157\",\"1038615\",\"0.0-157.0\",\"\",\"\",\"1-5\",\"4342\",\"37\",\"1\",\"Testing\",\"Stims/Figures/71-J-0-1.bmp\",\"None\",\"Left\",\"37\",\"1\",\"9\",\"10\",\"N\",\"C\",\"9\"
\"\",\"\",\"approach-retreat\",\"158\",\"1044183\",\"0.0-158.0\",\"\",\"\",\"1-5\",\"4062\",\"37\",\"1\",\"Testing\",\"Stims/Figures/74-C-20-4.bmp\",\"None\",\"Right\",\"37\",\"1\",\"10\",\"10\",\"N\",\"C\",\"10\"
\"\",\"\",\"approach-retreat\",\"159\",\"1049943\",\"0.0-159.0\",\"\",\"\",\"1-5\",\"4252\",\"38\",\"1\",\"Testing\",\"Stims/Figures/71-C-30-1.bmp\",\"None\",\"Down\",\"38\",\"1\",\"11\",\"10\",\"N\",\"C\",\"11\"
\"\",\"\",\"approach-retreat\",\"160\",\"1055432\",\"0.0-160.0\",\"\",\"\",\"1-5\",\"3982\",\"37\",\"1\",\"Testing\",\"Stims/Figures/85-C-20-2.bmp\",\"None\",\"Right\",\"37\",\"1\",\"12\",\"10\",\"N\",\"C\",\"12\"
\"\",\"\",\"approach-retreat\",\"161\",\"1060886\",\"0.0-161.0\",\"\",\"\",\"1-5\",\"3949\",\"39\",\"1\",\"Testing\",\"Stims/Figures/44-C-30-3.bmp\",\"None\",\"Left\",\"39\",\"1\",\"13\",\"10\",\"N\",\"C\",\"13\"
\"\",\"\",\"approach-retreat\",\"162\",\"1067255\",\"0.0-162.0\",\"\",\"\",\"1-5\",\"4862\",\"39\",\"1\",\"Testing\",\"Stims/Figures/94-C-20-2.bmp\",\"None\",\"Left\",\"39\",\"1\",\"14\",\"10\",\"N\",\"C\",\"14\"
\"\",\"\",\"approach-retreat\",\"163\",\"1072719\",\"0.0-163.0\",\"\",\"\",\"1-5\",\"3956\",\"37\",\"1\",\"Testing\",\"Stims/Figures/93-C-30-1.bmp\",\"None\",\"Right\",\"37\",\"1\",\"15\",\"10\",\"N\",\"C\",\"15\"
\"\",\"\",\"approach-retreat\",\"164\",\"1078454\",\"0.0-164.0\",\"\",\"\",\"1-5\",\"4230\",\"38\",\"1\",\"Testing\",\"Stims/Figures/44-J-10-3.bmp\",\"None\",\"Up\",\"38\",\"1\",\"16\",\"10\",\"N\",\"C\",\"16\"
\"\",\"\",\"approach-retreat\",\"165\",\"1083934\",\"0.0-165.0\",\"\",\"\",\"1-5\",\"3974\",\"37\",\"1\",\"Testing\",\"Stims/Figures/93-J-0-1.bmp\",\"None\",\"Left\",\"37\",\"1\",\"17\",\"10\",\"N\",\"C\",\"17\"
\"\",\"\",\"approach-retreat\",\"166\",\"1091151\",\"0.0-166.0\",\"\",\"\",\"1-5\",\"5711\",\"40\",\"0\",\"Testing\",\"Stims/Figures/7-C-20-4.bmp\",\"None\",\"Down\",\"38\",\"1\",\"18\",\"10\",\"N\",\"C\",\"18\"
\"\",\"\",\"approach-retreat\",\"167\",\"1096918\",\"0.0-167.0\",\"\",\"\",\"1-5\",\"4260\",\"39\",\"1\",\"Testing\",\"Stims/Figures/100-J-10-3.bmp\",\"None\",\"Right\",\"39\",\"1\",\"19\",\"10\",\"N\",\"C\",\"19\"
\"\",\"\",\"approach-retreat\",\"168\",\"1102503\",\"0.0-168.0\",\"\",\"\",\"1-5\",\"4079\",\"37\",\"1\",\"Testing\",\"Stims/Figures/94-J-0-2.bmp\",\"None\",\"Left\",\"37\",\"1\",\"20\",\"10\",\"N\",\"C\",\"20\"
\"\",\"\",\"approach-retreat\",\"169\",\"1108118\",\"0.0-169.0\",\"\",\"\",\"1-5\",\"4108\",\"40\",\"0\",\"Testing\",\"Stims/Figures/19-J-10-4.bmp\",\"None\",\"Up\",\"38\",\"1\",\"21\",\"10\",\"N\",\"C\",\"21\"
\"\",\"\",\"approach-retreat\",\"170\",\"1113766\",\"0.0-170.0\",\"\",\"\",\"1-5\",\"4143\",\"37\",\"0\",\"Testing\",\"Stims/Figures/74-J-10-4.bmp\",\"None\",\"Right\",\"39\",\"1\",\"22\",\"10\",\"N\",\"C\",\"22\"
\"\",\"\",\"approach-retreat\",\"171\",\"1119646\",\"0.0-171.0\",\"\",\"\",\"1-5\",\"4374\",\"40\",\"1\",\"Testing\",\"Stims/Figures/128-J-10-3.bmp\",\"None\",\"Down\",\"40\",\"1\",\"23\",\"10\",\"N\",\"C\",\"23\"
\"\",\"\",\"approach-retreat\",\"172\",\"1125198\",\"0.0-172.0\",\"\",\"\",\"1-5\",\"4049\",\"39\",\"1\",\"Testing\",\"Stims/Figures/118-C-20-2.bmp\",\"None\",\"Left\",\"39\",\"1\",\"24\",\"10\",\"N\",\"C\",\"24\"
\"\",\"\",\"approach-retreat\",\"173\",\"1130679\",\"0.0-173.0\",\"\",\"\",\"1-5\",\"3974\",\"39\",\"0\",\"Testing\",\"Stims/Figures/74-J-10-4.bmp\",\"None\",\"Left\",\"37\",\"2\",\"1\",\"10\",\"N\",\"C\",\"25\"
\"\",\"\",\"approach-retreat\",\"174\",\"1136319\",\"0.0-174.0\",\"\",\"\",\"1-5\",\"4133\",\"38\",\"1\",\"Testing\",\"Stims/Figures/57-J-0-1.bmp\",\"None\",\"Up\",\"38\",\"2\",\"2\",\"10\",\"N\",\"C\",\"26\"
\"\",\"\",\"approach-retreat\",\"175\",\"1142166\",\"0.0-175.0\",\"\",\"\",\"1-5\",\"4342\",\"38\",\"1\",\"Testing\",\"Stims/Figures/94-C-20-2.bmp\",\"None\",\"Down\",\"38\",\"2\",\"3\",\"10\",\"N\",\"C\",\"27\"
\"\",\"\",\"approach-retreat\",\"176\",\"1148656\",\"0.0-176.0\",\"\",\"\",\"1-5\",\"4983\",\"37\",\"1\",\"Testing\",\"Stims/Figures/94-J-0-2.bmp\",\"None\",\"Left\",\"37\",\"2\",\"4\",\"10\",\"N\",\"C\",\"28\"
\"\",\"\",\"approach-retreat\",\"177\",\"1155710\",\"0.0-177.0\",\"\",\"\",\"1-5\",\"5548\",\"39\",\"1\",\"Testing\",\"Stims/Figures/7-J-10-4.bmp\",\"None\",\"Right\",\"39\",\"2\",\"5\",\"10\",\"N\",\"C\",\"29\"
\"\",\"\",\"approach-retreat\",\"178\",\"1161472\",\"0.0-178.0\",\"\",\"\",\"1-5\",\"4254\",\"40\",\"0\",\"Testing\",\"Stims/Figures/7-C-20-4.bmp\",\"None\",\"Down\",\"38\",\"2\",\"6\",\"10\",\"N\",\"C\",\"30\"
\"\",\"\",\"approach-retreat\",\"179\",\"1169478\",\"0.0-179.0\",\"\",\"\",\"1-5\",\"6500\",\"38\",\"1\",\"Testing\",\"Stims/Figures/19-J-10-4.bmp\",\"None\",\"Up\",\"38\",\"2\",\"7\",\"10\",\"N\",\"C\",\"31\"
\"\",\"\",\"approach-retreat\",\"180\",\"1175759\",\"0.0-180.0\",\"\",\"\",\"1-5\",\"4775\",\"37\",\"0\",\"Testing\",\"Stims/Figures/100-C-30-3.bmp\",\"None\",\"Left\",\"39\",\"2\",\"8\",\"10\",\"N\",\"C\",\"32\"
\"\",\"\",\"approach-retreat\",\"181\",\"1184356\",\"0.0-181.0\",\"\",\"\",\"1-5\",\"7091\",\"39\",\"1\",\"Testing\",\"Stims/Figures/85-J-0-2.bmp\",\"None\",\"Right\",\"39\",\"2\",\"9\",\"10\",\"N\",\"C\",\"33\"
\"\",\"\",\"approach-retreat\",\"182\",\"1193511\",\"0.0-182.0\",\"\",\"\",\"1-5\",\"7648\",\"40\",\"0\",\"Testing\",\"Stims/Figures/74-C-20-4.bmp\",\"None\",\"Down\",\"38\",\"2\",\"10\",\"10\",\"N\",\"C\",\"34\"
\"\",\"\",\"approach-retreat\",\"183\",\"1200742\",\"0.0-183.0\",\"\",\"\",\"1-5\",\"5730\",\"39\",\"0\",\"Testing\",\"Stims/Figures/85-C-20-2.bmp\",\"None\",\"Right\",\"37\",\"2\",\"11\",\"10\",\"N\",\"C\",\"35\"
\"\",\"\",\"approach-retreat\",\"184\",\"1209718\",\"0.0-184.0\",\"\",\"\",\"1-5\",\"7468\",\"39\",\"1\",\"Testing\",\"Stims/Figures/93-C-30-1.bmp\",\"None\",\"Left\",\"39\",\"2\",\"12\",\"10\",\"N\",\"C\",\"36\"
\"\",\"\",\"approach-retreat\",\"185\",\"1216012\",\"0.0-185.0\",\"\",\"\",\"1-5\",\"4790\",\"40\",\"1\",\"Testing\",\"Stims/Figures/128-C-30-3.bmp\",\"None\",\"Up\",\"40\",\"2\",\"13\",\"10\",\"N\",\"C\",\"37\"
\"\",\"\",\"approach-retreat\",\"186\",\"1221607\",\"0.0-186.0\",\"\",\"\",\"1-5\",\"4088\",\"38\",\"1\",\"Testing\",\"Stims/Figures/118-J-0-2.bmp\",\"None\",\"Up\",\"38\",\"2\",\"14\",\"10\",\"N\",\"C\",\"38\"
\"\",\"\",\"approach-retreat\",\"187\",\"1229268\",\"0.0-187.0\",\"\",\"\",\"1-5\",\"6160\",\"39\",\"0\",\"Testing\",\"Stims/Figures/44-C-30-3.bmp\",\"None\",\"Right\",\"37\",\"2\",\"15\",\"10\",\"N\",\"C\",\"39\"
\"\",\"\",\"approach-retreat\",\"188\",\"1234959\",\"0.0-188.0\",\"\",\"\",\"1-5\",\"4183\",\"40\",\"1\",\"Testing\",\"Stims/Figures/128-J-10-3.bmp\",\"None\",\"Down\",\"40\",\"2\",\"16\",\"10\",\"N\",\"C\",\"40\"
\"\",\"\",\"approach-retreat\",\"189\",\"1241084\",\"0.0-189.0\",\"\",\"\",\"1-5\",\"4620\",\"40\",\"1\",\"Testing\",\"Stims/Figures/71-C-30-1.bmp\",\"None\",\"Up\",\"40\",\"2\",\"17\",\"10\",\"N\",\"C\",\"41\"
\"\",\"\",\"approach-retreat\",\"190\",\"1247798\",\"0.0-190.0\",\"\",\"\",\"1-5\",\"5204\",\"39\",\"0\",\"Testing\",\"Stims/Figures/57-C-30-1.bmp\",\"None\",\"Right\",\"37\",\"2\",\"18\",\"10\",\"N\",\"C\",\"42\"
\"\",\"\",\"approach-retreat\",\"191\",\"1254821\",\"0.0-191.0\",\"\",\"\",\"1-5\",\"5517\",\"37\",\"1\",\"Testing\",\"Stims/Figures/100-J-10-3.bmp\",\"None\",\"Left\",\"37\",\"2\",\"19\",\"10\",\"N\",\"C\",\"43\"
\"\",\"\",\"approach-retreat\",\"192\",\"1260264\",\"0.0-192.0\",\"\",\"\",\"1-5\",\"3934\",\"37\",\"1\",\"Testing\",\"Stims/Figures/44-J-10-3.bmp\",\"None\",\"Left\",\"37\",\"2\",\"20\",\"10\",\"N\",\"C\",\"44\"
\"\",\"\",\"approach-retreat\",\"193\",\"1268069\",\"0.0-193.0\",\"\",\"\",\"1-5\",\"6299\",\"38\",\"0\",\"Testing\",\"Stims/Figures/118-C-20-2.bmp\",\"None\",\"Up\",\"40\",\"2\",\"21\",\"10\",\"N\",\"C\",\"45\"
\"\",\"\",\"approach-retreat\",\"194\",\"1273686\",\"0.0-194.0\",\"\",\"\",\"1-5\",\"4111\",\"40\",\"1\",\"Testing\",\"Stims/Figures/93-J-0-1.bmp\",\"None\",\"Down\",\"40\",\"2\",\"22\",\"10\",\"N\",\"C\",\"46\"
\"\",\"\",\"approach-retreat\",\"195\",\"1279750\",\"0.0-195.0\",\"\",\"\",\"1-5\",\"4552\",\"40\",\"0\",\"Testing\",\"Stims/Figures/19-C-20-4.bmp\",\"None\",\"Down\",\"38\",\"2\",\"23\",\"10\",\"N\",\"C\",\"47\"
\"\",\"\",\"approach-retreat\",\"196\",\"1286944\",\"0.0-196.0\",\"\",\"\",\"1-5\",\"5688\",\"39\",\"1\",\"Testing\",\"Stims/Figures/71-J-0-1.bmp\",\"None\",\"Right\",\"39\",\"2\",\"24\",\"10\",\"N\",\"C\",\"48\"
\"\",\"\",\"approach-retreat\",\"197\",\"1295014\",\"0.0-197.0\",\"\",\"\",\"1-5\",\"6565\",\"37\",\"0\",\"Testing\",\"Stims/Figures/94-C-20-2.bmp\",\"None\",\"Left\",\"39\",\"3\",\"1\",\"10\",\"N\",\"C\",\"49\"
\"\",\"\",\"approach-retreat\",\"198\",\"1300934\",\"0.0-198.0\",\"\",\"\",\"1-5\",\"4416\",\"39\",\"0\",\"Testing\",\"Stims/Figures/128-C-30-3.bmp\",\"None\",\"Right\",\"37\",\"3\",\"2\",\"10\",\"N\",\"C\",\"50\"
\"\",\"\",\"approach-retreat\",\"199\",\"1306645\",\"0.0-199.0\",\"\",\"\",\"1-5\",\"4205\",\"40\",\"1\",\"Testing\",\"Stims/Figures/100-J-10-3.bmp\",\"None\",\"Down\",\"40\",\"3\",\"3\",\"10\",\"N\",\"C\",\"51\"
\"\",\"\",\"approach-retreat\",\"200\",\"1312478\",\"0.0-200.0\",\"\",\"\",\"1-5\",\"4326\",\"38\",\"0\",\"Testing\",\"Stims/Figures/19-C-20-4.bmp\",\"None\",\"Up\",\"40\",\"3\",\"4\",\"10\",\"N\",\"C\",\"52\"
\"\",\"\",\"approach-retreat\",\"201\",\"1318581\",\"0.0-201.0\",\"\",\"\",\"1-5\",\"4597\",\"40\",\"1\",\"Testing\",\"Stims/Figures/44-J-10-3.bmp\",\"None\",\"Down\",\"40\",\"3\",\"5\",\"10\",\"N\",\"C\",\"53\"
\"\",\"\",\"approach-retreat\",\"202\",\"1324374\",\"0.0-202.0\",\"\",\"\",\"1-5\",\"4283\",\"38\",\"0\",\"Testing\",\"Stims/Figures/118-C-20-2.bmp\",\"None\",\"Up\",\"40\",\"3\",\"6\",\"10\",\"N\",\"C\",\"54\"
\"\",\"\",\"approach-retreat\",\"203\",\"1335159\",\"0.0-203.0\",\"\",\"\",\"1-5\",\"9279\",\"37\",\"1\",\"Testing\",\"Stims/Figures/7-J-10-4.bmp\",\"None\",\"Left\",\"37\",\"3\",\"7\",\"10\",\"N\",\"C\",\"55\"
\"\",\"\",\"approach-retreat\",\"204\",\"1340678\",\"0.0-204.0\",\"\",\"\",\"1-5\",\"4012\",\"40\",\"0\",\"Testing\",\"Stims/Figures/19-J-10-4.bmp\",\"None\",\"Up\",\"38\",\"3\",\"8\",\"10\",\"N\",\"C\",\"56\"
\"\",\"\",\"approach-retreat\",\"205\",\"1347599\",\"0.0-205.0\",\"\",\"\",\"1-5\",\"5414\",\"39\",\"1\",\"Testing\",\"Stims/Figures/74-J-10-4.bmp\",\"None\",\"Right\",\"39\",\"3\",\"9\",\"10\",\"N\",\"C\",\"57\"
\"\",\"\",\"approach-retreat\",\"206\",\"1353093\",\"0.0-206.0\",\"\",\"\",\"1-5\",\"3989\",\"37\",\"0\",\"Testing\",\"Stims/Figures/128-J-10-3.bmp\",\"None\",\"Right\",\"39\",\"3\",\"10\",\"10\",\"N\",\"C\",\"58\"
\"\",\"\",\"approach-retreat\",\"207\",\"1362679\",\"0.0-207.0\",\"\",\"\",\"1-5\",\"8080\",\"40\",\"0\",\"Testing\",\"Stims/Figures/100-C-30-3.bmp\",\"None\",\"Down\",\"38\",\"3\",\"11\",\"10\",\"N\",\"C\",\"59\"
\"\",\"\",\"approach-retreat\",\"208\",\"1370862\",\"0.0-208.0\",\"\",\"\",\"1-5\",\"6676\",\"40\",\"1\",\"Testing\",\"Stims/Figures/71-C-30-1.bmp\",\"None\",\"Up\",\"40\",\"3\",\"12\",\"10\",\"N\",\"C\",\"60\"
\"\",\"\",\"approach-retreat\",\"209\",\"1376375\",\"0.0-209.0\",\"\",\"\",\"1-5\",\"4006\",\"39\",\"1\",\"Testing\",\"Stims/Figures/57-J-0-1.bmp\",\"None\",\"Right\",\"39\",\"3\",\"13\",\"10\",\"N\",\"C\",\"61\"
\"\",\"\",\"approach-retreat\",\"210\",\"1382861\",\"0.0-210.0\",\"\",\"\",\"1-5\",\"4982\",\"37\",\"1\",\"Testing\",\"Stims/Figures/93-J-0-1.bmp\",\"None\",\"Left\",\"37\",\"3\",\"14\",\"10\",\"N\",\"C\",\"62\"
\"\",\"\",\"approach-retreat\",\"211\",\"1388808\",\"0.0-211.0\",\"\",\"\",\"1-5\",\"4439\",\"40\",\"1\",\"Testing\",\"Stims/Figures/71-J-0-1.bmp\",\"None\",\"Down\",\"40\",\"3\",\"15\",\"10\",\"N\",\"C\",\"63\"
\"\",\"\",\"approach-retreat\",\"212\",\"1395279\",\"0.0-212.0\",\"\",\"\",\"1-5\",\"4963\",\"38\",\"1\",\"Testing\",\"Stims/Figures/44-C-30-3.bmp\",\"None\",\"Down\",\"38\",\"3\",\"16\",\"10\",\"N\",\"C\",\"64\"
\"\",\"\",\"approach-retreat\",\"213\",\"1401102\",\"0.0-213.0\",\"\",\"\",\"1-5\",\"4319\",\"39\",\"1\",\"Testing\",\"Stims/Figures/93-C-30-1.bmp\",\"None\",\"Left\",\"39\",\"3\",\"17\",\"10\",\"N\",\"C\",\"65\"
\"\",\"\",\"approach-retreat\",\"214\",\"1407838\",\"0.0-214.0\",\"\",\"\",\"1-5\",\"5228\",\"39\",\"1\",\"Testing\",\"Stims/Figures/74-C-20-4.bmp\",\"None\",\"Left\",\"39\",\"3\",\"18\",\"10\",\"N\",\"C\",\"66\"
\"\",\"\",\"approach-retreat\",\"215\",\"1413758\",\"0.0-215.0\",\"\",\"\",\"1-5\",\"4414\",\"38\",\"0\",\"Testing\",\"Stims/Figures/57-C-30-1.bmp\",\"None\",\"Up\",\"40\",\"3\",\"19\",\"10\",\"N\",\"C\",\"67\"
\"\",\"\",\"approach-retreat\",\"216\",\"1419309\",\"0.0-216.0\",\"\",\"\",\"1-5\",\"4045\",\"39\",\"1\",\"Testing\",\"Stims/Figures/118-J-0-2.bmp\",\"None\",\"Right\",\"39\",\"3\",\"20\",\"10\",\"N\",\"C\",\"68\"
\"\",\"\",\"approach-retreat\",\"217\",\"1424974\",\"0.0-217.0\",\"\",\"\",\"1-5\",\"4158\",\"39\",\"1\",\"Testing\",\"Stims/Figures/85-C-20-2.bmp\",\"None\",\"Left\",\"39\",\"3\",\"21\",\"10\",\"N\",\"C\",\"69\"
\"\",\"\",\"approach-retreat\",\"218\",\"1430895\",\"0.0-218.0\",\"\",\"\",\"1-5\",\"4412\",\"40\",\"1\",\"Testing\",\"Stims/Figures/85-J-0-2.bmp\",\"None\",\"Down\",\"40\",\"3\",\"22\",\"10\",\"N\",\"C\",\"70\"
\"\",\"\",\"approach-retreat\",\"219\",\"1437294\",\"0.0-219.0\",\"\",\"\",\"1-5\",\"4893\",\"38\",\"1\",\"Testing\",\"Stims/Figures/94-J-0-2.bmp\",\"None\",\"Up\",\"38\",\"3\",\"23\",\"10\",\"N\",\"C\",\"71\"
\"\",\"\",\"approach-retreat\",\"220\",\"1443021\",\"0.0-220.0\",\"\",\"\",\"1-5\",\"4223\",\"39\",\"0\",\"Testing\",\"Stims/Figures/7-C-20-4.bmp\",\"None\",\"Right\",\"37\",\"3\",\"24\",\"10\",\"N\",\"C\",\"72\"
\"\",\"\",\"approach-retreat\",\"221\",\"1448528\",\"0.0-221.0\",\"\",\"\",\"1-5\",\"3999\",\"38\",\"1\",\"Testing\",\"Stims/Figures/7-C-20-4.bmp\",\"None\",\"Down\",\"38\",\"4\",\"1\",\"10\",\"N\",\"C\",\"73\"
\"\",\"\",\"approach-retreat\",\"222\",\"1454093\",\"0.0-222.0\",\"\",\"\",\"1-5\",\"4061\",\"37\",\"1\",\"Testing\",\"Stims/Figures/93-J-0-1.bmp\",\"None\",\"Left\",\"37\",\"4\",\"2\",\"10\",\"N\",\"C\",\"74\"
\"\",\"\",\"approach-retreat\",\"223\",\"1459862\",\"0.0-223.0\",\"\",\"\",\"1-5\",\"4264\",\"40\",\"1\",\"Testing\",\"Stims/Figures/44-C-30-3.bmp\",\"None\",\"Up\",\"40\",\"4\",\"3\",\"10\",\"N\",\"C\",\"75\"
\"\",\"\",\"approach-retreat\",\"224\",\"1465501\",\"0.0-224.0\",\"\",\"\",\"1-5\",\"4133\",\"39\",\"0\",\"Testing\",\"Stims/Figures/19-C-20-4.bmp\",\"None\",\"Right\",\"37\",\"4\",\"4\",\"10\",\"N\",\"C\",\"76\"
\"\",\"\",\"approach-retreat\",\"225\",\"1471342\",\"0.0-225.0\",\"\",\"\",\"1-5\",\"4335\",\"39\",\"0\",\"Testing\",\"Stims/Figures/118-C-20-2.bmp\",\"None\",\"Right\",\"37\",\"4\",\"5\",\"10\",\"N\",\"C\",\"77\"
\"\",\"\",\"approach-retreat\",\"226\",\"1476925\",\"0.0-226.0\",\"\",\"\",\"1-5\",\"4077\",\"40\",\"1\",\"Testing\",\"Stims/Figures/85-J-0-2.bmp\",\"None\",\"Down\",\"40\",\"4\",\"6\",\"10\",\"N\",\"C\",\"78\"
\"\",\"\",\"approach-retreat\",\"227\",\"1482662\",\"0.0-227.0\",\"\",\"\",\"1-5\",\"4231\",\"38\",\"1\",\"Testing\",\"Stims/Figures/74-J-10-4.bmp\",\"None\",\"Up\",\"38\",\"4\",\"7\",\"10\",\"N\",\"C\",\"79\"
\"\",\"\",\"approach-retreat\",\"228\",\"1489149\",\"0.0-228.0\",\"\",\"\",\"1-5\",\"4981\",\"40\",\"1\",\"Testing\",\"Stims/Figures/100-J-10-3.bmp\",\"None\",\"Down\",\"40\",\"4\",\"8\",\"10\",\"N\",\"C\",\"80\"
\"\",\"\",\"approach-retreat\",\"229\",\"1494766\",\"0.0-229.0\",\"\",\"\",\"1-5\",\"4110\",\"40\",\"1\",\"Testing\",\"Stims/Figures/71-J-0-1.bmp\",\"None\",\"Down\",\"40\",\"4\",\"9\",\"10\",\"N\",\"C\",\"81\"
\"\",\"\",\"approach-retreat\",\"230\",\"1501357\",\"0.0-230.0\",\"\",\"\",\"1-5\",\"5082\",\"40\",\"1\",\"Testing\",\"Stims/Figures/94-C-20-2.bmp\",\"None\",\"Up\",\"40\",\"4\",\"10\",\"10\",\"N\",\"C\",\"82\"
\"\",\"\",\"approach-retreat\",\"231\",\"1511039\",\"0.0-231.0\",\"\",\"\",\"1-5\",\"8174\",\"40\",\"1\",\"Testing\",\"Stims/Figures/7-J-10-4.bmp\",\"None\",\"Down\",\"40\",\"4\",\"11\",\"10\",\"N\",\"C\",\"83\"
\"\",\"\",\"approach-retreat\",\"232\",\"1522022\",\"0.0-232.0\",\"\",\"\",\"1-5\",\"9478\",\"37\",\"1\",\"Testing\",\"Stims/Figures/74-C-20-4.bmp\",\"None\",\"Right\",\"37\",\"4\",\"12\",\"10\",\"N\",\"C\",\"84\"
\"\",\"\",\"approach-retreat\",\"233\",\"1532141\",\"0.0-233.0\",\"\",\"\",\"1-5\",\"8615\",\"38\",\"1\",\"Testing\",\"Stims/Figures/57-J-0-1.bmp\",\"None\",\"Up\",\"38\",\"4\",\"13\",\"10\",\"N\",\"C\",\"85\"
\"\",\"\",\"approach-retreat\",\"234\",\"1538132\",\"0.0-234.0\",\"\",\"\",\"1-5\",\"4490\",\"38\",\"1\",\"Testing\",\"Stims/Figures/19-J-10-4.bmp\",\"None\",\"Up\",\"38\",\"4\",\"14\",\"10\",\"N\",\"C\",\"86\"
\"\",\"\",\"approach-retreat\",\"235\",\"1543909\",\"0.0-235.0\",\"\",\"\",\"1-5\",\"4270\",\"39\",\"1\",\"Testing\",\"Stims/Figures/71-C-30-1.bmp\",\"None\",\"Left\",\"39\",\"4\",\"15\",\"10\",\"N\",\"C\",\"87\"
\"\",\"\",\"approach-retreat\",\"236\",\"1551357\",\"0.0-236.0\",\"\",\"\",\"1-5\",\"5942\",\"39\",\"1\",\"Testing\",\"Stims/Figures/93-C-30-1.bmp\",\"None\",\"Left\",\"39\",\"4\",\"16\",\"10\",\"N\",\"C\",\"88\"
\"\",\"\",\"approach-retreat\",\"237\",\"1557430\",\"0.0-237.0\",\"\",\"\",\"1-5\",\"4566\",\"39\",\"1\",\"Testing\",\"Stims/Figures/44-J-10-3.bmp\",\"None\",\"Right\",\"39\",\"4\",\"17\",\"10\",\"N\",\"C\",\"89\"
\"\",\"\",\"approach-retreat\",\"238\",\"1564981\",\"0.0-238.0\",\"\",\"\",\"1-5\",\"6045\",\"40\",\"1\",\"Testing\",\"Stims/Figures/85-C-20-2.bmp\",\"None\",\"Up\",\"40\",\"4\",\"18\",\"10\",\"N\",\"C\",\"90\"
\"\",\"\",\"approach-retreat\",\"239\",\"1572111\",\"0.0-239.0\",\"\",\"\",\"1-5\",\"5622\",\"39\",\"1\",\"Testing\",\"Stims/Figures/57-C-30-1.bmp\",\"None\",\"Left\",\"39\",\"4\",\"19\",\"10\",\"N\",\"C\",\"91\"
\"\",\"\",\"approach-retreat\",\"240\",\"1577701\",\"0.0-240.0\",\"\",\"\",\"1-5\",\"4085\",\"37\",\"1\",\"Testing\",\"Stims/Figures/128-C-30-3.bmp\",\"None\",\"Right\",\"37\",\"4\",\"20\",\"10\",\"N\",\"C\",\"92\"
\"\",\"\",\"approach-retreat\",\"241\",\"1584670\",\"0.0-241.0\",\"\",\"\",\"1-5\",\"5464\",\"37\",\"0\",\"Testing\",\"Stims/Figures/94-J-0-2.bmp\",\"None\",\"Right\",\"39\",\"4\",\"21\",\"10\",\"N\",\"C\",\"93\"
\"\",\"\",\"approach-retreat\",\"242\",\"1590174\",\"0.0-242.0\",\"\",\"\",\"1-5\",\"3997\",\"37\",\"1\",\"Testing\",\"Stims/Figures/118-J-0-2.bmp\",\"None\",\"Left\",\"37\",\"4\",\"22\",\"10\",\"N\",\"C\",\"94\"
\"\",\"\",\"approach-retreat\",\"243\",\"1597158\",\"0.0-243.0\",\"\",\"\",\"1-5\",\"5478\",\"39\",\"1\",\"Testing\",\"Stims/Figures/100-C-30-3.bmp\",\"None\",\"Left\",\"39\",\"4\",\"23\",\"10\",\"N\",\"C\",\"95\"
\"\",\"\",\"approach-retreat\",\"244\",\"1603573\",\"0.0-244.0\",\"\",\"\",\"1-5\",\"4909\",\"38\",\"0\",\"Testing\",\"Stims/Figures/128-J-10-3.bmp\",\"None\",\"Down\",\"40\",\"4\",\"24\",\"10\",\"N\",\"C\",\"96\"
\"19206\",\"\",\"survey-text\",\"245\",\"1622783\",\"0.0-245.0\",\"\",\"{\"\"Q0\"\":\"\"PS170045\"\"}\",\"\",\"\",\"\",\"\",\"\",\"\",\"\",\"\",\"\",\"\",\"\",\"\",\"\",\"\",\"\"
