\"rt\",\"key_press\",\"trial_type\",\"trial_index\",\"time_elapsed\",\"internal_node_id\",\"view_history\",\"responses\",\"Id\",\"Rt\",\"ResKeyCode\",\"ResCorr\",\"TrialType2\",\"Image\",\"Label\",\"Location\",\"CorrectResponse\",\"Block\",\"BlockTrial\",\"Condition\",\"LabelType\",\"Subcondition\",\"trialNum\"
\"51471\",\"32\",\"text\",\"0\",\"51477\",\"0.0-0.0-0.0\",\"\",\"\",\"\",\"\",\"\",\"\",\"\",\"\",\"\",\"\",\"\",\"\",\"\",\"\",\"\",\"\",\"\"
\"106905\",\"\",\"instructions\",\"1\",\"158386\",\"0.0-1.0\",\"[{\"\"page_index\"\":0,\"\"viewing_time\"\":106904}]\",\"\",\"\",\"\",\"\",\"\",\"\",\"\",\"\",\"\",\"\",\"\",\"\",\"\",\"\",\"\",\"\"
\"27903\",\"\",\"survey-multi-choice\",\"2\",\"186351\",\"0.0-2.0\",\"\",\"{\"\"Q0\"\":\"\"Da\"\",\"\"Q1\"\":\"\"Da\"\",\"\"Q2\"\":\"\"Da\"\",\"\"Q3\"\":\"\"Da\"\",\"\"Q4\"\":\"\"Da\"\",\"\"Q5\"\":\"\"Da\"\"}\",\"\",\"\",\"\",\"\",\"\",\"\",\"\",\"\",\"\",\"\",\"\",\"\",\"\",\"\",\"\"
\"\",\"\",\"bio\",\"3\",\"198802\",\"0.0-3.0\",\"\",\"{\"\"age\"\":\"\"22\"\",\"\"gender\"\":\"\"f\"\",\"\"specify\"\":\"\"\"\"}\",\"\",\"\",\"\",\"\",\"\",\"\",\"\",\"\",\"\",\"\",\"\",\"\",\"\",\"\",\"\"
\"\",\"\",\"approach-retreat\",\"4\",\"207276\",\"0.0-4.0\",\"\",\"\",\"1-2\",\"6962\",\"37\",\"0\",\"Training\",\"Stims/Figures/118-C-20-2.bmp\",\"vafasha\",\"Left\",\"39\",\"1\",\"1\",\"3B\",\"C1\",\"C\",\"1\"
\"\",\"\",\"approach-retreat\",\"5\",\"213590\",\"0.0-5.0\",\"\",\"\",\"1-2\",\"4803\",\"39\",\"0\",\"Training\",\"Stims/Figures/7-J-10-4.bmp\",\"za:haha\",\"Left\",\"37\",\"1\",\"2\",\"3B\",\"C2\",\"C\",\"2\"
\"\",\"\",\"approach-retreat\",\"6\",\"220217\",\"0.0-6.0\",\"\",\"\",\"1-2\",\"5117\",\"37\",\"1\",\"Training\",\"Stims/Figures/111-C-30-3.bmp\",\"vafasha\",\"Right\",\"37\",\"1\",\"3\",\"3B\",\"C1\",\"C\",\"3\"
\"\",\"\",\"approach-retreat\",\"7\",\"227411\",\"0.0-7.0\",\"\",\"\",\"1-2\",\"5686\",\"40\",\"1\",\"Training\",\"Stims/Figures/57-C-30-1.bmp\",\"vafasha\",\"Up\",\"40\",\"1\",\"4\",\"3B\",\"C1\",\"C\",\"4\"
\"\",\"\",\"approach-retreat\",\"8\",\"233162\",\"0.0-8.0\",\"\",\"\",\"1-2\",\"4243\",\"39\",\"1\",\"Training\",\"Stims/Figures/100-J-10-3.bmp\",\"za:haha\",\"Right\",\"39\",\"1\",\"5\",\"3B\",\"C2\",\"C\",\"5\"
\"\",\"\",\"approach-retreat\",\"9\",\"239295\",\"0.0-9.0\",\"\",\"\",\"1-2\",\"4623\",\"40\",\"1\",\"Training\",\"Stims/Figures/27-J-0-1.bmp\",\"za:haha\",\"Down\",\"40\",\"1\",\"6\",\"3B\",\"C2\",\"C\",\"6\"
\"\",\"\",\"approach-retreat\",\"10\",\"245371\",\"0.0-10.0\",\"\",\"\",\"1-2\",\"4569\",\"40\",\"1\",\"Training\",\"Stims/Figures/118-J-0-2.bmp\",\"za:haha\",\"Down\",\"40\",\"1\",\"7\",\"3B\",\"C2\",\"C\",\"7\"
\"\",\"\",\"approach-retreat\",\"11\",\"251132\",\"0.0-11.0\",\"\",\"\",\"1-2\",\"4252\",\"38\",\"1\",\"Training\",\"Stims/Figures/27-C-30-1.bmp\",\"vafasha\",\"Down\",\"38\",\"1\",\"8\",\"3B\",\"C1\",\"C\",\"8\"
\"\",\"\",\"approach-retreat\",\"12\",\"257255\",\"0.0-12.0\",\"\",\"\",\"1-2\",\"4611\",\"39\",\"1\",\"Training\",\"Stims/Figures/84-J-0-2.bmp\",\"za:haha\",\"Right\",\"39\",\"1\",\"9\",\"3B\",\"C2\",\"C\",\"9\"
\"\",\"\",\"approach-retreat\",\"13\",\"264594\",\"0.0-13.0\",\"\",\"\",\"1-2\",\"5832\",\"38\",\"1\",\"Training\",\"Stims/Figures/7-C-20-4.bmp\",\"vafasha\",\"Down\",\"38\",\"1\",\"10\",\"3B\",\"C1\",\"C\",\"10\"
\"\",\"\",\"approach-retreat\",\"14\",\"270353\",\"0.0-14.0\",\"\",\"\",\"1-2\",\"4247\",\"40\",\"1\",\"Training\",\"Stims/Figures/87-C-20-4.bmp\",\"vafasha\",\"Up\",\"40\",\"1\",\"11\",\"3B\",\"C1\",\"C\",\"11\"
\"\",\"\",\"approach-retreat\",\"15\",\"276155\",\"0.0-15.0\",\"\",\"\",\"1-2\",\"4291\",\"37\",\"0\",\"Training\",\"Stims/Figures/57-J-0-1.bmp\",\"za:haha\",\"Right\",\"39\",\"1\",\"12\",\"3B\",\"C2\",\"C\",\"12\"
\"\",\"\",\"approach-retreat\",\"16\",\"282061\",\"0.0-16.0\",\"\",\"\",\"1-2\",\"4398\",\"39\",\"1\",\"Training\",\"Stims/Figures/84-C-20-2.bmp\",\"vafasha\",\"Left\",\"39\",\"1\",\"13\",\"3B\",\"C1\",\"C\",\"13\"
\"\",\"\",\"approach-retreat\",\"17\",\"288072\",\"0.0-17.0\",\"\",\"\",\"1-2\",\"4502\",\"38\",\"1\",\"Training\",\"Stims/Figures/111-J-10-3.bmp\",\"za:haha\",\"Up\",\"38\",\"1\",\"14\",\"3B\",\"C2\",\"C\",\"14\"
\"\",\"\",\"approach-retreat\",\"18\",\"293784\",\"0.0-18.0\",\"\",\"\",\"1-2\",\"4204\",\"38\",\"1\",\"Training\",\"Stims/Figures/87-J-10-4.bmp\",\"za:haha\",\"Up\",\"38\",\"1\",\"15\",\"3B\",\"C2\",\"C\",\"15\"
\"\",\"\",\"approach-retreat\",\"19\",\"302550\",\"0.0-19.0\",\"\",\"\",\"1-2\",\"7258\",\"37\",\"0\",\"Training\",\"Stims/Figures/100-C-30-3.bmp\",\"vafasha\",\"Left\",\"39\",\"1\",\"16\",\"3B\",\"C1\",\"C\",\"16\"
\"\",\"\",\"approach-retreat\",\"20\",\"308122\",\"0.0-20.0\",\"\",\"\",\"1-2\",\"4063\",\"38\",\"1\",\"Training\",\"Stims/Figures/100-J-10-3.bmp\",\"za:haha\",\"Up\",\"38\",\"2\",\"1\",\"3B\",\"C2\",\"C\",\"17\"
\"\",\"\",\"approach-retreat\",\"21\",\"313858\",\"0.0-21.0\",\"\",\"\",\"1-2\",\"4228\",\"37\",\"1\",\"Training\",\"Stims/Figures/111-C-30-3.bmp\",\"vafasha\",\"Right\",\"37\",\"2\",\"2\",\"3B\",\"C1\",\"C\",\"18\"
\"\",\"\",\"approach-retreat\",\"22\",\"320034\",\"0.0-22.0\",\"\",\"\",\"1-2\",\"4668\",\"39\",\"1\",\"Training\",\"Stims/Figures/57-C-30-1.bmp\",\"vafasha\",\"Left\",\"39\",\"2\",\"3\",\"3B\",\"C1\",\"C\",\"19\"
\"\",\"\",\"approach-retreat\",\"23\",\"326780\",\"0.0-23.0\",\"\",\"\",\"1-2\",\"5237\",\"38\",\"0\",\"Training\",\"Stims/Figures/118-J-0-2.bmp\",\"za:haha\",\"Down\",\"40\",\"2\",\"4\",\"3B\",\"C2\",\"C\",\"20\"
\"\",\"\",\"approach-retreat\",\"24\",\"332914\",\"0.0-24.0\",\"\",\"\",\"1-2\",\"4625\",\"37\",\"1\",\"Training\",\"Stims/Figures/118-C-20-2.bmp\",\"vafasha\",\"Right\",\"37\",\"2\",\"5\",\"3B\",\"C1\",\"C\",\"21\"
\"\",\"\",\"approach-retreat\",\"25\",\"338574\",\"0.0-25.0\",\"\",\"\",\"1-2\",\"4153\",\"39\",\"1\",\"Training\",\"Stims/Figures/57-J-0-1.bmp\",\"za:haha\",\"Right\",\"39\",\"2\",\"6\",\"3B\",\"C2\",\"C\",\"22\"
\"\",\"\",\"approach-retreat\",\"26\",\"344374\",\"0.0-26.0\",\"\",\"\",\"1-2\",\"4290\",\"38\",\"1\",\"Training\",\"Stims/Figures/111-J-10-3.bmp\",\"za:haha\",\"Up\",\"38\",\"2\",\"7\",\"3B\",\"C2\",\"C\",\"23\"
\"\",\"\",\"approach-retreat\",\"27\",\"351096\",\"0.0-27.0\",\"\",\"\",\"1-2\",\"5215\",\"37\",\"1\",\"Training\",\"Stims/Figures/7-C-20-4.bmp\",\"vafasha\",\"Right\",\"37\",\"2\",\"8\",\"3B\",\"C1\",\"C\",\"24\"
\"\",\"\",\"approach-retreat\",\"28\",\"357771\",\"0.0-28.0\",\"\",\"\",\"1-2\",\"5165\",\"38\",\"0\",\"Training\",\"Stims/Figures/7-J-10-4.bmp\",\"za:haha\",\"Down\",\"40\",\"2\",\"9\",\"3B\",\"C2\",\"C\",\"25\"
\"\",\"\",\"approach-retreat\",\"29\",\"363451\",\"0.0-29.0\",\"\",\"\",\"1-2\",\"4171\",\"39\",\"1\",\"Training\",\"Stims/Figures/27-C-30-1.bmp\",\"vafasha\",\"Left\",\"39\",\"2\",\"10\",\"3B\",\"C1\",\"C\",\"26\"
\"\",\"\",\"approach-retreat\",\"30\",\"369311\",\"0.0-30.0\",\"\",\"\",\"1-2\",\"4352\",\"38\",\"1\",\"Training\",\"Stims/Figures/84-C-20-2.bmp\",\"vafasha\",\"Down\",\"38\",\"2\",\"11\",\"3B\",\"C1\",\"C\",\"27\"
\"\",\"\",\"approach-retreat\",\"31\",\"375309\",\"0.0-31.0\",\"\",\"\",\"1-2\",\"4491\",\"40\",\"1\",\"Training\",\"Stims/Figures/84-J-0-2.bmp\",\"za:haha\",\"Down\",\"40\",\"2\",\"12\",\"3B\",\"C2\",\"C\",\"28\"
\"\",\"\",\"approach-retreat\",\"32\",\"381252\",\"0.0-32.0\",\"\",\"\",\"1-2\",\"4434\",\"38\",\"1\",\"Training\",\"Stims/Figures/87-J-10-4.bmp\",\"za:haha\",\"Up\",\"38\",\"2\",\"13\",\"3B\",\"C2\",\"C\",\"29\"
\"\",\"\",\"approach-retreat\",\"33\",\"387206\",\"0.0-33.0\",\"\",\"\",\"1-2\",\"4445\",\"40\",\"1\",\"Training\",\"Stims/Figures/87-C-20-4.bmp\",\"vafasha\",\"Up\",\"40\",\"2\",\"14\",\"3B\",\"C1\",\"C\",\"30\"
\"\",\"\",\"approach-retreat\",\"34\",\"394567\",\"0.0-34.0\",\"\",\"\",\"1-2\",\"5853\",\"39\",\"1\",\"Training\",\"Stims/Figures/100-C-30-3.bmp\",\"vafasha\",\"Left\",\"39\",\"2\",\"15\",\"3B\",\"C1\",\"C\",\"31\"
\"\",\"\",\"approach-retreat\",\"35\",\"401073\",\"0.0-35.0\",\"\",\"\",\"1-2\",\"4997\",\"37\",\"1\",\"Training\",\"Stims/Figures/27-J-0-1.bmp\",\"za:haha\",\"Left\",\"37\",\"2\",\"16\",\"3B\",\"C2\",\"C\",\"32\"
\"\",\"\",\"approach-retreat\",\"36\",\"407065\",\"0.0-36.0\",\"\",\"\",\"1-2\",\"4483\",\"38\",\"1\",\"Training\",\"Stims/Figures/27-J-0-1.bmp\",\"za:haha\",\"Up\",\"38\",\"3\",\"1\",\"3B\",\"C2\",\"C\",\"33\"
\"\",\"\",\"approach-retreat\",\"37\",\"412800\",\"0.0-37.0\",\"\",\"\",\"1-2\",\"4227\",\"37\",\"1\",\"Training\",\"Stims/Figures/118-J-0-2.bmp\",\"za:haha\",\"Left\",\"37\",\"3\",\"2\",\"3B\",\"C2\",\"C\",\"34\"
\"\",\"\",\"approach-retreat\",\"38\",\"418734\",\"0.0-38.0\",\"\",\"\",\"1-2\",\"4424\",\"39\",\"1\",\"Training\",\"Stims/Figures/118-C-20-2.bmp\",\"vafasha\",\"Left\",\"39\",\"3\",\"3\",\"3B\",\"C1\",\"C\",\"35\"
\"\",\"\",\"approach-retreat\",\"39\",\"424491\",\"0.0-39.0\",\"\",\"\",\"1-2\",\"4246\",\"37\",\"1\",\"Training\",\"Stims/Figures/7-C-20-4.bmp\",\"vafasha\",\"Right\",\"37\",\"3\",\"4\",\"3B\",\"C1\",\"C\",\"36\"
\"\",\"\",\"approach-retreat\",\"40\",\"430525\",\"0.0-40.0\",\"\",\"\",\"1-2\",\"4525\",\"40\",\"1\",\"Training\",\"Stims/Figures/57-J-0-1.bmp\",\"za:haha\",\"Down\",\"40\",\"3\",\"5\",\"3B\",\"C2\",\"C\",\"37\"
\"\",\"\",\"approach-retreat\",\"41\",\"436182\",\"0.0-41.0\",\"\",\"\",\"1-2\",\"4147\",\"37\",\"1\",\"Training\",\"Stims/Figures/111-C-30-3.bmp\",\"vafasha\",\"Right\",\"37\",\"3\",\"6\",\"3B\",\"C1\",\"C\",\"38\"
\"\",\"\",\"approach-retreat\",\"42\",\"442024\",\"0.0-42.0\",\"\",\"\",\"1-2\",\"4334\",\"38\",\"1\",\"Training\",\"Stims/Figures/87-C-20-4.bmp\",\"vafasha\",\"Down\",\"38\",\"3\",\"7\",\"3B\",\"C1\",\"C\",\"39\"
\"\",\"\",\"approach-retreat\",\"43\",\"447795\",\"0.0-43.0\",\"\",\"\",\"1-2\",\"4263\",\"37\",\"1\",\"Training\",\"Stims/Figures/27-C-30-1.bmp\",\"vafasha\",\"Right\",\"37\",\"3\",\"8\",\"3B\",\"C1\",\"C\",\"40\"
\"\",\"\",\"approach-retreat\",\"44\",\"456139\",\"0.0-44.0\",\"\",\"\",\"1-2\",\"6835\",\"39\",\"0\",\"Training\",\"Stims/Figures/84-J-0-2.bmp\",\"za:haha\",\"Left\",\"37\",\"3\",\"9\",\"3B\",\"C2\",\"C\",\"41\"
\"\",\"\",\"approach-retreat\",\"45\",\"461902\",\"0.0-45.0\",\"\",\"\",\"1-2\",\"4255\",\"38\",\"1\",\"Training\",\"Stims/Figures/100-C-30-3.bmp\",\"vafasha\",\"Down\",\"38\",\"3\",\"10\",\"3B\",\"C1\",\"C\",\"42\"
\"\",\"\",\"approach-retreat\",\"46\",\"467595\",\"0.0-46.0\",\"\",\"\",\"1-2\",\"4184\",\"40\",\"1\",\"Training\",\"Stims/Figures/84-C-20-2.bmp\",\"vafasha\",\"Up\",\"40\",\"3\",\"11\",\"3B\",\"C1\",\"C\",\"43\"
\"\",\"\",\"approach-retreat\",\"47\",\"473245\",\"0.0-47.0\",\"\",\"\",\"1-2\",\"4141\",\"39\",\"1\",\"Training\",\"Stims/Figures/57-C-30-1.bmp\",\"vafasha\",\"Left\",\"39\",\"3\",\"12\",\"3B\",\"C1\",\"C\",\"44\"
\"\",\"\",\"approach-retreat\",\"48\",\"479839\",\"0.0-48.0\",\"\",\"\",\"1-2\",\"5086\",\"39\",\"1\",\"Training\",\"Stims/Figures/111-J-10-3.bmp\",\"za:haha\",\"Right\",\"39\",\"3\",\"13\",\"3B\",\"C2\",\"C\",\"45\"
\"\",\"\",\"approach-retreat\",\"49\",\"486793\",\"0.0-49.0\",\"\",\"\",\"1-2\",\"5446\",\"38\",\"1\",\"Training\",\"Stims/Figures/87-J-10-4.bmp\",\"za:haha\",\"Up\",\"38\",\"3\",\"14\",\"3B\",\"C2\",\"C\",\"46\"
\"\",\"\",\"approach-retreat\",\"50\",\"492968\",\"0.0-50.0\",\"\",\"\",\"1-2\",\"4666\",\"38\",\"1\",\"Training\",\"Stims/Figures/100-J-10-3.bmp\",\"za:haha\",\"Up\",\"38\",\"3\",\"15\",\"3B\",\"C2\",\"C\",\"47\"
\"\",\"\",\"approach-retreat\",\"51\",\"499789\",\"0.0-51.0\",\"\",\"\",\"1-2\",\"5313\",\"40\",\"1\",\"Training\",\"Stims/Figures/7-J-10-4.bmp\",\"za:haha\",\"Down\",\"40\",\"3\",\"16\",\"3B\",\"C2\",\"C\",\"48\"
\"\",\"\",\"approach-retreat\",\"52\",\"505748\",\"0.0-52.0\",\"\",\"\",\"1-2\",\"4450\",\"39\",\"0\",\"Training\",\"Stims/Figures/57-J-0-1.bmp\",\"za:haha\",\"Left\",\"37\",\"4\",\"1\",\"3B\",\"C2\",\"C\",\"49\"
\"\",\"\",\"approach-retreat\",\"53\",\"512002\",\"0.0-53.0\",\"\",\"\",\"1-2\",\"4746\",\"37\",\"1\",\"Training\",\"Stims/Figures/87-C-20-4.bmp\",\"vafasha\",\"Right\",\"37\",\"4\",\"2\",\"3B\",\"C1\",\"C\",\"50\"
\"\",\"\",\"approach-retreat\",\"54\",\"517846\",\"0.0-54.0\",\"\",\"\",\"1-2\",\"4335\",\"37\",\"1\",\"Training\",\"Stims/Figures/57-C-30-1.bmp\",\"vafasha\",\"Right\",\"37\",\"4\",\"3\",\"3B\",\"C1\",\"C\",\"51\"
\"\",\"\",\"approach-retreat\",\"55\",\"523704\",\"0.0-55.0\",\"\",\"\",\"1-2\",\"4349\",\"40\",\"1\",\"Training\",\"Stims/Figures/84-J-0-2.bmp\",\"za:haha\",\"Down\",\"40\",\"4\",\"4\",\"3B\",\"C2\",\"C\",\"52\"
\"\",\"\",\"approach-retreat\",\"56\",\"529762\",\"0.0-56.0\",\"\",\"\",\"1-2\",\"4550\",\"37\",\"1\",\"Training\",\"Stims/Figures/87-J-10-4.bmp\",\"za:haha\",\"Left\",\"37\",\"4\",\"5\",\"3B\",\"C2\",\"C\",\"53\"
\"\",\"\",\"approach-retreat\",\"57\",\"535445\",\"0.0-57.0\",\"\",\"\",\"1-2\",\"4174\",\"38\",\"1\",\"Training\",\"Stims/Figures/118-J-0-2.bmp\",\"za:haha\",\"Up\",\"38\",\"4\",\"6\",\"3B\",\"C2\",\"C\",\"54\"
\"\",\"\",\"approach-retreat\",\"58\",\"541222\",\"0.0-58.0\",\"\",\"\",\"1-2\",\"4268\",\"37\",\"1\",\"Training\",\"Stims/Figures/111-J-10-3.bmp\",\"za:haha\",\"Left\",\"37\",\"4\",\"7\",\"3B\",\"C2\",\"C\",\"55\"
\"\",\"\",\"approach-retreat\",\"59\",\"546807\",\"0.0-59.0\",\"\",\"\",\"1-2\",\"4076\",\"38\",\"1\",\"Training\",\"Stims/Figures/100-J-10-3.bmp\",\"za:haha\",\"Up\",\"38\",\"4\",\"8\",\"3B\",\"C2\",\"C\",\"56\"
\"\",\"\",\"approach-retreat\",\"60\",\"552533\",\"0.0-60.0\",\"\",\"\",\"1-2\",\"4217\",\"39\",\"1\",\"Training\",\"Stims/Figures/27-J-0-1.bmp\",\"za:haha\",\"Right\",\"39\",\"4\",\"9\",\"3B\",\"C2\",\"C\",\"57\"
\"\",\"\",\"approach-retreat\",\"61\",\"559797\",\"0.0-61.0\",\"\",\"\",\"1-2\",\"5755\",\"40\",\"1\",\"Training\",\"Stims/Figures/118-C-20-2.bmp\",\"vafasha\",\"Up\",\"40\",\"4\",\"10\",\"3B\",\"C1\",\"C\",\"58\"
\"\",\"\",\"approach-retreat\",\"62\",\"565488\",\"0.0-62.0\",\"\",\"\",\"1-2\",\"4184\",\"38\",\"1\",\"Training\",\"Stims/Figures/7-C-20-4.bmp\",\"vafasha\",\"Down\",\"38\",\"4\",\"11\",\"3B\",\"C1\",\"C\",\"59\"
\"\",\"\",\"approach-retreat\",\"63\",\"571157\",\"0.0-63.0\",\"\",\"\",\"1-2\",\"4160\",\"37\",\"1\",\"Training\",\"Stims/Figures/7-J-10-4.bmp\",\"za:haha\",\"Left\",\"37\",\"4\",\"12\",\"3B\",\"C2\",\"C\",\"60\"
\"\",\"\",\"approach-retreat\",\"64\",\"576891\",\"0.0-64.0\",\"\",\"\",\"1-2\",\"4225\",\"40\",\"1\",\"Training\",\"Stims/Figures/27-C-30-1.bmp\",\"vafasha\",\"Up\",\"40\",\"4\",\"13\",\"3B\",\"C1\",\"C\",\"61\"
\"\",\"\",\"approach-retreat\",\"65\",\"582578\",\"0.0-65.0\",\"\",\"\",\"1-2\",\"4179\",\"38\",\"1\",\"Training\",\"Stims/Figures/111-C-30-3.bmp\",\"vafasha\",\"Down\",\"38\",\"4\",\"14\",\"3B\",\"C1\",\"C\",\"62\"
\"\",\"\",\"approach-retreat\",\"66\",\"588236\",\"0.0-66.0\",\"\",\"\",\"1-2\",\"4150\",\"37\",\"1\",\"Training\",\"Stims/Figures/84-C-20-2.bmp\",\"vafasha\",\"Right\",\"37\",\"4\",\"15\",\"3B\",\"C1\",\"C\",\"63\"
\"\",\"\",\"approach-retreat\",\"67\",\"593836\",\"0.0-67.0\",\"\",\"\",\"1-2\",\"4092\",\"38\",\"1\",\"Training\",\"Stims/Figures/100-C-30-3.bmp\",\"vafasha\",\"Down\",\"38\",\"4\",\"16\",\"3B\",\"C1\",\"C\",\"64\"
\"\",\"\",\"approach-retreat\",\"68\",\"599464\",\"0.0-68.0\",\"\",\"\",\"1-2\",\"4120\",\"37\",\"1\",\"Training\",\"Stims/Figures/84-C-20-2.bmp\",\"vafasha\",\"Right\",\"37\",\"5\",\"1\",\"3B\",\"C1\",\"C\",\"65\"
\"\",\"\",\"approach-retreat\",\"69\",\"605108\",\"0.0-69.0\",\"\",\"\",\"1-2\",\"4134\",\"38\",\"1\",\"Training\",\"Stims/Figures/118-J-0-2.bmp\",\"za:haha\",\"Up\",\"38\",\"5\",\"2\",\"3B\",\"C2\",\"C\",\"66\"
\"\",\"\",\"approach-retreat\",\"70\",\"611073\",\"0.0-70.0\",\"\",\"\",\"1-2\",\"4457\",\"39\",\"1\",\"Training\",\"Stims/Figures/57-C-30-1.bmp\",\"vafasha\",\"Left\",\"39\",\"5\",\"3\",\"3B\",\"C1\",\"C\",\"67\"
\"\",\"\",\"approach-retreat\",\"71\",\"618169\",\"0.0-71.0\",\"\",\"\",\"1-2\",\"5587\",\"40\",\"1\",\"Training\",\"Stims/Figures/7-C-20-4.bmp\",\"vafasha\",\"Up\",\"40\",\"5\",\"4\",\"3B\",\"C1\",\"C\",\"68\"
\"\",\"\",\"approach-retreat\",\"72\",\"623663\",\"0.0-72.0\",\"\",\"\",\"1-2\",\"3986\",\"39\",\"1\",\"Training\",\"Stims/Figures/111-C-30-3.bmp\",\"vafasha\",\"Left\",\"39\",\"5\",\"5\",\"3B\",\"C1\",\"C\",\"69\"
\"\",\"\",\"approach-retreat\",\"73\",\"629516\",\"0.0-73.0\",\"\",\"\",\"1-2\",\"4343\",\"40\",\"1\",\"Training\",\"Stims/Figures/100-J-10-3.bmp\",\"za:haha\",\"Down\",\"40\",\"5\",\"6\",\"3B\",\"C2\",\"C\",\"70\"
\"\",\"\",\"approach-retreat\",\"74\",\"635132\",\"0.0-74.0\",\"\",\"\",\"1-2\",\"4107\",\"37\",\"1\",\"Training\",\"Stims/Figures/111-J-10-3.bmp\",\"za:haha\",\"Left\",\"37\",\"5\",\"7\",\"3B\",\"C2\",\"C\",\"71\"
\"\",\"\",\"approach-retreat\",\"75\",\"641188\",\"0.0-75.0\",\"\",\"\",\"1-2\",\"4547\",\"39\",\"1\",\"Training\",\"Stims/Figures/100-C-30-3.bmp\",\"vafasha\",\"Left\",\"39\",\"5\",\"8\",\"3B\",\"C1\",\"C\",\"72\"
\"\",\"\",\"approach-retreat\",\"76\",\"646982\",\"0.0-76.0\",\"\",\"\",\"1-2\",\"4285\",\"37\",\"0\",\"Training\",\"Stims/Figures/27-J-0-1.bmp\",\"za:haha\",\"Right\",\"39\",\"5\",\"9\",\"3B\",\"C2\",\"C\",\"73\"
\"\",\"\",\"approach-retreat\",\"77\",\"652572\",\"0.0-77.0\",\"\",\"\",\"1-2\",\"4082\",\"38\",\"1\",\"Training\",\"Stims/Figures/7-J-10-4.bmp\",\"za:haha\",\"Up\",\"38\",\"5\",\"10\",\"3B\",\"C2\",\"C\",\"74\"
\"\",\"\",\"approach-retreat\",\"78\",\"658231\",\"0.0-78.0\",\"\",\"\",\"1-2\",\"4151\",\"37\",\"1\",\"Training\",\"Stims/Figures/87-C-20-4.bmp\",\"vafasha\",\"Right\",\"37\",\"5\",\"11\",\"3B\",\"C1\",\"C\",\"75\"
\"\",\"\",\"approach-retreat\",\"79\",\"663904\",\"0.0-79.0\",\"\",\"\",\"1-2\",\"4165\",\"38\",\"1\",\"Training\",\"Stims/Figures/118-C-20-2.bmp\",\"vafasha\",\"Down\",\"38\",\"5\",\"12\",\"3B\",\"C1\",\"C\",\"76\"
\"\",\"\",\"approach-retreat\",\"80\",\"669671\",\"0.0-80.0\",\"\",\"\",\"1-2\",\"4258\",\"40\",\"1\",\"Training\",\"Stims/Figures/87-J-10-4.bmp\",\"za:haha\",\"Down\",\"40\",\"5\",\"13\",\"3B\",\"C2\",\"C\",\"77\"
\"\",\"\",\"approach-retreat\",\"81\",\"675363\",\"0.0-81.0\",\"\",\"\",\"1-2\",\"4184\",\"38\",\"1\",\"Training\",\"Stims/Figures/27-C-30-1.bmp\",\"vafasha\",\"Down\",\"38\",\"5\",\"14\",\"3B\",\"C1\",\"C\",\"78\"
\"\",\"\",\"approach-retreat\",\"82\",\"681445\",\"0.0-82.0\",\"\",\"\",\"1-2\",\"4574\",\"38\",\"1\",\"Training\",\"Stims/Figures/84-J-0-2.bmp\",\"za:haha\",\"Up\",\"38\",\"5\",\"15\",\"3B\",\"C2\",\"C\",\"79\"
\"\",\"\",\"approach-retreat\",\"83\",\"687010\",\"0.0-83.0\",\"\",\"\",\"1-2\",\"4056\",\"39\",\"1\",\"Training\",\"Stims/Figures/57-J-0-1.bmp\",\"za:haha\",\"Right\",\"39\",\"5\",\"16\",\"3B\",\"C2\",\"C\",\"80\"
\"\",\"\",\"approach-retreat\",\"84\",\"692523\",\"0.0-84.0\",\"\",\"\",\"1-2\",\"4005\",\"39\",\"1\",\"Training\",\"Stims/Figures/111-C-30-3.bmp\",\"vafasha\",\"Left\",\"39\",\"6\",\"1\",\"3B\",\"C1\",\"C\",\"81\"
\"\",\"\",\"approach-retreat\",\"85\",\"698066\",\"0.0-85.0\",\"\",\"\",\"1-2\",\"4034\",\"38\",\"1\",\"Training\",\"Stims/Figures/84-C-20-2.bmp\",\"vafasha\",\"Down\",\"38\",\"6\",\"2\",\"3B\",\"C1\",\"C\",\"82\"
\"\",\"\",\"approach-retreat\",\"86\",\"703741\",\"0.0-86.0\",\"\",\"\",\"1-2\",\"4167\",\"40\",\"0\",\"Training\",\"Stims/Figures/84-J-0-2.bmp\",\"za:haha\",\"Up\",\"38\",\"6\",\"3\",\"3B\",\"C2\",\"C\",\"83\"
\"\",\"\",\"approach-retreat\",\"87\",\"709336\",\"0.0-87.0\",\"\",\"\",\"1-2\",\"4087\",\"37\",\"1\",\"Training\",\"Stims/Figures/27-C-30-1.bmp\",\"vafasha\",\"Right\",\"37\",\"6\",\"4\",\"3B\",\"C1\",\"C\",\"84\"
\"\",\"\",\"approach-retreat\",\"88\",\"714960\",\"0.0-88.0\",\"\",\"\",\"1-2\",\"4115\",\"37\",\"1\",\"Training\",\"Stims/Figures/57-C-30-1.bmp\",\"vafasha\",\"Right\",\"37\",\"6\",\"5\",\"3B\",\"C1\",\"C\",\"85\"
\"\",\"\",\"approach-retreat\",\"89\",\"720553\",\"0.0-89.0\",\"\",\"\",\"1-2\",\"4085\",\"40\",\"1\",\"Training\",\"Stims/Figures/7-C-20-4.bmp\",\"vafasha\",\"Up\",\"40\",\"6\",\"6\",\"3B\",\"C1\",\"C\",\"86\"
\"\",\"\",\"approach-retreat\",\"90\",\"726163\",\"0.0-90.0\",\"\",\"\",\"1-2\",\"4101\",\"38\",\"1\",\"Training\",\"Stims/Figures/87-C-20-4.bmp\",\"vafasha\",\"Down\",\"38\",\"6\",\"7\",\"3B\",\"C1\",\"C\",\"87\"
\"\",\"\",\"approach-retreat\",\"91\",\"731656\",\"0.0-91.0\",\"\",\"\",\"1-2\",\"3984\",\"39\",\"1\",\"Training\",\"Stims/Figures/100-C-30-3.bmp\",\"vafasha\",\"Left\",\"39\",\"6\",\"8\",\"3B\",\"C1\",\"C\",\"88\"
\"\",\"\",\"approach-retreat\",\"92\",\"737126\",\"0.0-92.0\",\"\",\"\",\"1-2\",\"3959\",\"39\",\"1\",\"Training\",\"Stims/Figures/118-C-20-2.bmp\",\"vafasha\",\"Left\",\"39\",\"6\",\"9\",\"3B\",\"C1\",\"C\",\"89\"
\"\",\"\",\"approach-retreat\",\"93\",\"742800\",\"0.0-93.0\",\"\",\"\",\"1-2\",\"4166\",\"39\",\"1\",\"Training\",\"Stims/Figures/27-J-0-1.bmp\",\"za:haha\",\"Right\",\"39\",\"6\",\"10\",\"3B\",\"C2\",\"C\",\"90\"
\"\",\"\",\"approach-retreat\",\"94\",\"748603\",\"0.0-94.0\",\"\",\"\",\"1-2\",\"4292\",\"37\",\"1\",\"Training\",\"Stims/Figures/118-J-0-2.bmp\",\"za:haha\",\"Left\",\"37\",\"6\",\"11\",\"3B\",\"C2\",\"C\",\"91\"
\"\",\"\",\"approach-retreat\",\"95\",\"754244\",\"0.0-95.0\",\"\",\"\",\"1-2\",\"4132\",\"39\",\"1\",\"Training\",\"Stims/Figures/7-J-10-4.bmp\",\"za:haha\",\"Right\",\"39\",\"6\",\"12\",\"3B\",\"C2\",\"C\",\"92\"
\"\",\"\",\"approach-retreat\",\"96\",\"761060\",\"0.0-96.0\",\"\",\"\",\"1-2\",\"5307\",\"38\",\"1\",\"Training\",\"Stims/Figures/111-J-10-3.bmp\",\"za:haha\",\"Up\",\"38\",\"6\",\"13\",\"3B\",\"C2\",\"C\",\"93\"
\"\",\"\",\"approach-retreat\",\"97\",\"766669\",\"0.0-97.0\",\"\",\"\",\"1-2\",\"4101\",\"38\",\"0\",\"Training\",\"Stims/Figures/87-J-10-4.bmp\",\"za:haha\",\"Down\",\"40\",\"6\",\"14\",\"3B\",\"C2\",\"C\",\"94\"
\"\",\"\",\"approach-retreat\",\"98\",\"772364\",\"0.0-98.0\",\"\",\"\",\"1-2\",\"4186\",\"38\",\"1\",\"Training\",\"Stims/Figures/57-J-0-1.bmp\",\"za:haha\",\"Up\",\"38\",\"6\",\"15\",\"3B\",\"C2\",\"C\",\"95\"
\"\",\"\",\"approach-retreat\",\"99\",\"778050\",\"0.0-99.0\",\"\",\"\",\"1-2\",\"4178\",\"40\",\"1\",\"Training\",\"Stims/Figures/100-J-10-3.bmp\",\"za:haha\",\"Down\",\"40\",\"6\",\"16\",\"3B\",\"C2\",\"C\",\"96\"
\"\",\"\",\"approach-retreat\",\"100\",\"783942\",\"0.0-100.0\",\"\",\"\",\"1-2\",\"4384\",\"40\",\"1\",\"Training\",\"Stims/Figures/57-J-0-1.bmp\",\"za:haha\",\"Down\",\"40\",\"7\",\"1\",\"3B\",\"C2\",\"C\",\"97\"
\"\",\"\",\"approach-retreat\",\"101\",\"789545\",\"0.0-101.0\",\"\",\"\",\"1-2\",\"4095\",\"37\",\"0\",\"Training\",\"Stims/Figures/84-C-20-2.bmp\",\"vafasha\",\"Left\",\"39\",\"7\",\"2\",\"3B\",\"C1\",\"C\",\"98\"
\"\",\"\",\"approach-retreat\",\"102\",\"795083\",\"0.0-102.0\",\"\",\"\",\"1-2\",\"4029\",\"38\",\"1\",\"Training\",\"Stims/Figures/27-J-0-1.bmp\",\"za:haha\",\"Up\",\"38\",\"7\",\"3\",\"3B\",\"C2\",\"C\",\"99\"
\"\",\"\",\"approach-retreat\",\"103\",\"800829\",\"0.0-103.0\",\"\",\"\",\"1-2\",\"4238\",\"37\",\"1\",\"Training\",\"Stims/Figures/87-C-20-4.bmp\",\"vafasha\",\"Right\",\"37\",\"7\",\"4\",\"3B\",\"C1\",\"C\",\"100\"
\"\",\"\",\"approach-retreat\",\"104\",\"806340\",\"0.0-104.0\",\"\",\"\",\"1-2\",\"4002\",\"39\",\"1\",\"Training\",\"Stims/Figures/118-C-20-2.bmp\",\"vafasha\",\"Left\",\"39\",\"7\",\"5\",\"3B\",\"C1\",\"C\",\"101\"
\"\",\"\",\"approach-retreat\",\"105\",\"812054\",\"0.0-105.0\",\"\",\"\",\"1-2\",\"4205\",\"40\",\"1\",\"Training\",\"Stims/Figures/118-J-0-2.bmp\",\"za:haha\",\"Down\",\"40\",\"7\",\"6\",\"3B\",\"C2\",\"C\",\"102\"
\"\",\"\",\"approach-retreat\",\"106\",\"817624\",\"0.0-106.0\",\"\",\"\",\"1-2\",\"4061\",\"37\",\"1\",\"Training\",\"Stims/Figures/7-C-20-4.bmp\",\"vafasha\",\"Right\",\"37\",\"7\",\"7\",\"3B\",\"C1\",\"C\",\"103\"
\"\",\"\",\"approach-retreat\",\"107\",\"823100\",\"0.0-107.0\",\"\",\"\",\"1-2\",\"3967\",\"39\",\"1\",\"Training\",\"Stims/Figures/100-C-30-3.bmp\",\"vafasha\",\"Left\",\"39\",\"7\",\"8\",\"3B\",\"C1\",\"C\",\"104\"
\"\",\"\",\"approach-retreat\",\"108\",\"829136\",\"0.0-108.0\",\"\",\"\",\"1-2\",\"4527\",\"40\",\"1\",\"Training\",\"Stims/Figures/7-J-10-4.bmp\",\"za:haha\",\"Down\",\"40\",\"7\",\"9\",\"3B\",\"C2\",\"C\",\"105\"
\"\",\"\",\"approach-retreat\",\"109\",\"835431\",\"0.0-109.0\",\"\",\"\",\"1-2\",\"4787\",\"39\",\"1\",\"Training\",\"Stims/Figures/87-J-10-4.bmp\",\"za:haha\",\"Right\",\"39\",\"7\",\"10\",\"3B\",\"C2\",\"C\",\"106\"
\"\",\"\",\"approach-retreat\",\"110\",\"841142\",\"0.0-110.0\",\"\",\"\",\"1-2\",\"4201\",\"40\",\"1\",\"Training\",\"Stims/Figures/57-C-30-1.bmp\",\"vafasha\",\"Up\",\"40\",\"7\",\"11\",\"3B\",\"C1\",\"C\",\"107\"
\"\",\"\",\"approach-retreat\",\"111\",\"846750\",\"0.0-111.0\",\"\",\"\",\"1-2\",\"4101\",\"40\",\"1\",\"Training\",\"Stims/Figures/27-C-30-1.bmp\",\"vafasha\",\"Up\",\"40\",\"7\",\"12\",\"3B\",\"C1\",\"C\",\"108\"
\"\",\"\",\"approach-retreat\",\"112\",\"853200\",\"0.0-112.0\",\"\",\"\",\"1-2\",\"4941\",\"40\",\"1\",\"Training\",\"Stims/Figures/84-J-0-2.bmp\",\"za:haha\",\"Down\",\"40\",\"7\",\"13\",\"3B\",\"C2\",\"C\",\"109\"
\"\",\"\",\"approach-retreat\",\"113\",\"858880\",\"0.0-113.0\",\"\",\"\",\"1-2\",\"4168\",\"37\",\"1\",\"Training\",\"Stims/Figures/111-J-10-3.bmp\",\"za:haha\",\"Left\",\"37\",\"7\",\"14\",\"3B\",\"C2\",\"C\",\"110\"
\"\",\"\",\"approach-retreat\",\"114\",\"864523\",\"0.0-114.0\",\"\",\"\",\"1-2\",\"4129\",\"40\",\"1\",\"Training\",\"Stims/Figures/111-C-30-3.bmp\",\"vafasha\",\"Up\",\"40\",\"7\",\"15\",\"3B\",\"C1\",\"C\",\"111\"
\"\",\"\",\"approach-retreat\",\"115\",\"870424\",\"0.0-115.0\",\"\",\"\",\"1-2\",\"4388\",\"39\",\"1\",\"Training\",\"Stims/Figures/100-J-10-3.bmp\",\"za:haha\",\"Right\",\"39\",\"7\",\"16\",\"3B\",\"C2\",\"C\",\"112\"
\"\",\"\",\"approach-retreat\",\"116\",\"876068\",\"0.0-116.0\",\"\",\"\",\"1-2\",\"4135\",\"40\",\"1\",\"Training\",\"Stims/Figures/27-J-0-1.bmp\",\"za:haha\",\"Down\",\"40\",\"8\",\"1\",\"3B\",\"C2\",\"C\",\"113\"
\"\",\"\",\"approach-retreat\",\"117\",\"882190\",\"0.0-117.0\",\"\",\"\",\"1-2\",\"4613\",\"38\",\"1\",\"Training\",\"Stims/Figures/84-J-0-2.bmp\",\"za:haha\",\"Up\",\"38\",\"8\",\"2\",\"3B\",\"C2\",\"C\",\"114\"
\"\",\"\",\"approach-retreat\",\"118\",\"887684\",\"0.0-118.0\",\"\",\"\",\"1-2\",\"3986\",\"40\",\"1\",\"Training\",\"Stims/Figures/57-J-0-1.bmp\",\"za:haha\",\"Down\",\"40\",\"8\",\"3\",\"3B\",\"C2\",\"C\",\"115\"
\"\",\"\",\"approach-retreat\",\"119\",\"893501\",\"0.0-119.0\",\"\",\"\",\"1-2\",\"4307\",\"37\",\"1\",\"Training\",\"Stims/Figures/7-C-20-4.bmp\",\"vafasha\",\"Right\",\"37\",\"8\",\"4\",\"3B\",\"C1\",\"C\",\"116\"
\"\",\"\",\"approach-retreat\",\"120\",\"899489\",\"0.0-120.0\",\"\",\"\",\"1-2\",\"4477\",\"37\",\"1\",\"Training\",\"Stims/Figures/84-C-20-2.bmp\",\"vafasha\",\"Right\",\"37\",\"8\",\"5\",\"3B\",\"C1\",\"C\",\"117\"
\"\",\"\",\"approach-retreat\",\"121\",\"904954\",\"0.0-121.0\",\"\",\"\",\"1-2\",\"3956\",\"39\",\"1\",\"Training\",\"Stims/Figures/111-C-30-3.bmp\",\"vafasha\",\"Left\",\"39\",\"8\",\"6\",\"3B\",\"C1\",\"C\",\"118\"
\"\",\"\",\"approach-retreat\",\"122\",\"910533\",\"0.0-122.0\",\"\",\"\",\"1-2\",\"4070\",\"37\",\"1\",\"Training\",\"Stims/Figures/100-J-10-3.bmp\",\"za:haha\",\"Left\",\"37\",\"8\",\"7\",\"3B\",\"C2\",\"C\",\"119\"
\"\",\"\",\"approach-retreat\",\"123\",\"916111\",\"0.0-123.0\",\"\",\"\",\"1-2\",\"4069\",\"39\",\"1\",\"Training\",\"Stims/Figures/111-J-10-3.bmp\",\"za:haha\",\"Right\",\"39\",\"8\",\"8\",\"3B\",\"C2\",\"C\",\"120\"
\"\",\"\",\"approach-retreat\",\"124\",\"921737\",\"0.0-124.0\",\"\",\"\",\"1-2\",\"4118\",\"40\",\"1\",\"Training\",\"Stims/Figures/100-C-30-3.bmp\",\"vafasha\",\"Up\",\"40\",\"8\",\"9\",\"3B\",\"C1\",\"C\",\"121\"
\"\",\"\",\"approach-retreat\",\"125\",\"927256\",\"0.0-125.0\",\"\",\"\",\"1-2\",\"4011\",\"38\",\"1\",\"Training\",\"Stims/Figures/87-J-10-4.bmp\",\"za:haha\",\"Up\",\"38\",\"8\",\"10\",\"3B\",\"C2\",\"C\",\"122\"
\"\",\"\",\"approach-retreat\",\"126\",\"932924\",\"0.0-126.0\",\"\",\"\",\"1-2\",\"4160\",\"37\",\"1\",\"Training\",\"Stims/Figures/118-C-20-2.bmp\",\"vafasha\",\"Right\",\"37\",\"8\",\"11\",\"3B\",\"C1\",\"C\",\"123\"
\"\",\"\",\"approach-retreat\",\"127\",\"938425\",\"0.0-127.0\",\"\",\"\",\"1-2\",\"3989\",\"38\",\"1\",\"Training\",\"Stims/Figures/57-C-30-1.bmp\",\"vafasha\",\"Down\",\"38\",\"8\",\"12\",\"3B\",\"C1\",\"C\",\"124\"
\"\",\"\",\"approach-retreat\",\"128\",\"943827\",\"0.0-128.0\",\"\",\"\",\"1-2\",\"3893\",\"37\",\"1\",\"Training\",\"Stims/Figures/7-J-10-4.bmp\",\"za:haha\",\"Left\",\"37\",\"8\",\"13\",\"3B\",\"C2\",\"C\",\"125\"
\"\",\"\",\"approach-retreat\",\"129\",\"949319\",\"0.0-129.0\",\"\",\"\",\"1-2\",\"3984\",\"40\",\"1\",\"Training\",\"Stims/Figures/118-J-0-2.bmp\",\"za:haha\",\"Down\",\"40\",\"8\",\"14\",\"3B\",\"C2\",\"C\",\"126\"
\"\",\"\",\"approach-retreat\",\"130\",\"955170\",\"0.0-130.0\",\"\",\"\",\"1-2\",\"4342\",\"39\",\"1\",\"Training\",\"Stims/Figures/27-C-30-1.bmp\",\"vafasha\",\"Left\",\"39\",\"8\",\"15\",\"3B\",\"C1\",\"C\",\"127\"
\"\",\"\",\"approach-retreat\",\"131\",\"960753\",\"0.0-131.0\",\"\",\"\",\"1-2\",\"4075\",\"40\",\"1\",\"Training\",\"Stims/Figures/87-C-20-4.bmp\",\"vafasha\",\"Up\",\"40\",\"8\",\"16\",\"3B\",\"C1\",\"C\",\"128\"
\"\",\"\",\"approach-retreat\",\"132\",\"966512\",\"0.0-132.0\",\"\",\"\",\"1-2\",\"4251\",\"38\",\"1\",\"Training\",\"Stims/Figures/84-C-20-2.bmp\",\"vafasha\",\"Down\",\"38\",\"9\",\"1\",\"3B\",\"C1\",\"C\",\"129\"
\"\",\"\",\"approach-retreat\",\"133\",\"972047\",\"0.0-133.0\",\"\",\"\",\"1-2\",\"4026\",\"37\",\"1\",\"Training\",\"Stims/Figures/100-J-10-3.bmp\",\"za:haha\",\"Left\",\"37\",\"9\",\"2\",\"3B\",\"C2\",\"C\",\"130\"
\"\",\"\",\"approach-retreat\",\"134\",\"977596\",\"0.0-134.0\",\"\",\"\",\"1-2\",\"4040\",\"37\",\"1\",\"Training\",\"Stims/Figures/118-C-20-2.bmp\",\"vafasha\",\"Right\",\"37\",\"9\",\"3\",\"3B\",\"C1\",\"C\",\"131\"
\"\",\"\",\"approach-retreat\",\"135\",\"983142\",\"0.0-135.0\",\"\",\"\",\"1-2\",\"4037\",\"37\",\"1\",\"Training\",\"Stims/Figures/57-C-30-1.bmp\",\"vafasha\",\"Right\",\"37\",\"9\",\"4\",\"3B\",\"C1\",\"C\",\"132\"
\"\",\"\",\"approach-retreat\",\"136\",\"988678\",\"0.0-136.0\",\"\",\"\",\"1-2\",\"4029\",\"38\",\"1\",\"Training\",\"Stims/Figures/118-J-0-2.bmp\",\"za:haha\",\"Up\",\"38\",\"9\",\"5\",\"3B\",\"C2\",\"C\",\"133\"
\"\",\"\",\"approach-retreat\",\"137\",\"994218\",\"0.0-137.0\",\"\",\"\",\"1-2\",\"4032\",\"38\",\"1\",\"Training\",\"Stims/Figures/100-C-30-3.bmp\",\"vafasha\",\"Down\",\"38\",\"9\",\"6\",\"3B\",\"C1\",\"C\",\"134\"
\"\",\"\",\"approach-retreat\",\"138\",\"1000561\",\"0.0-138.0\",\"\",\"\",\"1-2\",\"4834\",\"39\",\"1\",\"Training\",\"Stims/Figures/87-J-10-4.bmp\",\"za:haha\",\"Right\",\"39\",\"9\",\"7\",\"3B\",\"C2\",\"C\",\"135\"
\"\",\"\",\"approach-retreat\",\"139\",\"1006450\",\"0.0-139.0\",\"\",\"\",\"1-2\",\"4380\",\"39\",\"0\",\"Training\",\"Stims/Figures/84-J-0-2.bmp\",\"za:haha\",\"Left\",\"37\",\"9\",\"8\",\"3B\",\"C2\",\"C\",\"136\"
\"\",\"\",\"approach-retreat\",\"140\",\"1012303\",\"0.0-140.0\",\"\",\"\",\"1-2\",\"4345\",\"40\",\"1\",\"Training\",\"Stims/Figures/111-C-30-3.bmp\",\"vafasha\",\"Up\",\"40\",\"9\",\"9\",\"3B\",\"C1\",\"C\",\"137\"
\"\",\"\",\"approach-retreat\",\"141\",\"1017975\",\"0.0-141.0\",\"\",\"\",\"1-2\",\"4163\",\"38\",\"1\",\"Training\",\"Stims/Figures/27-C-30-1.bmp\",\"vafasha\",\"Down\",\"38\",\"9\",\"10\",\"3B\",\"C1\",\"C\",\"138\"
\"\",\"\",\"approach-retreat\",\"142\",\"1023664\",\"0.0-142.0\",\"\",\"\",\"1-2\",\"4180\",\"39\",\"1\",\"Training\",\"Stims/Figures/7-J-10-4.bmp\",\"za:haha\",\"Right\",\"39\",\"9\",\"11\",\"3B\",\"C2\",\"C\",\"139\"
\"\",\"\",\"approach-retreat\",\"143\",\"1029152\",\"0.0-143.0\",\"\",\"\",\"1-2\",\"3979\",\"38\",\"1\",\"Training\",\"Stims/Figures/111-J-10-3.bmp\",\"za:haha\",\"Up\",\"38\",\"9\",\"12\",\"3B\",\"C2\",\"C\",\"140\"
\"\",\"\",\"approach-retreat\",\"144\",\"1034626\",\"0.0-144.0\",\"\",\"\",\"1-2\",\"3966\",\"40\",\"1\",\"Training\",\"Stims/Figures/87-C-20-4.bmp\",\"vafasha\",\"Up\",\"40\",\"9\",\"13\",\"3B\",\"C1\",\"C\",\"141\"
\"\",\"\",\"approach-retreat\",\"145\",\"1040625\",\"0.0-145.0\",\"\",\"\",\"1-2\",\"4490\",\"37\",\"1\",\"Training\",\"Stims/Figures/27-J-0-1.bmp\",\"za:haha\",\"Left\",\"37\",\"9\",\"14\",\"3B\",\"C2\",\"C\",\"142\"
\"\",\"\",\"approach-retreat\",\"146\",\"1046359\",\"0.0-146.0\",\"\",\"\",\"1-2\",\"4225\",\"37\",\"1\",\"Training\",\"Stims/Figures/57-J-0-1.bmp\",\"za:haha\",\"Left\",\"37\",\"9\",\"15\",\"3B\",\"C2\",\"C\",\"143\"
\"\",\"\",\"approach-retreat\",\"147\",\"1052349\",\"0.0-147.0\",\"\",\"\",\"1-2\",\"4481\",\"38\",\"1\",\"Training\",\"Stims/Figures/7-C-20-4.bmp\",\"vafasha\",\"Down\",\"38\",\"9\",\"16\",\"3B\",\"C1\",\"C\",\"144\"
\"128122\",\"\",\"instructions\",\"148\",\"1180472\",\"0.0-148.0\",\"[{\"\"page_index\"\":0,\"\"viewing_time\"\":128122}]\",\"\",\"\",\"\",\"\",\"\",\"\",\"\",\"\",\"\",\"\",\"\",\"\",\"\",\"\",\"\",\"\"
\"\",\"\",\"approach-retreat\",\"149\",\"1187690\",\"0.0-149.0\",\"\",\"\",\"1-2\",\"5712\",\"37\",\"1\",\"Testing\",\"Stims/Figures/7-C-20-4.bmp\",\"vafasha\",\"Right\",\"37\",\"1\",\"1\",\"3B\",\"C1\",\"C\",\"1\"
\"\",\"\",\"approach-retreat\",\"150\",\"1194870\",\"0.0-150.0\",\"\",\"\",\"1-2\",\"5672\",\"40\",\"1\",\"Testing\",\"Stims/Figures/84-C-20-2.bmp\",\"vafasha\",\"Up\",\"40\",\"1\",\"2\",\"3B\",\"C1\",\"C\",\"2\"
\"\",\"\",\"approach-retreat\",\"151\",\"1200438\",\"0.0-151.0\",\"\",\"\",\"1-2\",\"4061\",\"37\",\"1\",\"Testing\",\"Stims/Figures/87-C-20-4.bmp\",\"vafasha\",\"Right\",\"37\",\"1\",\"3\",\"3B\",\"C1\",\"C\",\"3\"
\"\",\"\",\"approach-retreat\",\"152\",\"1206029\",\"0.0-152.0\",\"\",\"\",\"1-2\",\"4085\",\"39\",\"1\",\"Testing\",\"Stims/Figures/139-J-0-2.bmp\",\"za:haha\",\"Right\",\"39\",\"1\",\"4\",\"3B\",\"C2\",\"C\",\"4\"
\"\",\"\",\"approach-retreat\",\"153\",\"1211922\",\"0.0-153.0\",\"\",\"\",\"1-2\",\"4384\",\"39\",\"1\",\"Testing\",\"Stims/Figures/111-C-30-3.bmp\",\"vafasha\",\"Left\",\"39\",\"1\",\"5\",\"3B\",\"C1\",\"C\",\"5\"
\"\",\"\",\"approach-retreat\",\"154\",\"1217734\",\"0.0-154.0\",\"\",\"\",\"1-2\",\"4304\",\"40\",\"1\",\"Testing\",\"Stims/Figures/102-C-20-4.bmp\",\"vafasha\",\"Up\",\"40\",\"1\",\"6\",\"3B\",\"C1\",\"C\",\"6\"
\"\",\"\",\"approach-retreat\",\"155\",\"1223392\",\"0.0-155.0\",\"\",\"\",\"1-2\",\"4151\",\"40\",\"1\",\"Testing\",\"Stims/Figures/27-J-0-1.bmp\",\"za:haha\",\"Down\",\"40\",\"1\",\"7\",\"3B\",\"C2\",\"C\",\"7\"
\"\",\"\",\"approach-retreat\",\"156\",\"1229027\",\"0.0-156.0\",\"\",\"\",\"1-2\",\"4128\",\"37\",\"0\",\"Testing\",\"Stims/Figures/27-C-30-1.bmp\",\"vafasha\",\"Left\",\"39\",\"1\",\"8\",\"3B\",\"C1\",\"C\",\"8\"
\"\",\"\",\"approach-retreat\",\"157\",\"1235416\",\"0.0-157.0\",\"\",\"\",\"1-2\",\"4882\",\"38\",\"1\",\"Testing\",\"Stims/Figures/7-J-10-4.bmp\",\"za:haha\",\"Up\",\"38\",\"1\",\"9\",\"3B\",\"C2\",\"C\",\"9\"
\"\",\"\",\"approach-retreat\",\"158\",\"1241350\",\"0.0-158.0\",\"\",\"\",\"1-2\",\"4428\",\"37\",\"1\",\"Testing\",\"Stims/Figures/57-J-0-1.bmp\",\"za:haha\",\"Left\",\"37\",\"1\",\"10\",\"3B\",\"C2\",\"C\",\"10\"
\"\",\"\",\"approach-retreat\",\"159\",\"1247728\",\"0.0-159.0\",\"\",\"\",\"1-2\",\"4869\",\"39\",\"1\",\"Testing\",\"Stims/Figures/111-J-10-3.bmp\",\"za:haha\",\"Right\",\"39\",\"1\",\"11\",\"3B\",\"C2\",\"C\",\"11\"
\"\",\"\",\"approach-retreat\",\"160\",\"1253296\",\"0.0-160.0\",\"\",\"\",\"1-2\",\"4062\",\"40\",\"0\",\"Testing\",\"Stims/Figures/57-C-30-1.bmp\",\"vafasha\",\"Down\",\"38\",\"1\",\"12\",\"3B\",\"C1\",\"C\",\"12\"
\"\",\"\",\"approach-retreat\",\"161\",\"1258855\",\"0.0-161.0\",\"\",\"\",\"1-2\",\"4053\",\"39\",\"0\",\"Testing\",\"Stims/Figures/100-J-10-3.bmp\",\"za:haha\",\"Left\",\"37\",\"1\",\"13\",\"3B\",\"C2\",\"C\",\"13\"
\"\",\"\",\"approach-retreat\",\"162\",\"1264359\",\"0.0-162.0\",\"\",\"\",\"1-2\",\"3996\",\"39\",\"1\",\"Testing\",\"Stims/Figures/139-C-20-2.bmp\",\"vafasha\",\"Left\",\"39\",\"1\",\"14\",\"3B\",\"C1\",\"C\",\"14\"
\"\",\"\",\"approach-retreat\",\"163\",\"1269961\",\"0.0-163.0\",\"\",\"\",\"1-2\",\"4095\",\"37\",\"1\",\"Testing\",\"Stims/Figures/118-C-20-2.bmp\",\"vafasha\",\"Right\",\"37\",\"1\",\"15\",\"3B\",\"C1\",\"C\",\"15\"
\"\",\"\",\"approach-retreat\",\"164\",\"1275820\",\"0.0-164.0\",\"\",\"\",\"1-2\",\"4352\",\"40\",\"1\",\"Testing\",\"Stims/Figures/44-C-30-3.bmp\",\"vafasha\",\"Up\",\"40\",\"1\",\"16\",\"3B\",\"C1\",\"C\",\"16\"
\"\",\"\",\"approach-retreat\",\"165\",\"1282055\",\"0.0-165.0\",\"\",\"\",\"1-2\",\"4725\",\"38\",\"0\",\"Testing\",\"Stims/Figures/71-C-30-1.bmp\",\"vafasha\",\"Up\",\"40\",\"1\",\"17\",\"3B\",\"C1\",\"C\",\"17\"
\"\",\"\",\"approach-retreat\",\"166\",\"1287609\",\"0.0-166.0\",\"\",\"\",\"1-2\",\"4045\",\"37\",\"1\",\"Testing\",\"Stims/Figures/44-J-10-3.bmp\",\"za:haha\",\"Left\",\"37\",\"1\",\"18\",\"3B\",\"C2\",\"C\",\"18\"
\"\",\"\",\"approach-retreat\",\"167\",\"1293203\",\"0.0-167.0\",\"\",\"\",\"1-2\",\"4079\",\"40\",\"1\",\"Testing\",\"Stims/Figures/100-C-30-3.bmp\",\"vafasha\",\"Up\",\"40\",\"1\",\"19\",\"3B\",\"C1\",\"C\",\"19\"
\"\",\"\",\"approach-retreat\",\"168\",\"1298839\",\"0.0-168.0\",\"\",\"\",\"1-2\",\"4129\",\"40\",\"1\",\"Testing\",\"Stims/Figures/84-J-0-2.bmp\",\"za:haha\",\"Down\",\"40\",\"1\",\"20\",\"3B\",\"C2\",\"C\",\"20\"
\"\",\"\",\"approach-retreat\",\"169\",\"1306126\",\"0.0-169.0\",\"\",\"\",\"1-2\",\"5779\",\"40\",\"1\",\"Testing\",\"Stims/Figures/87-J-10-4.bmp\",\"za:haha\",\"Down\",\"40\",\"1\",\"21\",\"3B\",\"C2\",\"C\",\"21\"
\"\",\"\",\"approach-retreat\",\"170\",\"1311886\",\"0.0-170.0\",\"\",\"\",\"1-2\",\"4253\",\"40\",\"1\",\"Testing\",\"Stims/Figures/118-J-0-2.bmp\",\"za:haha\",\"Down\",\"40\",\"1\",\"22\",\"3B\",\"C2\",\"C\",\"22\"
\"\",\"\",\"approach-retreat\",\"171\",\"1319026\",\"0.0-171.0\",\"\",\"\",\"1-2\",\"5632\",\"39\",\"1\",\"Testing\",\"Stims/Figures/71-J-0-1.bmp\",\"za:haha\",\"Right\",\"39\",\"1\",\"23\",\"3B\",\"C2\",\"C\",\"23\"
\"\",\"\",\"approach-retreat\",\"172\",\"1324785\",\"0.0-172.0\",\"\",\"\",\"1-2\",\"4252\",\"38\",\"0\",\"Testing\",\"Stims/Figures/102-J-10-4.bmp\",\"za:haha\",\"Down\",\"40\",\"1\",\"24\",\"3B\",\"C2\",\"C\",\"24\"
\"\",\"\",\"approach-retreat\",\"173\",\"1330337\",\"0.0-173.0\",\"\",\"\",\"1-2\",\"4044\",\"37\",\"1\",\"Testing\",\"Stims/Figures/87-C-20-4.bmp\",\"vafasha\",\"Right\",\"37\",\"2\",\"1\",\"3B\",\"C1\",\"C\",\"25\"
\"\",\"\",\"approach-retreat\",\"174\",\"1336514\",\"0.0-174.0\",\"\",\"\",\"1-2\",\"4670\",\"38\",\"1\",\"Testing\",\"Stims/Figures/118-J-0-2.bmp\",\"za:haha\",\"Up\",\"38\",\"2\",\"2\",\"3B\",\"C2\",\"C\",\"26\"
\"\",\"\",\"approach-retreat\",\"175\",\"1342042\",\"0.0-175.0\",\"\",\"\",\"1-2\",\"4021\",\"39\",\"1\",\"Testing\",\"Stims/Figures/84-J-0-2.bmp\",\"za:haha\",\"Right\",\"39\",\"2\",\"3\",\"3B\",\"C2\",\"C\",\"27\"
\"\",\"\",\"approach-retreat\",\"176\",\"1347652\",\"0.0-176.0\",\"\",\"\",\"1-2\",\"4102\",\"38\",\"1\",\"Testing\",\"Stims/Figures/71-J-0-1.bmp\",\"za:haha\",\"Up\",\"38\",\"2\",\"4\",\"3B\",\"C2\",\"C\",\"28\"
\"\",\"\",\"approach-retreat\",\"177\",\"1353280\",\"0.0-177.0\",\"\",\"\",\"1-2\",\"4122\",\"40\",\"0\",\"Testing\",\"Stims/Figures/7-C-20-4.bmp\",\"vafasha\",\"Down\",\"38\",\"2\",\"5\",\"3B\",\"C1\",\"C\",\"29\"
\"\",\"\",\"approach-retreat\",\"178\",\"1358907\",\"0.0-178.0\",\"\",\"\",\"1-2\",\"4121\",\"40\",\"1\",\"Testing\",\"Stims/Figures/111-C-30-3.bmp\",\"vafasha\",\"Up\",\"40\",\"2\",\"6\",\"3B\",\"C1\",\"C\",\"30\"
\"\",\"\",\"approach-retreat\",\"179\",\"1364827\",\"0.0-179.0\",\"\",\"\",\"1-2\",\"4410\",\"37\",\"0\",\"Testing\",\"Stims/Figures/84-C-20-2.bmp\",\"vafasha\",\"Left\",\"39\",\"2\",\"7\",\"3B\",\"C1\",\"C\",\"31\"
\"\",\"\",\"approach-retreat\",\"180\",\"1371849\",\"0.0-180.0\",\"\",\"\",\"1-2\",\"5516\",\"38\",\"1\",\"Testing\",\"Stims/Figures/44-C-30-3.bmp\",\"vafasha\",\"Down\",\"38\",\"2\",\"8\",\"3B\",\"C1\",\"C\",\"32\"
\"\",\"\",\"approach-retreat\",\"181\",\"1378554\",\"0.0-181.0\",\"\",\"\",\"1-2\",\"5196\",\"38\",\"1\",\"Testing\",\"Stims/Figures/57-J-0-1.bmp\",\"za:haha\",\"Up\",\"38\",\"2\",\"9\",\"3B\",\"C2\",\"C\",\"33\"
\"\",\"\",\"approach-retreat\",\"182\",\"1384132\",\"0.0-182.0\",\"\",\"\",\"1-2\",\"4073\",\"39\",\"0\",\"Testing\",\"Stims/Figures/100-J-10-3.bmp\",\"za:haha\",\"Left\",\"37\",\"2\",\"10\",\"3B\",\"C2\",\"C\",\"34\"
\"\",\"\",\"approach-retreat\",\"183\",\"1389641\",\"0.0-183.0\",\"\",\"\",\"1-2\",\"4002\",\"37\",\"1\",\"Testing\",\"Stims/Figures/100-C-30-3.bmp\",\"vafasha\",\"Right\",\"37\",\"2\",\"11\",\"3B\",\"C1\",\"C\",\"35\"
\"\",\"\",\"approach-retreat\",\"184\",\"1395338\",\"0.0-184.0\",\"\",\"\",\"1-2\",\"4190\",\"38\",\"1\",\"Testing\",\"Stims/Figures/139-J-0-2.bmp\",\"za:haha\",\"Up\",\"38\",\"2\",\"12\",\"3B\",\"C2\",\"C\",\"36\"
\"\",\"\",\"approach-retreat\",\"185\",\"1402420\",\"0.0-185.0\",\"\",\"\",\"1-2\",\"5574\",\"39\",\"1\",\"Testing\",\"Stims/Figures/87-J-10-4.bmp\",\"za:haha\",\"Right\",\"39\",\"2\",\"13\",\"3B\",\"C2\",\"C\",\"37\"
\"\",\"\",\"approach-retreat\",\"186\",\"1408074\",\"0.0-186.0\",\"\",\"\",\"1-2\",\"4146\",\"37\",\"0\",\"Testing\",\"Stims/Figures/139-C-20-2.bmp\",\"vafasha\",\"Left\",\"39\",\"2\",\"14\",\"3B\",\"C1\",\"C\",\"38\"
\"\",\"\",\"approach-retreat\",\"187\",\"1413657\",\"0.0-187.0\",\"\",\"\",\"1-2\",\"4076\",\"37\",\"0\",\"Testing\",\"Stims/Figures/102-J-10-4.bmp\",\"za:haha\",\"Right\",\"39\",\"2\",\"15\",\"3B\",\"C2\",\"C\",\"39\"
\"\",\"\",\"approach-retreat\",\"188\",\"1419160\",\"0.0-188.0\",\"\",\"\",\"1-2\",\"3996\",\"38\",\"1\",\"Testing\",\"Stims/Figures/118-C-20-2.bmp\",\"vafasha\",\"Down\",\"38\",\"2\",\"16\",\"3B\",\"C1\",\"C\",\"40\"
\"\",\"\",\"approach-retreat\",\"189\",\"1425084\",\"0.0-189.0\",\"\",\"\",\"1-2\",\"4417\",\"39\",\"0\",\"Testing\",\"Stims/Figures/111-J-10-3.bmp\",\"za:haha\",\"Left\",\"37\",\"2\",\"17\",\"3B\",\"C2\",\"C\",\"41\"
\"\",\"\",\"approach-retreat\",\"190\",\"1430723\",\"0.0-190.0\",\"\",\"\",\"1-2\",\"4134\",\"39\",\"1\",\"Testing\",\"Stims/Figures/57-C-30-1.bmp\",\"vafasha\",\"Left\",\"39\",\"2\",\"18\",\"3B\",\"C1\",\"C\",\"42\"
\"\",\"\",\"approach-retreat\",\"191\",\"1436442\",\"0.0-191.0\",\"\",\"\",\"1-2\",\"4211\",\"40\",\"0\",\"Testing\",\"Stims/Figures/27-C-30-1.bmp\",\"vafasha\",\"Down\",\"38\",\"2\",\"19\",\"3B\",\"C1\",\"C\",\"43\"
\"\",\"\",\"approach-retreat\",\"192\",\"1442045\",\"0.0-192.0\",\"\",\"\",\"1-2\",\"4096\",\"37\",\"1\",\"Testing\",\"Stims/Figures/102-C-20-4.bmp\",\"vafasha\",\"Right\",\"37\",\"2\",\"20\",\"3B\",\"C1\",\"C\",\"44\"
\"\",\"\",\"approach-retreat\",\"193\",\"1447572\",\"0.0-193.0\",\"\",\"\",\"1-2\",\"4019\",\"40\",\"1\",\"Testing\",\"Stims/Figures/44-J-10-3.bmp\",\"za:haha\",\"Down\",\"40\",\"2\",\"21\",\"3B\",\"C2\",\"C\",\"45\"
\"\",\"\",\"approach-retreat\",\"194\",\"1453217\",\"0.0-194.0\",\"\",\"\",\"1-2\",\"4138\",\"40\",\"1\",\"Testing\",\"Stims/Figures/71-C-30-1.bmp\",\"vafasha\",\"Up\",\"40\",\"2\",\"22\",\"3B\",\"C1\",\"C\",\"46\"
\"\",\"\",\"approach-retreat\",\"195\",\"1459089\",\"0.0-195.0\",\"\",\"\",\"1-2\",\"4365\",\"37\",\"1\",\"Testing\",\"Stims/Figures/27-J-0-1.bmp\",\"za:haha\",\"Left\",\"37\",\"2\",\"23\",\"3B\",\"C2\",\"C\",\"47\"
\"\",\"\",\"approach-retreat\",\"196\",\"1464964\",\"0.0-196.0\",\"\",\"\",\"1-2\",\"4367\",\"40\",\"1\",\"Testing\",\"Stims/Figures/7-J-10-4.bmp\",\"za:haha\",\"Down\",\"40\",\"2\",\"24\",\"3B\",\"C2\",\"C\",\"48\"
\"\",\"\",\"approach-retreat\",\"197\",\"1471066\",\"0.0-197.0\",\"\",\"\",\"1-2\",\"4593\",\"37\",\"1\",\"Testing\",\"Stims/Figures/7-J-10-4.bmp\",\"za:haha\",\"Left\",\"37\",\"3\",\"1\",\"3B\",\"C2\",\"C\",\"49\"
\"\",\"\",\"approach-retreat\",\"198\",\"1477194\",\"0.0-198.0\",\"\",\"\",\"1-2\",\"4621\",\"40\",\"0\",\"Testing\",\"Stims/Figures/139-C-20-2.bmp\",\"vafasha\",\"Down\",\"38\",\"3\",\"2\",\"3B\",\"C1\",\"C\",\"50\"
\"\",\"\",\"approach-retreat\",\"199\",\"1485075\",\"0.0-199.0\",\"\",\"\",\"1-2\",\"6374\",\"39\",\"0\",\"Testing\",\"Stims/Figures/84-C-20-2.bmp\",\"vafasha\",\"Right\",\"37\",\"3\",\"3\",\"3B\",\"C1\",\"C\",\"51\"
\"\",\"\",\"approach-retreat\",\"200\",\"1490802\",\"0.0-200.0\",\"\",\"\",\"1-2\",\"4221\",\"39\",\"1\",\"Testing\",\"Stims/Figures/57-C-30-1.bmp\",\"vafasha\",\"Left\",\"39\",\"3\",\"4\",\"3B\",\"C1\",\"C\",\"52\"
\"\",\"\",\"approach-retreat\",\"201\",\"1496471\",\"0.0-201.0\",\"\",\"\",\"1-2\",\"4161\",\"40\",\"1\",\"Testing\",\"Stims/Figures/118-C-20-2.bmp\",\"vafasha\",\"Up\",\"40\",\"3\",\"5\",\"3B\",\"C1\",\"C\",\"53\"
\"\",\"\",\"approach-retreat\",\"202\",\"1502267\",\"0.0-202.0\",\"\",\"\",\"1-2\",\"4288\",\"37\",\"0\",\"Testing\",\"Stims/Figures/87-J-10-4.bmp\",\"za:haha\",\"Right\",\"39\",\"3\",\"6\",\"3B\",\"C2\",\"C\",\"54\"
\"\",\"\",\"approach-retreat\",\"203\",\"1509658\",\"0.0-203.0\",\"\",\"\",\"1-2\",\"5884\",\"39\",\"0\",\"Testing\",\"Stims/Figures/100-J-10-3.bmp\",\"za:haha\",\"Left\",\"37\",\"3\",\"7\",\"3B\",\"C2\",\"C\",\"55\"
\"\",\"\",\"approach-retreat\",\"204\",\"1515916\",\"0.0-204.0\",\"\",\"\",\"1-2\",\"4751\",\"38\",\"1\",\"Testing\",\"Stims/Figures/84-J-0-2.bmp\",\"za:haha\",\"Up\",\"38\",\"3\",\"8\",\"3B\",\"C2\",\"C\",\"56\"
\"\",\"\",\"approach-retreat\",\"205\",\"1521876\",\"0.0-205.0\",\"\",\"\",\"1-2\",\"4452\",\"38\",\"0\",\"Testing\",\"Stims/Figures/118-J-0-2.bmp\",\"za:haha\",\"Down\",\"40\",\"3\",\"9\",\"3B\",\"C2\",\"C\",\"57\"
\"\",\"\",\"approach-retreat\",\"206\",\"1529424\",\"0.0-206.0\",\"\",\"\",\"1-2\",\"6041\",\"40\",\"1\",\"Testing\",\"Stims/Figures/44-C-30-3.bmp\",\"vafasha\",\"Up\",\"40\",\"3\",\"10\",\"3B\",\"C1\",\"C\",\"58\"
\"\",\"\",\"approach-retreat\",\"207\",\"1535043\",\"0.0-207.0\",\"\",\"\",\"1-2\",\"4111\",\"38\",\"0\",\"Testing\",\"Stims/Figures/27-C-30-1.bmp\",\"vafasha\",\"Up\",\"40\",\"3\",\"11\",\"3B\",\"C1\",\"C\",\"59\"
\"\",\"\",\"approach-retreat\",\"208\",\"1540746\",\"0.0-208.0\",\"\",\"\",\"1-2\",\"4195\",\"37\",\"0\",\"Testing\",\"Stims/Figures/71-J-0-1.bmp\",\"za:haha\",\"Right\",\"39\",\"3\",\"12\",\"3B\",\"C2\",\"C\",\"60\"
\"\",\"\",\"approach-retreat\",\"209\",\"1546947\",\"0.0-209.0\",\"\",\"\",\"1-2\",\"4695\",\"38\",\"1\",\"Testing\",\"Stims/Figures/100-C-30-3.bmp\",\"vafasha\",\"Down\",\"38\",\"3\",\"13\",\"3B\",\"C1\",\"C\",\"61\"
\"\",\"\",\"approach-retreat\",\"210\",\"1552520\",\"0.0-210.0\",\"\",\"\",\"1-2\",\"4065\",\"38\",\"0\",\"Testing\",\"Stims/Figures/111-J-10-3.bmp\",\"za:haha\",\"Down\",\"40\",\"3\",\"14\",\"3B\",\"C2\",\"C\",\"62\"
\"\",\"\",\"approach-retreat\",\"211\",\"1558390\",\"0.0-211.0\",\"\",\"\",\"1-2\",\"4362\",\"40\",\"1\",\"Testing\",\"Stims/Figures/139-J-0-2.bmp\",\"za:haha\",\"Down\",\"40\",\"3\",\"15\",\"3B\",\"C2\",\"C\",\"63\"
\"\",\"\",\"approach-retreat\",\"212\",\"1564006\",\"0.0-212.0\",\"\",\"\",\"1-2\",\"4109\",\"39\",\"1\",\"Testing\",\"Stims/Figures/27-J-0-1.bmp\",\"za:haha\",\"Right\",\"39\",\"3\",\"16\",\"3B\",\"C2\",\"C\",\"64\"
\"\",\"\",\"approach-retreat\",\"213\",\"1569942\",\"0.0-213.0\",\"\",\"\",\"1-2\",\"4428\",\"37\",\"1\",\"Testing\",\"Stims/Figures/44-J-10-3.bmp\",\"za:haha\",\"Left\",\"37\",\"3\",\"17\",\"3B\",\"C2\",\"C\",\"65\"
\"\",\"\",\"approach-retreat\",\"214\",\"1575462\",\"0.0-214.0\",\"\",\"\",\"1-2\",\"4013\",\"37\",\"1\",\"Testing\",\"Stims/Figures/71-C-30-1.bmp\",\"vafasha\",\"Right\",\"37\",\"3\",\"18\",\"3B\",\"C1\",\"C\",\"66\"
\"\",\"\",\"approach-retreat\",\"215\",\"1581126\",\"0.0-215.0\",\"\",\"\",\"1-2\",\"4157\",\"38\",\"1\",\"Testing\",\"Stims/Figures/102-C-20-4.bmp\",\"vafasha\",\"Down\",\"38\",\"3\",\"19\",\"3B\",\"C1\",\"C\",\"67\"
\"\",\"\",\"approach-retreat\",\"216\",\"1587030\",\"0.0-216.0\",\"\",\"\",\"1-2\",\"4398\",\"38\",\"1\",\"Testing\",\"Stims/Figures/57-J-0-1.bmp\",\"za:haha\",\"Up\",\"38\",\"3\",\"20\",\"3B\",\"C2\",\"C\",\"68\"
\"\",\"\",\"approach-retreat\",\"217\",\"1592617\",\"0.0-217.0\",\"\",\"\",\"1-2\",\"4081\",\"40\",\"0\",\"Testing\",\"Stims/Figures/102-J-10-4.bmp\",\"za:haha\",\"Up\",\"38\",\"3\",\"21\",\"3B\",\"C2\",\"C\",\"69\"
\"\",\"\",\"approach-retreat\",\"218\",\"1598217\",\"0.0-218.0\",\"\",\"\",\"1-2\",\"4093\",\"37\",\"1\",\"Testing\",\"Stims/Figures/7-C-20-4.bmp\",\"vafasha\",\"Right\",\"37\",\"3\",\"22\",\"3B\",\"C1\",\"C\",\"70\"
\"\",\"\",\"approach-retreat\",\"219\",\"1603974\",\"0.0-219.0\",\"\",\"\",\"1-2\",\"4249\",\"39\",\"1\",\"Testing\",\"Stims/Figures/111-C-30-3.bmp\",\"vafasha\",\"Left\",\"39\",\"3\",\"23\",\"3B\",\"C1\",\"C\",\"71\"
\"\",\"\",\"approach-retreat\",\"220\",\"1609559\",\"0.0-220.0\",\"\",\"\",\"1-2\",\"4077\",\"39\",\"1\",\"Testing\",\"Stims/Figures/87-C-20-4.bmp\",\"vafasha\",\"Left\",\"39\",\"3\",\"24\",\"3B\",\"C1\",\"C\",\"72\"
\"\",\"\",\"approach-retreat\",\"221\",\"1615297\",\"0.0-221.0\",\"\",\"\",\"1-2\",\"4232\",\"39\",\"1\",\"Testing\",\"Stims/Figures/7-J-10-4.bmp\",\"za:haha\",\"Right\",\"39\",\"4\",\"1\",\"3B\",\"C2\",\"C\",\"73\"
\"\",\"\",\"approach-retreat\",\"222\",\"1620891\",\"0.0-222.0\",\"\",\"\",\"1-2\",\"4088\",\"39\",\"0\",\"Testing\",\"Stims/Figures/27-J-0-1.bmp\",\"za:haha\",\"Left\",\"37\",\"4\",\"2\",\"3B\",\"C2\",\"C\",\"74\"
\"\",\"\",\"approach-retreat\",\"223\",\"1626395\",\"0.0-223.0\",\"\",\"\",\"1-2\",\"3996\",\"37\",\"1\",\"Testing\",\"Stims/Figures/57-C-30-1.bmp\",\"vafasha\",\"Right\",\"37\",\"4\",\"3\",\"3B\",\"C1\",\"C\",\"75\"
\"\",\"\",\"approach-retreat\",\"224\",\"1632012\",\"0.0-224.0\",\"\",\"\",\"1-2\",\"4110\",\"38\",\"1\",\"Testing\",\"Stims/Figures/27-C-30-1.bmp\",\"vafasha\",\"Down\",\"38\",\"4\",\"4\",\"3B\",\"C1\",\"C\",\"76\"
\"\",\"\",\"approach-retreat\",\"225\",\"1637554\",\"0.0-225.0\",\"\",\"\",\"1-2\",\"4034\",\"37\",\"1\",\"Testing\",\"Stims/Figures/102-C-20-4.bmp\",\"vafasha\",\"Right\",\"37\",\"4\",\"5\",\"3B\",\"C1\",\"C\",\"77\"
\"\",\"\",\"approach-retreat\",\"226\",\"1643423\",\"0.0-226.0\",\"\",\"\",\"1-2\",\"4362\",\"37\",\"1\",\"Testing\",\"Stims/Figures/118-J-0-2.bmp\",\"za:haha\",\"Left\",\"37\",\"4\",\"6\",\"3B\",\"C2\",\"C\",\"78\"
\"\",\"\",\"approach-retreat\",\"227\",\"1649216\",\"0.0-227.0\",\"\",\"\",\"1-2\",\"4286\",\"40\",\"1\",\"Testing\",\"Stims/Figures/44-J-10-3.bmp\",\"za:haha\",\"Down\",\"40\",\"4\",\"7\",\"3B\",\"C2\",\"C\",\"79\"
\"\",\"\",\"approach-retreat\",\"228\",\"1654861\",\"0.0-228.0\",\"\",\"\",\"1-2\",\"4139\",\"40\",\"1\",\"Testing\",\"Stims/Figures/118-C-20-2.bmp\",\"vafasha\",\"Up\",\"40\",\"4\",\"8\",\"3B\",\"C1\",\"C\",\"80\"
\"\",\"\",\"approach-retreat\",\"229\",\"1661488\",\"0.0-229.0\",\"\",\"\",\"1-2\",\"5120\",\"39\",\"0\",\"Testing\",\"Stims/Figures/84-C-20-2.bmp\",\"vafasha\",\"Right\",\"37\",\"4\",\"9\",\"3B\",\"C1\",\"C\",\"81\"
\"\",\"\",\"approach-retreat\",\"230\",\"1667051\",\"0.0-230.0\",\"\",\"\",\"1-2\",\"4055\",\"37\",\"1\",\"Testing\",\"Stims/Figures/100-C-30-3.bmp\",\"vafasha\",\"Right\",\"37\",\"4\",\"10\",\"3B\",\"C1\",\"C\",\"82\"
\"\",\"\",\"approach-retreat\",\"231\",\"1672699\",\"0.0-231.0\",\"\",\"\",\"1-2\",\"4141\",\"38\",\"0\",\"Testing\",\"Stims/Figures/87-J-10-4.bmp\",\"za:haha\",\"Down\",\"40\",\"4\",\"11\",\"3B\",\"C2\",\"C\",\"83\"
\"\",\"\",\"approach-retreat\",\"232\",\"1679236\",\"0.0-232.0\",\"\",\"\",\"1-2\",\"5030\",\"38\",\"0\",\"Testing\",\"Stims/Figures/111-J-10-3.bmp\",\"za:haha\",\"Down\",\"40\",\"4\",\"12\",\"3B\",\"C2\",\"C\",\"84\"
\"\",\"\",\"approach-retreat\",\"233\",\"1684948\",\"0.0-233.0\",\"\",\"\",\"1-2\",\"4204\",\"37\",\"1\",\"Testing\",\"Stims/Figures/139-J-0-2.bmp\",\"za:haha\",\"Left\",\"37\",\"4\",\"13\",\"3B\",\"C2\",\"C\",\"85\"
\"\",\"\",\"approach-retreat\",\"234\",\"1691044\",\"0.0-234.0\",\"\",\"\",\"1-2\",\"4588\",\"38\",\"1\",\"Testing\",\"Stims/Figures/84-J-0-2.bmp\",\"za:haha\",\"Up\",\"38\",\"4\",\"14\",\"3B\",\"C2\",\"C\",\"86\"
\"\",\"\",\"approach-retreat\",\"235\",\"1696785\",\"0.0-235.0\",\"\",\"\",\"1-2\",\"4235\",\"38\",\"1\",\"Testing\",\"Stims/Figures/71-J-0-1.bmp\",\"za:haha\",\"Up\",\"38\",\"4\",\"15\",\"3B\",\"C2\",\"C\",\"87\"
\"\",\"\",\"approach-retreat\",\"236\",\"1702334\",\"0.0-236.0\",\"\",\"\",\"1-2\",\"4041\",\"38\",\"0\",\"Testing\",\"Stims/Figures/102-J-10-4.bmp\",\"za:haha\",\"Down\",\"40\",\"4\",\"16\",\"3B\",\"C2\",\"C\",\"88\"
\"\",\"\",\"approach-retreat\",\"237\",\"1708534\",\"0.0-237.0\",\"\",\"\",\"1-2\",\"4693\",\"40\",\"1\",\"Testing\",\"Stims/Figures/111-C-30-3.bmp\",\"vafasha\",\"Up\",\"40\",\"4\",\"17\",\"3B\",\"C1\",\"C\",\"89\"
\"\",\"\",\"approach-retreat\",\"238\",\"1714121\",\"0.0-238.0\",\"\",\"\",\"1-2\",\"4081\",\"39\",\"1\",\"Testing\",\"Stims/Figures/44-C-30-3.bmp\",\"vafasha\",\"Left\",\"39\",\"4\",\"18\",\"3B\",\"C1\",\"C\",\"90\"
\"\",\"\",\"approach-retreat\",\"239\",\"1720056\",\"0.0-239.0\",\"\",\"\",\"1-2\",\"4428\",\"40\",\"1\",\"Testing\",\"Stims/Figures/71-C-30-1.bmp\",\"vafasha\",\"Up\",\"40\",\"4\",\"19\",\"3B\",\"C1\",\"C\",\"91\"
\"\",\"\",\"approach-retreat\",\"240\",\"1725561\",\"0.0-240.0\",\"\",\"\",\"1-2\",\"3997\",\"39\",\"1\",\"Testing\",\"Stims/Figures/87-C-20-4.bmp\",\"vafasha\",\"Left\",\"39\",\"4\",\"20\",\"3B\",\"C1\",\"C\",\"92\"
\"\",\"\",\"approach-retreat\",\"241\",\"1731120\",\"0.0-241.0\",\"\",\"\",\"1-2\",\"4054\",\"39\",\"0\",\"Testing\",\"Stims/Figures/100-J-10-3.bmp\",\"za:haha\",\"Left\",\"37\",\"4\",\"21\",\"3B\",\"C2\",\"C\",\"93\"
\"\",\"\",\"approach-retreat\",\"242\",\"1736575\",\"0.0-242.0\",\"\",\"\",\"1-2\",\"3947\",\"38\",\"1\",\"Testing\",\"Stims/Figures/139-C-20-2.bmp\",\"vafasha\",\"Down\",\"38\",\"4\",\"22\",\"3B\",\"C1\",\"C\",\"94\"
\"\",\"\",\"approach-retreat\",\"243\",\"1742153\",\"0.0-243.0\",\"\",\"\",\"1-2\",\"4072\",\"39\",\"1\",\"Testing\",\"Stims/Figures/57-J-0-1.bmp\",\"za:haha\",\"Right\",\"39\",\"4\",\"23\",\"3B\",\"C2\",\"C\",\"95\"
\"\",\"\",\"approach-retreat\",\"244\",\"1749887\",\"0.0-244.0\",\"\",\"\",\"1-2\",\"6226\",\"40\",\"1\",\"Testing\",\"Stims/Figures/7-C-20-4.bmp\",\"vafasha\",\"Up\",\"40\",\"4\",\"24\",\"3B\",\"C1\",\"C\",\"96\"
\"19291\",\"\",\"survey-text\",\"245\",\"1769185\",\"0.0-245.0\",\"\",\"{\"\"Q0\"\":\"\"PS160006\"\"}\",\"\",\"\",\"\",\"\",\"\",\"\",\"\",\"\",\"\",\"\",\"\",\"\",\"\",\"\",\"\"
