\"rt\",\"key_press\",\"trial_type\",\"trial_index\",\"time_elapsed\",\"internal_node_id\",\"view_history\",\"responses\",\"Id\",\"Rt\",\"ResKeyCode\",\"ResCorr\",\"TrialType2\",\"Image\",\"Label\",\"Location\",\"CorrectResponse\",\"Block\",\"BlockTrial\",\"Condition\",\"LabelType\",\"Subcondition\",\"trialNum\"
\"23214\",\"32\",\"text\",\"0\",\"23228\",\"0.0-0.0-0.0\",\"\",\"\",\"\",\"\",\"\",\"\",\"\",\"\",\"\",\"\",\"\",\"\",\"\",\"\",\"\",\"\",\"\"
\"80136\",\"\",\"instructions\",\"1\",\"103367\",\"0.0-1.0\",\"[{\"\"page_index\"\":0,\"\"viewing_time\"\":80135}]\",\"\",\"\",\"\",\"\",\"\",\"\",\"\",\"\",\"\",\"\",\"\",\"\",\"\",\"\",\"\",\"\"
\"15184\",\"\",\"survey-multi-choice\",\"2\",\"118581\",\"0.0-2.0\",\"\",\"{\"\"Q0\"\":\"\"Da\"\",\"\"Q1\"\":\"\"Da\"\",\"\"Q2\"\":\"\"Da\"\",\"\"Q3\"\":\"\"Da\"\",\"\"Q4\"\":\"\"Da\"\",\"\"Q5\"\":\"\"Da\"\"}\",\"\",\"\",\"\",\"\",\"\",\"\",\"\",\"\",\"\",\"\",\"\",\"\",\"\",\"\",\"\"
\"\",\"\",\"bio\",\"3\",\"125428\",\"0.0-3.0\",\"\",\"{\"\"age\"\":\"\"19\"\",\"\"gender\"\":\"\"f\"\",\"\"specify\"\":\"\"\"\"}\",\"\",\"\",\"\",\"\",\"\",\"\",\"\",\"\",\"\",\"\",\"\",\"\",\"\",\"\",\"\"
\"\",\"\",\"approach-retreat\",\"4\",\"137036\",\"0.0-4.0\",\"\",\"\",\"2-1\",\"10087\",\"38\",\"1\",\"Training\",\"Stims/Figures/100-J-10-3.bmp\",\"fa:fa:sha\",\"Up\",\"38\",\"1\",\"1\",\"3A\",\"C1\",\"C\",\"1\"
\"\",\"\",\"approach-retreat\",\"5\",\"149247\",\"0.0-5.0\",\"\",\"\",\"2-1\",\"10696\",\"39\",\"1\",\"Training\",\"Stims/Figures/144-C-30-3.bmp\",\"zahaha\",\"Left\",\"39\",\"1\",\"2\",\"3A\",\"C2\",\"C\",\"2\"
\"\",\"\",\"approach-retreat\",\"6\",\"158372\",\"0.0-6.0\",\"\",\"\",\"2-1\",\"7612\",\"38\",\"0\",\"Training\",\"Stims/Figures/19-J-10-4.bmp\",\"fa:fa:sha\",\"Down\",\"40\",\"1\",\"3\",\"3A\",\"C1\",\"C\",\"3\"
\"\",\"\",\"approach-retreat\",\"7\",\"287066\",\"0.0-7.0\",\"\",\"\",\"2-1\",\"127178\",\"37\",\"1\",\"Training\",\"Stims/Figures/86-J-0-1.bmp\",\"fa:fa:sha\",\"Left\",\"37\",\"1\",\"4\",\"3A\",\"C1\",\"C\",\"4\"
\"\",\"\",\"approach-retreat\",\"8\",\"296466\",\"0.0-8.0\",\"\",\"\",\"2-1\",\"7881\",\"38\",\"0\",\"Training\",\"Stims/Figures/94-J-0-2.bmp\",\"fa:fa:sha\",\"Down\",\"40\",\"1\",\"5\",\"3A\",\"C1\",\"C\",\"5\"
\"\",\"\",\"approach-retreat\",\"9\",\"311032\",\"0.0-9.0\",\"\",\"\",\"2-1\",\"13054\",\"38\",\"1\",\"Training\",\"Stims/Figures/102-J-10-4.bmp\",\"fa:fa:sha\",\"Up\",\"38\",\"1\",\"6\",\"3A\",\"C1\",\"C\",\"6\"
\"\",\"\",\"approach-retreat\",\"10\",\"319415\",\"0.0-10.0\",\"\",\"\",\"2-1\",\"6865\",\"39\",\"1\",\"Training\",\"Stims/Figures/19-C-20-4.bmp\",\"zahaha\",\"Left\",\"39\",\"1\",\"7\",\"3A\",\"C2\",\"C\",\"7\"
\"\",\"\",\"approach-retreat\",\"11\",\"331984\",\"0.0-11.0\",\"\",\"\",\"2-1\",\"11051\",\"37\",\"0\",\"Training\",\"Stims/Figures/144-J-10-3.bmp\",\"fa:fa:sha\",\"Right\",\"39\",\"1\",\"8\",\"3A\",\"C1\",\"C\",\"8\"
\"\",\"\",\"approach-retreat\",\"12\",\"342873\",\"0.0-12.0\",\"\",\"\",\"2-1\",\"9380\",\"38\",\"1\",\"Training\",\"Stims/Figures/93-J-0-1.bmp\",\"fa:fa:sha\",\"Up\",\"38\",\"1\",\"9\",\"3A\",\"C1\",\"C\",\"9\"
\"\",\"\",\"approach-retreat\",\"13\",\"348806\",\"0.0-13.0\",\"\",\"\",\"2-1\",\"4423\",\"37\",\"1\",\"Training\",\"Stims/Figures/94-C-20-2.bmp\",\"zahaha\",\"Right\",\"37\",\"1\",\"10\",\"3A\",\"C2\",\"C\",\"10\"
\"\",\"\",\"approach-retreat\",\"14\",\"354601\",\"0.0-14.0\",\"\",\"\",\"2-1\",\"4281\",\"39\",\"0\",\"Training\",\"Stims/Figures/86-C-30-1.bmp\",\"zahaha\",\"Right\",\"37\",\"1\",\"11\",\"3A\",\"C2\",\"C\",\"11\"
\"\",\"\",\"approach-retreat\",\"15\",\"364104\",\"0.0-15.0\",\"\",\"\",\"2-1\",\"7988\",\"39\",\"0\",\"Training\",\"Stims/Figures/118-C-20-2.bmp\",\"zahaha\",\"Right\",\"37\",\"1\",\"12\",\"3A\",\"C2\",\"C\",\"12\"
\"\",\"\",\"approach-retreat\",\"16\",\"371049\",\"0.0-16.0\",\"\",\"\",\"2-1\",\"5424\",\"38\",\"1\",\"Training\",\"Stims/Figures/118-J-0-2.bmp\",\"fa:fa:sha\",\"Up\",\"38\",\"1\",\"13\",\"3A\",\"C1\",\"C\",\"13\"
\"\",\"\",\"approach-retreat\",\"17\",\"377023\",\"0.0-17.0\",\"\",\"\",\"2-1\",\"4459\",\"40\",\"0\",\"Training\",\"Stims/Figures/102-C-20-4.bmp\",\"zahaha\",\"Down\",\"38\",\"1\",\"14\",\"3A\",\"C2\",\"C\",\"14\"
\"\",\"\",\"approach-retreat\",\"18\",\"382983\",\"0.0-18.0\",\"\",\"\",\"2-1\",\"4444\",\"40\",\"0\",\"Training\",\"Stims/Figures/100-C-30-3.bmp\",\"zahaha\",\"Down\",\"38\",\"1\",\"15\",\"3A\",\"C2\",\"C\",\"15\"
\"\",\"\",\"approach-retreat\",\"19\",\"389855\",\"0.0-19.0\",\"\",\"\",\"2-1\",\"5355\",\"39\",\"1\",\"Training\",\"Stims/Figures/93-C-30-1.bmp\",\"zahaha\",\"Left\",\"39\",\"1\",\"16\",\"3A\",\"C2\",\"C\",\"16\"
\"\",\"\",\"approach-retreat\",\"20\",\"396420\",\"0.0-20.0\",\"\",\"\",\"2-1\",\"5051\",\"37\",\"1\",\"Training\",\"Stims/Figures/102-C-20-4.bmp\",\"zahaha\",\"Right\",\"37\",\"2\",\"1\",\"3A\",\"C2\",\"C\",\"17\"
\"\",\"\",\"approach-retreat\",\"21\",\"402220\",\"0.0-21.0\",\"\",\"\",\"2-1\",\"4286\",\"39\",\"1\",\"Training\",\"Stims/Figures/93-C-30-1.bmp\",\"zahaha\",\"Left\",\"39\",\"2\",\"2\",\"3A\",\"C2\",\"C\",\"18\"
\"\",\"\",\"approach-retreat\",\"22\",\"407943\",\"0.0-22.0\",\"\",\"\",\"2-1\",\"4206\",\"39\",\"0\",\"Training\",\"Stims/Figures/94-J-0-2.bmp\",\"fa:fa:sha\",\"Left\",\"37\",\"2\",\"3\",\"3A\",\"C1\",\"C\",\"19\"
\"\",\"\",\"approach-retreat\",\"23\",\"413588\",\"0.0-23.0\",\"\",\"\",\"2-1\",\"4132\",\"39\",\"1\",\"Training\",\"Stims/Figures/19-J-10-4.bmp\",\"fa:fa:sha\",\"Right\",\"39\",\"2\",\"4\",\"3A\",\"C1\",\"C\",\"20\"
\"\",\"\",\"approach-retreat\",\"24\",\"419206\",\"0.0-24.0\",\"\",\"\",\"2-1\",\"4103\",\"40\",\"1\",\"Training\",\"Stims/Figures/144-C-30-3.bmp\",\"zahaha\",\"Up\",\"40\",\"2\",\"5\",\"3A\",\"C2\",\"C\",\"21\"
\"\",\"\",\"approach-retreat\",\"25\",\"425188\",\"0.0-25.0\",\"\",\"\",\"2-1\",\"4470\",\"40\",\"1\",\"Training\",\"Stims/Figures/86-C-30-1.bmp\",\"zahaha\",\"Up\",\"40\",\"2\",\"6\",\"3A\",\"C2\",\"C\",\"22\"
\"\",\"\",\"approach-retreat\",\"26\",\"432671\",\"0.0-26.0\",\"\",\"\",\"2-1\",\"5967\",\"37\",\"1\",\"Training\",\"Stims/Figures/118-C-20-2.bmp\",\"zahaha\",\"Right\",\"37\",\"2\",\"7\",\"3A\",\"C2\",\"C\",\"23\"
\"\",\"\",\"approach-retreat\",\"27\",\"439791\",\"0.0-27.0\",\"\",\"\",\"2-1\",\"5604\",\"40\",\"1\",\"Training\",\"Stims/Figures/118-J-0-2.bmp\",\"fa:fa:sha\",\"Down\",\"40\",\"2\",\"8\",\"3A\",\"C1\",\"C\",\"24\"
\"\",\"\",\"approach-retreat\",\"28\",\"445775\",\"0.0-28.0\",\"\",\"\",\"2-1\",\"4467\",\"37\",\"1\",\"Training\",\"Stims/Figures/86-J-0-1.bmp\",\"fa:fa:sha\",\"Left\",\"37\",\"2\",\"9\",\"3A\",\"C1\",\"C\",\"25\"
\"\",\"\",\"approach-retreat\",\"29\",\"451397\",\"0.0-29.0\",\"\",\"\",\"2-1\",\"4108\",\"40\",\"0\",\"Training\",\"Stims/Figures/94-C-20-2.bmp\",\"zahaha\",\"Down\",\"38\",\"2\",\"10\",\"3A\",\"C2\",\"C\",\"26\"
\"\",\"\",\"approach-retreat\",\"30\",\"457670\",\"0.0-30.0\",\"\",\"\",\"2-1\",\"4757\",\"38\",\"1\",\"Training\",\"Stims/Figures/144-J-10-3.bmp\",\"fa:fa:sha\",\"Up\",\"38\",\"2\",\"11\",\"3A\",\"C1\",\"C\",\"27\"
\"\",\"\",\"approach-retreat\",\"31\",\"463266\",\"0.0-31.0\",\"\",\"\",\"2-1\",\"4082\",\"39\",\"1\",\"Training\",\"Stims/Figures/102-J-10-4.bmp\",\"fa:fa:sha\",\"Right\",\"39\",\"2\",\"12\",\"3A\",\"C1\",\"C\",\"28\"
\"\",\"\",\"approach-retreat\",\"32\",\"469282\",\"0.0-32.0\",\"\",\"\",\"2-1\",\"4502\",\"38\",\"1\",\"Training\",\"Stims/Figures/93-J-0-1.bmp\",\"fa:fa:sha\",\"Up\",\"38\",\"2\",\"13\",\"3A\",\"C1\",\"C\",\"29\"
\"\",\"\",\"approach-retreat\",\"33\",\"475131\",\"0.0-33.0\",\"\",\"\",\"2-1\",\"4334\",\"38\",\"1\",\"Training\",\"Stims/Figures/100-C-30-3.bmp\",\"zahaha\",\"Down\",\"38\",\"2\",\"14\",\"3A\",\"C2\",\"C\",\"30\"
\"\",\"\",\"approach-retreat\",\"34\",\"481031\",\"0.0-34.0\",\"\",\"\",\"2-1\",\"4384\",\"38\",\"0\",\"Training\",\"Stims/Figures/100-J-10-3.bmp\",\"fa:fa:sha\",\"Down\",\"40\",\"2\",\"15\",\"3A\",\"C1\",\"C\",\"31\"
\"\",\"\",\"approach-retreat\",\"35\",\"486648\",\"0.0-35.0\",\"\",\"\",\"2-1\",\"4096\",\"39\",\"1\",\"Training\",\"Stims/Figures/19-C-20-4.bmp\",\"zahaha\",\"Left\",\"39\",\"2\",\"16\",\"3A\",\"C2\",\"C\",\"32\"
\"\",\"\",\"approach-retreat\",\"36\",\"492640\",\"0.0-36.0\",\"\",\"\",\"2-1\",\"4473\",\"39\",\"0\",\"Training\",\"Stims/Figures/93-J-0-1.bmp\",\"fa:fa:sha\",\"Left\",\"37\",\"3\",\"1\",\"3A\",\"C1\",\"C\",\"33\"
\"\",\"\",\"approach-retreat\",\"37\",\"498621\",\"0.0-37.0\",\"\",\"\",\"2-1\",\"4469\",\"38\",\"1\",\"Training\",\"Stims/Figures/94-J-0-2.bmp\",\"fa:fa:sha\",\"Up\",\"38\",\"3\",\"2\",\"3A\",\"C1\",\"C\",\"34\"
\"\",\"\",\"approach-retreat\",\"38\",\"504300\",\"0.0-38.0\",\"\",\"\",\"2-1\",\"4162\",\"38\",\"1\",\"Training\",\"Stims/Figures/118-J-0-2.bmp\",\"fa:fa:sha\",\"Up\",\"38\",\"3\",\"3\",\"3A\",\"C1\",\"C\",\"35\"
\"\",\"\",\"approach-retreat\",\"39\",\"511281\",\"0.0-39.0\",\"\",\"\",\"2-1\",\"5458\",\"40\",\"1\",\"Training\",\"Stims/Figures/144-C-30-3.bmp\",\"zahaha\",\"Up\",\"40\",\"3\",\"4\",\"3A\",\"C2\",\"C\",\"36\"
\"\",\"\",\"approach-retreat\",\"40\",\"517998\",\"0.0-40.0\",\"\",\"\",\"2-1\",\"5202\",\"38\",\"1\",\"Training\",\"Stims/Figures/93-C-30-1.bmp\",\"zahaha\",\"Down\",\"38\",\"3\",\"5\",\"3A\",\"C2\",\"C\",\"37\"
\"\",\"\",\"approach-retreat\",\"41\",\"523594\",\"0.0-41.0\",\"\",\"\",\"2-1\",\"4076\",\"39\",\"1\",\"Training\",\"Stims/Figures/100-J-10-3.bmp\",\"fa:fa:sha\",\"Right\",\"39\",\"3\",\"6\",\"3A\",\"C1\",\"C\",\"38\"
\"\",\"\",\"approach-retreat\",\"42\",\"529372\",\"0.0-42.0\",\"\",\"\",\"2-1\",\"4261\",\"38\",\"1\",\"Training\",\"Stims/Figures/19-C-20-4.bmp\",\"zahaha\",\"Down\",\"38\",\"3\",\"7\",\"3A\",\"C2\",\"C\",\"39\"
\"\",\"\",\"approach-retreat\",\"43\",\"535174\",\"0.0-43.0\",\"\",\"\",\"2-1\",\"4282\",\"37\",\"0\",\"Training\",\"Stims/Figures/86-C-30-1.bmp\",\"zahaha\",\"Left\",\"39\",\"3\",\"8\",\"3A\",\"C2\",\"C\",\"40\"
\"\",\"\",\"approach-retreat\",\"44\",\"542289\",\"0.0-44.0\",\"\",\"\",\"2-1\",\"5603\",\"37\",\"1\",\"Training\",\"Stims/Figures/118-C-20-2.bmp\",\"zahaha\",\"Right\",\"37\",\"3\",\"9\",\"3A\",\"C2\",\"C\",\"41\"
\"\",\"\",\"approach-retreat\",\"45\",\"547963\",\"0.0-45.0\",\"\",\"\",\"2-1\",\"4155\",\"39\",\"1\",\"Training\",\"Stims/Figures/94-C-20-2.bmp\",\"zahaha\",\"Left\",\"39\",\"3\",\"10\",\"3A\",\"C2\",\"C\",\"42\"
\"\",\"\",\"approach-retreat\",\"46\",\"554003\",\"0.0-46.0\",\"\",\"\",\"2-1\",\"4520\",\"39\",\"0\",\"Training\",\"Stims/Figures/100-C-30-3.bmp\",\"zahaha\",\"Right\",\"37\",\"3\",\"11\",\"3A\",\"C2\",\"C\",\"43\"
\"\",\"\",\"approach-retreat\",\"47\",\"559753\",\"0.0-47.0\",\"\",\"\",\"2-1\",\"4230\",\"38\",\"0\",\"Training\",\"Stims/Figures/19-J-10-4.bmp\",\"fa:fa:sha\",\"Down\",\"40\",\"3\",\"12\",\"3A\",\"C1\",\"C\",\"44\"
\"\",\"\",\"approach-retreat\",\"48\",\"565663\",\"0.0-48.0\",\"\",\"\",\"2-1\",\"4398\",\"39\",\"0\",\"Training\",\"Stims/Figures/86-J-0-1.bmp\",\"fa:fa:sha\",\"Left\",\"37\",\"3\",\"13\",\"3A\",\"C1\",\"C\",\"45\"
\"\",\"\",\"approach-retreat\",\"49\",\"571261\",\"0.0-49.0\",\"\",\"\",\"2-1\",\"4078\",\"38\",\"0\",\"Training\",\"Stims/Figures/144-J-10-3.bmp\",\"fa:fa:sha\",\"Down\",\"40\",\"3\",\"14\",\"3A\",\"C1\",\"C\",\"46\"
\"\",\"\",\"approach-retreat\",\"50\",\"576805\",\"0.0-50.0\",\"\",\"\",\"2-1\",\"4032\",\"37\",\"0\",\"Training\",\"Stims/Figures/102-J-10-4.bmp\",\"fa:fa:sha\",\"Right\",\"39\",\"3\",\"15\",\"3A\",\"C1\",\"C\",\"47\"
\"\",\"\",\"approach-retreat\",\"51\",\"582830\",\"0.0-51.0\",\"\",\"\",\"2-1\",\"4513\",\"38\",\"0\",\"Training\",\"Stims/Figures/102-C-20-4.bmp\",\"zahaha\",\"Up\",\"40\",\"3\",\"16\",\"3A\",\"C2\",\"C\",\"48\"
\"\",\"\",\"approach-retreat\",\"52\",\"588664\",\"0.0-52.0\",\"\",\"\",\"2-1\",\"4316\",\"40\",\"1\",\"Training\",\"Stims/Figures/19-J-10-4.bmp\",\"fa:fa:sha\",\"Down\",\"40\",\"4\",\"1\",\"3A\",\"C1\",\"C\",\"49\"
\"\",\"\",\"approach-retreat\",\"53\",\"594706\",\"0.0-53.0\",\"\",\"\",\"2-1\",\"4520\",\"40\",\"0\",\"Training\",\"Stims/Figures/118-J-0-2.bmp\",\"fa:fa:sha\",\"Up\",\"38\",\"4\",\"2\",\"3A\",\"C1\",\"C\",\"50\"
\"\",\"\",\"approach-retreat\",\"54\",\"601347\",\"0.0-54.0\",\"\",\"\",\"2-1\",\"5131\",\"39\",\"1\",\"Training\",\"Stims/Figures/86-C-30-1.bmp\",\"zahaha\",\"Left\",\"39\",\"4\",\"3\",\"3A\",\"C2\",\"C\",\"51\"
\"\",\"\",\"approach-retreat\",\"55\",\"607621\",\"0.0-55.0\",\"\",\"\",\"2-1\",\"4753\",\"37\",\"1\",\"Training\",\"Stims/Figures/94-C-20-2.bmp\",\"zahaha\",\"Right\",\"37\",\"4\",\"4\",\"3A\",\"C2\",\"C\",\"52\"
\"\",\"\",\"approach-retreat\",\"56\",\"614374\",\"0.0-56.0\",\"\",\"\",\"2-1\",\"5236\",\"37\",\"1\",\"Training\",\"Stims/Figures/94-J-0-2.bmp\",\"fa:fa:sha\",\"Left\",\"37\",\"4\",\"5\",\"3A\",\"C1\",\"C\",\"53\"
\"\",\"\",\"approach-retreat\",\"57\",\"620033\",\"0.0-57.0\",\"\",\"\",\"2-1\",\"4146\",\"39\",\"0\",\"Training\",\"Stims/Figures/86-J-0-1.bmp\",\"fa:fa:sha\",\"Left\",\"37\",\"4\",\"6\",\"3A\",\"C1\",\"C\",\"54\"
\"\",\"\",\"approach-retreat\",\"58\",\"625695\",\"0.0-58.0\",\"\",\"\",\"2-1\",\"4151\",\"37\",\"1\",\"Training\",\"Stims/Figures/144-J-10-3.bmp\",\"fa:fa:sha\",\"Left\",\"37\",\"4\",\"7\",\"3A\",\"C1\",\"C\",\"55\"
\"\",\"\",\"approach-retreat\",\"59\",\"631546\",\"0.0-59.0\",\"\",\"\",\"2-1\",\"4332\",\"40\",\"1\",\"Training\",\"Stims/Figures/100-C-30-3.bmp\",\"zahaha\",\"Up\",\"40\",\"4\",\"8\",\"3A\",\"C2\",\"C\",\"56\"
\"\",\"\",\"approach-retreat\",\"60\",\"638910\",\"0.0-60.0\",\"\",\"\",\"2-1\",\"5847\",\"40\",\"1\",\"Training\",\"Stims/Figures/19-C-20-4.bmp\",\"zahaha\",\"Up\",\"40\",\"4\",\"9\",\"3A\",\"C2\",\"C\",\"57\"
\"\",\"\",\"approach-retreat\",\"61\",\"644764\",\"0.0-61.0\",\"\",\"\",\"2-1\",\"4339\",\"40\",\"1\",\"Training\",\"Stims/Figures/102-C-20-4.bmp\",\"zahaha\",\"Up\",\"40\",\"4\",\"10\",\"3A\",\"C2\",\"C\",\"58\"
\"\",\"\",\"approach-retreat\",\"62\",\"650604\",\"0.0-62.0\",\"\",\"\",\"2-1\",\"4319\",\"40\",\"0\",\"Training\",\"Stims/Figures/93-C-30-1.bmp\",\"zahaha\",\"Down\",\"38\",\"4\",\"11\",\"3A\",\"C2\",\"C\",\"59\"
\"\",\"\",\"approach-retreat\",\"63\",\"656594\",\"0.0-63.0\",\"\",\"\",\"2-1\",\"4475\",\"38\",\"1\",\"Training\",\"Stims/Figures/118-C-20-2.bmp\",\"zahaha\",\"Down\",\"38\",\"4\",\"12\",\"3A\",\"C2\",\"C\",\"60\"
\"\",\"\",\"approach-retreat\",\"64\",\"663291\",\"0.0-64.0\",\"\",\"\",\"2-1\",\"5178\",\"38\",\"0\",\"Training\",\"Stims/Figures/100-J-10-3.bmp\",\"fa:fa:sha\",\"Down\",\"40\",\"4\",\"13\",\"3A\",\"C1\",\"C\",\"61\"
\"\",\"\",\"approach-retreat\",\"65\",\"669184\",\"0.0-65.0\",\"\",\"\",\"2-1\",\"4379\",\"37\",\"1\",\"Training\",\"Stims/Figures/144-C-30-3.bmp\",\"zahaha\",\"Right\",\"37\",\"4\",\"14\",\"3A\",\"C2\",\"C\",\"62\"
\"\",\"\",\"approach-retreat\",\"66\",\"675454\",\"0.0-66.0\",\"\",\"\",\"2-1\",\"4752\",\"37\",\"0\",\"Training\",\"Stims/Figures/102-J-10-4.bmp\",\"fa:fa:sha\",\"Right\",\"39\",\"4\",\"15\",\"3A\",\"C1\",\"C\",\"63\"
\"\",\"\",\"approach-retreat\",\"67\",\"681216\",\"0.0-67.0\",\"\",\"\",\"2-1\",\"4248\",\"37\",\"0\",\"Training\",\"Stims/Figures/93-J-0-1.bmp\",\"fa:fa:sha\",\"Right\",\"39\",\"4\",\"16\",\"3A\",\"C1\",\"C\",\"64\"
\"\",\"\",\"approach-retreat\",\"68\",\"687116\",\"0.0-68.0\",\"\",\"\",\"2-1\",\"4387\",\"39\",\"1\",\"Training\",\"Stims/Figures/94-C-20-2.bmp\",\"zahaha\",\"Left\",\"39\",\"5\",\"1\",\"3A\",\"C2\",\"C\",\"65\"
\"\",\"\",\"approach-retreat\",\"69\",\"692988\",\"0.0-69.0\",\"\",\"\",\"2-1\",\"4354\",\"38\",\"0\",\"Training\",\"Stims/Figures/94-J-0-2.bmp\",\"fa:fa:sha\",\"Down\",\"40\",\"5\",\"2\",\"3A\",\"C1\",\"C\",\"66\"
\"\",\"\",\"approach-retreat\",\"70\",\"698526\",\"0.0-70.0\",\"\",\"\",\"2-1\",\"4024\",\"39\",\"0\",\"Training\",\"Stims/Figures/19-C-20-4.bmp\",\"zahaha\",\"Right\",\"37\",\"5\",\"3\",\"3A\",\"C2\",\"C\",\"67\"
\"\",\"\",\"approach-retreat\",\"71\",\"704346\",\"0.0-71.0\",\"\",\"\",\"2-1\",\"4300\",\"37\",\"0\",\"Training\",\"Stims/Figures/19-J-10-4.bmp\",\"fa:fa:sha\",\"Right\",\"39\",\"5\",\"4\",\"3A\",\"C1\",\"C\",\"68\"
\"\",\"\",\"approach-retreat\",\"72\",\"710643\",\"0.0-72.0\",\"\",\"\",\"2-1\",\"4782\",\"39\",\"1\",\"Training\",\"Stims/Figures/100-C-30-3.bmp\",\"zahaha\",\"Left\",\"39\",\"5\",\"5\",\"3A\",\"C2\",\"C\",\"69\"
\"\",\"\",\"approach-retreat\",\"73\",\"716406\",\"0.0-73.0\",\"\",\"\",\"2-1\",\"4245\",\"37\",\"0\",\"Training\",\"Stims/Figures/93-J-0-1.bmp\",\"fa:fa:sha\",\"Right\",\"39\",\"5\",\"6\",\"3A\",\"C1\",\"C\",\"70\"
\"\",\"\",\"approach-retreat\",\"74\",\"722588\",\"0.0-74.0\",\"\",\"\",\"2-1\",\"4671\",\"40\",\"1\",\"Training\",\"Stims/Figures/86-C-30-1.bmp\",\"zahaha\",\"Up\",\"40\",\"5\",\"7\",\"3A\",\"C2\",\"C\",\"71\"
\"\",\"\",\"approach-retreat\",\"75\",\"728606\",\"0.0-75.0\",\"\",\"\",\"2-1\",\"4507\",\"38\",\"1\",\"Training\",\"Stims/Figures/144-J-10-3.bmp\",\"fa:fa:sha\",\"Up\",\"38\",\"5\",\"8\",\"3A\",\"C1\",\"C\",\"72\"
\"\",\"\",\"approach-retreat\",\"76\",\"734465\",\"0.0-76.0\",\"\",\"\",\"2-1\",\"4340\",\"39\",\"0\",\"Training\",\"Stims/Figures/100-J-10-3.bmp\",\"fa:fa:sha\",\"Left\",\"37\",\"5\",\"9\",\"3A\",\"C1\",\"C\",\"73\"
\"\",\"\",\"approach-retreat\",\"77\",\"739911\",\"0.0-77.0\",\"\",\"\",\"2-1\",\"3932\",\"39\",\"0\",\"Training\",\"Stims/Figures/118-C-20-2.bmp\",\"zahaha\",\"Right\",\"37\",\"5\",\"10\",\"3A\",\"C2\",\"C\",\"74\"
\"\",\"\",\"approach-retreat\",\"78\",\"745597\",\"0.0-78.0\",\"\",\"\",\"2-1\",\"4168\",\"40\",\"1\",\"Training\",\"Stims/Figures/118-J-0-2.bmp\",\"fa:fa:sha\",\"Down\",\"40\",\"5\",\"11\",\"3A\",\"C1\",\"C\",\"75\"
\"\",\"\",\"approach-retreat\",\"79\",\"751957\",\"0.0-79.0\",\"\",\"\",\"2-1\",\"4843\",\"38\",\"0\",\"Training\",\"Stims/Figures/86-J-0-1.bmp\",\"fa:fa:sha\",\"Down\",\"40\",\"5\",\"12\",\"3A\",\"C1\",\"C\",\"76\"
\"\",\"\",\"approach-retreat\",\"80\",\"757752\",\"0.0-80.0\",\"\",\"\",\"2-1\",\"4276\",\"39\",\"1\",\"Training\",\"Stims/Figures/93-C-30-1.bmp\",\"zahaha\",\"Left\",\"39\",\"5\",\"13\",\"3A\",\"C2\",\"C\",\"77\"
\"\",\"\",\"approach-retreat\",\"81\",\"764534\",\"0.0-81.0\",\"\",\"\",\"2-1\",\"5266\",\"38\",\"0\",\"Training\",\"Stims/Figures/102-C-20-4.bmp\",\"zahaha\",\"Up\",\"40\",\"5\",\"14\",\"3A\",\"C2\",\"C\",\"78\"
\"\",\"\",\"approach-retreat\",\"82\",\"770258\",\"0.0-82.0\",\"\",\"\",\"2-1\",\"4212\",\"40\",\"1\",\"Training\",\"Stims/Figures/144-C-30-3.bmp\",\"zahaha\",\"Up\",\"40\",\"5\",\"15\",\"3A\",\"C2\",\"C\",\"79\"
\"\",\"\",\"approach-retreat\",\"83\",\"776426\",\"0.0-83.0\",\"\",\"\",\"2-1\",\"4644\",\"40\",\"1\",\"Training\",\"Stims/Figures/102-J-10-4.bmp\",\"fa:fa:sha\",\"Down\",\"40\",\"5\",\"16\",\"3A\",\"C1\",\"C\",\"80\"
\"\",\"\",\"approach-retreat\",\"84\",\"782166\",\"0.0-84.0\",\"\",\"\",\"2-1\",\"4221\",\"40\",\"1\",\"Training\",\"Stims/Figures/118-J-0-2.bmp\",\"fa:fa:sha\",\"Down\",\"40\",\"6\",\"1\",\"3A\",\"C1\",\"C\",\"81\"
\"\",\"\",\"approach-retreat\",\"85\",\"788056\",\"0.0-85.0\",\"\",\"\",\"2-1\",\"4376\",\"37\",\"0\",\"Training\",\"Stims/Figures/86-C-30-1.bmp\",\"zahaha\",\"Left\",\"39\",\"6\",\"2\",\"3A\",\"C2\",\"C\",\"82\"
\"\",\"\",\"approach-retreat\",\"86\",\"793799\",\"0.0-86.0\",\"\",\"\",\"2-1\",\"4228\",\"39\",\"1\",\"Training\",\"Stims/Figures/86-J-0-1.bmp\",\"fa:fa:sha\",\"Right\",\"39\",\"6\",\"3\",\"3A\",\"C1\",\"C\",\"83\"
\"\",\"\",\"approach-retreat\",\"87\",\"799516\",\"0.0-87.0\",\"\",\"\",\"2-1\",\"4199\",\"39\",\"1\",\"Training\",\"Stims/Figures/118-C-20-2.bmp\",\"zahaha\",\"Left\",\"39\",\"6\",\"4\",\"3A\",\"C2\",\"C\",\"84\"
\"\",\"\",\"approach-retreat\",\"88\",\"805391\",\"0.0-88.0\",\"\",\"\",\"2-1\",\"4361\",\"40\",\"1\",\"Training\",\"Stims/Figures/144-C-30-3.bmp\",\"zahaha\",\"Up\",\"40\",\"6\",\"5\",\"3A\",\"C2\",\"C\",\"85\"
\"\",\"\",\"approach-retreat\",\"89\",\"811776\",\"0.0-89.0\",\"\",\"\",\"2-1\",\"4873\",\"38\",\"1\",\"Training\",\"Stims/Figures/102-J-10-4.bmp\",\"fa:fa:sha\",\"Up\",\"38\",\"6\",\"6\",\"3A\",\"C1\",\"C\",\"86\"
\"\",\"\",\"approach-retreat\",\"90\",\"817340\",\"0.0-90.0\",\"\",\"\",\"2-1\",\"4052\",\"38\",\"1\",\"Training\",\"Stims/Figures/19-J-10-4.bmp\",\"fa:fa:sha\",\"Up\",\"38\",\"6\",\"7\",\"3A\",\"C1\",\"C\",\"87\"
\"\",\"\",\"approach-retreat\",\"91\",\"822992\",\"0.0-91.0\",\"\",\"\",\"2-1\",\"4133\",\"40\",\"0\",\"Training\",\"Stims/Figures/102-C-20-4.bmp\",\"zahaha\",\"Down\",\"38\",\"6\",\"8\",\"3A\",\"C2\",\"C\",\"88\"
\"\",\"\",\"approach-retreat\",\"92\",\"828600\",\"0.0-92.0\",\"\",\"\",\"2-1\",\"4090\",\"39\",\"0\",\"Training\",\"Stims/Figures/100-C-30-3.bmp\",\"zahaha\",\"Right\",\"37\",\"6\",\"9\",\"3A\",\"C2\",\"C\",\"89\"
\"\",\"\",\"approach-retreat\",\"93\",\"834391\",\"0.0-93.0\",\"\",\"\",\"2-1\",\"4277\",\"38\",\"0\",\"Training\",\"Stims/Figures/93-J-0-1.bmp\",\"fa:fa:sha\",\"Down\",\"40\",\"6\",\"10\",\"3A\",\"C1\",\"C\",\"90\"
\"\",\"\",\"approach-retreat\",\"94\",\"840417\",\"0.0-94.0\",\"\",\"\",\"2-1\",\"4513\",\"39\",\"0\",\"Training\",\"Stims/Figures/144-J-10-3.bmp\",\"fa:fa:sha\",\"Left\",\"37\",\"6\",\"11\",\"3A\",\"C1\",\"C\",\"91\"
\"\",\"\",\"approach-retreat\",\"95\",\"846232\",\"0.0-95.0\",\"\",\"\",\"2-1\",\"4297\",\"37\",\"1\",\"Training\",\"Stims/Figures/100-J-10-3.bmp\",\"fa:fa:sha\",\"Left\",\"37\",\"6\",\"12\",\"3A\",\"C1\",\"C\",\"92\"
\"\",\"\",\"approach-retreat\",\"96\",\"852572\",\"0.0-96.0\",\"\",\"\",\"2-1\",\"4819\",\"39\",\"1\",\"Training\",\"Stims/Figures/94-J-0-2.bmp\",\"fa:fa:sha\",\"Right\",\"39\",\"6\",\"13\",\"3A\",\"C1\",\"C\",\"93\"
\"\",\"\",\"approach-retreat\",\"97\",\"858566\",\"0.0-97.0\",\"\",\"\",\"2-1\",\"4474\",\"38\",\"1\",\"Training\",\"Stims/Figures/94-C-20-2.bmp\",\"zahaha\",\"Down\",\"38\",\"6\",\"14\",\"3A\",\"C2\",\"C\",\"94\"
\"\",\"\",\"approach-retreat\",\"98\",\"864958\",\"0.0-98.0\",\"\",\"\",\"2-1\",\"4877\",\"39\",\"0\",\"Training\",\"Stims/Figures/19-C-20-4.bmp\",\"zahaha\",\"Right\",\"37\",\"6\",\"15\",\"3A\",\"C2\",\"C\",\"95\"
\"\",\"\",\"approach-retreat\",\"99\",\"871401\",\"0.0-99.0\",\"\",\"\",\"2-1\",\"4926\",\"38\",\"0\",\"Training\",\"Stims/Figures/93-C-30-1.bmp\",\"zahaha\",\"Up\",\"40\",\"6\",\"16\",\"3A\",\"C2\",\"C\",\"96\"
\"\",\"\",\"approach-retreat\",\"100\",\"877220\",\"0.0-100.0\",\"\",\"\",\"2-1\",\"4305\",\"37\",\"1\",\"Training\",\"Stims/Figures/93-J-0-1.bmp\",\"fa:fa:sha\",\"Left\",\"37\",\"7\",\"1\",\"3A\",\"C1\",\"C\",\"97\"
\"\",\"\",\"approach-retreat\",\"101\",\"883488\",\"0.0-101.0\",\"\",\"\",\"2-1\",\"4762\",\"37\",\"1\",\"Training\",\"Stims/Figures/93-C-30-1.bmp\",\"zahaha\",\"Right\",\"37\",\"7\",\"2\",\"3A\",\"C2\",\"C\",\"98\"
\"\",\"\",\"approach-retreat\",\"102\",\"889216\",\"0.0-102.0\",\"\",\"\",\"2-1\",\"4213\",\"38\",\"1\",\"Training\",\"Stims/Figures/19-C-20-4.bmp\",\"zahaha\",\"Down\",\"38\",\"7\",\"3\",\"3A\",\"C2\",\"C\",\"99\"
\"\",\"\",\"approach-retreat\",\"103\",\"895201\",\"0.0-103.0\",\"\",\"\",\"2-1\",\"4468\",\"39\",\"1\",\"Training\",\"Stims/Figures/19-J-10-4.bmp\",\"fa:fa:sha\",\"Right\",\"39\",\"7\",\"4\",\"3A\",\"C1\",\"C\",\"100\"
\"\",\"\",\"approach-retreat\",\"104\",\"901063\",\"0.0-104.0\",\"\",\"\",\"2-1\",\"4347\",\"37\",\"0\",\"Training\",\"Stims/Figures/86-J-0-1.bmp\",\"fa:fa:sha\",\"Right\",\"39\",\"7\",\"5\",\"3A\",\"C1\",\"C\",\"101\"
\"\",\"\",\"approach-retreat\",\"105\",\"907510\",\"0.0-105.0\",\"\",\"\",\"2-1\",\"4931\",\"39\",\"1\",\"Training\",\"Stims/Figures/118-J-0-2.bmp\",\"fa:fa:sha\",\"Right\",\"39\",\"7\",\"6\",\"3A\",\"C1\",\"C\",\"102\"
\"\",\"\",\"approach-retreat\",\"106\",\"913119\",\"0.0-106.0\",\"\",\"\",\"2-1\",\"4093\",\"38\",\"1\",\"Training\",\"Stims/Figures/102-C-20-4.bmp\",\"zahaha\",\"Down\",\"38\",\"7\",\"7\",\"3A\",\"C2\",\"C\",\"103\"
\"\",\"\",\"approach-retreat\",\"107\",\"918754\",\"0.0-107.0\",\"\",\"\",\"2-1\",\"4121\",\"38\",\"0\",\"Training\",\"Stims/Figures/102-J-10-4.bmp\",\"fa:fa:sha\",\"Down\",\"40\",\"7\",\"8\",\"3A\",\"C1\",\"C\",\"104\"
\"\",\"\",\"approach-retreat\",\"108\",\"924409\",\"0.0-108.0\",\"\",\"\",\"2-1\",\"4136\",\"39\",\"1\",\"Training\",\"Stims/Figures/94-C-20-2.bmp\",\"zahaha\",\"Left\",\"39\",\"7\",\"9\",\"3A\",\"C2\",\"C\",\"105\"
\"\",\"\",\"approach-retreat\",\"109\",\"929859\",\"0.0-109.0\",\"\",\"\",\"2-1\",\"3935\",\"39\",\"1\",\"Training\",\"Stims/Figures/144-C-30-3.bmp\",\"zahaha\",\"Left\",\"39\",\"7\",\"10\",\"3A\",\"C2\",\"C\",\"106\"
\"\",\"\",\"approach-retreat\",\"110\",\"935607\",\"0.0-110.0\",\"\",\"\",\"2-1\",\"4227\",\"40\",\"1\",\"Training\",\"Stims/Figures/86-C-30-1.bmp\",\"zahaha\",\"Up\",\"40\",\"7\",\"11\",\"3A\",\"C2\",\"C\",\"107\"
\"\",\"\",\"approach-retreat\",\"111\",\"941341\",\"0.0-111.0\",\"\",\"\",\"2-1\",\"4217\",\"40\",\"0\",\"Training\",\"Stims/Figures/100-J-10-3.bmp\",\"fa:fa:sha\",\"Up\",\"38\",\"7\",\"12\",\"3A\",\"C1\",\"C\",\"108\"
\"\",\"\",\"approach-retreat\",\"112\",\"947013\",\"0.0-112.0\",\"\",\"\",\"2-1\",\"4159\",\"39\",\"0\",\"Training\",\"Stims/Figures/94-J-0-2.bmp\",\"fa:fa:sha\",\"Left\",\"37\",\"7\",\"13\",\"3A\",\"C1\",\"C\",\"109\"
\"\",\"\",\"approach-retreat\",\"113\",\"952709\",\"0.0-113.0\",\"\",\"\",\"2-1\",\"4183\",\"38\",\"0\",\"Training\",\"Stims/Figures/100-C-30-3.bmp\",\"zahaha\",\"Up\",\"40\",\"7\",\"14\",\"3A\",\"C2\",\"C\",\"110\"
\"\",\"\",\"approach-retreat\",\"114\",\"958333\",\"0.0-114.0\",\"\",\"\",\"2-1\",\"4107\",\"40\",\"1\",\"Training\",\"Stims/Figures/144-J-10-3.bmp\",\"fa:fa:sha\",\"Down\",\"40\",\"7\",\"15\",\"3A\",\"C1\",\"C\",\"111\"
\"\",\"\",\"approach-retreat\",\"115\",\"964417\",\"0.0-115.0\",\"\",\"\",\"2-1\",\"4572\",\"38\",\"0\",\"Training\",\"Stims/Figures/118-C-20-2.bmp\",\"zahaha\",\"Up\",\"40\",\"7\",\"16\",\"3A\",\"C2\",\"C\",\"112\"
\"\",\"\",\"approach-retreat\",\"116\",\"970107\",\"0.0-116.0\",\"\",\"\",\"2-1\",\"4181\",\"38\",\"0\",\"Training\",\"Stims/Figures/100-C-30-3.bmp\",\"zahaha\",\"Up\",\"40\",\"8\",\"1\",\"3A\",\"C2\",\"C\",\"113\"
\"\",\"\",\"approach-retreat\",\"117\",\"975859\",\"0.0-117.0\",\"\",\"\",\"2-1\",\"4238\",\"40\",\"0\",\"Training\",\"Stims/Figures/102-C-20-4.bmp\",\"zahaha\",\"Down\",\"38\",\"8\",\"2\",\"3A\",\"C2\",\"C\",\"114\"
\"\",\"\",\"approach-retreat\",\"118\",\"981624\",\"0.0-118.0\",\"\",\"\",\"2-1\",\"4246\",\"37\",\"1\",\"Training\",\"Stims/Figures/94-C-20-2.bmp\",\"zahaha\",\"Right\",\"37\",\"8\",\"3\",\"3A\",\"C2\",\"C\",\"115\"
\"\",\"\",\"approach-retreat\",\"119\",\"988807\",\"0.0-119.0\",\"\",\"\",\"2-1\",\"5669\",\"37\",\"1\",\"Training\",\"Stims/Figures/100-J-10-3.bmp\",\"fa:fa:sha\",\"Left\",\"37\",\"8\",\"4\",\"3A\",\"C1\",\"C\",\"116\"
\"\",\"\",\"approach-retreat\",\"120\",\"994464\",\"0.0-120.0\",\"\",\"\",\"2-1\",\"4146\",\"40\",\"1\",\"Training\",\"Stims/Figures/144-C-30-3.bmp\",\"zahaha\",\"Up\",\"40\",\"8\",\"5\",\"3A\",\"C2\",\"C\",\"117\"
\"\",\"\",\"approach-retreat\",\"121\",\"1000273\",\"0.0-121.0\",\"\",\"\",\"2-1\",\"4294\",\"37\",\"1\",\"Training\",\"Stims/Figures/118-J-0-2.bmp\",\"fa:fa:sha\",\"Left\",\"37\",\"8\",\"6\",\"3A\",\"C1\",\"C\",\"118\"
\"\",\"\",\"approach-retreat\",\"122\",\"1006228\",\"0.0-122.0\",\"\",\"\",\"2-1\",\"4440\",\"37\",\"1\",\"Training\",\"Stims/Figures/19-C-20-4.bmp\",\"zahaha\",\"Right\",\"37\",\"8\",\"7\",\"3A\",\"C2\",\"C\",\"119\"
\"\",\"\",\"approach-retreat\",\"123\",\"1012480\",\"0.0-123.0\",\"\",\"\",\"2-1\",\"4736\",\"37\",\"1\",\"Training\",\"Stims/Figures/86-J-0-1.bmp\",\"fa:fa:sha\",\"Left\",\"37\",\"8\",\"8\",\"3A\",\"C1\",\"C\",\"120\"
\"\",\"\",\"approach-retreat\",\"124\",\"1018144\",\"0.0-124.0\",\"\",\"\",\"2-1\",\"4142\",\"38\",\"0\",\"Training\",\"Stims/Figures/86-C-30-1.bmp\",\"zahaha\",\"Up\",\"40\",\"8\",\"9\",\"3A\",\"C2\",\"C\",\"121\"
\"\",\"\",\"approach-retreat\",\"125\",\"1023780\",\"0.0-125.0\",\"\",\"\",\"2-1\",\"4122\",\"39\",\"1\",\"Training\",\"Stims/Figures/144-J-10-3.bmp\",\"fa:fa:sha\",\"Right\",\"39\",\"8\",\"10\",\"3A\",\"C1\",\"C\",\"122\"
\"\",\"\",\"approach-retreat\",\"126\",\"1029522\",\"0.0-126.0\",\"\",\"\",\"2-1\",\"4229\",\"40\",\"1\",\"Training\",\"Stims/Figures/93-J-0-1.bmp\",\"fa:fa:sha\",\"Down\",\"40\",\"8\",\"11\",\"3A\",\"C1\",\"C\",\"123\"
\"\",\"\",\"approach-retreat\",\"127\",\"1035372\",\"0.0-127.0\",\"\",\"\",\"2-1\",\"4332\",\"38\",\"1\",\"Training\",\"Stims/Figures/94-J-0-2.bmp\",\"fa:fa:sha\",\"Up\",\"38\",\"8\",\"12\",\"3A\",\"C1\",\"C\",\"124\"
\"\",\"\",\"approach-retreat\",\"128\",\"1041011\",\"0.0-128.0\",\"\",\"\",\"2-1\",\"4126\",\"39\",\"0\",\"Training\",\"Stims/Figures/118-C-20-2.bmp\",\"zahaha\",\"Right\",\"37\",\"8\",\"13\",\"3A\",\"C2\",\"C\",\"125\"
\"\",\"\",\"approach-retreat\",\"129\",\"1048430\",\"0.0-129.0\",\"\",\"\",\"2-1\",\"5907\",\"39\",\"1\",\"Training\",\"Stims/Figures/93-C-30-1.bmp\",\"zahaha\",\"Left\",\"39\",\"8\",\"14\",\"3A\",\"C2\",\"C\",\"126\"
\"\",\"\",\"approach-retreat\",\"130\",\"1054207\",\"0.0-130.0\",\"\",\"\",\"2-1\",\"4257\",\"40\",\"1\",\"Training\",\"Stims/Figures/19-J-10-4.bmp\",\"fa:fa:sha\",\"Down\",\"40\",\"8\",\"15\",\"3A\",\"C1\",\"C\",\"127\"
\"\",\"\",\"approach-retreat\",\"131\",\"1060709\",\"0.0-131.0\",\"\",\"\",\"2-1\",\"4987\",\"38\",\"0\",\"Training\",\"Stims/Figures/102-J-10-4.bmp\",\"fa:fa:sha\",\"Down\",\"40\",\"8\",\"16\",\"3A\",\"C1\",\"C\",\"128\"
\"\",\"\",\"approach-retreat\",\"132\",\"1067594\",\"0.0-132.0\",\"\",\"\",\"2-1\",\"5372\",\"38\",\"0\",\"Training\",\"Stims/Figures/100-C-30-3.bmp\",\"zahaha\",\"Up\",\"40\",\"9\",\"1\",\"3A\",\"C2\",\"C\",\"129\"
\"\",\"\",\"approach-retreat\",\"133\",\"1073207\",\"0.0-133.0\",\"\",\"\",\"2-1\",\"4100\",\"38\",\"1\",\"Training\",\"Stims/Figures/118-C-20-2.bmp\",\"zahaha\",\"Down\",\"38\",\"9\",\"2\",\"3A\",\"C2\",\"C\",\"130\"
\"\",\"\",\"approach-retreat\",\"134\",\"1079007\",\"0.0-134.0\",\"\",\"\",\"2-1\",\"4282\",\"40\",\"1\",\"Training\",\"Stims/Figures/94-J-0-2.bmp\",\"fa:fa:sha\",\"Down\",\"40\",\"9\",\"3\",\"3A\",\"C1\",\"C\",\"131\"
\"\",\"\",\"approach-retreat\",\"135\",\"1084529\",\"0.0-135.0\",\"\",\"\",\"2-1\",\"4006\",\"40\",\"1\",\"Training\",\"Stims/Figures/86-J-0-1.bmp\",\"fa:fa:sha\",\"Down\",\"40\",\"9\",\"4\",\"3A\",\"C1\",\"C\",\"132\"
\"\",\"\",\"approach-retreat\",\"136\",\"1091141\",\"0.0-136.0\",\"\",\"\",\"2-1\",\"5096\",\"37\",\"1\",\"Training\",\"Stims/Figures/93-J-0-1.bmp\",\"fa:fa:sha\",\"Left\",\"37\",\"9\",\"5\",\"3A\",\"C1\",\"C\",\"133\"
\"\",\"\",\"approach-retreat\",\"137\",\"1096731\",\"0.0-137.0\",\"\",\"\",\"2-1\",\"4071\",\"37\",\"1\",\"Training\",\"Stims/Figures/100-J-10-3.bmp\",\"fa:fa:sha\",\"Left\",\"37\",\"9\",\"6\",\"3A\",\"C1\",\"C\",\"134\"
\"\",\"\",\"approach-retreat\",\"138\",\"1102364\",\"0.0-138.0\",\"\",\"\",\"2-1\",\"4116\",\"40\",\"0\",\"Training\",\"Stims/Figures/19-J-10-4.bmp\",\"fa:fa:sha\",\"Up\",\"38\",\"9\",\"7\",\"3A\",\"C1\",\"C\",\"135\"
\"\",\"\",\"approach-retreat\",\"139\",\"1108056\",\"0.0-139.0\",\"\",\"\",\"2-1\",\"4174\",\"37\",\"0\",\"Training\",\"Stims/Figures/86-C-30-1.bmp\",\"zahaha\",\"Left\",\"39\",\"9\",\"8\",\"3A\",\"C2\",\"C\",\"136\"
\"\",\"\",\"approach-retreat\",\"140\",\"1113859\",\"0.0-140.0\",\"\",\"\",\"2-1\",\"4284\",\"38\",\"0\",\"Training\",\"Stims/Figures/102-J-10-4.bmp\",\"fa:fa:sha\",\"Down\",\"40\",\"9\",\"9\",\"3A\",\"C1\",\"C\",\"137\"
\"\",\"\",\"approach-retreat\",\"141\",\"1120731\",\"0.0-141.0\",\"\",\"\",\"2-1\",\"5358\",\"37\",\"0\",\"Training\",\"Stims/Figures/144-J-10-3.bmp\",\"fa:fa:sha\",\"Right\",\"39\",\"9\",\"10\",\"3A\",\"C1\",\"C\",\"138\"
\"\",\"\",\"approach-retreat\",\"142\",\"1126811\",\"0.0-142.0\",\"\",\"\",\"2-1\",\"4563\",\"37\",\"1\",\"Training\",\"Stims/Figures/102-C-20-4.bmp\",\"zahaha\",\"Right\",\"37\",\"9\",\"11\",\"3A\",\"C2\",\"C\",\"139\"
\"\",\"\",\"approach-retreat\",\"143\",\"1132540\",\"0.0-143.0\",\"\",\"\",\"2-1\",\"4214\",\"37\",\"1\",\"Training\",\"Stims/Figures/19-C-20-4.bmp\",\"zahaha\",\"Right\",\"37\",\"9\",\"12\",\"3A\",\"C2\",\"C\",\"140\"
\"\",\"\",\"approach-retreat\",\"144\",\"1138308\",\"0.0-144.0\",\"\",\"\",\"2-1\",\"4253\",\"40\",\"0\",\"Training\",\"Stims/Figures/118-J-0-2.bmp\",\"fa:fa:sha\",\"Up\",\"38\",\"9\",\"13\",\"3A\",\"C1\",\"C\",\"141\"
\"\",\"\",\"approach-retreat\",\"145\",\"1156745\",\"0.0-145.0\",\"\",\"\",\"2-1\",\"16921\",\"39\",\"0\",\"Training\",\"Stims/Figures/93-C-30-1.bmp\",\"zahaha\",\"Right\",\"37\",\"9\",\"14\",\"3A\",\"C2\",\"C\",\"142\"
\"\",\"\",\"approach-retreat\",\"146\",\"1162377\",\"0.0-146.0\",\"\",\"\",\"2-1\",\"4117\",\"37\",\"0\",\"Training\",\"Stims/Figures/144-C-30-3.bmp\",\"zahaha\",\"Left\",\"39\",\"9\",\"15\",\"3A\",\"C2\",\"C\",\"143\"
\"\",\"\",\"approach-retreat\",\"147\",\"1168846\",\"0.0-147.0\",\"\",\"\",\"2-1\",\"4950\",\"38\",\"0\",\"Training\",\"Stims/Figures/94-C-20-2.bmp\",\"zahaha\",\"Up\",\"40\",\"9\",\"16\",\"3A\",\"C2\",\"C\",\"144\"
\"31170\",\"\",\"instructions\",\"148\",\"1200017\",\"0.0-148.0\",\"[{\"\"page_index\"\":0,\"\"viewing_time\"\":31169}]\",\"\",\"\",\"\",\"\",\"\",\"\",\"\",\"\",\"\",\"\",\"\",\"\",\"\",\"\",\"\",\"\"
\"\",\"\",\"approach-retreat\",\"149\",\"1208991\",\"0.0-149.0\",\"\",\"\",\"2-1\",\"7465\",\"40\",\"1\",\"Testing\",\"Stims/Figures/74-J-10-4.bmp\",\"fa:fa:sha\",\"Down\",\"40\",\"1\",\"1\",\"3A\",\"C1\",\"C\",\"1\"
\"\",\"\",\"approach-retreat\",\"150\",\"1214871\",\"0.0-150.0\",\"\",\"\",\"2-1\",\"4363\",\"40\",\"1\",\"Testing\",\"Stims/Figures/100-J-10-3.bmp\",\"fa:fa:sha\",\"Down\",\"40\",\"1\",\"2\",\"3A\",\"C1\",\"C\",\"2\"
\"\",\"\",\"approach-retreat\",\"151\",\"1222501\",\"0.0-151.0\",\"\",\"\",\"2-1\",\"6119\",\"40\",\"0\",\"Testing\",\"Stims/Figures/44-J-10-3.bmp\",\"fa:fa:sha\",\"Up\",\"38\",\"1\",\"3\",\"3A\",\"C1\",\"C\",\"3\"
\"\",\"\",\"approach-retreat\",\"152\",\"1228326\",\"0.0-152.0\",\"\",\"\",\"2-1\",\"4311\",\"39\",\"0\",\"Testing\",\"Stims/Figures/118-J-0-2.bmp\",\"fa:fa:sha\",\"Left\",\"37\",\"1\",\"4\",\"3A\",\"C1\",\"C\",\"4\"
\"\",\"\",\"approach-retreat\",\"153\",\"1234018\",\"0.0-153.0\",\"\",\"\",\"2-1\",\"4181\",\"37\",\"0\",\"Testing\",\"Stims/Figures/86-C-30-1.bmp\",\"zahaha\",\"Left\",\"39\",\"1\",\"5\",\"3A\",\"C2\",\"C\",\"5\"
\"\",\"\",\"approach-retreat\",\"154\",\"1239546\",\"0.0-154.0\",\"\",\"\",\"2-1\",\"4011\",\"37\",\"0\",\"Testing\",\"Stims/Figures/71-C-30-1.bmp\",\"zahaha\",\"Left\",\"39\",\"1\",\"6\",\"3A\",\"C2\",\"C\",\"6\"
\"\",\"\",\"approach-retreat\",\"155\",\"1245163\",\"0.0-155.0\",\"\",\"\",\"2-1\",\"4105\",\"39\",\"0\",\"Testing\",\"Stims/Figures/19-C-20-4.bmp\",\"zahaha\",\"Right\",\"37\",\"1\",\"7\",\"3A\",\"C2\",\"C\",\"7\"
\"\",\"\",\"approach-retreat\",\"156\",\"1251458\",\"0.0-156.0\",\"\",\"\",\"2-1\",\"4783\",\"40\",\"1\",\"Testing\",\"Stims/Figures/44-C-30-3.bmp\",\"zahaha\",\"Up\",\"40\",\"1\",\"8\",\"3A\",\"C2\",\"C\",\"8\"
\"\",\"\",\"approach-retreat\",\"157\",\"1257443\",\"0.0-157.0\",\"\",\"\",\"2-1\",\"4465\",\"40\",\"1\",\"Testing\",\"Stims/Figures/93-J-0-1.bmp\",\"fa:fa:sha\",\"Down\",\"40\",\"1\",\"9\",\"3A\",\"C1\",\"C\",\"9\"
\"\",\"\",\"approach-retreat\",\"158\",\"1263111\",\"0.0-158.0\",\"\",\"\",\"2-1\",\"4150\",\"37\",\"0\",\"Testing\",\"Stims/Figures/84-C-20-2.bmp\",\"zahaha\",\"Left\",\"39\",\"1\",\"10\",\"3A\",\"C2\",\"C\",\"10\"
\"\",\"\",\"approach-retreat\",\"159\",\"1268729\",\"0.0-159.0\",\"\",\"\",\"2-1\",\"4098\",\"40\",\"0\",\"Testing\",\"Stims/Figures/93-C-30-1.bmp\",\"zahaha\",\"Down\",\"38\",\"1\",\"11\",\"3A\",\"C2\",\"C\",\"11\"
\"\",\"\",\"approach-retreat\",\"160\",\"1274636\",\"0.0-160.0\",\"\",\"\",\"2-1\",\"4391\",\"40\",\"1\",\"Testing\",\"Stims/Figures/102-C-20-4.bmp\",\"zahaha\",\"Up\",\"40\",\"1\",\"12\",\"3A\",\"C2\",\"C\",\"12\"
\"\",\"\",\"approach-retreat\",\"161\",\"1280301\",\"0.0-161.0\",\"\",\"\",\"2-1\",\"4155\",\"37\",\"1\",\"Testing\",\"Stims/Figures/71-J-0-1.bmp\",\"fa:fa:sha\",\"Left\",\"37\",\"1\",\"13\",\"3A\",\"C1\",\"C\",\"13\"
\"\",\"\",\"approach-retreat\",\"162\",\"1310725\",\"0.0-162.0\",\"\",\"\",\"2-1\",\"28915\",\"37\",\"0\",\"Testing\",\"Stims/Figures/94-J-0-2.bmp\",\"fa:fa:sha\",\"Right\",\"39\",\"1\",\"14\",\"3A\",\"C1\",\"C\",\"14\"
\"\",\"\",\"approach-retreat\",\"163\",\"1316565\",\"0.0-163.0\",\"\",\"\",\"2-1\",\"4328\",\"38\",\"0\",\"Testing\",\"Stims/Figures/94-C-20-2.bmp\",\"zahaha\",\"Up\",\"40\",\"1\",\"15\",\"3A\",\"C2\",\"C\",\"15\"
\"\",\"\",\"approach-retreat\",\"164\",\"1322413\",\"0.0-164.0\",\"\",\"\",\"2-1\",\"4329\",\"39\",\"1\",\"Testing\",\"Stims/Figures/102-J-10-4.bmp\",\"fa:fa:sha\",\"Right\",\"39\",\"1\",\"16\",\"3A\",\"C1\",\"C\",\"16\"
\"\",\"\",\"approach-retreat\",\"165\",\"1328063\",\"0.0-165.0\",\"\",\"\",\"2-1\",\"4126\",\"40\",\"0\",\"Testing\",\"Stims/Figures/74-C-20-4.bmp\",\"zahaha\",\"Down\",\"38\",\"1\",\"17\",\"3A\",\"C2\",\"C\",\"17\"
\"\",\"\",\"approach-retreat\",\"166\",\"1333610\",\"0.0-166.0\",\"\",\"\",\"2-1\",\"4036\",\"39\",\"1\",\"Testing\",\"Stims/Figures/84-J-0-2.bmp\",\"fa:fa:sha\",\"Right\",\"39\",\"1\",\"18\",\"3A\",\"C1\",\"C\",\"18\"
\"\",\"\",\"approach-retreat\",\"167\",\"1339200\",\"0.0-167.0\",\"\",\"\",\"2-1\",\"4071\",\"39\",\"1\",\"Testing\",\"Stims/Figures/19-J-10-4.bmp\",\"fa:fa:sha\",\"Right\",\"39\",\"1\",\"19\",\"3A\",\"C1\",\"C\",\"19\"
\"\",\"\",\"approach-retreat\",\"168\",\"1345194\",\"0.0-168.0\",\"\",\"\",\"2-1\",\"4484\",\"38\",\"0\",\"Testing\",\"Stims/Figures/144-C-30-3.bmp\",\"zahaha\",\"Up\",\"40\",\"1\",\"20\",\"3A\",\"C2\",\"C\",\"20\"
\"\",\"\",\"approach-retreat\",\"169\",\"1352088\",\"0.0-169.0\",\"\",\"\",\"2-1\",\"5387\",\"37\",\"0\",\"Testing\",\"Stims/Figures/118-C-20-2.bmp\",\"zahaha\",\"Left\",\"39\",\"1\",\"21\",\"3A\",\"C2\",\"C\",\"21\"
\"\",\"\",\"approach-retreat\",\"170\",\"1357667\",\"0.0-170.0\",\"\",\"\",\"2-1\",\"4066\",\"39\",\"1\",\"Testing\",\"Stims/Figures/86-J-0-1.bmp\",\"fa:fa:sha\",\"Right\",\"39\",\"1\",\"22\",\"3A\",\"C1\",\"C\",\"22\"
\"\",\"\",\"approach-retreat\",\"171\",\"1363402\",\"0.0-171.0\",\"\",\"\",\"2-1\",\"4221\",\"40\",\"0\",\"Testing\",\"Stims/Figures/100-C-30-3.bmp\",\"zahaha\",\"Down\",\"38\",\"1\",\"23\",\"3A\",\"C2\",\"C\",\"23\"
\"\",\"\",\"approach-retreat\",\"172\",\"1368952\",\"0.0-172.0\",\"\",\"\",\"2-1\",\"4041\",\"38\",\"1\",\"Testing\",\"Stims/Figures/144-J-10-3.bmp\",\"fa:fa:sha\",\"Up\",\"38\",\"1\",\"24\",\"3A\",\"C1\",\"C\",\"24\"
\"\",\"\",\"approach-retreat\",\"173\",\"1374407\",\"0.0-173.0\",\"\",\"\",\"2-1\",\"3940\",\"38\",\"0\",\"Testing\",\"Stims/Figures/100-C-30-3.bmp\",\"zahaha\",\"Up\",\"40\",\"2\",\"1\",\"3A\",\"C2\",\"C\",\"25\"
\"\",\"\",\"approach-retreat\",\"174\",\"1380632\",\"0.0-174.0\",\"\",\"\",\"2-1\",\"4697\",\"39\",\"1\",\"Testing\",\"Stims/Figures/84-C-20-2.bmp\",\"zahaha\",\"Left\",\"39\",\"2\",\"2\",\"3A\",\"C2\",\"C\",\"26\"
\"\",\"\",\"approach-retreat\",\"175\",\"1386737\",\"0.0-175.0\",\"\",\"\",\"2-1\",\"4595\",\"37\",\"1\",\"Testing\",\"Stims/Figures/93-C-30-1.bmp\",\"zahaha\",\"Right\",\"37\",\"2\",\"3\",\"3A\",\"C2\",\"C\",\"27\"
\"\",\"\",\"approach-retreat\",\"176\",\"1392397\",\"0.0-176.0\",\"\",\"\",\"2-1\",\"4150\",\"40\",\"0\",\"Testing\",\"Stims/Figures/144-C-30-3.bmp\",\"zahaha\",\"Down\",\"38\",\"2\",\"4\",\"3A\",\"C2\",\"C\",\"28\"
\"\",\"\",\"approach-retreat\",\"177\",\"1399907\",\"0.0-177.0\",\"\",\"\",\"2-1\",\"5994\",\"40\",\"1\",\"Testing\",\"Stims/Figures/74-C-20-4.bmp\",\"zahaha\",\"Up\",\"40\",\"2\",\"5\",\"3A\",\"C2\",\"C\",\"29\"
\"\",\"\",\"approach-retreat\",\"178\",\"1405862\",\"0.0-178.0\",\"\",\"\",\"2-1\",\"4438\",\"38\",\"1\",\"Testing\",\"Stims/Figures/71-J-0-1.bmp\",\"fa:fa:sha\",\"Up\",\"38\",\"2\",\"6\",\"3A\",\"C1\",\"C\",\"30\"
\"\",\"\",\"approach-retreat\",\"179\",\"1411619\",\"0.0-179.0\",\"\",\"\",\"2-1\",\"4244\",\"37\",\"1\",\"Testing\",\"Stims/Figures/100-J-10-3.bmp\",\"fa:fa:sha\",\"Left\",\"37\",\"2\",\"7\",\"3A\",\"C1\",\"C\",\"31\"
\"\",\"\",\"approach-retreat\",\"180\",\"1418559\",\"0.0-180.0\",\"\",\"\",\"2-1\",\"5425\",\"37\",\"1\",\"Testing\",\"Stims/Figures/94-C-20-2.bmp\",\"zahaha\",\"Right\",\"37\",\"2\",\"8\",\"3A\",\"C2\",\"C\",\"32\"
\"\",\"\",\"approach-retreat\",\"181\",\"1432029\",\"0.0-181.0\",\"\",\"\",\"2-1\",\"11960\",\"40\",\"0\",\"Testing\",\"Stims/Figures/102-J-10-4.bmp\",\"fa:fa:sha\",\"Up\",\"38\",\"2\",\"9\",\"3A\",\"C1\",\"C\",\"33\"
\"\",\"\",\"approach-retreat\",\"182\",\"1438691\",\"0.0-182.0\",\"\",\"\",\"2-1\",\"5148\",\"40\",\"0\",\"Testing\",\"Stims/Figures/86-C-30-1.bmp\",\"zahaha\",\"Down\",\"38\",\"2\",\"10\",\"3A\",\"C2\",\"C\",\"34\"
\"\",\"\",\"approach-retreat\",\"183\",\"1444321\",\"0.0-183.0\",\"\",\"\",\"2-1\",\"4119\",\"39\",\"1\",\"Testing\",\"Stims/Figures/44-C-30-3.bmp\",\"zahaha\",\"Left\",\"39\",\"2\",\"11\",\"3A\",\"C2\",\"C\",\"35\"
\"\",\"\",\"approach-retreat\",\"184\",\"1458242\",\"0.0-184.0\",\"\",\"\",\"2-1\",\"12409\",\"39\",\"1\",\"Testing\",\"Stims/Figures/84-J-0-2.bmp\",\"fa:fa:sha\",\"Right\",\"39\",\"2\",\"12\",\"3A\",\"C1\",\"C\",\"36\"
\"\",\"\",\"approach-retreat\",\"185\",\"1465663\",\"0.0-185.0\",\"\",\"\",\"2-1\",\"5908\",\"37\",\"1\",\"Testing\",\"Stims/Figures/118-J-0-2.bmp\",\"fa:fa:sha\",\"Left\",\"37\",\"2\",\"13\",\"3A\",\"C1\",\"C\",\"37\"
\"\",\"\",\"approach-retreat\",\"186\",\"1471467\",\"0.0-186.0\",\"\",\"\",\"2-1\",\"4294\",\"40\",\"1\",\"Testing\",\"Stims/Figures/74-J-10-4.bmp\",\"fa:fa:sha\",\"Down\",\"40\",\"2\",\"14\",\"3A\",\"C1\",\"C\",\"38\"
\"\",\"\",\"approach-retreat\",\"187\",\"1477912\",\"0.0-187.0\",\"\",\"\",\"2-1\",\"4930\",\"40\",\"0\",\"Testing\",\"Stims/Figures/86-J-0-1.bmp\",\"fa:fa:sha\",\"Up\",\"38\",\"2\",\"15\",\"3A\",\"C1\",\"C\",\"39\"
\"\",\"\",\"approach-retreat\",\"188\",\"1484450\",\"0.0-188.0\",\"\",\"\",\"2-1\",\"5021\",\"40\",\"0\",\"Testing\",\"Stims/Figures/19-C-20-4.bmp\",\"zahaha\",\"Down\",\"38\",\"2\",\"16\",\"3A\",\"C2\",\"C\",\"40\"
\"\",\"\",\"approach-retreat\",\"189\",\"1493192\",\"0.0-189.0\",\"\",\"\",\"2-1\",\"7226\",\"40\",\"1\",\"Testing\",\"Stims/Figures/144-J-10-3.bmp\",\"fa:fa:sha\",\"Down\",\"40\",\"2\",\"17\",\"3A\",\"C1\",\"C\",\"41\"
\"\",\"\",\"approach-retreat\",\"190\",\"1499882\",\"0.0-190.0\",\"\",\"\",\"2-1\",\"5174\",\"39\",\"1\",\"Testing\",\"Stims/Figures/94-J-0-2.bmp\",\"fa:fa:sha\",\"Right\",\"39\",\"2\",\"18\",\"3A\",\"C1\",\"C\",\"42\"
\"\",\"\",\"approach-retreat\",\"191\",\"1505602\",\"0.0-191.0\",\"\",\"\",\"2-1\",\"4207\",\"39\",\"0\",\"Testing\",\"Stims/Figures/118-C-20-2.bmp\",\"zahaha\",\"Right\",\"37\",\"2\",\"19\",\"3A\",\"C2\",\"C\",\"43\"
\"\",\"\",\"approach-retreat\",\"192\",\"1519043\",\"0.0-192.0\",\"\",\"\",\"2-1\",\"11928\",\"37\",\"0\",\"Testing\",\"Stims/Figures/102-C-20-4.bmp\",\"zahaha\",\"Left\",\"39\",\"2\",\"20\",\"3A\",\"C2\",\"C\",\"44\"
\"\",\"\",\"approach-retreat\",\"193\",\"1526896\",\"0.0-193.0\",\"\",\"\",\"2-1\",\"6336\",\"38\",\"0\",\"Testing\",\"Stims/Figures/71-C-30-1.bmp\",\"zahaha\",\"Up\",\"40\",\"2\",\"21\",\"3A\",\"C2\",\"C\",\"45\"
\"\",\"\",\"approach-retreat\",\"194\",\"1533034\",\"0.0-194.0\",\"\",\"\",\"2-1\",\"4627\",\"37\",\"0\",\"Testing\",\"Stims/Figures/93-J-0-1.bmp\",\"fa:fa:sha\",\"Right\",\"39\",\"2\",\"22\",\"3A\",\"C1\",\"C\",\"46\"
\"\",\"\",\"approach-retreat\",\"195\",\"1541701\",\"0.0-195.0\",\"\",\"\",\"2-1\",\"7156\",\"39\",\"0\",\"Testing\",\"Stims/Figures/44-J-10-3.bmp\",\"fa:fa:sha\",\"Left\",\"37\",\"2\",\"23\",\"3A\",\"C1\",\"C\",\"47\"
\"\",\"\",\"approach-retreat\",\"196\",\"1548025\",\"0.0-196.0\",\"\",\"\",\"2-1\",\"4808\",\"40\",\"1\",\"Testing\",\"Stims/Figures/19-J-10-4.bmp\",\"fa:fa:sha\",\"Down\",\"40\",\"2\",\"24\",\"3A\",\"C1\",\"C\",\"48\"
\"\",\"\",\"approach-retreat\",\"197\",\"1553616\",\"0.0-197.0\",\"\",\"\",\"2-1\",\"4077\",\"38\",\"0\",\"Testing\",\"Stims/Figures/44-J-10-3.bmp\",\"fa:fa:sha\",\"Down\",\"40\",\"3\",\"1\",\"3A\",\"C1\",\"C\",\"49\"
\"\",\"\",\"approach-retreat\",\"198\",\"1559240\",\"0.0-198.0\",\"\",\"\",\"2-1\",\"4114\",\"39\",\"0\",\"Testing\",\"Stims/Figures/86-C-30-1.bmp\",\"zahaha\",\"Right\",\"37\",\"3\",\"2\",\"3A\",\"C2\",\"C\",\"50\"
\"\",\"\",\"approach-retreat\",\"199\",\"1564975\",\"0.0-199.0\",\"\",\"\",\"2-1\",\"4216\",\"38\",\"1\",\"Testing\",\"Stims/Figures/118-J-0-2.bmp\",\"fa:fa:sha\",\"Up\",\"38\",\"3\",\"3\",\"3A\",\"C1\",\"C\",\"51\"
\"\",\"\",\"approach-retreat\",\"200\",\"1570774\",\"0.0-200.0\",\"\",\"\",\"2-1\",\"4288\",\"37\",\"1\",\"Testing\",\"Stims/Figures/86-J-0-1.bmp\",\"fa:fa:sha\",\"Left\",\"37\",\"3\",\"4\",\"3A\",\"C1\",\"C\",\"52\"
\"\",\"\",\"approach-retreat\",\"201\",\"1576496\",\"0.0-201.0\",\"\",\"\",\"2-1\",\"4205\",\"40\",\"1\",\"Testing\",\"Stims/Figures/93-J-0-1.bmp\",\"fa:fa:sha\",\"Down\",\"40\",\"3\",\"5\",\"3A\",\"C1\",\"C\",\"53\"
\"\",\"\",\"approach-retreat\",\"202\",\"1582995\",\"0.0-202.0\",\"\",\"\",\"2-1\",\"4983\",\"38\",\"1\",\"Testing\",\"Stims/Figures/84-J-0-2.bmp\",\"fa:fa:sha\",\"Up\",\"38\",\"3\",\"6\",\"3A\",\"C1\",\"C\",\"54\"
\"\",\"\",\"approach-retreat\",\"203\",\"1588693\",\"0.0-203.0\",\"\",\"\",\"2-1\",\"4181\",\"37\",\"1\",\"Testing\",\"Stims/Figures/74-J-10-4.bmp\",\"fa:fa:sha\",\"Left\",\"37\",\"3\",\"7\",\"3A\",\"C1\",\"C\",\"55\"
\"\",\"\",\"approach-retreat\",\"204\",\"1595433\",\"0.0-204.0\",\"\",\"\",\"2-1\",\"5223\",\"39\",\"0\",\"Testing\",\"Stims/Figures/102-C-20-4.bmp\",\"zahaha\",\"Right\",\"37\",\"3\",\"8\",\"3A\",\"C2\",\"C\",\"56\"
\"\",\"\",\"approach-retreat\",\"205\",\"1600990\",\"0.0-205.0\",\"\",\"\",\"2-1\",\"4047\",\"39\",\"1\",\"Testing\",\"Stims/Figures/102-J-10-4.bmp\",\"fa:fa:sha\",\"Right\",\"39\",\"3\",\"9\",\"3A\",\"C1\",\"C\",\"57\"
\"\",\"\",\"approach-retreat\",\"206\",\"1608555\",\"0.0-206.0\",\"\",\"\",\"2-1\",\"6054\",\"37\",\"1\",\"Testing\",\"Stims/Figures/100-J-10-3.bmp\",\"fa:fa:sha\",\"Left\",\"37\",\"3\",\"10\",\"3A\",\"C1\",\"C\",\"58\"
\"\",\"\",\"approach-retreat\",\"207\",\"1614283\",\"0.0-207.0\",\"\",\"\",\"2-1\",\"4217\",\"40\",\"1\",\"Testing\",\"Stims/Figures/144-J-10-3.bmp\",\"fa:fa:sha\",\"Down\",\"40\",\"3\",\"11\",\"3A\",\"C1\",\"C\",\"59\"
\"\",\"\",\"approach-retreat\",\"208\",\"1619764\",\"0.0-208.0\",\"\",\"\",\"2-1\",\"3968\",\"37\",\"1\",\"Testing\",\"Stims/Figures/84-C-20-2.bmp\",\"zahaha\",\"Right\",\"37\",\"3\",\"12\",\"3A\",\"C2\",\"C\",\"60\"
\"\",\"\",\"approach-retreat\",\"209\",\"1625529\",\"0.0-209.0\",\"\",\"\",\"2-1\",\"4247\",\"40\",\"1\",\"Testing\",\"Stims/Figures/93-C-30-1.bmp\",\"zahaha\",\"Up\",\"40\",\"3\",\"13\",\"3A\",\"C2\",\"C\",\"61\"
\"\",\"\",\"approach-retreat\",\"210\",\"1631519\",\"0.0-210.0\",\"\",\"\",\"2-1\",\"4479\",\"37\",\"1\",\"Testing\",\"Stims/Figures/71-C-30-1.bmp\",\"zahaha\",\"Right\",\"37\",\"3\",\"14\",\"3A\",\"C2\",\"C\",\"62\"
\"\",\"\",\"approach-retreat\",\"211\",\"1637339\",\"0.0-211.0\",\"\",\"\",\"2-1\",\"4302\",\"37\",\"1\",\"Testing\",\"Stims/Figures/94-J-0-2.bmp\",\"fa:fa:sha\",\"Left\",\"37\",\"3\",\"15\",\"3A\",\"C1\",\"C\",\"63\"
\"\",\"\",\"approach-retreat\",\"212\",\"1643266\",\"0.0-212.0\",\"\",\"\",\"2-1\",\"4418\",\"40\",\"0\",\"Testing\",\"Stims/Figures/19-J-10-4.bmp\",\"fa:fa:sha\",\"Up\",\"38\",\"3\",\"16\",\"3A\",\"C1\",\"C\",\"64\"
\"\",\"\",\"approach-retreat\",\"213\",\"1649281\",\"0.0-213.0\",\"\",\"\",\"2-1\",\"4499\",\"37\",\"1\",\"Testing\",\"Stims/Figures/100-C-30-3.bmp\",\"zahaha\",\"Right\",\"37\",\"3\",\"17\",\"3A\",\"C2\",\"C\",\"65\"
\"\",\"\",\"approach-retreat\",\"214\",\"1655593\",\"0.0-214.0\",\"\",\"\",\"2-1\",\"4798\",\"40\",\"1\",\"Testing\",\"Stims/Figures/144-C-30-3.bmp\",\"zahaha\",\"Up\",\"40\",\"3\",\"18\",\"3A\",\"C2\",\"C\",\"66\"
\"\",\"\",\"approach-retreat\",\"215\",\"1661280\",\"0.0-215.0\",\"\",\"\",\"2-1\",\"4171\",\"37\",\"1\",\"Testing\",\"Stims/Figures/71-J-0-1.bmp\",\"fa:fa:sha\",\"Left\",\"37\",\"3\",\"19\",\"3A\",\"C1\",\"C\",\"67\"
\"\",\"\",\"approach-retreat\",\"216\",\"1667180\",\"0.0-216.0\",\"\",\"\",\"2-1\",\"4387\",\"38\",\"1\",\"Testing\",\"Stims/Figures/19-C-20-4.bmp\",\"zahaha\",\"Down\",\"38\",\"3\",\"20\",\"3A\",\"C2\",\"C\",\"68\"
\"\",\"\",\"approach-retreat\",\"217\",\"1675043\",\"0.0-217.0\",\"\",\"\",\"2-1\",\"6352\",\"38\",\"1\",\"Testing\",\"Stims/Figures/94-C-20-2.bmp\",\"zahaha\",\"Down\",\"38\",\"3\",\"21\",\"3A\",\"C2\",\"C\",\"69\"
\"\",\"\",\"approach-retreat\",\"218\",\"1680680\",\"0.0-218.0\",\"\",\"\",\"2-1\",\"4128\",\"38\",\"1\",\"Testing\",\"Stims/Figures/118-C-20-2.bmp\",\"zahaha\",\"Down\",\"38\",\"3\",\"22\",\"3A\",\"C2\",\"C\",\"70\"
\"\",\"\",\"approach-retreat\",\"219\",\"1686540\",\"0.0-219.0\",\"\",\"\",\"2-1\",\"4343\",\"39\",\"1\",\"Testing\",\"Stims/Figures/74-C-20-4.bmp\",\"zahaha\",\"Left\",\"39\",\"3\",\"23\",\"3A\",\"C2\",\"C\",\"71\"
\"\",\"\",\"approach-retreat\",\"220\",\"1692327\",\"0.0-220.0\",\"\",\"\",\"2-1\",\"4279\",\"40\",\"1\",\"Testing\",\"Stims/Figures/44-C-30-3.bmp\",\"zahaha\",\"Up\",\"40\",\"3\",\"24\",\"3A\",\"C2\",\"C\",\"72\"
\"\",\"\",\"approach-retreat\",\"221\",\"1697895\",\"0.0-221.0\",\"\",\"\",\"2-1\",\"4057\",\"37\",\"1\",\"Testing\",\"Stims/Figures/102-C-20-4.bmp\",\"zahaha\",\"Right\",\"37\",\"4\",\"1\",\"3A\",\"C2\",\"C\",\"73\"
\"\",\"\",\"approach-retreat\",\"222\",\"1703635\",\"0.0-222.0\",\"\",\"\",\"2-1\",\"4232\",\"39\",\"1\",\"Testing\",\"Stims/Figures/144-J-10-3.bmp\",\"fa:fa:sha\",\"Right\",\"39\",\"4\",\"2\",\"3A\",\"C1\",\"C\",\"74\"
\"\",\"\",\"approach-retreat\",\"223\",\"1709569\",\"0.0-223.0\",\"\",\"\",\"2-1\",\"4417\",\"39\",\"1\",\"Testing\",\"Stims/Figures/118-C-20-2.bmp\",\"zahaha\",\"Left\",\"39\",\"4\",\"3\",\"3A\",\"C2\",\"C\",\"75\"
\"\",\"\",\"approach-retreat\",\"224\",\"1715227\",\"0.0-224.0\",\"\",\"\",\"2-1\",\"4146\",\"39\",\"0\",\"Testing\",\"Stims/Figures/144-C-30-3.bmp\",\"zahaha\",\"Right\",\"37\",\"4\",\"4\",\"3A\",\"C2\",\"C\",\"76\"
\"\",\"\",\"approach-retreat\",\"225\",\"1720976\",\"0.0-225.0\",\"\",\"\",\"2-1\",\"4232\",\"40\",\"1\",\"Testing\",\"Stims/Figures/93-C-30-1.bmp\",\"zahaha\",\"Up\",\"40\",\"4\",\"5\",\"3A\",\"C2\",\"C\",\"77\"
\"\",\"\",\"approach-retreat\",\"226\",\"1726848\",\"0.0-226.0\",\"\",\"\",\"2-1\",\"4363\",\"38\",\"0\",\"Testing\",\"Stims/Figures/84-J-0-2.bmp\",\"fa:fa:sha\",\"Down\",\"40\",\"4\",\"6\",\"3A\",\"C1\",\"C\",\"78\"
\"\",\"\",\"approach-retreat\",\"227\",\"1732576\",\"0.0-227.0\",\"\",\"\",\"2-1\",\"4214\",\"40\",\"1\",\"Testing\",\"Stims/Figures/102-J-10-4.bmp\",\"fa:fa:sha\",\"Down\",\"40\",\"4\",\"7\",\"3A\",\"C1\",\"C\",\"79\"
\"\",\"\",\"approach-retreat\",\"228\",\"1739201\",\"0.0-228.0\",\"\",\"\",\"2-1\",\"5110\",\"38\",\"1\",\"Testing\",\"Stims/Figures/71-J-0-1.bmp\",\"fa:fa:sha\",\"Up\",\"38\",\"4\",\"8\",\"3A\",\"C1\",\"C\",\"80\"
\"\",\"\",\"approach-retreat\",\"229\",\"1745058\",\"0.0-229.0\",\"\",\"\",\"2-1\",\"4348\",\"38\",\"1\",\"Testing\",\"Stims/Figures/100-J-10-3.bmp\",\"fa:fa:sha\",\"Up\",\"38\",\"4\",\"9\",\"3A\",\"C1\",\"C\",\"81\"
\"\",\"\",\"approach-retreat\",\"230\",\"1750801\",\"0.0-230.0\",\"\",\"\",\"2-1\",\"4226\",\"37\",\"0\",\"Testing\",\"Stims/Figures/94-C-20-2.bmp\",\"zahaha\",\"Left\",\"39\",\"4\",\"10\",\"3A\",\"C2\",\"C\",\"82\"
\"\",\"\",\"approach-retreat\",\"231\",\"1756953\",\"0.0-231.0\",\"\",\"\",\"2-1\",\"4637\",\"39\",\"0\",\"Testing\",\"Stims/Figures/74-C-20-4.bmp\",\"zahaha\",\"Right\",\"37\",\"4\",\"11\",\"3A\",\"C2\",\"C\",\"83\"
\"\",\"\",\"approach-retreat\",\"232\",\"1762876\",\"0.0-232.0\",\"\",\"\",\"2-1\",\"4404\",\"40\",\"1\",\"Testing\",\"Stims/Figures/100-C-30-3.bmp\",\"zahaha\",\"Up\",\"40\",\"4\",\"12\",\"3A\",\"C2\",\"C\",\"84\"
\"\",\"\",\"approach-retreat\",\"233\",\"1769898\",\"0.0-233.0\",\"\",\"\",\"2-1\",\"5511\",\"37\",\"1\",\"Testing\",\"Stims/Figures/71-C-30-1.bmp\",\"zahaha\",\"Right\",\"37\",\"4\",\"13\",\"3A\",\"C2\",\"C\",\"85\"
\"\",\"\",\"approach-retreat\",\"234\",\"1776543\",\"0.0-234.0\",\"\",\"\",\"2-1\",\"5129\",\"40\",\"1\",\"Testing\",\"Stims/Figures/86-J-0-1.bmp\",\"fa:fa:sha\",\"Down\",\"40\",\"4\",\"14\",\"3A\",\"C1\",\"C\",\"86\"
\"\",\"\",\"approach-retreat\",\"235\",\"1782168\",\"0.0-235.0\",\"\",\"\",\"2-1\",\"4107\",\"38\",\"0\",\"Testing\",\"Stims/Figures/44-C-30-3.bmp\",\"zahaha\",\"Up\",\"40\",\"4\",\"15\",\"3A\",\"C2\",\"C\",\"87\"
\"\",\"\",\"approach-retreat\",\"236\",\"1788843\",\"0.0-236.0\",\"\",\"\",\"2-1\",\"5164\",\"40\",\"0\",\"Testing\",\"Stims/Figures/74-J-10-4.bmp\",\"fa:fa:sha\",\"Up\",\"38\",\"4\",\"16\",\"3A\",\"C1\",\"C\",\"88\"
\"\",\"\",\"approach-retreat\",\"237\",\"1801122\",\"0.0-237.0\",\"\",\"\",\"2-1\",\"10769\",\"39\",\"0\",\"Testing\",\"Stims/Figures/19-J-10-4.bmp\",\"fa:fa:sha\",\"Left\",\"37\",\"4\",\"17\",\"3A\",\"C1\",\"C\",\"89\"
\"\",\"\",\"approach-retreat\",\"238\",\"1811249\",\"0.0-238.0\",\"\",\"\",\"2-1\",\"8617\",\"38\",\"1\",\"Testing\",\"Stims/Figures/19-C-20-4.bmp\",\"zahaha\",\"Down\",\"38\",\"4\",\"18\",\"3A\",\"C2\",\"C\",\"90\"
\"\",\"\",\"approach-retreat\",\"239\",\"1880027\",\"0.0-239.0\",\"\",\"\",\"2-1\",\"67262\",\"37\",\"0\",\"Testing\",\"Stims/Figures/86-C-30-1.bmp\",\"zahaha\",\"Left\",\"39\",\"4\",\"19\",\"3A\",\"C2\",\"C\",\"91\"
\"\",\"\",\"approach-retreat\",\"240\",\"1885930\",\"0.0-240.0\",\"\",\"\",\"2-1\",\"4387\",\"39\",\"1\",\"Testing\",\"Stims/Figures/93-J-0-1.bmp\",\"fa:fa:sha\",\"Right\",\"39\",\"4\",\"20\",\"3A\",\"C1\",\"C\",\"92\"
\"\",\"\",\"approach-retreat\",\"241\",\"1891745\",\"0.0-241.0\",\"\",\"\",\"2-1\",\"4304\",\"40\",\"1\",\"Testing\",\"Stims/Figures/118-J-0-2.bmp\",\"fa:fa:sha\",\"Down\",\"40\",\"4\",\"21\",\"3A\",\"C1\",\"C\",\"93\"
\"\",\"\",\"approach-retreat\",\"242\",\"1897477\",\"0.0-242.0\",\"\",\"\",\"2-1\",\"4216\",\"37\",\"1\",\"Testing\",\"Stims/Figures/44-J-10-3.bmp\",\"fa:fa:sha\",\"Left\",\"37\",\"4\",\"22\",\"3A\",\"C1\",\"C\",\"94\"
\"\",\"\",\"approach-retreat\",\"243\",\"1909502\",\"0.0-243.0\",\"\",\"\",\"2-1\",\"10510\",\"39\",\"1\",\"Testing\",\"Stims/Figures/84-C-20-2.bmp\",\"zahaha\",\"Left\",\"39\",\"4\",\"23\",\"3A\",\"C2\",\"C\",\"95\"
\"\",\"\",\"approach-retreat\",\"244\",\"1916159\",\"0.0-244.0\",\"\",\"\",\"2-1\",\"5143\",\"40\",\"1\",\"Testing\",\"Stims/Figures/94-J-0-2.bmp\",\"fa:fa:sha\",\"Down\",\"40\",\"4\",\"24\",\"3A\",\"C1\",\"C\",\"96\"
\"22321\",\"\",\"survey-text\",\"245\",\"1938488\",\"0.0-245.0\",\"\",\"{\"\"Q0\"\":\"\"PS 170089\"\"}\",\"\",\"\",\"\",\"\",\"\",\"\",\"\",\"\",\"\",\"\",\"\",\"\",\"\",\"\",\"\"
