\"rt\",\"key_press\",\"trial_type\",\"trial_index\",\"time_elapsed\",\"internal_node_id\",\"view_history\",\"responses\",\"Id\",\"Rt\",\"ResKeyCode\",\"ResCorr\",\"TrialType2\",\"Image\",\"Label\",\"Location\",\"CorrectResponse\",\"Block\",\"BlockTrial\",\"Condition\",\"LabelType\",\"Subcondition\",\"trialNum\"
\"49898\",\"32\",\"text\",\"0\",\"49900\",\"0.0-0.0-0.0\",\"\",\"\",\"\",\"\",\"\",\"\",\"\",\"\",\"\",\"\",\"\",\"\",\"\",\"\",\"\",\"\",\"\"
\"76695\",\"\",\"instructions\",\"1\",\"126595\",\"0.0-1.0\",\"[{\"\"page_index\"\":0,\"\"viewing_time\"\":76695}]\",\"\",\"\",\"\",\"\",\"\",\"\",\"\",\"\",\"\",\"\",\"\",\"\",\"\",\"\",\"\",\"\"
\"51740\",\"\",\"survey-multi-choice\",\"2\",\"178351\",\"0.0-2.0\",\"\",\"{\"\"Q0\"\":\"\"Da\"\",\"\"Q1\"\":\"\"Da\"\",\"\"Q2\"\":\"\"Da\"\",\"\"Q3\"\":\"\"Da\"\",\"\"Q4\"\":\"\"Da\"\",\"\"Q5\"\":\"\"Da\"\"}\",\"\",\"\",\"\",\"\",\"\",\"\",\"\",\"\",\"\",\"\",\"\",\"\",\"\",\"\",\"\"
\"\",\"\",\"bio\",\"3\",\"188450\",\"0.0-3.0\",\"\",\"{\"\"age\"\":\"\"19\"\",\"\"gender\"\":\"\"f\"\",\"\"specify\"\":\"\"\"\"}\",\"\",\"\",\"\",\"\",\"\",\"\",\"\",\"\",\"\",\"\",\"\",\"\",\"\",\"\",\"\"
\"\",\"\",\"approach-retreat\",\"4\",\"203168\",\"0.0-4.0\",\"\",\"\",\"1-1\",\"13203\",\"39\",\"0\",\"Training\",\"Stims/Figures/19-J-10-4.bmp\",\"tapata\",\"Right\",\"37\",\"1\",\"1\",\"4\",\"P\",\"J\",\"1\"
\"\",\"\",\"approach-retreat\",\"5\",\"213960\",\"0.0-5.0\",\"\",\"\",\"1-1\",\"9287\",\"40\",\"0\",\"Training\",\"Stims/Figures/71-J-0-1.bmp\",\"tapa:ka\",\"Down\",\"38\",\"1\",\"2\",\"4\",\"P\",\"J\",\"2\"
\"\",\"\",\"approach-retreat\",\"6\",\"222258\",\"0.0-6.0\",\"\",\"\",\"1-1\",\"6791\",\"38\",\"0\",\"Training\",\"Stims/Figures/111-J-10-3.bmp\",\"pa:ka:ta\",\"Up\",\"40\",\"1\",\"3\",\"4\",\"P\",\"J\",\"3\"
\"\",\"\",\"approach-retreat\",\"7\",\"228170\",\"0.0-7.0\",\"\",\"\",\"1-1\",\"4409\",\"38\",\"0\",\"Training\",\"Stims/Figures/128-J-10-3.bmp\",\"pa:kaka\",\"Up\",\"40\",\"1\",\"4\",\"4\",\"P\",\"J\",\"4\"
\"\",\"\",\"approach-retreat\",\"8\",\"233939\",\"0.0-8.0\",\"\",\"\",\"1-1\",\"4263\",\"40\",\"1\",\"Training\",\"Stims/Figures/84-C-20-2.bmp\",\"mamana\",\"Down\",\"40\",\"1\",\"5\",\"4\",\"S\",\"J\",\"5\"
\"\",\"\",\"approach-retreat\",\"9\",\"242930\",\"0.0-9.0\",\"\",\"\",\"1-1\",\"7491\",\"39\",\"0\",\"Training\",\"Stims/Figures/111-C-30-3.bmp\",\"mama:na\",\"Left\",\"37\",\"1\",\"6\",\"4\",\"S\",\"J\",\"6\"
\"\",\"\",\"approach-retreat\",\"10\",\"248588\",\"0.0-10.0\",\"\",\"\",\"1-1\",\"4148\",\"39\",\"1\",\"Training\",\"Stims/Figures/128-C-30-3.bmp\",\"na:la:la\",\"Right\",\"39\",\"1\",\"7\",\"4\",\"S\",\"J\",\"7\"
\"\",\"\",\"approach-retreat\",\"11\",\"255488\",\"0.0-11.0\",\"\",\"\",\"1-1\",\"5400\",\"38\",\"0\",\"Training\",\"Stims/Figures/118-C-20-2.bmp\",\"nalala\",\"Down\",\"40\",\"1\",\"8\",\"4\",\"S\",\"J\",\"8\"
\"\",\"\",\"approach-retreat\",\"12\",\"261279\",\"0.0-12.0\",\"\",\"\",\"1-1\",\"4282\",\"38\",\"1\",\"Training\",\"Stims/Figures/27-J-0-1.bmp\",\"ta:pata\",\"Down\",\"38\",\"1\",\"9\",\"4\",\"P\",\"J\",\"9\"
\"\",\"\",\"approach-retreat\",\"13\",\"268014\",\"0.0-13.0\",\"\",\"\",\"1-1\",\"5235\",\"40\",\"1\",\"Training\",\"Stims/Figures/87-J-10-4.bmp\",\"tapaka\",\"Up\",\"40\",\"1\",\"10\",\"4\",\"P\",\"J\",\"10\"
\"\",\"\",\"approach-retreat\",\"14\",\"274426\",\"0.0-14.0\",\"\",\"\",\"1-1\",\"4908\",\"39\",\"1\",\"Training\",\"Stims/Figures/71-C-30-1.bmp\",\"na:mana\",\"Right\",\"39\",\"1\",\"11\",\"4\",\"S\",\"J\",\"11\"
\"\",\"\",\"approach-retreat\",\"15\",\"280307\",\"0.0-15.0\",\"\",\"\",\"1-1\",\"4379\",\"37\",\"1\",\"Training\",\"Stims/Figures/84-J-0-2.bmp\",\"pakaka\",\"Right\",\"37\",\"1\",\"12\",\"4\",\"P\",\"J\",\"12\"
\"\",\"\",\"approach-retreat\",\"16\",\"288433\",\"0.0-16.0\",\"\",\"\",\"1-1\",\"6626\",\"40\",\"0\",\"Training\",\"Stims/Figures/27-C-30-1.bmp\",\"nalana\",\"Up\",\"38\",\"1\",\"13\",\"4\",\"S\",\"J\",\"13\"
\"\",\"\",\"approach-retreat\",\"17\",\"294666\",\"0.0-17.0\",\"\",\"\",\"1-1\",\"4729\",\"39\",\"0\",\"Training\",\"Stims/Figures/87-C-20-4.bmp\",\"nala:na\",\"Left\",\"37\",\"1\",\"14\",\"4\",\"S\",\"J\",\"14\"
\"\",\"\",\"approach-retreat\",\"18\",\"300729\",\"0.0-18.0\",\"\",\"\",\"1-1\",\"4558\",\"39\",\"0\",\"Training\",\"Stims/Figures/19-C-20-4.bmp\",\"ma:lala\",\"Left\",\"37\",\"1\",\"15\",\"4\",\"S\",\"J\",\"15\"
\"\",\"\",\"approach-retreat\",\"19\",\"306488\",\"0.0-19.0\",\"\",\"\",\"1-1\",\"4249\",\"39\",\"1\",\"Training\",\"Stims/Figures/118-J-0-2.bmp\",\"tapa:ta\",\"Left\",\"39\",\"1\",\"16\",\"4\",\"P\",\"J\",\"16\"
\"\",\"\",\"approach-retreat\",\"20\",\"313342\",\"0.0-20.0\",\"\",\"\",\"1-1\",\"5353\",\"38\",\"0\",\"Training\",\"Stims/Figures/118-J-0-2.bmp\",\"tapa:ta\",\"Up\",\"40\",\"2\",\"1\",\"4\",\"P\",\"J\",\"17\"
\"\",\"\",\"approach-retreat\",\"21\",\"323062\",\"0.0-21.0\",\"\",\"\",\"1-1\",\"8211\",\"37\",\"1\",\"Training\",\"Stims/Figures/87-C-20-4.bmp\",\"nala:na\",\"Left\",\"37\",\"2\",\"2\",\"4\",\"S\",\"J\",\"18\"
\"\",\"\",\"approach-retreat\",\"22\",\"330413\",\"0.0-22.0\",\"\",\"\",\"1-1\",\"5843\",\"39\",\"1\",\"Training\",\"Stims/Figures/19-C-20-4.bmp\",\"ma:lala\",\"Right\",\"39\",\"2\",\"3\",\"4\",\"S\",\"J\",\"19\"
\"\",\"\",\"approach-retreat\",\"23\",\"336348\",\"0.0-23.0\",\"\",\"\",\"1-1\",\"4435\",\"39\",\"0\",\"Training\",\"Stims/Figures/128-J-10-3.bmp\",\"pa:kaka\",\"Right\",\"37\",\"2\",\"4\",\"4\",\"P\",\"J\",\"20\"
\"\",\"\",\"approach-retreat\",\"24\",\"342491\",\"0.0-24.0\",\"\",\"\",\"1-1\",\"4640\",\"37\",\"0\",\"Training\",\"Stims/Figures/111-J-10-3.bmp\",\"pa:ka:ta\",\"Left\",\"39\",\"2\",\"5\",\"4\",\"P\",\"J\",\"21\"
\"\",\"\",\"approach-retreat\",\"25\",\"348143\",\"0.0-25.0\",\"\",\"\",\"1-1\",\"4147\",\"39\",\"1\",\"Training\",\"Stims/Figures/84-C-20-2.bmp\",\"mamana\",\"Right\",\"39\",\"2\",\"6\",\"4\",\"S\",\"J\",\"22\"
\"\",\"\",\"approach-retreat\",\"26\",\"354527\",\"0.0-26.0\",\"\",\"\",\"1-1\",\"4885\",\"38\",\"0\",\"Training\",\"Stims/Figures/87-J-10-4.bmp\",\"tapaka\",\"Up\",\"40\",\"2\",\"7\",\"4\",\"P\",\"J\",\"23\"
\"\",\"\",\"approach-retreat\",\"27\",\"361170\",\"0.0-27.0\",\"\",\"\",\"1-1\",\"5138\",\"39\",\"0\",\"Training\",\"Stims/Figures/128-C-30-3.bmp\",\"na:la:la\",\"Left\",\"37\",\"2\",\"8\",\"4\",\"S\",\"J\",\"24\"
\"\",\"\",\"approach-retreat\",\"28\",\"368093\",\"0.0-28.0\",\"\",\"\",\"1-1\",\"5415\",\"40\",\"1\",\"Training\",\"Stims/Figures/27-C-30-1.bmp\",\"nalana\",\"Down\",\"40\",\"2\",\"9\",\"4\",\"S\",\"J\",\"25\"
\"\",\"\",\"approach-retreat\",\"29\",\"373729\",\"0.0-29.0\",\"\",\"\",\"1-1\",\"4136\",\"40\",\"0\",\"Training\",\"Stims/Figures/19-J-10-4.bmp\",\"tapata\",\"Down\",\"38\",\"2\",\"10\",\"4\",\"P\",\"J\",\"26\"
\"\",\"\",\"approach-retreat\",\"30\",\"380126\",\"0.0-30.0\",\"\",\"\",\"1-1\",\"4888\",\"40\",\"1\",\"Training\",\"Stims/Figures/71-J-0-1.bmp\",\"tapa:ka\",\"Up\",\"40\",\"2\",\"11\",\"4\",\"P\",\"J\",\"27\"
\"\",\"\",\"approach-retreat\",\"31\",\"385850\",\"0.0-31.0\",\"\",\"\",\"1-1\",\"4224\",\"39\",\"0\",\"Training\",\"Stims/Figures/27-J-0-1.bmp\",\"ta:pata\",\"Right\",\"37\",\"2\",\"12\",\"4\",\"P\",\"J\",\"28\"
\"\",\"\",\"approach-retreat\",\"32\",\"391305\",\"0.0-32.0\",\"\",\"\",\"1-1\",\"3951\",\"38\",\"1\",\"Training\",\"Stims/Figures/84-J-0-2.bmp\",\"pakaka\",\"Down\",\"38\",\"2\",\"13\",\"4\",\"P\",\"J\",\"29\"
\"\",\"\",\"approach-retreat\",\"33\",\"399254\",\"0.0-33.0\",\"\",\"\",\"1-1\",\"6445\",\"40\",\"0\",\"Training\",\"Stims/Figures/71-C-30-1.bmp\",\"na:mana\",\"Up\",\"38\",\"2\",\"14\",\"4\",\"S\",\"J\",\"30\"
\"\",\"\",\"approach-retreat\",\"34\",\"405305\",\"0.0-34.0\",\"\",\"\",\"1-1\",\"4548\",\"38\",\"0\",\"Training\",\"Stims/Figures/111-C-30-3.bmp\",\"mama:na\",\"Down\",\"40\",\"2\",\"15\",\"4\",\"S\",\"J\",\"31\"
\"\",\"\",\"approach-retreat\",\"35\",\"410833\",\"0.0-35.0\",\"\",\"\",\"1-1\",\"4024\",\"39\",\"0\",\"Training\",\"Stims/Figures/118-C-20-2.bmp\",\"nalala\",\"Left\",\"37\",\"2\",\"16\",\"4\",\"S\",\"J\",\"32\"
\"\",\"\",\"approach-retreat\",\"36\",\"416670\",\"0.0-36.0\",\"\",\"\",\"1-1\",\"4332\",\"40\",\"0\",\"Training\",\"Stims/Figures/19-J-10-4.bmp\",\"tapata\",\"Down\",\"38\",\"3\",\"1\",\"4\",\"P\",\"J\",\"33\"
\"\",\"\",\"approach-retreat\",\"37\",\"422277\",\"0.0-37.0\",\"\",\"\",\"1-1\",\"4101\",\"37\",\"1\",\"Training\",\"Stims/Figures/71-C-30-1.bmp\",\"na:mana\",\"Left\",\"37\",\"3\",\"2\",\"4\",\"S\",\"J\",\"34\"
\"\",\"\",\"approach-retreat\",\"38\",\"428108\",\"0.0-38.0\",\"\",\"\",\"1-1\",\"4329\",\"38\",\"1\",\"Training\",\"Stims/Figures/84-C-20-2.bmp\",\"mamana\",\"Up\",\"38\",\"3\",\"3\",\"4\",\"S\",\"J\",\"35\"
\"\",\"\",\"approach-retreat\",\"39\",\"433847\",\"0.0-39.0\",\"\",\"\",\"1-1\",\"4234\",\"39\",\"1\",\"Training\",\"Stims/Figures/118-J-0-2.bmp\",\"tapa:ta\",\"Left\",\"39\",\"3\",\"4\",\"4\",\"P\",\"J\",\"36\"
\"\",\"\",\"approach-retreat\",\"40\",\"439881\",\"0.0-40.0\",\"\",\"\",\"1-1\",\"4525\",\"40\",\"1\",\"Training\",\"Stims/Figures/111-J-10-3.bmp\",\"pa:ka:ta\",\"Up\",\"40\",\"3\",\"5\",\"4\",\"P\",\"J\",\"37\"
\"\",\"\",\"approach-retreat\",\"41\",\"447054\",\"0.0-41.0\",\"\",\"\",\"1-1\",\"5670\",\"40\",\"1\",\"Training\",\"Stims/Figures/118-C-20-2.bmp\",\"nalala\",\"Down\",\"40\",\"3\",\"6\",\"4\",\"S\",\"J\",\"38\"
\"\",\"\",\"approach-retreat\",\"42\",\"452613\",\"0.0-42.0\",\"\",\"\",\"1-1\",\"4051\",\"37\",\"1\",\"Training\",\"Stims/Figures/111-C-30-3.bmp\",\"mama:na\",\"Left\",\"37\",\"3\",\"7\",\"4\",\"S\",\"J\",\"39\"
\"\",\"\",\"approach-retreat\",\"43\",\"463712\",\"0.0-43.0\",\"\",\"\",\"1-1\",\"9599\",\"40\",\"1\",\"Training\",\"Stims/Figures/87-C-20-4.bmp\",\"nala:na\",\"Down\",\"40\",\"3\",\"8\",\"4\",\"S\",\"J\",\"40\"
\"\",\"\",\"approach-retreat\",\"44\",\"470471\",\"0.0-44.0\",\"\",\"\",\"1-1\",\"5198\",\"39\",\"0\",\"Training\",\"Stims/Figures/71-J-0-1.bmp\",\"tapa:ka\",\"Right\",\"37\",\"3\",\"9\",\"4\",\"P\",\"J\",\"41\"
\"\",\"\",\"approach-retreat\",\"45\",\"476610\",\"0.0-45.0\",\"\",\"\",\"1-1\",\"4634\",\"37\",\"0\",\"Training\",\"Stims/Figures/27-C-30-1.bmp\",\"nalana\",\"Right\",\"39\",\"3\",\"10\",\"4\",\"S\",\"J\",\"42\"
\"\",\"\",\"approach-retreat\",\"46\",\"482529\",\"0.0-46.0\",\"\",\"\",\"1-1\",\"4415\",\"40\",\"0\",\"Training\",\"Stims/Figures/128-C-30-3.bmp\",\"na:la:la\",\"Up\",\"38\",\"3\",\"11\",\"4\",\"S\",\"J\",\"43\"
\"\",\"\",\"approach-retreat\",\"47\",\"493163\",\"0.0-47.0\",\"\",\"\",\"1-1\",\"9126\",\"39\",\"1\",\"Training\",\"Stims/Figures/87-J-10-4.bmp\",\"tapaka\",\"Left\",\"39\",\"3\",\"12\",\"4\",\"P\",\"J\",\"44\"
\"\",\"\",\"approach-retreat\",\"48\",\"500970\",\"0.0-48.0\",\"\",\"\",\"1-1\",\"6301\",\"37\",\"1\",\"Training\",\"Stims/Figures/84-J-0-2.bmp\",\"pakaka\",\"Right\",\"37\",\"3\",\"13\",\"4\",\"P\",\"J\",\"45\"
\"\",\"\",\"approach-retreat\",\"49\",\"507113\",\"0.0-49.0\",\"\",\"\",\"1-1\",\"4643\",\"38\",\"0\",\"Training\",\"Stims/Figures/27-J-0-1.bmp\",\"ta:pata\",\"Up\",\"40\",\"3\",\"14\",\"4\",\"P\",\"J\",\"46\"
\"\",\"\",\"approach-retreat\",\"50\",\"512468\",\"0.0-50.0\",\"\",\"\",\"1-1\",\"3850\",\"39\",\"0\",\"Training\",\"Stims/Figures/128-J-10-3.bmp\",\"pa:kaka\",\"Right\",\"37\",\"3\",\"15\",\"4\",\"P\",\"J\",\"47\"
\"\",\"\",\"approach-retreat\",\"51\",\"518953\",\"0.0-51.0\",\"\",\"\",\"1-1\",\"4981\",\"38\",\"0\",\"Training\",\"Stims/Figures/19-C-20-4.bmp\",\"ma:lala\",\"Down\",\"40\",\"3\",\"16\",\"4\",\"S\",\"J\",\"48\"
\"\",\"\",\"approach-retreat\",\"52\",\"524959\",\"0.0-52.0\",\"\",\"\",\"1-1\",\"4499\",\"40\",\"1\",\"Training\",\"Stims/Figures/27-C-30-1.bmp\",\"nalana\",\"Down\",\"40\",\"4\",\"1\",\"4\",\"S\",\"J\",\"49\"
\"\",\"\",\"approach-retreat\",\"53\",\"531385\",\"0.0-53.0\",\"\",\"\",\"1-1\",\"4926\",\"38\",\"0\",\"Training\",\"Stims/Figures/84-C-20-2.bmp\",\"mamana\",\"Down\",\"40\",\"4\",\"2\",\"4\",\"S\",\"J\",\"50\"
\"\",\"\",\"approach-retreat\",\"54\",\"538148\",\"0.0-54.0\",\"\",\"\",\"1-1\",\"5257\",\"40\",\"1\",\"Training\",\"Stims/Figures/118-C-20-2.bmp\",\"nalala\",\"Down\",\"40\",\"4\",\"3\",\"4\",\"S\",\"J\",\"51\"
\"\",\"\",\"approach-retreat\",\"55\",\"544139\",\"0.0-55.0\",\"\",\"\",\"1-1\",\"4482\",\"37\",\"1\",\"Training\",\"Stims/Figures/128-C-30-3.bmp\",\"na:la:la\",\"Left\",\"37\",\"4\",\"4\",\"4\",\"S\",\"J\",\"52\"
\"\",\"\",\"approach-retreat\",\"56\",\"549904\",\"0.0-56.0\",\"\",\"\",\"1-1\",\"4258\",\"39\",\"1\",\"Training\",\"Stims/Figures/27-J-0-1.bmp\",\"ta:pata\",\"Left\",\"39\",\"4\",\"5\",\"4\",\"P\",\"J\",\"53\"
\"\",\"\",\"approach-retreat\",\"57\",\"556358\",\"0.0-57.0\",\"\",\"\",\"1-1\",\"4946\",\"40\",\"1\",\"Training\",\"Stims/Figures/19-C-20-4.bmp\",\"ma:lala\",\"Down\",\"40\",\"4\",\"6\",\"4\",\"S\",\"J\",\"54\"
\"\",\"\",\"approach-retreat\",\"58\",\"562785\",\"0.0-58.0\",\"\",\"\",\"1-1\",\"4927\",\"39\",\"1\",\"Training\",\"Stims/Figures/71-C-30-1.bmp\",\"na:mana\",\"Right\",\"39\",\"4\",\"7\",\"4\",\"S\",\"J\",\"55\"
\"\",\"\",\"approach-retreat\",\"59\",\"568716\",\"0.0-59.0\",\"\",\"\",\"1-1\",\"4427\",\"38\",\"0\",\"Training\",\"Stims/Figures/19-J-10-4.bmp\",\"tapata\",\"Up\",\"40\",\"4\",\"8\",\"4\",\"P\",\"J\",\"56\"
\"\",\"\",\"approach-retreat\",\"60\",\"575041\",\"0.0-60.0\",\"\",\"\",\"1-1\",\"4822\",\"37\",\"0\",\"Training\",\"Stims/Figures/87-C-20-4.bmp\",\"nala:na\",\"Right\",\"39\",\"4\",\"9\",\"4\",\"S\",\"J\",\"57\"
\"\",\"\",\"approach-retreat\",\"61\",\"580718\",\"0.0-61.0\",\"\",\"\",\"1-1\",\"4172\",\"39\",\"0\",\"Training\",\"Stims/Figures/111-C-30-3.bmp\",\"mama:na\",\"Left\",\"37\",\"4\",\"10\",\"4\",\"S\",\"J\",\"58\"
\"\",\"\",\"approach-retreat\",\"62\",\"586537\",\"0.0-62.0\",\"\",\"\",\"1-1\",\"4316\",\"40\",\"1\",\"Training\",\"Stims/Figures/128-J-10-3.bmp\",\"pa:kaka\",\"Up\",\"40\",\"4\",\"11\",\"4\",\"P\",\"J\",\"59\"
\"\",\"\",\"approach-retreat\",\"63\",\"592526\",\"0.0-63.0\",\"\",\"\",\"1-1\",\"4490\",\"38\",\"0\",\"Training\",\"Stims/Figures/71-J-0-1.bmp\",\"tapa:ka\",\"Up\",\"40\",\"4\",\"12\",\"4\",\"P\",\"J\",\"60\"
\"\",\"\",\"approach-retreat\",\"64\",\"598072\",\"0.0-64.0\",\"\",\"\",\"1-1\",\"4042\",\"39\",\"0\",\"Training\",\"Stims/Figures/87-J-10-4.bmp\",\"tapaka\",\"Right\",\"37\",\"4\",\"13\",\"4\",\"P\",\"J\",\"61\"
\"\",\"\",\"approach-retreat\",\"65\",\"603841\",\"0.0-65.0\",\"\",\"\",\"1-1\",\"4265\",\"37\",\"0\",\"Training\",\"Stims/Figures/118-J-0-2.bmp\",\"tapa:ta\",\"Left\",\"39\",\"4\",\"14\",\"4\",\"P\",\"J\",\"62\"
\"\",\"\",\"approach-retreat\",\"66\",\"609641\",\"0.0-66.0\",\"\",\"\",\"1-1\",\"4297\",\"39\",\"0\",\"Training\",\"Stims/Figures/84-J-0-2.bmp\",\"pakaka\",\"Right\",\"37\",\"4\",\"15\",\"4\",\"P\",\"J\",\"63\"
\"\",\"\",\"approach-retreat\",\"67\",\"615690\",\"0.0-67.0\",\"\",\"\",\"1-1\",\"4543\",\"38\",\"0\",\"Training\",\"Stims/Figures/111-J-10-3.bmp\",\"pa:ka:ta\",\"Up\",\"40\",\"4\",\"16\",\"4\",\"P\",\"J\",\"64\"
\"\",\"\",\"approach-retreat\",\"68\",\"622162\",\"0.0-68.0\",\"\",\"\",\"1-1\",\"4967\",\"38\",\"1\",\"Training\",\"Stims/Figures/111-C-30-3.bmp\",\"mama:na\",\"Up\",\"38\",\"5\",\"1\",\"4\",\"S\",\"J\",\"65\"
\"\",\"\",\"approach-retreat\",\"69\",\"627753\",\"0.0-69.0\",\"\",\"\",\"1-1\",\"4091\",\"39\",\"0\",\"Training\",\"Stims/Figures/19-J-10-4.bmp\",\"tapata\",\"Right\",\"37\",\"5\",\"2\",\"4\",\"P\",\"J\",\"66\"
\"\",\"\",\"approach-retreat\",\"70\",\"634233\",\"0.0-70.0\",\"\",\"\",\"1-1\",\"4976\",\"39\",\"0\",\"Training\",\"Stims/Figures/27-C-30-1.bmp\",\"nalana\",\"Left\",\"37\",\"5\",\"3\",\"4\",\"S\",\"J\",\"67\"
\"\",\"\",\"approach-retreat\",\"71\",\"640026\",\"0.0-71.0\",\"\",\"\",\"1-1\",\"4287\",\"40\",\"0\",\"Training\",\"Stims/Figures/87-J-10-4.bmp\",\"tapaka\",\"Down\",\"38\",\"5\",\"4\",\"4\",\"P\",\"J\",\"68\"
\"\",\"\",\"approach-retreat\",\"72\",\"645607\",\"0.0-72.0\",\"\",\"\",\"1-1\",\"4078\",\"38\",\"1\",\"Training\",\"Stims/Figures/128-C-30-3.bmp\",\"na:la:la\",\"Up\",\"38\",\"5\",\"5\",\"4\",\"S\",\"J\",\"69\"
\"\",\"\",\"approach-retreat\",\"73\",\"652209\",\"0.0-73.0\",\"\",\"\",\"1-1\",\"5102\",\"38\",\"0\",\"Training\",\"Stims/Figures/71-C-30-1.bmp\",\"na:mana\",\"Down\",\"40\",\"5\",\"6\",\"4\",\"S\",\"J\",\"70\"
\"\",\"\",\"approach-retreat\",\"74\",\"658554\",\"0.0-74.0\",\"\",\"\",\"1-1\",\"4840\",\"40\",\"1\",\"Training\",\"Stims/Figures/27-J-0-1.bmp\",\"ta:pata\",\"Up\",\"40\",\"5\",\"7\",\"4\",\"P\",\"J\",\"71\"
\"\",\"\",\"approach-retreat\",\"75\",\"664358\",\"0.0-75.0\",\"\",\"\",\"1-1\",\"4296\",\"39\",\"1\",\"Training\",\"Stims/Figures/118-C-20-2.bmp\",\"nalala\",\"Right\",\"39\",\"5\",\"8\",\"4\",\"S\",\"J\",\"72\"
\"\",\"\",\"approach-retreat\",\"76\",\"670056\",\"0.0-76.0\",\"\",\"\",\"1-1\",\"4199\",\"38\",\"0\",\"Training\",\"Stims/Figures/128-J-10-3.bmp\",\"pa:kaka\",\"Up\",\"40\",\"5\",\"9\",\"4\",\"P\",\"J\",\"73\"
\"\",\"\",\"approach-retreat\",\"77\",\"676120\",\"0.0-77.0\",\"\",\"\",\"1-1\",\"4558\",\"40\",\"1\",\"Training\",\"Stims/Figures/87-C-20-4.bmp\",\"nala:na\",\"Down\",\"40\",\"5\",\"10\",\"4\",\"S\",\"J\",\"74\"
\"\",\"\",\"approach-retreat\",\"78\",\"682339\",\"0.0-78.0\",\"\",\"\",\"1-1\",\"4712\",\"39\",\"1\",\"Training\",\"Stims/Figures/118-J-0-2.bmp\",\"tapa:ta\",\"Left\",\"39\",\"5\",\"11\",\"4\",\"P\",\"J\",\"75\"
\"\",\"\",\"approach-retreat\",\"79\",\"688681\",\"0.0-79.0\",\"\",\"\",\"1-1\",\"4842\",\"37\",\"0\",\"Training\",\"Stims/Figures/19-C-20-4.bmp\",\"ma:lala\",\"Right\",\"39\",\"5\",\"12\",\"4\",\"S\",\"J\",\"76\"
\"\",\"\",\"approach-retreat\",\"80\",\"694465\",\"0.0-80.0\",\"\",\"\",\"1-1\",\"4278\",\"40\",\"0\",\"Training\",\"Stims/Figures/84-J-0-2.bmp\",\"pakaka\",\"Down\",\"38\",\"5\",\"13\",\"4\",\"P\",\"J\",\"77\"
\"\",\"\",\"approach-retreat\",\"81\",\"700197\",\"0.0-81.0\",\"\",\"\",\"1-1\",\"4224\",\"39\",\"1\",\"Training\",\"Stims/Figures/111-J-10-3.bmp\",\"pa:ka:ta\",\"Left\",\"39\",\"5\",\"14\",\"4\",\"P\",\"J\",\"78\"
\"\",\"\",\"approach-retreat\",\"82\",\"708382\",\"0.0-82.0\",\"\",\"\",\"1-1\",\"6686\",\"39\",\"0\",\"Training\",\"Stims/Figures/71-J-0-1.bmp\",\"tapa:ka\",\"Right\",\"37\",\"5\",\"15\",\"4\",\"P\",\"J\",\"79\"
\"\",\"\",\"approach-retreat\",\"83\",\"716450\",\"0.0-83.0\",\"\",\"\",\"1-1\",\"6563\",\"39\",\"0\",\"Training\",\"Stims/Figures/84-C-20-2.bmp\",\"mamana\",\"Left\",\"37\",\"5\",\"16\",\"4\",\"S\",\"J\",\"80\"
\"\",\"\",\"approach-retreat\",\"84\",\"722982\",\"0.0-84.0\",\"\",\"\",\"1-1\",\"5028\",\"38\",\"0\",\"Training\",\"Stims/Figures/19-C-20-4.bmp\",\"ma:lala\",\"Down\",\"40\",\"6\",\"1\",\"4\",\"S\",\"J\",\"81\"
\"\",\"\",\"approach-retreat\",\"85\",\"728945\",\"0.0-85.0\",\"\",\"\",\"1-1\",\"4459\",\"39\",\"0\",\"Training\",\"Stims/Figures/84-J-0-2.bmp\",\"pakaka\",\"Right\",\"37\",\"6\",\"2\",\"4\",\"P\",\"J\",\"82\"
\"\",\"\",\"approach-retreat\",\"86\",\"735625\",\"0.0-86.0\",\"\",\"\",\"1-1\",\"5176\",\"38\",\"0\",\"Training\",\"Stims/Figures/27-J-0-1.bmp\",\"ta:pata\",\"Up\",\"40\",\"6\",\"3\",\"4\",\"P\",\"J\",\"83\"
\"\",\"\",\"approach-retreat\",\"87\",\"741337\",\"0.0-87.0\",\"\",\"\",\"1-1\",\"4202\",\"40\",\"1\",\"Training\",\"Stims/Figures/118-C-20-2.bmp\",\"nalala\",\"Down\",\"40\",\"6\",\"4\",\"4\",\"S\",\"J\",\"84\"
\"\",\"\",\"approach-retreat\",\"88\",\"747207\",\"0.0-88.0\",\"\",\"\",\"1-1\",\"4366\",\"39\",\"0\",\"Training\",\"Stims/Figures/19-J-10-4.bmp\",\"tapata\",\"Right\",\"37\",\"6\",\"5\",\"4\",\"P\",\"J\",\"85\"
\"\",\"\",\"approach-retreat\",\"89\",\"753145\",\"0.0-89.0\",\"\",\"\",\"1-1\",\"4427\",\"40\",\"1\",\"Training\",\"Stims/Figures/27-C-30-1.bmp\",\"nalana\",\"Down\",\"40\",\"6\",\"6\",\"4\",\"S\",\"J\",\"86\"
\"\",\"\",\"approach-retreat\",\"90\",\"758978\",\"0.0-90.0\",\"\",\"\",\"1-1\",\"4333\",\"38\",\"0\",\"Training\",\"Stims/Figures/71-J-0-1.bmp\",\"tapa:ka\",\"Up\",\"40\",\"6\",\"7\",\"4\",\"P\",\"J\",\"87\"
\"\",\"\",\"approach-retreat\",\"91\",\"764757\",\"0.0-91.0\",\"\",\"\",\"1-1\",\"4265\",\"39\",\"1\",\"Training\",\"Stims/Figures/128-C-30-3.bmp\",\"na:la:la\",\"Right\",\"39\",\"6\",\"8\",\"4\",\"S\",\"J\",\"88\"
\"\",\"\",\"approach-retreat\",\"92\",\"770410\",\"0.0-92.0\",\"\",\"\",\"1-1\",\"4153\",\"39\",\"0\",\"Training\",\"Stims/Figures/128-J-10-3.bmp\",\"pa:kaka\",\"Right\",\"37\",\"6\",\"9\",\"4\",\"P\",\"J\",\"89\"
\"\",\"\",\"approach-retreat\",\"93\",\"776826\",\"0.0-93.0\",\"\",\"\",\"1-1\",\"4912\",\"40\",\"0\",\"Training\",\"Stims/Figures/71-C-30-1.bmp\",\"na:mana\",\"Up\",\"38\",\"6\",\"10\",\"4\",\"S\",\"J\",\"90\"
\"\",\"\",\"approach-retreat\",\"94\",\"782650\",\"0.0-94.0\",\"\",\"\",\"1-1\",\"4314\",\"38\",\"1\",\"Training\",\"Stims/Figures/84-C-20-2.bmp\",\"mamana\",\"Up\",\"38\",\"6\",\"11\",\"4\",\"S\",\"J\",\"91\"
\"\",\"\",\"approach-retreat\",\"95\",\"788386\",\"0.0-95.0\",\"\",\"\",\"1-1\",\"4236\",\"40\",\"0\",\"Training\",\"Stims/Figures/87-J-10-4.bmp\",\"tapaka\",\"Down\",\"38\",\"6\",\"12\",\"4\",\"P\",\"J\",\"92\"
\"\",\"\",\"approach-retreat\",\"96\",\"794175\",\"0.0-96.0\",\"\",\"\",\"1-1\",\"4279\",\"39\",\"1\",\"Training\",\"Stims/Figures/111-J-10-3.bmp\",\"pa:ka:ta\",\"Left\",\"39\",\"6\",\"13\",\"4\",\"P\",\"J\",\"93\"
\"\",\"\",\"approach-retreat\",\"97\",\"800024\",\"0.0-97.0\",\"\",\"\",\"1-1\",\"4342\",\"39\",\"1\",\"Training\",\"Stims/Figures/118-J-0-2.bmp\",\"tapa:ta\",\"Left\",\"39\",\"6\",\"14\",\"4\",\"P\",\"J\",\"94\"
\"\",\"\",\"approach-retreat\",\"98\",\"805689\",\"0.0-98.0\",\"\",\"\",\"1-1\",\"4165\",\"37\",\"1\",\"Training\",\"Stims/Figures/87-C-20-4.bmp\",\"nala:na\",\"Left\",\"37\",\"6\",\"15\",\"4\",\"S\",\"J\",\"95\"
\"\",\"\",\"approach-retreat\",\"99\",\"811766\",\"0.0-99.0\",\"\",\"\",\"1-1\",\"4573\",\"37\",\"1\",\"Training\",\"Stims/Figures/111-C-30-3.bmp\",\"mama:na\",\"Left\",\"37\",\"6\",\"16\",\"4\",\"S\",\"J\",\"96\"
\"\",\"\",\"approach-retreat\",\"100\",\"817843\",\"0.0-100.0\",\"\",\"\",\"1-1\",\"4576\",\"39\",\"1\",\"Training\",\"Stims/Figures/118-C-20-2.bmp\",\"nalala\",\"Right\",\"39\",\"7\",\"1\",\"4\",\"S\",\"J\",\"97\"
\"\",\"\",\"approach-retreat\",\"101\",\"823615\",\"0.0-101.0\",\"\",\"\",\"1-1\",\"4269\",\"39\",\"1\",\"Training\",\"Stims/Figures/84-C-20-2.bmp\",\"mamana\",\"Right\",\"39\",\"7\",\"2\",\"4\",\"S\",\"J\",\"98\"
\"\",\"\",\"approach-retreat\",\"102\",\"829322\",\"0.0-102.0\",\"\",\"\",\"1-1\",\"4205\",\"37\",\"0\",\"Training\",\"Stims/Figures/19-C-20-4.bmp\",\"ma:lala\",\"Right\",\"39\",\"7\",\"3\",\"4\",\"S\",\"J\",\"99\"
\"\",\"\",\"approach-retreat\",\"103\",\"835273\",\"0.0-103.0\",\"\",\"\",\"1-1\",\"4446\",\"38\",\"0\",\"Training\",\"Stims/Figures/84-J-0-2.bmp\",\"pakaka\",\"Up\",\"40\",\"7\",\"4\",\"4\",\"P\",\"J\",\"100\"
\"\",\"\",\"approach-retreat\",\"104\",\"840993\",\"0.0-104.0\",\"\",\"\",\"1-1\",\"4215\",\"40\",\"1\",\"Training\",\"Stims/Figures/27-C-30-1.bmp\",\"nalana\",\"Down\",\"40\",\"7\",\"5\",\"4\",\"S\",\"J\",\"101\"
\"\",\"\",\"approach-retreat\",\"105\",\"846730\",\"0.0-105.0\",\"\",\"\",\"1-1\",\"4232\",\"38\",\"0\",\"Training\",\"Stims/Figures/19-J-10-4.bmp\",\"tapata\",\"Up\",\"40\",\"7\",\"6\",\"4\",\"P\",\"J\",\"102\"
\"\",\"\",\"approach-retreat\",\"106\",\"853440\",\"0.0-106.0\",\"\",\"\",\"1-1\",\"5206\",\"37\",\"0\",\"Training\",\"Stims/Figures/111-J-10-3.bmp\",\"pa:ka:ta\",\"Left\",\"39\",\"7\",\"7\",\"4\",\"P\",\"J\",\"103\"
\"\",\"\",\"approach-retreat\",\"107\",\"858986\",\"0.0-107.0\",\"\",\"\",\"1-1\",\"4043\",\"39\",\"1\",\"Training\",\"Stims/Figures/71-J-0-1.bmp\",\"tapa:ka\",\"Left\",\"39\",\"7\",\"8\",\"4\",\"P\",\"J\",\"104\"
\"\",\"\",\"approach-retreat\",\"108\",\"865497\",\"0.0-108.0\",\"\",\"\",\"1-1\",\"5011\",\"38\",\"0\",\"Training\",\"Stims/Figures/128-J-10-3.bmp\",\"pa:kaka\",\"Up\",\"40\",\"7\",\"9\",\"4\",\"P\",\"J\",\"105\"
\"\",\"\",\"approach-retreat\",\"109\",\"871256\",\"0.0-109.0\",\"\",\"\",\"1-1\",\"4255\",\"40\",\"1\",\"Training\",\"Stims/Figures/111-C-30-3.bmp\",\"mama:na\",\"Down\",\"40\",\"7\",\"10\",\"4\",\"S\",\"J\",\"106\"
\"\",\"\",\"approach-retreat\",\"110\",\"878090\",\"0.0-110.0\",\"\",\"\",\"1-1\",\"5334\",\"39\",\"0\",\"Training\",\"Stims/Figures/71-C-30-1.bmp\",\"na:mana\",\"Left\",\"37\",\"7\",\"11\",\"4\",\"S\",\"J\",\"107\"
\"\",\"\",\"approach-retreat\",\"111\",\"884170\",\"0.0-111.0\",\"\",\"\",\"1-1\",\"4576\",\"39\",\"1\",\"Training\",\"Stims/Figures/128-C-30-3.bmp\",\"na:la:la\",\"Right\",\"39\",\"7\",\"12\",\"4\",\"S\",\"J\",\"108\"
\"\",\"\",\"approach-retreat\",\"112\",\"890151\",\"0.0-112.0\",\"\",\"\",\"1-1\",\"4476\",\"40\",\"0\",\"Training\",\"Stims/Figures/27-J-0-1.bmp\",\"ta:pata\",\"Down\",\"38\",\"7\",\"13\",\"4\",\"P\",\"J\",\"109\"
\"\",\"\",\"approach-retreat\",\"113\",\"896076\",\"0.0-113.0\",\"\",\"\",\"1-1\",\"4413\",\"40\",\"1\",\"Training\",\"Stims/Figures/87-C-20-4.bmp\",\"nala:na\",\"Down\",\"40\",\"7\",\"14\",\"4\",\"S\",\"J\",\"110\"
\"\",\"\",\"approach-retreat\",\"114\",\"902299\",\"0.0-114.0\",\"\",\"\",\"1-1\",\"4721\",\"40\",\"1\",\"Training\",\"Stims/Figures/87-J-10-4.bmp\",\"tapaka\",\"Up\",\"40\",\"7\",\"15\",\"4\",\"P\",\"J\",\"111\"
\"\",\"\",\"approach-retreat\",\"115\",\"910389\",\"0.0-115.0\",\"\",\"\",\"1-1\",\"6590\",\"37\",\"0\",\"Training\",\"Stims/Figures/118-J-0-2.bmp\",\"tapa:ta\",\"Left\",\"39\",\"7\",\"16\",\"4\",\"P\",\"J\",\"112\"
\"\",\"\",\"approach-retreat\",\"116\",\"918196\",\"0.0-116.0\",\"\",\"\",\"1-1\",\"6304\",\"38\",\"1\",\"Training\",\"Stims/Figures/27-C-30-1.bmp\",\"nalana\",\"Up\",\"38\",\"8\",\"1\",\"4\",\"S\",\"J\",\"113\"
\"\",\"\",\"approach-retreat\",\"117\",\"923706\",\"0.0-117.0\",\"\",\"\",\"1-1\",\"4010\",\"38\",\"0\",\"Training\",\"Stims/Figures/84-J-0-2.bmp\",\"pakaka\",\"Up\",\"40\",\"8\",\"2\",\"4\",\"P\",\"J\",\"114\"
\"\",\"\",\"approach-retreat\",\"118\",\"931212\",\"0.0-118.0\",\"\",\"\",\"1-1\",\"6002\",\"39\",\"0\",\"Training\",\"Stims/Figures/19-C-20-4.bmp\",\"ma:lala\",\"Left\",\"37\",\"8\",\"3\",\"4\",\"S\",\"J\",\"115\"
\"\",\"\",\"approach-retreat\",\"119\",\"937666\",\"0.0-119.0\",\"\",\"\",\"1-1\",\"4949\",\"37\",\"1\",\"Training\",\"Stims/Figures/111-J-10-3.bmp\",\"pa:ka:ta\",\"Right\",\"37\",\"8\",\"4\",\"4\",\"P\",\"J\",\"116\"
\"\",\"\",\"approach-retreat\",\"120\",\"946341\",\"0.0-120.0\",\"\",\"\",\"1-1\",\"7170\",\"37\",\"1\",\"Training\",\"Stims/Figures/27-J-0-1.bmp\",\"ta:pata\",\"Right\",\"37\",\"8\",\"5\",\"4\",\"P\",\"J\",\"117\"
\"\",\"\",\"approach-retreat\",\"121\",\"952428\",\"0.0-121.0\",\"\",\"\",\"1-1\",\"4585\",\"40\",\"1\",\"Training\",\"Stims/Figures/128-C-30-3.bmp\",\"na:la:la\",\"Down\",\"40\",\"8\",\"6\",\"4\",\"S\",\"J\",\"118\"
\"\",\"\",\"approach-retreat\",\"122\",\"957977\",\"0.0-122.0\",\"\",\"\",\"1-1\",\"4041\",\"38\",\"1\",\"Training\",\"Stims/Figures/87-J-10-4.bmp\",\"tapaka\",\"Down\",\"38\",\"8\",\"7\",\"4\",\"P\",\"J\",\"119\"
\"\",\"\",\"approach-retreat\",\"123\",\"963730\",\"0.0-123.0\",\"\",\"\",\"1-1\",\"4253\",\"37\",\"0\",\"Training\",\"Stims/Figures/19-J-10-4.bmp\",\"tapata\",\"Left\",\"39\",\"8\",\"8\",\"4\",\"P\",\"J\",\"120\"
\"\",\"\",\"approach-retreat\",\"124\",\"969356\",\"0.0-124.0\",\"\",\"\",\"1-1\",\"4117\",\"39\",\"1\",\"Training\",\"Stims/Figures/111-C-30-3.bmp\",\"mama:na\",\"Right\",\"39\",\"8\",\"9\",\"4\",\"S\",\"J\",\"121\"
\"\",\"\",\"approach-retreat\",\"125\",\"975137\",\"0.0-125.0\",\"\",\"\",\"1-1\",\"4274\",\"38\",\"1\",\"Training\",\"Stims/Figures/84-C-20-2.bmp\",\"mamana\",\"Up\",\"38\",\"8\",\"10\",\"4\",\"S\",\"J\",\"122\"
\"\",\"\",\"approach-retreat\",\"126\",\"980936\",\"0.0-126.0\",\"\",\"\",\"1-1\",\"4300\",\"38\",\"0\",\"Training\",\"Stims/Figures/118-C-20-2.bmp\",\"nalala\",\"Down\",\"40\",\"8\",\"11\",\"4\",\"S\",\"J\",\"123\"
\"\",\"\",\"approach-retreat\",\"127\",\"986798\",\"0.0-127.0\",\"\",\"\",\"1-1\",\"4357\",\"39\",\"0\",\"Training\",\"Stims/Figures/71-J-0-1.bmp\",\"tapa:ka\",\"Right\",\"37\",\"8\",\"12\",\"4\",\"P\",\"J\",\"124\"
\"\",\"\",\"approach-retreat\",\"128\",\"992486\",\"0.0-128.0\",\"\",\"\",\"1-1\",\"4182\",\"39\",\"0\",\"Training\",\"Stims/Figures/87-C-20-4.bmp\",\"nala:na\",\"Left\",\"37\",\"8\",\"13\",\"4\",\"S\",\"J\",\"125\"
\"\",\"\",\"approach-retreat\",\"129\",\"998178\",\"0.0-129.0\",\"\",\"\",\"1-1\",\"4189\",\"38\",\"0\",\"Training\",\"Stims/Figures/118-J-0-2.bmp\",\"tapa:ta\",\"Up\",\"40\",\"8\",\"14\",\"4\",\"P\",\"J\",\"126\"
\"\",\"\",\"approach-retreat\",\"130\",\"1003824\",\"0.0-130.0\",\"\",\"\",\"1-1\",\"4135\",\"39\",\"1\",\"Training\",\"Stims/Figures/128-J-10-3.bmp\",\"pa:kaka\",\"Left\",\"39\",\"8\",\"15\",\"4\",\"P\",\"J\",\"127\"
\"\",\"\",\"approach-retreat\",\"131\",\"1009712\",\"0.0-131.0\",\"\",\"\",\"1-1\",\"4388\",\"38\",\"0\",\"Training\",\"Stims/Figures/71-C-30-1.bmp\",\"na:mana\",\"Down\",\"40\",\"8\",\"16\",\"4\",\"S\",\"J\",\"128\"
\"\",\"\",\"approach-retreat\",\"132\",\"1016001\",\"0.0-132.0\",\"\",\"\",\"1-1\",\"4777\",\"39\",\"1\",\"Training\",\"Stims/Figures/118-J-0-2.bmp\",\"tapa:ta\",\"Left\",\"39\",\"9\",\"1\",\"4\",\"P\",\"J\",\"129\"
\"\",\"\",\"approach-retreat\",\"133\",\"1021892\",\"0.0-133.0\",\"\",\"\",\"1-1\",\"4391\",\"38\",\"0\",\"Training\",\"Stims/Figures/128-J-10-3.bmp\",\"pa:kaka\",\"Up\",\"40\",\"9\",\"2\",\"4\",\"P\",\"J\",\"130\"
\"\",\"\",\"approach-retreat\",\"134\",\"1028306\",\"0.0-134.0\",\"\",\"\",\"1-1\",\"4910\",\"39\",\"0\",\"Training\",\"Stims/Figures/27-C-30-1.bmp\",\"nalana\",\"Left\",\"37\",\"9\",\"3\",\"4\",\"S\",\"J\",\"131\"
\"\",\"\",\"approach-retreat\",\"135\",\"1034570\",\"0.0-135.0\",\"\",\"\",\"1-1\",\"4759\",\"37\",\"0\",\"Training\",\"Stims/Figures/118-C-20-2.bmp\",\"nalala\",\"Right\",\"39\",\"9\",\"4\",\"4\",\"S\",\"J\",\"132\"
\"\",\"\",\"approach-retreat\",\"136\",\"1040983\",\"0.0-136.0\",\"\",\"\",\"1-1\",\"4909\",\"40\",\"0\",\"Training\",\"Stims/Figures/111-J-10-3.bmp\",\"pa:ka:ta\",\"Down\",\"38\",\"9\",\"5\",\"4\",\"P\",\"J\",\"133\"
\"\",\"\",\"approach-retreat\",\"137\",\"1050887\",\"0.0-137.0\",\"\",\"\",\"1-1\",\"8392\",\"39\",\"1\",\"Training\",\"Stims/Figures/111-C-30-3.bmp\",\"mama:na\",\"Right\",\"39\",\"9\",\"6\",\"4\",\"S\",\"J\",\"134\"
\"\",\"\",\"approach-retreat\",\"138\",\"1056681\",\"0.0-138.0\",\"\",\"\",\"1-1\",\"4295\",\"40\",\"0\",\"Training\",\"Stims/Figures/84-J-0-2.bmp\",\"pakaka\",\"Down\",\"38\",\"9\",\"7\",\"4\",\"P\",\"J\",\"135\"
\"\",\"\",\"approach-retreat\",\"139\",\"1062367\",\"0.0-139.0\",\"\",\"\",\"1-1\",\"4176\",\"39\",\"1\",\"Training\",\"Stims/Figures/19-C-20-4.bmp\",\"ma:lala\",\"Right\",\"39\",\"9\",\"8\",\"4\",\"S\",\"J\",\"136\"
\"\",\"\",\"approach-retreat\",\"140\",\"1069224\",\"0.0-140.0\",\"\",\"\",\"1-1\",\"5357\",\"38\",\"0\",\"Training\",\"Stims/Figures/71-J-0-1.bmp\",\"tapa:ka\",\"Up\",\"40\",\"9\",\"9\",\"4\",\"P\",\"J\",\"137\"
\"\",\"\",\"approach-retreat\",\"141\",\"1075194\",\"0.0-141.0\",\"\",\"\",\"1-1\",\"4460\",\"40\",\"1\",\"Training\",\"Stims/Figures/128-C-30-3.bmp\",\"na:la:la\",\"Down\",\"40\",\"9\",\"10\",\"4\",\"S\",\"J\",\"138\"
\"\",\"\",\"approach-retreat\",\"142\",\"1081303\",\"0.0-142.0\",\"\",\"\",\"1-1\",\"4601\",\"38\",\"1\",\"Training\",\"Stims/Figures/84-C-20-2.bmp\",\"mamana\",\"Up\",\"38\",\"9\",\"11\",\"4\",\"S\",\"J\",\"139\"
\"\",\"\",\"approach-retreat\",\"143\",\"1087368\",\"0.0-143.0\",\"\",\"\",\"1-1\",\"4564\",\"38\",\"1\",\"Training\",\"Stims/Figures/87-J-10-4.bmp\",\"tapaka\",\"Down\",\"38\",\"9\",\"12\",\"4\",\"P\",\"J\",\"140\"
\"\",\"\",\"approach-retreat\",\"144\",\"1093834\",\"0.0-144.0\",\"\",\"\",\"1-1\",\"4960\",\"37\",\"0\",\"Training\",\"Stims/Figures/19-J-10-4.bmp\",\"tapata\",\"Left\",\"39\",\"9\",\"13\",\"4\",\"P\",\"J\",\"141\"
\"\",\"\",\"approach-retreat\",\"145\",\"1100222\",\"0.0-145.0\",\"\",\"\",\"1-1\",\"4878\",\"38\",\"1\",\"Training\",\"Stims/Figures/71-C-30-1.bmp\",\"na:mana\",\"Up\",\"38\",\"9\",\"14\",\"4\",\"S\",\"J\",\"142\"
\"\",\"\",\"approach-retreat\",\"146\",\"1106167\",\"0.0-146.0\",\"\",\"\",\"1-1\",\"4441\",\"39\",\"0\",\"Training\",\"Stims/Figures/87-C-20-4.bmp\",\"nala:na\",\"Left\",\"37\",\"9\",\"15\",\"4\",\"S\",\"J\",\"143\"
\"\",\"\",\"approach-retreat\",\"147\",\"1112569\",\"0.0-147.0\",\"\",\"\",\"1-1\",\"4897\",\"39\",\"0\",\"Training\",\"Stims/Figures/27-J-0-1.bmp\",\"ta:pata\",\"Right\",\"37\",\"9\",\"16\",\"4\",\"P\",\"J\",\"144\"
\"16094\",\"\",\"instructions\",\"148\",\"1128663\",\"0.0-148.0\",\"[{\"\"page_index\"\":0,\"\"viewing_time\"\":16094}]\",\"\",\"\",\"\",\"\",\"\",\"\",\"\",\"\",\"\",\"\",\"\",\"\",\"\",\"\",\"\",\"\"
\"\",\"\",\"approach-retreat\",\"149\",\"1137652\",\"0.0-149.0\",\"\",\"\",\"1-1\",\"7477\",\"39\",\"0\",\"Testing\",\"Stims/Figures/118-J-0-2.bmp\",\"tapa:ta\",\"Right\",\"37\",\"1\",\"1\",\"4\",\"P\",\"J\",\"1\"
\"\",\"\",\"approach-retreat\",\"150\",\"1146168\",\"0.0-150.0\",\"\",\"\",\"1-1\",\"7010\",\"37\",\"1\",\"Testing\",\"Stims/Figures/94-C-20-2.bmp\",\"ma:ma:na\",\"Left\",\"37\",\"1\",\"2\",\"4\",\"S\",\"J\",\"2\"
\"\",\"\",\"approach-retreat\",\"151\",\"1152740\",\"0.0-151.0\",\"\",\"\",\"1-1\",\"5061\",\"38\",\"1\",\"Testing\",\"Stims/Figures/111-J-10-3.bmp\",\"pa:ka:ta\",\"Down\",\"38\",\"1\",\"3\",\"4\",\"P\",\"J\",\"3\"
\"\",\"\",\"approach-retreat\",\"152\",\"1158688\",\"0.0-152.0\",\"\",\"\",\"1-1\",\"4439\",\"39\",\"0\",\"Testing\",\"Stims/Figures/128-C-30-3.bmp\",\"na:la:la\",\"Left\",\"37\",\"1\",\"4\",\"4\",\"S\",\"J\",\"4\"
\"\",\"\",\"approach-retreat\",\"153\",\"1164454\",\"0.0-153.0\",\"\",\"\",\"1-1\",\"4252\",\"38\",\"1\",\"Testing\",\"Stims/Figures/144-J-10-3.bmp\",\"pa:ka:ka\",\"Down\",\"38\",\"1\",\"5\",\"4\",\"P\",\"J\",\"5\"
\"\",\"\",\"approach-retreat\",\"154\",\"1170416\",\"0.0-154.0\",\"\",\"\",\"1-1\",\"4452\",\"39\",\"1\",\"Testing\",\"Stims/Figures/27-J-0-1.bmp\",\"ta:pata\",\"Left\",\"39\",\"1\",\"6\",\"4\",\"P\",\"J\",\"6\"
\"\",\"\",\"approach-retreat\",\"155\",\"1176214\",\"0.0-155.0\",\"\",\"\",\"1-1\",\"4284\",\"40\",\"1\",\"Testing\",\"Stims/Figures/102-C-20-4.bmp\",\"malana\",\"Down\",\"40\",\"1\",\"7\",\"4\",\"S\",\"J\",\"7\"
\"\",\"\",\"approach-retreat\",\"156\",\"1183708\",\"0.0-156.0\",\"\",\"\",\"1-1\",\"5983\",\"37\",\"0\",\"Testing\",\"Stims/Figures/19-J-10-4.bmp\",\"tapata\",\"Left\",\"39\",\"1\",\"8\",\"4\",\"P\",\"J\",\"8\"
\"\",\"\",\"approach-retreat\",\"157\",\"1189356\",\"0.0-157.0\",\"\",\"\",\"1-1\",\"4146\",\"39\",\"0\",\"Testing\",\"Stims/Figures/118-C-20-2.bmp\",\"nalala\",\"Left\",\"37\",\"1\",\"9\",\"4\",\"S\",\"J\",\"9\"
\"\",\"\",\"approach-retreat\",\"158\",\"1195486\",\"0.0-158.0\",\"\",\"\",\"1-1\",\"4618\",\"40\",\"0\",\"Testing\",\"Stims/Figures/19-C-20-4.bmp\",\"ma:lala\",\"Up\",\"38\",\"1\",\"10\",\"4\",\"S\",\"J\",\"10\"
\"\",\"\",\"approach-retreat\",\"159\",\"1203244\",\"0.0-159.0\",\"\",\"\",\"1-1\",\"6258\",\"39\",\"0\",\"Testing\",\"Stims/Figures/71-J-0-1.bmp\",\"tapa:ka\",\"Right\",\"37\",\"1\",\"11\",\"4\",\"P\",\"J\",\"11\"
\"\",\"\",\"approach-retreat\",\"160\",\"1209128\",\"0.0-160.0\",\"\",\"\",\"1-1\",\"4380\",\"39\",\"0\",\"Testing\",\"Stims/Figures/94-J-0-2.bmp\",\"ta:ka:ta\",\"Right\",\"37\",\"1\",\"12\",\"4\",\"P\",\"J\",\"12\"
\"\",\"\",\"approach-retreat\",\"161\",\"1215165\",\"0.0-161.0\",\"\",\"\",\"1-1\",\"4537\",\"40\",\"1\",\"Testing\",\"Stims/Figures/87-C-20-4.bmp\",\"nala:na\",\"Down\",\"40\",\"1\",\"13\",\"4\",\"S\",\"J\",\"13\"
\"\",\"\",\"approach-retreat\",\"162\",\"1222182\",\"0.0-162.0\",\"\",\"\",\"1-1\",\"5502\",\"39\",\"1\",\"Testing\",\"Stims/Figures/86-C-30-1.bmp\",\"ma:mala\",\"Right\",\"39\",\"1\",\"14\",\"4\",\"S\",\"J\",\"14\"
\"\",\"\",\"approach-retreat\",\"163\",\"1227951\",\"0.0-163.0\",\"\",\"\",\"1-1\",\"4268\",\"40\",\"1\",\"Testing\",\"Stims/Figures/27-C-30-1.bmp\",\"nalana\",\"Down\",\"40\",\"1\",\"15\",\"4\",\"S\",\"J\",\"15\"
\"\",\"\",\"approach-retreat\",\"164\",\"1234198\",\"0.0-164.0\",\"\",\"\",\"1-1\",\"4737\",\"39\",\"1\",\"Testing\",\"Stims/Figures/71-C-30-1.bmp\",\"na:mana\",\"Right\",\"39\",\"1\",\"16\",\"4\",\"S\",\"J\",\"16\"
\"\",\"\",\"approach-retreat\",\"165\",\"1239949\",\"0.0-165.0\",\"\",\"\",\"1-1\",\"4252\",\"38\",\"1\",\"Testing\",\"Stims/Figures/144-C-30-3.bmp\",\"nala:la\",\"Up\",\"38\",\"1\",\"17\",\"4\",\"S\",\"J\",\"17\"
\"\",\"\",\"approach-retreat\",\"166\",\"1245656\",\"0.0-166.0\",\"\",\"\",\"1-1\",\"4205\",\"38\",\"1\",\"Testing\",\"Stims/Figures/84-C-20-2.bmp\",\"mamana\",\"Up\",\"38\",\"1\",\"18\",\"4\",\"S\",\"J\",\"18\"
\"\",\"\",\"approach-retreat\",\"167\",\"1252228\",\"0.0-167.0\",\"\",\"\",\"1-1\",\"5063\",\"39\",\"0\",\"Testing\",\"Stims/Figures/102-J-10-4.bmp\",\"ta:kata\",\"Right\",\"37\",\"1\",\"19\",\"4\",\"P\",\"J\",\"19\"
\"\",\"\",\"approach-retreat\",\"168\",\"1258064\",\"0.0-168.0\",\"\",\"\",\"1-1\",\"4333\",\"40\",\"0\",\"Testing\",\"Stims/Figures/86-J-0-1.bmp\",\"papa:ka\",\"Down\",\"38\",\"1\",\"20\",\"4\",\"P\",\"J\",\"20\"
\"\",\"\",\"approach-retreat\",\"169\",\"1264954\",\"0.0-169.0\",\"\",\"\",\"1-1\",\"5380\",\"39\",\"1\",\"Testing\",\"Stims/Figures/87-J-10-4.bmp\",\"tapaka\",\"Left\",\"39\",\"1\",\"21\",\"4\",\"P\",\"J\",\"21\"
\"\",\"\",\"approach-retreat\",\"170\",\"1270825\",\"0.0-170.0\",\"\",\"\",\"1-1\",\"4368\",\"40\",\"0\",\"Testing\",\"Stims/Figures/111-C-30-3.bmp\",\"mama:na\",\"Up\",\"38\",\"1\",\"22\",\"4\",\"S\",\"J\",\"22\"
\"\",\"\",\"approach-retreat\",\"171\",\"1277014\",\"0.0-171.0\",\"\",\"\",\"1-1\",\"4669\",\"40\",\"1\",\"Testing\",\"Stims/Figures/128-J-10-3.bmp\",\"pa:kaka\",\"Up\",\"40\",\"1\",\"23\",\"4\",\"P\",\"J\",\"23\"
\"\",\"\",\"approach-retreat\",\"172\",\"1282947\",\"0.0-172.0\",\"\",\"\",\"1-1\",\"4425\",\"40\",\"1\",\"Testing\",\"Stims/Figures/84-J-0-2.bmp\",\"pakaka\",\"Up\",\"40\",\"1\",\"24\",\"4\",\"P\",\"J\",\"24\"
\"\",\"\",\"approach-retreat\",\"173\",\"1288935\",\"0.0-173.0\",\"\",\"\",\"1-1\",\"4477\",\"38\",\"1\",\"Testing\",\"Stims/Figures/19-C-20-4.bmp\",\"ma:lala\",\"Up\",\"38\",\"2\",\"1\",\"4\",\"S\",\"J\",\"25\"
\"\",\"\",\"approach-retreat\",\"174\",\"1305437\",\"0.0-174.0\",\"\",\"\",\"1-1\",\"14993\",\"39\",\"0\",\"Testing\",\"Stims/Figures/87-C-20-4.bmp\",\"nala:na\",\"Left\",\"37\",\"2\",\"2\",\"4\",\"S\",\"J\",\"26\"
\"\",\"\",\"approach-retreat\",\"175\",\"1313212\",\"0.0-175.0\",\"\",\"\",\"1-1\",\"6267\",\"40\",\"1\",\"Testing\",\"Stims/Figures/87-J-10-4.bmp\",\"tapaka\",\"Up\",\"40\",\"2\",\"3\",\"4\",\"P\",\"J\",\"27\"
\"\",\"\",\"approach-retreat\",\"176\",\"1319189\",\"0.0-176.0\",\"\",\"\",\"1-1\",\"4476\",\"39\",\"0\",\"Testing\",\"Stims/Figures/71-J-0-1.bmp\",\"tapa:ka\",\"Right\",\"37\",\"2\",\"4\",\"4\",\"P\",\"J\",\"28\"
\"\",\"\",\"approach-retreat\",\"177\",\"1325817\",\"0.0-177.0\",\"\",\"\",\"1-1\",\"5124\",\"40\",\"1\",\"Testing\",\"Stims/Figures/128-C-30-3.bmp\",\"na:la:la\",\"Down\",\"40\",\"2\",\"5\",\"4\",\"S\",\"J\",\"29\"
\"\",\"\",\"approach-retreat\",\"178\",\"1333209\",\"0.0-178.0\",\"\",\"\",\"1-1\",\"5877\",\"40\",\"1\",\"Testing\",\"Stims/Figures/86-J-0-1.bmp\",\"papa:ka\",\"Up\",\"40\",\"2\",\"6\",\"4\",\"P\",\"J\",\"30\"
\"\",\"\",\"approach-retreat\",\"179\",\"1338730\",\"0.0-179.0\",\"\",\"\",\"1-1\",\"4017\",\"39\",\"0\",\"Testing\",\"Stims/Figures/86-C-30-1.bmp\",\"ma:mala\",\"Left\",\"37\",\"2\",\"7\",\"4\",\"S\",\"J\",\"31\"
\"\",\"\",\"approach-retreat\",\"180\",\"1344339\",\"0.0-180.0\",\"\",\"\",\"1-1\",\"4094\",\"40\",\"0\",\"Testing\",\"Stims/Figures/84-J-0-2.bmp\",\"pakaka\",\"Down\",\"38\",\"2\",\"8\",\"4\",\"P\",\"J\",\"32\"
\"\",\"\",\"approach-retreat\",\"181\",\"1349968\",\"0.0-181.0\",\"\",\"\",\"1-1\",\"4117\",\"40\",\"1\",\"Testing\",\"Stims/Figures/144-C-30-3.bmp\",\"nala:la\",\"Down\",\"40\",\"2\",\"9\",\"4\",\"S\",\"J\",\"33\"
\"\",\"\",\"approach-retreat\",\"182\",\"1356432\",\"0.0-182.0\",\"\",\"\",\"1-1\",\"4959\",\"39\",\"1\",\"Testing\",\"Stims/Figures/84-C-20-2.bmp\",\"mamana\",\"Right\",\"39\",\"2\",\"10\",\"4\",\"S\",\"J\",\"34\"
\"\",\"\",\"approach-retreat\",\"183\",\"1362165\",\"0.0-183.0\",\"\",\"\",\"1-1\",\"4218\",\"39\",\"0\",\"Testing\",\"Stims/Figures/94-J-0-2.bmp\",\"ta:ka:ta\",\"Right\",\"37\",\"2\",\"11\",\"4\",\"P\",\"J\",\"35\"
\"\",\"\",\"approach-retreat\",\"184\",\"1368201\",\"0.0-184.0\",\"\",\"\",\"1-1\",\"4531\",\"39\",\"1\",\"Testing\",\"Stims/Figures/19-J-10-4.bmp\",\"tapata\",\"Left\",\"39\",\"2\",\"12\",\"4\",\"P\",\"J\",\"36\"
\"\",\"\",\"approach-retreat\",\"185\",\"1374340\",\"0.0-185.0\",\"\",\"\",\"1-1\",\"4630\",\"40\",\"0\",\"Testing\",\"Stims/Figures/27-C-30-1.bmp\",\"nalana\",\"Up\",\"38\",\"2\",\"13\",\"4\",\"S\",\"J\",\"37\"
\"\",\"\",\"approach-retreat\",\"186\",\"1380237\",\"0.0-186.0\",\"\",\"\",\"1-1\",\"4394\",\"40\",\"0\",\"Testing\",\"Stims/Figures/128-J-10-3.bmp\",\"pa:kaka\",\"Down\",\"38\",\"2\",\"14\",\"4\",\"P\",\"J\",\"38\"
\"\",\"\",\"approach-retreat\",\"187\",\"1387476\",\"0.0-187.0\",\"\",\"\",\"1-1\",\"5732\",\"37\",\"0\",\"Testing\",\"Stims/Figures/144-J-10-3.bmp\",\"pa:ka:ka\",\"Left\",\"39\",\"2\",\"15\",\"4\",\"P\",\"J\",\"39\"
\"\",\"\",\"approach-retreat\",\"188\",\"1393142\",\"0.0-188.0\",\"\",\"\",\"1-1\",\"4159\",\"38\",\"0\",\"Testing\",\"Stims/Figures/27-J-0-1.bmp\",\"ta:pata\",\"Up\",\"40\",\"2\",\"16\",\"4\",\"P\",\"J\",\"40\"
\"\",\"\",\"approach-retreat\",\"189\",\"1398774\",\"0.0-189.0\",\"\",\"\",\"1-1\",\"4124\",\"38\",\"0\",\"Testing\",\"Stims/Figures/111-J-10-3.bmp\",\"pa:ka:ta\",\"Up\",\"40\",\"2\",\"17\",\"4\",\"P\",\"J\",\"41\"
\"\",\"\",\"approach-retreat\",\"190\",\"1405762\",\"0.0-190.0\",\"\",\"\",\"1-1\",\"5485\",\"39\",\"0\",\"Testing\",\"Stims/Figures/94-C-20-2.bmp\",\"ma:ma:na\",\"Left\",\"37\",\"2\",\"18\",\"4\",\"S\",\"J\",\"42\"
\"\",\"\",\"approach-retreat\",\"191\",\"1412401\",\"0.0-191.0\",\"\",\"\",\"1-1\",\"5138\",\"39\",\"1\",\"Testing\",\"Stims/Figures/71-C-30-1.bmp\",\"na:mana\",\"Right\",\"39\",\"2\",\"19\",\"4\",\"S\",\"J\",\"43\"
\"\",\"\",\"approach-retreat\",\"192\",\"1418223\",\"0.0-192.0\",\"\",\"\",\"1-1\",\"4322\",\"40\",\"1\",\"Testing\",\"Stims/Figures/102-C-20-4.bmp\",\"malana\",\"Down\",\"40\",\"2\",\"20\",\"4\",\"S\",\"J\",\"44\"
\"\",\"\",\"approach-retreat\",\"193\",\"1424798\",\"0.0-193.0\",\"\",\"\",\"1-1\",\"5061\",\"39\",\"1\",\"Testing\",\"Stims/Figures/118-C-20-2.bmp\",\"nalala\",\"Right\",\"39\",\"2\",\"21\",\"4\",\"S\",\"J\",\"45\"
\"\",\"\",\"approach-retreat\",\"194\",\"1430862\",\"0.0-194.0\",\"\",\"\",\"1-1\",\"4558\",\"37\",\"0\",\"Testing\",\"Stims/Figures/102-J-10-4.bmp\",\"ta:kata\",\"Left\",\"39\",\"2\",\"22\",\"4\",\"P\",\"J\",\"46\"
\"\",\"\",\"approach-retreat\",\"195\",\"1436502\",\"0.0-195.0\",\"\",\"\",\"1-1\",\"4126\",\"40\",\"1\",\"Testing\",\"Stims/Figures/111-C-30-3.bmp\",\"mama:na\",\"Down\",\"40\",\"2\",\"23\",\"4\",\"S\",\"J\",\"47\"
\"\",\"\",\"approach-retreat\",\"196\",\"1442991\",\"0.0-196.0\",\"\",\"\",\"1-1\",\"4986\",\"39\",\"0\",\"Testing\",\"Stims/Figures/118-J-0-2.bmp\",\"tapa:ta\",\"Right\",\"37\",\"2\",\"24\",\"4\",\"P\",\"J\",\"48\"
\"\",\"\",\"approach-retreat\",\"197\",\"1448641\",\"0.0-197.0\",\"\",\"\",\"1-1\",\"4147\",\"37\",\"1\",\"Testing\",\"Stims/Figures/84-C-20-2.bmp\",\"mamana\",\"Left\",\"37\",\"3\",\"1\",\"4\",\"S\",\"J\",\"49\"
\"\",\"\",\"approach-retreat\",\"198\",\"1454409\",\"0.0-198.0\",\"\",\"\",\"1-1\",\"4264\",\"37\",\"1\",\"Testing\",\"Stims/Figures/111-J-10-3.bmp\",\"pa:ka:ta\",\"Right\",\"37\",\"3\",\"2\",\"4\",\"P\",\"J\",\"50\"
\"\",\"\",\"approach-retreat\",\"199\",\"1460307\",\"0.0-199.0\",\"\",\"\",\"1-1\",\"4395\",\"40\",\"0\",\"Testing\",\"Stims/Figures/86-C-30-1.bmp\",\"ma:mala\",\"Up\",\"38\",\"3\",\"3\",\"4\",\"S\",\"J\",\"51\"
\"\",\"\",\"approach-retreat\",\"200\",\"1467027\",\"0.0-200.0\",\"\",\"\",\"1-1\",\"5211\",\"39\",\"1\",\"Testing\",\"Stims/Figures/27-C-30-1.bmp\",\"nalana\",\"Right\",\"39\",\"3\",\"4\",\"4\",\"S\",\"J\",\"52\"
\"\",\"\",\"approach-retreat\",\"201\",\"1472745\",\"0.0-201.0\",\"\",\"\",\"1-1\",\"4208\",\"40\",\"0\",\"Testing\",\"Stims/Figures/19-J-10-4.bmp\",\"tapata\",\"Down\",\"38\",\"3\",\"5\",\"4\",\"P\",\"J\",\"53\"
\"\",\"\",\"approach-retreat\",\"202\",\"1479599\",\"0.0-202.0\",\"\",\"\",\"1-1\",\"5343\",\"37\",\"0\",\"Testing\",\"Stims/Figures/118-J-0-2.bmp\",\"tapa:ta\",\"Left\",\"39\",\"3\",\"6\",\"4\",\"P\",\"J\",\"54\"
\"\",\"\",\"approach-retreat\",\"203\",\"1486087\",\"0.0-203.0\",\"\",\"\",\"1-1\",\"4976\",\"38\",\"0\",\"Testing\",\"Stims/Figures/71-J-0-1.bmp\",\"tapa:ka\",\"Up\",\"40\",\"3\",\"7\",\"4\",\"P\",\"J\",\"55\"
\"\",\"\",\"approach-retreat\",\"204\",\"1491725\",\"0.0-204.0\",\"\",\"\",\"1-1\",\"4126\",\"39\",\"1\",\"Testing\",\"Stims/Figures/111-C-30-3.bmp\",\"mama:na\",\"Right\",\"39\",\"3\",\"8\",\"4\",\"S\",\"J\",\"56\"
\"\",\"\",\"approach-retreat\",\"205\",\"1499188\",\"0.0-205.0\",\"\",\"\",\"1-1\",\"5950\",\"37\",\"0\",\"Testing\",\"Stims/Figures/87-J-10-4.bmp\",\"tapaka\",\"Left\",\"39\",\"3\",\"9\",\"4\",\"P\",\"J\",\"57\"
\"\",\"\",\"approach-retreat\",\"206\",\"1504991\",\"0.0-206.0\",\"\",\"\",\"1-1\",\"4296\",\"40\",\"1\",\"Testing\",\"Stims/Figures/102-C-20-4.bmp\",\"malana\",\"Down\",\"40\",\"3\",\"10\",\"4\",\"S\",\"J\",\"58\"
\"\",\"\",\"approach-retreat\",\"207\",\"1510636\",\"0.0-207.0\",\"\",\"\",\"1-1\",\"4136\",\"39\",\"0\",\"Testing\",\"Stims/Figures/87-C-20-4.bmp\",\"nala:na\",\"Left\",\"37\",\"3\",\"11\",\"4\",\"S\",\"J\",\"59\"
\"\",\"\",\"approach-retreat\",\"208\",\"1516567\",\"0.0-208.0\",\"\",\"\",\"1-1\",\"4430\",\"37\",\"1\",\"Testing\",\"Stims/Figures/86-J-0-1.bmp\",\"papa:ka\",\"Right\",\"37\",\"3\",\"12\",\"4\",\"P\",\"J\",\"60\"
\"\",\"\",\"approach-retreat\",\"209\",\"1522611\",\"0.0-209.0\",\"\",\"\",\"1-1\",\"4530\",\"40\",\"0\",\"Testing\",\"Stims/Figures/71-C-30-1.bmp\",\"na:mana\",\"Up\",\"38\",\"3\",\"13\",\"4\",\"S\",\"J\",\"61\"
\"\",\"\",\"approach-retreat\",\"210\",\"1528981\",\"0.0-210.0\",\"\",\"\",\"1-1\",\"4864\",\"40\",\"0\",\"Testing\",\"Stims/Figures/128-C-30-3.bmp\",\"na:la:la\",\"Up\",\"38\",\"3\",\"14\",\"4\",\"S\",\"J\",\"62\"
\"\",\"\",\"approach-retreat\",\"211\",\"1535333\",\"0.0-211.0\",\"\",\"\",\"1-1\",\"4837\",\"40\",\"1\",\"Testing\",\"Stims/Figures/118-C-20-2.bmp\",\"nalala\",\"Down\",\"40\",\"3\",\"15\",\"4\",\"S\",\"J\",\"63\"
\"\",\"\",\"approach-retreat\",\"212\",\"1543531\",\"0.0-212.0\",\"\",\"\",\"1-1\",\"6685\",\"39\",\"0\",\"Testing\",\"Stims/Figures/102-J-10-4.bmp\",\"ta:kata\",\"Right\",\"37\",\"3\",\"16\",\"4\",\"P\",\"J\",\"64\"
\"\",\"\",\"approach-retreat\",\"213\",\"1549340\",\"0.0-213.0\",\"\",\"\",\"1-1\",\"4295\",\"39\",\"1\",\"Testing\",\"Stims/Figures/144-C-30-3.bmp\",\"nala:la\",\"Right\",\"39\",\"3\",\"17\",\"4\",\"S\",\"J\",\"65\"
\"\",\"\",\"approach-retreat\",\"214\",\"1555371\",\"0.0-214.0\",\"\",\"\",\"1-1\",\"4520\",\"37\",\"0\",\"Testing\",\"Stims/Figures/27-J-0-1.bmp\",\"ta:pata\",\"Left\",\"39\",\"3\",\"18\",\"4\",\"P\",\"J\",\"66\"
\"\",\"\",\"approach-retreat\",\"215\",\"1561944\",\"0.0-215.0\",\"\",\"\",\"1-1\",\"5065\",\"40\",\"1\",\"Testing\",\"Stims/Figures/94-C-20-2.bmp\",\"ma:ma:na\",\"Down\",\"40\",\"3\",\"19\",\"4\",\"S\",\"J\",\"67\"
\"\",\"\",\"approach-retreat\",\"216\",\"1567891\",\"0.0-216.0\",\"\",\"\",\"1-1\",\"4437\",\"38\",\"0\",\"Testing\",\"Stims/Figures/84-J-0-2.bmp\",\"pakaka\",\"Up\",\"40\",\"3\",\"20\",\"4\",\"P\",\"J\",\"68\"
\"\",\"\",\"approach-retreat\",\"217\",\"1574654\",\"0.0-217.0\",\"\",\"\",\"1-1\",\"5262\",\"38\",\"1\",\"Testing\",\"Stims/Figures/94-J-0-2.bmp\",\"ta:ka:ta\",\"Down\",\"38\",\"3\",\"21\",\"4\",\"P\",\"J\",\"69\"
\"\",\"\",\"approach-retreat\",\"218\",\"1580353\",\"0.0-218.0\",\"\",\"\",\"1-1\",\"4185\",\"38\",\"1\",\"Testing\",\"Stims/Figures/19-C-20-4.bmp\",\"ma:lala\",\"Up\",\"38\",\"3\",\"22\",\"4\",\"S\",\"J\",\"70\"
\"\",\"\",\"approach-retreat\",\"219\",\"1586762\",\"0.0-219.0\",\"\",\"\",\"1-1\",\"4907\",\"37\",\"0\",\"Testing\",\"Stims/Figures/144-J-10-3.bmp\",\"pa:ka:ka\",\"Left\",\"39\",\"3\",\"23\",\"4\",\"P\",\"J\",\"71\"
\"\",\"\",\"approach-retreat\",\"220\",\"1594365\",\"0.0-220.0\",\"\",\"\",\"1-1\",\"6104\",\"40\",\"0\",\"Testing\",\"Stims/Figures/128-J-10-3.bmp\",\"pa:kaka\",\"Down\",\"38\",\"3\",\"24\",\"4\",\"P\",\"J\",\"72\"
\"\",\"\",\"approach-retreat\",\"221\",\"1600164\",\"0.0-221.0\",\"\",\"\",\"1-1\",\"4281\",\"40\",\"1\",\"Testing\",\"Stims/Figures/128-C-30-3.bmp\",\"na:la:la\",\"Down\",\"40\",\"4\",\"1\",\"4\",\"S\",\"J\",\"73\"
\"\",\"\",\"approach-retreat\",\"222\",\"1606112\",\"0.0-222.0\",\"\",\"\",\"1-1\",\"4442\",\"38\",\"1\",\"Testing\",\"Stims/Figures/27-C-30-1.bmp\",\"nalana\",\"Up\",\"38\",\"4\",\"2\",\"4\",\"S\",\"J\",\"74\"
\"\",\"\",\"approach-retreat\",\"223\",\"1613730\",\"0.0-223.0\",\"\",\"\",\"1-1\",\"6106\",\"38\",\"0\",\"Testing\",\"Stims/Figures/71-J-0-1.bmp\",\"tapa:ka\",\"Up\",\"40\",\"4\",\"3\",\"4\",\"P\",\"J\",\"75\"
\"\",\"\",\"approach-retreat\",\"224\",\"1620879\",\"0.0-224.0\",\"\",\"\",\"1-1\",\"5637\",\"39\",\"1\",\"Testing\",\"Stims/Figures/84-C-20-2.bmp\",\"mamana\",\"Right\",\"39\",\"4\",\"4\",\"4\",\"S\",\"J\",\"76\"
\"\",\"\",\"approach-retreat\",\"225\",\"1628934\",\"0.0-225.0\",\"\",\"\",\"1-1\",\"6552\",\"39\",\"0\",\"Testing\",\"Stims/Figures/118-J-0-2.bmp\",\"tapa:ta\",\"Right\",\"37\",\"4\",\"5\",\"4\",\"P\",\"J\",\"77\"
\"\",\"\",\"approach-retreat\",\"226\",\"1634832\",\"0.0-226.0\",\"\",\"\",\"1-1\",\"4389\",\"37\",\"0\",\"Testing\",\"Stims/Figures/84-J-0-2.bmp\",\"pakaka\",\"Left\",\"39\",\"4\",\"6\",\"4\",\"P\",\"J\",\"78\"
\"\",\"\",\"approach-retreat\",\"227\",\"1643782\",\"0.0-227.0\",\"\",\"\",\"1-1\",\"7442\",\"39\",\"0\",\"Testing\",\"Stims/Figures/128-J-10-3.bmp\",\"pa:kaka\",\"Right\",\"37\",\"4\",\"7\",\"4\",\"P\",\"J\",\"79\"
\"\",\"\",\"approach-retreat\",\"228\",\"1650199\",\"0.0-228.0\",\"\",\"\",\"1-1\",\"4911\",\"38\",\"1\",\"Testing\",\"Stims/Figures/86-C-30-1.bmp\",\"ma:mala\",\"Up\",\"38\",\"4\",\"8\",\"4\",\"S\",\"J\",\"80\"
\"\",\"\",\"approach-retreat\",\"229\",\"1657619\",\"0.0-229.0\",\"\",\"\",\"1-1\",\"5900\",\"40\",\"0\",\"Testing\",\"Stims/Figures/102-J-10-4.bmp\",\"ta:kata\",\"Down\",\"38\",\"4\",\"9\",\"4\",\"P\",\"J\",\"81\"
\"\",\"\",\"approach-retreat\",\"230\",\"1666130\",\"0.0-230.0\",\"\",\"\",\"1-1\",\"7010\",\"38\",\"0\",\"Testing\",\"Stims/Figures/144-J-10-3.bmp\",\"pa:ka:ka\",\"Up\",\"40\",\"4\",\"10\",\"4\",\"P\",\"J\",\"82\"
\"\",\"\",\"approach-retreat\",\"231\",\"1673095\",\"0.0-231.0\",\"\",\"\",\"1-1\",\"5452\",\"39\",\"1\",\"Testing\",\"Stims/Figures/27-J-0-1.bmp\",\"ta:pata\",\"Left\",\"39\",\"4\",\"11\",\"4\",\"P\",\"J\",\"83\"
\"\",\"\",\"approach-retreat\",\"232\",\"1681366\",\"0.0-232.0\",\"\",\"\",\"1-1\",\"6771\",\"38\",\"0\",\"Testing\",\"Stims/Figures/111-C-30-3.bmp\",\"mama:na\",\"Down\",\"40\",\"4\",\"12\",\"4\",\"S\",\"J\",\"84\"
\"\",\"\",\"approach-retreat\",\"233\",\"1688347\",\"0.0-233.0\",\"\",\"\",\"1-1\",\"5470\",\"38\",\"1\",\"Testing\",\"Stims/Figures/118-C-20-2.bmp\",\"nalala\",\"Up\",\"38\",\"4\",\"13\",\"4\",\"S\",\"J\",\"85\"
\"\",\"\",\"approach-retreat\",\"234\",\"1696225\",\"0.0-234.0\",\"\",\"\",\"1-1\",\"6377\",\"37\",\"1\",\"Testing\",\"Stims/Figures/102-C-20-4.bmp\",\"malana\",\"Left\",\"37\",\"4\",\"14\",\"4\",\"S\",\"J\",\"86\"
\"\",\"\",\"approach-retreat\",\"235\",\"1705290\",\"0.0-235.0\",\"\",\"\",\"1-1\",\"7559\",\"37\",\"0\",\"Testing\",\"Stims/Figures/19-J-10-4.bmp\",\"tapata\",\"Left\",\"39\",\"4\",\"15\",\"4\",\"P\",\"J\",\"87\"
\"\",\"\",\"approach-retreat\",\"236\",\"1713432\",\"0.0-236.0\",\"\",\"\",\"1-1\",\"6627\",\"39\",\"0\",\"Testing\",\"Stims/Figures/86-J-0-1.bmp\",\"papa:ka\",\"Right\",\"37\",\"4\",\"16\",\"4\",\"P\",\"J\",\"88\"
\"\",\"\",\"approach-retreat\",\"237\",\"1719898\",\"0.0-237.0\",\"\",\"\",\"1-1\",\"4951\",\"39\",\"1\",\"Testing\",\"Stims/Figures/94-C-20-2.bmp\",\"ma:ma:na\",\"Right\",\"39\",\"4\",\"17\",\"4\",\"S\",\"J\",\"89\"
\"\",\"\",\"approach-retreat\",\"238\",\"1725696\",\"0.0-238.0\",\"\",\"\",\"1-1\",\"4293\",\"40\",\"1\",\"Testing\",\"Stims/Figures/71-C-30-1.bmp\",\"na:mana\",\"Down\",\"40\",\"4\",\"18\",\"4\",\"S\",\"J\",\"90\"
\"\",\"\",\"approach-retreat\",\"239\",\"1731750\",\"0.0-239.0\",\"\",\"\",\"1-1\",\"4541\",\"40\",\"0\",\"Testing\",\"Stims/Figures/87-J-10-4.bmp\",\"tapaka\",\"Down\",\"38\",\"4\",\"19\",\"4\",\"P\",\"J\",\"91\"
\"\",\"\",\"approach-retreat\",\"240\",\"1737930\",\"0.0-240.0\",\"\",\"\",\"1-1\",\"4679\",\"37\",\"1\",\"Testing\",\"Stims/Figures/19-C-20-4.bmp\",\"ma:lala\",\"Left\",\"37\",\"4\",\"20\",\"4\",\"S\",\"J\",\"92\"
\"\",\"\",\"approach-retreat\",\"241\",\"1744106\",\"0.0-241.0\",\"\",\"\",\"1-1\",\"4664\",\"39\",\"0\",\"Testing\",\"Stims/Figures/94-J-0-2.bmp\",\"ta:ka:ta\",\"Right\",\"37\",\"4\",\"21\",\"4\",\"P\",\"J\",\"93\"
\"\",\"\",\"approach-retreat\",\"242\",\"1750934\",\"0.0-242.0\",\"\",\"\",\"1-1\",\"5321\",\"40\",\"0\",\"Testing\",\"Stims/Figures/87-C-20-4.bmp\",\"nala:na\",\"Up\",\"38\",\"4\",\"22\",\"4\",\"S\",\"J\",\"94\"
\"\",\"\",\"approach-retreat\",\"243\",\"1757299\",\"0.0-243.0\",\"\",\"\",\"1-1\",\"4854\",\"39\",\"0\",\"Testing\",\"Stims/Figures/144-C-30-3.bmp\",\"nala:la\",\"Left\",\"37\",\"4\",\"23\",\"4\",\"S\",\"J\",\"95\"
\"\",\"\",\"approach-retreat\",\"244\",\"1764962\",\"0.0-244.0\",\"\",\"\",\"1-1\",\"6149\",\"40\",\"0\",\"Testing\",\"Stims/Figures/111-J-10-3.bmp\",\"pa:ka:ta\",\"Down\",\"38\",\"4\",\"24\",\"4\",\"P\",\"J\",\"96\"
\"28009\",\"\",\"survey-text\",\"245\",\"1792971\",\"0.0-245.0\",\"\",\"{\"\"Q0\"\":\"\"1422\"\"}\",\"\",\"\",\"\",\"\",\"\",\"\",\"\",\"\",\"\",\"\",\"\",\"\",\"\",\"\",\"\"
