"rt","key_press","trial_type","trial_index","time_elapsed","internal_node_id","view_history","responses","Id","Rt","ResKeyCode","ResCorr","TrialType2","Image","Label","Location","CorrectResponse","Block","BlockTrial","Condition","LabelType","Subcondition","trialNum"
"74084","32","text","0","74101","0.0-0.0-0.0","","","","","","","","","","","","","","","","",""
"107267","","instructions","1","181375","0.0-1.0","[{""page_index"":0,""viewing_time"":107263}]","","","","","","","","","","","","","","","",""
"88605","","survey-multi-choice","2","270111","0.0-2.0","","{""Q0"":""Da"",""Q1"":""Da"",""Q2"":""Da"",""Q3"":""Da"",""Q4"":""Da"",""Q5"":""Da""}","","","","","","","","","","","","","","",""
"","","bio","3","290166","0.0-3.0","","{""age"":""18"",""gender"":""f"",""specify"":""""}","","","","","","","","","","","","","","",""
"","","approach-retreat","4","333700","0.0-4.0","","","3-5","42009","40","0","Training","Stims/Figures/111-C-30-3.bmp","ma:mana","Up","38","1","1","7","S","J","1"
"","","approach-retreat","5","356540","0.0-5.0","","","3-5","21296","39","1","Training","Stims/Figures/100-J-10-3.bmp","mamana","Left","39","1","2","7","S","J","2"
"","","approach-retreat","6","377656","0.0-6.0","","","3-5","19574","40","0","Training","Stims/Figures/111-J-10-3.bmp","malana","Down","38","1","3","7","S","J","3"
"","","approach-retreat","7","402777","0.0-7.0","","","3-5","23585","39","1","Training","Stims/Figures/85-C-20-2.bmp","pa:ka:ta","Right","39","1","4","7","P","J","4"
"","","approach-retreat","8","413257","0.0-8.0","","","3-5","8956","39","0","Training","Stims/Figures/139-C-20-2.bmp","paka:ka","Left","37","1","5","7","P","J","5"
"","","approach-retreat","9","436374","0.0-9.0","","","3-5","21580","40","0","Training","Stims/Figures/74-J-10-4.bmp","nama:la","Down","38","1","6","7","S","J","6"
"","","approach-retreat","10","451176","0.0-10.0","","","3-5","13263","38","0","Training","Stims/Figures/74-C-20-4.bmp","ma:la:la","Down","40","1","7","7","S","J","7"
"","","approach-retreat","11","463261","0.0-11.0","","","3-5","10542","39","1","Training","Stims/Figures/100-C-30-3.bmp","mamala","Right","39","1","8","7","S","J","8"
"","","approach-retreat","12","470703","0.0-12.0","","","3-5","5907","39","0","Training","Stims/Figures/19-C-20-4.bmp","na:lala","Left","37","1","9","7","S","J","9"
"","","approach-retreat","13","488870","0.0-13.0","","","3-5","16632","38","1","Training","Stims/Figures/71-J-0-1.bmp","papata","Down","38","1","10","7","P","J","10"
"","","approach-retreat","14","499303","0.0-14.0","","","3-5","8893","39","0","Training","Stims/Figures/139-J-0-2.bmp","ta:ka:ka","Right","37","1","11","7","P","J","11"
"","","approach-retreat","15","512890","0.0-15.0","","","3-5","12047","38","0","Training","Stims/Figures/85-J-0-2.bmp","pa:ka:ka","Up","40","1","12","7","P","J","12"
"","","approach-retreat","16","535114","0.0-16.0","","","3-5","20691","38","1","Training","Stims/Figures/57-C-30-1.bmp","taka:ta","Up","38","1","13","7","P","J","13"
"","","approach-retreat","17","541472","0.0-17.0","","","3-5","4819","38","1","Training","Stims/Figures/71-C-30-1.bmp","ta:kaka","Up","38","1","14","7","P","J","14"
"","","approach-retreat","18","549578","0.0-18.0","","","3-5","6565","39","0","Training","Stims/Figures/19-J-10-4.bmp","malala","Right","37","1","15","7","S","J","15"
"","","approach-retreat","19","564015","0.0-19.0","","","3-5","12897","37","0","Training","Stims/Figures/57-J-0-1.bmp","ta:pa:ta","Left","39","1","16","7","P","J","16"
"","","approach-retreat","20","572088","0.0-20.0","","","3-5","6545","39","1","Training","Stims/Figures/74-J-10-4.bmp","nama:la","Left","39","2","1","7","S","J","17"
"","","approach-retreat","21","581973","0.0-21.0","","","3-5","8346","37","0","Training","Stims/Figures/100-J-10-3.bmp","mamana","Left","39","2","2","7","S","J","18"
"","","approach-retreat","22","601335","0.0-22.0","","","3-5","17822","37","1","Training","Stims/Figures/85-C-20-2.bmp","pa:ka:ta","Left","37","2","3","7","P","J","19"
"","","approach-retreat","23","611193","0.0-23.0","","","3-5","8322","38","0","Training","Stims/Figures/57-J-0-1.bmp","ta:pa:ta","Up","40","2","4","7","P","J","20"
"","","approach-retreat","24","627346","0.0-24.0","","","3-5","14612","40","1","Training","Stims/Figures/71-C-30-1.bmp","ta:kaka","Down","40","2","5","7","P","J","21"
"","","approach-retreat","25","634446","0.0-25.0","","","3-5","5559","40","0","Training","Stims/Figures/19-J-10-4.bmp","malala","Down","38","2","6","7","S","J","22"
"","","approach-retreat","26","641082","0.0-26.0","","","3-5","5113","40","1","Training","Stims/Figures/57-C-30-1.bmp","taka:ta","Down","40","2","7","7","P","J","23"
"","","approach-retreat","27","651977","0.0-27.0","","","3-5","9353","39","0","Training","Stims/Figures/139-J-0-2.bmp","ta:ka:ka","Right","37","2","8","7","P","J","24"
"","","approach-retreat","28","660920","0.0-28.0","","","3-5","7403","37","0","Training","Stims/Figures/100-C-30-3.bmp","mamala","Right","39","2","9","7","S","J","25"
"","","approach-retreat","29","673856","0.0-29.0","","","3-5","11399","40","1","Training","Stims/Figures/71-J-0-1.bmp","papata","Up","40","2","10","7","P","J","26"
"","","approach-retreat","30","687843","0.0-30.0","","","3-5","12451","38","0","Training","Stims/Figures/139-C-20-2.bmp","paka:ka","Down","40","2","11","7","P","J","27"
"","","approach-retreat","31","695225","0.0-31.0","","","3-5","5842","38","1","Training","Stims/Figures/111-C-30-3.bmp","ma:mana","Up","38","2","12","7","S","J","28"
"","","approach-retreat","32","705462","0.0-32.0","","","3-5","8697","38","1","Training","Stims/Figures/74-C-20-4.bmp","ma:la:la","Up","38","2","13","7","S","J","29"
"","","approach-retreat","33","722792","0.0-33.0","","","3-5","15788","39","0","Training","Stims/Figures/19-C-20-4.bmp","na:lala","Left","37","2","14","7","S","J","30"
"","","approach-retreat","34","729640","0.0-34.0","","","3-5","5308","39","0","Training","Stims/Figures/111-J-10-3.bmp","malana","Right","37","2","15","7","S","J","31"
"","","approach-retreat","35","736505","0.0-35.0","","","3-5","5331","39","0","Training","Stims/Figures/85-J-0-2.bmp","pa:ka:ka","Right","37","2","16","7","P","J","32"
"","","approach-retreat","36","743205","0.0-36.0","","","3-5","5162","39","1","Training","Stims/Figures/111-C-30-3.bmp","ma:mana","Right","39","3","1","7","S","J","33"
"","","approach-retreat","37","751291","0.0-37.0","","","3-5","6545","39","1","Training","Stims/Figures/85-J-0-2.bmp","pa:ka:ka","Left","39","3","2","7","P","J","34"
"","","approach-retreat","38","759589","0.0-38.0","","","3-5","6757","39","0","Training","Stims/Figures/19-C-20-4.bmp","na:lala","Left","37","3","3","7","S","J","35"
"","","approach-retreat","39","767641","0.0-39.0","","","3-5","6511","38","0","Training","Stims/Figures/100-J-10-3.bmp","mamana","Up","40","3","4","7","S","J","36"
"","","approach-retreat","40","775477","0.0-40.0","","","3-5","6303","37","1","Training","Stims/Figures/139-C-20-2.bmp","paka:ka","Left","37","3","5","7","P","J","37"
"","","approach-retreat","41","788091","0.0-41.0","","","3-5","11075","38","0","Training","Stims/Figures/111-J-10-3.bmp","malana","Up","40","3","6","7","S","J","38"
"","","approach-retreat","42","798318","0.0-42.0","","","3-5","8686","39","0","Training","Stims/Figures/57-C-30-1.bmp","taka:ta","Left","37","3","7","7","P","J","39"
"","","approach-retreat","43","821677","0.0-43.0","","","3-5","21826","38","1","Training","Stims/Figures/139-J-0-2.bmp","ta:ka:ka","Down","38","3","8","7","P","J","40"
"","","approach-retreat","44","831630","0.0-44.0","","","3-5","8413","38","1","Training","Stims/Figures/85-C-20-2.bmp","pa:ka:ta","Up","38","3","9","7","P","J","41"
"","","approach-retreat","45","838999","0.0-45.0","","","3-5","5833","38","1","Training","Stims/Figures/19-J-10-4.bmp","malala","Down","38","3","10","7","S","J","42"
"","","approach-retreat","46","847225","0.0-46.0","","","3-5","6683","39","0","Training","Stims/Figures/71-J-0-1.bmp","papata","Right","37","3","11","7","P","J","43"
"","","approach-retreat","47","854199","0.0-47.0","","","3-5","5439","38","0","Training","Stims/Figures/100-C-30-3.bmp","mamala","Down","40","3","12","7","S","J","44"
"","","approach-retreat","48","861397","0.0-48.0","","","3-5","5660","40","1","Training","Stims/Figures/74-C-20-4.bmp","ma:la:la","Down","40","3","13","7","S","J","45"
"","","approach-retreat","49","868608","0.0-49.0","","","3-5","5672","38","0","Training","Stims/Figures/57-J-0-1.bmp","ta:pa:ta","Up","40","3","14","7","P","J","46"
"","","approach-retreat","50","917285","0.0-50.0","","","3-5","47140","39","1","Training","Stims/Figures/71-C-30-1.bmp","ta:kaka","Right","39","3","15","7","P","J","47"
"","","approach-retreat","51","951059","0.0-51.0","","","3-5","32234","39","0","Training","Stims/Figures/74-J-10-4.bmp","nama:la","Right","37","3","16","7","S","J","48"
"","","approach-retreat","52","975149","0.0-52.0","","","3-5","22550","37","0","Training","Stims/Figures/85-C-20-2.bmp","pa:ka:ta","Right","39","4","1","7","P","J","49"
"","","approach-retreat","53","1001321","0.0-53.0","","","3-5","24631","37","0","Training","Stims/Figures/100-J-10-3.bmp","mamana","Left","39","4","2","7","S","J","50"
"","","approach-retreat","54","1033499","0.0-54.0","","","3-5","30641","40","0","Training","Stims/Figures/111-J-10-3.bmp","malana","Down","38","4","3","7","S","J","51"
"","","approach-retreat","55","1071520","0.0-55.0","","","3-5","36488","39","1","Training","Stims/Figures/57-C-30-1.bmp","taka:ta","Right","39","4","4","7","P","J","52"
"","","approach-retreat","56","1107318","0.0-56.0","","","3-5","34263","38","1","Training","Stims/Figures/100-C-30-3.bmp","mamala","Up","38","4","5","7","S","J","53"
"","","approach-retreat","57","1147186","0.0-57.0","","","3-5","38332","37","0","Training","Stims/Figures/111-C-30-3.bmp","ma:mana","Right","39","4","6","7","S","J","54"
"","","approach-retreat","58","1157094","0.0-58.0","","","3-5","8366","37","1","Training","Stims/Figures/74-J-10-4.bmp","nama:la","Right","37","4","7","7","S","J","55"
"","","approach-retreat","59","1211075","0.0-59.0","","","3-5","52443","38","1","Training","Stims/Figures/57-J-0-1.bmp","ta:pa:ta","Down","38","4","8","7","P","J","56"
"","","approach-retreat","60","1239526","0.0-60.0","","","3-5","26915","38","1","Training","Stims/Figures/85-J-0-2.bmp","pa:ka:ka","Down","38","4","9","7","P","J","57"
"","","approach-retreat","61","1257462","0.0-61.0","","","3-5","16399","40","0","Training","Stims/Figures/74-C-20-4.bmp","ma:la:la","Up","38","4","10","7","S","J","58"
"","","approach-retreat","62","1275576","0.0-62.0","","","3-5","16577","39","0","Training","Stims/Figures/19-C-20-4.bmp","na:lala","Left","37","4","11","7","S","J","59"
"","","approach-retreat","63","1315992","0.0-63.0","","","3-5","38869","38","1","Training","Stims/Figures/139-J-0-2.bmp","ta:ka:ka","Down","38","4","12","7","P","J","60"
"","","approach-retreat","64","1343167","0.0-64.0","","","3-5","25664","37","0","Training","Stims/Figures/19-J-10-4.bmp","malala","Left","39","4","13","7","S","J","61"
"","","approach-retreat","65","1358376","0.0-65.0","","","3-5","13674","39","0","Training","Stims/Figures/139-C-20-2.bmp","paka:ka","Left","37","4","14","7","P","J","62"
"","","approach-retreat","66","1380327","0.0-66.0","","","3-5","20412","38","1","Training","Stims/Figures/71-C-30-1.bmp","ta:kaka","Up","38","4","15","7","P","J","63"
"","","approach-retreat","67","1398826","0.0-67.0","","","3-5","16965","38","0","Training","Stims/Figures/71-J-0-1.bmp","papata","Up","40","4","16","7","P","J","64"
"","","approach-retreat","68","1413364","0.0-68.0","","","3-5","13000","38","0","Training","Stims/Figures/100-J-10-3.bmp","mamana","Up","40","5","1","7","S","J","65"
"","","approach-retreat","69","1420672","0.0-69.0","","","3-5","5771","40","0","Training","Stims/Figures/57-J-0-1.bmp","ta:pa:ta","Down","38","5","2","7","P","J","66"
"","","approach-retreat","70","1428064","0.0-70.0","","","3-5","5857","37","0","Training","Stims/Figures/85-J-0-2.bmp","pa:ka:ka","Left","39","5","3","7","P","J","67"
"","","approach-retreat","71","1435235","0.0-71.0","","","3-5","5632","38","1","Training","Stims/Figures/71-C-30-1.bmp","ta:kaka","Up","38","5","4","7","P","J","68"
"","","approach-retreat","72","1441950","0.0-72.0","","","3-5","5177","38","0","Training","Stims/Figures/139-C-20-2.bmp","paka:ka","Down","40","5","5","7","P","J","69"
"","","approach-retreat","73","1448175","0.0-73.0","","","3-5","4688","38","1","Training","Stims/Figures/111-C-30-3.bmp","ma:mana","Up","38","5","6","7","S","J","70"
"","","approach-retreat","74","1455126","0.0-74.0","","","3-5","5415","37","1","Training","Stims/Figures/100-C-30-3.bmp","mamala","Left","37","5","7","7","S","J","71"
"","","approach-retreat","75","1461489","0.0-75.0","","","3-5","4826","39","0","Training","Stims/Figures/139-J-0-2.bmp","ta:ka:ka","Right","37","5","8","7","P","J","72"
"","","approach-retreat","76","1469376","0.0-76.0","","","3-5","6351","40","0","Training","Stims/Figures/74-J-10-4.bmp","nama:la","Down","38","5","9","7","S","J","73"
"","","approach-retreat","77","1476094","0.0-77.0","","","3-5","5181","37","0","Training","Stims/Figures/111-J-10-3.bmp","malana","Left","39","5","10","7","S","J","74"
"","","approach-retreat","78","1482887","0.0-78.0","","","3-5","5252","38","1","Training","Stims/Figures/57-C-30-1.bmp","taka:ta","Up","38","5","11","7","P","J","75"
"","","approach-retreat","79","1502083","0.0-79.0","","","3-5","17661","39","0","Training","Stims/Figures/71-J-0-1.bmp","papata","Right","37","5","12","7","P","J","76"
"","","approach-retreat","80","1508666","0.0-80.0","","","3-5","5042","40","1","Training","Stims/Figures/19-C-20-4.bmp","na:lala","Down","40","5","13","7","S","J","77"
"","","approach-retreat","81","1515147","0.0-81.0","","","3-5","4944","39","1","Training","Stims/Figures/74-C-20-4.bmp","ma:la:la","Right","39","5","14","7","S","J","78"
"","","approach-retreat","82","1522537","0.0-82.0","","","3-5","5851","37","1","Training","Stims/Figures/85-C-20-2.bmp","pa:ka:ta","Left","37","5","15","7","P","J","79"
"","","approach-retreat","83","1528969","0.0-83.0","","","3-5","4893","39","0","Training","Stims/Figures/19-J-10-4.bmp","malala","Right","37","5","16","7","S","J","80"
"","","approach-retreat","84","1536099","0.0-84.0","","","3-5","5579","38","0","Training","Stims/Figures/57-J-0-1.bmp","ta:pa:ta","Up","40","6","1","7","P","J","81"
"","","approach-retreat","85","1543936","0.0-85.0","","","3-5","6297","39","1","Training","Stims/Figures/19-C-20-4.bmp","na:lala","Right","39","6","2","7","S","J","82"
"","","approach-retreat","86","1550896","0.0-86.0","","","3-5","5419","40","1","Training","Stims/Figures/85-C-20-2.bmp","pa:ka:ta","Down","40","6","3","7","P","J","83"
"","","approach-retreat","87","1557210","0.0-87.0","","","3-5","4775","40","1","Training","Stims/Figures/139-C-20-2.bmp","paka:ka","Down","40","6","4","7","P","J","84"
"","","approach-retreat","88","1564853","0.0-88.0","","","3-5","6104","37","0","Training","Stims/Figures/71-J-0-1.bmp","papata","Left","39","6","5","7","P","J","85"
"","","approach-retreat","89","1572808","0.0-89.0","","","3-5","6443","38","1","Training","Stims/Figures/100-C-30-3.bmp","mamala","Up","38","6","6","7","S","J","86"
"","","approach-retreat","90","1579782","0.0-90.0","","","3-5","5432","39","0","Training","Stims/Figures/111-J-10-3.bmp","malana","Right","37","6","7","7","S","J","87"
"","","approach-retreat","91","1600605","0.0-91.0","","","3-5","19287","38","1","Training","Stims/Figures/57-C-30-1.bmp","taka:ta","Up","38","6","8","7","P","J","88"
"","","approach-retreat","92","1607605","0.0-92.0","","","3-5","5465","37","0","Training","Stims/Figures/100-J-10-3.bmp","mamana","Left","39","6","9","7","S","J","89"
"","","approach-retreat","93","1616682","0.0-93.0","","","3-5","7545","39","0","Training","Stims/Figures/19-J-10-4.bmp","malala","Right","37","6","10","7","S","J","90"
"","","approach-retreat","94","1623409","0.0-94.0","","","3-5","5203","40","0","Training","Stims/Figures/74-J-10-4.bmp","nama:la","Down","38","6","11","7","S","J","91"
"","","approach-retreat","95","1629752","0.0-95.0","","","3-5","4829","37","0","Training","Stims/Figures/139-J-0-2.bmp","ta:ka:ka","Left","39","6","12","7","P","J","92"
"","","approach-retreat","96","1636175","0.0-96.0","","","3-5","4910","40","1","Training","Stims/Figures/111-C-30-3.bmp","ma:mana","Down","40","6","13","7","S","J","93"
"","","approach-retreat","97","1642331","0.0-97.0","","","3-5","4633","38","0","Training","Stims/Figures/85-J-0-2.bmp","pa:ka:ka","Up","40","6","14","7","P","J","94"
"","","approach-retreat","98","1648496","0.0-98.0","","","3-5","4650","39","1","Training","Stims/Figures/71-C-30-1.bmp","ta:kaka","Right","39","6","15","7","P","J","95"
"","","approach-retreat","99","1654869","0.0-99.0","","","3-5","4852","37","1","Training","Stims/Figures/74-C-20-4.bmp","ma:la:la","Left","37","6","16","7","S","J","96"
"","","approach-retreat","100","1662127","0.0-100.0","","","3-5","5742","37","0","Training","Stims/Figures/100-J-10-3.bmp","mamana","Left","39","7","1","7","S","J","97"
"","","approach-retreat","101","1668212","0.0-101.0","","","3-5","4570","37","1","Training","Stims/Figures/111-C-30-3.bmp","ma:mana","Left","37","7","2","7","S","J","98"
"","","approach-retreat","102","1674690","0.0-102.0","","","3-5","4962","38","1","Training","Stims/Figures/100-C-30-3.bmp","mamala","Up","38","7","3","7","S","J","99"
"","","approach-retreat","103","1681933","0.0-103.0","","","3-5","5727","38","1","Training","Stims/Figures/19-C-20-4.bmp","na:lala","Up","38","7","4","7","S","J","100"
"","","approach-retreat","104","1689673","0.0-104.0","","","3-5","6226","40","1","Training","Stims/Figures/139-C-20-2.bmp","paka:ka","Down","40","7","5","7","P","J","101"
"","","approach-retreat","105","1697356","0.0-105.0","","","3-5","6171","40","0","Training","Stims/Figures/57-J-0-1.bmp","ta:pa:ta","Down","38","7","6","7","P","J","102"
"","","approach-retreat","106","1703819","0.0-106.0","","","3-5","4947","37","0","Training","Stims/Figures/111-J-10-3.bmp","malana","Left","39","7","7","7","S","J","103"
"","","approach-retreat","107","1710004","0.0-107.0","","","3-5","4669","37","0","Training","Stims/Figures/74-J-10-4.bmp","nama:la","Left","39","7","8","7","S","J","104"
"","","approach-retreat","108","1716316","0.0-108.0","","","3-5","4796","40","1","Training","Stims/Figures/57-C-30-1.bmp","taka:ta","Down","40","7","9","7","P","J","105"
"","","approach-retreat","109","1723100","0.0-109.0","","","3-5","5264","39","1","Training","Stims/Figures/85-C-20-2.bmp","pa:ka:ta","Right","39","7","10","7","P","J","106"
"","","approach-retreat","110","1729360","0.0-110.0","","","3-5","4748","39","0","Training","Stims/Figures/71-J-0-1.bmp","papata","Right","37","7","11","7","P","J","107"
"","","approach-retreat","111","1736029","0.0-111.0","","","3-5","5155","38","0","Training","Stims/Figures/19-J-10-4.bmp","malala","Up","40","7","12","7","S","J","108"
"","","approach-retreat","112","1742962","0.0-112.0","","","3-5","5419","40","1","Training","Stims/Figures/71-C-30-1.bmp","ta:kaka","Down","40","7","13","7","P","J","109"
"","","approach-retreat","113","1749230","0.0-113.0","","","3-5","4749","38","1","Training","Stims/Figures/74-C-20-4.bmp","ma:la:la","Up","38","7","14","7","S","J","110"
"","","approach-retreat","114","1756437","0.0-114.0","","","3-5","5690","37","1","Training","Stims/Figures/85-J-0-2.bmp","pa:ka:ka","Right","37","7","15","7","P","J","111"
"","","approach-retreat","115","1762867","0.0-115.0","","","3-5","4916","37","1","Training","Stims/Figures/139-J-0-2.bmp","ta:ka:ka","Right","37","7","16","7","P","J","112"
"","","approach-retreat","116","1770324","0.0-116.0","","","3-5","5941","39","1","Training","Stims/Figures/74-C-20-4.bmp","ma:la:la","Right","39","8","1","7","S","J","113"
"","","approach-retreat","117","1777821","0.0-117.0","","","3-5","5971","37","0","Training","Stims/Figures/139-C-20-2.bmp","paka:ka","Right","39","8","2","7","P","J","114"
"","","approach-retreat","118","1784575","0.0-118.0","","","3-5","5237","38","0","Training","Stims/Figures/19-J-10-4.bmp","malala","Up","40","8","3","7","S","J","115"
"","","approach-retreat","119","1791254","0.0-119.0","","","3-5","5162","37","1","Training","Stims/Figures/100-C-30-3.bmp","mamala","Left","37","8","4","7","S","J","116"
"","","approach-retreat","120","1797655","0.0-120.0","","","3-5","4882","38","0","Training","Stims/Figures/100-J-10-3.bmp","mamana","Up","40","8","5","7","S","J","117"
"","","approach-retreat","121","1804405","0.0-121.0","","","3-5","5236","40","1","Training","Stims/Figures/71-C-30-1.bmp","ta:kaka","Down","40","8","6","7","P","J","118"
"","","approach-retreat","122","1810558","0.0-122.0","","","3-5","4640","37","1","Training","Stims/Figures/19-C-20-4.bmp","na:lala","Left","37","8","7","7","S","J","119"
"","","approach-retreat","123","1818484","0.0-123.0","","","3-5","6408","39","1","Training","Stims/Figures/111-C-30-3.bmp","ma:mana","Right","39","8","8","7","S","J","120"
"","","approach-retreat","124","1825125","0.0-124.0","","","3-5","5125","38","1","Training","Stims/Figures/85-C-20-2.bmp","pa:ka:ta","Up","38","8","9","7","P","J","121"
"","","approach-retreat","125","1831390","0.0-125.0","","","3-5","4745","37","0","Training","Stims/Figures/139-J-0-2.bmp","ta:ka:ka","Left","39","8","10","7","P","J","122"
"","","approach-retreat","126","1837723","0.0-126.0","","","3-5","4813","40","0","Training","Stims/Figures/57-J-0-1.bmp","ta:pa:ta","Down","38","8","11","7","P","J","123"
"","","approach-retreat","127","1844106","0.0-127.0","","","3-5","4868","38","0","Training","Stims/Figures/71-J-0-1.bmp","papata","Up","40","8","12","7","P","J","124"
"","","approach-retreat","128","1850717","0.0-128.0","","","3-5","5088","39","0","Training","Stims/Figures/111-J-10-3.bmp","malana","Right","37","8","13","7","S","J","125"
"","","approach-retreat","129","1875060","0.0-129.0","","","3-5","22827","40","0","Training","Stims/Figures/74-J-10-4.bmp","nama:la","Down","38","8","14","7","S","J","126"
"","","approach-retreat","130","1880987","0.0-130.0","","","3-5","4412","40","0","Training","Stims/Figures/85-J-0-2.bmp","pa:ka:ka","Down","38","8","15","7","P","J","127"
"","","approach-retreat","131","1889235","0.0-131.0","","","3-5","6734","37","1","Training","Stims/Figures/57-C-30-1.bmp","taka:ta","Left","37","8","16","7","P","J","128"
"","","approach-retreat","132","1927461","0.0-132.0","","","3-5","36711","39","1","Training","Stims/Figures/74-C-20-4.bmp","ma:la:la","Right","39","9","1","7","S","J","129"
"","","approach-retreat","133","1934325","0.0-133.0","","","3-5","5348","39","0","Training","Stims/Figures/57-J-0-1.bmp","ta:pa:ta","Right","37","9","2","7","P","J","130"
"","","approach-retreat","134","1942469","0.0-134.0","","","3-5","6627","38","0","Training","Stims/Figures/19-C-20-4.bmp","na:lala","Down","40","9","3","7","S","J","131"
"","","approach-retreat","135","1949137","0.0-135.0","","","3-5","5142","38","1","Training","Stims/Figures/71-C-30-1.bmp","ta:kaka","Up","38","9","4","7","P","J","132"
"","","approach-retreat","136","1956175","0.0-136.0","","","3-5","5524","40","1","Training","Stims/Figures/139-J-0-2.bmp","ta:ka:ka","Up","40","9","5","7","P","J","133"
"","","approach-retreat","137","1962632","0.0-137.0","","","3-5","4939","37","0","Training","Stims/Figures/85-J-0-2.bmp","pa:ka:ka","Left","39","9","6","7","P","J","134"
"","","approach-retreat","138","1978870","0.0-138.0","","","3-5","14722","39","0","Training","Stims/Figures/71-J-0-1.bmp","papata","Right","37","9","7","7","P","J","135"
"","","approach-retreat","139","1985040","0.0-139.0","","","3-5","4649","38","1","Training","Stims/Figures/111-C-30-3.bmp","ma:mana","Up","38","9","8","7","S","J","136"
"","","approach-retreat","140","1991083","0.0-140.0","","","3-5","4531","37","0","Training","Stims/Figures/19-J-10-4.bmp","malala","Left","39","9","9","7","S","J","137"
"","","approach-retreat","141","1997965","0.0-141.0","","","3-5","5366","40","0","Training","Stims/Figures/100-J-10-3.bmp","mamana","Down","38","9","10","7","S","J","138"
"","","approach-retreat","142","2004875","0.0-142.0","","","3-5","5389","37","1","Training","Stims/Figures/57-C-30-1.bmp","taka:ta","Left","37","9","11","7","P","J","139"
"","","approach-retreat","143","2011462","0.0-143.0","","","3-5","5066","39","0","Training","Stims/Figures/85-C-20-2.bmp","pa:ka:ta","Left","37","9","12","7","P","J","140"
"","","approach-retreat","144","2018151","0.0-144.0","","","3-5","5174","39","0","Training","Stims/Figures/74-J-10-4.bmp","nama:la","Right","37","9","13","7","S","J","141"
"","","approach-retreat","145","2024491","0.0-145.0","","","3-5","4822","40","1","Training","Stims/Figures/139-C-20-2.bmp","paka:ka","Down","40","9","14","7","P","J","142"
"","","approach-retreat","146","2032383","0.0-146.0","","","3-5","6377","38","0","Training","Stims/Figures/111-J-10-3.bmp","malana","Up","40","9","15","7","S","J","143"
"","","approach-retreat","147","2039331","0.0-147.0","","","3-5","5430","40","1","Training","Stims/Figures/100-C-30-3.bmp","mamala","Down","40","9","16","7","S","J","144"
"37440","","instructions","148","2076772","0.0-148.0","[{""page_index"":0,""viewing_time"":37439}]","","","","","","","","","","","","","","","",""
"","","approach-retreat","149","2100244","0.0-149.0","","","3-5","21943","40","1","Testing","Stims/Figures/102-C-20-4.bmp","na:mala","Down","40","1","1","7","S","J","1"
"","","approach-retreat","150","2109851","0.0-150.0","","","3-5","8077","39","0","Testing","Stims/Figures/57-J-0-1.bmp","ta:pa:ta","Right","37","1","2","7","P","J","2"
"","","approach-retreat","151","2116686","0.0-151.0","","","3-5","5305","40","1","Testing","Stims/Figures/57-C-30-1.bmp","taka:ta","Down","40","1","3","7","P","J","3"
"","","approach-retreat","152","2123153","0.0-152.0","","","3-5","4936","40","0","Testing","Stims/Figures/19-J-10-4.bmp","malala","Down","38","1","4","7","S","J","4"
"","","approach-retreat","153","2133326","0.0-153.0","","","3-5","8645","38","1","Testing","Stims/Figures/85-C-20-2.bmp","pa:ka:ta","Up","38","1","5","7","P","J","5"
"","","approach-retreat","154","2142065","0.0-154.0","","","3-5","7209","38","1","Testing","Stims/Figures/93-C-30-1.bmp","pa:pa:ka","Up","38","1","6","7","P","J","6"
"","","approach-retreat","155","2150411","0.0-155.0","","","3-5","6815","39","1","Testing","Stims/Figures/71-J-0-1.bmp","papata","Left","39","1","7","7","P","J","7"
"","","approach-retreat","156","2156763","0.0-156.0","","","3-5","4822","38","1","Testing","Stims/Figures/94-C-20-2.bmp","ta:pata","Up","38","1","8","7","P","J","8"
"","","approach-retreat","157","2167989","0.0-157.0","","","3-5","9700","37","0","Testing","Stims/Figures/139-C-20-2.bmp","paka:ka","Right","39","1","9","7","P","J","9"
"","","approach-retreat","158","2175989","0.0-158.0","","","3-5","6468","37","1","Testing","Stims/Figures/74-J-10-4.bmp","nama:la","Right","37","1","10","7","S","J","10"
"","","approach-retreat","159","2183328","0.0-159.0","","","3-5","5806","37","1","Testing","Stims/Figures/19-C-20-4.bmp","na:lala","Left","37","1","11","7","S","J","11"
"","","approach-retreat","160","2196317","0.0-160.0","","","3-5","11460","40","1","Testing","Stims/Figures/128-C-30-3.bmp","nama:na","Down","40","1","12","7","S","J","12"
"","","approach-retreat","161","2205282","0.0-161.0","","","3-5","7434","38","0","Testing","Stims/Figures/111-C-30-3.bmp","ma:mana","Down","40","1","13","7","S","J","13"
"","","approach-retreat","162","2213491","0.0-162.0","","","3-5","6678","37","0","Testing","Stims/Figures/102-J-10-4.bmp","namala","Left","39","1","14","7","S","J","14"
"","","approach-retreat","163","2222693","0.0-163.0","","","3-5","7659","37","0","Testing","Stims/Figures/139-J-0-2.bmp","ta:ka:ka","Left","39","1","15","7","P","J","15"
"","","approach-retreat","164","2231202","0.0-164.0","","","3-5","6985","39","0","Testing","Stims/Figures/93-J-0-1.bmp","ta:kata","Right","37","1","16","7","P","J","16"
"","","approach-retreat","165","2247312","0.0-165.0","","","3-5","14573","39","0","Testing","Stims/Figures/100-J-10-3.bmp","mamana","Right","37","1","17","7","S","J","17"
"","","approach-retreat","166","2255112","0.0-166.0","","","3-5","6268","40","0","Testing","Stims/Figures/111-J-10-3.bmp","malana","Down","38","1","18","7","S","J","18"
"","","approach-retreat","167","2263395","0.0-167.0","","","3-5","6740","38","0","Testing","Stims/Figures/128-J-10-3.bmp","nala:na","Up","40","1","19","7","S","J","19"
"","","approach-retreat","168","2278636","0.0-168.0","","","3-5","13712","37","0","Testing","Stims/Figures/94-J-0-2.bmp","takata","Left","39","1","20","7","P","J","20"
"","","approach-retreat","169","2297014","0.0-169.0","","","3-5","16848","39","1","Testing","Stims/Figures/74-C-20-4.bmp","ma:la:la","Right","39","1","21","7","S","J","21"
"","","approach-retreat","170","2304727","0.0-170.0","","","3-5","6182","40","1","Testing","Stims/Figures/85-J-0-2.bmp","pa:ka:ka","Up","40","1","22","7","P","J","22"
"","","approach-retreat","171","2310808","0.0-171.0","","","3-5","4550","38","1","Testing","Stims/Figures/71-C-30-1.bmp","ta:kaka","Up","38","1","23","7","P","J","23"
"","","approach-retreat","172","2320954","0.0-172.0","","","3-5","8617","37","1","Testing","Stims/Figures/100-C-30-3.bmp","mamala","Left","37","1","24","7","S","J","24"
"","","approach-retreat","173","2327812","0.0-173.0","","","3-5","5328","39","1","Testing","Stims/Figures/100-C-30-3.bmp","mamala","Right","39","2","1","7","S","J","25"
"","","approach-retreat","174","2334565","0.0-174.0","","","3-5","5221","37","1","Testing","Stims/Figures/128-C-30-3.bmp","nama:na","Left","37","2","2","7","S","J","26"
"","","approach-retreat","175","2341150","0.0-175.0","","","3-5","5056","38","0","Testing","Stims/Figures/57-J-0-1.bmp","ta:pa:ta","Up","40","2","3","7","P","J","27"
"","","approach-retreat","176","2348459","0.0-176.0","","","3-5","5780","38","0","Testing","Stims/Figures/57-C-30-1.bmp","taka:ta","Down","40","2","4","7","P","J","28"
"","","approach-retreat","177","2355210","0.0-177.0","","","3-5","5221","40","0","Testing","Stims/Figures/111-C-30-3.bmp","ma:mana","Up","38","2","5","7","S","J","29"
"","","approach-retreat","178","2361812","0.0-178.0","","","3-5","5069","39","1","Testing","Stims/Figures/19-C-20-4.bmp","na:lala","Right","39","2","6","7","S","J","30"
"","","approach-retreat","179","2367770","0.0-179.0","","","3-5","4427","40","0","Testing","Stims/Figures/94-C-20-2.bmp","ta:pata","Up","38","2","7","7","P","J","31"
"","","approach-retreat","180","2374359","0.0-180.0","","","3-5","5058","40","0","Testing","Stims/Figures/111-J-10-3.bmp","malana","Down","38","2","8","7","S","J","32"
"","","approach-retreat","181","2384374","0.0-181.0","","","3-5","8488","40","0","Testing","Stims/Figures/139-J-0-2.bmp","ta:ka:ka","Down","38","2","9","7","P","J","33"
"","","approach-retreat","182","2391269","0.0-182.0","","","3-5","5365","37","0","Testing","Stims/Figures/128-J-10-3.bmp","nala:na","Left","39","2","10","7","S","J","34"
"","","approach-retreat","183","2397843","0.0-183.0","","","3-5","5045","37","1","Testing","Stims/Figures/74-C-20-4.bmp","ma:la:la","Left","37","2","11","7","S","J","35"
"","","approach-retreat","184","2441805","0.0-184.0","","","3-5","42431","39","1","Testing","Stims/Figures/93-C-30-1.bmp","pa:pa:ka","Right","39","2","12","7","P","J","36"
"","","approach-retreat","185","2458489","0.0-185.0","","","3-5","15154","37","0","Testing","Stims/Figures/71-J-0-1.bmp","papata","Left","39","2","13","7","P","J","37"
"","","approach-retreat","186","2465241","0.0-186.0","","","3-5","5224","37","0","Testing","Stims/Figures/74-J-10-4.bmp","nama:la","Left","39","2","14","7","S","J","38"
"","","approach-retreat","187","2471406","0.0-187.0","","","3-5","4634","37","1","Testing","Stims/Figures/71-C-30-1.bmp","ta:kaka","Left","37","2","15","7","P","J","39"
"","","approach-retreat","188","2478449","0.0-188.0","","","3-5","5514","39","0","Testing","Stims/Figures/100-J-10-3.bmp","mamana","Right","37","2","16","7","S","J","40"
"","","approach-retreat","189","2487376","0.0-189.0","","","3-5","7396","38","1","Testing","Stims/Figures/102-C-20-4.bmp","na:mala","Up","38","2","17","7","S","J","41"
"","","approach-retreat","190","2493774","0.0-190.0","","","3-5","4868","38","0","Testing","Stims/Figures/19-J-10-4.bmp","malala","Up","40","2","18","7","S","J","42"
"","","approach-retreat","191","2500198","0.0-191.0","","","3-5","4894","39","1","Testing","Stims/Figures/139-C-20-2.bmp","paka:ka","Right","39","2","19","7","P","J","43"
"","","approach-retreat","192","2506329","0.0-192.0","","","3-5","4601","40","0","Testing","Stims/Figures/102-J-10-4.bmp","namala","Down","38","2","20","7","S","J","44"
"","","approach-retreat","193","2514856","0.0-193.0","","","3-5","6995","39","1","Testing","Stims/Figures/85-C-20-2.bmp","pa:ka:ta","Right","39","2","21","7","P","J","45"
"","","approach-retreat","194","2525187","0.0-194.0","","","3-5","8804","40","0","Testing","Stims/Figures/94-J-0-2.bmp","takata","Down","38","2","22","7","P","J","46"
"","","approach-retreat","195","2544448","0.0-195.0","","","3-5","17730","38","0","Testing","Stims/Figures/93-J-0-1.bmp","ta:kata","Up","40","2","23","7","P","J","47"
"","","approach-retreat","196","2551128","0.0-196.0","","","3-5","5151","40","0","Testing","Stims/Figures/85-J-0-2.bmp","pa:ka:ka","Down","38","2","24","7","P","J","48"
"","","approach-retreat","197","2557024","0.0-197.0","","","3-5","4367","40","1","Testing","Stims/Figures/128-C-30-3.bmp","nama:na","Down","40","3","1","7","S","J","49"
"","","approach-retreat","198","2563820","0.0-198.0","","","3-5","5267","37","1","Testing","Stims/Figures/93-C-30-1.bmp","pa:pa:ka","Left","37","3","2","7","P","J","50"
"","","approach-retreat","199","2569949","0.0-199.0","","","3-5","4598","37","1","Testing","Stims/Figures/94-C-20-2.bmp","ta:pata","Left","37","3","3","7","P","J","51"
"","","approach-retreat","200","2576432","0.0-200.0","","","3-5","4953","37","0","Testing","Stims/Figures/111-J-10-3.bmp","malana","Left","39","3","4","7","S","J","52"
"","","approach-retreat","201","2582301","0.0-201.0","","","3-5","4341","37","0","Testing","Stims/Figures/102-J-10-4.bmp","namala","Left","39","3","5","7","S","J","53"
"","","approach-retreat","202","2587982","0.0-202.0","","","3-5","4150","39","1","Testing","Stims/Figures/71-C-30-1.bmp","ta:kaka","Right","39","3","6","7","P","J","54"
"","","approach-retreat","203","2594273","0.0-203.0","","","3-5","4760","37","1","Testing","Stims/Figures/94-J-0-2.bmp","takata","Right","37","3","7","7","P","J","55"
"","","approach-retreat","204","2600241","0.0-204.0","","","3-5","4438","39","0","Testing","Stims/Figures/57-J-0-1.bmp","ta:pa:ta","Right","37","3","8","7","P","J","56"
"","","approach-retreat","205","2606866","0.0-205.0","","","3-5","5096","40","0","Testing","Stims/Figures/100-J-10-3.bmp","mamana","Down","38","3","9","7","S","J","57"
"","","approach-retreat","206","2616446","0.0-206.0","","","3-5","8037","40","0","Testing","Stims/Figures/74-J-10-4.bmp","nama:la","Down","38","3","10","7","S","J","58"
"","","approach-retreat","207","2625528","0.0-207.0","","","3-5","7553","39","1","Testing","Stims/Figures/57-C-30-1.bmp","taka:ta","Right","39","3","11","7","P","J","59"
"","","approach-retreat","208","2634331","0.0-208.0","","","3-5","7272","40","0","Testing","Stims/Figures/19-J-10-4.bmp","malala","Down","38","3","12","7","S","J","60"
"","","approach-retreat","209","2640322","0.0-209.0","","","3-5","4462","39","1","Testing","Stims/Figures/111-C-30-3.bmp","ma:mana","Right","39","3","13","7","S","J","61"
"","","approach-retreat","210","2646120","0.0-210.0","","","3-5","4268","40","0","Testing","Stims/Figures/19-C-20-4.bmp","na:lala","Up","38","3","14","7","S","J","62"
"","","approach-retreat","211","2653776","0.0-211.0","","","3-5","6125","40","1","Testing","Stims/Figures/102-C-20-4.bmp","na:mala","Down","40","3","15","7","S","J","63"
"","","approach-retreat","212","2685079","0.0-212.0","","","3-5","29774","38","0","Testing","Stims/Figures/139-J-0-2.bmp","ta:ka:ka","Up","40","3","16","7","P","J","64"
"","","approach-retreat","213","2692239","0.0-213.0","","","3-5","5629","37","0","Testing","Stims/Figures/85-J-0-2.bmp","pa:ka:ka","Left","39","3","17","7","P","J","65"
"","","approach-retreat","214","2699306","0.0-214.0","","","3-5","5537","38","0","Testing","Stims/Figures/93-J-0-1.bmp","ta:kata","Up","40","3","18","7","P","J","66"
"","","approach-retreat","215","2705610","0.0-215.0","","","3-5","4779","38","0","Testing","Stims/Figures/128-J-10-3.bmp","nala:na","Up","40","3","19","7","S","J","67"
"","","approach-retreat","216","2711680","0.0-216.0","","","3-5","4540","38","0","Testing","Stims/Figures/71-J-0-1.bmp","papata","Up","40","3","20","7","P","J","68"
"","","approach-retreat","217","2719502","0.0-217.0","","","3-5","6292","38","1","Testing","Stims/Figures/100-C-30-3.bmp","mamala","Up","38","3","21","7","S","J","69"
"","","approach-retreat","218","2726419","0.0-218.0","","","3-5","5387","37","1","Testing","Stims/Figures/139-C-20-2.bmp","paka:ka","Left","37","3","22","7","P","J","70"
"","","approach-retreat","219","2732927","0.0-219.0","","","3-5","4980","40","1","Testing","Stims/Figures/85-C-20-2.bmp","pa:ka:ta","Down","40","3","23","7","P","J","71"
"","","approach-retreat","220","2739313","0.0-220.0","","","3-5","4855","39","1","Testing","Stims/Figures/74-C-20-4.bmp","ma:la:la","Right","39","3","24","7","S","J","72"
"","","approach-retreat","221","2746006","0.0-221.0","","","3-5","5163","39","0","Testing","Stims/Figures/19-J-10-4.bmp","malala","Right","37","4","1","7","S","J","73"
"","","approach-retreat","222","2753540","0.0-222.0","","","3-5","6002","40","0","Testing","Stims/Figures/128-J-10-3.bmp","nala:na","Down","38","4","2","7","S","J","74"
"","","approach-retreat","223","2762138","0.0-223.0","","","3-5","7069","37","1","Testing","Stims/Figures/74-C-20-4.bmp","ma:la:la","Left","37","4","3","7","S","J","75"
"","","approach-retreat","224","2768158","0.0-224.0","","","3-5","4490","37","1","Testing","Stims/Figures/71-C-30-1.bmp","ta:kaka","Left","37","4","4","7","P","J","76"
"","","approach-retreat","225","2774404","0.0-225.0","","","3-5","4718","37","1","Testing","Stims/Figures/85-C-20-2.bmp","pa:ka:ta","Left","37","4","5","7","P","J","77"
"","","approach-retreat","226","2780518","0.0-226.0","","","3-5","4585","38","1","Testing","Stims/Figures/94-C-20-2.bmp","ta:pata","Up","38","4","6","7","P","J","78"
"","","approach-retreat","227","2787028","0.0-227.0","","","3-5","4981","40","1","Testing","Stims/Figures/139-C-20-2.bmp","paka:ka","Down","40","4","7","7","P","J","79"
"","","approach-retreat","228","2793979","0.0-228.0","","","3-5","5421","38","1","Testing","Stims/Figures/128-C-30-3.bmp","nama:na","Up","38","4","8","7","S","J","80"
"","","approach-retreat","229","2800890","0.0-229.0","","","3-5","5381","39","1","Testing","Stims/Figures/57-C-30-1.bmp","taka:ta","Right","39","4","9","7","P","J","81"
"","","approach-retreat","230","2808178","0.0-230.0","","","3-5","5762","40","0","Testing","Stims/Figures/139-J-0-2.bmp","ta:ka:ka","Down","38","4","10","7","P","J","82"
"","","approach-retreat","231","2814484","0.0-231.0","","","3-5","4775","39","0","Testing","Stims/Figures/111-J-10-3.bmp","malana","Right","37","4","11","7","S","J","83"
"","","approach-retreat","232","2821001","0.0-232.0","","","3-5","4987","39","1","Testing","Stims/Figures/19-C-20-4.bmp","na:lala","Right","39","4","12","7","S","J","84"
"","","approach-retreat","233","2827363","0.0-233.0","","","3-5","4828","38","0","Testing","Stims/Figures/85-J-0-2.bmp","pa:ka:ka","Up","40","4","13","7","P","J","85"
"","","approach-retreat","234","2836955","0.0-234.0","","","3-5","8071","37","0","Testing","Stims/Figures/74-J-10-4.bmp","nama:la","Left","39","4","14","7","S","J","86"
"","","approach-retreat","235","2843297","0.0-235.0","","","3-5","4812","38","1","Testing","Stims/Figures/111-C-30-3.bmp","ma:mana","Up","38","4","15","7","S","J","87"
"","","approach-retreat","236","2850437","0.0-236.0","","","3-5","5611","38","1","Testing","Stims/Figures/100-J-10-3.bmp","mamana","Down","38","4","16","7","S","J","88"
"","","approach-retreat","237","2856928","0.0-237.0","","","3-5","4961","38","1","Testing","Stims/Figures/57-J-0-1.bmp","ta:pa:ta","Down","38","4","17","7","P","J","89"
"","","approach-retreat","238","2865412","0.0-238.0","","","3-5","6957","37","1","Testing","Stims/Figures/93-C-30-1.bmp","pa:pa:ka","Left","37","4","18","7","P","J","90"
"","","approach-retreat","239","2871672","0.0-239.0","","","3-5","4727","39","0","Testing","Stims/Figures/94-J-0-2.bmp","takata","Right","37","4","19","7","P","J","91"
"","","approach-retreat","240","2878165","0.0-240.0","","","3-5","4972","38","1","Testing","Stims/Figures/100-C-30-3.bmp","mamala","Up","38","4","20","7","S","J","92"
"","","approach-retreat","241","2884287","0.0-241.0","","","3-5","4593","38","0","Testing","Stims/Figures/102-C-20-4.bmp","na:mala","Down","40","4","21","7","S","J","93"
"","","approach-retreat","242","2890360","0.0-242.0","","","3-5","4543","39","0","Testing","Stims/Figures/71-J-0-1.bmp","papata","Right","37","4","22","7","P","J","94"
"","","approach-retreat","243","2896649","0.0-243.0","","","3-5","4756","38","0","Testing","Stims/Figures/93-J-0-1.bmp","ta:kata","Up","40","4","23","7","P","J","95"
"","","approach-retreat","244","2902457","0.0-244.0","","","3-5","4279","37","0","Testing","Stims/Figures/102-J-10-4.bmp","namala","Left","39","4","24","7","S","J","96"
"326422","","survey-text","245","3228901","0.0-245.0","","{""Q0"":""PS1014""}","","","","","","","","","","","","","","",""
