\"rt\",\"key_press\",\"trial_type\",\"trial_index\",\"time_elapsed\",\"internal_node_id\",\"view_history\",\"responses\",\"Id\",\"Rt\",\"ResKeyCode\",\"ResCorr\",\"TrialType2\",\"Image\",\"Label\",\"Location\",\"CorrectResponse\",\"Block\",\"BlockTrial\",\"Condition\",\"LabelType\",\"Subcondition\",\"trialNum\"
\"43919\",\"32\",\"text\",\"0\",\"43923\",\"0.0-0.0-0.0\",\"\",\"\",\"\",\"\",\"\",\"\",\"\",\"\",\"\",\"\",\"\",\"\",\"\",\"\",\"\",\"\",\"\"
\"87249\",\"\",\"instructions\",\"1\",\"131176\",\"0.0-1.0\",\"[{\"\"page_index\"\":0,\"\"viewing_time\"\":87248}]\",\"\",\"\",\"\",\"\",\"\",\"\",\"\",\"\",\"\",\"\",\"\",\"\",\"\",\"\",\"\",\"\"
\"78075\",\"\",\"survey-multi-choice\",\"2\",\"209290\",\"0.0-2.0\",\"\",\"{\"\"Q0\"\":\"\"Da\"\",\"\"Q1\"\":\"\"Da\"\",\"\"Q2\"\":\"\"Da\"\",\"\"Q3\"\":\"\"Da\"\",\"\"Q4\"\":\"\"Da\"\",\"\"Q5\"\":\"\"Da\"\"}\",\"\",\"\",\"\",\"\",\"\",\"\",\"\",\"\",\"\",\"\",\"\",\"\",\"\",\"\",\"\"
\"\",\"\",\"bio\",\"3\",\"223809\",\"0.0-3.0\",\"\",\"{\"\"age\"\":\"\"19\"\",\"\"gender\"\":\"\"f\"\",\"\"specify\"\":\"\"\"\"}\",\"\",\"\",\"\",\"\",\"\",\"\",\"\",\"\",\"\",\"\",\"\",\"\",\"\",\"\",\"\"
\"\",\"\",\"approach-retreat\",\"4\",\"236929\",\"0.0-4.0\",\"\",\"\",\"2-1\",\"11615\",\"37\",\"1\",\"Training\",\"Stims/Figures/7-J-10-4.bmp\",\"sasaha\",\"Left\",\"37\",\"1\",\"1\",\"9\",\"C2\",\"C\",\"1\"
\"\",\"\",\"approach-retreat\",\"5\",\"244526\",\"0.0-5.0\",\"\",\"\",\"2-1\",\"6087\",\"39\",\"0\",\"Training\",\"Stims/Figures/86-J-0-1.bmp\",\"vafa:va\",\"Left\",\"37\",\"1\",\"2\",\"9\",\"C1\",\"C\",\"2\"
\"\",\"\",\"approach-retreat\",\"6\",\"253423\",\"0.0-6.0\",\"\",\"\",\"2-1\",\"7387\",\"40\",\"0\",\"Training\",\"Stims/Figures/85-C-20-2.bmp\",\"sa:sa:za\",\"Down\",\"38\",\"1\",\"3\",\"9\",\"C2\",\"C\",\"3\"
\"\",\"\",\"approach-retreat\",\"7\",\"261063\",\"0.0-7.0\",\"\",\"\",\"2-1\",\"6131\",\"39\",\"0\",\"Training\",\"Stims/Figures/27-C-30-1.bmp\",\"fa:sha:sha\",\"Right\",\"37\",\"1\",\"4\",\"9\",\"C1\",\"C\",\"4\"
\"\",\"\",\"approach-retreat\",\"8\",\"271986\",\"0.0-8.0\",\"\",\"\",\"2-1\",\"9414\",\"37\",\"0\",\"Training\",\"Stims/Figures/139-C-20-2.bmp\",\"na:lana\",\"Left\",\"39\",\"1\",\"5\",\"9\",\"S\",\"C\",\"5\"
\"\",\"\",\"approach-retreat\",\"9\",\"279764\",\"0.0-9.0\",\"\",\"\",\"2-1\",\"6270\",\"40\",\"1\",\"Training\",\"Stims/Figures/144-J-10-3.bmp\",\"fashasha\",\"Down\",\"40\",\"1\",\"6\",\"9\",\"C1\",\"C\",\"6\"
\"\",\"\",\"approach-retreat\",\"10\",\"288552\",\"0.0-10.0\",\"\",\"\",\"2-1\",\"7279\",\"39\",\"0\",\"Training\",\"Stims/Figures/7-C-20-4.bmp\",\"ta:pa:ta\",\"Right\",\"37\",\"1\",\"7\",\"9\",\"P\",\"C\",\"7\"
\"\",\"\",\"approach-retreat\",\"11\",\"296348\",\"0.0-11.0\",\"\",\"\",\"2-1\",\"6286\",\"37\",\"1\",\"Training\",\"Stims/Figures/87-C-20-4.bmp\",\"nala:la\",\"Right\",\"37\",\"1\",\"8\",\"9\",\"S\",\"C\",\"8\"
\"\",\"\",\"approach-retreat\",\"12\",\"304585\",\"0.0-12.0\",\"\",\"\",\"2-1\",\"6725\",\"38\",\"1\",\"Training\",\"Stims/Figures/85-J-0-2.bmp\",\"ta:ka:ka\",\"Up\",\"38\",\"1\",\"9\",\"9\",\"P\",\"C\",\"9\"
\"\",\"\",\"approach-retreat\",\"13\",\"313333\",\"0.0-13.0\",\"\",\"\",\"2-1\",\"7240\",\"38\",\"0\",\"Training\",\"Stims/Figures/128-C-30-3.bmp\",\"sa:ha:ha\",\"Up\",\"40\",\"1\",\"10\",\"9\",\"C2\",\"C\",\"10\"
\"\",\"\",\"approach-retreat\",\"14\",\"320709\",\"0.0-14.0\",\"\",\"\",\"2-1\",\"5867\",\"38\",\"0\",\"Training\",\"Stims/Figures/86-C-30-1.bmp\",\"saha:ha\",\"Up\",\"40\",\"1\",\"11\",\"9\",\"C2\",\"C\",\"11\"
\"\",\"\",\"approach-retreat\",\"15\",\"326880\",\"0.0-15.0\",\"\",\"\",\"2-1\",\"4661\",\"37\",\"1\",\"Training\",\"Stims/Figures/87-J-10-4.bmp\",\"na:la:la\",\"Left\",\"37\",\"1\",\"12\",\"9\",\"S\",\"C\",\"12\"
\"\",\"\",\"approach-retreat\",\"16\",\"333958\",\"0.0-16.0\",\"\",\"\",\"2-1\",\"5570\",\"38\",\"1\",\"Training\",\"Stims/Figures/128-J-10-3.bmp\",\"na:mana\",\"Up\",\"38\",\"1\",\"13\",\"9\",\"S\",\"C\",\"13\"
\"\",\"\",\"approach-retreat\",\"17\",\"341224\",\"0.0-17.0\",\"\",\"\",\"2-1\",\"5759\",\"39\",\"0\",\"Training\",\"Stims/Figures/144-C-30-3.bmp\",\"za:saza\",\"Right\",\"37\",\"1\",\"14\",\"9\",\"C2\",\"C\",\"14\"
\"\",\"\",\"approach-retreat\",\"18\",\"347826\",\"0.0-18.0\",\"\",\"\",\"2-1\",\"5094\",\"40\",\"1\",\"Training\",\"Stims/Figures/139-J-0-2.bmp\",\"pa:pa:ka\",\"Down\",\"40\",\"1\",\"15\",\"9\",\"P\",\"C\",\"15\"
\"\",\"\",\"approach-retreat\",\"19\",\"354792\",\"0.0-19.0\",\"\",\"\",\"2-1\",\"5455\",\"38\",\"0\",\"Training\",\"Stims/Figures/27-J-0-1.bmp\",\"mama:la\",\"Down\",\"40\",\"1\",\"16\",\"9\",\"S\",\"C\",\"16\"
\"\",\"\",\"approach-retreat\",\"20\",\"362113\",\"0.0-20.0\",\"\",\"\",\"2-1\",\"5814\",\"40\",\"0\",\"Training\",\"Stims/Figures/86-J-0-1.bmp\",\"vafa:va\",\"Up\",\"38\",\"2\",\"1\",\"9\",\"C1\",\"C\",\"17\"
\"\",\"\",\"approach-retreat\",\"21\",\"368077\",\"0.0-21.0\",\"\",\"\",\"2-1\",\"4456\",\"37\",\"1\",\"Training\",\"Stims/Figures/7-J-10-4.bmp\",\"sasaha\",\"Left\",\"37\",\"2\",\"2\",\"9\",\"C2\",\"C\",\"18\"
\"\",\"\",\"approach-retreat\",\"22\",\"373992\",\"0.0-22.0\",\"\",\"\",\"2-1\",\"4407\",\"38\",\"1\",\"Training\",\"Stims/Figures/85-J-0-2.bmp\",\"ta:ka:ka\",\"Up\",\"38\",\"2\",\"3\",\"9\",\"P\",\"C\",\"19\"
\"\",\"\",\"approach-retreat\",\"23\",\"380112\",\"0.0-23.0\",\"\",\"\",\"2-1\",\"4613\",\"39\",\"1\",\"Training\",\"Stims/Figures/85-C-20-2.bmp\",\"sa:sa:za\",\"Left\",\"39\",\"2\",\"4\",\"9\",\"C2\",\"C\",\"20\"
\"\",\"\",\"approach-retreat\",\"24\",\"386882\",\"0.0-24.0\",\"\",\"\",\"2-1\",\"5261\",\"39\",\"1\",\"Training\",\"Stims/Figures/27-J-0-1.bmp\",\"mama:la\",\"Right\",\"39\",\"2\",\"5\",\"9\",\"S\",\"C\",\"21\"
\"\",\"\",\"approach-retreat\",\"25\",\"393677\",\"0.0-25.0\",\"\",\"\",\"2-1\",\"5286\",\"39\",\"0\",\"Training\",\"Stims/Figures/139-C-20-2.bmp\",\"na:lana\",\"Right\",\"37\",\"2\",\"6\",\"9\",\"S\",\"C\",\"22\"
\"\",\"\",\"approach-retreat\",\"26\",\"400386\",\"0.0-26.0\",\"\",\"\",\"2-1\",\"5201\",\"40\",\"1\",\"Training\",\"Stims/Figures/87-C-20-4.bmp\",\"nala:la\",\"Up\",\"40\",\"2\",\"7\",\"9\",\"S\",\"C\",\"23\"
\"\",\"\",\"approach-retreat\",\"27\",\"406261\",\"0.0-27.0\",\"\",\"\",\"2-1\",\"4366\",\"38\",\"0\",\"Training\",\"Stims/Figures/87-J-10-4.bmp\",\"na:la:la\",\"Down\",\"40\",\"2\",\"8\",\"9\",\"S\",\"C\",\"24\"
\"\",\"\",\"approach-retreat\",\"28\",\"412108\",\"0.0-28.0\",\"\",\"\",\"2-1\",\"4340\",\"38\",\"1\",\"Training\",\"Stims/Figures/128-C-30-3.bmp\",\"sa:ha:ha\",\"Down\",\"38\",\"2\",\"9\",\"9\",\"C2\",\"C\",\"25\"
\"\",\"\",\"approach-retreat\",\"29\",\"418966\",\"0.0-29.0\",\"\",\"\",\"2-1\",\"5348\",\"37\",\"1\",\"Training\",\"Stims/Figures/128-J-10-3.bmp\",\"na:mana\",\"Left\",\"37\",\"2\",\"10\",\"9\",\"S\",\"C\",\"26\"
\"\",\"\",\"approach-retreat\",\"30\",\"425482\",\"0.0-30.0\",\"\",\"\",\"2-1\",\"5007\",\"39\",\"1\",\"Training\",\"Stims/Figures/27-C-30-1.bmp\",\"fa:sha:sha\",\"Left\",\"39\",\"2\",\"11\",\"9\",\"C1\",\"C\",\"27\"
\"\",\"\",\"approach-retreat\",\"31\",\"431786\",\"0.0-31.0\",\"\",\"\",\"2-1\",\"4795\",\"39\",\"1\",\"Training\",\"Stims/Figures/139-J-0-2.bmp\",\"pa:pa:ka\",\"Right\",\"39\",\"2\",\"12\",\"9\",\"P\",\"C\",\"28\"
\"\",\"\",\"approach-retreat\",\"32\",\"437734\",\"0.0-32.0\",\"\",\"\",\"2-1\",\"4439\",\"38\",\"0\",\"Training\",\"Stims/Figures/7-C-20-4.bmp\",\"ta:pa:ta\",\"Up\",\"40\",\"2\",\"13\",\"9\",\"P\",\"C\",\"29\"
\"\",\"\",\"approach-retreat\",\"33\",\"444126\",\"0.0-33.0\",\"\",\"\",\"2-1\",\"4883\",\"39\",\"0\",\"Training\",\"Stims/Figures/86-C-30-1.bmp\",\"saha:ha\",\"Right\",\"37\",\"2\",\"14\",\"9\",\"C2\",\"C\",\"30\"
\"\",\"\",\"approach-retreat\",\"34\",\"451677\",\"0.0-34.0\",\"\",\"\",\"2-1\",\"6042\",\"40\",\"0\",\"Training\",\"Stims/Figures/144-C-30-3.bmp\",\"za:saza\",\"Down\",\"38\",\"2\",\"15\",\"9\",\"C2\",\"C\",\"31\"
\"\",\"\",\"approach-retreat\",\"35\",\"457362\",\"0.0-35.0\",\"\",\"\",\"2-1\",\"4175\",\"38\",\"0\",\"Training\",\"Stims/Figures/144-J-10-3.bmp\",\"fashasha\",\"Down\",\"40\",\"2\",\"16\",\"9\",\"C1\",\"C\",\"32\"
\"\",\"\",\"approach-retreat\",\"36\",\"464061\",\"0.0-36.0\",\"\",\"\",\"2-1\",\"5191\",\"37\",\"1\",\"Training\",\"Stims/Figures/144-J-10-3.bmp\",\"fashasha\",\"Left\",\"37\",\"3\",\"1\",\"9\",\"C1\",\"C\",\"33\"
\"\",\"\",\"approach-retreat\",\"37\",\"470101\",\"0.0-37.0\",\"\",\"\",\"2-1\",\"4532\",\"37\",\"1\",\"Training\",\"Stims/Figures/85-C-20-2.bmp\",\"sa:sa:za\",\"Right\",\"37\",\"3\",\"2\",\"9\",\"C2\",\"C\",\"34\"
\"\",\"\",\"approach-retreat\",\"38\",\"475899\",\"0.0-38.0\",\"\",\"\",\"2-1\",\"4287\",\"39\",\"0\",\"Training\",\"Stims/Figures/128-J-10-3.bmp\",\"na:mana\",\"Left\",\"37\",\"3\",\"3\",\"9\",\"S\",\"C\",\"35\"
\"\",\"\",\"approach-retreat\",\"39\",\"481645\",\"0.0-39.0\",\"\",\"\",\"2-1\",\"4237\",\"40\",\"1\",\"Training\",\"Stims/Figures/87-C-20-4.bmp\",\"nala:la\",\"Up\",\"40\",\"3\",\"4\",\"9\",\"S\",\"C\",\"36\"
\"\",\"\",\"approach-retreat\",\"40\",\"487280\",\"0.0-40.0\",\"\",\"\",\"2-1\",\"4127\",\"39\",\"1\",\"Training\",\"Stims/Figures/27-C-30-1.bmp\",\"fa:sha:sha\",\"Left\",\"39\",\"3\",\"5\",\"9\",\"C1\",\"C\",\"37\"
\"\",\"\",\"approach-retreat\",\"41\",\"493018\",\"0.0-41.0\",\"\",\"\",\"2-1\",\"4228\",\"38\",\"0\",\"Training\",\"Stims/Figures/128-C-30-3.bmp\",\"sa:ha:ha\",\"Up\",\"40\",\"3\",\"6\",\"9\",\"C2\",\"C\",\"38\"
\"\",\"\",\"approach-retreat\",\"42\",\"499381\",\"0.0-42.0\",\"\",\"\",\"2-1\",\"4854\",\"37\",\"1\",\"Training\",\"Stims/Figures/144-C-30-3.bmp\",\"za:saza\",\"Right\",\"37\",\"3\",\"7\",\"9\",\"C2\",\"C\",\"39\"
\"\",\"\",\"approach-retreat\",\"43\",\"505150\",\"0.0-43.0\",\"\",\"\",\"2-1\",\"4261\",\"38\",\"0\",\"Training\",\"Stims/Figures/87-J-10-4.bmp\",\"na:la:la\",\"Down\",\"40\",\"3\",\"8\",\"9\",\"S\",\"C\",\"40\"
\"\",\"\",\"approach-retreat\",\"44\",\"511019\",\"0.0-44.0\",\"\",\"\",\"2-1\",\"4360\",\"40\",\"1\",\"Training\",\"Stims/Figures/86-C-30-1.bmp\",\"saha:ha\",\"Up\",\"40\",\"3\",\"9\",\"9\",\"C2\",\"C\",\"41\"
\"\",\"\",\"approach-retreat\",\"45\",\"517812\",\"0.0-45.0\",\"\",\"\",\"2-1\",\"5283\",\"39\",\"1\",\"Training\",\"Stims/Figures/85-J-0-2.bmp\",\"ta:ka:ka\",\"Right\",\"39\",\"3\",\"10\",\"9\",\"P\",\"C\",\"42\"
\"\",\"\",\"approach-retreat\",\"46\",\"523927\",\"0.0-46.0\",\"\",\"\",\"2-1\",\"4607\",\"39\",\"0\",\"Training\",\"Stims/Figures/7-C-20-4.bmp\",\"ta:pa:ta\",\"Right\",\"37\",\"3\",\"11\",\"9\",\"P\",\"C\",\"43\"
\"\",\"\",\"approach-retreat\",\"47\",\"529959\",\"0.0-47.0\",\"\",\"\",\"2-1\",\"4524\",\"40\",\"1\",\"Training\",\"Stims/Figures/139-J-0-2.bmp\",\"pa:pa:ka\",\"Down\",\"40\",\"3\",\"12\",\"9\",\"P\",\"C\",\"44\"
\"\",\"\",\"approach-retreat\",\"48\",\"535698\",\"0.0-48.0\",\"\",\"\",\"2-1\",\"4231\",\"39\",\"0\",\"Training\",\"Stims/Figures/7-J-10-4.bmp\",\"sasaha\",\"Left\",\"37\",\"3\",\"13\",\"9\",\"C2\",\"C\",\"45\"
\"\",\"\",\"approach-retreat\",\"49\",\"541558\",\"0.0-49.0\",\"\",\"\",\"2-1\",\"4353\",\"38\",\"1\",\"Training\",\"Stims/Figures/86-J-0-1.bmp\",\"vafa:va\",\"Up\",\"38\",\"3\",\"14\",\"9\",\"C1\",\"C\",\"46\"
\"\",\"\",\"approach-retreat\",\"50\",\"547380\",\"0.0-50.0\",\"\",\"\",\"2-1\",\"4314\",\"40\",\"1\",\"Training\",\"Stims/Figures/27-J-0-1.bmp\",\"mama:la\",\"Down\",\"40\",\"3\",\"15\",\"9\",\"S\",\"C\",\"47\"
\"\",\"\",\"approach-retreat\",\"51\",\"553180\",\"0.0-51.0\",\"\",\"\",\"2-1\",\"4292\",\"38\",\"1\",\"Training\",\"Stims/Figures/139-C-20-2.bmp\",\"na:lana\",\"Down\",\"38\",\"3\",\"16\",\"9\",\"S\",\"C\",\"48\"
\"\",\"\",\"approach-retreat\",\"52\",\"559054\",\"0.0-52.0\",\"\",\"\",\"2-1\",\"4366\",\"39\",\"0\",\"Training\",\"Stims/Figures/7-C-20-4.bmp\",\"ta:pa:ta\",\"Right\",\"37\",\"4\",\"1\",\"9\",\"P\",\"C\",\"49\"
\"\",\"\",\"approach-retreat\",\"53\",\"565126\",\"0.0-53.0\",\"\",\"\",\"2-1\",\"4564\",\"39\",\"1\",\"Training\",\"Stims/Figures/85-J-0-2.bmp\",\"ta:ka:ka\",\"Right\",\"39\",\"4\",\"2\",\"9\",\"P\",\"C\",\"50\"
\"\",\"\",\"approach-retreat\",\"54\",\"571363\",\"0.0-54.0\",\"\",\"\",\"2-1\",\"4728\",\"40\",\"1\",\"Training\",\"Stims/Figures/27-J-0-1.bmp\",\"mama:la\",\"Down\",\"40\",\"4\",\"3\",\"9\",\"S\",\"C\",\"51\"
\"\",\"\",\"approach-retreat\",\"55\",\"576986\",\"0.0-55.0\",\"\",\"\",\"2-1\",\"4113\",\"39\",\"1\",\"Training\",\"Stims/Figures/139-C-20-2.bmp\",\"na:lana\",\"Left\",\"39\",\"4\",\"4\",\"9\",\"S\",\"C\",\"52\"
\"\",\"\",\"approach-retreat\",\"56\",\"582837\",\"0.0-56.0\",\"\",\"\",\"2-1\",\"4340\",\"37\",\"1\",\"Training\",\"Stims/Figures/139-J-0-2.bmp\",\"pa:pa:ka\",\"Left\",\"37\",\"4\",\"5\",\"9\",\"P\",\"C\",\"53\"
\"\",\"\",\"approach-retreat\",\"57\",\"588517\",\"0.0-57.0\",\"\",\"\",\"2-1\",\"4171\",\"39\",\"0\",\"Training\",\"Stims/Figures/144-J-10-3.bmp\",\"fashasha\",\"Left\",\"37\",\"4\",\"6\",\"9\",\"C1\",\"C\",\"54\"
\"\",\"\",\"approach-retreat\",\"58\",\"594745\",\"0.0-58.0\",\"\",\"\",\"2-1\",\"4720\",\"37\",\"0\",\"Training\",\"Stims/Figures/27-C-30-1.bmp\",\"fa:sha:sha\",\"Left\",\"39\",\"4\",\"7\",\"9\",\"C1\",\"C\",\"55\"
\"\",\"\",\"approach-retreat\",\"59\",\"600528\",\"0.0-59.0\",\"\",\"\",\"2-1\",\"4274\",\"38\",\"1\",\"Training\",\"Stims/Figures/86-J-0-1.bmp\",\"vafa:va\",\"Up\",\"38\",\"4\",\"8\",\"9\",\"C1\",\"C\",\"56\"
\"\",\"\",\"approach-retreat\",\"60\",\"606261\",\"0.0-60.0\",\"\",\"\",\"2-1\",\"4222\",\"40\",\"1\",\"Training\",\"Stims/Figures/128-C-30-3.bmp\",\"sa:ha:ha\",\"Up\",\"40\",\"4\",\"9\",\"9\",\"C2\",\"C\",\"57\"
\"\",\"\",\"approach-retreat\",\"61\",\"612580\",\"0.0-61.0\",\"\",\"\",\"2-1\",\"4810\",\"37\",\"1\",\"Training\",\"Stims/Figures/144-C-30-3.bmp\",\"za:saza\",\"Right\",\"37\",\"4\",\"10\",\"9\",\"C2\",\"C\",\"58\"
\"\",\"\",\"approach-retreat\",\"62\",\"618596\",\"0.0-62.0\",\"\",\"\",\"2-1\",\"4509\",\"38\",\"1\",\"Training\",\"Stims/Figures/7-J-10-4.bmp\",\"sasaha\",\"Up\",\"38\",\"4\",\"11\",\"9\",\"C2\",\"C\",\"59\"
\"\",\"\",\"approach-retreat\",\"63\",\"624445\",\"0.0-63.0\",\"\",\"\",\"2-1\",\"4341\",\"38\",\"0\",\"Training\",\"Stims/Figures/128-J-10-3.bmp\",\"na:mana\",\"Down\",\"40\",\"4\",\"12\",\"9\",\"S\",\"C\",\"60\"
\"\",\"\",\"approach-retreat\",\"64\",\"630279\",\"0.0-64.0\",\"\",\"\",\"2-1\",\"4327\",\"37\",\"1\",\"Training\",\"Stims/Figures/86-C-30-1.bmp\",\"saha:ha\",\"Right\",\"37\",\"4\",\"13\",\"9\",\"C2\",\"C\",\"61\"
\"\",\"\",\"approach-retreat\",\"65\",\"636215\",\"0.0-65.0\",\"\",\"\",\"2-1\",\"4428\",\"38\",\"1\",\"Training\",\"Stims/Figures/85-C-20-2.bmp\",\"sa:sa:za\",\"Down\",\"38\",\"4\",\"14\",\"9\",\"C2\",\"C\",\"62\"
\"\",\"\",\"approach-retreat\",\"66\",\"641931\",\"0.0-66.0\",\"\",\"\",\"2-1\",\"4206\",\"40\",\"1\",\"Training\",\"Stims/Figures/87-C-20-4.bmp\",\"nala:la\",\"Up\",\"40\",\"4\",\"15\",\"9\",\"S\",\"C\",\"63\"
\"\",\"\",\"approach-retreat\",\"67\",\"647784\",\"0.0-67.0\",\"\",\"\",\"2-1\",\"4345\",\"38\",\"0\",\"Training\",\"Stims/Figures/87-J-10-4.bmp\",\"na:la:la\",\"Down\",\"40\",\"4\",\"16\",\"9\",\"S\",\"C\",\"64\"
\"\",\"\",\"approach-retreat\",\"68\",\"653494\",\"0.0-68.0\",\"\",\"\",\"2-1\",\"4202\",\"37\",\"0\",\"Training\",\"Stims/Figures/128-J-10-3.bmp\",\"na:mana\",\"Right\",\"39\",\"5\",\"1\",\"9\",\"S\",\"C\",\"65\"
\"\",\"\",\"approach-retreat\",\"69\",\"659147\",\"0.0-69.0\",\"\",\"\",\"2-1\",\"4144\",\"39\",\"1\",\"Training\",\"Stims/Figures/139-C-20-2.bmp\",\"na:lana\",\"Left\",\"39\",\"5\",\"2\",\"9\",\"S\",\"C\",\"66\"
\"\",\"\",\"approach-retreat\",\"70\",\"664830\",\"0.0-70.0\",\"\",\"\",\"2-1\",\"4175\",\"38\",\"1\",\"Training\",\"Stims/Figures/85-C-20-2.bmp\",\"sa:sa:za\",\"Down\",\"38\",\"5\",\"3\",\"9\",\"C2\",\"C\",\"67\"
\"\",\"\",\"approach-retreat\",\"71\",\"670473\",\"0.0-71.0\",\"\",\"\",\"2-1\",\"4132\",\"39\",\"0\",\"Training\",\"Stims/Figures/87-J-10-4.bmp\",\"na:la:la\",\"Left\",\"37\",\"5\",\"4\",\"9\",\"S\",\"C\",\"68\"
\"\",\"\",\"approach-retreat\",\"72\",\"676601\",\"0.0-72.0\",\"\",\"\",\"2-1\",\"4619\",\"40\",\"1\",\"Training\",\"Stims/Figures/85-J-0-2.bmp\",\"ta:ka:ka\",\"Down\",\"40\",\"5\",\"5\",\"9\",\"P\",\"C\",\"69\"
\"\",\"\",\"approach-retreat\",\"73\",\"682740\",\"0.0-73.0\",\"\",\"\",\"2-1\",\"4632\",\"37\",\"1\",\"Training\",\"Stims/Figures/86-J-0-1.bmp\",\"vafa:va\",\"Left\",\"37\",\"5\",\"6\",\"9\",\"C1\",\"C\",\"70\"
\"\",\"\",\"approach-retreat\",\"74\",\"689270\",\"0.0-74.0\",\"\",\"\",\"2-1\",\"5021\",\"40\",\"1\",\"Training\",\"Stims/Figures/144-C-30-3.bmp\",\"za:saza\",\"Up\",\"40\",\"5\",\"7\",\"9\",\"C2\",\"C\",\"71\"
\"\",\"\",\"approach-retreat\",\"75\",\"695501\",\"0.0-75.0\",\"\",\"\",\"2-1\",\"4722\",\"40\",\"0\",\"Training\",\"Stims/Figures/86-C-30-1.bmp\",\"saha:ha\",\"Down\",\"38\",\"5\",\"8\",\"9\",\"C2\",\"C\",\"72\"
\"\",\"\",\"approach-retreat\",\"76\",\"701205\",\"0.0-76.0\",\"\",\"\",\"2-1\",\"4196\",\"39\",\"1\",\"Training\",\"Stims/Figures/27-C-30-1.bmp\",\"fa:sha:sha\",\"Left\",\"39\",\"5\",\"9\",\"9\",\"C1\",\"C\",\"73\"
\"\",\"\",\"approach-retreat\",\"77\",\"706980\",\"0.0-77.0\",\"\",\"\",\"2-1\",\"4266\",\"38\",\"1\",\"Training\",\"Stims/Figures/139-J-0-2.bmp\",\"pa:pa:ka\",\"Up\",\"38\",\"5\",\"10\",\"9\",\"P\",\"C\",\"74\"
\"\",\"\",\"approach-retreat\",\"78\",\"712739\",\"0.0-78.0\",\"\",\"\",\"2-1\",\"4250\",\"37\",\"1\",\"Training\",\"Stims/Figures/128-C-30-3.bmp\",\"sa:ha:ha\",\"Right\",\"37\",\"5\",\"11\",\"9\",\"C2\",\"C\",\"75\"
\"\",\"\",\"approach-retreat\",\"79\",\"718577\",\"0.0-79.0\",\"\",\"\",\"2-1\",\"4329\",\"38\",\"0\",\"Training\",\"Stims/Figures/7-C-20-4.bmp\",\"ta:pa:ta\",\"Up\",\"40\",\"5\",\"12\",\"9\",\"P\",\"C\",\"76\"
\"\",\"\",\"approach-retreat\",\"80\",\"725144\",\"0.0-80.0\",\"\",\"\",\"2-1\",\"5056\",\"39\",\"1\",\"Training\",\"Stims/Figures/7-J-10-4.bmp\",\"sasaha\",\"Right\",\"39\",\"5\",\"13\",\"9\",\"C2\",\"C\",\"77\"
\"\",\"\",\"approach-retreat\",\"81\",\"731215\",\"0.0-81.0\",\"\",\"\",\"2-1\",\"4562\",\"38\",\"1\",\"Training\",\"Stims/Figures/27-J-0-1.bmp\",\"mama:la\",\"Up\",\"38\",\"5\",\"14\",\"9\",\"S\",\"C\",\"78\"
\"\",\"\",\"approach-retreat\",\"82\",\"737155\",\"0.0-82.0\",\"\",\"\",\"2-1\",\"4430\",\"38\",\"0\",\"Training\",\"Stims/Figures/144-J-10-3.bmp\",\"fashasha\",\"Down\",\"40\",\"5\",\"15\",\"9\",\"C1\",\"C\",\"79\"
\"\",\"\",\"approach-retreat\",\"83\",\"742882\",\"0.0-83.0\",\"\",\"\",\"2-1\",\"4217\",\"39\",\"0\",\"Training\",\"Stims/Figures/87-C-20-4.bmp\",\"nala:la\",\"Right\",\"37\",\"5\",\"16\",\"9\",\"S\",\"C\",\"80\"
\"\",\"\",\"approach-retreat\",\"84\",\"748618\",\"0.0-84.0\",\"\",\"\",\"2-1\",\"4226\",\"39\",\"1\",\"Training\",\"Stims/Figures/139-C-20-2.bmp\",\"na:lana\",\"Left\",\"39\",\"6\",\"1\",\"9\",\"S\",\"C\",\"81\"
\"\",\"\",\"approach-retreat\",\"85\",\"754861\",\"0.0-85.0\",\"\",\"\",\"2-1\",\"4735\",\"39\",\"1\",\"Training\",\"Stims/Figures/128-J-10-3.bmp\",\"na:mana\",\"Right\",\"39\",\"6\",\"2\",\"9\",\"S\",\"C\",\"82\"
\"\",\"\",\"approach-retreat\",\"86\",\"760720\",\"0.0-86.0\",\"\",\"\",\"2-1\",\"4351\",\"38\",\"1\",\"Training\",\"Stims/Figures/85-J-0-2.bmp\",\"ta:ka:ka\",\"Up\",\"38\",\"6\",\"3\",\"9\",\"P\",\"C\",\"83\"
\"\",\"\",\"approach-retreat\",\"87\",\"766640\",\"0.0-87.0\",\"\",\"\",\"2-1\",\"4411\",\"39\",\"1\",\"Training\",\"Stims/Figures/139-J-0-2.bmp\",\"pa:pa:ka\",\"Right\",\"39\",\"6\",\"4\",\"9\",\"P\",\"C\",\"84\"
\"\",\"\",\"approach-retreat\",\"88\",\"772905\",\"0.0-88.0\",\"\",\"\",\"2-1\",\"4757\",\"37\",\"1\",\"Training\",\"Stims/Figures/86-C-30-1.bmp\",\"saha:ha\",\"Right\",\"37\",\"6\",\"5\",\"9\",\"C2\",\"C\",\"85\"
\"\",\"\",\"approach-retreat\",\"89\",\"780178\",\"0.0-89.0\",\"\",\"\",\"2-1\",\"5761\",\"38\",\"0\",\"Training\",\"Stims/Figures/7-J-10-4.bmp\",\"sasaha\",\"Down\",\"40\",\"6\",\"6\",\"9\",\"C2\",\"C\",\"86\"
\"\",\"\",\"approach-retreat\",\"90\",\"786116\",\"0.0-90.0\",\"\",\"\",\"2-1\",\"4432\",\"39\",\"1\",\"Training\",\"Stims/Figures/87-C-20-4.bmp\",\"nala:la\",\"Left\",\"39\",\"6\",\"7\",\"9\",\"S\",\"C\",\"87\"
\"\",\"\",\"approach-retreat\",\"91\",\"792100\",\"0.0-91.0\",\"\",\"\",\"2-1\",\"4475\",\"40\",\"1\",\"Training\",\"Stims/Figures/7-C-20-4.bmp\",\"ta:pa:ta\",\"Up\",\"40\",\"6\",\"8\",\"9\",\"P\",\"C\",\"88\"
\"\",\"\",\"approach-retreat\",\"92\",\"797870\",\"0.0-92.0\",\"\",\"\",\"2-1\",\"4259\",\"39\",\"1\",\"Training\",\"Stims/Figures/86-J-0-1.bmp\",\"vafa:va\",\"Right\",\"39\",\"6\",\"9\",\"9\",\"C1\",\"C\",\"89\"
\"\",\"\",\"approach-retreat\",\"93\",\"803607\",\"0.0-93.0\",\"\",\"\",\"2-1\",\"4230\",\"38\",\"1\",\"Training\",\"Stims/Figures/85-C-20-2.bmp\",\"sa:sa:za\",\"Down\",\"38\",\"6\",\"10\",\"9\",\"C2\",\"C\",\"90\"
\"\",\"\",\"approach-retreat\",\"94\",\"809352\",\"0.0-94.0\",\"\",\"\",\"2-1\",\"4234\",\"40\",\"1\",\"Training\",\"Stims/Figures/27-C-30-1.bmp\",\"fa:sha:sha\",\"Up\",\"40\",\"6\",\"11\",\"9\",\"C1\",\"C\",\"91\"
\"\",\"\",\"approach-retreat\",\"95\",\"814963\",\"0.0-95.0\",\"\",\"\",\"2-1\",\"4103\",\"38\",\"1\",\"Training\",\"Stims/Figures/128-C-30-3.bmp\",\"sa:ha:ha\",\"Down\",\"38\",\"6\",\"12\",\"9\",\"C2\",\"C\",\"92\"
\"\",\"\",\"approach-retreat\",\"96\",\"820660\",\"0.0-96.0\",\"\",\"\",\"2-1\",\"4187\",\"37\",\"1\",\"Training\",\"Stims/Figures/144-J-10-3.bmp\",\"fashasha\",\"Left\",\"37\",\"6\",\"13\",\"9\",\"C1\",\"C\",\"93\"
\"\",\"\",\"approach-retreat\",\"97\",\"826267\",\"0.0-97.0\",\"\",\"\",\"2-1\",\"4104\",\"38\",\"1\",\"Training\",\"Stims/Figures/27-J-0-1.bmp\",\"mama:la\",\"Up\",\"38\",\"6\",\"14\",\"9\",\"S\",\"C\",\"94\"
\"\",\"\",\"approach-retreat\",\"98\",\"831786\",\"0.0-98.0\",\"\",\"\",\"2-1\",\"4015\",\"39\",\"0\",\"Training\",\"Stims/Figures/87-J-10-4.bmp\",\"na:la:la\",\"Left\",\"37\",\"6\",\"15\",\"9\",\"S\",\"C\",\"95\"
\"\",\"\",\"approach-retreat\",\"99\",\"837793\",\"0.0-99.0\",\"\",\"\",\"2-1\",\"4496\",\"38\",\"1\",\"Training\",\"Stims/Figures/144-C-30-3.bmp\",\"za:saza\",\"Down\",\"38\",\"6\",\"16\",\"9\",\"C2\",\"C\",\"96\"
\"\",\"\",\"approach-retreat\",\"100\",\"843461\",\"0.0-100.0\",\"\",\"\",\"2-1\",\"4161\",\"37\",\"1\",\"Training\",\"Stims/Figures/139-C-20-2.bmp\",\"na:lana\",\"Right\",\"37\",\"7\",\"1\",\"9\",\"S\",\"C\",\"97\"
\"\",\"\",\"approach-retreat\",\"101\",\"849519\",\"0.0-101.0\",\"\",\"\",\"2-1\",\"4551\",\"37\",\"0\",\"Training\",\"Stims/Figures/86-C-30-1.bmp\",\"saha:ha\",\"Left\",\"39\",\"7\",\"2\",\"9\",\"C2\",\"C\",\"98\"
\"\",\"\",\"approach-retreat\",\"102\",\"855381\",\"0.0-102.0\",\"\",\"\",\"2-1\",\"4352\",\"39\",\"1\",\"Training\",\"Stims/Figures/144-J-10-3.bmp\",\"fashasha\",\"Right\",\"39\",\"7\",\"3\",\"9\",\"C1\",\"C\",\"99\"
\"\",\"\",\"approach-retreat\",\"103\",\"860988\",\"0.0-103.0\",\"\",\"\",\"2-1\",\"4104\",\"37\",\"0\",\"Training\",\"Stims/Figures/7-J-10-4.bmp\",\"sasaha\",\"Right\",\"39\",\"7\",\"4\",\"9\",\"C2\",\"C\",\"100\"
\"\",\"\",\"approach-retreat\",\"104\",\"866994\",\"0.0-104.0\",\"\",\"\",\"2-1\",\"4503\",\"39\",\"0\",\"Training\",\"Stims/Figures/87-J-10-4.bmp\",\"na:la:la\",\"Left\",\"37\",\"7\",\"5\",\"9\",\"S\",\"C\",\"101\"
\"\",\"\",\"approach-retreat\",\"105\",\"872749\",\"0.0-105.0\",\"\",\"\",\"2-1\",\"4249\",\"38\",\"1\",\"Training\",\"Stims/Figures/27-C-30-1.bmp\",\"fa:sha:sha\",\"Down\",\"38\",\"7\",\"6\",\"9\",\"C1\",\"C\",\"102\"
\"\",\"\",\"approach-retreat\",\"106\",\"878409\",\"0.0-106.0\",\"\",\"\",\"2-1\",\"4156\",\"38\",\"1\",\"Training\",\"Stims/Figures/85-C-20-2.bmp\",\"sa:sa:za\",\"Down\",\"38\",\"7\",\"7\",\"9\",\"C2\",\"C\",\"103\"
\"\",\"\",\"approach-retreat\",\"107\",\"885167\",\"0.0-107.0\",\"\",\"\",\"2-1\",\"5256\",\"40\",\"1\",\"Training\",\"Stims/Figures/7-C-20-4.bmp\",\"ta:pa:ta\",\"Up\",\"40\",\"7\",\"8\",\"9\",\"P\",\"C\",\"104\"
\"\",\"\",\"approach-retreat\",\"108\",\"891103\",\"0.0-108.0\",\"\",\"\",\"2-1\",\"4433\",\"39\",\"0\",\"Training\",\"Stims/Figures/27-J-0-1.bmp\",\"mama:la\",\"Left\",\"37\",\"7\",\"9\",\"9\",\"S\",\"C\",\"105\"
\"\",\"\",\"approach-retreat\",\"109\",\"897645\",\"0.0-109.0\",\"\",\"\",\"2-1\",\"5040\",\"39\",\"1\",\"Training\",\"Stims/Figures/128-C-30-3.bmp\",\"sa:ha:ha\",\"Left\",\"39\",\"7\",\"10\",\"9\",\"C2\",\"C\",\"106\"
\"\",\"\",\"approach-retreat\",\"110\",\"903400\",\"0.0-110.0\",\"\",\"\",\"2-1\",\"4252\",\"40\",\"0\",\"Training\",\"Stims/Figures/128-J-10-3.bmp\",\"na:mana\",\"Up\",\"38\",\"7\",\"11\",\"9\",\"S\",\"C\",\"107\"
\"\",\"\",\"approach-retreat\",\"111\",\"909630\",\"0.0-111.0\",\"\",\"\",\"2-1\",\"4728\",\"39\",\"1\",\"Training\",\"Stims/Figures/139-J-0-2.bmp\",\"pa:pa:ka\",\"Right\",\"39\",\"7\",\"12\",\"9\",\"P\",\"C\",\"108\"
\"\",\"\",\"approach-retreat\",\"112\",\"916799\",\"0.0-112.0\",\"\",\"\",\"2-1\",\"5664\",\"40\",\"0\",\"Training\",\"Stims/Figures/144-C-30-3.bmp\",\"za:saza\",\"Down\",\"38\",\"7\",\"13\",\"9\",\"C2\",\"C\",\"109\"
\"\",\"\",\"approach-retreat\",\"113\",\"922643\",\"0.0-113.0\",\"\",\"\",\"2-1\",\"4339\",\"40\",\"1\",\"Training\",\"Stims/Figures/85-J-0-2.bmp\",\"ta:ka:ka\",\"Down\",\"40\",\"7\",\"14\",\"9\",\"P\",\"C\",\"110\"
\"\",\"\",\"approach-retreat\",\"114\",\"928448\",\"0.0-114.0\",\"\",\"\",\"2-1\",\"4302\",\"38\",\"1\",\"Training\",\"Stims/Figures/86-J-0-1.bmp\",\"vafa:va\",\"Up\",\"38\",\"7\",\"15\",\"9\",\"C1\",\"C\",\"111\"
\"\",\"\",\"approach-retreat\",\"115\",\"934119\",\"0.0-115.0\",\"\",\"\",\"2-1\",\"4167\",\"40\",\"1\",\"Training\",\"Stims/Figures/87-C-20-4.bmp\",\"nala:la\",\"Up\",\"40\",\"7\",\"16\",\"9\",\"S\",\"C\",\"112\"
\"\",\"\",\"approach-retreat\",\"116\",\"940002\",\"0.0-116.0\",\"\",\"\",\"2-1\",\"4381\",\"38\",\"1\",\"Training\",\"Stims/Figures/85-C-20-2.bmp\",\"sa:sa:za\",\"Down\",\"38\",\"8\",\"1\",\"9\",\"C2\",\"C\",\"113\"
\"\",\"\",\"approach-retreat\",\"117\",\"945666\",\"0.0-117.0\",\"\",\"\",\"2-1\",\"4160\",\"37\",\"1\",\"Training\",\"Stims/Figures/87-C-20-4.bmp\",\"nala:la\",\"Right\",\"37\",\"8\",\"2\",\"9\",\"S\",\"C\",\"114\"
\"\",\"\",\"approach-retreat\",\"118\",\"951284\",\"0.0-118.0\",\"\",\"\",\"2-1\",\"4115\",\"38\",\"0\",\"Training\",\"Stims/Figures/128-J-10-3.bmp\",\"na:mana\",\"Down\",\"40\",\"8\",\"3\",\"9\",\"S\",\"C\",\"115\"
\"\",\"\",\"approach-retreat\",\"119\",\"957058\",\"0.0-119.0\",\"\",\"\",\"2-1\",\"4265\",\"40\",\"0\",\"Training\",\"Stims/Figures/87-J-10-4.bmp\",\"na:la:la\",\"Up\",\"38\",\"8\",\"4\",\"9\",\"S\",\"C\",\"116\"
\"\",\"\",\"approach-retreat\",\"120\",\"963007\",\"0.0-120.0\",\"\",\"\",\"2-1\",\"4441\",\"37\",\"1\",\"Training\",\"Stims/Figures/7-J-10-4.bmp\",\"sasaha\",\"Left\",\"37\",\"8\",\"5\",\"9\",\"C2\",\"C\",\"117\"
\"\",\"\",\"approach-retreat\",\"121\",\"968668\",\"0.0-121.0\",\"\",\"\",\"2-1\",\"4154\",\"37\",\"1\",\"Training\",\"Stims/Figures/128-C-30-3.bmp\",\"sa:ha:ha\",\"Right\",\"37\",\"8\",\"6\",\"9\",\"C2\",\"C\",\"118\"
\"\",\"\",\"approach-retreat\",\"122\",\"974742\",\"0.0-122.0\",\"\",\"\",\"2-1\",\"4564\",\"39\",\"1\",\"Training\",\"Stims/Figures/139-C-20-2.bmp\",\"na:lana\",\"Left\",\"39\",\"8\",\"7\",\"9\",\"S\",\"C\",\"119\"
\"\",\"\",\"approach-retreat\",\"123\",\"980698\",\"0.0-123.0\",\"\",\"\",\"2-1\",\"4449\",\"39\",\"1\",\"Training\",\"Stims/Figures/86-J-0-1.bmp\",\"vafa:va\",\"Right\",\"39\",\"8\",\"8\",\"9\",\"C1\",\"C\",\"120\"
\"\",\"\",\"approach-retreat\",\"124\",\"986543\",\"0.0-124.0\",\"\",\"\",\"2-1\",\"4338\",\"40\",\"1\",\"Training\",\"Stims/Figures/27-J-0-1.bmp\",\"mama:la\",\"Down\",\"40\",\"8\",\"9\",\"9\",\"S\",\"C\",\"121\"
\"\",\"\",\"approach-retreat\",\"125\",\"992431\",\"0.0-125.0\",\"\",\"\",\"2-1\",\"4378\",\"37\",\"1\",\"Training\",\"Stims/Figures/144-C-30-3.bmp\",\"za:saza\",\"Right\",\"37\",\"8\",\"10\",\"9\",\"C2\",\"C\",\"122\"
\"\",\"\",\"approach-retreat\",\"126\",\"998227\",\"0.0-126.0\",\"\",\"\",\"2-1\",\"4289\",\"38\",\"1\",\"Training\",\"Stims/Figures/139-J-0-2.bmp\",\"pa:pa:ka\",\"Up\",\"38\",\"8\",\"11\",\"9\",\"P\",\"C\",\"123\"
\"\",\"\",\"approach-retreat\",\"127\",\"1003881\",\"0.0-127.0\",\"\",\"\",\"2-1\",\"4145\",\"39\",\"1\",\"Training\",\"Stims/Figures/86-C-30-1.bmp\",\"saha:ha\",\"Left\",\"39\",\"8\",\"12\",\"9\",\"C2\",\"C\",\"124\"
\"\",\"\",\"approach-retreat\",\"128\",\"1009607\",\"0.0-128.0\",\"\",\"\",\"2-1\",\"4218\",\"40\",\"1\",\"Training\",\"Stims/Figures/144-J-10-3.bmp\",\"fashasha\",\"Down\",\"40\",\"8\",\"13\",\"9\",\"C1\",\"C\",\"125\"
\"\",\"\",\"approach-retreat\",\"129\",\"1015188\",\"0.0-129.0\",\"\",\"\",\"2-1\",\"4073\",\"40\",\"1\",\"Training\",\"Stims/Figures/7-C-20-4.bmp\",\"ta:pa:ta\",\"Up\",\"40\",\"8\",\"14\",\"9\",\"P\",\"C\",\"126\"
\"\",\"\",\"approach-retreat\",\"130\",\"1020780\",\"0.0-130.0\",\"\",\"\",\"2-1\",\"4084\",\"40\",\"1\",\"Training\",\"Stims/Figures/27-C-30-1.bmp\",\"fa:sha:sha\",\"Up\",\"40\",\"8\",\"15\",\"9\",\"C1\",\"C\",\"127\"
\"\",\"\",\"approach-retreat\",\"131\",\"1026484\",\"0.0-131.0\",\"\",\"\",\"2-1\",\"4194\",\"37\",\"1\",\"Training\",\"Stims/Figures/85-J-0-2.bmp\",\"ta:ka:ka\",\"Left\",\"37\",\"8\",\"16\",\"9\",\"P\",\"C\",\"128\"
\"\",\"\",\"approach-retreat\",\"132\",\"1032421\",\"0.0-132.0\",\"\",\"\",\"2-1\",\"4430\",\"37\",\"1\",\"Training\",\"Stims/Figures/85-C-20-2.bmp\",\"sa:sa:za\",\"Right\",\"37\",\"9\",\"1\",\"9\",\"C2\",\"C\",\"129\"
\"\",\"\",\"approach-retreat\",\"133\",\"1038094\",\"0.0-133.0\",\"\",\"\",\"2-1\",\"4166\",\"38\",\"1\",\"Training\",\"Stims/Figures/144-J-10-3.bmp\",\"fashasha\",\"Up\",\"38\",\"9\",\"2\",\"9\",\"C1\",\"C\",\"130\"
\"\",\"\",\"approach-retreat\",\"134\",\"1043963\",\"0.0-134.0\",\"\",\"\",\"2-1\",\"4361\",\"37\",\"1\",\"Training\",\"Stims/Figures/27-C-30-1.bmp\",\"fa:sha:sha\",\"Right\",\"37\",\"9\",\"3\",\"9\",\"C1\",\"C\",\"131\"
\"\",\"\",\"approach-retreat\",\"135\",\"1050148\",\"0.0-135.0\",\"\",\"\",\"2-1\",\"4676\",\"38\",\"0\",\"Training\",\"Stims/Figures/128-J-10-3.bmp\",\"na:mana\",\"Down\",\"40\",\"9\",\"4\",\"9\",\"S\",\"C\",\"132\"
\"\",\"\",\"approach-retreat\",\"136\",\"1055782\",\"0.0-136.0\",\"\",\"\",\"2-1\",\"4125\",\"40\",\"1\",\"Training\",\"Stims/Figures/7-C-20-4.bmp\",\"ta:pa:ta\",\"Up\",\"40\",\"9\",\"5\",\"9\",\"P\",\"C\",\"133\"
\"\",\"\",\"approach-retreat\",\"137\",\"1061451\",\"0.0-137.0\",\"\",\"\",\"2-1\",\"4160\",\"38\",\"1\",\"Training\",\"Stims/Figures/139-C-20-2.bmp\",\"na:lana\",\"Down\",\"38\",\"9\",\"6\",\"9\",\"S\",\"C\",\"134\"
\"\",\"\",\"approach-retreat\",\"138\",\"1067167\",\"0.0-138.0\",\"\",\"\",\"2-1\",\"4210\",\"37\",\"1\",\"Training\",\"Stims/Figures/87-J-10-4.bmp\",\"na:la:la\",\"Left\",\"37\",\"9\",\"7\",\"9\",\"S\",\"C\",\"135\"
\"\",\"\",\"approach-retreat\",\"139\",\"1073047\",\"0.0-139.0\",\"\",\"\",\"2-1\",\"4369\",\"37\",\"1\",\"Training\",\"Stims/Figures/27-J-0-1.bmp\",\"mama:la\",\"Left\",\"37\",\"9\",\"8\",\"9\",\"S\",\"C\",\"136\"
\"\",\"\",\"approach-retreat\",\"140\",\"1078843\",\"0.0-140.0\",\"\",\"\",\"2-1\",\"4288\",\"37\",\"1\",\"Training\",\"Stims/Figures/87-C-20-4.bmp\",\"nala:la\",\"Right\",\"37\",\"9\",\"9\",\"9\",\"S\",\"C\",\"137\"
\"\",\"\",\"approach-retreat\",\"141\",\"1084663\",\"0.0-141.0\",\"\",\"\",\"2-1\",\"4311\",\"37\",\"1\",\"Training\",\"Stims/Figures/86-C-30-1.bmp\",\"saha:ha\",\"Right\",\"37\",\"9\",\"10\",\"9\",\"C2\",\"C\",\"138\"
\"\",\"\",\"approach-retreat\",\"142\",\"1090686\",\"0.0-142.0\",\"\",\"\",\"2-1\",\"4517\",\"37\",\"1\",\"Training\",\"Stims/Figures/139-J-0-2.bmp\",\"pa:pa:ka\",\"Left\",\"37\",\"9\",\"11\",\"9\",\"P\",\"C\",\"139\"
\"\",\"\",\"approach-retreat\",\"143\",\"1096937\",\"0.0-143.0\",\"\",\"\",\"2-1\",\"4744\",\"37\",\"0\",\"Training\",\"Stims/Figures/144-C-30-3.bmp\",\"za:saza\",\"Left\",\"39\",\"9\",\"12\",\"9\",\"C2\",\"C\",\"140\"
\"\",\"\",\"approach-retreat\",\"144\",\"1102819\",\"0.0-144.0\",\"\",\"\",\"2-1\",\"4374\",\"40\",\"1\",\"Training\",\"Stims/Figures/86-J-0-1.bmp\",\"vafa:va\",\"Down\",\"40\",\"9\",\"13\",\"9\",\"C1\",\"C\",\"141\"
\"\",\"\",\"approach-retreat\",\"145\",\"1108515\",\"0.0-145.0\",\"\",\"\",\"2-1\",\"4187\",\"38\",\"1\",\"Training\",\"Stims/Figures/85-J-0-2.bmp\",\"ta:ka:ka\",\"Up\",\"38\",\"9\",\"14\",\"9\",\"P\",\"C\",\"142\"
\"\",\"\",\"approach-retreat\",\"146\",\"1114134\",\"0.0-146.0\",\"\",\"\",\"2-1\",\"4110\",\"38\",\"0\",\"Training\",\"Stims/Figures/7-J-10-4.bmp\",\"sasaha\",\"Down\",\"40\",\"9\",\"15\",\"9\",\"C2\",\"C\",\"143\"
\"\",\"\",\"approach-retreat\",\"147\",\"1120390\",\"0.0-147.0\",\"\",\"\",\"2-1\",\"4749\",\"40\",\"1\",\"Training\",\"Stims/Figures/128-C-30-3.bmp\",\"sa:ha:ha\",\"Up\",\"40\",\"9\",\"16\",\"9\",\"C2\",\"C\",\"144\"
\"20150\",\"\",\"instructions\",\"148\",\"1140540\",\"0.0-148.0\",\"[{\"\"page_index\"\":0,\"\"viewing_time\"\":20149}]\",\"\",\"\",\"\",\"\",\"\",\"\",\"\",\"\",\"\",\"\",\"\",\"\",\"\",\"\",\"\",\"\"
\"\",\"\",\"approach-retreat\",\"149\",\"1147084\",\"0.0-149.0\",\"\",\"\",\"2-1\",\"5038\",\"38\",\"1\",\"Testing\",\"Stims/Figures/57-C-30-1.bmp\",\"tapa:ta\",\"Down\",\"38\",\"1\",\"1\",\"9\",\"P\",\"C\",\"1\"
\"\",\"\",\"approach-retreat\",\"150\",\"1153669\",\"0.0-150.0\",\"\",\"\",\"2-1\",\"5078\",\"37\",\"1\",\"Testing\",\"Stims/Figures/7-C-20-4.bmp\",\"ta:pa:ta\",\"Right\",\"37\",\"1\",\"2\",\"9\",\"P\",\"C\",\"2\"
\"\",\"\",\"approach-retreat\",\"151\",\"1159461\",\"0.0-151.0\",\"\",\"\",\"2-1\",\"4284\",\"40\",\"1\",\"Testing\",\"Stims/Figures/128-C-30-3.bmp\",\"sa:ha:ha\",\"Up\",\"40\",\"1\",\"3\",\"9\",\"C2\",\"C\",\"3\"
\"\",\"\",\"approach-retreat\",\"152\",\"1165275\",\"0.0-152.0\",\"\",\"\",\"2-1\",\"4307\",\"38\",\"1\",\"Testing\",\"Stims/Figures/86-C-30-1.bmp\",\"saha:ha\",\"Down\",\"38\",\"1\",\"4\",\"9\",\"C2\",\"C\",\"4\"
\"\",\"\",\"approach-retreat\",\"153\",\"1171863\",\"0.0-153.0\",\"\",\"\",\"2-1\",\"5079\",\"38\",\"1\",\"Testing\",\"Stims/Figures/74-J-10-4.bmp\",\"pa:ka:ka\",\"Up\",\"38\",\"1\",\"5\",\"9\",\"P\",\"C\",\"5\"
\"\",\"\",\"approach-retreat\",\"154\",\"1177807\",\"0.0-154.0\",\"\",\"\",\"2-1\",\"4436\",\"40\",\"1\",\"Testing\",\"Stims/Figures/85-J-0-2.bmp\",\"ta:ka:ka\",\"Down\",\"40\",\"1\",\"6\",\"9\",\"P\",\"C\",\"6\"
\"\",\"\",\"approach-retreat\",\"155\",\"1183576\",\"0.0-155.0\",\"\",\"\",\"2-1\",\"4262\",\"38\",\"1\",\"Testing\",\"Stims/Figures/87-J-10-4.bmp\",\"na:la:la\",\"Up\",\"38\",\"1\",\"7\",\"9\",\"S\",\"C\",\"7\"
\"\",\"\",\"approach-retreat\",\"156\",\"1189316\",\"0.0-156.0\",\"\",\"\",\"2-1\",\"4234\",\"40\",\"1\",\"Testing\",\"Stims/Figures/86-J-0-1.bmp\",\"vafa:va\",\"Down\",\"40\",\"1\",\"8\",\"9\",\"C1\",\"C\",\"8\"
\"\",\"\",\"approach-retreat\",\"157\",\"1195016\",\"0.0-157.0\",\"\",\"\",\"2-1\",\"4194\",\"37\",\"1\",\"Testing\",\"Stims/Figures/27-C-30-1.bmp\",\"fa:sha:sha\",\"Right\",\"37\",\"1\",\"9\",\"9\",\"C1\",\"C\",\"9\"
\"\",\"\",\"approach-retreat\",\"158\",\"1200761\",\"0.0-158.0\",\"\",\"\",\"2-1\",\"4237\",\"40\",\"1\",\"Testing\",\"Stims/Figures/139-C-20-2.bmp\",\"na:lana\",\"Up\",\"40\",\"1\",\"10\",\"9\",\"S\",\"C\",\"10\"
\"\",\"\",\"approach-retreat\",\"159\",\"1206511\",\"0.0-159.0\",\"\",\"\",\"2-1\",\"4242\",\"37\",\"1\",\"Testing\",\"Stims/Figures/44-J-10-3.bmp\",\"fa:shava\",\"Left\",\"37\",\"1\",\"11\",\"9\",\"C1\",\"C\",\"11\"
\"\",\"\",\"approach-retreat\",\"160\",\"1212213\",\"0.0-160.0\",\"\",\"\",\"2-1\",\"4193\",\"37\",\"1\",\"Testing\",\"Stims/Figures/85-C-20-2.bmp\",\"sa:sa:za\",\"Right\",\"37\",\"1\",\"12\",\"9\",\"C2\",\"C\",\"12\"
\"\",\"\",\"approach-retreat\",\"161\",\"1217943\",\"0.0-161.0\",\"\",\"\",\"2-1\",\"4224\",\"38\",\"1\",\"Testing\",\"Stims/Figures/57-J-0-1.bmp\",\"ma:la:na\",\"Up\",\"38\",\"1\",\"13\",\"9\",\"S\",\"C\",\"13\"
\"\",\"\",\"approach-retreat\",\"162\",\"1223615\",\"0.0-162.0\",\"\",\"\",\"2-1\",\"4164\",\"37\",\"1\",\"Testing\",\"Stims/Figures/94-J-0-2.bmp\",\"fa:sha:va\",\"Left\",\"37\",\"1\",\"14\",\"9\",\"C1\",\"C\",\"14\"
\"\",\"\",\"approach-retreat\",\"163\",\"1229266\",\"0.0-163.0\",\"\",\"\",\"2-1\",\"4144\",\"38\",\"1\",\"Testing\",\"Stims/Figures/144-J-10-3.bmp\",\"fashasha\",\"Up\",\"38\",\"1\",\"15\",\"9\",\"C1\",\"C\",\"15\"
\"\",\"\",\"approach-retreat\",\"164\",\"1234965\",\"0.0-164.0\",\"\",\"\",\"2-1\",\"4191\",\"39\",\"1\",\"Testing\",\"Stims/Figures/87-C-20-4.bmp\",\"nala:la\",\"Left\",\"39\",\"1\",\"16\",\"9\",\"S\",\"C\",\"16\"
\"\",\"\",\"approach-retreat\",\"165\",\"1240624\",\"0.0-165.0\",\"\",\"\",\"2-1\",\"4148\",\"39\",\"1\",\"Testing\",\"Stims/Figures/74-C-20-4.bmp\",\"za:saha\",\"Left\",\"39\",\"1\",\"17\",\"9\",\"C2\",\"C\",\"17\"
\"\",\"\",\"approach-retreat\",\"166\",\"1246375\",\"0.0-166.0\",\"\",\"\",\"2-1\",\"4243\",\"37\",\"1\",\"Testing\",\"Stims/Figures/44-C-30-3.bmp\",\"sasa:ha\",\"Right\",\"37\",\"1\",\"18\",\"9\",\"C2\",\"C\",\"18\"
\"\",\"\",\"approach-retreat\",\"167\",\"1252114\",\"0.0-167.0\",\"\",\"\",\"2-1\",\"4225\",\"40\",\"1\",\"Testing\",\"Stims/Figures/139-J-0-2.bmp\",\"pa:pa:ka\",\"Down\",\"40\",\"1\",\"19\",\"9\",\"P\",\"C\",\"19\"
\"\",\"\",\"approach-retreat\",\"168\",\"1257764\",\"0.0-168.0\",\"\",\"\",\"2-1\",\"4142\",\"37\",\"1\",\"Testing\",\"Stims/Figures/27-J-0-1.bmp\",\"mama:la\",\"Left\",\"37\",\"1\",\"20\",\"9\",\"S\",\"C\",\"20\"
\"\",\"\",\"approach-retreat\",\"169\",\"1263688\",\"0.0-169.0\",\"\",\"\",\"2-1\",\"4416\",\"38\",\"0\",\"Testing\",\"Stims/Figures/128-J-10-3.bmp\",\"na:mana\",\"Down\",\"40\",\"1\",\"21\",\"9\",\"S\",\"C\",\"21\"
\"\",\"\",\"approach-retreat\",\"170\",\"1269574\",\"0.0-170.0\",\"\",\"\",\"2-1\",\"4377\",\"39\",\"1\",\"Testing\",\"Stims/Figures/7-J-10-4.bmp\",\"sasaha\",\"Right\",\"39\",\"1\",\"22\",\"9\",\"C2\",\"C\",\"22\"
\"\",\"\",\"approach-retreat\",\"171\",\"1275282\",\"0.0-171.0\",\"\",\"\",\"2-1\",\"4202\",\"39\",\"1\",\"Testing\",\"Stims/Figures/144-C-30-3.bmp\",\"za:saza\",\"Left\",\"39\",\"1\",\"23\",\"9\",\"C2\",\"C\",\"23\"
\"\",\"\",\"approach-retreat\",\"172\",\"1280903\",\"0.0-172.0\",\"\",\"\",\"2-1\",\"4114\",\"37\",\"1\",\"Testing\",\"Stims/Figures/94-C-20-2.bmp\",\"na:ma:na\",\"Right\",\"37\",\"1\",\"24\",\"9\",\"S\",\"C\",\"24\"
\"\",\"\",\"approach-retreat\",\"173\",\"1286776\",\"0.0-173.0\",\"\",\"\",\"2-1\",\"4367\",\"40\",\"1\",\"Testing\",\"Stims/Figures/85-J-0-2.bmp\",\"ta:ka:ka\",\"Down\",\"40\",\"2\",\"1\",\"9\",\"P\",\"C\",\"25\"
\"\",\"\",\"approach-retreat\",\"174\",\"1292764\",\"0.0-174.0\",\"\",\"\",\"2-1\",\"4482\",\"37\",\"1\",\"Testing\",\"Stims/Figures/7-C-20-4.bmp\",\"ta:pa:ta\",\"Right\",\"37\",\"2\",\"2\",\"9\",\"P\",\"C\",\"26\"
\"\",\"\",\"approach-retreat\",\"175\",\"1299421\",\"0.0-175.0\",\"\",\"\",\"2-1\",\"5151\",\"39\",\"1\",\"Testing\",\"Stims/Figures/86-C-30-1.bmp\",\"saha:ha\",\"Left\",\"39\",\"2\",\"3\",\"9\",\"C2\",\"C\",\"27\"
\"\",\"\",\"approach-retreat\",\"176\",\"1305132\",\"0.0-176.0\",\"\",\"\",\"2-1\",\"4204\",\"37\",\"1\",\"Testing\",\"Stims/Figures/44-C-30-3.bmp\",\"sasa:ha\",\"Right\",\"37\",\"2\",\"4\",\"9\",\"C2\",\"C\",\"28\"
\"\",\"\",\"approach-retreat\",\"177\",\"1310772\",\"0.0-177.0\",\"\",\"\",\"2-1\",\"4134\",\"38\",\"1\",\"Testing\",\"Stims/Figures/144-C-30-3.bmp\",\"za:saza\",\"Down\",\"38\",\"2\",\"5\",\"9\",\"C2\",\"C\",\"29\"
\"\",\"\",\"approach-retreat\",\"178\",\"1316729\",\"0.0-178.0\",\"\",\"\",\"2-1\",\"4451\",\"39\",\"1\",\"Testing\",\"Stims/Figures/144-J-10-3.bmp\",\"fashasha\",\"Right\",\"39\",\"2\",\"6\",\"9\",\"C1\",\"C\",\"30\"
\"\",\"\",\"approach-retreat\",\"179\",\"1323042\",\"0.0-179.0\",\"\",\"\",\"2-1\",\"4805\",\"38\",\"1\",\"Testing\",\"Stims/Figures/74-J-10-4.bmp\",\"pa:ka:ka\",\"Up\",\"38\",\"2\",\"7\",\"9\",\"P\",\"C\",\"31\"
\"\",\"\",\"approach-retreat\",\"180\",\"1328673\",\"0.0-180.0\",\"\",\"\",\"2-1\",\"4123\",\"38\",\"1\",\"Testing\",\"Stims/Figures/87-C-20-4.bmp\",\"nala:la\",\"Down\",\"38\",\"2\",\"8\",\"9\",\"S\",\"C\",\"32\"
\"\",\"\",\"approach-retreat\",\"181\",\"1334396\",\"0.0-181.0\",\"\",\"\",\"2-1\",\"4215\",\"37\",\"1\",\"Testing\",\"Stims/Figures/139-C-20-2.bmp\",\"na:lana\",\"Right\",\"37\",\"2\",\"9\",\"9\",\"S\",\"C\",\"33\"
\"\",\"\",\"approach-retreat\",\"182\",\"1340040\",\"0.0-182.0\",\"\",\"\",\"2-1\",\"4137\",\"37\",\"1\",\"Testing\",\"Stims/Figures/128-J-10-3.bmp\",\"na:mana\",\"Left\",\"37\",\"2\",\"10\",\"9\",\"S\",\"C\",\"34\"
\"\",\"\",\"approach-retreat\",\"183\",\"1346536\",\"0.0-183.0\",\"\",\"\",\"2-1\",\"4989\",\"38\",\"0\",\"Testing\",\"Stims/Figures/94-C-20-2.bmp\",\"na:ma:na\",\"Up\",\"40\",\"2\",\"11\",\"9\",\"S\",\"C\",\"35\"
\"\",\"\",\"approach-retreat\",\"184\",\"1352655\",\"0.0-184.0\",\"\",\"\",\"2-1\",\"4612\",\"38\",\"1\",\"Testing\",\"Stims/Figures/57-J-0-1.bmp\",\"ma:la:na\",\"Up\",\"38\",\"2\",\"12\",\"9\",\"S\",\"C\",\"36\"
\"\",\"\",\"approach-retreat\",\"185\",\"1358623\",\"0.0-185.0\",\"\",\"\",\"2-1\",\"4460\",\"40\",\"1\",\"Testing\",\"Stims/Figures/27-C-30-1.bmp\",\"fa:sha:sha\",\"Up\",\"40\",\"2\",\"13\",\"9\",\"C1\",\"C\",\"37\"
\"\",\"\",\"approach-retreat\",\"186\",\"1364359\",\"0.0-186.0\",\"\",\"\",\"2-1\",\"4228\",\"39\",\"1\",\"Testing\",\"Stims/Figures/85-C-20-2.bmp\",\"sa:sa:za\",\"Left\",\"39\",\"2\",\"14\",\"9\",\"C2\",\"C\",\"38\"
\"\",\"\",\"approach-retreat\",\"187\",\"1370244\",\"0.0-187.0\",\"\",\"\",\"2-1\",\"4378\",\"40\",\"1\",\"Testing\",\"Stims/Figures/57-C-30-1.bmp\",\"tapa:ta\",\"Up\",\"40\",\"2\",\"15\",\"9\",\"P\",\"C\",\"39\"
\"\",\"\",\"approach-retreat\",\"188\",\"1375979\",\"0.0-188.0\",\"\",\"\",\"2-1\",\"4230\",\"40\",\"1\",\"Testing\",\"Stims/Figures/94-J-0-2.bmp\",\"fa:sha:va\",\"Down\",\"40\",\"2\",\"16\",\"9\",\"C1\",\"C\",\"40\"
\"\",\"\",\"approach-retreat\",\"189\",\"1381724\",\"0.0-189.0\",\"\",\"\",\"2-1\",\"4238\",\"37\",\"1\",\"Testing\",\"Stims/Figures/44-J-10-3.bmp\",\"fa:shava\",\"Left\",\"37\",\"2\",\"17\",\"9\",\"C1\",\"C\",\"41\"
\"\",\"\",\"approach-retreat\",\"190\",\"1387345\",\"0.0-190.0\",\"\",\"\",\"2-1\",\"4115\",\"37\",\"1\",\"Testing\",\"Stims/Figures/27-J-0-1.bmp\",\"mama:la\",\"Left\",\"37\",\"2\",\"18\",\"9\",\"S\",\"C\",\"42\"
\"\",\"\",\"approach-retreat\",\"191\",\"1394770\",\"0.0-191.0\",\"\",\"\",\"2-1\",\"5919\",\"38\",\"1\",\"Testing\",\"Stims/Figures/74-C-20-4.bmp\",\"za:saha\",\"Down\",\"38\",\"2\",\"19\",\"9\",\"C2\",\"C\",\"43\"
\"\",\"\",\"approach-retreat\",\"192\",\"1400638\",\"0.0-192.0\",\"\",\"\",\"2-1\",\"4362\",\"37\",\"1\",\"Testing\",\"Stims/Figures/128-C-30-3.bmp\",\"sa:ha:ha\",\"Right\",\"37\",\"2\",\"20\",\"9\",\"C2\",\"C\",\"44\"
\"\",\"\",\"approach-retreat\",\"193\",\"1406415\",\"0.0-193.0\",\"\",\"\",\"2-1\",\"4273\",\"39\",\"1\",\"Testing\",\"Stims/Figures/7-J-10-4.bmp\",\"sasaha\",\"Right\",\"39\",\"2\",\"21\",\"9\",\"C2\",\"C\",\"45\"
\"\",\"\",\"approach-retreat\",\"194\",\"1412240\",\"0.0-194.0\",\"\",\"\",\"2-1\",\"4318\",\"37\",\"1\",\"Testing\",\"Stims/Figures/86-J-0-1.bmp\",\"vafa:va\",\"Left\",\"37\",\"2\",\"22\",\"9\",\"C1\",\"C\",\"46\"
\"\",\"\",\"approach-retreat\",\"195\",\"1418017\",\"0.0-195.0\",\"\",\"\",\"2-1\",\"4269\",\"40\",\"1\",\"Testing\",\"Stims/Figures/139-J-0-2.bmp\",\"pa:pa:ka\",\"Down\",\"40\",\"2\",\"23\",\"9\",\"P\",\"C\",\"47\"
\"\",\"\",\"approach-retreat\",\"196\",\"1424242\",\"0.0-196.0\",\"\",\"\",\"2-1\",\"4718\",\"38\",\"1\",\"Testing\",\"Stims/Figures/87-J-10-4.bmp\",\"na:la:la\",\"Up\",\"38\",\"2\",\"24\",\"9\",\"S\",\"C\",\"48\"
\"\",\"\",\"approach-retreat\",\"197\",\"1429834\",\"0.0-197.0\",\"\",\"\",\"2-1\",\"4084\",\"39\",\"1\",\"Testing\",\"Stims/Figures/144-C-30-3.bmp\",\"za:saza\",\"Left\",\"39\",\"3\",\"1\",\"9\",\"C2\",\"C\",\"49\"
\"\",\"\",\"approach-retreat\",\"198\",\"1435629\",\"0.0-198.0\",\"\",\"\",\"2-1\",\"4285\",\"40\",\"1\",\"Testing\",\"Stims/Figures/7-J-10-4.bmp\",\"sasaha\",\"Down\",\"40\",\"3\",\"2\",\"9\",\"C2\",\"C\",\"50\"
\"\",\"\",\"approach-retreat\",\"199\",\"1441251\",\"0.0-199.0\",\"\",\"\",\"2-1\",\"4113\",\"40\",\"1\",\"Testing\",\"Stims/Figures/87-C-20-4.bmp\",\"nala:la\",\"Up\",\"40\",\"3\",\"3\",\"9\",\"S\",\"C\",\"51\"
\"\",\"\",\"approach-retreat\",\"200\",\"1447059\",\"0.0-200.0\",\"\",\"\",\"2-1\",\"4298\",\"40\",\"1\",\"Testing\",\"Stims/Figures/74-C-20-4.bmp\",\"za:saha\",\"Up\",\"40\",\"3\",\"4\",\"9\",\"C2\",\"C\",\"52\"
\"\",\"\",\"approach-retreat\",\"201\",\"1452890\",\"0.0-201.0\",\"\",\"\",\"2-1\",\"4325\",\"37\",\"1\",\"Testing\",\"Stims/Figures/27-C-30-1.bmp\",\"fa:sha:sha\",\"Right\",\"37\",\"3\",\"5\",\"9\",\"C1\",\"C\",\"53\"
\"\",\"\",\"approach-retreat\",\"202\",\"1458831\",\"0.0-202.0\",\"\",\"\",\"2-1\",\"4433\",\"39\",\"1\",\"Testing\",\"Stims/Figures/144-J-10-3.bmp\",\"fashasha\",\"Right\",\"39\",\"3\",\"6\",\"9\",\"C1\",\"C\",\"54\"
\"\",\"\",\"approach-retreat\",\"203\",\"1464496\",\"0.0-203.0\",\"\",\"\",\"2-1\",\"4159\",\"38\",\"1\",\"Testing\",\"Stims/Figures/87-J-10-4.bmp\",\"na:la:la\",\"Up\",\"38\",\"3\",\"7\",\"9\",\"S\",\"C\",\"55\"
\"\",\"\",\"approach-retreat\",\"204\",\"1470295\",\"0.0-204.0\",\"\",\"\",\"2-1\",\"4293\",\"40\",\"1\",\"Testing\",\"Stims/Figures/94-C-20-2.bmp\",\"na:ma:na\",\"Up\",\"40\",\"3\",\"8\",\"9\",\"S\",\"C\",\"56\"
\"\",\"\",\"approach-retreat\",\"205\",\"1476693\",\"0.0-205.0\",\"\",\"\",\"2-1\",\"4888\",\"40\",\"1\",\"Testing\",\"Stims/Figures/86-J-0-1.bmp\",\"vafa:va\",\"Down\",\"40\",\"3\",\"9\",\"9\",\"C1\",\"C\",\"57\"
\"\",\"\",\"approach-retreat\",\"206\",\"1482419\",\"0.0-206.0\",\"\",\"\",\"2-1\",\"4220\",\"38\",\"1\",\"Testing\",\"Stims/Figures/57-C-30-1.bmp\",\"tapa:ta\",\"Down\",\"38\",\"3\",\"10\",\"9\",\"P\",\"C\",\"58\"
\"\",\"\",\"approach-retreat\",\"207\",\"1488644\",\"0.0-207.0\",\"\",\"\",\"2-1\",\"4716\",\"39\",\"1\",\"Testing\",\"Stims/Figures/27-J-0-1.bmp\",\"mama:la\",\"Right\",\"39\",\"3\",\"11\",\"9\",\"S\",\"C\",\"59\"
\"\",\"\",\"approach-retreat\",\"208\",\"1494637\",\"0.0-208.0\",\"\",\"\",\"2-1\",\"4486\",\"40\",\"1\",\"Testing\",\"Stims/Figures/94-J-0-2.bmp\",\"fa:sha:va\",\"Down\",\"40\",\"3\",\"12\",\"9\",\"C1\",\"C\",\"60\"
\"\",\"\",\"approach-retreat\",\"209\",\"1500448\",\"0.0-209.0\",\"\",\"\",\"2-1\",\"4302\",\"39\",\"1\",\"Testing\",\"Stims/Figures/128-J-10-3.bmp\",\"na:mana\",\"Right\",\"39\",\"3\",\"13\",\"9\",\"S\",\"C\",\"61\"
\"\",\"\",\"approach-retreat\",\"210\",\"1506131\",\"0.0-210.0\",\"\",\"\",\"2-1\",\"4176\",\"38\",\"1\",\"Testing\",\"Stims/Figures/128-C-30-3.bmp\",\"sa:ha:ha\",\"Down\",\"38\",\"3\",\"14\",\"9\",\"C2\",\"C\",\"62\"
\"\",\"\",\"approach-retreat\",\"211\",\"1512768\",\"0.0-211.0\",\"\",\"\",\"2-1\",\"5132\",\"40\",\"1\",\"Testing\",\"Stims/Figures/85-C-20-2.bmp\",\"sa:sa:za\",\"Up\",\"40\",\"3\",\"15\",\"9\",\"C2\",\"C\",\"63\"
\"\",\"\",\"approach-retreat\",\"212\",\"1519268\",\"0.0-212.0\",\"\",\"\",\"2-1\",\"4993\",\"38\",\"1\",\"Testing\",\"Stims/Figures/74-J-10-4.bmp\",\"pa:ka:ka\",\"Up\",\"38\",\"3\",\"16\",\"9\",\"P\",\"C\",\"64\"
\"\",\"\",\"approach-retreat\",\"213\",\"1524893\",\"0.0-213.0\",\"\",\"\",\"2-1\",\"4118\",\"39\",\"1\",\"Testing\",\"Stims/Figures/139-C-20-2.bmp\",\"na:lana\",\"Left\",\"39\",\"3\",\"17\",\"9\",\"S\",\"C\",\"65\"
\"\",\"\",\"approach-retreat\",\"214\",\"1530569\",\"0.0-214.0\",\"\",\"\",\"2-1\",\"4168\",\"38\",\"1\",\"Testing\",\"Stims/Figures/7-C-20-4.bmp\",\"ta:pa:ta\",\"Down\",\"38\",\"3\",\"18\",\"9\",\"P\",\"C\",\"66\"
\"\",\"\",\"approach-retreat\",\"215\",\"1536254\",\"0.0-215.0\",\"\",\"\",\"2-1\",\"4179\",\"39\",\"1\",\"Testing\",\"Stims/Figures/44-C-30-3.bmp\",\"sasa:ha\",\"Left\",\"39\",\"3\",\"19\",\"9\",\"C2\",\"C\",\"67\"
\"\",\"\",\"approach-retreat\",\"216\",\"1542626\",\"0.0-216.0\",\"\",\"\",\"2-1\",\"4861\",\"39\",\"1\",\"Testing\",\"Stims/Figures/86-C-30-1.bmp\",\"saha:ha\",\"Left\",\"39\",\"3\",\"20\",\"9\",\"C2\",\"C\",\"68\"
\"\",\"\",\"approach-retreat\",\"217\",\"1549074\",\"0.0-217.0\",\"\",\"\",\"2-1\",\"4942\",\"39\",\"1\",\"Testing\",\"Stims/Figures/85-J-0-2.bmp\",\"ta:ka:ka\",\"Right\",\"39\",\"3\",\"21\",\"9\",\"P\",\"C\",\"69\"
\"\",\"\",\"approach-retreat\",\"218\",\"1555137\",\"0.0-218.0\",\"\",\"\",\"2-1\",\"4556\",\"37\",\"1\",\"Testing\",\"Stims/Figures/57-J-0-1.bmp\",\"ma:la:na\",\"Left\",\"37\",\"3\",\"22\",\"9\",\"S\",\"C\",\"70\"
\"\",\"\",\"approach-retreat\",\"219\",\"1560995\",\"0.0-219.0\",\"\",\"\",\"2-1\",\"4350\",\"39\",\"1\",\"Testing\",\"Stims/Figures/139-J-0-2.bmp\",\"pa:pa:ka\",\"Right\",\"39\",\"3\",\"23\",\"9\",\"P\",\"C\",\"71\"
\"\",\"\",\"approach-retreat\",\"220\",\"1566548\",\"0.0-220.0\",\"\",\"\",\"2-1\",\"4047\",\"37\",\"1\",\"Testing\",\"Stims/Figures/44-J-10-3.bmp\",\"fa:shava\",\"Left\",\"37\",\"3\",\"24\",\"9\",\"C1\",\"C\",\"72\"
\"\",\"\",\"approach-retreat\",\"221\",\"1572304\",\"0.0-221.0\",\"\",\"\",\"2-1\",\"4249\",\"40\",\"1\",\"Testing\",\"Stims/Figures/85-C-20-2.bmp\",\"sa:sa:za\",\"Up\",\"40\",\"4\",\"1\",\"9\",\"C2\",\"C\",\"73\"
\"\",\"\",\"approach-retreat\",\"222\",\"1578377\",\"0.0-222.0\",\"\",\"\",\"2-1\",\"4566\",\"40\",\"1\",\"Testing\",\"Stims/Figures/44-C-30-3.bmp\",\"sasa:ha\",\"Up\",\"40\",\"4\",\"2\",\"9\",\"C2\",\"C\",\"74\"
\"\",\"\",\"approach-retreat\",\"223\",\"1584215\",\"0.0-223.0\",\"\",\"\",\"2-1\",\"4331\",\"39\",\"1\",\"Testing\",\"Stims/Figures/86-J-0-1.bmp\",\"vafa:va\",\"Right\",\"39\",\"4\",\"3\",\"9\",\"C1\",\"C\",\"75\"
\"\",\"\",\"approach-retreat\",\"224\",\"1589919\",\"0.0-224.0\",\"\",\"\",\"2-1\",\"4198\",\"37\",\"1\",\"Testing\",\"Stims/Figures/27-C-30-1.bmp\",\"fa:sha:sha\",\"Right\",\"37\",\"4\",\"4\",\"9\",\"C1\",\"C\",\"76\"
\"\",\"\",\"approach-retreat\",\"225\",\"1595707\",\"0.0-225.0\",\"\",\"\",\"2-1\",\"4282\",\"39\",\"1\",\"Testing\",\"Stims/Figures/139-C-20-2.bmp\",\"na:lana\",\"Left\",\"39\",\"4\",\"5\",\"9\",\"S\",\"C\",\"77\"
\"\",\"\",\"approach-retreat\",\"226\",\"1601924\",\"0.0-226.0\",\"\",\"\",\"2-1\",\"4711\",\"39\",\"1\",\"Testing\",\"Stims/Figures/144-J-10-3.bmp\",\"fashasha\",\"Right\",\"39\",\"4\",\"6\",\"9\",\"C1\",\"C\",\"78\"
\"\",\"\",\"approach-retreat\",\"227\",\"1608260\",\"0.0-227.0\",\"\",\"\",\"2-1\",\"4827\",\"40\",\"1\",\"Testing\",\"Stims/Figures/128-J-10-3.bmp\",\"na:mana\",\"Down\",\"40\",\"4\",\"7\",\"9\",\"S\",\"C\",\"79\"
\"\",\"\",\"approach-retreat\",\"228\",\"1614060\",\"0.0-228.0\",\"\",\"\",\"2-1\",\"4293\",\"37\",\"1\",\"Testing\",\"Stims/Figures/27-J-0-1.bmp\",\"mama:la\",\"Left\",\"37\",\"4\",\"8\",\"9\",\"S\",\"C\",\"80\"
\"\",\"\",\"approach-retreat\",\"229\",\"1619805\",\"0.0-229.0\",\"\",\"\",\"2-1\",\"4238\",\"38\",\"1\",\"Testing\",\"Stims/Figures/7-C-20-4.bmp\",\"ta:pa:ta\",\"Down\",\"38\",\"4\",\"9\",\"9\",\"P\",\"C\",\"81\"
\"\",\"\",\"approach-retreat\",\"230\",\"1625788\",\"0.0-230.0\",\"\",\"\",\"2-1\",\"4475\",\"38\",\"1\",\"Testing\",\"Stims/Figures/57-J-0-1.bmp\",\"ma:la:na\",\"Up\",\"38\",\"4\",\"10\",\"9\",\"S\",\"C\",\"82\"
\"\",\"\",\"approach-retreat\",\"231\",\"1631881\",\"0.0-231.0\",\"\",\"\",\"2-1\",\"4586\",\"40\",\"1\",\"Testing\",\"Stims/Figures/128-C-30-3.bmp\",\"sa:ha:ha\",\"Up\",\"40\",\"4\",\"11\",\"9\",\"C2\",\"C\",\"83\"
\"\",\"\",\"approach-retreat\",\"232\",\"1637966\",\"0.0-232.0\",\"\",\"\",\"2-1\",\"4577\",\"40\",\"1\",\"Testing\",\"Stims/Figures/94-J-0-2.bmp\",\"fa:sha:va\",\"Down\",\"40\",\"4\",\"12\",\"9\",\"C1\",\"C\",\"84\"
\"\",\"\",\"approach-retreat\",\"233\",\"1644447\",\"0.0-233.0\",\"\",\"\",\"2-1\",\"4975\",\"39\",\"1\",\"Testing\",\"Stims/Figures/86-C-30-1.bmp\",\"saha:ha\",\"Left\",\"39\",\"4\",\"13\",\"9\",\"C2\",\"C\",\"85\"
\"\",\"\",\"approach-retreat\",\"234\",\"1650165\",\"0.0-234.0\",\"\",\"\",\"2-1\",\"4211\",\"37\",\"1\",\"Testing\",\"Stims/Figures/7-J-10-4.bmp\",\"sasaha\",\"Left\",\"37\",\"4\",\"14\",\"9\",\"C2\",\"C\",\"86\"
\"\",\"\",\"approach-retreat\",\"235\",\"1656582\",\"0.0-235.0\",\"\",\"\",\"2-1\",\"4909\",\"39\",\"1\",\"Testing\",\"Stims/Figures/139-J-0-2.bmp\",\"pa:pa:ka\",\"Right\",\"39\",\"4\",\"15\",\"9\",\"P\",\"C\",\"87\"
\"\",\"\",\"approach-retreat\",\"236\",\"1662365\",\"0.0-236.0\",\"\",\"\",\"2-1\",\"4275\",\"40\",\"1\",\"Testing\",\"Stims/Figures/74-C-20-4.bmp\",\"za:saha\",\"Up\",\"40\",\"4\",\"16\",\"9\",\"C2\",\"C\",\"88\"
\"\",\"\",\"approach-retreat\",\"237\",\"1668000\",\"0.0-237.0\",\"\",\"\",\"2-1\",\"4128\",\"37\",\"1\",\"Testing\",\"Stims/Figures/74-J-10-4.bmp\",\"pa:ka:ka\",\"Left\",\"37\",\"4\",\"17\",\"9\",\"P\",\"C\",\"89\"
\"\",\"\",\"approach-retreat\",\"238\",\"1673607\",\"0.0-238.0\",\"\",\"\",\"2-1\",\"4100\",\"38\",\"1\",\"Testing\",\"Stims/Figures/87-C-20-4.bmp\",\"nala:la\",\"Down\",\"38\",\"4\",\"18\",\"9\",\"S\",\"C\",\"90\"
\"\",\"\",\"approach-retreat\",\"239\",\"1679375\",\"0.0-239.0\",\"\",\"\",\"2-1\",\"4259\",\"37\",\"0\",\"Testing\",\"Stims/Figures/144-C-30-3.bmp\",\"za:saza\",\"Left\",\"39\",\"4\",\"19\",\"9\",\"C2\",\"C\",\"91\"
\"\",\"\",\"approach-retreat\",\"240\",\"1685358\",\"0.0-240.0\",\"\",\"\",\"2-1\",\"4475\",\"39\",\"1\",\"Testing\",\"Stims/Figures/44-J-10-3.bmp\",\"fa:shava\",\"Right\",\"39\",\"4\",\"20\",\"9\",\"C1\",\"C\",\"92\"
\"\",\"\",\"approach-retreat\",\"241\",\"1691167\",\"0.0-241.0\",\"\",\"\",\"2-1\",\"4302\",\"40\",\"1\",\"Testing\",\"Stims/Figures/87-J-10-4.bmp\",\"na:la:la\",\"Down\",\"40\",\"4\",\"21\",\"9\",\"S\",\"C\",\"93\"
\"\",\"\",\"approach-retreat\",\"242\",\"1697038\",\"0.0-242.0\",\"\",\"\",\"2-1\",\"4364\",\"39\",\"1\",\"Testing\",\"Stims/Figures/85-J-0-2.bmp\",\"ta:ka:ka\",\"Right\",\"39\",\"4\",\"22\",\"9\",\"P\",\"C\",\"94\"
\"\",\"\",\"approach-retreat\",\"243\",\"1703059\",\"0.0-243.0\",\"\",\"\",\"2-1\",\"4514\",\"38\",\"1\",\"Testing\",\"Stims/Figures/57-C-30-1.bmp\",\"tapa:ta\",\"Down\",\"38\",\"4\",\"23\",\"9\",\"P\",\"C\",\"95\"
\"\",\"\",\"approach-retreat\",\"244\",\"1709593\",\"0.0-244.0\",\"\",\"\",\"2-1\",\"5026\",\"40\",\"1\",\"Testing\",\"Stims/Figures/94-C-20-2.bmp\",\"na:ma:na\",\"Up\",\"40\",\"4\",\"24\",\"9\",\"S\",\"C\",\"96\"
\"29938\",\"\",\"survey-text\",\"245\",\"1739536\",\"0.0-245.0\",\"\",\"{\"\"Q0\"\":\"\"PS170011\"\"}\",\"\",\"\",\"\",\"\",\"\",\"\",\"\",\"\",\"\",\"\",\"\",\"\",\"\",\"\",\"\"
