"rt","key_press","trial_type","trial_index","time_elapsed","internal_node_id","view_history","responses","Id","Rt","ResKeyCode","ResCorr","TrialType2","Image","Label","Location","CorrectResponse","Block","BlockTrial","Condition","LabelType","Subcondition","trialNum"
"3893","32","text","0","3898","0.0-0.0-0.0","","","","","","","","","","","","","","","","",""
"13814","","instructions","1","17716","0.0-1.0","[{""page_index"":0,""viewing_time"":13813}]","","","","","","","","","","","","","","","",""
"12076","","survey-multi-choice","2","29843","0.0-2.0","","{""Q0"":""Da"",""Q1"":""Da"",""Q2"":""Da"",""Q3"":""Da"",""Q4"":""Da"",""Q5"":""Da""}","","","","","","","","","","","","","","",""
"","","bio","3","35738","0.0-3.0","","{""age"":""19"",""gender"":""f"",""specify"":""""}","","","","","","","","","","","","","","",""
"","","approach-retreat","4","45678","0.0-4.0","","","1-5","8398","38","1","Training","Stims/Figures/87-J-10-4.bmp","sahaza","Up","38","1","1","6B","C2","C","1"
"","","approach-retreat","5","54251","0.0-5.0","","","1-5","7063","39","1","Training","Stims/Figures/94-J-0-2.bmp","za:saha","Right","39","1","2","6B","C2","C","2"
"","","approach-retreat","6","60401","0.0-6.0","","","1-5","4638","39","1","Training","Stims/Figures/57-C-30-1.bmp","fa:fava","Left","39","1","3","6B","C1","C","3"
"","","approach-retreat","7","67103","0.0-7.0","","","1-5","5190","38","1","Training","Stims/Figures/87-C-20-4.bmp","vafasha","Down","38","1","4","6B","C1","C","4"
"","","approach-retreat","8","74948","0.0-8.0","","","1-5","6333","38","1","Training","Stims/Figures/111-J-10-3.bmp","za:sa:ha","Up","38","1","5","6B","C2","C","5"
"","","approach-retreat","9","81497","0.0-9.0","","","1-5","5029","39","1","Training","Stims/Figures/86-J-0-1.bmp","saha:za","Right","39","1","6","6B","C2","C","6"
"","","approach-retreat","10","87605","0.0-10.0","","","1-5","4591","38","1","Training","Stims/Figures/94-C-20-2.bmp","va:shasha","Down","38","1","7","6B","C1","C","7"
"","","approach-retreat","11","93461","0.0-11.0","","","1-5","4343","39","1","Training","Stims/Figures/84-C-20-2.bmp","vafa:va","Left","39","1","8","6B","C1","C","8"
"","","approach-retreat","12","99245","0.0-12.0","","","1-5","4269","39","1","Training","Stims/Figures/128-C-30-3.bmp","va:fa:va","Left","39","1","9","6B","C1","C","9"
"","","approach-retreat","13","105126","0.0-13.0","","","1-5","4345","40","1","Training","Stims/Figures/111-C-30-3.bmp","fa:sha:sha","Up","40","1","10","6B","C1","C","10"
"","","approach-retreat","14","110920","0.0-14.0","","","1-5","4284","39","1","Training","Stims/Figures/128-J-10-3.bmp","zasa:za","Right","39","1","11","6B","C2","C","11"
"","","approach-retreat","15","117073","0.0-15.0","","","1-5","4640","39","1","Training","Stims/Figures/57-J-0-1.bmp","zasaza","Right","39","1","12","6B","C2","C","12"
"","","approach-retreat","16","123194","0.0-16.0","","","1-5","4609","38","1","Training","Stims/Figures/86-C-30-1.bmp","vafa:sha","Down","38","1","13","6B","C1","C","13"
"","","approach-retreat","17","130346","0.0-17.0","","","1-5","5636","38","1","Training","Stims/Figures/19-C-20-4.bmp","va:sha:sha","Down","38","1","14","6B","C1","C","14"
"","","approach-retreat","18","136324","0.0-18.0","","","1-5","4435","38","1","Training","Stims/Figures/84-J-0-2.bmp","zaha:za","Up","38","1","15","6B","C2","C","15"
"","","approach-retreat","19","142637","0.0-19.0","","","1-5","4751","37","1","Training","Stims/Figures/19-J-10-4.bmp","sasaza","Left","37","1","16","6B","C2","C","16"
"","","approach-retreat","20","148297","0.0-20.0","","","1-5","4148","39","1","Training","Stims/Figures/86-J-0-1.bmp","saha:za","Right","39","2","1","6B","C2","C","17"
"","","approach-retreat","21","153964","0.0-21.0","","","1-5","4154","39","1","Training","Stims/Figures/94-C-20-2.bmp","va:shasha","Left","39","2","2","6B","C1","C","18"
"","","approach-retreat","22","159652","0.0-22.0","","","1-5","4178","38","1","Training","Stims/Figures/128-J-10-3.bmp","zasa:za","Up","38","2","3","6B","C2","C","19"
"","","approach-retreat","23","165286","0.0-23.0","","","1-5","4120","39","1","Training","Stims/Figures/57-J-0-1.bmp","zasaza","Right","39","2","4","6B","C2","C","20"
"","","approach-retreat","24","171592","0.0-24.0","","","1-5","4771","38","1","Training","Stims/Figures/111-C-30-3.bmp","fa:sha:sha","Down","38","2","5","6B","C1","C","21"
"","","approach-retreat","25","177477","0.0-25.0","","","1-5","4374","40","1","Training","Stims/Figures/19-J-10-4.bmp","sasaza","Down","40","2","6","6B","C2","C","22"
"","","approach-retreat","26","183263","0.0-26.0","","","1-5","4270","37","1","Training","Stims/Figures/84-J-0-2.bmp","zaha:za","Left","37","2","7","6B","C2","C","23"
"","","approach-retreat","27","188979","0.0-27.0","","","1-5","4206","38","1","Training","Stims/Figures/86-C-30-1.bmp","vafa:sha","Down","38","2","8","6B","C1","C","24"
"","","approach-retreat","28","194860","0.0-28.0","","","1-5","4371","40","1","Training","Stims/Figures/19-C-20-4.bmp","va:sha:sha","Up","40","2","9","6B","C1","C","25"
"","","approach-retreat","29","200933","0.0-29.0","","","1-5","4561","38","1","Training","Stims/Figures/94-J-0-2.bmp","za:saha","Up","38","2","10","6B","C2","C","26"
"","","approach-retreat","30","206809","0.0-30.0","","","1-5","4367","38","1","Training","Stims/Figures/128-C-30-3.bmp","va:fa:va","Down","38","2","11","6B","C1","C","27"
"","","approach-retreat","31","212830","0.0-31.0","","","1-5","4508","37","1","Training","Stims/Figures/57-C-30-1.bmp","fa:fava","Right","37","2","12","6B","C1","C","28"
"","","approach-retreat","32","219114","0.0-32.0","","","1-5","4771","39","1","Training","Stims/Figures/87-C-20-4.bmp","vafasha","Left","39","2","13","6B","C1","C","29"
"","","approach-retreat","33","225188","0.0-33.0","","","1-5","4563","37","1","Training","Stims/Figures/84-C-20-2.bmp","vafa:va","Right","37","2","14","6B","C1","C","30"
"","","approach-retreat","34","232445","0.0-34.0","","","1-5","5745","38","1","Training","Stims/Figures/87-J-10-4.bmp","sahaza","Up","38","2","15","6B","C2","C","31"
"","","approach-retreat","35","238315","0.0-35.0","","","1-5","4359","37","1","Training","Stims/Figures/111-J-10-3.bmp","za:sa:ha","Left","37","2","16","6B","C2","C","32"
"","","approach-retreat","36","244320","0.0-36.0","","","1-5","4495","39","1","Training","Stims/Figures/94-J-0-2.bmp","za:saha","Right","39","3","1","6B","C2","C","33"
"","","approach-retreat","37","250091","0.0-37.0","","","1-5","4260","38","1","Training","Stims/Figures/84-C-20-2.bmp","vafa:va","Down","38","3","2","6B","C1","C","34"
"","","approach-retreat","38","256040","0.0-38.0","","","1-5","4434","40","1","Training","Stims/Figures/57-J-0-1.bmp","zasaza","Down","40","3","3","6B","C2","C","35"
"","","approach-retreat","39","261846","0.0-39.0","","","1-5","4285","37","1","Training","Stims/Figures/128-J-10-3.bmp","zasa:za","Left","37","3","4","6B","C2","C","36"
"","","approach-retreat","40","267570","0.0-40.0","","","1-5","4213","37","1","Training","Stims/Figures/111-J-10-3.bmp","za:sa:ha","Left","37","3","5","6B","C2","C","37"
"","","approach-retreat","41","273212","0.0-41.0","","","1-5","4122","37","1","Training","Stims/Figures/87-J-10-4.bmp","sahaza","Left","37","3","6","6B","C2","C","38"
"","","approach-retreat","42","279224","0.0-42.0","","","1-5","4501","37","1","Training","Stims/Figures/87-C-20-4.bmp","vafasha","Right","37","3","7","6B","C1","C","39"
"","","approach-retreat","43","284907","0.0-43.0","","","1-5","4166","40","1","Training","Stims/Figures/57-C-30-1.bmp","fa:fava","Up","40","3","8","6B","C1","C","40"
"","","approach-retreat","44","290577","0.0-44.0","","","1-5","4147","40","1","Training","Stims/Figures/86-C-30-1.bmp","vafa:sha","Up","40","3","9","6B","C1","C","41"
"","","approach-retreat","45","296382","0.0-45.0","","","1-5","4289","39","1","Training","Stims/Figures/128-C-30-3.bmp","va:fa:va","Left","39","3","10","6B","C1","C","42"
"","","approach-retreat","46","302526","0.0-46.0","","","1-5","4633","38","1","Training","Stims/Figures/19-J-10-4.bmp","sasaza","Up","38","3","11","6B","C2","C","43"
"","","approach-retreat","47","309017","0.0-47.0","","","1-5","4977","38","1","Training","Stims/Figures/111-C-30-3.bmp","fa:sha:sha","Down","38","3","12","6B","C1","C","44"
"","","approach-retreat","48","316644","0.0-48.0","","","1-5","6116","39","1","Training","Stims/Figures/84-J-0-2.bmp","zaha:za","Right","39","3","13","6B","C2","C","45"
"","","approach-retreat","49","322519","0.0-49.0","","","1-5","4362","40","1","Training","Stims/Figures/94-C-20-2.bmp","va:shasha","Up","40","3","14","6B","C1","C","46"
"","","approach-retreat","50","330223","0.0-50.0","","","1-5","6181","37","1","Training","Stims/Figures/19-C-20-4.bmp","va:sha:sha","Right","37","3","15","6B","C1","C","47"
"","","approach-retreat","51","336520","0.0-51.0","","","1-5","4760","40","1","Training","Stims/Figures/86-J-0-1.bmp","saha:za","Down","40","3","16","6B","C2","C","48"
"","","approach-retreat","52","342381","0.0-52.0","","","1-5","4327","40","1","Training","Stims/Figures/86-J-0-1.bmp","saha:za","Down","40","4","1","6B","C2","C","49"
"","","approach-retreat","53","348079","0.0-53.0","","","1-5","4178","37","1","Training","Stims/Figures/94-J-0-2.bmp","za:saha","Left","37","4","2","6B","C2","C","50"
"","","approach-retreat","54","354266","0.0-54.0","","","1-5","4671","38","1","Training","Stims/Figures/128-C-30-3.bmp","va:fa:va","Down","38","4","3","6B","C1","C","51"
"","","approach-retreat","55","360154","0.0-55.0","","","1-5","4376","39","1","Training","Stims/Figures/87-J-10-4.bmp","sahaza","Right","39","4","4","6B","C2","C","52"
"","","approach-retreat","56","365816","0.0-56.0","","","1-5","4150","37","1","Training","Stims/Figures/94-C-20-2.bmp","va:shasha","Right","37","4","5","6B","C1","C","53"
"","","approach-retreat","57","371496","0.0-57.0","","","1-5","4157","39","1","Training","Stims/Figures/57-J-0-1.bmp","zasaza","Right","39","4","6","6B","C2","C","54"
"","","approach-retreat","58","377359","0.0-58.0","","","1-5","4334","40","1","Training","Stims/Figures/19-C-20-4.bmp","va:sha:sha","Up","40","4","7","6B","C1","C","55"
"","","approach-retreat","59","383057","0.0-59.0","","","1-5","4186","40","1","Training","Stims/Figures/86-C-30-1.bmp","vafa:sha","Up","40","4","8","6B","C1","C","56"
"","","approach-retreat","60","388986","0.0-60.0","","","1-5","4418","37","1","Training","Stims/Figures/19-J-10-4.bmp","sasaza","Left","37","4","9","6B","C2","C","57"
"","","approach-retreat","61","395367","0.0-61.0","","","1-5","4870","40","1","Training","Stims/Figures/128-J-10-3.bmp","zasa:za","Down","40","4","10","6B","C2","C","58"
"","","approach-retreat","62","401532","0.0-62.0","","","1-5","4624","38","1","Training","Stims/Figures/84-C-20-2.bmp","vafa:va","Down","38","4","11","6B","C1","C","59"
"","","approach-retreat","63","407353","0.0-63.0","","","1-5","4311","39","1","Training","Stims/Figures/111-C-30-3.bmp","fa:sha:sha","Left","39","4","12","6B","C1","C","60"
"","","approach-retreat","64","413184","0.0-64.0","","","1-5","4313","38","1","Training","Stims/Figures/111-J-10-3.bmp","za:sa:ha","Up","38","4","13","6B","C2","C","61"
"","","approach-retreat","65","418847","0.0-65.0","","","1-5","4143","40","1","Training","Stims/Figures/87-C-20-4.bmp","vafasha","Up","40","4","14","6B","C1","C","62"
"","","approach-retreat","66","424806","0.0-66.0","","","1-5","4444","37","1","Training","Stims/Figures/84-J-0-2.bmp","zaha:za","Left","37","4","15","6B","C2","C","63"
"","","approach-retreat","67","431175","0.0-67.0","","","1-5","4833","37","1","Training","Stims/Figures/57-C-30-1.bmp","fa:fava","Right","37","4","16","6B","C1","C","64"
"","","approach-retreat","68","437326","0.0-68.0","","","1-5","4638","39","1","Training","Stims/Figures/86-J-0-1.bmp","saha:za","Right","39","5","1","6B","C2","C","65"
"","","approach-retreat","69","443751","0.0-69.0","","","1-5","4912","38","1","Training","Stims/Figures/111-J-10-3.bmp","za:sa:ha","Up","38","5","2","6B","C2","C","66"
"","","approach-retreat","70","449523","0.0-70.0","","","1-5","4263","40","1","Training","Stims/Figures/86-C-30-1.bmp","vafa:sha","Up","40","5","3","6B","C1","C","67"
"","","approach-retreat","71","461007","0.0-71.0","","","1-5","9972","40","1","Training","Stims/Figures/94-C-20-2.bmp","va:shasha","Up","40","5","4","6B","C1","C","68"
"","","approach-retreat","72","466875","0.0-72.0","","","1-5","4357","37","1","Training","Stims/Figures/94-J-0-2.bmp","za:saha","Left","37","5","5","6B","C2","C","69"
"","","approach-retreat","73","473086","0.0-73.0","","","1-5","4700","40","1","Training","Stims/Figures/128-J-10-3.bmp","zasa:za","Down","40","5","6","6B","C2","C","70"
"","","approach-retreat","74","479477","0.0-74.0","","","1-5","4879","39","1","Training","Stims/Figures/128-C-30-3.bmp","va:fa:va","Left","39","5","7","6B","C1","C","71"
"","","approach-retreat","75","485339","0.0-75.0","","","1-5","4352","37","1","Training","Stims/Figures/19-J-10-4.bmp","sasaza","Left","37","5","8","6B","C2","C","72"
"","","approach-retreat","76","491600","0.0-76.0","","","1-5","4750","38","1","Training","Stims/Figures/19-C-20-4.bmp","va:sha:sha","Down","38","5","9","6B","C1","C","73"
"","","approach-retreat","77","497891","0.0-77.0","","","1-5","4778","39","1","Training","Stims/Figures/57-C-30-1.bmp","fa:fava","Left","39","5","10","6B","C1","C","74"
"","","approach-retreat","78","504794","0.0-78.0","","","1-5","5392","38","1","Training","Stims/Figures/111-C-30-3.bmp","fa:sha:sha","Down","38","5","11","6B","C1","C","75"
"","","approach-retreat","79","510769","0.0-79.0","","","1-5","4464","40","1","Training","Stims/Figures/87-J-10-4.bmp","sahaza","Down","40","5","12","6B","C2","C","76"
"","","approach-retreat","80","517792","0.0-80.0","","","1-5","5511","37","1","Training","Stims/Figures/87-C-20-4.bmp","vafasha","Right","37","5","13","6B","C1","C","77"
"","","approach-retreat","81","523359","0.0-81.0","","","1-5","4049","39","1","Training","Stims/Figures/57-J-0-1.bmp","zasaza","Right","39","5","14","6B","C2","C","78"
"","","approach-retreat","82","529314","0.0-82.0","","","1-5","4445","37","1","Training","Stims/Figures/84-C-20-2.bmp","vafa:va","Right","37","5","15","6B","C1","C","79"
"","","approach-retreat","83","535678","0.0-83.0","","","1-5","4837","38","1","Training","Stims/Figures/84-J-0-2.bmp","zaha:za","Up","38","5","16","6B","C2","C","80"
"","","approach-retreat","84","542072","0.0-84.0","","","1-5","4884","39","1","Training","Stims/Figures/57-J-0-1.bmp","zasaza","Right","39","6","1","6B","C2","C","81"
"","","approach-retreat","85","547850","0.0-85.0","","","1-5","4254","40","1","Training","Stims/Figures/86-J-0-1.bmp","saha:za","Down","40","6","2","6B","C2","C","82"
"","","approach-retreat","86","554318","0.0-86.0","","","1-5","4957","39","1","Training","Stims/Figures/84-C-20-2.bmp","vafa:va","Left","39","6","3","6B","C1","C","83"
"","","approach-retreat","87","560830","0.0-87.0","","","1-5","4982","39","1","Training","Stims/Figures/19-J-10-4.bmp","sasaza","Right","39","6","4","6B","C2","C","84"
"","","approach-retreat","88","775613","0.0-88.0","","","1-5","213272","39","1","Training","Stims/Figures/94-C-20-2.bmp","va:shasha","Left","39","6","5","6B","C1","C","85"
"","","approach-retreat","89","783197","0.0-89.0","","","1-5","6039","39","1","Training","Stims/Figures/111-J-10-3.bmp","za:sa:ha","Right","39","6","6","6B","C2","C","86"
"","","approach-retreat","90","789725","0.0-90.0","","","1-5","4988","38","1","Training","Stims/Figures/94-J-0-2.bmp","za:saha","Up","38","6","7","6B","C2","C","87"
"","","approach-retreat","91","796063","0.0-91.0","","","1-5","4795","39","1","Training","Stims/Figures/128-C-30-3.bmp","va:fa:va","Left","39","6","8","6B","C1","C","88"
"","","approach-retreat","92","802553","0.0-92.0","","","1-5","4943","37","1","Training","Stims/Figures/87-C-20-4.bmp","vafasha","Right","37","6","9","6B","C1","C","89"
"","","approach-retreat","93","808636","0.0-93.0","","","1-5","4551","40","1","Training","Stims/Figures/84-J-0-2.bmp","zaha:za","Down","40","6","10","6B","C2","C","90"
"","","approach-retreat","94","815197","0.0-94.0","","","1-5","5017","40","1","Training","Stims/Figures/86-C-30-1.bmp","vafa:sha","Up","40","6","11","6B","C1","C","91"
"","","approach-retreat","95","821935","0.0-95.0","","","1-5","5198","38","1","Training","Stims/Figures/111-C-30-3.bmp","fa:sha:sha","Down","38","6","12","6B","C1","C","92"
"","","approach-retreat","96","828021","0.0-96.0","","","1-5","4543","40","1","Training","Stims/Figures/19-C-20-4.bmp","va:sha:sha","Up","40","6","13","6B","C1","C","93"
"","","approach-retreat","97","834243","0.0-97.0","","","1-5","4675","39","1","Training","Stims/Figures/57-C-30-1.bmp","fa:fava","Left","39","6","14","6B","C1","C","94"
"","","approach-retreat","98","840298","0.0-98.0","","","1-5","4510","40","1","Training","Stims/Figures/87-J-10-4.bmp","sahaza","Down","40","6","15","6B","C2","C","95"
"","","approach-retreat","99","846494","0.0-99.0","","","1-5","4652","38","1","Training","Stims/Figures/128-J-10-3.bmp","zasa:za","Up","38","6","16","6B","C2","C","96"
"","","approach-retreat","100","852688","0.0-100.0","","","1-5","4657","37","1","Training","Stims/Figures/86-J-0-1.bmp","saha:za","Left","37","7","1","6B","C2","C","97"
"","","approach-retreat","101","858786","0.0-101.0","","","1-5","4553","37","1","Training","Stims/Figures/128-J-10-3.bmp","zasa:za","Left","37","7","2","6B","C2","C","98"
"","","approach-retreat","102","864709","0.0-102.0","","","1-5","4376","37","1","Training","Stims/Figures/87-J-10-4.bmp","sahaza","Left","37","7","3","6B","C2","C","99"
"","","approach-retreat","103","871070","0.0-103.0","","","1-5","4816","40","1","Training","Stims/Figures/19-J-10-4.bmp","sasaza","Down","40","7","4","6B","C2","C","100"
"","","approach-retreat","104","877083","0.0-104.0","","","1-5","4475","38","1","Training","Stims/Figures/84-C-20-2.bmp","vafa:va","Down","38","7","5","6B","C1","C","101"
"","","approach-retreat","105","883196","0.0-105.0","","","1-5","4568","37","1","Training","Stims/Figures/128-C-30-3.bmp","va:fa:va","Right","37","7","6","6B","C1","C","102"
"","","approach-retreat","106","889131","0.0-106.0","","","1-5","4409","37","1","Training","Stims/Figures/94-C-20-2.bmp","va:shasha","Right","37","7","7","6B","C1","C","103"
"","","approach-retreat","107","895424","0.0-107.0","","","1-5","4758","39","1","Training","Stims/Figures/94-J-0-2.bmp","za:saha","Right","39","7","8","6B","C2","C","104"
"","","approach-retreat","108","901545","0.0-108.0","","","1-5","4588","38","1","Training","Stims/Figures/84-J-0-2.bmp","zaha:za","Up","38","7","9","6B","C2","C","105"
"","","approach-retreat","109","907672","0.0-109.0","","","1-5","4590","37","1","Training","Stims/Figures/111-J-10-3.bmp","za:sa:ha","Left","37","7","10","6B","C2","C","106"
"","","approach-retreat","110","913454","0.0-110.0","","","1-5","4250","37","1","Training","Stims/Figures/57-C-30-1.bmp","fa:fava","Right","37","7","11","6B","C1","C","107"
"","","approach-retreat","111","919376","0.0-111.0","","","1-5","4388","40","1","Training","Stims/Figures/19-C-20-4.bmp","va:sha:sha","Up","40","7","12","6B","C1","C","108"
"","","approach-retreat","112","925381","0.0-112.0","","","1-5","4461","38","1","Training","Stims/Figures/86-C-30-1.bmp","vafa:sha","Down","38","7","13","6B","C1","C","109"
"","","approach-retreat","113","931437","0.0-113.0","","","1-5","4538","38","1","Training","Stims/Figures/111-C-30-3.bmp","fa:sha:sha","Down","38","7","14","6B","C1","C","110"
"","","approach-retreat","114","937379","0.0-114.0","","","1-5","4429","40","1","Training","Stims/Figures/87-C-20-4.bmp","vafasha","Up","40","7","15","6B","C1","C","111"
"","","approach-retreat","115","944917","0.0-115.0","","","1-5","5994","38","1","Training","Stims/Figures/57-J-0-1.bmp","zasaza","Up","38","7","16","6B","C2","C","112"
"","","approach-retreat","116","951452","0.0-116.0","","","1-5","5008","40","1","Training","Stims/Figures/128-J-10-3.bmp","zasa:za","Down","40","8","1","6B","C2","C","113"
"","","approach-retreat","117","957618","0.0-117.0","","","1-5","4621","37","1","Training","Stims/Figures/84-C-20-2.bmp","vafa:va","Right","37","8","2","6B","C1","C","114"
"","","approach-retreat","118","963936","0.0-118.0","","","1-5","4784","39","1","Training","Stims/Figures/111-C-30-3.bmp","fa:sha:sha","Left","39","8","3","6B","C1","C","115"
"","","approach-retreat","119","970352","0.0-119.0","","","1-5","4872","38","1","Training","Stims/Figures/57-C-30-1.bmp","fa:fava","Down","38","8","4","6B","C1","C","116"
"","","approach-retreat","120","976579","0.0-120.0","","","1-5","4716","39","1","Training","Stims/Figures/86-J-0-1.bmp","saha:za","Right","39","8","5","6B","C2","C","117"
"","","approach-retreat","121","983719","0.0-121.0","","","1-5","5605","37","1","Training","Stims/Figures/87-C-20-4.bmp","vafasha","Right","37","8","6","6B","C1","C","118"
"","","approach-retreat","122","989753","0.0-122.0","","","1-5","4494","39","1","Training","Stims/Figures/19-C-20-4.bmp","va:sha:sha","Left","39","8","7","6B","C1","C","119"
"","","approach-retreat","123","996233","0.0-123.0","","","1-5","4944","38","1","Training","Stims/Figures/87-J-10-4.bmp","sahaza","Up","38","8","8","6B","C2","C","120"
"","","approach-retreat","124","1003907","0.0-124.0","","","1-5","6127","39","1","Training","Stims/Figures/111-J-10-3.bmp","za:sa:ha","Right","39","8","9","6B","C2","C","121"
"","","approach-retreat","125","1012181","0.0-125.0","","","1-5","6737","39","1","Training","Stims/Figures/128-C-30-3.bmp","va:fa:va","Left","39","8","10","6B","C1","C","122"
"","","approach-retreat","126","1018478","0.0-126.0","","","1-5","4759","40","1","Training","Stims/Figures/94-J-0-2.bmp","za:saha","Down","40","8","11","6B","C2","C","123"
"","","approach-retreat","127","1024304","0.0-127.0","","","1-5","4289","39","1","Training","Stims/Figures/94-C-20-2.bmp","va:shasha","Left","39","8","12","6B","C1","C","124"
"","","approach-retreat","128","1030246","0.0-128.0","","","1-5","4403","40","1","Training","Stims/Figures/19-J-10-4.bmp","sasaza","Down","40","8","13","6B","C2","C","125"
"","","approach-retreat","129","1036284","0.0-129.0","","","1-5","4499","38","1","Training","Stims/Figures/57-J-0-1.bmp","zasaza","Up","38","8","14","6B","C2","C","126"
"","","approach-retreat","130","1042846","0.0-130.0","","","1-5","5025","38","1","Training","Stims/Figures/84-J-0-2.bmp","zaha:za","Up","38","8","15","6B","C2","C","127"
"","","approach-retreat","131","1049265","0.0-131.0","","","1-5","4878","40","1","Training","Stims/Figures/86-C-30-1.bmp","vafa:sha","Up","40","8","16","6B","C1","C","128"
"","","approach-retreat","132","1056034","0.0-132.0","","","1-5","5229","39","1","Training","Stims/Figures/128-J-10-3.bmp","zasa:za","Right","39","9","1","6B","C2","C","129"
"","","approach-retreat","133","1062111","0.0-133.0","","","1-5","4533","38","1","Training","Stims/Figures/111-J-10-3.bmp","za:sa:ha","Up","38","9","2","6B","C2","C","130"
"","","approach-retreat","134","1071350","0.0-134.0","","","1-5","7702","37","1","Training","Stims/Figures/86-J-0-1.bmp","saha:za","Left","37","9","3","6B","C2","C","131"
"","","approach-retreat","135","1077107","0.0-135.0","","","1-5","4221","40","1","Training","Stims/Figures/84-J-0-2.bmp","zaha:za","Down","40","9","4","6B","C2","C","132"
"","","approach-retreat","136","1083134","0.0-136.0","","","1-5","4481","38","1","Training","Stims/Figures/57-J-0-1.bmp","zasaza","Up","38","9","5","6B","C2","C","133"
"","","approach-retreat","137","1089270","0.0-137.0","","","1-5","4600","37","1","Training","Stims/Figures/111-C-30-3.bmp","fa:sha:sha","Right","37","9","6","6B","C1","C","134"
"","","approach-retreat","138","1095412","0.0-138.0","","","1-5","4592","38","1","Training","Stims/Figures/84-C-20-2.bmp","vafa:va","Down","38","9","7","6B","C1","C","135"
"","","approach-retreat","139","1101257","0.0-139.0","","","1-5","4307","39","1","Training","Stims/Figures/87-C-20-4.bmp","vafasha","Left","39","9","8","6B","C1","C","136"
"","","approach-retreat","140","1107330","0.0-140.0","","","1-5","4528","40","1","Training","Stims/Figures/86-C-30-1.bmp","vafa:sha","Up","40","9","9","6B","C1","C","137"
"","","approach-retreat","141","1113267","0.0-141.0","","","1-5","4390","37","1","Training","Stims/Figures/87-J-10-4.bmp","sahaza","Left","37","9","10","6B","C2","C","138"
"","","approach-retreat","142","1119240","0.0-142.0","","","1-5","4444","37","1","Training","Stims/Figures/19-C-20-4.bmp","va:sha:sha","Right","37","9","11","6B","C1","C","139"
"","","approach-retreat","143","1125190","0.0-143.0","","","1-5","4407","40","1","Training","Stims/Figures/19-J-10-4.bmp","sasaza","Down","40","9","12","6B","C2","C","140"
"","","approach-retreat","144","1131745","0.0-144.0","","","1-5","5045","37","1","Training","Stims/Figures/94-C-20-2.bmp","va:shasha","Right","37","9","13","6B","C1","C","141"
"","","approach-retreat","145","1137951","0.0-145.0","","","1-5","4669","38","1","Training","Stims/Figures/57-C-30-1.bmp","fa:fava","Down","38","9","14","6B","C1","C","142"
"","","approach-retreat","146","1143955","0.0-146.0","","","1-5","4467","40","1","Training","Stims/Figures/128-C-30-3.bmp","va:fa:va","Up","40","9","15","6B","C1","C","143"
"","","approach-retreat","147","1150046","0.0-147.0","","","1-5","4544","37","1","Training","Stims/Figures/94-J-0-2.bmp","za:saha","Left","37","9","16","6B","C2","C","144"
"10224","","instructions","148","1160272","0.0-148.0","[{""page_index"":0,""viewing_time"":10221}]","","","","","","","","","","","","","","","",""
"","","approach-retreat","149","1166424","0.0-149.0","","","1-5","4621","39","1","Testing","Stims/Figures/94-C-20-2.bmp","va:shasha","Left","39","1","1","6B","C1","C","1"
"","","approach-retreat","150","1172439","0.0-150.0","","","1-5","4483","40","0","Testing","Stims/Figures/111-J-10-3.bmp","za:sa:ha","Up","38","1","2","6B","C2","C","2"
"","","approach-retreat","151","1179473","0.0-151.0","","","1-5","5501","39","1","Testing","Stims/Figures/86-C-30-1.bmp","vafa:sha","Left","39","1","3","6B","C1","C","3"
"","","approach-retreat","152","1186458","0.0-152.0","","","1-5","5450","40","1","Testing","Stims/Figures/57-J-0-1.bmp","zasaza","Down","40","1","4","6B","C2","C","4"
"","","approach-retreat","153","1192588","0.0-153.0","","","1-5","4598","38","1","Testing","Stims/Figures/128-J-10-3.bmp","zasa:za","Up","38","1","5","6B","C2","C","5"
"","","approach-retreat","154","1198675","0.0-154.0","","","1-5","4565","40","1","Testing","Stims/Figures/19-C-20-4.bmp","va:sha:sha","Up","40","1","6","6B","C1","C","6"
"","","approach-retreat","155","1205598","0.0-155.0","","","1-5","5387","40","1","Testing","Stims/Figures/102-J-10-4.bmp","zasa:ha","Down","40","1","7","6B","C2","C","7"
"","","approach-retreat","156","1211538","0.0-156.0","","","1-5","4409","38","1","Testing","Stims/Figures/71-C-30-1.bmp","vashasha","Down","38","1","8","6B","C1","C","8"
"","","approach-retreat","157","1217447","0.0-157.0","","","1-5","4376","39","1","Testing","Stims/Figures/94-J-0-2.bmp","za:saha","Right","39","1","9","6B","C2","C","9"
"","","approach-retreat","158","1223369","0.0-158.0","","","1-5","4410","39","1","Testing","Stims/Figures/85-C-20-2.bmp","vasha:sha","Left","39","1","10","6B","C1","C","10"
"","","approach-retreat","159","1229799","0.0-159.0","","","1-5","4895","39","1","Testing","Stims/Figures/71-J-0-1.bmp","za:sa:za","Right","39","1","11","6B","C2","C","11"
"","","approach-retreat","160","1236023","0.0-160.0","","","1-5","4691","37","1","Testing","Stims/Figures/44-C-30-3.bmp","va:shava","Right","37","1","12","6B","C1","C","12"
"","","approach-retreat","161","1250827","0.0-161.0","","","1-5","13270","40","1","Testing","Stims/Figures/102-C-20-4.bmp","vashava","Up","40","1","13","6B","C1","C","13"
"","","approach-retreat","162","1258260","0.0-162.0","","","1-5","5899","37","1","Testing","Stims/Figures/44-J-10-3.bmp","sa:haha","Left","37","1","14","6B","C2","C","14"
"","","approach-retreat","163","1336486","0.0-163.0","","","1-5","76710","38","1","Testing","Stims/Figures/87-C-20-4.bmp","vafasha","Down","38","1","15","6B","C1","C","15"
"","","approach-retreat","164","1351848","0.0-164.0","","","1-5","13829","39","1","Testing","Stims/Figures/128-C-30-3.bmp","va:fa:va","Left","39","1","16","6B","C1","C","16"
"","","approach-retreat","165","1358360","0.0-165.0","","","1-5","4970","39","1","Testing","Stims/Figures/19-J-10-4.bmp","sasaza","Right","39","1","17","6B","C2","C","17"
"","","approach-retreat","166","1364484","0.0-166.0","","","1-5","4592","40","0","Testing","Stims/Figures/84-C-20-2.bmp","vafa:va","Down","38","1","18","6B","C1","C","18"
"","","approach-retreat","167","1461151","0.0-167.0","","","1-5","95134","40","1","Testing","Stims/Figures/86-J-0-1.bmp","saha:za","Down","40","1","19","6B","C2","C","19"
"","","approach-retreat","168","1467048","0.0-168.0","","","1-5","4363","39","1","Testing","Stims/Figures/111-C-30-3.bmp","fa:sha:sha","Left","39","1","20","6B","C1","C","20"
"","","approach-retreat","169","1473315","0.0-169.0","","","1-5","4728","39","1","Testing","Stims/Figures/84-J-0-2.bmp","zaha:za","Right","39","1","21","6B","C2","C","21"
"","","approach-retreat","170","1481026","0.0-170.0","","","1-5","6189","40","1","Testing","Stims/Figures/57-C-30-1.bmp","fa:fava","Up","40","1","22","6B","C1","C","22"
"","","approach-retreat","171","1487161","0.0-171.0","","","1-5","4625","38","1","Testing","Stims/Figures/87-J-10-4.bmp","sahaza","Up","38","1","23","6B","C2","C","23"
"","","approach-retreat","172","1493660","0.0-172.0","","","1-5","4966","39","1","Testing","Stims/Figures/85-J-0-2.bmp","sa:saha","Right","39","1","24","6B","C2","C","24"
"","","approach-retreat","173","1499764","0.0-173.0","","","1-5","4570","39","1","Testing","Stims/Figures/94-C-20-2.bmp","va:shasha","Left","39","2","1","6B","C1","C","25"
"","","approach-retreat","174","1505815","0.0-174.0","","","1-5","4517","39","1","Testing","Stims/Figures/85-C-20-2.bmp","vasha:sha","Left","39","2","2","6B","C1","C","26"
"","","approach-retreat","175","1511980","0.0-175.0","","","1-5","4630","39","1","Testing","Stims/Figures/111-J-10-3.bmp","za:sa:ha","Right","39","2","3","6B","C2","C","27"
"","","approach-retreat","176","1518111","0.0-176.0","","","1-5","4599","38","1","Testing","Stims/Figures/87-C-20-4.bmp","vafasha","Down","38","2","4","6B","C1","C","28"
"","","approach-retreat","177","1524141","0.0-177.0","","","1-5","4497","38","1","Testing","Stims/Figures/19-C-20-4.bmp","va:sha:sha","Down","38","2","5","6B","C1","C","29"
"","","approach-retreat","178","1536358","0.0-178.0","","","1-5","10682","38","1","Testing","Stims/Figures/85-J-0-2.bmp","sa:saha","Up","38","2","6","6B","C2","C","30"
"","","approach-retreat","179","1542693","0.0-179.0","","","1-5","4799","39","1","Testing","Stims/Figures/44-C-30-3.bmp","va:shava","Left","39","2","7","6B","C1","C","31"
"","","approach-retreat","180","1548784","0.0-180.0","","","1-5","4559","39","1","Testing","Stims/Figures/84-J-0-2.bmp","zaha:za","Right","39","2","8","6B","C2","C","32"
"","","approach-retreat","181","1554891","0.0-181.0","","","1-5","4575","38","1","Testing","Stims/Figures/111-C-30-3.bmp","fa:sha:sha","Down","38","2","9","6B","C1","C","33"
"","","approach-retreat","182","1561077","0.0-182.0","","","1-5","4652","37","1","Testing","Stims/Figures/57-C-30-1.bmp","fa:fava","Right","37","2","10","6B","C1","C","34"
"","","approach-retreat","183","1567003","0.0-183.0","","","1-5","4394","38","1","Testing","Stims/Figures/102-C-20-4.bmp","vashava","Down","38","2","11","6B","C1","C","35"
"","","approach-retreat","184","1573140","0.0-184.0","","","1-5","4605","39","1","Testing","Stims/Figures/86-C-30-1.bmp","vafa:sha","Left","39","2","12","6B","C1","C","36"
"","","approach-retreat","185","1579065","0.0-185.0","","","1-5","4412","39","1","Testing","Stims/Figures/86-J-0-1.bmp","saha:za","Right","39","2","13","6B","C2","C","37"
"","","approach-retreat","186","1585161","0.0-186.0","","","1-5","4562","38","1","Testing","Stims/Figures/94-J-0-2.bmp","za:saha","Up","38","2","14","6B","C2","C","38"
"","","approach-retreat","187","1591194","0.0-187.0","","","1-5","4499","37","1","Testing","Stims/Figures/57-J-0-1.bmp","zasaza","Left","37","2","15","6B","C2","C","39"
"","","approach-retreat","188","1597201","0.0-188.0","","","1-5","4472","40","1","Testing","Stims/Figures/71-C-30-1.bmp","vashasha","Up","40","2","16","6B","C1","C","40"
"","","approach-retreat","189","1603428","0.0-189.0","","","1-5","4692","39","1","Testing","Stims/Figures/128-J-10-3.bmp","zasa:za","Right","39","2","17","6B","C2","C","41"
"","","approach-retreat","190","1609443","0.0-190.0","","","1-5","4484","40","1","Testing","Stims/Figures/102-J-10-4.bmp","zasa:ha","Down","40","2","18","6B","C2","C","42"
"","","approach-retreat","191","1615265","0.0-191.0","","","1-5","4286","38","1","Testing","Stims/Figures/19-J-10-4.bmp","sasaza","Up","38","2","19","6B","C2","C","43"
"","","approach-retreat","192","1622708","0.0-192.0","","","1-5","5911","40","1","Testing","Stims/Figures/128-C-30-3.bmp","va:fa:va","Up","40","2","20","6B","C1","C","44"
"","","approach-retreat","193","1629975","0.0-193.0","","","1-5","5737","40","1","Testing","Stims/Figures/44-J-10-3.bmp","sa:haha","Down","40","2","21","6B","C2","C","45"
"","","approach-retreat","194","1636226","0.0-194.0","","","1-5","4719","39","1","Testing","Stims/Figures/84-C-20-2.bmp","vafa:va","Left","39","2","22","6B","C1","C","46"
"","","approach-retreat","195","1642384","0.0-195.0","","","1-5","4624","39","1","Testing","Stims/Figures/71-J-0-1.bmp","za:sa:za","Right","39","2","23","6B","C2","C","47"
"","","approach-retreat","196","1648488","0.0-196.0","","","1-5","4572","38","1","Testing","Stims/Figures/87-J-10-4.bmp","sahaza","Up","38","2","24","6B","C2","C","48"
"","","approach-retreat","197","1654597","0.0-197.0","","","1-5","4576","37","1","Testing","Stims/Figures/111-J-10-3.bmp","za:sa:ha","Left","37","3","1","6B","C2","C","49"
"","","approach-retreat","198","1660444","0.0-198.0","","","1-5","4335","40","1","Testing","Stims/Figures/86-C-30-1.bmp","vafa:sha","Up","40","3","2","6B","C1","C","50"
"","","approach-retreat","199","1666525","0.0-199.0","","","1-5","4548","38","1","Testing","Stims/Figures/44-C-30-3.bmp","va:shava","Down","38","3","3","6B","C1","C","51"
"","","approach-retreat","200","1672595","0.0-200.0","","","1-5","4535","38","1","Testing","Stims/Figures/111-C-30-3.bmp","fa:sha:sha","Down","38","3","4","6B","C1","C","52"
"","","approach-retreat","201","1678699","0.0-201.0","","","1-5","4572","38","1","Testing","Stims/Figures/19-C-20-4.bmp","va:sha:sha","Down","38","3","5","6B","C1","C","53"
"","","approach-retreat","202","1684610","0.0-202.0","","","1-5","4394","38","1","Testing","Stims/Figures/85-C-20-2.bmp","vasha:sha","Down","38","3","6","6B","C1","C","54"
"","","approach-retreat","203","1690812","0.0-203.0","","","1-5","4670","38","1","Testing","Stims/Figures/102-J-10-4.bmp","zasa:ha","Up","38","3","7","6B","C2","C","55"
"","","approach-retreat","204","1698069","0.0-204.0","","","1-5","5728","40","1","Testing","Stims/Figures/128-C-30-3.bmp","va:fa:va","Up","40","3","8","6B","C1","C","56"
"","","approach-retreat","205","1717037","0.0-205.0","","","1-5","17436","38","1","Testing","Stims/Figures/71-C-30-1.bmp","vashasha","Down","38","3","9","6B","C1","C","57"
"","","approach-retreat","206","1727224","0.0-206.0","","","1-5","8653","39","1","Testing","Stims/Figures/94-J-0-2.bmp","za:saha","Right","39","3","10","6B","C2","C","58"
"","","approach-retreat","207","1733099","0.0-207.0","","","1-5","4340","39","1","Testing","Stims/Figures/19-J-10-4.bmp","sasaza","Right","39","3","11","6B","C2","C","59"
"","","approach-retreat","208","1740682","0.0-208.0","","","1-5","6051","37","1","Testing","Stims/Figures/44-J-10-3.bmp","sa:haha","Left","37","3","12","6B","C2","C","60"
"","","approach-retreat","209","1746713","0.0-209.0","","","1-5","4501","39","1","Testing","Stims/Figures/102-C-20-4.bmp","vashava","Left","39","3","13","6B","C1","C","61"
"","","approach-retreat","210","1755333","0.0-210.0","","","1-5","7085","39","1","Testing","Stims/Figures/87-J-10-4.bmp","sahaza","Right","39","3","14","6B","C2","C","62"
"","","approach-retreat","211","1761250","0.0-211.0","","","1-5","4382","40","1","Testing","Stims/Figures/85-J-0-2.bmp","sa:saha","Down","40","3","15","6B","C2","C","63"
"","","approach-retreat","212","1771705","0.0-212.0","","","1-5","8919","39","1","Testing","Stims/Figures/84-C-20-2.bmp","vafa:va","Left","39","3","16","6B","C1","C","64"
"","","approach-retreat","213","1777764","0.0-213.0","","","1-5","4529","37","1","Testing","Stims/Figures/57-C-30-1.bmp","fa:fava","Right","37","3","17","6B","C1","C","65"
"","","approach-retreat","214","1783862","0.0-214.0","","","1-5","4569","38","1","Testing","Stims/Figures/71-J-0-1.bmp","za:sa:za","Up","38","3","18","6B","C2","C","66"
"","","approach-retreat","215","1789913","0.0-215.0","","","1-5","4518","39","1","Testing","Stims/Figures/87-C-20-4.bmp","vafasha","Left","39","3","19","6B","C1","C","67"
"","","approach-retreat","216","1796641","0.0-216.0","","","1-5","5196","37","1","Testing","Stims/Figures/94-C-20-2.bmp","va:shasha","Right","37","3","20","6B","C1","C","68"
"","","approach-retreat","217","1802804","0.0-217.0","","","1-5","4641","38","1","Testing","Stims/Figures/57-J-0-1.bmp","zasaza","Up","38","3","21","6B","C2","C","69"
"","","approach-retreat","218","1808985","0.0-218.0","","","1-5","4648","37","1","Testing","Stims/Figures/128-J-10-3.bmp","zasa:za","Left","37","3","22","6B","C2","C","70"
"","","approach-retreat","219","1817635","0.0-219.0","","","1-5","7117","39","1","Testing","Stims/Figures/86-J-0-1.bmp","saha:za","Right","39","3","23","6B","C2","C","71"
"","","approach-retreat","220","1823928","0.0-220.0","","","1-5","4784","38","1","Testing","Stims/Figures/84-J-0-2.bmp","zaha:za","Up","38","3","24","6B","C2","C","72"
"","","approach-retreat","221","1830015","0.0-221.0","","","1-5","4554","38","1","Testing","Stims/Figures/71-C-30-1.bmp","vashasha","Down","38","4","1","6B","C1","C","73"
"","","approach-retreat","222","1836041","0.0-222.0","","","1-5","4489","40","1","Testing","Stims/Figures/87-J-10-4.bmp","sahaza","Down","40","4","2","6B","C2","C","74"
"","","approach-retreat","223","1841979","0.0-223.0","","","1-5","4407","39","1","Testing","Stims/Figures/84-C-20-2.bmp","vafa:va","Left","39","4","3","6B","C1","C","75"
"","","approach-retreat","224","1847930","0.0-224.0","","","1-5","4436","39","1","Testing","Stims/Figures/128-C-30-3.bmp","va:fa:va","Left","39","4","4","6B","C1","C","76"
"","","approach-retreat","225","1854204","0.0-225.0","","","1-5","4743","37","1","Testing","Stims/Figures/102-C-20-4.bmp","vashava","Right","37","4","5","6B","C1","C","77"
"","","approach-retreat","226","1860132","0.0-226.0","","","1-5","4400","40","1","Testing","Stims/Figures/57-J-0-1.bmp","zasaza","Down","40","4","6","6B","C2","C","78"
"","","approach-retreat","227","1866139","0.0-227.0","","","1-5","4476","37","1","Testing","Stims/Figures/19-J-10-4.bmp","sasaza","Left","37","4","7","6B","C2","C","79"
"","","approach-retreat","228","1872336","0.0-228.0","","","1-5","4660","39","1","Testing","Stims/Figures/87-C-20-4.bmp","vafasha","Left","39","4","8","6B","C1","C","80"
"","","approach-retreat","229","1878717","0.0-229.0","","","1-5","4859","38","1","Testing","Stims/Figures/85-J-0-2.bmp","sa:saha","Up","38","4","9","6B","C2","C","81"
"","","approach-retreat","230","1884904","0.0-230.0","","","1-5","4658","40","1","Testing","Stims/Figures/44-J-10-3.bmp","sa:haha","Down","40","4","10","6B","C2","C","82"
"","","approach-retreat","231","1891225","0.0-231.0","","","1-5","4787","37","1","Testing","Stims/Figures/111-C-30-3.bmp","fa:sha:sha","Right","37","4","11","6B","C1","C","83"
"","","approach-retreat","232","1897540","0.0-232.0","","","1-5","4785","40","1","Testing","Stims/Figures/19-C-20-4.bmp","va:sha:sha","Up","40","4","12","6B","C1","C","84"
"","","approach-retreat","233","1903379","0.0-233.0","","","1-5","4305","39","1","Testing","Stims/Figures/84-J-0-2.bmp","zaha:za","Right","39","4","13","6B","C2","C","85"
"","","approach-retreat","234","1909277","0.0-234.0","","","1-5","4365","40","1","Testing","Stims/Figures/85-C-20-2.bmp","vasha:sha","Up","40","4","14","6B","C1","C","86"
"","","approach-retreat","235","1915218","0.0-235.0","","","1-5","4410","39","1","Testing","Stims/Figures/94-C-20-2.bmp","va:shasha","Left","39","4","15","6B","C1","C","87"
"","","approach-retreat","236","1921531","0.0-236.0","","","1-5","4803","38","1","Testing","Stims/Figures/86-J-0-1.bmp","saha:za","Up","38","4","16","6B","C2","C","88"
"","","approach-retreat","237","1927509","0.0-237.0","","","1-5","4450","40","1","Testing","Stims/Figures/44-C-30-3.bmp","va:shava","Up","40","4","17","6B","C1","C","89"
"","","approach-retreat","238","1933752","0.0-238.0","","","1-5","4708","40","1","Testing","Stims/Figures/71-J-0-1.bmp","za:sa:za","Down","40","4","18","6B","C2","C","90"
"","","approach-retreat","239","1940122","0.0-239.0","","","1-5","4835","39","1","Testing","Stims/Figures/102-J-10-4.bmp","zasa:ha","Right","39","4","19","6B","C2","C","91"
"","","approach-retreat","240","1946120","0.0-240.0","","","1-5","4469","39","1","Testing","Stims/Figures/94-J-0-2.bmp","za:saha","Right","39","4","20","6B","C2","C","92"
"","","approach-retreat","241","1952172","0.0-241.0","","","1-5","4539","39","1","Testing","Stims/Figures/86-C-30-1.bmp","vafa:sha","Left","39","4","21","6B","C1","C","93"
"","","approach-retreat","242","1958285","0.0-242.0","","","1-5","4578","38","1","Testing","Stims/Figures/57-C-30-1.bmp","fa:fava","Down","38","4","22","6B","C1","C","94"
"","","approach-retreat","243","1964379","0.0-243.0","","","1-5","4561","38","1","Testing","Stims/Figures/111-J-10-3.bmp","za:sa:ha","Up","38","4","23","6B","C2","C","95"
"","","approach-retreat","244","1970388","0.0-244.0","","","1-5","4475","39","1","Testing","Stims/Figures/128-J-10-3.bmp","zasa:za","Right","39","4","24","6B","C2","C","96"
"150303","","survey-text","245","2120713","0.0-245.0","","{""Q0"":""1068/2018""}","","","","","","","","","","","","","","",""
