\"rt\",\"key_press\",\"trial_type\",\"trial_index\",\"time_elapsed\",\"internal_node_id\",\"view_history\",\"responses\",\"Id\",\"Rt\",\"ResKeyCode\",\"ResCorr\",\"TrialType2\",\"Image\",\"Label\",\"Location\",\"CorrectResponse\",\"Block\",\"BlockTrial\",\"Condition\",\"LabelType\",\"Subcondition\",\"trialNum\"
\"20019\",\"32\",\"text\",\"0\",\"20024\",\"0.0-0.0-0.0\",\"\",\"\",\"\",\"\",\"\",\"\",\"\",\"\",\"\",\"\",\"\",\"\",\"\",\"\",\"\",\"\",\"\"
\"69554\",\"\",\"instructions\",\"1\",\"89580\",\"0.0-1.0\",\"[{\"\"page_index\"\":0,\"\"viewing_time\"\":69553}]\",\"\",\"\",\"\",\"\",\"\",\"\",\"\",\"\",\"\",\"\",\"\",\"\",\"\",\"\",\"\",\"\"
\"31229\",\"\",\"survey-multi-choice\",\"2\",\"120886\",\"0.0-2.0\",\"\",\"{\"\"Q0\"\":\"\"Da\"\",\"\"Q1\"\":\"\"Da\"\",\"\"Q2\"\":\"\"Da\"\",\"\"Q3\"\":\"\"Da\"\",\"\"Q4\"\":\"\"Da\"\",\"\"Q5\"\":\"\"Da\"\"}\",\"\",\"\",\"\",\"\",\"\",\"\",\"\",\"\",\"\",\"\",\"\",\"\",\"\",\"\",\"\"
\"\",\"\",\"bio\",\"3\",\"130118\",\"0.0-3.0\",\"\",\"{\"\"age\"\":\"\"19\"\",\"\"gender\"\":\"\"f\"\",\"\"specify\"\":\"\"\"\"}\",\"\",\"\",\"\",\"\",\"\",\"\",\"\",\"\",\"\",\"\",\"\",\"\",\"\",\"\",\"\"
\"\",\"\",\"approach-retreat\",\"4\",\"154504\",\"0.0-4.0\",\"\",\"\",\"2-2\",\"22875\",\"39\",\"0\",\"Training\",\"Stims/Figures/100-C-30-3.bmp\",\"sa:haha\",\"Left\",\"37\",\"1\",\"1\",\"6A\",\"C2\",\"J\",\"1\"
\"\",\"\",\"approach-retreat\",\"5\",\"166315\",\"0.0-5.0\",\"\",\"\",\"2-2\",\"10299\",\"40\",\"0\",\"Training\",\"Stims/Figures/144-J-10-3.bmp\",\"fasha:va\",\"Down\",\"38\",\"1\",\"2\",\"6A\",\"C1\",\"J\",\"2\"
\"\",\"\",\"approach-retreat\",\"6\",\"173278\",\"0.0-6.0\",\"\",\"\",\"2-2\",\"5454\",\"38\",\"1\",\"Training\",\"Stims/Figures/87-J-10-4.bmp\",\"fashasha\",\"Down\",\"38\",\"1\",\"3\",\"6A\",\"C1\",\"J\",\"3\"
\"\",\"\",\"approach-retreat\",\"7\",\"180840\",\"0.0-7.0\",\"\",\"\",\"2-2\",\"6051\",\"37\",\"1\",\"Training\",\"Stims/Figures/57-J-0-1.bmp\",\"va:fa:sha\",\"Right\",\"37\",\"1\",\"4\",\"6A\",\"C1\",\"J\",\"4\"
\"\",\"\",\"approach-retreat\",\"8\",\"187051\",\"0.0-8.0\",\"\",\"\",\"2-2\",\"4702\",\"37\",\"0\",\"Training\",\"Stims/Figures/94-J-0-2.bmp\",\"fafa:va\",\"Left\",\"39\",\"1\",\"5\",\"6A\",\"C1\",\"J\",\"5\"
\"\",\"\",\"approach-retreat\",\"9\",\"193575\",\"0.0-9.0\",\"\",\"\",\"2-2\",\"5014\",\"40\",\"1\",\"Training\",\"Stims/Figures/102-J-10-4.bmp\",\"fa:fasha\",\"Up\",\"40\",\"1\",\"6\",\"6A\",\"C1\",\"J\",\"6\"
\"\",\"\",\"approach-retreat\",\"10\",\"201977\",\"0.0-10.0\",\"\",\"\",\"2-2\",\"6891\",\"37\",\"1\",\"Training\",\"Stims/Figures/87-C-20-4.bmp\",\"sahaza\",\"Left\",\"37\",\"1\",\"7\",\"6A\",\"C2\",\"J\",\"7\"
\"\",\"\",\"approach-retreat\",\"11\",\"211185\",\"0.0-11.0\",\"\",\"\",\"2-2\",\"7699\",\"38\",\"1\",\"Training\",\"Stims/Figures/57-C-30-1.bmp\",\"sa:sa:ha\",\"Up\",\"38\",\"1\",\"8\",\"6A\",\"C2\",\"J\",\"8\"
\"\",\"\",\"approach-retreat\",\"12\",\"217170\",\"0.0-12.0\",\"\",\"\",\"2-2\",\"4476\",\"40\",\"0\",\"Training\",\"Stims/Figures/100-J-10-3.bmp\",\"vafava\",\"Down\",\"38\",\"1\",\"9\",\"6A\",\"C1\",\"J\",\"9\"
\"\",\"\",\"approach-retreat\",\"13\",\"224667\",\"0.0-13.0\",\"\",\"\",\"2-2\",\"5988\",\"38\",\"1\",\"Training\",\"Stims/Figures/94-C-20-2.bmp\",\"za:haha\",\"Up\",\"38\",\"1\",\"10\",\"6A\",\"C2\",\"J\",\"10\"
\"\",\"\",\"approach-retreat\",\"14\",\"231785\",\"0.0-14.0\",\"\",\"\",\"2-2\",\"5608\",\"37\",\"0\",\"Training\",\"Stims/Figures/102-C-20-4.bmp\",\"sasa:za\",\"Right\",\"39\",\"1\",\"11\",\"6A\",\"C2\",\"J\",\"11\"
\"\",\"\",\"approach-retreat\",\"15\",\"238295\",\"0.0-15.0\",\"\",\"\",\"2-2\",\"4999\",\"39\",\"1\",\"Training\",\"Stims/Figures/27-C-30-1.bmp\",\"saha:za\",\"Right\",\"39\",\"1\",\"12\",\"6A\",\"C2\",\"J\",\"12\"
\"\",\"\",\"approach-retreat\",\"16\",\"244886\",\"0.0-16.0\",\"\",\"\",\"2-2\",\"5082\",\"38\",\"1\",\"Training\",\"Stims/Figures/27-J-0-1.bmp\",\"vafa:sha\",\"Down\",\"38\",\"1\",\"13\",\"6A\",\"C1\",\"J\",\"13\"
\"\",\"\",\"approach-retreat\",\"17\",\"261380\",\"0.0-17.0\",\"\",\"\",\"2-2\",\"14987\",\"37\",\"1\",\"Training\",\"Stims/Figures/118-C-20-2.bmp\",\"sa:saha\",\"Left\",\"37\",\"1\",\"14\",\"6A\",\"C2\",\"J\",\"14\"
\"\",\"\",\"approach-retreat\",\"18\",\"272027\",\"0.0-18.0\",\"\",\"\",\"2-2\",\"9139\",\"38\",\"1\",\"Training\",\"Stims/Figures/144-C-30-3.bmp\",\"zasa:ha\",\"Up\",\"38\",\"1\",\"15\",\"6A\",\"C2\",\"J\",\"15\"
\"\",\"\",\"approach-retreat\",\"19\",\"278164\",\"0.0-19.0\",\"\",\"\",\"2-2\",\"4626\",\"39\",\"0\",\"Training\",\"Stims/Figures/118-J-0-2.bmp\",\"vasha:sha\",\"Right\",\"37\",\"1\",\"16\",\"6A\",\"C1\",\"J\",\"16\"
\"\",\"\",\"approach-retreat\",\"20\",\"286294\",\"0.0-20.0\",\"\",\"\",\"2-2\",\"6623\",\"37\",\"1\",\"Training\",\"Stims/Figures/118-C-20-2.bmp\",\"sa:saha\",\"Left\",\"37\",\"2\",\"1\",\"6A\",\"C2\",\"J\",\"17\"
\"\",\"\",\"approach-retreat\",\"21\",\"294445\",\"0.0-21.0\",\"\",\"\",\"2-2\",\"6640\",\"38\",\"1\",\"Training\",\"Stims/Figures/118-J-0-2.bmp\",\"vasha:sha\",\"Down\",\"38\",\"2\",\"2\",\"6A\",\"C1\",\"J\",\"18\"
\"\",\"\",\"approach-retreat\",\"22\",\"300540\",\"0.0-22.0\",\"\",\"\",\"2-2\",\"4586\",\"40\",\"1\",\"Training\",\"Stims/Figures/144-C-30-3.bmp\",\"zasa:ha\",\"Down\",\"40\",\"2\",\"3\",\"6A\",\"C2\",\"J\",\"19\"
\"\",\"\",\"approach-retreat\",\"23\",\"306659\",\"0.0-23.0\",\"\",\"\",\"2-2\",\"4611\",\"39\",\"1\",\"Training\",\"Stims/Figures/94-C-20-2.bmp\",\"za:haha\",\"Right\",\"39\",\"2\",\"4\",\"6A\",\"C2\",\"J\",\"20\"
\"\",\"\",\"approach-retreat\",\"24\",\"313769\",\"0.0-24.0\",\"\",\"\",\"2-2\",\"5601\",\"37\",\"1\",\"Training\",\"Stims/Figures/27-C-30-1.bmp\",\"saha:za\",\"Left\",\"37\",\"2\",\"5\",\"6A\",\"C2\",\"J\",\"21\"
\"\",\"\",\"approach-retreat\",\"25\",\"321057\",\"0.0-25.0\",\"\",\"\",\"2-2\",\"5777\",\"39\",\"0\",\"Training\",\"Stims/Figures/100-J-10-3.bmp\",\"vafava\",\"Right\",\"37\",\"2\",\"6\",\"6A\",\"C1\",\"J\",\"22\"
\"\",\"\",\"approach-retreat\",\"26\",\"327021\",\"0.0-26.0\",\"\",\"\",\"2-2\",\"4455\",\"40\",\"0\",\"Training\",\"Stims/Figures/144-J-10-3.bmp\",\"fasha:va\",\"Down\",\"38\",\"2\",\"7\",\"6A\",\"C1\",\"J\",\"23\"
\"\",\"\",\"approach-retreat\",\"27\",\"334500\",\"0.0-27.0\",\"\",\"\",\"2-2\",\"5973\",\"40\",\"0\",\"Training\",\"Stims/Figures/87-C-20-4.bmp\",\"sahaza\",\"Up\",\"38\",\"2\",\"8\",\"6A\",\"C2\",\"J\",\"24\"
\"\",\"\",\"approach-retreat\",\"28\",\"340571\",\"0.0-28.0\",\"\",\"\",\"2-2\",\"4562\",\"37\",\"0\",\"Training\",\"Stims/Figures/102-C-20-4.bmp\",\"sasa:za\",\"Right\",\"39\",\"2\",\"9\",\"6A\",\"C2\",\"J\",\"25\"
\"\",\"\",\"approach-retreat\",\"29\",\"347635\",\"0.0-29.0\",\"\",\"\",\"2-2\",\"5552\",\"37\",\"1\",\"Training\",\"Stims/Figures/57-C-30-1.bmp\",\"sa:sa:ha\",\"Left\",\"37\",\"2\",\"10\",\"6A\",\"C2\",\"J\",\"26\"
\"\",\"\",\"approach-retreat\",\"30\",\"355144\",\"0.0-30.0\",\"\",\"\",\"2-2\",\"6002\",\"40\",\"1\",\"Training\",\"Stims/Figures/100-C-30-3.bmp\",\"sa:haha\",\"Down\",\"40\",\"2\",\"11\",\"6A\",\"C2\",\"J\",\"27\"
\"\",\"\",\"approach-retreat\",\"31\",\"371015\",\"0.0-31.0\",\"\",\"\",\"2-2\",\"14360\",\"38\",\"0\",\"Training\",\"Stims/Figures/94-J-0-2.bmp\",\"fafa:va\",\"Up\",\"40\",\"2\",\"12\",\"6A\",\"C1\",\"J\",\"28\"
\"\",\"\",\"approach-retreat\",\"32\",\"383346\",\"0.0-32.0\",\"\",\"\",\"2-2\",\"10824\",\"39\",\"1\",\"Training\",\"Stims/Figures/57-J-0-1.bmp\",\"va:fa:sha\",\"Left\",\"39\",\"2\",\"13\",\"6A\",\"C1\",\"J\",\"29\"
\"\",\"\",\"approach-retreat\",\"33\",\"389688\",\"0.0-33.0\",\"\",\"\",\"2-2\",\"4833\",\"37\",\"1\",\"Training\",\"Stims/Figures/87-J-10-4.bmp\",\"fashasha\",\"Right\",\"37\",\"2\",\"14\",\"6A\",\"C1\",\"J\",\"30\"
\"\",\"\",\"approach-retreat\",\"34\",\"396094\",\"0.0-34.0\",\"\",\"\",\"2-2\",\"4896\",\"40\",\"1\",\"Training\",\"Stims/Figures/27-J-0-1.bmp\",\"vafa:sha\",\"Up\",\"40\",\"2\",\"15\",\"6A\",\"C1\",\"J\",\"31\"
\"\",\"\",\"approach-retreat\",\"35\",\"402424\",\"0.0-35.0\",\"\",\"\",\"2-2\",\"4821\",\"40\",\"1\",\"Training\",\"Stims/Figures/102-J-10-4.bmp\",\"fa:fasha\",\"Up\",\"40\",\"2\",\"16\",\"6A\",\"C1\",\"J\",\"32\"
\"\",\"\",\"approach-retreat\",\"36\",\"409580\",\"0.0-36.0\",\"\",\"\",\"2-2\",\"5646\",\"37\",\"1\",\"Training\",\"Stims/Figures/144-J-10-3.bmp\",\"fasha:va\",\"Right\",\"37\",\"3\",\"1\",\"6A\",\"C1\",\"J\",\"33\"
\"\",\"\",\"approach-retreat\",\"37\",\"416476\",\"0.0-37.0\",\"\",\"\",\"2-2\",\"5387\",\"40\",\"1\",\"Training\",\"Stims/Figures/57-J-0-1.bmp\",\"va:fa:sha\",\"Up\",\"40\",\"3\",\"2\",\"6A\",\"C1\",\"J\",\"34\"
\"\",\"\",\"approach-retreat\",\"38\",\"422376\",\"0.0-38.0\",\"\",\"\",\"2-2\",\"4392\",\"39\",\"1\",\"Training\",\"Stims/Figures/27-J-0-1.bmp\",\"vafa:sha\",\"Left\",\"39\",\"3\",\"3\",\"6A\",\"C1\",\"J\",\"35\"
\"\",\"\",\"approach-retreat\",\"39\",\"428593\",\"0.0-39.0\",\"\",\"\",\"2-2\",\"3902\",\"37\",\"1\",\"Training\",\"Stims/Figures/87-C-20-4.bmp\",\"sahaza\",\"Left\",\"37\",\"3\",\"4\",\"6A\",\"C2\",\"J\",\"36\"
\"\",\"\",\"approach-retreat\",\"40\",\"434780\",\"0.0-40.0\",\"\",\"\",\"2-2\",\"4679\",\"38\",\"1\",\"Training\",\"Stims/Figures/102-J-10-4.bmp\",\"fa:fasha\",\"Down\",\"38\",\"3\",\"5\",\"6A\",\"C1\",\"J\",\"37\"
\"\",\"\",\"approach-retreat\",\"41\",\"441606\",\"0.0-41.0\",\"\",\"\",\"2-2\",\"5317\",\"40\",\"1\",\"Training\",\"Stims/Figures/144-C-30-3.bmp\",\"zasa:ha\",\"Down\",\"40\",\"3\",\"6\",\"6A\",\"C2\",\"J\",\"38\"
\"\",\"\",\"approach-retreat\",\"42\",\"447504\",\"0.0-42.0\",\"\",\"\",\"2-2\",\"4391\",\"38\",\"1\",\"Training\",\"Stims/Figures/118-J-0-2.bmp\",\"vasha:sha\",\"Down\",\"38\",\"3\",\"7\",\"6A\",\"C1\",\"J\",\"39\"
\"\",\"\",\"approach-retreat\",\"43\",\"454420\",\"0.0-43.0\",\"\",\"\",\"2-2\",\"5405\",\"38\",\"1\",\"Training\",\"Stims/Figures/100-C-30-3.bmp\",\"sa:haha\",\"Up\",\"38\",\"3\",\"8\",\"6A\",\"C2\",\"J\",\"40\"
\"\",\"\",\"approach-retreat\",\"44\",\"460994\",\"0.0-44.0\",\"\",\"\",\"2-2\",\"5066\",\"37\",\"1\",\"Training\",\"Stims/Figures/94-J-0-2.bmp\",\"fafa:va\",\"Right\",\"37\",\"3\",\"9\",\"6A\",\"C1\",\"J\",\"41\"
\"\",\"\",\"approach-retreat\",\"45\",\"467054\",\"0.0-45.0\",\"\",\"\",\"2-2\",\"4552\",\"37\",\"1\",\"Training\",\"Stims/Figures/87-J-10-4.bmp\",\"fashasha\",\"Right\",\"37\",\"3\",\"10\",\"6A\",\"C1\",\"J\",\"42\"
\"\",\"\",\"approach-retreat\",\"46\",\"474082\",\"0.0-46.0\",\"\",\"\",\"2-2\",\"5518\",\"39\",\"1\",\"Training\",\"Stims/Figures/94-C-20-2.bmp\",\"za:haha\",\"Right\",\"39\",\"3\",\"11\",\"6A\",\"C2\",\"J\",\"43\"
\"\",\"\",\"approach-retreat\",\"47\",\"480537\",\"0.0-47.0\",\"\",\"\",\"2-2\",\"4945\",\"40\",\"1\",\"Training\",\"Stims/Figures/57-C-30-1.bmp\",\"sa:sa:ha\",\"Down\",\"40\",\"3\",\"12\",\"6A\",\"C2\",\"J\",\"44\"
\"\",\"\",\"approach-retreat\",\"48\",\"487638\",\"0.0-48.0\",\"\",\"\",\"2-2\",\"5593\",\"37\",\"1\",\"Training\",\"Stims/Figures/102-C-20-4.bmp\",\"sasa:za\",\"Left\",\"37\",\"3\",\"13\",\"6A\",\"C2\",\"J\",\"45\"
\"\",\"\",\"approach-retreat\",\"49\",\"494127\",\"0.0-49.0\",\"\",\"\",\"2-2\",\"4981\",\"37\",\"1\",\"Training\",\"Stims/Figures/27-C-30-1.bmp\",\"saha:za\",\"Left\",\"37\",\"3\",\"14\",\"6A\",\"C2\",\"J\",\"46\"
\"\",\"\",\"approach-retreat\",\"50\",\"500621\",\"0.0-50.0\",\"\",\"\",\"2-2\",\"4984\",\"38\",\"1\",\"Training\",\"Stims/Figures/118-C-20-2.bmp\",\"sa:saha\",\"Up\",\"38\",\"3\",\"15\",\"6A\",\"C2\",\"J\",\"47\"
\"\",\"\",\"approach-retreat\",\"51\",\"507614\",\"0.0-51.0\",\"\",\"\",\"2-2\",\"5485\",\"40\",\"1\",\"Training\",\"Stims/Figures/100-J-10-3.bmp\",\"vafava\",\"Up\",\"40\",\"3\",\"16\",\"6A\",\"C1\",\"J\",\"48\"
\"\",\"\",\"approach-retreat\",\"52\",\"514474\",\"0.0-52.0\",\"\",\"\",\"2-2\",\"5348\",\"37\",\"1\",\"Training\",\"Stims/Figures/27-J-0-1.bmp\",\"vafa:sha\",\"Right\",\"37\",\"4\",\"1\",\"6A\",\"C1\",\"J\",\"49\"
\"\",\"\",\"approach-retreat\",\"53\",\"521484\",\"0.0-53.0\",\"\",\"\",\"2-2\",\"5499\",\"38\",\"1\",\"Training\",\"Stims/Figures/100-C-30-3.bmp\",\"sa:haha\",\"Up\",\"38\",\"4\",\"2\",\"6A\",\"C2\",\"J\",\"50\"
\"\",\"\",\"approach-retreat\",\"54\",\"529098\",\"0.0-54.0\",\"\",\"\",\"2-2\",\"6109\",\"37\",\"1\",\"Training\",\"Stims/Figures/94-C-20-2.bmp\",\"za:haha\",\"Left\",\"37\",\"4\",\"3\",\"6A\",\"C2\",\"J\",\"51\"
\"\",\"\",\"approach-retreat\",\"55\",\"536134\",\"0.0-55.0\",\"\",\"\",\"2-2\",\"5528\",\"37\",\"1\",\"Training\",\"Stims/Figures/102-C-20-4.bmp\",\"sasa:za\",\"Left\",\"37\",\"4\",\"4\",\"6A\",\"C2\",\"J\",\"52\"
\"\",\"\",\"approach-retreat\",\"56\",\"548282\",\"0.0-56.0\",\"\",\"\",\"2-2\",\"10637\",\"40\",\"1\",\"Training\",\"Stims/Figures/118-C-20-2.bmp\",\"sa:saha\",\"Down\",\"40\",\"4\",\"5\",\"6A\",\"C2\",\"J\",\"53\"
\"\",\"\",\"approach-retreat\",\"57\",\"554668\",\"0.0-57.0\",\"\",\"\",\"2-2\",\"4875\",\"38\",\"1\",\"Training\",\"Stims/Figures/100-J-10-3.bmp\",\"vafava\",\"Down\",\"38\",\"4\",\"6\",\"6A\",\"C1\",\"J\",\"54\"
\"\",\"\",\"approach-retreat\",\"58\",\"567653\",\"0.0-58.0\",\"\",\"\",\"2-2\",\"11476\",\"40\",\"0\",\"Training\",\"Stims/Figures/57-J-0-1.bmp\",\"va:fa:sha\",\"Down\",\"38\",\"4\",\"7\",\"6A\",\"C1\",\"J\",\"55\"
\"\",\"\",\"approach-retreat\",\"59\",\"574809\",\"0.0-59.0\",\"\",\"\",\"2-2\",\"5646\",\"38\",\"1\",\"Training\",\"Stims/Figures/144-C-30-3.bmp\",\"zasa:ha\",\"Up\",\"38\",\"4\",\"8\",\"6A\",\"C2\",\"J\",\"56\"
\"\",\"\",\"approach-retreat\",\"60\",\"581928\",\"0.0-60.0\",\"\",\"\",\"2-2\",\"5611\",\"39\",\"1\",\"Training\",\"Stims/Figures/27-C-30-1.bmp\",\"saha:za\",\"Right\",\"39\",\"4\",\"9\",\"6A\",\"C2\",\"J\",\"57\"
\"\",\"\",\"approach-retreat\",\"61\",\"588506\",\"0.0-61.0\",\"\",\"\",\"2-2\",\"5070\",\"37\",\"1\",\"Training\",\"Stims/Figures/87-J-10-4.bmp\",\"fashasha\",\"Right\",\"37\",\"4\",\"10\",\"6A\",\"C1\",\"J\",\"58\"
\"\",\"\",\"approach-retreat\",\"62\",\"594776\",\"0.0-62.0\",\"\",\"\",\"2-2\",\"4761\",\"40\",\"1\",\"Training\",\"Stims/Figures/102-J-10-4.bmp\",\"fa:fasha\",\"Up\",\"40\",\"4\",\"11\",\"6A\",\"C1\",\"J\",\"59\"
\"\",\"\",\"approach-retreat\",\"63\",\"601223\",\"0.0-63.0\",\"\",\"\",\"2-2\",\"4940\",\"37\",\"1\",\"Training\",\"Stims/Figures/57-C-30-1.bmp\",\"sa:sa:ha\",\"Left\",\"37\",\"4\",\"12\",\"6A\",\"C2\",\"J\",\"60\"
\"\",\"\",\"approach-retreat\",\"64\",\"607487\",\"0.0-64.0\",\"\",\"\",\"2-2\",\"4755\",\"39\",\"1\",\"Training\",\"Stims/Figures/87-C-20-4.bmp\",\"sahaza\",\"Right\",\"39\",\"4\",\"13\",\"6A\",\"C2\",\"J\",\"61\"
\"\",\"\",\"approach-retreat\",\"65\",\"613961\",\"0.0-65.0\",\"\",\"\",\"2-2\",\"4964\",\"38\",\"1\",\"Training\",\"Stims/Figures/118-J-0-2.bmp\",\"vasha:sha\",\"Down\",\"38\",\"4\",\"14\",\"6A\",\"C1\",\"J\",\"62\"
\"\",\"\",\"approach-retreat\",\"66\",\"622695\",\"0.0-66.0\",\"\",\"\",\"2-2\",\"7225\",\"39\",\"1\",\"Training\",\"Stims/Figures/94-J-0-2.bmp\",\"fafa:va\",\"Left\",\"39\",\"4\",\"15\",\"6A\",\"C1\",\"J\",\"63\"
\"\",\"\",\"approach-retreat\",\"67\",\"629076\",\"0.0-67.0\",\"\",\"\",\"2-2\",\"4873\",\"40\",\"1\",\"Training\",\"Stims/Figures/144-J-10-3.bmp\",\"fasha:va\",\"Up\",\"40\",\"4\",\"16\",\"6A\",\"C1\",\"J\",\"64\"
\"\",\"\",\"approach-retreat\",\"68\",\"636046\",\"0.0-68.0\",\"\",\"\",\"2-2\",\"5461\",\"38\",\"1\",\"Training\",\"Stims/Figures/118-C-20-2.bmp\",\"sa:saha\",\"Up\",\"38\",\"5\",\"1\",\"6A\",\"C2\",\"J\",\"65\"
\"\",\"\",\"approach-retreat\",\"69\",\"642096\",\"0.0-69.0\",\"\",\"\",\"2-2\",\"4540\",\"37\",\"1\",\"Training\",\"Stims/Figures/102-J-10-4.bmp\",\"fa:fasha\",\"Right\",\"37\",\"5\",\"2\",\"6A\",\"C1\",\"J\",\"66\"
\"\",\"\",\"approach-retreat\",\"70\",\"648256\",\"0.0-70.0\",\"\",\"\",\"2-2\",\"4648\",\"37\",\"1\",\"Training\",\"Stims/Figures/57-J-0-1.bmp\",\"va:fa:sha\",\"Right\",\"37\",\"5\",\"3\",\"6A\",\"C1\",\"J\",\"67\"
\"\",\"\",\"approach-retreat\",\"71\",\"654518\",\"0.0-71.0\",\"\",\"\",\"2-2\",\"4753\",\"39\",\"1\",\"Training\",\"Stims/Figures/87-J-10-4.bmp\",\"fashasha\",\"Left\",\"39\",\"5\",\"4\",\"6A\",\"C1\",\"J\",\"68\"
\"\",\"\",\"approach-retreat\",\"72\",\"661056\",\"0.0-72.0\",\"\",\"\",\"2-2\",\"5029\",\"40\",\"1\",\"Training\",\"Stims/Figures/27-C-30-1.bmp\",\"saha:za\",\"Down\",\"40\",\"5\",\"5\",\"6A\",\"C2\",\"J\",\"69\"
\"\",\"\",\"approach-retreat\",\"73\",\"667287\",\"0.0-73.0\",\"\",\"\",\"2-2\",\"4720\",\"37\",\"1\",\"Training\",\"Stims/Figures/94-J-0-2.bmp\",\"fafa:va\",\"Right\",\"37\",\"5\",\"6\",\"6A\",\"C1\",\"J\",\"70\"
\"\",\"\",\"approach-retreat\",\"74\",\"673414\",\"0.0-74.0\",\"\",\"\",\"2-2\",\"4617\",\"40\",\"1\",\"Training\",\"Stims/Figures/27-J-0-1.bmp\",\"vafa:sha\",\"Up\",\"40\",\"5\",\"7\",\"6A\",\"C1\",\"J\",\"71\"
\"\",\"\",\"approach-retreat\",\"75\",\"679342\",\"0.0-75.0\",\"\",\"\",\"2-2\",\"4419\",\"40\",\"1\",\"Training\",\"Stims/Figures/87-C-20-4.bmp\",\"sahaza\",\"Down\",\"40\",\"5\",\"8\",\"6A\",\"C2\",\"J\",\"72\"
\"\",\"\",\"approach-retreat\",\"76\",\"686566\",\"0.0-76.0\",\"\",\"\",\"2-2\",\"5715\",\"40\",\"1\",\"Training\",\"Stims/Figures/57-C-30-1.bmp\",\"sa:sa:ha\",\"Down\",\"40\",\"5\",\"9\",\"6A\",\"C2\",\"J\",\"73\"
\"\",\"\",\"approach-retreat\",\"77\",\"692543\",\"0.0-77.0\",\"\",\"\",\"2-2\",\"4467\",\"39\",\"1\",\"Training\",\"Stims/Figures/100-C-30-3.bmp\",\"sa:haha\",\"Right\",\"39\",\"5\",\"10\",\"6A\",\"C2\",\"J\",\"74\"
\"\",\"\",\"approach-retreat\",\"78\",\"698912\",\"0.0-78.0\",\"\",\"\",\"2-2\",\"4858\",\"39\",\"1\",\"Training\",\"Stims/Figures/100-J-10-3.bmp\",\"vafava\",\"Left\",\"39\",\"5\",\"11\",\"6A\",\"C1\",\"J\",\"75\"
\"\",\"\",\"approach-retreat\",\"79\",\"705555\",\"0.0-79.0\",\"\",\"\",\"2-2\",\"5134\",\"40\",\"1\",\"Training\",\"Stims/Figures/144-J-10-3.bmp\",\"fasha:va\",\"Up\",\"40\",\"5\",\"12\",\"6A\",\"C1\",\"J\",\"76\"
\"\",\"\",\"approach-retreat\",\"80\",\"711798\",\"0.0-80.0\",\"\",\"\",\"2-2\",\"4730\",\"39\",\"1\",\"Training\",\"Stims/Figures/118-J-0-2.bmp\",\"vasha:sha\",\"Left\",\"39\",\"5\",\"13\",\"6A\",\"C1\",\"J\",\"77\"
\"\",\"\",\"approach-retreat\",\"81\",\"718562\",\"0.0-81.0\",\"\",\"\",\"2-2\",\"5251\",\"37\",\"1\",\"Training\",\"Stims/Figures/102-C-20-4.bmp\",\"sasa:za\",\"Left\",\"37\",\"5\",\"14\",\"6A\",\"C2\",\"J\",\"78\"
\"\",\"\",\"approach-retreat\",\"82\",\"724559\",\"0.0-82.0\",\"\",\"\",\"2-2\",\"4488\",\"38\",\"1\",\"Training\",\"Stims/Figures/94-C-20-2.bmp\",\"za:haha\",\"Up\",\"38\",\"5\",\"15\",\"6A\",\"C2\",\"J\",\"79\"
\"\",\"\",\"approach-retreat\",\"83\",\"730778\",\"0.0-83.0\",\"\",\"\",\"2-2\",\"4711\",\"40\",\"1\",\"Training\",\"Stims/Figures/144-C-30-3.bmp\",\"zasa:ha\",\"Down\",\"40\",\"5\",\"16\",\"6A\",\"C2\",\"J\",\"80\"
\"\",\"\",\"approach-retreat\",\"84\",\"737179\",\"0.0-84.0\",\"\",\"\",\"2-2\",\"4890\",\"39\",\"1\",\"Training\",\"Stims/Figures/144-J-10-3.bmp\",\"fasha:va\",\"Left\",\"39\",\"6\",\"1\",\"6A\",\"C1\",\"J\",\"81\"
\"\",\"\",\"approach-retreat\",\"85\",\"743460\",\"0.0-85.0\",\"\",\"\",\"2-2\",\"4773\",\"38\",\"1\",\"Training\",\"Stims/Figures/144-C-30-3.bmp\",\"zasa:ha\",\"Up\",\"38\",\"6\",\"2\",\"6A\",\"C2\",\"J\",\"82\"
\"\",\"\",\"approach-retreat\",\"86\",\"749628\",\"0.0-86.0\",\"\",\"\",\"2-2\",\"4661\",\"39\",\"1\",\"Training\",\"Stims/Figures/94-C-20-2.bmp\",\"za:haha\",\"Right\",\"39\",\"6\",\"3\",\"6A\",\"C2\",\"J\",\"83\"
\"\",\"\",\"approach-retreat\",\"87\",\"757239\",\"0.0-87.0\",\"\",\"\",\"2-2\",\"6103\",\"37\",\"1\",\"Training\",\"Stims/Figures/57-J-0-1.bmp\",\"va:fa:sha\",\"Right\",\"37\",\"6\",\"4\",\"6A\",\"C1\",\"J\",\"84\"
\"\",\"\",\"approach-retreat\",\"88\",\"763867\",\"0.0-88.0\",\"\",\"\",\"2-2\",\"5118\",\"40\",\"1\",\"Training\",\"Stims/Figures/102-C-20-4.bmp\",\"sasa:za\",\"Down\",\"40\",\"6\",\"5\",\"6A\",\"C2\",\"J\",\"85\"
\"\",\"\",\"approach-retreat\",\"89\",\"771480\",\"0.0-89.0\",\"\",\"\",\"2-2\",\"6104\",\"37\",\"1\",\"Training\",\"Stims/Figures/27-C-30-1.bmp\",\"saha:za\",\"Left\",\"37\",\"6\",\"6\",\"6A\",\"C2\",\"J\",\"86\"
\"\",\"\",\"approach-retreat\",\"90\",\"777442\",\"0.0-90.0\",\"\",\"\",\"2-2\",\"4452\",\"40\",\"1\",\"Training\",\"Stims/Figures/100-C-30-3.bmp\",\"sa:haha\",\"Down\",\"40\",\"6\",\"7\",\"6A\",\"C2\",\"J\",\"87\"
\"\",\"\",\"approach-retreat\",\"91\",\"783583\",\"0.0-91.0\",\"\",\"\",\"2-2\",\"4630\",\"38\",\"1\",\"Training\",\"Stims/Figures/118-J-0-2.bmp\",\"vasha:sha\",\"Down\",\"38\",\"6\",\"8\",\"6A\",\"C1\",\"J\",\"88\"
\"\",\"\",\"approach-retreat\",\"92\",\"789575\",\"0.0-92.0\",\"\",\"\",\"2-2\",\"4484\",\"39\",\"1\",\"Training\",\"Stims/Figures/118-C-20-2.bmp\",\"sa:saha\",\"Right\",\"39\",\"6\",\"9\",\"6A\",\"C2\",\"J\",\"89\"
\"\",\"\",\"approach-retreat\",\"93\",\"795207\",\"0.0-93.0\",\"\",\"\",\"2-2\",\"4124\",\"40\",\"1\",\"Training\",\"Stims/Figures/100-J-10-3.bmp\",\"vafava\",\"Up\",\"40\",\"6\",\"10\",\"6A\",\"C1\",\"J\",\"90\"
\"\",\"\",\"approach-retreat\",\"94\",\"801282\",\"0.0-94.0\",\"\",\"\",\"2-2\",\"4565\",\"39\",\"1\",\"Training\",\"Stims/Figures/57-C-30-1.bmp\",\"sa:sa:ha\",\"Right\",\"39\",\"6\",\"11\",\"6A\",\"C2\",\"J\",\"91\"
\"\",\"\",\"approach-retreat\",\"95\",\"809812\",\"0.0-95.0\",\"\",\"\",\"2-2\",\"7021\",\"40\",\"1\",\"Training\",\"Stims/Figures/87-J-10-4.bmp\",\"fashasha\",\"Up\",\"40\",\"6\",\"12\",\"6A\",\"C1\",\"J\",\"92\"
\"\",\"\",\"approach-retreat\",\"96\",\"815981\",\"0.0-96.0\",\"\",\"\",\"2-2\",\"4662\",\"37\",\"0\",\"Training\",\"Stims/Figures/102-J-10-4.bmp\",\"fa:fasha\",\"Left\",\"39\",\"6\",\"13\",\"6A\",\"C1\",\"J\",\"93\"
\"\",\"\",\"approach-retreat\",\"97\",\"822015\",\"0.0-97.0\",\"\",\"\",\"2-2\",\"4525\",\"38\",\"1\",\"Training\",\"Stims/Figures/94-J-0-2.bmp\",\"fafa:va\",\"Down\",\"38\",\"6\",\"14\",\"6A\",\"C1\",\"J\",\"94\"
\"\",\"\",\"approach-retreat\",\"98\",\"828104\",\"0.0-98.0\",\"\",\"\",\"2-2\",\"4580\",\"39\",\"0\",\"Training\",\"Stims/Figures/87-C-20-4.bmp\",\"sahaza\",\"Left\",\"37\",\"6\",\"15\",\"6A\",\"C2\",\"J\",\"95\"
\"\",\"\",\"approach-retreat\",\"99\",\"835226\",\"0.0-99.0\",\"\",\"\",\"2-2\",\"5612\",\"40\",\"1\",\"Training\",\"Stims/Figures/27-J-0-1.bmp\",\"vafa:sha\",\"Up\",\"40\",\"6\",\"16\",\"6A\",\"C1\",\"J\",\"96\"
\"\",\"\",\"approach-retreat\",\"100\",\"841498\",\"0.0-100.0\",\"\",\"\",\"2-2\",\"4762\",\"39\",\"1\",\"Training\",\"Stims/Figures/102-J-10-4.bmp\",\"fa:fasha\",\"Left\",\"39\",\"7\",\"1\",\"6A\",\"C1\",\"J\",\"97\"
\"\",\"\",\"approach-retreat\",\"101\",\"847500\",\"0.0-101.0\",\"\",\"\",\"2-2\",\"4492\",\"40\",\"1\",\"Training\",\"Stims/Figures/102-C-20-4.bmp\",\"sasa:za\",\"Down\",\"40\",\"7\",\"2\",\"6A\",\"C2\",\"J\",\"98\"
\"\",\"\",\"approach-retreat\",\"102\",\"853277\",\"0.0-102.0\",\"\",\"\",\"2-2\",\"4267\",\"38\",\"0\",\"Training\",\"Stims/Figures/27-C-30-1.bmp\",\"saha:za\",\"Down\",\"40\",\"7\",\"3\",\"6A\",\"C2\",\"J\",\"99\"
\"\",\"\",\"approach-retreat\",\"103\",\"859001\",\"0.0-103.0\",\"\",\"\",\"2-2\",\"4217\",\"37\",\"1\",\"Training\",\"Stims/Figures/118-J-0-2.bmp\",\"vasha:sha\",\"Right\",\"37\",\"7\",\"4\",\"6A\",\"C1\",\"J\",\"100\"
\"\",\"\",\"approach-retreat\",\"104\",\"864816\",\"0.0-104.0\",\"\",\"\",\"2-2\",\"4306\",\"37\",\"1\",\"Training\",\"Stims/Figures/144-J-10-3.bmp\",\"fasha:va\",\"Right\",\"37\",\"7\",\"5\",\"6A\",\"C1\",\"J\",\"101\"
\"\",\"\",\"approach-retreat\",\"105\",\"870393\",\"0.0-105.0\",\"\",\"\",\"2-2\",\"4069\",\"40\",\"1\",\"Training\",\"Stims/Figures/94-J-0-2.bmp\",\"fafa:va\",\"Up\",\"40\",\"7\",\"6\",\"6A\",\"C1\",\"J\",\"102\"
\"\",\"\",\"approach-retreat\",\"106\",\"876242\",\"0.0-106.0\",\"\",\"\",\"2-2\",\"4339\",\"39\",\"0\",\"Training\",\"Stims/Figures/94-C-20-2.bmp\",\"za:haha\",\"Left\",\"37\",\"7\",\"7\",\"6A\",\"C2\",\"J\",\"103\"
\"\",\"\",\"approach-retreat\",\"107\",\"882364\",\"0.0-107.0\",\"\",\"\",\"2-2\",\"4612\",\"38\",\"1\",\"Training\",\"Stims/Figures/144-C-30-3.bmp\",\"zasa:ha\",\"Up\",\"38\",\"7\",\"8\",\"6A\",\"C2\",\"J\",\"104\"
\"\",\"\",\"approach-retreat\",\"108\",\"898691\",\"0.0-108.0\",\"\",\"\",\"2-2\",\"14816\",\"37\",\"1\",\"Training\",\"Stims/Figures/100-C-30-3.bmp\",\"sa:haha\",\"Left\",\"37\",\"7\",\"9\",\"6A\",\"C2\",\"J\",\"105\"
\"\",\"\",\"approach-retreat\",\"109\",\"905795\",\"0.0-109.0\",\"\",\"\",\"2-2\",\"5594\",\"40\",\"1\",\"Training\",\"Stims/Figures/87-J-10-4.bmp\",\"fashasha\",\"Up\",\"40\",\"7\",\"10\",\"6A\",\"C1\",\"J\",\"106\"
\"\",\"\",\"approach-retreat\",\"110\",\"916667\",\"0.0-110.0\",\"\",\"\",\"2-2\",\"9365\",\"37\",\"1\",\"Training\",\"Stims/Figures/87-C-20-4.bmp\",\"sahaza\",\"Left\",\"37\",\"7\",\"11\",\"6A\",\"C2\",\"J\",\"107\"
\"\",\"\",\"approach-retreat\",\"111\",\"923143\",\"0.0-111.0\",\"\",\"\",\"2-2\",\"4966\",\"40\",\"1\",\"Training\",\"Stims/Figures/57-C-30-1.bmp\",\"sa:sa:ha\",\"Down\",\"40\",\"7\",\"12\",\"6A\",\"C2\",\"J\",\"108\"
\"\",\"\",\"approach-retreat\",\"112\",\"929569\",\"0.0-112.0\",\"\",\"\",\"2-2\",\"4916\",\"40\",\"1\",\"Training\",\"Stims/Figures/118-C-20-2.bmp\",\"sa:saha\",\"Down\",\"40\",\"7\",\"13\",\"6A\",\"C2\",\"J\",\"109\"
\"\",\"\",\"approach-retreat\",\"113\",\"935336\",\"0.0-113.0\",\"\",\"\",\"2-2\",\"4259\",\"38\",\"0\",\"Training\",\"Stims/Figures/100-J-10-3.bmp\",\"vafava\",\"Up\",\"40\",\"7\",\"14\",\"6A\",\"C1\",\"J\",\"110\"
\"\",\"\",\"approach-retreat\",\"114\",\"942086\",\"0.0-114.0\",\"\",\"\",\"2-2\",\"5242\",\"37\",\"1\",\"Training\",\"Stims/Figures/57-J-0-1.bmp\",\"va:fa:sha\",\"Right\",\"37\",\"7\",\"15\",\"6A\",\"C1\",\"J\",\"111\"
\"\",\"\",\"approach-retreat\",\"115\",\"949005\",\"0.0-115.0\",\"\",\"\",\"2-2\",\"5407\",\"37\",\"1\",\"Training\",\"Stims/Figures/27-J-0-1.bmp\",\"vafa:sha\",\"Right\",\"37\",\"7\",\"16\",\"6A\",\"C1\",\"J\",\"112\"
\"\",\"\",\"approach-retreat\",\"116\",\"962012\",\"0.0-116.0\",\"\",\"\",\"2-2\",\"11499\",\"40\",\"1\",\"Training\",\"Stims/Figures/94-C-20-2.bmp\",\"za:haha\",\"Down\",\"40\",\"8\",\"1\",\"6A\",\"C2\",\"J\",\"113\"
\"\",\"\",\"approach-retreat\",\"117\",\"968355\",\"0.0-117.0\",\"\",\"\",\"2-2\",\"4835\",\"40\",\"1\",\"Training\",\"Stims/Figures/102-J-10-4.bmp\",\"fa:fasha\",\"Up\",\"40\",\"8\",\"2\",\"6A\",\"C1\",\"J\",\"114\"
\"\",\"\",\"approach-retreat\",\"118\",\"975058\",\"0.0-118.0\",\"\",\"\",\"2-2\",\"5193\",\"37\",\"1\",\"Training\",\"Stims/Figures/144-J-10-3.bmp\",\"fasha:va\",\"Right\",\"37\",\"8\",\"3\",\"6A\",\"C1\",\"J\",\"115\"
\"\",\"\",\"approach-retreat\",\"119\",\"981248\",\"0.0-119.0\",\"\",\"\",\"2-2\",\"4680\",\"39\",\"1\",\"Training\",\"Stims/Figures/87-C-20-4.bmp\",\"sahaza\",\"Right\",\"39\",\"8\",\"4\",\"6A\",\"C2\",\"J\",\"116\"
\"\",\"\",\"approach-retreat\",\"120\",\"1004089\",\"0.0-120.0\",\"\",\"\",\"2-2\",\"21331\",\"40\",\"0\",\"Training\",\"Stims/Figures/118-J-0-2.bmp\",\"vasha:sha\",\"Down\",\"38\",\"8\",\"5\",\"6A\",\"C1\",\"J\",\"117\"
\"\",\"\",\"approach-retreat\",\"121\",\"1014790\",\"0.0-121.0\",\"\",\"\",\"2-2\",\"9194\",\"39\",\"1\",\"Training\",\"Stims/Figures/27-J-0-1.bmp\",\"vafa:sha\",\"Left\",\"39\",\"8\",\"6\",\"6A\",\"C1\",\"J\",\"118\"
\"\",\"\",\"approach-retreat\",\"122\",\"1021766\",\"0.0-122.0\",\"\",\"\",\"2-2\",\"5468\",\"39\",\"1\",\"Training\",\"Stims/Figures/94-J-0-2.bmp\",\"fafa:va\",\"Left\",\"39\",\"8\",\"7\",\"6A\",\"C1\",\"J\",\"119\"
\"\",\"\",\"approach-retreat\",\"123\",\"1030534\",\"0.0-123.0\",\"\",\"\",\"2-2\",\"7258\",\"40\",\"1\",\"Training\",\"Stims/Figures/57-J-0-1.bmp\",\"va:fa:sha\",\"Up\",\"40\",\"8\",\"8\",\"6A\",\"C1\",\"J\",\"120\"
\"\",\"\",\"approach-retreat\",\"124\",\"1037040\",\"0.0-124.0\",\"\",\"\",\"2-2\",\"4996\",\"40\",\"1\",\"Training\",\"Stims/Figures/100-J-10-3.bmp\",\"vafava\",\"Up\",\"40\",\"8\",\"9\",\"6A\",\"C1\",\"J\",\"121\"
\"\",\"\",\"approach-retreat\",\"125\",\"1069441\",\"0.0-125.0\",\"\",\"\",\"2-2\",\"30894\",\"37\",\"0\",\"Training\",\"Stims/Figures/27-C-30-1.bmp\",\"saha:za\",\"Right\",\"39\",\"8\",\"10\",\"6A\",\"C2\",\"J\",\"122\"
\"\",\"\",\"approach-retreat\",\"126\",\"1075712\",\"0.0-126.0\",\"\",\"\",\"2-2\",\"4760\",\"40\",\"1\",\"Training\",\"Stims/Figures/102-C-20-4.bmp\",\"sasa:za\",\"Down\",\"40\",\"8\",\"11\",\"6A\",\"C2\",\"J\",\"123\"
\"\",\"\",\"approach-retreat\",\"127\",\"1082114\",\"0.0-127.0\",\"\",\"\",\"2-2\",\"4895\",\"40\",\"1\",\"Training\",\"Stims/Figures/57-C-30-1.bmp\",\"sa:sa:ha\",\"Down\",\"40\",\"8\",\"12\",\"6A\",\"C2\",\"J\",\"124\"
\"\",\"\",\"approach-retreat\",\"128\",\"1089460\",\"0.0-128.0\",\"\",\"\",\"2-2\",\"5835\",\"37\",\"1\",\"Training\",\"Stims/Figures/144-C-30-3.bmp\",\"zasa:ha\",\"Left\",\"37\",\"8\",\"13\",\"6A\",\"C2\",\"J\",\"125\"
\"\",\"\",\"approach-retreat\",\"129\",\"1095506\",\"0.0-129.0\",\"\",\"\",\"2-2\",\"4537\",\"39\",\"1\",\"Training\",\"Stims/Figures/87-J-10-4.bmp\",\"fashasha\",\"Left\",\"39\",\"8\",\"14\",\"6A\",\"C1\",\"J\",\"126\"
\"\",\"\",\"approach-retreat\",\"130\",\"1101616\",\"0.0-130.0\",\"\",\"\",\"2-2\",\"4603\",\"38\",\"1\",\"Training\",\"Stims/Figures/118-C-20-2.bmp\",\"sa:saha\",\"Up\",\"38\",\"8\",\"15\",\"6A\",\"C2\",\"J\",\"127\"
\"\",\"\",\"approach-retreat\",\"131\",\"1108630\",\"0.0-131.0\",\"\",\"\",\"2-2\",\"5505\",\"39\",\"1\",\"Training\",\"Stims/Figures/100-C-30-3.bmp\",\"sa:haha\",\"Right\",\"39\",\"8\",\"16\",\"6A\",\"C2\",\"J\",\"128\"
\"\",\"\",\"approach-retreat\",\"132\",\"1114735\",\"0.0-132.0\",\"\",\"\",\"2-2\",\"4599\",\"38\",\"1\",\"Training\",\"Stims/Figures/87-C-20-4.bmp\",\"sahaza\",\"Up\",\"38\",\"9\",\"1\",\"6A\",\"C2\",\"J\",\"129\"
\"\",\"\",\"approach-retreat\",\"133\",\"1120763\",\"0.0-133.0\",\"\",\"\",\"2-2\",\"4519\",\"38\",\"1\",\"Training\",\"Stims/Figures/144-J-10-3.bmp\",\"fasha:va\",\"Down\",\"38\",\"9\",\"2\",\"6A\",\"C1\",\"J\",\"130\"
\"\",\"\",\"approach-retreat\",\"134\",\"1127569\",\"0.0-134.0\",\"\",\"\",\"2-2\",\"5296\",\"39\",\"1\",\"Training\",\"Stims/Figures/57-J-0-1.bmp\",\"va:fa:sha\",\"Left\",\"39\",\"9\",\"3\",\"6A\",\"C1\",\"J\",\"131\"
\"\",\"\",\"approach-retreat\",\"135\",\"1133721\",\"0.0-135.0\",\"\",\"\",\"2-2\",\"4644\",\"39\",\"1\",\"Training\",\"Stims/Figures/27-J-0-1.bmp\",\"vafa:sha\",\"Left\",\"39\",\"9\",\"4\",\"6A\",\"C1\",\"J\",\"132\"
\"\",\"\",\"approach-retreat\",\"136\",\"1139907\",\"0.0-136.0\",\"\",\"\",\"2-2\",\"4677\",\"38\",\"1\",\"Training\",\"Stims/Figures/118-C-20-2.bmp\",\"sa:saha\",\"Up\",\"38\",\"9\",\"5\",\"6A\",\"C2\",\"J\",\"133\"
\"\",\"\",\"approach-retreat\",\"137\",\"1146135\",\"0.0-137.0\",\"\",\"\",\"2-2\",\"4720\",\"38\",\"1\",\"Training\",\"Stims/Figures/87-J-10-4.bmp\",\"fashasha\",\"Down\",\"38\",\"9\",\"6\",\"6A\",\"C1\",\"J\",\"134\"
\"\",\"\",\"approach-retreat\",\"138\",\"1153602\",\"0.0-138.0\",\"\",\"\",\"2-2\",\"5957\",\"40\",\"1\",\"Training\",\"Stims/Figures/144-C-30-3.bmp\",\"zasa:ha\",\"Down\",\"40\",\"9\",\"7\",\"6A\",\"C2\",\"J\",\"135\"
\"\",\"\",\"approach-retreat\",\"139\",\"1162888\",\"0.0-139.0\",\"\",\"\",\"2-2\",\"7777\",\"37\",\"1\",\"Training\",\"Stims/Figures/118-J-0-2.bmp\",\"vasha:sha\",\"Right\",\"37\",\"9\",\"8\",\"6A\",\"C1\",\"J\",\"136\"
\"\",\"\",\"approach-retreat\",\"140\",\"1169509\",\"0.0-140.0\",\"\",\"\",\"2-2\",\"5111\",\"39\",\"1\",\"Training\",\"Stims/Figures/94-C-20-2.bmp\",\"za:haha\",\"Right\",\"39\",\"9\",\"9\",\"6A\",\"C2\",\"J\",\"137\"
\"\",\"\",\"approach-retreat\",\"141\",\"1176205\",\"0.0-141.0\",\"\",\"\",\"2-2\",\"5188\",\"37\",\"1\",\"Training\",\"Stims/Figures/100-J-10-3.bmp\",\"vafava\",\"Right\",\"37\",\"9\",\"10\",\"6A\",\"C1\",\"J\",\"138\"
\"\",\"\",\"approach-retreat\",\"142\",\"1183445\",\"0.0-142.0\",\"\",\"\",\"2-2\",\"5730\",\"38\",\"1\",\"Training\",\"Stims/Figures/102-C-20-4.bmp\",\"sasa:za\",\"Up\",\"38\",\"9\",\"11\",\"6A\",\"C2\",\"J\",\"139\"
\"\",\"\",\"approach-retreat\",\"143\",\"1189624\",\"0.0-143.0\",\"\",\"\",\"2-2\",\"4670\",\"37\",\"1\",\"Training\",\"Stims/Figures/100-C-30-3.bmp\",\"sa:haha\",\"Left\",\"37\",\"9\",\"12\",\"6A\",\"C2\",\"J\",\"140\"
\"\",\"\",\"approach-retreat\",\"144\",\"1195919\",\"0.0-144.0\",\"\",\"\",\"2-2\",\"4785\",\"40\",\"1\",\"Training\",\"Stims/Figures/57-C-30-1.bmp\",\"sa:sa:ha\",\"Down\",\"40\",\"9\",\"13\",\"6A\",\"C2\",\"J\",\"141\"
\"\",\"\",\"approach-retreat\",\"145\",\"1202482\",\"0.0-145.0\",\"\",\"\",\"2-2\",\"5055\",\"39\",\"1\",\"Training\",\"Stims/Figures/27-C-30-1.bmp\",\"saha:za\",\"Right\",\"39\",\"9\",\"14\",\"6A\",\"C2\",\"J\",\"142\"
\"\",\"\",\"approach-retreat\",\"146\",\"1208866\",\"0.0-146.0\",\"\",\"\",\"2-2\",\"4875\",\"40\",\"1\",\"Training\",\"Stims/Figures/102-J-10-4.bmp\",\"fa:fasha\",\"Up\",\"40\",\"9\",\"15\",\"6A\",\"C1\",\"J\",\"143\"
\"\",\"\",\"approach-retreat\",\"147\",\"1217540\",\"0.0-147.0\",\"\",\"\",\"2-2\",\"7164\",\"39\",\"1\",\"Training\",\"Stims/Figures/94-J-0-2.bmp\",\"fafa:va\",\"Left\",\"39\",\"9\",\"16\",\"6A\",\"C1\",\"J\",\"144\"
\"17200\",\"\",\"instructions\",\"148\",\"1234740\",\"0.0-148.0\",\"[{\"\"page_index\"\":0,\"\"viewing_time\"\":17199}]\",\"\",\"\",\"\",\"\",\"\",\"\",\"\",\"\",\"\",\"\",\"\",\"\",\"\",\"\",\"\",\"\"
\"\",\"\",\"approach-retreat\",\"149\",\"1280884\",\"0.0-149.0\",\"\",\"\",\"2-2\",\"44636\",\"38\",\"1\",\"Testing\",\"Stims/Figures/7-C-20-4.bmp\",\"za:ha:ha\",\"Up\",\"38\",\"1\",\"1\",\"6A\",\"C2\",\"J\",\"1\"
\"\",\"\",\"approach-retreat\",\"150\",\"1288596\",\"0.0-150.0\",\"\",\"\",\"2-2\",\"6204\",\"40\",\"1\",\"Testing\",\"Stims/Figures/94-C-20-2.bmp\",\"za:haha\",\"Down\",\"40\",\"1\",\"2\",\"6A\",\"C2\",\"J\",\"2\"
\"\",\"\",\"approach-retreat\",\"151\",\"1294676\",\"0.0-151.0\",\"\",\"\",\"2-2\",\"4575\",\"39\",\"1\",\"Testing\",\"Stims/Figures/102-J-10-4.bmp\",\"fa:fasha\",\"Left\",\"39\",\"1\",\"3\",\"6A\",\"C1\",\"J\",\"3\"
\"\",\"\",\"approach-retreat\",\"152\",\"1301586\",\"0.0-152.0\",\"\",\"\",\"2-2\",\"5401\",\"38\",\"1\",\"Testing\",\"Stims/Figures/86-C-30-1.bmp\",\"za:saza\",\"Up\",\"38\",\"1\",\"4\",\"6A\",\"C2\",\"J\",\"4\"
\"\",\"\",\"approach-retreat\",\"153\",\"1319178\",\"0.0-153.0\",\"\",\"\",\"2-2\",\"16083\",\"38\",\"1\",\"Testing\",\"Stims/Figures/111-C-30-3.bmp\",\"zaha:ha\",\"Up\",\"38\",\"1\",\"5\",\"6A\",\"C2\",\"J\",\"5\"
\"\",\"\",\"approach-retreat\",\"154\",\"1342458\",\"0.0-154.0\",\"\",\"\",\"2-2\",\"21771\",\"38\",\"0\",\"Testing\",\"Stims/Figures/27-C-30-1.bmp\",\"saha:za\",\"Down\",\"40\",\"1\",\"6\",\"6A\",\"C2\",\"J\",\"6\"
\"\",\"\",\"approach-retreat\",\"155\",\"1357173\",\"0.0-155.0\",\"\",\"\",\"2-2\",\"13209\",\"38\",\"0\",\"Testing\",\"Stims/Figures/100-J-10-3.bmp\",\"vafava\",\"Up\",\"40\",\"1\",\"7\",\"6A\",\"C1\",\"J\",\"7\"
\"\",\"\",\"approach-retreat\",\"156\",\"1368781\",\"0.0-156.0\",\"\",\"\",\"2-2\",\"10103\",\"39\",\"0\",\"Testing\",\"Stims/Figures/111-J-10-3.bmp\",\"fa:shasha\",\"Right\",\"37\",\"1\",\"8\",\"6A\",\"C1\",\"J\",\"8\"
\"\",\"\",\"approach-retreat\",\"157\",\"1374866\",\"0.0-157.0\",\"\",\"\",\"2-2\",\"4576\",\"39\",\"1\",\"Testing\",\"Stims/Figures/87-C-20-4.bmp\",\"sahaza\",\"Right\",\"39\",\"1\",\"9\",\"6A\",\"C2\",\"J\",\"9\"
\"\",\"\",\"approach-retreat\",\"158\",\"1381616\",\"0.0-158.0\",\"\",\"\",\"2-2\",\"5243\",\"37\",\"1\",\"Testing\",\"Stims/Figures/100-C-30-3.bmp\",\"sa:haha\",\"Left\",\"37\",\"1\",\"10\",\"6A\",\"C2\",\"J\",\"10\"
\"\",\"\",\"approach-retreat\",\"159\",\"1387581\",\"0.0-159.0\",\"\",\"\",\"2-2\",\"4456\",\"39\",\"0\",\"Testing\",\"Stims/Figures/144-C-30-3.bmp\",\"zasa:ha\",\"Left\",\"37\",\"1\",\"11\",\"6A\",\"C2\",\"J\",\"11\"
\"\",\"\",\"approach-retreat\",\"160\",\"1393898\",\"0.0-160.0\",\"\",\"\",\"2-2\",\"4810\",\"37\",\"1\",\"Testing\",\"Stims/Figures/118-J-0-2.bmp\",\"vasha:sha\",\"Right\",\"37\",\"1\",\"12\",\"6A\",\"C1\",\"J\",\"12\"
\"\",\"\",\"approach-retreat\",\"161\",\"1399784\",\"0.0-161.0\",\"\",\"\",\"2-2\",\"4381\",\"39\",\"1\",\"Testing\",\"Stims/Figures/57-C-30-1.bmp\",\"sa:sa:ha\",\"Right\",\"39\",\"1\",\"13\",\"6A\",\"C2\",\"J\",\"13\"
\"\",\"\",\"approach-retreat\",\"162\",\"1405873\",\"0.0-162.0\",\"\",\"\",\"2-2\",\"4581\",\"38\",\"0\",\"Testing\",\"Stims/Figures/7-J-10-4.bmp\",\"fa:shava\",\"Up\",\"40\",\"1\",\"14\",\"6A\",\"C1\",\"J\",\"14\"
\"\",\"\",\"approach-retreat\",\"163\",\"1411922\",\"0.0-163.0\",\"\",\"\",\"2-2\",\"4539\",\"38\",\"0\",\"Testing\",\"Stims/Figures/139-J-0-2.bmp\",\"va:shasha\",\"Up\",\"40\",\"1\",\"15\",\"6A\",\"C1\",\"J\",\"15\"
\"\",\"\",\"approach-retreat\",\"164\",\"1417787\",\"0.0-164.0\",\"\",\"\",\"2-2\",\"4358\",\"39\",\"1\",\"Testing\",\"Stims/Figures/57-J-0-1.bmp\",\"va:fa:sha\",\"Left\",\"39\",\"1\",\"16\",\"6A\",\"C1\",\"J\",\"16\"
\"\",\"\",\"approach-retreat\",\"165\",\"1426101\",\"0.0-165.0\",\"\",\"\",\"2-2\",\"6805\",\"37\",\"1\",\"Testing\",\"Stims/Figures/139-C-20-2.bmp\",\"zasaha\",\"Left\",\"37\",\"1\",\"17\",\"6A\",\"C2\",\"J\",\"17\"
\"\",\"\",\"approach-retreat\",\"166\",\"1432202\",\"0.0-166.0\",\"\",\"\",\"2-2\",\"4593\",\"38\",\"1\",\"Testing\",\"Stims/Figures/94-J-0-2.bmp\",\"fafa:va\",\"Down\",\"38\",\"1\",\"18\",\"6A\",\"C1\",\"J\",\"18\"
\"\",\"\",\"approach-retreat\",\"167\",\"1439491\",\"0.0-167.0\",\"\",\"\",\"2-2\",\"5775\",\"38\",\"1\",\"Testing\",\"Stims/Figures/27-J-0-1.bmp\",\"vafa:sha\",\"Down\",\"38\",\"1\",\"19\",\"6A\",\"C1\",\"J\",\"19\"
\"\",\"\",\"approach-retreat\",\"168\",\"1446630\",\"0.0-168.0\",\"\",\"\",\"2-2\",\"5630\",\"38\",\"0\",\"Testing\",\"Stims/Figures/118-C-20-2.bmp\",\"sa:saha\",\"Down\",\"40\",\"1\",\"20\",\"6A\",\"C2\",\"J\",\"20\"
\"\",\"\",\"approach-retreat\",\"169\",\"1454416\",\"0.0-169.0\",\"\",\"\",\"2-2\",\"6278\",\"37\",\"0\",\"Testing\",\"Stims/Figures/86-J-0-1.bmp\",\"fashava\",\"Left\",\"39\",\"1\",\"21\",\"6A\",\"C1\",\"J\",\"21\"
\"\",\"\",\"approach-retreat\",\"170\",\"1460372\",\"0.0-170.0\",\"\",\"\",\"2-2\",\"4450\",\"38\",\"1\",\"Testing\",\"Stims/Figures/144-J-10-3.bmp\",\"fasha:va\",\"Down\",\"38\",\"1\",\"22\",\"6A\",\"C1\",\"J\",\"22\"
\"\",\"\",\"approach-retreat\",\"171\",\"1466423\",\"0.0-171.0\",\"\",\"\",\"2-2\",\"4544\",\"37\",\"0\",\"Testing\",\"Stims/Figures/102-C-20-4.bmp\",\"sasa:za\",\"Right\",\"39\",\"1\",\"23\",\"6A\",\"C2\",\"J\",\"23\"
\"\",\"\",\"approach-retreat\",\"172\",\"1472376\",\"0.0-172.0\",\"\",\"\",\"2-2\",\"4444\",\"39\",\"0\",\"Testing\",\"Stims/Figures/87-J-10-4.bmp\",\"fashasha\",\"Right\",\"37\",\"1\",\"24\",\"6A\",\"C1\",\"J\",\"24\"
\"\",\"\",\"approach-retreat\",\"173\",\"1478295\",\"0.0-173.0\",\"\",\"\",\"2-2\",\"4413\",\"39\",\"0\",\"Testing\",\"Stims/Figures/57-C-30-1.bmp\",\"sa:sa:ha\",\"Left\",\"37\",\"2\",\"1\",\"6A\",\"C2\",\"J\",\"25\"
\"\",\"\",\"approach-retreat\",\"174\",\"1497397\",\"0.0-174.0\",\"\",\"\",\"2-2\",\"17595\",\"38\",\"1\",\"Testing\",\"Stims/Figures/100-C-30-3.bmp\",\"sa:haha\",\"Up\",\"38\",\"2\",\"2\",\"6A\",\"C2\",\"J\",\"26\"
\"\",\"\",\"approach-retreat\",\"175\",\"1504132\",\"0.0-175.0\",\"\",\"\",\"2-2\",\"5226\",\"40\",\"0\",\"Testing\",\"Stims/Figures/86-J-0-1.bmp\",\"fashava\",\"Down\",\"38\",\"2\",\"3\",\"6A\",\"C1\",\"J\",\"27\"
\"\",\"\",\"approach-retreat\",\"176\",\"1511908\",\"0.0-176.0\",\"\",\"\",\"2-2\",\"6268\",\"37\",\"1\",\"Testing\",\"Stims/Figures/139-C-20-2.bmp\",\"zasaha\",\"Left\",\"37\",\"2\",\"4\",\"6A\",\"C2\",\"J\",\"28\"
\"\",\"\",\"approach-retreat\",\"177\",\"1517770\",\"0.0-177.0\",\"\",\"\",\"2-2\",\"4354\",\"38\",\"1\",\"Testing\",\"Stims/Figures/7-C-20-4.bmp\",\"za:ha:ha\",\"Up\",\"38\",\"2\",\"5\",\"6A\",\"C2\",\"J\",\"29\"
\"\",\"\",\"approach-retreat\",\"178\",\"1523424\",\"0.0-178.0\",\"\",\"\",\"2-2\",\"4147\",\"37\",\"0\",\"Testing\",\"Stims/Figures/102-C-20-4.bmp\",\"sasa:za\",\"Right\",\"39\",\"2\",\"6\",\"6A\",\"C2\",\"J\",\"30\"
\"\",\"\",\"approach-retreat\",\"179\",\"1533267\",\"0.0-179.0\",\"\",\"\",\"2-2\",\"8334\",\"40\",\"1\",\"Testing\",\"Stims/Figures/87-C-20-4.bmp\",\"sahaza\",\"Down\",\"40\",\"2\",\"7\",\"6A\",\"C2\",\"J\",\"31\"
\"\",\"\",\"approach-retreat\",\"180\",\"1541449\",\"0.0-180.0\",\"\",\"\",\"2-2\",\"6674\",\"40\",\"0\",\"Testing\",\"Stims/Figures/111-C-30-3.bmp\",\"zaha:ha\",\"Up\",\"38\",\"2\",\"8\",\"6A\",\"C2\",\"J\",\"32\"
\"\",\"\",\"approach-retreat\",\"181\",\"1547878\",\"0.0-181.0\",\"\",\"\",\"2-2\",\"4920\",\"37\",\"1\",\"Testing\",\"Stims/Figures/86-C-30-1.bmp\",\"za:saza\",\"Left\",\"37\",\"2\",\"9\",\"6A\",\"C2\",\"J\",\"33\"
\"\",\"\",\"approach-retreat\",\"182\",\"1570532\",\"0.0-182.0\",\"\",\"\",\"2-2\",\"21144\",\"37\",\"0\",\"Testing\",\"Stims/Figures/139-J-0-2.bmp\",\"va:shasha\",\"Left\",\"39\",\"2\",\"10\",\"6A\",\"C1\",\"J\",\"34\"
\"\",\"\",\"approach-retreat\",\"183\",\"1576527\",\"0.0-183.0\",\"\",\"\",\"2-2\",\"4487\",\"38\",\"0\",\"Testing\",\"Stims/Figures/144-C-30-3.bmp\",\"zasa:ha\",\"Down\",\"40\",\"2\",\"11\",\"6A\",\"C2\",\"J\",\"35\"
\"\",\"\",\"approach-retreat\",\"184\",\"1584315\",\"0.0-184.0\",\"\",\"\",\"2-2\",\"6278\",\"38\",\"1\",\"Testing\",\"Stims/Figures/118-J-0-2.bmp\",\"vasha:sha\",\"Down\",\"38\",\"2\",\"12\",\"6A\",\"C1\",\"J\",\"36\"
\"\",\"\",\"approach-retreat\",\"185\",\"1591704\",\"0.0-185.0\",\"\",\"\",\"2-2\",\"5880\",\"39\",\"1\",\"Testing\",\"Stims/Figures/94-C-20-2.bmp\",\"za:haha\",\"Right\",\"39\",\"2\",\"13\",\"6A\",\"C2\",\"J\",\"37\"
\"\",\"\",\"approach-retreat\",\"186\",\"1598334\",\"0.0-186.0\",\"\",\"\",\"2-2\",\"5122\",\"39\",\"0\",\"Testing\",\"Stims/Figures/27-C-30-1.bmp\",\"saha:za\",\"Left\",\"37\",\"2\",\"14\",\"6A\",\"C2\",\"J\",\"38\"
\"\",\"\",\"approach-retreat\",\"187\",\"1609727\",\"0.0-187.0\",\"\",\"\",\"2-2\",\"9884\",\"38\",\"1\",\"Testing\",\"Stims/Figures/102-J-10-4.bmp\",\"fa:fasha\",\"Down\",\"38\",\"2\",\"15\",\"6A\",\"C1\",\"J\",\"39\"
\"\",\"\",\"approach-retreat\",\"188\",\"1619438\",\"0.0-188.0\",\"\",\"\",\"2-2\",\"8201\",\"37\",\"0\",\"Testing\",\"Stims/Figures/111-J-10-3.bmp\",\"fa:shasha\",\"Left\",\"39\",\"2\",\"16\",\"6A\",\"C1\",\"J\",\"40\"
\"\",\"\",\"approach-retreat\",\"189\",\"1634899\",\"0.0-189.0\",\"\",\"\",\"2-2\",\"13952\",\"40\",\"1\",\"Testing\",\"Stims/Figures/144-J-10-3.bmp\",\"fasha:va\",\"Up\",\"40\",\"2\",\"17\",\"6A\",\"C1\",\"J\",\"41\"
\"\",\"\",\"approach-retreat\",\"190\",\"1651312\",\"0.0-190.0\",\"\",\"\",\"2-2\",\"14907\",\"37\",\"1\",\"Testing\",\"Stims/Figures/27-J-0-1.bmp\",\"vafa:sha\",\"Right\",\"37\",\"2\",\"18\",\"6A\",\"C1\",\"J\",\"42\"
\"\",\"\",\"approach-retreat\",\"191\",\"1675125\",\"0.0-191.0\",\"\",\"\",\"2-2\",\"22304\",\"38\",\"0\",\"Testing\",\"Stims/Figures/87-J-10-4.bmp\",\"fashasha\",\"Up\",\"40\",\"2\",\"19\",\"6A\",\"C1\",\"J\",\"43\"
\"\",\"\",\"approach-retreat\",\"192\",\"1684154\",\"0.0-192.0\",\"\",\"\",\"2-2\",\"7521\",\"37\",\"1\",\"Testing\",\"Stims/Figures/94-J-0-2.bmp\",\"fafa:va\",\"Right\",\"37\",\"2\",\"20\",\"6A\",\"C1\",\"J\",\"44\"
\"\",\"\",\"approach-retreat\",\"193\",\"1707626\",\"0.0-193.0\",\"\",\"\",\"2-2\",\"21963\",\"39\",\"0\",\"Testing\",\"Stims/Figures/100-J-10-3.bmp\",\"vafava\",\"Right\",\"37\",\"2\",\"21\",\"6A\",\"C1\",\"J\",\"45\"
\"\",\"\",\"approach-retreat\",\"194\",\"1717404\",\"0.0-194.0\",\"\",\"\",\"2-2\",\"8271\",\"38\",\"0\",\"Testing\",\"Stims/Figures/7-J-10-4.bmp\",\"fa:shava\",\"Up\",\"40\",\"2\",\"22\",\"6A\",\"C1\",\"J\",\"46\"
\"\",\"\",\"approach-retreat\",\"195\",\"1734867\",\"0.0-195.0\",\"\",\"\",\"2-2\",\"15952\",\"38\",\"1\",\"Testing\",\"Stims/Figures/57-J-0-1.bmp\",\"va:fa:sha\",\"Down\",\"38\",\"2\",\"23\",\"6A\",\"C1\",\"J\",\"47\"
\"\",\"\",\"approach-retreat\",\"196\",\"1741209\",\"0.0-196.0\",\"\",\"\",\"2-2\",\"4835\",\"37\",\"0\",\"Testing\",\"Stims/Figures/118-C-20-2.bmp\",\"sa:saha\",\"Right\",\"39\",\"2\",\"24\",\"6A\",\"C2\",\"J\",\"48\"
\"\",\"\",\"approach-retreat\",\"197\",\"1747280\",\"0.0-197.0\",\"\",\"\",\"2-2\",\"4562\",\"40\",\"1\",\"Testing\",\"Stims/Figures/94-J-0-2.bmp\",\"fafa:va\",\"Up\",\"40\",\"3\",\"1\",\"6A\",\"C1\",\"J\",\"49\"
\"\",\"\",\"approach-retreat\",\"198\",\"1753333\",\"0.0-198.0\",\"\",\"\",\"2-2\",\"4547\",\"40\",\"1\",\"Testing\",\"Stims/Figures/57-J-0-1.bmp\",\"va:fa:sha\",\"Up\",\"40\",\"3\",\"2\",\"6A\",\"C1\",\"J\",\"50\"
\"\",\"\",\"approach-retreat\",\"199\",\"1759575\",\"0.0-199.0\",\"\",\"\",\"2-2\",\"4732\",\"39\",\"1\",\"Testing\",\"Stims/Figures/144-J-10-3.bmp\",\"fasha:va\",\"Left\",\"39\",\"3\",\"3\",\"6A\",\"C1\",\"J\",\"51\"
\"\",\"\",\"approach-retreat\",\"200\",\"1766539\",\"0.0-200.0\",\"\",\"\",\"2-2\",\"5455\",\"40\",\"0\",\"Testing\",\"Stims/Figures/57-C-30-1.bmp\",\"sa:sa:ha\",\"Up\",\"38\",\"3\",\"4\",\"6A\",\"C2\",\"J\",\"52\"
\"\",\"\",\"approach-retreat\",\"201\",\"1773236\",\"0.0-201.0\",\"\",\"\",\"2-2\",\"5187\",\"40\",\"0\",\"Testing\",\"Stims/Figures/87-J-10-4.bmp\",\"fashasha\",\"Down\",\"38\",\"3\",\"5\",\"6A\",\"C1\",\"J\",\"53\"
\"\",\"\",\"approach-retreat\",\"202\",\"1780086\",\"0.0-202.0\",\"\",\"\",\"2-2\",\"5344\",\"38\",\"1\",\"Testing\",\"Stims/Figures/87-C-20-4.bmp\",\"sahaza\",\"Up\",\"38\",\"3\",\"6\",\"6A\",\"C2\",\"J\",\"54\"
\"\",\"\",\"approach-retreat\",\"203\",\"1786569\",\"0.0-203.0\",\"\",\"\",\"2-2\",\"4974\",\"40\",\"0\",\"Testing\",\"Stims/Figures/111-J-10-3.bmp\",\"fa:shasha\",\"Down\",\"38\",\"3\",\"7\",\"6A\",\"C1\",\"J\",\"55\"
\"\",\"\",\"approach-retreat\",\"204\",\"1792664\",\"0.0-204.0\",\"\",\"\",\"2-2\",\"4586\",\"37\",\"1\",\"Testing\",\"Stims/Figures/139-J-0-2.bmp\",\"va:shasha\",\"Right\",\"37\",\"3\",\"8\",\"6A\",\"C1\",\"J\",\"56\"
\"\",\"\",\"approach-retreat\",\"205\",\"1799822\",\"0.0-205.0\",\"\",\"\",\"2-2\",\"5650\",\"37\",\"1\",\"Testing\",\"Stims/Figures/118-J-0-2.bmp\",\"vasha:sha\",\"Right\",\"37\",\"3\",\"9\",\"6A\",\"C1\",\"J\",\"57\"
\"\",\"\",\"approach-retreat\",\"206\",\"1805797\",\"0.0-206.0\",\"\",\"\",\"2-2\",\"4467\",\"40\",\"1\",\"Testing\",\"Stims/Figures/111-C-30-3.bmp\",\"zaha:ha\",\"Down\",\"40\",\"3\",\"10\",\"6A\",\"C2\",\"J\",\"58\"
\"\",\"\",\"approach-retreat\",\"207\",\"1811907\",\"0.0-207.0\",\"\",\"\",\"2-2\",\"4601\",\"39\",\"0\",\"Testing\",\"Stims/Figures/144-C-30-3.bmp\",\"zasa:ha\",\"Left\",\"37\",\"3\",\"11\",\"6A\",\"C2\",\"J\",\"59\"
\"\",\"\",\"approach-retreat\",\"208\",\"1819070\",\"0.0-208.0\",\"\",\"\",\"2-2\",\"5659\",\"40\",\"1\",\"Testing\",\"Stims/Figures/102-J-10-4.bmp\",\"fa:fasha\",\"Up\",\"40\",\"3\",\"12\",\"6A\",\"C1\",\"J\",\"60\"
\"\",\"\",\"approach-retreat\",\"209\",\"1826279\",\"0.0-209.0\",\"\",\"\",\"2-2\",\"5704\",\"37\",\"1\",\"Testing\",\"Stims/Figures/100-C-30-3.bmp\",\"sa:haha\",\"Left\",\"37\",\"3\",\"13\",\"6A\",\"C2\",\"J\",\"61\"
\"\",\"\",\"approach-retreat\",\"210\",\"1834125\",\"0.0-210.0\",\"\",\"\",\"2-2\",\"6336\",\"38\",\"0\",\"Testing\",\"Stims/Figures/27-C-30-1.bmp\",\"saha:za\",\"Down\",\"40\",\"3\",\"14\",\"6A\",\"C2\",\"J\",\"62\"
\"\",\"\",\"approach-retreat\",\"211\",\"1842381\",\"0.0-211.0\",\"\",\"\",\"2-2\",\"6745\",\"40\",\"0\",\"Testing\",\"Stims/Figures/139-C-20-2.bmp\",\"zasaha\",\"Up\",\"38\",\"3\",\"15\",\"6A\",\"C2\",\"J\",\"63\"
\"\",\"\",\"approach-retreat\",\"212\",\"1850367\",\"0.0-212.0\",\"\",\"\",\"2-2\",\"6480\",\"39\",\"0\",\"Testing\",\"Stims/Figures/86-C-30-1.bmp\",\"za:saza\",\"Left\",\"37\",\"3\",\"16\",\"6A\",\"C2\",\"J\",\"64\"
\"\",\"\",\"approach-retreat\",\"213\",\"1861749\",\"0.0-213.0\",\"\",\"\",\"2-2\",\"9872\",\"39\",\"1\",\"Testing\",\"Stims/Figures/27-J-0-1.bmp\",\"vafa:sha\",\"Left\",\"39\",\"3\",\"17\",\"6A\",\"C1\",\"J\",\"65\"
\"\",\"\",\"approach-retreat\",\"214\",\"1867846\",\"0.0-214.0\",\"\",\"\",\"2-2\",\"4589\",\"40\",\"0\",\"Testing\",\"Stims/Figures/86-J-0-1.bmp\",\"fashava\",\"Down\",\"38\",\"3\",\"18\",\"6A\",\"C1\",\"J\",\"66\"
\"\",\"\",\"approach-retreat\",\"215\",\"1875472\",\"0.0-215.0\",\"\",\"\",\"2-2\",\"6116\",\"37\",\"0\",\"Testing\",\"Stims/Figures/102-C-20-4.bmp\",\"sasa:za\",\"Right\",\"39\",\"3\",\"19\",\"6A\",\"C2\",\"J\",\"67\"
\"\",\"\",\"approach-retreat\",\"216\",\"1888192\",\"0.0-216.0\",\"\",\"\",\"2-2\",\"11213\",\"39\",\"0\",\"Testing\",\"Stims/Figures/7-J-10-4.bmp\",\"fa:shava\",\"Right\",\"37\",\"3\",\"20\",\"6A\",\"C1\",\"J\",\"68\"
\"\",\"\",\"approach-retreat\",\"217\",\"1905846\",\"0.0-217.0\",\"\",\"\",\"2-2\",\"16147\",\"37\",\"0\",\"Testing\",\"Stims/Figures/118-C-20-2.bmp\",\"sa:saha\",\"Right\",\"39\",\"3\",\"21\",\"6A\",\"C2\",\"J\",\"69\"
\"\",\"\",\"approach-retreat\",\"218\",\"1915090\",\"0.0-218.0\",\"\",\"\",\"2-2\",\"7735\",\"39\",\"0\",\"Testing\",\"Stims/Figures/94-C-20-2.bmp\",\"za:haha\",\"Left\",\"37\",\"3\",\"22\",\"6A\",\"C2\",\"J\",\"70\"
\"\",\"\",\"approach-retreat\",\"219\",\"1922110\",\"0.0-219.0\",\"\",\"\",\"2-2\",\"5511\",\"39\",\"1\",\"Testing\",\"Stims/Figures/7-C-20-4.bmp\",\"za:ha:ha\",\"Right\",\"39\",\"3\",\"23\",\"6A\",\"C2\",\"J\",\"71\"
\"\",\"\",\"approach-retreat\",\"220\",\"1929874\",\"0.0-220.0\",\"\",\"\",\"2-2\",\"6256\",\"40\",\"0\",\"Testing\",\"Stims/Figures/100-J-10-3.bmp\",\"vafava\",\"Down\",\"38\",\"3\",\"24\",\"6A\",\"C1\",\"J\",\"72\"
\"\",\"\",\"approach-retreat\",\"221\",\"1935893\",\"0.0-221.0\",\"\",\"\",\"2-2\",\"4509\",\"37\",\"0\",\"Testing\",\"Stims/Figures/118-C-20-2.bmp\",\"sa:saha\",\"Right\",\"39\",\"4\",\"1\",\"6A\",\"C2\",\"J\",\"73\"
\"\",\"\",\"approach-retreat\",\"222\",\"1941937\",\"0.0-222.0\",\"\",\"\",\"2-2\",\"4538\",\"39\",\"0\",\"Testing\",\"Stims/Figures/102-C-20-4.bmp\",\"sasa:za\",\"Left\",\"37\",\"4\",\"2\",\"6A\",\"C2\",\"J\",\"74\"
\"\",\"\",\"approach-retreat\",\"223\",\"1947999\",\"0.0-223.0\",\"\",\"\",\"2-2\",\"4555\",\"38\",\"0\",\"Testing\",\"Stims/Figures/100-J-10-3.bmp\",\"vafava\",\"Up\",\"40\",\"4\",\"3\",\"6A\",\"C1\",\"J\",\"75\"
\"\",\"\",\"approach-retreat\",\"224\",\"1954047\",\"0.0-224.0\",\"\",\"\",\"2-2\",\"4542\",\"38\",\"0\",\"Testing\",\"Stims/Figures/144-C-30-3.bmp\",\"zasa:ha\",\"Down\",\"40\",\"4\",\"4\",\"6A\",\"C2\",\"J\",\"76\"
\"\",\"\",\"approach-retreat\",\"225\",\"1968627\",\"0.0-225.0\",\"\",\"\",\"2-2\",\"13073\",\"37\",\"1\",\"Testing\",\"Stims/Figures/86-C-30-1.bmp\",\"za:saza\",\"Left\",\"37\",\"4\",\"5\",\"6A\",\"C2\",\"J\",\"77\"
\"\",\"\",\"approach-retreat\",\"226\",\"1978453\",\"0.0-226.0\",\"\",\"\",\"2-2\",\"8319\",\"39\",\"0\",\"Testing\",\"Stims/Figures/86-J-0-1.bmp\",\"fashava\",\"Right\",\"37\",\"4\",\"6\",\"6A\",\"C1\",\"J\",\"78\"
\"\",\"\",\"approach-retreat\",\"227\",\"1984545\",\"0.0-227.0\",\"\",\"\",\"2-2\",\"4582\",\"37\",\"1\",\"Testing\",\"Stims/Figures/94-J-0-2.bmp\",\"fafa:va\",\"Right\",\"37\",\"4\",\"7\",\"6A\",\"C1\",\"J\",\"79\"
\"\",\"\",\"approach-retreat\",\"228\",\"1990620\",\"0.0-228.0\",\"\",\"\",\"2-2\",\"4566\",\"40\",\"1\",\"Testing\",\"Stims/Figures/111-C-30-3.bmp\",\"zaha:ha\",\"Down\",\"40\",\"4\",\"8\",\"6A\",\"C2\",\"J\",\"80\"
\"\",\"\",\"approach-retreat\",\"229\",\"1996632\",\"0.0-229.0\",\"\",\"\",\"2-2\",\"4507\",\"40\",\"1\",\"Testing\",\"Stims/Figures/102-J-10-4.bmp\",\"fa:fasha\",\"Up\",\"40\",\"4\",\"9\",\"6A\",\"C1\",\"J\",\"81\"
\"\",\"\",\"approach-retreat\",\"230\",\"2002650\",\"0.0-230.0\",\"\",\"\",\"2-2\",\"4510\",\"39\",\"1\",\"Testing\",\"Stims/Figures/94-C-20-2.bmp\",\"za:haha\",\"Right\",\"39\",\"4\",\"10\",\"6A\",\"C2\",\"J\",\"82\"
\"\",\"\",\"approach-retreat\",\"231\",\"2012671\",\"0.0-231.0\",\"\",\"\",\"2-2\",\"8511\",\"40\",\"1\",\"Testing\",\"Stims/Figures/100-C-30-3.bmp\",\"sa:haha\",\"Down\",\"40\",\"4\",\"11\",\"6A\",\"C2\",\"J\",\"83\"
\"\",\"\",\"approach-retreat\",\"232\",\"2018793\",\"0.0-232.0\",\"\",\"\",\"2-2\",\"4615\",\"37\",\"1\",\"Testing\",\"Stims/Figures/7-C-20-4.bmp\",\"za:ha:ha\",\"Left\",\"37\",\"4\",\"12\",\"6A\",\"C2\",\"J\",\"84\"
\"\",\"\",\"approach-retreat\",\"233\",\"2026373\",\"0.0-233.0\",\"\",\"\",\"2-2\",\"6072\",\"38\",\"0\",\"Testing\",\"Stims/Figures/87-J-10-4.bmp\",\"fashasha\",\"Up\",\"40\",\"4\",\"13\",\"6A\",\"C1\",\"J\",\"85\"
\"\",\"\",\"approach-retreat\",\"234\",\"2032751\",\"0.0-234.0\",\"\",\"\",\"2-2\",\"4869\",\"38\",\"0\",\"Testing\",\"Stims/Figures/27-C-30-1.bmp\",\"saha:za\",\"Down\",\"40\",\"4\",\"14\",\"6A\",\"C2\",\"J\",\"86\"
\"\",\"\",\"approach-retreat\",\"235\",\"2039347\",\"0.0-235.0\",\"\",\"\",\"2-2\",\"5086\",\"37\",\"0\",\"Testing\",\"Stims/Figures/139-J-0-2.bmp\",\"va:shasha\",\"Left\",\"39\",\"4\",\"15\",\"6A\",\"C1\",\"J\",\"87\"
\"\",\"\",\"approach-retreat\",\"236\",\"2045648\",\"0.0-236.0\",\"\",\"\",\"2-2\",\"4792\",\"39\",\"1\",\"Testing\",\"Stims/Figures/87-C-20-4.bmp\",\"sahaza\",\"Right\",\"39\",\"4\",\"16\",\"6A\",\"C2\",\"J\",\"88\"
\"\",\"\",\"approach-retreat\",\"237\",\"2051837\",\"0.0-237.0\",\"\",\"\",\"2-2\",\"4681\",\"38\",\"0\",\"Testing\",\"Stims/Figures/7-J-10-4.bmp\",\"fa:shava\",\"Up\",\"40\",\"4\",\"17\",\"6A\",\"C1\",\"J\",\"89\"
\"\",\"\",\"approach-retreat\",\"238\",\"2058946\",\"0.0-238.0\",\"\",\"\",\"2-2\",\"5599\",\"37\",\"1\",\"Testing\",\"Stims/Figures/139-C-20-2.bmp\",\"zasaha\",\"Left\",\"37\",\"4\",\"18\",\"6A\",\"C2\",\"J\",\"90\"
\"\",\"\",\"approach-retreat\",\"239\",\"2064898\",\"0.0-239.0\",\"\",\"\",\"2-2\",\"4443\",\"37\",\"1\",\"Testing\",\"Stims/Figures/27-J-0-1.bmp\",\"vafa:sha\",\"Right\",\"37\",\"4\",\"19\",\"6A\",\"C1\",\"J\",\"91\"
\"\",\"\",\"approach-retreat\",\"240\",\"2075125\",\"0.0-240.0\",\"\",\"\",\"2-2\",\"8717\",\"40\",\"1\",\"Testing\",\"Stims/Figures/57-J-0-1.bmp\",\"va:fa:sha\",\"Up\",\"40\",\"4\",\"20\",\"6A\",\"C1\",\"J\",\"92\"
\"\",\"\",\"approach-retreat\",\"241\",\"2082072\",\"0.0-241.0\",\"\",\"\",\"2-2\",\"5439\",\"40\",\"1\",\"Testing\",\"Stims/Figures/144-J-10-3.bmp\",\"fasha:va\",\"Up\",\"40\",\"4\",\"21\",\"6A\",\"C1\",\"J\",\"93\"
\"\",\"\",\"approach-retreat\",\"242\",\"2088088\",\"0.0-242.0\",\"\",\"\",\"2-2\",\"4508\",\"38\",\"1\",\"Testing\",\"Stims/Figures/118-J-0-2.bmp\",\"vasha:sha\",\"Down\",\"38\",\"4\",\"22\",\"6A\",\"C1\",\"J\",\"94\"
\"\",\"\",\"approach-retreat\",\"243\",\"2102647\",\"0.0-243.0\",\"\",\"\",\"2-2\",\"13052\",\"39\",\"0\",\"Testing\",\"Stims/Figures/57-C-30-1.bmp\",\"sa:sa:ha\",\"Left\",\"37\",\"4\",\"23\",\"6A\",\"C2\",\"J\",\"95\"
\"\",\"\",\"approach-retreat\",\"244\",\"2109166\",\"0.0-244.0\",\"\",\"\",\"2-2\",\"5013\",\"40\",\"0\",\"Testing\",\"Stims/Figures/111-J-10-3.bmp\",\"fa:shasha\",\"Down\",\"38\",\"4\",\"24\",\"6A\",\"C1\",\"J\",\"96\"
\"39858\",\"\",\"survey-text\",\"245\",\"2149030\",\"0.0-245.0\",\"\",\"{\"\"Q0\"\":\"\"PS170026\"\"}\",\"\",\"\",\"\",\"\",\"\",\"\",\"\",\"\",\"\",\"\",\"\",\"\",\"\",\"\",\"\"
