"rt","key_press","trial_type","trial_index","time_elapsed","internal_node_id","view_history","responses","Id","Rt","ResKeyCode","ResCorr","TrialType2","Image","Label","Location","CorrectResponse","Block","BlockTrial","Condition","LabelType","Subcondition","trialNum"
"58152","32","text","0","58155","0.0-0.0-0.0","","","","","","","","","","","","","","","","",""
"191184","","instructions","1","249339","0.0-1.0","[{""page_index"":0,""viewing_time"":191183}]","","","","","","","","","","","","","","","",""
"148246","","survey-multi-choice","2","397605","0.0-2.0","","{""Q0"":""Da"",""Q1"":""Da"",""Q2"":""Da"",""Q3"":""Da"",""Q4"":""Da"",""Q5"":""Da""}","","","","","","","","","","","","","","",""
"","","bio","3","410314","0.0-3.0","","{""age"":""19"",""gender"":""f"",""specify"":""""}","","","","","","","","","","","","","","",""
"","","approach-retreat","4","472200","0.0-4.0","","","2-5","60380","38","0","Training","Stims/Figures/139-C-20-2.bmp","None","Up","40","1","1","10","N","C","1"
"","","approach-retreat","5","482632","0.0-5.0","","","2-5","8926","40","0","Training","Stims/Figures/111-C-30-3.bmp","None","Down","38","1","2","10","N","C","2"
"","","approach-retreat","6","502398","0.0-6.0","","","2-5","18262","37","1","Training","Stims/Figures/84-J-0-2.bmp","None","Left","37","1","3","10","N","C","3"
"","","approach-retreat","7","509702","0.0-7.0","","","2-5","5799","40","1","Training","Stims/Figures/102-J-10-4.bmp","None","Down","40","1","4","10","N","C","4"
"","","approach-retreat","8","518615","0.0-8.0","","","2-5","7408","39","0","Training","Stims/Figures/102-C-20-4.bmp","None","Right","37","1","5","10","N","C","5"
"","","approach-retreat","9","545096","0.0-9.0","","","2-5","24974","39","0","Training","Stims/Figures/71-C-30-1.bmp","None","Right","37","1","6","10","N","C","6"
"","","approach-retreat","10","552639","0.0-10.0","","","2-5","6038","39","1","Training","Stims/Figures/7-J-10-4.bmp","None","Right","39","1","7","10","N","C","7"
"","","approach-retreat","11","559352","0.0-11.0","","","2-5","5207","38","0","Training","Stims/Figures/7-C-20-4.bmp","None","Up","40","1","8","10","N","C","8"
"","","approach-retreat","12","566703","0.0-12.0","","","2-5","5846","37","1","Training","Stims/Figures/111-J-10-3.bmp","None","Left","37","1","9","10","N","C","9"
"","","approach-retreat","13","590623","0.0-13.0","","","2-5","22415","38","0","Training","Stims/Figures/144-C-30-3.bmp","None","Up","40","1","10","10","N","C","10"
"","","approach-retreat","14","597559","0.0-14.0","","","2-5","5429","37","0","Training","Stims/Figures/86-C-30-1.bmp","None","Left","39","1","11","10","N","C","11"
"","","approach-retreat","15","607919","0.0-15.0","","","2-5","8855","39","0","Training","Stims/Figures/71-J-0-1.bmp","None","Left","37","1","12","10","N","C","12"
"","","approach-retreat","16","620727","0.0-16.0","","","2-5","11302","40","1","Training","Stims/Figures/144-J-10-3.bmp","None","Down","40","1","13","10","N","C","13"
"","","approach-retreat","17","631352","0.0-17.0","","","2-5","9116","38","1","Training","Stims/Figures/139-J-0-2.bmp","None","Up","38","1","14","10","N","C","14"
"","","approach-retreat","18","639734","0.0-18.0","","","2-5","6879","39","1","Training","Stims/Figures/86-J-0-1.bmp","None","Right","39","1","15","10","N","C","15"
"","","approach-retreat","19","648487","0.0-19.0","","","2-5","7247","40","0","Training","Stims/Figures/84-C-20-2.bmp","None","Down","38","1","16","10","N","C","16"
"","","approach-retreat","20","656454","0.0-20.0","","","2-5","6462","38","0","Training","Stims/Figures/144-J-10-3.bmp","None","Down","40","2","1","10","N","C","17"
"","","approach-retreat","21","665550","0.0-21.0","","","2-5","7589","37","1","Training","Stims/Figures/139-J-0-2.bmp","None","Left","37","2","2","10","N","C","18"
"","","approach-retreat","22","675710","0.0-22.0","","","2-5","8656","39","1","Training","Stims/Figures/7-J-10-4.bmp","None","Right","39","2","3","10","N","C","19"
"","","approach-retreat","23","686943","0.0-23.0","","","2-5","9728","39","0","Training","Stims/Figures/102-C-20-4.bmp","None","Right","37","2","4","10","N","C","20"
"","","approach-retreat","24","693527","0.0-24.0","","","2-5","5077","39","0","Training","Stims/Figures/84-J-0-2.bmp","None","Left","37","2","5","10","N","C","21"
"","","approach-retreat","25","708712","0.0-25.0","","","2-5","13680","40","0","Training","Stims/Figures/71-J-0-1.bmp","None","Up","38","2","6","10","N","C","22"
"","","approach-retreat","26","715999","0.0-26.0","","","2-5","5781","37","1","Training","Stims/Figures/86-J-0-1.bmp","None","Left","37","2","7","10","N","C","23"
"","","approach-retreat","27","723823","0.0-27.0","","","2-5","6318","40","0","Training","Stims/Figures/111-C-30-3.bmp","None","Down","38","2","8","10","N","C","24"
"","","approach-retreat","28","731975","0.0-28.0","","","2-5","6648","37","0","Training","Stims/Figures/102-J-10-4.bmp","None","Right","39","2","9","10","N","C","25"
"","","approach-retreat","29","740031","0.0-29.0","","","2-5","6551","38","0","Training","Stims/Figures/144-C-30-3.bmp","None","Up","40","2","10","10","N","C","26"
"","","approach-retreat","30","747263","0.0-30.0","","","2-5","5726","40","0","Training","Stims/Figures/71-C-30-1.bmp","None","Down","38","2","11","10","N","C","27"
"","","approach-retreat","31","753519","0.0-31.0","","","2-5","4751","37","0","Training","Stims/Figures/7-C-20-4.bmp","None","Left","39","2","12","10","N","C","28"
"","","approach-retreat","32","761471","0.0-32.0","","","2-5","6445","38","1","Training","Stims/Figures/84-C-20-2.bmp","None","Down","38","2","13","10","N","C","29"
"","","approach-retreat","33","768871","0.0-33.0","","","2-5","5895","37","1","Training","Stims/Figures/86-C-30-1.bmp","None","Right","37","2","14","10","N","C","30"
"","","approach-retreat","34","775574","0.0-34.0","","","2-5","5198","40","0","Training","Stims/Figures/111-J-10-3.bmp","None","Up","38","2","15","10","N","C","31"
"","","approach-retreat","35","782335","0.0-35.0","","","2-5","5255","38","0","Training","Stims/Figures/139-C-20-2.bmp","None","Up","40","2","16","10","N","C","32"
"","","approach-retreat","36","791471","0.0-36.0","","","2-5","7630","37","0","Training","Stims/Figures/84-J-0-2.bmp","None","Right","39","3","1","10","N","C","33"
"","","approach-retreat","37","798143","0.0-37.0","","","2-5","5165","40","1","Training","Stims/Figures/139-J-0-2.bmp","None","Down","40","3","2","10","N","C","34"
"","","approach-retreat","38","804727","0.0-38.0","","","2-5","5079","38","1","Training","Stims/Figures/7-C-20-4.bmp","None","Down","38","3","3","10","N","C","35"
"","","approach-retreat","39","811278","0.0-39.0","","","2-5","5047","40","0","Training","Stims/Figures/111-J-10-3.bmp","None","Up","38","3","4","10","N","C","36"
"","","approach-retreat","40","820143","0.0-40.0","","","2-5","7359","39","1","Training","Stims/Figures/86-C-30-1.bmp","None","Left","39","3","5","10","N","C","37"
"","","approach-retreat","41","827951","0.0-41.0","","","2-5","6302","39","1","Training","Stims/Figures/71-J-0-1.bmp","None","Right","39","3","6","10","N","C","38"
"","","approach-retreat","42","835591","0.0-42.0","","","2-5","6134","38","1","Training","Stims/Figures/102-J-10-4.bmp","None","Up","38","3","7","10","N","C","39"
"","","approach-retreat","43","844103","0.0-43.0","","","2-5","7006","38","1","Training","Stims/Figures/144-C-30-3.bmp","None","Down","38","3","8","10","N","C","40"
"","","approach-retreat","44","851405","0.0-44.0","","","2-5","5796","37","1","Training","Stims/Figures/139-C-20-2.bmp","None","Right","37","3","9","10","N","C","41"
"","","approach-retreat","45","859319","0.0-45.0","","","2-5","6408","39","1","Training","Stims/Figures/84-C-20-2.bmp","None","Left","39","3","10","10","N","C","42"
"","","approach-retreat","46","865783","0.0-46.0","","","2-5","4958","39","1","Training","Stims/Figures/71-C-30-1.bmp","None","Left","39","3","11","10","N","C","43"
"","","approach-retreat","47","872087","0.0-47.0","","","2-5","4798","37","0","Training","Stims/Figures/86-J-0-1.bmp","None","Right","39","3","12","10","N","C","44"
"","","approach-retreat","48","878487","0.0-48.0","","","2-5","4895","40","1","Training","Stims/Figures/111-C-30-3.bmp","None","Up","40","3","13","10","N","C","45"
"","","approach-retreat","49","884686","0.0-49.0","","","2-5","4695","39","0","Training","Stims/Figures/7-J-10-4.bmp","None","Left","37","3","14","10","N","C","46"
"","","approach-retreat","50","890935","0.0-50.0","","","2-5","4743","40","1","Training","Stims/Figures/144-J-10-3.bmp","None","Down","40","3","15","10","N","C","47"
"","","approach-retreat","51","898446","0.0-51.0","","","2-5","6005","38","0","Training","Stims/Figures/102-C-20-4.bmp","None","Up","40","3","16","10","N","C","48"
"","","approach-retreat","52","908071","0.0-52.0","","","2-5","8117","37","0","Training","Stims/Figures/71-J-0-1.bmp","None","Right","39","4","1","10","N","C","49"
"","","approach-retreat","53","918696","0.0-53.0","","","2-5","9119","38","0","Training","Stims/Figures/102-C-20-4.bmp","None","Up","40","4","2","10","N","C","50"
"","","approach-retreat","54","927246","0.0-54.0","","","2-5","7045","39","1","Training","Stims/Figures/84-C-20-2.bmp","None","Left","39","4","3","10","N","C","51"
"","","approach-retreat","55","933623","0.0-55.0","","","2-5","4871","39","0","Training","Stims/Figures/111-C-30-3.bmp","None","Right","37","4","4","10","N","C","52"
"","","approach-retreat","56","941775","0.0-56.0","","","2-5","6646","38","1","Training","Stims/Figures/84-J-0-2.bmp","None","Up","38","4","5","10","N","C","53"
"","","approach-retreat","57","949431","0.0-57.0","","","2-5","6150","37","0","Training","Stims/Figures/7-J-10-4.bmp","None","Right","39","4","6","10","N","C","54"
"","","approach-retreat","58","956086","0.0-58.0","","","2-5","5150","40","0","Training","Stims/Figures/111-J-10-3.bmp","None","Up","38","4","7","10","N","C","55"
"","","approach-retreat","59","965991","0.0-59.0","","","2-5","8399","37","1","Training","Stims/Figures/71-C-30-1.bmp","None","Right","37","4","8","10","N","C","56"
"","","approach-retreat","60","972878","0.0-60.0","","","2-5","5382","38","0","Training","Stims/Figures/139-C-20-2.bmp","None","Up","40","4","9","10","N","C","57"
"","","approach-retreat","61","979896","0.0-61.0","","","2-5","5513","39","0","Training","Stims/Figures/139-J-0-2.bmp","None","Left","37","4","10","10","N","C","58"
"","","approach-retreat","62","986710","0.0-62.0","","","2-5","5310","38","1","Training","Stims/Figures/86-C-30-1.bmp","None","Down","38","4","11","10","N","C","59"
"","","approach-retreat","63","996111","0.0-63.0","","","2-5","7895","38","0","Training","Stims/Figures/144-J-10-3.bmp","None","Down","40","4","12","10","N","C","60"
"","","approach-retreat","64","1003135","0.0-64.0","","","2-5","5519","39","0","Training","Stims/Figures/86-J-0-1.bmp","None","Left","37","4","13","10","N","C","61"
"","","approach-retreat","65","1010439","0.0-65.0","","","2-5","5798","38","1","Training","Stims/Figures/7-C-20-4.bmp","None","Down","38","4","14","10","N","C","62"
"","","approach-retreat","66","1020766","0.0-66.0","","","2-5","8822","37","1","Training","Stims/Figures/102-J-10-4.bmp","None","Left","37","4","15","10","N","C","63"
"","","approach-retreat","67","1027343","0.0-67.0","","","2-5","5070","40","0","Training","Stims/Figures/144-C-30-3.bmp","None","Down","38","4","16","10","N","C","64"
"","","approach-retreat","68","1033454","0.0-68.0","","","2-5","4607","38","0","Training","Stims/Figures/86-J-0-1.bmp","None","Down","40","5","1","10","N","C","65"
"","","approach-retreat","69","1040782","0.0-69.0","","","2-5","5824","38","0","Training","Stims/Figures/139-J-0-2.bmp","None","Down","40","5","2","10","N","C","66"
"","","approach-retreat","70","1052223","0.0-70.0","","","2-5","9933","39","1","Training","Stims/Figures/71-C-30-1.bmp","None","Left","39","5","3","10","N","C","67"
"","","approach-retreat","71","1058223","0.0-71.0","","","2-5","4494","39","1","Training","Stims/Figures/86-C-30-1.bmp","None","Left","39","5","4","10","N","C","68"
"","","approach-retreat","72","1065263","0.0-72.0","","","2-5","5534","37","1","Training","Stims/Figures/84-C-20-2.bmp","None","Right","37","5","5","10","N","C","69"
"","","approach-retreat","73","1071382","0.0-73.0","","","2-5","4614","37","1","Training","Stims/Figures/7-C-20-4.bmp","None","Right","37","5","6","10","N","C","70"
"","","approach-retreat","74","1079295","0.0-74.0","","","2-5","6407","40","0","Training","Stims/Figures/102-C-20-4.bmp","None","Down","38","5","7","10","N","C","71"
"","","approach-retreat","75","1132255","0.0-75.0","","","2-5","51456","38","1","Training","Stims/Figures/71-J-0-1.bmp","None","Up","38","5","8","10","N","C","72"
"","","approach-retreat","76","1139615","0.0-76.0","","","2-5","5856","38","0","Training","Stims/Figures/7-J-10-4.bmp","None","Down","40","5","9","10","N","C","73"
"","","approach-retreat","77","1146318","0.0-77.0","","","2-5","5199","39","1","Training","Stims/Figures/111-J-10-3.bmp","None","Right","39","5","10","10","N","C","74"
"","","approach-retreat","78","1152782","0.0-78.0","","","2-5","4959","40","0","Training","Stims/Figures/84-J-0-2.bmp","None","Up","38","5","11","10","N","C","75"
"","","approach-retreat","79","1162502","0.0-79.0","","","2-5","8214","37","1","Training","Stims/Figures/102-J-10-4.bmp","None","Left","37","5","12","10","N","C","76"
"","","approach-retreat","80","1169039","0.0-80.0","","","2-5","5031","39","0","Training","Stims/Figures/139-C-20-2.bmp","None","Right","37","5","13","10","N","C","77"
"","","approach-retreat","81","1176134","0.0-81.0","","","2-5","5590","37","0","Training","Stims/Figures/111-C-30-3.bmp","None","Left","39","5","14","10","N","C","78"
"","","approach-retreat","82","1182790","0.0-82.0","","","2-5","5150","40","1","Training","Stims/Figures/144-C-30-3.bmp","None","Up","40","5","15","10","N","C","79"
"","","approach-retreat","83","1188671","0.0-83.0","","","2-5","4374","40","0","Training","Stims/Figures/144-J-10-3.bmp","None","Up","38","5","16","10","N","C","80"
"","","approach-retreat","84","1194879","0.0-84.0","","","2-5","4702","37","1","Training","Stims/Figures/111-J-10-3.bmp","None","Left","37","6","1","10","N","C","81"
"","","approach-retreat","85","1200655","0.0-85.0","","","2-5","4271","38","0","Training","Stims/Figures/84-C-20-2.bmp","None","Up","40","6","2","10","N","C","82"
"","","approach-retreat","86","1210111","0.0-86.0","","","2-5","7950","39","0","Training","Stims/Figures/71-J-0-1.bmp","None","Left","37","6","3","10","N","C","83"
"","","approach-retreat","87","1217142","0.0-87.0","","","2-5","5524","39","1","Training","Stims/Figures/102-J-10-4.bmp","None","Right","39","6","4","10","N","C","84"
"","","approach-retreat","88","1223886","0.0-88.0","","","2-5","5239","37","0","Training","Stims/Figures/144-J-10-3.bmp","None","Right","39","6","5","10","N","C","85"
"","","approach-retreat","89","1229990","0.0-89.0","","","2-5","4599","40","1","Training","Stims/Figures/86-C-30-1.bmp","None","Up","40","6","6","10","N","C","86"
"","","approach-retreat","90","1235007","0.0-90.0","","","2-5","3511","38","0","Training","Stims/Figures/144-C-30-3.bmp","None","Up","40","6","7","10","N","C","87"
"","","approach-retreat","91","1241094","0.0-91.0","","","2-5","4584","40","1","Training","Stims/Figures/139-J-0-2.bmp","None","Down","40","6","8","10","N","C","88"
"","","approach-retreat","92","1247869","0.0-92.0","","","2-5","5270","40","1","Training","Stims/Figures/86-J-0-1.bmp","None","Down","40","6","9","10","N","C","89"
"","","approach-retreat","93","1254623","0.0-93.0","","","2-5","5246","40","1","Training","Stims/Figures/7-C-20-4.bmp","None","Up","40","6","10","10","N","C","90"
"","","approach-retreat","94","1264895","0.0-94.0","","","2-5","8766","39","0","Training","Stims/Figures/7-J-10-4.bmp","None","Left","37","6","11","10","N","C","91"
"","","approach-retreat","95","1272999","0.0-95.0","","","2-5","6598","37","1","Training","Stims/Figures/139-C-20-2.bmp","None","Right","37","6","12","10","N","C","92"
"","","approach-retreat","96","1279623","0.0-96.0","","","2-5","5119","38","1","Training","Stims/Figures/71-C-30-1.bmp","None","Down","38","6","13","10","N","C","93"
"","","approach-retreat","97","1288943","0.0-97.0","","","2-5","7814","39","0","Training","Stims/Figures/84-J-0-2.bmp","None","Left","37","6","14","10","N","C","94"
"","","approach-retreat","98","1294823","0.0-98.0","","","2-5","4375","39","0","Training","Stims/Figures/111-C-30-3.bmp","None","Right","37","6","15","10","N","C","95"
"","","approach-retreat","99","1308806","0.0-99.0","","","2-5","12478","40","0","Training","Stims/Figures/102-C-20-4.bmp","None","Down","38","6","16","10","N","C","96"
"","","approach-retreat","100","1316334","0.0-100.0","","","2-5","6024","40","1","Training","Stims/Figures/71-J-0-1.bmp","None","Down","40","7","1","10","N","C","97"
"","","approach-retreat","101","1322728","0.0-101.0","","","2-5","4889","37","1","Training","Stims/Figures/144-C-30-3.bmp","None","Right","37","7","2","10","N","C","98"
"","","approach-retreat","102","1331271","0.0-102.0","","","2-5","7037","37","1","Training","Stims/Figures/86-C-30-1.bmp","None","Right","37","7","3","10","N","C","99"
"","","approach-retreat","103","1340087","0.0-103.0","","","2-5","7310","40","0","Training","Stims/Figures/139-C-20-2.bmp","None","Down","38","7","4","10","N","C","100"
"","","approach-retreat","104","1347023","0.0-104.0","","","2-5","5429","38","0","Training","Stims/Figures/71-C-30-1.bmp","None","Up","40","7","5","10","N","C","101"
"","","approach-retreat","105","1355254","0.0-105.0","","","2-5","6727","37","0","Training","Stims/Figures/102-C-20-4.bmp","None","Left","39","7","6","10","N","C","102"
"","","approach-retreat","106","1361798","0.0-106.0","","","2-5","5038","40","0","Training","Stims/Figures/84-C-20-2.bmp","None","Down","38","7","7","10","N","C","103"
"","","approach-retreat","107","1368885","0.0-107.0","","","2-5","5583","39","0","Training","Stims/Figures/111-C-30-3.bmp","None","Right","37","7","8","10","N","C","104"
"","","approach-retreat","108","1375479","0.0-108.0","","","2-5","5088","38","1","Training","Stims/Figures/144-J-10-3.bmp","None","Up","38","7","9","10","N","C","105"
"","","approach-retreat","109","1382679","0.0-109.0","","","2-5","5695","37","0","Training","Stims/Figures/7-J-10-4.bmp","None","Right","39","7","10","10","N","C","106"
"","","approach-retreat","110","1436639","0.0-110.0","","","2-5","52455","37","1","Training","Stims/Figures/84-J-0-2.bmp","None","Left","37","7","11","10","N","C","107"
"","","approach-retreat","111","1459687","0.0-111.0","","","2-5","21542","37","1","Training","Stims/Figures/102-J-10-4.bmp","None","Left","37","7","12","10","N","C","108"
"","","approach-retreat","112","1467310","0.0-112.0","","","2-5","6117","38","0","Training","Stims/Figures/111-J-10-3.bmp","None","Down","40","7","13","10","N","C","109"
"","","approach-retreat","113","1494534","0.0-113.0","","","2-5","25718","38","1","Training","Stims/Figures/139-J-0-2.bmp","None","Up","38","7","14","10","N","C","110"
"","","approach-retreat","114","1506272","0.0-114.0","","","2-5","10229","40","1","Training","Stims/Figures/7-C-20-4.bmp","None","Up","40","7","15","10","N","C","111"
"","","approach-retreat","115","1527552","0.0-115.0","","","2-5","19775","37","1","Training","Stims/Figures/86-J-0-1.bmp","None","Left","37","7","16","10","N","C","112"
"","","approach-retreat","116","1534639","0.0-116.0","","","2-5","5582","38","1","Training","Stims/Figures/86-J-0-1.bmp","None","Up","38","8","1","10","N","C","113"
"","","approach-retreat","117","1546031","0.0-117.0","","","2-5","9886","40","0","Training","Stims/Figures/144-C-30-3.bmp","None","Down","38","8","2","10","N","C","114"
"","","approach-retreat","118","1556831","0.0-118.0","","","2-5","9294","37","0","Training","Stims/Figures/84-C-20-2.bmp","None","Left","39","8","3","10","N","C","115"
"","","approach-retreat","119","1569239","0.0-119.0","","","2-5","10903","37","1","Training","Stims/Figures/84-J-0-2.bmp","None","Left","37","8","4","10","N","C","116"
"","","approach-retreat","120","1575455","0.0-120.0","","","2-5","4711","39","1","Training","Stims/Figures/7-J-10-4.bmp","None","Right","39","8","5","10","N","C","117"
"","","approach-retreat","121","1584039","0.0-121.0","","","2-5","7078","38","0","Training","Stims/Figures/102-J-10-4.bmp","None","Down","40","8","6","10","N","C","118"
"","","approach-retreat","122","1599263","0.0-122.0","","","2-5","13718","37","1","Training","Stims/Figures/86-C-30-1.bmp","None","Right","37","8","7","10","N","C","119"
"","","approach-retreat","123","1605343","0.0-123.0","","","2-5","4572","38","1","Training","Stims/Figures/144-J-10-3.bmp","None","Up","38","8","8","10","N","C","120"
"","","approach-retreat","124","1613726","0.0-124.0","","","2-5","6877","40","1","Training","Stims/Figures/139-C-20-2.bmp","None","Up","40","8","9","10","N","C","121"
"","","approach-retreat","125","1620550","0.0-125.0","","","2-5","5319","38","0","Training","Stims/Figures/102-C-20-4.bmp","None","Up","40","8","10","10","N","C","122"
"","","approach-retreat","126","1628592","0.0-126.0","","","2-5","6534","40","1","Training","Stims/Figures/111-J-10-3.bmp","None","Down","40","8","11","10","N","C","123"
"","","approach-retreat","127","1638823","0.0-127.0","","","2-5","8726","40","1","Training","Stims/Figures/139-J-0-2.bmp","None","Down","40","8","12","10","N","C","124"
"","","approach-retreat","128","1655374","0.0-128.0","","","2-5","15046","39","1","Training","Stims/Figures/71-J-0-1.bmp","None","Right","39","8","13","10","N","C","125"
"","","approach-retreat","129","1663383","0.0-129.0","","","2-5","6503","39","1","Training","Stims/Figures/7-C-20-4.bmp","None","Left","39","8","14","10","N","C","126"
"","","approach-retreat","130","1672071","0.0-130.0","","","2-5","7184","37","1","Training","Stims/Figures/71-C-30-1.bmp","None","Right","37","8","15","10","N","C","127"
"","","approach-retreat","131","1679430","0.0-131.0","","","2-5","5852","37","0","Training","Stims/Figures/111-C-30-3.bmp","None","Left","39","8","16","10","N","C","128"
"","","approach-retreat","132","1686135","0.0-132.0","","","2-5","5198","38","1","Training","Stims/Figures/111-J-10-3.bmp","None","Up","38","9","1","10","N","C","129"
"","","approach-retreat","133","1695800","0.0-133.0","","","2-5","8159","39","1","Training","Stims/Figures/71-J-0-1.bmp","None","Right","39","9","2","10","N","C","130"
"","","approach-retreat","134","1703912","0.0-134.0","","","2-5","6606","37","0","Training","Stims/Figures/102-C-20-4.bmp","None","Left","39","9","3","10","N","C","131"
"","","approach-retreat","135","1715729","0.0-135.0","","","2-5","10311","40","0","Training","Stims/Figures/7-J-10-4.bmp","None","Up","38","9","4","10","N","C","132"
"","","approach-retreat","136","1724295","0.0-136.0","","","2-5","7061","38","1","Training","Stims/Figures/139-C-20-2.bmp","None","Down","38","9","5","10","N","C","133"
"","","approach-retreat","137","1731207","0.0-137.0","","","2-5","5406","39","0","Training","Stims/Figures/84-J-0-2.bmp","None","Left","37","9","6","10","N","C","134"
"","","approach-retreat","138","1739686","0.0-138.0","","","2-5","6975","40","1","Training","Stims/Figures/144-J-10-3.bmp","None","Down","40","9","7","10","N","C","135"
"","","approach-retreat","139","1751248","0.0-139.0","","","2-5","10056","37","0","Training","Stims/Figures/144-C-30-3.bmp","None","Left","39","9","8","10","N","C","136"
"","","approach-retreat","140","1760087","0.0-140.0","","","2-5","7334","39","1","Training","Stims/Figures/139-J-0-2.bmp","None","Right","39","9","9","10","N","C","137"
"","","approach-retreat","141","1766992","0.0-141.0","","","2-5","5401","40","0","Training","Stims/Figures/111-C-30-3.bmp","None","Down","38","9","10","10","N","C","138"
"","","approach-retreat","142","1774872","0.0-142.0","","","2-5","6375","37","1","Training","Stims/Figures/86-J-0-1.bmp","None","Left","37","9","11","10","N","C","139"
"","","approach-retreat","143","1791504","0.0-143.0","","","2-5","15127","37","1","Training","Stims/Figures/71-C-30-1.bmp","None","Right","37","9","12","10","N","C","140"
"","","approach-retreat","144","1798311","0.0-144.0","","","2-5","5300","40","1","Training","Stims/Figures/86-C-30-1.bmp","None","Up","40","9","13","10","N","C","141"
"","","approach-retreat","145","1806927","0.0-145.0","","","2-5","7111","40","1","Training","Stims/Figures/102-J-10-4.bmp","None","Down","40","9","14","10","N","C","142"
"","","approach-retreat","146","1813087","0.0-146.0","","","2-5","4653","38","0","Training","Stims/Figures/84-C-20-2.bmp","None","Up","40","9","15","10","N","C","143"
"","","approach-retreat","147","1819792","0.0-147.0","","","2-5","5200","37","1","Training","Stims/Figures/7-C-20-4.bmp","None","Right","37","9","16","10","N","C","144"
"33026","","instructions","148","1852819","0.0-148.0","[{""page_index"":0,""viewing_time"":33026}]","","","","","","","","","","","","","","","",""
"","","approach-retreat","149","1868095","0.0-149.0","","","2-5","13772","40","0","Testing","Stims/Figures/7-J-10-4.bmp","None","Up","38","1","1","10","N","C","1"
"","","approach-retreat","150","1882615","0.0-150.0","","","2-5","13016","39","1","Testing","Stims/Figures/144-C-30-3.bmp","None","Left","39","1","2","10","N","C","2"
"","","approach-retreat","151","1890934","0.0-151.0","","","2-5","6814","39","0","Testing","Stims/Figures/84-C-20-2.bmp","None","Right","37","1","3","10","N","C","3"
"","","approach-retreat","152","1898959","0.0-152.0","","","2-5","6519","40","1","Testing","Stims/Figures/86-J-0-1.bmp","None","Down","40","1","4","10","N","C","4"
"","","approach-retreat","153","1908518","0.0-153.0","","","2-5","8054","38","0","Testing","Stims/Figures/84-J-0-2.bmp","None","Down","40","1","5","10","N","C","5"
"","","approach-retreat","154","1916759","0.0-154.0","","","2-5","6735","38","0","Testing","Stims/Figures/102-C-20-4.bmp","None","Up","40","1","6","10","N","C","6"
"","","approach-retreat","155","1928158","0.0-155.0","","","2-5","9896","37","0","Testing","Stims/Figures/74-C-20-4.bmp","None","Left","39","1","7","10","N","C","7"
"","","approach-retreat","156","1950695","0.0-156.0","","","2-5","21032","37","0","Testing","Stims/Figures/94-J-0-2.bmp","None","Right","39","1","8","10","N","C","8"
"","","approach-retreat","157","1972687","0.0-157.0","","","2-5","20486","40","0","Testing","Stims/Figures/44-J-10-3.bmp","None","Up","38","1","9","10","N","C","9"
"","","approach-retreat","158","1980566","0.0-158.0","","","2-5","6375","37","1","Testing","Stims/Figures/71-J-0-1.bmp","None","Left","37","1","10","10","N","C","10"
"","","approach-retreat","159","1987990","0.0-159.0","","","2-5","5918","38","1","Testing","Stims/Figures/111-J-10-3.bmp","None","Up","38","1","11","10","N","C","11"
"","","approach-retreat","160","1994630","0.0-160.0","","","2-5","5134","38","0","Testing","Stims/Figures/111-C-30-3.bmp","None","Up","40","1","12","10","N","C","12"
"","","approach-retreat","161","2005359","0.0-161.0","","","2-5","9222","37","1","Testing","Stims/Figures/86-C-30-1.bmp","None","Right","37","1","13","10","N","C","13"
"","","approach-retreat","162","2014223","0.0-162.0","","","2-5","7359","37","1","Testing","Stims/Figures/74-J-10-4.bmp","None","Left","37","1","14","10","N","C","14"
"","","approach-retreat","163","2022679","0.0-163.0","","","2-5","6951","40","1","Testing","Stims/Figures/94-C-20-2.bmp","None","Up","40","1","15","10","N","C","15"
"","","approach-retreat","164","2034462","0.0-164.0","","","2-5","10278","39","0","Testing","Stims/Figures/71-C-30-1.bmp","None","Right","37","1","16","10","N","C","16"
"","","approach-retreat","165","2042231","0.0-165.0","","","2-5","6263","37","1","Testing","Stims/Figures/93-C-30-1.bmp","None","Right","37","1","17","10","N","C","17"
"","","approach-retreat","166","2048872","0.0-166.0","","","2-5","5136","40","1","Testing","Stims/Figures/144-J-10-3.bmp","None","Down","40","1","18","10","N","C","18"
"","","approach-retreat","167","2057287","0.0-167.0","","","2-5","6909","37","1","Testing","Stims/Figures/93-J-0-1.bmp","None","Left","37","1","19","10","N","C","19"
"","","approach-retreat","168","2065823","0.0-168.0","","","2-5","7031","38","1","Testing","Stims/Figures/44-C-30-3.bmp","None","Down","38","1","20","10","N","C","20"
"","","approach-retreat","169","2074167","0.0-169.0","","","2-5","6837","40","1","Testing","Stims/Figures/139-J-0-2.bmp","None","Down","40","1","21","10","N","C","21"
"","","approach-retreat","170","2086142","0.0-170.0","","","2-5","10470","40","1","Testing","Stims/Figures/102-J-10-4.bmp","None","Down","40","1","22","10","N","C","22"
"","","approach-retreat","171","2093445","0.0-171.0","","","2-5","5798","37","1","Testing","Stims/Figures/139-C-20-2.bmp","None","Right","37","1","23","10","N","C","23"
"","","approach-retreat","172","2100742","0.0-172.0","","","2-5","5790","39","1","Testing","Stims/Figures/7-C-20-4.bmp","None","Left","39","1","24","10","N","C","24"
"","","approach-retreat","173","2107854","0.0-173.0","","","2-5","5608","40","1","Testing","Stims/Figures/94-C-20-2.bmp","None","Up","40","2","1","10","N","C","25"
"","","approach-retreat","174","2116479","0.0-174.0","","","2-5","7119","40","1","Testing","Stims/Figures/139-J-0-2.bmp","None","Down","40","2","2","10","N","C","26"
"","","approach-retreat","175","2122606","0.0-175.0","","","2-5","4622","39","1","Testing","Stims/Figures/93-J-0-1.bmp","None","Right","39","2","3","10","N","C","27"
"","","approach-retreat","176","2128615","0.0-176.0","","","2-5","4503","37","0","Testing","Stims/Figures/74-C-20-4.bmp","None","Left","39","2","4","10","N","C","28"
"","","approach-retreat","177","2134575","0.0-177.0","","","2-5","4454","39","0","Testing","Stims/Figures/84-C-20-2.bmp","None","Right","37","2","5","10","N","C","29"
"","","approach-retreat","178","2141575","0.0-178.0","","","2-5","5496","38","1","Testing","Stims/Figures/86-C-30-1.bmp","None","Down","38","2","6","10","N","C","30"
"","","approach-retreat","179","2147534","0.0-179.0","","","2-5","4452","40","1","Testing","Stims/Figures/86-J-0-1.bmp","None","Down","40","2","7","10","N","C","31"
"","","approach-retreat","180","2156519","0.0-180.0","","","2-5","7481","39","0","Testing","Stims/Figures/71-C-30-1.bmp","None","Right","37","2","8","10","N","C","32"
"","","approach-retreat","181","2162494","0.0-181.0","","","2-5","4470","38","1","Testing","Stims/Figures/111-J-10-3.bmp","None","Up","38","2","9","10","N","C","33"
"","","approach-retreat","182","2170695","0.0-182.0","","","2-5","6695","37","0","Testing","Stims/Figures/102-C-20-4.bmp","None","Left","39","2","10","10","N","C","34"
"","","approach-retreat","183","2176590","0.0-183.0","","","2-5","4390","38","1","Testing","Stims/Figures/74-J-10-4.bmp","None","Up","38","2","11","10","N","C","35"
"","","approach-retreat","184","2185222","0.0-184.0","","","2-5","7127","40","1","Testing","Stims/Figures/71-J-0-1.bmp","None","Down","40","2","12","10","N","C","36"
"","","approach-retreat","185","2192910","0.0-185.0","","","2-5","6183","37","0","Testing","Stims/Figures/94-J-0-2.bmp","None","Right","39","2","13","10","N","C","37"
"","","approach-retreat","186","2198815","0.0-186.0","","","2-5","4400","37","0","Testing","Stims/Figures/111-C-30-3.bmp","None","Left","39","2","14","10","N","C","38"
"","","approach-retreat","187","2208206","0.0-187.0","","","2-5","7885","39","0","Testing","Stims/Figures/144-C-30-3.bmp","None","Right","37","2","15","10","N","C","39"
"","","approach-retreat","188","2214447","0.0-188.0","","","2-5","4734","39","1","Testing","Stims/Figures/44-C-30-3.bmp","None","Left","39","2","16","10","N","C","40"
"","","approach-retreat","189","2220558","0.0-189.0","","","2-5","4607","38","1","Testing","Stims/Figures/144-J-10-3.bmp","None","Up","38","2","17","10","N","C","41"
"","","approach-retreat","190","2231751","0.0-190.0","","","2-5","9687","40","1","Testing","Stims/Figures/7-C-20-4.bmp","None","Up","40","2","18","10","N","C","42"
"","","approach-retreat","191","2240766","0.0-191.0","","","2-5","7511","40","0","Testing","Stims/Figures/102-J-10-4.bmp","None","Up","38","2","19","10","N","C","43"
"","","approach-retreat","192","2248470","0.0-192.0","","","2-5","6200","37","0","Testing","Stims/Figures/93-C-30-1.bmp","None","Left","39","2","20","10","N","C","44"
"","","approach-retreat","193","2256534","0.0-193.0","","","2-5","6559","38","0","Testing","Stims/Figures/7-J-10-4.bmp","None","Down","40","2","21","10","N","C","45"
"","","approach-retreat","194","2263943","0.0-194.0","","","2-5","5904","40","1","Testing","Stims/Figures/84-J-0-2.bmp","None","Down","40","2","22","10","N","C","46"
"","","approach-retreat","195","2273526","0.0-195.0","","","2-5","8079","39","1","Testing","Stims/Figures/139-C-20-2.bmp","None","Left","39","2","23","10","N","C","47"
"","","approach-retreat","196","2283838","0.0-196.0","","","2-5","8807","39","1","Testing","Stims/Figures/44-J-10-3.bmp","None","Right","39","2","24","10","N","C","48"
"","","approach-retreat","197","2294734","0.0-197.0","","","2-5","9391","40","0","Testing","Stims/Figures/111-C-30-3.bmp","None","Down","38","3","1","10","N","C","49"
"","","approach-retreat","198","2302966","0.0-198.0","","","2-5","6726","38","1","Testing","Stims/Figures/144-J-10-3.bmp","None","Up","38","3","2","10","N","C","50"
"","","approach-retreat","199","2309111","0.0-199.0","","","2-5","4639","38","1","Testing","Stims/Figures/111-J-10-3.bmp","None","Up","38","3","3","10","N","C","51"
"","","approach-retreat","200","2315831","0.0-200.0","","","2-5","5213","40","1","Testing","Stims/Figures/71-C-30-1.bmp","None","Up","40","3","4","10","N","C","52"
"","","approach-retreat","201","2323015","0.0-201.0","","","2-5","5679","39","1","Testing","Stims/Figures/74-J-10-4.bmp","None","Right","39","3","5","10","N","C","53"
"","","approach-retreat","202","2352782","0.0-202.0","","","2-5","28262","40","0","Testing","Stims/Figures/7-C-20-4.bmp","None","Down","38","3","6","10","N","C","54"
"","","approach-retreat","203","2362222","0.0-203.0","","","2-5","7934","37","1","Testing","Stims/Figures/86-C-30-1.bmp","None","Right","37","3","7","10","N","C","55"
"","","approach-retreat","204","2368438","0.0-204.0","","","2-5","4710","37","1","Testing","Stims/Figures/102-J-10-4.bmp","None","Left","37","3","8","10","N","C","56"
"","","approach-retreat","205","2374934","0.0-205.0","","","2-5","4990","40","0","Testing","Stims/Figures/93-C-30-1.bmp","None","Down","38","3","9","10","N","C","57"
"","","approach-retreat","206","2380998","0.0-206.0","","","2-5","4559","38","0","Testing","Stims/Figures/44-J-10-3.bmp","None","Down","40","3","10","10","N","C","58"
"","","approach-retreat","207","2387183","0.0-207.0","","","2-5","4680","37","1","Testing","Stims/Figures/86-J-0-1.bmp","None","Left","37","3","11","10","N","C","59"
"","","approach-retreat","208","2397070","0.0-208.0","","","2-5","8382","39","0","Testing","Stims/Figures/94-J-0-2.bmp","None","Left","37","3","12","10","N","C","60"
"","","approach-retreat","209","2405087","0.0-209.0","","","2-5","6512","37","0","Testing","Stims/Figures/7-J-10-4.bmp","None","Right","39","3","13","10","N","C","61"
"","","approach-retreat","210","2414374","0.0-210.0","","","2-5","7782","37","1","Testing","Stims/Figures/71-J-0-1.bmp","None","Left","37","3","14","10","N","C","62"
"","","approach-retreat","211","2421079","0.0-211.0","","","2-5","5198","37","0","Testing","Stims/Figures/74-C-20-4.bmp","None","Left","39","3","15","10","N","C","63"
"","","approach-retreat","212","2427151","0.0-212.0","","","2-5","4566","39","1","Testing","Stims/Figures/93-J-0-1.bmp","None","Right","39","3","16","10","N","C","64"
"","","approach-retreat","213","2433494","0.0-213.0","","","2-5","4837","38","0","Testing","Stims/Figures/84-C-20-2.bmp","None","Up","40","3","17","10","N","C","65"
"","","approach-retreat","214","2439535","0.0-214.0","","","2-5","4537","39","0","Testing","Stims/Figures/102-C-20-4.bmp","None","Right","37","3","18","10","N","C","66"
"","","approach-retreat","215","2446543","0.0-215.0","","","2-5","5501","38","1","Testing","Stims/Figures/139-C-20-2.bmp","None","Down","38","3","19","10","N","C","67"
"","","approach-retreat","216","2455271","0.0-216.0","","","2-5","7223","39","1","Testing","Stims/Figures/84-J-0-2.bmp","None","Right","39","3","20","10","N","C","68"
"","","approach-retreat","217","2461294","0.0-217.0","","","2-5","4519","38","0","Testing","Stims/Figures/144-C-30-3.bmp","None","Up","40","3","21","10","N","C","69"
"","","approach-retreat","218","2468375","0.0-218.0","","","2-5","5576","37","1","Testing","Stims/Figures/139-J-0-2.bmp","None","Left","37","3","22","10","N","C","70"
"","","approach-retreat","219","2479550","0.0-219.0","","","2-5","9670","40","1","Testing","Stims/Figures/44-C-30-3.bmp","None","Up","40","3","23","10","N","C","71"
"","","approach-retreat","220","2489335","0.0-220.0","","","2-5","8277","38","1","Testing","Stims/Figures/94-C-20-2.bmp","None","Down","38","3","24","10","N","C","72"
"","","approach-retreat","221","2495822","0.0-221.0","","","2-5","4983","39","1","Testing","Stims/Figures/86-J-0-1.bmp","None","Right","39","4","1","10","N","C","73"
"","","approach-retreat","222","2501911","0.0-222.0","","","2-5","4582","39","0","Testing","Stims/Figures/7-J-10-4.bmp","None","Left","37","4","2","10","N","C","74"
"","","approach-retreat","223","2508887","0.0-223.0","","","2-5","5470","40","0","Testing","Stims/Figures/84-C-20-2.bmp","None","Down","38","4","3","10","N","C","75"
"","","approach-retreat","224","2515934","0.0-224.0","","","2-5","5543","37","1","Testing","Stims/Figures/111-J-10-3.bmp","None","Left","37","4","4","10","N","C","76"
"","","approach-retreat","225","2521959","0.0-225.0","","","2-5","4519","39","0","Testing","Stims/Figures/71-C-30-1.bmp","None","Right","37","4","5","10","N","C","77"
"","","approach-retreat","226","2527943","0.0-226.0","","","2-5","4480","40","1","Testing","Stims/Figures/93-J-0-1.bmp","None","Down","40","4","6","10","N","C","78"
"","","approach-retreat","227","2534087","0.0-227.0","","","2-5","4637","38","0","Testing","Stims/Figures/93-C-30-1.bmp","None","Up","40","4","7","10","N","C","79"
"","","approach-retreat","228","2540286","0.0-228.0","","","2-5","4694","39","1","Testing","Stims/Figures/84-J-0-2.bmp","None","Right","39","4","8","10","N","C","80"
"","","approach-retreat","229","2548207","0.0-229.0","","","2-5","6415","39","0","Testing","Stims/Figures/144-C-30-3.bmp","None","Right","37","4","9","10","N","C","81"
"","","approach-retreat","230","2554246","0.0-230.0","","","2-5","4533","37","1","Testing","Stims/Figures/144-J-10-3.bmp","None","Left","37","4","10","10","N","C","82"
"","","approach-retreat","231","2561279","0.0-231.0","","","2-5","5527","37","1","Testing","Stims/Figures/71-J-0-1.bmp","None","Left","37","4","11","10","N","C","83"
"","","approach-retreat","232","2568023","0.0-232.0","","","2-5","5239","40","1","Testing","Stims/Figures/139-C-20-2.bmp","None","Up","40","4","12","10","N","C","84"
"","","approach-retreat","233","2573959","0.0-233.0","","","2-5","4430","38","1","Testing","Stims/Figures/74-J-10-4.bmp","None","Up","38","4","13","10","N","C","85"
"","","approach-retreat","234","2582991","0.0-234.0","","","2-5","7527","38","0","Testing","Stims/Figures/102-C-20-4.bmp","None","Up","40","4","14","10","N","C","86"
"","","approach-retreat","235","2589798","0.0-235.0","","","2-5","5304","37","0","Testing","Stims/Figures/74-C-20-4.bmp","None","Left","39","4","15","10","N","C","87"
"","","approach-retreat","236","2598375","0.0-236.0","","","2-5","7071","38","0","Testing","Stims/Figures/44-J-10-3.bmp","None","Down","40","4","16","10","N","C","88"
"","","approach-retreat","237","2604446","0.0-237.0","","","2-5","4566","40","1","Testing","Stims/Figures/139-J-0-2.bmp","None","Down","40","4","17","10","N","C","89"
"","","approach-retreat","238","2610998","0.0-238.0","","","2-5","5045","38","0","Testing","Stims/Figures/44-C-30-3.bmp","None","Up","40","4","18","10","N","C","90"
"","","approach-retreat","239","2616958","0.0-239.0","","","2-5","4455","39","1","Testing","Stims/Figures/102-J-10-4.bmp","None","Right","39","4","19","10","N","C","91"
"","","approach-retreat","240","2623566","0.0-240.0","","","2-5","5104","38","1","Testing","Stims/Figures/86-C-30-1.bmp","None","Down","38","4","20","10","N","C","92"
"","","approach-retreat","241","2630487","0.0-241.0","","","2-5","5415","38","1","Testing","Stims/Figures/7-C-20-4.bmp","None","Down","38","4","21","10","N","C","93"
"","","approach-retreat","242","2637934","0.0-242.0","","","2-5","5942","38","0","Testing","Stims/Figures/111-C-30-3.bmp","None","Up","40","4","22","10","N","C","94"
"","","approach-retreat","243","2644735","0.0-243.0","","","2-5","5297","37","1","Testing","Stims/Figures/94-C-20-2.bmp","None","Right","37","4","23","10","N","C","95"
"","","approach-retreat","244","2651206","0.0-244.0","","","2-5","4967","37","1","Testing","Stims/Figures/94-J-0-2.bmp","None","Left","37","4","24","10","N","C","96"
"75329","","survey-text","245","2726541","0.0-245.0","","{""Q0"":""1036""}","","","","","","","","","","","","","","",""
