"rt","key_press","trial_type","trial_index","time_elapsed","internal_node_id","view_history","responses","Id","Rt","ResKeyCode","ResCorr","TrialType2","Image","Label","Location","CorrectResponse","Block","BlockTrial","Condition","LabelType","Subcondition","trialNum"
"40079","32","text","0","40084","0.0-0.0-0.0","","","","","","","","","","","","","","","","",""
"211038","","instructions","1","251125","0.0-1.0","[{""page_index"":0,""viewing_time"":211038}]","","","","","","","","","","","","","","","",""
"41278","","survey-multi-choice","2","292439","0.0-2.0","","{""Q0"":""Da"",""Q1"":""Da"",""Q2"":""Da"",""Q3"":""Da"",""Q4"":""Da"",""Q5"":""Da""}","","","","","","","","","","","","","","",""
"","","bio","3","302795","0.0-3.0","","{""age"":""22"",""gender"":""f"",""specify"":""""}","","","","","","","","","","","","","","",""
"","","approach-retreat","4","313850","0.0-4.0","","","1-3","9547","37","0","Training","Stims/Figures/84-C-20-2.bmp","va:fasha","Right","39","1","1","6B","C1","J","1"
"","","approach-retreat","5","323356","0.0-5.0","","","1-3","7997","37","1","Training","Stims/Figures/111-J-10-3.bmp","saha:ha","Right","37","1","2","6B","C2","J","2"
"","","approach-retreat","6","331432","0.0-6.0","","","1-3","6566","38","1","Training","Stims/Figures/7-C-20-4.bmp","vafa:sha","Up","38","1","3","6B","C1","J","3"
"","","approach-retreat","7","340477","0.0-7.0","","","1-3","7537","40","1","Training","Stims/Figures/27-J-0-1.bmp","zasa:ha","Up","40","1","4","6B","C2","J","4"
"","","approach-retreat","8","348429","0.0-8.0","","","1-3","6444","37","0","Training","Stims/Figures/85-C-20-2.bmp","fa:sha:sha","Right","39","1","5","6B","C1","J","5"
"","","approach-retreat","9","354378","0.0-9.0","","","1-3","4441","38","0","Training","Stims/Figures/111-C-30-3.bmp","fafa:va","Down","40","1","6","6B","C1","J","6"
"","","approach-retreat","10","360405","0.0-10.0","","","1-3","4518","38","1","Training","Stims/Figures/144-J-10-3.bmp","sa:ha:ha","Down","38","1","7","6B","C2","J","7"
"","","approach-retreat","11","366130","0.0-11.0","","","1-3","4216","38","0","Training","Stims/Figures/74-C-20-4.bmp","va:sha:sha","Down","40","1","8","6B","C1","J","8"
"","","approach-retreat","12","372927","0.0-12.0","","","1-3","5288","39","0","Training","Stims/Figures/144-C-30-3.bmp","fa:sha:va","Left","37","1","9","6B","C1","J","9"
"","","approach-retreat","13","379951","0.0-13.0","","","1-3","5518","37","1","Training","Stims/Figures/85-J-0-2.bmp","za:haha","Right","37","1","10","6B","C2","J","10"
"","","approach-retreat","14","388405","0.0-14.0","","","1-3","6945","37","1","Training","Stims/Figures/57-C-30-1.bmp","va:shava","Left","37","1","11","6B","C1","J","11"
"","","approach-retreat","15","396299","0.0-15.0","","","1-3","6387","38","1","Training","Stims/Figures/27-C-30-1.bmp","vafa:va","Up","38","1","12","6B","C1","J","12"
"","","approach-retreat","16","403833","0.0-16.0","","","1-3","6025","40","0","Training","Stims/Figures/84-J-0-2.bmp","sasa:za","Down","38","1","13","6B","C2","J","13"
"","","approach-retreat","17","410001","0.0-17.0","","","1-3","4659","39","1","Training","Stims/Figures/7-J-10-4.bmp","sa:haha","Left","39","1","14","6B","C2","J","14"
"","","approach-retreat","18","417341","0.0-18.0","","","1-3","5831","39","1","Training","Stims/Figures/74-J-10-4.bmp","sasaza","Left","39","1","15","6B","C2","J","15"
"","","approach-retreat","19","425960","0.0-19.0","","","1-3","7110","40","1","Training","Stims/Figures/57-J-0-1.bmp","za:ha:ha","Up","40","1","16","6B","C2","J","16"
"","","approach-retreat","20","432256","0.0-20.0","","","1-3","4787","39","0","Training","Stims/Figures/57-J-0-1.bmp","za:ha:ha","Right","37","2","1","6B","C2","J","17"
"","","approach-retreat","21","439882","0.0-21.0","","","1-3","6120","40","1","Training","Stims/Figures/74-C-20-4.bmp","va:sha:sha","Down","40","2","2","6B","C1","J","18"
"","","approach-retreat","22","446761","0.0-22.0","","","1-3","5371","37","0","Training","Stims/Figures/74-J-10-4.bmp","sasaza","Left","39","2","3","6B","C2","J","19"
"","","approach-retreat","23","454395","0.0-23.0","","","1-3","6126","38","1","Training","Stims/Figures/144-C-30-3.bmp","fa:sha:va","Up","38","2","4","6B","C1","J","20"
"","","approach-retreat","24","460807","0.0-24.0","","","1-3","4904","38","1","Training","Stims/Figures/84-J-0-2.bmp","sasa:za","Down","38","2","5","6B","C2","J","21"
"","","approach-retreat","25","466691","0.0-25.0","","","1-3","4375","38","1","Training","Stims/Figures/7-J-10-4.bmp","sa:haha","Down","38","2","6","6B","C2","J","22"
"","","approach-retreat","26","472486","0.0-26.0","","","1-3","4286","40","1","Training","Stims/Figures/144-J-10-3.bmp","sa:ha:ha","Up","40","2","7","6B","C2","J","23"
"","","approach-retreat","27","478881","0.0-27.0","","","1-3","4887","39","1","Training","Stims/Figures/27-C-30-1.bmp","vafa:va","Right","39","2","8","6B","C1","J","24"
"","","approach-retreat","28","486072","0.0-28.0","","","1-3","5683","40","0","Training","Stims/Figures/57-C-30-1.bmp","va:shava","Up","38","2","9","6B","C1","J","25"
"","","approach-retreat","29","493448","0.0-29.0","","","1-3","5865","39","0","Training","Stims/Figures/85-C-20-2.bmp","fa:sha:sha","Left","37","2","10","6B","C1","J","26"
"","","approach-retreat","30","499569","0.0-30.0","","","1-3","4614","38","0","Training","Stims/Figures/27-J-0-1.bmp","zasa:ha","Up","40","2","11","6B","C2","J","27"
"","","approach-retreat","31","505938","0.0-31.0","","","1-3","4861","39","0","Training","Stims/Figures/111-J-10-3.bmp","saha:ha","Right","37","2","12","6B","C2","J","28"
"","","approach-retreat","32","512856","0.0-32.0","","","1-3","5403","39","0","Training","Stims/Figures/85-J-0-2.bmp","za:haha","Right","37","2","13","6B","C2","J","29"
"","","approach-retreat","33","520533","0.0-33.0","","","1-3","6167","37","1","Training","Stims/Figures/7-C-20-4.bmp","vafa:sha","Left","37","2","14","6B","C1","J","30"
"","","approach-retreat","34","527077","0.0-34.0","","","1-3","5036","38","0","Training","Stims/Figures/84-C-20-2.bmp","va:fasha","Down","40","2","15","6B","C1","J","31"
"","","approach-retreat","35","533390","0.0-35.0","","","1-3","4805","37","1","Training","Stims/Figures/111-C-30-3.bmp","fafa:va","Left","37","2","16","6B","C1","J","32"
"","","approach-retreat","36","539925","0.0-36.0","","","1-3","5027","38","1","Training","Stims/Figures/27-J-0-1.bmp","zasa:ha","Down","38","3","1","6B","C2","J","33"
"","","approach-retreat","37","547369","0.0-37.0","","","1-3","5936","39","0","Training","Stims/Figures/85-J-0-2.bmp","za:haha","Right","37","3","2","6B","C2","J","34"
"","","approach-retreat","38","553962","0.0-38.0","","","1-3","5083","38","0","Training","Stims/Figures/57-J-0-1.bmp","za:ha:ha","Up","40","3","3","6B","C2","J","35"
"","","approach-retreat","39","560048","0.0-39.0","","","1-3","4577","38","1","Training","Stims/Figures/111-J-10-3.bmp","saha:ha","Down","38","3","4","6B","C2","J","36"
"","","approach-retreat","40","566138","0.0-40.0","","","1-3","4582","38","0","Training","Stims/Figures/74-J-10-4.bmp","sasaza","Up","40","3","5","6B","C2","J","37"
"","","approach-retreat","41","573326","0.0-41.0","","","1-3","5679","37","0","Training","Stims/Figures/27-C-30-1.bmp","vafa:va","Right","39","3","6","6B","C1","J","38"
"","","approach-retreat","42","580022","0.0-42.0","","","1-3","5188","39","0","Training","Stims/Figures/85-C-20-2.bmp","fa:sha:sha","Left","37","3","7","6B","C1","J","39"
"","","approach-retreat","43","586298","0.0-43.0","","","1-3","4768","37","0","Training","Stims/Figures/7-J-10-4.bmp","sa:haha","Left","39","3","8","6B","C2","J","40"
"","","approach-retreat","44","593013","0.0-44.0","","","1-3","5205","39","0","Training","Stims/Figures/74-C-20-4.bmp","va:sha:sha","Left","37","3","9","6B","C1","J","41"
"","","approach-retreat","45","599808","0.0-45.0","","","1-3","5288","40","0","Training","Stims/Figures/57-C-30-1.bmp","va:shava","Up","38","3","10","6B","C1","J","42"
"","","approach-retreat","46","608902","0.0-46.0","","","1-3","7585","37","0","Training","Stims/Figures/144-C-30-3.bmp","fa:sha:va","Right","39","3","11","6B","C1","J","43"
"","","approach-retreat","47","615859","0.0-47.0","","","1-3","5450","38","1","Training","Stims/Figures/84-J-0-2.bmp","sasa:za","Down","38","3","12","6B","C2","J","44"
"","","approach-retreat","48","623011","0.0-48.0","","","1-3","5643","39","0","Training","Stims/Figures/144-J-10-3.bmp","sa:ha:ha","Right","37","3","13","6B","C2","J","45"
"","","approach-retreat","49","630737","0.0-49.0","","","1-3","6219","37","1","Training","Stims/Figures/111-C-30-3.bmp","fafa:va","Left","37","3","14","6B","C1","J","46"
"","","approach-retreat","50","637236","0.0-50.0","","","1-3","4990","40","1","Training","Stims/Figures/84-C-20-2.bmp","va:fasha","Down","40","3","15","6B","C1","J","47"
"","","approach-retreat","51","642951","0.0-51.0","","","1-3","4205","40","0","Training","Stims/Figures/7-C-20-4.bmp","vafa:sha","Up","38","3","16","6B","C1","J","48"
"","","approach-retreat","52","649257","0.0-52.0","","","1-3","4797","39","0","Training","Stims/Figures/74-C-20-4.bmp","va:sha:sha","Left","37","4","1","6B","C1","J","49"
"","","approach-retreat","53","656909","0.0-53.0","","","1-3","6144","40","0","Training","Stims/Figures/27-J-0-1.bmp","zasa:ha","Down","38","4","2","6B","C2","J","50"
"","","approach-retreat","54","665442","0.0-54.0","","","1-3","7024","37","1","Training","Stims/Figures/57-C-30-1.bmp","va:shava","Left","37","4","3","6B","C1","J","51"
"","","approach-retreat","55","672045","0.0-55.0","","","1-3","5096","39","0","Training","Stims/Figures/57-J-0-1.bmp","za:ha:ha","Right","37","4","4","6B","C2","J","52"
"","","approach-retreat","56","678226","0.0-56.0","","","1-3","4673","38","0","Training","Stims/Figures/7-J-10-4.bmp","sa:haha","Up","40","4","5","6B","C2","J","53"
"","","approach-retreat","57","684736","0.0-57.0","","","1-3","5002","39","0","Training","Stims/Figures/7-C-20-4.bmp","vafa:sha","Left","37","4","6","6B","C1","J","54"
"","","approach-retreat","58","691344","0.0-58.0","","","1-3","5099","40","1","Training","Stims/Figures/84-C-20-2.bmp","va:fasha","Down","40","4","7","6B","C1","J","55"
"","","approach-retreat","59","697915","0.0-59.0","","","1-3","5063","38","0","Training","Stims/Figures/85-J-0-2.bmp","za:haha","Up","40","4","8","6B","C2","J","56"
"","","approach-retreat","60","705998","0.0-60.0","","","1-3","6574","39","0","Training","Stims/Figures/144-J-10-3.bmp","sa:ha:ha","Right","37","4","9","6B","C2","J","57"
"","","approach-retreat","61","711979","0.0-61.0","","","1-3","4474","40","0","Training","Stims/Figures/74-J-10-4.bmp","sasaza","Down","38","4","10","6B","C2","J","58"
"","","approach-retreat","62","718106","0.0-62.0","","","1-3","4618","39","1","Training","Stims/Figures/85-C-20-2.bmp","fa:sha:sha","Right","39","4","11","6B","C1","J","59"
"","","approach-retreat","63","725530","0.0-63.0","","","1-3","5913","40","1","Training","Stims/Figures/27-C-30-1.bmp","vafa:va","Down","40","4","12","6B","C1","J","60"
"","","approach-retreat","64","731229","0.0-64.0","","","1-3","4191","40","0","Training","Stims/Figures/144-C-30-3.bmp","fa:sha:va","Up","38","4","13","6B","C1","J","61"
"","","approach-retreat","65","736918","0.0-65.0","","","1-3","4182","40","1","Training","Stims/Figures/84-J-0-2.bmp","sasa:za","Up","40","4","14","6B","C2","J","62"
"","","approach-retreat","66","743979","0.0-66.0","","","1-3","5554","37","1","Training","Stims/Figures/111-J-10-3.bmp","saha:ha","Right","37","4","15","6B","C2","J","63"
"","","approach-retreat","67","750136","0.0-67.0","","","1-3","4650","39","0","Training","Stims/Figures/111-C-30-3.bmp","fafa:va","Left","37","4","16","6B","C1","J","64"
"","","approach-retreat","68","756116","0.0-68.0","","","1-3","4472","37","1","Training","Stims/Figures/111-C-30-3.bmp","fafa:va","Left","37","5","1","6B","C1","J","65"
"","","approach-retreat","69","762221","0.0-69.0","","","1-3","4596","37","0","Training","Stims/Figures/57-C-30-1.bmp","va:shava","Right","39","5","2","6B","C1","J","66"
"","","approach-retreat","70","768303","0.0-70.0","","","1-3","4574","37","1","Training","Stims/Figures/7-J-10-4.bmp","sa:haha","Right","37","5","3","6B","C2","J","67"
"","","approach-retreat","71","774251","0.0-71.0","","","1-3","4441","37","1","Training","Stims/Figures/85-J-0-2.bmp","za:haha","Right","37","5","4","6B","C2","J","68"
"","","approach-retreat","72","782838","0.0-72.0","","","1-3","7079","40","0","Training","Stims/Figures/57-J-0-1.bmp","za:ha:ha","Down","38","5","5","6B","C2","J","69"
"","","approach-retreat","73","789232","0.0-73.0","","","1-3","4885","37","0","Training","Stims/Figures/85-C-20-2.bmp","fa:sha:sha","Right","39","5","6","6B","C1","J","70"
"","","approach-retreat","74","797738","0.0-74.0","","","1-3","6998","40","0","Training","Stims/Figures/27-C-30-1.bmp","vafa:va","Up","38","5","7","6B","C1","J","71"
"","","approach-retreat","75","803881","0.0-75.0","","","1-3","4635","40","1","Training","Stims/Figures/7-C-20-4.bmp","vafa:sha","Down","40","5","8","6B","C1","J","72"
"","","approach-retreat","76","810189","0.0-76.0","","","1-3","4797","40","1","Training","Stims/Figures/27-J-0-1.bmp","zasa:ha","Up","40","5","9","6B","C2","J","73"
"","","approach-retreat","77","817056","0.0-77.0","","","1-3","5360","39","1","Training","Stims/Figures/111-J-10-3.bmp","saha:ha","Left","39","5","10","6B","C2","J","74"
"","","approach-retreat","78","823217","0.0-78.0","","","1-3","4652","40","1","Training","Stims/Figures/74-C-20-4.bmp","va:sha:sha","Down","40","5","11","6B","C1","J","75"
"","","approach-retreat","79","829483","0.0-79.0","","","1-3","4759","39","1","Training","Stims/Figures/84-J-0-2.bmp","sasa:za","Left","39","5","12","6B","C2","J","76"
"","","approach-retreat","80","836044","0.0-80.0","","","1-3","5053","39","1","Training","Stims/Figures/74-J-10-4.bmp","sasaza","Left","39","5","13","6B","C2","J","77"
"","","approach-retreat","81","843255","0.0-81.0","","","1-3","5703","40","1","Training","Stims/Figures/84-C-20-2.bmp","va:fasha","Down","40","5","14","6B","C1","J","78"
"","","approach-retreat","82","849776","0.0-82.0","","","1-3","5011","40","1","Training","Stims/Figures/144-J-10-3.bmp","sa:ha:ha","Up","40","5","15","6B","C2","J","79"
"","","approach-retreat","83","855558","0.0-83.0","","","1-3","4275","40","0","Training","Stims/Figures/144-C-30-3.bmp","fa:sha:va","Up","38","5","16","6B","C1","J","80"
"","","approach-retreat","84","861182","0.0-84.0","","","1-3","4116","39","1","Training","Stims/Figures/84-J-0-2.bmp","sasa:za","Left","39","6","1","6B","C2","J","81"
"","","approach-retreat","85","867743","0.0-85.0","","","1-3","5052","40","1","Training","Stims/Figures/27-J-0-1.bmp","zasa:ha","Up","40","6","2","6B","C2","J","82"
"","","approach-retreat","86","873962","0.0-86.0","","","1-3","4712","37","0","Training","Stims/Figures/111-C-30-3.bmp","fafa:va","Right","39","6","3","6B","C1","J","83"
"","","approach-retreat","87","879812","0.0-87.0","","","1-3","4340","40","0","Training","Stims/Figures/74-C-20-4.bmp","va:sha:sha","Up","38","6","4","6B","C1","J","84"
"","","approach-retreat","88","885778","0.0-88.0","","","1-3","4455","39","0","Training","Stims/Figures/27-C-30-1.bmp","vafa:va","Left","37","6","5","6B","C1","J","85"
"","","approach-retreat","89","892439","0.0-89.0","","","1-3","5153","40","0","Training","Stims/Figures/57-C-30-1.bmp","va:shava","Up","38","6","6","6B","C1","J","86"
"","","approach-retreat","90","899492","0.0-90.0","","","1-3","5545","37","0","Training","Stims/Figures/144-C-30-3.bmp","fa:sha:va","Right","39","6","7","6B","C1","J","87"
"","","approach-retreat","91","907409","0.0-91.0","","","1-3","6408","40","1","Training","Stims/Figures/85-C-20-2.bmp","fa:sha:sha","Down","40","6","8","6B","C1","J","88"
"","","approach-retreat","92","915175","0.0-92.0","","","1-3","6258","37","1","Training","Stims/Figures/7-C-20-4.bmp","vafa:sha","Left","37","6","9","6B","C1","J","89"
"","","approach-retreat","93","921272","0.0-93.0","","","1-3","4588","40","0","Training","Stims/Figures/7-J-10-4.bmp","sa:haha","Down","38","6","10","6B","C2","J","90"
"","","approach-retreat","94","927966","0.0-94.0","","","1-3","5185","39","0","Training","Stims/Figures/144-J-10-3.bmp","sa:ha:ha","Right","37","6","11","6B","C2","J","91"
"","","approach-retreat","95","935426","0.0-95.0","","","1-3","5953","39","1","Training","Stims/Figures/84-C-20-2.bmp","va:fasha","Right","39","6","12","6B","C1","J","92"
"","","approach-retreat","96","941247","0.0-96.0","","","1-3","4313","39","1","Training","Stims/Figures/74-J-10-4.bmp","sasaza","Left","39","6","13","6B","C2","J","93"
"","","approach-retreat","97","947514","0.0-97.0","","","1-3","4757","38","0","Training","Stims/Figures/111-J-10-3.bmp","saha:ha","Up","40","6","14","6B","C2","J","94"
"","","approach-retreat","98","953394","0.0-98.0","","","1-3","4371","40","0","Training","Stims/Figures/85-J-0-2.bmp","za:haha","Down","38","6","15","6B","C2","J","95"
"","","approach-retreat","99","959967","0.0-99.0","","","1-3","5063","40","0","Training","Stims/Figures/57-J-0-1.bmp","za:ha:ha","Down","38","6","16","6B","C2","J","96"
"","","approach-retreat","100","966169","0.0-100.0","","","1-3","4693","37","1","Training","Stims/Figures/144-C-30-3.bmp","fa:sha:va","Left","37","7","1","6B","C1","J","97"
"","","approach-retreat","101","972840","0.0-101.0","","","1-3","5162","38","0","Training","Stims/Figures/27-J-0-1.bmp","zasa:ha","Up","40","7","2","6B","C2","J","98"
"","","approach-retreat","102","979568","0.0-102.0","","","1-3","5220","39","1","Training","Stims/Figures/111-C-30-3.bmp","fafa:va","Right","39","7","3","6B","C1","J","99"
"","","approach-retreat","103","985861","0.0-103.0","","","1-3","4786","38","1","Training","Stims/Figures/74-C-20-4.bmp","va:sha:sha","Up","38","7","4","6B","C1","J","100"
"","","approach-retreat","104","992531","0.0-104.0","","","1-3","5162","37","0","Training","Stims/Figures/74-J-10-4.bmp","sasaza","Left","39","7","5","6B","C2","J","101"
"","","approach-retreat","105","1000095","0.0-105.0","","","1-3","6055","40","1","Training","Stims/Figures/7-C-20-4.bmp","vafa:sha","Down","40","7","6","6B","C1","J","102"
"","","approach-retreat","106","1007648","0.0-106.0","","","1-3","6043","37","1","Training","Stims/Figures/84-J-0-2.bmp","sasa:za","Right","37","7","7","6B","C2","J","103"
"","","approach-retreat","107","1013825","0.0-107.0","","","1-3","4668","39","0","Training","Stims/Figures/111-J-10-3.bmp","saha:ha","Right","37","7","8","6B","C2","J","104"
"","","approach-retreat","108","1022475","0.0-108.0","","","1-3","7142","37","0","Training","Stims/Figures/85-J-0-2.bmp","za:haha","Left","39","7","9","6B","C2","J","105"
"","","approach-retreat","109","1030214","0.0-109.0","","","1-3","6230","40","0","Training","Stims/Figures/57-J-0-1.bmp","za:ha:ha","Down","38","7","10","6B","C2","J","106"
"","","approach-retreat","110","1036148","0.0-110.0","","","1-3","4425","38","0","Training","Stims/Figures/57-C-30-1.bmp","va:shava","Down","40","7","11","6B","C1","J","107"
"","","approach-retreat","111","1042166","0.0-111.0","","","1-3","4512","40","0","Training","Stims/Figures/85-C-20-2.bmp","fa:sha:sha","Up","38","7","12","6B","C1","J","108"
"","","approach-retreat","112","1048262","0.0-112.0","","","1-3","4586","38","0","Training","Stims/Figures/7-J-10-4.bmp","sa:haha","Up","40","7","13","6B","C2","J","109"
"","","approach-retreat","113","1055280","0.0-113.0","","","1-3","5508","37","1","Training","Stims/Figures/27-C-30-1.bmp","vafa:va","Left","37","7","14","6B","C1","J","110"
"","","approach-retreat","114","1061595","0.0-114.0","","","1-3","4805","39","0","Training","Stims/Figures/144-J-10-3.bmp","sa:ha:ha","Right","37","7","15","6B","C2","J","111"
"","","approach-retreat","115","1068020","0.0-115.0","","","1-3","4914","40","1","Training","Stims/Figures/84-C-20-2.bmp","va:fasha","Down","40","7","16","6B","C1","J","112"
"","","approach-retreat","116","1074523","0.0-116.0","","","1-3","4996","39","1","Training","Stims/Figures/7-J-10-4.bmp","sa:haha","Left","39","8","1","6B","C2","J","113"
"","","approach-retreat","117","1081972","0.0-117.0","","","1-3","5940","40","0","Training","Stims/Figures/144-J-10-3.bmp","sa:ha:ha","Down","38","8","2","6B","C2","J","114"
"","","approach-retreat","118","1090130","0.0-118.0","","","1-3","6648","39","0","Training","Stims/Figures/7-C-20-4.bmp","vafa:sha","Left","37","8","3","6B","C1","J","115"
"","","approach-retreat","119","1095967","0.0-119.0","","","1-3","4330","39","0","Training","Stims/Figures/85-C-20-2.bmp","fa:sha:sha","Left","37","8","4","6B","C1","J","116"
"","","approach-retreat","120","1104519","0.0-120.0","","","1-3","7044","38","0","Training","Stims/Figures/84-J-0-2.bmp","sasa:za","Up","40","8","5","6B","C2","J","117"
"","","approach-retreat","121","1111814","0.0-121.0","","","1-3","5788","38","1","Training","Stims/Figures/111-J-10-3.bmp","saha:ha","Down","38","8","6","6B","C2","J","118"
"","","approach-retreat","122","1119591","0.0-122.0","","","1-3","6269","39","1","Training","Stims/Figures/27-C-30-1.bmp","vafa:va","Right","39","8","7","6B","C1","J","119"
"","","approach-retreat","123","1127953","0.0-123.0","","","1-3","6853","38","0","Training","Stims/Figures/74-J-10-4.bmp","sasaza","Up","40","8","8","6B","C2","J","120"
"","","approach-retreat","124","1134766","0.0-124.0","","","1-3","5306","37","1","Training","Stims/Figures/57-J-0-1.bmp","za:ha:ha","Right","37","8","9","6B","C2","J","121"
"","","approach-retreat","125","1141597","0.0-125.0","","","1-3","5322","38","1","Training","Stims/Figures/74-C-20-4.bmp","va:sha:sha","Up","38","8","10","6B","C1","J","122"
"","","approach-retreat","126","1148132","0.0-126.0","","","1-3","5025","38","0","Training","Stims/Figures/111-C-30-3.bmp","fafa:va","Down","40","8","11","6B","C1","J","123"
"","","approach-retreat","127","1154299","0.0-127.0","","","1-3","4660","38","1","Training","Stims/Figures/27-J-0-1.bmp","zasa:ha","Down","38","8","12","6B","C2","J","124"
"","","approach-retreat","128","1160830","0.0-128.0","","","1-3","5023","38","0","Training","Stims/Figures/85-J-0-2.bmp","za:haha","Up","40","8","13","6B","C2","J","125"
"","","approach-retreat","129","1168502","0.0-129.0","","","1-3","6163","37","1","Training","Stims/Figures/57-C-30-1.bmp","va:shava","Left","37","8","14","6B","C1","J","126"
"","","approach-retreat","130","1175267","0.0-130.0","","","1-3","5258","39","1","Training","Stims/Figures/144-C-30-3.bmp","fa:sha:va","Right","39","8","15","6B","C1","J","127"
"","","approach-retreat","131","1181269","0.0-131.0","","","1-3","4493","39","1","Training","Stims/Figures/84-C-20-2.bmp","va:fasha","Right","39","8","16","6B","C1","J","128"
"","","approach-retreat","132","1187489","0.0-132.0","","","1-3","4711","39","0","Training","Stims/Figures/85-C-20-2.bmp","fa:sha:sha","Left","37","9","1","6B","C1","J","129"
"","","approach-retreat","133","1195022","0.0-133.0","","","1-3","6023","40","1","Training","Stims/Figures/57-J-0-1.bmp","za:ha:ha","Up","40","9","2","6B","C2","J","130"
"","","approach-retreat","134","1201281","0.0-134.0","","","1-3","4750","37","0","Training","Stims/Figures/27-J-0-1.bmp","zasa:ha","Left","39","9","3","6B","C2","J","131"
"","","approach-retreat","135","1208795","0.0-135.0","","","1-3","6007","38","1","Training","Stims/Figures/74-J-10-4.bmp","sasaza","Down","38","9","4","6B","C2","J","132"
"","","approach-retreat","136","1217148","0.0-136.0","","","1-3","6842","38","0","Training","Stims/Figures/74-C-20-4.bmp","va:sha:sha","Down","40","9","5","6B","C1","J","133"
"","","approach-retreat","137","1223841","0.0-137.0","","","1-3","5186","37","1","Training","Stims/Figures/85-J-0-2.bmp","za:haha","Right","37","9","6","6B","C2","J","134"
"","","approach-retreat","138","1230578","0.0-138.0","","","1-3","5230","39","0","Training","Stims/Figures/111-J-10-3.bmp","saha:ha","Right","37","9","7","6B","C2","J","135"
"","","approach-retreat","139","1240520","0.0-139.0","","","1-3","8434","40","1","Training","Stims/Figures/57-C-30-1.bmp","va:shava","Down","40","9","8","6B","C1","J","136"
"","","approach-retreat","140","1248314","0.0-140.0","","","1-3","6283","40","1","Training","Stims/Figures/144-J-10-3.bmp","sa:ha:ha","Up","40","9","9","6B","C2","J","137"
"","","approach-retreat","141","1254698","0.0-141.0","","","1-3","4875","39","1","Training","Stims/Figures/111-C-30-3.bmp","fafa:va","Right","39","9","10","6B","C1","J","138"
"","","approach-retreat","142","1261068","0.0-142.0","","","1-3","4862","39","0","Training","Stims/Figures/27-C-30-1.bmp","vafa:va","Left","37","9","11","6B","C1","J","139"
"","","approach-retreat","143","1267557","0.0-143.0","","","1-3","4981","40","1","Training","Stims/Figures/84-J-0-2.bmp","sasa:za","Up","40","9","12","6B","C2","J","140"
"","","approach-retreat","144","1273322","0.0-144.0","","","1-3","4256","40","0","Training","Stims/Figures/7-J-10-4.bmp","sa:haha","Down","38","9","13","6B","C2","J","141"
"","","approach-retreat","145","1278886","0.0-145.0","","","1-3","4056","40","0","Training","Stims/Figures/144-C-30-3.bmp","fa:sha:va","Up","38","9","14","6B","C1","J","142"
"","","approach-retreat","146","1286365","0.0-146.0","","","1-3","5969","39","1","Training","Stims/Figures/7-C-20-4.bmp","vafa:sha","Right","39","9","15","6B","C1","J","143"
"","","approach-retreat","147","1293102","0.0-147.0","","","1-3","5228","39","0","Training","Stims/Figures/84-C-20-2.bmp","va:fasha","Left","37","9","16","6B","C1","J","144"
"43175","","instructions","148","1336277","0.0-148.0","[{""page_index"":0,""viewing_time"":43175}]","","","","","","","","","","","","","","","",""
"","","approach-retreat","149","1345237","0.0-149.0","","","1-3","7451","37","1","Testing","Stims/Figures/57-C-30-1.bmp","va:shava","Left","37","1","1","6B","C1","J","1"
"","","approach-retreat","150","1352460","0.0-150.0","","","1-3","5716","39","0","Testing","Stims/Figures/86-J-0-1.bmp","zasaza","Right","37","1","2","6B","C2","J","2"
"","","approach-retreat","151","1358586","0.0-151.0","","","1-3","4618","38","1","Testing","Stims/Figures/27-C-30-1.bmp","vafa:va","Up","38","1","3","6B","C1","J","3"
"","","approach-retreat","152","1366179","0.0-152.0","","","1-3","6087","39","0","Testing","Stims/Figures/44-C-30-3.bmp","fa:shava","Left","37","1","4","6B","C1","J","4"
"","","approach-retreat","153","1371818","0.0-153.0","","","1-3","4132","40","1","Testing","Stims/Figures/74-C-20-4.bmp","va:sha:sha","Down","40","1","5","6B","C1","J","5"
"","","approach-retreat","154","1380236","0.0-154.0","","","1-3","6911","38","0","Testing","Stims/Figures/118-J-0-2.bmp","za:saza","Up","40","1","6","6B","C2","J","6"
"","","approach-retreat","155","1386952","0.0-155.0","","","1-3","5209","39","0","Testing","Stims/Figures/57-J-0-1.bmp","za:ha:ha","Right","37","1","7","6B","C2","J","7"
"","","approach-retreat","156","1395160","0.0-156.0","","","1-3","6702","37","1","Testing","Stims/Figures/144-C-30-3.bmp","fa:sha:va","Left","37","1","8","6B","C1","J","8"
"","","approach-retreat","157","1402168","0.0-157.0","","","1-3","5502","38","1","Testing","Stims/Figures/7-J-10-4.bmp","sa:haha","Down","38","1","9","6B","C2","J","9"
"","","approach-retreat","158","1409955","0.0-158.0","","","1-3","6280","40","1","Testing","Stims/Figures/111-C-30-3.bmp","fafa:va","Down","40","1","10","6B","C1","J","10"
"","","approach-retreat","159","1416824","0.0-159.0","","","1-3","5360","40","1","Testing","Stims/Figures/87-C-20-4.bmp","va:shasha","Down","40","1","11","6B","C1","J","11"
"","","approach-retreat","160","1427573","0.0-160.0","","","1-3","9241","39","1","Testing","Stims/Figures/85-C-20-2.bmp","fa:sha:sha","Right","39","1","12","6B","C1","J","12"
"","","approach-retreat","161","1434773","0.0-161.0","","","1-3","5691","40","0","Testing","Stims/Figures/144-J-10-3.bmp","sa:ha:ha","Down","38","1","13","6B","C2","J","13"
"","","approach-retreat","162","1444538","0.0-162.0","","","1-3","8257","37","1","Testing","Stims/Figures/84-C-20-2.bmp","va:fasha","Left","37","1","14","6B","C1","J","14"
"","","approach-retreat","163","1455243","0.0-163.0","","","1-3","9195","40","1","Testing","Stims/Figures/86-C-30-1.bmp","vasha:sha","Down","40","1","15","6B","C1","J","15"
"","","approach-retreat","164","1464329","0.0-164.0","","","1-3","7580","38","0","Testing","Stims/Figures/74-J-10-4.bmp","sasaza","Up","40","1","16","6B","C2","J","16"
"","","approach-retreat","165","1470720","0.0-165.0","","","1-3","4884","40","1","Testing","Stims/Figures/44-J-10-3.bmp","sasa:ha","Up","40","1","17","6B","C2","J","17"
"","","approach-retreat","166","1477098","0.0-166.0","","","1-3","4870","39","0","Testing","Stims/Figures/111-J-10-3.bmp","saha:ha","Right","37","1","18","6B","C2","J","18"
"","","approach-retreat","167","1483103","0.0-167.0","","","1-3","4491","40","1","Testing","Stims/Figures/87-J-10-4.bmp","saha:za","Up","40","1","19","6B","C2","J","19"
"","","approach-retreat","168","1489158","0.0-168.0","","","1-3","4550","39","1","Testing","Stims/Figures/7-C-20-4.bmp","vafa:sha","Right","39","1","20","6B","C1","J","20"
"","","approach-retreat","169","1495814","0.0-169.0","","","1-3","5148","39","0","Testing","Stims/Figures/27-J-0-1.bmp","zasa:ha","Right","37","1","21","6B","C2","J","21"
"","","approach-retreat","170","1504036","0.0-170.0","","","1-3","6716","39","1","Testing","Stims/Figures/84-J-0-2.bmp","sasa:za","Left","39","1","22","6B","C2","J","22"
"","","approach-retreat","171","1511148","0.0-171.0","","","1-3","5605","37","1","Testing","Stims/Figures/118-C-20-2.bmp","fasha:sha","Left","37","1","23","6B","C1","J","23"
"","","approach-retreat","172","1519859","0.0-172.0","","","1-3","7204","38","0","Testing","Stims/Figures/85-J-0-2.bmp","za:haha","Up","40","1","24","6B","C2","J","24"
"","","approach-retreat","173","1528529","0.0-173.0","","","1-3","7163","40","1","Testing","Stims/Figures/57-C-30-1.bmp","va:shava","Down","40","2","1","6B","C1","J","25"
"","","approach-retreat","174","1537222","0.0-174.0","","","1-3","7185","37","1","Testing","Stims/Figures/44-J-10-3.bmp","sasa:ha","Right","37","2","2","6B","C2","J","26"
"","","approach-retreat","175","1546134","0.0-175.0","","","1-3","7404","39","0","Testing","Stims/Figures/74-J-10-4.bmp","sasaza","Right","37","2","3","6B","C2","J","27"
"","","approach-retreat","176","1556207","0.0-176.0","","","1-3","8567","39","0","Testing","Stims/Figures/57-J-0-1.bmp","za:ha:ha","Right","37","2","4","6B","C2","J","28"
"","","approach-retreat","177","1564868","0.0-177.0","","","1-3","7154","37","1","Testing","Stims/Figures/111-C-30-3.bmp","fafa:va","Left","37","2","5","6B","C1","J","29"
"","","approach-retreat","178","1573750","0.0-178.0","","","1-3","7376","38","1","Testing","Stims/Figures/86-C-30-1.bmp","vasha:sha","Up","38","2","6","6B","C1","J","30"
"","","approach-retreat","179","1583323","0.0-179.0","","","1-3","8066","38","1","Testing","Stims/Figures/84-J-0-2.bmp","sasa:za","Down","38","2","7","6B","C2","J","31"
"","","approach-retreat","180","1591200","0.0-180.0","","","1-3","6369","40","1","Testing","Stims/Figures/118-C-20-2.bmp","fasha:sha","Down","40","2","8","6B","C1","J","32"
"","","approach-retreat","181","1597954","0.0-181.0","","","1-3","5247","40","0","Testing","Stims/Figures/111-J-10-3.bmp","saha:ha","Down","38","2","9","6B","C2","J","33"
"","","approach-retreat","182","1610266","0.0-182.0","","","1-3","10804","37","1","Testing","Stims/Figures/87-J-10-4.bmp","saha:za","Right","37","2","10","6B","C2","J","34"
"","","approach-retreat","183","1617488","0.0-183.0","","","1-3","5716","38","0","Testing","Stims/Figures/85-J-0-2.bmp","za:haha","Up","40","2","11","6B","C2","J","35"
"","","approach-retreat","184","1623876","0.0-184.0","","","1-3","4882","38","0","Testing","Stims/Figures/27-J-0-1.bmp","zasa:ha","Up","40","2","12","6B","C2","J","36"
"","","approach-retreat","185","1631312","0.0-185.0","","","1-3","5929","40","0","Testing","Stims/Figures/7-J-10-4.bmp","sa:haha","Down","38","2","13","6B","C2","J","37"
"","","approach-retreat","186","1639681","0.0-186.0","","","1-3","6861","37","0","Testing","Stims/Figures/144-J-10-3.bmp","sa:ha:ha","Left","39","2","14","6B","C2","J","38"
"","","approach-retreat","187","1655620","0.0-187.0","","","1-3","14432","37","1","Testing","Stims/Figures/144-C-30-3.bmp","fa:sha:va","Left","37","2","15","6B","C1","J","39"
"","","approach-retreat","188","1661779","0.0-188.0","","","1-3","4652","37","1","Testing","Stims/Figures/27-C-30-1.bmp","vafa:va","Left","37","2","16","6B","C1","J","40"
"","","approach-retreat","189","1668735","0.0-189.0","","","1-3","5451","40","0","Testing","Stims/Figures/44-C-30-3.bmp","fa:shava","Up","38","2","17","6B","C1","J","41"
"","","approach-retreat","190","1678160","0.0-190.0","","","1-3","7918","38","1","Testing","Stims/Figures/74-C-20-4.bmp","va:sha:sha","Up","38","2","18","6B","C1","J","42"
"","","approach-retreat","191","1687062","0.0-191.0","","","1-3","7394","40","1","Testing","Stims/Figures/84-C-20-2.bmp","va:fasha","Down","40","2","19","6B","C1","J","43"
"","","approach-retreat","192","1694311","0.0-192.0","","","1-3","5742","37","0","Testing","Stims/Figures/118-J-0-2.bmp","za:saza","Left","39","2","20","6B","C2","J","44"
"","","approach-retreat","193","1702506","0.0-193.0","","","1-3","6688","39","1","Testing","Stims/Figures/7-C-20-4.bmp","vafa:sha","Right","39","2","21","6B","C1","J","45"
"","","approach-retreat","194","1711402","0.0-194.0","","","1-3","7390","39","1","Testing","Stims/Figures/87-C-20-4.bmp","va:shasha","Right","39","2","22","6B","C1","J","46"
"","","approach-retreat","195","1717732","0.0-195.0","","","1-3","4825","37","0","Testing","Stims/Figures/86-J-0-1.bmp","zasaza","Left","39","2","23","6B","C2","J","47"
"","","approach-retreat","196","1725805","0.0-196.0","","","1-3","6565","38","1","Testing","Stims/Figures/85-C-20-2.bmp","fa:sha:sha","Up","38","2","24","6B","C1","J","48"
"","","approach-retreat","197","1732843","0.0-197.0","","","1-3","5531","37","0","Testing","Stims/Figures/111-J-10-3.bmp","saha:ha","Left","39","3","1","6B","C2","J","49"
"","","approach-retreat","198","1743948","0.0-198.0","","","1-3","9597","37","0","Testing","Stims/Figures/7-J-10-4.bmp","sa:haha","Left","39","3","2","6B","C2","J","50"
"","","approach-retreat","199","1750923","0.0-199.0","","","1-3","5469","38","1","Testing","Stims/Figures/85-C-20-2.bmp","fa:sha:sha","Up","38","3","3","6B","C1","J","51"
"","","approach-retreat","200","1762268","0.0-200.0","","","1-3","9839","39","0","Testing","Stims/Figures/84-J-0-2.bmp","sasa:za","Right","37","3","4","6B","C2","J","52"
"","","approach-retreat","201","1771583","0.0-201.0","","","1-3","7809","38","1","Testing","Stims/Figures/84-C-20-2.bmp","va:fasha","Up","38","3","5","6B","C1","J","53"
"","","approach-retreat","202","1781420","0.0-202.0","","","1-3","8331","40","1","Testing","Stims/Figures/44-C-30-3.bmp","fa:shava","Down","40","3","6","6B","C1","J","54"
"","","approach-retreat","203","1788743","0.0-203.0","","","1-3","5815","37","1","Testing","Stims/Figures/86-C-30-1.bmp","vasha:sha","Left","37","3","7","6B","C1","J","55"
"","","approach-retreat","204","1803297","0.0-204.0","","","1-3","13047","40","1","Testing","Stims/Figures/118-C-20-2.bmp","fasha:sha","Down","40","3","8","6B","C1","J","56"
"","","approach-retreat","205","1813548","0.0-205.0","","","1-3","8744","39","0","Testing","Stims/Figures/85-J-0-2.bmp","za:haha","Right","37","3","9","6B","C2","J","57"
"","","approach-retreat","206","1823524","0.0-206.0","","","1-3","8469","40","1","Testing","Stims/Figures/27-C-30-1.bmp","vafa:va","Down","40","3","10","6B","C1","J","58"
"","","approach-retreat","207","1831105","0.0-207.0","","","1-3","6074","37","0","Testing","Stims/Figures/87-J-10-4.bmp","saha:za","Left","39","3","11","6B","C2","J","59"
"","","approach-retreat","208","1837764","0.0-208.0","","","1-3","5152","39","0","Testing","Stims/Figures/86-J-0-1.bmp","zasaza","Right","37","3","12","6B","C2","J","60"
"","","approach-retreat","209","1849058","0.0-209.0","","","1-3","9788","38","1","Testing","Stims/Figures/74-C-20-4.bmp","va:sha:sha","Up","38","3","13","6B","C1","J","61"
"","","approach-retreat","210","1856491","0.0-210.0","","","1-3","5926","39","0","Testing","Stims/Figures/118-J-0-2.bmp","za:saza","Right","37","3","14","6B","C2","J","62"
"","","approach-retreat","211","1870094","0.0-211.0","","","1-3","12097","37","0","Testing","Stims/Figures/144-J-10-3.bmp","sa:ha:ha","Left","39","3","15","6B","C2","J","63"
"","","approach-retreat","212","1876926","0.0-212.0","","","1-3","5324","38","0","Testing","Stims/Figures/27-J-0-1.bmp","zasa:ha","Up","40","3","16","6B","C2","J","64"
"","","approach-retreat","213","1883336","0.0-213.0","","","1-3","4903","38","1","Testing","Stims/Figures/44-J-10-3.bmp","sasa:ha","Down","38","3","17","6B","C2","J","65"
"","","approach-retreat","214","1889805","0.0-214.0","","","1-3","4961","38","0","Testing","Stims/Figures/74-J-10-4.bmp","sasaza","Up","40","3","18","6B","C2","J","66"
"","","approach-retreat","215","1896625","0.0-215.0","","","1-3","5314","40","0","Testing","Stims/Figures/87-C-20-4.bmp","va:shasha","Up","38","3","19","6B","C1","J","67"
"","","approach-retreat","216","1903468","0.0-216.0","","","1-3","5337","37","1","Testing","Stims/Figures/7-C-20-4.bmp","vafa:sha","Left","37","3","20","6B","C1","J","68"
"","","approach-retreat","217","1910172","0.0-217.0","","","1-3","5198","39","1","Testing","Stims/Figures/144-C-30-3.bmp","fa:sha:va","Right","39","3","21","6B","C1","J","69"
"","","approach-retreat","218","1921213","0.0-218.0","","","1-3","9534","40","1","Testing","Stims/Figures/57-C-30-1.bmp","va:shava","Down","40","3","22","6B","C1","J","70"
"","","approach-retreat","219","1929112","0.0-219.0","","","1-3","6393","39","1","Testing","Stims/Figures/111-C-30-3.bmp","fafa:va","Right","39","3","23","6B","C1","J","71"
"","","approach-retreat","220","1940149","0.0-220.0","","","1-3","9529","40","0","Testing","Stims/Figures/57-J-0-1.bmp","za:ha:ha","Down","38","3","24","6B","C2","J","72"
"","","approach-retreat","221","1948514","0.0-221.0","","","1-3","6857","37","0","Testing","Stims/Figures/84-J-0-2.bmp","sasa:za","Left","39","4","1","6B","C2","J","73"
"","","approach-retreat","222","1954749","0.0-222.0","","","1-3","4729","40","1","Testing","Stims/Figures/44-J-10-3.bmp","sasa:ha","Up","40","4","2","6B","C2","J","74"
"","","approach-retreat","223","1961540","0.0-223.0","","","1-3","5284","40","0","Testing","Stims/Figures/85-J-0-2.bmp","za:haha","Down","38","4","3","6B","C2","J","75"
"","","approach-retreat","224","1968439","0.0-224.0","","","1-3","5389","37","1","Testing","Stims/Figures/57-J-0-1.bmp","za:ha:ha","Right","37","4","4","6B","C2","J","76"
"","","approach-retreat","225","1975964","0.0-225.0","","","1-3","6017","38","1","Testing","Stims/Figures/86-J-0-1.bmp","zasaza","Down","38","4","5","6B","C2","J","77"
"","","approach-retreat","226","1982437","0.0-226.0","","","1-3","4966","39","1","Testing","Stims/Figures/118-C-20-2.bmp","fasha:sha","Right","39","4","6","6B","C1","J","78"
"","","approach-retreat","227","1990095","0.0-227.0","","","1-3","6151","37","1","Testing","Stims/Figures/84-C-20-2.bmp","va:fasha","Left","37","4","7","6B","C1","J","79"
"","","approach-retreat","228","1996239","0.0-228.0","","","1-3","4636","39","1","Testing","Stims/Figures/7-C-20-4.bmp","vafa:sha","Right","39","4","8","6B","C1","J","80"
"","","approach-retreat","229","2003040","0.0-229.0","","","1-3","5294","38","1","Testing","Stims/Figures/144-J-10-3.bmp","sa:ha:ha","Down","38","4","9","6B","C2","J","81"
"","","approach-retreat","230","2009710","0.0-230.0","","","1-3","5165","39","1","Testing","Stims/Figures/111-C-30-3.bmp","fafa:va","Right","39","4","10","6B","C1","J","82"
"","","approach-retreat","231","2015860","0.0-231.0","","","1-3","4644","40","1","Testing","Stims/Figures/57-C-30-1.bmp","va:shava","Down","40","4","11","6B","C1","J","83"
"","","approach-retreat","232","2021935","0.0-232.0","","","1-3","4568","37","1","Testing","Stims/Figures/86-C-30-1.bmp","vasha:sha","Left","37","4","12","6B","C1","J","84"
"","","approach-retreat","233","2028906","0.0-233.0","","","1-3","5465","37","1","Testing","Stims/Figures/27-C-30-1.bmp","vafa:va","Left","37","4","13","6B","C1","J","85"
"","","approach-retreat","234","2035752","0.0-234.0","","","1-3","5338","38","0","Testing","Stims/Figures/118-J-0-2.bmp","za:saza","Up","40","4","14","6B","C2","J","86"
"","","approach-retreat","235","2043865","0.0-235.0","","","1-3","6606","40","0","Testing","Stims/Figures/44-C-30-3.bmp","fa:shava","Up","38","4","15","6B","C1","J","87"
"","","approach-retreat","236","2051965","0.0-236.0","","","1-3","6594","39","0","Testing","Stims/Figures/74-J-10-4.bmp","sasaza","Right","37","4","16","6B","C2","J","88"
"","","approach-retreat","237","2061458","0.0-237.0","","","1-3","7985","39","0","Testing","Stims/Figures/87-J-10-4.bmp","saha:za","Right","37","4","17","6B","C2","J","89"
"","","approach-retreat","238","2069373","0.0-238.0","","","1-3","6409","40","1","Testing","Stims/Figures/85-C-20-2.bmp","fa:sha:sha","Down","40","4","18","6B","C1","J","90"
"","","approach-retreat","239","2076617","0.0-239.0","","","1-3","5739","40","1","Testing","Stims/Figures/27-J-0-1.bmp","zasa:ha","Up","40","4","19","6B","C2","J","91"
"","","approach-retreat","240","2086393","0.0-240.0","","","1-3","8269","37","1","Testing","Stims/Figures/74-C-20-4.bmp","va:sha:sha","Left","37","4","20","6B","C1","J","92"
"","","approach-retreat","241","2092401","0.0-241.0","","","1-3","4501","38","0","Testing","Stims/Figures/111-J-10-3.bmp","saha:ha","Up","40","4","21","6B","C2","J","93"
"","","approach-retreat","242","2099379","0.0-242.0","","","1-3","5472","40","0","Testing","Stims/Figures/87-C-20-4.bmp","va:shasha","Up","38","4","22","6B","C1","J","94"
"","","approach-retreat","243","2105989","0.0-243.0","","","1-3","5105","38","1","Testing","Stims/Figures/7-J-10-4.bmp","sa:haha","Down","38","4","23","6B","C2","J","95"
"","","approach-retreat","244","2112495","0.0-244.0","","","1-3","4999","37","1","Testing","Stims/Figures/144-C-30-3.bmp","fa:sha:va","Left","37","4","24","6B","C1","J","96"
"191173","","survey-text","245","2303673","0.0-245.0","","{""Q0"":""0132/2018""}","","","","","","","","","","","","","","",""
