\"rt\",\"key_press\",\"trial_type\",\"trial_index\",\"time_elapsed\",\"internal_node_id\",\"view_history\",\"responses\",\"Id\",\"Rt\",\"ResKeyCode\",\"ResCorr\",\"TrialType2\",\"Image\",\"Label\",\"Location\",\"CorrectResponse\",\"Block\",\"BlockTrial\",\"Condition\",\"LabelType\",\"Subcondition\",\"trialNum\"
\"29764\",\"32\",\"text\",\"0\",\"29765\",\"0.0-0.0-0.0\",\"\",\"\",\"\",\"\",\"\",\"\",\"\",\"\",\"\",\"\",\"\",\"\",\"\",\"\",\"\",\"\",\"\"
\"135113\",\"\",\"instructions\",\"1\",\"164878\",\"0.0-1.0\",\"[{\"\"page_index\"\":0,\"\"viewing_time\"\":135113}]\",\"\",\"\",\"\",\"\",\"\",\"\",\"\",\"\",\"\",\"\",\"\",\"\",\"\",\"\",\"\",\"\"
\"16522\",\"\",\"survey-multi-choice\",\"2\",\"181413\",\"0.0-2.0\",\"\",\"{\"\"Q0\"\":\"\"Da\"\",\"\"Q1\"\":\"\"Da\"\",\"\"Q2\"\":\"\"Da\"\",\"\"Q3\"\":\"\"Da\"\",\"\"Q4\"\":\"\"Da\"\",\"\"Q5\"\":\"\"Da\"\"}\",\"\",\"\",\"\",\"\",\"\",\"\",\"\",\"\",\"\",\"\",\"\",\"\",\"\",\"\",\"\"
\"\",\"\",\"bio\",\"3\",\"192370\",\"0.0-3.0\",\"\",\"{\"\"age\"\":\"\"19\"\",\"\"gender\"\":\"\"f\"\",\"\"specify\"\":\"\"\"\"}\",\"\",\"\",\"\",\"\",\"\",\"\",\"\",\"\",\"\",\"\",\"\",\"\",\"\",\"\",\"\"
\"\",\"\",\"approach-retreat\",\"4\",\"212769\",\"0.0-4.0\",\"\",\"\",\"3-1\",\"18893\",\"38\",\"1\",\"Training\",\"Stims/Figures/27-C-30-1.bmp\",\"fafava\",\"Up\",\"38\",\"1\",\"1\",\"6B\",\"C1\",\"J\",\"1\"
\"\",\"\",\"approach-retreat\",\"5\",\"222146\",\"0.0-5.0\",\"\",\"\",\"3-1\",\"7874\",\"37\",\"1\",\"Training\",\"Stims/Figures/74-C-20-4.bmp\",\"fafasha\",\"Left\",\"37\",\"1\",\"2\",\"6B\",\"C1\",\"J\",\"2\"
\"\",\"\",\"approach-retreat\",\"6\",\"230526\",\"0.0-6.0\",\"\",\"\",\"3-1\",\"6876\",\"38\",\"1\",\"Training\",\"Stims/Figures/84-C-20-2.bmp\",\"fasha:sha\",\"Up\",\"38\",\"1\",\"3\",\"6B\",\"C1\",\"J\",\"3\"
\"\",\"\",\"approach-retreat\",\"7\",\"236938\",\"0.0-7.0\",\"\",\"\",\"3-1\",\"4906\",\"39\",\"0\",\"Training\",\"Stims/Figures/102-J-10-4.bmp\",\"zahaza\",\"Right\",\"37\",\"1\",\"4\",\"6B\",\"C2\",\"J\",\"4\"
\"\",\"\",\"approach-retreat\",\"8\",\"243108\",\"0.0-8.0\",\"\",\"\",\"3-1\",\"4664\",\"40\",\"0\",\"Training\",\"Stims/Figures/84-J-0-2.bmp\",\"sasaza\",\"Down\",\"38\",\"1\",\"5\",\"6B\",\"C2\",\"J\",\"5\"
\"\",\"\",\"approach-retreat\",\"9\",\"252369\",\"0.0-9.0\",\"\",\"\",\"3-1\",\"7756\",\"38\",\"0\",\"Training\",\"Stims/Figures/85-C-20-2.bmp\",\"va:shasha\",\"Down\",\"40\",\"1\",\"6\",\"6B\",\"C1\",\"J\",\"6\"
\"\",\"\",\"approach-retreat\",\"10\",\"257975\",\"0.0-10.0\",\"\",\"\",\"3-1\",\"4102\",\"39\",\"0\",\"Training\",\"Stims/Figures/144-J-10-3.bmp\",\"za:haha\",\"Right\",\"37\",\"1\",\"7\",\"6B\",\"C2\",\"J\",\"7\"
\"\",\"\",\"approach-retreat\",\"11\",\"266229\",\"0.0-11.0\",\"\",\"\",\"3-1\",\"6750\",\"38\",\"1\",\"Training\",\"Stims/Figures/44-J-10-3.bmp\",\"za:sa:ha\",\"Down\",\"38\",\"1\",\"8\",\"6B\",\"C2\",\"J\",\"8\"
\"\",\"\",\"approach-retreat\",\"12\",\"271682\",\"0.0-12.0\",\"\",\"\",\"3-1\",\"3950\",\"38\",\"1\",\"Training\",\"Stims/Figures/74-J-10-4.bmp\",\"zasa:ha\",\"Down\",\"38\",\"1\",\"9\",\"6B\",\"C2\",\"J\",\"9\"
\"\",\"\",\"approach-retreat\",\"13\",\"277049\",\"0.0-13.0\",\"\",\"\",\"3-1\",\"3863\",\"39\",\"0\",\"Training\",\"Stims/Figures/57-C-30-1.bmp\",\"va:fasha\",\"Left\",\"37\",\"1\",\"10\",\"6B\",\"C1\",\"J\",\"10\"
\"\",\"\",\"approach-retreat\",\"14\",\"287253\",\"0.0-14.0\",\"\",\"\",\"3-1\",\"8698\",\"40\",\"0\",\"Training\",\"Stims/Figures/144-C-30-3.bmp\",\"va:fa:sha\",\"Up\",\"38\",\"1\",\"11\",\"6B\",\"C1\",\"J\",\"11\"
\"\",\"\",\"approach-retreat\",\"15\",\"293051\",\"0.0-15.0\",\"\",\"\",\"3-1\",\"4295\",\"39\",\"1\",\"Training\",\"Stims/Figures/44-C-30-3.bmp\",\"va:sha:va\",\"Right\",\"39\",\"1\",\"12\",\"6B\",\"C1\",\"J\",\"12\"
\"\",\"\",\"approach-retreat\",\"16\",\"298554\",\"0.0-16.0\",\"\",\"\",\"3-1\",\"3998\",\"37\",\"0\",\"Training\",\"Stims/Figures/85-J-0-2.bmp\",\"sasa:ha\",\"Left\",\"39\",\"1\",\"13\",\"6B\",\"C2\",\"J\",\"13\"
\"\",\"\",\"approach-retreat\",\"17\",\"304219\",\"0.0-17.0\",\"\",\"\",\"3-1\",\"4158\",\"40\",\"0\",\"Training\",\"Stims/Figures/102-C-20-4.bmp\",\"vafava\",\"Up\",\"38\",\"1\",\"14\",\"6B\",\"C1\",\"J\",\"14\"
\"\",\"\",\"approach-retreat\",\"18\",\"310149\",\"0.0-18.0\",\"\",\"\",\"3-1\",\"4425\",\"37\",\"1\",\"Training\",\"Stims/Figures/57-J-0-1.bmp\",\"sa:saha\",\"Right\",\"37\",\"1\",\"15\",\"6B\",\"C2\",\"J\",\"15\"
\"\",\"\",\"approach-retreat\",\"19\",\"315923\",\"0.0-19.0\",\"\",\"\",\"3-1\",\"4267\",\"37\",\"0\",\"Training\",\"Stims/Figures/27-J-0-1.bmp\",\"sa:ha:ha\",\"Left\",\"39\",\"1\",\"16\",\"6B\",\"C2\",\"J\",\"16\"
\"\",\"\",\"approach-retreat\",\"20\",\"321147\",\"0.0-20.0\",\"\",\"\",\"3-1\",\"3717\",\"39\",\"0\",\"Training\",\"Stims/Figures/85-J-0-2.bmp\",\"sasa:ha\",\"Right\",\"37\",\"2\",\"1\",\"6B\",\"C2\",\"J\",\"17\"
\"\",\"\",\"approach-retreat\",\"21\",\"326783\",\"0.0-21.0\",\"\",\"\",\"3-1\",\"4130\",\"39\",\"0\",\"Training\",\"Stims/Figures/102-C-20-4.bmp\",\"vafava\",\"Left\",\"37\",\"2\",\"2\",\"6B\",\"C1\",\"J\",\"18\"
\"\",\"\",\"approach-retreat\",\"22\",\"332826\",\"0.0-22.0\",\"\",\"\",\"3-1\",\"4539\",\"40\",\"0\",\"Training\",\"Stims/Figures/27-C-30-1.bmp\",\"fafava\",\"Up\",\"38\",\"2\",\"3\",\"6B\",\"C1\",\"J\",\"19\"
\"\",\"\",\"approach-retreat\",\"23\",\"338614\",\"0.0-23.0\",\"\",\"\",\"3-1\",\"4284\",\"38\",\"0\",\"Training\",\"Stims/Figures/85-C-20-2.bmp\",\"va:shasha\",\"Down\",\"40\",\"2\",\"4\",\"6B\",\"C1\",\"J\",\"20\"
\"\",\"\",\"approach-retreat\",\"24\",\"344207\",\"0.0-24.0\",\"\",\"\",\"3-1\",\"4089\",\"38\",\"1\",\"Training\",\"Stims/Figures/57-J-0-1.bmp\",\"sa:saha\",\"Down\",\"38\",\"2\",\"5\",\"6B\",\"C2\",\"J\",\"21\"
\"\",\"\",\"approach-retreat\",\"25\",\"349867\",\"0.0-25.0\",\"\",\"\",\"3-1\",\"4154\",\"39\",\"0\",\"Training\",\"Stims/Figures/144-J-10-3.bmp\",\"za:haha\",\"Right\",\"37\",\"2\",\"6\",\"6B\",\"C2\",\"J\",\"22\"
\"\",\"\",\"approach-retreat\",\"26\",\"356548\",\"0.0-26.0\",\"\",\"\",\"3-1\",\"5176\",\"38\",\"0\",\"Training\",\"Stims/Figures/84-J-0-2.bmp\",\"sasaza\",\"Up\",\"40\",\"2\",\"7\",\"6B\",\"C2\",\"J\",\"23\"
\"\",\"\",\"approach-retreat\",\"27\",\"362164\",\"0.0-27.0\",\"\",\"\",\"3-1\",\"4112\",\"39\",\"1\",\"Training\",\"Stims/Figures/102-J-10-4.bmp\",\"zahaza\",\"Left\",\"39\",\"2\",\"8\",\"6B\",\"C2\",\"J\",\"24\"
\"\",\"\",\"approach-retreat\",\"28\",\"369487\",\"0.0-28.0\",\"\",\"\",\"3-1\",\"5816\",\"38\",\"0\",\"Training\",\"Stims/Figures/74-C-20-4.bmp\",\"fafasha\",\"Down\",\"40\",\"2\",\"9\",\"6B\",\"C1\",\"J\",\"25\"
\"\",\"\",\"approach-retreat\",\"29\",\"375138\",\"0.0-29.0\",\"\",\"\",\"3-1\",\"4146\",\"40\",\"0\",\"Training\",\"Stims/Figures/144-C-30-3.bmp\",\"va:fa:sha\",\"Up\",\"38\",\"2\",\"10\",\"6B\",\"C1\",\"J\",\"26\"
\"\",\"\",\"approach-retreat\",\"30\",\"380702\",\"0.0-30.0\",\"\",\"\",\"3-1\",\"4060\",\"40\",\"0\",\"Training\",\"Stims/Figures/84-C-20-2.bmp\",\"fasha:sha\",\"Up\",\"38\",\"2\",\"11\",\"6B\",\"C1\",\"J\",\"27\"
\"\",\"\",\"approach-retreat\",\"31\",\"386488\",\"0.0-31.0\",\"\",\"\",\"3-1\",\"4281\",\"39\",\"0\",\"Training\",\"Stims/Figures/44-J-10-3.bmp\",\"za:sa:ha\",\"Right\",\"37\",\"2\",\"12\",\"6B\",\"C2\",\"J\",\"28\"
\"\",\"\",\"approach-retreat\",\"32\",\"391938\",\"0.0-32.0\",\"\",\"\",\"3-1\",\"3945\",\"38\",\"1\",\"Training\",\"Stims/Figures/74-J-10-4.bmp\",\"zasa:ha\",\"Down\",\"38\",\"2\",\"13\",\"6B\",\"C2\",\"J\",\"29\"
\"\",\"\",\"approach-retreat\",\"33\",\"398018\",\"0.0-33.0\",\"\",\"\",\"3-1\",\"4575\",\"39\",\"1\",\"Training\",\"Stims/Figures/27-J-0-1.bmp\",\"sa:ha:ha\",\"Left\",\"39\",\"2\",\"14\",\"6B\",\"C2\",\"J\",\"30\"
\"\",\"\",\"approach-retreat\",\"34\",\"403621\",\"0.0-34.0\",\"\",\"\",\"3-1\",\"4097\",\"37\",\"1\",\"Training\",\"Stims/Figures/57-C-30-1.bmp\",\"va:fasha\",\"Left\",\"37\",\"2\",\"15\",\"6B\",\"C1\",\"J\",\"31\"
\"\",\"\",\"approach-retreat\",\"35\",\"409158\",\"0.0-35.0\",\"\",\"\",\"3-1\",\"4032\",\"39\",\"1\",\"Training\",\"Stims/Figures/44-C-30-3.bmp\",\"va:sha:va\",\"Right\",\"39\",\"2\",\"16\",\"6B\",\"C1\",\"J\",\"32\"
\"\",\"\",\"approach-retreat\",\"36\",\"415553\",\"0.0-36.0\",\"\",\"\",\"3-1\",\"4893\",\"39\",\"1\",\"Training\",\"Stims/Figures/85-C-20-2.bmp\",\"va:shasha\",\"Right\",\"39\",\"3\",\"1\",\"6B\",\"C1\",\"J\",\"33\"
\"\",\"\",\"approach-retreat\",\"37\",\"421188\",\"0.0-37.0\",\"\",\"\",\"3-1\",\"4131\",\"40\",\"0\",\"Training\",\"Stims/Figures/84-C-20-2.bmp\",\"fasha:sha\",\"Up\",\"38\",\"3\",\"2\",\"6B\",\"C1\",\"J\",\"34\"
\"\",\"\",\"approach-retreat\",\"38\",\"426721\",\"0.0-38.0\",\"\",\"\",\"3-1\",\"4029\",\"37\",\"0\",\"Training\",\"Stims/Figures/102-J-10-4.bmp\",\"zahaza\",\"Left\",\"39\",\"3\",\"3\",\"6B\",\"C2\",\"J\",\"35\"
\"\",\"\",\"approach-retreat\",\"39\",\"432538\",\"0.0-39.0\",\"\",\"\",\"3-1\",\"4312\",\"40\",\"0\",\"Training\",\"Stims/Figures/85-J-0-2.bmp\",\"sasa:ha\",\"Down\",\"38\",\"3\",\"4\",\"6B\",\"C2\",\"J\",\"36\"
\"\",\"\",\"approach-retreat\",\"40\",\"438428\",\"0.0-40.0\",\"\",\"\",\"3-1\",\"4386\",\"40\",\"0\",\"Training\",\"Stims/Figures/57-J-0-1.bmp\",\"sa:saha\",\"Down\",\"38\",\"3\",\"5\",\"6B\",\"C2\",\"J\",\"37\"
\"\",\"\",\"approach-retreat\",\"41\",\"444072\",\"0.0-41.0\",\"\",\"\",\"3-1\",\"4139\",\"37\",\"0\",\"Training\",\"Stims/Figures/144-C-30-3.bmp\",\"va:fa:sha\",\"Right\",\"39\",\"3\",\"6\",\"6B\",\"C1\",\"J\",\"38\"
\"\",\"\",\"approach-retreat\",\"42\",\"449862\",\"0.0-42.0\",\"\",\"\",\"3-1\",\"4284\",\"38\",\"0\",\"Training\",\"Stims/Figures/27-C-30-1.bmp\",\"fafava\",\"Down\",\"40\",\"3\",\"7\",\"6B\",\"C1\",\"J\",\"39\"
\"\",\"\",\"approach-retreat\",\"43\",\"455692\",\"0.0-43.0\",\"\",\"\",\"3-1\",\"4326\",\"39\",\"0\",\"Training\",\"Stims/Figures/74-C-20-4.bmp\",\"fafasha\",\"Left\",\"37\",\"3\",\"8\",\"6B\",\"C1\",\"J\",\"40\"
\"\",\"\",\"approach-retreat\",\"44\",\"461238\",\"0.0-44.0\",\"\",\"\",\"3-1\",\"4041\",\"40\",\"0\",\"Training\",\"Stims/Figures/57-C-30-1.bmp\",\"va:fasha\",\"Up\",\"38\",\"3\",\"9\",\"6B\",\"C1\",\"J\",\"41\"
\"\",\"\",\"approach-retreat\",\"45\",\"467097\",\"0.0-45.0\",\"\",\"\",\"3-1\",\"4353\",\"37\",\"1\",\"Training\",\"Stims/Figures/44-C-30-3.bmp\",\"va:sha:va\",\"Left\",\"37\",\"3\",\"10\",\"6B\",\"C1\",\"J\",\"42\"
\"\",\"\",\"approach-retreat\",\"46\",\"473537\",\"0.0-46.0\",\"\",\"\",\"3-1\",\"4935\",\"39\",\"1\",\"Training\",\"Stims/Figures/74-J-10-4.bmp\",\"zasa:ha\",\"Left\",\"39\",\"3\",\"11\",\"6B\",\"C2\",\"J\",\"43\"
\"\",\"\",\"approach-retreat\",\"47\",\"479240\",\"0.0-47.0\",\"\",\"\",\"3-1\",\"4198\",\"38\",\"1\",\"Training\",\"Stims/Figures/102-C-20-4.bmp\",\"vafava\",\"Up\",\"38\",\"3\",\"12\",\"6B\",\"C1\",\"J\",\"44\"
\"\",\"\",\"approach-retreat\",\"48\",\"484826\",\"0.0-48.0\",\"\",\"\",\"3-1\",\"4080\",\"39\",\"0\",\"Training\",\"Stims/Figures/44-J-10-3.bmp\",\"za:sa:ha\",\"Right\",\"37\",\"3\",\"13\",\"6B\",\"C2\",\"J\",\"45\"
\"\",\"\",\"approach-retreat\",\"49\",\"490558\",\"0.0-49.0\",\"\",\"\",\"3-1\",\"4227\",\"38\",\"1\",\"Training\",\"Stims/Figures/27-J-0-1.bmp\",\"sa:ha:ha\",\"Down\",\"38\",\"3\",\"14\",\"6B\",\"C2\",\"J\",\"46\"
\"\",\"\",\"approach-retreat\",\"50\",\"496306\",\"0.0-50.0\",\"\",\"\",\"3-1\",\"4245\",\"37\",\"1\",\"Training\",\"Stims/Figures/84-J-0-2.bmp\",\"sasaza\",\"Right\",\"37\",\"3\",\"15\",\"6B\",\"C2\",\"J\",\"47\"
\"\",\"\",\"approach-retreat\",\"51\",\"501853\",\"0.0-51.0\",\"\",\"\",\"3-1\",\"4044\",\"38\",\"0\",\"Training\",\"Stims/Figures/144-J-10-3.bmp\",\"za:haha\",\"Up\",\"40\",\"3\",\"16\",\"6B\",\"C2\",\"J\",\"48\"
\"\",\"\",\"approach-retreat\",\"52\",\"507476\",\"0.0-52.0\",\"\",\"\",\"3-1\",\"4117\",\"38\",\"0\",\"Training\",\"Stims/Figures/84-C-20-2.bmp\",\"fasha:sha\",\"Down\",\"40\",\"4\",\"1\",\"6B\",\"C1\",\"J\",\"49\"
\"\",\"\",\"approach-retreat\",\"53\",\"512998\",\"0.0-53.0\",\"\",\"\",\"3-1\",\"4016\",\"39\",\"1\",\"Training\",\"Stims/Figures/74-J-10-4.bmp\",\"zasa:ha\",\"Left\",\"39\",\"4\",\"2\",\"6B\",\"C2\",\"J\",\"50\"
\"\",\"\",\"approach-retreat\",\"54\",\"518562\",\"0.0-54.0\",\"\",\"\",\"3-1\",\"4062\",\"38\",\"1\",\"Training\",\"Stims/Figures/57-J-0-1.bmp\",\"sa:saha\",\"Down\",\"38\",\"4\",\"3\",\"6B\",\"C2\",\"J\",\"51\"
\"\",\"\",\"approach-retreat\",\"55\",\"524262\",\"0.0-55.0\",\"\",\"\",\"3-1\",\"4195\",\"38\",\"1\",\"Training\",\"Stims/Figures/27-C-30-1.bmp\",\"fafava\",\"Up\",\"38\",\"4\",\"4\",\"6B\",\"C1\",\"J\",\"52\"
\"\",\"\",\"approach-retreat\",\"56\",\"529707\",\"0.0-56.0\",\"\",\"\",\"3-1\",\"3938\",\"37\",\"1\",\"Training\",\"Stims/Figures/44-J-10-3.bmp\",\"za:sa:ha\",\"Right\",\"37\",\"4\",\"5\",\"6B\",\"C2\",\"J\",\"53\"
\"\",\"\",\"approach-retreat\",\"57\",\"535674\",\"0.0-57.0\",\"\",\"\",\"3-1\",\"4463\",\"38\",\"1\",\"Training\",\"Stims/Figures/74-C-20-4.bmp\",\"fafasha\",\"Up\",\"38\",\"4\",\"6\",\"6B\",\"C1\",\"J\",\"54\"
\"\",\"\",\"approach-retreat\",\"58\",\"541259\",\"0.0-58.0\",\"\",\"\",\"3-1\",\"4082\",\"39\",\"0\",\"Training\",\"Stims/Figures/57-C-30-1.bmp\",\"va:fasha\",\"Left\",\"37\",\"4\",\"7\",\"6B\",\"C1\",\"J\",\"55\"
\"\",\"\",\"approach-retreat\",\"59\",\"547214\",\"0.0-59.0\",\"\",\"\",\"3-1\",\"4451\",\"40\",\"1\",\"Training\",\"Stims/Figures/27-J-0-1.bmp\",\"sa:ha:ha\",\"Up\",\"40\",\"4\",\"8\",\"6B\",\"C2\",\"J\",\"56\"
\"\",\"\",\"approach-retreat\",\"60\",\"553499\",\"0.0-60.0\",\"\",\"\",\"3-1\",\"4779\",\"37\",\"0\",\"Training\",\"Stims/Figures/144-C-30-3.bmp\",\"va:fa:sha\",\"Right\",\"39\",\"4\",\"9\",\"6B\",\"C1\",\"J\",\"57\"
\"\",\"\",\"approach-retreat\",\"61\",\"559151\",\"0.0-61.0\",\"\",\"\",\"3-1\",\"4145\",\"39\",\"0\",\"Training\",\"Stims/Figures/85-J-0-2.bmp\",\"sasa:ha\",\"Right\",\"37\",\"4\",\"10\",\"6B\",\"C2\",\"J\",\"58\"
\"\",\"\",\"approach-retreat\",\"62\",\"564918\",\"0.0-62.0\",\"\",\"\",\"3-1\",\"4262\",\"40\",\"1\",\"Training\",\"Stims/Figures/85-C-20-2.bmp\",\"va:shasha\",\"Down\",\"40\",\"4\",\"11\",\"6B\",\"C1\",\"J\",\"59\"
\"\",\"\",\"approach-retreat\",\"63\",\"570726\",\"0.0-63.0\",\"\",\"\",\"3-1\",\"4302\",\"39\",\"0\",\"Training\",\"Stims/Figures/44-C-30-3.bmp\",\"va:sha:va\",\"Left\",\"37\",\"4\",\"12\",\"6B\",\"C1\",\"J\",\"60\"
\"\",\"\",\"approach-retreat\",\"64\",\"576429\",\"0.0-64.0\",\"\",\"\",\"3-1\",\"4198\",\"40\",\"1\",\"Training\",\"Stims/Figures/144-J-10-3.bmp\",\"za:haha\",\"Up\",\"40\",\"4\",\"13\",\"6B\",\"C2\",\"J\",\"61\"
\"\",\"\",\"approach-retreat\",\"65\",\"582163\",\"0.0-65.0\",\"\",\"\",\"3-1\",\"4231\",\"40\",\"1\",\"Training\",\"Stims/Figures/102-C-20-4.bmp\",\"vafava\",\"Down\",\"40\",\"4\",\"14\",\"6B\",\"C1\",\"J\",\"62\"
\"\",\"\",\"approach-retreat\",\"66\",\"587970\",\"0.0-66.0\",\"\",\"\",\"3-1\",\"4302\",\"37\",\"0\",\"Training\",\"Stims/Figures/102-J-10-4.bmp\",\"zahaza\",\"Left\",\"39\",\"4\",\"15\",\"6B\",\"C2\",\"J\",\"63\"
\"\",\"\",\"approach-retreat\",\"67\",\"593568\",\"0.0-67.0\",\"\",\"\",\"3-1\",\"4095\",\"37\",\"1\",\"Training\",\"Stims/Figures/84-J-0-2.bmp\",\"sasaza\",\"Right\",\"37\",\"4\",\"16\",\"6B\",\"C2\",\"J\",\"64\"
\"\",\"\",\"approach-retreat\",\"68\",\"599068\",\"0.0-68.0\",\"\",\"\",\"3-1\",\"3997\",\"39\",\"1\",\"Training\",\"Stims/Figures/74-C-20-4.bmp\",\"fafasha\",\"Right\",\"39\",\"5\",\"1\",\"6B\",\"C1\",\"J\",\"65\"
\"\",\"\",\"approach-retreat\",\"69\",\"605139\",\"0.0-69.0\",\"\",\"\",\"3-1\",\"4568\",\"40\",\"1\",\"Training\",\"Stims/Figures/27-C-30-1.bmp\",\"fafava\",\"Down\",\"40\",\"5\",\"2\",\"6B\",\"C1\",\"J\",\"66\"
\"\",\"\",\"approach-retreat\",\"70\",\"610666\",\"0.0-70.0\",\"\",\"\",\"3-1\",\"4023\",\"39\",\"1\",\"Training\",\"Stims/Figures/74-J-10-4.bmp\",\"zasa:ha\",\"Left\",\"39\",\"5\",\"3\",\"6B\",\"C2\",\"J\",\"67\"
\"\",\"\",\"approach-retreat\",\"71\",\"616300\",\"0.0-71.0\",\"\",\"\",\"3-1\",\"4128\",\"40\",\"0\",\"Training\",\"Stims/Figures/84-C-20-2.bmp\",\"fasha:sha\",\"Up\",\"38\",\"5\",\"4\",\"6B\",\"C1\",\"J\",\"68\"
\"\",\"\",\"approach-retreat\",\"72\",\"621738\",\"0.0-72.0\",\"\",\"\",\"3-1\",\"3935\",\"37\",\"1\",\"Training\",\"Stims/Figures/27-J-0-1.bmp\",\"sa:ha:ha\",\"Right\",\"37\",\"5\",\"5\",\"6B\",\"C2\",\"J\",\"69\"
\"\",\"\",\"approach-retreat\",\"73\",\"627120\",\"0.0-73.0\",\"\",\"\",\"3-1\",\"3879\",\"39\",\"1\",\"Training\",\"Stims/Figures/85-J-0-2.bmp\",\"sasa:ha\",\"Left\",\"39\",\"5\",\"6\",\"6B\",\"C2\",\"J\",\"70\"
\"\",\"\",\"approach-retreat\",\"74\",\"632641\",\"0.0-74.0\",\"\",\"\",\"3-1\",\"4016\",\"39\",\"1\",\"Training\",\"Stims/Figures/102-C-20-4.bmp\",\"vafava\",\"Right\",\"39\",\"5\",\"7\",\"6B\",\"C1\",\"J\",\"71\"
\"\",\"\",\"approach-retreat\",\"75\",\"638263\",\"0.0-75.0\",\"\",\"\",\"3-1\",\"4116\",\"40\",\"0\",\"Training\",\"Stims/Figures/144-C-30-3.bmp\",\"va:fa:sha\",\"Up\",\"38\",\"5\",\"8\",\"6B\",\"C1\",\"J\",\"72\"
\"\",\"\",\"approach-retreat\",\"76\",\"643976\",\"0.0-76.0\",\"\",\"\",\"3-1\",\"4208\",\"40\",\"1\",\"Training\",\"Stims/Figures/102-J-10-4.bmp\",\"zahaza\",\"Up\",\"40\",\"5\",\"9\",\"6B\",\"C2\",\"J\",\"73\"
\"\",\"\",\"approach-retreat\",\"77\",\"649666\",\"0.0-77.0\",\"\",\"\",\"3-1\",\"4185\",\"40\",\"0\",\"Training\",\"Stims/Figures/144-J-10-3.bmp\",\"za:haha\",\"Down\",\"38\",\"5\",\"10\",\"6B\",\"C2\",\"J\",\"74\"
\"\",\"\",\"approach-retreat\",\"78\",\"655295\",\"0.0-78.0\",\"\",\"\",\"3-1\",\"4126\",\"37\",\"0\",\"Training\",\"Stims/Figures/85-C-20-2.bmp\",\"va:shasha\",\"Right\",\"39\",\"5\",\"11\",\"6B\",\"C1\",\"J\",\"75\"
\"\",\"\",\"approach-retreat\",\"79\",\"660848\",\"0.0-79.0\",\"\",\"\",\"3-1\",\"4047\",\"39\",\"1\",\"Training\",\"Stims/Figures/44-J-10-3.bmp\",\"za:sa:ha\",\"Left\",\"39\",\"5\",\"12\",\"6B\",\"C2\",\"J\",\"76\"
\"\",\"\",\"approach-retreat\",\"80\",\"666854\",\"0.0-80.0\",\"\",\"\",\"3-1\",\"4498\",\"39\",\"0\",\"Training\",\"Stims/Figures/57-C-30-1.bmp\",\"va:fasha\",\"Left\",\"37\",\"5\",\"13\",\"6B\",\"C1\",\"J\",\"77\"
\"\",\"\",\"approach-retreat\",\"81\",\"672597\",\"0.0-81.0\",\"\",\"\",\"3-1\",\"4238\",\"40\",\"1\",\"Training\",\"Stims/Figures/57-J-0-1.bmp\",\"sa:saha\",\"Up\",\"40\",\"5\",\"14\",\"6B\",\"C2\",\"J\",\"78\"
\"\",\"\",\"approach-retreat\",\"82\",\"678281\",\"0.0-82.0\",\"\",\"\",\"3-1\",\"4180\",\"38\",\"0\",\"Training\",\"Stims/Figures/44-C-30-3.bmp\",\"va:sha:va\",\"Down\",\"40\",\"5\",\"15\",\"6B\",\"C1\",\"J\",\"79\"
\"\",\"\",\"approach-retreat\",\"83\",\"684087\",\"0.0-83.0\",\"\",\"\",\"3-1\",\"4301\",\"38\",\"1\",\"Training\",\"Stims/Figures/84-J-0-2.bmp\",\"sasaza\",\"Down\",\"38\",\"5\",\"16\",\"6B\",\"C2\",\"J\",\"80\"
\"\",\"\",\"approach-retreat\",\"84\",\"689568\",\"0.0-84.0\",\"\",\"\",\"3-1\",\"3978\",\"40\",\"0\",\"Training\",\"Stims/Figures/144-C-30-3.bmp\",\"va:fa:sha\",\"Up\",\"38\",\"6\",\"1\",\"6B\",\"C1\",\"J\",\"81\"
\"\",\"\",\"approach-retreat\",\"85\",\"695252\",\"0.0-85.0\",\"\",\"\",\"3-1\",\"4177\",\"40\",\"0\",\"Training\",\"Stims/Figures/44-C-30-3.bmp\",\"va:sha:va\",\"Up\",\"38\",\"6\",\"2\",\"6B\",\"C1\",\"J\",\"82\"
\"\",\"\",\"approach-retreat\",\"86\",\"700777\",\"0.0-86.0\",\"\",\"\",\"3-1\",\"4021\",\"39\",\"0\",\"Training\",\"Stims/Figures/74-C-20-4.bmp\",\"fafasha\",\"Left\",\"37\",\"6\",\"3\",\"6B\",\"C1\",\"J\",\"83\"
\"\",\"\",\"approach-retreat\",\"87\",\"706424\",\"0.0-87.0\",\"\",\"\",\"3-1\",\"4139\",\"38\",\"1\",\"Training\",\"Stims/Figures/57-J-0-1.bmp\",\"sa:saha\",\"Down\",\"38\",\"6\",\"4\",\"6B\",\"C2\",\"J\",\"84\"
\"\",\"\",\"approach-retreat\",\"88\",\"711842\",\"0.0-88.0\",\"\",\"\",\"3-1\",\"3915\",\"40\",\"1\",\"Training\",\"Stims/Figures/84-J-0-2.bmp\",\"sasaza\",\"Up\",\"40\",\"6\",\"5\",\"6B\",\"C2\",\"J\",\"85\"
\"\",\"\",\"approach-retreat\",\"89\",\"717366\",\"0.0-89.0\",\"\",\"\",\"3-1\",\"4018\",\"38\",\"0\",\"Training\",\"Stims/Figures/102-C-20-4.bmp\",\"vafava\",\"Down\",\"40\",\"6\",\"6\",\"6B\",\"C1\",\"J\",\"86\"
\"\",\"\",\"approach-retreat\",\"90\",\"722947\",\"0.0-90.0\",\"\",\"\",\"3-1\",\"4076\",\"40\",\"1\",\"Training\",\"Stims/Figures/102-J-10-4.bmp\",\"zahaza\",\"Up\",\"40\",\"6\",\"7\",\"6B\",\"C2\",\"J\",\"87\"
\"\",\"\",\"approach-retreat\",\"91\",\"728697\",\"0.0-91.0\",\"\",\"\",\"3-1\",\"4244\",\"37\",\"1\",\"Training\",\"Stims/Figures/84-C-20-2.bmp\",\"fasha:sha\",\"Left\",\"37\",\"6\",\"8\",\"6B\",\"C1\",\"J\",\"88\"
\"\",\"\",\"approach-retreat\",\"92\",\"734527\",\"0.0-92.0\",\"\",\"\",\"3-1\",\"4323\",\"38\",\"0\",\"Training\",\"Stims/Figures/57-C-30-1.bmp\",\"va:fasha\",\"Down\",\"40\",\"6\",\"9\",\"6B\",\"C1\",\"J\",\"89\"
\"\",\"\",\"approach-retreat\",\"93\",\"740000\",\"0.0-93.0\",\"\",\"\",\"3-1\",\"3968\",\"39\",\"1\",\"Training\",\"Stims/Figures/85-J-0-2.bmp\",\"sasa:ha\",\"Left\",\"39\",\"6\",\"10\",\"6B\",\"C2\",\"J\",\"90\"
\"\",\"\",\"approach-retreat\",\"94\",\"745495\",\"0.0-94.0\",\"\",\"\",\"3-1\",\"3991\",\"39\",\"1\",\"Training\",\"Stims/Figures/44-J-10-3.bmp\",\"za:sa:ha\",\"Left\",\"39\",\"6\",\"11\",\"6B\",\"C2\",\"J\",\"91\"
\"\",\"\",\"approach-retreat\",\"95\",\"751222\",\"0.0-95.0\",\"\",\"\",\"3-1\",\"4223\",\"37\",\"1\",\"Training\",\"Stims/Figures/144-J-10-3.bmp\",\"za:haha\",\"Right\",\"37\",\"6\",\"12\",\"6B\",\"C2\",\"J\",\"92\"
\"\",\"\",\"approach-retreat\",\"96\",\"756955\",\"0.0-96.0\",\"\",\"\",\"3-1\",\"4227\",\"37\",\"1\",\"Training\",\"Stims/Figures/74-J-10-4.bmp\",\"zasa:ha\",\"Right\",\"37\",\"6\",\"13\",\"6B\",\"C2\",\"J\",\"93\"
\"\",\"\",\"approach-retreat\",\"97\",\"762497\",\"0.0-97.0\",\"\",\"\",\"3-1\",\"4040\",\"39\",\"0\",\"Training\",\"Stims/Figures/27-J-0-1.bmp\",\"sa:ha:ha\",\"Right\",\"37\",\"6\",\"14\",\"6B\",\"C2\",\"J\",\"94\"
\"\",\"\",\"approach-retreat\",\"98\",\"768099\",\"0.0-98.0\",\"\",\"\",\"3-1\",\"4099\",\"37\",\"0\",\"Training\",\"Stims/Figures/85-C-20-2.bmp\",\"va:shasha\",\"Right\",\"39\",\"6\",\"15\",\"6B\",\"C1\",\"J\",\"95\"
\"\",\"\",\"approach-retreat\",\"99\",\"773865\",\"0.0-99.0\",\"\",\"\",\"3-1\",\"4258\",\"40\",\"1\",\"Training\",\"Stims/Figures/27-C-30-1.bmp\",\"fafava\",\"Down\",\"40\",\"6\",\"16\",\"6B\",\"C1\",\"J\",\"96\"
\"\",\"\",\"approach-retreat\",\"100\",\"779646\",\"0.0-100.0\",\"\",\"\",\"3-1\",\"4275\",\"37\",\"1\",\"Training\",\"Stims/Figures/27-J-0-1.bmp\",\"sa:ha:ha\",\"Right\",\"37\",\"7\",\"1\",\"6B\",\"C2\",\"J\",\"97\"
\"\",\"\",\"approach-retreat\",\"101\",\"785134\",\"0.0-101.0\",\"\",\"\",\"3-1\",\"3984\",\"38\",\"1\",\"Training\",\"Stims/Figures/57-C-30-1.bmp\",\"va:fasha\",\"Up\",\"38\",\"7\",\"2\",\"6B\",\"C1\",\"J\",\"98\"
\"\",\"\",\"approach-retreat\",\"102\",\"790699\",\"0.0-102.0\",\"\",\"\",\"3-1\",\"4061\",\"37\",\"1\",\"Training\",\"Stims/Figures/84-J-0-2.bmp\",\"sasaza\",\"Right\",\"37\",\"7\",\"3\",\"6B\",\"C2\",\"J\",\"99\"
\"\",\"\",\"approach-retreat\",\"103\",\"796205\",\"0.0-103.0\",\"\",\"\",\"3-1\",\"4001\",\"39\",\"1\",\"Training\",\"Stims/Figures/44-J-10-3.bmp\",\"za:sa:ha\",\"Left\",\"39\",\"7\",\"4\",\"6B\",\"C2\",\"J\",\"100\"
\"\",\"\",\"approach-retreat\",\"104\",\"801938\",\"0.0-104.0\",\"\",\"\",\"3-1\",\"4230\",\"38\",\"1\",\"Training\",\"Stims/Figures/74-C-20-4.bmp\",\"fafasha\",\"Up\",\"38\",\"7\",\"5\",\"6B\",\"C1\",\"J\",\"101\"
\"\",\"\",\"approach-retreat\",\"105\",\"807749\",\"0.0-105.0\",\"\",\"\",\"3-1\",\"4306\",\"40\",\"1\",\"Training\",\"Stims/Figures/84-C-20-2.bmp\",\"fasha:sha\",\"Down\",\"40\",\"7\",\"6\",\"6B\",\"C1\",\"J\",\"102\"
\"\",\"\",\"approach-retreat\",\"106\",\"813437\",\"0.0-106.0\",\"\",\"\",\"3-1\",\"4184\",\"39\",\"1\",\"Training\",\"Stims/Figures/144-C-30-3.bmp\",\"va:fa:sha\",\"Right\",\"39\",\"7\",\"7\",\"6B\",\"C1\",\"J\",\"103\"
\"\",\"\",\"approach-retreat\",\"107\",\"819058\",\"0.0-107.0\",\"\",\"\",\"3-1\",\"4116\",\"38\",\"0\",\"Training\",\"Stims/Figures/85-J-0-2.bmp\",\"sasa:ha\",\"Up\",\"40\",\"7\",\"8\",\"6B\",\"C2\",\"J\",\"104\"
\"\",\"\",\"approach-retreat\",\"108\",\"824629\",\"0.0-108.0\",\"\",\"\",\"3-1\",\"4067\",\"40\",\"1\",\"Training\",\"Stims/Figures/27-C-30-1.bmp\",\"fafava\",\"Down\",\"40\",\"7\",\"9\",\"6B\",\"C1\",\"J\",\"105\"
\"\",\"\",\"approach-retreat\",\"109\",\"830736\",\"0.0-109.0\",\"\",\"\",\"3-1\",\"4602\",\"38\",\"1\",\"Training\",\"Stims/Figures/144-J-10-3.bmp\",\"za:haha\",\"Down\",\"38\",\"7\",\"10\",\"6B\",\"C2\",\"J\",\"106\"
\"\",\"\",\"approach-retreat\",\"110\",\"836451\",\"0.0-110.0\",\"\",\"\",\"3-1\",\"4211\",\"37\",\"0\",\"Training\",\"Stims/Figures/74-J-10-4.bmp\",\"zasa:ha\",\"Left\",\"39\",\"7\",\"11\",\"6B\",\"C2\",\"J\",\"107\"
\"\",\"\",\"approach-retreat\",\"111\",\"841903\",\"0.0-111.0\",\"\",\"\",\"3-1\",\"3948\",\"37\",\"1\",\"Training\",\"Stims/Figures/102-J-10-4.bmp\",\"zahaza\",\"Right\",\"37\",\"7\",\"12\",\"6B\",\"C2\",\"J\",\"108\"
\"\",\"\",\"approach-retreat\",\"112\",\"847562\",\"0.0-112.0\",\"\",\"\",\"3-1\",\"4153\",\"38\",\"0\",\"Training\",\"Stims/Figures/44-C-30-3.bmp\",\"va:sha:va\",\"Down\",\"40\",\"7\",\"13\",\"6B\",\"C1\",\"J\",\"109\"
\"\",\"\",\"approach-retreat\",\"113\",\"853048\",\"0.0-113.0\",\"\",\"\",\"3-1\",\"3981\",\"37\",\"1\",\"Training\",\"Stims/Figures/85-C-20-2.bmp\",\"va:shasha\",\"Left\",\"37\",\"7\",\"14\",\"6B\",\"C1\",\"J\",\"110\"
\"\",\"\",\"approach-retreat\",\"114\",\"858610\",\"0.0-114.0\",\"\",\"\",\"3-1\",\"4059\",\"37\",\"0\",\"Training\",\"Stims/Figures/57-J-0-1.bmp\",\"sa:saha\",\"Left\",\"39\",\"7\",\"15\",\"6B\",\"C2\",\"J\",\"111\"
\"\",\"\",\"approach-retreat\",\"115\",\"864158\",\"0.0-115.0\",\"\",\"\",\"3-1\",\"4041\",\"38\",\"1\",\"Training\",\"Stims/Figures/102-C-20-4.bmp\",\"vafava\",\"Up\",\"38\",\"7\",\"16\",\"6B\",\"C1\",\"J\",\"112\"
\"\",\"\",\"approach-retreat\",\"116\",\"870225\",\"0.0-116.0\",\"\",\"\",\"3-1\",\"4561\",\"39\",\"0\",\"Training\",\"Stims/Figures/102-J-10-4.bmp\",\"zahaza\",\"Right\",\"37\",\"8\",\"1\",\"6B\",\"C2\",\"J\",\"113\"
\"\",\"\",\"approach-retreat\",\"117\",\"876032\",\"0.0-117.0\",\"\",\"\",\"3-1\",\"4303\",\"40\",\"1\",\"Training\",\"Stims/Figures/74-C-20-4.bmp\",\"fafasha\",\"Down\",\"40\",\"8\",\"2\",\"6B\",\"C1\",\"J\",\"114\"
\"\",\"\",\"approach-retreat\",\"118\",\"881582\",\"0.0-118.0\",\"\",\"\",\"3-1\",\"4046\",\"38\",\"1\",\"Training\",\"Stims/Figures/57-C-30-1.bmp\",\"va:fasha\",\"Up\",\"38\",\"8\",\"3\",\"6B\",\"C1\",\"J\",\"115\"
\"\",\"\",\"approach-retreat\",\"119\",\"887355\",\"0.0-119.0\",\"\",\"\",\"3-1\",\"4269\",\"39\",\"0\",\"Training\",\"Stims/Figures/57-J-0-1.bmp\",\"sa:saha\",\"Right\",\"37\",\"8\",\"4\",\"6B\",\"C2\",\"J\",\"116\"
\"\",\"\",\"approach-retreat\",\"120\",\"892938\",\"0.0-120.0\",\"\",\"\",\"3-1\",\"4079\",\"37\",\"0\",\"Training\",\"Stims/Figures/144-J-10-3.bmp\",\"za:haha\",\"Left\",\"39\",\"8\",\"5\",\"6B\",\"C2\",\"J\",\"117\"
\"\",\"\",\"approach-retreat\",\"121\",\"898753\",\"0.0-121.0\",\"\",\"\",\"3-1\",\"4308\",\"38\",\"0\",\"Training\",\"Stims/Figures/27-J-0-1.bmp\",\"sa:ha:ha\",\"Up\",\"40\",\"8\",\"6\",\"6B\",\"C2\",\"J\",\"118\"
\"\",\"\",\"approach-retreat\",\"122\",\"904602\",\"0.0-122.0\",\"\",\"\",\"3-1\",\"4345\",\"39\",\"0\",\"Training\",\"Stims/Figures/102-C-20-4.bmp\",\"vafava\",\"Left\",\"37\",\"8\",\"7\",\"6B\",\"C1\",\"J\",\"119\"
\"\",\"\",\"approach-retreat\",\"123\",\"910206\",\"0.0-123.0\",\"\",\"\",\"3-1\",\"4097\",\"39\",\"1\",\"Training\",\"Stims/Figures/44-C-30-3.bmp\",\"va:sha:va\",\"Right\",\"39\",\"8\",\"8\",\"6B\",\"C1\",\"J\",\"120\"
\"\",\"\",\"approach-retreat\",\"124\",\"916114\",\"0.0-124.0\",\"\",\"\",\"3-1\",\"4405\",\"40\",\"1\",\"Training\",\"Stims/Figures/84-C-20-2.bmp\",\"fasha:sha\",\"Down\",\"40\",\"8\",\"9\",\"6B\",\"C1\",\"J\",\"121\"
\"\",\"\",\"approach-retreat\",\"125\",\"921897\",\"0.0-125.0\",\"\",\"\",\"3-1\",\"4275\",\"40\",\"1\",\"Training\",\"Stims/Figures/84-J-0-2.bmp\",\"sasaza\",\"Up\",\"40\",\"8\",\"10\",\"6B\",\"C2\",\"J\",\"122\"
\"\",\"\",\"approach-retreat\",\"126\",\"927613\",\"0.0-126.0\",\"\",\"\",\"3-1\",\"4212\",\"40\",\"0\",\"Training\",\"Stims/Figures/44-J-10-3.bmp\",\"za:sa:ha\",\"Down\",\"38\",\"8\",\"11\",\"6B\",\"C2\",\"J\",\"123\"
\"\",\"\",\"approach-retreat\",\"127\",\"933918\",\"0.0-127.0\",\"\",\"\",\"3-1\",\"4799\",\"40\",\"0\",\"Training\",\"Stims/Figures/144-C-30-3.bmp\",\"va:fa:sha\",\"Up\",\"38\",\"8\",\"12\",\"6B\",\"C1\",\"J\",\"124\"
\"\",\"\",\"approach-retreat\",\"128\",\"939457\",\"0.0-128.0\",\"\",\"\",\"3-1\",\"4035\",\"39\",\"0\",\"Training\",\"Stims/Figures/27-C-30-1.bmp\",\"fafava\",\"Left\",\"37\",\"8\",\"13\",\"6B\",\"C1\",\"J\",\"125\"
\"\",\"\",\"approach-retreat\",\"129\",\"945085\",\"0.0-129.0\",\"\",\"\",\"3-1\",\"4124\",\"37\",\"0\",\"Training\",\"Stims/Figures/85-J-0-2.bmp\",\"sasa:ha\",\"Left\",\"39\",\"8\",\"14\",\"6B\",\"C2\",\"J\",\"126\"
\"\",\"\",\"approach-retreat\",\"130\",\"951048\",\"0.0-130.0\",\"\",\"\",\"3-1\",\"4456\",\"39\",\"1\",\"Training\",\"Stims/Figures/85-C-20-2.bmp\",\"va:shasha\",\"Right\",\"39\",\"8\",\"15\",\"6B\",\"C1\",\"J\",\"127\"
\"\",\"\",\"approach-retreat\",\"131\",\"956835\",\"0.0-131.0\",\"\",\"\",\"3-1\",\"4284\",\"38\",\"1\",\"Training\",\"Stims/Figures/74-J-10-4.bmp\",\"zasa:ha\",\"Down\",\"38\",\"8\",\"16\",\"6B\",\"C2\",\"J\",\"128\"
\"\",\"\",\"approach-retreat\",\"132\",\"963678\",\"0.0-132.0\",\"\",\"\",\"3-1\",\"5338\",\"40\",\"1\",\"Training\",\"Stims/Figures/44-J-10-3.bmp\",\"za:sa:ha\",\"Up\",\"40\",\"9\",\"1\",\"6B\",\"C2\",\"J\",\"129\"
\"\",\"\",\"approach-retreat\",\"133\",\"969765\",\"0.0-133.0\",\"\",\"\",\"3-1\",\"4583\",\"40\",\"1\",\"Training\",\"Stims/Figures/27-C-30-1.bmp\",\"fafava\",\"Down\",\"40\",\"9\",\"2\",\"6B\",\"C1\",\"J\",\"130\"
\"\",\"\",\"approach-retreat\",\"134\",\"975414\",\"0.0-134.0\",\"\",\"\",\"3-1\",\"4142\",\"40\",\"1\",\"Training\",\"Stims/Figures/57-C-30-1.bmp\",\"va:fasha\",\"Down\",\"40\",\"9\",\"3\",\"6B\",\"C1\",\"J\",\"131\"
\"\",\"\",\"approach-retreat\",\"135\",\"981083\",\"0.0-135.0\",\"\",\"\",\"3-1\",\"4163\",\"37\",\"1\",\"Training\",\"Stims/Figures/84-C-20-2.bmp\",\"fasha:sha\",\"Left\",\"37\",\"9\",\"4\",\"6B\",\"C1\",\"J\",\"132\"
\"\",\"\",\"approach-retreat\",\"136\",\"986759\",\"0.0-136.0\",\"\",\"\",\"3-1\",\"4170\",\"37\",\"1\",\"Training\",\"Stims/Figures/74-J-10-4.bmp\",\"zasa:ha\",\"Right\",\"37\",\"9\",\"5\",\"6B\",\"C2\",\"J\",\"133\"
\"\",\"\",\"approach-retreat\",\"137\",\"992376\",\"0.0-137.0\",\"\",\"\",\"3-1\",\"4114\",\"37\",\"1\",\"Training\",\"Stims/Figures/85-J-0-2.bmp\",\"sasa:ha\",\"Right\",\"37\",\"9\",\"6\",\"6B\",\"C2\",\"J\",\"134\"
\"\",\"\",\"approach-retreat\",\"138\",\"997991\",\"0.0-138.0\",\"\",\"\",\"3-1\",\"4112\",\"40\",\"1\",\"Training\",\"Stims/Figures/74-C-20-4.bmp\",\"fafasha\",\"Down\",\"40\",\"9\",\"7\",\"6B\",\"C1\",\"J\",\"135\"
\"\",\"\",\"approach-retreat\",\"139\",\"1004324\",\"0.0-139.0\",\"\",\"\",\"3-1\",\"4825\",\"38\",\"1\",\"Training\",\"Stims/Figures/44-C-30-3.bmp\",\"va:sha:va\",\"Up\",\"38\",\"9\",\"8\",\"6B\",\"C1\",\"J\",\"136\"
\"\",\"\",\"approach-retreat\",\"140\",\"1009983\",\"0.0-140.0\",\"\",\"\",\"3-1\",\"4155\",\"39\",\"1\",\"Training\",\"Stims/Figures/27-J-0-1.bmp\",\"sa:ha:ha\",\"Left\",\"39\",\"9\",\"9\",\"6B\",\"C2\",\"J\",\"137\"
\"\",\"\",\"approach-retreat\",\"141\",\"1015798\",\"0.0-141.0\",\"\",\"\",\"3-1\",\"4311\",\"40\",\"1\",\"Training\",\"Stims/Figures/144-J-10-3.bmp\",\"za:haha\",\"Up\",\"40\",\"9\",\"10\",\"6B\",\"C2\",\"J\",\"138\"
\"\",\"\",\"approach-retreat\",\"142\",\"1021470\",\"0.0-142.0\",\"\",\"\",\"3-1\",\"4168\",\"39\",\"1\",\"Training\",\"Stims/Figures/84-J-0-2.bmp\",\"sasaza\",\"Left\",\"39\",\"9\",\"11\",\"6B\",\"C2\",\"J\",\"139\"
\"\",\"\",\"approach-retreat\",\"143\",\"1027762\",\"0.0-143.0\",\"\",\"\",\"3-1\",\"4787\",\"38\",\"1\",\"Training\",\"Stims/Figures/144-C-30-3.bmp\",\"va:fa:sha\",\"Up\",\"38\",\"9\",\"12\",\"6B\",\"C1\",\"J\",\"140\"
\"\",\"\",\"approach-retreat\",\"144\",\"1033788\",\"0.0-144.0\",\"\",\"\",\"3-1\",\"4522\",\"37\",\"1\",\"Training\",\"Stims/Figures/57-J-0-1.bmp\",\"sa:saha\",\"Right\",\"37\",\"9\",\"13\",\"6B\",\"C2\",\"J\",\"141\"
\"\",\"\",\"approach-retreat\",\"145\",\"1039395\",\"0.0-145.0\",\"\",\"\",\"3-1\",\"4100\",\"39\",\"1\",\"Training\",\"Stims/Figures/85-C-20-2.bmp\",\"va:shasha\",\"Right\",\"39\",\"9\",\"14\",\"6B\",\"C1\",\"J\",\"142\"
\"\",\"\",\"approach-retreat\",\"146\",\"1046118\",\"0.0-146.0\",\"\",\"\",\"3-1\",\"5218\",\"37\",\"1\",\"Training\",\"Stims/Figures/102-C-20-4.bmp\",\"vafava\",\"Left\",\"37\",\"9\",\"15\",\"6B\",\"C1\",\"J\",\"143\"
\"\",\"\",\"approach-retreat\",\"147\",\"1051849\",\"0.0-147.0\",\"\",\"\",\"3-1\",\"4226\",\"38\",\"1\",\"Training\",\"Stims/Figures/102-J-10-4.bmp\",\"zahaza\",\"Down\",\"38\",\"9\",\"16\",\"6B\",\"C2\",\"J\",\"144\"
\"14312\",\"\",\"instructions\",\"148\",\"1066161\",\"0.0-148.0\",\"[{\"\"page_index\"\":0,\"\"viewing_time\"\":14311}]\",\"\",\"\",\"\",\"\",\"\",\"\",\"\",\"\",\"\",\"\",\"\",\"\",\"\",\"\",\"\",\"\"
\"\",\"\",\"approach-retreat\",\"149\",\"1071812\",\"0.0-149.0\",\"\",\"\",\"3-1\",\"4150\",\"37\",\"1\",\"Testing\",\"Stims/Figures/71-J-0-1.bmp\",\"zahaha\",\"Right\",\"37\",\"1\",\"1\",\"6B\",\"C2\",\"J\",\"1\"
\"\",\"\",\"approach-retreat\",\"150\",\"1084535\",\"0.0-150.0\",\"\",\"\",\"3-1\",\"11214\",\"37\",\"0\",\"Testing\",\"Stims/Figures/87-J-10-4.bmp\",\"saha:ha\",\"Left\",\"39\",\"1\",\"2\",\"6B\",\"C2\",\"J\",\"2\"
\"\",\"\",\"approach-retreat\",\"151\",\"1090502\",\"0.0-151.0\",\"\",\"\",\"3-1\",\"4462\",\"37\",\"1\",\"Testing\",\"Stims/Figures/57-J-0-1.bmp\",\"sa:saha\",\"Right\",\"37\",\"1\",\"3\",\"6B\",\"C2\",\"J\",\"3\"
\"\",\"\",\"approach-retreat\",\"152\",\"1100688\",\"0.0-152.0\",\"\",\"\",\"3-1\",\"8681\",\"38\",\"1\",\"Testing\",\"Stims/Figures/74-J-10-4.bmp\",\"zasa:ha\",\"Down\",\"38\",\"1\",\"4\",\"6B\",\"C2\",\"J\",\"4\"
\"\",\"\",\"approach-retreat\",\"153\",\"1106382\",\"0.0-153.0\",\"\",\"\",\"3-1\",\"4190\",\"38\",\"1\",\"Testing\",\"Stims/Figures/27-J-0-1.bmp\",\"sa:ha:ha\",\"Down\",\"38\",\"1\",\"5\",\"6B\",\"C2\",\"J\",\"5\"
\"\",\"\",\"approach-retreat\",\"154\",\"1112425\",\"0.0-154.0\",\"\",\"\",\"3-1\",\"4537\",\"37\",\"1\",\"Testing\",\"Stims/Figures/44-C-30-3.bmp\",\"va:sha:va\",\"Left\",\"37\",\"1\",\"6\",\"6B\",\"C1\",\"J\",\"6\"
\"\",\"\",\"approach-retreat\",\"155\",\"1118032\",\"0.0-155.0\",\"\",\"\",\"3-1\",\"4104\",\"37\",\"1\",\"Testing\",\"Stims/Figures/102-C-20-4.bmp\",\"vafava\",\"Left\",\"37\",\"1\",\"7\",\"6B\",\"C1\",\"J\",\"7\"
\"\",\"\",\"approach-retreat\",\"156\",\"1123606\",\"0.0-156.0\",\"\",\"\",\"3-1\",\"4070\",\"39\",\"1\",\"Testing\",\"Stims/Figures/118-C-20-2.bmp\",\"fa:sha:sha\",\"Right\",\"39\",\"1\",\"8\",\"6B\",\"C1\",\"J\",\"8\"
\"\",\"\",\"approach-retreat\",\"157\",\"1129227\",\"0.0-157.0\",\"\",\"\",\"3-1\",\"4115\",\"37\",\"1\",\"Testing\",\"Stims/Figures/84-J-0-2.bmp\",\"sasaza\",\"Right\",\"37\",\"1\",\"9\",\"6B\",\"C2\",\"J\",\"9\"
\"\",\"\",\"approach-retreat\",\"158\",\"1135056\",\"0.0-158.0\",\"\",\"\",\"3-1\",\"4324\",\"40\",\"1\",\"Testing\",\"Stims/Figures/44-J-10-3.bmp\",\"za:sa:ha\",\"Up\",\"40\",\"1\",\"10\",\"6B\",\"C2\",\"J\",\"10\"
\"\",\"\",\"approach-retreat\",\"159\",\"1140872\",\"0.0-159.0\",\"\",\"\",\"3-1\",\"4310\",\"38\",\"1\",\"Testing\",\"Stims/Figures/118-J-0-2.bmp\",\"zasaha\",\"Down\",\"38\",\"1\",\"11\",\"6B\",\"C2\",\"J\",\"11\"
\"\",\"\",\"approach-retreat\",\"160\",\"1146888\",\"0.0-160.0\",\"\",\"\",\"3-1\",\"4513\",\"39\",\"1\",\"Testing\",\"Stims/Figures/85-J-0-2.bmp\",\"sasa:ha\",\"Left\",\"39\",\"1\",\"12\",\"6B\",\"C2\",\"J\",\"12\"
\"\",\"\",\"approach-retreat\",\"161\",\"1152658\",\"0.0-161.0\",\"\",\"\",\"3-1\",\"4265\",\"40\",\"1\",\"Testing\",\"Stims/Figures/102-J-10-4.bmp\",\"zahaza\",\"Up\",\"40\",\"1\",\"13\",\"6B\",\"C2\",\"J\",\"13\"
\"\",\"\",\"approach-retreat\",\"162\",\"1158370\",\"0.0-162.0\",\"\",\"\",\"3-1\",\"4206\",\"38\",\"1\",\"Testing\",\"Stims/Figures/144-C-30-3.bmp\",\"va:fa:sha\",\"Up\",\"38\",\"1\",\"14\",\"6B\",\"C1\",\"J\",\"14\"
\"\",\"\",\"approach-retreat\",\"163\",\"1164116\",\"0.0-163.0\",\"\",\"\",\"3-1\",\"4241\",\"39\",\"0\",\"Testing\",\"Stims/Figures/111-J-10-3.bmp\",\"sasaha\",\"Right\",\"37\",\"1\",\"15\",\"6B\",\"C2\",\"J\",\"15\"
\"\",\"\",\"approach-retreat\",\"164\",\"1169852\",\"0.0-164.0\",\"\",\"\",\"3-1\",\"4229\",\"38\",\"1\",\"Testing\",\"Stims/Figures/27-C-30-1.bmp\",\"fafava\",\"Up\",\"38\",\"1\",\"16\",\"6B\",\"C1\",\"J\",\"16\"
\"\",\"\",\"approach-retreat\",\"165\",\"1176098\",\"0.0-165.0\",\"\",\"\",\"3-1\",\"4740\",\"40\",\"1\",\"Testing\",\"Stims/Figures/84-C-20-2.bmp\",\"fasha:sha\",\"Down\",\"40\",\"1\",\"17\",\"6B\",\"C1\",\"J\",\"17\"
\"\",\"\",\"approach-retreat\",\"166\",\"1182735\",\"0.0-166.0\",\"\",\"\",\"3-1\",\"5132\",\"40\",\"1\",\"Testing\",\"Stims/Figures/57-C-30-1.bmp\",\"va:fasha\",\"Down\",\"40\",\"1\",\"18\",\"6B\",\"C1\",\"J\",\"18\"
\"\",\"\",\"approach-retreat\",\"167\",\"1188539\",\"0.0-167.0\",\"\",\"\",\"3-1\",\"4296\",\"39\",\"1\",\"Testing\",\"Stims/Figures/87-C-20-4.bmp\",\"fa:fa:sha\",\"Right\",\"39\",\"1\",\"19\",\"6B\",\"C1\",\"J\",\"19\"
\"\",\"\",\"approach-retreat\",\"168\",\"1196596\",\"0.0-168.0\",\"\",\"\",\"3-1\",\"6551\",\"40\",\"1\",\"Testing\",\"Stims/Figures/144-J-10-3.bmp\",\"za:haha\",\"Up\",\"40\",\"1\",\"20\",\"6B\",\"C2\",\"J\",\"20\"
\"\",\"\",\"approach-retreat\",\"169\",\"1202270\",\"0.0-169.0\",\"\",\"\",\"3-1\",\"4169\",\"37\",\"1\",\"Testing\",\"Stims/Figures/85-C-20-2.bmp\",\"va:shasha\",\"Left\",\"37\",\"1\",\"21\",\"6B\",\"C1\",\"J\",\"21\"
\"\",\"\",\"approach-retreat\",\"170\",\"1207946\",\"0.0-170.0\",\"\",\"\",\"3-1\",\"4173\",\"38\",\"1\",\"Testing\",\"Stims/Figures/111-C-30-3.bmp\",\"vafa:va\",\"Up\",\"38\",\"1\",\"22\",\"6B\",\"C1\",\"J\",\"22\"
\"\",\"\",\"approach-retreat\",\"171\",\"1213924\",\"0.0-171.0\",\"\",\"\",\"3-1\",\"4472\",\"40\",\"1\",\"Testing\",\"Stims/Figures/71-C-30-1.bmp\",\"fa:shava\",\"Down\",\"40\",\"1\",\"23\",\"6B\",\"C1\",\"J\",\"23\"
\"\",\"\",\"approach-retreat\",\"172\",\"1220336\",\"0.0-172.0\",\"\",\"\",\"3-1\",\"4907\",\"37\",\"1\",\"Testing\",\"Stims/Figures/74-C-20-4.bmp\",\"fafasha\",\"Left\",\"37\",\"1\",\"24\",\"6B\",\"C1\",\"J\",\"24\"
\"\",\"\",\"approach-retreat\",\"173\",\"1226036\",\"0.0-173.0\",\"\",\"\",\"3-1\",\"4194\",\"39\",\"1\",\"Testing\",\"Stims/Figures/57-C-30-1.bmp\",\"va:fasha\",\"Right\",\"39\",\"2\",\"1\",\"6B\",\"C1\",\"J\",\"25\"
\"\",\"\",\"approach-retreat\",\"174\",\"1232240\",\"0.0-174.0\",\"\",\"\",\"3-1\",\"4700\",\"39\",\"1\",\"Testing\",\"Stims/Figures/74-C-20-4.bmp\",\"fafasha\",\"Right\",\"39\",\"2\",\"2\",\"6B\",\"C1\",\"J\",\"26\"
\"\",\"\",\"approach-retreat\",\"175\",\"1238160\",\"0.0-175.0\",\"\",\"\",\"3-1\",\"4417\",\"38\",\"1\",\"Testing\",\"Stims/Figures/84-C-20-2.bmp\",\"fasha:sha\",\"Up\",\"38\",\"2\",\"3\",\"6B\",\"C1\",\"J\",\"27\"
\"\",\"\",\"approach-retreat\",\"176\",\"1243830\",\"0.0-176.0\",\"\",\"\",\"3-1\",\"4168\",\"38\",\"1\",\"Testing\",\"Stims/Figures/44-J-10-3.bmp\",\"za:sa:ha\",\"Down\",\"38\",\"2\",\"4\",\"6B\",\"C2\",\"J\",\"28\"
\"\",\"\",\"approach-retreat\",\"177\",\"1249542\",\"0.0-177.0\",\"\",\"\",\"3-1\",\"4210\",\"39\",\"1\",\"Testing\",\"Stims/Figures/102-J-10-4.bmp\",\"zahaza\",\"Left\",\"39\",\"2\",\"5\",\"6B\",\"C2\",\"J\",\"29\"
\"\",\"\",\"approach-retreat\",\"178\",\"1255146\",\"0.0-178.0\",\"\",\"\",\"3-1\",\"4098\",\"39\",\"1\",\"Testing\",\"Stims/Figures/74-J-10-4.bmp\",\"zasa:ha\",\"Left\",\"39\",\"2\",\"6\",\"6B\",\"C2\",\"J\",\"30\"
\"\",\"\",\"approach-retreat\",\"179\",\"1260715\",\"0.0-179.0\",\"\",\"\",\"3-1\",\"4066\",\"39\",\"1\",\"Testing\",\"Stims/Figures/84-J-0-2.bmp\",\"sasaza\",\"Left\",\"39\",\"2\",\"7\",\"6B\",\"C2\",\"J\",\"31\"
\"\",\"\",\"approach-retreat\",\"180\",\"1266496\",\"0.0-180.0\",\"\",\"\",\"3-1\",\"4273\",\"40\",\"1\",\"Testing\",\"Stims/Figures/144-C-30-3.bmp\",\"va:fa:sha\",\"Down\",\"40\",\"2\",\"8\",\"6B\",\"C1\",\"J\",\"32\"
\"\",\"\",\"approach-retreat\",\"181\",\"1272453\",\"0.0-181.0\",\"\",\"\",\"3-1\",\"4451\",\"38\",\"1\",\"Testing\",\"Stims/Figures/102-C-20-4.bmp\",\"vafava\",\"Up\",\"38\",\"2\",\"9\",\"6B\",\"C1\",\"J\",\"33\"
\"\",\"\",\"approach-retreat\",\"182\",\"1278414\",\"0.0-182.0\",\"\",\"\",\"3-1\",\"4456\",\"38\",\"1\",\"Testing\",\"Stims/Figures/111-J-10-3.bmp\",\"sasaha\",\"Down\",\"38\",\"2\",\"10\",\"6B\",\"C2\",\"J\",\"34\"
\"\",\"\",\"approach-retreat\",\"183\",\"1284068\",\"0.0-183.0\",\"\",\"\",\"3-1\",\"4149\",\"38\",\"1\",\"Testing\",\"Stims/Figures/87-J-10-4.bmp\",\"saha:ha\",\"Down\",\"38\",\"2\",\"11\",\"6B\",\"C2\",\"J\",\"35\"
\"\",\"\",\"approach-retreat\",\"184\",\"1289568\",\"0.0-184.0\",\"\",\"\",\"3-1\",\"3995\",\"40\",\"1\",\"Testing\",\"Stims/Figures/57-J-0-1.bmp\",\"sa:saha\",\"Up\",\"40\",\"2\",\"12\",\"6B\",\"C2\",\"J\",\"36\"
\"\",\"\",\"approach-retreat\",\"185\",\"1295324\",\"0.0-185.0\",\"\",\"\",\"3-1\",\"4250\",\"38\",\"1\",\"Testing\",\"Stims/Figures/85-C-20-2.bmp\",\"va:shasha\",\"Up\",\"38\",\"2\",\"13\",\"6B\",\"C1\",\"J\",\"37\"
\"\",\"\",\"approach-retreat\",\"186\",\"1300972\",\"0.0-186.0\",\"\",\"\",\"3-1\",\"4142\",\"40\",\"1\",\"Testing\",\"Stims/Figures/27-J-0-1.bmp\",\"sa:ha:ha\",\"Up\",\"40\",\"2\",\"14\",\"6B\",\"C2\",\"J\",\"38\"
\"\",\"\",\"approach-retreat\",\"187\",\"1306748\",\"0.0-187.0\",\"\",\"\",\"3-1\",\"4270\",\"39\",\"1\",\"Testing\",\"Stims/Figures/118-C-20-2.bmp\",\"fa:sha:sha\",\"Right\",\"39\",\"2\",\"15\",\"6B\",\"C1\",\"J\",\"39\"
\"\",\"\",\"approach-retreat\",\"188\",\"1315269\",\"0.0-188.0\",\"\",\"\",\"3-1\",\"7019\",\"37\",\"1\",\"Testing\",\"Stims/Figures/144-J-10-3.bmp\",\"za:haha\",\"Right\",\"37\",\"2\",\"16\",\"6B\",\"C2\",\"J\",\"40\"
\"\",\"\",\"approach-retreat\",\"189\",\"1320865\",\"0.0-189.0\",\"\",\"\",\"3-1\",\"4091\",\"37\",\"1\",\"Testing\",\"Stims/Figures/71-C-30-1.bmp\",\"fa:shava\",\"Left\",\"37\",\"2\",\"17\",\"6B\",\"C1\",\"J\",\"41\"
\"\",\"\",\"approach-retreat\",\"190\",\"1326533\",\"0.0-190.0\",\"\",\"\",\"3-1\",\"4162\",\"39\",\"1\",\"Testing\",\"Stims/Figures/85-J-0-2.bmp\",\"sasa:ha\",\"Left\",\"39\",\"2\",\"18\",\"6B\",\"C2\",\"J\",\"42\"
\"\",\"\",\"approach-retreat\",\"191\",\"1332187\",\"0.0-191.0\",\"\",\"\",\"3-1\",\"4148\",\"38\",\"1\",\"Testing\",\"Stims/Figures/71-J-0-1.bmp\",\"zahaha\",\"Down\",\"38\",\"2\",\"19\",\"6B\",\"C2\",\"J\",\"43\"
\"\",\"\",\"approach-retreat\",\"192\",\"1337786\",\"0.0-192.0\",\"\",\"\",\"3-1\",\"4093\",\"39\",\"1\",\"Testing\",\"Stims/Figures/44-C-30-3.bmp\",\"va:sha:va\",\"Right\",\"39\",\"2\",\"20\",\"6B\",\"C1\",\"J\",\"44\"
\"\",\"\",\"approach-retreat\",\"193\",\"1343429\",\"0.0-193.0\",\"\",\"\",\"3-1\",\"4139\",\"37\",\"1\",\"Testing\",\"Stims/Figures/27-C-30-1.bmp\",\"fafava\",\"Left\",\"37\",\"2\",\"21\",\"6B\",\"C1\",\"J\",\"45\"
\"\",\"\",\"approach-retreat\",\"194\",\"1349064\",\"0.0-194.0\",\"\",\"\",\"3-1\",\"4128\",\"39\",\"1\",\"Testing\",\"Stims/Figures/87-C-20-4.bmp\",\"fa:fa:sha\",\"Right\",\"39\",\"2\",\"22\",\"6B\",\"C1\",\"J\",\"46\"
\"\",\"\",\"approach-retreat\",\"195\",\"1354793\",\"0.0-195.0\",\"\",\"\",\"3-1\",\"4224\",\"38\",\"1\",\"Testing\",\"Stims/Figures/118-J-0-2.bmp\",\"zasaha\",\"Down\",\"38\",\"2\",\"23\",\"6B\",\"C2\",\"J\",\"47\"
\"\",\"\",\"approach-retreat\",\"196\",\"1360566\",\"0.0-196.0\",\"\",\"\",\"3-1\",\"4266\",\"38\",\"1\",\"Testing\",\"Stims/Figures/111-C-30-3.bmp\",\"vafa:va\",\"Up\",\"38\",\"2\",\"24\",\"6B\",\"C1\",\"J\",\"48\"
\"\",\"\",\"approach-retreat\",\"197\",\"1366492\",\"0.0-197.0\",\"\",\"\",\"3-1\",\"4419\",\"37\",\"1\",\"Testing\",\"Stims/Figures/144-C-30-3.bmp\",\"va:fa:sha\",\"Left\",\"37\",\"3\",\"1\",\"6B\",\"C1\",\"J\",\"49\"
\"\",\"\",\"approach-retreat\",\"198\",\"1372177\",\"0.0-198.0\",\"\",\"\",\"3-1\",\"4178\",\"38\",\"1\",\"Testing\",\"Stims/Figures/144-J-10-3.bmp\",\"za:haha\",\"Down\",\"38\",\"3\",\"2\",\"6B\",\"C2\",\"J\",\"50\"
\"\",\"\",\"approach-retreat\",\"199\",\"1377832\",\"0.0-199.0\",\"\",\"\",\"3-1\",\"4149\",\"38\",\"1\",\"Testing\",\"Stims/Figures/111-C-30-3.bmp\",\"vafa:va\",\"Up\",\"38\",\"3\",\"3\",\"6B\",\"C1\",\"J\",\"51\"
\"\",\"\",\"approach-retreat\",\"200\",\"1383477\",\"0.0-200.0\",\"\",\"\",\"3-1\",\"4139\",\"40\",\"1\",\"Testing\",\"Stims/Figures/118-J-0-2.bmp\",\"zasaha\",\"Up\",\"40\",\"3\",\"4\",\"6B\",\"C2\",\"J\",\"52\"
\"\",\"\",\"approach-retreat\",\"201\",\"1391173\",\"0.0-201.0\",\"\",\"\",\"3-1\",\"6191\",\"39\",\"1\",\"Testing\",\"Stims/Figures/102-C-20-4.bmp\",\"vafava\",\"Right\",\"39\",\"3\",\"5\",\"6B\",\"C1\",\"J\",\"53\"
\"\",\"\",\"approach-retreat\",\"202\",\"1396879\",\"0.0-202.0\",\"\",\"\",\"3-1\",\"4200\",\"40\",\"1\",\"Testing\",\"Stims/Figures/111-J-10-3.bmp\",\"sasaha\",\"Up\",\"40\",\"3\",\"6\",\"6B\",\"C2\",\"J\",\"54\"
\"\",\"\",\"approach-retreat\",\"203\",\"1405037\",\"0.0-203.0\",\"\",\"\",\"3-1\",\"6653\",\"39\",\"1\",\"Testing\",\"Stims/Figures/87-J-10-4.bmp\",\"saha:ha\",\"Left\",\"39\",\"3\",\"7\",\"6B\",\"C2\",\"J\",\"55\"
\"\",\"\",\"approach-retreat\",\"204\",\"1410712\",\"0.0-204.0\",\"\",\"\",\"3-1\",\"4170\",\"40\",\"1\",\"Testing\",\"Stims/Figures/87-C-20-4.bmp\",\"fa:fa:sha\",\"Down\",\"40\",\"3\",\"8\",\"6B\",\"C1\",\"J\",\"56\"
\"\",\"\",\"approach-retreat\",\"205\",\"1416258\",\"0.0-205.0\",\"\",\"\",\"3-1\",\"4043\",\"37\",\"1\",\"Testing\",\"Stims/Figures/102-J-10-4.bmp\",\"zahaza\",\"Right\",\"37\",\"3\",\"9\",\"6B\",\"C2\",\"J\",\"57\"
\"\",\"\",\"approach-retreat\",\"206\",\"1421703\",\"0.0-206.0\",\"\",\"\",\"3-1\",\"3939\",\"37\",\"1\",\"Testing\",\"Stims/Figures/57-J-0-1.bmp\",\"sa:saha\",\"Right\",\"37\",\"3\",\"10\",\"6B\",\"C2\",\"J\",\"58\"
\"\",\"\",\"approach-retreat\",\"207\",\"1427149\",\"0.0-207.0\",\"\",\"\",\"3-1\",\"3942\",\"39\",\"1\",\"Testing\",\"Stims/Figures/57-C-30-1.bmp\",\"va:fasha\",\"Right\",\"39\",\"3\",\"11\",\"6B\",\"C1\",\"J\",\"59\"
\"\",\"\",\"approach-retreat\",\"208\",\"1432610\",\"0.0-208.0\",\"\",\"\",\"3-1\",\"3957\",\"37\",\"1\",\"Testing\",\"Stims/Figures/74-J-10-4.bmp\",\"zasa:ha\",\"Right\",\"37\",\"3\",\"12\",\"6B\",\"C2\",\"J\",\"60\"
\"\",\"\",\"approach-retreat\",\"209\",\"1438316\",\"0.0-209.0\",\"\",\"\",\"3-1\",\"4201\",\"39\",\"1\",\"Testing\",\"Stims/Figures/27-J-0-1.bmp\",\"sa:ha:ha\",\"Left\",\"39\",\"3\",\"13\",\"6B\",\"C2\",\"J\",\"61\"
\"\",\"\",\"approach-retreat\",\"210\",\"1443920\",\"0.0-210.0\",\"\",\"\",\"3-1\",\"4099\",\"39\",\"1\",\"Testing\",\"Stims/Figures/74-C-20-4.bmp\",\"fafasha\",\"Right\",\"39\",\"3\",\"14\",\"6B\",\"C1\",\"J\",\"62\"
\"\",\"\",\"approach-retreat\",\"211\",\"1449687\",\"0.0-211.0\",\"\",\"\",\"3-1\",\"4260\",\"38\",\"1\",\"Testing\",\"Stims/Figures/71-J-0-1.bmp\",\"zahaha\",\"Down\",\"38\",\"3\",\"15\",\"6B\",\"C2\",\"J\",\"63\"
\"\",\"\",\"approach-retreat\",\"212\",\"1455382\",\"0.0-212.0\",\"\",\"\",\"3-1\",\"4191\",\"40\",\"1\",\"Testing\",\"Stims/Figures/85-J-0-2.bmp\",\"sasa:ha\",\"Up\",\"40\",\"3\",\"16\",\"6B\",\"C2\",\"J\",\"64\"
\"\",\"\",\"approach-retreat\",\"213\",\"1460977\",\"0.0-213.0\",\"\",\"\",\"3-1\",\"4088\",\"37\",\"1\",\"Testing\",\"Stims/Figures/44-C-30-3.bmp\",\"va:sha:va\",\"Left\",\"37\",\"3\",\"17\",\"6B\",\"C1\",\"J\",\"65\"
\"\",\"\",\"approach-retreat\",\"214\",\"1466632\",\"0.0-214.0\",\"\",\"\",\"3-1\",\"4153\",\"40\",\"1\",\"Testing\",\"Stims/Figures/85-C-20-2.bmp\",\"va:shasha\",\"Down\",\"40\",\"3\",\"18\",\"6B\",\"C1\",\"J\",\"66\"
\"\",\"\",\"approach-retreat\",\"215\",\"1472254\",\"0.0-215.0\",\"\",\"\",\"3-1\",\"4116\",\"40\",\"1\",\"Testing\",\"Stims/Figures/71-C-30-1.bmp\",\"fa:shava\",\"Down\",\"40\",\"3\",\"19\",\"6B\",\"C1\",\"J\",\"67\"
\"\",\"\",\"approach-retreat\",\"216\",\"1477743\",\"0.0-216.0\",\"\",\"\",\"3-1\",\"3984\",\"40\",\"1\",\"Testing\",\"Stims/Figures/44-J-10-3.bmp\",\"za:sa:ha\",\"Up\",\"40\",\"3\",\"20\",\"6B\",\"C2\",\"J\",\"68\"
\"\",\"\",\"approach-retreat\",\"217\",\"1483736\",\"0.0-217.0\",\"\",\"\",\"3-1\",\"4488\",\"40\",\"1\",\"Testing\",\"Stims/Figures/84-C-20-2.bmp\",\"fasha:sha\",\"Down\",\"40\",\"3\",\"21\",\"6B\",\"C1\",\"J\",\"69\"
\"\",\"\",\"approach-retreat\",\"218\",\"1489262\",\"0.0-218.0\",\"\",\"\",\"3-1\",\"4022\",\"39\",\"1\",\"Testing\",\"Stims/Figures/84-J-0-2.bmp\",\"sasaza\",\"Left\",\"39\",\"3\",\"22\",\"6B\",\"C2\",\"J\",\"70\"
\"\",\"\",\"approach-retreat\",\"219\",\"1494939\",\"0.0-219.0\",\"\",\"\",\"3-1\",\"4170\",\"38\",\"1\",\"Testing\",\"Stims/Figures/118-C-20-2.bmp\",\"fa:sha:sha\",\"Up\",\"38\",\"3\",\"23\",\"6B\",\"C1\",\"J\",\"71\"
\"\",\"\",\"approach-retreat\",\"220\",\"1502116\",\"0.0-220.0\",\"\",\"\",\"3-1\",\"5671\",\"37\",\"1\",\"Testing\",\"Stims/Figures/27-C-30-1.bmp\",\"fafava\",\"Left\",\"37\",\"3\",\"24\",\"6B\",\"C1\",\"J\",\"72\"
\"\",\"\",\"approach-retreat\",\"221\",\"1507599\",\"0.0-221.0\",\"\",\"\",\"3-1\",\"3978\",\"37\",\"1\",\"Testing\",\"Stims/Figures/102-C-20-4.bmp\",\"vafava\",\"Left\",\"37\",\"4\",\"1\",\"6B\",\"C1\",\"J\",\"73\"
\"\",\"\",\"approach-retreat\",\"222\",\"1513430\",\"0.0-222.0\",\"\",\"\",\"3-1\",\"4329\",\"40\",\"1\",\"Testing\",\"Stims/Figures/85-C-20-2.bmp\",\"va:shasha\",\"Down\",\"40\",\"4\",\"2\",\"6B\",\"C1\",\"J\",\"74\"
\"\",\"\",\"approach-retreat\",\"223\",\"1519342\",\"0.0-223.0\",\"\",\"\",\"3-1\",\"4405\",\"37\",\"1\",\"Testing\",\"Stims/Figures/74-J-10-4.bmp\",\"zasa:ha\",\"Right\",\"37\",\"4\",\"3\",\"6B\",\"C2\",\"J\",\"75\"
\"\",\"\",\"approach-retreat\",\"224\",\"1525440\",\"0.0-224.0\",\"\",\"\",\"3-1\",\"4594\",\"38\",\"1\",\"Testing\",\"Stims/Figures/87-C-20-4.bmp\",\"fa:fa:sha\",\"Up\",\"38\",\"4\",\"4\",\"6B\",\"C1\",\"J\",\"76\"
\"\",\"\",\"approach-retreat\",\"225\",\"1530947\",\"0.0-225.0\",\"\",\"\",\"3-1\",\"4003\",\"40\",\"1\",\"Testing\",\"Stims/Figures/27-J-0-1.bmp\",\"sa:ha:ha\",\"Up\",\"40\",\"4\",\"5\",\"6B\",\"C2\",\"J\",\"77\"
\"\",\"\",\"approach-retreat\",\"226\",\"1536474\",\"0.0-226.0\",\"\",\"\",\"3-1\",\"4021\",\"37\",\"1\",\"Testing\",\"Stims/Figures/44-J-10-3.bmp\",\"za:sa:ha\",\"Right\",\"37\",\"4\",\"6\",\"6B\",\"C2\",\"J\",\"78\"
\"\",\"\",\"approach-retreat\",\"227\",\"1542219\",\"0.0-227.0\",\"\",\"\",\"3-1\",\"4241\",\"37\",\"1\",\"Testing\",\"Stims/Figures/57-C-30-1.bmp\",\"va:fasha\",\"Left\",\"37\",\"4\",\"7\",\"6B\",\"C1\",\"J\",\"79\"
\"\",\"\",\"approach-retreat\",\"228\",\"1547747\",\"0.0-228.0\",\"\",\"\",\"3-1\",\"4025\",\"40\",\"1\",\"Testing\",\"Stims/Figures/84-J-0-2.bmp\",\"sasaza\",\"Up\",\"40\",\"4\",\"8\",\"6B\",\"C2\",\"J\",\"80\"
\"\",\"\",\"approach-retreat\",\"229\",\"1553466\",\"0.0-229.0\",\"\",\"\",\"3-1\",\"4212\",\"37\",\"1\",\"Testing\",\"Stims/Figures/44-C-30-3.bmp\",\"va:sha:va\",\"Left\",\"37\",\"4\",\"9\",\"6B\",\"C1\",\"J\",\"81\"
\"\",\"\",\"approach-retreat\",\"230\",\"1559070\",\"0.0-230.0\",\"\",\"\",\"3-1\",\"4100\",\"38\",\"1\",\"Testing\",\"Stims/Figures/118-C-20-2.bmp\",\"fa:sha:sha\",\"Up\",\"38\",\"4\",\"10\",\"6B\",\"C1\",\"J\",\"82\"
\"\",\"\",\"approach-retreat\",\"231\",\"1565050\",\"0.0-231.0\",\"\",\"\",\"3-1\",\"4473\",\"38\",\"1\",\"Testing\",\"Stims/Figures/118-J-0-2.bmp\",\"zasaha\",\"Down\",\"38\",\"4\",\"11\",\"6B\",\"C2\",\"J\",\"83\"
\"\",\"\",\"approach-retreat\",\"232\",\"1570728\",\"0.0-232.0\",\"\",\"\",\"3-1\",\"4174\",\"37\",\"1\",\"Testing\",\"Stims/Figures/71-C-30-1.bmp\",\"fa:shava\",\"Left\",\"37\",\"4\",\"12\",\"6B\",\"C1\",\"J\",\"84\"
\"\",\"\",\"approach-retreat\",\"233\",\"1576264\",\"0.0-233.0\",\"\",\"\",\"3-1\",\"4031\",\"37\",\"1\",\"Testing\",\"Stims/Figures/27-C-30-1.bmp\",\"fafava\",\"Left\",\"37\",\"4\",\"13\",\"6B\",\"C1\",\"J\",\"85\"
\"\",\"\",\"approach-retreat\",\"234\",\"1581842\",\"0.0-234.0\",\"\",\"\",\"3-1\",\"4075\",\"37\",\"1\",\"Testing\",\"Stims/Figures/84-C-20-2.bmp\",\"fasha:sha\",\"Left\",\"37\",\"4\",\"14\",\"6B\",\"C1\",\"J\",\"86\"
\"\",\"\",\"approach-retreat\",\"235\",\"1587415\",\"0.0-235.0\",\"\",\"\",\"3-1\",\"4070\",\"37\",\"1\",\"Testing\",\"Stims/Figures/102-J-10-4.bmp\",\"zahaza\",\"Right\",\"37\",\"4\",\"15\",\"6B\",\"C2\",\"J\",\"87\"
\"\",\"\",\"approach-retreat\",\"236\",\"1592892\",\"0.0-236.0\",\"\",\"\",\"3-1\",\"3975\",\"37\",\"1\",\"Testing\",\"Stims/Figures/71-J-0-1.bmp\",\"zahaha\",\"Right\",\"37\",\"4\",\"16\",\"6B\",\"C2\",\"J\",\"88\"
\"\",\"\",\"approach-retreat\",\"237\",\"1598478\",\"0.0-237.0\",\"\",\"\",\"3-1\",\"4082\",\"39\",\"1\",\"Testing\",\"Stims/Figures/144-C-30-3.bmp\",\"va:fa:sha\",\"Right\",\"39\",\"4\",\"17\",\"6B\",\"C1\",\"J\",\"89\"
\"\",\"\",\"approach-retreat\",\"238\",\"1604035\",\"0.0-238.0\",\"\",\"\",\"3-1\",\"4050\",\"38\",\"1\",\"Testing\",\"Stims/Figures/111-J-10-3.bmp\",\"sasaha\",\"Down\",\"38\",\"4\",\"18\",\"6B\",\"C2\",\"J\",\"90\"
\"\",\"\",\"approach-retreat\",\"239\",\"1609647\",\"0.0-239.0\",\"\",\"\",\"3-1\",\"4106\",\"40\",\"1\",\"Testing\",\"Stims/Figures/144-J-10-3.bmp\",\"za:haha\",\"Up\",\"40\",\"4\",\"19\",\"6B\",\"C2\",\"J\",\"91\"
\"\",\"\",\"approach-retreat\",\"240\",\"1615148\",\"0.0-240.0\",\"\",\"\",\"3-1\",\"3996\",\"38\",\"1\",\"Testing\",\"Stims/Figures/57-J-0-1.bmp\",\"sa:saha\",\"Down\",\"38\",\"4\",\"20\",\"6B\",\"C2\",\"J\",\"92\"
\"\",\"\",\"approach-retreat\",\"241\",\"1621138\",\"0.0-241.0\",\"\",\"\",\"3-1\",\"4485\",\"40\",\"1\",\"Testing\",\"Stims/Figures/85-J-0-2.bmp\",\"sasa:ha\",\"Up\",\"40\",\"4\",\"21\",\"6B\",\"C2\",\"J\",\"93\"
\"\",\"\",\"approach-retreat\",\"242\",\"1626756\",\"0.0-242.0\",\"\",\"\",\"3-1\",\"4111\",\"40\",\"1\",\"Testing\",\"Stims/Figures/74-C-20-4.bmp\",\"fafasha\",\"Down\",\"40\",\"4\",\"22\",\"6B\",\"C1\",\"J\",\"94\"
\"\",\"\",\"approach-retreat\",\"243\",\"1632218\",\"0.0-243.0\",\"\",\"\",\"3-1\",\"3957\",\"39\",\"1\",\"Testing\",\"Stims/Figures/111-C-30-3.bmp\",\"vafa:va\",\"Right\",\"39\",\"4\",\"23\",\"6B\",\"C1\",\"J\",\"95\"
\"\",\"\",\"approach-retreat\",\"244\",\"1637758\",\"0.0-244.0\",\"\",\"\",\"3-1\",\"4036\",\"38\",\"1\",\"Testing\",\"Stims/Figures/87-J-10-4.bmp\",\"saha:ha\",\"Down\",\"38\",\"4\",\"24\",\"6B\",\"C2\",\"J\",\"96\"
\"30569\",\"\",\"survey-text\",\"245\",\"1668331\",\"0.0-245.0\",\"\",\"{\"\"Q0\"\":\"\"PS170039\"\"}\",\"\",\"\",\"\",\"\",\"\",\"\",\"\",\"\",\"\",\"\",\"\",\"\",\"\",\"\",\"\"
