\"rt\",\"key_press\",\"trial_type\",\"trial_index\",\"time_elapsed\",\"internal_node_id\",\"view_history\",\"responses\",\"Id\",\"Rt\",\"ResKeyCode\",\"ResCorr\",\"TrialType2\",\"Image\",\"Label\",\"Location\",\"CorrectResponse\",\"Block\",\"BlockTrial\",\"Condition\",\"LabelType\",\"Subcondition\",\"trialNum\"
\"530070\",\"32\",\"text\",\"0\",\"530076\",\"0.0-0.0-0.0\",\"\",\"\",\"\",\"\",\"\",\"\",\"\",\"\",\"\",\"\",\"\",\"\",\"\",\"\",\"\",\"\",\"\"
\"193615\",\"\",\"instructions\",\"1\",\"723693\",\"0.0-1.0\",\"[{\"\"page_index\"\":0,\"\"viewing_time\"\":193612}]\",\"\",\"\",\"\",\"\",\"\",\"\",\"\",\"\",\"\",\"\",\"\",\"\",\"\",\"\",\"\",\"\"
\"38700\",\"\",\"survey-multi-choice\",\"2\",\"762453\",\"0.0-2.0\",\"\",\"{\"\"Q0\"\":\"\"Da\"\",\"\"Q1\"\":\"\"Da\"\",\"\"Q2\"\":\"\"Da\"\",\"\"Q3\"\":\"\"Da\"\",\"\"Q4\"\":\"\"Da\"\",\"\"Q5\"\":\"\"Da\"\"}\",\"\",\"\",\"\",\"\",\"\",\"\",\"\",\"\",\"\",\"\",\"\",\"\",\"\",\"\",\"\"
\"\",\"\",\"bio\",\"3\",\"776153\",\"0.0-3.0\",\"\",\"{\"\"age\"\":\"\"20\"\",\"\"gender\"\":\"\"f\"\",\"\"specify\"\":\"\"\"\"}\",\"\",\"\",\"\",\"\",\"\",\"\",\"\",\"\",\"\",\"\",\"\",\"\",\"\",\"\",\"\"
\"\",\"\",\"approach-retreat\",\"4\",\"790090\",\"0.0-4.0\",\"\",\"\",\"3-5\",\"12386\",\"39\",\"0\",\"Training\",\"Stims/Figures/74-C-20-4.bmp\",\"nala:na\",\"Right\",\"37\",\"1\",\"1\",\"7\",\"S\",\"C\",\"1\"
\"\",\"\",\"approach-retreat\",\"5\",\"800580\",\"0.0-5.0\",\"\",\"\",\"3-5\",\"8885\",\"38\",\"0\",\"Training\",\"Stims/Figures/144-J-10-3.bmp\",\"na:la:na\",\"Down\",\"40\",\"1\",\"2\",\"7\",\"S\",\"C\",\"2\"
\"\",\"\",\"approach-retreat\",\"6\",\"825261\",\"0.0-6.0\",\"\",\"\",\"3-5\",\"23124\",\"39\",\"0\",\"Training\",\"Stims/Figures/44-J-10-3.bmp\",\"mama:na\",\"Left\",\"37\",\"1\",\"3\",\"7\",\"S\",\"C\",\"3\"
\"\",\"\",\"approach-retreat\",\"7\",\"838853\",\"0.0-7.0\",\"\",\"\",\"3-5\",\"12041\",\"39\",\"1\",\"Training\",\"Stims/Figures/84-J-0-2.bmp\",\"pa:kata\",\"Right\",\"39\",\"1\",\"4\",\"7\",\"P\",\"C\",\"4\"
\"\",\"\",\"approach-retreat\",\"8\",\"872905\",\"0.0-8.0\",\"\",\"\",\"3-5\",\"32517\",\"39\",\"1\",\"Training\",\"Stims/Figures/144-C-30-3.bmp\",\"ma:la:na\",\"Left\",\"39\",\"1\",\"5\",\"7\",\"S\",\"C\",\"5\"
\"\",\"\",\"approach-retreat\",\"9\",\"884517\",\"0.0-9.0\",\"\",\"\",\"3-5\",\"10037\",\"39\",\"0\",\"Training\",\"Stims/Figures/71-C-30-1.bmp\",\"pakata\",\"Right\",\"37\",\"1\",\"6\",\"7\",\"P\",\"C\",\"6\"
\"\",\"\",\"approach-retreat\",\"10\",\"896625\",\"0.0-10.0\",\"\",\"\",\"3-5\",\"10585\",\"37\",\"0\",\"Training\",\"Stims/Figures/139-C-20-2.bmp\",\"paka:ka\",\"Left\",\"39\",\"1\",\"7\",\"7\",\"P\",\"C\",\"7\"
\"\",\"\",\"approach-retreat\",\"11\",\"918268\",\"0.0-11.0\",\"\",\"\",\"3-5\",\"20111\",\"38\",\"0\",\"Training\",\"Stims/Figures/71-J-0-1.bmp\",\"ta:kata\",\"Down\",\"40\",\"1\",\"8\",\"7\",\"P\",\"C\",\"8\"
\"\",\"\",\"approach-retreat\",\"12\",\"934501\",\"0.0-12.0\",\"\",\"\",\"3-5\",\"14666\",\"40\",\"1\",\"Training\",\"Stims/Figures/57-C-30-1.bmp\",\"tapa:ka\",\"Up\",\"40\",\"1\",\"9\",\"7\",\"P\",\"C\",\"9\"
\"\",\"\",\"approach-retreat\",\"13\",\"945979\",\"0.0-13.0\",\"\",\"\",\"3-5\",\"9912\",\"39\",\"0\",\"Training\",\"Stims/Figures/74-J-10-4.bmp\",\"na:la:la\",\"Left\",\"37\",\"1\",\"10\",\"7\",\"S\",\"C\",\"10\"
\"\",\"\",\"approach-retreat\",\"14\",\"959988\",\"0.0-14.0\",\"\",\"\",\"3-5\",\"12483\",\"39\",\"1\",\"Training\",\"Stims/Figures/87-J-10-4.bmp\",\"malana\",\"Right\",\"39\",\"1\",\"11\",\"7\",\"S\",\"C\",\"11\"
\"\",\"\",\"approach-retreat\",\"15\",\"966171\",\"0.0-15.0\",\"\",\"\",\"3-5\",\"4639\",\"38\",\"1\",\"Training\",\"Stims/Figures/57-J-0-1.bmp\",\"tapaka\",\"Up\",\"38\",\"1\",\"12\",\"7\",\"P\",\"C\",\"12\"
\"\",\"\",\"approach-retreat\",\"16\",\"971986\",\"0.0-16.0\",\"\",\"\",\"3-5\",\"4276\",\"40\",\"0\",\"Training\",\"Stims/Figures/44-C-30-3.bmp\",\"mamana\",\"Down\",\"38\",\"1\",\"13\",\"7\",\"S\",\"C\",\"13\"
\"\",\"\",\"approach-retreat\",\"17\",\"978140\",\"0.0-17.0\",\"\",\"\",\"3-5\",\"4610\",\"38\",\"0\",\"Training\",\"Stims/Figures/139-J-0-2.bmp\",\"pa:pa:ta\",\"Down\",\"40\",\"1\",\"14\",\"7\",\"P\",\"C\",\"14\"
\"\",\"\",\"approach-retreat\",\"18\",\"984986\",\"0.0-18.0\",\"\",\"\",\"3-5\",\"5276\",\"38\",\"0\",\"Training\",\"Stims/Figures/87-C-20-4.bmp\",\"na:ma:na\",\"Up\",\"40\",\"1\",\"15\",\"7\",\"S\",\"C\",\"15\"
\"\",\"\",\"approach-retreat\",\"19\",\"991482\",\"0.0-19.0\",\"\",\"\",\"3-5\",\"4950\",\"38\",\"0\",\"Training\",\"Stims/Figures/84-C-20-2.bmp\",\"papata\",\"Up\",\"40\",\"1\",\"16\",\"7\",\"P\",\"C\",\"16\"
\"\",\"\",\"approach-retreat\",\"20\",\"1001530\",\"0.0-20.0\",\"\",\"\",\"3-5\",\"8480\",\"40\",\"1\",\"Training\",\"Stims/Figures/44-J-10-3.bmp\",\"mama:na\",\"Down\",\"40\",\"2\",\"1\",\"7\",\"S\",\"C\",\"17\"
\"\",\"\",\"approach-retreat\",\"21\",\"1008060\",\"0.0-21.0\",\"\",\"\",\"3-5\",\"4943\",\"38\",\"1\",\"Training\",\"Stims/Figures/84-C-20-2.bmp\",\"papata\",\"Down\",\"38\",\"2\",\"2\",\"7\",\"P\",\"C\",\"18\"
\"\",\"\",\"approach-retreat\",\"22\",\"1017264\",\"0.0-22.0\",\"\",\"\",\"3-5\",\"7665\",\"39\",\"0\",\"Training\",\"Stims/Figures/57-J-0-1.bmp\",\"tapaka\",\"Left\",\"37\",\"2\",\"3\",\"7\",\"P\",\"C\",\"19\"
\"\",\"\",\"approach-retreat\",\"23\",\"1026205\",\"0.0-23.0\",\"\",\"\",\"3-5\",\"7413\",\"40\",\"0\",\"Training\",\"Stims/Figures/71-C-30-1.bmp\",\"pakata\",\"Down\",\"38\",\"2\",\"4\",\"7\",\"P\",\"C\",\"20\"
\"\",\"\",\"approach-retreat\",\"24\",\"1034365\",\"0.0-24.0\",\"\",\"\",\"3-5\",\"6634\",\"37\",\"0\",\"Training\",\"Stims/Figures/139-C-20-2.bmp\",\"paka:ka\",\"Left\",\"39\",\"2\",\"5\",\"7\",\"P\",\"C\",\"21\"
\"\",\"\",\"approach-retreat\",\"25\",\"1041487\",\"0.0-25.0\",\"\",\"\",\"3-5\",\"5555\",\"39\",\"1\",\"Training\",\"Stims/Figures/74-J-10-4.bmp\",\"na:la:la\",\"Right\",\"39\",\"2\",\"6\",\"7\",\"S\",\"C\",\"22\"
\"\",\"\",\"approach-retreat\",\"26\",\"1048864\",\"0.0-26.0\",\"\",\"\",\"3-5\",\"5794\",\"40\",\"1\",\"Training\",\"Stims/Figures/57-C-30-1.bmp\",\"tapa:ka\",\"Up\",\"40\",\"2\",\"7\",\"7\",\"P\",\"C\",\"23\"
\"\",\"\",\"approach-retreat\",\"27\",\"1056097\",\"0.0-27.0\",\"\",\"\",\"3-5\",\"5659\",\"39\",\"1\",\"Training\",\"Stims/Figures/139-J-0-2.bmp\",\"pa:pa:ta\",\"Right\",\"39\",\"2\",\"8\",\"7\",\"P\",\"C\",\"24\"
\"\",\"\",\"approach-retreat\",\"28\",\"1062753\",\"0.0-28.0\",\"\",\"\",\"3-5\",\"5129\",\"40\",\"0\",\"Training\",\"Stims/Figures/144-J-10-3.bmp\",\"na:la:na\",\"Up\",\"38\",\"2\",\"9\",\"7\",\"S\",\"C\",\"25\"
\"\",\"\",\"approach-retreat\",\"29\",\"1068584\",\"0.0-29.0\",\"\",\"\",\"3-5\",\"4255\",\"40\",\"1\",\"Training\",\"Stims/Figures/144-C-30-3.bmp\",\"ma:la:na\",\"Up\",\"40\",\"2\",\"10\",\"7\",\"S\",\"C\",\"26\"
\"\",\"\",\"approach-retreat\",\"30\",\"1077598\",\"0.0-30.0\",\"\",\"\",\"3-5\",\"7421\",\"40\",\"0\",\"Training\",\"Stims/Figures/71-J-0-1.bmp\",\"ta:kata\",\"Up\",\"38\",\"2\",\"11\",\"7\",\"P\",\"C\",\"27\"
\"\",\"\",\"approach-retreat\",\"31\",\"1084932\",\"0.0-31.0\",\"\",\"\",\"3-5\",\"5799\",\"37\",\"0\",\"Training\",\"Stims/Figures/74-C-20-4.bmp\",\"nala:na\",\"Left\",\"39\",\"2\",\"12\",\"7\",\"S\",\"C\",\"28\"
\"\",\"\",\"approach-retreat\",\"32\",\"1091052\",\"0.0-32.0\",\"\",\"\",\"3-5\",\"4578\",\"37\",\"1\",\"Training\",\"Stims/Figures/44-C-30-3.bmp\",\"mamana\",\"Right\",\"37\",\"2\",\"13\",\"7\",\"S\",\"C\",\"29\"
\"\",\"\",\"approach-retreat\",\"33\",\"1099333\",\"0.0-33.0\",\"\",\"\",\"3-5\",\"6712\",\"37\",\"1\",\"Training\",\"Stims/Figures/87-J-10-4.bmp\",\"malana\",\"Left\",\"37\",\"2\",\"14\",\"7\",\"S\",\"C\",\"30\"
\"\",\"\",\"approach-retreat\",\"34\",\"1105510\",\"0.0-34.0\",\"\",\"\",\"3-5\",\"4621\",\"37\",\"1\",\"Training\",\"Stims/Figures/87-C-20-4.bmp\",\"na:ma:na\",\"Right\",\"37\",\"2\",\"15\",\"7\",\"S\",\"C\",\"31\"
\"\",\"\",\"approach-retreat\",\"35\",\"1113105\",\"0.0-35.0\",\"\",\"\",\"3-5\",\"6025\",\"40\",\"1\",\"Training\",\"Stims/Figures/84-J-0-2.bmp\",\"pa:kata\",\"Down\",\"40\",\"2\",\"16\",\"7\",\"P\",\"C\",\"32\"
\"\",\"\",\"approach-retreat\",\"36\",\"1122140\",\"0.0-36.0\",\"\",\"\",\"3-5\",\"7429\",\"38\",\"1\",\"Training\",\"Stims/Figures/44-J-10-3.bmp\",\"mama:na\",\"Up\",\"38\",\"3\",\"1\",\"7\",\"S\",\"C\",\"33\"
\"\",\"\",\"approach-retreat\",\"37\",\"1128428\",\"0.0-37.0\",\"\",\"\",\"3-5\",\"4716\",\"38\",\"0\",\"Training\",\"Stims/Figures/44-C-30-3.bmp\",\"mamana\",\"Up\",\"40\",\"3\",\"2\",\"7\",\"S\",\"C\",\"34\"
\"\",\"\",\"approach-retreat\",\"38\",\"1136094\",\"0.0-38.0\",\"\",\"\",\"3-5\",\"6097\",\"38\",\"1\",\"Training\",\"Stims/Figures/71-J-0-1.bmp\",\"ta:kata\",\"Up\",\"38\",\"3\",\"3\",\"7\",\"P\",\"C\",\"35\"
\"\",\"\",\"approach-retreat\",\"39\",\"1142487\",\"0.0-39.0\",\"\",\"\",\"3-5\",\"4827\",\"39\",\"0\",\"Training\",\"Stims/Figures/71-C-30-1.bmp\",\"pakata\",\"Right\",\"37\",\"3\",\"4\",\"7\",\"P\",\"C\",\"36\"
\"\",\"\",\"approach-retreat\",\"40\",\"1152370\",\"0.0-40.0\",\"\",\"\",\"3-5\",\"8302\",\"40\",\"1\",\"Training\",\"Stims/Figures/57-J-0-1.bmp\",\"tapaka\",\"Down\",\"40\",\"3\",\"5\",\"7\",\"P\",\"C\",\"37\"
\"\",\"\",\"approach-retreat\",\"41\",\"1159681\",\"0.0-41.0\",\"\",\"\",\"3-5\",\"5748\",\"39\",\"0\",\"Training\",\"Stims/Figures/57-C-30-1.bmp\",\"tapa:ka\",\"Right\",\"37\",\"3\",\"6\",\"7\",\"P\",\"C\",\"38\"
\"\",\"\",\"approach-retreat\",\"42\",\"1168605\",\"0.0-42.0\",\"\",\"\",\"3-5\",\"7399\",\"40\",\"1\",\"Training\",\"Stims/Figures/144-C-30-3.bmp\",\"ma:la:na\",\"Up\",\"40\",\"3\",\"7\",\"7\",\"S\",\"C\",\"39\"
\"\",\"\",\"approach-retreat\",\"43\",\"1175121\",\"0.0-43.0\",\"\",\"\",\"3-5\",\"4982\",\"39\",\"1\",\"Training\",\"Stims/Figures/87-C-20-4.bmp\",\"na:ma:na\",\"Left\",\"39\",\"3\",\"8\",\"7\",\"S\",\"C\",\"40\"
\"\",\"\",\"approach-retreat\",\"44\",\"1187600\",\"0.0-44.0\",\"\",\"\",\"3-5\",\"10896\",\"39\",\"1\",\"Training\",\"Stims/Figures/139-J-0-2.bmp\",\"pa:pa:ta\",\"Right\",\"39\",\"3\",\"9\",\"7\",\"P\",\"C\",\"41\"
\"\",\"\",\"approach-retreat\",\"45\",\"1198729\",\"0.0-45.0\",\"\",\"\",\"3-5\",\"9585\",\"37\",\"0\",\"Training\",\"Stims/Figures/139-C-20-2.bmp\",\"paka:ka\",\"Left\",\"39\",\"3\",\"10\",\"7\",\"P\",\"C\",\"42\"
\"\",\"\",\"approach-retreat\",\"46\",\"1212325\",\"0.0-46.0\",\"\",\"\",\"3-5\",\"12038\",\"38\",\"0\",\"Training\",\"Stims/Figures/144-J-10-3.bmp\",\"na:la:na\",\"Down\",\"40\",\"3\",\"11\",\"7\",\"S\",\"C\",\"43\"
\"\",\"\",\"approach-retreat\",\"47\",\"1220178\",\"0.0-47.0\",\"\",\"\",\"3-5\",\"6329\",\"39\",\"1\",\"Training\",\"Stims/Figures/74-J-10-4.bmp\",\"na:la:la\",\"Right\",\"39\",\"3\",\"12\",\"7\",\"S\",\"C\",\"44\"
\"\",\"\",\"approach-retreat\",\"48\",\"1229239\",\"0.0-48.0\",\"\",\"\",\"3-5\",\"7503\",\"37\",\"0\",\"Training\",\"Stims/Figures/74-C-20-4.bmp\",\"nala:na\",\"Left\",\"39\",\"3\",\"13\",\"7\",\"S\",\"C\",\"45\"
\"\",\"\",\"approach-retreat\",\"49\",\"1235645\",\"0.0-49.0\",\"\",\"\",\"3-5\",\"4873\",\"40\",\"1\",\"Training\",\"Stims/Figures/87-J-10-4.bmp\",\"malana\",\"Down\",\"40\",\"3\",\"14\",\"7\",\"S\",\"C\",\"46\"
\"\",\"\",\"approach-retreat\",\"50\",\"1242058\",\"0.0-50.0\",\"\",\"\",\"3-5\",\"4876\",\"37\",\"0\",\"Training\",\"Stims/Figures/84-C-20-2.bmp\",\"papata\",\"Left\",\"39\",\"3\",\"15\",\"7\",\"P\",\"C\",\"47\"
\"\",\"\",\"approach-retreat\",\"51\",\"1248300\",\"0.0-51.0\",\"\",\"\",\"3-5\",\"4725\",\"38\",\"0\",\"Training\",\"Stims/Figures/84-J-0-2.bmp\",\"pa:kata\",\"Down\",\"40\",\"3\",\"16\",\"7\",\"P\",\"C\",\"48\"
\"\",\"\",\"approach-retreat\",\"52\",\"1256038\",\"0.0-52.0\",\"\",\"\",\"3-5\",\"6192\",\"37\",\"0\",\"Training\",\"Stims/Figures/87-C-20-4.bmp\",\"na:ma:na\",\"Left\",\"39\",\"4\",\"1\",\"7\",\"S\",\"C\",\"49\"
\"\",\"\",\"approach-retreat\",\"53\",\"1263745\",\"0.0-53.0\",\"\",\"\",\"3-5\",\"6176\",\"39\",\"0\",\"Training\",\"Stims/Figures/144-C-30-3.bmp\",\"ma:la:na\",\"Right\",\"37\",\"4\",\"2\",\"7\",\"S\",\"C\",\"50\"
\"\",\"\",\"approach-retreat\",\"54\",\"1271654\",\"0.0-54.0\",\"\",\"\",\"3-5\",\"6393\",\"40\",\"1\",\"Training\",\"Stims/Figures/71-C-30-1.bmp\",\"pakata\",\"Up\",\"40\",\"4\",\"3\",\"7\",\"P\",\"C\",\"51\"
\"\",\"\",\"approach-retreat\",\"55\",\"1277968\",\"0.0-55.0\",\"\",\"\",\"3-5\",\"4776\",\"38\",\"1\",\"Training\",\"Stims/Figures/71-J-0-1.bmp\",\"ta:kata\",\"Up\",\"38\",\"4\",\"4\",\"7\",\"P\",\"C\",\"52\"
\"\",\"\",\"approach-retreat\",\"56\",\"1285884\",\"0.0-56.0\",\"\",\"\",\"3-5\",\"6391\",\"40\",\"0\",\"Training\",\"Stims/Figures/57-C-30-1.bmp\",\"tapa:ka\",\"Down\",\"38\",\"4\",\"5\",\"7\",\"P\",\"C\",\"53\"
\"\",\"\",\"approach-retreat\",\"57\",\"1294388\",\"0.0-57.0\",\"\",\"\",\"3-5\",\"6975\",\"38\",\"0\",\"Training\",\"Stims/Figures/144-J-10-3.bmp\",\"na:la:na\",\"Down\",\"40\",\"4\",\"6\",\"7\",\"S\",\"C\",\"54\"
\"\",\"\",\"approach-retreat\",\"58\",\"1301846\",\"0.0-58.0\",\"\",\"\",\"3-5\",\"5899\",\"40\",\"0\",\"Training\",\"Stims/Figures/74-J-10-4.bmp\",\"na:la:la\",\"Up\",\"38\",\"4\",\"7\",\"7\",\"S\",\"C\",\"55\"
\"\",\"\",\"approach-retreat\",\"59\",\"1307984\",\"0.0-59.0\",\"\",\"\",\"3-5\",\"4601\",\"38\",\"1\",\"Training\",\"Stims/Figures/84-C-20-2.bmp\",\"papata\",\"Down\",\"38\",\"4\",\"8\",\"7\",\"P\",\"C\",\"56\"
\"\",\"\",\"approach-retreat\",\"60\",\"1314243\",\"0.0-60.0\",\"\",\"\",\"3-5\",\"4710\",\"40\",\"0\",\"Training\",\"Stims/Figures/57-J-0-1.bmp\",\"tapaka\",\"Up\",\"38\",\"4\",\"9\",\"7\",\"P\",\"C\",\"57\"
\"\",\"\",\"approach-retreat\",\"61\",\"1321027\",\"0.0-61.0\",\"\",\"\",\"3-5\",\"5216\",\"37\",\"0\",\"Training\",\"Stims/Figures/84-J-0-2.bmp\",\"pa:kata\",\"Right\",\"39\",\"4\",\"10\",\"7\",\"P\",\"C\",\"58\"
\"\",\"\",\"approach-retreat\",\"62\",\"1329345\",\"0.0-62.0\",\"\",\"\",\"3-5\",\"6790\",\"39\",\"1\",\"Training\",\"Stims/Figures/44-C-30-3.bmp\",\"mamana\",\"Left\",\"39\",\"4\",\"11\",\"7\",\"S\",\"C\",\"59\"
\"\",\"\",\"approach-retreat\",\"63\",\"1335561\",\"0.0-63.0\",\"\",\"\",\"3-5\",\"4680\",\"40\",\"0\",\"Training\",\"Stims/Figures/139-C-20-2.bmp\",\"paka:ka\",\"Down\",\"38\",\"4\",\"12\",\"7\",\"P\",\"C\",\"60\"
\"\",\"\",\"approach-retreat\",\"64\",\"1351164\",\"0.0-64.0\",\"\",\"\",\"3-5\",\"14061\",\"39\",\"1\",\"Training\",\"Stims/Figures/87-J-10-4.bmp\",\"malana\",\"Right\",\"39\",\"4\",\"13\",\"7\",\"S\",\"C\",\"61\"
\"\",\"\",\"approach-retreat\",\"65\",\"1358494\",\"0.0-65.0\",\"\",\"\",\"3-5\",\"5769\",\"39\",\"0\",\"Training\",\"Stims/Figures/139-J-0-2.bmp\",\"pa:pa:ta\",\"Left\",\"37\",\"4\",\"14\",\"7\",\"P\",\"C\",\"62\"
\"\",\"\",\"approach-retreat\",\"66\",\"1364907\",\"0.0-66.0\",\"\",\"\",\"3-5\",\"4887\",\"39\",\"0\",\"Training\",\"Stims/Figures/44-J-10-3.bmp\",\"mama:na\",\"Left\",\"37\",\"4\",\"15\",\"7\",\"S\",\"C\",\"63\"
\"\",\"\",\"approach-retreat\",\"67\",\"1372171\",\"0.0-67.0\",\"\",\"\",\"3-5\",\"5731\",\"37\",\"1\",\"Training\",\"Stims/Figures/74-C-20-4.bmp\",\"nala:na\",\"Right\",\"37\",\"4\",\"16\",\"7\",\"S\",\"C\",\"64\"
\"\",\"\",\"approach-retreat\",\"68\",\"1380105\",\"0.0-68.0\",\"\",\"\",\"3-5\",\"6373\",\"40\",\"1\",\"Training\",\"Stims/Figures/74-J-10-4.bmp\",\"na:la:la\",\"Down\",\"40\",\"5\",\"1\",\"7\",\"S\",\"C\",\"65\"
\"\",\"\",\"approach-retreat\",\"69\",\"1387654\",\"0.0-69.0\",\"\",\"\",\"3-5\",\"6014\",\"38\",\"0\",\"Training\",\"Stims/Figures/74-C-20-4.bmp\",\"nala:na\",\"Up\",\"40\",\"5\",\"2\",\"7\",\"S\",\"C\",\"66\"
\"\",\"\",\"approach-retreat\",\"70\",\"1393905\",\"0.0-70.0\",\"\",\"\",\"3-5\",\"4700\",\"38\",\"1\",\"Training\",\"Stims/Figures/87-J-10-4.bmp\",\"malana\",\"Up\",\"38\",\"5\",\"3\",\"7\",\"S\",\"C\",\"67\"
\"\",\"\",\"approach-retreat\",\"71\",\"1399952\",\"0.0-71.0\",\"\",\"\",\"3-5\",\"4506\",\"40\",\"0\",\"Training\",\"Stims/Figures/71-J-0-1.bmp\",\"ta:kata\",\"Up\",\"38\",\"5\",\"4\",\"7\",\"P\",\"C\",\"68\"
\"\",\"\",\"approach-retreat\",\"72\",\"1408189\",\"0.0-72.0\",\"\",\"\",\"3-5\",\"6680\",\"40\",\"0\",\"Training\",\"Stims/Figures/139-J-0-2.bmp\",\"pa:pa:ta\",\"Up\",\"38\",\"5\",\"5\",\"7\",\"P\",\"C\",\"69\"
\"\",\"\",\"approach-retreat\",\"73\",\"1453456\",\"0.0-73.0\",\"\",\"\",\"3-5\",\"43702\",\"37\",\"0\",\"Training\",\"Stims/Figures/57-J-0-1.bmp\",\"tapaka\",\"Right\",\"39\",\"5\",\"6\",\"7\",\"P\",\"C\",\"70\"
\"\",\"\",\"approach-retreat\",\"74\",\"1469738\",\"0.0-74.0\",\"\",\"\",\"3-5\",\"14738\",\"39\",\"1\",\"Training\",\"Stims/Figures/44-J-10-3.bmp\",\"mama:na\",\"Right\",\"39\",\"5\",\"7\",\"7\",\"S\",\"C\",\"71\"
\"\",\"\",\"approach-retreat\",\"75\",\"1484866\",\"0.0-75.0\",\"\",\"\",\"3-5\",\"13600\",\"39\",\"0\",\"Training\",\"Stims/Figures/144-J-10-3.bmp\",\"na:la:na\",\"Left\",\"37\",\"5\",\"8\",\"7\",\"S\",\"C\",\"72\"
\"\",\"\",\"approach-retreat\",\"76\",\"1497609\",\"0.0-76.0\",\"\",\"\",\"3-5\",\"11183\",\"39\",\"0\",\"Training\",\"Stims/Figures/44-C-30-3.bmp\",\"mamana\",\"Right\",\"37\",\"5\",\"9\",\"7\",\"S\",\"C\",\"73\"
\"\",\"\",\"approach-retreat\",\"77\",\"1511828\",\"0.0-77.0\",\"\",\"\",\"3-5\",\"12660\",\"40\",\"0\",\"Training\",\"Stims/Figures/71-C-30-1.bmp\",\"pakata\",\"Down\",\"38\",\"5\",\"10\",\"7\",\"P\",\"C\",\"74\"
\"\",\"\",\"approach-retreat\",\"78\",\"1543638\",\"0.0-78.0\",\"\",\"\",\"3-5\",\"30251\",\"39\",\"1\",\"Training\",\"Stims/Figures/84-C-20-2.bmp\",\"papata\",\"Left\",\"39\",\"5\",\"11\",\"7\",\"P\",\"C\",\"75\"
\"\",\"\",\"approach-retreat\",\"79\",\"1557988\",\"0.0-79.0\",\"\",\"\",\"3-5\",\"12817\",\"37\",\"0\",\"Training\",\"Stims/Figures/57-C-30-1.bmp\",\"tapa:ka\",\"Left\",\"39\",\"5\",\"12\",\"7\",\"P\",\"C\",\"76\"
\"\",\"\",\"approach-retreat\",\"80\",\"1570943\",\"0.0-80.0\",\"\",\"\",\"3-5\",\"11429\",\"38\",\"1\",\"Training\",\"Stims/Figures/87-C-20-4.bmp\",\"na:ma:na\",\"Down\",\"38\",\"5\",\"13\",\"7\",\"S\",\"C\",\"77\"
\"\",\"\",\"approach-retreat\",\"81\",\"1578828\",\"0.0-81.0\",\"\",\"\",\"3-5\",\"6302\",\"39\",\"1\",\"Training\",\"Stims/Figures/84-J-0-2.bmp\",\"pa:kata\",\"Right\",\"39\",\"5\",\"14\",\"7\",\"P\",\"C\",\"78\"
\"\",\"\",\"approach-retreat\",\"82\",\"1587600\",\"0.0-82.0\",\"\",\"\",\"3-5\",\"7192\",\"40\",\"0\",\"Training\",\"Stims/Figures/144-C-30-3.bmp\",\"ma:la:na\",\"Down\",\"38\",\"5\",\"15\",\"7\",\"S\",\"C\",\"79\"
\"\",\"\",\"approach-retreat\",\"83\",\"1594659\",\"0.0-83.0\",\"\",\"\",\"3-5\",\"5495\",\"39\",\"1\",\"Training\",\"Stims/Figures/139-C-20-2.bmp\",\"paka:ka\",\"Left\",\"39\",\"5\",\"16\",\"7\",\"P\",\"C\",\"80\"
\"\",\"\",\"approach-retreat\",\"84\",\"1600850\",\"0.0-84.0\",\"\",\"\",\"3-5\",\"4650\",\"37\",\"0\",\"Training\",\"Stims/Figures/74-C-20-4.bmp\",\"nala:na\",\"Left\",\"39\",\"6\",\"1\",\"7\",\"S\",\"C\",\"81\"
\"\",\"\",\"approach-retreat\",\"85\",\"1607228\",\"0.0-85.0\",\"\",\"\",\"3-5\",\"4811\",\"39\",\"0\",\"Training\",\"Stims/Figures/84-J-0-2.bmp\",\"pa:kata\",\"Left\",\"37\",\"6\",\"2\",\"7\",\"P\",\"C\",\"82\"
\"\",\"\",\"approach-retreat\",\"86\",\"1618681\",\"0.0-86.0\",\"\",\"\",\"3-5\",\"9903\",\"37\",\"0\",\"Training\",\"Stims/Figures/144-J-10-3.bmp\",\"na:la:na\",\"Right\",\"39\",\"6\",\"3\",\"7\",\"S\",\"C\",\"83\"
\"\",\"\",\"approach-retreat\",\"87\",\"1629207\",\"0.0-87.0\",\"\",\"\",\"3-5\",\"8975\",\"39\",\"0\",\"Training\",\"Stims/Figures/84-C-20-2.bmp\",\"papata\",\"Right\",\"37\",\"6\",\"4\",\"7\",\"P\",\"C\",\"84\"
\"\",\"\",\"approach-retreat\",\"88\",\"1636589\",\"0.0-88.0\",\"\",\"\",\"3-5\",\"5829\",\"39\",\"0\",\"Training\",\"Stims/Figures/71-C-30-1.bmp\",\"pakata\",\"Right\",\"37\",\"6\",\"5\",\"7\",\"P\",\"C\",\"85\"
\"\",\"\",\"approach-retreat\",\"89\",\"1649142\",\"0.0-89.0\",\"\",\"\",\"3-5\",\"10989\",\"40\",\"1\",\"Training\",\"Stims/Figures/87-J-10-4.bmp\",\"malana\",\"Down\",\"40\",\"6\",\"6\",\"7\",\"S\",\"C\",\"86\"
\"\",\"\",\"approach-retreat\",\"90\",\"1655194\",\"0.0-90.0\",\"\",\"\",\"3-5\",\"4477\",\"40\",\"0\",\"Training\",\"Stims/Figures/139-J-0-2.bmp\",\"pa:pa:ta\",\"Up\",\"38\",\"6\",\"7\",\"7\",\"P\",\"C\",\"87\"
\"\",\"\",\"approach-retreat\",\"91\",\"1661333\",\"0.0-91.0\",\"\",\"\",\"3-5\",\"4603\",\"38\",\"0\",\"Training\",\"Stims/Figures/57-C-30-1.bmp\",\"tapa:ka\",\"Up\",\"40\",\"6\",\"8\",\"7\",\"P\",\"C\",\"88\"
\"\",\"\",\"approach-retreat\",\"92\",\"1667316\",\"0.0-92.0\",\"\",\"\",\"3-5\",\"4434\",\"37\",\"0\",\"Training\",\"Stims/Figures/144-C-30-3.bmp\",\"ma:la:na\",\"Left\",\"39\",\"6\",\"9\",\"7\",\"S\",\"C\",\"89\"
\"\",\"\",\"approach-retreat\",\"93\",\"1674148\",\"0.0-93.0\",\"\",\"\",\"3-5\",\"5271\",\"37\",\"1\",\"Training\",\"Stims/Figures/87-C-20-4.bmp\",\"na:ma:na\",\"Right\",\"37\",\"6\",\"10\",\"7\",\"S\",\"C\",\"90\"
\"\",\"\",\"approach-retreat\",\"94\",\"1680052\",\"0.0-94.0\",\"\",\"\",\"3-5\",\"4318\",\"37\",\"1\",\"Training\",\"Stims/Figures/74-J-10-4.bmp\",\"na:la:la\",\"Left\",\"37\",\"6\",\"11\",\"7\",\"S\",\"C\",\"91\"
\"\",\"\",\"approach-retreat\",\"95\",\"1690316\",\"0.0-95.0\",\"\",\"\",\"3-5\",\"8693\",\"40\",\"1\",\"Training\",\"Stims/Figures/44-J-10-3.bmp\",\"mama:na\",\"Down\",\"40\",\"6\",\"12\",\"7\",\"S\",\"C\",\"92\"
\"\",\"\",\"approach-retreat\",\"96\",\"1700063\",\"0.0-96.0\",\"\",\"\",\"3-5\",\"8190\",\"38\",\"0\",\"Training\",\"Stims/Figures/71-J-0-1.bmp\",\"ta:kata\",\"Down\",\"40\",\"6\",\"13\",\"7\",\"P\",\"C\",\"93\"
\"\",\"\",\"approach-retreat\",\"97\",\"1706480\",\"0.0-97.0\",\"\",\"\",\"3-5\",\"4847\",\"40\",\"1\",\"Training\",\"Stims/Figures/139-C-20-2.bmp\",\"paka:ka\",\"Up\",\"40\",\"6\",\"14\",\"7\",\"P\",\"C\",\"94\"
\"\",\"\",\"approach-retreat\",\"98\",\"1713101\",\"0.0-98.0\",\"\",\"\",\"3-5\",\"5059\",\"38\",\"1\",\"Training\",\"Stims/Figures/57-J-0-1.bmp\",\"tapaka\",\"Up\",\"38\",\"6\",\"15\",\"7\",\"P\",\"C\",\"95\"
\"\",\"\",\"approach-retreat\",\"99\",\"1720525\",\"0.0-99.0\",\"\",\"\",\"3-5\",\"5842\",\"38\",\"1\",\"Training\",\"Stims/Figures/44-C-30-3.bmp\",\"mamana\",\"Down\",\"38\",\"6\",\"16\",\"7\",\"S\",\"C\",\"96\"
\"\",\"\",\"approach-retreat\",\"100\",\"1726943\",\"0.0-100.0\",\"\",\"\",\"3-5\",\"4848\",\"40\",\"1\",\"Training\",\"Stims/Figures/87-J-10-4.bmp\",\"malana\",\"Down\",\"40\",\"7\",\"1\",\"7\",\"S\",\"C\",\"97\"
\"\",\"\",\"approach-retreat\",\"101\",\"1735516\",\"0.0-101.0\",\"\",\"\",\"3-5\",\"6995\",\"37\",\"1\",\"Training\",\"Stims/Figures/144-J-10-3.bmp\",\"na:la:na\",\"Left\",\"37\",\"7\",\"2\",\"7\",\"S\",\"C\",\"98\"
\"\",\"\",\"approach-retreat\",\"102\",\"1744677\",\"0.0-102.0\",\"\",\"\",\"3-5\",\"7580\",\"37\",\"1\",\"Training\",\"Stims/Figures/71-C-30-1.bmp\",\"pakata\",\"Right\",\"37\",\"7\",\"3\",\"7\",\"P\",\"C\",\"99\"
\"\",\"\",\"approach-retreat\",\"103\",\"1751386\",\"0.0-103.0\",\"\",\"\",\"3-5\",\"5147\",\"40\",\"1\",\"Training\",\"Stims/Figures/144-C-30-3.bmp\",\"ma:la:na\",\"Up\",\"40\",\"7\",\"4\",\"7\",\"S\",\"C\",\"100\"
\"\",\"\",\"approach-retreat\",\"104\",\"1759024\",\"0.0-104.0\",\"\",\"\",\"3-5\",\"6079\",\"38\",\"0\",\"Training\",\"Stims/Figures/87-C-20-4.bmp\",\"na:ma:na\",\"Up\",\"40\",\"7\",\"5\",\"7\",\"S\",\"C\",\"101\"
\"\",\"\",\"approach-retreat\",\"105\",\"1767013\",\"0.0-105.0\",\"\",\"\",\"3-5\",\"6422\",\"40\",\"0\",\"Training\",\"Stims/Figures/74-C-20-4.bmp\",\"nala:na\",\"Down\",\"38\",\"7\",\"6\",\"7\",\"S\",\"C\",\"102\"
\"\",\"\",\"approach-retreat\",\"106\",\"1778918\",\"0.0-106.0\",\"\",\"\",\"3-5\",\"10352\",\"37\",\"1\",\"Training\",\"Stims/Figures/84-J-0-2.bmp\",\"pa:kata\",\"Left\",\"37\",\"7\",\"7\",\"7\",\"P\",\"C\",\"103\"
\"\",\"\",\"approach-retreat\",\"107\",\"1786271\",\"0.0-107.0\",\"\",\"\",\"3-5\",\"5776\",\"37\",\"1\",\"Training\",\"Stims/Figures/139-J-0-2.bmp\",\"pa:pa:ta\",\"Left\",\"37\",\"7\",\"8\",\"7\",\"P\",\"C\",\"104\"
\"\",\"\",\"approach-retreat\",\"108\",\"1794257\",\"0.0-108.0\",\"\",\"\",\"3-5\",\"6406\",\"38\",\"0\",\"Training\",\"Stims/Figures/44-C-30-3.bmp\",\"mamana\",\"Up\",\"40\",\"7\",\"9\",\"7\",\"S\",\"C\",\"105\"
\"\",\"\",\"approach-retreat\",\"109\",\"1801191\",\"0.0-109.0\",\"\",\"\",\"3-5\",\"5377\",\"40\",\"1\",\"Training\",\"Stims/Figures/44-J-10-3.bmp\",\"mama:na\",\"Down\",\"40\",\"7\",\"10\",\"7\",\"S\",\"C\",\"106\"
\"\",\"\",\"approach-retreat\",\"110\",\"1807329\",\"0.0-110.0\",\"\",\"\",\"3-5\",\"4573\",\"37\",\"1\",\"Training\",\"Stims/Figures/71-J-0-1.bmp\",\"ta:kata\",\"Left\",\"37\",\"7\",\"11\",\"7\",\"P\",\"C\",\"107\"
\"\",\"\",\"approach-retreat\",\"111\",\"1813893\",\"0.0-111.0\",\"\",\"\",\"3-5\",\"4993\",\"37\",\"1\",\"Training\",\"Stims/Figures/57-C-30-1.bmp\",\"tapa:ka\",\"Right\",\"37\",\"7\",\"12\",\"7\",\"P\",\"C\",\"108\"
\"\",\"\",\"approach-retreat\",\"112\",\"1820246\",\"0.0-112.0\",\"\",\"\",\"3-5\",\"4777\",\"40\",\"0\",\"Training\",\"Stims/Figures/74-J-10-4.bmp\",\"na:la:la\",\"Up\",\"38\",\"7\",\"13\",\"7\",\"S\",\"C\",\"109\"
\"\",\"\",\"approach-retreat\",\"113\",\"1826173\",\"0.0-113.0\",\"\",\"\",\"3-5\",\"4365\",\"40\",\"1\",\"Training\",\"Stims/Figures/57-J-0-1.bmp\",\"tapaka\",\"Down\",\"40\",\"7\",\"14\",\"7\",\"P\",\"C\",\"110\"
\"\",\"\",\"approach-retreat\",\"114\",\"1832544\",\"0.0-114.0\",\"\",\"\",\"3-5\",\"4804\",\"39\",\"0\",\"Training\",\"Stims/Figures/139-C-20-2.bmp\",\"paka:ka\",\"Right\",\"37\",\"7\",\"15\",\"7\",\"P\",\"C\",\"111\"
\"\",\"\",\"approach-retreat\",\"115\",\"1839776\",\"0.0-115.0\",\"\",\"\",\"3-5\",\"5674\",\"39\",\"0\",\"Training\",\"Stims/Figures/84-C-20-2.bmp\",\"papata\",\"Right\",\"37\",\"7\",\"16\",\"7\",\"P\",\"C\",\"112\"
\"\",\"\",\"approach-retreat\",\"116\",\"1847521\",\"0.0-116.0\",\"\",\"\",\"3-5\",\"6179\",\"40\",\"0\",\"Training\",\"Stims/Figures/71-C-30-1.bmp\",\"pakata\",\"Down\",\"38\",\"8\",\"1\",\"7\",\"P\",\"C\",\"113\"
\"\",\"\",\"approach-retreat\",\"117\",\"1853850\",\"0.0-117.0\",\"\",\"\",\"3-5\",\"4774\",\"38\",\"1\",\"Training\",\"Stims/Figures/44-J-10-3.bmp\",\"mama:na\",\"Up\",\"38\",\"8\",\"2\",\"7\",\"S\",\"C\",\"114\"
\"\",\"\",\"approach-retreat\",\"118\",\"1859918\",\"0.0-118.0\",\"\",\"\",\"3-5\",\"4498\",\"40\",\"0\",\"Training\",\"Stims/Figures/84-C-20-2.bmp\",\"papata\",\"Down\",\"38\",\"8\",\"3\",\"7\",\"P\",\"C\",\"115\"
\"\",\"\",\"approach-retreat\",\"119\",\"1868413\",\"0.0-119.0\",\"\",\"\",\"3-5\",\"6935\",\"37\",\"0\",\"Training\",\"Stims/Figures/84-J-0-2.bmp\",\"pa:kata\",\"Right\",\"39\",\"8\",\"4\",\"7\",\"P\",\"C\",\"116\"
\"\",\"\",\"approach-retreat\",\"120\",\"1875426\",\"0.0-120.0\",\"\",\"\",\"3-5\",\"5460\",\"39\",\"0\",\"Training\",\"Stims/Figures/57-J-0-1.bmp\",\"tapaka\",\"Left\",\"37\",\"8\",\"5\",\"7\",\"P\",\"C\",\"117\"
\"\",\"\",\"approach-retreat\",\"121\",\"1881234\",\"0.0-121.0\",\"\",\"\",\"3-5\",\"4247\",\"40\",\"0\",\"Training\",\"Stims/Figures/87-J-10-4.bmp\",\"malana\",\"Up\",\"38\",\"8\",\"6\",\"7\",\"S\",\"C\",\"118\"
\"\",\"\",\"approach-retreat\",\"122\",\"1887447\",\"0.0-122.0\",\"\",\"\",\"3-5\",\"4616\",\"39\",\"1\",\"Training\",\"Stims/Figures/44-C-30-3.bmp\",\"mamana\",\"Left\",\"39\",\"8\",\"7\",\"7\",\"S\",\"C\",\"119\"
\"\",\"\",\"approach-retreat\",\"123\",\"1893570\",\"0.0-123.0\",\"\",\"\",\"3-5\",\"4558\",\"39\",\"1\",\"Training\",\"Stims/Figures/139-C-20-2.bmp\",\"paka:ka\",\"Left\",\"39\",\"8\",\"8\",\"7\",\"P\",\"C\",\"120\"
\"\",\"\",\"approach-retreat\",\"124\",\"1902528\",\"0.0-124.0\",\"\",\"\",\"3-5\",\"7398\",\"40\",\"1\",\"Training\",\"Stims/Figures/71-J-0-1.bmp\",\"ta:kata\",\"Down\",\"40\",\"8\",\"9\",\"7\",\"P\",\"C\",\"121\"
\"\",\"\",\"approach-retreat\",\"125\",\"1909036\",\"0.0-125.0\",\"\",\"\",\"3-5\",\"4932\",\"39\",\"0\",\"Training\",\"Stims/Figures/87-C-20-4.bmp\",\"na:ma:na\",\"Right\",\"37\",\"8\",\"10\",\"7\",\"S\",\"C\",\"122\"
\"\",\"\",\"approach-retreat\",\"126\",\"1916485\",\"0.0-126.0\",\"\",\"\",\"3-5\",\"5884\",\"40\",\"1\",\"Training\",\"Stims/Figures/74-C-20-4.bmp\",\"nala:na\",\"Up\",\"40\",\"8\",\"11\",\"7\",\"S\",\"C\",\"123\"
\"\",\"\",\"approach-retreat\",\"127\",\"1924106\",\"0.0-127.0\",\"\",\"\",\"3-5\",\"6048\",\"39\",\"0\",\"Training\",\"Stims/Figures/144-C-30-3.bmp\",\"ma:la:na\",\"Right\",\"37\",\"8\",\"12\",\"7\",\"S\",\"C\",\"124\"
\"\",\"\",\"approach-retreat\",\"128\",\"1931218\",\"0.0-128.0\",\"\",\"\",\"3-5\",\"5562\",\"37\",\"1\",\"Training\",\"Stims/Figures/74-J-10-4.bmp\",\"na:la:la\",\"Left\",\"37\",\"8\",\"13\",\"7\",\"S\",\"C\",\"125\"
\"\",\"\",\"approach-retreat\",\"129\",\"1939911\",\"0.0-129.0\",\"\",\"\",\"3-5\",\"7102\",\"38\",\"1\",\"Training\",\"Stims/Figures/139-J-0-2.bmp\",\"pa:pa:ta\",\"Up\",\"38\",\"8\",\"14\",\"7\",\"P\",\"C\",\"126\"
\"\",\"\",\"approach-retreat\",\"130\",\"1947006\",\"0.0-130.0\",\"\",\"\",\"3-5\",\"5516\",\"38\",\"0\",\"Training\",\"Stims/Figures/144-J-10-3.bmp\",\"na:la:na\",\"Down\",\"40\",\"8\",\"15\",\"7\",\"S\",\"C\",\"127\"
\"\",\"\",\"approach-retreat\",\"131\",\"1954907\",\"0.0-131.0\",\"\",\"\",\"3-5\",\"6332\",\"39\",\"0\",\"Training\",\"Stims/Figures/57-C-30-1.bmp\",\"tapa:ka\",\"Right\",\"37\",\"8\",\"16\",\"7\",\"P\",\"C\",\"128\"
\"\",\"\",\"approach-retreat\",\"132\",\"1960864\",\"0.0-132.0\",\"\",\"\",\"3-5\",\"4388\",\"39\",\"0\",\"Training\",\"Stims/Figures/144-C-30-3.bmp\",\"ma:la:na\",\"Right\",\"37\",\"9\",\"1\",\"7\",\"S\",\"C\",\"129\"
\"\",\"\",\"approach-retreat\",\"133\",\"1966747\",\"0.0-133.0\",\"\",\"\",\"3-5\",\"4325\",\"39\",\"1\",\"Training\",\"Stims/Figures/74-J-10-4.bmp\",\"na:la:la\",\"Right\",\"39\",\"9\",\"2\",\"7\",\"S\",\"C\",\"130\"
\"\",\"\",\"approach-retreat\",\"134\",\"1972577\",\"0.0-134.0\",\"\",\"\",\"3-5\",\"4270\",\"40\",\"0\",\"Training\",\"Stims/Figures/139-C-20-2.bmp\",\"paka:ka\",\"Down\",\"38\",\"9\",\"3\",\"7\",\"P\",\"C\",\"131\"
\"\",\"\",\"approach-retreat\",\"135\",\"1978553\",\"0.0-135.0\",\"\",\"\",\"3-5\",\"4429\",\"38\",\"1\",\"Training\",\"Stims/Figures/71-J-0-1.bmp\",\"ta:kata\",\"Up\",\"38\",\"9\",\"4\",\"7\",\"P\",\"C\",\"132\"
\"\",\"\",\"approach-retreat\",\"136\",\"1984368\",\"0.0-136.0\",\"\",\"\",\"3-5\",\"4250\",\"39\",\"1\",\"Training\",\"Stims/Figures/57-J-0-1.bmp\",\"tapaka\",\"Right\",\"39\",\"9\",\"5\",\"7\",\"P\",\"C\",\"133\"
\"\",\"\",\"approach-retreat\",\"137\",\"1990268\",\"0.0-137.0\",\"\",\"\",\"3-5\",\"4336\",\"38\",\"0\",\"Training\",\"Stims/Figures/44-C-30-3.bmp\",\"mamana\",\"Up\",\"40\",\"9\",\"6\",\"7\",\"S\",\"C\",\"134\"
\"\",\"\",\"approach-retreat\",\"138\",\"1995866\",\"0.0-138.0\",\"\",\"\",\"3-5\",\"4032\",\"39\",\"0\",\"Training\",\"Stims/Figures/44-J-10-3.bmp\",\"mama:na\",\"Left\",\"37\",\"9\",\"7\",\"7\",\"S\",\"C\",\"135\"
\"\",\"\",\"approach-retreat\",\"139\",\"2002498\",\"0.0-139.0\",\"\",\"\",\"3-5\",\"5057\",\"40\",\"1\",\"Training\",\"Stims/Figures/139-J-0-2.bmp\",\"pa:pa:ta\",\"Down\",\"40\",\"9\",\"8\",\"7\",\"P\",\"C\",\"136\"
\"\",\"\",\"approach-retreat\",\"140\",\"2008343\",\"0.0-140.0\",\"\",\"\",\"3-5\",\"4298\",\"40\",\"0\",\"Training\",\"Stims/Figures/57-C-30-1.bmp\",\"tapa:ka\",\"Down\",\"38\",\"9\",\"9\",\"7\",\"P\",\"C\",\"137\"
\"\",\"\",\"approach-retreat\",\"141\",\"2015088\",\"0.0-141.0\",\"\",\"\",\"3-5\",\"5180\",\"38\",\"1\",\"Training\",\"Stims/Figures/144-J-10-3.bmp\",\"na:la:na\",\"Up\",\"38\",\"9\",\"10\",\"7\",\"S\",\"C\",\"138\"
\"\",\"\",\"approach-retreat\",\"142\",\"2022008\",\"0.0-142.0\",\"\",\"\",\"3-5\",\"5375\",\"40\",\"0\",\"Training\",\"Stims/Figures/74-C-20-4.bmp\",\"nala:na\",\"Down\",\"38\",\"9\",\"11\",\"7\",\"S\",\"C\",\"139\"
\"\",\"\",\"approach-retreat\",\"143\",\"2027893\",\"0.0-143.0\",\"\",\"\",\"3-5\",\"4299\",\"37\",\"0\",\"Training\",\"Stims/Figures/87-C-20-4.bmp\",\"na:ma:na\",\"Left\",\"39\",\"9\",\"12\",\"7\",\"S\",\"C\",\"140\"
\"\",\"\",\"approach-retreat\",\"144\",\"2033859\",\"0.0-144.0\",\"\",\"\",\"3-5\",\"4396\",\"37\",\"1\",\"Training\",\"Stims/Figures/87-J-10-4.bmp\",\"malana\",\"Left\",\"37\",\"9\",\"13\",\"7\",\"S\",\"C\",\"141\"
\"\",\"\",\"approach-retreat\",\"145\",\"2039711\",\"0.0-145.0\",\"\",\"\",\"3-5\",\"4280\",\"39\",\"0\",\"Training\",\"Stims/Figures/71-C-30-1.bmp\",\"pakata\",\"Right\",\"37\",\"9\",\"14\",\"7\",\"P\",\"C\",\"142\"
\"\",\"\",\"approach-retreat\",\"146\",\"2045013\",\"0.0-146.0\",\"\",\"\",\"3-5\",\"3754\",\"39\",\"0\",\"Training\",\"Stims/Figures/84-J-0-2.bmp\",\"pa:kata\",\"Left\",\"37\",\"9\",\"15\",\"7\",\"P\",\"C\",\"143\"
\"\",\"\",\"approach-retreat\",\"147\",\"2051230\",\"0.0-147.0\",\"\",\"\",\"3-5\",\"4664\",\"38\",\"0\",\"Training\",\"Stims/Figures/84-C-20-2.bmp\",\"papata\",\"Up\",\"40\",\"9\",\"16\",\"7\",\"P\",\"C\",\"144\"
\"17788\",\"\",\"instructions\",\"148\",\"2069020\",\"0.0-148.0\",\"[{\"\"page_index\"\":0,\"\"viewing_time\"\":17785}]\",\"\",\"\",\"\",\"\",\"\",\"\",\"\",\"\",\"\",\"\",\"\",\"\",\"\",\"\",\"\",\"\"
\"\",\"\",\"approach-retreat\",\"149\",\"2081419\",\"0.0-149.0\",\"\",\"\",\"3-5\",\"10833\",\"38\",\"0\",\"Testing\",\"Stims/Figures/87-C-20-4.bmp\",\"na:ma:na\",\"Up\",\"40\",\"1\",\"1\",\"7\",\"S\",\"C\",\"1\"
\"\",\"\",\"approach-retreat\",\"150\",\"2090722\",\"0.0-150.0\",\"\",\"\",\"3-5\",\"7750\",\"39\",\"0\",\"Testing\",\"Stims/Figures/44-C-30-3.bmp\",\"mamana\",\"Right\",\"37\",\"1\",\"2\",\"7\",\"S\",\"C\",\"2\"
\"\",\"\",\"approach-retreat\",\"151\",\"2098309\",\"0.0-151.0\",\"\",\"\",\"3-5\",\"6031\",\"39\",\"0\",\"Testing\",\"Stims/Figures/74-J-10-4.bmp\",\"na:la:la\",\"Left\",\"37\",\"1\",\"3\",\"7\",\"S\",\"C\",\"3\"
\"\",\"\",\"approach-retreat\",\"152\",\"2107092\",\"0.0-152.0\",\"\",\"\",\"3-5\",\"7235\",\"38\",\"1\",\"Testing\",\"Stims/Figures/139-J-0-2.bmp\",\"pa:pa:ta\",\"Up\",\"38\",\"1\",\"4\",\"7\",\"P\",\"C\",\"4\"
\"\",\"\",\"approach-retreat\",\"153\",\"2114167\",\"0.0-153.0\",\"\",\"\",\"3-5\",\"5530\",\"37\",\"0\",\"Testing\",\"Stims/Figures/139-C-20-2.bmp\",\"paka:ka\",\"Left\",\"39\",\"1\",\"5\",\"7\",\"P\",\"C\",\"5\"
\"\",\"\",\"approach-retreat\",\"154\",\"2120340\",\"0.0-154.0\",\"\",\"\",\"3-5\",\"4621\",\"40\",\"1\",\"Testing\",\"Stims/Figures/86-J-0-1.bmp\",\"papa:ta\",\"Down\",\"40\",\"1\",\"6\",\"7\",\"P\",\"C\",\"6\"
\"\",\"\",\"approach-retreat\",\"155\",\"2127180\",\"0.0-155.0\",\"\",\"\",\"3-5\",\"5294\",\"37\",\"0\",\"Testing\",\"Stims/Figures/144-C-30-3.bmp\",\"ma:la:na\",\"Left\",\"39\",\"1\",\"7\",\"7\",\"S\",\"C\",\"7\"
\"\",\"\",\"approach-retreat\",\"156\",\"2132923\",\"0.0-156.0\",\"\",\"\",\"3-5\",\"4187\",\"38\",\"1\",\"Testing\",\"Stims/Figures/85-C-20-2.bmp\",\"takata\",\"Down\",\"38\",\"1\",\"8\",\"7\",\"P\",\"C\",\"8\"
\"\",\"\",\"approach-retreat\",\"157\",\"2138868\",\"0.0-157.0\",\"\",\"\",\"3-5\",\"4388\",\"38\",\"1\",\"Testing\",\"Stims/Figures/84-C-20-2.bmp\",\"papata\",\"Down\",\"38\",\"1\",\"9\",\"7\",\"P\",\"C\",\"9\"
\"\",\"\",\"approach-retreat\",\"158\",\"2144868\",\"0.0-158.0\",\"\",\"\",\"3-5\",\"4440\",\"40\",\"1\",\"Testing\",\"Stims/Figures/57-C-30-1.bmp\",\"tapa:ka\",\"Up\",\"40\",\"1\",\"10\",\"7\",\"P\",\"C\",\"10\"
\"\",\"\",\"approach-retreat\",\"159\",\"2152519\",\"0.0-159.0\",\"\",\"\",\"3-5\",\"6097\",\"37\",\"1\",\"Testing\",\"Stims/Figures/84-J-0-2.bmp\",\"pa:kata\",\"Left\",\"37\",\"1\",\"11\",\"7\",\"P\",\"C\",\"11\"
\"\",\"\",\"approach-retreat\",\"160\",\"2159228\",\"0.0-160.0\",\"\",\"\",\"3-5\",\"5163\",\"38\",\"0\",\"Testing\",\"Stims/Figures/86-C-30-1.bmp\",\"takaka\",\"Up\",\"40\",\"1\",\"12\",\"7\",\"P\",\"C\",\"12\"
\"\",\"\",\"approach-retreat\",\"161\",\"2165153\",\"0.0-161.0\",\"\",\"\",\"3-5\",\"4364\",\"40\",\"0\",\"Testing\",\"Stims/Figures/71-J-0-1.bmp\",\"ta:kata\",\"Up\",\"38\",\"1\",\"13\",\"7\",\"P\",\"C\",\"13\"
\"\",\"\",\"approach-retreat\",\"162\",\"2171720\",\"0.0-162.0\",\"\",\"\",\"3-5\",\"5013\",\"39\",\"0\",\"Testing\",\"Stims/Figures/71-C-30-1.bmp\",\"pakata\",\"Right\",\"37\",\"1\",\"14\",\"7\",\"P\",\"C\",\"14\"
\"\",\"\",\"approach-retreat\",\"163\",\"2180275\",\"0.0-163.0\",\"\",\"\",\"3-5\",\"7003\",\"38\",\"0\",\"Testing\",\"Stims/Figures/44-J-10-3.bmp\",\"mama:na\",\"Down\",\"40\",\"1\",\"15\",\"7\",\"S\",\"C\",\"15\"
\"\",\"\",\"approach-retreat\",\"164\",\"2186896\",\"0.0-164.0\",\"\",\"\",\"3-5\",\"5074\",\"37\",\"0\",\"Testing\",\"Stims/Figures/19-J-10-4.bmp\",\"namana\",\"Right\",\"39\",\"1\",\"16\",\"7\",\"S\",\"C\",\"16\"
\"\",\"\",\"approach-retreat\",\"165\",\"2192857\",\"0.0-165.0\",\"\",\"\",\"3-5\",\"4420\",\"38\",\"0\",\"Testing\",\"Stims/Figures/19-C-20-4.bmp\",\"mala:la\",\"Up\",\"40\",\"1\",\"17\",\"7\",\"S\",\"C\",\"17\"
\"\",\"\",\"approach-retreat\",\"166\",\"2199519\",\"0.0-166.0\",\"\",\"\",\"3-5\",\"5115\",\"39\",\"0\",\"Testing\",\"Stims/Figures/128-C-30-3.bmp\",\"ma:ma:la\",\"Right\",\"37\",\"1\",\"18\",\"7\",\"S\",\"C\",\"18\"
\"\",\"\",\"approach-retreat\",\"167\",\"2207846\",\"0.0-167.0\",\"\",\"\",\"3-5\",\"6761\",\"39\",\"1\",\"Testing\",\"Stims/Figures/128-J-10-3.bmp\",\"na:mana\",\"Right\",\"39\",\"1\",\"19\",\"7\",\"S\",\"C\",\"19\"
\"\",\"\",\"approach-retreat\",\"168\",\"2215036\",\"0.0-168.0\",\"\",\"\",\"3-5\",\"5641\",\"37\",\"0\",\"Testing\",\"Stims/Figures/85-J-0-2.bmp\",\"ta:paka\",\"Right\",\"39\",\"1\",\"20\",\"7\",\"P\",\"C\",\"20\"
\"\",\"\",\"approach-retreat\",\"169\",\"2221061\",\"0.0-169.0\",\"\",\"\",\"3-5\",\"4477\",\"38\",\"0\",\"Testing\",\"Stims/Figures/87-J-10-4.bmp\",\"malana\",\"Down\",\"40\",\"1\",\"21\",\"7\",\"S\",\"C\",\"21\"
\"\",\"\",\"approach-retreat\",\"170\",\"2226952\",\"0.0-170.0\",\"\",\"\",\"3-5\",\"4348\",\"38\",\"0\",\"Testing\",\"Stims/Figures/144-J-10-3.bmp\",\"na:la:na\",\"Down\",\"40\",\"1\",\"22\",\"7\",\"S\",\"C\",\"22\"
\"\",\"\",\"approach-retreat\",\"171\",\"2233239\",\"0.0-171.0\",\"\",\"\",\"3-5\",\"4740\",\"37\",\"1\",\"Testing\",\"Stims/Figures/57-J-0-1.bmp\",\"tapaka\",\"Left\",\"37\",\"1\",\"23\",\"7\",\"P\",\"C\",\"23\"
\"\",\"\",\"approach-retreat\",\"172\",\"2239431\",\"0.0-172.0\",\"\",\"\",\"3-5\",\"4647\",\"37\",\"0\",\"Testing\",\"Stims/Figures/74-C-20-4.bmp\",\"nala:na\",\"Left\",\"39\",\"1\",\"24\",\"7\",\"S\",\"C\",\"24\"
\"\",\"\",\"approach-retreat\",\"173\",\"2245640\",\"0.0-173.0\",\"\",\"\",\"3-5\",\"4664\",\"39\",\"0\",\"Testing\",\"Stims/Figures/57-J-0-1.bmp\",\"tapaka\",\"Left\",\"37\",\"2\",\"1\",\"7\",\"P\",\"C\",\"25\"
\"\",\"\",\"approach-retreat\",\"174\",\"2252665\",\"0.0-174.0\",\"\",\"\",\"3-5\",\"5483\",\"39\",\"1\",\"Testing\",\"Stims/Figures/139-J-0-2.bmp\",\"pa:pa:ta\",\"Right\",\"39\",\"2\",\"2\",\"7\",\"P\",\"C\",\"26\"
\"\",\"\",\"approach-retreat\",\"175\",\"2259000\",\"0.0-175.0\",\"\",\"\",\"3-5\",\"4781\",\"39\",\"1\",\"Testing\",\"Stims/Figures/85-C-20-2.bmp\",\"takata\",\"Left\",\"39\",\"2\",\"3\",\"7\",\"P\",\"C\",\"27\"
\"\",\"\",\"approach-retreat\",\"176\",\"2265656\",\"0.0-176.0\",\"\",\"\",\"3-5\",\"5115\",\"37\",\"1\",\"Testing\",\"Stims/Figures/139-C-20-2.bmp\",\"paka:ka\",\"Right\",\"37\",\"2\",\"4\",\"7\",\"P\",\"C\",\"28\"
\"\",\"\",\"approach-retreat\",\"177\",\"2271982\",\"0.0-177.0\",\"\",\"\",\"3-5\",\"4776\",\"37\",\"0\",\"Testing\",\"Stims/Figures/144-J-10-3.bmp\",\"na:la:na\",\"Right\",\"39\",\"2\",\"5\",\"7\",\"S\",\"C\",\"29\"
\"\",\"\",\"approach-retreat\",\"178\",\"2278088\",\"0.0-178.0\",\"\",\"\",\"3-5\",\"4540\",\"40\",\"0\",\"Testing\",\"Stims/Figures/74-J-10-4.bmp\",\"na:la:la\",\"Up\",\"38\",\"2\",\"6\",\"7\",\"S\",\"C\",\"30\"
\"\",\"\",\"approach-retreat\",\"179\",\"2283882\",\"0.0-179.0\",\"\",\"\",\"3-5\",\"4253\",\"40\",\"1\",\"Testing\",\"Stims/Figures/19-C-20-4.bmp\",\"mala:la\",\"Up\",\"40\",\"2\",\"7\",\"7\",\"S\",\"C\",\"31\"
\"\",\"\",\"approach-retreat\",\"180\",\"2290923\",\"0.0-180.0\",\"\",\"\",\"3-5\",\"5485\",\"37\",\"0\",\"Testing\",\"Stims/Figures/128-J-10-3.bmp\",\"na:mana\",\"Right\",\"39\",\"2\",\"8\",\"7\",\"S\",\"C\",\"32\"
\"\",\"\",\"approach-retreat\",\"181\",\"2298632\",\"0.0-181.0\",\"\",\"\",\"3-5\",\"6149\",\"38\",\"0\",\"Testing\",\"Stims/Figures/84-C-20-2.bmp\",\"papata\",\"Up\",\"40\",\"2\",\"9\",\"7\",\"P\",\"C\",\"33\"
\"\",\"\",\"approach-retreat\",\"182\",\"2304762\",\"0.0-182.0\",\"\",\"\",\"3-5\",\"4596\",\"37\",\"0\",\"Testing\",\"Stims/Figures/57-C-30-1.bmp\",\"tapa:ka\",\"Left\",\"39\",\"2\",\"10\",\"7\",\"P\",\"C\",\"34\"
\"\",\"\",\"approach-retreat\",\"183\",\"2310728\",\"0.0-183.0\",\"\",\"\",\"3-5\",\"4407\",\"38\",\"0\",\"Testing\",\"Stims/Figures/85-J-0-2.bmp\",\"ta:paka\",\"Down\",\"40\",\"2\",\"11\",\"7\",\"P\",\"C\",\"35\"
\"\",\"\",\"approach-retreat\",\"184\",\"2318280\",\"0.0-184.0\",\"\",\"\",\"3-5\",\"5996\",\"40\",\"0\",\"Testing\",\"Stims/Figures/87-C-20-4.bmp\",\"na:ma:na\",\"Down\",\"38\",\"2\",\"12\",\"7\",\"S\",\"C\",\"36\"
\"\",\"\",\"approach-retreat\",\"185\",\"2324164\",\"0.0-185.0\",\"\",\"\",\"3-5\",\"4325\",\"37\",\"0\",\"Testing\",\"Stims/Figures/84-J-0-2.bmp\",\"pa:kata\",\"Right\",\"39\",\"2\",\"13\",\"7\",\"P\",\"C\",\"37\"
\"\",\"\",\"approach-retreat\",\"186\",\"2330469\",\"0.0-186.0\",\"\",\"\",\"3-5\",\"4756\",\"40\",\"1\",\"Testing\",\"Stims/Figures/128-C-30-3.bmp\",\"ma:ma:la\",\"Up\",\"40\",\"2\",\"14\",\"7\",\"S\",\"C\",\"38\"
\"\",\"\",\"approach-retreat\",\"187\",\"2336550\",\"0.0-187.0\",\"\",\"\",\"3-5\",\"4544\",\"37\",\"1\",\"Testing\",\"Stims/Figures/86-J-0-1.bmp\",\"papa:ta\",\"Left\",\"37\",\"2\",\"15\",\"7\",\"P\",\"C\",\"39\"
\"\",\"\",\"approach-retreat\",\"188\",\"2344778\",\"0.0-188.0\",\"\",\"\",\"3-5\",\"6693\",\"40\",\"0\",\"Testing\",\"Stims/Figures/87-J-10-4.bmp\",\"malana\",\"Up\",\"38\",\"2\",\"16\",\"7\",\"S\",\"C\",\"40\"
\"\",\"\",\"approach-retreat\",\"189\",\"2351035\",\"0.0-189.0\",\"\",\"\",\"3-5\",\"4720\",\"40\",\"1\",\"Testing\",\"Stims/Figures/19-J-10-4.bmp\",\"namana\",\"Down\",\"40\",\"2\",\"17\",\"7\",\"S\",\"C\",\"41\"
\"\",\"\",\"approach-retreat\",\"190\",\"2357275\",\"0.0-190.0\",\"\",\"\",\"3-5\",\"4698\",\"37\",\"0\",\"Testing\",\"Stims/Figures/144-C-30-3.bmp\",\"ma:la:na\",\"Left\",\"39\",\"2\",\"18\",\"7\",\"S\",\"C\",\"42\"
\"\",\"\",\"approach-retreat\",\"191\",\"2363343\",\"0.0-191.0\",\"\",\"\",\"3-5\",\"4510\",\"39\",\"1\",\"Testing\",\"Stims/Figures/44-C-30-3.bmp\",\"mamana\",\"Left\",\"39\",\"2\",\"19\",\"7\",\"S\",\"C\",\"43\"
\"\",\"\",\"approach-retreat\",\"192\",\"2369259\",\"0.0-192.0\",\"\",\"\",\"3-5\",\"4373\",\"40\",\"0\",\"Testing\",\"Stims/Figures/71-C-30-1.bmp\",\"pakata\",\"Down\",\"38\",\"2\",\"20\",\"7\",\"P\",\"C\",\"44\"
\"\",\"\",\"approach-retreat\",\"193\",\"2376695\",\"0.0-193.0\",\"\",\"\",\"3-5\",\"5896\",\"38\",\"0\",\"Testing\",\"Stims/Figures/74-C-20-4.bmp\",\"nala:na\",\"Up\",\"40\",\"2\",\"21\",\"7\",\"S\",\"C\",\"45\"
\"\",\"\",\"approach-retreat\",\"194\",\"2382923\",\"0.0-194.0\",\"\",\"\",\"3-5\",\"4672\",\"40\",\"0\",\"Testing\",\"Stims/Figures/86-C-30-1.bmp\",\"takaka\",\"Down\",\"38\",\"2\",\"22\",\"7\",\"P\",\"C\",\"46\"
\"\",\"\",\"approach-retreat\",\"195\",\"2389821\",\"0.0-195.0\",\"\",\"\",\"3-5\",\"5341\",\"37\",\"0\",\"Testing\",\"Stims/Figures/71-J-0-1.bmp\",\"ta:kata\",\"Right\",\"39\",\"2\",\"23\",\"7\",\"P\",\"C\",\"47\"
\"\",\"\",\"approach-retreat\",\"196\",\"2395605\",\"0.0-196.0\",\"\",\"\",\"3-5\",\"4237\",\"38\",\"0\",\"Testing\",\"Stims/Figures/44-J-10-3.bmp\",\"mama:na\",\"Down\",\"40\",\"2\",\"24\",\"7\",\"S\",\"C\",\"48\"
\"\",\"\",\"approach-retreat\",\"197\",\"2401412\",\"0.0-197.0\",\"\",\"\",\"3-5\",\"4253\",\"39\",\"1\",\"Testing\",\"Stims/Figures/57-J-0-1.bmp\",\"tapaka\",\"Right\",\"39\",\"3\",\"1\",\"7\",\"P\",\"C\",\"49\"
\"\",\"\",\"approach-retreat\",\"198\",\"2407189\",\"0.0-198.0\",\"\",\"\",\"3-5\",\"4233\",\"40\",\"1\",\"Testing\",\"Stims/Figures/139-C-20-2.bmp\",\"paka:ka\",\"Up\",\"40\",\"3\",\"2\",\"7\",\"P\",\"C\",\"50\"
\"\",\"\",\"approach-retreat\",\"199\",\"2412675\",\"0.0-199.0\",\"\",\"\",\"3-5\",\"3941\",\"40\",\"1\",\"Testing\",\"Stims/Figures/74-C-20-4.bmp\",\"nala:na\",\"Up\",\"40\",\"3\",\"3\",\"7\",\"S\",\"C\",\"51\"
\"\",\"\",\"approach-retreat\",\"200\",\"2419112\",\"0.0-200.0\",\"\",\"\",\"3-5\",\"4874\",\"38\",\"1\",\"Testing\",\"Stims/Figures/74-J-10-4.bmp\",\"na:la:la\",\"Up\",\"38\",\"3\",\"4\",\"7\",\"S\",\"C\",\"52\"
\"\",\"\",\"approach-retreat\",\"201\",\"2424964\",\"0.0-201.0\",\"\",\"\",\"3-5\",\"4307\",\"37\",\"1\",\"Testing\",\"Stims/Figures/84-C-20-2.bmp\",\"papata\",\"Right\",\"37\",\"3\",\"5\",\"7\",\"P\",\"C\",\"53\"
\"\",\"\",\"approach-retreat\",\"202\",\"2432061\",\"0.0-202.0\",\"\",\"\",\"3-5\",\"5540\",\"38\",\"0\",\"Testing\",\"Stims/Figures/57-C-30-1.bmp\",\"tapa:ka\",\"Up\",\"40\",\"3\",\"6\",\"7\",\"P\",\"C\",\"54\"
\"\",\"\",\"approach-retreat\",\"203\",\"2438381\",\"0.0-203.0\",\"\",\"\",\"3-5\",\"4772\",\"39\",\"1\",\"Testing\",\"Stims/Figures/44-C-30-3.bmp\",\"mamana\",\"Left\",\"39\",\"3\",\"7\",\"7\",\"S\",\"C\",\"55\"
\"\",\"\",\"approach-retreat\",\"204\",\"2444424\",\"0.0-204.0\",\"\",\"\",\"3-5\",\"4495\",\"38\",\"1\",\"Testing\",\"Stims/Figures/19-C-20-4.bmp\",\"mala:la\",\"Down\",\"38\",\"3\",\"8\",\"7\",\"S\",\"C\",\"56\"
\"\",\"\",\"approach-retreat\",\"205\",\"2450957\",\"0.0-205.0\",\"\",\"\",\"3-5\",\"4979\",\"39\",\"1\",\"Testing\",\"Stims/Figures/19-J-10-4.bmp\",\"namana\",\"Right\",\"39\",\"3\",\"9\",\"7\",\"S\",\"C\",\"57\"
\"\",\"\",\"approach-retreat\",\"206\",\"2457008\",\"0.0-206.0\",\"\",\"\",\"3-5\",\"4506\",\"38\",\"0\",\"Testing\",\"Stims/Figures/85-J-0-2.bmp\",\"ta:paka\",\"Down\",\"40\",\"3\",\"10\",\"7\",\"P\",\"C\",\"58\"
\"\",\"\",\"approach-retreat\",\"207\",\"2463753\",\"0.0-207.0\",\"\",\"\",\"3-5\",\"5203\",\"37\",\"0\",\"Testing\",\"Stims/Figures/44-J-10-3.bmp\",\"mama:na\",\"Right\",\"39\",\"3\",\"11\",\"7\",\"S\",\"C\",\"59\"
\"\",\"\",\"approach-retreat\",\"208\",\"2469693\",\"0.0-208.0\",\"\",\"\",\"3-5\",\"4393\",\"39\",\"1\",\"Testing\",\"Stims/Figures/144-C-30-3.bmp\",\"ma:la:na\",\"Left\",\"39\",\"3\",\"12\",\"7\",\"S\",\"C\",\"60\"
\"\",\"\",\"approach-retreat\",\"209\",\"2476092\",\"0.0-209.0\",\"\",\"\",\"3-5\",\"4854\",\"40\",\"1\",\"Testing\",\"Stims/Figures/144-J-10-3.bmp\",\"na:la:na\",\"Down\",\"40\",\"3\",\"13\",\"7\",\"S\",\"C\",\"61\"
\"\",\"\",\"approach-retreat\",\"210\",\"2482140\",\"0.0-210.0\",\"\",\"\",\"3-5\",\"4494\",\"37\",\"0\",\"Testing\",\"Stims/Figures/84-J-0-2.bmp\",\"pa:kata\",\"Right\",\"39\",\"3\",\"14\",\"7\",\"P\",\"C\",\"62\"
\"\",\"\",\"approach-retreat\",\"211\",\"2488187\",\"0.0-211.0\",\"\",\"\",\"3-5\",\"4497\",\"40\",\"1\",\"Testing\",\"Stims/Figures/85-C-20-2.bmp\",\"takata\",\"Up\",\"40\",\"3\",\"15\",\"7\",\"P\",\"C\",\"63\"
\"\",\"\",\"approach-retreat\",\"212\",\"2494106\",\"0.0-212.0\",\"\",\"\",\"3-5\",\"4358\",\"37\",\"0\",\"Testing\",\"Stims/Figures/87-C-20-4.bmp\",\"na:ma:na\",\"Left\",\"39\",\"3\",\"16\",\"7\",\"S\",\"C\",\"64\"
\"\",\"\",\"approach-retreat\",\"213\",\"2500521\",\"0.0-213.0\",\"\",\"\",\"3-5\",\"4864\",\"38\",\"0\",\"Testing\",\"Stims/Figures/87-J-10-4.bmp\",\"malana\",\"Down\",\"40\",\"3\",\"17\",\"7\",\"S\",\"C\",\"65\"
\"\",\"\",\"approach-retreat\",\"214\",\"2506550\",\"0.0-214.0\",\"\",\"\",\"3-5\",\"4489\",\"39\",\"1\",\"Testing\",\"Stims/Figures/128-J-10-3.bmp\",\"na:mana\",\"Right\",\"39\",\"3\",\"18\",\"7\",\"S\",\"C\",\"66\"
\"\",\"\",\"approach-retreat\",\"215\",\"2512521\",\"0.0-215.0\",\"\",\"\",\"3-5\",\"4431\",\"37\",\"1\",\"Testing\",\"Stims/Figures/139-J-0-2.bmp\",\"pa:pa:ta\",\"Left\",\"37\",\"3\",\"19\",\"7\",\"P\",\"C\",\"67\"
\"\",\"\",\"approach-retreat\",\"216\",\"2518541\",\"0.0-216.0\",\"\",\"\",\"3-5\",\"4482\",\"37\",\"0\",\"Testing\",\"Stims/Figures/86-C-30-1.bmp\",\"takaka\",\"Left\",\"39\",\"3\",\"20\",\"7\",\"P\",\"C\",\"68\"
\"\",\"\",\"approach-retreat\",\"217\",\"2524354\",\"0.0-217.0\",\"\",\"\",\"3-5\",\"4262\",\"37\",\"0\",\"Testing\",\"Stims/Figures/71-C-30-1.bmp\",\"pakata\",\"Left\",\"39\",\"3\",\"21\",\"7\",\"P\",\"C\",\"69\"
\"\",\"\",\"approach-retreat\",\"218\",\"2529934\",\"0.0-218.0\",\"\",\"\",\"3-5\",\"4027\",\"38\",\"0\",\"Testing\",\"Stims/Figures/86-J-0-1.bmp\",\"papa:ta\",\"Down\",\"40\",\"3\",\"22\",\"7\",\"P\",\"C\",\"70\"
\"\",\"\",\"approach-retreat\",\"219\",\"2536541\",\"0.0-219.0\",\"\",\"\",\"3-5\",\"5056\",\"40\",\"1\",\"Testing\",\"Stims/Figures/128-C-30-3.bmp\",\"ma:ma:la\",\"Up\",\"40\",\"3\",\"23\",\"7\",\"S\",\"C\",\"71\"
\"\",\"\",\"approach-retreat\",\"220\",\"2542451\",\"0.0-220.0\",\"\",\"\",\"3-5\",\"4352\",\"40\",\"1\",\"Testing\",\"Stims/Figures/71-J-0-1.bmp\",\"ta:kata\",\"Down\",\"40\",\"3\",\"24\",\"7\",\"P\",\"C\",\"72\"
\"\",\"\",\"approach-retreat\",\"221\",\"2548929\",\"0.0-221.0\",\"\",\"\",\"3-5\",\"4916\",\"38\",\"0\",\"Testing\",\"Stims/Figures/87-C-20-4.bmp\",\"na:ma:na\",\"Up\",\"40\",\"4\",\"1\",\"7\",\"S\",\"C\",\"73\"
\"\",\"\",\"approach-retreat\",\"222\",\"2555131\",\"0.0-222.0\",\"\",\"\",\"3-5\",\"4650\",\"40\",\"1\",\"Testing\",\"Stims/Figures/19-J-10-4.bmp\",\"namana\",\"Down\",\"40\",\"4\",\"2\",\"7\",\"S\",\"C\",\"74\"
\"\",\"\",\"approach-retreat\",\"223\",\"2626191\",\"0.0-223.0\",\"\",\"\",\"3-5\",\"69508\",\"40\",\"0\",\"Testing\",\"Stims/Figures/144-C-30-3.bmp\",\"ma:la:na\",\"Down\",\"38\",\"4\",\"3\",\"7\",\"S\",\"C\",\"75\"
\"\",\"\",\"approach-retreat\",\"224\",\"2632543\",\"0.0-224.0\",\"\",\"\",\"3-5\",\"4799\",\"39\",\"1\",\"Testing\",\"Stims/Figures/85-C-20-2.bmp\",\"takata\",\"Left\",\"39\",\"4\",\"4\",\"7\",\"P\",\"C\",\"76\"
\"\",\"\",\"approach-retreat\",\"225\",\"2638243\",\"0.0-225.0\",\"\",\"\",\"3-5\",\"4136\",\"37\",\"1\",\"Testing\",\"Stims/Figures/57-J-0-1.bmp\",\"tapaka\",\"Left\",\"37\",\"4\",\"5\",\"7\",\"P\",\"C\",\"77\"
\"\",\"\",\"approach-retreat\",\"226\",\"2643313\",\"0.0-226.0\",\"\",\"\",\"3-5\",\"3537\",\"39\",\"0\",\"Testing\",\"Stims/Figures/19-C-20-4.bmp\",\"mala:la\",\"Right\",\"37\",\"4\",\"6\",\"7\",\"S\",\"C\",\"78\"
\"\",\"\",\"approach-retreat\",\"227\",\"2649329\",\"0.0-227.0\",\"\",\"\",\"3-5\",\"4467\",\"38\",\"1\",\"Testing\",\"Stims/Figures/86-J-0-1.bmp\",\"papa:ta\",\"Up\",\"38\",\"4\",\"7\",\"7\",\"P\",\"C\",\"79\"
\"\",\"\",\"approach-retreat\",\"228\",\"2655482\",\"0.0-228.0\",\"\",\"\",\"3-5\",\"4596\",\"37\",\"0\",\"Testing\",\"Stims/Figures/74-J-10-4.bmp\",\"na:la:la\",\"Right\",\"39\",\"4\",\"8\",\"7\",\"S\",\"C\",\"80\"
\"\",\"\",\"approach-retreat\",\"229\",\"2663108\",\"0.0-229.0\",\"\",\"\",\"3-5\",\"6075\",\"40\",\"0\",\"Testing\",\"Stims/Figures/139-C-20-2.bmp\",\"paka:ka\",\"Down\",\"38\",\"4\",\"9\",\"7\",\"P\",\"C\",\"81\"
\"\",\"\",\"approach-retreat\",\"230\",\"2668354\",\"0.0-230.0\",\"\",\"\",\"3-5\",\"3701\",\"37\",\"1\",\"Testing\",\"Stims/Figures/44-J-10-3.bmp\",\"mama:na\",\"Left\",\"37\",\"4\",\"10\",\"7\",\"S\",\"C\",\"82\"
\"\",\"\",\"approach-retreat\",\"231\",\"2673769\",\"0.0-231.0\",\"\",\"\",\"3-5\",\"3873\",\"40\",\"1\",\"Testing\",\"Stims/Figures/84-J-0-2.bmp\",\"pa:kata\",\"Down\",\"40\",\"4\",\"11\",\"7\",\"P\",\"C\",\"83\"
\"\",\"\",\"approach-retreat\",\"232\",\"2678853\",\"0.0-232.0\",\"\",\"\",\"3-5\",\"3537\",\"39\",\"1\",\"Testing\",\"Stims/Figures/85-J-0-2.bmp\",\"ta:paka\",\"Right\",\"39\",\"4\",\"12\",\"7\",\"P\",\"C\",\"84\"
\"\",\"\",\"approach-retreat\",\"233\",\"2684027\",\"0.0-233.0\",\"\",\"\",\"3-5\",\"3630\",\"40\",\"0\",\"Testing\",\"Stims/Figures/144-J-10-3.bmp\",\"na:la:na\",\"Up\",\"38\",\"4\",\"13\",\"7\",\"S\",\"C\",\"85\"
\"\",\"\",\"approach-retreat\",\"234\",\"2689126\",\"0.0-234.0\",\"\",\"\",\"3-5\",\"3549\",\"40\",\"1\",\"Testing\",\"Stims/Figures/71-C-30-1.bmp\",\"pakata\",\"Up\",\"40\",\"4\",\"14\",\"7\",\"P\",\"C\",\"86\"
\"\",\"\",\"approach-retreat\",\"235\",\"2695578\",\"0.0-235.0\",\"\",\"\",\"3-5\",\"4906\",\"38\",\"0\",\"Testing\",\"Stims/Figures/87-J-10-4.bmp\",\"malana\",\"Down\",\"40\",\"4\",\"15\",\"7\",\"S\",\"C\",\"87\"
\"\",\"\",\"approach-retreat\",\"236\",\"2702609\",\"0.0-236.0\",\"\",\"\",\"3-5\",\"5512\",\"40\",\"0\",\"Testing\",\"Stims/Figures/128-J-10-3.bmp\",\"na:mana\",\"Up\",\"38\",\"4\",\"16\",\"7\",\"S\",\"C\",\"88\"
\"\",\"\",\"approach-retreat\",\"237\",\"2707722\",\"0.0-237.0\",\"\",\"\",\"3-5\",\"3555\",\"37\",\"0\",\"Testing\",\"Stims/Figures/74-C-20-4.bmp\",\"nala:na\",\"Left\",\"39\",\"4\",\"17\",\"7\",\"S\",\"C\",\"89\"
\"\",\"\",\"approach-retreat\",\"238\",\"2713623\",\"0.0-238.0\",\"\",\"\",\"3-5\",\"4350\",\"40\",\"0\",\"Testing\",\"Stims/Figures/84-C-20-2.bmp\",\"papata\",\"Down\",\"38\",\"4\",\"18\",\"7\",\"P\",\"C\",\"90\"
\"\",\"\",\"approach-retreat\",\"239\",\"2729223\",\"0.0-239.0\",\"\",\"\",\"3-5\",\"14059\",\"39\",\"0\",\"Testing\",\"Stims/Figures/86-C-30-1.bmp\",\"takaka\",\"Right\",\"37\",\"4\",\"19\",\"7\",\"P\",\"C\",\"91\"
\"\",\"\",\"approach-retreat\",\"240\",\"2734690\",\"0.0-240.0\",\"\",\"\",\"3-5\",\"3916\",\"39\",\"1\",\"Testing\",\"Stims/Figures/57-C-30-1.bmp\",\"tapa:ka\",\"Left\",\"39\",\"4\",\"20\",\"7\",\"P\",\"C\",\"92\"
\"\",\"\",\"approach-retreat\",\"241\",\"2741625\",\"0.0-241.0\",\"\",\"\",\"3-5\",\"5372\",\"39\",\"1\",\"Testing\",\"Stims/Figures/71-J-0-1.bmp\",\"ta:kata\",\"Right\",\"39\",\"4\",\"21\",\"7\",\"P\",\"C\",\"93\"
\"\",\"\",\"approach-retreat\",\"242\",\"2748537\",\"0.0-242.0\",\"\",\"\",\"3-5\",\"5363\",\"38\",\"1\",\"Testing\",\"Stims/Figures/139-J-0-2.bmp\",\"pa:pa:ta\",\"Up\",\"38\",\"4\",\"22\",\"7\",\"P\",\"C\",\"94\"
\"\",\"\",\"approach-retreat\",\"243\",\"2755230\",\"0.0-243.0\",\"\",\"\",\"3-5\",\"5140\",\"39\",\"0\",\"Testing\",\"Stims/Figures/44-C-30-3.bmp\",\"mamana\",\"Right\",\"37\",\"4\",\"23\",\"7\",\"S\",\"C\",\"95\"
\"\",\"\",\"approach-retreat\",\"244\",\"2761543\",\"0.0-244.0\",\"\",\"\",\"3-5\",\"4754\",\"37\",\"0\",\"Testing\",\"Stims/Figures/128-C-30-3.bmp\",\"ma:ma:la\",\"Left\",\"39\",\"4\",\"24\",\"7\",\"S\",\"C\",\"96\"
\"\",\"\",\"survey-text\",\"245\",\"2764383\",\"0.0-245.0\",\"\",\"\",\"3-5\",\"7609\",\"37\",\"0\",\"Testing\",\"Stims/Figures/128-C-30-3.bmp\",\"ma:ma:la\",\"Left\",\"39\",\"4\",\"24\",\"7\",\"S\",\"C\",\"\"
