\"rt\",\"key_press\",\"trial_type\",\"trial_index\",\"time_elapsed\",\"internal_node_id\",\"view_history\",\"responses\",\"Id\",\"Rt\",\"ResKeyCode\",\"ResCorr\",\"TrialType2\",\"Image\",\"Label\",\"Location\",\"CorrectResponse\",\"Block\",\"BlockTrial\",\"Condition\",\"LabelType\",\"Subcondition\",\"trialNum\"
\"102273\",\"32\",\"text\",\"0\",\"102279\",\"0.0-0.0-0.0\",\"\",\"\",\"\",\"\",\"\",\"\",\"\",\"\",\"\",\"\",\"\",\"\",\"\",\"\",\"\",\"\",\"\"
\"300450\",\"\",\"instructions\",\"1\",\"402732\",\"0.0-1.0\",\"[{\"\"page_index\"\":0,\"\"viewing_time\"\":300449}]\",\"\",\"\",\"\",\"\",\"\",\"\",\"\",\"\",\"\",\"\",\"\",\"\",\"\",\"\",\"\",\"\"
\"70832\",\"\",\"survey-multi-choice\",\"2\",\"473606\",\"0.0-2.0\",\"\",\"{\"\"Q0\"\":\"\"Da\"\",\"\"Q1\"\":\"\"Da\"\",\"\"Q2\"\":\"\"Da\"\",\"\"Q3\"\":\"\"Da\"\",\"\"Q4\"\":\"\"Da\"\",\"\"Q5\"\":\"\"Da\"\"}\",\"\",\"\",\"\",\"\",\"\",\"\",\"\",\"\",\"\",\"\",\"\",\"\",\"\",\"\",\"\"
\"\",\"\",\"bio\",\"3\",\"494435\",\"0.0-3.0\",\"\",\"{\"\"age\"\":\"\"29\"\",\"\"gender\"\":\"\"m\"\",\"\"specify\"\":\"\"\"\"}\",\"\",\"\",\"\",\"\",\"\",\"\",\"\",\"\",\"\",\"\",\"\",\"\",\"\",\"\",\"\"
\"\",\"\",\"approach-retreat\",\"4\",\"554756\",\"0.0-4.0\",\"\",\"\",\"3-4\",\"58808\",\"39\",\"0\",\"Training\",\"Stims/Figures/111-J-10-3.bmp\",\"None\",\"Right\",\"37\",\"1\",\"1\",\"10\",\"N\",\"J\",\"1\"
\"\",\"\",\"approach-retreat\",\"5\",\"572484\",\"0.0-5.0\",\"\",\"\",\"3-4\",\"16218\",\"38\",\"0\",\"Training\",\"Stims/Figures/102-J-10-4.bmp\",\"None\",\"Up\",\"40\",\"1\",\"2\",\"10\",\"N\",\"J\",\"2\"
\"\",\"\",\"approach-retreat\",\"6\",\"587746\",\"0.0-6.0\",\"\",\"\",\"3-4\",\"13744\",\"37\",\"1\",\"Training\",\"Stims/Figures/118-C-20-2.bmp\",\"None\",\"Left\",\"37\",\"1\",\"3\",\"10\",\"N\",\"J\",\"3\"
\"\",\"\",\"approach-retreat\",\"7\",\"602452\",\"0.0-7.0\",\"\",\"\",\"3-4\",\"13197\",\"38\",\"0\",\"Training\",\"Stims/Figures/74-J-10-4.bmp\",\"None\",\"Up\",\"40\",\"1\",\"4\",\"10\",\"N\",\"J\",\"4\"
\"\",\"\",\"approach-retreat\",\"8\",\"614853\",\"0.0-8.0\",\"\",\"\",\"3-4\",\"10893\",\"37\",\"0\",\"Training\",\"Stims/Figures/27-J-0-1.bmp\",\"None\",\"Left\",\"39\",\"1\",\"5\",\"10\",\"N\",\"J\",\"5\"
\"\",\"\",\"approach-retreat\",\"9\",\"632776\",\"0.0-9.0\",\"\",\"\",\"3-4\",\"16415\",\"38\",\"1\",\"Training\",\"Stims/Figures/118-J-0-2.bmp\",\"None\",\"Down\",\"38\",\"1\",\"6\",\"10\",\"N\",\"J\",\"6\"
\"\",\"\",\"approach-retreat\",\"10\",\"644186\",\"0.0-10.0\",\"\",\"\",\"3-4\",\"9900\",\"39\",\"0\",\"Training\",\"Stims/Figures/27-C-30-1.bmp\",\"None\",\"Left\",\"37\",\"1\",\"7\",\"10\",\"N\",\"J\",\"7\"
\"\",\"\",\"approach-retreat\",\"11\",\"654047\",\"0.0-11.0\",\"\",\"\",\"3-4\",\"8351\",\"38\",\"0\",\"Training\",\"Stims/Figures/111-C-30-3.bmp\",\"None\",\"Down\",\"40\",\"1\",\"8\",\"10\",\"N\",\"J\",\"8\"
\"\",\"\",\"approach-retreat\",\"12\",\"662685\",\"0.0-12.0\",\"\",\"\",\"3-4\",\"7129\",\"39\",\"1\",\"Training\",\"Stims/Figures/86-C-30-1.bmp\",\"None\",\"Right\",\"39\",\"1\",\"9\",\"10\",\"N\",\"J\",\"9\"
\"\",\"\",\"approach-retreat\",\"13\",\"671011\",\"0.0-13.0\",\"\",\"\",\"3-4\",\"6818\",\"40\",\"0\",\"Training\",\"Stims/Figures/144-J-10-3.bmp\",\"None\",\"Down\",\"38\",\"1\",\"10\",\"10\",\"N\",\"J\",\"10\"
\"\",\"\",\"approach-retreat\",\"14\",\"681421\",\"0.0-14.0\",\"\",\"\",\"3-4\",\"8902\",\"40\",\"1\",\"Training\",\"Stims/Figures/94-C-20-2.bmp\",\"None\",\"Down\",\"40\",\"1\",\"11\",\"10\",\"N\",\"J\",\"11\"
\"\",\"\",\"approach-retreat\",\"15\",\"690220\",\"0.0-15.0\",\"\",\"\",\"3-4\",\"7291\",\"38\",\"0\",\"Training\",\"Stims/Figures/94-J-0-2.bmp\",\"None\",\"Up\",\"40\",\"1\",\"12\",\"10\",\"N\",\"J\",\"12\"
\"\",\"\",\"approach-retreat\",\"16\",\"702427\",\"0.0-16.0\",\"\",\"\",\"3-4\",\"10699\",\"40\",\"1\",\"Training\",\"Stims/Figures/86-J-0-1.bmp\",\"None\",\"Up\",\"40\",\"1\",\"13\",\"10\",\"N\",\"J\",\"13\"
\"\",\"\",\"approach-retreat\",\"17\",\"711023\",\"0.0-17.0\",\"\",\"\",\"3-4\",\"7088\",\"39\",\"1\",\"Training\",\"Stims/Figures/144-C-30-3.bmp\",\"None\",\"Right\",\"39\",\"1\",\"14\",\"10\",\"N\",\"J\",\"14\"
\"\",\"\",\"approach-retreat\",\"18\",\"719006\",\"0.0-18.0\",\"\",\"\",\"3-4\",\"6476\",\"39\",\"0\",\"Training\",\"Stims/Figures/74-C-20-4.bmp\",\"None\",\"Left\",\"37\",\"1\",\"15\",\"10\",\"N\",\"J\",\"15\"
\"\",\"\",\"approach-retreat\",\"19\",\"727027\",\"0.0-19.0\",\"\",\"\",\"3-4\",\"6512\",\"37\",\"0\",\"Training\",\"Stims/Figures/102-C-20-4.bmp\",\"None\",\"Right\",\"39\",\"1\",\"16\",\"10\",\"N\",\"J\",\"16\"
\"\",\"\",\"approach-retreat\",\"20\",\"733587\",\"0.0-20.0\",\"\",\"\",\"3-4\",\"5053\",\"39\",\"1\",\"Training\",\"Stims/Figures/102-C-20-4.bmp\",\"None\",\"Right\",\"39\",\"2\",\"1\",\"10\",\"N\",\"J\",\"17\"
\"\",\"\",\"approach-retreat\",\"21\",\"740241\",\"0.0-21.0\",\"\",\"\",\"3-4\",\"5147\",\"39\",\"1\",\"Training\",\"Stims/Figures/86-C-30-1.bmp\",\"None\",\"Right\",\"39\",\"2\",\"2\",\"10\",\"N\",\"J\",\"18\"
\"\",\"\",\"approach-retreat\",\"22\",\"748583\",\"0.0-22.0\",\"\",\"\",\"3-4\",\"6835\",\"39\",\"1\",\"Training\",\"Stims/Figures/27-J-0-1.bmp\",\"None\",\"Left\",\"39\",\"2\",\"3\",\"10\",\"N\",\"J\",\"19\"
\"\",\"\",\"approach-retreat\",\"23\",\"755704\",\"0.0-23.0\",\"\",\"\",\"3-4\",\"5611\",\"39\",\"1\",\"Training\",\"Stims/Figures/118-C-20-2.bmp\",\"None\",\"Right\",\"39\",\"2\",\"4\",\"10\",\"N\",\"J\",\"20\"
\"\",\"\",\"approach-retreat\",\"24\",\"762384\",\"0.0-24.0\",\"\",\"\",\"3-4\",\"5168\",\"37\",\"1\",\"Training\",\"Stims/Figures/102-J-10-4.bmp\",\"None\",\"Right\",\"37\",\"2\",\"5\",\"10\",\"N\",\"J\",\"21\"
\"\",\"\",\"approach-retreat\",\"25\",\"769665\",\"0.0-25.0\",\"\",\"\",\"3-4\",\"5773\",\"38\",\"1\",\"Training\",\"Stims/Figures/144-J-10-3.bmp\",\"None\",\"Down\",\"38\",\"2\",\"6\",\"10\",\"N\",\"J\",\"22\"
\"\",\"\",\"approach-retreat\",\"26\",\"776973\",\"0.0-26.0\",\"\",\"\",\"3-4\",\"5799\",\"38\",\"1\",\"Training\",\"Stims/Figures/118-J-0-2.bmp\",\"None\",\"Down\",\"38\",\"2\",\"7\",\"10\",\"N\",\"J\",\"23\"
\"\",\"\",\"approach-retreat\",\"27\",\"784819\",\"0.0-27.0\",\"\",\"\",\"3-4\",\"6339\",\"37\",\"1\",\"Training\",\"Stims/Figures/94-C-20-2.bmp\",\"None\",\"Left\",\"37\",\"2\",\"8\",\"10\",\"N\",\"J\",\"24\"
\"\",\"\",\"approach-retreat\",\"28\",\"791321\",\"0.0-28.0\",\"\",\"\",\"3-4\",\"4994\",\"38\",\"0\",\"Training\",\"Stims/Figures/111-J-10-3.bmp\",\"None\",\"Up\",\"40\",\"2\",\"9\",\"10\",\"N\",\"J\",\"25\"
\"\",\"\",\"approach-retreat\",\"29\",\"800278\",\"0.0-29.0\",\"\",\"\",\"3-4\",\"7450\",\"38\",\"1\",\"Training\",\"Stims/Figures/144-C-30-3.bmp\",\"None\",\"Up\",\"38\",\"2\",\"10\",\"10\",\"N\",\"J\",\"26\"
\"\",\"\",\"approach-retreat\",\"30\",\"808613\",\"0.0-30.0\",\"\",\"\",\"3-4\",\"6827\",\"39\",\"0\",\"Training\",\"Stims/Figures/27-C-30-1.bmp\",\"None\",\"Left\",\"37\",\"2\",\"11\",\"10\",\"N\",\"J\",\"27\"
\"\",\"\",\"approach-retreat\",\"31\",\"815711\",\"0.0-31.0\",\"\",\"\",\"3-4\",\"5588\",\"38\",\"0\",\"Training\",\"Stims/Figures/111-C-30-3.bmp\",\"None\",\"Down\",\"40\",\"2\",\"12\",\"10\",\"N\",\"J\",\"28\"
\"\",\"\",\"approach-retreat\",\"32\",\"825131\",\"0.0-32.0\",\"\",\"\",\"3-4\",\"7913\",\"40\",\"1\",\"Training\",\"Stims/Figures/94-J-0-2.bmp\",\"None\",\"Up\",\"40\",\"2\",\"13\",\"10\",\"N\",\"J\",\"29\"
\"\",\"\",\"approach-retreat\",\"33\",\"838755\",\"0.0-33.0\",\"\",\"\",\"3-4\",\"12114\",\"38\",\"0\",\"Training\",\"Stims/Figures/74-J-10-4.bmp\",\"None\",\"Up\",\"40\",\"2\",\"14\",\"10\",\"N\",\"J\",\"30\"
\"\",\"\",\"approach-retreat\",\"34\",\"848562\",\"0.0-34.0\",\"\",\"\",\"3-4\",\"8298\",\"38\",\"1\",\"Training\",\"Stims/Figures/86-J-0-1.bmp\",\"None\",\"Down\",\"38\",\"2\",\"15\",\"10\",\"N\",\"J\",\"31\"
\"\",\"\",\"approach-retreat\",\"35\",\"858559\",\"0.0-35.0\",\"\",\"\",\"3-4\",\"8487\",\"39\",\"0\",\"Training\",\"Stims/Figures/74-C-20-4.bmp\",\"None\",\"Left\",\"37\",\"2\",\"16\",\"10\",\"N\",\"J\",\"32\"
\"\",\"\",\"approach-retreat\",\"36\",\"867716\",\"0.0-36.0\",\"\",\"\",\"3-4\",\"7649\",\"40\",\"1\",\"Training\",\"Stims/Figures/102-J-10-4.bmp\",\"None\",\"Up\",\"40\",\"3\",\"1\",\"10\",\"N\",\"J\",\"33\"
\"\",\"\",\"approach-retreat\",\"37\",\"877058\",\"0.0-37.0\",\"\",\"\",\"3-4\",\"7833\",\"38\",\"0\",\"Training\",\"Stims/Figures/144-J-10-3.bmp\",\"None\",\"Up\",\"40\",\"3\",\"2\",\"10\",\"N\",\"J\",\"34\"
\"\",\"\",\"approach-retreat\",\"38\",\"889780\",\"0.0-38.0\",\"\",\"\",\"3-4\",\"11212\",\"39\",\"0\",\"Training\",\"Stims/Figures/86-C-30-1.bmp\",\"None\",\"Left\",\"37\",\"3\",\"3\",\"10\",\"N\",\"J\",\"35\"
\"\",\"\",\"approach-retreat\",\"39\",\"908631\",\"0.0-39.0\",\"\",\"\",\"3-4\",\"17341\",\"40\",\"0\",\"Training\",\"Stims/Figures/111-C-30-3.bmp\",\"None\",\"Up\",\"38\",\"3\",\"4\",\"10\",\"N\",\"J\",\"36\"
\"\",\"\",\"approach-retreat\",\"40\",\"917338\",\"0.0-40.0\",\"\",\"\",\"3-4\",\"7199\",\"39\",\"0\",\"Training\",\"Stims/Figures/74-J-10-4.bmp\",\"None\",\"Right\",\"37\",\"3\",\"5\",\"10\",\"N\",\"J\",\"37\"
\"\",\"\",\"approach-retreat\",\"41\",\"927309\",\"0.0-41.0\",\"\",\"\",\"3-4\",\"8460\",\"39\",\"0\",\"Training\",\"Stims/Figures/102-C-20-4.bmp\",\"None\",\"Left\",\"37\",\"3\",\"6\",\"10\",\"N\",\"J\",\"38\"
\"\",\"\",\"approach-retreat\",\"42\",\"934762\",\"0.0-42.0\",\"\",\"\",\"3-4\",\"5943\",\"38\",\"0\",\"Training\",\"Stims/Figures/144-C-30-3.bmp\",\"None\",\"Down\",\"40\",\"3\",\"7\",\"10\",\"N\",\"J\",\"39\"
\"\",\"\",\"approach-retreat\",\"43\",\"951628\",\"0.0-43.0\",\"\",\"\",\"3-4\",\"15357\",\"40\",\"0\",\"Training\",\"Stims/Figures/74-C-20-4.bmp\",\"None\",\"Up\",\"38\",\"3\",\"8\",\"10\",\"N\",\"J\",\"40\"
\"\",\"\",\"approach-retreat\",\"44\",\"961348\",\"0.0-44.0\",\"\",\"\",\"3-4\",\"8214\",\"38\",\"1\",\"Training\",\"Stims/Figures/94-J-0-2.bmp\",\"None\",\"Down\",\"38\",\"3\",\"9\",\"10\",\"N\",\"J\",\"41\"
\"\",\"\",\"approach-retreat\",\"45\",\"969733\",\"0.0-45.0\",\"\",\"\",\"3-4\",\"6878\",\"39\",\"1\",\"Training\",\"Stims/Figures/27-J-0-1.bmp\",\"None\",\"Left\",\"39\",\"3\",\"10\",\"10\",\"N\",\"J\",\"42\"
\"\",\"\",\"approach-retreat\",\"46\",\"977501\",\"0.0-46.0\",\"\",\"\",\"3-4\",\"6259\",\"38\",\"1\",\"Training\",\"Stims/Figures/111-J-10-3.bmp\",\"None\",\"Down\",\"38\",\"3\",\"11\",\"10\",\"N\",\"J\",\"43\"
\"\",\"\",\"approach-retreat\",\"47\",\"984296\",\"0.0-47.0\",\"\",\"\",\"3-4\",\"5287\",\"37\",\"1\",\"Training\",\"Stims/Figures/86-J-0-1.bmp\",\"None\",\"Right\",\"37\",\"3\",\"12\",\"10\",\"N\",\"J\",\"44\"
\"\",\"\",\"approach-retreat\",\"48\",\"1002577\",\"0.0-48.0\",\"\",\"\",\"3-4\",\"16775\",\"39\",\"1\",\"Training\",\"Stims/Figures/118-J-0-2.bmp\",\"None\",\"Left\",\"39\",\"3\",\"13\",\"10\",\"N\",\"J\",\"45\"
\"\",\"\",\"approach-retreat\",\"49\",\"1015878\",\"0.0-49.0\",\"\",\"\",\"3-4\",\"11793\",\"37\",\"0\",\"Training\",\"Stims/Figures/118-C-20-2.bmp\",\"None\",\"Right\",\"39\",\"3\",\"14\",\"10\",\"N\",\"J\",\"46\"
\"\",\"\",\"approach-retreat\",\"50\",\"1031731\",\"0.0-50.0\",\"\",\"\",\"3-4\",\"14344\",\"40\",\"1\",\"Training\",\"Stims/Figures/27-C-30-1.bmp\",\"None\",\"Down\",\"40\",\"3\",\"15\",\"10\",\"N\",\"J\",\"47\"
\"\",\"\",\"approach-retreat\",\"51\",\"1048872\",\"0.0-51.0\",\"\",\"\",\"3-4\",\"15634\",\"37\",\"0\",\"Training\",\"Stims/Figures/94-C-20-2.bmp\",\"None\",\"Right\",\"39\",\"3\",\"16\",\"10\",\"N\",\"J\",\"48\"
\"\",\"\",\"approach-retreat\",\"52\",\"1057510\",\"0.0-52.0\",\"\",\"\",\"3-4\",\"7131\",\"38\",\"0\",\"Training\",\"Stims/Figures/144-J-10-3.bmp\",\"None\",\"Up\",\"40\",\"4\",\"1\",\"10\",\"N\",\"J\",\"49\"
\"\",\"\",\"approach-retreat\",\"53\",\"1065886\",\"0.0-53.0\",\"\",\"\",\"3-4\",\"6867\",\"40\",\"0\",\"Training\",\"Stims/Figures/27-C-30-1.bmp\",\"None\",\"Up\",\"38\",\"4\",\"2\",\"10\",\"N\",\"J\",\"50\"
\"\",\"\",\"approach-retreat\",\"54\",\"1073081\",\"0.0-54.0\",\"\",\"\",\"3-4\",\"5687\",\"39\",\"0\",\"Training\",\"Stims/Figures/86-J-0-1.bmp\",\"None\",\"Right\",\"37\",\"4\",\"3\",\"10\",\"N\",\"J\",\"51\"
\"\",\"\",\"approach-retreat\",\"55\",\"1093243\",\"0.0-55.0\",\"\",\"\",\"3-4\",\"18654\",\"39\",\"1\",\"Training\",\"Stims/Figures/102-J-10-4.bmp\",\"None\",\"Left\",\"39\",\"4\",\"4\",\"10\",\"N\",\"J\",\"52\"
\"\",\"\",\"approach-retreat\",\"56\",\"1102007\",\"0.0-56.0\",\"\",\"\",\"3-4\",\"7255\",\"39\",\"0\",\"Training\",\"Stims/Figures/86-C-30-1.bmp\",\"None\",\"Left\",\"37\",\"4\",\"5\",\"10\",\"N\",\"J\",\"53\"
\"\",\"\",\"approach-retreat\",\"57\",\"1112598\",\"0.0-57.0\",\"\",\"\",\"3-4\",\"9083\",\"40\",\"1\",\"Training\",\"Stims/Figures/94-C-20-2.bmp\",\"None\",\"Down\",\"40\",\"4\",\"6\",\"10\",\"N\",\"J\",\"54\"
\"\",\"\",\"approach-retreat\",\"58\",\"1120549\",\"0.0-58.0\",\"\",\"\",\"3-4\",\"6442\",\"39\",\"0\",\"Training\",\"Stims/Figures/94-J-0-2.bmp\",\"None\",\"Right\",\"37\",\"4\",\"7\",\"10\",\"N\",\"J\",\"55\"
\"\",\"\",\"approach-retreat\",\"59\",\"1129725\",\"0.0-59.0\",\"\",\"\",\"3-4\",\"7667\",\"39\",\"0\",\"Training\",\"Stims/Figures/111-C-30-3.bmp\",\"None\",\"Left\",\"37\",\"4\",\"8\",\"10\",\"N\",\"J\",\"56\"
\"\",\"\",\"approach-retreat\",\"60\",\"1137266\",\"0.0-60.0\",\"\",\"\",\"3-4\",\"6032\",\"38\",\"0\",\"Training\",\"Stims/Figures/102-C-20-4.bmp\",\"None\",\"Down\",\"40\",\"4\",\"9\",\"10\",\"N\",\"J\",\"57\"
\"\",\"\",\"approach-retreat\",\"61\",\"1144993\",\"0.0-61.0\",\"\",\"\",\"3-4\",\"6220\",\"40\",\"1\",\"Training\",\"Stims/Figures/111-J-10-3.bmp\",\"None\",\"Up\",\"40\",\"4\",\"10\",\"10\",\"N\",\"J\",\"58\"
\"\",\"\",\"approach-retreat\",\"62\",\"1152576\",\"0.0-62.0\",\"\",\"\",\"3-4\",\"6075\",\"38\",\"1\",\"Training\",\"Stims/Figures/74-J-10-4.bmp\",\"None\",\"Down\",\"38\",\"4\",\"11\",\"10\",\"N\",\"J\",\"59\"
\"\",\"\",\"approach-retreat\",\"63\",\"1159755\",\"0.0-63.0\",\"\",\"\",\"3-4\",\"5672\",\"39\",\"0\",\"Training\",\"Stims/Figures/144-C-30-3.bmp\",\"None\",\"Left\",\"37\",\"4\",\"12\",\"10\",\"N\",\"J\",\"60\"
\"\",\"\",\"approach-retreat\",\"64\",\"1167365\",\"0.0-64.0\",\"\",\"\",\"3-4\",\"6101\",\"40\",\"0\",\"Training\",\"Stims/Figures/118-J-0-2.bmp\",\"None\",\"Down\",\"38\",\"4\",\"13\",\"10\",\"N\",\"J\",\"61\"
\"\",\"\",\"approach-retreat\",\"65\",\"1175043\",\"0.0-65.0\",\"\",\"\",\"3-4\",\"6169\",\"39\",\"1\",\"Training\",\"Stims/Figures/74-C-20-4.bmp\",\"None\",\"Right\",\"39\",\"4\",\"14\",\"10\",\"N\",\"J\",\"62\"
\"\",\"\",\"approach-retreat\",\"66\",\"1185432\",\"0.0-66.0\",\"\",\"\",\"3-4\",\"8881\",\"37\",\"1\",\"Training\",\"Stims/Figures/27-J-0-1.bmp\",\"None\",\"Right\",\"37\",\"4\",\"15\",\"10\",\"N\",\"J\",\"63\"
\"\",\"\",\"approach-retreat\",\"67\",\"1192329\",\"0.0-67.0\",\"\",\"\",\"3-4\",\"5389\",\"40\",\"0\",\"Training\",\"Stims/Figures/118-C-20-2.bmp\",\"None\",\"Up\",\"38\",\"4\",\"16\",\"10\",\"N\",\"J\",\"64\"
\"\",\"\",\"approach-retreat\",\"68\",\"1198386\",\"0.0-68.0\",\"\",\"\",\"3-4\",\"4549\",\"40\",\"0\",\"Training\",\"Stims/Figures/94-C-20-2.bmp\",\"None\",\"Up\",\"38\",\"5\",\"1\",\"10\",\"N\",\"J\",\"65\"
\"\",\"\",\"approach-retreat\",\"69\",\"1207042\",\"0.0-69.0\",\"\",\"\",\"3-4\",\"7149\",\"37\",\"0\",\"Training\",\"Stims/Figures/111-C-30-3.bmp\",\"None\",\"Right\",\"39\",\"5\",\"2\",\"10\",\"N\",\"J\",\"66\"
\"\",\"\",\"approach-retreat\",\"70\",\"1216567\",\"0.0-70.0\",\"\",\"\",\"3-4\",\"8016\",\"39\",\"1\",\"Training\",\"Stims/Figures/102-C-20-4.bmp\",\"None\",\"Right\",\"39\",\"5\",\"3\",\"10\",\"N\",\"J\",\"67\"
\"\",\"\",\"approach-retreat\",\"71\",\"1224514\",\"0.0-71.0\",\"\",\"\",\"3-4\",\"6438\",\"38\",\"0\",\"Training\",\"Stims/Figures/118-C-20-2.bmp\",\"None\",\"Down\",\"40\",\"5\",\"4\",\"10\",\"N\",\"J\",\"68\"
\"\",\"\",\"approach-retreat\",\"72\",\"1233671\",\"0.0-72.0\",\"\",\"\",\"3-4\",\"7648\",\"37\",\"0\",\"Training\",\"Stims/Figures/144-J-10-3.bmp\",\"None\",\"Left\",\"39\",\"5\",\"5\",\"10\",\"N\",\"J\",\"69\"
\"\",\"\",\"approach-retreat\",\"73\",\"1244552\",\"0.0-73.0\",\"\",\"\",\"3-4\",\"9373\",\"37\",\"0\",\"Training\",\"Stims/Figures/27-J-0-1.bmp\",\"None\",\"Left\",\"39\",\"5\",\"6\",\"10\",\"N\",\"J\",\"70\"
\"\",\"\",\"approach-retreat\",\"74\",\"1254228\",\"0.0-74.0\",\"\",\"\",\"3-4\",\"8167\",\"38\",\"0\",\"Training\",\"Stims/Figures/118-J-0-2.bmp\",\"None\",\"Up\",\"40\",\"5\",\"7\",\"10\",\"N\",\"J\",\"71\"
\"\",\"\",\"approach-retreat\",\"75\",\"1262698\",\"0.0-75.0\",\"\",\"\",\"3-4\",\"6960\",\"39\",\"0\",\"Training\",\"Stims/Figures/94-J-0-2.bmp\",\"None\",\"Right\",\"37\",\"5\",\"8\",\"10\",\"N\",\"J\",\"72\"
\"\",\"\",\"approach-retreat\",\"76\",\"1269327\",\"0.0-76.0\",\"\",\"\",\"3-4\",\"5121\",\"38\",\"0\",\"Training\",\"Stims/Figures/27-C-30-1.bmp\",\"None\",\"Down\",\"40\",\"5\",\"9\",\"10\",\"N\",\"J\",\"73\"
\"\",\"\",\"approach-retreat\",\"77\",\"1279057\",\"0.0-77.0\",\"\",\"\",\"3-4\",\"8221\",\"39\",\"1\",\"Training\",\"Stims/Figures/111-J-10-3.bmp\",\"None\",\"Left\",\"39\",\"5\",\"10\",\"10\",\"N\",\"J\",\"74\"
\"\",\"\",\"approach-retreat\",\"78\",\"1292223\",\"0.0-78.0\",\"\",\"\",\"3-4\",\"11658\",\"38\",\"1\",\"Training\",\"Stims/Figures/102-J-10-4.bmp\",\"None\",\"Down\",\"38\",\"5\",\"11\",\"10\",\"N\",\"J\",\"75\"
\"\",\"\",\"approach-retreat\",\"79\",\"1303907\",\"0.0-79.0\",\"\",\"\",\"3-4\",\"10175\",\"40\",\"1\",\"Training\",\"Stims/Figures/74-J-10-4.bmp\",\"None\",\"Up\",\"40\",\"5\",\"12\",\"10\",\"N\",\"J\",\"76\"
\"\",\"\",\"approach-retreat\",\"80\",\"1311549\",\"0.0-80.0\",\"\",\"\",\"3-4\",\"6135\",\"39\",\"0\",\"Training\",\"Stims/Figures/144-C-30-3.bmp\",\"None\",\"Left\",\"37\",\"5\",\"13\",\"10\",\"N\",\"J\",\"77\"
\"\",\"\",\"approach-retreat\",\"81\",\"1318331\",\"0.0-81.0\",\"\",\"\",\"3-4\",\"5273\",\"40\",\"0\",\"Training\",\"Stims/Figures/86-J-0-1.bmp\",\"None\",\"Down\",\"38\",\"5\",\"14\",\"10\",\"N\",\"J\",\"78\"
\"\",\"\",\"approach-retreat\",\"82\",\"1325719\",\"0.0-82.0\",\"\",\"\",\"3-4\",\"5880\",\"40\",\"0\",\"Training\",\"Stims/Figures/74-C-20-4.bmp\",\"None\",\"Up\",\"38\",\"5\",\"15\",\"10\",\"N\",\"J\",\"79\"
\"\",\"\",\"approach-retreat\",\"83\",\"1333875\",\"0.0-83.0\",\"\",\"\",\"3-4\",\"6648\",\"39\",\"1\",\"Training\",\"Stims/Figures/86-C-30-1.bmp\",\"None\",\"Right\",\"39\",\"5\",\"16\",\"10\",\"N\",\"J\",\"80\"
\"\",\"\",\"approach-retreat\",\"84\",\"1343090\",\"0.0-84.0\",\"\",\"\",\"3-4\",\"7707\",\"40\",\"0\",\"Training\",\"Stims/Figures/102-J-10-4.bmp\",\"None\",\"Down\",\"38\",\"6\",\"1\",\"10\",\"N\",\"J\",\"81\"
\"\",\"\",\"approach-retreat\",\"85\",\"1353361\",\"0.0-85.0\",\"\",\"\",\"3-4\",\"8761\",\"40\",\"0\",\"Training\",\"Stims/Figures/27-C-30-1.bmp\",\"None\",\"Up\",\"38\",\"6\",\"2\",\"10\",\"N\",\"J\",\"82\"
\"\",\"\",\"approach-retreat\",\"86\",\"1363420\",\"0.0-86.0\",\"\",\"\",\"3-4\",\"8548\",\"38\",\"0\",\"Training\",\"Stims/Figures/144-J-10-3.bmp\",\"None\",\"Up\",\"40\",\"6\",\"3\",\"10\",\"N\",\"J\",\"83\"
\"\",\"\",\"approach-retreat\",\"87\",\"1375220\",\"0.0-87.0\",\"\",\"\",\"3-4\",\"10292\",\"39\",\"0\",\"Training\",\"Stims/Figures/86-J-0-1.bmp\",\"None\",\"Right\",\"37\",\"6\",\"4\",\"10\",\"N\",\"J\",\"84\"
\"\",\"\",\"approach-retreat\",\"88\",\"1389342\",\"0.0-88.0\",\"\",\"\",\"3-4\",\"12614\",\"39\",\"0\",\"Training\",\"Stims/Figures/102-C-20-4.bmp\",\"None\",\"Left\",\"37\",\"6\",\"5\",\"10\",\"N\",\"J\",\"85\"
\"\",\"\",\"approach-retreat\",\"89\",\"1396584\",\"0.0-89.0\",\"\",\"\",\"3-4\",\"5734\",\"38\",\"0\",\"Training\",\"Stims/Figures/94-J-0-2.bmp\",\"None\",\"Up\",\"40\",\"6\",\"6\",\"10\",\"N\",\"J\",\"86\"
\"\",\"\",\"approach-retreat\",\"90\",\"1408605\",\"0.0-90.0\",\"\",\"\",\"3-4\",\"10514\",\"37\",\"1\",\"Training\",\"Stims/Figures/118-J-0-2.bmp\",\"None\",\"Right\",\"37\",\"6\",\"7\",\"10\",\"N\",\"J\",\"87\"
\"\",\"\",\"approach-retreat\",\"91\",\"1415955\",\"0.0-91.0\",\"\",\"\",\"3-4\",\"5841\",\"39\",\"0\",\"Training\",\"Stims/Figures/86-C-30-1.bmp\",\"None\",\"Left\",\"37\",\"6\",\"8\",\"10\",\"N\",\"J\",\"88\"
\"\",\"\",\"approach-retreat\",\"92\",\"1428818\",\"0.0-92.0\",\"\",\"\",\"3-4\",\"11355\",\"37\",\"0\",\"Training\",\"Stims/Figures/27-J-0-1.bmp\",\"None\",\"Left\",\"39\",\"6\",\"9\",\"10\",\"N\",\"J\",\"89\"
\"\",\"\",\"approach-retreat\",\"93\",\"1436150\",\"0.0-93.0\",\"\",\"\",\"3-4\",\"5824\",\"37\",\"1\",\"Training\",\"Stims/Figures/111-C-30-3.bmp\",\"None\",\"Left\",\"37\",\"6\",\"10\",\"10\",\"N\",\"J\",\"90\"
\"\",\"\",\"approach-retreat\",\"94\",\"1444251\",\"0.0-94.0\",\"\",\"\",\"3-4\",\"6592\",\"40\",\"1\",\"Training\",\"Stims/Figures/118-C-20-2.bmp\",\"None\",\"Down\",\"40\",\"6\",\"11\",\"10\",\"N\",\"J\",\"91\"
\"\",\"\",\"approach-retreat\",\"95\",\"1454215\",\"0.0-95.0\",\"\",\"\",\"3-4\",\"8456\",\"39\",\"1\",\"Training\",\"Stims/Figures/144-C-30-3.bmp\",\"None\",\"Right\",\"39\",\"6\",\"12\",\"10\",\"N\",\"J\",\"92\"
\"\",\"\",\"approach-retreat\",\"96\",\"1472556\",\"0.0-96.0\",\"\",\"\",\"3-4\",\"16832\",\"39\",\"1\",\"Training\",\"Stims/Figures/94-C-20-2.bmp\",\"None\",\"Right\",\"39\",\"6\",\"13\",\"10\",\"N\",\"J\",\"93\"
\"\",\"\",\"approach-retreat\",\"97\",\"1483034\",\"0.0-97.0\",\"\",\"\",\"3-4\",\"8969\",\"40\",\"0\",\"Training\",\"Stims/Figures/74-J-10-4.bmp\",\"None\",\"Down\",\"38\",\"6\",\"14\",\"10\",\"N\",\"J\",\"94\"
\"\",\"\",\"approach-retreat\",\"98\",\"1491555\",\"0.0-98.0\",\"\",\"\",\"3-4\",\"7012\",\"38\",\"0\",\"Training\",\"Stims/Figures/74-C-20-4.bmp\",\"None\",\"Down\",\"40\",\"6\",\"15\",\"10\",\"N\",\"J\",\"95\"
\"\",\"\",\"approach-retreat\",\"99\",\"1499004\",\"0.0-99.0\",\"\",\"\",\"3-4\",\"5941\",\"40\",\"1\",\"Training\",\"Stims/Figures/111-J-10-3.bmp\",\"None\",\"Up\",\"40\",\"6\",\"16\",\"10\",\"N\",\"J\",\"96\"
\"\",\"\",\"approach-retreat\",\"100\",\"1506134\",\"0.0-100.0\",\"\",\"\",\"3-4\",\"5622\",\"37\",\"1\",\"Training\",\"Stims/Figures/144-C-30-3.bmp\",\"None\",\"Left\",\"37\",\"7\",\"1\",\"10\",\"N\",\"J\",\"97\"
\"\",\"\",\"approach-retreat\",\"101\",\"1513422\",\"0.0-101.0\",\"\",\"\",\"3-4\",\"5780\",\"38\",\"0\",\"Training\",\"Stims/Figures/111-J-10-3.bmp\",\"None\",\"Up\",\"40\",\"7\",\"2\",\"10\",\"N\",\"J\",\"98\"
\"\",\"\",\"approach-retreat\",\"102\",\"1523874\",\"0.0-102.0\",\"\",\"\",\"3-4\",\"8944\",\"39\",\"1\",\"Training\",\"Stims/Figures/118-C-20-2.bmp\",\"None\",\"Right\",\"39\",\"7\",\"3\",\"10\",\"N\",\"J\",\"99\"
\"\",\"\",\"approach-retreat\",\"103\",\"1532940\",\"0.0-103.0\",\"\",\"\",\"3-4\",\"7558\",\"39\",\"0\",\"Training\",\"Stims/Figures/27-J-0-1.bmp\",\"None\",\"Right\",\"37\",\"7\",\"4\",\"10\",\"N\",\"J\",\"100\"
\"\",\"\",\"approach-retreat\",\"104\",\"1540299\",\"0.0-104.0\",\"\",\"\",\"3-4\",\"5849\",\"38\",\"0\",\"Training\",\"Stims/Figures/118-J-0-2.bmp\",\"None\",\"Up\",\"40\",\"7\",\"5\",\"10\",\"N\",\"J\",\"101\"
\"\",\"\",\"approach-retreat\",\"105\",\"1548870\",\"0.0-105.0\",\"\",\"\",\"3-4\",\"7062\",\"39\",\"0\",\"Training\",\"Stims/Figures/86-J-0-1.bmp\",\"None\",\"Right\",\"37\",\"7\",\"6\",\"10\",\"N\",\"J\",\"102\"
\"\",\"\",\"approach-retreat\",\"106\",\"1556473\",\"0.0-106.0\",\"\",\"\",\"3-4\",\"6094\",\"38\",\"1\",\"Training\",\"Stims/Figures/102-C-20-4.bmp\",\"None\",\"Up\",\"38\",\"7\",\"7\",\"10\",\"N\",\"J\",\"103\"
\"\",\"\",\"approach-retreat\",\"107\",\"1564763\",\"0.0-107.0\",\"\",\"\",\"3-4\",\"6779\",\"38\",\"0\",\"Training\",\"Stims/Figures/74-J-10-4.bmp\",\"None\",\"Up\",\"40\",\"7\",\"8\",\"10\",\"N\",\"J\",\"104\"
\"\",\"\",\"approach-retreat\",\"108\",\"1571917\",\"0.0-108.0\",\"\",\"\",\"3-4\",\"5646\",\"40\",\"0\",\"Training\",\"Stims/Figures/94-J-0-2.bmp\",\"None\",\"Down\",\"38\",\"7\",\"9\",\"10\",\"N\",\"J\",\"105\"
\"\",\"\",\"approach-retreat\",\"109\",\"1577141\",\"0.0-109.0\",\"\",\"\",\"3-4\",\"3714\",\"40\",\"1\",\"Training\",\"Stims/Figures/86-C-30-1.bmp\",\"None\",\"Down\",\"40\",\"7\",\"10\",\"10\",\"N\",\"J\",\"106\"
\"\",\"\",\"approach-retreat\",\"110\",\"1587757\",\"0.0-110.0\",\"\",\"\",\"3-4\",\"9107\",\"39\",\"0\",\"Training\",\"Stims/Figures/94-C-20-2.bmp\",\"None\",\"Left\",\"37\",\"7\",\"11\",\"10\",\"N\",\"J\",\"107\"
\"\",\"\",\"approach-retreat\",\"111\",\"1594128\",\"0.0-111.0\",\"\",\"\",\"3-4\",\"4863\",\"37\",\"1\",\"Training\",\"Stims/Figures/74-C-20-4.bmp\",\"None\",\"Left\",\"37\",\"7\",\"12\",\"10\",\"N\",\"J\",\"108\"
\"\",\"\",\"approach-retreat\",\"112\",\"1601757\",\"0.0-112.0\",\"\",\"\",\"3-4\",\"6120\",\"39\",\"0\",\"Training\",\"Stims/Figures/144-J-10-3.bmp\",\"None\",\"Right\",\"37\",\"7\",\"13\",\"10\",\"N\",\"J\",\"109\"
\"\",\"\",\"approach-retreat\",\"113\",\"1611660\",\"0.0-113.0\",\"\",\"\",\"3-4\",\"8392\",\"40\",\"1\",\"Training\",\"Stims/Figures/111-C-30-3.bmp\",\"None\",\"Down\",\"40\",\"7\",\"14\",\"10\",\"N\",\"J\",\"110\"
\"\",\"\",\"approach-retreat\",\"114\",\"1618792\",\"0.0-114.0\",\"\",\"\",\"3-4\",\"5624\",\"40\",\"1\",\"Training\",\"Stims/Figures/27-C-30-1.bmp\",\"None\",\"Down\",\"40\",\"7\",\"15\",\"10\",\"N\",\"J\",\"111\"
\"\",\"\",\"approach-retreat\",\"115\",\"1632084\",\"0.0-115.0\",\"\",\"\",\"3-4\",\"11784\",\"39\",\"1\",\"Training\",\"Stims/Figures/102-J-10-4.bmp\",\"None\",\"Left\",\"39\",\"7\",\"16\",\"10\",\"N\",\"J\",\"112\"
\"\",\"\",\"approach-retreat\",\"116\",\"1641253\",\"0.0-116.0\",\"\",\"\",\"3-4\",\"7660\",\"38\",\"0\",\"Training\",\"Stims/Figures/27-C-30-1.bmp\",\"None\",\"Down\",\"40\",\"8\",\"1\",\"10\",\"N\",\"J\",\"113\"
\"\",\"\",\"approach-retreat\",\"117\",\"1647631\",\"0.0-117.0\",\"\",\"\",\"3-4\",\"4869\",\"40\",\"0\",\"Training\",\"Stims/Figures/27-J-0-1.bmp\",\"None\",\"Down\",\"38\",\"8\",\"2\",\"10\",\"N\",\"J\",\"114\"
\"\",\"\",\"approach-retreat\",\"118\",\"1656295\",\"0.0-118.0\",\"\",\"\",\"3-4\",\"7155\",\"39\",\"1\",\"Training\",\"Stims/Figures/94-C-20-2.bmp\",\"None\",\"Right\",\"39\",\"8\",\"3\",\"10\",\"N\",\"J\",\"115\"
\"\",\"\",\"approach-retreat\",\"119\",\"1665033\",\"0.0-119.0\",\"\",\"\",\"3-4\",\"7229\",\"37\",\"1\",\"Training\",\"Stims/Figures/74-C-20-4.bmp\",\"None\",\"Left\",\"37\",\"8\",\"4\",\"10\",\"N\",\"J\",\"116\"
\"\",\"\",\"approach-retreat\",\"120\",\"1672147\",\"0.0-120.0\",\"\",\"\",\"3-4\",\"5605\",\"37\",\"0\",\"Training\",\"Stims/Figures/86-C-30-1.bmp\",\"None\",\"Right\",\"39\",\"8\",\"5\",\"10\",\"N\",\"J\",\"117\"
\"\",\"\",\"approach-retreat\",\"121\",\"1679092\",\"0.0-121.0\",\"\",\"\",\"3-4\",\"5438\",\"39\",\"1\",\"Training\",\"Stims/Figures/111-C-30-3.bmp\",\"None\",\"Right\",\"39\",\"8\",\"6\",\"10\",\"N\",\"J\",\"118\"
\"\",\"\",\"approach-retreat\",\"122\",\"1688887\",\"0.0-122.0\",\"\",\"\",\"3-4\",\"8285\",\"38\",\"0\",\"Training\",\"Stims/Figures/118-C-20-2.bmp\",\"None\",\"Down\",\"40\",\"8\",\"7\",\"10\",\"N\",\"J\",\"119\"
\"\",\"\",\"approach-retreat\",\"123\",\"1695567\",\"0.0-123.0\",\"\",\"\",\"3-4\",\"5172\",\"38\",\"0\",\"Training\",\"Stims/Figures/74-J-10-4.bmp\",\"None\",\"Up\",\"40\",\"8\",\"8\",\"10\",\"N\",\"J\",\"120\"
\"\",\"\",\"approach-retreat\",\"124\",\"1705227\",\"0.0-124.0\",\"\",\"\",\"3-4\",\"8151\",\"38\",\"1\",\"Training\",\"Stims/Figures/102-J-10-4.bmp\",\"None\",\"Down\",\"38\",\"8\",\"9\",\"10\",\"N\",\"J\",\"121\"
\"\",\"\",\"approach-retreat\",\"125\",\"1712605\",\"0.0-125.0\",\"\",\"\",\"3-4\",\"5871\",\"39\",\"0\",\"Training\",\"Stims/Figures/118-J-0-2.bmp\",\"None\",\"Right\",\"37\",\"8\",\"10\",\"10\",\"N\",\"J\",\"122\"
\"\",\"\",\"approach-retreat\",\"126\",\"1719539\",\"0.0-126.0\",\"\",\"\",\"3-4\",\"5424\",\"40\",\"0\",\"Training\",\"Stims/Figures/102-C-20-4.bmp\",\"None\",\"Up\",\"38\",\"8\",\"11\",\"10\",\"N\",\"J\",\"123\"
\"\",\"\",\"approach-retreat\",\"127\",\"1727538\",\"0.0-127.0\",\"\",\"\",\"3-4\",\"6492\",\"39\",\"0\",\"Training\",\"Stims/Figures/144-C-30-3.bmp\",\"None\",\"Left\",\"37\",\"8\",\"12\",\"10\",\"N\",\"J\",\"124\"
\"\",\"\",\"approach-retreat\",\"128\",\"1735158\",\"0.0-128.0\",\"\",\"\",\"3-4\",\"6112\",\"37\",\"0\",\"Training\",\"Stims/Figures/86-J-0-1.bmp\",\"None\",\"Left\",\"39\",\"8\",\"13\",\"10\",\"N\",\"J\",\"125\"
\"\",\"\",\"approach-retreat\",\"129\",\"1742967\",\"0.0-129.0\",\"\",\"\",\"3-4\",\"6301\",\"38\",\"0\",\"Training\",\"Stims/Figures/94-J-0-2.bmp\",\"None\",\"Up\",\"40\",\"8\",\"14\",\"10\",\"N\",\"J\",\"126\"
\"\",\"\",\"approach-retreat\",\"130\",\"1751840\",\"0.0-130.0\",\"\",\"\",\"3-4\",\"7367\",\"39\",\"1\",\"Training\",\"Stims/Figures/111-J-10-3.bmp\",\"None\",\"Left\",\"39\",\"8\",\"15\",\"10\",\"N\",\"J\",\"127\"
\"\",\"\",\"approach-retreat\",\"131\",\"1758599\",\"0.0-131.0\",\"\",\"\",\"3-4\",\"5249\",\"38\",\"0\",\"Training\",\"Stims/Figures/144-J-10-3.bmp\",\"None\",\"Up\",\"40\",\"8\",\"16\",\"10\",\"N\",\"J\",\"128\"
\"\",\"\",\"approach-retreat\",\"132\",\"1764535\",\"0.0-132.0\",\"\",\"\",\"3-4\",\"4428\",\"40\",\"1\",\"Training\",\"Stims/Figures/102-J-10-4.bmp\",\"None\",\"Up\",\"40\",\"9\",\"1\",\"10\",\"N\",\"J\",\"129\"
\"\",\"\",\"approach-retreat\",\"133\",\"1771974\",\"0.0-133.0\",\"\",\"\",\"3-4\",\"5929\",\"38\",\"0\",\"Training\",\"Stims/Figures/94-C-20-2.bmp\",\"None\",\"Down\",\"40\",\"9\",\"2\",\"10\",\"N\",\"J\",\"130\"
\"\",\"\",\"approach-retreat\",\"134\",\"1779523\",\"0.0-134.0\",\"\",\"\",\"3-4\",\"6041\",\"40\",\"0\",\"Training\",\"Stims/Figures/94-J-0-2.bmp\",\"None\",\"Down\",\"38\",\"9\",\"3\",\"10\",\"N\",\"J\",\"131\"
\"\",\"\",\"approach-retreat\",\"135\",\"1786328\",\"0.0-135.0\",\"\",\"\",\"3-4\",\"5295\",\"37\",\"0\",\"Training\",\"Stims/Figures/144-C-30-3.bmp\",\"None\",\"Right\",\"39\",\"9\",\"4\",\"10\",\"N\",\"J\",\"132\"
\"\",\"\",\"approach-retreat\",\"136\",\"1795102\",\"0.0-136.0\",\"\",\"\",\"3-4\",\"7266\",\"37\",\"1\",\"Training\",\"Stims/Figures/111-C-30-3.bmp\",\"None\",\"Left\",\"37\",\"9\",\"5\",\"10\",\"N\",\"J\",\"133\"
\"\",\"\",\"approach-retreat\",\"137\",\"1801805\",\"0.0-137.0\",\"\",\"\",\"3-4\",\"5195\",\"39\",\"0\",\"Training\",\"Stims/Figures/27-C-30-1.bmp\",\"None\",\"Left\",\"37\",\"9\",\"6\",\"10\",\"N\",\"J\",\"134\"
\"\",\"\",\"approach-retreat\",\"138\",\"1808946\",\"0.0-138.0\",\"\",\"\",\"3-4\",\"5634\",\"38\",\"1\",\"Training\",\"Stims/Figures/86-C-30-1.bmp\",\"None\",\"Up\",\"38\",\"9\",\"7\",\"10\",\"N\",\"J\",\"135\"
\"\",\"\",\"approach-retreat\",\"139\",\"1817658\",\"0.0-139.0\",\"\",\"\",\"3-4\",\"7205\",\"40\",\"1\",\"Training\",\"Stims/Figures/118-C-20-2.bmp\",\"None\",\"Down\",\"40\",\"9\",\"8\",\"10\",\"N\",\"J\",\"136\"
\"\",\"\",\"approach-retreat\",\"140\",\"1830619\",\"0.0-140.0\",\"\",\"\",\"3-4\",\"11452\",\"39\",\"0\",\"Training\",\"Stims/Figures/86-J-0-1.bmp\",\"None\",\"Right\",\"37\",\"9\",\"9\",\"10\",\"N\",\"J\",\"137\"
\"\",\"\",\"approach-retreat\",\"141\",\"1838475\",\"0.0-141.0\",\"\",\"\",\"3-4\",\"6348\",\"40\",\"1\",\"Training\",\"Stims/Figures/102-C-20-4.bmp\",\"None\",\"Down\",\"40\",\"9\",\"10\",\"10\",\"N\",\"J\",\"138\"
\"\",\"\",\"approach-retreat\",\"142\",\"1846269\",\"0.0-142.0\",\"\",\"\",\"3-4\",\"6286\",\"39\",\"0\",\"Training\",\"Stims/Figures/111-J-10-3.bmp\",\"None\",\"Right\",\"37\",\"9\",\"11\",\"10\",\"N\",\"J\",\"139\"
\"\",\"\",\"approach-retreat\",\"143\",\"1852713\",\"0.0-143.0\",\"\",\"\",\"3-4\",\"4936\",\"39\",\"1\",\"Training\",\"Stims/Figures/27-J-0-1.bmp\",\"None\",\"Left\",\"39\",\"9\",\"12\",\"10\",\"N\",\"J\",\"140\"
\"\",\"\",\"approach-retreat\",\"144\",\"1861294\",\"0.0-144.0\",\"\",\"\",\"3-4\",\"7073\",\"38\",\"0\",\"Training\",\"Stims/Figures/118-J-0-2.bmp\",\"None\",\"Up\",\"40\",\"9\",\"13\",\"10\",\"N\",\"J\",\"141\"
\"\",\"\",\"approach-retreat\",\"145\",\"1868670\",\"0.0-145.0\",\"\",\"\",\"3-4\",\"5868\",\"39\",\"0\",\"Training\",\"Stims/Figures/74-J-10-4.bmp\",\"None\",\"Right\",\"37\",\"9\",\"14\",\"10\",\"N\",\"J\",\"142\"
\"\",\"\",\"approach-retreat\",\"146\",\"1878052\",\"0.0-146.0\",\"\",\"\",\"3-4\",\"7874\",\"38\",\"1\",\"Training\",\"Stims/Figures/74-C-20-4.bmp\",\"None\",\"Up\",\"38\",\"9\",\"15\",\"10\",\"N\",\"J\",\"143\"
\"\",\"\",\"approach-retreat\",\"147\",\"1886517\",\"0.0-147.0\",\"\",\"\",\"3-4\",\"6958\",\"37\",\"0\",\"Training\",\"Stims/Figures/144-J-10-3.bmp\",\"None\",\"Left\",\"39\",\"9\",\"16\",\"10\",\"N\",\"J\",\"144\"
\"66911\",\"\",\"instructions\",\"148\",\"1953429\",\"0.0-148.0\",\"[{\"\"page_index\"\":0,\"\"viewing_time\"\":66910}]\",\"\",\"\",\"\",\"\",\"\",\"\",\"\",\"\",\"\",\"\",\"\",\"\",\"\",\"\",\"\",\"\"
\"\",\"\",\"approach-retreat\",\"149\",\"1978539\",\"0.0-149.0\",\"\",\"\",\"3-4\",\"23601\",\"39\",\"0\",\"Testing\",\"Stims/Figures/144-C-30-3.bmp\",\"None\",\"Left\",\"37\",\"1\",\"1\",\"10\",\"N\",\"J\",\"1\"
\"\",\"\",\"approach-retreat\",\"150\",\"1989478\",\"0.0-150.0\",\"\",\"\",\"3-4\",\"9430\",\"40\",\"1\",\"Testing\",\"Stims/Figures/7-C-20-4.bmp\",\"None\",\"Down\",\"40\",\"1\",\"2\",\"10\",\"N\",\"J\",\"2\"
\"\",\"\",\"approach-retreat\",\"151\",\"2000405\",\"0.0-151.0\",\"\",\"\",\"3-4\",\"9417\",\"37\",\"1\",\"Testing\",\"Stims/Figures/74-C-20-4.bmp\",\"None\",\"Left\",\"37\",\"1\",\"3\",\"10\",\"N\",\"J\",\"3\"
\"\",\"\",\"approach-retreat\",\"152\",\"2013489\",\"0.0-152.0\",\"\",\"\",\"3-4\",\"11576\",\"39\",\"1\",\"Testing\",\"Stims/Figures/27-J-0-1.bmp\",\"None\",\"Left\",\"39\",\"1\",\"4\",\"10\",\"N\",\"J\",\"4\"
\"\",\"\",\"approach-retreat\",\"153\",\"2023411\",\"0.0-153.0\",\"\",\"\",\"3-4\",\"8412\",\"37\",\"0\",\"Testing\",\"Stims/Figures/7-J-10-4.bmp\",\"None\",\"Left\",\"39\",\"1\",\"5\",\"10\",\"N\",\"J\",\"5\"
\"\",\"\",\"approach-retreat\",\"154\",\"2033599\",\"0.0-154.0\",\"\",\"\",\"3-4\",\"8679\",\"38\",\"0\",\"Testing\",\"Stims/Figures/57-J-0-1.bmp\",\"None\",\"Up\",\"40\",\"1\",\"6\",\"10\",\"N\",\"J\",\"6\"
\"\",\"\",\"approach-retreat\",\"155\",\"2042149\",\"0.0-155.0\",\"\",\"\",\"3-4\",\"7041\",\"38\",\"0\",\"Testing\",\"Stims/Figures/27-C-30-1.bmp\",\"None\",\"Down\",\"40\",\"1\",\"7\",\"10\",\"N\",\"J\",\"7\"
\"\",\"\",\"approach-retreat\",\"156\",\"2053419\",\"0.0-156.0\",\"\",\"\",\"3-4\",\"9762\",\"40\",\"1\",\"Testing\",\"Stims/Figures/128-J-10-3.bmp\",\"None\",\"Up\",\"40\",\"1\",\"8\",\"10\",\"N\",\"J\",\"8\"
\"\",\"\",\"approach-retreat\",\"157\",\"2064167\",\"0.0-157.0\",\"\",\"\",\"3-4\",\"9239\",\"37\",\"1\",\"Testing\",\"Stims/Figures/85-C-20-2.bmp\",\"None\",\"Left\",\"37\",\"1\",\"9\",\"10\",\"N\",\"J\",\"9\"
\"\",\"\",\"approach-retreat\",\"158\",\"2073664\",\"0.0-158.0\",\"\",\"\",\"3-4\",\"7989\",\"38\",\"1\",\"Testing\",\"Stims/Figures/144-J-10-3.bmp\",\"None\",\"Down\",\"38\",\"1\",\"10\",\"10\",\"N\",\"J\",\"10\"
\"\",\"\",\"approach-retreat\",\"159\",\"2082497\",\"0.0-159.0\",\"\",\"\",\"3-4\",\"7325\",\"40\",\"1\",\"Testing\",\"Stims/Figures/94-J-0-2.bmp\",\"None\",\"Up\",\"40\",\"1\",\"11\",\"10\",\"N\",\"J\",\"11\"
\"\",\"\",\"approach-retreat\",\"160\",\"2090297\",\"0.0-160.0\",\"\",\"\",\"3-4\",\"6291\",\"38\",\"1\",\"Testing\",\"Stims/Figures/86-C-30-1.bmp\",\"None\",\"Up\",\"38\",\"1\",\"12\",\"10\",\"N\",\"J\",\"12\"
\"\",\"\",\"approach-retreat\",\"161\",\"2098661\",\"0.0-161.0\",\"\",\"\",\"3-4\",\"6856\",\"37\",\"1\",\"Testing\",\"Stims/Figures/102-J-10-4.bmp\",\"None\",\"Right\",\"37\",\"1\",\"13\",\"10\",\"N\",\"J\",\"13\"
\"\",\"\",\"approach-retreat\",\"162\",\"2106605\",\"0.0-162.0\",\"\",\"\",\"3-4\",\"6437\",\"37\",\"0\",\"Testing\",\"Stims/Figures/94-C-20-2.bmp\",\"None\",\"Right\",\"39\",\"1\",\"14\",\"10\",\"N\",\"J\",\"14\"
\"\",\"\",\"approach-retreat\",\"163\",\"2112807\",\"0.0-163.0\",\"\",\"\",\"3-4\",\"4694\",\"37\",\"0\",\"Testing\",\"Stims/Figures/102-C-20-4.bmp\",\"None\",\"Right\",\"39\",\"1\",\"15\",\"10\",\"N\",\"J\",\"15\"
\"\",\"\",\"approach-retreat\",\"164\",\"2119800\",\"0.0-164.0\",\"\",\"\",\"3-4\",\"5483\",\"37\",\"1\",\"Testing\",\"Stims/Figures/118-C-20-2.bmp\",\"None\",\"Left\",\"37\",\"1\",\"16\",\"10\",\"N\",\"J\",\"16\"
\"\",\"\",\"approach-retreat\",\"165\",\"2127825\",\"0.0-165.0\",\"\",\"\",\"3-4\",\"6517\",\"39\",\"0\",\"Testing\",\"Stims/Figures/85-J-0-2.bmp\",\"None\",\"Right\",\"37\",\"1\",\"17\",\"10\",\"N\",\"J\",\"17\"
\"\",\"\",\"approach-retreat\",\"166\",\"2134478\",\"0.0-166.0\",\"\",\"\",\"3-4\",\"5143\",\"37\",\"0\",\"Testing\",\"Stims/Figures/111-C-30-3.bmp\",\"None\",\"Right\",\"39\",\"1\",\"18\",\"10\",\"N\",\"J\",\"18\"
\"\",\"\",\"approach-retreat\",\"167\",\"2143172\",\"0.0-167.0\",\"\",\"\",\"3-4\",\"7186\",\"38\",\"1\",\"Testing\",\"Stims/Figures/128-C-30-3.bmp\",\"None\",\"Up\",\"38\",\"1\",\"19\",\"10\",\"N\",\"J\",\"19\"
\"\",\"\",\"approach-retreat\",\"168\",\"2153476\",\"0.0-168.0\",\"\",\"\",\"3-4\",\"8796\",\"38\",\"1\",\"Testing\",\"Stims/Figures/57-C-30-1.bmp\",\"None\",\"Up\",\"38\",\"1\",\"20\",\"10\",\"N\",\"J\",\"20\"
\"\",\"\",\"approach-retreat\",\"169\",\"2163527\",\"0.0-169.0\",\"\",\"\",\"3-4\",\"8543\",\"38\",\"1\",\"Testing\",\"Stims/Figures/86-J-0-1.bmp\",\"None\",\"Down\",\"38\",\"1\",\"21\",\"10\",\"N\",\"J\",\"21\"
\"\",\"\",\"approach-retreat\",\"170\",\"2171310\",\"0.0-170.0\",\"\",\"\",\"3-4\",\"6274\",\"39\",\"0\",\"Testing\",\"Stims/Figures/118-J-0-2.bmp\",\"None\",\"Right\",\"37\",\"1\",\"22\",\"10\",\"N\",\"J\",\"22\"
\"\",\"\",\"approach-retreat\",\"171\",\"2183849\",\"0.0-171.0\",\"\",\"\",\"3-4\",\"11031\",\"38\",\"1\",\"Testing\",\"Stims/Figures/74-J-10-4.bmp\",\"None\",\"Down\",\"38\",\"1\",\"23\",\"10\",\"N\",\"J\",\"23\"
\"\",\"\",\"approach-retreat\",\"172\",\"2194376\",\"0.0-172.0\",\"\",\"\",\"3-4\",\"9018\",\"40\",\"0\",\"Testing\",\"Stims/Figures/111-J-10-3.bmp\",\"None\",\"Down\",\"38\",\"1\",\"24\",\"10\",\"N\",\"J\",\"24\"
\"\",\"\",\"approach-retreat\",\"173\",\"2202476\",\"0.0-173.0\",\"\",\"\",\"3-4\",\"6593\",\"39\",\"1\",\"Testing\",\"Stims/Figures/27-J-0-1.bmp\",\"None\",\"Left\",\"39\",\"2\",\"1\",\"10\",\"N\",\"J\",\"25\"
\"\",\"\",\"approach-retreat\",\"174\",\"2209753\",\"0.0-174.0\",\"\",\"\",\"3-4\",\"5768\",\"37\",\"1\",\"Testing\",\"Stims/Figures/144-J-10-3.bmp\",\"None\",\"Right\",\"37\",\"2\",\"2\",\"10\",\"N\",\"J\",\"26\"
\"\",\"\",\"approach-retreat\",\"175\",\"2217815\",\"0.0-175.0\",\"\",\"\",\"3-4\",\"6553\",\"37\",\"0\",\"Testing\",\"Stims/Figures/57-J-0-1.bmp\",\"None\",\"Left\",\"39\",\"2\",\"3\",\"10\",\"N\",\"J\",\"27\"
\"\",\"\",\"approach-retreat\",\"176\",\"2225958\",\"0.0-176.0\",\"\",\"\",\"3-4\",\"6634\",\"38\",\"0\",\"Testing\",\"Stims/Figures/102-C-20-4.bmp\",\"None\",\"Down\",\"40\",\"2\",\"4\",\"10\",\"N\",\"J\",\"28\"
\"\",\"\",\"approach-retreat\",\"177\",\"2238585\",\"0.0-177.0\",\"\",\"\",\"3-4\",\"11118\",\"40\",\"1\",\"Testing\",\"Stims/Figures/74-J-10-4.bmp\",\"None\",\"Up\",\"40\",\"2\",\"5\",\"10\",\"N\",\"J\",\"29\"
\"\",\"\",\"approach-retreat\",\"178\",\"2248808\",\"0.0-178.0\",\"\",\"\",\"3-4\",\"8715\",\"37\",\"0\",\"Testing\",\"Stims/Figures/85-C-20-2.bmp\",\"None\",\"Right\",\"39\",\"2\",\"6\",\"10\",\"N\",\"J\",\"30\"
\"\",\"\",\"approach-retreat\",\"179\",\"2258731\",\"0.0-179.0\",\"\",\"\",\"3-4\",\"8415\",\"38\",\"0\",\"Testing\",\"Stims/Figures/118-C-20-2.bmp\",\"None\",\"Down\",\"40\",\"2\",\"7\",\"10\",\"N\",\"J\",\"31\"
\"\",\"\",\"approach-retreat\",\"180\",\"2265596\",\"0.0-180.0\",\"\",\"\",\"3-4\",\"5356\",\"39\",\"0\",\"Testing\",\"Stims/Figures/7-J-10-4.bmp\",\"None\",\"Right\",\"37\",\"2\",\"8\",\"10\",\"N\",\"J\",\"32\"
\"\",\"\",\"approach-retreat\",\"181\",\"2272571\",\"0.0-181.0\",\"\",\"\",\"3-4\",\"5466\",\"40\",\"0\",\"Testing\",\"Stims/Figures/85-J-0-2.bmp\",\"None\",\"Down\",\"38\",\"2\",\"9\",\"10\",\"N\",\"J\",\"33\"
\"\",\"\",\"approach-retreat\",\"182\",\"2281110\",\"0.0-182.0\",\"\",\"\",\"3-4\",\"7031\",\"38\",\"1\",\"Testing\",\"Stims/Figures/7-C-20-4.bmp\",\"None\",\"Up\",\"38\",\"2\",\"10\",\"10\",\"N\",\"J\",\"34\"
\"\",\"\",\"approach-retreat\",\"183\",\"2293453\",\"0.0-183.0\",\"\",\"\",\"3-4\",\"10833\",\"37\",\"1\",\"Testing\",\"Stims/Figures/128-C-30-3.bmp\",\"None\",\"Left\",\"37\",\"2\",\"11\",\"10\",\"N\",\"J\",\"35\"
\"\",\"\",\"approach-retreat\",\"184\",\"2304156\",\"0.0-184.0\",\"\",\"\",\"3-4\",\"9195\",\"38\",\"0\",\"Testing\",\"Stims/Figures/144-C-30-3.bmp\",\"None\",\"Down\",\"40\",\"2\",\"12\",\"10\",\"N\",\"J\",\"36\"
\"\",\"\",\"approach-retreat\",\"185\",\"2317061\",\"0.0-185.0\",\"\",\"\",\"3-4\",\"11396\",\"39\",\"0\",\"Testing\",\"Stims/Figures/128-J-10-3.bmp\",\"None\",\"Right\",\"37\",\"2\",\"13\",\"10\",\"N\",\"J\",\"37\"
\"\",\"\",\"approach-retreat\",\"186\",\"2324035\",\"0.0-186.0\",\"\",\"\",\"3-4\",\"5467\",\"38\",\"1\",\"Testing\",\"Stims/Figures/111-C-30-3.bmp\",\"None\",\"Up\",\"38\",\"2\",\"14\",\"10\",\"N\",\"J\",\"38\"
\"\",\"\",\"approach-retreat\",\"187\",\"2331989\",\"0.0-187.0\",\"\",\"\",\"3-4\",\"6444\",\"38\",\"0\",\"Testing\",\"Stims/Figures/27-C-30-1.bmp\",\"None\",\"Down\",\"40\",\"2\",\"15\",\"10\",\"N\",\"J\",\"39\"
\"\",\"\",\"approach-retreat\",\"188\",\"2339786\",\"0.0-188.0\",\"\",\"\",\"3-4\",\"6291\",\"38\",\"0\",\"Testing\",\"Stims/Figures/94-J-0-2.bmp\",\"None\",\"Up\",\"40\",\"2\",\"16\",\"10\",\"N\",\"J\",\"40\"
\"\",\"\",\"approach-retreat\",\"189\",\"2348003\",\"0.0-189.0\",\"\",\"\",\"3-4\",\"6709\",\"37\",\"1\",\"Testing\",\"Stims/Figures/86-C-30-1.bmp\",\"None\",\"Left\",\"37\",\"2\",\"17\",\"10\",\"N\",\"J\",\"41\"
\"\",\"\",\"approach-retreat\",\"190\",\"2360998\",\"0.0-190.0\",\"\",\"\",\"3-4\",\"11483\",\"39\",\"1\",\"Testing\",\"Stims/Figures/111-J-10-3.bmp\",\"None\",\"Left\",\"39\",\"2\",\"18\",\"10\",\"N\",\"J\",\"42\"
\"\",\"\",\"approach-retreat\",\"191\",\"2367015\",\"0.0-191.0\",\"\",\"\",\"3-4\",\"4509\",\"40\",\"0\",\"Testing\",\"Stims/Figures/94-C-20-2.bmp\",\"None\",\"Up\",\"38\",\"2\",\"19\",\"10\",\"N\",\"J\",\"43\"
\"\",\"\",\"approach-retreat\",\"192\",\"2373970\",\"0.0-192.0\",\"\",\"\",\"3-4\",\"5446\",\"40\",\"0\",\"Testing\",\"Stims/Figures/86-J-0-1.bmp\",\"None\",\"Down\",\"38\",\"2\",\"20\",\"10\",\"N\",\"J\",\"44\"
\"\",\"\",\"approach-retreat\",\"193\",\"2380348\",\"0.0-193.0\",\"\",\"\",\"3-4\",\"4868\",\"37\",\"0\",\"Testing\",\"Stims/Figures/74-C-20-4.bmp\",\"None\",\"Right\",\"39\",\"2\",\"21\",\"10\",\"N\",\"J\",\"45\"
\"\",\"\",\"approach-retreat\",\"194\",\"2387352\",\"0.0-194.0\",\"\",\"\",\"3-4\",\"5497\",\"40\",\"1\",\"Testing\",\"Stims/Figures/102-J-10-4.bmp\",\"None\",\"Up\",\"40\",\"2\",\"22\",\"10\",\"N\",\"J\",\"46\"
\"\",\"\",\"approach-retreat\",\"195\",\"2393442\",\"0.0-195.0\",\"\",\"\",\"3-4\",\"4580\",\"39\",\"0\",\"Testing\",\"Stims/Figures/118-J-0-2.bmp\",\"None\",\"Right\",\"37\",\"2\",\"23\",\"10\",\"N\",\"J\",\"47\"
\"\",\"\",\"approach-retreat\",\"196\",\"2400376\",\"0.0-196.0\",\"\",\"\",\"3-4\",\"5428\",\"37\",\"1\",\"Testing\",\"Stims/Figures/57-C-30-1.bmp\",\"None\",\"Left\",\"37\",\"2\",\"24\",\"10\",\"N\",\"J\",\"48\"
\"\",\"\",\"approach-retreat\",\"197\",\"2406397\",\"0.0-197.0\",\"\",\"\",\"3-4\",\"4512\",\"37\",\"0\",\"Testing\",\"Stims/Figures/27-C-30-1.bmp\",\"None\",\"Right\",\"39\",\"3\",\"1\",\"10\",\"N\",\"J\",\"49\"
\"\",\"\",\"approach-retreat\",\"198\",\"2412565\",\"0.0-198.0\",\"\",\"\",\"3-4\",\"4661\",\"39\",\"0\",\"Testing\",\"Stims/Figures/27-J-0-1.bmp\",\"None\",\"Right\",\"37\",\"3\",\"2\",\"10\",\"N\",\"J\",\"50\"
\"\",\"\",\"approach-retreat\",\"199\",\"2419864\",\"0.0-199.0\",\"\",\"\",\"3-4\",\"5792\",\"40\",\"1\",\"Testing\",\"Stims/Figures/7-C-20-4.bmp\",\"None\",\"Down\",\"40\",\"3\",\"3\",\"10\",\"N\",\"J\",\"51\"
\"\",\"\",\"approach-retreat\",\"200\",\"2426109\",\"0.0-200.0\",\"\",\"\",\"3-4\",\"4735\",\"38\",\"0\",\"Testing\",\"Stims/Figures/94-J-0-2.bmp\",\"None\",\"Up\",\"40\",\"3\",\"4\",\"10\",\"N\",\"J\",\"52\"
\"\",\"\",\"approach-retreat\",\"201\",\"2432825\",\"0.0-201.0\",\"\",\"\",\"3-4\",\"5208\",\"39\",\"0\",\"Testing\",\"Stims/Figures/118-C-20-2.bmp\",\"None\",\"Left\",\"37\",\"3\",\"5\",\"10\",\"N\",\"J\",\"53\"
\"\",\"\",\"approach-retreat\",\"202\",\"2439336\",\"0.0-202.0\",\"\",\"\",\"3-4\",\"5002\",\"37\",\"1\",\"Testing\",\"Stims/Figures/57-C-30-1.bmp\",\"None\",\"Left\",\"37\",\"3\",\"6\",\"10\",\"N\",\"J\",\"54\"
\"\",\"\",\"approach-retreat\",\"203\",\"2445770\",\"0.0-203.0\",\"\",\"\",\"3-4\",\"4925\",\"37\",\"0\",\"Testing\",\"Stims/Figures/7-J-10-4.bmp\",\"None\",\"Left\",\"39\",\"3\",\"7\",\"10\",\"N\",\"J\",\"55\"
\"\",\"\",\"approach-retreat\",\"204\",\"2452948\",\"0.0-204.0\",\"\",\"\",\"3-4\",\"5670\",\"40\",\"0\",\"Testing\",\"Stims/Figures/85-C-20-2.bmp\",\"None\",\"Up\",\"38\",\"3\",\"8\",\"10\",\"N\",\"J\",\"56\"
\"\",\"\",\"approach-retreat\",\"205\",\"2460135\",\"0.0-205.0\",\"\",\"\",\"3-4\",\"5678\",\"40\",\"0\",\"Testing\",\"Stims/Figures/85-J-0-2.bmp\",\"None\",\"Down\",\"38\",\"3\",\"9\",\"10\",\"N\",\"J\",\"57\"
\"\",\"\",\"approach-retreat\",\"206\",\"2466561\",\"0.0-206.0\",\"\",\"\",\"3-4\",\"4918\",\"40\",\"1\",\"Testing\",\"Stims/Figures/102-J-10-4.bmp\",\"None\",\"Up\",\"40\",\"3\",\"10\",\"10\",\"N\",\"J\",\"58\"
\"\",\"\",\"approach-retreat\",\"207\",\"2472978\",\"0.0-207.0\",\"\",\"\",\"3-4\",\"4908\",\"40\",\"0\",\"Testing\",\"Stims/Figures/57-J-0-1.bmp\",\"None\",\"Down\",\"38\",\"3\",\"11\",\"10\",\"N\",\"J\",\"59\"
\"\",\"\",\"approach-retreat\",\"208\",\"2479409\",\"0.0-208.0\",\"\",\"\",\"3-4\",\"4922\",\"37\",\"0\",\"Testing\",\"Stims/Figures/74-C-20-4.bmp\",\"None\",\"Right\",\"39\",\"3\",\"12\",\"10\",\"N\",\"J\",\"60\"
\"\",\"\",\"approach-retreat\",\"209\",\"2485926\",\"0.0-209.0\",\"\",\"\",\"3-4\",\"5007\",\"37\",\"0\",\"Testing\",\"Stims/Figures/144-C-30-3.bmp\",\"None\",\"Right\",\"39\",\"3\",\"13\",\"10\",\"N\",\"J\",\"61\"
\"\",\"\",\"approach-retreat\",\"210\",\"2492269\",\"0.0-210.0\",\"\",\"\",\"3-4\",\"4834\",\"38\",\"0\",\"Testing\",\"Stims/Figures/94-C-20-2.bmp\",\"None\",\"Down\",\"40\",\"3\",\"14\",\"10\",\"N\",\"J\",\"62\"
\"\",\"\",\"approach-retreat\",\"211\",\"2498873\",\"0.0-211.0\",\"\",\"\",\"3-4\",\"5097\",\"39\",\"1\",\"Testing\",\"Stims/Figures/74-J-10-4.bmp\",\"None\",\"Left\",\"39\",\"3\",\"15\",\"10\",\"N\",\"J\",\"63\"
\"\",\"\",\"approach-retreat\",\"212\",\"2504854\",\"0.0-212.0\",\"\",\"\",\"3-4\",\"4473\",\"39\",\"0\",\"Testing\",\"Stims/Figures/86-J-0-1.bmp\",\"None\",\"Right\",\"37\",\"3\",\"16\",\"10\",\"N\",\"J\",\"64\"
\"\",\"\",\"approach-retreat\",\"213\",\"2510713\",\"0.0-213.0\",\"\",\"\",\"3-4\",\"4351\",\"39\",\"1\",\"Testing\",\"Stims/Figures/111-J-10-3.bmp\",\"None\",\"Left\",\"39\",\"3\",\"17\",\"10\",\"N\",\"J\",\"65\"
\"\",\"\",\"approach-retreat\",\"214\",\"2516521\",\"0.0-214.0\",\"\",\"\",\"3-4\",\"4300\",\"40\",\"1\",\"Testing\",\"Stims/Figures/118-J-0-2.bmp\",\"None\",\"Up\",\"40\",\"3\",\"18\",\"10\",\"N\",\"J\",\"66\"
\"\",\"\",\"approach-retreat\",\"215\",\"2522532\",\"0.0-215.0\",\"\",\"\",\"3-4\",\"4501\",\"38\",\"0\",\"Testing\",\"Stims/Figures/111-C-30-3.bmp\",\"None\",\"Down\",\"40\",\"3\",\"19\",\"10\",\"N\",\"J\",\"67\"
\"\",\"\",\"approach-retreat\",\"216\",\"2528638\",\"0.0-216.0\",\"\",\"\",\"3-4\",\"4597\",\"38\",\"1\",\"Testing\",\"Stims/Figures/86-C-30-1.bmp\",\"None\",\"Up\",\"38\",\"3\",\"20\",\"10\",\"N\",\"J\",\"68\"
\"\",\"\",\"approach-retreat\",\"217\",\"2534912\",\"0.0-217.0\",\"\",\"\",\"3-4\",\"4766\",\"37\",\"0\",\"Testing\",\"Stims/Figures/128-J-10-3.bmp\",\"None\",\"Left\",\"39\",\"3\",\"21\",\"10\",\"N\",\"J\",\"69\"
\"\",\"\",\"approach-retreat\",\"218\",\"2541025\",\"0.0-218.0\",\"\",\"\",\"3-4\",\"4603\",\"39\",\"1\",\"Testing\",\"Stims/Figures/128-C-30-3.bmp\",\"None\",\"Right\",\"39\",\"3\",\"22\",\"10\",\"N\",\"J\",\"70\"
\"\",\"\",\"approach-retreat\",\"219\",\"2547634\",\"0.0-219.0\",\"\",\"\",\"3-4\",\"5103\",\"40\",\"1\",\"Testing\",\"Stims/Figures/144-J-10-3.bmp\",\"None\",\"Up\",\"40\",\"3\",\"23\",\"10\",\"N\",\"J\",\"71\"
\"\",\"\",\"approach-retreat\",\"220\",\"2554548\",\"0.0-220.0\",\"\",\"\",\"3-4\",\"5407\",\"38\",\"0\",\"Testing\",\"Stims/Figures/102-C-20-4.bmp\",\"None\",\"Down\",\"40\",\"3\",\"24\",\"10\",\"N\",\"J\",\"72\"
\"\",\"\",\"approach-retreat\",\"221\",\"2561316\",\"0.0-221.0\",\"\",\"\",\"3-4\",\"5260\",\"40\",\"0\",\"Testing\",\"Stims/Figures/118-C-20-2.bmp\",\"None\",\"Up\",\"38\",\"4\",\"1\",\"10\",\"N\",\"J\",\"73\"
\"\",\"\",\"approach-retreat\",\"222\",\"2567685\",\"0.0-222.0\",\"\",\"\",\"3-4\",\"4860\",\"38\",\"0\",\"Testing\",\"Stims/Figures/118-J-0-2.bmp\",\"None\",\"Up\",\"40\",\"4\",\"2\",\"10\",\"N\",\"J\",\"74\"
\"\",\"\",\"approach-retreat\",\"223\",\"2573936\",\"0.0-223.0\",\"\",\"\",\"3-4\",\"4743\",\"40\",\"0\",\"Testing\",\"Stims/Figures/27-C-30-1.bmp\",\"None\",\"Up\",\"38\",\"4\",\"3\",\"10\",\"N\",\"J\",\"75\"
\"\",\"\",\"approach-retreat\",\"224\",\"2580128\",\"0.0-224.0\",\"\",\"\",\"3-4\",\"4684\",\"37\",\"0\",\"Testing\",\"Stims/Figures/128-J-10-3.bmp\",\"None\",\"Left\",\"39\",\"4\",\"4\",\"10\",\"N\",\"J\",\"76\"
\"\",\"\",\"approach-retreat\",\"225\",\"2586078\",\"0.0-225.0\",\"\",\"\",\"3-4\",\"4443\",\"38\",\"1\",\"Testing\",\"Stims/Figures/27-J-0-1.bmp\",\"None\",\"Down\",\"38\",\"4\",\"5\",\"10\",\"N\",\"J\",\"77\"
\"\",\"\",\"approach-retreat\",\"226\",\"2592147\",\"0.0-226.0\",\"\",\"\",\"3-4\",\"4560\",\"37\",\"1\",\"Testing\",\"Stims/Figures/111-J-10-3.bmp\",\"None\",\"Right\",\"37\",\"4\",\"6\",\"10\",\"N\",\"J\",\"78\"
\"\",\"\",\"approach-retreat\",\"227\",\"2598378\",\"0.0-227.0\",\"\",\"\",\"3-4\",\"4721\",\"39\",\"1\",\"Testing\",\"Stims/Figures/128-C-30-3.bmp\",\"None\",\"Right\",\"39\",\"4\",\"7\",\"10\",\"N\",\"J\",\"79\"
\"\",\"\",\"approach-retreat\",\"228\",\"2604510\",\"0.0-228.0\",\"\",\"\",\"3-4\",\"4623\",\"39\",\"0\",\"Testing\",\"Stims/Figures/85-J-0-2.bmp\",\"None\",\"Right\",\"37\",\"4\",\"8\",\"10\",\"N\",\"J\",\"80\"
\"\",\"\",\"approach-retreat\",\"229\",\"2611576\",\"0.0-229.0\",\"\",\"\",\"3-4\",\"5558\",\"39\",\"1\",\"Testing\",\"Stims/Figures/7-C-20-4.bmp\",\"None\",\"Right\",\"39\",\"4\",\"9\",\"10\",\"N\",\"J\",\"81\"
\"\",\"\",\"approach-retreat\",\"230\",\"2617885\",\"0.0-230.0\",\"\",\"\",\"3-4\",\"4799\",\"38\",\"0\",\"Testing\",\"Stims/Figures/94-J-0-2.bmp\",\"None\",\"Up\",\"40\",\"4\",\"10\",\"10\",\"N\",\"J\",\"82\"
\"\",\"\",\"approach-retreat\",\"231\",\"2624498\",\"0.0-231.0\",\"\",\"\",\"3-4\",\"5105\",\"40\",\"1\",\"Testing\",\"Stims/Figures/86-C-30-1.bmp\",\"None\",\"Down\",\"40\",\"4\",\"11\",\"10\",\"N\",\"J\",\"83\"
\"\",\"\",\"approach-retreat\",\"232\",\"2631031\",\"0.0-232.0\",\"\",\"\",\"3-4\",\"5025\",\"38\",\"0\",\"Testing\",\"Stims/Figures/144-C-30-3.bmp\",\"None\",\"Down\",\"40\",\"4\",\"12\",\"10\",\"N\",\"J\",\"84\"
\"\",\"\",\"approach-retreat\",\"233\",\"2637792\",\"0.0-233.0\",\"\",\"\",\"3-4\",\"5252\",\"37\",\"1\",\"Testing\",\"Stims/Figures/102-J-10-4.bmp\",\"None\",\"Right\",\"37\",\"4\",\"13\",\"10\",\"N\",\"J\",\"85\"
\"\",\"\",\"approach-retreat\",\"234\",\"2644258\",\"0.0-234.0\",\"\",\"\",\"3-4\",\"4957\",\"37\",\"0\",\"Testing\",\"Stims/Figures/86-J-0-1.bmp\",\"None\",\"Left\",\"39\",\"4\",\"14\",\"10\",\"N\",\"J\",\"86\"
\"\",\"\",\"approach-retreat\",\"235\",\"2650436\",\"0.0-235.0\",\"\",\"\",\"3-4\",\"4669\",\"40\",\"1\",\"Testing\",\"Stims/Figures/57-J-0-1.bmp\",\"None\",\"Up\",\"40\",\"4\",\"15\",\"10\",\"N\",\"J\",\"87\"
\"\",\"\",\"approach-retreat\",\"236\",\"2656855\",\"0.0-236.0\",\"\",\"\",\"3-4\",\"4908\",\"40\",\"0\",\"Testing\",\"Stims/Figures/7-J-10-4.bmp\",\"None\",\"Down\",\"38\",\"4\",\"16\",\"10\",\"N\",\"J\",\"88\"
\"\",\"\",\"approach-retreat\",\"237\",\"2664125\",\"0.0-237.0\",\"\",\"\",\"3-4\",\"5762\",\"38\",\"0\",\"Testing\",\"Stims/Figures/85-C-20-2.bmp\",\"None\",\"Down\",\"40\",\"4\",\"17\",\"10\",\"N\",\"J\",\"89\"
\"\",\"\",\"approach-retreat\",\"238\",\"2670555\",\"0.0-238.0\",\"\",\"\",\"3-4\",\"4922\",\"39\",\"0\",\"Testing\",\"Stims/Figures/94-C-20-2.bmp\",\"None\",\"Left\",\"37\",\"4\",\"18\",\"10\",\"N\",\"J\",\"90\"
\"\",\"\",\"approach-retreat\",\"239\",\"2676397\",\"0.0-239.0\",\"\",\"\",\"3-4\",\"4332\",\"39\",\"0\",\"Testing\",\"Stims/Figures/102-C-20-4.bmp\",\"None\",\"Left\",\"37\",\"4\",\"19\",\"10\",\"N\",\"J\",\"91\"
\"\",\"\",\"approach-retreat\",\"240\",\"2682050\",\"0.0-240.0\",\"\",\"\",\"3-4\",\"4146\",\"39\",\"0\",\"Testing\",\"Stims/Figures/111-C-30-3.bmp\",\"None\",\"Left\",\"37\",\"4\",\"20\",\"10\",\"N\",\"J\",\"92\"
\"\",\"\",\"approach-retreat\",\"241\",\"2689047\",\"0.0-241.0\",\"\",\"\",\"3-4\",\"5488\",\"40\",\"1\",\"Testing\",\"Stims/Figures/57-C-30-1.bmp\",\"None\",\"Down\",\"40\",\"4\",\"21\",\"10\",\"N\",\"J\",\"93\"
\"\",\"\",\"approach-retreat\",\"242\",\"2700304\",\"0.0-242.0\",\"\",\"\",\"3-4\",\"9749\",\"40\",\"0\",\"Testing\",\"Stims/Figures/74-C-20-4.bmp\",\"None\",\"Up\",\"38\",\"4\",\"22\",\"10\",\"N\",\"J\",\"94\"
\"\",\"\",\"approach-retreat\",\"243\",\"2707991\",\"0.0-243.0\",\"\",\"\",\"3-4\",\"6180\",\"37\",\"1\",\"Testing\",\"Stims/Figures/74-J-10-4.bmp\",\"None\",\"Right\",\"37\",\"4\",\"23\",\"10\",\"N\",\"J\",\"95\"
\"\",\"\",\"approach-retreat\",\"244\",\"2714999\",\"0.0-244.0\",\"\",\"\",\"3-4\",\"5499\",\"39\",\"1\",\"Testing\",\"Stims/Figures/144-J-10-3.bmp\",\"None\",\"Left\",\"39\",\"4\",\"24\",\"10\",\"N\",\"J\",\"96\"
\"67585\",\"\",\"survey-text\",\"245\",\"2782592\",\"0.0-245.0\",\"\",\"{\"\"Q0\"\":\"\"PS150004\"\"}\",\"\",\"\",\"\",\"\",\"\",\"\",\"\",\"\",\"\",\"\",\"\",\"\",\"\",\"\",\"\"
