"rt","key_press","trial_type","trial_index","time_elapsed","internal_node_id","view_history","responses","Id","Rt","ResKeyCode","ResCorr","TrialType2","Image","Label","Location","CorrectResponse","Block","BlockTrial","Condition","LabelType","Subcondition","trialNum"
"15707","32","text","0","15713","0.0-0.0-0.0","","","","","","","","","","","","","","","","",""
"75910","","instructions","1","91628","0.0-1.0","[{""page_index"":0,""viewing_time"":75910}]","","","","","","","","","","","","","","","",""
"50442","","survey-multi-choice","2","142152","0.0-2.0","","{""Q0"":""Da"",""Q1"":""Da"",""Q2"":""Da"",""Q3"":""Da"",""Q4"":""Da"",""Q5"":""Da""}","","","","","","","","","","","","","","",""
"","","bio","3","153281","0.0-3.0","","{""age"":""22"",""gender"":""f"",""specify"":""""}","","","","","","","","","","","","","","",""
"","","approach-retreat","4","161280","0.0-4.0","","","1-3","6475","38","1","Training","Stims/Figures/85-C-20-2.bmp","zasa:za","Down","38","1","1","9","C2","C","1"
"","","approach-retreat","5","168284","0.0-5.0","","","1-3","5484","40","0","Training","Stims/Figures/102-J-10-4.bmp","sa:haha","Up","38","1","2","9","C2","C","2"
"","","approach-retreat","6","175257","0.0-6.0","","","1-3","5455","38","1","Training","Stims/Figures/86-C-30-1.bmp","sa:ha:za","Down","38","1","3","9","C2","C","3"
"","","approach-retreat","7","182831","0.0-7.0","","","1-3","6055","39","0","Training","Stims/Figures/85-J-0-2.bmp","fa:fa:sha","Left","37","1","4","9","C1","C","4"
"","","approach-retreat","8","188884","0.0-8.0","","","1-3","4541","37","0","Training","Stims/Figures/87-J-10-4.bmp","ta:ka:ta","Right","39","1","5","9","P","C","5"
"","","approach-retreat","9","195267","0.0-9.0","","","1-3","4867","40","0","Training","Stims/Figures/71-J-0-1.bmp","nala:la","Up","38","1","6","9","S","C","6"
"","","approach-retreat","10","201045","0.0-10.0","","","1-3","4254","37","1","Training","Stims/Figures/128-J-10-3.bmp","papa:ta","Left","37","1","7","9","P","C","7"
"","","approach-retreat","11","206650","0.0-11.0","","","1-3","4087","39","0","Training","Stims/Figures/100-C-30-3.bmp","tapata","Right","37","1","8","9","P","C","8"
"","","approach-retreat","12","212411","0.0-12.0","","","1-3","4245","38","1","Training","Stims/Figures/86-J-0-1.bmp","fafava","Up","38","1","9","9","C1","C","9"
"","","approach-retreat","13","218513","0.0-13.0","","","1-3","4585","40","1","Training","Stims/Figures/71-C-30-1.bmp","fashava","Up","40","1","10","9","C1","C","10"
"","","approach-retreat","14","224911","0.0-14.0","","","1-3","4877","38","1","Training","Stims/Figures/128-C-30-3.bmp","ma:mana","Down","38","1","11","9","S","C","11"
"","","approach-retreat","15","231777","0.0-15.0","","","1-3","5338","39","0","Training","Stims/Figures/84-J-0-2.bmp","mala:la","Left","37","1","12","9","S","C","12"
"","","approach-retreat","16","237484","0.0-16.0","","","1-3","4192","38","1","Training","Stims/Figures/84-C-20-2.bmp","tapa:ta","Down","38","1","13","9","P","C","13"
"","","approach-retreat","17","244676","0.0-17.0","","","1-3","5675","37","1","Training","Stims/Figures/102-C-20-4.bmp","za:saza","Right","37","1","14","9","C2","C","14"
"","","approach-retreat","18","250650","0.0-18.0","","","1-3","4456","39","0","Training","Stims/Figures/100-J-10-3.bmp","sasa:ha","Left","37","1","15","9","C2","C","15"
"","","approach-retreat","19","256946","0.0-19.0","","","1-3","4782","39","0","Training","Stims/Figures/87-C-20-4.bmp","sa:saza","Right","37","1","16","9","C2","C","16"
"","","approach-retreat","20","262963","0.0-20.0","","","1-3","4503","39","0","Training","Stims/Figures/102-J-10-4.bmp","sa:haha","Left","37","2","1","9","C2","C","17"
"","","approach-retreat","21","269360","0.0-21.0","","","1-3","4883","40","0","Training","Stims/Figures/85-J-0-2.bmp","fa:fa:sha","Up","38","2","2","9","C1","C","18"
"","","approach-retreat","22","275403","0.0-22.0","","","1-3","4525","38","0","Training","Stims/Figures/71-J-0-1.bmp","nala:la","Down","40","2","3","9","S","C","19"
"","","approach-retreat","23","281297","0.0-23.0","","","1-3","4381","38","1","Training","Stims/Figures/100-C-30-3.bmp","tapata","Down","38","2","4","9","P","C","20"
"","","approach-retreat","24","287064","0.0-24.0","","","1-3","4247","39","1","Training","Stims/Figures/102-C-20-4.bmp","za:saza","Left","39","2","5","9","C2","C","21"
"","","approach-retreat","25","293018","0.0-25.0","","","1-3","4425","38","1","Training","Stims/Figures/87-J-10-4.bmp","ta:ka:ta","Up","38","2","6","9","P","C","22"
"","","approach-retreat","26","298829","0.0-26.0","","","1-3","4290","40","0","Training","Stims/Figures/84-J-0-2.bmp","mala:la","Up","38","2","7","9","S","C","23"
"","","approach-retreat","27","304645","0.0-27.0","","","1-3","4297","38","0","Training","Stims/Figures/71-C-30-1.bmp","fashava","Up","40","2","8","9","C1","C","24"
"","","approach-retreat","28","310360","0.0-28.0","","","1-3","4202","39","1","Training","Stims/Figures/100-J-10-3.bmp","sasa:ha","Right","39","2","9","9","C2","C","25"
"","","approach-retreat","29","316228","0.0-29.0","","","1-3","4349","37","1","Training","Stims/Figures/84-C-20-2.bmp","tapa:ta","Right","37","2","10","9","P","C","26"
"","","approach-retreat","30","321975","0.0-30.0","","","1-3","4231","39","0","Training","Stims/Figures/86-C-30-1.bmp","sa:ha:za","Right","37","2","11","9","C2","C","27"
"","","approach-retreat","31","327658","0.0-31.0","","","1-3","4171","39","1","Training","Stims/Figures/86-J-0-1.bmp","fafava","Right","39","2","12","9","C1","C","28"
"","","approach-retreat","32","333304","0.0-32.0","","","1-3","4130","37","1","Training","Stims/Figures/128-J-10-3.bmp","papa:ta","Left","37","2","13","9","P","C","29"
"","","approach-retreat","33","339199","0.0-33.0","","","1-3","4377","40","0","Training","Stims/Figures/85-C-20-2.bmp","zasa:za","Down","38","2","14","9","C2","C","30"
"","","approach-retreat","34","344955","0.0-34.0","","","1-3","4239","38","1","Training","Stims/Figures/128-C-30-3.bmp","ma:mana","Down","38","2","15","9","S","C","31"
"","","approach-retreat","35","351025","0.0-35.0","","","1-3","4554","37","0","Training","Stims/Figures/87-C-20-4.bmp","sa:saza","Left","39","2","16","9","C2","C","32"
"","","approach-retreat","36","357042","0.0-36.0","","","1-3","4501","38","1","Training","Stims/Figures/100-J-10-3.bmp","sasa:ha","Up","38","3","1","9","C2","C","33"
"","","approach-retreat","37","363033","0.0-37.0","","","1-3","4471","39","1","Training","Stims/Figures/102-J-10-4.bmp","sa:haha","Right","39","3","2","9","C2","C","34"
"","","approach-retreat","38","368870","0.0-38.0","","","1-3","4302","38","0","Training","Stims/Figures/102-C-20-4.bmp","za:saza","Up","40","3","3","9","C2","C","35"
"","","approach-retreat","39","374661","0.0-39.0","","","1-3","4274","38","1","Training","Stims/Figures/86-J-0-1.bmp","fafava","Up","38","3","4","9","C1","C","36"
"","","approach-retreat","40","380692","0.0-40.0","","","1-3","4517","37","1","Training","Stims/Figures/85-J-0-2.bmp","fa:fa:sha","Left","37","3","5","9","C1","C","37"
"","","approach-retreat","41","386838","0.0-41.0","","","1-3","4622","37","1","Training","Stims/Figures/128-J-10-3.bmp","papa:ta","Left","37","3","6","9","P","C","38"
"","","approach-retreat","42","392713","0.0-42.0","","","1-3","4354","38","1","Training","Stims/Figures/85-C-20-2.bmp","zasa:za","Down","38","3","7","9","C2","C","39"
"","","approach-retreat","43","398551","0.0-43.0","","","1-3","4316","38","0","Training","Stims/Figures/84-C-20-2.bmp","tapa:ta","Up","40","3","8","9","P","C","40"
"","","approach-retreat","44","404331","0.0-44.0","","","1-3","4266","38","1","Training","Stims/Figures/71-C-30-1.bmp","fashava","Down","38","3","9","9","C1","C","41"
"","","approach-retreat","45","410485","0.0-45.0","","","1-3","4639","39","0","Training","Stims/Figures/84-J-0-2.bmp","mala:la","Left","37","3","10","9","S","C","42"
"","","approach-retreat","46","416375","0.0-46.0","","","1-3","4372","37","1","Training","Stims/Figures/87-C-20-4.bmp","sa:saza","Right","37","3","11","9","C2","C","43"
"","","approach-retreat","47","422834","0.0-47.0","","","1-3","4945","39","1","Training","Stims/Figures/87-J-10-4.bmp","ta:ka:ta","Right","39","3","12","9","P","C","44"
"","","approach-retreat","48","428549","0.0-48.0","","","1-3","4198","37","0","Training","Stims/Figures/128-C-30-3.bmp","ma:mana","Left","39","3","13","9","S","C","45"
"","","approach-retreat","49","434591","0.0-49.0","","","1-3","4528","39","1","Training","Stims/Figures/71-J-0-1.bmp","nala:la","Right","39","3","14","9","S","C","46"
"","","approach-retreat","50","440474","0.0-50.0","","","1-3","4360","38","1","Training","Stims/Figures/100-C-30-3.bmp","tapata","Down","38","3","15","9","P","C","47"
"","","approach-retreat","51","446326","0.0-51.0","","","1-3","4336","38","1","Training","Stims/Figures/86-C-30-1.bmp","sa:ha:za","Down","38","3","16","9","C2","C","48"
"","","approach-retreat","52","452369","0.0-52.0","","","1-3","4524","40","1","Training","Stims/Figures/100-C-30-3.bmp","tapata","Up","40","4","1","9","P","C","49"
"","","approach-retreat","53","458941","0.0-53.0","","","1-3","5055","37","0","Training","Stims/Figures/71-C-30-1.bmp","fashava","Left","39","4","2","9","C1","C","50"
"","","approach-retreat","54","464853","0.0-54.0","","","1-3","4394","40","0","Training","Stims/Figures/71-J-0-1.bmp","nala:la","Up","38","4","3","9","S","C","51"
"","","approach-retreat","55","471043","0.0-55.0","","","1-3","4677","37","0","Training","Stims/Figures/128-J-10-3.bmp","papa:ta","Right","39","4","4","9","P","C","52"
"","","approach-retreat","56","476912","0.0-56.0","","","1-3","4357","39","0","Training","Stims/Figures/84-C-20-2.bmp","tapa:ta","Right","37","4","5","9","P","C","53"
"","","approach-retreat","57","482943","0.0-57.0","","","1-3","4517","38","1","Training","Stims/Figures/87-C-20-4.bmp","sa:saza","Down","38","4","6","9","C2","C","54"
"","","approach-retreat","58","488510","0.0-58.0","","","1-3","4047","38","0","Training","Stims/Figures/100-J-10-3.bmp","sasa:ha","Down","40","4","7","9","C2","C","55"
"","","approach-retreat","59","496919","0.0-59.0","","","1-3","6895","37","0","Training","Stims/Figures/87-J-10-4.bmp","ta:ka:ta","Right","39","4","8","9","P","C","56"
"","","approach-retreat","60","502973","0.0-60.0","","","1-3","4539","37","1","Training","Stims/Figures/84-J-0-2.bmp","mala:la","Left","37","4","9","9","S","C","57"
"","","approach-retreat","61","508925","0.0-61.0","","","1-3","4436","37","1","Training","Stims/Figures/86-J-0-1.bmp","fafava","Left","37","4","10","9","C1","C","58"
"","","approach-retreat","62","514761","0.0-62.0","","","1-3","4320","40","0","Training","Stims/Figures/85-C-20-2.bmp","zasa:za","Down","38","4","11","9","C2","C","59"
"","","approach-retreat","63","520772","0.0-63.0","","","1-3","4489","38","1","Training","Stims/Figures/102-J-10-4.bmp","sa:haha","Up","38","4","12","9","C2","C","60"
"","","approach-retreat","64","526748","0.0-64.0","","","1-3","4456","37","1","Training","Stims/Figures/85-J-0-2.bmp","fa:fa:sha","Left","37","4","13","9","C1","C","61"
"","","approach-retreat","65","533064","0.0-65.0","","","1-3","4799","40","0","Training","Stims/Figures/128-C-30-3.bmp","ma:mana","Down","38","4","14","9","S","C","62"
"","","approach-retreat","66","539100","0.0-66.0","","","1-3","4518","40","1","Training","Stims/Figures/86-C-30-1.bmp","sa:ha:za","Up","40","4","15","9","C2","C","63"
"","","approach-retreat","67","545288","0.0-67.0","","","1-3","4670","37","1","Training","Stims/Figures/102-C-20-4.bmp","za:saza","Right","37","4","16","9","C2","C","64"
"","","approach-retreat","68","551845","0.0-68.0","","","1-3","5041","37","0","Training","Stims/Figures/84-J-0-2.bmp","mala:la","Right","39","5","1","9","S","C","65"
"","","approach-retreat","69","558799","0.0-69.0","","","1-3","5437","38","1","Training","Stims/Figures/71-J-0-1.bmp","nala:la","Up","38","5","2","9","S","C","66"
"","","approach-retreat","70","564817","0.0-70.0","","","1-3","4497","39","0","Training","Stims/Figures/84-C-20-2.bmp","tapa:ta","Right","37","5","3","9","P","C","67"
"","","approach-retreat","71","570759","0.0-71.0","","","1-3","4415","37","1","Training","Stims/Figures/86-C-30-1.bmp","sa:ha:za","Right","37","5","4","9","C2","C","68"
"","","approach-retreat","72","576575","0.0-72.0","","","1-3","4300","39","1","Training","Stims/Figures/85-C-20-2.bmp","zasa:za","Left","39","5","5","9","C2","C","69"
"","","approach-retreat","73","582502","0.0-73.0","","","1-3","4403","40","0","Training","Stims/Figures/87-J-10-4.bmp","ta:ka:ta","Up","38","5","6","9","P","C","70"
"","","approach-retreat","74","588664","0.0-74.0","","","1-3","4646","40","1","Training","Stims/Figures/128-C-30-3.bmp","ma:mana","Up","40","5","7","9","S","C","71"
"","","approach-retreat","75","594580","0.0-75.0","","","1-3","4397","38","1","Training","Stims/Figures/100-C-30-3.bmp","tapata","Down","38","5","8","9","P","C","72"
"","","approach-retreat","76","600085","0.0-76.0","","","1-3","3988","40","1","Training","Stims/Figures/86-J-0-1.bmp","fafava","Down","40","5","9","9","C1","C","73"
"","","approach-retreat","77","606120","0.0-77.0","","","1-3","4518","40","1","Training","Stims/Figures/85-J-0-2.bmp","fa:fa:sha","Down","40","5","10","9","C1","C","74"
"","","approach-retreat","78","612308","0.0-78.0","","","1-3","4675","40","0","Training","Stims/Figures/100-J-10-3.bmp","sasa:ha","Up","38","5","11","9","C2","C","75"
"","","approach-retreat","79","619202","0.0-79.0","","","1-3","5379","39","1","Training","Stims/Figures/102-J-10-4.bmp","sa:haha","Right","39","5","12","9","C2","C","76"
"","","approach-retreat","80","625018","0.0-80.0","","","1-3","4295","39","1","Training","Stims/Figures/102-C-20-4.bmp","za:saza","Left","39","5","13","9","C2","C","77"
"","","approach-retreat","81","630806","0.0-81.0","","","1-3","4271","38","1","Training","Stims/Figures/87-C-20-4.bmp","sa:saza","Down","38","5","14","9","C2","C","78"
"","","approach-retreat","82","636669","0.0-82.0","","","1-3","4346","37","0","Training","Stims/Figures/71-C-30-1.bmp","fashava","Left","39","5","15","9","C1","C","79"
"","","approach-retreat","83","642959","0.0-83.0","","","1-3","4763","39","0","Training","Stims/Figures/128-J-10-3.bmp","papa:ta","Left","37","5","16","9","P","C","80"
"","","approach-retreat","84","648726","0.0-84.0","","","1-3","4254","37","0","Training","Stims/Figures/71-C-30-1.bmp","fashava","Left","39","6","1","9","C1","C","81"
"","","approach-retreat","85","654677","0.0-85.0","","","1-3","4429","37","1","Training","Stims/Figures/87-C-20-4.bmp","sa:saza","Right","37","6","2","9","C2","C","82"
"","","approach-retreat","86","660683","0.0-86.0","","","1-3","4491","39","1","Training","Stims/Figures/85-J-0-2.bmp","fa:fa:sha","Right","39","6","3","9","C1","C","83"
"","","approach-retreat","87","667383","0.0-87.0","","","1-3","5177","38","1","Training","Stims/Figures/86-J-0-1.bmp","fafava","Up","38","6","4","9","C1","C","84"
"","","approach-retreat","88","674016","0.0-88.0","","","1-3","5116","39","1","Training","Stims/Figures/128-C-30-3.bmp","ma:mana","Left","39","6","5","9","S","C","85"
"","","approach-retreat","89","679836","0.0-89.0","","","1-3","4300","40","1","Training","Stims/Figures/86-C-30-1.bmp","sa:ha:za","Up","40","6","6","9","C2","C","86"
"","","approach-retreat","90","685928","0.0-90.0","","","1-3","4571","37","1","Training","Stims/Figures/85-C-20-2.bmp","zasa:za","Right","37","6","7","9","C2","C","87"
"","","approach-retreat","91","691566","0.0-91.0","","","1-3","4120","40","0","Training","Stims/Figures/71-J-0-1.bmp","nala:la","Up","38","6","8","9","S","C","88"
"","","approach-retreat","92","697510","0.0-92.0","","","1-3","4425","38","0","Training","Stims/Figures/128-J-10-3.bmp","papa:ta","Down","40","6","9","9","P","C","89"
"","","approach-retreat","93","703294","0.0-93.0","","","1-3","4271","37","0","Training","Stims/Figures/102-J-10-4.bmp","sa:haha","Right","39","6","10","9","C2","C","90"
"","","approach-retreat","94","709640","0.0-94.0","","","1-3","4834","38","0","Training","Stims/Figures/100-J-10-3.bmp","sasa:ha","Down","40","6","11","9","C2","C","91"
"","","approach-retreat","95","715664","0.0-95.0","","","1-3","4504","39","0","Training","Stims/Figures/87-J-10-4.bmp","ta:ka:ta","Left","37","6","12","9","P","C","92"
"","","approach-retreat","96","721750","0.0-96.0","","","1-3","4571","40","0","Training","Stims/Figures/84-J-0-2.bmp","mala:la","Up","38","6","13","9","S","C","93"
"","","approach-retreat","97","727421","0.0-97.0","","","1-3","4156","39","1","Training","Stims/Figures/100-C-30-3.bmp","tapata","Left","39","6","14","9","P","C","94"
"","","approach-retreat","98","733225","0.0-98.0","","","1-3","4285","38","1","Training","Stims/Figures/84-C-20-2.bmp","tapa:ta","Down","38","6","15","9","P","C","95"
"","","approach-retreat","99","739009","0.0-99.0","","","1-3","4263","38","1","Training","Stims/Figures/102-C-20-4.bmp","za:saza","Down","38","6","16","9","C2","C","96"
"","","approach-retreat","100","745548","0.0-100.0","","","1-3","5025","40","0","Training","Stims/Figures/100-J-10-3.bmp","sasa:ha","Up","38","7","1","9","C2","C","97"
"","","approach-retreat","101","751876","0.0-101.0","","","1-3","4803","37","1","Training","Stims/Figures/86-C-30-1.bmp","sa:ha:za","Right","37","7","2","9","C2","C","98"
"","","approach-retreat","102","757710","0.0-102.0","","","1-3","4306","39","1","Training","Stims/Figures/85-J-0-2.bmp","fa:fa:sha","Right","39","7","3","9","C1","C","99"
"","","approach-retreat","103","763479","0.0-103.0","","","1-3","4250","37","1","Training","Stims/Figures/85-C-20-2.bmp","zasa:za","Right","37","7","4","9","C2","C","100"
"","","approach-retreat","104","769445","0.0-104.0","","","1-3","4443","40","1","Training","Stims/Figures/102-J-10-4.bmp","sa:haha","Down","40","7","5","9","C2","C","101"
"","","approach-retreat","105","775216","0.0-105.0","","","1-3","4222","39","1","Training","Stims/Figures/87-C-20-4.bmp","sa:saza","Left","39","7","6","9","C2","C","102"
"","","approach-retreat","106","780968","0.0-106.0","","","1-3","4237","39","1","Training","Stims/Figures/102-C-20-4.bmp","za:saza","Left","39","7","7","9","C2","C","103"
"","","approach-retreat","107","786855","0.0-107.0","","","1-3","4371","40","1","Training","Stims/Figures/86-J-0-1.bmp","fafava","Down","40","7","8","9","C1","C","104"
"","","approach-retreat","108","792661","0.0-108.0","","","1-3","4290","38","1","Training","Stims/Figures/71-J-0-1.bmp","nala:la","Up","38","7","9","9","S","C","105"
"","","approach-retreat","109","798600","0.0-109.0","","","1-3","4421","37","0","Training","Stims/Figures/100-C-30-3.bmp","tapata","Left","39","7","10","9","P","C","106"
"","","approach-retreat","110","804438","0.0-110.0","","","1-3","4324","38","1","Training","Stims/Figures/84-C-20-2.bmp","tapa:ta","Down","38","7","11","9","P","C","107"
"","","approach-retreat","111","810381","0.0-111.0","","","1-3","4428","38","0","Training","Stims/Figures/128-J-10-3.bmp","papa:ta","Down","40","7","12","9","P","C","108"
"","","approach-retreat","112","816683","0.0-112.0","","","1-3","4784","38","0","Training","Stims/Figures/128-C-30-3.bmp","ma:mana","Up","40","7","13","9","S","C","109"
"","","approach-retreat","113","822428","0.0-113.0","","","1-3","4225","38","1","Training","Stims/Figures/84-J-0-2.bmp","mala:la","Up","38","7","14","9","S","C","110"
"","","approach-retreat","114","828457","0.0-114.0","","","1-3","4514","39","0","Training","Stims/Figures/71-C-30-1.bmp","fashava","Right","37","7","15","9","C1","C","111"
"","","approach-retreat","115","834203","0.0-115.0","","","1-3","4227","39","0","Training","Stims/Figures/87-J-10-4.bmp","ta:ka:ta","Left","37","7","16","9","P","C","112"
"","","approach-retreat","116","840040","0.0-116.0","","","1-3","4320","40","1","Training","Stims/Figures/102-J-10-4.bmp","sa:haha","Down","40","8","1","9","C2","C","113"
"","","approach-retreat","117","845906","0.0-117.0","","","1-3","4346","37","1","Training","Stims/Figures/86-J-0-1.bmp","fafava","Left","37","8","2","9","C1","C","114"
"","","approach-retreat","118","852479","0.0-118.0","","","1-3","5054","40","1","Training","Stims/Figures/84-J-0-2.bmp","mala:la","Down","40","8","3","9","S","C","115"
"","","approach-retreat","119","858486","0.0-119.0","","","1-3","4490","39","1","Training","Stims/Figures/86-C-30-1.bmp","sa:ha:za","Left","39","8","4","9","C2","C","116"
"","","approach-retreat","120","864283","0.0-120.0","","","1-3","4278","38","0","Training","Stims/Figures/87-J-10-4.bmp","ta:ka:ta","Down","40","8","5","9","P","C","117"
"","","approach-retreat","121","870085","0.0-121.0","","","1-3","4288","40","1","Training","Stims/Figures/100-C-30-3.bmp","tapata","Up","40","8","6","9","P","C","118"
"","","approach-retreat","122","876575","0.0-122.0","","","1-3","4976","39","1","Training","Stims/Figures/102-C-20-4.bmp","za:saza","Left","39","8","7","9","C2","C","119"
"","","approach-retreat","123","882875","0.0-123.0","","","1-3","4786","39","1","Training","Stims/Figures/71-J-0-1.bmp","nala:la","Right","39","8","8","9","S","C","120"
"","","approach-retreat","124","888914","0.0-124.0","","","1-3","4522","38","0","Training","Stims/Figures/128-C-30-3.bmp","ma:mana","Up","40","8","9","9","S","C","121"
"","","approach-retreat","125","895150","0.0-125.0","","","1-3","4721","37","1","Training","Stims/Figures/85-C-20-2.bmp","zasa:za","Right","37","8","10","9","C2","C","122"
"","","approach-retreat","126","901053","0.0-126.0","","","1-3","4384","38","1","Training","Stims/Figures/100-J-10-3.bmp","sasa:ha","Up","38","8","11","9","C2","C","123"
"","","approach-retreat","127","907076","0.0-127.0","","","1-3","4504","38","1","Training","Stims/Figures/87-C-20-4.bmp","sa:saza","Down","38","8","12","9","C2","C","124"
"","","approach-retreat","128","912959","0.0-128.0","","","1-3","4367","39","1","Training","Stims/Figures/85-J-0-2.bmp","fa:fa:sha","Right","39","8","13","9","C1","C","125"
"","","approach-retreat","129","918837","0.0-129.0","","","1-3","4355","37","0","Training","Stims/Figures/84-C-20-2.bmp","tapa:ta","Left","39","8","14","9","P","C","126"
"","","approach-retreat","130","924870","0.0-130.0","","","1-3","4513","37","1","Training","Stims/Figures/71-C-30-1.bmp","fashava","Right","37","8","15","9","C1","C","127"
"","","approach-retreat","131","930711","0.0-131.0","","","1-3","4321","38","1","Training","Stims/Figures/128-J-10-3.bmp","papa:ta","Up","38","8","16","9","P","C","128"
"","","approach-retreat","132","936600","0.0-132.0","","","1-3","4366","40","1","Training","Stims/Figures/71-C-30-1.bmp","fashava","Up","40","9","1","9","C1","C","129"
"","","approach-retreat","133","943542","0.0-133.0","","","1-3","5422","40","0","Training","Stims/Figures/128-C-30-3.bmp","ma:mana","Down","38","9","2","9","S","C","130"
"","","approach-retreat","134","949524","0.0-134.0","","","1-3","4469","38","1","Training","Stims/Figures/102-J-10-4.bmp","sa:haha","Up","38","9","3","9","C2","C","131"
"","","approach-retreat","135","955355","0.0-135.0","","","1-3","4319","39","1","Training","Stims/Figures/87-C-20-4.bmp","sa:saza","Left","39","9","4","9","C2","C","132"
"","","approach-retreat","136","961587","0.0-136.0","","","1-3","4718","38","1","Training","Stims/Figures/85-C-20-2.bmp","zasa:za","Down","38","9","5","9","C2","C","133"
"","","approach-retreat","137","967373","0.0-137.0","","","1-3","4265","37","1","Training","Stims/Figures/86-C-30-1.bmp","sa:ha:za","Right","37","9","6","9","C2","C","134"
"","","approach-retreat","138","974612","0.0-138.0","","","1-3","5720","37","1","Training","Stims/Figures/71-J-0-1.bmp","nala:la","Left","37","9","7","9","S","C","135"
"","","approach-retreat","139","980751","0.0-139.0","","","1-3","4620","38","1","Training","Stims/Figures/128-J-10-3.bmp","papa:ta","Up","38","9","8","9","P","C","136"
"","","approach-retreat","140","987198","0.0-140.0","","","1-3","4932","39","1","Training","Stims/Figures/100-C-30-3.bmp","tapata","Left","39","9","9","9","P","C","137"
"","","approach-retreat","141","993695","0.0-141.0","","","1-3","4977","38","0","Training","Stims/Figures/87-J-10-4.bmp","ta:ka:ta","Down","40","9","10","9","P","C","138"
"","","approach-retreat","142","1000386","0.0-142.0","","","1-3","5176","39","1","Training","Stims/Figures/85-J-0-2.bmp","fa:fa:sha","Right","39","9","11","9","C1","C","139"
"","","approach-retreat","143","1006711","0.0-143.0","","","1-3","4809","37","1","Training","Stims/Figures/100-J-10-3.bmp","sasa:ha","Left","37","9","12","9","C2","C","140"
"","","approach-retreat","144","1012648","0.0-144.0","","","1-3","4422","40","1","Training","Stims/Figures/84-J-0-2.bmp","mala:la","Down","40","9","13","9","S","C","141"
"","","approach-retreat","145","1019313","0.0-145.0","","","1-3","5118","38","1","Training","Stims/Figures/86-J-0-1.bmp","fafava","Up","38","9","14","9","C1","C","142"
"","","approach-retreat","146","1025214","0.0-146.0","","","1-3","4385","39","0","Training","Stims/Figures/84-C-20-2.bmp","tapa:ta","Right","37","9","15","9","P","C","143"
"","","approach-retreat","147","1032011","0.0-147.0","","","1-3","5282","37","1","Training","Stims/Figures/102-C-20-4.bmp","za:saza","Right","37","9","16","9","C2","C","144"
"32254","","instructions","148","1064266","0.0-148.0","[{""page_index"":0,""viewing_time"":32253}]","","","","","","","","","","","","","","","",""
"","","approach-retreat","149","1076544","0.0-149.0","","","1-3","10769","37","1","Testing","Stims/Figures/139-J-0-2.bmp","na:la:na","Left","37","1","1","9","S","C","1"
"","","approach-retreat","150","1082644","0.0-150.0","","","1-3","4582","39","0","Testing","Stims/Figures/71-J-0-1.bmp","nala:la","Left","37","1","2","9","S","C","2"
"","","approach-retreat","151","1088479","0.0-151.0","","","1-3","4324","37","1","Testing","Stims/Figures/139-C-20-2.bmp","mala:na","Right","37","1","3","9","S","C","3"
"","","approach-retreat","152","1095151","0.0-152.0","","","1-3","5152","40","0","Testing","Stims/Figures/102-J-10-4.bmp","sa:haha","Up","38","1","4","9","C2","C","4"
"","","approach-retreat","153","1100961","0.0-153.0","","","1-3","4299","40","0","Testing","Stims/Figures/7-J-10-4.bmp","papa:ka","Up","38","1","5","9","P","C","5"
"","","approach-retreat","154","1106741","0.0-154.0","","","1-3","4267","39","0","Testing","Stims/Figures/86-J-0-1.bmp","fafava","Left","37","1","6","9","C1","C","6"
"","","approach-retreat","155","1112529","0.0-155.0","","","1-3","4278","40","1","Testing","Stims/Figures/111-C-30-3.bmp","ma:la:la","Up","40","1","7","9","S","C","7"
"","","approach-retreat","156","1118477","0.0-156.0","","","1-3","4435","38","1","Testing","Stims/Figures/102-C-20-4.bmp","za:saza","Down","38","1","8","9","C2","C","8"
"","","approach-retreat","157","1124478","0.0-157.0","","","1-3","4491","40","0","Testing","Stims/Figures/128-J-10-3.bmp","papa:ta","Up","38","1","9","9","P","C","9"
"","","approach-retreat","158","1130292","0.0-158.0","","","1-3","4304","38","1","Testing","Stims/Figures/71-C-30-1.bmp","fashava","Down","38","1","10","9","C1","C","10"
"","","approach-retreat","159","1136039","0.0-159.0","","","1-3","4235","38","1","Testing","Stims/Figures/93-C-30-1.bmp","ta:kata","Down","38","1","11","9","P","C","11"
"","","approach-retreat","160","1141792","0.0-160.0","","","1-3","4239","37","1","Testing","Stims/Figures/7-C-20-4.bmp","pa:pa:ka","Right","37","1","12","9","P","C","12"
"","","approach-retreat","161","1147496","0.0-161.0","","","1-3","4193","40","0","Testing","Stims/Figures/84-J-0-2.bmp","mala:la","Up","38","1","13","9","S","C","13"
"","","approach-retreat","162","1153906","0.0-162.0","","","1-3","4895","38","1","Testing","Stims/Figures/128-C-30-3.bmp","ma:mana","Down","38","1","14","9","S","C","14"
"","","approach-retreat","163","1159845","0.0-163.0","","","1-3","4430","38","1","Testing","Stims/Figures/87-C-20-4.bmp","sa:saza","Down","38","1","15","9","C2","C","15"
"","","approach-retreat","164","1166336","0.0-164.0","","","1-3","4977","37","0","Testing","Stims/Figures/100-J-10-3.bmp","sasa:ha","Right","39","1","16","9","C2","C","16"
"","","approach-retreat","165","1172651","0.0-165.0","","","1-3","4803","39","0","Testing","Stims/Figures/111-J-10-3.bmp","vafasha","Left","37","1","17","9","C1","C","17"
"","","approach-retreat","166","1178410","0.0-166.0","","","1-3","4249","39","0","Testing","Stims/Figures/87-J-10-4.bmp","ta:ka:ta","Left","37","1","18","9","P","C","18"
"","","approach-retreat","167","1184211","0.0-167.0","","","1-3","4261","37","1","Testing","Stims/Figures/85-C-20-2.bmp","zasa:za","Right","37","1","19","9","C2","C","19"
"","","approach-retreat","168","1190022","0.0-168.0","","","1-3","4301","40","1","Testing","Stims/Figures/86-C-30-1.bmp","sa:ha:za","Up","40","1","20","9","C2","C","20"
"","","approach-retreat","169","1195769","0.0-169.0","","","1-3","4237","38","1","Testing","Stims/Figures/100-C-30-3.bmp","tapata","Down","38","1","21","9","P","C","21"
"","","approach-retreat","170","1201560","0.0-170.0","","","1-3","4281","37","1","Testing","Stims/Figures/84-C-20-2.bmp","tapa:ta","Right","37","1","22","9","P","C","22"
"","","approach-retreat","171","1207877","0.0-171.0","","","1-3","4804","37","0","Testing","Stims/Figures/85-J-0-2.bmp","fa:fa:sha","Right","39","1","23","9","C1","C","23"
"","","approach-retreat","172","1214311","0.0-172.0","","","1-3","4920","39","0","Testing","Stims/Figures/93-J-0-1.bmp","za:haha","Left","37","1","24","9","C2","C","24"
"","","approach-retreat","173","1220636","0.0-173.0","","","1-3","4814","40","1","Testing","Stims/Figures/87-J-10-4.bmp","ta:ka:ta","Down","40","2","1","9","P","C","25"
"","","approach-retreat","174","1226430","0.0-174.0","","","1-3","4278","39","0","Testing","Stims/Figures/71-J-0-1.bmp","nala:la","Left","37","2","2","9","S","C","26"
"","","approach-retreat","175","1232034","0.0-175.0","","","1-3","4092","39","0","Testing","Stims/Figures/139-J-0-2.bmp","na:la:na","Left","37","2","3","9","S","C","27"
"","","approach-retreat","176","1239649","0.0-176.0","","","1-3","6105","40","0","Testing","Stims/Figures/102-J-10-4.bmp","sa:haha","Up","38","2","4","9","C2","C","28"
"","","approach-retreat","177","1245454","0.0-177.0","","","1-3","4284","39","1","Testing","Stims/Figures/7-J-10-4.bmp","papa:ka","Right","39","2","5","9","P","C","29"
"","","approach-retreat","178","1251145","0.0-178.0","","","1-3","4170","40","1","Testing","Stims/Figures/100-C-30-3.bmp","tapata","Up","40","2","6","9","P","C","30"
"","","approach-retreat","179","1256852","0.0-179.0","","","1-3","4192","39","0","Testing","Stims/Figures/85-J-0-2.bmp","fa:fa:sha","Left","37","2","7","9","C1","C","31"
"","","approach-retreat","180","1263463","0.0-180.0","","","1-3","5101","37","1","Testing","Stims/Figures/86-C-30-1.bmp","sa:ha:za","Right","37","2","8","9","C2","C","32"
"","","approach-retreat","181","1269238","0.0-181.0","","","1-3","4264","38","0","Testing","Stims/Figures/86-J-0-1.bmp","fafava","Down","40","2","9","9","C1","C","33"
"","","approach-retreat","182","1275067","0.0-182.0","","","1-3","4318","38","1","Testing","Stims/Figures/111-C-30-3.bmp","ma:la:la","Down","38","2","10","9","S","C","34"
"","","approach-retreat","183","1281027","0.0-183.0","","","1-3","4448","40","0","Testing","Stims/Figures/84-J-0-2.bmp","mala:la","Up","38","2","11","9","S","C","35"
"","","approach-retreat","184","1287261","0.0-184.0","","","1-3","4720","39","1","Testing","Stims/Figures/71-C-30-1.bmp","fashava","Left","39","2","12","9","C1","C","36"
"","","approach-retreat","185","1293083","0.0-185.0","","","1-3","4311","40","1","Testing","Stims/Figures/93-C-30-1.bmp","ta:kata","Up","40","2","13","9","P","C","37"
"","","approach-retreat","186","1299439","0.0-186.0","","","1-3","4845","38","1","Testing","Stims/Figures/87-C-20-4.bmp","sa:saza","Down","38","2","14","9","C2","C","38"
"","","approach-retreat","187","1305313","0.0-187.0","","","1-3","4359","39","0","Testing","Stims/Figures/111-J-10-3.bmp","vafasha","Left","37","2","15","9","C1","C","39"
"","","approach-retreat","188","1311574","0.0-188.0","","","1-3","4748","37","1","Testing","Stims/Figures/7-C-20-4.bmp","pa:pa:ka","Right","37","2","16","9","P","C","40"
"","","approach-retreat","189","1317287","0.0-189.0","","","1-3","4197","38","1","Testing","Stims/Figures/85-C-20-2.bmp","zasa:za","Down","38","2","17","9","C2","C","41"
"","","approach-retreat","190","1323160","0.0-190.0","","","1-3","4364","40","0","Testing","Stims/Figures/128-J-10-3.bmp","papa:ta","Up","38","2","18","9","P","C","42"
"","","approach-retreat","191","1329253","0.0-191.0","","","1-3","4582","37","1","Testing","Stims/Figures/102-C-20-4.bmp","za:saza","Right","37","2","19","9","C2","C","43"
"","","approach-retreat","192","1335103","0.0-192.0","","","1-3","4334","40","0","Testing","Stims/Figures/93-J-0-1.bmp","za:haha","Up","38","2","20","9","C2","C","44"
"","","approach-retreat","193","1341598","0.0-193.0","","","1-3","4984","37","1","Testing","Stims/Figures/139-C-20-2.bmp","mala:na","Right","37","2","21","9","S","C","45"
"","","approach-retreat","194","1347331","0.0-194.0","","","1-3","4224","38","0","Testing","Stims/Figures/100-J-10-3.bmp","sasa:ha","Down","40","2","22","9","C2","C","46"
"","","approach-retreat","195","1353428","0.0-195.0","","","1-3","4584","37","1","Testing","Stims/Figures/84-C-20-2.bmp","tapa:ta","Right","37","2","23","9","P","C","47"
"","","approach-retreat","196","1359301","0.0-196.0","","","1-3","4360","39","1","Testing","Stims/Figures/128-C-30-3.bmp","ma:mana","Left","39","2","24","9","S","C","48"
"","","approach-retreat","197","1364920","0.0-197.0","","","1-3","4109","38","1","Testing","Stims/Figures/93-C-30-1.bmp","ta:kata","Down","38","3","1","9","P","C","49"
"","","approach-retreat","198","1370746","0.0-198.0","","","1-3","4316","37","0","Testing","Stims/Figures/128-J-10-3.bmp","papa:ta","Right","39","3","2","9","P","C","50"
"","","approach-retreat","199","1382076","0.0-199.0","","","1-3","9821","40","0","Testing","Stims/Figures/87-J-10-4.bmp","ta:ka:ta","Up","38","3","3","9","P","C","51"
"","","approach-retreat","200","1388094","0.0-200.0","","","1-3","4508","39","0","Testing","Stims/Figures/86-J-0-1.bmp","fafava","Left","37","3","4","9","C1","C","52"
"","","approach-retreat","201","1394603","0.0-201.0","","","1-3","4989","37","1","Testing","Stims/Figures/87-C-20-4.bmp","sa:saza","Right","37","3","5","9","C2","C","53"
"","","approach-retreat","202","1405551","0.0-202.0","","","1-3","9437","39","1","Testing","Stims/Figures/86-C-30-1.bmp","sa:ha:za","Left","39","3","6","9","C2","C","54"
"","","approach-retreat","203","1412154","0.0-203.0","","","1-3","5091","37","0","Testing","Stims/Figures/85-J-0-2.bmp","fa:fa:sha","Right","39","3","7","9","C1","C","55"
"","","approach-retreat","204","1417916","0.0-204.0","","","1-3","4241","40","0","Testing","Stims/Figures/102-J-10-4.bmp","sa:haha","Up","38","3","8","9","C2","C","56"
"","","approach-retreat","205","1424551","0.0-205.0","","","1-3","5124","38","1","Testing","Stims/Figures/85-C-20-2.bmp","zasa:za","Down","38","3","9","9","C2","C","57"
"","","approach-retreat","206","1430605","0.0-206.0","","","1-3","4542","40","1","Testing","Stims/Figures/71-C-30-1.bmp","fashava","Up","40","3","10","9","C1","C","58"
"","","approach-retreat","207","1438180","0.0-207.0","","","1-3","6057","40","1","Testing","Stims/Figures/102-C-20-4.bmp","za:saza","Up","40","3","11","9","C2","C","59"
"","","approach-retreat","208","1444414","0.0-208.0","","","1-3","4723","40","1","Testing","Stims/Figures/84-C-20-2.bmp","tapa:ta","Up","40","3","12","9","P","C","60"
"","","approach-retreat","209","1451988","0.0-209.0","","","1-3","6063","37","0","Testing","Stims/Figures/7-J-10-4.bmp","papa:ka","Right","39","3","13","9","P","C","61"
"","","approach-retreat","210","1458754","0.0-210.0","","","1-3","5256","39","0","Testing","Stims/Figures/139-J-0-2.bmp","na:la:na","Left","37","3","14","9","S","C","62"
"","","approach-retreat","211","1465924","0.0-211.0","","","1-3","5655","37","0","Testing","Stims/Figures/71-J-0-1.bmp","nala:la","Right","39","3","15","9","S","C","63"
"","","approach-retreat","212","1471922","0.0-212.0","","","1-3","4488","38","0","Testing","Stims/Figures/111-J-10-3.bmp","vafasha","Down","40","3","16","9","C1","C","64"
"","","approach-retreat","213","1477588","0.0-213.0","","","1-3","4149","38","0","Testing","Stims/Figures/93-J-0-1.bmp","za:haha","Down","40","3","17","9","C2","C","65"
"","","approach-retreat","214","1483985","0.0-214.0","","","1-3","4884","38","1","Testing","Stims/Figures/7-C-20-4.bmp","pa:pa:ka","Down","38","3","18","9","P","C","66"
"","","approach-retreat","215","1490030","0.0-215.0","","","1-3","4535","39","0","Testing","Stims/Figures/100-J-10-3.bmp","sasa:ha","Left","37","3","19","9","C2","C","67"
"","","approach-retreat","216","1496694","0.0-216.0","","","1-3","5155","40","1","Testing","Stims/Figures/100-C-30-3.bmp","tapata","Up","40","3","20","9","P","C","68"
"","","approach-retreat","217","1503148","0.0-217.0","","","1-3","4942","37","1","Testing","Stims/Figures/128-C-30-3.bmp","ma:mana","Right","37","3","21","9","S","C","69"
"","","approach-retreat","218","1509055","0.0-218.0","","","1-3","4396","38","0","Testing","Stims/Figures/84-J-0-2.bmp","mala:la","Down","40","3","22","9","S","C","70"
"","","approach-retreat","219","1515088","0.0-219.0","","","1-3","4524","39","1","Testing","Stims/Figures/139-C-20-2.bmp","mala:na","Left","39","3","23","9","S","C","71"
"","","approach-retreat","220","1521056","0.0-220.0","","","1-3","4457","39","1","Testing","Stims/Figures/111-C-30-3.bmp","ma:la:la","Left","39","3","24","9","S","C","72"
"","","approach-retreat","221","1526653","0.0-221.0","","","1-3","4083","39","0","Testing","Stims/Figures/85-J-0-2.bmp","fa:fa:sha","Left","37","4","1","9","C1","C","73"
"","","approach-retreat","222","1532398","0.0-222.0","","","1-3","4235","37","1","Testing","Stims/Figures/128-C-30-3.bmp","ma:mana","Right","37","4","2","9","S","C","74"
"","","approach-retreat","223","1538020","0.0-223.0","","","1-3","4109","38","0","Testing","Stims/Figures/102-J-10-4.bmp","sa:haha","Down","40","4","3","9","C2","C","75"
"","","approach-retreat","224","1543987","0.0-224.0","","","1-3","4457","39","0","Testing","Stims/Figures/7-J-10-4.bmp","papa:ka","Left","37","4","4","9","P","C","76"
"","","approach-retreat","225","1549634","0.0-225.0","","","1-3","4135","40","1","Testing","Stims/Figures/71-C-30-1.bmp","fashava","Up","40","4","5","9","C1","C","77"
"","","approach-retreat","226","1555411","0.0-226.0","","","1-3","4267","38","0","Testing","Stims/Figures/100-J-10-3.bmp","sasa:ha","Down","40","4","6","9","C2","C","78"
"","","approach-retreat","227","1563737","0.0-227.0","","","1-3","6816","40","1","Testing","Stims/Figures/93-C-30-1.bmp","ta:kata","Up","40","4","7","9","P","C","79"
"","","approach-retreat","228","1569561","0.0-228.0","","","1-3","4313","38","1","Testing","Stims/Figures/7-C-20-4.bmp","pa:pa:ka","Down","38","4","8","9","P","C","80"
"","","approach-retreat","229","1575639","0.0-229.0","","","1-3","4568","37","0","Testing","Stims/Figures/111-J-10-3.bmp","vafasha","Right","39","4","9","9","C1","C","81"
"","","approach-retreat","230","1581425","0.0-230.0","","","1-3","4278","40","0","Testing","Stims/Figures/86-J-0-1.bmp","fafava","Up","38","4","10","9","C1","C","82"
"","","approach-retreat","231","1587209","0.0-231.0","","","1-3","4268","39","0","Testing","Stims/Figures/87-J-10-4.bmp","ta:ka:ta","Left","37","4","11","9","P","C","83"
"","","approach-retreat","232","1593241","0.0-232.0","","","1-3","4517","37","1","Testing","Stims/Figures/84-C-20-2.bmp","tapa:ta","Right","37","4","12","9","P","C","84"
"","","approach-retreat","233","1599259","0.0-233.0","","","1-3","4501","40","1","Testing","Stims/Figures/85-C-20-2.bmp","zasa:za","Up","40","4","13","9","C2","C","85"
"","","approach-retreat","234","1604877","0.0-234.0","","","1-3","4107","38","1","Testing","Stims/Figures/139-C-20-2.bmp","mala:na","Down","38","4","14","9","S","C","86"
"","","approach-retreat","235","1610539","0.0-235.0","","","1-3","4153","37","1","Testing","Stims/Figures/102-C-20-4.bmp","za:saza","Right","37","4","15","9","C2","C","87"
"","","approach-retreat","236","1617392","0.0-236.0","","","1-3","5341","38","1","Testing","Stims/Figures/86-C-30-1.bmp","sa:ha:za","Down","38","4","16","9","C2","C","88"
"","","approach-retreat","237","1623198","0.0-237.0","","","1-3","4288","38","0","Testing","Stims/Figures/84-J-0-2.bmp","mala:la","Down","40","4","17","9","S","C","89"
"","","approach-retreat","238","1629023","0.0-238.0","","","1-3","4311","37","1","Testing","Stims/Figures/111-C-30-3.bmp","ma:la:la","Right","37","4","18","9","S","C","90"
"","","approach-retreat","239","1635589","0.0-239.0","","","1-3","5055","39","0","Testing","Stims/Figures/71-J-0-1.bmp","nala:la","Left","37","4","19","9","S","C","91"
"","","approach-retreat","240","1641273","0.0-240.0","","","1-3","4172","37","0","Testing","Stims/Figures/93-J-0-1.bmp","za:haha","Right","39","4","20","9","C2","C","92"
"","","approach-retreat","241","1647180","0.0-241.0","","","1-3","4398","40","1","Testing","Stims/Figures/100-C-30-3.bmp","tapata","Up","40","4","21","9","P","C","93"
"","","approach-retreat","242","1652945","0.0-242.0","","","1-3","4254","39","0","Testing","Stims/Figures/128-J-10-3.bmp","papa:ta","Left","37","4","22","9","P","C","94"
"","","approach-retreat","243","1658953","0.0-243.0","","","1-3","4497","39","1","Testing","Stims/Figures/87-C-20-4.bmp","sa:saza","Left","39","4","23","9","C2","C","95"
"","","approach-retreat","244","1664800","0.0-244.0","","","1-3","4336","40","0","Testing","Stims/Figures/139-J-0-2.bmp","na:la:na","Up","38","4","24","9","S","C","96"
"28392","","survey-text","245","1693205","0.0-245.0","","{""Q0"":""PS180069""}","","","","","","","","","","","","","","",""
