\"rt\",\"key_press\",\"trial_type\",\"trial_index\",\"time_elapsed\",\"internal_node_id\",\"view_history\",\"responses\",\"Id\",\"Rt\",\"ResKeyCode\",\"ResCorr\",\"TrialType2\",\"Image\",\"Label\",\"Location\",\"CorrectResponse\",\"Block\",\"BlockTrial\",\"Condition\",\"LabelType\",\"Subcondition\",\"trialNum\"
\"38126\",\"32\",\"text\",\"0\",\"38131\",\"0.0-0.0-0.0\",\"\",\"\",\"\",\"\",\"\",\"\",\"\",\"\",\"\",\"\",\"\",\"\",\"\",\"\",\"\",\"\",\"\"
\"99916\",\"\",\"instructions\",\"1\",\"138050\",\"0.0-1.0\",\"[{\"\"page_index\"\":0,\"\"viewing_time\"\":99916}]\",\"\",\"\",\"\",\"\",\"\",\"\",\"\",\"\",\"\",\"\",\"\",\"\",\"\",\"\",\"\",\"\"
\"31568\",\"\",\"survey-multi-choice\",\"2\",\"169638\",\"0.0-2.0\",\"\",\"{\"\"Q0\"\":\"\"Da\"\",\"\"Q1\"\":\"\"Da\"\",\"\"Q2\"\":\"\"Da\"\",\"\"Q3\"\":\"\"Da\"\",\"\"Q4\"\":\"\"Da\"\",\"\"Q5\"\":\"\"Da\"\"}\",\"\",\"\",\"\",\"\",\"\",\"\",\"\",\"\",\"\",\"\",\"\",\"\",\"\",\"\",\"\"
\"\",\"\",\"bio\",\"3\",\"177364\",\"0.0-3.0\",\"\",\"{\"\"age\"\":\"\"20\"\",\"\"gender\"\":\"\"m\"\",\"\"specify\"\":\"\"\"\"}\",\"\",\"\",\"\",\"\",\"\",\"\",\"\",\"\",\"\",\"\",\"\",\"\",\"\",\"\",\"\"
\"\",\"\",\"approach-retreat\",\"4\",\"188074\",\"0.0-4.0\",\"\",\"\",\"3-1\",\"9203\",\"38\",\"1\",\"Training\",\"Stims/Figures/74-J-10-4.bmp\",\"sa:saza\",\"Up\",\"38\",\"1\",\"1\",\"3B\",\"C2\",\"C\",\"1\"
\"\",\"\",\"approach-retreat\",\"5\",\"197564\",\"0.0-5.0\",\"\",\"\",\"3-1\",\"7977\",\"38\",\"1\",\"Training\",\"Stims/Figures/87-C-20-4.bmp\",\"va:shasha\",\"Down\",\"38\",\"1\",\"2\",\"3B\",\"C1\",\"C\",\"2\"
\"\",\"\",\"approach-retreat\",\"6\",\"204133\",\"0.0-6.0\",\"\",\"\",\"3-1\",\"5057\",\"38\",\"1\",\"Training\",\"Stims/Figures/71-C-30-1.bmp\",\"va:shasha\",\"Down\",\"38\",\"1\",\"3\",\"3B\",\"C1\",\"C\",\"3\"
\"\",\"\",\"approach-retreat\",\"7\",\"210942\",\"0.0-7.0\",\"\",\"\",\"3-1\",\"5296\",\"37\",\"1\",\"Training\",\"Stims/Figures/118-C-20-2.bmp\",\"va:shasha\",\"Right\",\"37\",\"1\",\"4\",\"3B\",\"C1\",\"C\",\"4\"
\"\",\"\",\"approach-retreat\",\"8\",\"217311\",\"0.0-8.0\",\"\",\"\",\"3-1\",\"4858\",\"40\",\"1\",\"Training\",\"Stims/Figures/118-J-0-2.bmp\",\"sa:saza\",\"Down\",\"40\",\"1\",\"5\",\"3B\",\"C2\",\"C\",\"5\"
\"\",\"\",\"approach-retreat\",\"9\",\"224591\",\"0.0-9.0\",\"\",\"\",\"3-1\",\"5768\",\"38\",\"1\",\"Training\",\"Stims/Figures/87-J-10-4.bmp\",\"sa:saza\",\"Up\",\"38\",\"1\",\"6\",\"3B\",\"C2\",\"C\",\"6\"
\"\",\"\",\"approach-retreat\",\"10\",\"230993\",\"0.0-10.0\",\"\",\"\",\"3-1\",\"4890\",\"37\",\"1\",\"Training\",\"Stims/Figures/139-J-0-2.bmp\",\"sa:saza\",\"Left\",\"37\",\"1\",\"7\",\"3B\",\"C2\",\"C\",\"7\"
\"\",\"\",\"approach-retreat\",\"11\",\"238552\",\"0.0-11.0\",\"\",\"\",\"3-1\",\"6047\",\"40\",\"1\",\"Training\",\"Stims/Figures/93-C-30-1.bmp\",\"va:shasha\",\"Up\",\"40\",\"1\",\"8\",\"3B\",\"C1\",\"C\",\"8\"
\"\",\"\",\"approach-retreat\",\"12\",\"246584\",\"0.0-12.0\",\"\",\"\",\"3-1\",\"6518\",\"38\",\"1\",\"Training\",\"Stims/Figures/44-C-30-3.bmp\",\"va:shasha\",\"Down\",\"38\",\"1\",\"9\",\"3B\",\"C1\",\"C\",\"9\"
\"\",\"\",\"approach-retreat\",\"13\",\"254497\",\"0.0-13.0\",\"\",\"\",\"3-1\",\"6406\",\"39\",\"0\",\"Training\",\"Stims/Figures/128-J-10-3.bmp\",\"sa:saza\",\"Left\",\"37\",\"1\",\"10\",\"3B\",\"C2\",\"C\",\"10\"
\"\",\"\",\"approach-retreat\",\"14\",\"260602\",\"0.0-14.0\",\"\",\"\",\"3-1\",\"4600\",\"37\",\"1\",\"Training\",\"Stims/Figures/74-C-20-4.bmp\",\"va:shasha\",\"Right\",\"37\",\"1\",\"11\",\"3B\",\"C1\",\"C\",\"11\"
\"\",\"\",\"approach-retreat\",\"15\",\"267621\",\"0.0-15.0\",\"\",\"\",\"3-1\",\"5509\",\"37\",\"1\",\"Training\",\"Stims/Figures/93-J-0-1.bmp\",\"sa:saza\",\"Left\",\"37\",\"1\",\"12\",\"3B\",\"C2\",\"C\",\"12\"
\"\",\"\",\"approach-retreat\",\"16\",\"275292\",\"0.0-16.0\",\"\",\"\",\"3-1\",\"6159\",\"39\",\"1\",\"Training\",\"Stims/Figures/71-J-0-1.bmp\",\"sa:saza\",\"Right\",\"39\",\"1\",\"13\",\"3B\",\"C2\",\"C\",\"13\"
\"\",\"\",\"approach-retreat\",\"17\",\"282928\",\"0.0-17.0\",\"\",\"\",\"3-1\",\"6124\",\"37\",\"1\",\"Training\",\"Stims/Figures/139-C-20-2.bmp\",\"va:shasha\",\"Right\",\"37\",\"1\",\"14\",\"3B\",\"C1\",\"C\",\"14\"
\"\",\"\",\"approach-retreat\",\"18\",\"288732\",\"0.0-18.0\",\"\",\"\",\"3-1\",\"4293\",\"39\",\"1\",\"Training\",\"Stims/Figures/128-C-30-3.bmp\",\"va:shasha\",\"Left\",\"39\",\"1\",\"15\",\"3B\",\"C1\",\"C\",\"15\"
\"\",\"\",\"approach-retreat\",\"19\",\"294963\",\"0.0-19.0\",\"\",\"\",\"3-1\",\"4719\",\"38\",\"1\",\"Training\",\"Stims/Figures/44-J-10-3.bmp\",\"sa:saza\",\"Up\",\"38\",\"1\",\"16\",\"3B\",\"C2\",\"C\",\"16\"
\"\",\"\",\"approach-retreat\",\"20\",\"302046\",\"0.0-20.0\",\"\",\"\",\"3-1\",\"5572\",\"39\",\"1\",\"Training\",\"Stims/Figures/74-C-20-4.bmp\",\"va:shasha\",\"Left\",\"39\",\"2\",\"1\",\"3B\",\"C1\",\"C\",\"17\"
\"\",\"\",\"approach-retreat\",\"21\",\"310363\",\"0.0-21.0\",\"\",\"\",\"3-1\",\"6805\",\"38\",\"1\",\"Training\",\"Stims/Figures/93-C-30-1.bmp\",\"va:shasha\",\"Down\",\"38\",\"2\",\"2\",\"3B\",\"C1\",\"C\",\"18\"
\"\",\"\",\"approach-retreat\",\"22\",\"316895\",\"0.0-22.0\",\"\",\"\",\"3-1\",\"5020\",\"38\",\"1\",\"Training\",\"Stims/Figures/118-J-0-2.bmp\",\"sa:saza\",\"Up\",\"38\",\"2\",\"3\",\"3B\",\"C2\",\"C\",\"19\"
\"\",\"\",\"approach-retreat\",\"23\",\"323089\",\"0.0-23.0\",\"\",\"\",\"3-1\",\"4683\",\"39\",\"1\",\"Training\",\"Stims/Figures/128-C-30-3.bmp\",\"va:shasha\",\"Left\",\"39\",\"2\",\"4\",\"3B\",\"C1\",\"C\",\"20\"
\"\",\"\",\"approach-retreat\",\"24\",\"330784\",\"0.0-24.0\",\"\",\"\",\"3-1\",\"6184\",\"38\",\"1\",\"Training\",\"Stims/Figures/139-J-0-2.bmp\",\"sa:saza\",\"Up\",\"38\",\"2\",\"5\",\"3B\",\"C2\",\"C\",\"21\"
\"\",\"\",\"approach-retreat\",\"25\",\"336714\",\"0.0-25.0\",\"\",\"\",\"3-1\",\"4413\",\"37\",\"1\",\"Training\",\"Stims/Figures/71-J-0-1.bmp\",\"sa:saza\",\"Left\",\"37\",\"2\",\"6\",\"3B\",\"C2\",\"C\",\"22\"
\"\",\"\",\"approach-retreat\",\"26\",\"343080\",\"0.0-26.0\",\"\",\"\",\"3-1\",\"4856\",\"39\",\"1\",\"Training\",\"Stims/Figures/139-C-20-2.bmp\",\"va:shasha\",\"Left\",\"39\",\"2\",\"7\",\"3B\",\"C1\",\"C\",\"23\"
\"\",\"\",\"approach-retreat\",\"27\",\"350119\",\"0.0-27.0\",\"\",\"\",\"3-1\",\"5530\",\"37\",\"1\",\"Training\",\"Stims/Figures/71-C-30-1.bmp\",\"va:shasha\",\"Right\",\"37\",\"2\",\"8\",\"3B\",\"C1\",\"C\",\"24\"
\"\",\"\",\"approach-retreat\",\"28\",\"355843\",\"0.0-28.0\",\"\",\"\",\"3-1\",\"4213\",\"37\",\"1\",\"Training\",\"Stims/Figures/44-C-30-3.bmp\",\"va:shasha\",\"Right\",\"37\",\"2\",\"9\",\"3B\",\"C1\",\"C\",\"25\"
\"\",\"\",\"approach-retreat\",\"29\",\"361459\",\"0.0-29.0\",\"\",\"\",\"3-1\",\"4105\",\"37\",\"1\",\"Training\",\"Stims/Figures/118-C-20-2.bmp\",\"va:shasha\",\"Right\",\"37\",\"2\",\"10\",\"3B\",\"C1\",\"C\",\"26\"
\"\",\"\",\"approach-retreat\",\"30\",\"367067\",\"0.0-30.0\",\"\",\"\",\"3-1\",\"4097\",\"39\",\"1\",\"Training\",\"Stims/Figures/87-J-10-4.bmp\",\"sa:saza\",\"Right\",\"39\",\"2\",\"11\",\"3B\",\"C2\",\"C\",\"27\"
\"\",\"\",\"approach-retreat\",\"31\",\"373615\",\"0.0-31.0\",\"\",\"\",\"3-1\",\"5036\",\"38\",\"1\",\"Training\",\"Stims/Figures/87-C-20-4.bmp\",\"va:shasha\",\"Down\",\"38\",\"2\",\"12\",\"3B\",\"C1\",\"C\",\"28\"
\"\",\"\",\"approach-retreat\",\"32\",\"380159\",\"0.0-32.0\",\"\",\"\",\"3-1\",\"5033\",\"40\",\"1\",\"Training\",\"Stims/Figures/128-J-10-3.bmp\",\"sa:saza\",\"Down\",\"40\",\"2\",\"13\",\"3B\",\"C2\",\"C\",\"29\"
\"\",\"\",\"approach-retreat\",\"33\",\"386710\",\"0.0-33.0\",\"\",\"\",\"3-1\",\"5042\",\"38\",\"1\",\"Training\",\"Stims/Figures/44-J-10-3.bmp\",\"sa:saza\",\"Up\",\"38\",\"2\",\"14\",\"3B\",\"C2\",\"C\",\"30\"
\"\",\"\",\"approach-retreat\",\"34\",\"393695\",\"0.0-34.0\",\"\",\"\",\"3-1\",\"5474\",\"40\",\"1\",\"Training\",\"Stims/Figures/74-J-10-4.bmp\",\"sa:saza\",\"Down\",\"40\",\"2\",\"15\",\"3B\",\"C2\",\"C\",\"31\"
\"\",\"\",\"approach-retreat\",\"35\",\"399745\",\"0.0-35.0\",\"\",\"\",\"3-1\",\"4539\",\"38\",\"1\",\"Training\",\"Stims/Figures/93-J-0-1.bmp\",\"sa:saza\",\"Up\",\"38\",\"2\",\"16\",\"3B\",\"C2\",\"C\",\"32\"
\"\",\"\",\"approach-retreat\",\"36\",\"405919\",\"0.0-36.0\",\"\",\"\",\"3-1\",\"4662\",\"40\",\"1\",\"Training\",\"Stims/Figures/93-J-0-1.bmp\",\"sa:saza\",\"Down\",\"40\",\"3\",\"1\",\"3B\",\"C2\",\"C\",\"33\"
\"\",\"\",\"approach-retreat\",\"37\",\"412869\",\"0.0-37.0\",\"\",\"\",\"3-1\",\"5430\",\"38\",\"1\",\"Training\",\"Stims/Figures/139-C-20-2.bmp\",\"va:shasha\",\"Down\",\"38\",\"3\",\"2\",\"3B\",\"C1\",\"C\",\"34\"
\"\",\"\",\"approach-retreat\",\"38\",\"419434\",\"0.0-38.0\",\"\",\"\",\"3-1\",\"5052\",\"40\",\"1\",\"Training\",\"Stims/Figures/87-J-10-4.bmp\",\"sa:saza\",\"Down\",\"40\",\"3\",\"3\",\"3B\",\"C2\",\"C\",\"35\"
\"\",\"\",\"approach-retreat\",\"39\",\"425238\",\"0.0-39.0\",\"\",\"\",\"3-1\",\"4288\",\"37\",\"1\",\"Training\",\"Stims/Figures/44-C-30-3.bmp\",\"va:shasha\",\"Right\",\"37\",\"3\",\"4\",\"3B\",\"C1\",\"C\",\"36\"
\"\",\"\",\"approach-retreat\",\"40\",\"431207\",\"0.0-40.0\",\"\",\"\",\"3-1\",\"4458\",\"37\",\"1\",\"Training\",\"Stims/Figures/128-J-10-3.bmp\",\"sa:saza\",\"Left\",\"37\",\"3\",\"5\",\"3B\",\"C2\",\"C\",\"37\"
\"\",\"\",\"approach-retreat\",\"41\",\"439115\",\"0.0-41.0\",\"\",\"\",\"3-1\",\"6396\",\"40\",\"1\",\"Training\",\"Stims/Figures/93-C-30-1.bmp\",\"va:shasha\",\"Up\",\"40\",\"3\",\"6\",\"3B\",\"C1\",\"C\",\"38\"
\"\",\"\",\"approach-retreat\",\"42\",\"447987\",\"0.0-42.0\",\"\",\"\",\"3-1\",\"7360\",\"37\",\"1\",\"Training\",\"Stims/Figures/118-J-0-2.bmp\",\"sa:saza\",\"Left\",\"37\",\"3\",\"7\",\"3B\",\"C2\",\"C\",\"39\"
\"\",\"\",\"approach-retreat\",\"43\",\"453769\",\"0.0-43.0\",\"\",\"\",\"3-1\",\"4272\",\"40\",\"1\",\"Training\",\"Stims/Figures/128-C-30-3.bmp\",\"va:shasha\",\"Up\",\"40\",\"3\",\"8\",\"3B\",\"C1\",\"C\",\"40\"
\"\",\"\",\"approach-retreat\",\"44\",\"459811\",\"0.0-44.0\",\"\",\"\",\"3-1\",\"4537\",\"40\",\"1\",\"Training\",\"Stims/Figures/118-C-20-2.bmp\",\"va:shasha\",\"Up\",\"40\",\"3\",\"9\",\"3B\",\"C1\",\"C\",\"41\"
\"\",\"\",\"approach-retreat\",\"45\",\"465722\",\"0.0-45.0\",\"\",\"\",\"3-1\",\"4400\",\"37\",\"1\",\"Training\",\"Stims/Figures/74-C-20-4.bmp\",\"va:shasha\",\"Right\",\"37\",\"3\",\"10\",\"3B\",\"C1\",\"C\",\"42\"
\"\",\"\",\"approach-retreat\",\"46\",\"471919\",\"0.0-46.0\",\"\",\"\",\"3-1\",\"4686\",\"37\",\"1\",\"Training\",\"Stims/Figures/74-J-10-4.bmp\",\"sa:saza\",\"Left\",\"37\",\"3\",\"11\",\"3B\",\"C2\",\"C\",\"43\"
\"\",\"\",\"approach-retreat\",\"47\",\"478191\",\"0.0-47.0\",\"\",\"\",\"3-1\",\"4760\",\"39\",\"1\",\"Training\",\"Stims/Figures/87-C-20-4.bmp\",\"va:shasha\",\"Left\",\"39\",\"3\",\"12\",\"3B\",\"C1\",\"C\",\"44\"
\"\",\"\",\"approach-retreat\",\"48\",\"483774\",\"0.0-48.0\",\"\",\"\",\"3-1\",\"4073\",\"40\",\"1\",\"Training\",\"Stims/Figures/71-C-30-1.bmp\",\"va:shasha\",\"Up\",\"40\",\"3\",\"13\",\"3B\",\"C1\",\"C\",\"45\"
\"\",\"\",\"approach-retreat\",\"49\",\"489767\",\"0.0-49.0\",\"\",\"\",\"3-1\",\"4477\",\"39\",\"1\",\"Training\",\"Stims/Figures/71-J-0-1.bmp\",\"sa:saza\",\"Right\",\"39\",\"3\",\"14\",\"3B\",\"C2\",\"C\",\"46\"
\"\",\"\",\"approach-retreat\",\"50\",\"495567\",\"0.0-50.0\",\"\",\"\",\"3-1\",\"4287\",\"40\",\"1\",\"Training\",\"Stims/Figures/139-J-0-2.bmp\",\"sa:saza\",\"Down\",\"40\",\"3\",\"15\",\"3B\",\"C2\",\"C\",\"47\"
\"\",\"\",\"approach-retreat\",\"51\",\"501068\",\"0.0-51.0\",\"\",\"\",\"3-1\",\"3989\",\"39\",\"1\",\"Training\",\"Stims/Figures/44-J-10-3.bmp\",\"sa:saza\",\"Right\",\"39\",\"3\",\"16\",\"3B\",\"C2\",\"C\",\"48\"
\"\",\"\",\"approach-retreat\",\"52\",\"507275\",\"0.0-52.0\",\"\",\"\",\"3-1\",\"4694\",\"37\",\"1\",\"Training\",\"Stims/Figures/87-C-20-4.bmp\",\"va:shasha\",\"Right\",\"37\",\"4\",\"1\",\"3B\",\"C1\",\"C\",\"49\"
\"\",\"\",\"approach-retreat\",\"53\",\"513407\",\"0.0-53.0\",\"\",\"\",\"3-1\",\"4620\",\"40\",\"1\",\"Training\",\"Stims/Figures/128-C-30-3.bmp\",\"va:shasha\",\"Up\",\"40\",\"4\",\"2\",\"3B\",\"C1\",\"C\",\"50\"
\"\",\"\",\"approach-retreat\",\"54\",\"519428\",\"0.0-54.0\",\"\",\"\",\"3-1\",\"4506\",\"39\",\"1\",\"Training\",\"Stims/Figures/118-C-20-2.bmp\",\"va:shasha\",\"Left\",\"39\",\"4\",\"3\",\"3B\",\"C1\",\"C\",\"51\"
\"\",\"\",\"approach-retreat\",\"55\",\"525659\",\"0.0-55.0\",\"\",\"\",\"3-1\",\"4720\",\"40\",\"1\",\"Training\",\"Stims/Figures/71-J-0-1.bmp\",\"sa:saza\",\"Down\",\"40\",\"4\",\"4\",\"3B\",\"C2\",\"C\",\"52\"
\"\",\"\",\"approach-retreat\",\"56\",\"532242\",\"0.0-56.0\",\"\",\"\",\"3-1\",\"5072\",\"38\",\"1\",\"Training\",\"Stims/Figures/44-J-10-3.bmp\",\"sa:saza\",\"Up\",\"38\",\"4\",\"5\",\"3B\",\"C2\",\"C\",\"53\"
\"\",\"\",\"approach-retreat\",\"57\",\"538299\",\"0.0-57.0\",\"\",\"\",\"3-1\",\"4545\",\"37\",\"1\",\"Training\",\"Stims/Figures/118-J-0-2.bmp\",\"sa:saza\",\"Left\",\"37\",\"4\",\"6\",\"3B\",\"C2\",\"C\",\"54\"
\"\",\"\",\"approach-retreat\",\"58\",\"544375\",\"0.0-58.0\",\"\",\"\",\"3-1\",\"4564\",\"39\",\"1\",\"Training\",\"Stims/Figures/44-C-30-3.bmp\",\"va:shasha\",\"Left\",\"39\",\"4\",\"7\",\"3B\",\"C1\",\"C\",\"55\"
\"\",\"\",\"approach-retreat\",\"59\",\"551478\",\"0.0-59.0\",\"\",\"\",\"3-1\",\"5591\",\"40\",\"1\",\"Training\",\"Stims/Figures/74-J-10-4.bmp\",\"sa:saza\",\"Down\",\"40\",\"4\",\"8\",\"3B\",\"C2\",\"C\",\"56\"
\"\",\"\",\"approach-retreat\",\"60\",\"557827\",\"0.0-60.0\",\"\",\"\",\"3-1\",\"4839\",\"37\",\"1\",\"Training\",\"Stims/Figures/128-J-10-3.bmp\",\"sa:saza\",\"Left\",\"37\",\"4\",\"9\",\"3B\",\"C2\",\"C\",\"57\"
\"\",\"\",\"approach-retreat\",\"61\",\"565417\",\"0.0-61.0\",\"\",\"\",\"3-1\",\"6086\",\"38\",\"1\",\"Training\",\"Stims/Figures/93-J-0-1.bmp\",\"sa:saza\",\"Up\",\"38\",\"4\",\"10\",\"3B\",\"C2\",\"C\",\"58\"
\"\",\"\",\"approach-retreat\",\"62\",\"571519\",\"0.0-62.0\",\"\",\"\",\"3-1\",\"4591\",\"39\",\"1\",\"Training\",\"Stims/Figures/139-J-0-2.bmp\",\"sa:saza\",\"Right\",\"39\",\"4\",\"11\",\"3B\",\"C2\",\"C\",\"59\"
\"\",\"\",\"approach-retreat\",\"63\",\"577797\",\"0.0-63.0\",\"\",\"\",\"3-1\",\"4772\",\"40\",\"1\",\"Training\",\"Stims/Figures/87-J-10-4.bmp\",\"sa:saza\",\"Down\",\"40\",\"4\",\"12\",\"3B\",\"C2\",\"C\",\"60\"
\"\",\"\",\"approach-retreat\",\"64\",\"584225\",\"0.0-64.0\",\"\",\"\",\"3-1\",\"4918\",\"38\",\"0\",\"Training\",\"Stims/Figures/71-C-30-1.bmp\",\"va:shasha\",\"Up\",\"40\",\"4\",\"13\",\"3B\",\"C1\",\"C\",\"61\"
\"\",\"\",\"approach-retreat\",\"65\",\"590108\",\"0.0-65.0\",\"\",\"\",\"3-1\",\"4369\",\"38\",\"1\",\"Training\",\"Stims/Figures/74-C-20-4.bmp\",\"va:shasha\",\"Down\",\"38\",\"4\",\"14\",\"3B\",\"C1\",\"C\",\"62\"
\"\",\"\",\"approach-retreat\",\"66\",\"596128\",\"0.0-66.0\",\"\",\"\",\"3-1\",\"4509\",\"37\",\"1\",\"Training\",\"Stims/Figures/139-C-20-2.bmp\",\"va:shasha\",\"Right\",\"37\",\"4\",\"15\",\"3B\",\"C1\",\"C\",\"63\"
\"\",\"\",\"approach-retreat\",\"67\",\"601817\",\"0.0-67.0\",\"\",\"\",\"3-1\",\"4176\",\"37\",\"1\",\"Training\",\"Stims/Figures/93-C-30-1.bmp\",\"va:shasha\",\"Right\",\"37\",\"4\",\"16\",\"3B\",\"C1\",\"C\",\"64\"
\"\",\"\",\"approach-retreat\",\"68\",\"607779\",\"0.0-68.0\",\"\",\"\",\"3-1\",\"4450\",\"40\",\"0\",\"Training\",\"Stims/Figures/87-J-10-4.bmp\",\"sa:saza\",\"Up\",\"38\",\"5\",\"1\",\"3B\",\"C2\",\"C\",\"65\"
\"\",\"\",\"approach-retreat\",\"69\",\"613966\",\"0.0-69.0\",\"\",\"\",\"3-1\",\"4675\",\"37\",\"1\",\"Training\",\"Stims/Figures/74-J-10-4.bmp\",\"sa:saza\",\"Left\",\"37\",\"5\",\"2\",\"3B\",\"C2\",\"C\",\"66\"
\"\",\"\",\"approach-retreat\",\"70\",\"619805\",\"0.0-70.0\",\"\",\"\",\"3-1\",\"4327\",\"37\",\"1\",\"Training\",\"Stims/Figures/44-C-30-3.bmp\",\"va:shasha\",\"Right\",\"37\",\"5\",\"3\",\"3B\",\"C1\",\"C\",\"67\"
\"\",\"\",\"approach-retreat\",\"71\",\"627236\",\"0.0-71.0\",\"\",\"\",\"3-1\",\"5917\",\"40\",\"1\",\"Training\",\"Stims/Figures/44-J-10-3.bmp\",\"sa:saza\",\"Down\",\"40\",\"5\",\"4\",\"3B\",\"C2\",\"C\",\"68\"
\"\",\"\",\"approach-retreat\",\"72\",\"633325\",\"0.0-72.0\",\"\",\"\",\"3-1\",\"4584\",\"38\",\"1\",\"Training\",\"Stims/Figures/74-C-20-4.bmp\",\"va:shasha\",\"Down\",\"38\",\"5\",\"5\",\"3B\",\"C1\",\"C\",\"69\"
\"\",\"\",\"approach-retreat\",\"73\",\"639541\",\"0.0-73.0\",\"\",\"\",\"3-1\",\"4704\",\"40\",\"1\",\"Training\",\"Stims/Figures/128-C-30-3.bmp\",\"va:shasha\",\"Up\",\"40\",\"5\",\"6\",\"3B\",\"C1\",\"C\",\"70\"
\"\",\"\",\"approach-retreat\",\"74\",\"646679\",\"0.0-74.0\",\"\",\"\",\"3-1\",\"5627\",\"37\",\"1\",\"Training\",\"Stims/Figures/93-J-0-1.bmp\",\"sa:saza\",\"Left\",\"37\",\"5\",\"7\",\"3B\",\"C2\",\"C\",\"71\"
\"\",\"\",\"approach-retreat\",\"75\",\"652831\",\"0.0-75.0\",\"\",\"\",\"3-1\",\"4641\",\"39\",\"1\",\"Training\",\"Stims/Figures/118-C-20-2.bmp\",\"va:shasha\",\"Left\",\"39\",\"5\",\"8\",\"3B\",\"C1\",\"C\",\"72\"
\"\",\"\",\"approach-retreat\",\"76\",\"659847\",\"0.0-76.0\",\"\",\"\",\"3-1\",\"5506\",\"39\",\"1\",\"Training\",\"Stims/Figures/71-J-0-1.bmp\",\"sa:saza\",\"Right\",\"39\",\"5\",\"9\",\"3B\",\"C2\",\"C\",\"73\"
\"\",\"\",\"approach-retreat\",\"77\",\"669269\",\"0.0-77.0\",\"\",\"\",\"3-1\",\"7910\",\"38\",\"1\",\"Training\",\"Stims/Figures/71-C-30-1.bmp\",\"va:shasha\",\"Down\",\"38\",\"5\",\"10\",\"3B\",\"C1\",\"C\",\"74\"
\"\",\"\",\"approach-retreat\",\"78\",\"675370\",\"0.0-78.0\",\"\",\"\",\"3-1\",\"4587\",\"39\",\"1\",\"Training\",\"Stims/Figures/139-C-20-2.bmp\",\"va:shasha\",\"Left\",\"39\",\"5\",\"11\",\"3B\",\"C1\",\"C\",\"75\"
\"\",\"\",\"approach-retreat\",\"79\",\"682605\",\"0.0-79.0\",\"\",\"\",\"3-1\",\"5725\",\"40\",\"1\",\"Training\",\"Stims/Figures/128-J-10-3.bmp\",\"sa:saza\",\"Down\",\"40\",\"5\",\"12\",\"3B\",\"C2\",\"C\",\"76\"
\"\",\"\",\"approach-retreat\",\"80\",\"689932\",\"0.0-80.0\",\"\",\"\",\"3-1\",\"5814\",\"40\",\"1\",\"Training\",\"Stims/Figures/93-C-30-1.bmp\",\"va:shasha\",\"Up\",\"40\",\"5\",\"13\",\"3B\",\"C1\",\"C\",\"77\"
\"\",\"\",\"approach-retreat\",\"81\",\"695859\",\"0.0-81.0\",\"\",\"\",\"3-1\",\"4417\",\"37\",\"1\",\"Training\",\"Stims/Figures/87-C-20-4.bmp\",\"va:shasha\",\"Right\",\"37\",\"5\",\"14\",\"3B\",\"C1\",\"C\",\"78\"
\"\",\"\",\"approach-retreat\",\"82\",\"701852\",\"0.0-82.0\",\"\",\"\",\"3-1\",\"4482\",\"38\",\"1\",\"Training\",\"Stims/Figures/118-J-0-2.bmp\",\"sa:saza\",\"Up\",\"38\",\"5\",\"15\",\"3B\",\"C2\",\"C\",\"79\"
\"\",\"\",\"approach-retreat\",\"83\",\"707812\",\"0.0-83.0\",\"\",\"\",\"3-1\",\"4449\",\"39\",\"1\",\"Training\",\"Stims/Figures/139-J-0-2.bmp\",\"sa:saza\",\"Right\",\"39\",\"5\",\"16\",\"3B\",\"C2\",\"C\",\"80\"
\"\",\"\",\"approach-retreat\",\"84\",\"714559\",\"0.0-84.0\",\"\",\"\",\"3-1\",\"5237\",\"39\",\"1\",\"Training\",\"Stims/Figures/74-C-20-4.bmp\",\"va:shasha\",\"Left\",\"39\",\"6\",\"1\",\"3B\",\"C1\",\"C\",\"81\"
\"\",\"\",\"approach-retreat\",\"85\",\"720921\",\"0.0-85.0\",\"\",\"\",\"3-1\",\"4850\",\"37\",\"1\",\"Training\",\"Stims/Figures/139-J-0-2.bmp\",\"sa:saza\",\"Left\",\"37\",\"6\",\"2\",\"3B\",\"C2\",\"C\",\"82\"
\"\",\"\",\"approach-retreat\",\"86\",\"728412\",\"0.0-86.0\",\"\",\"\",\"3-1\",\"5980\",\"37\",\"1\",\"Training\",\"Stims/Figures/93-C-30-1.bmp\",\"va:shasha\",\"Right\",\"37\",\"6\",\"3\",\"3B\",\"C1\",\"C\",\"83\"
\"\",\"\",\"approach-retreat\",\"87\",\"734431\",\"0.0-87.0\",\"\",\"\",\"3-1\",\"4507\",\"38\",\"1\",\"Training\",\"Stims/Figures/128-J-10-3.bmp\",\"sa:saza\",\"Up\",\"38\",\"6\",\"4\",\"3B\",\"C2\",\"C\",\"84\"
\"\",\"\",\"approach-retreat\",\"88\",\"740005\",\"0.0-88.0\",\"\",\"\",\"3-1\",\"4064\",\"40\",\"1\",\"Training\",\"Stims/Figures/128-C-30-3.bmp\",\"va:shasha\",\"Up\",\"40\",\"6\",\"5\",\"3B\",\"C1\",\"C\",\"85\"
\"\",\"\",\"approach-retreat\",\"89\",\"746116\",\"0.0-89.0\",\"\",\"\",\"3-1\",\"4604\",\"40\",\"1\",\"Training\",\"Stims/Figures/44-C-30-3.bmp\",\"va:shasha\",\"Up\",\"40\",\"6\",\"6\",\"3B\",\"C1\",\"C\",\"86\"
\"\",\"\",\"approach-retreat\",\"90\",\"751981\",\"0.0-90.0\",\"\",\"\",\"3-1\",\"4358\",\"37\",\"1\",\"Training\",\"Stims/Figures/71-C-30-1.bmp\",\"va:shasha\",\"Right\",\"37\",\"6\",\"7\",\"3B\",\"C1\",\"C\",\"87\"
\"\",\"\",\"approach-retreat\",\"91\",\"757938\",\"0.0-91.0\",\"\",\"\",\"3-1\",\"4446\",\"38\",\"1\",\"Training\",\"Stims/Figures/139-C-20-2.bmp\",\"va:shasha\",\"Down\",\"38\",\"6\",\"8\",\"3B\",\"C1\",\"C\",\"88\"
\"\",\"\",\"approach-retreat\",\"92\",\"763819\",\"0.0-92.0\",\"\",\"\",\"3-1\",\"4367\",\"37\",\"1\",\"Training\",\"Stims/Figures/118-J-0-2.bmp\",\"sa:saza\",\"Left\",\"37\",\"6\",\"9\",\"3B\",\"C2\",\"C\",\"89\"
\"\",\"\",\"approach-retreat\",\"93\",\"769520\",\"0.0-93.0\",\"\",\"\",\"3-1\",\"4189\",\"37\",\"0\",\"Training\",\"Stims/Figures/118-C-20-2.bmp\",\"va:shasha\",\"Left\",\"39\",\"6\",\"10\",\"3B\",\"C1\",\"C\",\"90\"
\"\",\"\",\"approach-retreat\",\"94\",\"775525\",\"0.0-94.0\",\"\",\"\",\"3-1\",\"4495\",\"39\",\"1\",\"Training\",\"Stims/Figures/71-J-0-1.bmp\",\"sa:saza\",\"Right\",\"39\",\"6\",\"11\",\"3B\",\"C2\",\"C\",\"91\"
\"\",\"\",\"approach-retreat\",\"95\",\"781414\",\"0.0-95.0\",\"\",\"\",\"3-1\",\"4379\",\"40\",\"1\",\"Training\",\"Stims/Figures/74-J-10-4.bmp\",\"sa:saza\",\"Down\",\"40\",\"6\",\"12\",\"3B\",\"C2\",\"C\",\"92\"
\"\",\"\",\"approach-retreat\",\"96\",\"788604\",\"0.0-96.0\",\"\",\"\",\"3-1\",\"5678\",\"40\",\"1\",\"Training\",\"Stims/Figures/87-J-10-4.bmp\",\"sa:saza\",\"Down\",\"40\",\"6\",\"13\",\"3B\",\"C2\",\"C\",\"93\"
\"\",\"\",\"approach-retreat\",\"97\",\"794605\",\"0.0-97.0\",\"\",\"\",\"3-1\",\"4486\",\"38\",\"1\",\"Training\",\"Stims/Figures/87-C-20-4.bmp\",\"va:shasha\",\"Down\",\"38\",\"6\",\"14\",\"3B\",\"C1\",\"C\",\"94\"
\"\",\"\",\"approach-retreat\",\"98\",\"800554\",\"0.0-98.0\",\"\",\"\",\"3-1\",\"4444\",\"39\",\"1\",\"Training\",\"Stims/Figures/93-J-0-1.bmp\",\"sa:saza\",\"Right\",\"39\",\"6\",\"15\",\"3B\",\"C2\",\"C\",\"95\"
\"\",\"\",\"approach-retreat\",\"99\",\"806278\",\"0.0-99.0\",\"\",\"\",\"3-1\",\"4211\",\"38\",\"1\",\"Training\",\"Stims/Figures/44-J-10-3.bmp\",\"sa:saza\",\"Up\",\"38\",\"6\",\"16\",\"3B\",\"C2\",\"C\",\"96\"
\"\",\"\",\"approach-retreat\",\"100\",\"812383\",\"0.0-100.0\",\"\",\"\",\"3-1\",\"4591\",\"39\",\"1\",\"Training\",\"Stims/Figures/44-C-30-3.bmp\",\"va:shasha\",\"Left\",\"39\",\"7\",\"1\",\"3B\",\"C1\",\"C\",\"97\"
\"\",\"\",\"approach-retreat\",\"101\",\"818515\",\"0.0-101.0\",\"\",\"\",\"3-1\",\"4622\",\"38\",\"1\",\"Training\",\"Stims/Figures/93-J-0-1.bmp\",\"sa:saza\",\"Up\",\"38\",\"7\",\"2\",\"3B\",\"C2\",\"C\",\"98\"
\"\",\"\",\"approach-retreat\",\"102\",\"824588\",\"0.0-102.0\",\"\",\"\",\"3-1\",\"4562\",\"38\",\"1\",\"Training\",\"Stims/Figures/128-J-10-3.bmp\",\"sa:saza\",\"Up\",\"38\",\"7\",\"3\",\"3B\",\"C2\",\"C\",\"99\"
\"\",\"\",\"approach-retreat\",\"103\",\"832094\",\"0.0-103.0\",\"\",\"\",\"3-1\",\"5993\",\"39\",\"1\",\"Training\",\"Stims/Figures/87-C-20-4.bmp\",\"va:shasha\",\"Left\",\"39\",\"7\",\"4\",\"3B\",\"C1\",\"C\",\"100\"
\"\",\"\",\"approach-retreat\",\"104\",\"838017\",\"0.0-104.0\",\"\",\"\",\"3-1\",\"4409\",\"37\",\"1\",\"Training\",\"Stims/Figures/139-C-20-2.bmp\",\"va:shasha\",\"Right\",\"37\",\"7\",\"5\",\"3B\",\"C1\",\"C\",\"101\"
\"\",\"\",\"approach-retreat\",\"105\",\"843739\",\"0.0-105.0\",\"\",\"\",\"3-1\",\"4210\",\"37\",\"1\",\"Training\",\"Stims/Figures/71-C-30-1.bmp\",\"va:shasha\",\"Right\",\"37\",\"7\",\"6\",\"3B\",\"C1\",\"C\",\"102\"
\"\",\"\",\"approach-retreat\",\"106\",\"850314\",\"0.0-106.0\",\"\",\"\",\"3-1\",\"5065\",\"39\",\"1\",\"Training\",\"Stims/Figures/139-J-0-2.bmp\",\"sa:saza\",\"Right\",\"39\",\"7\",\"7\",\"3B\",\"C2\",\"C\",\"103\"
\"\",\"\",\"approach-retreat\",\"107\",\"856335\",\"0.0-107.0\",\"\",\"\",\"3-1\",\"4513\",\"37\",\"1\",\"Training\",\"Stims/Figures/44-J-10-3.bmp\",\"sa:saza\",\"Left\",\"37\",\"7\",\"8\",\"3B\",\"C2\",\"C\",\"104\"
\"\",\"\",\"approach-retreat\",\"108\",\"862459\",\"0.0-108.0\",\"\",\"\",\"3-1\",\"4611\",\"40\",\"1\",\"Training\",\"Stims/Figures/118-C-20-2.bmp\",\"va:shasha\",\"Up\",\"40\",\"7\",\"9\",\"3B\",\"C1\",\"C\",\"105\"
\"\",\"\",\"approach-retreat\",\"109\",\"868002\",\"0.0-109.0\",\"\",\"\",\"3-1\",\"4032\",\"40\",\"1\",\"Training\",\"Stims/Figures/93-C-30-1.bmp\",\"va:shasha\",\"Up\",\"40\",\"7\",\"10\",\"3B\",\"C1\",\"C\",\"106\"
\"\",\"\",\"approach-retreat\",\"110\",\"873771\",\"0.0-110.0\",\"\",\"\",\"3-1\",\"4258\",\"37\",\"1\",\"Training\",\"Stims/Figures/74-C-20-4.bmp\",\"va:shasha\",\"Right\",\"37\",\"7\",\"11\",\"3B\",\"C1\",\"C\",\"107\"
\"\",\"\",\"approach-retreat\",\"111\",\"880095\",\"0.0-111.0\",\"\",\"\",\"3-1\",\"4821\",\"40\",\"1\",\"Training\",\"Stims/Figures/74-J-10-4.bmp\",\"sa:saza\",\"Down\",\"40\",\"7\",\"12\",\"3B\",\"C2\",\"C\",\"108\"
\"\",\"\",\"approach-retreat\",\"112\",\"886500\",\"0.0-112.0\",\"\",\"\",\"3-1\",\"4894\",\"40\",\"1\",\"Training\",\"Stims/Figures/71-J-0-1.bmp\",\"sa:saza\",\"Down\",\"40\",\"7\",\"13\",\"3B\",\"C2\",\"C\",\"109\"
\"\",\"\",\"approach-retreat\",\"113\",\"892508\",\"0.0-113.0\",\"\",\"\",\"3-1\",\"4497\",\"40\",\"1\",\"Training\",\"Stims/Figures/118-J-0-2.bmp\",\"sa:saza\",\"Down\",\"40\",\"7\",\"14\",\"3B\",\"C2\",\"C\",\"110\"
\"\",\"\",\"approach-retreat\",\"114\",\"898957\",\"0.0-114.0\",\"\",\"\",\"3-1\",\"4939\",\"39\",\"1\",\"Training\",\"Stims/Figures/128-C-30-3.bmp\",\"va:shasha\",\"Left\",\"39\",\"7\",\"15\",\"3B\",\"C1\",\"C\",\"111\"
\"\",\"\",\"approach-retreat\",\"115\",\"904951\",\"0.0-115.0\",\"\",\"\",\"3-1\",\"4483\",\"40\",\"1\",\"Training\",\"Stims/Figures/87-J-10-4.bmp\",\"sa:saza\",\"Down\",\"40\",\"7\",\"16\",\"3B\",\"C2\",\"C\",\"112\"
\"\",\"\",\"approach-retreat\",\"116\",\"911034\",\"0.0-116.0\",\"\",\"\",\"3-1\",\"4572\",\"40\",\"1\",\"Training\",\"Stims/Figures/93-C-30-1.bmp\",\"va:shasha\",\"Up\",\"40\",\"8\",\"1\",\"3B\",\"C1\",\"C\",\"113\"
\"\",\"\",\"approach-retreat\",\"117\",\"916703\",\"0.0-117.0\",\"\",\"\",\"3-1\",\"4159\",\"37\",\"1\",\"Training\",\"Stims/Figures/74-C-20-4.bmp\",\"va:shasha\",\"Right\",\"37\",\"8\",\"2\",\"3B\",\"C1\",\"C\",\"114\"
\"\",\"\",\"approach-retreat\",\"118\",\"922754\",\"0.0-118.0\",\"\",\"\",\"3-1\",\"4537\",\"38\",\"1\",\"Training\",\"Stims/Figures/71-C-30-1.bmp\",\"va:shasha\",\"Down\",\"38\",\"8\",\"3\",\"3B\",\"C1\",\"C\",\"115\"
\"\",\"\",\"approach-retreat\",\"119\",\"928330\",\"0.0-119.0\",\"\",\"\",\"3-1\",\"4065\",\"37\",\"1\",\"Training\",\"Stims/Figures/139-J-0-2.bmp\",\"sa:saza\",\"Left\",\"37\",\"8\",\"4\",\"3B\",\"C2\",\"C\",\"116\"
\"\",\"\",\"approach-retreat\",\"120\",\"933790\",\"0.0-120.0\",\"\",\"\",\"3-1\",\"3950\",\"39\",\"1\",\"Training\",\"Stims/Figures/71-J-0-1.bmp\",\"sa:saza\",\"Right\",\"39\",\"8\",\"5\",\"3B\",\"C2\",\"C\",\"117\"
\"\",\"\",\"approach-retreat\",\"121\",\"939699\",\"0.0-121.0\",\"\",\"\",\"3-1\",\"4398\",\"40\",\"1\",\"Training\",\"Stims/Figures/128-C-30-3.bmp\",\"va:shasha\",\"Up\",\"40\",\"8\",\"6\",\"3B\",\"C1\",\"C\",\"118\"
\"\",\"\",\"approach-retreat\",\"122\",\"945226\",\"0.0-122.0\",\"\",\"\",\"3-1\",\"4016\",\"38\",\"1\",\"Training\",\"Stims/Figures/139-C-20-2.bmp\",\"va:shasha\",\"Down\",\"38\",\"8\",\"7\",\"3B\",\"C1\",\"C\",\"119\"
\"\",\"\",\"approach-retreat\",\"123\",\"950879\",\"0.0-123.0\",\"\",\"\",\"3-1\",\"4142\",\"40\",\"1\",\"Training\",\"Stims/Figures/118-J-0-2.bmp\",\"sa:saza\",\"Down\",\"40\",\"8\",\"8\",\"3B\",\"C2\",\"C\",\"120\"
\"\",\"\",\"approach-retreat\",\"124\",\"956982\",\"0.0-124.0\",\"\",\"\",\"3-1\",\"4589\",\"40\",\"1\",\"Training\",\"Stims/Figures/118-C-20-2.bmp\",\"va:shasha\",\"Up\",\"40\",\"8\",\"9\",\"3B\",\"C1\",\"C\",\"121\"
\"\",\"\",\"approach-retreat\",\"125\",\"962484\",\"0.0-125.0\",\"\",\"\",\"3-1\",\"3997\",\"39\",\"1\",\"Training\",\"Stims/Figures/128-J-10-3.bmp\",\"sa:saza\",\"Right\",\"39\",\"8\",\"10\",\"3B\",\"C2\",\"C\",\"122\"
\"\",\"\",\"approach-retreat\",\"126\",\"968196\",\"0.0-126.0\",\"\",\"\",\"3-1\",\"4201\",\"37\",\"1\",\"Training\",\"Stims/Figures/87-J-10-4.bmp\",\"sa:saza\",\"Left\",\"37\",\"8\",\"11\",\"3B\",\"C2\",\"C\",\"123\"
\"\",\"\",\"approach-retreat\",\"127\",\"974191\",\"0.0-127.0\",\"\",\"\",\"3-1\",\"4483\",\"37\",\"1\",\"Training\",\"Stims/Figures/93-J-0-1.bmp\",\"sa:saza\",\"Left\",\"37\",\"8\",\"12\",\"3B\",\"C2\",\"C\",\"124\"
\"\",\"\",\"approach-retreat\",\"128\",\"980386\",\"0.0-128.0\",\"\",\"\",\"3-1\",\"4684\",\"37\",\"1\",\"Training\",\"Stims/Figures/87-C-20-4.bmp\",\"va:shasha\",\"Right\",\"37\",\"8\",\"13\",\"3B\",\"C1\",\"C\",\"125\"
\"\",\"\",\"approach-retreat\",\"129\",\"986273\",\"0.0-129.0\",\"\",\"\",\"3-1\",\"4375\",\"38\",\"1\",\"Training\",\"Stims/Figures/44-C-30-3.bmp\",\"va:shasha\",\"Down\",\"38\",\"8\",\"14\",\"3B\",\"C1\",\"C\",\"126\"
\"\",\"\",\"approach-retreat\",\"130\",\"991958\",\"0.0-130.0\",\"\",\"\",\"3-1\",\"4173\",\"38\",\"1\",\"Training\",\"Stims/Figures/74-J-10-4.bmp\",\"sa:saza\",\"Up\",\"38\",\"8\",\"15\",\"3B\",\"C2\",\"C\",\"127\"
\"\",\"\",\"approach-retreat\",\"131\",\"997641\",\"0.0-131.0\",\"\",\"\",\"3-1\",\"4170\",\"37\",\"1\",\"Training\",\"Stims/Figures/44-J-10-3.bmp\",\"sa:saza\",\"Left\",\"37\",\"8\",\"16\",\"3B\",\"C2\",\"C\",\"128\"
\"\",\"\",\"approach-retreat\",\"132\",\"1003331\",\"0.0-132.0\",\"\",\"\",\"3-1\",\"4179\",\"40\",\"1\",\"Training\",\"Stims/Figures/118-J-0-2.bmp\",\"sa:saza\",\"Down\",\"40\",\"9\",\"1\",\"3B\",\"C2\",\"C\",\"129\"
\"\",\"\",\"approach-retreat\",\"133\",\"1009274\",\"0.0-133.0\",\"\",\"\",\"3-1\",\"4434\",\"37\",\"1\",\"Training\",\"Stims/Figures/71-J-0-1.bmp\",\"sa:saza\",\"Left\",\"37\",\"9\",\"2\",\"3B\",\"C2\",\"C\",\"130\"
\"\",\"\",\"approach-retreat\",\"134\",\"1015266\",\"0.0-134.0\",\"\",\"\",\"3-1\",\"4487\",\"37\",\"1\",\"Training\",\"Stims/Figures/87-C-20-4.bmp\",\"va:shasha\",\"Right\",\"37\",\"9\",\"3\",\"3B\",\"C1\",\"C\",\"131\"
\"\",\"\",\"approach-retreat\",\"135\",\"1021030\",\"0.0-135.0\",\"\",\"\",\"3-1\",\"4254\",\"40\",\"1\",\"Training\",\"Stims/Figures/139-C-20-2.bmp\",\"va:shasha\",\"Up\",\"40\",\"9\",\"4\",\"3B\",\"C1\",\"C\",\"132\"
\"\",\"\",\"approach-retreat\",\"136\",\"1027021\",\"0.0-136.0\",\"\",\"\",\"3-1\",\"4480\",\"40\",\"0\",\"Training\",\"Stims/Figures/128-J-10-3.bmp\",\"sa:saza\",\"Up\",\"38\",\"9\",\"5\",\"3B\",\"C2\",\"C\",\"133\"
\"\",\"\",\"approach-retreat\",\"137\",\"1033453\",\"0.0-137.0\",\"\",\"\",\"3-1\",\"4927\",\"40\",\"1\",\"Training\",\"Stims/Figures/71-C-30-1.bmp\",\"va:shasha\",\"Up\",\"40\",\"9\",\"6\",\"3B\",\"C1\",\"C\",\"134\"
\"\",\"\",\"approach-retreat\",\"138\",\"1040231\",\"0.0-138.0\",\"\",\"\",\"3-1\",\"5268\",\"37\",\"1\",\"Training\",\"Stims/Figures/44-J-10-3.bmp\",\"sa:saza\",\"Left\",\"37\",\"9\",\"7\",\"3B\",\"C2\",\"C\",\"135\"
\"\",\"\",\"approach-retreat\",\"139\",\"1046577\",\"0.0-139.0\",\"\",\"\",\"3-1\",\"4836\",\"39\",\"1\",\"Training\",\"Stims/Figures/87-J-10-4.bmp\",\"sa:saza\",\"Right\",\"39\",\"9\",\"8\",\"3B\",\"C2\",\"C\",\"136\"
\"\",\"\",\"approach-retreat\",\"140\",\"1053164\",\"0.0-140.0\",\"\",\"\",\"3-1\",\"5076\",\"38\",\"1\",\"Training\",\"Stims/Figures/74-C-20-4.bmp\",\"va:shasha\",\"Down\",\"38\",\"9\",\"9\",\"3B\",\"C1\",\"C\",\"137\"
\"\",\"\",\"approach-retreat\",\"141\",\"1059406\",\"0.0-141.0\",\"\",\"\",\"3-1\",\"4738\",\"39\",\"1\",\"Training\",\"Stims/Figures/139-J-0-2.bmp\",\"sa:saza\",\"Right\",\"39\",\"9\",\"10\",\"3B\",\"C2\",\"C\",\"138\"
\"\",\"\",\"approach-retreat\",\"142\",\"1065601\",\"0.0-142.0\",\"\",\"\",\"3-1\",\"4689\",\"38\",\"1\",\"Training\",\"Stims/Figures/93-J-0-1.bmp\",\"sa:saza\",\"Up\",\"38\",\"9\",\"11\",\"3B\",\"C2\",\"C\",\"139\"
\"\",\"\",\"approach-retreat\",\"143\",\"1071367\",\"0.0-143.0\",\"\",\"\",\"3-1\",\"4254\",\"39\",\"1\",\"Training\",\"Stims/Figures/93-C-30-1.bmp\",\"va:shasha\",\"Left\",\"39\",\"9\",\"12\",\"3B\",\"C1\",\"C\",\"140\"
\"\",\"\",\"approach-retreat\",\"144\",\"1077238\",\"0.0-144.0\",\"\",\"\",\"3-1\",\"4360\",\"37\",\"1\",\"Training\",\"Stims/Figures/128-C-30-3.bmp\",\"va:shasha\",\"Right\",\"37\",\"9\",\"13\",\"3B\",\"C1\",\"C\",\"141\"
\"\",\"\",\"approach-retreat\",\"145\",\"1083371\",\"0.0-145.0\",\"\",\"\",\"3-1\",\"4627\",\"39\",\"1\",\"Training\",\"Stims/Figures/118-C-20-2.bmp\",\"va:shasha\",\"Left\",\"39\",\"9\",\"14\",\"3B\",\"C1\",\"C\",\"142\"
\"\",\"\",\"approach-retreat\",\"146\",\"1089280\",\"0.0-146.0\",\"\",\"\",\"3-1\",\"4397\",\"38\",\"1\",\"Training\",\"Stims/Figures/44-C-30-3.bmp\",\"va:shasha\",\"Down\",\"38\",\"9\",\"15\",\"3B\",\"C1\",\"C\",\"143\"
\"\",\"\",\"approach-retreat\",\"147\",\"1095403\",\"0.0-147.0\",\"\",\"\",\"3-1\",\"4613\",\"40\",\"1\",\"Training\",\"Stims/Figures/74-J-10-4.bmp\",\"sa:saza\",\"Down\",\"40\",\"9\",\"16\",\"3B\",\"C2\",\"C\",\"144\"
\"43034\",\"\",\"instructions\",\"148\",\"1138437\",\"0.0-148.0\",\"[{\"\"page_index\"\":0,\"\"viewing_time\"\":43033}]\",\"\",\"\",\"\",\"\",\"\",\"\",\"\",\"\",\"\",\"\",\"\",\"\",\"\",\"\",\"\",\"\"
\"\",\"\",\"approach-retreat\",\"149\",\"1146477\",\"0.0-149.0\",\"\",\"\",\"3-1\",\"6531\",\"37\",\"1\",\"Testing\",\"Stims/Figures/128-J-10-3.bmp\",\"sa:saza\",\"Left\",\"37\",\"1\",\"1\",\"3B\",\"C2\",\"C\",\"1\"
\"\",\"\",\"approach-retreat\",\"150\",\"1152871\",\"0.0-150.0\",\"\",\"\",\"3-1\",\"4883\",\"38\",\"1\",\"Testing\",\"Stims/Figures/85-J-0-2.bmp\",\"sa:saza\",\"Up\",\"38\",\"1\",\"2\",\"3B\",\"C2\",\"C\",\"2\"
\"\",\"\",\"approach-retreat\",\"151\",\"1158891\",\"0.0-151.0\",\"\",\"\",\"3-1\",\"4510\",\"37\",\"1\",\"Testing\",\"Stims/Figures/19-J-10-4.bmp\",\"sa:saza\",\"Left\",\"37\",\"1\",\"3\",\"3B\",\"C2\",\"C\",\"3\"
\"\",\"\",\"approach-retreat\",\"152\",\"1164671\",\"0.0-152.0\",\"\",\"\",\"3-1\",\"4269\",\"40\",\"1\",\"Testing\",\"Stims/Figures/71-C-30-1.bmp\",\"va:shasha\",\"Up\",\"40\",\"1\",\"4\",\"3B\",\"C1\",\"C\",\"4\"
\"\",\"\",\"approach-retreat\",\"153\",\"1170399\",\"0.0-153.0\",\"\",\"\",\"3-1\",\"4219\",\"40\",\"1\",\"Testing\",\"Stims/Figures/85-C-20-2.bmp\",\"va:shasha\",\"Up\",\"40\",\"1\",\"5\",\"3B\",\"C1\",\"C\",\"5\"
\"\",\"\",\"approach-retreat\",\"154\",\"1176395\",\"0.0-154.0\",\"\",\"\",\"3-1\",\"4487\",\"38\",\"1\",\"Testing\",\"Stims/Figures/100-C-30-3.bmp\",\"va:shasha\",\"Down\",\"38\",\"1\",\"6\",\"3B\",\"C1\",\"C\",\"6\"
\"\",\"\",\"approach-retreat\",\"155\",\"1182165\",\"0.0-155.0\",\"\",\"\",\"3-1\",\"4261\",\"38\",\"1\",\"Testing\",\"Stims/Figures/27-J-0-1.bmp\",\"sa:saza\",\"Up\",\"38\",\"1\",\"7\",\"3B\",\"C2\",\"C\",\"7\"
\"\",\"\",\"approach-retreat\",\"156\",\"1187812\",\"0.0-156.0\",\"\",\"\",\"3-1\",\"4138\",\"39\",\"1\",\"Testing\",\"Stims/Figures/71-J-0-1.bmp\",\"sa:saza\",\"Right\",\"39\",\"1\",\"8\",\"3B\",\"C2\",\"C\",\"8\"
\"\",\"\",\"approach-retreat\",\"157\",\"1195092\",\"0.0-157.0\",\"\",\"\",\"3-1\",\"5771\",\"39\",\"0\",\"Testing\",\"Stims/Figures/128-C-30-3.bmp\",\"va:shasha\",\"Right\",\"37\",\"1\",\"9\",\"3B\",\"C1\",\"C\",\"9\"
\"\",\"\",\"approach-retreat\",\"158\",\"1200759\",\"0.0-158.0\",\"\",\"\",\"3-1\",\"4155\",\"38\",\"1\",\"Testing\",\"Stims/Figures/118-J-0-2.bmp\",\"sa:saza\",\"Up\",\"38\",\"1\",\"10\",\"3B\",\"C2\",\"C\",\"10\"
\"\",\"\",\"approach-retreat\",\"159\",\"1206751\",\"0.0-159.0\",\"\",\"\",\"3-1\",\"4483\",\"40\",\"1\",\"Testing\",\"Stims/Figures/74-J-10-4.bmp\",\"sa:saza\",\"Down\",\"40\",\"1\",\"11\",\"3B\",\"C2\",\"C\",\"11\"
\"\",\"\",\"approach-retreat\",\"160\",\"1212757\",\"0.0-160.0\",\"\",\"\",\"3-1\",\"4497\",\"38\",\"0\",\"Testing\",\"Stims/Figures/44-J-10-3.bmp\",\"sa:saza\",\"Down\",\"40\",\"1\",\"12\",\"3B\",\"C2\",\"C\",\"12\"
\"\",\"\",\"approach-retreat\",\"161\",\"1218499\",\"0.0-161.0\",\"\",\"\",\"3-1\",\"4235\",\"39\",\"1\",\"Testing\",\"Stims/Figures/19-C-20-4.bmp\",\"va:shasha\",\"Left\",\"39\",\"1\",\"13\",\"3B\",\"C1\",\"C\",\"13\"
\"\",\"\",\"approach-retreat\",\"162\",\"1224290\",\"0.0-162.0\",\"\",\"\",\"3-1\",\"4282\",\"40\",\"1\",\"Testing\",\"Stims/Figures/87-J-10-4.bmp\",\"sa:saza\",\"Down\",\"40\",\"1\",\"14\",\"3B\",\"C2\",\"C\",\"14\"
\"\",\"\",\"approach-retreat\",\"163\",\"1230203\",\"0.0-163.0\",\"\",\"\",\"3-1\",\"4402\",\"37\",\"1\",\"Testing\",\"Stims/Figures/44-C-30-3.bmp\",\"va:shasha\",\"Right\",\"37\",\"1\",\"15\",\"3B\",\"C1\",\"C\",\"15\"
\"\",\"\",\"approach-retreat\",\"164\",\"1236078\",\"0.0-164.0\",\"\",\"\",\"3-1\",\"4366\",\"37\",\"1\",\"Testing\",\"Stims/Figures/87-C-20-4.bmp\",\"va:shasha\",\"Right\",\"37\",\"1\",\"16\",\"3B\",\"C1\",\"C\",\"16\"
\"\",\"\",\"approach-retreat\",\"165\",\"1241606\",\"0.0-165.0\",\"\",\"\",\"3-1\",\"4013\",\"39\",\"1\",\"Testing\",\"Stims/Figures/139-J-0-2.bmp\",\"sa:saza\",\"Right\",\"39\",\"1\",\"17\",\"3B\",\"C2\",\"C\",\"17\"
\"\",\"\",\"approach-retreat\",\"166\",\"1247406\",\"0.0-166.0\",\"\",\"\",\"3-1\",\"4284\",\"38\",\"1\",\"Testing\",\"Stims/Figures/93-C-30-1.bmp\",\"va:shasha\",\"Down\",\"38\",\"1\",\"18\",\"3B\",\"C1\",\"C\",\"18\"
\"\",\"\",\"approach-retreat\",\"167\",\"1253888\",\"0.0-167.0\",\"\",\"\",\"3-1\",\"4965\",\"40\",\"1\",\"Testing\",\"Stims/Figures/93-J-0-1.bmp\",\"sa:saza\",\"Down\",\"40\",\"1\",\"19\",\"3B\",\"C2\",\"C\",\"19\"
\"\",\"\",\"approach-retreat\",\"168\",\"1260517\",\"0.0-168.0\",\"\",\"\",\"3-1\",\"5121\",\"37\",\"0\",\"Testing\",\"Stims/Figures/139-C-20-2.bmp\",\"va:shasha\",\"Left\",\"39\",\"1\",\"20\",\"3B\",\"C1\",\"C\",\"20\"
\"\",\"\",\"approach-retreat\",\"169\",\"1267169\",\"0.0-169.0\",\"\",\"\",\"3-1\",\"5139\",\"39\",\"1\",\"Testing\",\"Stims/Figures/74-C-20-4.bmp\",\"va:shasha\",\"Left\",\"39\",\"1\",\"21\",\"3B\",\"C1\",\"C\",\"21\"
\"\",\"\",\"approach-retreat\",\"170\",\"1273484\",\"0.0-170.0\",\"\",\"\",\"3-1\",\"4807\",\"37\",\"1\",\"Testing\",\"Stims/Figures/27-C-30-1.bmp\",\"va:shasha\",\"Right\",\"37\",\"1\",\"22\",\"3B\",\"C1\",\"C\",\"22\"
\"\",\"\",\"approach-retreat\",\"171\",\"1279549\",\"0.0-171.0\",\"\",\"\",\"3-1\",\"4555\",\"39\",\"1\",\"Testing\",\"Stims/Figures/118-C-20-2.bmp\",\"va:shasha\",\"Left\",\"39\",\"1\",\"23\",\"3B\",\"C1\",\"C\",\"23\"
\"\",\"\",\"approach-retreat\",\"172\",\"1286483\",\"0.0-172.0\",\"\",\"\",\"3-1\",\"5424\",\"38\",\"1\",\"Testing\",\"Stims/Figures/100-J-10-3.bmp\",\"sa:saza\",\"Up\",\"38\",\"1\",\"24\",\"3B\",\"C2\",\"C\",\"24\"
\"\",\"\",\"approach-retreat\",\"173\",\"1293351\",\"0.0-173.0\",\"\",\"\",\"3-1\",\"5360\",\"40\",\"1\",\"Testing\",\"Stims/Figures/85-J-0-2.bmp\",\"sa:saza\",\"Down\",\"40\",\"2\",\"1\",\"3B\",\"C2\",\"C\",\"25\"
\"\",\"\",\"approach-retreat\",\"174\",\"1299294\",\"0.0-174.0\",\"\",\"\",\"3-1\",\"4433\",\"39\",\"1\",\"Testing\",\"Stims/Figures/71-J-0-1.bmp\",\"sa:saza\",\"Right\",\"39\",\"2\",\"2\",\"3B\",\"C2\",\"C\",\"26\"
\"\",\"\",\"approach-retreat\",\"175\",\"1305224\",\"0.0-175.0\",\"\",\"\",\"3-1\",\"4421\",\"37\",\"0\",\"Testing\",\"Stims/Figures/139-C-20-2.bmp\",\"va:shasha\",\"Left\",\"39\",\"2\",\"3\",\"3B\",\"C1\",\"C\",\"27\"
\"\",\"\",\"approach-retreat\",\"176\",\"1310931\",\"0.0-176.0\",\"\",\"\",\"3-1\",\"4196\",\"37\",\"1\",\"Testing\",\"Stims/Figures/44-C-30-3.bmp\",\"va:shasha\",\"Right\",\"37\",\"2\",\"4\",\"3B\",\"C1\",\"C\",\"28\"
\"\",\"\",\"approach-retreat\",\"177\",\"1316845\",\"0.0-177.0\",\"\",\"\",\"3-1\",\"4404\",\"40\",\"1\",\"Testing\",\"Stims/Figures/100-C-30-3.bmp\",\"va:shasha\",\"Up\",\"40\",\"2\",\"5\",\"3B\",\"C1\",\"C\",\"29\"
\"\",\"\",\"approach-retreat\",\"178\",\"1323358\",\"0.0-178.0\",\"\",\"\",\"3-1\",\"5003\",\"37\",\"0\",\"Testing\",\"Stims/Figures/128-C-30-3.bmp\",\"va:shasha\",\"Left\",\"39\",\"2\",\"6\",\"3B\",\"C1\",\"C\",\"30\"
\"\",\"\",\"approach-retreat\",\"179\",\"1329273\",\"0.0-179.0\",\"\",\"\",\"3-1\",\"4405\",\"40\",\"0\",\"Testing\",\"Stims/Figures/71-C-30-1.bmp\",\"va:shasha\",\"Down\",\"38\",\"2\",\"7\",\"3B\",\"C1\",\"C\",\"31\"
\"\",\"\",\"approach-retreat\",\"180\",\"1335486\",\"0.0-180.0\",\"\",\"\",\"3-1\",\"4704\",\"40\",\"1\",\"Testing\",\"Stims/Figures/85-C-20-2.bmp\",\"va:shasha\",\"Up\",\"40\",\"2\",\"8\",\"3B\",\"C1\",\"C\",\"32\"
\"\",\"\",\"approach-retreat\",\"181\",\"1342363\",\"0.0-181.0\",\"\",\"\",\"3-1\",\"5369\",\"38\",\"1\",\"Testing\",\"Stims/Figures/19-C-20-4.bmp\",\"va:shasha\",\"Down\",\"38\",\"2\",\"9\",\"3B\",\"C1\",\"C\",\"33\"
\"\",\"\",\"approach-retreat\",\"182\",\"1349518\",\"0.0-182.0\",\"\",\"\",\"3-1\",\"5643\",\"38\",\"1\",\"Testing\",\"Stims/Figures/27-C-30-1.bmp\",\"va:shasha\",\"Down\",\"38\",\"2\",\"10\",\"3B\",\"C1\",\"C\",\"34\"
\"\",\"\",\"approach-retreat\",\"183\",\"1355098\",\"0.0-183.0\",\"\",\"\",\"3-1\",\"4071\",\"40\",\"1\",\"Testing\",\"Stims/Figures/74-J-10-4.bmp\",\"sa:saza\",\"Down\",\"40\",\"2\",\"11\",\"3B\",\"C2\",\"C\",\"35\"
\"\",\"\",\"approach-retreat\",\"184\",\"1361862\",\"0.0-184.0\",\"\",\"\",\"3-1\",\"5256\",\"37\",\"1\",\"Testing\",\"Stims/Figures/93-J-0-1.bmp\",\"sa:saza\",\"Left\",\"37\",\"2\",\"12\",\"3B\",\"C2\",\"C\",\"36\"
\"\",\"\",\"approach-retreat\",\"185\",\"1370941\",\"0.0-185.0\",\"\",\"\",\"3-1\",\"7571\",\"37\",\"1\",\"Testing\",\"Stims/Figures/128-J-10-3.bmp\",\"sa:saza\",\"Left\",\"37\",\"2\",\"13\",\"3B\",\"C2\",\"C\",\"37\"
\"\",\"\",\"approach-retreat\",\"186\",\"1377801\",\"0.0-186.0\",\"\",\"\",\"3-1\",\"5350\",\"40\",\"1\",\"Testing\",\"Stims/Figures/93-C-30-1.bmp\",\"va:shasha\",\"Up\",\"40\",\"2\",\"14\",\"3B\",\"C1\",\"C\",\"38\"
\"\",\"\",\"approach-retreat\",\"187\",\"1383798\",\"0.0-187.0\",\"\",\"\",\"3-1\",\"4488\",\"37\",\"0\",\"Testing\",\"Stims/Figures/19-J-10-4.bmp\",\"sa:saza\",\"Right\",\"39\",\"2\",\"15\",\"3B\",\"C2\",\"C\",\"39\"
\"\",\"\",\"approach-retreat\",\"188\",\"1389607\",\"0.0-188.0\",\"\",\"\",\"3-1\",\"4301\",\"37\",\"1\",\"Testing\",\"Stims/Figures/139-J-0-2.bmp\",\"sa:saza\",\"Left\",\"37\",\"2\",\"16\",\"3B\",\"C2\",\"C\",\"40\"
\"\",\"\",\"approach-retreat\",\"189\",\"1395948\",\"0.0-189.0\",\"\",\"\",\"3-1\",\"4832\",\"38\",\"1\",\"Testing\",\"Stims/Figures/44-J-10-3.bmp\",\"sa:saza\",\"Up\",\"38\",\"2\",\"17\",\"3B\",\"C2\",\"C\",\"41\"
\"\",\"\",\"approach-retreat\",\"190\",\"1402271\",\"0.0-190.0\",\"\",\"\",\"3-1\",\"4820\",\"39\",\"0\",\"Testing\",\"Stims/Figures/118-C-20-2.bmp\",\"va:shasha\",\"Right\",\"37\",\"2\",\"18\",\"3B\",\"C1\",\"C\",\"42\"
\"\",\"\",\"approach-retreat\",\"191\",\"1408306\",\"0.0-191.0\",\"\",\"\",\"3-1\",\"4531\",\"37\",\"1\",\"Testing\",\"Stims/Figures/27-J-0-1.bmp\",\"sa:saza\",\"Left\",\"37\",\"2\",\"19\",\"3B\",\"C2\",\"C\",\"43\"
\"\",\"\",\"approach-retreat\",\"192\",\"1414244\",\"0.0-192.0\",\"\",\"\",\"3-1\",\"4429\",\"40\",\"1\",\"Testing\",\"Stims/Figures/118-J-0-2.bmp\",\"sa:saza\",\"Down\",\"40\",\"2\",\"20\",\"3B\",\"C2\",\"C\",\"44\"
\"\",\"\",\"approach-retreat\",\"193\",\"1420826\",\"0.0-193.0\",\"\",\"\",\"3-1\",\"5072\",\"38\",\"0\",\"Testing\",\"Stims/Figures/74-C-20-4.bmp\",\"va:shasha\",\"Up\",\"40\",\"2\",\"21\",\"3B\",\"C1\",\"C\",\"45\"
\"\",\"\",\"approach-retreat\",\"194\",\"1427036\",\"0.0-194.0\",\"\",\"\",\"3-1\",\"4703\",\"39\",\"1\",\"Testing\",\"Stims/Figures/87-J-10-4.bmp\",\"sa:saza\",\"Right\",\"39\",\"2\",\"22\",\"3B\",\"C2\",\"C\",\"46\"
\"\",\"\",\"approach-retreat\",\"195\",\"1432735\",\"0.0-195.0\",\"\",\"\",\"3-1\",\"4188\",\"39\",\"1\",\"Testing\",\"Stims/Figures/100-J-10-3.bmp\",\"sa:saza\",\"Right\",\"39\",\"2\",\"23\",\"3B\",\"C2\",\"C\",\"47\"
\"\",\"\",\"approach-retreat\",\"196\",\"1438453\",\"0.0-196.0\",\"\",\"\",\"3-1\",\"4208\",\"40\",\"1\",\"Testing\",\"Stims/Figures/87-C-20-4.bmp\",\"va:shasha\",\"Up\",\"40\",\"2\",\"24\",\"3B\",\"C1\",\"C\",\"48\"
\"\",\"\",\"approach-retreat\",\"197\",\"1444239\",\"0.0-197.0\",\"\",\"\",\"3-1\",\"4276\",\"40\",\"0\",\"Testing\",\"Stims/Figures/139-C-20-2.bmp\",\"va:shasha\",\"Down\",\"38\",\"3\",\"1\",\"3B\",\"C1\",\"C\",\"49\"
\"\",\"\",\"approach-retreat\",\"198\",\"1450113\",\"0.0-198.0\",\"\",\"\",\"3-1\",\"4366\",\"38\",\"1\",\"Testing\",\"Stims/Figures/87-C-20-4.bmp\",\"va:shasha\",\"Down\",\"38\",\"3\",\"2\",\"3B\",\"C1\",\"C\",\"50\"
\"\",\"\",\"approach-retreat\",\"199\",\"1456722\",\"0.0-199.0\",\"\",\"\",\"3-1\",\"5100\",\"39\",\"1\",\"Testing\",\"Stims/Figures/93-J-0-1.bmp\",\"sa:saza\",\"Right\",\"39\",\"3\",\"3\",\"3B\",\"C2\",\"C\",\"51\"
\"\",\"\",\"approach-retreat\",\"200\",\"1462883\",\"0.0-200.0\",\"\",\"\",\"3-1\",\"4656\",\"40\",\"1\",\"Testing\",\"Stims/Figures/44-C-30-3.bmp\",\"va:shasha\",\"Up\",\"40\",\"3\",\"4\",\"3B\",\"C1\",\"C\",\"52\"
\"\",\"\",\"approach-retreat\",\"201\",\"1468756\",\"0.0-201.0\",\"\",\"\",\"3-1\",\"4365\",\"39\",\"1\",\"Testing\",\"Stims/Figures/27-J-0-1.bmp\",\"sa:saza\",\"Right\",\"39\",\"3\",\"5\",\"3B\",\"C2\",\"C\",\"53\"
\"\",\"\",\"approach-retreat\",\"202\",\"1476066\",\"0.0-202.0\",\"\",\"\",\"3-1\",\"5800\",\"37\",\"1\",\"Testing\",\"Stims/Figures/118-J-0-2.bmp\",\"sa:saza\",\"Left\",\"37\",\"3\",\"6\",\"3B\",\"C2\",\"C\",\"54\"
\"\",\"\",\"approach-retreat\",\"203\",\"1483131\",\"0.0-203.0\",\"\",\"\",\"3-1\",\"5558\",\"37\",\"1\",\"Testing\",\"Stims/Figures/71-C-30-1.bmp\",\"va:shasha\",\"Right\",\"37\",\"3\",\"7\",\"3B\",\"C1\",\"C\",\"55\"
\"\",\"\",\"approach-retreat\",\"204\",\"1490451\",\"0.0-204.0\",\"\",\"\",\"3-1\",\"5813\",\"38\",\"0\",\"Testing\",\"Stims/Figures/74-C-20-4.bmp\",\"va:shasha\",\"Up\",\"40\",\"3\",\"8\",\"3B\",\"C1\",\"C\",\"56\"
\"\",\"\",\"approach-retreat\",\"205\",\"1496158\",\"0.0-205.0\",\"\",\"\",\"3-1\",\"4197\",\"39\",\"1\",\"Testing\",\"Stims/Figures/19-J-10-4.bmp\",\"sa:saza\",\"Right\",\"39\",\"3\",\"9\",\"3B\",\"C2\",\"C\",\"57\"
\"\",\"\",\"approach-retreat\",\"206\",\"1505557\",\"0.0-206.0\",\"\",\"\",\"3-1\",\"7889\",\"39\",\"1\",\"Testing\",\"Stims/Figures/74-J-10-4.bmp\",\"sa:saza\",\"Right\",\"39\",\"3\",\"10\",\"3B\",\"C2\",\"C\",\"58\"
\"\",\"\",\"approach-retreat\",\"207\",\"1511921\",\"0.0-207.0\",\"\",\"\",\"3-1\",\"4857\",\"40\",\"1\",\"Testing\",\"Stims/Figures/44-J-10-3.bmp\",\"sa:saza\",\"Down\",\"40\",\"3\",\"11\",\"3B\",\"C2\",\"C\",\"59\"
\"\",\"\",\"approach-retreat\",\"208\",\"1519409\",\"0.0-208.0\",\"\",\"\",\"3-1\",\"5977\",\"38\",\"1\",\"Testing\",\"Stims/Figures/100-J-10-3.bmp\",\"sa:saza\",\"Up\",\"38\",\"3\",\"12\",\"3B\",\"C2\",\"C\",\"60\"
\"\",\"\",\"approach-retreat\",\"209\",\"1527469\",\"0.0-209.0\",\"\",\"\",\"3-1\",\"6551\",\"40\",\"1\",\"Testing\",\"Stims/Figures/71-J-0-1.bmp\",\"sa:saza\",\"Down\",\"40\",\"3\",\"13\",\"3B\",\"C2\",\"C\",\"61\"
\"\",\"\",\"approach-retreat\",\"210\",\"1536124\",\"0.0-210.0\",\"\",\"\",\"3-1\",\"7147\",\"40\",\"1\",\"Testing\",\"Stims/Figures/128-C-30-3.bmp\",\"va:shasha\",\"Up\",\"40\",\"3\",\"14\",\"3B\",\"C1\",\"C\",\"62\"
\"\",\"\",\"approach-retreat\",\"211\",\"1542142\",\"0.0-211.0\",\"\",\"\",\"3-1\",\"4513\",\"37\",\"1\",\"Testing\",\"Stims/Figures/85-J-0-2.bmp\",\"sa:saza\",\"Left\",\"37\",\"3\",\"15\",\"3B\",\"C2\",\"C\",\"63\"
\"\",\"\",\"approach-retreat\",\"212\",\"1549156\",\"0.0-212.0\",\"\",\"\",\"3-1\",\"5503\",\"39\",\"1\",\"Testing\",\"Stims/Figures/128-J-10-3.bmp\",\"sa:saza\",\"Right\",\"39\",\"3\",\"16\",\"3B\",\"C2\",\"C\",\"64\"
\"\",\"\",\"approach-retreat\",\"213\",\"1555676\",\"0.0-213.0\",\"\",\"\",\"3-1\",\"5010\",\"39\",\"1\",\"Testing\",\"Stims/Figures/93-C-30-1.bmp\",\"va:shasha\",\"Left\",\"39\",\"3\",\"17\",\"3B\",\"C1\",\"C\",\"65\"
\"\",\"\",\"approach-retreat\",\"214\",\"1562609\",\"0.0-214.0\",\"\",\"\",\"3-1\",\"5423\",\"39\",\"1\",\"Testing\",\"Stims/Figures/118-C-20-2.bmp\",\"va:shasha\",\"Left\",\"39\",\"3\",\"18\",\"3B\",\"C1\",\"C\",\"66\"
\"\",\"\",\"approach-retreat\",\"215\",\"1569094\",\"0.0-215.0\",\"\",\"\",\"3-1\",\"4976\",\"38\",\"1\",\"Testing\",\"Stims/Figures/139-J-0-2.bmp\",\"sa:saza\",\"Up\",\"38\",\"3\",\"19\",\"3B\",\"C2\",\"C\",\"67\"
\"\",\"\",\"approach-retreat\",\"216\",\"1578352\",\"0.0-216.0\",\"\",\"\",\"3-1\",\"7748\",\"39\",\"1\",\"Testing\",\"Stims/Figures/27-C-30-1.bmp\",\"va:shasha\",\"Left\",\"39\",\"3\",\"20\",\"3B\",\"C1\",\"C\",\"68\"
\"\",\"\",\"approach-retreat\",\"217\",\"1584266\",\"0.0-217.0\",\"\",\"\",\"3-1\",\"4407\",\"38\",\"0\",\"Testing\",\"Stims/Figures/87-J-10-4.bmp\",\"sa:saza\",\"Down\",\"40\",\"3\",\"21\",\"3B\",\"C2\",\"C\",\"69\"
\"\",\"\",\"approach-retreat\",\"218\",\"1590310\",\"0.0-218.0\",\"\",\"\",\"3-1\",\"4533\",\"38\",\"1\",\"Testing\",\"Stims/Figures/19-C-20-4.bmp\",\"va:shasha\",\"Down\",\"38\",\"3\",\"22\",\"3B\",\"C1\",\"C\",\"70\"
\"\",\"\",\"approach-retreat\",\"219\",\"1596443\",\"0.0-219.0\",\"\",\"\",\"3-1\",\"4624\",\"40\",\"1\",\"Testing\",\"Stims/Figures/85-C-20-2.bmp\",\"va:shasha\",\"Up\",\"40\",\"3\",\"23\",\"3B\",\"C1\",\"C\",\"71\"
\"\",\"\",\"approach-retreat\",\"220\",\"1602336\",\"0.0-220.0\",\"\",\"\",\"3-1\",\"4384\",\"39\",\"1\",\"Testing\",\"Stims/Figures/100-C-30-3.bmp\",\"va:shasha\",\"Left\",\"39\",\"3\",\"24\",\"3B\",\"C1\",\"C\",\"72\"
\"\",\"\",\"approach-retreat\",\"221\",\"1608789\",\"0.0-221.0\",\"\",\"\",\"3-1\",\"4942\",\"40\",\"1\",\"Testing\",\"Stims/Figures/44-J-10-3.bmp\",\"sa:saza\",\"Down\",\"40\",\"4\",\"1\",\"3B\",\"C2\",\"C\",\"73\"
\"\",\"\",\"approach-retreat\",\"222\",\"1615063\",\"0.0-222.0\",\"\",\"\",\"3-1\",\"4765\",\"38\",\"1\",\"Testing\",\"Stims/Figures/27-C-30-1.bmp\",\"va:shasha\",\"Down\",\"38\",\"4\",\"2\",\"3B\",\"C1\",\"C\",\"74\"
\"\",\"\",\"approach-retreat\",\"223\",\"1621690\",\"0.0-223.0\",\"\",\"\",\"3-1\",\"5116\",\"39\",\"1\",\"Testing\",\"Stims/Figures/71-C-30-1.bmp\",\"va:shasha\",\"Left\",\"39\",\"4\",\"3\",\"3B\",\"C1\",\"C\",\"75\"
\"\",\"\",\"approach-retreat\",\"224\",\"1627543\",\"0.0-224.0\",\"\",\"\",\"3-1\",\"4344\",\"40\",\"1\",\"Testing\",\"Stims/Figures/93-J-0-1.bmp\",\"sa:saza\",\"Down\",\"40\",\"4\",\"4\",\"3B\",\"C2\",\"C\",\"76\"
\"\",\"\",\"approach-retreat\",\"225\",\"1633484\",\"0.0-225.0\",\"\",\"\",\"3-1\",\"4432\",\"37\",\"1\",\"Testing\",\"Stims/Figures/118-C-20-2.bmp\",\"va:shasha\",\"Right\",\"37\",\"4\",\"5\",\"3B\",\"C1\",\"C\",\"77\"
\"\",\"\",\"approach-retreat\",\"226\",\"1642317\",\"0.0-226.0\",\"\",\"\",\"3-1\",\"7324\",\"40\",\"0\",\"Testing\",\"Stims/Figures/87-J-10-4.bmp\",\"sa:saza\",\"Up\",\"38\",\"4\",\"6\",\"3B\",\"C2\",\"C\",\"78\"
\"\",\"\",\"approach-retreat\",\"227\",\"1647951\",\"0.0-227.0\",\"\",\"\",\"3-1\",\"4125\",\"37\",\"1\",\"Testing\",\"Stims/Figures/93-C-30-1.bmp\",\"va:shasha\",\"Right\",\"37\",\"4\",\"7\",\"3B\",\"C1\",\"C\",\"79\"
\"\",\"\",\"approach-retreat\",\"228\",\"1655943\",\"0.0-228.0\",\"\",\"\",\"3-1\",\"6482\",\"38\",\"1\",\"Testing\",\"Stims/Figures/85-C-20-2.bmp\",\"va:shasha\",\"Down\",\"38\",\"4\",\"8\",\"3B\",\"C1\",\"C\",\"80\"
\"\",\"\",\"approach-retreat\",\"229\",\"1662014\",\"0.0-229.0\",\"\",\"\",\"3-1\",\"4561\",\"37\",\"1\",\"Testing\",\"Stims/Figures/128-C-30-3.bmp\",\"va:shasha\",\"Right\",\"37\",\"4\",\"9\",\"3B\",\"C1\",\"C\",\"81\"
\"\",\"\",\"approach-retreat\",\"230\",\"1667738\",\"0.0-230.0\",\"\",\"\",\"3-1\",\"4214\",\"37\",\"1\",\"Testing\",\"Stims/Figures/100-J-10-3.bmp\",\"sa:saza\",\"Left\",\"37\",\"4\",\"10\",\"3B\",\"C2\",\"C\",\"82\"
\"\",\"\",\"approach-retreat\",\"231\",\"1675621\",\"0.0-231.0\",\"\",\"\",\"3-1\",\"6372\",\"37\",\"1\",\"Testing\",\"Stims/Figures/118-J-0-2.bmp\",\"sa:saza\",\"Left\",\"37\",\"4\",\"11\",\"3B\",\"C2\",\"C\",\"83\"
\"\",\"\",\"approach-retreat\",\"232\",\"1682942\",\"0.0-232.0\",\"\",\"\",\"3-1\",\"5809\",\"37\",\"1\",\"Testing\",\"Stims/Figures/128-J-10-3.bmp\",\"sa:saza\",\"Left\",\"37\",\"4\",\"12\",\"3B\",\"C2\",\"C\",\"84\"
\"\",\"\",\"approach-retreat\",\"233\",\"1689366\",\"0.0-233.0\",\"\",\"\",\"3-1\",\"4915\",\"37\",\"1\",\"Testing\",\"Stims/Figures/19-C-20-4.bmp\",\"va:shasha\",\"Right\",\"37\",\"4\",\"13\",\"3B\",\"C1\",\"C\",\"85\"
\"\",\"\",\"approach-retreat\",\"234\",\"1696147\",\"0.0-234.0\",\"\",\"\",\"3-1\",\"5270\",\"38\",\"1\",\"Testing\",\"Stims/Figures/87-C-20-4.bmp\",\"va:shasha\",\"Down\",\"38\",\"4\",\"14\",\"3B\",\"C1\",\"C\",\"86\"
\"\",\"\",\"approach-retreat\",\"235\",\"1706086\",\"0.0-235.0\",\"\",\"\",\"3-1\",\"8427\",\"39\",\"1\",\"Testing\",\"Stims/Figures/74-J-10-4.bmp\",\"sa:saza\",\"Right\",\"39\",\"4\",\"15\",\"3B\",\"C2\",\"C\",\"87\"
\"\",\"\",\"approach-retreat\",\"236\",\"1712102\",\"0.0-236.0\",\"\",\"\",\"3-1\",\"4507\",\"38\",\"1\",\"Testing\",\"Stims/Figures/71-J-0-1.bmp\",\"sa:saza\",\"Up\",\"38\",\"4\",\"16\",\"3B\",\"C2\",\"C\",\"88\"
\"\",\"\",\"approach-retreat\",\"237\",\"1718154\",\"0.0-237.0\",\"\",\"\",\"3-1\",\"4544\",\"38\",\"1\",\"Testing\",\"Stims/Figures/27-J-0-1.bmp\",\"sa:saza\",\"Up\",\"38\",\"4\",\"17\",\"3B\",\"C2\",\"C\",\"89\"
\"\",\"\",\"approach-retreat\",\"238\",\"1724037\",\"0.0-238.0\",\"\",\"\",\"3-1\",\"4379\",\"40\",\"1\",\"Testing\",\"Stims/Figures/19-J-10-4.bmp\",\"sa:saza\",\"Down\",\"40\",\"4\",\"18\",\"3B\",\"C2\",\"C\",\"90\"
\"\",\"\",\"approach-retreat\",\"239\",\"1731053\",\"0.0-239.0\",\"\",\"\",\"3-1\",\"5506\",\"37\",\"1\",\"Testing\",\"Stims/Figures/139-J-0-2.bmp\",\"sa:saza\",\"Left\",\"37\",\"4\",\"19\",\"3B\",\"C2\",\"C\",\"91\"
\"\",\"\",\"approach-retreat\",\"240\",\"1737253\",\"0.0-240.0\",\"\",\"\",\"3-1\",\"4691\",\"38\",\"0\",\"Testing\",\"Stims/Figures/139-C-20-2.bmp\",\"va:shasha\",\"Up\",\"40\",\"4\",\"20\",\"3B\",\"C1\",\"C\",\"92\"
\"\",\"\",\"approach-retreat\",\"241\",\"1744136\",\"0.0-241.0\",\"\",\"\",\"3-1\",\"5373\",\"38\",\"0\",\"Testing\",\"Stims/Figures/74-C-20-4.bmp\",\"va:shasha\",\"Up\",\"40\",\"4\",\"21\",\"3B\",\"C1\",\"C\",\"93\"
\"\",\"\",\"approach-retreat\",\"242\",\"1750536\",\"0.0-242.0\",\"\",\"\",\"3-1\",\"4891\",\"39\",\"1\",\"Testing\",\"Stims/Figures/44-C-30-3.bmp\",\"va:shasha\",\"Left\",\"39\",\"4\",\"22\",\"3B\",\"C1\",\"C\",\"94\"
\"\",\"\",\"approach-retreat\",\"243\",\"1756947\",\"0.0-243.0\",\"\",\"\",\"3-1\",\"4901\",\"37\",\"0\",\"Testing\",\"Stims/Figures/85-J-0-2.bmp\",\"sa:saza\",\"Right\",\"39\",\"4\",\"23\",\"3B\",\"C2\",\"C\",\"95\"
\"\",\"\",\"approach-retreat\",\"244\",\"1763003\",\"0.0-244.0\",\"\",\"\",\"3-1\",\"4546\",\"40\",\"1\",\"Testing\",\"Stims/Figures/100-C-30-3.bmp\",\"va:shasha\",\"Up\",\"40\",\"4\",\"24\",\"3B\",\"C1\",\"C\",\"96\"
\"38642\",\"\",\"survey-text\",\"245\",\"1801650\",\"0.0-245.0\",\"\",\"{\"\"Q0\"\":\"\"PS160003\"\"}\",\"\",\"\",\"\",\"\",\"\",\"\",\"\",\"\",\"\",\"\",\"\",\"\",\"\",\"\",\"\"
