"rt","key_press","trial_type","trial_index","time_elapsed","internal_node_id","view_history","responses","Id","Rt","ResKeyCode","ResCorr","TrialType2","Image","Label","Location","CorrectResponse","Block","BlockTrial","Condition","LabelType","Subcondition","trialNum"
"47560","32","text","0","47563","0.0-0.0-0.0","","","","","","","","","","","","","","","","",""
"41943","","instructions","1","89508","0.0-1.0","[{""page_index"":0,""viewing_time"":41941}]","","","","","","","","","","","","","","","",""
"22369","","survey-multi-choice","2","111995","0.0-2.0","","{""Q0"":""Da"",""Q1"":""Da"",""Q2"":""Da"",""Q3"":""Da"",""Q4"":""Da"",""Q5"":""Da""}","","","","","","","","","","","","","","",""
"","","bio","3","118140","0.0-3.0","","{""age"":""18"",""gender"":""f"",""specify"":""""}","","","","","","","","","","","","","","",""
"","","approach-retreat","4","125571","0.0-4.0","","","2-1","5741","37","1","Training","Stims/Figures/100-C-30-3.bmp","na:la:na","Right","37","1","1","1","S","C","1"
"","","approach-retreat","5","133156","0.0-5.0","","","2-1","6080","40","1","Training","Stims/Figures/19-C-20-4.bmp","na:la:na","Up","40","1","2","1","S","C","2"
"","","approach-retreat","6","140345","0.0-6.0","","","2-1","5680","40","0","Training","Stims/Figures/118-J-0-2.bmp","pakaka","Up","38","1","3","1","P","C","3"
"","","approach-retreat","7","146931","0.0-7.0","","","2-1","5075","40","1","Training","Stims/Figures/87-C-20-4.bmp","na:la:na","Up","40","1","4","1","S","C","4"
"","","approach-retreat","8","153742","0.0-8.0","","","2-1","5300","40","1","Training","Stims/Figures/100-J-10-3.bmp","pakaka","Down","40","1","5","1","P","C","5"
"","","approach-retreat","9","159847","0.0-9.0","","","2-1","4595","39","1","Training","Stims/Figures/144-C-30-3.bmp","na:la:na","Left","39","1","6","1","S","C","6"
"","","approach-retreat","10","166428","0.0-10.0","","","2-1","5074","39","1","Training","Stims/Figures/19-J-10-4.bmp","pakaka","Right","39","1","7","1","P","C","7"
"","","approach-retreat","11","173221","0.0-11.0","","","2-1","5282","38","1","Training","Stims/Figures/86-C-30-1.bmp","na:la:na","Down","38","1","8","1","S","C","8"
"","","approach-retreat","12","179418","0.0-12.0","","","2-1","4683","40","1","Training","Stims/Figures/87-J-10-4.bmp","pakaka","Down","40","1","9","1","P","C","9"
"","","approach-retreat","13","185949","0.0-13.0","","","2-1","5023","39","1","Training","Stims/Figures/144-J-10-3.bmp","pakaka","Right","39","1","10","1","P","C","10"
"","","approach-retreat","14","193893","0.0-14.0","","","2-1","6439","40","0","Training","Stims/Figures/94-J-0-2.bmp","pakaka","Up","38","1","11","1","P","C","11"
"","","approach-retreat","15","199954","0.0-15.0","","","2-1","4552","40","1","Training","Stims/Figures/86-J-0-1.bmp","pakaka","Down","40","1","12","1","P","C","12"
"","","approach-retreat","16","206212","0.0-16.0","","","2-1","4750","39","1","Training","Stims/Figures/93-C-30-1.bmp","na:la:na","Left","39","1","13","1","S","C","13"
"","","approach-retreat","17","212355","0.0-17.0","","","2-1","4637","37","1","Training","Stims/Figures/94-C-20-2.bmp","na:la:na","Right","37","1","14","1","S","C","14"
"","","approach-retreat","18","218241","0.0-18.0","","","2-1","4378","39","1","Training","Stims/Figures/118-C-20-2.bmp","na:la:na","Left","39","1","15","1","S","C","15"
"","","approach-retreat","19","224408","0.0-19.0","","","2-1","4657","37","1","Training","Stims/Figures/93-J-0-1.bmp","pakaka","Left","37","1","16","1","P","C","16"
"","","approach-retreat","20","231391","0.0-20.0","","","2-1","5471","40","1","Training","Stims/Figures/100-C-30-3.bmp","na:la:na","Up","40","2","1","1","S","C","17"
"","","approach-retreat","21","238144","0.0-21.0","","","2-1","5251","38","1","Training","Stims/Figures/118-J-0-2.bmp","pakaka","Up","38","2","2","1","P","C","18"
"","","approach-retreat","22","243935","0.0-22.0","","","2-1","4283","39","1","Training","Stims/Figures/19-C-20-4.bmp","na:la:na","Left","39","2","3","1","S","C","19"
"","","approach-retreat","23","249822","0.0-23.0","","","2-1","4375","37","1","Training","Stims/Figures/19-J-10-4.bmp","pakaka","Left","37","2","4","1","P","C","20"
"","","approach-retreat","24","255642","0.0-24.0","","","2-1","4304","37","1","Training","Stims/Figures/100-J-10-3.bmp","pakaka","Left","37","2","5","1","P","C","21"
"","","approach-retreat","25","262127","0.0-25.0","","","2-1","4978","39","1","Training","Stims/Figures/86-J-0-1.bmp","pakaka","Right","39","2","6","1","P","C","22"
"","","approach-retreat","26","268507","0.0-26.0","","","2-1","4871","38","1","Training","Stims/Figures/93-C-30-1.bmp","na:la:na","Down","38","2","7","1","S","C","23"
"","","approach-retreat","27","275403","0.0-27.0","","","2-1","5391","38","1","Training","Stims/Figures/94-J-0-2.bmp","pakaka","Up","38","2","8","1","P","C","24"
"","","approach-retreat","28","282403","0.0-28.0","","","2-1","5495","38","1","Training","Stims/Figures/118-C-20-2.bmp","na:la:na","Down","38","2","9","1","S","C","25"
"","","approach-retreat","29","288246","0.0-29.0","","","2-1","4332","39","1","Training","Stims/Figures/87-J-10-4.bmp","pakaka","Right","39","2","10","1","P","C","26"
"","","approach-retreat","30","295932","0.0-30.0","","","2-1","6183","38","0","Training","Stims/Figures/144-C-30-3.bmp","na:la:na","Up","40","2","11","1","S","C","27"
"","","approach-retreat","31","302321","0.0-31.0","","","2-1","4880","38","1","Training","Stims/Figures/86-C-30-1.bmp","na:la:na","Down","38","2","12","1","S","C","28"
"","","approach-retreat","32","308681","0.0-32.0","","","2-1","4849","39","1","Training","Stims/Figures/144-J-10-3.bmp","pakaka","Right","39","2","13","1","P","C","29"
"","","approach-retreat","33","314726","0.0-33.0","","","2-1","4537","39","1","Training","Stims/Figures/93-J-0-1.bmp","pakaka","Right","39","2","14","1","P","C","30"
"","","approach-retreat","34","321576","0.0-34.0","","","2-1","5341","38","1","Training","Stims/Figures/94-C-20-2.bmp","na:la:na","Down","38","2","15","1","S","C","31"
"","","approach-retreat","35","327712","0.0-35.0","","","2-1","4631","39","1","Training","Stims/Figures/87-C-20-4.bmp","na:la:na","Left","39","2","16","1","S","C","32"
"","","approach-retreat","36","334035","0.0-36.0","","","2-1","4812","38","1","Training","Stims/Figures/94-C-20-2.bmp","na:la:na","Down","38","3","1","1","S","C","33"
"","","approach-retreat","37","341673","0.0-37.0","","","2-1","6127","38","1","Training","Stims/Figures/100-J-10-3.bmp","pakaka","Up","38","3","2","1","P","C","34"
"","","approach-retreat","38","348564","0.0-38.0","","","2-1","5381","40","1","Training","Stims/Figures/19-J-10-4.bmp","pakaka","Down","40","3","3","1","P","C","35"
"","","approach-retreat","39","354953","0.0-39.0","","","2-1","4883","37","1","Training","Stims/Figures/86-C-30-1.bmp","na:la:na","Right","37","3","4","1","S","C","36"
"","","approach-retreat","40","361339","0.0-40.0","","","2-1","4880","39","1","Training","Stims/Figures/93-C-30-1.bmp","na:la:na","Left","39","3","5","1","S","C","37"
"","","approach-retreat","41","367824","0.0-41.0","","","2-1","4976","37","1","Training","Stims/Figures/93-J-0-1.bmp","pakaka","Left","37","3","6","1","P","C","38"
"","","approach-retreat","42","374624","0.0-42.0","","","2-1","5293","37","1","Training","Stims/Figures/19-C-20-4.bmp","na:la:na","Right","37","3","7","1","S","C","39"
"","","approach-retreat","43","380827","0.0-43.0","","","2-1","4695","37","1","Training","Stims/Figures/118-J-0-2.bmp","pakaka","Left","37","3","8","1","P","C","40"
"","","approach-retreat","44","387537","0.0-44.0","","","2-1","5202","39","1","Training","Stims/Figures/118-C-20-2.bmp","na:la:na","Left","39","3","9","1","S","C","41"
"","","approach-retreat","45","395010","0.0-45.0","","","2-1","5966","38","1","Training","Stims/Figures/87-J-10-4.bmp","pakaka","Up","38","3","10","1","P","C","42"
"","","approach-retreat","46","401718","0.0-46.0","","","2-1","5198","37","1","Training","Stims/Figures/144-C-30-3.bmp","na:la:na","Right","37","3","11","1","S","C","43"
"","","approach-retreat","47","408164","0.0-47.0","","","2-1","4935","38","1","Training","Stims/Figures/100-C-30-3.bmp","na:la:na","Down","38","3","12","1","S","C","44"
"","","approach-retreat","48","415342","0.0-48.0","","","2-1","5672","38","1","Training","Stims/Figures/94-J-0-2.bmp","pakaka","Up","38","3","13","1","P","C","45"
"","","approach-retreat","49","421625","0.0-49.0","","","2-1","4780","38","1","Training","Stims/Figures/144-J-10-3.bmp","pakaka","Up","38","3","14","1","P","C","46"
"","","approach-retreat","50","427978","0.0-50.0","","","2-1","4842","39","0","Training","Stims/Figures/87-C-20-4.bmp","na:la:na","Right","37","3","15","1","S","C","47"
"","","approach-retreat","51","434818","0.0-51.0","","","2-1","5335","40","1","Training","Stims/Figures/86-J-0-1.bmp","pakaka","Down","40","3","16","1","P","C","48"
"","","approach-retreat","52","440826","0.0-52.0","","","2-1","4495","39","1","Training","Stims/Figures/87-C-20-4.bmp","na:la:na","Left","39","4","1","1","S","C","49"
"","","approach-retreat","53","446884","0.0-53.0","","","2-1","4547","38","1","Training","Stims/Figures/86-J-0-1.bmp","pakaka","Up","38","4","2","1","P","C","50"
"","","approach-retreat","54","453539","0.0-54.0","","","2-1","5146","40","1","Training","Stims/Figures/87-J-10-4.bmp","pakaka","Down","40","4","3","1","P","C","51"
"","","approach-retreat","55","459232","0.0-55.0","","","2-1","4181","39","1","Training","Stims/Figures/94-C-20-2.bmp","na:la:na","Left","39","4","4","1","S","C","52"
"","","approach-retreat","56","465761","0.0-56.0","","","2-1","5024","37","1","Training","Stims/Figures/19-C-20-4.bmp","na:la:na","Right","37","4","5","1","S","C","53"
"","","approach-retreat","57","472435","0.0-57.0","","","2-1","5166","37","1","Training","Stims/Figures/144-C-30-3.bmp","na:la:na","Right","37","4","6","1","S","C","54"
"","","approach-retreat","58","478841","0.0-58.0","","","2-1","4896","38","1","Training","Stims/Figures/93-J-0-1.bmp","pakaka","Up","38","4","7","1","P","C","55"
"","","approach-retreat","59","484912","0.0-59.0","","","2-1","4564","39","1","Training","Stims/Figures/100-C-30-3.bmp","na:la:na","Left","39","4","8","1","S","C","56"
"","","approach-retreat","60","492177","0.0-60.0","","","2-1","5761","39","1","Training","Stims/Figures/94-J-0-2.bmp","pakaka","Right","39","4","9","1","P","C","57"
"","","approach-retreat","61","499789","0.0-61.0","","","2-1","6098","38","1","Training","Stims/Figures/144-J-10-3.bmp","pakaka","Up","38","4","10","1","P","C","58"
"","","approach-retreat","62","506141","0.0-62.0","","","2-1","4841","40","1","Training","Stims/Figures/100-J-10-3.bmp","pakaka","Down","40","4","11","1","P","C","59"
"","","approach-retreat","63","511976","0.0-63.0","","","2-1","4323","37","1","Training","Stims/Figures/118-J-0-2.bmp","pakaka","Left","37","4","12","1","P","C","60"
"","","approach-retreat","64","519331","0.0-64.0","","","2-1","5847","38","1","Training","Stims/Figures/118-C-20-2.bmp","na:la:na","Down","38","4","13","1","S","C","61"
"","","approach-retreat","65","525243","0.0-65.0","","","2-1","4401","40","1","Training","Stims/Figures/93-C-30-1.bmp","na:la:na","Up","40","4","14","1","S","C","62"
"","","approach-retreat","66","531864","0.0-66.0","","","2-1","5109","37","1","Training","Stims/Figures/86-C-30-1.bmp","na:la:na","Right","37","4","15","1","S","C","63"
"","","approach-retreat","67","538232","0.0-67.0","","","2-1","4861","40","1","Training","Stims/Figures/19-J-10-4.bmp","pakaka","Down","40","4","16","1","P","C","64"
"","","approach-retreat","68","544802","0.0-68.0","","","2-1","5063","39","1","Training","Stims/Figures/19-C-20-4.bmp","na:la:na","Left","39","5","1","1","S","C","65"
"","","approach-retreat","69","551034","0.0-69.0","","","2-1","4723","38","1","Training","Stims/Figures/118-J-0-2.bmp","pakaka","Up","38","5","2","1","P","C","66"
"","","approach-retreat","70","557650","0.0-70.0","","","2-1","5107","39","1","Training","Stims/Figures/86-J-0-1.bmp","pakaka","Right","39","5","3","1","P","C","67"
"","","approach-retreat","71","564294","0.0-71.0","","","2-1","5136","40","1","Training","Stims/Figures/86-C-30-1.bmp","na:la:na","Up","40","5","4","1","S","C","68"
"","","approach-retreat","72","571202","0.0-72.0","","","2-1","5400","38","1","Training","Stims/Figures/94-J-0-2.bmp","pakaka","Up","38","5","5","1","P","C","69"
"","","approach-retreat","73","577309","0.0-73.0","","","2-1","4596","40","1","Training","Stims/Figures/87-J-10-4.bmp","pakaka","Down","40","5","6","1","P","C","70"
"","","approach-retreat","74","588150","0.0-74.0","","","2-1","9333","38","1","Training","Stims/Figures/144-C-30-3.bmp","na:la:na","Down","38","5","7","1","S","C","71"
"","","approach-retreat","75","595812","0.0-75.0","","","2-1","6152","37","1","Training","Stims/Figures/93-C-30-1.bmp","na:la:na","Right","37","5","8","1","S","C","72"
"","","approach-retreat","76","601742","0.0-76.0","","","2-1","4424","37","1","Training","Stims/Figures/144-J-10-3.bmp","pakaka","Left","37","5","9","1","P","C","73"
"","","approach-retreat","77","607872","0.0-77.0","","","2-1","4626","38","1","Training","Stims/Figures/94-C-20-2.bmp","na:la:na","Down","38","5","10","1","S","C","74"
"","","approach-retreat","78","614948","0.0-78.0","","","2-1","5568","37","1","Training","Stims/Figures/118-C-20-2.bmp","na:la:na","Right","37","5","11","1","S","C","75"
"","","approach-retreat","79","621273","0.0-79.0","","","2-1","4819","38","1","Training","Stims/Figures/100-C-30-3.bmp","na:la:na","Down","38","5","12","1","S","C","76"
"","","approach-retreat","80","627033","0.0-80.0","","","2-1","4255","37","1","Training","Stims/Figures/100-J-10-3.bmp","pakaka","Left","37","5","13","1","P","C","77"
"","","approach-retreat","81","637418","0.0-81.0","","","2-1","8878","37","1","Training","Stims/Figures/93-J-0-1.bmp","pakaka","Left","37","5","14","1","P","C","78"
"","","approach-retreat","82","647092","0.0-82.0","","","2-1","8163","37","1","Training","Stims/Figures/87-C-20-4.bmp","na:la:na","Right","37","5","15","1","S","C","79"
"","","approach-retreat","83","655691","0.0-83.0","","","2-1","7090","38","1","Training","Stims/Figures/19-J-10-4.bmp","pakaka","Up","38","5","16","1","P","C","80"
"","","approach-retreat","84","661567","0.0-84.0","","","2-1","4370","39","1","Training","Stims/Figures/94-C-20-2.bmp","na:la:na","Left","39","6","1","1","S","C","81"
"","","approach-retreat","85","667616","0.0-85.0","","","2-1","4538","40","1","Training","Stims/Figures/100-C-30-3.bmp","na:la:na","Up","40","6","2","1","S","C","82"
"","","approach-retreat","86","673907","0.0-86.0","","","2-1","4781","40","1","Training","Stims/Figures/100-J-10-3.bmp","pakaka","Down","40","6","3","1","P","C","83"
"","","approach-retreat","87","680721","0.0-87.0","","","2-1","5303","37","1","Training","Stims/Figures/93-J-0-1.bmp","pakaka","Left","37","6","4","1","P","C","84"
"","","approach-retreat","88","688692","0.0-88.0","","","2-1","6464","39","1","Training","Stims/Figures/144-J-10-3.bmp","pakaka","Right","39","6","5","1","P","C","85"
"","","approach-retreat","89","698094","0.0-89.0","","","2-1","7894","40","1","Training","Stims/Figures/118-C-20-2.bmp","na:la:na","Up","40","6","6","1","S","C","86"
"","","approach-retreat","90","704929","0.0-90.0","","","2-1","5327","37","1","Training","Stims/Figures/19-C-20-4.bmp","na:la:na","Right","37","6","7","1","S","C","87"
"","","approach-retreat","91","711711","0.0-91.0","","","2-1","5275","38","1","Training","Stims/Figures/19-J-10-4.bmp","pakaka","Up","38","6","8","1","P","C","88"
"","","approach-retreat","92","718050","0.0-92.0","","","2-1","4829","40","1","Training","Stims/Figures/93-C-30-1.bmp","na:la:na","Up","40","6","9","1","S","C","89"
"","","approach-retreat","93","725264","0.0-93.0","","","2-1","5707","39","1","Training","Stims/Figures/87-C-20-4.bmp","na:la:na","Left","39","6","10","1","S","C","90"
"","","approach-retreat","94","733767","0.0-94.0","","","2-1","6993","39","1","Training","Stims/Figures/86-J-0-1.bmp","pakaka","Right","39","6","11","1","P","C","91"
"","","approach-retreat","95","741302","0.0-95.0","","","2-1","6027","37","1","Training","Stims/Figures/144-C-30-3.bmp","na:la:na","Right","37","6","12","1","S","C","92"
"","","approach-retreat","96","747204","0.0-96.0","","","2-1","4391","37","1","Training","Stims/Figures/87-J-10-4.bmp","pakaka","Left","37","6","13","1","P","C","93"
"","","approach-retreat","97","753083","0.0-97.0","","","2-1","4368","40","1","Training","Stims/Figures/94-J-0-2.bmp","pakaka","Down","40","6","14","1","P","C","94"
"","","approach-retreat","98","759185","0.0-98.0","","","2-1","4594","40","0","Training","Stims/Figures/86-C-30-1.bmp","na:la:na","Down","38","6","15","1","S","C","95"
"","","approach-retreat","99","765547","0.0-99.0","","","2-1","4852","40","1","Training","Stims/Figures/118-J-0-2.bmp","pakaka","Down","40","6","16","1","P","C","96"
"","","approach-retreat","100","771568","0.0-100.0","","","2-1","4517","37","1","Training","Stims/Figures/87-J-10-4.bmp","pakaka","Left","37","7","1","1","P","C","97"
"","","approach-retreat","101","777895","0.0-101.0","","","2-1","4820","40","1","Training","Stims/Figures/94-J-0-2.bmp","pakaka","Down","40","7","2","1","P","C","98"
"","","approach-retreat","102","783820","0.0-102.0","","","2-1","4414","37","1","Training","Stims/Figures/118-C-20-2.bmp","na:la:na","Right","37","7","3","1","S","C","99"
"","","approach-retreat","103","789673","0.0-103.0","","","2-1","4345","39","1","Training","Stims/Figures/144-J-10-3.bmp","pakaka","Right","39","7","4","1","P","C","100"
"","","approach-retreat","104","795842","0.0-104.0","","","2-1","4662","38","1","Training","Stims/Figures/87-C-20-4.bmp","na:la:na","Down","38","7","5","1","S","C","101"
"","","approach-retreat","105","801966","0.0-105.0","","","2-1","4613","38","1","Training","Stims/Figures/144-C-30-3.bmp","na:la:na","Down","38","7","6","1","S","C","102"
"","","approach-retreat","106","808451","0.0-106.0","","","2-1","4977","40","1","Training","Stims/Figures/93-C-30-1.bmp","na:la:na","Up","40","7","7","1","S","C","103"
"","","approach-retreat","107","814166","0.0-107.0","","","2-1","4210","40","1","Training","Stims/Figures/93-J-0-1.bmp","pakaka","Down","40","7","8","1","P","C","104"
"","","approach-retreat","108","820360","0.0-108.0","","","2-1","4684","37","1","Training","Stims/Figures/118-J-0-2.bmp","pakaka","Left","37","7","9","1","P","C","105"
"","","approach-retreat","109","827740","0.0-109.0","","","2-1","5876","37","1","Training","Stims/Figures/19-C-20-4.bmp","na:la:na","Right","37","7","10","1","S","C","106"
"","","approach-retreat","110","834056","0.0-110.0","","","2-1","4807","37","1","Training","Stims/Figures/86-C-30-1.bmp","na:la:na","Right","37","7","11","1","S","C","107"
"","","approach-retreat","111","841199","0.0-111.0","","","2-1","5635","38","1","Training","Stims/Figures/100-J-10-3.bmp","pakaka","Up","38","7","12","1","P","C","108"
"","","approach-retreat","112","851347","0.0-112.0","","","2-1","8635","40","1","Training","Stims/Figures/100-C-30-3.bmp","na:la:na","Up","40","7","13","1","S","C","109"
"","","approach-retreat","113","859699","0.0-113.0","","","2-1","6845","37","1","Training","Stims/Figures/19-J-10-4.bmp","pakaka","Left","37","7","14","1","P","C","110"
"","","approach-retreat","114","868993","0.0-114.0","","","2-1","7785","39","1","Training","Stims/Figures/94-C-20-2.bmp","na:la:na","Left","39","7","15","1","S","C","111"
"","","approach-retreat","115","875613","0.0-115.0","","","2-1","5113","38","1","Training","Stims/Figures/86-J-0-1.bmp","pakaka","Up","38","7","16","1","P","C","112"
"","","approach-retreat","116","881532","0.0-116.0","","","2-1","4411","37","1","Training","Stims/Figures/94-J-0-2.bmp","pakaka","Left","37","8","1","1","P","C","113"
"","","approach-retreat","117","888948","0.0-117.0","","","2-1","5903","39","1","Training","Stims/Figures/100-C-30-3.bmp","na:la:na","Left","39","8","2","1","S","C","114"
"","","approach-retreat","118","895783","0.0-118.0","","","2-1","5326","38","1","Training","Stims/Figures/86-J-0-1.bmp","pakaka","Up","38","8","3","1","P","C","115"
"","","approach-retreat","119","905220","0.0-119.0","","","2-1","7934","39","1","Training","Stims/Figures/87-J-10-4.bmp","pakaka","Right","39","8","4","1","P","C","116"
"","","approach-retreat","120","911659","0.0-120.0","","","2-1","4928","39","1","Training","Stims/Figures/93-J-0-1.bmp","pakaka","Right","39","8","5","1","P","C","117"
"","","approach-retreat","121","921560","0.0-121.0","","","2-1","8398","38","1","Training","Stims/Figures/100-J-10-3.bmp","pakaka","Up","38","8","6","1","P","C","118"
"","","approach-retreat","122","929046","0.0-122.0","","","2-1","5974","38","1","Training","Stims/Figures/94-C-20-2.bmp","na:la:na","Down","38","8","7","1","S","C","119"
"","","approach-retreat","123","936585","0.0-123.0","","","2-1","6029","37","1","Training","Stims/Figures/87-C-20-4.bmp","na:la:na","Right","37","8","8","1","S","C","120"
"","","approach-retreat","124","943070","0.0-124.0","","","2-1","4977","38","1","Training","Stims/Figures/86-C-30-1.bmp","na:la:na","Down","38","8","9","1","S","C","121"
"","","approach-retreat","125","948992","0.0-125.0","","","2-1","4412","38","1","Training","Stims/Figures/19-J-10-4.bmp","pakaka","Up","38","8","10","1","P","C","122"
"","","approach-retreat","126","955579","0.0-126.0","","","2-1","5077","40","1","Training","Stims/Figures/19-C-20-4.bmp","na:la:na","Up","40","8","11","1","S","C","123"
"","","approach-retreat","127","961234","0.0-127.0","","","2-1","4148","39","1","Training","Stims/Figures/144-C-30-3.bmp","na:la:na","Left","39","8","12","1","S","C","124"
"","","approach-retreat","128","967398","0.0-128.0","","","2-1","4657","39","1","Training","Stims/Figures/118-J-0-2.bmp","pakaka","Right","39","8","13","1","P","C","125"
"","","approach-retreat","129","973868","0.0-129.0","","","2-1","4962","37","1","Training","Stims/Figures/144-J-10-3.bmp","pakaka","Left","37","8","14","1","P","C","126"
"","","approach-retreat","130","979725","0.0-130.0","","","2-1","4347","38","1","Training","Stims/Figures/118-C-20-2.bmp","na:la:na","Down","38","8","15","1","S","C","127"
"","","approach-retreat","131","985742","0.0-131.0","","","2-1","4509","38","1","Training","Stims/Figures/93-C-30-1.bmp","na:la:na","Down","38","8","16","1","S","C","128"
"","","approach-retreat","132","994419","0.0-132.0","","","2-1","7169","39","1","Training","Stims/Figures/118-J-0-2.bmp","pakaka","Right","39","9","1","1","P","C","129"
"","","approach-retreat","133","1000396","0.0-133.0","","","2-1","4472","40","1","Training","Stims/Figures/93-J-0-1.bmp","pakaka","Down","40","9","2","1","P","C","130"
"","","approach-retreat","134","1006765","0.0-134.0","","","2-1","4849","38","1","Training","Stims/Figures/94-C-20-2.bmp","na:la:na","Down","38","9","3","1","S","C","131"
"","","approach-retreat","135","1016312","0.0-135.0","","","2-1","8037","40","1","Training","Stims/Figures/87-C-20-4.bmp","na:la:na","Up","40","9","4","1","S","C","132"
"","","approach-retreat","136","1025839","0.0-136.0","","","2-1","8016","40","1","Training","Stims/Figures/144-J-10-3.bmp","pakaka","Down","40","9","5","1","P","C","133"
"","","approach-retreat","137","1033497","0.0-137.0","","","2-1","6150","37","1","Training","Stims/Figures/100-J-10-3.bmp","pakaka","Left","37","9","6","1","P","C","134"
"","","approach-retreat","138","1040547","0.0-138.0","","","2-1","5542","38","1","Training","Stims/Figures/86-J-0-1.bmp","pakaka","Up","38","9","7","1","P","C","135"
"","","approach-retreat","139","1046432","0.0-139.0","","","2-1","4380","39","1","Training","Stims/Figures/87-J-10-4.bmp","pakaka","Right","39","9","8","1","P","C","136"
"","","approach-retreat","140","1052260","0.0-140.0","","","2-1","4319","38","1","Training","Stims/Figures/94-J-0-2.bmp","pakaka","Up","38","9","9","1","P","C","137"
"","","approach-retreat","141","1064744","0.0-141.0","","","2-1","10974","39","1","Training","Stims/Figures/86-C-30-1.bmp","na:la:na","Left","39","9","10","1","S","C","138"
"","","approach-retreat","142","1073027","0.0-142.0","","","2-1","6777","37","1","Training","Stims/Figures/19-C-20-4.bmp","na:la:na","Right","37","9","11","1","S","C","139"
"","","approach-retreat","143","1079561","0.0-143.0","","","2-1","5026","40","1","Training","Stims/Figures/118-C-20-2.bmp","na:la:na","Up","40","9","12","1","S","C","140"
"","","approach-retreat","144","1087868","0.0-144.0","","","2-1","6796","40","1","Training","Stims/Figures/19-J-10-4.bmp","pakaka","Down","40","9","13","1","P","C","141"
"","","approach-retreat","145","1096172","0.0-145.0","","","2-1","6801","37","1","Training","Stims/Figures/93-C-30-1.bmp","na:la:na","Right","37","9","14","1","S","C","142"
"","","approach-retreat","146","1104646","0.0-146.0","","","2-1","6959","39","1","Training","Stims/Figures/144-C-30-3.bmp","na:la:na","Left","39","9","15","1","S","C","143"
"","","approach-retreat","147","1111820","0.0-147.0","","","2-1","5666","39","1","Training","Stims/Figures/100-C-30-3.bmp","na:la:na","Left","39","9","16","1","S","C","144"
"11016","","instructions","148","1122836","0.0-148.0","[{""page_index"":0,""viewing_time"":11016}]","","","","","","","","","","","","","","","",""
"","","approach-retreat","149","1130034","0.0-149.0","","","2-1","5692","39","1","Testing","Stims/Figures/74-J-10-4.bmp","pakaka","Right","39","1","1","1","P","C","1"
"","","approach-retreat","150","1136041","0.0-150.0","","","2-1","4496","38","1","Testing","Stims/Figures/86-J-0-1.bmp","pakaka","Up","38","1","2","1","P","C","2"
"","","approach-retreat","151","1145491","0.0-151.0","","","2-1","7941","39","0","Testing","Stims/Figures/74-C-20-4.bmp","na:la:na","Right","37","1","3","1","S","C","3"
"","","approach-retreat","152","1151353","0.0-152.0","","","2-1","4356","39","1","Testing","Stims/Figures/84-C-20-2.bmp","na:la:na","Left","39","1","4","1","S","C","4"
"","","approach-retreat","153","1157477","0.0-153.0","","","2-1","4618","37","1","Testing","Stims/Figures/118-J-0-2.bmp","pakaka","Left","37","1","5","1","P","C","5"
"","","approach-retreat","154","1163179","0.0-154.0","","","2-1","4193","39","0","Testing","Stims/Figures/87-J-10-4.bmp","pakaka","Left","37","1","6","1","P","C","6"
"","","approach-retreat","155","1169367","0.0-155.0","","","2-1","4679","37","1","Testing","Stims/Figures/57-C-30-1.bmp","na:la:na","Right","37","1","7","1","S","C","7"
"","","approach-retreat","156","1175391","0.0-156.0","","","2-1","4517","38","1","Testing","Stims/Figures/93-C-30-1.bmp","na:la:na","Down","38","1","8","1","S","C","8"
"","","approach-retreat","157","1181054","0.0-157.0","","","2-1","4155","39","1","Testing","Stims/Figures/100-C-30-3.bmp","na:la:na","Left","39","1","9","1","S","C","9"
"","","approach-retreat","158","1187425","0.0-158.0","","","2-1","4864","39","1","Testing","Stims/Figures/87-C-20-4.bmp","na:la:na","Left","39","1","10","1","S","C","10"
"","","approach-retreat","159","1196798","0.0-159.0","","","2-1","7864","39","0","Testing","Stims/Figures/100-J-10-3.bmp","pakaka","Left","37","1","11","1","P","C","11"
"","","approach-retreat","160","1203514","0.0-160.0","","","2-1","5208","37","1","Testing","Stims/Figures/44-C-30-3.bmp","na:la:na","Right","37","1","12","1","S","C","12"
"","","approach-retreat","161","1210088","0.0-161.0","","","2-1","5066","38","1","Testing","Stims/Figures/57-J-0-1.bmp","pakaka","Up","38","1","13","1","P","C","13"
"","","approach-retreat","162","1216570","0.0-162.0","","","2-1","4974","38","0","Testing","Stims/Figures/19-J-10-4.bmp","pakaka","Down","40","1","14","1","P","C","14"
"","","approach-retreat","163","1222740","0.0-163.0","","","2-1","4660","37","1","Testing","Stims/Figures/118-C-20-2.bmp","na:la:na","Right","37","1","15","1","S","C","15"
"","","approach-retreat","164","1228675","0.0-164.0","","","2-1","4429","38","1","Testing","Stims/Figures/84-J-0-2.bmp","pakaka","Up","38","1","16","1","P","C","16"
"","","approach-retreat","165","1234629","0.0-165.0","","","2-1","4443","38","1","Testing","Stims/Figures/44-J-10-3.bmp","pakaka","Up","38","1","17","1","P","C","17"
"","","approach-retreat","166","1243865","0.0-166.0","","","2-1","7729","40","1","Testing","Stims/Figures/94-C-20-2.bmp","na:la:na","Up","40","1","18","1","S","C","18"
"","","approach-retreat","167","1252068","0.0-167.0","","","2-1","6693","38","1","Testing","Stims/Figures/19-C-20-4.bmp","na:la:na","Down","38","1","19","1","S","C","19"
"","","approach-retreat","168","1259352","0.0-168.0","","","2-1","5775","38","1","Testing","Stims/Figures/144-C-30-3.bmp","na:la:na","Down","38","1","20","1","S","C","20"
"","","approach-retreat","169","1266873","0.0-169.0","","","2-1","6013","40","1","Testing","Stims/Figures/93-J-0-1.bmp","pakaka","Down","40","1","21","1","P","C","21"
"","","approach-retreat","170","1278823","0.0-170.0","","","2-1","10441","39","1","Testing","Stims/Figures/144-J-10-3.bmp","pakaka","Right","39","1","22","1","P","C","22"
"","","approach-retreat","171","1285526","0.0-171.0","","","2-1","5196","38","1","Testing","Stims/Figures/94-J-0-2.bmp","pakaka","Up","38","1","23","1","P","C","23"
"","","approach-retreat","172","1292710","0.0-172.0","","","2-1","5674","38","1","Testing","Stims/Figures/86-C-30-1.bmp","na:la:na","Down","38","1","24","1","S","C","24"
"","","approach-retreat","173","1301772","0.0-173.0","","","2-1","7554","39","1","Testing","Stims/Figures/44-J-10-3.bmp","pakaka","Right","39","2","1","1","P","C","25"
"","","approach-retreat","174","1308411","0.0-174.0","","","2-1","5132","40","1","Testing","Stims/Figures/100-C-30-3.bmp","na:la:na","Up","40","2","2","1","S","C","26"
"","","approach-retreat","175","1316530","0.0-175.0","","","2-1","6613","38","1","Testing","Stims/Figures/57-J-0-1.bmp","pakaka","Up","38","2","3","1","P","C","27"
"","","approach-retreat","176","1322502","0.0-176.0","","","2-1","4462","38","1","Testing","Stims/Figures/100-J-10-3.bmp","pakaka","Up","38","2","4","1","P","C","28"
"","","approach-retreat","177","1332968","0.0-177.0","","","2-1","8958","37","1","Testing","Stims/Figures/84-J-0-2.bmp","pakaka","Left","37","2","5","1","P","C","29"
"","","approach-retreat","178","1338659","0.0-178.0","","","2-1","4181","40","1","Testing","Stims/Figures/93-J-0-1.bmp","pakaka","Down","40","2","6","1","P","C","30"
"","","approach-retreat","179","1345574","0.0-179.0","","","2-1","5409","39","1","Testing","Stims/Figures/86-J-0-1.bmp","pakaka","Right","39","2","7","1","P","C","31"
"","","approach-retreat","180","1352056","0.0-180.0","","","2-1","4974","39","1","Testing","Stims/Figures/94-J-0-2.bmp","pakaka","Right","39","2","8","1","P","C","32"
"","","approach-retreat","181","1358368","0.0-181.0","","","2-1","4804","40","1","Testing","Stims/Figures/87-C-20-4.bmp","na:la:na","Up","40","2","9","1","S","C","33"
"","","approach-retreat","182","1364871","0.0-182.0","","","2-1","4993","40","1","Testing","Stims/Figures/19-C-20-4.bmp","na:la:na","Up","40","2","10","1","S","C","34"
"","","approach-retreat","183","1372641","0.0-183.0","","","2-1","6261","39","1","Testing","Stims/Figures/86-C-30-1.bmp","na:la:na","Left","39","2","11","1","S","C","35"
"","","approach-retreat","184","1379831","0.0-184.0","","","2-1","5685","37","0","Testing","Stims/Figures/19-J-10-4.bmp","pakaka","Right","39","2","12","1","P","C","36"
"","","approach-retreat","185","1387147","0.0-185.0","","","2-1","5806","38","1","Testing","Stims/Figures/144-C-30-3.bmp","na:la:na","Down","38","2","13","1","S","C","37"
"","","approach-retreat","186","1395829","0.0-186.0","","","2-1","7172","37","1","Testing","Stims/Figures/118-C-20-2.bmp","na:la:na","Right","37","2","14","1","S","C","38"
"","","approach-retreat","187","1401811","0.0-187.0","","","2-1","4473","38","1","Testing","Stims/Figures/94-C-20-2.bmp","na:la:na","Down","38","2","15","1","S","C","39"
"","","approach-retreat","188","1409045","0.0-188.0","","","2-1","5727","40","1","Testing","Stims/Figures/44-C-30-3.bmp","na:la:na","Up","40","2","16","1","S","C","40"
"","","approach-retreat","189","1416322","0.0-189.0","","","2-1","5771","37","1","Testing","Stims/Figures/118-J-0-2.bmp","pakaka","Left","37","2","17","1","P","C","41"
"","","approach-retreat","190","1423464","0.0-190.0","","","2-1","5632","37","1","Testing","Stims/Figures/57-C-30-1.bmp","na:la:na","Right","37","2","18","1","S","C","42"
"","","approach-retreat","191","1430041","0.0-191.0","","","2-1","5067","39","1","Testing","Stims/Figures/74-C-20-4.bmp","na:la:na","Left","39","2","19","1","S","C","43"
"","","approach-retreat","192","1436953","0.0-192.0","","","2-1","5405","37","1","Testing","Stims/Figures/74-J-10-4.bmp","pakaka","Left","37","2","20","1","P","C","44"
"","","approach-retreat","193","1443187","0.0-193.0","","","2-1","4724","39","1","Testing","Stims/Figures/84-C-20-2.bmp","na:la:na","Left","39","2","21","1","S","C","45"
"","","approach-retreat","194","1455724","0.0-194.0","","","2-1","11027","40","1","Testing","Stims/Figures/144-J-10-3.bmp","pakaka","Down","40","2","22","1","P","C","46"
"","","approach-retreat","195","1463115","0.0-195.0","","","2-1","5885","38","0","Testing","Stims/Figures/87-J-10-4.bmp","pakaka","Down","40","2","23","1","P","C","47"
"","","approach-retreat","196","1468776","0.0-196.0","","","2-1","4150","38","1","Testing","Stims/Figures/93-C-30-1.bmp","na:la:na","Down","38","2","24","1","S","C","48"
"","","approach-retreat","197","1474883","0.0-197.0","","","2-1","4598","37","1","Testing","Stims/Figures/44-C-30-3.bmp","na:la:na","Right","37","3","1","1","S","C","49"
"","","approach-retreat","198","1482596","0.0-198.0","","","2-1","6204","40","1","Testing","Stims/Figures/57-J-0-1.bmp","pakaka","Down","40","3","2","1","P","C","50"
"","","approach-retreat","199","1489078","0.0-199.0","","","2-1","4976","40","1","Testing","Stims/Figures/118-C-20-2.bmp","na:la:na","Up","40","3","3","1","S","C","51"
"","","approach-retreat","200","1495772","0.0-200.0","","","2-1","5190","39","1","Testing","Stims/Figures/84-J-0-2.bmp","pakaka","Right","39","3","4","1","P","C","52"
"","","approach-retreat","201","1503718","0.0-201.0","","","2-1","6437","39","0","Testing","Stims/Figures/87-J-10-4.bmp","pakaka","Left","37","3","5","1","P","C","53"
"","","approach-retreat","202","1510368","0.0-202.0","","","2-1","5140","38","1","Testing","Stims/Figures/100-J-10-3.bmp","pakaka","Up","38","3","6","1","P","C","54"
"","","approach-retreat","203","1518647","0.0-203.0","","","2-1","6771","38","1","Testing","Stims/Figures/74-C-20-4.bmp","na:la:na","Down","38","3","7","1","S","C","55"
"","","approach-retreat","204","1525690","0.0-204.0","","","2-1","5541","38","1","Testing","Stims/Figures/93-J-0-1.bmp","pakaka","Up","38","3","8","1","P","C","56"
"","","approach-retreat","205","1532127","0.0-205.0","","","2-1","4926","38","1","Testing","Stims/Figures/100-C-30-3.bmp","na:la:na","Down","38","3","9","1","S","C","57"
"","","approach-retreat","206","1538703","0.0-206.0","","","2-1","5066","39","1","Testing","Stims/Figures/44-J-10-3.bmp","pakaka","Right","39","3","10","1","P","C","58"
"","","approach-retreat","207","1544589","0.0-207.0","","","2-1","4378","40","1","Testing","Stims/Figures/94-J-0-2.bmp","pakaka","Down","40","3","11","1","P","C","59"
"","","approach-retreat","208","1550230","0.0-208.0","","","2-1","4135","39","1","Testing","Stims/Figures/86-C-30-1.bmp","na:la:na","Left","39","3","12","1","S","C","60"
"","","approach-retreat","209","1557019","0.0-209.0","","","2-1","5280","40","1","Testing","Stims/Figures/19-C-20-4.bmp","na:la:na","Up","40","3","13","1","S","C","61"
"","","approach-retreat","210","1569394","0.0-210.0","","","2-1","10873","38","1","Testing","Stims/Figures/74-J-10-4.bmp","pakaka","Up","38","3","14","1","P","C","62"
"","","approach-retreat","211","1576055","0.0-211.0","","","2-1","5153","37","1","Testing","Stims/Figures/19-J-10-4.bmp","pakaka","Left","37","3","15","1","P","C","63"
"","","approach-retreat","212","1594927","0.0-212.0","","","2-1","17364","38","1","Testing","Stims/Figures/93-C-30-1.bmp","na:la:na","Down","38","3","16","1","S","C","64"
"","","approach-retreat","213","1605817","0.0-213.0","","","2-1","9376","39","1","Testing","Stims/Figures/118-J-0-2.bmp","pakaka","Right","39","3","17","1","P","C","65"
"","","approach-retreat","214","1614957","0.0-214.0","","","2-1","7631","37","1","Testing","Stims/Figures/144-C-30-3.bmp","na:la:na","Right","37","3","18","1","S","C","66"
"","","approach-retreat","215","1621544","0.0-215.0","","","2-1","5078","38","1","Testing","Stims/Figures/86-J-0-1.bmp","pakaka","Up","38","3","19","1","P","C","67"
"","","approach-retreat","216","1628766","0.0-216.0","","","2-1","5712","40","1","Testing","Stims/Figures/144-J-10-3.bmp","pakaka","Down","40","3","20","1","P","C","68"
"","","approach-retreat","217","1634889","0.0-217.0","","","2-1","4617","39","1","Testing","Stims/Figures/57-C-30-1.bmp","na:la:na","Left","39","3","21","1","S","C","69"
"","","approach-retreat","218","1641021","0.0-218.0","","","2-1","4624","39","1","Testing","Stims/Figures/87-C-20-4.bmp","na:la:na","Left","39","3","22","1","S","C","70"
"","","approach-retreat","219","1652419","0.0-219.0","","","2-1","9892","39","1","Testing","Stims/Figures/84-C-20-2.bmp","na:la:na","Left","39","3","23","1","S","C","71"
"","","approach-retreat","220","1660158","0.0-220.0","","","2-1","6231","37","1","Testing","Stims/Figures/94-C-20-2.bmp","na:la:na","Right","37","3","24","1","S","C","72"
"","","approach-retreat","221","1670933","0.0-221.0","","","2-1","9269","37","1","Testing","Stims/Figures/118-C-20-2.bmp","na:la:na","Right","37","4","1","1","S","C","73"
"","","approach-retreat","222","1677058","0.0-222.0","","","2-1","4620","40","1","Testing","Stims/Figures/57-C-30-1.bmp","na:la:na","Up","40","4","2","1","S","C","74"
"","","approach-retreat","223","1690546","0.0-223.0","","","2-1","11980","37","1","Testing","Stims/Figures/144-J-10-3.bmp","pakaka","Left","37","4","3","1","P","C","75"
"","","approach-retreat","224","1703478","0.0-224.0","","","2-1","11425","40","1","Testing","Stims/Figures/93-C-30-1.bmp","na:la:na","Up","40","4","4","1","S","C","76"
"","","approach-retreat","225","1713708","0.0-225.0","","","2-1","8721","40","0","Testing","Stims/Figures/74-C-20-4.bmp","na:la:na","Down","38","4","5","1","S","C","77"
"","","approach-retreat","226","1719782","0.0-226.0","","","2-1","4564","38","1","Testing","Stims/Figures/84-J-0-2.bmp","pakaka","Up","38","4","6","1","P","C","78"
"","","approach-retreat","227","1728192","0.0-227.0","","","2-1","6903","38","1","Testing","Stims/Figures/100-J-10-3.bmp","pakaka","Up","38","4","7","1","P","C","79"
"","","approach-retreat","228","1741953","0.0-228.0","","","2-1","12252","39","1","Testing","Stims/Figures/84-C-20-2.bmp","na:la:na","Left","39","4","8","1","S","C","80"
"","","approach-retreat","229","1750337","0.0-229.0","","","2-1","6875","37","1","Testing","Stims/Figures/57-J-0-1.bmp","pakaka","Left","37","4","9","1","P","C","81"
"","","approach-retreat","230","1761230","0.0-230.0","","","2-1","9384","37","0","Testing","Stims/Figures/19-J-10-4.bmp","pakaka","Right","39","4","10","1","P","C","82"
"","","approach-retreat","231","1767350","0.0-231.0","","","2-1","4612","38","1","Testing","Stims/Figures/94-C-20-2.bmp","na:la:na","Down","38","4","11","1","S","C","83"
"","","approach-retreat","232","1773323","0.0-232.0","","","2-1","4463","37","1","Testing","Stims/Figures/87-C-20-4.bmp","na:la:na","Right","37","4","12","1","S","C","84"
"","","approach-retreat","233","1782763","0.0-233.0","","","2-1","7932","40","1","Testing","Stims/Figures/86-J-0-1.bmp","pakaka","Down","40","4","13","1","P","C","85"
"","","approach-retreat","234","1789443","0.0-234.0","","","2-1","5173","38","1","Testing","Stims/Figures/86-C-30-1.bmp","na:la:na","Down","38","4","14","1","S","C","86"
"","","approach-retreat","235","1798216","0.0-235.0","","","2-1","7262","39","1","Testing","Stims/Figures/144-C-30-3.bmp","na:la:na","Left","39","4","15","1","S","C","87"
"","","approach-retreat","236","1807319","0.0-236.0","","","2-1","7596","37","1","Testing","Stims/Figures/44-C-30-3.bmp","na:la:na","Right","37","4","16","1","S","C","88"
"","","approach-retreat","237","1814691","0.0-237.0","","","2-1","5862","40","1","Testing","Stims/Figures/100-C-30-3.bmp","na:la:na","Up","40","4","17","1","S","C","89"
"","","approach-retreat","238","1821660","0.0-238.0","","","2-1","5461","37","1","Testing","Stims/Figures/74-J-10-4.bmp","pakaka","Left","37","4","18","1","P","C","90"
"","","approach-retreat","239","1829181","0.0-239.0","","","2-1","6012","40","0","Testing","Stims/Figures/87-J-10-4.bmp","pakaka","Up","38","4","19","1","P","C","91"
"","","approach-retreat","240","1836745","0.0-240.0","","","2-1","6055","39","1","Testing","Stims/Figures/19-C-20-4.bmp","na:la:na","Left","39","4","20","1","S","C","92"
"","","approach-retreat","241","1845911","0.0-241.0","","","2-1","7656","40","1","Testing","Stims/Figures/44-J-10-3.bmp","pakaka","Down","40","4","21","1","P","C","93"
"","","approach-retreat","242","1852028","0.0-242.0","","","2-1","4608","39","1","Testing","Stims/Figures/94-J-0-2.bmp","pakaka","Right","39","4","22","1","P","C","94"
"","","approach-retreat","243","1860429","0.0-243.0","","","2-1","6893","40","1","Testing","Stims/Figures/93-J-0-1.bmp","pakaka","Down","40","4","23","1","P","C","95"
"","","approach-retreat","244","1866963","0.0-244.0","","","2-1","5026","37","0","Testing","Stims/Figures/118-J-0-2.bmp","pakaka","Right","39","4","24","1","P","C","96"
"91652","","survey-text","245","1958620","0.0-245.0","","{""Q0"":""PS180017""}","","","","","","","","","","","","","","",""
