\"rt\",\"key_press\",\"trial_type\",\"trial_index\",\"time_elapsed\",\"internal_node_id\",\"view_history\",\"responses\",\"Id\",\"Rt\",\"ResKeyCode\",\"ResCorr\",\"TrialType2\",\"Image\",\"Label\",\"Location\",\"CorrectResponse\",\"Block\",\"BlockTrial\",\"Condition\",\"LabelType\",\"Subcondition\",\"trialNum\"
\"19482\",\"32\",\"text\",\"0\",\"19497\",\"0.0-0.0-0.0\",\"\",\"\",\"\",\"\",\"\",\"\",\"\",\"\",\"\",\"\",\"\",\"\",\"\",\"\",\"\",\"\",\"\"
\"107622\",\"\",\"instructions\",\"1\",\"127132\",\"0.0-1.0\",\"[{\"\"page_index\"\":0,\"\"viewing_time\"\":107618}]\",\"\",\"\",\"\",\"\",\"\",\"\",\"\",\"\",\"\",\"\",\"\",\"\",\"\",\"\",\"\",\"\"
\"26557\",\"\",\"survey-multi-choice\",\"2\",\"153760\",\"0.0-2.0\",\"\",\"{\"\"Q0\"\":\"\"Da\"\",\"\"Q1\"\":\"\"Da\"\",\"\"Q2\"\":\"\"Da\"\",\"\"Q3\"\":\"\"Da\"\",\"\"Q4\"\":\"\"Da\"\",\"\"Q5\"\":\"\"Da\"\"}\",\"\",\"\",\"\",\"\",\"\",\"\",\"\",\"\",\"\",\"\",\"\",\"\",\"\",\"\",\"\"
\"\",\"\",\"bio\",\"3\",\"160997\",\"0.0-3.0\",\"\",\"{\"\"age\"\":\"\"20\"\",\"\"gender\"\":\"\"f\"\",\"\"specify\"\":\"\"\"\"}\",\"\",\"\",\"\",\"\",\"\",\"\",\"\",\"\",\"\",\"\",\"\",\"\",\"\",\"\",\"\"
\"\",\"\",\"approach-retreat\",\"4\",\"168036\",\"0.0-4.0\",\"\",\"\",\"3-3\",\"5519\",\"37\",\"0\",\"Training\",\"Stims/Figures/86-J-0-1.bmp\",\"ta:pa:ta\",\"Right\",\"39\",\"1\",\"1\",\"1\",\"P\",\"C\",\"1\"
\"\",\"\",\"approach-retreat\",\"5\",\"174676\",\"0.0-5.0\",\"\",\"\",\"3-3\",\"5126\",\"40\",\"1\",\"Training\",\"Stims/Figures/118-C-20-2.bmp\",\"na:ma:la\",\"Up\",\"40\",\"1\",\"2\",\"1\",\"S\",\"C\",\"2\"
\"\",\"\",\"approach-retreat\",\"6\",\"182503\",\"0.0-6.0\",\"\",\"\",\"3-3\",\"6310\",\"39\",\"1\",\"Training\",\"Stims/Figures/57-C-30-1.bmp\",\"na:ma:la\",\"Left\",\"39\",\"1\",\"3\",\"1\",\"S\",\"C\",\"3\"
\"\",\"\",\"approach-retreat\",\"7\",\"188372\",\"0.0-7.0\",\"\",\"\",\"3-3\",\"4341\",\"39\",\"1\",\"Training\",\"Stims/Figures/44-J-10-3.bmp\",\"ta:pa:ta\",\"Right\",\"39\",\"1\",\"4\",\"1\",\"P\",\"C\",\"4\"
\"\",\"\",\"approach-retreat\",\"8\",\"194150\",\"0.0-8.0\",\"\",\"\",\"3-3\",\"4261\",\"39\",\"1\",\"Training\",\"Stims/Figures/87-J-10-4.bmp\",\"ta:pa:ta\",\"Right\",\"39\",\"1\",\"5\",\"1\",\"P\",\"C\",\"5\"
\"\",\"\",\"approach-retreat\",\"9\",\"200102\",\"0.0-9.0\",\"\",\"\",\"3-3\",\"4436\",\"38\",\"1\",\"Training\",\"Stims/Figures/87-C-20-4.bmp\",\"na:ma:la\",\"Down\",\"38\",\"1\",\"6\",\"1\",\"S\",\"C\",\"6\"
\"\",\"\",\"approach-retreat\",\"10\",\"205631\",\"0.0-10.0\",\"\",\"\",\"3-3\",\"4013\",\"39\",\"1\",\"Training\",\"Stims/Figures/118-J-0-2.bmp\",\"ta:pa:ta\",\"Right\",\"39\",\"1\",\"7\",\"1\",\"P\",\"C\",\"7\"
\"\",\"\",\"approach-retreat\",\"11\",\"211753\",\"0.0-11.0\",\"\",\"\",\"3-3\",\"4594\",\"39\",\"0\",\"Training\",\"Stims/Figures/139-J-0-2.bmp\",\"ta:pa:ta\",\"Left\",\"37\",\"1\",\"8\",\"1\",\"P\",\"C\",\"8\"
\"\",\"\",\"approach-retreat\",\"12\",\"217462\",\"0.0-12.0\",\"\",\"\",\"3-3\",\"4196\",\"37\",\"0\",\"Training\",\"Stims/Figures/74-C-20-4.bmp\",\"na:ma:la\",\"Left\",\"39\",\"1\",\"9\",\"1\",\"S\",\"C\",\"9\"
\"\",\"\",\"approach-retreat\",\"13\",\"223462\",\"0.0-13.0\",\"\",\"\",\"3-3\",\"4489\",\"38\",\"1\",\"Training\",\"Stims/Figures/128-C-30-3.bmp\",\"na:ma:la\",\"Down\",\"38\",\"1\",\"10\",\"1\",\"S\",\"C\",\"10\"
\"\",\"\",\"approach-retreat\",\"14\",\"229453\",\"0.0-14.0\",\"\",\"\",\"3-3\",\"4477\",\"40\",\"1\",\"Training\",\"Stims/Figures/86-C-30-1.bmp\",\"na:ma:la\",\"Up\",\"40\",\"1\",\"11\",\"1\",\"S\",\"C\",\"11\"
\"\",\"\",\"approach-retreat\",\"15\",\"235328\",\"0.0-15.0\",\"\",\"\",\"3-3\",\"4362\",\"40\",\"1\",\"Training\",\"Stims/Figures/128-J-10-3.bmp\",\"ta:pa:ta\",\"Down\",\"40\",\"1\",\"12\",\"1\",\"P\",\"C\",\"12\"
\"\",\"\",\"approach-retreat\",\"16\",\"240965\",\"0.0-16.0\",\"\",\"\",\"3-3\",\"4123\",\"40\",\"1\",\"Training\",\"Stims/Figures/74-J-10-4.bmp\",\"ta:pa:ta\",\"Down\",\"40\",\"1\",\"13\",\"1\",\"P\",\"C\",\"13\"
\"\",\"\",\"approach-retreat\",\"17\",\"246735\",\"0.0-17.0\",\"\",\"\",\"3-3\",\"4253\",\"38\",\"1\",\"Training\",\"Stims/Figures/57-J-0-1.bmp\",\"ta:pa:ta\",\"Up\",\"38\",\"1\",\"14\",\"1\",\"P\",\"C\",\"14\"
\"\",\"\",\"approach-retreat\",\"18\",\"252430\",\"0.0-18.0\",\"\",\"\",\"3-3\",\"4178\",\"38\",\"0\",\"Training\",\"Stims/Figures/44-C-30-3.bmp\",\"na:ma:la\",\"Up\",\"40\",\"1\",\"15\",\"1\",\"S\",\"C\",\"15\"
\"\",\"\",\"approach-retreat\",\"19\",\"258202\",\"0.0-19.0\",\"\",\"\",\"3-3\",\"4251\",\"39\",\"1\",\"Training\",\"Stims/Figures/139-C-20-2.bmp\",\"na:ma:la\",\"Left\",\"39\",\"1\",\"16\",\"1\",\"S\",\"C\",\"16\"
\"\",\"\",\"approach-retreat\",\"20\",\"265184\",\"0.0-20.0\",\"\",\"\",\"3-3\",\"5467\",\"39\",\"1\",\"Training\",\"Stims/Figures/118-J-0-2.bmp\",\"ta:pa:ta\",\"Right\",\"39\",\"2\",\"1\",\"1\",\"P\",\"C\",\"17\"
\"\",\"\",\"approach-retreat\",\"21\",\"271708\",\"0.0-21.0\",\"\",\"\",\"3-3\",\"5005\",\"39\",\"1\",\"Training\",\"Stims/Figures/139-C-20-2.bmp\",\"na:ma:la\",\"Left\",\"39\",\"2\",\"2\",\"1\",\"S\",\"C\",\"18\"
\"\",\"\",\"approach-retreat\",\"22\",\"277456\",\"0.0-22.0\",\"\",\"\",\"3-3\",\"4231\",\"40\",\"1\",\"Training\",\"Stims/Figures/74-J-10-4.bmp\",\"ta:pa:ta\",\"Down\",\"40\",\"2\",\"3\",\"1\",\"P\",\"C\",\"19\"
\"\",\"\",\"approach-retreat\",\"23\",\"283172\",\"0.0-23.0\",\"\",\"\",\"3-3\",\"4196\",\"40\",\"0\",\"Training\",\"Stims/Figures/86-C-30-1.bmp\",\"na:ma:la\",\"Down\",\"38\",\"2\",\"4\",\"1\",\"S\",\"C\",\"20\"
\"\",\"\",\"approach-retreat\",\"24\",\"290451\",\"0.0-24.0\",\"\",\"\",\"3-3\",\"5766\",\"39\",\"1\",\"Training\",\"Stims/Figures/44-J-10-3.bmp\",\"ta:pa:ta\",\"Right\",\"39\",\"2\",\"5\",\"1\",\"P\",\"C\",\"21\"
\"\",\"\",\"approach-retreat\",\"25\",\"296317\",\"0.0-25.0\",\"\",\"\",\"3-3\",\"4346\",\"38\",\"1\",\"Training\",\"Stims/Figures/139-J-0-2.bmp\",\"ta:pa:ta\",\"Up\",\"38\",\"2\",\"6\",\"1\",\"P\",\"C\",\"22\"
\"\",\"\",\"approach-retreat\",\"26\",\"302156\",\"0.0-26.0\",\"\",\"\",\"3-3\",\"4308\",\"40\",\"1\",\"Training\",\"Stims/Figures/128-J-10-3.bmp\",\"ta:pa:ta\",\"Down\",\"40\",\"2\",\"7\",\"1\",\"P\",\"C\",\"23\"
\"\",\"\",\"approach-retreat\",\"27\",\"307876\",\"0.0-27.0\",\"\",\"\",\"3-3\",\"4199\",\"38\",\"1\",\"Training\",\"Stims/Figures/57-J-0-1.bmp\",\"ta:pa:ta\",\"Up\",\"38\",\"2\",\"8\",\"1\",\"P\",\"C\",\"24\"
\"\",\"\",\"approach-retreat\",\"28\",\"313917\",\"0.0-28.0\",\"\",\"\",\"3-3\",\"4526\",\"37\",\"1\",\"Training\",\"Stims/Figures/74-C-20-4.bmp\",\"na:ma:la\",\"Right\",\"37\",\"2\",\"9\",\"1\",\"S\",\"C\",\"25\"
\"\",\"\",\"approach-retreat\",\"29\",\"319469\",\"0.0-29.0\",\"\",\"\",\"3-3\",\"4035\",\"37\",\"1\",\"Training\",\"Stims/Figures/44-C-30-3.bmp\",\"na:ma:la\",\"Right\",\"37\",\"2\",\"10\",\"1\",\"S\",\"C\",\"26\"
\"\",\"\",\"approach-retreat\",\"30\",\"325181\",\"0.0-30.0\",\"\",\"\",\"3-3\",\"4196\",\"38\",\"1\",\"Training\",\"Stims/Figures/128-C-30-3.bmp\",\"na:ma:la\",\"Down\",\"38\",\"2\",\"11\",\"1\",\"S\",\"C\",\"27\"
\"\",\"\",\"approach-retreat\",\"31\",\"330998\",\"0.0-31.0\",\"\",\"\",\"3-3\",\"4293\",\"39\",\"1\",\"Training\",\"Stims/Figures/57-C-30-1.bmp\",\"na:ma:la\",\"Left\",\"39\",\"2\",\"12\",\"1\",\"S\",\"C\",\"28\"
\"\",\"\",\"approach-retreat\",\"32\",\"336670\",\"0.0-32.0\",\"\",\"\",\"3-3\",\"4153\",\"37\",\"1\",\"Training\",\"Stims/Figures/87-J-10-4.bmp\",\"ta:pa:ta\",\"Left\",\"37\",\"2\",\"13\",\"1\",\"P\",\"C\",\"29\"
\"\",\"\",\"approach-retreat\",\"33\",\"342373\",\"0.0-33.0\",\"\",\"\",\"3-3\",\"4179\",\"37\",\"0\",\"Training\",\"Stims/Figures/118-C-20-2.bmp\",\"na:ma:la\",\"Left\",\"39\",\"2\",\"14\",\"1\",\"S\",\"C\",\"30\"
\"\",\"\",\"approach-retreat\",\"34\",\"348117\",\"0.0-34.0\",\"\",\"\",\"3-3\",\"4227\",\"38\",\"0\",\"Training\",\"Stims/Figures/87-C-20-4.bmp\",\"na:ma:la\",\"Up\",\"40\",\"2\",\"15\",\"1\",\"S\",\"C\",\"31\"
\"\",\"\",\"approach-retreat\",\"35\",\"353954\",\"0.0-35.0\",\"\",\"\",\"3-3\",\"4323\",\"38\",\"1\",\"Training\",\"Stims/Figures/86-J-0-1.bmp\",\"ta:pa:ta\",\"Up\",\"38\",\"2\",\"16\",\"1\",\"P\",\"C\",\"32\"
\"\",\"\",\"approach-retreat\",\"36\",\"359673\",\"0.0-36.0\",\"\",\"\",\"3-3\",\"4197\",\"40\",\"1\",\"Training\",\"Stims/Figures/118-C-20-2.bmp\",\"na:ma:la\",\"Up\",\"40\",\"3\",\"1\",\"1\",\"S\",\"C\",\"33\"
\"\",\"\",\"approach-retreat\",\"37\",\"365998\",\"0.0-37.0\",\"\",\"\",\"3-3\",\"4811\",\"40\",\"1\",\"Training\",\"Stims/Figures/139-J-0-2.bmp\",\"ta:pa:ta\",\"Down\",\"40\",\"3\",\"2\",\"1\",\"P\",\"C\",\"34\"
\"\",\"\",\"approach-retreat\",\"38\",\"372631\",\"0.0-38.0\",\"\",\"\",\"3-3\",\"5112\",\"37\",\"1\",\"Training\",\"Stims/Figures/57-J-0-1.bmp\",\"ta:pa:ta\",\"Left\",\"37\",\"3\",\"3\",\"1\",\"P\",\"C\",\"35\"
\"\",\"\",\"approach-retreat\",\"39\",\"378245\",\"0.0-39.0\",\"\",\"\",\"3-3\",\"4095\",\"40\",\"1\",\"Training\",\"Stims/Figures/44-C-30-3.bmp\",\"na:ma:la\",\"Up\",\"40\",\"3\",\"4\",\"1\",\"S\",\"C\",\"36\"
\"\",\"\",\"approach-retreat\",\"40\",\"384551\",\"0.0-40.0\",\"\",\"\",\"3-3\",\"4775\",\"40\",\"1\",\"Training\",\"Stims/Figures/118-J-0-2.bmp\",\"ta:pa:ta\",\"Down\",\"40\",\"3\",\"5\",\"1\",\"P\",\"C\",\"37\"
\"\",\"\",\"approach-retreat\",\"41\",\"391016\",\"0.0-41.0\",\"\",\"\",\"3-3\",\"4944\",\"37\",\"1\",\"Training\",\"Stims/Figures/86-C-30-1.bmp\",\"na:ma:la\",\"Right\",\"37\",\"3\",\"6\",\"1\",\"S\",\"C\",\"38\"
\"\",\"\",\"approach-retreat\",\"42\",\"397074\",\"0.0-42.0\",\"\",\"\",\"3-3\",\"4542\",\"37\",\"1\",\"Training\",\"Stims/Figures/128-C-30-3.bmp\",\"na:ma:la\",\"Right\",\"37\",\"3\",\"7\",\"1\",\"S\",\"C\",\"39\"
\"\",\"\",\"approach-retreat\",\"43\",\"402827\",\"0.0-43.0\",\"\",\"\",\"3-3\",\"4224\",\"38\",\"1\",\"Training\",\"Stims/Figures/57-C-30-1.bmp\",\"na:ma:la\",\"Down\",\"38\",\"3\",\"8\",\"1\",\"S\",\"C\",\"40\"
\"\",\"\",\"approach-retreat\",\"44\",\"409458\",\"0.0-44.0\",\"\",\"\",\"3-3\",\"5112\",\"37\",\"1\",\"Training\",\"Stims/Figures/44-J-10-3.bmp\",\"ta:pa:ta\",\"Left\",\"37\",\"3\",\"9\",\"1\",\"P\",\"C\",\"41\"
\"\",\"\",\"approach-retreat\",\"45\",\"415209\",\"0.0-45.0\",\"\",\"\",\"3-3\",\"4238\",\"37\",\"1\",\"Training\",\"Stims/Figures/74-C-20-4.bmp\",\"na:ma:la\",\"Right\",\"37\",\"3\",\"10\",\"1\",\"S\",\"C\",\"42\"
\"\",\"\",\"approach-retreat\",\"46\",\"420872\",\"0.0-46.0\",\"\",\"\",\"3-3\",\"4139\",\"39\",\"1\",\"Training\",\"Stims/Figures/86-J-0-1.bmp\",\"ta:pa:ta\",\"Right\",\"39\",\"3\",\"11\",\"1\",\"P\",\"C\",\"43\"
\"\",\"\",\"approach-retreat\",\"47\",\"426833\",\"0.0-47.0\",\"\",\"\",\"3-3\",\"4432\",\"40\",\"0\",\"Training\",\"Stims/Figures/87-C-20-4.bmp\",\"na:ma:la\",\"Down\",\"38\",\"3\",\"12\",\"1\",\"S\",\"C\",\"44\"
\"\",\"\",\"approach-retreat\",\"48\",\"432483\",\"0.0-48.0\",\"\",\"\",\"3-3\",\"4132\",\"37\",\"1\",\"Training\",\"Stims/Figures/74-J-10-4.bmp\",\"ta:pa:ta\",\"Left\",\"37\",\"3\",\"13\",\"1\",\"P\",\"C\",\"45\"
\"\",\"\",\"approach-retreat\",\"49\",\"438735\",\"0.0-49.0\",\"\",\"\",\"3-3\",\"4738\",\"38\",\"1\",\"Training\",\"Stims/Figures/128-J-10-3.bmp\",\"ta:pa:ta\",\"Up\",\"38\",\"3\",\"14\",\"1\",\"P\",\"C\",\"46\"
\"\",\"\",\"approach-retreat\",\"50\",\"444331\",\"0.0-50.0\",\"\",\"\",\"3-3\",\"4083\",\"37\",\"1\",\"Training\",\"Stims/Figures/87-J-10-4.bmp\",\"ta:pa:ta\",\"Left\",\"37\",\"3\",\"15\",\"1\",\"P\",\"C\",\"47\"
\"\",\"\",\"approach-retreat\",\"51\",\"450027\",\"0.0-51.0\",\"\",\"\",\"3-3\",\"4179\",\"38\",\"0\",\"Training\",\"Stims/Figures/139-C-20-2.bmp\",\"na:ma:la\",\"Up\",\"40\",\"3\",\"16\",\"1\",\"S\",\"C\",\"48\"
\"\",\"\",\"approach-retreat\",\"52\",\"455737\",\"0.0-52.0\",\"\",\"\",\"3-3\",\"4187\",\"39\",\"1\",\"Training\",\"Stims/Figures/57-C-30-1.bmp\",\"na:ma:la\",\"Left\",\"39\",\"4\",\"1\",\"1\",\"S\",\"C\",\"49\"
\"\",\"\",\"approach-retreat\",\"53\",\"462319\",\"0.0-53.0\",\"\",\"\",\"3-3\",\"5068\",\"38\",\"0\",\"Training\",\"Stims/Figures/87-J-10-4.bmp\",\"ta:pa:ta\",\"Down\",\"40\",\"4\",\"2\",\"1\",\"P\",\"C\",\"50\"
\"\",\"\",\"approach-retreat\",\"54\",\"469574\",\"0.0-54.0\",\"\",\"\",\"3-3\",\"5736\",\"39\",\"1\",\"Training\",\"Stims/Figures/128-C-30-3.bmp\",\"na:ma:la\",\"Left\",\"39\",\"4\",\"3\",\"1\",\"S\",\"C\",\"51\"
\"\",\"\",\"approach-retreat\",\"55\",\"475643\",\"0.0-55.0\",\"\",\"\",\"3-3\",\"4549\",\"39\",\"1\",\"Training\",\"Stims/Figures/74-J-10-4.bmp\",\"ta:pa:ta\",\"Right\",\"39\",\"4\",\"4\",\"1\",\"P\",\"C\",\"52\"
\"\",\"\",\"approach-retreat\",\"56\",\"481456\",\"0.0-56.0\",\"\",\"\",\"3-3\",\"4295\",\"40\",\"1\",\"Training\",\"Stims/Figures/139-J-0-2.bmp\",\"ta:pa:ta\",\"Down\",\"40\",\"4\",\"5\",\"1\",\"P\",\"C\",\"53\"
\"\",\"\",\"approach-retreat\",\"57\",\"487443\",\"0.0-57.0\",\"\",\"\",\"3-3\",\"4469\",\"38\",\"1\",\"Training\",\"Stims/Figures/128-J-10-3.bmp\",\"ta:pa:ta\",\"Up\",\"38\",\"4\",\"6\",\"1\",\"P\",\"C\",\"54\"
\"\",\"\",\"approach-retreat\",\"58\",\"493122\",\"0.0-58.0\",\"\",\"\",\"3-3\",\"4161\",\"39\",\"0\",\"Training\",\"Stims/Figures/44-C-30-3.bmp\",\"na:ma:la\",\"Right\",\"37\",\"4\",\"7\",\"1\",\"S\",\"C\",\"55\"
\"\",\"\",\"approach-retreat\",\"59\",\"498955\",\"0.0-59.0\",\"\",\"\",\"3-3\",\"4309\",\"37\",\"1\",\"Training\",\"Stims/Figures/118-J-0-2.bmp\",\"ta:pa:ta\",\"Left\",\"37\",\"4\",\"8\",\"1\",\"P\",\"C\",\"56\"
\"\",\"\",\"approach-retreat\",\"60\",\"505492\",\"0.0-60.0\",\"\",\"\",\"3-3\",\"5022\",\"38\",\"1\",\"Training\",\"Stims/Figures/139-C-20-2.bmp\",\"na:ma:la\",\"Down\",\"38\",\"4\",\"9\",\"1\",\"S\",\"C\",\"57\"
\"\",\"\",\"approach-retreat\",\"61\",\"511282\",\"0.0-61.0\",\"\",\"\",\"3-3\",\"4263\",\"39\",\"1\",\"Training\",\"Stims/Figures/74-C-20-4.bmp\",\"na:ma:la\",\"Left\",\"39\",\"4\",\"10\",\"1\",\"S\",\"C\",\"58\"
\"\",\"\",\"approach-retreat\",\"62\",\"518408\",\"0.0-62.0\",\"\",\"\",\"3-3\",\"5602\",\"37\",\"1\",\"Training\",\"Stims/Figures/118-C-20-2.bmp\",\"na:ma:la\",\"Right\",\"37\",\"4\",\"11\",\"1\",\"S\",\"C\",\"59\"
\"\",\"\",\"approach-retreat\",\"63\",\"524156\",\"0.0-63.0\",\"\",\"\",\"3-3\",\"4235\",\"39\",\"1\",\"Training\",\"Stims/Figures/86-J-0-1.bmp\",\"ta:pa:ta\",\"Right\",\"39\",\"4\",\"12\",\"1\",\"P\",\"C\",\"60\"
\"\",\"\",\"approach-retreat\",\"64\",\"531390\",\"0.0-64.0\",\"\",\"\",\"3-3\",\"5718\",\"40\",\"0\",\"Training\",\"Stims/Figures/57-J-0-1.bmp\",\"ta:pa:ta\",\"Up\",\"38\",\"4\",\"13\",\"1\",\"P\",\"C\",\"61\"
\"\",\"\",\"approach-retreat\",\"65\",\"538235\",\"0.0-65.0\",\"\",\"\",\"3-3\",\"5333\",\"40\",\"1\",\"Training\",\"Stims/Figures/86-C-30-1.bmp\",\"na:ma:la\",\"Up\",\"40\",\"4\",\"14\",\"1\",\"S\",\"C\",\"62\"
\"\",\"\",\"approach-retreat\",\"66\",\"544095\",\"0.0-66.0\",\"\",\"\",\"3-3\",\"4347\",\"38\",\"1\",\"Training\",\"Stims/Figures/44-J-10-3.bmp\",\"ta:pa:ta\",\"Up\",\"38\",\"4\",\"15\",\"1\",\"P\",\"C\",\"63\"
\"\",\"\",\"approach-retreat\",\"67\",\"551592\",\"0.0-67.0\",\"\",\"\",\"3-3\",\"5982\",\"38\",\"1\",\"Training\",\"Stims/Figures/87-C-20-4.bmp\",\"na:ma:la\",\"Down\",\"38\",\"4\",\"16\",\"1\",\"S\",\"C\",\"64\"
\"\",\"\",\"approach-retreat\",\"68\",\"557608\",\"0.0-68.0\",\"\",\"\",\"3-3\",\"4502\",\"37\",\"1\",\"Training\",\"Stims/Figures/87-C-20-4.bmp\",\"na:ma:la\",\"Right\",\"37\",\"5\",\"1\",\"1\",\"S\",\"C\",\"65\"
\"\",\"\",\"approach-retreat\",\"69\",\"563543\",\"0.0-69.0\",\"\",\"\",\"3-3\",\"4421\",\"37\",\"1\",\"Training\",\"Stims/Figures/86-J-0-1.bmp\",\"ta:pa:ta\",\"Left\",\"37\",\"5\",\"2\",\"1\",\"P\",\"C\",\"66\"
\"\",\"\",\"approach-retreat\",\"70\",\"569450\",\"0.0-70.0\",\"\",\"\",\"3-3\",\"4385\",\"39\",\"1\",\"Training\",\"Stims/Figures/57-J-0-1.bmp\",\"ta:pa:ta\",\"Right\",\"39\",\"5\",\"3\",\"1\",\"P\",\"C\",\"67\"
\"\",\"\",\"approach-retreat\",\"71\",\"575312\",\"0.0-71.0\",\"\",\"\",\"3-3\",\"4329\",\"37\",\"1\",\"Training\",\"Stims/Figures/74-J-10-4.bmp\",\"ta:pa:ta\",\"Left\",\"37\",\"5\",\"4\",\"1\",\"P\",\"C\",\"68\"
\"\",\"\",\"approach-retreat\",\"72\",\"581055\",\"0.0-72.0\",\"\",\"\",\"3-3\",\"4227\",\"39\",\"0\",\"Training\",\"Stims/Figures/118-C-20-2.bmp\",\"na:ma:la\",\"Right\",\"37\",\"5\",\"5\",\"1\",\"S\",\"C\",\"69\"
\"\",\"\",\"approach-retreat\",\"73\",\"586957\",\"0.0-73.0\",\"\",\"\",\"3-3\",\"4378\",\"40\",\"1\",\"Training\",\"Stims/Figures/57-C-30-1.bmp\",\"na:ma:la\",\"Up\",\"40\",\"5\",\"6\",\"1\",\"S\",\"C\",\"70\"
\"\",\"\",\"approach-retreat\",\"74\",\"592599\",\"0.0-74.0\",\"\",\"\",\"3-3\",\"4120\",\"39\",\"1\",\"Training\",\"Stims/Figures/74-C-20-4.bmp\",\"na:ma:la\",\"Left\",\"39\",\"5\",\"7\",\"1\",\"S\",\"C\",\"71\"
\"\",\"\",\"approach-retreat\",\"75\",\"599658\",\"0.0-75.0\",\"\",\"\",\"3-3\",\"5542\",\"40\",\"1\",\"Training\",\"Stims/Figures/44-J-10-3.bmp\",\"ta:pa:ta\",\"Down\",\"40\",\"5\",\"8\",\"1\",\"P\",\"C\",\"72\"
\"\",\"\",\"approach-retreat\",\"76\",\"605326\",\"0.0-76.0\",\"\",\"\",\"3-3\",\"4156\",\"40\",\"1\",\"Training\",\"Stims/Figures/128-J-10-3.bmp\",\"ta:pa:ta\",\"Down\",\"40\",\"5\",\"9\",\"1\",\"P\",\"C\",\"73\"
\"\",\"\",\"approach-retreat\",\"77\",\"610968\",\"0.0-77.0\",\"\",\"\",\"3-3\",\"4127\",\"38\",\"0\",\"Training\",\"Stims/Figures/139-C-20-2.bmp\",\"na:ma:la\",\"Up\",\"40\",\"5\",\"10\",\"1\",\"S\",\"C\",\"74\"
\"\",\"\",\"approach-retreat\",\"78\",\"620281\",\"0.0-78.0\",\"\",\"\",\"3-3\",\"7794\",\"38\",\"1\",\"Training\",\"Stims/Figures/86-C-30-1.bmp\",\"na:ma:la\",\"Down\",\"38\",\"5\",\"11\",\"1\",\"S\",\"C\",\"75\"
\"\",\"\",\"approach-retreat\",\"79\",\"626306\",\"0.0-79.0\",\"\",\"\",\"3-3\",\"4510\",\"40\",\"1\",\"Training\",\"Stims/Figures/44-C-30-3.bmp\",\"na:ma:la\",\"Up\",\"40\",\"5\",\"12\",\"1\",\"S\",\"C\",\"76\"
\"\",\"\",\"approach-retreat\",\"80\",\"632234\",\"0.0-80.0\",\"\",\"\",\"3-3\",\"4410\",\"39\",\"1\",\"Training\",\"Stims/Figures/118-J-0-2.bmp\",\"ta:pa:ta\",\"Right\",\"39\",\"5\",\"13\",\"1\",\"P\",\"C\",\"77\"
\"\",\"\",\"approach-retreat\",\"81\",\"639165\",\"0.0-81.0\",\"\",\"\",\"3-3\",\"5412\",\"37\",\"1\",\"Training\",\"Stims/Figures/87-J-10-4.bmp\",\"ta:pa:ta\",\"Left\",\"37\",\"5\",\"14\",\"1\",\"P\",\"C\",\"78\"
\"\",\"\",\"approach-retreat\",\"82\",\"644992\",\"0.0-82.0\",\"\",\"\",\"3-3\",\"4303\",\"40\",\"1\",\"Training\",\"Stims/Figures/139-J-0-2.bmp\",\"ta:pa:ta\",\"Down\",\"40\",\"5\",\"15\",\"1\",\"P\",\"C\",\"79\"
\"\",\"\",\"approach-retreat\",\"83\",\"651803\",\"0.0-83.0\",\"\",\"\",\"3-3\",\"5293\",\"40\",\"1\",\"Training\",\"Stims/Figures/128-C-30-3.bmp\",\"na:ma:la\",\"Up\",\"40\",\"5\",\"16\",\"1\",\"S\",\"C\",\"80\"
\"\",\"\",\"approach-retreat\",\"84\",\"658187\",\"0.0-84.0\",\"\",\"\",\"3-3\",\"4869\",\"38\",\"1\",\"Training\",\"Stims/Figures/139-C-20-2.bmp\",\"na:ma:la\",\"Down\",\"38\",\"6\",\"1\",\"1\",\"S\",\"C\",\"81\"
\"\",\"\",\"approach-retreat\",\"85\",\"664700\",\"0.0-85.0\",\"\",\"\",\"3-3\",\"4997\",\"38\",\"1\",\"Training\",\"Stims/Figures/74-J-10-4.bmp\",\"ta:pa:ta\",\"Up\",\"38\",\"6\",\"2\",\"1\",\"P\",\"C\",\"82\"
\"\",\"\",\"approach-retreat\",\"86\",\"670783\",\"0.0-86.0\",\"\",\"\",\"3-3\",\"4567\",\"40\",\"1\",\"Training\",\"Stims/Figures/118-J-0-2.bmp\",\"ta:pa:ta\",\"Down\",\"40\",\"6\",\"3\",\"1\",\"P\",\"C\",\"83\"
\"\",\"\",\"approach-retreat\",\"87\",\"676302\",\"0.0-87.0\",\"\",\"\",\"3-3\",\"3989\",\"40\",\"1\",\"Training\",\"Stims/Figures/57-J-0-1.bmp\",\"ta:pa:ta\",\"Down\",\"40\",\"6\",\"4\",\"1\",\"P\",\"C\",\"84\"
\"\",\"\",\"approach-retreat\",\"88\",\"682120\",\"0.0-88.0\",\"\",\"\",\"3-3\",\"4305\",\"38\",\"1\",\"Training\",\"Stims/Figures/87-C-20-4.bmp\",\"na:ma:la\",\"Down\",\"38\",\"6\",\"5\",\"1\",\"S\",\"C\",\"85\"
\"\",\"\",\"approach-retreat\",\"89\",\"688123\",\"0.0-89.0\",\"\",\"\",\"3-3\",\"4485\",\"39\",\"1\",\"Training\",\"Stims/Figures/87-J-10-4.bmp\",\"ta:pa:ta\",\"Right\",\"39\",\"6\",\"6\",\"1\",\"P\",\"C\",\"86\"
\"\",\"\",\"approach-retreat\",\"90\",\"693709\",\"0.0-90.0\",\"\",\"\",\"3-3\",\"4059\",\"37\",\"1\",\"Training\",\"Stims/Figures/128-J-10-3.bmp\",\"ta:pa:ta\",\"Left\",\"37\",\"6\",\"7\",\"1\",\"P\",\"C\",\"87\"
\"\",\"\",\"approach-retreat\",\"91\",\"699364\",\"0.0-91.0\",\"\",\"\",\"3-3\",\"4140\",\"39\",\"1\",\"Training\",\"Stims/Figures/86-J-0-1.bmp\",\"ta:pa:ta\",\"Right\",\"39\",\"6\",\"8\",\"1\",\"P\",\"C\",\"88\"
\"\",\"\",\"approach-retreat\",\"92\",\"704860\",\"0.0-92.0\",\"\",\"\",\"3-3\",\"3977\",\"38\",\"1\",\"Training\",\"Stims/Figures/44-J-10-3.bmp\",\"ta:pa:ta\",\"Up\",\"38\",\"6\",\"9\",\"1\",\"P\",\"C\",\"89\"
\"\",\"\",\"approach-retreat\",\"93\",\"710528\",\"0.0-93.0\",\"\",\"\",\"3-3\",\"4146\",\"38\",\"0\",\"Training\",\"Stims/Figures/118-C-20-2.bmp\",\"na:ma:la\",\"Up\",\"40\",\"6\",\"10\",\"1\",\"S\",\"C\",\"90\"
\"\",\"\",\"approach-retreat\",\"94\",\"717318\",\"0.0-94.0\",\"\",\"\",\"3-3\",\"5276\",\"37\",\"1\",\"Training\",\"Stims/Figures/139-J-0-2.bmp\",\"ta:pa:ta\",\"Left\",\"37\",\"6\",\"11\",\"1\",\"P\",\"C\",\"91\"
\"\",\"\",\"approach-retreat\",\"95\",\"722995\",\"0.0-95.0\",\"\",\"\",\"3-3\",\"4164\",\"39\",\"1\",\"Training\",\"Stims/Figures/44-C-30-3.bmp\",\"na:ma:la\",\"Left\",\"39\",\"6\",\"12\",\"1\",\"S\",\"C\",\"92\"
\"\",\"\",\"approach-retreat\",\"96\",\"728584\",\"0.0-96.0\",\"\",\"\",\"3-3\",\"4073\",\"40\",\"1\",\"Training\",\"Stims/Figures/74-C-20-4.bmp\",\"na:ma:la\",\"Up\",\"40\",\"6\",\"13\",\"1\",\"S\",\"C\",\"93\"
\"\",\"\",\"approach-retreat\",\"97\",\"734116\",\"0.0-97.0\",\"\",\"\",\"3-3\",\"4019\",\"37\",\"1\",\"Training\",\"Stims/Figures/128-C-30-3.bmp\",\"na:ma:la\",\"Right\",\"37\",\"6\",\"14\",\"1\",\"S\",\"C\",\"94\"
\"\",\"\",\"approach-retreat\",\"98\",\"739761\",\"0.0-98.0\",\"\",\"\",\"3-3\",\"4128\",\"39\",\"1\",\"Training\",\"Stims/Figures/86-C-30-1.bmp\",\"na:ma:la\",\"Left\",\"39\",\"6\",\"15\",\"1\",\"S\",\"C\",\"95\"
\"\",\"\",\"approach-retreat\",\"99\",\"745316\",\"0.0-99.0\",\"\",\"\",\"3-3\",\"4037\",\"37\",\"1\",\"Training\",\"Stims/Figures/57-C-30-1.bmp\",\"na:ma:la\",\"Right\",\"37\",\"6\",\"16\",\"1\",\"S\",\"C\",\"96\"
\"\",\"\",\"approach-retreat\",\"100\",\"750828\",\"0.0-100.0\",\"\",\"\",\"3-3\",\"3991\",\"40\",\"1\",\"Training\",\"Stims/Figures/44-C-30-3.bmp\",\"na:ma:la\",\"Up\",\"40\",\"7\",\"1\",\"1\",\"S\",\"C\",\"97\"
\"\",\"\",\"approach-retreat\",\"101\",\"756365\",\"0.0-101.0\",\"\",\"\",\"3-3\",\"4022\",\"39\",\"1\",\"Training\",\"Stims/Figures/128-C-30-3.bmp\",\"na:ma:la\",\"Left\",\"39\",\"7\",\"2\",\"1\",\"S\",\"C\",\"98\"
\"\",\"\",\"approach-retreat\",\"102\",\"762098\",\"0.0-102.0\",\"\",\"\",\"3-3\",\"4217\",\"39\",\"1\",\"Training\",\"Stims/Figures/57-J-0-1.bmp\",\"ta:pa:ta\",\"Right\",\"39\",\"7\",\"3\",\"1\",\"P\",\"C\",\"99\"
\"\",\"\",\"approach-retreat\",\"103\",\"767668\",\"0.0-103.0\",\"\",\"\",\"3-3\",\"4049\",\"39\",\"1\",\"Training\",\"Stims/Figures/118-J-0-2.bmp\",\"ta:pa:ta\",\"Right\",\"39\",\"7\",\"4\",\"1\",\"P\",\"C\",\"100\"
\"\",\"\",\"approach-retreat\",\"104\",\"774258\",\"0.0-104.0\",\"\",\"\",\"3-3\",\"5070\",\"38\",\"1\",\"Training\",\"Stims/Figures/139-J-0-2.bmp\",\"ta:pa:ta\",\"Up\",\"38\",\"7\",\"5\",\"1\",\"P\",\"C\",\"101\"
\"\",\"\",\"approach-retreat\",\"105\",\"780549\",\"0.0-105.0\",\"\",\"\",\"3-3\",\"4773\",\"39\",\"1\",\"Training\",\"Stims/Figures/118-C-20-2.bmp\",\"na:ma:la\",\"Left\",\"39\",\"7\",\"6\",\"1\",\"S\",\"C\",\"102\"
\"\",\"\",\"approach-retreat\",\"106\",\"786834\",\"0.0-106.0\",\"\",\"\",\"3-3\",\"4759\",\"40\",\"0\",\"Training\",\"Stims/Figures/57-C-30-1.bmp\",\"na:ma:la\",\"Down\",\"38\",\"7\",\"7\",\"1\",\"S\",\"C\",\"103\"
\"\",\"\",\"approach-retreat\",\"107\",\"792456\",\"0.0-107.0\",\"\",\"\",\"3-3\",\"4096\",\"40\",\"1\",\"Training\",\"Stims/Figures/86-J-0-1.bmp\",\"ta:pa:ta\",\"Down\",\"40\",\"7\",\"8\",\"1\",\"P\",\"C\",\"104\"
\"\",\"\",\"approach-retreat\",\"108\",\"798367\",\"0.0-108.0\",\"\",\"\",\"3-3\",\"4379\",\"37\",\"1\",\"Training\",\"Stims/Figures/44-J-10-3.bmp\",\"ta:pa:ta\",\"Left\",\"37\",\"7\",\"9\",\"1\",\"P\",\"C\",\"105\"
\"\",\"\",\"approach-retreat\",\"109\",\"804692\",\"0.0-109.0\",\"\",\"\",\"3-3\",\"4808\",\"40\",\"1\",\"Training\",\"Stims/Figures/128-J-10-3.bmp\",\"ta:pa:ta\",\"Down\",\"40\",\"7\",\"10\",\"1\",\"P\",\"C\",\"106\"
\"\",\"\",\"approach-retreat\",\"110\",\"810426\",\"0.0-110.0\",\"\",\"\",\"3-3\",\"4203\",\"37\",\"1\",\"Training\",\"Stims/Figures/87-J-10-4.bmp\",\"ta:pa:ta\",\"Left\",\"37\",\"7\",\"11\",\"1\",\"P\",\"C\",\"107\"
\"\",\"\",\"approach-retreat\",\"111\",\"816491\",\"0.0-111.0\",\"\",\"\",\"3-3\",\"4534\",\"37\",\"1\",\"Training\",\"Stims/Figures/139-C-20-2.bmp\",\"na:ma:la\",\"Right\",\"37\",\"7\",\"12\",\"1\",\"S\",\"C\",\"108\"
\"\",\"\",\"approach-retreat\",\"112\",\"822734\",\"0.0-112.0\",\"\",\"\",\"3-3\",\"4716\",\"40\",\"1\",\"Training\",\"Stims/Figures/74-C-20-4.bmp\",\"na:ma:la\",\"Up\",\"40\",\"7\",\"13\",\"1\",\"S\",\"C\",\"109\"
\"\",\"\",\"approach-retreat\",\"113\",\"828204\",\"0.0-113.0\",\"\",\"\",\"3-3\",\"3953\",\"39\",\"1\",\"Training\",\"Stims/Figures/74-J-10-4.bmp\",\"ta:pa:ta\",\"Right\",\"39\",\"7\",\"14\",\"1\",\"P\",\"C\",\"110\"
\"\",\"\",\"approach-retreat\",\"114\",\"833904\",\"0.0-114.0\",\"\",\"\",\"3-3\",\"4183\",\"38\",\"1\",\"Training\",\"Stims/Figures/86-C-30-1.bmp\",\"na:ma:la\",\"Down\",\"38\",\"7\",\"15\",\"1\",\"S\",\"C\",\"111\"
\"\",\"\",\"approach-retreat\",\"115\",\"840250\",\"0.0-115.0\",\"\",\"\",\"3-3\",\"4831\",\"40\",\"1\",\"Training\",\"Stims/Figures/87-C-20-4.bmp\",\"na:ma:la\",\"Up\",\"40\",\"7\",\"16\",\"1\",\"S\",\"C\",\"112\"
\"\",\"\",\"approach-retreat\",\"116\",\"846408\",\"0.0-116.0\",\"\",\"\",\"3-3\",\"4645\",\"38\",\"1\",\"Training\",\"Stims/Figures/57-J-0-1.bmp\",\"ta:pa:ta\",\"Up\",\"38\",\"8\",\"1\",\"1\",\"P\",\"C\",\"113\"
\"\",\"\",\"approach-retreat\",\"117\",\"853059\",\"0.0-117.0\",\"\",\"\",\"3-3\",\"5119\",\"39\",\"1\",\"Training\",\"Stims/Figures/87-C-20-4.bmp\",\"na:ma:la\",\"Left\",\"39\",\"8\",\"2\",\"1\",\"S\",\"C\",\"114\"
\"\",\"\",\"approach-retreat\",\"118\",\"858628\",\"0.0-118.0\",\"\",\"\",\"3-3\",\"4054\",\"37\",\"1\",\"Training\",\"Stims/Figures/118-J-0-2.bmp\",\"ta:pa:ta\",\"Left\",\"37\",\"8\",\"3\",\"1\",\"P\",\"C\",\"115\"
\"\",\"\",\"approach-retreat\",\"119\",\"864228\",\"0.0-119.0\",\"\",\"\",\"3-3\",\"4072\",\"40\",\"1\",\"Training\",\"Stims/Figures/139-J-0-2.bmp\",\"ta:pa:ta\",\"Down\",\"40\",\"8\",\"4\",\"1\",\"P\",\"C\",\"116\"
\"\",\"\",\"approach-retreat\",\"120\",\"869908\",\"0.0-120.0\",\"\",\"\",\"3-3\",\"4162\",\"37\",\"1\",\"Training\",\"Stims/Figures/86-J-0-1.bmp\",\"ta:pa:ta\",\"Left\",\"37\",\"8\",\"5\",\"1\",\"P\",\"C\",\"117\"
\"\",\"\",\"approach-retreat\",\"121\",\"875649\",\"0.0-121.0\",\"\",\"\",\"3-3\",\"4214\",\"37\",\"1\",\"Training\",\"Stims/Figures/128-J-10-3.bmp\",\"ta:pa:ta\",\"Left\",\"37\",\"8\",\"6\",\"1\",\"P\",\"C\",\"118\"
\"\",\"\",\"approach-retreat\",\"122\",\"881612\",\"0.0-122.0\",\"\",\"\",\"3-3\",\"4432\",\"37\",\"1\",\"Training\",\"Stims/Figures/74-C-20-4.bmp\",\"na:ma:la\",\"Right\",\"37\",\"8\",\"7\",\"1\",\"S\",\"C\",\"119\"
\"\",\"\",\"approach-retreat\",\"123\",\"887139\",\"0.0-123.0\",\"\",\"\",\"3-3\",\"4000\",\"37\",\"1\",\"Training\",\"Stims/Figures/139-C-20-2.bmp\",\"na:ma:la\",\"Right\",\"37\",\"8\",\"8\",\"1\",\"S\",\"C\",\"120\"
\"\",\"\",\"approach-retreat\",\"124\",\"892752\",\"0.0-124.0\",\"\",\"\",\"3-3\",\"4095\",\"39\",\"1\",\"Training\",\"Stims/Figures/44-J-10-3.bmp\",\"ta:pa:ta\",\"Right\",\"39\",\"8\",\"9\",\"1\",\"P\",\"C\",\"121\"
\"\",\"\",\"approach-retreat\",\"125\",\"898370\",\"0.0-125.0\",\"\",\"\",\"3-3\",\"4102\",\"38\",\"1\",\"Training\",\"Stims/Figures/87-J-10-4.bmp\",\"ta:pa:ta\",\"Up\",\"38\",\"8\",\"10\",\"1\",\"P\",\"C\",\"122\"
\"\",\"\",\"approach-retreat\",\"126\",\"904036\",\"0.0-126.0\",\"\",\"\",\"3-3\",\"4152\",\"40\",\"0\",\"Training\",\"Stims/Figures/128-C-30-3.bmp\",\"na:ma:la\",\"Down\",\"38\",\"8\",\"11\",\"1\",\"S\",\"C\",\"123\"
\"\",\"\",\"approach-retreat\",\"127\",\"909607\",\"0.0-127.0\",\"\",\"\",\"3-3\",\"4058\",\"40\",\"1\",\"Training\",\"Stims/Figures/57-C-30-1.bmp\",\"na:ma:la\",\"Up\",\"40\",\"8\",\"12\",\"1\",\"S\",\"C\",\"124\"
\"\",\"\",\"approach-retreat\",\"128\",\"915171\",\"0.0-128.0\",\"\",\"\",\"3-3\",\"4046\",\"37\",\"1\",\"Training\",\"Stims/Figures/86-C-30-1.bmp\",\"na:ma:la\",\"Right\",\"37\",\"8\",\"13\",\"1\",\"S\",\"C\",\"125\"
\"\",\"\",\"approach-retreat\",\"129\",\"920725\",\"0.0-129.0\",\"\",\"\",\"3-3\",\"4030\",\"40\",\"1\",\"Training\",\"Stims/Figures/118-C-20-2.bmp\",\"na:ma:la\",\"Up\",\"40\",\"8\",\"14\",\"1\",\"S\",\"C\",\"126\"
\"\",\"\",\"approach-retreat\",\"130\",\"926671\",\"0.0-130.0\",\"\",\"\",\"3-3\",\"4431\",\"38\",\"1\",\"Training\",\"Stims/Figures/44-C-30-3.bmp\",\"na:ma:la\",\"Down\",\"38\",\"8\",\"15\",\"1\",\"S\",\"C\",\"127\"
\"\",\"\",\"approach-retreat\",\"131\",\"932979\",\"0.0-131.0\",\"\",\"\",\"3-3\",\"4792\",\"40\",\"1\",\"Training\",\"Stims/Figures/74-J-10-4.bmp\",\"ta:pa:ta\",\"Down\",\"40\",\"8\",\"16\",\"1\",\"P\",\"C\",\"128\"
\"\",\"\",\"approach-retreat\",\"132\",\"938478\",\"0.0-132.0\",\"\",\"\",\"3-3\",\"3977\",\"40\",\"1\",\"Training\",\"Stims/Figures/87-C-20-4.bmp\",\"na:ma:la\",\"Up\",\"40\",\"9\",\"1\",\"1\",\"S\",\"C\",\"129\"
\"\",\"\",\"approach-retreat\",\"133\",\"943993\",\"0.0-133.0\",\"\",\"\",\"3-3\",\"3999\",\"40\",\"1\",\"Training\",\"Stims/Figures/57-C-30-1.bmp\",\"na:ma:la\",\"Up\",\"40\",\"9\",\"2\",\"1\",\"S\",\"C\",\"130\"
\"\",\"\",\"approach-retreat\",\"134\",\"949499\",\"0.0-134.0\",\"\",\"\",\"3-3\",\"3992\",\"39\",\"1\",\"Training\",\"Stims/Figures/128-C-30-3.bmp\",\"na:ma:la\",\"Left\",\"39\",\"9\",\"3\",\"1\",\"S\",\"C\",\"131\"
\"\",\"\",\"approach-retreat\",\"135\",\"954985\",\"0.0-135.0\",\"\",\"\",\"3-3\",\"3972\",\"37\",\"1\",\"Training\",\"Stims/Figures/74-J-10-4.bmp\",\"ta:pa:ta\",\"Left\",\"37\",\"9\",\"4\",\"1\",\"P\",\"C\",\"132\"
\"\",\"\",\"approach-retreat\",\"136\",\"960575\",\"0.0-136.0\",\"\",\"\",\"3-3\",\"4073\",\"39\",\"1\",\"Training\",\"Stims/Figures/44-J-10-3.bmp\",\"ta:pa:ta\",\"Right\",\"39\",\"9\",\"5\",\"1\",\"P\",\"C\",\"133\"
\"\",\"\",\"approach-retreat\",\"137\",\"966096\",\"0.0-137.0\",\"\",\"\",\"3-3\",\"4006\",\"37\",\"1\",\"Training\",\"Stims/Figures/57-J-0-1.bmp\",\"ta:pa:ta\",\"Left\",\"37\",\"9\",\"6\",\"1\",\"P\",\"C\",\"134\"
\"\",\"\",\"approach-retreat\",\"138\",\"971623\",\"0.0-138.0\",\"\",\"\",\"3-3\",\"4010\",\"37\",\"1\",\"Training\",\"Stims/Figures/139-C-20-2.bmp\",\"na:ma:la\",\"Right\",\"37\",\"9\",\"7\",\"1\",\"S\",\"C\",\"135\"
\"\",\"\",\"approach-retreat\",\"139\",\"977177\",\"0.0-139.0\",\"\",\"\",\"3-3\",\"4033\",\"38\",\"1\",\"Training\",\"Stims/Figures/74-C-20-4.bmp\",\"na:ma:la\",\"Down\",\"38\",\"9\",\"8\",\"1\",\"S\",\"C\",\"136\"
\"\",\"\",\"approach-retreat\",\"140\",\"982955\",\"0.0-140.0\",\"\",\"\",\"3-3\",\"4263\",\"40\",\"1\",\"Training\",\"Stims/Figures/86-J-0-1.bmp\",\"ta:pa:ta\",\"Down\",\"40\",\"9\",\"9\",\"1\",\"P\",\"C\",\"137\"
\"\",\"\",\"approach-retreat\",\"141\",\"988465\",\"0.0-141.0\",\"\",\"\",\"3-3\",\"3994\",\"37\",\"1\",\"Training\",\"Stims/Figures/139-J-0-2.bmp\",\"ta:pa:ta\",\"Left\",\"37\",\"9\",\"10\",\"1\",\"P\",\"C\",\"138\"
\"\",\"\",\"approach-retreat\",\"142\",\"993992\",\"0.0-142.0\",\"\",\"\",\"3-3\",\"4000\",\"39\",\"0\",\"Training\",\"Stims/Figures/86-C-30-1.bmp\",\"na:ma:la\",\"Right\",\"37\",\"9\",\"11\",\"1\",\"S\",\"C\",\"139\"
\"\",\"\",\"approach-retreat\",\"143\",\"999628\",\"0.0-143.0\",\"\",\"\",\"3-3\",\"4120\",\"40\",\"1\",\"Training\",\"Stims/Figures/118-C-20-2.bmp\",\"na:ma:la\",\"Up\",\"40\",\"9\",\"12\",\"1\",\"S\",\"C\",\"140\"
\"\",\"\",\"approach-retreat\",\"144\",\"1005276\",\"0.0-144.0\",\"\",\"\",\"3-3\",\"4131\",\"38\",\"1\",\"Training\",\"Stims/Figures/44-C-30-3.bmp\",\"na:ma:la\",\"Down\",\"38\",\"9\",\"13\",\"1\",\"S\",\"C\",\"141\"
\"\",\"\",\"approach-retreat\",\"145\",\"1010887\",\"0.0-145.0\",\"\",\"\",\"3-3\",\"4092\",\"40\",\"1\",\"Training\",\"Stims/Figures/87-J-10-4.bmp\",\"ta:pa:ta\",\"Down\",\"40\",\"9\",\"14\",\"1\",\"P\",\"C\",\"142\"
\"\",\"\",\"approach-retreat\",\"146\",\"1017600\",\"0.0-146.0\",\"\",\"\",\"3-3\",\"5199\",\"38\",\"1\",\"Training\",\"Stims/Figures/128-J-10-3.bmp\",\"ta:pa:ta\",\"Up\",\"38\",\"9\",\"15\",\"1\",\"P\",\"C\",\"143\"
\"\",\"\",\"approach-retreat\",\"147\",\"1023637\",\"0.0-147.0\",\"\",\"\",\"3-3\",\"4512\",\"39\",\"1\",\"Training\",\"Stims/Figures/118-J-0-2.bmp\",\"ta:pa:ta\",\"Right\",\"39\",\"9\",\"16\",\"1\",\"P\",\"C\",\"144\"
\"101389\",\"\",\"instructions\",\"148\",\"1125027\",\"0.0-148.0\",\"[{\"\"page_index\"\":0,\"\"viewing_time\"\":101385}]\",\"\",\"\",\"\",\"\",\"\",\"\",\"\",\"\",\"\",\"\",\"\",\"\",\"\",\"\",\"\",\"\"
\"\",\"\",\"approach-retreat\",\"149\",\"1130812\",\"0.0-149.0\",\"\",\"\",\"3-3\",\"4263\",\"40\",\"1\",\"Testing\",\"Stims/Figures/84-J-0-2.bmp\",\"ta:pa:ta\",\"Down\",\"40\",\"1\",\"1\",\"1\",\"P\",\"C\",\"1\"
\"\",\"\",\"approach-retreat\",\"150\",\"1136429\",\"0.0-150.0\",\"\",\"\",\"3-3\",\"4105\",\"37\",\"1\",\"Testing\",\"Stims/Figures/57-C-30-1.bmp\",\"na:ma:la\",\"Right\",\"37\",\"1\",\"2\",\"1\",\"S\",\"C\",\"2\"
\"\",\"\",\"approach-retreat\",\"151\",\"1142845\",\"0.0-151.0\",\"\",\"\",\"3-3\",\"4884\",\"40\",\"0\",\"Testing\",\"Stims/Figures/128-J-10-3.bmp\",\"ta:pa:ta\",\"Up\",\"38\",\"1\",\"3\",\"1\",\"P\",\"C\",\"3\"
\"\",\"\",\"approach-retreat\",\"152\",\"1148773\",\"0.0-152.0\",\"\",\"\",\"3-3\",\"4392\",\"40\",\"1\",\"Testing\",\"Stims/Figures/86-J-0-1.bmp\",\"ta:pa:ta\",\"Down\",\"40\",\"1\",\"4\",\"1\",\"P\",\"C\",\"4\"
\"\",\"\",\"approach-retreat\",\"153\",\"1154627\",\"0.0-153.0\",\"\",\"\",\"3-3\",\"4322\",\"40\",\"1\",\"Testing\",\"Stims/Figures/139-C-20-2.bmp\",\"na:ma:la\",\"Up\",\"40\",\"1\",\"5\",\"1\",\"S\",\"C\",\"5\"
\"\",\"\",\"approach-retreat\",\"154\",\"1161045\",\"0.0-154.0\",\"\",\"\",\"3-3\",\"4885\",\"38\",\"1\",\"Testing\",\"Stims/Figures/144-J-10-3.bmp\",\"ta:pa:ta\",\"Up\",\"38\",\"1\",\"6\",\"1\",\"P\",\"C\",\"6\"
\"\",\"\",\"approach-retreat\",\"155\",\"1166892\",\"0.0-155.0\",\"\",\"\",\"3-3\",\"4318\",\"40\",\"1\",\"Testing\",\"Stims/Figures/87-J-10-4.bmp\",\"ta:pa:ta\",\"Down\",\"40\",\"1\",\"7\",\"1\",\"P\",\"C\",\"7\"
\"\",\"\",\"approach-retreat\",\"156\",\"1172523\",\"0.0-156.0\",\"\",\"\",\"3-3\",\"4099\",\"37\",\"1\",\"Testing\",\"Stims/Figures/128-C-30-3.bmp\",\"na:ma:la\",\"Right\",\"37\",\"1\",\"8\",\"1\",\"S\",\"C\",\"8\"
\"\",\"\",\"approach-retreat\",\"157\",\"1178465\",\"0.0-157.0\",\"\",\"\",\"3-3\",\"4411\",\"39\",\"1\",\"Testing\",\"Stims/Figures/57-J-0-1.bmp\",\"ta:pa:ta\",\"Right\",\"39\",\"1\",\"9\",\"1\",\"P\",\"C\",\"9\"
\"\",\"\",\"approach-retreat\",\"158\",\"1184335\",\"0.0-158.0\",\"\",\"\",\"3-3\",\"4342\",\"38\",\"1\",\"Testing\",\"Stims/Figures/71-J-0-1.bmp\",\"ta:pa:ta\",\"Up\",\"38\",\"1\",\"10\",\"1\",\"P\",\"C\",\"10\"
\"\",\"\",\"approach-retreat\",\"159\",\"1190480\",\"0.0-159.0\",\"\",\"\",\"3-3\",\"4612\",\"39\",\"1\",\"Testing\",\"Stims/Figures/102-C-20-4.bmp\",\"na:ma:la\",\"Left\",\"39\",\"1\",\"11\",\"1\",\"S\",\"C\",\"11\"
\"\",\"\",\"approach-retreat\",\"160\",\"1196162\",\"0.0-160.0\",\"\",\"\",\"3-3\",\"4149\",\"39\",\"1\",\"Testing\",\"Stims/Figures/44-C-30-3.bmp\",\"na:ma:la\",\"Left\",\"39\",\"1\",\"12\",\"1\",\"S\",\"C\",\"12\"
\"\",\"\",\"approach-retreat\",\"161\",\"1201824\",\"0.0-161.0\",\"\",\"\",\"3-3\",\"4132\",\"38\",\"1\",\"Testing\",\"Stims/Figures/144-C-30-3.bmp\",\"na:ma:la\",\"Down\",\"38\",\"1\",\"13\",\"1\",\"S\",\"C\",\"13\"
\"\",\"\",\"approach-retreat\",\"162\",\"1207481\",\"0.0-162.0\",\"\",\"\",\"3-3\",\"4126\",\"37\",\"1\",\"Testing\",\"Stims/Figures/84-C-20-2.bmp\",\"na:ma:la\",\"Right\",\"37\",\"1\",\"14\",\"1\",\"S\",\"C\",\"14\"
\"\",\"\",\"approach-retreat\",\"163\",\"1213438\",\"0.0-163.0\",\"\",\"\",\"3-3\",\"4431\",\"39\",\"1\",\"Testing\",\"Stims/Figures/139-J-0-2.bmp\",\"ta:pa:ta\",\"Right\",\"39\",\"1\",\"15\",\"1\",\"P\",\"C\",\"15\"
\"\",\"\",\"approach-retreat\",\"164\",\"1219064\",\"0.0-164.0\",\"\",\"\",\"3-3\",\"4093\",\"38\",\"1\",\"Testing\",\"Stims/Figures/74-C-20-4.bmp\",\"na:ma:la\",\"Down\",\"38\",\"1\",\"16\",\"1\",\"S\",\"C\",\"16\"
\"\",\"\",\"approach-retreat\",\"165\",\"1224850\",\"0.0-165.0\",\"\",\"\",\"3-3\",\"4250\",\"40\",\"1\",\"Testing\",\"Stims/Figures/74-J-10-4.bmp\",\"ta:pa:ta\",\"Down\",\"40\",\"1\",\"17\",\"1\",\"P\",\"C\",\"17\"
\"\",\"\",\"approach-retreat\",\"166\",\"1230572\",\"0.0-166.0\",\"\",\"\",\"3-3\",\"4191\",\"37\",\"1\",\"Testing\",\"Stims/Figures/44-J-10-3.bmp\",\"ta:pa:ta\",\"Left\",\"37\",\"1\",\"18\",\"1\",\"P\",\"C\",\"18\"
\"\",\"\",\"approach-retreat\",\"167\",\"1236437\",\"0.0-167.0\",\"\",\"\",\"3-3\",\"4335\",\"37\",\"1\",\"Testing\",\"Stims/Figures/87-C-20-4.bmp\",\"na:ma:la\",\"Right\",\"37\",\"1\",\"19\",\"1\",\"S\",\"C\",\"19\"
\"\",\"\",\"approach-retreat\",\"168\",\"1242197\",\"0.0-168.0\",\"\",\"\",\"3-3\",\"4230\",\"40\",\"1\",\"Testing\",\"Stims/Figures/71-C-30-1.bmp\",\"na:ma:la\",\"Up\",\"40\",\"1\",\"20\",\"1\",\"S\",\"C\",\"20\"
\"\",\"\",\"approach-retreat\",\"169\",\"1247952\",\"0.0-169.0\",\"\",\"\",\"3-3\",\"4222\",\"37\",\"1\",\"Testing\",\"Stims/Figures/118-J-0-2.bmp\",\"ta:pa:ta\",\"Left\",\"37\",\"1\",\"21\",\"1\",\"P\",\"C\",\"21\"
\"\",\"\",\"approach-retreat\",\"170\",\"1253747\",\"0.0-170.0\",\"\",\"\",\"3-3\",\"4264\",\"40\",\"1\",\"Testing\",\"Stims/Figures/86-C-30-1.bmp\",\"na:ma:la\",\"Up\",\"40\",\"1\",\"22\",\"1\",\"S\",\"C\",\"22\"
\"\",\"\",\"approach-retreat\",\"171\",\"1259735\",\"0.0-171.0\",\"\",\"\",\"3-3\",\"4456\",\"37\",\"1\",\"Testing\",\"Stims/Figures/102-J-10-4.bmp\",\"ta:pa:ta\",\"Left\",\"37\",\"1\",\"23\",\"1\",\"P\",\"C\",\"23\"
\"\",\"\",\"approach-retreat\",\"172\",\"1265949\",\"0.0-172.0\",\"\",\"\",\"3-3\",\"4681\",\"39\",\"1\",\"Testing\",\"Stims/Figures/118-C-20-2.bmp\",\"na:ma:la\",\"Left\",\"39\",\"1\",\"24\",\"1\",\"S\",\"C\",\"24\"
\"\",\"\",\"approach-retreat\",\"173\",\"1271495\",\"0.0-173.0\",\"\",\"\",\"3-3\",\"4023\",\"37\",\"1\",\"Testing\",\"Stims/Figures/74-J-10-4.bmp\",\"ta:pa:ta\",\"Left\",\"37\",\"2\",\"1\",\"1\",\"P\",\"C\",\"25\"
\"\",\"\",\"approach-retreat\",\"174\",\"1277592\",\"0.0-174.0\",\"\",\"\",\"3-3\",\"4566\",\"37\",\"1\",\"Testing\",\"Stims/Figures/44-C-30-3.bmp\",\"na:ma:la\",\"Right\",\"37\",\"2\",\"2\",\"1\",\"S\",\"C\",\"26\"
\"\",\"\",\"approach-retreat\",\"175\",\"1283469\",\"0.0-175.0\",\"\",\"\",\"3-3\",\"4343\",\"40\",\"1\",\"Testing\",\"Stims/Figures/128-J-10-3.bmp\",\"ta:pa:ta\",\"Down\",\"40\",\"2\",\"3\",\"1\",\"P\",\"C\",\"27\"
\"\",\"\",\"approach-retreat\",\"176\",\"1290240\",\"0.0-176.0\",\"\",\"\",\"3-3\",\"5240\",\"38\",\"1\",\"Testing\",\"Stims/Figures/86-J-0-1.bmp\",\"ta:pa:ta\",\"Up\",\"38\",\"2\",\"4\",\"1\",\"P\",\"C\",\"28\"
\"\",\"\",\"approach-retreat\",\"177\",\"1297308\",\"0.0-177.0\",\"\",\"\",\"3-3\",\"5539\",\"38\",\"1\",\"Testing\",\"Stims/Figures/144-J-10-3.bmp\",\"ta:pa:ta\",\"Up\",\"38\",\"2\",\"5\",\"1\",\"P\",\"C\",\"29\"
\"\",\"\",\"approach-retreat\",\"178\",\"1303326\",\"0.0-178.0\",\"\",\"\",\"3-3\",\"4488\",\"39\",\"1\",\"Testing\",\"Stims/Figures/102-J-10-4.bmp\",\"ta:pa:ta\",\"Right\",\"39\",\"2\",\"6\",\"1\",\"P\",\"C\",\"30\"
\"\",\"\",\"approach-retreat\",\"179\",\"1309121\",\"0.0-179.0\",\"\",\"\",\"3-3\",\"4265\",\"38\",\"1\",\"Testing\",\"Stims/Figures/44-J-10-3.bmp\",\"ta:pa:ta\",\"Up\",\"38\",\"2\",\"7\",\"1\",\"P\",\"C\",\"31\"
\"\",\"\",\"approach-retreat\",\"180\",\"1314985\",\"0.0-180.0\",\"\",\"\",\"3-3\",\"4332\",\"39\",\"1\",\"Testing\",\"Stims/Figures/71-J-0-1.bmp\",\"ta:pa:ta\",\"Right\",\"39\",\"2\",\"8\",\"1\",\"P\",\"C\",\"32\"
\"\",\"\",\"approach-retreat\",\"181\",\"1320614\",\"0.0-181.0\",\"\",\"\",\"3-3\",\"4099\",\"38\",\"1\",\"Testing\",\"Stims/Figures/86-C-30-1.bmp\",\"na:ma:la\",\"Down\",\"38\",\"2\",\"9\",\"1\",\"S\",\"C\",\"33\"
\"\",\"\",\"approach-retreat\",\"182\",\"1326257\",\"0.0-182.0\",\"\",\"\",\"3-3\",\"4113\",\"40\",\"0\",\"Testing\",\"Stims/Figures/71-C-30-1.bmp\",\"na:ma:la\",\"Down\",\"38\",\"2\",\"10\",\"1\",\"S\",\"C\",\"34\"
\"\",\"\",\"approach-retreat\",\"183\",\"1335209\",\"0.0-183.0\",\"\",\"\",\"3-3\",\"7423\",\"39\",\"0\",\"Testing\",\"Stims/Figures/74-C-20-4.bmp\",\"na:ma:la\",\"Right\",\"37\",\"2\",\"11\",\"1\",\"S\",\"C\",\"35\"
\"\",\"\",\"approach-retreat\",\"184\",\"1340886\",\"0.0-184.0\",\"\",\"\",\"3-3\",\"4149\",\"40\",\"1\",\"Testing\",\"Stims/Figures/118-J-0-2.bmp\",\"ta:pa:ta\",\"Down\",\"40\",\"2\",\"12\",\"1\",\"P\",\"C\",\"36\"
\"\",\"\",\"approach-retreat\",\"185\",\"1346859\",\"0.0-185.0\",\"\",\"\",\"3-3\",\"4442\",\"40\",\"1\",\"Testing\",\"Stims/Figures/139-C-20-2.bmp\",\"na:ma:la\",\"Up\",\"40\",\"2\",\"13\",\"1\",\"S\",\"C\",\"37\"
\"\",\"\",\"approach-retreat\",\"186\",\"1356418\",\"0.0-186.0\",\"\",\"\",\"3-3\",\"8028\",\"37\",\"0\",\"Testing\",\"Stims/Figures/118-C-20-2.bmp\",\"na:ma:la\",\"Left\",\"39\",\"2\",\"14\",\"1\",\"S\",\"C\",\"38\"
\"\",\"\",\"approach-retreat\",\"187\",\"1362163\",\"0.0-187.0\",\"\",\"\",\"3-3\",\"4213\",\"37\",\"1\",\"Testing\",\"Stims/Figures/87-C-20-4.bmp\",\"na:ma:la\",\"Right\",\"37\",\"2\",\"15\",\"1\",\"S\",\"C\",\"39\"
\"\",\"\",\"approach-retreat\",\"188\",\"1367857\",\"0.0-188.0\",\"\",\"\",\"3-3\",\"4163\",\"39\",\"1\",\"Testing\",\"Stims/Figures/128-C-30-3.bmp\",\"na:ma:la\",\"Left\",\"39\",\"2\",\"16\",\"1\",\"S\",\"C\",\"40\"
\"\",\"\",\"approach-retreat\",\"189\",\"1373350\",\"0.0-189.0\",\"\",\"\",\"3-3\",\"3966\",\"37\",\"1\",\"Testing\",\"Stims/Figures/87-J-10-4.bmp\",\"ta:pa:ta\",\"Left\",\"37\",\"2\",\"17\",\"1\",\"P\",\"C\",\"41\"
\"\",\"\",\"approach-retreat\",\"190\",\"1379330\",\"0.0-190.0\",\"\",\"\",\"3-3\",\"4450\",\"38\",\"1\",\"Testing\",\"Stims/Figures/84-J-0-2.bmp\",\"ta:pa:ta\",\"Up\",\"38\",\"2\",\"18\",\"1\",\"P\",\"C\",\"42\"
\"\",\"\",\"approach-retreat\",\"191\",\"1385662\",\"0.0-191.0\",\"\",\"\",\"3-3\",\"4800\",\"38\",\"1\",\"Testing\",\"Stims/Figures/144-C-30-3.bmp\",\"na:ma:la\",\"Down\",\"38\",\"2\",\"19\",\"1\",\"S\",\"C\",\"43\"
\"\",\"\",\"approach-retreat\",\"192\",\"1391388\",\"0.0-192.0\",\"\",\"\",\"3-3\",\"4196\",\"39\",\"1\",\"Testing\",\"Stims/Figures/84-C-20-2.bmp\",\"na:ma:la\",\"Left\",\"39\",\"2\",\"20\",\"1\",\"S\",\"C\",\"44\"
\"\",\"\",\"approach-retreat\",\"193\",\"1397537\",\"0.0-193.0\",\"\",\"\",\"3-3\",\"4620\",\"39\",\"1\",\"Testing\",\"Stims/Figures/57-J-0-1.bmp\",\"ta:pa:ta\",\"Right\",\"39\",\"2\",\"21\",\"1\",\"P\",\"C\",\"45\"
\"\",\"\",\"approach-retreat\",\"194\",\"1404928\",\"0.0-194.0\",\"\",\"\",\"3-3\",\"5862\",\"40\",\"0\",\"Testing\",\"Stims/Figures/102-C-20-4.bmp\",\"na:ma:la\",\"Down\",\"38\",\"2\",\"22\",\"1\",\"S\",\"C\",\"46\"
\"\",\"\",\"approach-retreat\",\"195\",\"1410538\",\"0.0-195.0\",\"\",\"\",\"3-3\",\"4080\",\"37\",\"1\",\"Testing\",\"Stims/Figures/139-J-0-2.bmp\",\"ta:pa:ta\",\"Left\",\"37\",\"2\",\"23\",\"1\",\"P\",\"C\",\"47\"
\"\",\"\",\"approach-retreat\",\"196\",\"1416058\",\"0.0-196.0\",\"\",\"\",\"3-3\",\"3989\",\"40\",\"1\",\"Testing\",\"Stims/Figures/57-C-30-1.bmp\",\"na:ma:la\",\"Up\",\"40\",\"2\",\"24\",\"1\",\"S\",\"C\",\"48\"
\"\",\"\",\"approach-retreat\",\"197\",\"1421578\",\"0.0-197.0\",\"\",\"\",\"3-3\",\"3986\",\"40\",\"1\",\"Testing\",\"Stims/Figures/71-C-30-1.bmp\",\"na:ma:la\",\"Up\",\"40\",\"3\",\"1\",\"1\",\"S\",\"C\",\"49\"
\"\",\"\",\"approach-retreat\",\"198\",\"1427714\",\"0.0-198.0\",\"\",\"\",\"3-3\",\"4604\",\"40\",\"1\",\"Testing\",\"Stims/Figures/118-C-20-2.bmp\",\"na:ma:la\",\"Up\",\"40\",\"3\",\"2\",\"1\",\"S\",\"C\",\"50\"
\"\",\"\",\"approach-retreat\",\"199\",\"1433506\",\"0.0-199.0\",\"\",\"\",\"3-3\",\"4261\",\"38\",\"1\",\"Testing\",\"Stims/Figures/44-J-10-3.bmp\",\"ta:pa:ta\",\"Up\",\"38\",\"3\",\"3\",\"1\",\"P\",\"C\",\"51\"
\"\",\"\",\"approach-retreat\",\"200\",\"1439279\",\"0.0-200.0\",\"\",\"\",\"3-3\",\"4237\",\"37\",\"1\",\"Testing\",\"Stims/Figures/71-J-0-1.bmp\",\"ta:pa:ta\",\"Left\",\"37\",\"3\",\"4\",\"1\",\"P\",\"C\",\"52\"
\"\",\"\",\"approach-retreat\",\"201\",\"1444872\",\"0.0-201.0\",\"\",\"\",\"3-3\",\"4064\",\"37\",\"1\",\"Testing\",\"Stims/Figures/84-C-20-2.bmp\",\"na:ma:la\",\"Right\",\"37\",\"3\",\"5\",\"1\",\"S\",\"C\",\"53\"
\"\",\"\",\"approach-retreat\",\"202\",\"1451113\",\"0.0-202.0\",\"\",\"\",\"3-3\",\"4714\",\"39\",\"0\",\"Testing\",\"Stims/Figures/87-J-10-4.bmp\",\"ta:pa:ta\",\"Left\",\"37\",\"3\",\"6\",\"1\",\"P\",\"C\",\"54\"
\"\",\"\",\"approach-retreat\",\"203\",\"1456798\",\"0.0-203.0\",\"\",\"\",\"3-3\",\"4155\",\"40\",\"1\",\"Testing\",\"Stims/Figures/118-J-0-2.bmp\",\"ta:pa:ta\",\"Down\",\"40\",\"3\",\"7\",\"1\",\"P\",\"C\",\"55\"
\"\",\"\",\"approach-retreat\",\"204\",\"1462431\",\"0.0-204.0\",\"\",\"\",\"3-3\",\"4112\",\"40\",\"1\",\"Testing\",\"Stims/Figures/84-J-0-2.bmp\",\"ta:pa:ta\",\"Down\",\"40\",\"3\",\"8\",\"1\",\"P\",\"C\",\"56\"
\"\",\"\",\"approach-retreat\",\"205\",\"1468028\",\"0.0-205.0\",\"\",\"\",\"3-3\",\"4069\",\"38\",\"1\",\"Testing\",\"Stims/Figures/57-J-0-1.bmp\",\"ta:pa:ta\",\"Up\",\"38\",\"3\",\"9\",\"1\",\"P\",\"C\",\"57\"
\"\",\"\",\"approach-retreat\",\"206\",\"1474488\",\"0.0-206.0\",\"\",\"\",\"3-3\",\"4932\",\"38\",\"1\",\"Testing\",\"Stims/Figures/139-J-0-2.bmp\",\"ta:pa:ta\",\"Up\",\"38\",\"3\",\"10\",\"1\",\"P\",\"C\",\"58\"
\"\",\"\",\"approach-retreat\",\"207\",\"1480741\",\"0.0-207.0\",\"\",\"\",\"3-3\",\"4727\",\"39\",\"1\",\"Testing\",\"Stims/Figures/144-J-10-3.bmp\",\"ta:pa:ta\",\"Right\",\"39\",\"3\",\"11\",\"1\",\"P\",\"C\",\"59\"
\"\",\"\",\"approach-retreat\",\"208\",\"1486362\",\"0.0-208.0\",\"\",\"\",\"3-3\",\"4089\",\"37\",\"1\",\"Testing\",\"Stims/Figures/128-C-30-3.bmp\",\"na:ma:la\",\"Right\",\"37\",\"3\",\"12\",\"1\",\"S\",\"C\",\"60\"
\"\",\"\",\"approach-retreat\",\"209\",\"1491916\",\"0.0-209.0\",\"\",\"\",\"3-3\",\"4024\",\"39\",\"1\",\"Testing\",\"Stims/Figures/44-C-30-3.bmp\",\"na:ma:la\",\"Left\",\"39\",\"3\",\"13\",\"1\",\"S\",\"C\",\"61\"
\"\",\"\",\"approach-retreat\",\"210\",\"1497980\",\"0.0-210.0\",\"\",\"\",\"3-3\",\"4531\",\"37\",\"0\",\"Testing\",\"Stims/Figures/74-J-10-4.bmp\",\"ta:pa:ta\",\"Right\",\"39\",\"3\",\"14\",\"1\",\"P\",\"C\",\"62\"
\"\",\"\",\"approach-retreat\",\"211\",\"1503727\",\"0.0-211.0\",\"\",\"\",\"3-3\",\"4219\",\"40\",\"1\",\"Testing\",\"Stims/Figures/74-C-20-4.bmp\",\"na:ma:la\",\"Up\",\"40\",\"3\",\"15\",\"1\",\"S\",\"C\",\"63\"
\"\",\"\",\"approach-retreat\",\"212\",\"1509433\",\"0.0-212.0\",\"\",\"\",\"3-3\",\"4176\",\"38\",\"1\",\"Testing\",\"Stims/Figures/57-C-30-1.bmp\",\"na:ma:la\",\"Down\",\"38\",\"3\",\"16\",\"1\",\"S\",\"C\",\"64\"
\"\",\"\",\"approach-retreat\",\"213\",\"1515103\",\"0.0-213.0\",\"\",\"\",\"3-3\",\"4140\",\"38\",\"1\",\"Testing\",\"Stims/Figures/102-C-20-4.bmp\",\"na:ma:la\",\"Down\",\"38\",\"3\",\"17\",\"1\",\"S\",\"C\",\"65\"
\"\",\"\",\"approach-retreat\",\"214\",\"1521083\",\"0.0-214.0\",\"\",\"\",\"3-3\",\"4451\",\"37\",\"1\",\"Testing\",\"Stims/Figures/139-C-20-2.bmp\",\"na:ma:la\",\"Right\",\"37\",\"3\",\"18\",\"1\",\"S\",\"C\",\"66\"
\"\",\"\",\"approach-retreat\",\"215\",\"1528224\",\"0.0-215.0\",\"\",\"\",\"3-3\",\"5609\",\"37\",\"1\",\"Testing\",\"Stims/Figures/128-J-10-3.bmp\",\"ta:pa:ta\",\"Left\",\"37\",\"3\",\"19\",\"1\",\"P\",\"C\",\"67\"
\"\",\"\",\"approach-retreat\",\"216\",\"1534324\",\"0.0-216.0\",\"\",\"\",\"3-3\",\"4570\",\"39\",\"1\",\"Testing\",\"Stims/Figures/144-C-30-3.bmp\",\"na:ma:la\",\"Left\",\"39\",\"3\",\"20\",\"1\",\"S\",\"C\",\"68\"
\"\",\"\",\"approach-retreat\",\"217\",\"1539976\",\"0.0-217.0\",\"\",\"\",\"3-3\",\"4124\",\"37\",\"1\",\"Testing\",\"Stims/Figures/86-C-30-1.bmp\",\"na:ma:la\",\"Right\",\"37\",\"3\",\"21\",\"1\",\"S\",\"C\",\"69\"
\"\",\"\",\"approach-retreat\",\"218\",\"1548612\",\"0.0-218.0\",\"\",\"\",\"3-3\",\"7110\",\"37\",\"1\",\"Testing\",\"Stims/Figures/102-J-10-4.bmp\",\"ta:pa:ta\",\"Left\",\"37\",\"3\",\"22\",\"1\",\"P\",\"C\",\"70\"
\"\",\"\",\"approach-retreat\",\"219\",\"1554222\",\"0.0-219.0\",\"\",\"\",\"3-3\",\"4082\",\"38\",\"1\",\"Testing\",\"Stims/Figures/87-C-20-4.bmp\",\"na:ma:la\",\"Down\",\"38\",\"3\",\"23\",\"1\",\"S\",\"C\",\"71\"
\"\",\"\",\"approach-retreat\",\"220\",\"1559878\",\"0.0-220.0\",\"\",\"\",\"3-3\",\"4127\",\"40\",\"1\",\"Testing\",\"Stims/Figures/86-J-0-1.bmp\",\"ta:pa:ta\",\"Down\",\"40\",\"3\",\"24\",\"1\",\"P\",\"C\",\"72\"
\"\",\"\",\"approach-retreat\",\"221\",\"1565742\",\"0.0-221.0\",\"\",\"\",\"3-3\",\"4331\",\"39\",\"1\",\"Testing\",\"Stims/Figures/139-J-0-2.bmp\",\"ta:pa:ta\",\"Right\",\"39\",\"4\",\"1\",\"1\",\"P\",\"C\",\"73\"
\"\",\"\",\"approach-retreat\",\"222\",\"1572586\",\"0.0-222.0\",\"\",\"\",\"3-3\",\"5311\",\"40\",\"1\",\"Testing\",\"Stims/Figures/118-C-20-2.bmp\",\"na:ma:la\",\"Up\",\"40\",\"4\",\"2\",\"1\",\"S\",\"C\",\"74\"
\"\",\"\",\"approach-retreat\",\"223\",\"1578391\",\"0.0-223.0\",\"\",\"\",\"3-3\",\"4276\",\"38\",\"1\",\"Testing\",\"Stims/Figures/44-J-10-3.bmp\",\"ta:pa:ta\",\"Up\",\"38\",\"4\",\"3\",\"1\",\"P\",\"C\",\"75\"
\"\",\"\",\"approach-retreat\",\"224\",\"1585554\",\"0.0-224.0\",\"\",\"\",\"3-3\",\"5628\",\"39\",\"1\",\"Testing\",\"Stims/Figures/128-J-10-3.bmp\",\"ta:pa:ta\",\"Right\",\"39\",\"4\",\"4\",\"1\",\"P\",\"C\",\"76\"
\"\",\"\",\"approach-retreat\",\"225\",\"1591410\",\"0.0-225.0\",\"\",\"\",\"3-3\",\"4324\",\"39\",\"1\",\"Testing\",\"Stims/Figures/128-C-30-3.bmp\",\"na:ma:la\",\"Left\",\"39\",\"4\",\"5\",\"1\",\"S\",\"C\",\"77\"
\"\",\"\",\"approach-retreat\",\"226\",\"1597617\",\"0.0-226.0\",\"\",\"\",\"3-3\",\"4676\",\"38\",\"1\",\"Testing\",\"Stims/Figures/144-J-10-3.bmp\",\"ta:pa:ta\",\"Up\",\"38\",\"4\",\"6\",\"1\",\"P\",\"C\",\"78\"
\"\",\"\",\"approach-retreat\",\"227\",\"1603482\",\"0.0-227.0\",\"\",\"\",\"3-3\",\"4334\",\"37\",\"1\",\"Testing\",\"Stims/Figures/71-J-0-1.bmp\",\"ta:pa:ta\",\"Left\",\"37\",\"4\",\"7\",\"1\",\"P\",\"C\",\"79\"
\"\",\"\",\"approach-retreat\",\"228\",\"1609586\",\"0.0-228.0\",\"\",\"\",\"3-3\",\"4571\",\"38\",\"1\",\"Testing\",\"Stims/Figures/57-J-0-1.bmp\",\"ta:pa:ta\",\"Up\",\"38\",\"4\",\"8\",\"1\",\"P\",\"C\",\"80\"
\"\",\"\",\"approach-retreat\",\"229\",\"1615404\",\"0.0-229.0\",\"\",\"\",\"3-3\",\"4287\",\"39\",\"1\",\"Testing\",\"Stims/Figures/102-J-10-4.bmp\",\"ta:pa:ta\",\"Right\",\"39\",\"4\",\"9\",\"1\",\"P\",\"C\",\"81\"
\"\",\"\",\"approach-retreat\",\"230\",\"1621486\",\"0.0-230.0\",\"\",\"\",\"3-3\",\"4552\",\"40\",\"1\",\"Testing\",\"Stims/Figures/86-J-0-1.bmp\",\"ta:pa:ta\",\"Down\",\"40\",\"4\",\"10\",\"1\",\"P\",\"C\",\"82\"
\"\",\"\",\"approach-retreat\",\"231\",\"1627031\",\"0.0-231.0\",\"\",\"\",\"3-3\",\"4012\",\"39\",\"1\",\"Testing\",\"Stims/Figures/84-C-20-2.bmp\",\"na:ma:la\",\"Left\",\"39\",\"4\",\"11\",\"1\",\"S\",\"C\",\"83\"
\"\",\"\",\"approach-retreat\",\"232\",\"1632605\",\"0.0-232.0\",\"\",\"\",\"3-3\",\"4046\",\"38\",\"1\",\"Testing\",\"Stims/Figures/139-C-20-2.bmp\",\"na:ma:la\",\"Down\",\"38\",\"4\",\"12\",\"1\",\"S\",\"C\",\"84\"
\"\",\"\",\"approach-retreat\",\"233\",\"1638187\",\"0.0-233.0\",\"\",\"\",\"3-3\",\"4051\",\"39\",\"1\",\"Testing\",\"Stims/Figures/74-J-10-4.bmp\",\"ta:pa:ta\",\"Right\",\"39\",\"4\",\"13\",\"1\",\"P\",\"C\",\"85\"
\"\",\"\",\"approach-retreat\",\"234\",\"1643779\",\"0.0-234.0\",\"\",\"\",\"3-3\",\"4061\",\"39\",\"1\",\"Testing\",\"Stims/Figures/144-C-30-3.bmp\",\"na:ma:la\",\"Left\",\"39\",\"4\",\"14\",\"1\",\"S\",\"C\",\"86\"
\"\",\"\",\"approach-retreat\",\"235\",\"1649413\",\"0.0-235.0\",\"\",\"\",\"3-3\",\"4124\",\"40\",\"1\",\"Testing\",\"Stims/Figures/44-C-30-3.bmp\",\"na:ma:la\",\"Up\",\"40\",\"4\",\"15\",\"1\",\"S\",\"C\",\"87\"
\"\",\"\",\"approach-retreat\",\"236\",\"1655026\",\"0.0-236.0\",\"\",\"\",\"3-3\",\"4082\",\"40\",\"1\",\"Testing\",\"Stims/Figures/87-C-20-4.bmp\",\"na:ma:la\",\"Up\",\"40\",\"4\",\"16\",\"1\",\"S\",\"C\",\"88\"
\"\",\"\",\"approach-retreat\",\"237\",\"1660649\",\"0.0-237.0\",\"\",\"\",\"3-3\",\"4092\",\"40\",\"0\",\"Testing\",\"Stims/Figures/102-C-20-4.bmp\",\"na:ma:la\",\"Down\",\"38\",\"4\",\"17\",\"1\",\"S\",\"C\",\"89\"
\"\",\"\",\"approach-retreat\",\"238\",\"1666273\",\"0.0-238.0\",\"\",\"\",\"3-3\",\"4093\",\"37\",\"1\",\"Testing\",\"Stims/Figures/87-J-10-4.bmp\",\"ta:pa:ta\",\"Left\",\"37\",\"4\",\"18\",\"1\",\"P\",\"C\",\"90\"
\"\",\"\",\"approach-retreat\",\"239\",\"1673092\",\"0.0-239.0\",\"\",\"\",\"3-3\",\"5287\",\"40\",\"1\",\"Testing\",\"Stims/Figures/118-J-0-2.bmp\",\"ta:pa:ta\",\"Down\",\"40\",\"4\",\"19\",\"1\",\"P\",\"C\",\"91\"
\"\",\"\",\"approach-retreat\",\"240\",\"1678874\",\"0.0-240.0\",\"\",\"\",\"3-3\",\"4252\",\"39\",\"1\",\"Testing\",\"Stims/Figures/71-C-30-1.bmp\",\"na:ma:la\",\"Left\",\"39\",\"4\",\"20\",\"1\",\"S\",\"C\",\"92\"
\"\",\"\",\"approach-retreat\",\"241\",\"1685572\",\"0.0-241.0\",\"\",\"\",\"3-3\",\"5167\",\"39\",\"1\",\"Testing\",\"Stims/Figures/84-J-0-2.bmp\",\"ta:pa:ta\",\"Right\",\"39\",\"4\",\"21\",\"1\",\"P\",\"C\",\"93\"
\"\",\"\",\"approach-retreat\",\"242\",\"1691989\",\"0.0-242.0\",\"\",\"\",\"3-3\",\"4907\",\"38\",\"1\",\"Testing\",\"Stims/Figures/86-C-30-1.bmp\",\"na:ma:la\",\"Down\",\"38\",\"4\",\"22\",\"1\",\"S\",\"C\",\"94\"
\"\",\"\",\"approach-retreat\",\"243\",\"1697648\",\"0.0-243.0\",\"\",\"\",\"3-3\",\"4129\",\"38\",\"1\",\"Testing\",\"Stims/Figures/57-C-30-1.bmp\",\"na:ma:la\",\"Down\",\"38\",\"4\",\"23\",\"1\",\"S\",\"C\",\"95\"
\"\",\"\",\"approach-retreat\",\"244\",\"1703297\",\"0.0-244.0\",\"\",\"\",\"3-3\",\"4122\",\"37\",\"1\",\"Testing\",\"Stims/Figures/74-C-20-4.bmp\",\"na:ma:la\",\"Right\",\"37\",\"4\",\"24\",\"1\",\"S\",\"C\",\"96\"
\"18476\",\"\",\"survey-text\",\"245\",\"1721781\",\"0.0-245.0\",\"\",\"{\"\"Q0\"\":\"\"PS170013\"\"}\",\"\",\"\",\"\",\"\",\"\",\"\",\"\",\"\",\"\",\"\",\"\",\"\",\"\",\"\",\"\"
