\"rt\",\"key_press\",\"trial_type\",\"trial_index\",\"time_elapsed\",\"internal_node_id\",\"view_history\",\"responses\",\"Id\",\"Rt\",\"ResKeyCode\",\"ResCorr\",\"TrialType2\",\"Image\",\"Label\",\"Location\",\"CorrectResponse\",\"Block\",\"BlockTrial\",\"Condition\",\"LabelType\",\"Subcondition\",\"trialNum\"
\"62920\",\"32\",\"text\",\"0\",\"62938\",\"0.0-0.0-0.0\",\"\",\"\",\"\",\"\",\"\",\"\",\"\",\"\",\"\",\"\",\"\",\"\",\"\",\"\",\"\",\"\",\"\"
\"75339\",\"\",\"instructions\",\"1\",\"138287\",\"0.0-1.0\",\"[{\"\"page_index\"\":0,\"\"viewing_time\"\":75337}]\",\"\",\"\",\"\",\"\",\"\",\"\",\"\",\"\",\"\",\"\",\"\",\"\",\"\",\"\",\"\",\"\"
\"25357\",\"\",\"survey-multi-choice\",\"2\",\"163689\",\"0.0-2.0\",\"\",\"{\"\"Q0\"\":\"\"Da\"\",\"\"Q1\"\":\"\"Da\"\",\"\"Q2\"\":\"\"Da\"\",\"\"Q3\"\":\"\"Da\"\",\"\"Q4\"\":\"\"Da\"\",\"\"Q5\"\":\"\"Da\"\"}\",\"\",\"\",\"\",\"\",\"\",\"\",\"\",\"\",\"\",\"\",\"\",\"\",\"\",\"\",\"\"
\"\",\"\",\"bio\",\"3\",\"172375\",\"0.0-3.0\",\"\",\"{\"\"age\"\":\"\"19\"\",\"\"gender\"\":\"\"f\"\",\"\"specify\"\":\"\"\"\"}\",\"\",\"\",\"\",\"\",\"\",\"\",\"\",\"\",\"\",\"\",\"\",\"\",\"\",\"\",\"\"
\"\",\"\",\"approach-retreat\",\"4\",\"182844\",\"0.0-4.0\",\"\",\"\",\"3-4\",\"8934\",\"38\",\"1\",\"Training\",\"Stims/Figures/93-J-0-1.bmp\",\"fa:shasha\",\"Down\",\"38\",\"1\",\"1\",\"8\",\"C1\",\"J\",\"1\"
\"\",\"\",\"approach-retreat\",\"5\",\"190907\",\"0.0-5.0\",\"\",\"\",\"3-4\",\"6515\",\"38\",\"0\",\"Training\",\"Stims/Figures/128-C-30-3.bmp\",\"za:ha:za\",\"Down\",\"40\",\"1\",\"2\",\"8\",\"C2\",\"J\",\"2\"
\"\",\"\",\"approach-retreat\",\"6\",\"200010\",\"0.0-6.0\",\"\",\"\",\"3-4\",\"7576\",\"40\",\"1\",\"Training\",\"Stims/Figures/71-J-0-1.bmp\",\"va:shasha\",\"Up\",\"40\",\"1\",\"3\",\"8\",\"C1\",\"J\",\"3\"
\"\",\"\",\"approach-retreat\",\"7\",\"209071\",\"0.0-7.0\",\"\",\"\",\"3-4\",\"7524\",\"37\",\"1\",\"Training\",\"Stims/Figures/128-J-10-3.bmp\",\"sa:saha\",\"Right\",\"37\",\"1\",\"4\",\"8\",\"C2\",\"J\",\"4\"
\"\",\"\",\"approach-retreat\",\"8\",\"218033\",\"0.0-8.0\",\"\",\"\",\"3-4\",\"7420\",\"39\",\"1\",\"Training\",\"Stims/Figures/102-J-10-4.bmp\",\"sa:saza\",\"Left\",\"39\",\"1\",\"5\",\"8\",\"C2\",\"J\",\"5\"
\"\",\"\",\"approach-retreat\",\"9\",\"224908\",\"0.0-9.0\",\"\",\"\",\"3-4\",\"5345\",\"39\",\"0\",\"Training\",\"Stims/Figures/7-C-20-4.bmp\",\"sa:sa:za\",\"Left\",\"37\",\"1\",\"6\",\"8\",\"C2\",\"J\",\"6\"
\"\",\"\",\"approach-retreat\",\"10\",\"236413\",\"0.0-10.0\",\"\",\"\",\"3-4\",\"9987\",\"39\",\"0\",\"Training\",\"Stims/Figures/118-J-0-2.bmp\",\"fa:fa:sha\",\"Right\",\"37\",\"1\",\"7\",\"8\",\"C1\",\"J\",\"7\"
\"\",\"\",\"approach-retreat\",\"11\",\"244024\",\"0.0-11.0\",\"\",\"\",\"3-4\",\"6094\",\"39\",\"0\",\"Training\",\"Stims/Figures/85-C-20-2.bmp\",\"va:sha:sha\",\"Left\",\"37\",\"1\",\"8\",\"8\",\"C1\",\"J\",\"8\"
\"\",\"\",\"approach-retreat\",\"12\",\"251946\",\"0.0-12.0\",\"\",\"\",\"3-4\",\"6409\",\"37\",\"0\",\"Training\",\"Stims/Figures/100-C-30-3.bmp\",\"saha:ha\",\"Right\",\"39\",\"1\",\"9\",\"8\",\"C2\",\"J\",\"9\"
\"\",\"\",\"approach-retreat\",\"13\",\"258600\",\"0.0-13.0\",\"\",\"\",\"3-4\",\"5122\",\"40\",\"0\",\"Training\",\"Stims/Figures/71-C-30-1.bmp\",\"fasha:sha\",\"Up\",\"38\",\"1\",\"10\",\"8\",\"C1\",\"J\",\"10\"
\"\",\"\",\"approach-retreat\",\"14\",\"265443\",\"0.0-14.0\",\"\",\"\",\"3-4\",\"5326\",\"37\",\"0\",\"Training\",\"Stims/Figures/118-C-20-2.bmp\",\"fa:sha:va\",\"Right\",\"39\",\"1\",\"11\",\"8\",\"C1\",\"J\",\"11\"
\"\",\"\",\"approach-retreat\",\"15\",\"272261\",\"0.0-15.0\",\"\",\"\",\"3-4\",\"5296\",\"40\",\"0\",\"Training\",\"Stims/Figures/100-J-10-3.bmp\",\"sahaha\",\"Down\",\"38\",\"1\",\"12\",\"8\",\"C2\",\"J\",\"12\"
\"\",\"\",\"approach-retreat\",\"16\",\"279485\",\"0.0-16.0\",\"\",\"\",\"3-4\",\"5714\",\"38\",\"1\",\"Training\",\"Stims/Figures/93-C-30-1.bmp\",\"fa:fasha\",\"Up\",\"38\",\"1\",\"13\",\"8\",\"C1\",\"J\",\"13\"
\"\",\"\",\"approach-retreat\",\"17\",\"288931\",\"0.0-17.0\",\"\",\"\",\"3-4\",\"7923\",\"38\",\"1\",\"Training\",\"Stims/Figures/85-J-0-2.bmp\",\"fashava\",\"Down\",\"38\",\"1\",\"14\",\"8\",\"C1\",\"J\",\"14\"
\"\",\"\",\"approach-retreat\",\"18\",\"298456\",\"0.0-18.0\",\"\",\"\",\"3-4\",\"7995\",\"39\",\"0\",\"Training\",\"Stims/Figures/102-C-20-4.bmp\",\"za:saza\",\"Left\",\"37\",\"1\",\"15\",\"8\",\"C2\",\"J\",\"15\"
\"\",\"\",\"approach-retreat\",\"19\",\"305432\",\"0.0-19.0\",\"\",\"\",\"3-4\",\"5430\",\"40\",\"1\",\"Training\",\"Stims/Figures/7-J-10-4.bmp\",\"za:ha:ha\",\"Up\",\"40\",\"1\",\"16\",\"8\",\"C2\",\"J\",\"16\"
\"\",\"\",\"approach-retreat\",\"20\",\"312305\",\"0.0-20.0\",\"\",\"\",\"3-4\",\"5339\",\"37\",\"1\",\"Training\",\"Stims/Figures/71-J-0-1.bmp\",\"va:shasha\",\"Right\",\"37\",\"2\",\"1\",\"8\",\"C1\",\"J\",\"17\"
\"\",\"\",\"approach-retreat\",\"21\",\"318856\",\"0.0-21.0\",\"\",\"\",\"3-4\",\"5030\",\"38\",\"1\",\"Training\",\"Stims/Figures/85-J-0-2.bmp\",\"fashava\",\"Down\",\"38\",\"2\",\"2\",\"8\",\"C1\",\"J\",\"18\"
\"\",\"\",\"approach-retreat\",\"22\",\"326052\",\"0.0-22.0\",\"\",\"\",\"3-4\",\"5658\",\"40\",\"1\",\"Training\",\"Stims/Figures/100-J-10-3.bmp\",\"sahaha\",\"Up\",\"40\",\"2\",\"3\",\"8\",\"C2\",\"J\",\"19\"
\"\",\"\",\"approach-retreat\",\"23\",\"332784\",\"0.0-23.0\",\"\",\"\",\"3-4\",\"5191\",\"39\",\"1\",\"Training\",\"Stims/Figures/128-J-10-3.bmp\",\"sa:saha\",\"Left\",\"39\",\"2\",\"4\",\"8\",\"C2\",\"J\",\"20\"
\"\",\"\",\"approach-retreat\",\"24\",\"339617\",\"0.0-24.0\",\"\",\"\",\"3-4\",\"5316\",\"40\",\"0\",\"Training\",\"Stims/Figures/102-J-10-4.bmp\",\"sa:saza\",\"Down\",\"38\",\"2\",\"5\",\"8\",\"C2\",\"J\",\"21\"
\"\",\"\",\"approach-retreat\",\"25\",\"346423\",\"0.0-25.0\",\"\",\"\",\"3-4\",\"5273\",\"39\",\"1\",\"Training\",\"Stims/Figures/7-J-10-4.bmp\",\"za:ha:ha\",\"Left\",\"39\",\"2\",\"6\",\"8\",\"C2\",\"J\",\"22\"
\"\",\"\",\"approach-retreat\",\"26\",\"352961\",\"0.0-26.0\",\"\",\"\",\"3-4\",\"5011\",\"37\",\"0\",\"Training\",\"Stims/Figures/85-C-20-2.bmp\",\"va:sha:sha\",\"Right\",\"39\",\"2\",\"7\",\"8\",\"C1\",\"J\",\"23\"
\"\",\"\",\"approach-retreat\",\"27\",\"359028\",\"0.0-27.0\",\"\",\"\",\"3-4\",\"4546\",\"38\",\"0\",\"Training\",\"Stims/Figures/7-C-20-4.bmp\",\"sa:sa:za\",\"Down\",\"40\",\"2\",\"8\",\"8\",\"C2\",\"J\",\"24\"
\"\",\"\",\"approach-retreat\",\"28\",\"367408\",\"0.0-28.0\",\"\",\"\",\"3-4\",\"6866\",\"40\",\"0\",\"Training\",\"Stims/Figures/118-C-20-2.bmp\",\"fa:sha:va\",\"Up\",\"38\",\"2\",\"9\",\"8\",\"C1\",\"J\",\"25\"
\"\",\"\",\"approach-retreat\",\"29\",\"373999\",\"0.0-29.0\",\"\",\"\",\"3-4\",\"5077\",\"37\",\"1\",\"Training\",\"Stims/Figures/93-C-30-1.bmp\",\"fa:fasha\",\"Left\",\"37\",\"2\",\"10\",\"8\",\"C1\",\"J\",\"26\"
\"\",\"\",\"approach-retreat\",\"30\",\"380355\",\"0.0-30.0\",\"\",\"\",\"3-4\",\"4840\",\"39\",\"1\",\"Training\",\"Stims/Figures/128-C-30-3.bmp\",\"za:ha:za\",\"Right\",\"39\",\"2\",\"11\",\"8\",\"C2\",\"J\",\"27\"
\"\",\"\",\"approach-retreat\",\"31\",\"386411\",\"0.0-31.0\",\"\",\"\",\"3-4\",\"4539\",\"39\",\"1\",\"Training\",\"Stims/Figures/71-C-30-1.bmp\",\"fasha:sha\",\"Right\",\"39\",\"2\",\"12\",\"8\",\"C1\",\"J\",\"28\"
\"\",\"\",\"approach-retreat\",\"32\",\"392426\",\"0.0-32.0\",\"\",\"\",\"3-4\",\"4492\",\"40\",\"1\",\"Training\",\"Stims/Figures/93-J-0-1.bmp\",\"fa:shasha\",\"Up\",\"40\",\"2\",\"13\",\"8\",\"C1\",\"J\",\"29\"
\"\",\"\",\"approach-retreat\",\"33\",\"398349\",\"0.0-33.0\",\"\",\"\",\"3-4\",\"4400\",\"40\",\"0\",\"Training\",\"Stims/Figures/100-C-30-3.bmp\",\"saha:ha\",\"Up\",\"38\",\"2\",\"14\",\"8\",\"C2\",\"J\",\"30\"
\"\",\"\",\"approach-retreat\",\"34\",\"404416\",\"0.0-34.0\",\"\",\"\",\"3-4\",\"4541\",\"37\",\"0\",\"Training\",\"Stims/Figures/118-J-0-2.bmp\",\"fa:fa:sha\",\"Left\",\"39\",\"2\",\"15\",\"8\",\"C1\",\"J\",\"31\"
\"\",\"\",\"approach-retreat\",\"35\",\"410483\",\"0.0-35.0\",\"\",\"\",\"3-4\",\"4553\",\"38\",\"0\",\"Training\",\"Stims/Figures/102-C-20-4.bmp\",\"za:saza\",\"Down\",\"40\",\"2\",\"16\",\"8\",\"C2\",\"J\",\"32\"
\"\",\"\",\"approach-retreat\",\"36\",\"416363\",\"0.0-36.0\",\"\",\"\",\"3-4\",\"4370\",\"39\",\"1\",\"Training\",\"Stims/Figures/71-J-0-1.bmp\",\"va:shasha\",\"Left\",\"39\",\"3\",\"1\",\"8\",\"C1\",\"J\",\"33\"
\"\",\"\",\"approach-retreat\",\"37\",\"422354\",\"0.0-37.0\",\"\",\"\",\"3-4\",\"4453\",\"37\",\"0\",\"Training\",\"Stims/Figures/128-J-10-3.bmp\",\"sa:saha\",\"Left\",\"39\",\"3\",\"2\",\"8\",\"C2\",\"J\",\"34\"
\"\",\"\",\"approach-retreat\",\"38\",\"428571\",\"0.0-38.0\",\"\",\"\",\"3-4\",\"4692\",\"38\",\"0\",\"Training\",\"Stims/Figures/85-C-20-2.bmp\",\"va:sha:sha\",\"Down\",\"40\",\"3\",\"3\",\"8\",\"C1\",\"J\",\"35\"
\"\",\"\",\"approach-retreat\",\"39\",\"439801\",\"0.0-39.0\",\"\",\"\",\"3-4\",\"9685\",\"39\",\"0\",\"Training\",\"Stims/Figures/71-C-30-1.bmp\",\"fasha:sha\",\"Left\",\"37\",\"3\",\"4\",\"8\",\"C1\",\"J\",\"36\"
\"\",\"\",\"approach-retreat\",\"40\",\"446237\",\"0.0-40.0\",\"\",\"\",\"3-4\",\"4902\",\"39\",\"0\",\"Training\",\"Stims/Figures/7-C-20-4.bmp\",\"sa:sa:za\",\"Left\",\"37\",\"3\",\"5\",\"8\",\"C2\",\"J\",\"37\"
\"\",\"\",\"approach-retreat\",\"41\",\"452305\",\"0.0-41.0\",\"\",\"\",\"3-4\",\"4550\",\"38\",\"1\",\"Training\",\"Stims/Figures/93-J-0-1.bmp\",\"fa:shasha\",\"Down\",\"38\",\"3\",\"6\",\"8\",\"C1\",\"J\",\"38\"
\"\",\"\",\"approach-retreat\",\"42\",\"458373\",\"0.0-42.0\",\"\",\"\",\"3-4\",\"4545\",\"37\",\"1\",\"Training\",\"Stims/Figures/118-J-0-2.bmp\",\"fa:fa:sha\",\"Right\",\"37\",\"3\",\"7\",\"8\",\"C1\",\"J\",\"39\"
\"\",\"\",\"approach-retreat\",\"43\",\"466210\",\"0.0-43.0\",\"\",\"\",\"3-4\",\"6315\",\"40\",\"1\",\"Training\",\"Stims/Figures/85-J-0-2.bmp\",\"fashava\",\"Up\",\"40\",\"3\",\"8\",\"8\",\"C1\",\"J\",\"40\"
\"\",\"\",\"approach-retreat\",\"44\",\"473477\",\"0.0-44.0\",\"\",\"\",\"3-4\",\"5725\",\"37\",\"1\",\"Training\",\"Stims/Figures/7-J-10-4.bmp\",\"za:ha:ha\",\"Right\",\"37\",\"3\",\"9\",\"8\",\"C2\",\"J\",\"41\"
\"\",\"\",\"approach-retreat\",\"45\",\"479686\",\"0.0-45.0\",\"\",\"\",\"3-4\",\"4679\",\"37\",\"0\",\"Training\",\"Stims/Figures/93-C-30-1.bmp\",\"fa:fasha\",\"Right\",\"39\",\"3\",\"10\",\"8\",\"C1\",\"J\",\"42\"
\"\",\"\",\"approach-retreat\",\"46\",\"485409\",\"0.0-46.0\",\"\",\"\",\"3-4\",\"4196\",\"40\",\"1\",\"Training\",\"Stims/Figures/102-J-10-4.bmp\",\"sa:saza\",\"Up\",\"40\",\"3\",\"11\",\"8\",\"C2\",\"J\",\"43\"
\"\",\"\",\"approach-retreat\",\"47\",\"491272\",\"0.0-47.0\",\"\",\"\",\"3-4\",\"4340\",\"40\",\"0\",\"Training\",\"Stims/Figures/102-C-20-4.bmp\",\"za:saza\",\"Up\",\"38\",\"3\",\"12\",\"8\",\"C2\",\"J\",\"44\"
\"\",\"\",\"approach-retreat\",\"48\",\"497138\",\"0.0-48.0\",\"\",\"\",\"3-4\",\"4341\",\"38\",\"0\",\"Training\",\"Stims/Figures/128-C-30-3.bmp\",\"za:ha:za\",\"Down\",\"40\",\"3\",\"13\",\"8\",\"C2\",\"J\",\"45\"
\"\",\"\",\"approach-retreat\",\"49\",\"502773\",\"0.0-49.0\",\"\",\"\",\"3-4\",\"4102\",\"40\",\"0\",\"Training\",\"Stims/Figures/118-C-20-2.bmp\",\"fa:sha:va\",\"Up\",\"38\",\"3\",\"14\",\"8\",\"C1\",\"J\",\"46\"
\"\",\"\",\"approach-retreat\",\"50\",\"508565\",\"0.0-50.0\",\"\",\"\",\"3-4\",\"4272\",\"37\",\"1\",\"Training\",\"Stims/Figures/100-J-10-3.bmp\",\"sahaha\",\"Right\",\"37\",\"3\",\"15\",\"8\",\"C2\",\"J\",\"47\"
\"\",\"\",\"approach-retreat\",\"51\",\"515333\",\"0.0-51.0\",\"\",\"\",\"3-4\",\"5258\",\"38\",\"0\",\"Training\",\"Stims/Figures/100-C-30-3.bmp\",\"saha:ha\",\"Down\",\"40\",\"3\",\"16\",\"8\",\"C2\",\"J\",\"48\"
\"\",\"\",\"approach-retreat\",\"52\",\"520972\",\"0.0-52.0\",\"\",\"\",\"3-4\",\"4118\",\"39\",\"0\",\"Training\",\"Stims/Figures/7-C-20-4.bmp\",\"sa:sa:za\",\"Left\",\"37\",\"4\",\"1\",\"8\",\"C2\",\"J\",\"49\"
\"\",\"\",\"approach-retreat\",\"53\",\"526834\",\"0.0-53.0\",\"\",\"\",\"3-4\",\"4338\",\"40\",\"1\",\"Training\",\"Stims/Figures/102-J-10-4.bmp\",\"sa:saza\",\"Up\",\"40\",\"4\",\"2\",\"8\",\"C2\",\"J\",\"50\"
\"\",\"\",\"approach-retreat\",\"54\",\"533495\",\"0.0-54.0\",\"\",\"\",\"3-4\",\"5133\",\"38\",\"0\",\"Training\",\"Stims/Figures/118-C-20-2.bmp\",\"fa:sha:va\",\"Down\",\"40\",\"4\",\"3\",\"8\",\"C1\",\"J\",\"51\"
\"\",\"\",\"approach-retreat\",\"55\",\"539064\",\"0.0-55.0\",\"\",\"\",\"3-4\",\"4042\",\"40\",\"1\",\"Training\",\"Stims/Figures/93-J-0-1.bmp\",\"fa:shasha\",\"Up\",\"40\",\"4\",\"4\",\"8\",\"C1\",\"J\",\"52\"
\"\",\"\",\"approach-retreat\",\"56\",\"544783\",\"0.0-56.0\",\"\",\"\",\"3-4\",\"4173\",\"40\",\"0\",\"Training\",\"Stims/Figures/102-C-20-4.bmp\",\"za:saza\",\"Up\",\"38\",\"4\",\"5\",\"8\",\"C2\",\"J\",\"53\"
\"\",\"\",\"approach-retreat\",\"57\",\"550566\",\"0.0-57.0\",\"\",\"\",\"3-4\",\"4246\",\"39\",\"1\",\"Training\",\"Stims/Figures/7-J-10-4.bmp\",\"za:ha:ha\",\"Left\",\"39\",\"4\",\"6\",\"8\",\"C2\",\"J\",\"54\"
\"\",\"\",\"approach-retreat\",\"58\",\"556742\",\"0.0-58.0\",\"\",\"\",\"3-4\",\"4630\",\"39\",\"0\",\"Training\",\"Stims/Figures/71-C-30-1.bmp\",\"fasha:sha\",\"Left\",\"37\",\"4\",\"7\",\"8\",\"C1\",\"J\",\"55\"
\"\",\"\",\"approach-retreat\",\"59\",\"563042\",\"0.0-59.0\",\"\",\"\",\"3-4\",\"4760\",\"38\",\"1\",\"Training\",\"Stims/Figures/100-J-10-3.bmp\",\"sahaha\",\"Down\",\"38\",\"4\",\"8\",\"8\",\"C2\",\"J\",\"56\"
\"\",\"\",\"approach-retreat\",\"60\",\"569575\",\"0.0-60.0\",\"\",\"\",\"3-4\",\"5019\",\"38\",\"0\",\"Training\",\"Stims/Figures/100-C-30-3.bmp\",\"saha:ha\",\"Down\",\"40\",\"4\",\"9\",\"8\",\"C2\",\"J\",\"57\"
\"\",\"\",\"approach-retreat\",\"61\",\"577625\",\"0.0-61.0\",\"\",\"\",\"3-4\",\"6534\",\"37\",\"0\",\"Training\",\"Stims/Figures/85-C-20-2.bmp\",\"va:sha:sha\",\"Right\",\"39\",\"4\",\"10\",\"8\",\"C1\",\"J\",\"58\"
\"\",\"\",\"approach-retreat\",\"62\",\"584263\",\"0.0-62.0\",\"\",\"\",\"3-4\",\"5100\",\"39\",\"0\",\"Training\",\"Stims/Figures/118-J-0-2.bmp\",\"fa:fa:sha\",\"Right\",\"37\",\"4\",\"11\",\"8\",\"C1\",\"J\",\"59\"
\"\",\"\",\"approach-retreat\",\"63\",\"592088\",\"0.0-63.0\",\"\",\"\",\"3-4\",\"6300\",\"37\",\"0\",\"Training\",\"Stims/Figures/128-C-30-3.bmp\",\"za:ha:za\",\"Right\",\"39\",\"4\",\"12\",\"8\",\"C2\",\"J\",\"60\"
\"\",\"\",\"approach-retreat\",\"64\",\"599491\",\"0.0-64.0\",\"\",\"\",\"3-4\",\"5887\",\"40\",\"1\",\"Training\",\"Stims/Figures/71-J-0-1.bmp\",\"va:shasha\",\"Up\",\"40\",\"4\",\"13\",\"8\",\"C1\",\"J\",\"61\"
\"\",\"\",\"approach-retreat\",\"65\",\"608311\",\"0.0-65.0\",\"\",\"\",\"3-4\",\"7279\",\"40\",\"0\",\"Training\",\"Stims/Figures/85-J-0-2.bmp\",\"fashava\",\"Down\",\"38\",\"4\",\"14\",\"8\",\"C1\",\"J\",\"62\"
\"\",\"\",\"approach-retreat\",\"66\",\"615830\",\"0.0-66.0\",\"\",\"\",\"3-4\",\"5974\",\"37\",\"0\",\"Training\",\"Stims/Figures/93-C-30-1.bmp\",\"fa:fasha\",\"Right\",\"39\",\"4\",\"15\",\"8\",\"C1\",\"J\",\"63\"
\"\",\"\",\"approach-retreat\",\"67\",\"621553\",\"0.0-67.0\",\"\",\"\",\"3-4\",\"4181\",\"39\",\"1\",\"Training\",\"Stims/Figures/128-J-10-3.bmp\",\"sa:saha\",\"Left\",\"39\",\"4\",\"16\",\"8\",\"C2\",\"J\",\"64\"
\"\",\"\",\"approach-retreat\",\"68\",\"627982\",\"0.0-68.0\",\"\",\"\",\"3-4\",\"4894\",\"38\",\"1\",\"Training\",\"Stims/Figures/102-J-10-4.bmp\",\"sa:saza\",\"Down\",\"38\",\"5\",\"1\",\"8\",\"C2\",\"J\",\"65\"
\"\",\"\",\"approach-retreat\",\"69\",\"634406\",\"0.0-69.0\",\"\",\"\",\"3-4\",\"4880\",\"39\",\"1\",\"Training\",\"Stims/Figures/71-J-0-1.bmp\",\"va:shasha\",\"Left\",\"39\",\"5\",\"2\",\"8\",\"C1\",\"J\",\"66\"
\"\",\"\",\"approach-retreat\",\"70\",\"641226\",\"0.0-70.0\",\"\",\"\",\"3-4\",\"5279\",\"37\",\"0\",\"Training\",\"Stims/Figures/71-C-30-1.bmp\",\"fasha:sha\",\"Right\",\"39\",\"5\",\"3\",\"8\",\"C1\",\"J\",\"67\"
\"\",\"\",\"approach-retreat\",\"71\",\"647621\",\"0.0-71.0\",\"\",\"\",\"3-4\",\"4861\",\"39\",\"0\",\"Training\",\"Stims/Figures/85-C-20-2.bmp\",\"va:sha:sha\",\"Left\",\"37\",\"5\",\"4\",\"8\",\"C1\",\"J\",\"68\"
\"\",\"\",\"approach-retreat\",\"72\",\"653284\",\"0.0-72.0\",\"\",\"\",\"3-4\",\"4149\",\"38\",\"0\",\"Training\",\"Stims/Figures/128-C-30-3.bmp\",\"za:ha:za\",\"Down\",\"40\",\"5\",\"5\",\"8\",\"C2\",\"J\",\"69\"
\"\",\"\",\"approach-retreat\",\"73\",\"659215\",\"0.0-73.0\",\"\",\"\",\"3-4\",\"4419\",\"37\",\"0\",\"Training\",\"Stims/Figures/102-C-20-4.bmp\",\"za:saza\",\"Right\",\"39\",\"5\",\"6\",\"8\",\"C2\",\"J\",\"70\"
\"\",\"\",\"approach-retreat\",\"74\",\"665241\",\"0.0-74.0\",\"\",\"\",\"3-4\",\"4505\",\"40\",\"0\",\"Training\",\"Stims/Figures/93-C-30-1.bmp\",\"fa:fasha\",\"Up\",\"38\",\"5\",\"7\",\"8\",\"C1\",\"J\",\"71\"
\"\",\"\",\"approach-retreat\",\"75\",\"672354\",\"0.0-75.0\",\"\",\"\",\"3-4\",\"5580\",\"38\",\"0\",\"Training\",\"Stims/Figures/118-C-20-2.bmp\",\"fa:sha:va\",\"Down\",\"40\",\"5\",\"8\",\"8\",\"C1\",\"J\",\"72\"
\"\",\"\",\"approach-retreat\",\"76\",\"679410\",\"0.0-76.0\",\"\",\"\",\"3-4\",\"5543\",\"38\",\"0\",\"Training\",\"Stims/Figures/93-J-0-1.bmp\",\"fa:shasha\",\"Up\",\"40\",\"5\",\"9\",\"8\",\"C1\",\"J\",\"73\"
\"\",\"\",\"approach-retreat\",\"77\",\"685205\",\"0.0-77.0\",\"\",\"\",\"3-4\",\"4247\",\"39\",\"0\",\"Training\",\"Stims/Figures/7-J-10-4.bmp\",\"za:ha:ha\",\"Right\",\"37\",\"5\",\"10\",\"8\",\"C2\",\"J\",\"74\"
\"\",\"\",\"approach-retreat\",\"78\",\"691181\",\"0.0-78.0\",\"\",\"\",\"3-4\",\"4446\",\"40\",\"1\",\"Training\",\"Stims/Figures/128-J-10-3.bmp\",\"sa:saha\",\"Up\",\"40\",\"5\",\"11\",\"8\",\"C2\",\"J\",\"75\"
\"\",\"\",\"approach-retreat\",\"79\",\"698619\",\"0.0-79.0\",\"\",\"\",\"3-4\",\"5899\",\"39\",\"1\",\"Training\",\"Stims/Figures/7-C-20-4.bmp\",\"sa:sa:za\",\"Right\",\"39\",\"5\",\"12\",\"8\",\"C2\",\"J\",\"76\"
\"\",\"\",\"approach-retreat\",\"80\",\"705996\",\"0.0-80.0\",\"\",\"\",\"3-4\",\"5834\",\"38\",\"0\",\"Training\",\"Stims/Figures/85-J-0-2.bmp\",\"fashava\",\"Up\",\"40\",\"5\",\"13\",\"8\",\"C1\",\"J\",\"77\"
\"\",\"\",\"approach-retreat\",\"81\",\"711873\",\"0.0-81.0\",\"\",\"\",\"3-4\",\"4345\",\"39\",\"1\",\"Training\",\"Stims/Figures/118-J-0-2.bmp\",\"fa:fa:sha\",\"Left\",\"39\",\"5\",\"14\",\"8\",\"C1\",\"J\",\"78\"
\"\",\"\",\"approach-retreat\",\"82\",\"717823\",\"0.0-82.0\",\"\",\"\",\"3-4\",\"4420\",\"38\",\"0\",\"Training\",\"Stims/Figures/100-C-30-3.bmp\",\"saha:ha\",\"Down\",\"40\",\"5\",\"15\",\"8\",\"C2\",\"J\",\"79\"
\"\",\"\",\"approach-retreat\",\"83\",\"723534\",\"0.0-83.0\",\"\",\"\",\"3-4\",\"4187\",\"39\",\"1\",\"Training\",\"Stims/Figures/100-J-10-3.bmp\",\"sahaha\",\"Left\",\"39\",\"5\",\"16\",\"8\",\"C2\",\"J\",\"80\"
\"\",\"\",\"approach-retreat\",\"84\",\"729795\",\"0.0-84.0\",\"\",\"\",\"3-4\",\"4724\",\"39\",\"1\",\"Training\",\"Stims/Figures/7-C-20-4.bmp\",\"sa:sa:za\",\"Right\",\"39\",\"6\",\"1\",\"8\",\"C2\",\"J\",\"81\"
\"\",\"\",\"approach-retreat\",\"85\",\"735726\",\"0.0-85.0\",\"\",\"\",\"3-4\",\"4395\",\"39\",\"1\",\"Training\",\"Stims/Figures/93-C-30-1.bmp\",\"fa:fasha\",\"Right\",\"39\",\"6\",\"2\",\"8\",\"C1\",\"J\",\"82\"
\"\",\"\",\"approach-retreat\",\"86\",\"742182\",\"0.0-86.0\",\"\",\"\",\"3-4\",\"4912\",\"38\",\"0\",\"Training\",\"Stims/Figures/93-J-0-1.bmp\",\"fa:shasha\",\"Up\",\"40\",\"6\",\"3\",\"8\",\"C1\",\"J\",\"83\"
\"\",\"\",\"approach-retreat\",\"87\",\"748145\",\"0.0-87.0\",\"\",\"\",\"3-4\",\"4423\",\"37\",\"1\",\"Training\",\"Stims/Figures/7-J-10-4.bmp\",\"za:ha:ha\",\"Right\",\"37\",\"6\",\"4\",\"8\",\"C2\",\"J\",\"84\"
\"\",\"\",\"approach-retreat\",\"88\",\"754761\",\"0.0-88.0\",\"\",\"\",\"3-4\",\"5072\",\"37\",\"0\",\"Training\",\"Stims/Figures/118-J-0-2.bmp\",\"fa:fa:sha\",\"Left\",\"39\",\"6\",\"5\",\"8\",\"C1\",\"J\",\"85\"
\"\",\"\",\"approach-retreat\",\"89\",\"761143\",\"0.0-89.0\",\"\",\"\",\"3-4\",\"4844\",\"38\",\"0\",\"Training\",\"Stims/Figures/128-C-30-3.bmp\",\"za:ha:za\",\"Down\",\"40\",\"6\",\"6\",\"8\",\"C2\",\"J\",\"86\"
\"\",\"\",\"approach-retreat\",\"90\",\"769597\",\"0.0-90.0\",\"\",\"\",\"3-4\",\"6915\",\"39\",\"0\",\"Training\",\"Stims/Figures/118-C-20-2.bmp\",\"fa:sha:va\",\"Left\",\"37\",\"6\",\"7\",\"8\",\"C1\",\"J\",\"87\"
\"\",\"\",\"approach-retreat\",\"91\",\"775523\",\"0.0-91.0\",\"\",\"\",\"3-4\",\"4377\",\"40\",\"0\",\"Training\",\"Stims/Figures/102-C-20-4.bmp\",\"za:saza\",\"Up\",\"38\",\"6\",\"8\",\"8\",\"C2\",\"J\",\"88\"
\"\",\"\",\"approach-retreat\",\"92\",\"782305\",\"0.0-92.0\",\"\",\"\",\"3-4\",\"5245\",\"37\",\"1\",\"Training\",\"Stims/Figures/71-C-30-1.bmp\",\"fasha:sha\",\"Left\",\"37\",\"6\",\"9\",\"8\",\"C1\",\"J\",\"89\"
\"\",\"\",\"approach-retreat\",\"93\",\"788373\",\"0.0-93.0\",\"\",\"\",\"3-4\",\"4528\",\"37\",\"0\",\"Training\",\"Stims/Figures/71-J-0-1.bmp\",\"va:shasha\",\"Left\",\"39\",\"6\",\"10\",\"8\",\"C1\",\"J\",\"90\"
\"\",\"\",\"approach-retreat\",\"94\",\"794168\",\"0.0-94.0\",\"\",\"\",\"3-4\",\"4267\",\"39\",\"0\",\"Training\",\"Stims/Figures/102-J-10-4.bmp\",\"sa:saza\",\"Right\",\"37\",\"6\",\"11\",\"8\",\"C2\",\"J\",\"91\"
\"\",\"\",\"approach-retreat\",\"95\",\"800583\",\"0.0-95.0\",\"\",\"\",\"3-4\",\"4872\",\"38\",\"0\",\"Training\",\"Stims/Figures/85-J-0-2.bmp\",\"fashava\",\"Up\",\"40\",\"6\",\"12\",\"8\",\"C1\",\"J\",\"92\"
\"\",\"\",\"approach-retreat\",\"96\",\"806430\",\"0.0-96.0\",\"\",\"\",\"3-4\",\"4306\",\"38\",\"1\",\"Training\",\"Stims/Figures/128-J-10-3.bmp\",\"sa:saha\",\"Down\",\"38\",\"6\",\"13\",\"8\",\"C2\",\"J\",\"93\"
\"\",\"\",\"approach-retreat\",\"97\",\"812380\",\"0.0-97.0\",\"\",\"\",\"3-4\",\"4399\",\"40\",\"0\",\"Training\",\"Stims/Figures/85-C-20-2.bmp\",\"va:sha:sha\",\"Up\",\"38\",\"6\",\"14\",\"8\",\"C1\",\"J\",\"94\"
\"\",\"\",\"approach-retreat\",\"98\",\"818432\",\"0.0-98.0\",\"\",\"\",\"3-4\",\"4506\",\"38\",\"1\",\"Training\",\"Stims/Figures/100-J-10-3.bmp\",\"sahaha\",\"Down\",\"38\",\"6\",\"15\",\"8\",\"C2\",\"J\",\"95\"
\"\",\"\",\"approach-retreat\",\"99\",\"824635\",\"0.0-99.0\",\"\",\"\",\"3-4\",\"4662\",\"38\",\"0\",\"Training\",\"Stims/Figures/100-C-30-3.bmp\",\"saha:ha\",\"Down\",\"40\",\"6\",\"16\",\"8\",\"C2\",\"J\",\"96\"
\"\",\"\",\"approach-retreat\",\"100\",\"830648\",\"0.0-100.0\",\"\",\"\",\"3-4\",\"4470\",\"40\",\"0\",\"Training\",\"Stims/Figures/102-C-20-4.bmp\",\"za:saza\",\"Up\",\"38\",\"7\",\"1\",\"8\",\"C2\",\"J\",\"97\"
\"\",\"\",\"approach-retreat\",\"101\",\"837354\",\"0.0-101.0\",\"\",\"\",\"3-4\",\"5190\",\"37\",\"1\",\"Training\",\"Stims/Figures/118-C-20-2.bmp\",\"fa:sha:va\",\"Left\",\"37\",\"7\",\"2\",\"8\",\"C1\",\"J\",\"98\"
\"\",\"\",\"approach-retreat\",\"102\",\"844524\",\"0.0-102.0\",\"\",\"\",\"3-4\",\"5632\",\"38\",\"0\",\"Training\",\"Stims/Figures/100-C-30-3.bmp\",\"saha:ha\",\"Down\",\"40\",\"7\",\"3\",\"8\",\"C2\",\"J\",\"99\"
\"\",\"\",\"approach-retreat\",\"103\",\"850824\",\"0.0-103.0\",\"\",\"\",\"3-4\",\"4753\",\"40\",\"0\",\"Training\",\"Stims/Figures/71-C-30-1.bmp\",\"fasha:sha\",\"Up\",\"38\",\"7\",\"4\",\"8\",\"C1\",\"J\",\"100\"
\"\",\"\",\"approach-retreat\",\"104\",\"857279\",\"0.0-104.0\",\"\",\"\",\"3-4\",\"4937\",\"38\",\"1\",\"Training\",\"Stims/Figures/7-C-20-4.bmp\",\"sa:sa:za\",\"Up\",\"38\",\"7\",\"5\",\"8\",\"C2\",\"J\",\"101\"
\"\",\"\",\"approach-retreat\",\"105\",\"863227\",\"0.0-105.0\",\"\",\"\",\"3-4\",\"4422\",\"39\",\"0\",\"Training\",\"Stims/Figures/93-J-0-1.bmp\",\"fa:shasha\",\"Right\",\"37\",\"7\",\"6\",\"8\",\"C1\",\"J\",\"102\"
\"\",\"\",\"approach-retreat\",\"106\",\"870334\",\"0.0-106.0\",\"\",\"\",\"3-4\",\"5566\",\"39\",\"1\",\"Training\",\"Stims/Figures/118-J-0-2.bmp\",\"fa:fa:sha\",\"Left\",\"39\",\"7\",\"7\",\"8\",\"C1\",\"J\",\"103\"
\"\",\"\",\"approach-retreat\",\"107\",\"877384\",\"0.0-107.0\",\"\",\"\",\"3-4\",\"5515\",\"38\",\"1\",\"Training\",\"Stims/Figures/128-J-10-3.bmp\",\"sa:saha\",\"Down\",\"38\",\"7\",\"8\",\"8\",\"C2\",\"J\",\"104\"
\"\",\"\",\"approach-retreat\",\"108\",\"885869\",\"0.0-108.0\",\"\",\"\",\"3-4\",\"6946\",\"37\",\"1\",\"Training\",\"Stims/Figures/71-J-0-1.bmp\",\"va:shasha\",\"Right\",\"37\",\"7\",\"9\",\"8\",\"C1\",\"J\",\"105\"
\"\",\"\",\"approach-retreat\",\"109\",\"892866\",\"0.0-109.0\",\"\",\"\",\"3-4\",\"5468\",\"39\",\"0\",\"Training\",\"Stims/Figures/102-J-10-4.bmp\",\"sa:saza\",\"Right\",\"37\",\"7\",\"10\",\"8\",\"C2\",\"J\",\"106\"
\"\",\"\",\"approach-retreat\",\"110\",\"899422\",\"0.0-110.0\",\"\",\"\",\"3-4\",\"5021\",\"39\",\"1\",\"Training\",\"Stims/Figures/100-J-10-3.bmp\",\"sahaha\",\"Left\",\"39\",\"7\",\"11\",\"8\",\"C2\",\"J\",\"107\"
\"\",\"\",\"approach-retreat\",\"111\",\"906016\",\"0.0-111.0\",\"\",\"\",\"3-4\",\"5064\",\"38\",\"0\",\"Training\",\"Stims/Figures/128-C-30-3.bmp\",\"za:ha:za\",\"Down\",\"40\",\"7\",\"12\",\"8\",\"C2\",\"J\",\"108\"
\"\",\"\",\"approach-retreat\",\"112\",\"913098\",\"0.0-112.0\",\"\",\"\",\"3-4\",\"5549\",\"40\",\"0\",\"Training\",\"Stims/Figures/85-C-20-2.bmp\",\"va:sha:sha\",\"Up\",\"38\",\"7\",\"13\",\"8\",\"C1\",\"J\",\"109\"
\"\",\"\",\"approach-retreat\",\"113\",\"918978\",\"0.0-113.0\",\"\",\"\",\"3-4\",\"4337\",\"38\",\"1\",\"Training\",\"Stims/Figures/7-J-10-4.bmp\",\"za:ha:ha\",\"Down\",\"38\",\"7\",\"14\",\"8\",\"C2\",\"J\",\"110\"
\"\",\"\",\"approach-retreat\",\"114\",\"925244\",\"0.0-114.0\",\"\",\"\",\"3-4\",\"4729\",\"37\",\"1\",\"Training\",\"Stims/Figures/85-J-0-2.bmp\",\"fashava\",\"Right\",\"37\",\"7\",\"15\",\"8\",\"C1\",\"J\",\"111\"
\"\",\"\",\"approach-retreat\",\"115\",\"931357\",\"0.0-115.0\",\"\",\"\",\"3-4\",\"4575\",\"39\",\"0\",\"Training\",\"Stims/Figures/93-C-30-1.bmp\",\"fa:fasha\",\"Left\",\"37\",\"7\",\"16\",\"8\",\"C1\",\"J\",\"112\"
\"\",\"\",\"approach-retreat\",\"116\",\"938542\",\"0.0-116.0\",\"\",\"\",\"3-4\",\"5645\",\"40\",\"0\",\"Training\",\"Stims/Figures/93-C-30-1.bmp\",\"fa:fasha\",\"Up\",\"38\",\"8\",\"1\",\"8\",\"C1\",\"J\",\"113\"
\"\",\"\",\"approach-retreat\",\"117\",\"944667\",\"0.0-117.0\",\"\",\"\",\"3-4\",\"4591\",\"38\",\"1\",\"Training\",\"Stims/Figures/100-J-10-3.bmp\",\"sahaha\",\"Down\",\"38\",\"8\",\"2\",\"8\",\"C2\",\"J\",\"114\"
\"\",\"\",\"approach-retreat\",\"118\",\"952134\",\"0.0-118.0\",\"\",\"\",\"3-4\",\"5932\",\"39\",\"1\",\"Training\",\"Stims/Figures/102-C-20-4.bmp\",\"za:saza\",\"Right\",\"39\",\"8\",\"3\",\"8\",\"C2\",\"J\",\"115\"
\"\",\"\",\"approach-retreat\",\"119\",\"958295\",\"0.0-119.0\",\"\",\"\",\"3-4\",\"4625\",\"37\",\"0\",\"Training\",\"Stims/Figures/85-C-20-2.bmp\",\"va:sha:sha\",\"Right\",\"39\",\"8\",\"4\",\"8\",\"C1\",\"J\",\"116\"
\"\",\"\",\"approach-retreat\",\"120\",\"964438\",\"0.0-120.0\",\"\",\"\",\"3-4\",\"4601\",\"40\",\"1\",\"Training\",\"Stims/Figures/71-J-0-1.bmp\",\"va:shasha\",\"Up\",\"40\",\"8\",\"5\",\"8\",\"C1\",\"J\",\"117\"
\"\",\"\",\"approach-retreat\",\"121\",\"970466\",\"0.0-121.0\",\"\",\"\",\"3-4\",\"4500\",\"38\",\"1\",\"Training\",\"Stims/Figures/128-J-10-3.bmp\",\"sa:saha\",\"Down\",\"38\",\"8\",\"6\",\"8\",\"C2\",\"J\",\"118\"
\"\",\"\",\"approach-retreat\",\"122\",\"976646\",\"0.0-122.0\",\"\",\"\",\"3-4\",\"4639\",\"38\",\"1\",\"Training\",\"Stims/Figures/100-C-30-3.bmp\",\"saha:ha\",\"Up\",\"38\",\"8\",\"7\",\"8\",\"C2\",\"J\",\"119\"
\"\",\"\",\"approach-retreat\",\"123\",\"983007\",\"0.0-123.0\",\"\",\"\",\"3-4\",\"4819\",\"39\",\"1\",\"Training\",\"Stims/Figures/118-J-0-2.bmp\",\"fa:fa:sha\",\"Left\",\"39\",\"8\",\"8\",\"8\",\"C1\",\"J\",\"120\"
\"\",\"\",\"approach-retreat\",\"124\",\"990831\",\"0.0-124.0\",\"\",\"\",\"3-4\",\"6287\",\"40\",\"1\",\"Training\",\"Stims/Figures/118-C-20-2.bmp\",\"fa:sha:va\",\"Down\",\"40\",\"8\",\"9\",\"8\",\"C1\",\"J\",\"121\"
\"\",\"\",\"approach-retreat\",\"125\",\"997116\",\"0.0-125.0\",\"\",\"\",\"3-4\",\"4743\",\"39\",\"0\",\"Training\",\"Stims/Figures/102-J-10-4.bmp\",\"sa:saza\",\"Right\",\"37\",\"8\",\"10\",\"8\",\"C2\",\"J\",\"122\"
\"\",\"\",\"approach-retreat\",\"126\",\"1002874\",\"0.0-126.0\",\"\",\"\",\"3-4\",\"4218\",\"40\",\"1\",\"Training\",\"Stims/Figures/7-J-10-4.bmp\",\"za:ha:ha\",\"Up\",\"40\",\"8\",\"11\",\"8\",\"C2\",\"J\",\"123\"
\"\",\"\",\"approach-retreat\",\"127\",\"1008969\",\"0.0-127.0\",\"\",\"\",\"3-4\",\"4564\",\"40\",\"0\",\"Training\",\"Stims/Figures/85-J-0-2.bmp\",\"fashava\",\"Down\",\"38\",\"8\",\"12\",\"8\",\"C1\",\"J\",\"124\"
\"\",\"\",\"approach-retreat\",\"128\",\"1014863\",\"0.0-128.0\",\"\",\"\",\"3-4\",\"4360\",\"37\",\"1\",\"Training\",\"Stims/Figures/71-C-30-1.bmp\",\"fasha:sha\",\"Left\",\"37\",\"8\",\"13\",\"8\",\"C1\",\"J\",\"125\"
\"\",\"\",\"approach-retreat\",\"129\",\"1021116\",\"0.0-129.0\",\"\",\"\",\"3-4\",\"4705\",\"39\",\"0\",\"Training\",\"Stims/Figures/128-C-30-3.bmp\",\"za:ha:za\",\"Left\",\"37\",\"8\",\"14\",\"8\",\"C2\",\"J\",\"126\"
\"\",\"\",\"approach-retreat\",\"130\",\"1027916\",\"0.0-130.0\",\"\",\"\",\"3-4\",\"5272\",\"39\",\"1\",\"Training\",\"Stims/Figures/93-J-0-1.bmp\",\"fa:shasha\",\"Left\",\"39\",\"8\",\"15\",\"8\",\"C1\",\"J\",\"127\"
\"\",\"\",\"approach-retreat\",\"131\",\"1033624\",\"0.0-131.0\",\"\",\"\",\"3-4\",\"4171\",\"39\",\"1\",\"Training\",\"Stims/Figures/7-C-20-4.bmp\",\"sa:sa:za\",\"Right\",\"39\",\"8\",\"16\",\"8\",\"C2\",\"J\",\"128\"
\"\",\"\",\"approach-retreat\",\"132\",\"1039342\",\"0.0-132.0\",\"\",\"\",\"3-4\",\"4174\",\"39\",\"1\",\"Training\",\"Stims/Figures/7-J-10-4.bmp\",\"za:ha:ha\",\"Left\",\"39\",\"9\",\"1\",\"8\",\"C2\",\"J\",\"129\"
\"\",\"\",\"approach-retreat\",\"133\",\"1045458\",\"0.0-133.0\",\"\",\"\",\"3-4\",\"4572\",\"38\",\"1\",\"Training\",\"Stims/Figures/100-J-10-3.bmp\",\"sahaha\",\"Down\",\"38\",\"9\",\"2\",\"8\",\"C2\",\"J\",\"130\"
\"\",\"\",\"approach-retreat\",\"134\",\"1051721\",\"0.0-134.0\",\"\",\"\",\"3-4\",\"4729\",\"39\",\"1\",\"Training\",\"Stims/Figures/7-C-20-4.bmp\",\"sa:sa:za\",\"Right\",\"39\",\"9\",\"3\",\"8\",\"C2\",\"J\",\"131\"
\"\",\"\",\"approach-retreat\",\"135\",\"1057453\",\"0.0-135.0\",\"\",\"\",\"3-4\",\"4186\",\"38\",\"0\",\"Training\",\"Stims/Figures/71-J-0-1.bmp\",\"va:shasha\",\"Up\",\"40\",\"9\",\"4\",\"8\",\"C1\",\"J\",\"132\"
\"\",\"\",\"approach-retreat\",\"136\",\"1062972\",\"0.0-136.0\",\"\",\"\",\"3-4\",\"3972\",\"40\",\"0\",\"Training\",\"Stims/Figures/128-J-10-3.bmp\",\"sa:saha\",\"Down\",\"38\",\"9\",\"5\",\"8\",\"C2\",\"J\",\"133\"
\"\",\"\",\"approach-retreat\",\"137\",\"1068655\",\"0.0-137.0\",\"\",\"\",\"3-4\",\"4144\",\"39\",\"1\",\"Training\",\"Stims/Figures/118-C-20-2.bmp\",\"fa:sha:va\",\"Right\",\"39\",\"9\",\"6\",\"8\",\"C1\",\"J\",\"134\"
\"\",\"\",\"approach-retreat\",\"138\",\"1074926\",\"0.0-138.0\",\"\",\"\",\"3-4\",\"4720\",\"39\",\"0\",\"Training\",\"Stims/Figures/93-C-30-1.bmp\",\"fa:fasha\",\"Left\",\"37\",\"9\",\"7\",\"8\",\"C1\",\"J\",\"135\"
\"\",\"\",\"approach-retreat\",\"139\",\"1081233\",\"0.0-139.0\",\"\",\"\",\"3-4\",\"4760\",\"39\",\"0\",\"Training\",\"Stims/Figures/100-C-30-3.bmp\",\"saha:ha\",\"Left\",\"37\",\"9\",\"8\",\"8\",\"C2\",\"J\",\"136\"
\"\",\"\",\"approach-retreat\",\"140\",\"1087481\",\"0.0-140.0\",\"\",\"\",\"3-4\",\"4720\",\"37\",\"0\",\"Training\",\"Stims/Figures/71-C-30-1.bmp\",\"fasha:sha\",\"Right\",\"39\",\"9\",\"9\",\"8\",\"C1\",\"J\",\"137\"
\"\",\"\",\"approach-retreat\",\"141\",\"1093823\",\"0.0-141.0\",\"\",\"\",\"3-4\",\"4797\",\"38\",\"1\",\"Training\",\"Stims/Figures/85-C-20-2.bmp\",\"va:sha:sha\",\"Up\",\"38\",\"9\",\"10\",\"8\",\"C1\",\"J\",\"138\"
\"\",\"\",\"approach-retreat\",\"142\",\"1100144\",\"0.0-142.0\",\"\",\"\",\"3-4\",\"4783\",\"40\",\"0\",\"Training\",\"Stims/Figures/128-C-30-3.bmp\",\"za:ha:za\",\"Up\",\"38\",\"9\",\"11\",\"8\",\"C2\",\"J\",\"139\"
\"\",\"\",\"approach-retreat\",\"143\",\"1106190\",\"0.0-143.0\",\"\",\"\",\"3-4\",\"4516\",\"38\",\"0\",\"Training\",\"Stims/Figures/102-C-20-4.bmp\",\"za:saza\",\"Down\",\"40\",\"9\",\"12\",\"8\",\"C2\",\"J\",\"140\"
\"\",\"\",\"approach-retreat\",\"144\",\"1112155\",\"0.0-144.0\",\"\",\"\",\"3-4\",\"4419\",\"39\",\"0\",\"Training\",\"Stims/Figures/93-J-0-1.bmp\",\"fa:shasha\",\"Right\",\"37\",\"9\",\"13\",\"8\",\"C1\",\"J\",\"141\"
\"\",\"\",\"approach-retreat\",\"145\",\"1118600\",\"0.0-145.0\",\"\",\"\",\"3-4\",\"4906\",\"40\",\"0\",\"Training\",\"Stims/Figures/102-J-10-4.bmp\",\"sa:saza\",\"Down\",\"38\",\"9\",\"14\",\"8\",\"C2\",\"J\",\"142\"
\"\",\"\",\"approach-retreat\",\"146\",\"1124634\",\"0.0-146.0\",\"\",\"\",\"3-4\",\"4488\",\"38\",\"0\",\"Training\",\"Stims/Figures/85-J-0-2.bmp\",\"fashava\",\"Up\",\"40\",\"9\",\"15\",\"8\",\"C1\",\"J\",\"143\"
\"\",\"\",\"approach-retreat\",\"147\",\"1130846\",\"0.0-147.0\",\"\",\"\",\"3-4\",\"4668\",\"39\",\"1\",\"Training\",\"Stims/Figures/118-J-0-2.bmp\",\"fa:fa:sha\",\"Left\",\"39\",\"9\",\"16\",\"8\",\"C1\",\"J\",\"144\"
\"\",\"\",\"instructions\",\"148\",\"1147204\",\"0.0-148.0\",\"\",\"\",\"3-4\",\"21033\",\"37\",\"0\",\"Training\",\"Stims/Figures/118-J-0-2.bmp\",\"fa:fa:sha\",\"Left\",\"39\",\"9\",\"16\",\"8\",\"C1\",\"J\",\"\"
\"20912\",\"\",\"approach-retreat\",\"149\",\"1151758\",\"0.0-149.0\",\"[{\"\"page_index\"\":0,\"\"viewing_time\"\":20908}]\",\"\",\"\",\"\",\"\",\"\",\"\",\"\",\"\",\"\",\"\",\"\",\"\",\"\",\"\",\"\",\"1\"
\"\",\"\",\"approach-retreat\",\"150\",\"1159565\",\"0.0-150.0\",\"\",\"\",\"3-4\",\"6277\",\"38\",\"0\",\"Testing\",\"Stims/Figures/102-J-10-4.bmp\",\"sa:saza\",\"Up\",\"40\",\"1\",\"2\",\"8\",\"C2\",\"J\",\"2\"
\"\",\"\",\"approach-retreat\",\"151\",\"1167493\",\"0.0-151.0\",\"\",\"\",\"3-4\",\"6395\",\"39\",\"1\",\"Testing\",\"Stims/Figures/139-C-20-2.bmp\",\"fa:fa:va\",\"Right\",\"39\",\"1\",\"3\",\"8\",\"C1\",\"J\",\"3\"
\"\",\"\",\"approach-retreat\",\"152\",\"1174960\",\"0.0-152.0\",\"\",\"\",\"3-4\",\"5926\",\"40\",\"1\",\"Testing\",\"Stims/Figures/93-C-30-1.bmp\",\"fa:fasha\",\"Down\",\"40\",\"1\",\"4\",\"8\",\"C1\",\"J\",\"4\"
\"\",\"\",\"approach-retreat\",\"153\",\"1181621\",\"0.0-153.0\",\"\",\"\",\"3-4\",\"5129\",\"37\",\"1\",\"Testing\",\"Stims/Figures/100-J-10-3.bmp\",\"sahaha\",\"Right\",\"37\",\"1\",\"5\",\"8\",\"C2\",\"J\",\"5\"
\"\",\"\",\"approach-retreat\",\"154\",\"1187785\",\"0.0-154.0\",\"\",\"\",\"3-4\",\"4633\",\"38\",\"0\",\"Testing\",\"Stims/Figures/128-C-30-3.bmp\",\"za:ha:za\",\"Down\",\"40\",\"1\",\"6\",\"8\",\"C2\",\"J\",\"6\"
\"\",\"\",\"approach-retreat\",\"155\",\"1192869\",\"0.0-155.0\",\"\",\"\",\"3-4\",\"3544\",\"39\",\"1\",\"Testing\",\"Stims/Figures/85-J-0-2.bmp\",\"fashava\",\"Left\",\"39\",\"1\",\"7\",\"8\",\"C1\",\"J\",\"7\"
\"\",\"\",\"approach-retreat\",\"156\",\"1200910\",\"0.0-156.0\",\"\",\"\",\"3-4\",\"6517\",\"40\",\"1\",\"Testing\",\"Stims/Figures/111-J-10-3.bmp\",\"zaha:za\",\"Up\",\"40\",\"1\",\"8\",\"8\",\"C2\",\"J\",\"8\"
\"\",\"\",\"approach-retreat\",\"157\",\"1208110\",\"0.0-157.0\",\"\",\"\",\"3-4\",\"5669\",\"38\",\"1\",\"Testing\",\"Stims/Figures/7-J-10-4.bmp\",\"za:ha:ha\",\"Down\",\"38\",\"1\",\"9\",\"8\",\"C2\",\"J\",\"9\"
\"\",\"\",\"approach-retreat\",\"158\",\"1215609\",\"0.0-158.0\",\"\",\"\",\"3-4\",\"5967\",\"38\",\"1\",\"Testing\",\"Stims/Figures/93-J-0-1.bmp\",\"fa:shasha\",\"Down\",\"38\",\"1\",\"10\",\"8\",\"C1\",\"J\",\"10\"
\"\",\"\",\"approach-retreat\",\"159\",\"1221537\",\"0.0-159.0\",\"\",\"\",\"3-4\",\"4396\",\"40\",\"0\",\"Testing\",\"Stims/Figures/57-C-30-1.bmp\",\"va:sha:va\",\"Up\",\"38\",\"1\",\"11\",\"8\",\"C1\",\"J\",\"11\"
\"\",\"\",\"approach-retreat\",\"160\",\"1227621\",\"0.0-160.0\",\"\",\"\",\"3-4\",\"4552\",\"40\",\"1\",\"Testing\",\"Stims/Figures/71-J-0-1.bmp\",\"va:shasha\",\"Up\",\"40\",\"1\",\"12\",\"8\",\"C1\",\"J\",\"12\"
\"\",\"\",\"approach-retreat\",\"161\",\"1233936\",\"0.0-161.0\",\"\",\"\",\"3-4\",\"4766\",\"37\",\"0\",\"Testing\",\"Stims/Figures/87-C-20-4.bmp\",\"sasa:za\",\"Right\",\"39\",\"1\",\"13\",\"8\",\"C2\",\"J\",\"13\"
\"\",\"\",\"approach-retreat\",\"162\",\"1241035\",\"0.0-162.0\",\"\",\"\",\"3-4\",\"5562\",\"39\",\"0\",\"Testing\",\"Stims/Figures/102-C-20-4.bmp\",\"za:saza\",\"Left\",\"37\",\"1\",\"14\",\"8\",\"C2\",\"J\",\"14\"
\"\",\"\",\"approach-retreat\",\"163\",\"1248638\",\"0.0-163.0\",\"\",\"\",\"3-4\",\"6074\",\"37\",\"0\",\"Testing\",\"Stims/Figures/100-C-30-3.bmp\",\"saha:ha\",\"Right\",\"39\",\"1\",\"15\",\"8\",\"C2\",\"J\",\"15\"
\"\",\"\",\"approach-retreat\",\"164\",\"1255573\",\"0.0-164.0\",\"\",\"\",\"3-4\",\"5397\",\"38\",\"0\",\"Testing\",\"Stims/Figures/87-J-10-4.bmp\",\"sa:sa:ha\",\"Up\",\"40\",\"1\",\"16\",\"8\",\"C2\",\"J\",\"16\"
\"\",\"\",\"approach-retreat\",\"165\",\"1264681\",\"0.0-165.0\",\"\",\"\",\"3-4\",\"7558\",\"39\",\"0\",\"Testing\",\"Stims/Figures/111-C-30-3.bmp\",\"zasaha\",\"Left\",\"37\",\"1\",\"17\",\"8\",\"C2\",\"J\",\"17\"
\"\",\"\",\"approach-retreat\",\"166\",\"1270547\",\"0.0-166.0\",\"\",\"\",\"3-4\",\"4328\",\"39\",\"1\",\"Testing\",\"Stims/Figures/118-J-0-2.bmp\",\"fa:fa:sha\",\"Left\",\"39\",\"1\",\"18\",\"8\",\"C1\",\"J\",\"18\"
\"\",\"\",\"approach-retreat\",\"167\",\"1276398\",\"0.0-167.0\",\"\",\"\",\"3-4\",\"4296\",\"40\",\"0\",\"Testing\",\"Stims/Figures/139-J-0-2.bmp\",\"vashava\",\"Down\",\"38\",\"1\",\"19\",\"8\",\"C1\",\"J\",\"19\"
\"\",\"\",\"approach-retreat\",\"168\",\"1282129\",\"0.0-168.0\",\"\",\"\",\"3-4\",\"4202\",\"39\",\"1\",\"Testing\",\"Stims/Figures/128-J-10-3.bmp\",\"sa:saha\",\"Left\",\"39\",\"1\",\"20\",\"8\",\"C2\",\"J\",\"20\"
\"\",\"\",\"approach-retreat\",\"169\",\"1288341\",\"0.0-169.0\",\"\",\"\",\"3-4\",\"4686\",\"37\",\"1\",\"Testing\",\"Stims/Figures/57-J-0-1.bmp\",\"vashasha\",\"Right\",\"37\",\"1\",\"21\",\"8\",\"C1\",\"J\",\"21\"
\"\",\"\",\"approach-retreat\",\"170\",\"1294162\",\"0.0-170.0\",\"\",\"\",\"3-4\",\"4301\",\"39\",\"1\",\"Testing\",\"Stims/Figures/118-C-20-2.bmp\",\"fa:sha:va\",\"Right\",\"39\",\"1\",\"22\",\"8\",\"C1\",\"J\",\"22\"
\"\",\"\",\"approach-retreat\",\"171\",\"1302138\",\"0.0-171.0\",\"\",\"\",\"3-4\",\"6439\",\"37\",\"1\",\"Testing\",\"Stims/Figures/85-C-20-2.bmp\",\"va:sha:sha\",\"Left\",\"37\",\"1\",\"23\",\"8\",\"C1\",\"J\",\"23\"
\"\",\"\",\"approach-retreat\",\"172\",\"1308036\",\"0.0-172.0\",\"\",\"\",\"3-4\",\"4370\",\"40\",\"1\",\"Testing\",\"Stims/Figures/7-C-20-4.bmp\",\"sa:sa:za\",\"Down\",\"40\",\"1\",\"24\",\"8\",\"C2\",\"J\",\"24\"
\"\",\"\",\"approach-retreat\",\"173\",\"1314010\",\"0.0-173.0\",\"\",\"\",\"3-4\",\"4445\",\"38\",\"1\",\"Testing\",\"Stims/Figures/102-J-10-4.bmp\",\"sa:saza\",\"Down\",\"38\",\"2\",\"1\",\"8\",\"C2\",\"J\",\"25\"
\"\",\"\",\"approach-retreat\",\"174\",\"1320678\",\"0.0-174.0\",\"\",\"\",\"3-4\",\"5142\",\"37\",\"0\",\"Testing\",\"Stims/Figures/118-C-20-2.bmp\",\"fa:sha:va\",\"Right\",\"39\",\"2\",\"2\",\"8\",\"C1\",\"J\",\"26\"
\"\",\"\",\"approach-retreat\",\"175\",\"1326597\",\"0.0-175.0\",\"\",\"\",\"3-4\",\"4387\",\"39\",\"1\",\"Testing\",\"Stims/Figures/71-J-0-1.bmp\",\"va:shasha\",\"Left\",\"39\",\"2\",\"3\",\"8\",\"C1\",\"J\",\"27\"
\"\",\"\",\"approach-retreat\",\"176\",\"1332463\",\"0.0-176.0\",\"\",\"\",\"3-4\",\"4349\",\"40\",\"1\",\"Testing\",\"Stims/Figures/100-J-10-3.bmp\",\"sahaha\",\"Up\",\"40\",\"2\",\"4\",\"8\",\"C2\",\"J\",\"28\"
\"\",\"\",\"approach-retreat\",\"177\",\"1338079\",\"0.0-177.0\",\"\",\"\",\"3-4\",\"4075\",\"40\",\"1\",\"Testing\",\"Stims/Figures/118-J-0-2.bmp\",\"fa:fa:sha\",\"Up\",\"40\",\"2\",\"5\",\"8\",\"C1\",\"J\",\"29\"
\"\",\"\",\"approach-retreat\",\"178\",\"1344333\",\"0.0-178.0\",\"\",\"\",\"3-4\",\"4715\",\"40\",\"1\",\"Testing\",\"Stims/Figures/57-J-0-1.bmp\",\"vashasha\",\"Up\",\"40\",\"2\",\"6\",\"8\",\"C1\",\"J\",\"30\"
\"\",\"\",\"approach-retreat\",\"179\",\"1350588\",\"0.0-179.0\",\"\",\"\",\"3-4\",\"4728\",\"37\",\"0\",\"Testing\",\"Stims/Figures/93-J-0-1.bmp\",\"fa:shasha\",\"Left\",\"39\",\"2\",\"7\",\"8\",\"C1\",\"J\",\"31\"
\"\",\"\",\"approach-retreat\",\"180\",\"1356442\",\"0.0-180.0\",\"\",\"\",\"3-4\",\"4345\",\"40\",\"0\",\"Testing\",\"Stims/Figures/128-C-30-3.bmp\",\"za:ha:za\",\"Up\",\"38\",\"2\",\"8\",\"8\",\"C2\",\"J\",\"32\"
\"\",\"\",\"approach-retreat\",\"181\",\"1362715\",\"0.0-181.0\",\"\",\"\",\"3-4\",\"4761\",\"39\",\"0\",\"Testing\",\"Stims/Figures/87-C-20-4.bmp\",\"sasa:za\",\"Left\",\"37\",\"2\",\"9\",\"8\",\"C2\",\"J\",\"33\"
\"\",\"\",\"approach-retreat\",\"182\",\"1368768\",\"0.0-182.0\",\"\",\"\",\"3-4\",\"4536\",\"39\",\"1\",\"Testing\",\"Stims/Figures/111-J-10-3.bmp\",\"zaha:za\",\"Left\",\"39\",\"2\",\"10\",\"8\",\"C2\",\"J\",\"34\"
\"\",\"\",\"approach-retreat\",\"183\",\"1374671\",\"0.0-183.0\",\"\",\"\",\"3-4\",\"4373\",\"39\",\"1\",\"Testing\",\"Stims/Figures/7-J-10-4.bmp\",\"za:ha:ha\",\"Left\",\"39\",\"2\",\"11\",\"8\",\"C2\",\"J\",\"35\"
\"\",\"\",\"approach-retreat\",\"184\",\"1381971\",\"0.0-184.0\",\"\",\"\",\"3-4\",\"5777\",\"39\",\"1\",\"Testing\",\"Stims/Figures/111-C-30-3.bmp\",\"zasaha\",\"Right\",\"39\",\"2\",\"12\",\"8\",\"C2\",\"J\",\"36\"
\"\",\"\",\"approach-retreat\",\"185\",\"1388352\",\"0.0-185.0\",\"\",\"\",\"3-4\",\"4849\",\"37\",\"0\",\"Testing\",\"Stims/Figures/7-C-20-4.bmp\",\"sa:sa:za\",\"Right\",\"39\",\"2\",\"13\",\"8\",\"C2\",\"J\",\"37\"
\"\",\"\",\"approach-retreat\",\"186\",\"1395770\",\"0.0-186.0\",\"\",\"\",\"3-4\",\"5910\",\"37\",\"0\",\"Testing\",\"Stims/Figures/85-J-0-2.bmp\",\"fashava\",\"Left\",\"39\",\"2\",\"14\",\"8\",\"C1\",\"J\",\"38\"
\"\",\"\",\"approach-retreat\",\"187\",\"1401884\",\"0.0-187.0\",\"\",\"\",\"3-4\",\"4583\",\"37\",\"0\",\"Testing\",\"Stims/Figures/57-C-30-1.bmp\",\"va:sha:va\",\"Right\",\"39\",\"2\",\"15\",\"8\",\"C1\",\"J\",\"39\"
\"\",\"\",\"approach-retreat\",\"188\",\"1408314\",\"0.0-188.0\",\"\",\"\",\"3-4\",\"4913\",\"38\",\"1\",\"Testing\",\"Stims/Figures/85-C-20-2.bmp\",\"va:sha:sha\",\"Up\",\"38\",\"2\",\"16\",\"8\",\"C1\",\"J\",\"40\"
\"\",\"\",\"approach-retreat\",\"189\",\"1414417\",\"0.0-189.0\",\"\",\"\",\"3-4\",\"4577\",\"39\",\"1\",\"Testing\",\"Stims/Figures/93-C-30-1.bmp\",\"fa:fasha\",\"Right\",\"39\",\"2\",\"17\",\"8\",\"C1\",\"J\",\"41\"
\"\",\"\",\"approach-retreat\",\"190\",\"1420453\",\"0.0-190.0\",\"\",\"\",\"3-4\",\"4498\",\"38\",\"1\",\"Testing\",\"Stims/Figures/128-J-10-3.bmp\",\"sa:saha\",\"Down\",\"38\",\"2\",\"18\",\"8\",\"C2\",\"J\",\"42\"
\"\",\"\",\"approach-retreat\",\"191\",\"1426336\",\"0.0-191.0\",\"\",\"\",\"3-4\",\"4367\",\"40\",\"1\",\"Testing\",\"Stims/Figures/139-J-0-2.bmp\",\"vashava\",\"Up\",\"40\",\"2\",\"19\",\"8\",\"C1\",\"J\",\"43\"
\"\",\"\",\"approach-retreat\",\"192\",\"1432185\",\"0.0-192.0\",\"\",\"\",\"3-4\",\"4310\",\"40\",\"1\",\"Testing\",\"Stims/Figures/102-C-20-4.bmp\",\"za:saza\",\"Down\",\"40\",\"2\",\"20\",\"8\",\"C2\",\"J\",\"44\"
\"\",\"\",\"approach-retreat\",\"193\",\"1438099\",\"0.0-193.0\",\"\",\"\",\"3-4\",\"4393\",\"38\",\"1\",\"Testing\",\"Stims/Figures/87-J-10-4.bmp\",\"sa:sa:ha\",\"Down\",\"38\",\"2\",\"21\",\"8\",\"C2\",\"J\",\"45\"
\"\",\"\",\"approach-retreat\",\"194\",\"1444309\",\"0.0-194.0\",\"\",\"\",\"3-4\",\"4662\",\"37\",\"0\",\"Testing\",\"Stims/Figures/100-C-30-3.bmp\",\"saha:ha\",\"Right\",\"39\",\"2\",\"22\",\"8\",\"C2\",\"J\",\"46\"
\"\",\"\",\"approach-retreat\",\"195\",\"1450345\",\"0.0-195.0\",\"\",\"\",\"3-4\",\"4498\",\"38\",\"0\",\"Testing\",\"Stims/Figures/71-C-30-1.bmp\",\"fasha:sha\",\"Down\",\"40\",\"2\",\"23\",\"8\",\"C1\",\"J\",\"47\"
\"\",\"\",\"approach-retreat\",\"196\",\"1456102\",\"0.0-196.0\",\"\",\"\",\"3-4\",\"4241\",\"38\",\"0\",\"Testing\",\"Stims/Figures/139-C-20-2.bmp\",\"fa:fa:va\",\"Down\",\"40\",\"2\",\"24\",\"8\",\"C1\",\"J\",\"48\"
\"\",\"\",\"approach-retreat\",\"197\",\"1461932\",\"0.0-197.0\",\"\",\"\",\"3-4\",\"4304\",\"40\",\"0\",\"Testing\",\"Stims/Figures/71-C-30-1.bmp\",\"fasha:sha\",\"Up\",\"38\",\"3\",\"1\",\"8\",\"C1\",\"J\",\"49\"
\"\",\"\",\"approach-retreat\",\"198\",\"1468143\",\"0.0-198.0\",\"\",\"\",\"3-4\",\"4692\",\"39\",\"1\",\"Testing\",\"Stims/Figures/93-J-0-1.bmp\",\"fa:shasha\",\"Left\",\"39\",\"3\",\"2\",\"8\",\"C1\",\"J\",\"50\"
\"\",\"\",\"approach-retreat\",\"199\",\"1473914\",\"0.0-199.0\",\"\",\"\",\"3-4\",\"4236\",\"40\",\"1\",\"Testing\",\"Stims/Figures/87-J-10-4.bmp\",\"sa:sa:ha\",\"Up\",\"40\",\"3\",\"3\",\"8\",\"C2\",\"J\",\"51\"
\"\",\"\",\"approach-retreat\",\"200\",\"1479736\",\"0.0-200.0\",\"\",\"\",\"3-4\",\"4314\",\"39\",\"1\",\"Testing\",\"Stims/Figures/102-J-10-4.bmp\",\"sa:saza\",\"Left\",\"39\",\"3\",\"4\",\"8\",\"C2\",\"J\",\"52\"
\"\",\"\",\"approach-retreat\",\"201\",\"1485618\",\"0.0-201.0\",\"\",\"\",\"3-4\",\"4365\",\"38\",\"1\",\"Testing\",\"Stims/Figures/100-J-10-3.bmp\",\"sahaha\",\"Down\",\"38\",\"3\",\"5\",\"8\",\"C2\",\"J\",\"53\"
\"\",\"\",\"approach-retreat\",\"202\",\"1491737\",\"0.0-202.0\",\"\",\"\",\"3-4\",\"4596\",\"37\",\"0\",\"Testing\",\"Stims/Figures/111-C-30-3.bmp\",\"zasaha\",\"Right\",\"39\",\"3\",\"6\",\"8\",\"C2\",\"J\",\"54\"
\"\",\"\",\"approach-retreat\",\"203\",\"1497580\",\"0.0-203.0\",\"\",\"\",\"3-4\",\"4328\",\"39\",\"1\",\"Testing\",\"Stims/Figures/128-J-10-3.bmp\",\"sa:saha\",\"Left\",\"39\",\"3\",\"7\",\"8\",\"C2\",\"J\",\"55\"
\"\",\"\",\"approach-retreat\",\"204\",\"1503304\",\"0.0-204.0\",\"\",\"\",\"3-4\",\"4196\",\"40\",\"0\",\"Testing\",\"Stims/Figures/128-C-30-3.bmp\",\"za:ha:za\",\"Up\",\"38\",\"3\",\"8\",\"8\",\"C2\",\"J\",\"56\"
\"\",\"\",\"approach-retreat\",\"205\",\"1509125\",\"0.0-205.0\",\"\",\"\",\"3-4\",\"4291\",\"38\",\"0\",\"Testing\",\"Stims/Figures/139-C-20-2.bmp\",\"fa:fa:va\",\"Down\",\"40\",\"3\",\"9\",\"8\",\"C1\",\"J\",\"57\"
\"\",\"\",\"approach-retreat\",\"206\",\"1514925\",\"0.0-206.0\",\"\",\"\",\"3-4\",\"4267\",\"39\",\"0\",\"Testing\",\"Stims/Figures/100-C-30-3.bmp\",\"saha:ha\",\"Left\",\"37\",\"3\",\"10\",\"8\",\"C2\",\"J\",\"58\"
\"\",\"\",\"approach-retreat\",\"207\",\"1520915\",\"0.0-207.0\",\"\",\"\",\"3-4\",\"4456\",\"37\",\"0\",\"Testing\",\"Stims/Figures/139-J-0-2.bmp\",\"vashava\",\"Left\",\"39\",\"3\",\"11\",\"8\",\"C1\",\"J\",\"59\"
\"\",\"\",\"approach-retreat\",\"208\",\"1526716\",\"0.0-208.0\",\"\",\"\",\"3-4\",\"4274\",\"38\",\"0\",\"Testing\",\"Stims/Figures/93-C-30-1.bmp\",\"fa:fasha\",\"Down\",\"40\",\"3\",\"12\",\"8\",\"C1\",\"J\",\"60\"
\"\",\"\",\"approach-retreat\",\"209\",\"1532645\",\"0.0-209.0\",\"\",\"\",\"3-4\",\"4421\",\"37\",\"0\",\"Testing\",\"Stims/Figures/85-C-20-2.bmp\",\"va:sha:sha\",\"Right\",\"39\",\"3\",\"13\",\"8\",\"C1\",\"J\",\"61\"
\"\",\"\",\"approach-retreat\",\"210\",\"1538475\",\"0.0-210.0\",\"\",\"\",\"3-4\",\"4308\",\"40\",\"1\",\"Testing\",\"Stims/Figures/71-J-0-1.bmp\",\"va:shasha\",\"Up\",\"40\",\"3\",\"14\",\"8\",\"C1\",\"J\",\"62\"
\"\",\"\",\"approach-retreat\",\"211\",\"1544214\",\"0.0-211.0\",\"\",\"\",\"3-4\",\"4226\",\"40\",\"0\",\"Testing\",\"Stims/Figures/57-C-30-1.bmp\",\"va:sha:va\",\"Up\",\"38\",\"3\",\"15\",\"8\",\"C1\",\"J\",\"63\"
\"\",\"\",\"approach-retreat\",\"212\",\"1550154\",\"0.0-212.0\",\"\",\"\",\"3-4\",\"4409\",\"37\",\"0\",\"Testing\",\"Stims/Figures/87-C-20-4.bmp\",\"sasa:za\",\"Right\",\"39\",\"3\",\"16\",\"8\",\"C2\",\"J\",\"64\"
\"\",\"\",\"approach-retreat\",\"213\",\"1555972\",\"0.0-213.0\",\"\",\"\",\"3-4\",\"4308\",\"37\",\"1\",\"Testing\",\"Stims/Figures/7-J-10-4.bmp\",\"za:ha:ha\",\"Right\",\"37\",\"3\",\"17\",\"8\",\"C2\",\"J\",\"65\"
\"\",\"\",\"approach-retreat\",\"214\",\"1561788\",\"0.0-214.0\",\"\",\"\",\"3-4\",\"4295\",\"39\",\"0\",\"Testing\",\"Stims/Figures/118-C-20-2.bmp\",\"fa:sha:va\",\"Left\",\"37\",\"3\",\"18\",\"8\",\"C1\",\"J\",\"66\"
\"\",\"\",\"approach-retreat\",\"215\",\"1567906\",\"0.0-215.0\",\"\",\"\",\"3-4\",\"4592\",\"39\",\"0\",\"Testing\",\"Stims/Figures/118-J-0-2.bmp\",\"fa:fa:sha\",\"Right\",\"37\",\"3\",\"19\",\"8\",\"C1\",\"J\",\"67\"
\"\",\"\",\"approach-retreat\",\"216\",\"1574208\",\"0.0-216.0\",\"\",\"\",\"3-4\",\"4778\",\"38\",\"0\",\"Testing\",\"Stims/Figures/7-C-20-4.bmp\",\"sa:sa:za\",\"Down\",\"40\",\"3\",\"20\",\"8\",\"C2\",\"J\",\"68\"
\"\",\"\",\"approach-retreat\",\"217\",\"1580509\",\"0.0-217.0\",\"\",\"\",\"3-4\",\"4785\",\"37\",\"1\",\"Testing\",\"Stims/Figures/111-J-10-3.bmp\",\"zaha:za\",\"Right\",\"37\",\"3\",\"21\",\"8\",\"C2\",\"J\",\"69\"
\"\",\"\",\"approach-retreat\",\"218\",\"1587487\",\"0.0-218.0\",\"\",\"\",\"3-4\",\"5442\",\"38\",\"0\",\"Testing\",\"Stims/Figures/85-J-0-2.bmp\",\"fashava\",\"Up\",\"40\",\"3\",\"22\",\"8\",\"C1\",\"J\",\"70\"
\"\",\"\",\"approach-retreat\",\"219\",\"1593404\",\"0.0-219.0\",\"\",\"\",\"3-4\",\"4384\",\"40\",\"0\",\"Testing\",\"Stims/Figures/57-J-0-1.bmp\",\"vashasha\",\"Down\",\"38\",\"3\",\"23\",\"8\",\"C1\",\"J\",\"71\"
\"\",\"\",\"approach-retreat\",\"220\",\"1599812\",\"0.0-220.0\",\"\",\"\",\"3-4\",\"4880\",\"40\",\"1\",\"Testing\",\"Stims/Figures/102-C-20-4.bmp\",\"za:saza\",\"Down\",\"40\",\"3\",\"24\",\"8\",\"C2\",\"J\",\"72\"
\"\",\"\",\"approach-retreat\",\"221\",\"1605692\",\"0.0-221.0\",\"\",\"\",\"3-4\",\"4352\",\"39\",\"1\",\"Testing\",\"Stims/Figures/7-C-20-4.bmp\",\"sa:sa:za\",\"Right\",\"39\",\"4\",\"1\",\"8\",\"C2\",\"J\",\"73\"
\"\",\"\",\"approach-retreat\",\"222\",\"1611728\",\"0.0-222.0\",\"\",\"\",\"3-4\",\"4509\",\"39\",\"0\",\"Testing\",\"Stims/Figures/102-C-20-4.bmp\",\"za:saza\",\"Left\",\"37\",\"4\",\"2\",\"8\",\"C2\",\"J\",\"74\"
\"\",\"\",\"approach-retreat\",\"223\",\"1618155\",\"0.0-223.0\",\"\",\"\",\"3-4\",\"4895\",\"38\",\"1\",\"Testing\",\"Stims/Figures/111-C-30-3.bmp\",\"zasaha\",\"Up\",\"38\",\"4\",\"3\",\"8\",\"C2\",\"J\",\"75\"
\"\",\"\",\"approach-retreat\",\"224\",\"1624113\",\"0.0-224.0\",\"\",\"\",\"3-4\",\"4438\",\"37\",\"0\",\"Testing\",\"Stims/Figures/93-J-0-1.bmp\",\"fa:shasha\",\"Left\",\"39\",\"4\",\"4\",\"8\",\"C1\",\"J\",\"76\"
\"\",\"\",\"approach-retreat\",\"225\",\"1630194\",\"0.0-225.0\",\"\",\"\",\"3-4\",\"4571\",\"38\",\"0\",\"Testing\",\"Stims/Figures/111-J-10-3.bmp\",\"zaha:za\",\"Up\",\"40\",\"4\",\"5\",\"8\",\"C2\",\"J\",\"77\"
\"\",\"\",\"approach-retreat\",\"226\",\"1636343\",\"0.0-226.0\",\"\",\"\",\"3-4\",\"4614\",\"39\",\"1\",\"Testing\",\"Stims/Figures/87-J-10-4.bmp\",\"sa:sa:ha\",\"Left\",\"39\",\"4\",\"6\",\"8\",\"C2\",\"J\",\"78\"
\"\",\"\",\"approach-retreat\",\"227\",\"1642333\",\"0.0-227.0\",\"\",\"\",\"3-4\",\"4464\",\"37\",\"0\",\"Testing\",\"Stims/Figures/139-J-0-2.bmp\",\"vashava\",\"Left\",\"39\",\"4\",\"7\",\"8\",\"C1\",\"J\",\"79\"
\"\",\"\",\"approach-retreat\",\"228\",\"1648418\",\"0.0-228.0\",\"\",\"\",\"3-4\",\"4562\",\"39\",\"0\",\"Testing\",\"Stims/Figures/139-C-20-2.bmp\",\"fa:fa:va\",\"Left\",\"37\",\"4\",\"8\",\"8\",\"C1\",\"J\",\"80\"
\"\",\"\",\"approach-retreat\",\"229\",\"1654218\",\"0.0-229.0\",\"\",\"\",\"3-4\",\"4266\",\"40\",\"0\",\"Testing\",\"Stims/Figures/71-C-30-1.bmp\",\"fasha:sha\",\"Up\",\"38\",\"4\",\"9\",\"8\",\"C1\",\"J\",\"81\"
\"\",\"\",\"approach-retreat\",\"230\",\"1660197\",\"0.0-230.0\",\"\",\"\",\"3-4\",\"4469\",\"39\",\"0\",\"Testing\",\"Stims/Figures/57-J-0-1.bmp\",\"vashasha\",\"Right\",\"37\",\"4\",\"10\",\"8\",\"C1\",\"J\",\"82\"
\"\",\"\",\"approach-retreat\",\"231\",\"1665978\",\"0.0-231.0\",\"\",\"\",\"3-4\",\"4244\",\"40\",\"1\",\"Testing\",\"Stims/Figures/71-J-0-1.bmp\",\"va:shasha\",\"Up\",\"40\",\"4\",\"11\",\"8\",\"C1\",\"J\",\"83\"
\"\",\"\",\"approach-retreat\",\"232\",\"1671779\",\"0.0-232.0\",\"\",\"\",\"3-4\",\"4272\",\"38\",\"0\",\"Testing\",\"Stims/Figures/57-C-30-1.bmp\",\"va:sha:va\",\"Down\",\"40\",\"4\",\"12\",\"8\",\"C1\",\"J\",\"84\"
\"\",\"\",\"approach-retreat\",\"233\",\"1677487\",\"0.0-233.0\",\"\",\"\",\"3-4\",\"4181\",\"39\",\"0\",\"Testing\",\"Stims/Figures/102-J-10-4.bmp\",\"sa:saza\",\"Right\",\"37\",\"4\",\"13\",\"8\",\"C2\",\"J\",\"85\"
\"\",\"\",\"approach-retreat\",\"234\",\"1683242\",\"0.0-234.0\",\"\",\"\",\"3-4\",\"4226\",\"39\",\"0\",\"Testing\",\"Stims/Figures/85-J-0-2.bmp\",\"fashava\",\"Right\",\"37\",\"4\",\"14\",\"8\",\"C1\",\"J\",\"86\"
\"\",\"\",\"approach-retreat\",\"235\",\"1688996\",\"0.0-235.0\",\"\",\"\",\"3-4\",\"4225\",\"38\",\"0\",\"Testing\",\"Stims/Figures/87-C-20-4.bmp\",\"sasa:za\",\"Down\",\"40\",\"4\",\"15\",\"8\",\"C2\",\"J\",\"87\"
\"\",\"\",\"approach-retreat\",\"236\",\"1695368\",\"0.0-236.0\",\"\",\"\",\"3-4\",\"4852\",\"40\",\"1\",\"Testing\",\"Stims/Figures/7-J-10-4.bmp\",\"za:ha:ha\",\"Up\",\"40\",\"4\",\"16\",\"8\",\"C2\",\"J\",\"88\"
\"\",\"\",\"approach-retreat\",\"237\",\"1702002\",\"0.0-237.0\",\"\",\"\",\"3-4\",\"5105\",\"38\",\"0\",\"Testing\",\"Stims/Figures/100-C-30-3.bmp\",\"saha:ha\",\"Down\",\"40\",\"4\",\"17\",\"8\",\"C2\",\"J\",\"89\"
\"\",\"\",\"approach-retreat\",\"238\",\"1708000\",\"0.0-238.0\",\"\",\"\",\"3-4\",\"4463\",\"39\",\"1\",\"Testing\",\"Stims/Figures/118-C-20-2.bmp\",\"fa:sha:va\",\"Right\",\"39\",\"4\",\"18\",\"8\",\"C1\",\"J\",\"90\"
\"\",\"\",\"approach-retreat\",\"239\",\"1714086\",\"0.0-239.0\",\"\",\"\",\"3-4\",\"4547\",\"38\",\"0\",\"Testing\",\"Stims/Figures/85-C-20-2.bmp\",\"va:sha:sha\",\"Down\",\"40\",\"4\",\"19\",\"8\",\"C1\",\"J\",\"91\"
\"\",\"\",\"approach-retreat\",\"240\",\"1719965\",\"0.0-240.0\",\"\",\"\",\"3-4\",\"4349\",\"38\",\"1\",\"Testing\",\"Stims/Figures/128-J-10-3.bmp\",\"sa:saha\",\"Down\",\"38\",\"4\",\"20\",\"8\",\"C2\",\"J\",\"92\"
\"\",\"\",\"approach-retreat\",\"241\",\"1726564\",\"0.0-241.0\",\"\",\"\",\"3-4\",\"5074\",\"39\",\"1\",\"Testing\",\"Stims/Figures/93-C-30-1.bmp\",\"fa:fasha\",\"Right\",\"39\",\"4\",\"21\",\"8\",\"C1\",\"J\",\"93\"
\"\",\"\",\"approach-retreat\",\"242\",\"1733475\",\"0.0-242.0\",\"\",\"\",\"3-4\",\"5377\",\"38\",\"0\",\"Testing\",\"Stims/Figures/100-J-10-3.bmp\",\"sahaha\",\"Up\",\"40\",\"4\",\"22\",\"8\",\"C2\",\"J\",\"94\"
\"\",\"\",\"approach-retreat\",\"243\",\"1741077\",\"0.0-243.0\",\"\",\"\",\"3-4\",\"6077\",\"38\",\"1\",\"Testing\",\"Stims/Figures/118-J-0-2.bmp\",\"fa:fa:sha\",\"Down\",\"38\",\"4\",\"23\",\"8\",\"C1\",\"J\",\"95\"
\"\",\"\",\"approach-retreat\",\"244\",\"1746928\",\"0.0-244.0\",\"\",\"\",\"3-4\",\"4316\",\"39\",\"0\",\"Testing\",\"Stims/Figures/128-C-30-3.bmp\",\"za:ha:za\",\"Left\",\"37\",\"4\",\"24\",\"8\",\"C2\",\"J\",\"96\"
\"24297\",\"\",\"survey-text\",\"245\",\"1771241\",\"0.0-245.0\",\"\",\"{\"\"Q0\"\":\"\"PS170018\"\"}\",\"\",\"\",\"\",\"\",\"\",\"\",\"\",\"\",\"\",\"\",\"\",\"\",\"\",\"\",\"\"
