\"rt\",\"key_press\",\"trial_type\",\"trial_index\",\"time_elapsed\",\"internal_node_id\",\"view_history\",\"responses\",\"Id\",\"Rt\",\"ResKeyCode\",\"ResCorr\",\"TrialType2\",\"Image\",\"Label\",\"Location\",\"CorrectResponse\",\"Block\",\"BlockTrial\",\"Condition\",\"LabelType\",\"Subcondition\",\"trialNum\"
\"79252\",\"32\",\"text\",\"0\",\"79254\",\"0.0-0.0-0.0\",\"\",\"\",\"\",\"\",\"\",\"\",\"\",\"\",\"\",\"\",\"\",\"\",\"\",\"\",\"\",\"\",\"\"
\"99397\",\"\",\"instructions\",\"1\",\"178653\",\"0.0-1.0\",\"[{\"\"page_index\"\":0,\"\"viewing_time\"\":99397}]\",\"\",\"\",\"\",\"\",\"\",\"\",\"\",\"\",\"\",\"\",\"\",\"\",\"\",\"\",\"\",\"\"
\"53407\",\"\",\"survey-multi-choice\",\"2\",\"232081\",\"0.0-2.0\",\"\",\"{\"\"Q0\"\":\"\"Da\"\",\"\"Q1\"\":\"\"Da\"\",\"\"Q2\"\":\"\"Da\"\",\"\"Q3\"\":\"\"Da\"\",\"\"Q4\"\":\"\"Da\"\",\"\"Q5\"\":\"\"Da\"\"}\",\"\",\"\",\"\",\"\",\"\",\"\",\"\",\"\",\"\",\"\",\"\",\"\",\"\",\"\",\"\"
\"\",\"\",\"bio\",\"3\",\"241446\",\"0.0-3.0\",\"\",\"{\"\"age\"\":\"\"19\"\",\"\"gender\"\":\"\"f\"\",\"\"specify\"\":\"\"\"\"}\",\"\",\"\",\"\",\"\",\"\",\"\",\"\",\"\",\"\",\"\",\"\",\"\",\"\",\"\",\"\"
\"\",\"\",\"approach-retreat\",\"4\",\"248800\",\"0.0-4.0\",\"\",\"\",\"3-2\",\"5847\",\"39\",\"1\",\"Training\",\"Stims/Figures/44-C-30-3.bmp\",\"ma:la:la\",\"Right\",\"39\",\"1\",\"1\",\"4\",\"S\",\"J\",\"1\"
\"\",\"\",\"approach-retreat\",\"5\",\"256310\",\"0.0-5.0\",\"\",\"\",\"3-2\",\"6006\",\"38\",\"0\",\"Training\",\"Stims/Figures/86-C-30-1.bmp\",\"malala\",\"Down\",\"40\",\"1\",\"2\",\"4\",\"S\",\"J\",\"2\"
\"\",\"\",\"approach-retreat\",\"6\",\"264335\",\"0.0-6.0\",\"\",\"\",\"3-2\",\"6520\",\"38\",\"0\",\"Training\",\"Stims/Figures/84-J-0-2.bmp\",\"paka:ta\",\"Up\",\"40\",\"1\",\"3\",\"4\",\"P\",\"J\",\"3\"
\"\",\"\",\"approach-retreat\",\"7\",\"271295\",\"0.0-7.0\",\"\",\"\",\"3-2\",\"5455\",\"39\",\"0\",\"Training\",\"Stims/Figures/85-J-0-2.bmp\",\"tapata\",\"Right\",\"37\",\"1\",\"4\",\"4\",\"P\",\"J\",\"4\"
\"\",\"\",\"approach-retreat\",\"8\",\"277247\",\"0.0-8.0\",\"\",\"\",\"3-2\",\"4449\",\"37\",\"1\",\"Training\",\"Stims/Figures/128-C-30-3.bmp\",\"mala:na\",\"Left\",\"37\",\"1\",\"5\",\"4\",\"S\",\"J\",\"5\"
\"\",\"\",\"approach-retreat\",\"9\",\"284200\",\"0.0-9.0\",\"\",\"\",\"3-2\",\"5447\",\"38\",\"0\",\"Training\",\"Stims/Figures/102-J-10-4.bmp\",\"papa:ta\",\"Up\",\"40\",\"1\",\"6\",\"4\",\"P\",\"J\",\"6\"
\"\",\"\",\"approach-retreat\",\"10\",\"290983\",\"0.0-10.0\",\"\",\"\",\"3-2\",\"5278\",\"37\",\"0\",\"Training\",\"Stims/Figures/44-J-10-3.bmp\",\"papata\",\"Left\",\"39\",\"1\",\"7\",\"4\",\"P\",\"J\",\"7\"
\"\",\"\",\"approach-retreat\",\"11\",\"298256\",\"0.0-11.0\",\"\",\"\",\"3-2\",\"5769\",\"39\",\"0\",\"Training\",\"Stims/Figures/27-J-0-1.bmp\",\"pakata\",\"Right\",\"37\",\"1\",\"8\",\"4\",\"P\",\"J\",\"8\"
\"\",\"\",\"approach-retreat\",\"12\",\"304198\",\"0.0-12.0\",\"\",\"\",\"3-2\",\"4438\",\"38\",\"0\",\"Training\",\"Stims/Figures/86-J-0-1.bmp\",\"tapa:ta\",\"Up\",\"40\",\"1\",\"9\",\"4\",\"P\",\"J\",\"9\"
\"\",\"\",\"approach-retreat\",\"13\",\"311959\",\"0.0-13.0\",\"\",\"\",\"3-2\",\"6257\",\"40\",\"1\",\"Training\",\"Stims/Figures/27-C-30-1.bmp\",\"ma:lana\",\"Down\",\"40\",\"1\",\"10\",\"4\",\"S\",\"J\",\"10\"
\"\",\"\",\"approach-retreat\",\"14\",\"318294\",\"0.0-14.0\",\"\",\"\",\"3-2\",\"4831\",\"37\",\"1\",\"Training\",\"Stims/Figures/102-C-20-4.bmp\",\"nala:la\",\"Left\",\"37\",\"1\",\"11\",\"4\",\"S\",\"J\",\"11\"
\"\",\"\",\"approach-retreat\",\"15\",\"325230\",\"0.0-15.0\",\"\",\"\",\"3-2\",\"5432\",\"38\",\"1\",\"Training\",\"Stims/Figures/19-C-20-4.bmp\",\"ma:la:na\",\"Up\",\"38\",\"1\",\"12\",\"4\",\"S\",\"J\",\"12\"
\"\",\"\",\"approach-retreat\",\"16\",\"331175\",\"0.0-16.0\",\"\",\"\",\"3-2\",\"4441\",\"40\",\"0\",\"Training\",\"Stims/Figures/19-J-10-4.bmp\",\"pa:pa:ka\",\"Down\",\"38\",\"1\",\"13\",\"4\",\"P\",\"J\",\"13\"
\"\",\"\",\"approach-retreat\",\"17\",\"337079\",\"0.0-17.0\",\"\",\"\",\"3-2\",\"4400\",\"39\",\"0\",\"Training\",\"Stims/Figures/128-J-10-3.bmp\",\"papa:ka\",\"Right\",\"37\",\"1\",\"14\",\"4\",\"P\",\"J\",\"14\"
\"\",\"\",\"approach-retreat\",\"18\",\"343502\",\"0.0-18.0\",\"\",\"\",\"3-2\",\"4918\",\"37\",\"1\",\"Training\",\"Stims/Figures/84-C-20-2.bmp\",\"na:la:na\",\"Left\",\"37\",\"1\",\"15\",\"4\",\"S\",\"J\",\"15\"
\"\",\"\",\"approach-retreat\",\"19\",\"349311\",\"0.0-19.0\",\"\",\"\",\"3-2\",\"4304\",\"40\",\"1\",\"Training\",\"Stims/Figures/85-C-20-2.bmp\",\"ma:mana\",\"Down\",\"40\",\"1\",\"16\",\"4\",\"S\",\"J\",\"16\"
\"\",\"\",\"approach-retreat\",\"20\",\"355167\",\"0.0-20.0\",\"\",\"\",\"3-2\",\"4351\",\"37\",\"0\",\"Training\",\"Stims/Figures/19-J-10-4.bmp\",\"pa:pa:ka\",\"Left\",\"39\",\"2\",\"1\",\"4\",\"P\",\"J\",\"17\"
\"\",\"\",\"approach-retreat\",\"21\",\"361023\",\"0.0-21.0\",\"\",\"\",\"3-2\",\"4352\",\"39\",\"1\",\"Training\",\"Stims/Figures/128-C-30-3.bmp\",\"mala:na\",\"Right\",\"39\",\"2\",\"2\",\"4\",\"S\",\"J\",\"18\"
\"\",\"\",\"approach-retreat\",\"22\",\"368031\",\"0.0-22.0\",\"\",\"\",\"3-2\",\"5504\",\"39\",\"0\",\"Training\",\"Stims/Figures/19-C-20-4.bmp\",\"ma:la:na\",\"Left\",\"37\",\"2\",\"3\",\"4\",\"S\",\"J\",\"19\"
\"\",\"\",\"approach-retreat\",\"23\",\"374542\",\"0.0-23.0\",\"\",\"\",\"3-2\",\"5009\",\"37\",\"1\",\"Training\",\"Stims/Figures/44-C-30-3.bmp\",\"ma:la:la\",\"Left\",\"37\",\"2\",\"4\",\"4\",\"S\",\"J\",\"20\"
\"\",\"\",\"approach-retreat\",\"24\",\"381704\",\"0.0-24.0\",\"\",\"\",\"3-2\",\"5657\",\"40\",\"1\",\"Training\",\"Stims/Figures/85-C-20-2.bmp\",\"ma:mana\",\"Down\",\"40\",\"2\",\"5\",\"4\",\"S\",\"J\",\"21\"
\"\",\"\",\"approach-retreat\",\"25\",\"389536\",\"0.0-25.0\",\"\",\"\",\"3-2\",\"6327\",\"39\",\"1\",\"Training\",\"Stims/Figures/27-J-0-1.bmp\",\"pakata\",\"Left\",\"39\",\"2\",\"6\",\"4\",\"P\",\"J\",\"22\"
\"\",\"\",\"approach-retreat\",\"26\",\"397111\",\"0.0-26.0\",\"\",\"\",\"3-2\",\"6072\",\"38\",\"1\",\"Training\",\"Stims/Figures/102-J-10-4.bmp\",\"papa:ta\",\"Down\",\"38\",\"2\",\"7\",\"4\",\"P\",\"J\",\"23\"
\"\",\"\",\"approach-retreat\",\"27\",\"403295\",\"0.0-27.0\",\"\",\"\",\"3-2\",\"4680\",\"37\",\"0\",\"Training\",\"Stims/Figures/86-C-30-1.bmp\",\"malala\",\"Right\",\"39\",\"2\",\"8\",\"4\",\"S\",\"J\",\"24\"
\"\",\"\",\"approach-retreat\",\"28\",\"409207\",\"0.0-28.0\",\"\",\"\",\"3-2\",\"4408\",\"38\",\"0\",\"Training\",\"Stims/Figures/128-J-10-3.bmp\",\"papa:ka\",\"Up\",\"40\",\"2\",\"9\",\"4\",\"P\",\"J\",\"25\"
\"\",\"\",\"approach-retreat\",\"29\",\"415295\",\"0.0-29.0\",\"\",\"\",\"3-2\",\"4585\",\"40\",\"1\",\"Training\",\"Stims/Figures/84-C-20-2.bmp\",\"na:la:na\",\"Down\",\"40\",\"2\",\"10\",\"4\",\"S\",\"J\",\"26\"
\"\",\"\",\"approach-retreat\",\"30\",\"421726\",\"0.0-30.0\",\"\",\"\",\"3-2\",\"4927\",\"39\",\"0\",\"Training\",\"Stims/Figures/86-J-0-1.bmp\",\"tapa:ta\",\"Right\",\"37\",\"2\",\"11\",\"4\",\"P\",\"J\",\"27\"
\"\",\"\",\"approach-retreat\",\"31\",\"428286\",\"0.0-31.0\",\"\",\"\",\"3-2\",\"5056\",\"38\",\"0\",\"Training\",\"Stims/Figures/85-J-0-2.bmp\",\"tapata\",\"Up\",\"40\",\"2\",\"12\",\"4\",\"P\",\"J\",\"28\"
\"\",\"\",\"approach-retreat\",\"32\",\"434488\",\"0.0-32.0\",\"\",\"\",\"3-2\",\"4697\",\"40\",\"1\",\"Training\",\"Stims/Figures/27-C-30-1.bmp\",\"ma:lana\",\"Down\",\"40\",\"2\",\"13\",\"4\",\"S\",\"J\",\"29\"
\"\",\"\",\"approach-retreat\",\"33\",\"441087\",\"0.0-33.0\",\"\",\"\",\"3-2\",\"5096\",\"38\",\"1\",\"Training\",\"Stims/Figures/102-C-20-4.bmp\",\"nala:la\",\"Up\",\"38\",\"2\",\"14\",\"4\",\"S\",\"J\",\"30\"
\"\",\"\",\"approach-retreat\",\"34\",\"447182\",\"0.0-34.0\",\"\",\"\",\"3-2\",\"4591\",\"40\",\"1\",\"Training\",\"Stims/Figures/84-J-0-2.bmp\",\"paka:ta\",\"Up\",\"40\",\"2\",\"15\",\"4\",\"P\",\"J\",\"31\"
\"\",\"\",\"approach-retreat\",\"35\",\"454111\",\"0.0-35.0\",\"\",\"\",\"3-2\",\"5425\",\"39\",\"0\",\"Training\",\"Stims/Figures/44-J-10-3.bmp\",\"papata\",\"Right\",\"37\",\"2\",\"16\",\"4\",\"P\",\"J\",\"32\"
\"\",\"\",\"approach-retreat\",\"36\",\"459838\",\"0.0-36.0\",\"\",\"\",\"3-2\",\"4223\",\"38\",\"0\",\"Training\",\"Stims/Figures/19-C-20-4.bmp\",\"ma:la:na\",\"Down\",\"40\",\"3\",\"1\",\"4\",\"S\",\"J\",\"33\"
\"\",\"\",\"approach-retreat\",\"37\",\"465726\",\"0.0-37.0\",\"\",\"\",\"3-2\",\"4385\",\"39\",\"0\",\"Training\",\"Stims/Figures/44-C-30-3.bmp\",\"ma:la:la\",\"Left\",\"37\",\"3\",\"2\",\"4\",\"S\",\"J\",\"34\"
\"\",\"\",\"approach-retreat\",\"38\",\"471502\",\"0.0-38.0\",\"\",\"\",\"3-2\",\"4272\",\"39\",\"0\",\"Training\",\"Stims/Figures/128-J-10-3.bmp\",\"papa:ka\",\"Right\",\"37\",\"3\",\"3\",\"4\",\"P\",\"J\",\"35\"
\"\",\"\",\"approach-retreat\",\"39\",\"477287\",\"0.0-39.0\",\"\",\"\",\"3-2\",\"4280\",\"38\",\"0\",\"Training\",\"Stims/Figures/27-J-0-1.bmp\",\"pakata\",\"Up\",\"40\",\"3\",\"4\",\"4\",\"P\",\"J\",\"36\"
\"\",\"\",\"approach-retreat\",\"40\",\"482894\",\"0.0-40.0\",\"\",\"\",\"3-2\",\"4104\",\"40\",\"0\",\"Training\",\"Stims/Figures/84-C-20-2.bmp\",\"na:la:na\",\"Up\",\"38\",\"3\",\"5\",\"4\",\"S\",\"J\",\"37\"
\"\",\"\",\"approach-retreat\",\"41\",\"488343\",\"0.0-41.0\",\"\",\"\",\"3-2\",\"3944\",\"37\",\"1\",\"Training\",\"Stims/Figures/85-J-0-2.bmp\",\"tapata\",\"Right\",\"37\",\"3\",\"6\",\"4\",\"P\",\"J\",\"38\"
\"\",\"\",\"approach-retreat\",\"42\",\"496503\",\"0.0-42.0\",\"\",\"\",\"3-2\",\"6656\",\"37\",\"1\",\"Training\",\"Stims/Figures/44-J-10-3.bmp\",\"papata\",\"Right\",\"37\",\"3\",\"7\",\"4\",\"P\",\"J\",\"39\"
\"\",\"\",\"approach-retreat\",\"43\",\"502111\",\"0.0-43.0\",\"\",\"\",\"3-2\",\"4103\",\"39\",\"0\",\"Training\",\"Stims/Figures/128-C-30-3.bmp\",\"mala:na\",\"Left\",\"37\",\"3\",\"8\",\"4\",\"S\",\"J\",\"40\"
\"\",\"\",\"approach-retreat\",\"44\",\"507599\",\"0.0-44.0\",\"\",\"\",\"3-2\",\"3985\",\"38\",\"1\",\"Training\",\"Stims/Figures/86-J-0-1.bmp\",\"tapa:ta\",\"Down\",\"38\",\"3\",\"9\",\"4\",\"P\",\"J\",\"41\"
\"\",\"\",\"approach-retreat\",\"45\",\"513159\",\"0.0-45.0\",\"\",\"\",\"3-2\",\"4057\",\"38\",\"1\",\"Training\",\"Stims/Figures/102-J-10-4.bmp\",\"papa:ta\",\"Down\",\"38\",\"3\",\"10\",\"4\",\"P\",\"J\",\"42\"
\"\",\"\",\"approach-retreat\",\"46\",\"519823\",\"0.0-46.0\",\"\",\"\",\"3-2\",\"5159\",\"40\",\"0\",\"Training\",\"Stims/Figures/86-C-30-1.bmp\",\"malala\",\"Up\",\"38\",\"3\",\"11\",\"4\",\"S\",\"J\",\"43\"
\"\",\"\",\"approach-retreat\",\"47\",\"526256\",\"0.0-47.0\",\"\",\"\",\"3-2\",\"4930\",\"40\",\"1\",\"Training\",\"Stims/Figures/19-J-10-4.bmp\",\"pa:pa:ka\",\"Up\",\"40\",\"3\",\"12\",\"4\",\"P\",\"J\",\"44\"
\"\",\"\",\"approach-retreat\",\"48\",\"532118\",\"0.0-48.0\",\"\",\"\",\"3-2\",\"4358\",\"37\",\"0\",\"Training\",\"Stims/Figures/27-C-30-1.bmp\",\"ma:lana\",\"Right\",\"39\",\"3\",\"13\",\"4\",\"S\",\"J\",\"45\"
\"\",\"\",\"approach-retreat\",\"49\",\"537943\",\"0.0-49.0\",\"\",\"\",\"3-2\",\"4319\",\"38\",\"1\",\"Training\",\"Stims/Figures/84-J-0-2.bmp\",\"paka:ta\",\"Down\",\"38\",\"3\",\"14\",\"4\",\"P\",\"J\",\"46\"
\"\",\"\",\"approach-retreat\",\"50\",\"543878\",\"0.0-50.0\",\"\",\"\",\"3-2\",\"4431\",\"39\",\"0\",\"Training\",\"Stims/Figures/102-C-20-4.bmp\",\"nala:la\",\"Left\",\"37\",\"3\",\"15\",\"4\",\"S\",\"J\",\"47\"
\"\",\"\",\"approach-retreat\",\"51\",\"550534\",\"0.0-51.0\",\"\",\"\",\"3-2\",\"5152\",\"37\",\"1\",\"Training\",\"Stims/Figures/85-C-20-2.bmp\",\"ma:mana\",\"Left\",\"37\",\"3\",\"16\",\"4\",\"S\",\"J\",\"48\"
\"\",\"\",\"approach-retreat\",\"52\",\"556503\",\"0.0-52.0\",\"\",\"\",\"3-2\",\"4465\",\"39\",\"0\",\"Training\",\"Stims/Figures/102-J-10-4.bmp\",\"papa:ta\",\"Right\",\"37\",\"4\",\"1\",\"4\",\"P\",\"J\",\"49\"
\"\",\"\",\"approach-retreat\",\"53\",\"562247\",\"0.0-53.0\",\"\",\"\",\"3-2\",\"4240\",\"37\",\"0\",\"Training\",\"Stims/Figures/85-C-20-2.bmp\",\"ma:mana\",\"Right\",\"39\",\"4\",\"2\",\"4\",\"S\",\"J\",\"50\"
\"\",\"\",\"approach-retreat\",\"54\",\"567966\",\"0.0-54.0\",\"\",\"\",\"3-2\",\"4215\",\"40\",\"0\",\"Training\",\"Stims/Figures/44-C-30-3.bmp\",\"ma:la:la\",\"Up\",\"38\",\"4\",\"3\",\"4\",\"S\",\"J\",\"51\"
\"\",\"\",\"approach-retreat\",\"55\",\"574895\",\"0.0-55.0\",\"\",\"\",\"3-2\",\"5425\",\"40\",\"1\",\"Training\",\"Stims/Figures/102-C-20-4.bmp\",\"nala:la\",\"Down\",\"40\",\"4\",\"4\",\"4\",\"S\",\"J\",\"52\"
\"\",\"\",\"approach-retreat\",\"56\",\"581958\",\"0.0-56.0\",\"\",\"\",\"3-2\",\"5559\",\"40\",\"1\",\"Training\",\"Stims/Figures/85-J-0-2.bmp\",\"tapata\",\"Up\",\"40\",\"4\",\"5\",\"4\",\"P\",\"J\",\"53\"
\"\",\"\",\"approach-retreat\",\"57\",\"587942\",\"0.0-57.0\",\"\",\"\",\"3-2\",\"4480\",\"39\",\"1\",\"Training\",\"Stims/Figures/86-C-30-1.bmp\",\"malala\",\"Right\",\"39\",\"4\",\"6\",\"4\",\"S\",\"J\",\"54\"
\"\",\"\",\"approach-retreat\",\"58\",\"594974\",\"0.0-58.0\",\"\",\"\",\"3-2\",\"5528\",\"39\",\"0\",\"Training\",\"Stims/Figures/19-C-20-4.bmp\",\"ma:la:na\",\"Left\",\"37\",\"4\",\"7\",\"4\",\"S\",\"J\",\"55\"
\"\",\"\",\"approach-retreat\",\"59\",\"600383\",\"0.0-59.0\",\"\",\"\",\"3-2\",\"3905\",\"38\",\"0\",\"Training\",\"Stims/Figures/44-J-10-3.bmp\",\"papata\",\"Up\",\"40\",\"4\",\"8\",\"4\",\"P\",\"J\",\"56\"
\"\",\"\",\"approach-retreat\",\"60\",\"606046\",\"0.0-60.0\",\"\",\"\",\"3-2\",\"4159\",\"39\",\"1\",\"Training\",\"Stims/Figures/84-J-0-2.bmp\",\"paka:ta\",\"Left\",\"39\",\"4\",\"9\",\"4\",\"P\",\"J\",\"57\"
\"\",\"\",\"approach-retreat\",\"61\",\"611864\",\"0.0-61.0\",\"\",\"\",\"3-2\",\"4313\",\"37\",\"0\",\"Training\",\"Stims/Figures/84-C-20-2.bmp\",\"na:la:na\",\"Right\",\"39\",\"4\",\"10\",\"4\",\"S\",\"J\",\"58\"
\"\",\"\",\"approach-retreat\",\"62\",\"619182\",\"0.0-62.0\",\"\",\"\",\"3-2\",\"5815\",\"38\",\"0\",\"Training\",\"Stims/Figures/27-C-30-1.bmp\",\"ma:lana\",\"Down\",\"40\",\"4\",\"11\",\"4\",\"S\",\"J\",\"59\"
\"\",\"\",\"approach-retreat\",\"63\",\"625214\",\"0.0-63.0\",\"\",\"\",\"3-2\",\"4528\",\"39\",\"1\",\"Training\",\"Stims/Figures/27-J-0-1.bmp\",\"pakata\",\"Left\",\"39\",\"4\",\"12\",\"4\",\"P\",\"J\",\"60\"
\"\",\"\",\"approach-retreat\",\"64\",\"631566\",\"0.0-64.0\",\"\",\"\",\"3-2\",\"4849\",\"40\",\"0\",\"Training\",\"Stims/Figures/86-J-0-1.bmp\",\"tapa:ta\",\"Down\",\"38\",\"4\",\"13\",\"4\",\"P\",\"J\",\"61\"
\"\",\"\",\"approach-retreat\",\"65\",\"637526\",\"0.0-65.0\",\"\",\"\",\"3-2\",\"4456\",\"39\",\"1\",\"Training\",\"Stims/Figures/19-J-10-4.bmp\",\"pa:pa:ka\",\"Left\",\"39\",\"4\",\"14\",\"4\",\"P\",\"J\",\"62\"
\"\",\"\",\"approach-retreat\",\"66\",\"643799\",\"0.0-66.0\",\"\",\"\",\"3-2\",\"4769\",\"38\",\"0\",\"Training\",\"Stims/Figures/128-J-10-3.bmp\",\"papa:ka\",\"Up\",\"40\",\"4\",\"15\",\"4\",\"P\",\"J\",\"63\"
\"\",\"\",\"approach-retreat\",\"67\",\"650840\",\"0.0-67.0\",\"\",\"\",\"3-2\",\"5535\",\"38\",\"0\",\"Training\",\"Stims/Figures/128-C-30-3.bmp\",\"mala:na\",\"Down\",\"40\",\"4\",\"16\",\"4\",\"S\",\"J\",\"64\"
\"\",\"\",\"approach-retreat\",\"68\",\"657702\",\"0.0-68.0\",\"\",\"\",\"3-2\",\"5359\",\"40\",\"0\",\"Training\",\"Stims/Figures/102-C-20-4.bmp\",\"nala:la\",\"Up\",\"38\",\"5\",\"1\",\"4\",\"S\",\"J\",\"65\"
\"\",\"\",\"approach-retreat\",\"69\",\"665454\",\"0.0-69.0\",\"\",\"\",\"3-2\",\"6247\",\"38\",\"0\",\"Training\",\"Stims/Figures/19-J-10-4.bmp\",\"pa:pa:ka\",\"Up\",\"40\",\"5\",\"2\",\"4\",\"P\",\"J\",\"66\"
\"\",\"\",\"approach-retreat\",\"70\",\"670966\",\"0.0-70.0\",\"\",\"\",\"3-2\",\"4008\",\"38\",\"1\",\"Training\",\"Stims/Figures/84-C-20-2.bmp\",\"na:la:na\",\"Up\",\"38\",\"5\",\"3\",\"4\",\"S\",\"J\",\"67\"
\"\",\"\",\"approach-retreat\",\"71\",\"677070\",\"0.0-71.0\",\"\",\"\",\"3-2\",\"4599\",\"37\",\"0\",\"Training\",\"Stims/Figures/102-J-10-4.bmp\",\"papa:ta\",\"Left\",\"39\",\"5\",\"4\",\"4\",\"P\",\"J\",\"68\"
\"\",\"\",\"approach-retreat\",\"72\",\"684134\",\"0.0-72.0\",\"\",\"\",\"3-2\",\"5560\",\"39\",\"1\",\"Training\",\"Stims/Figures/44-J-10-3.bmp\",\"papata\",\"Left\",\"39\",\"5\",\"5\",\"4\",\"P\",\"J\",\"69\"
\"\",\"\",\"approach-retreat\",\"73\",\"690102\",\"0.0-73.0\",\"\",\"\",\"3-2\",\"4465\",\"38\",\"1\",\"Training\",\"Stims/Figures/84-J-0-2.bmp\",\"paka:ta\",\"Down\",\"38\",\"5\",\"6\",\"4\",\"P\",\"J\",\"70\"
\"\",\"\",\"approach-retreat\",\"74\",\"695814\",\"0.0-74.0\",\"\",\"\",\"3-2\",\"4208\",\"40\",\"1\",\"Training\",\"Stims/Figures/86-J-0-1.bmp\",\"tapa:ta\",\"Up\",\"40\",\"5\",\"7\",\"4\",\"P\",\"J\",\"71\"
\"\",\"\",\"approach-retreat\",\"75\",\"701503\",\"0.0-75.0\",\"\",\"\",\"3-2\",\"4185\",\"38\",\"0\",\"Training\",\"Stims/Figures/19-C-20-4.bmp\",\"ma:la:na\",\"Down\",\"40\",\"5\",\"8\",\"4\",\"S\",\"J\",\"72\"
\"\",\"\",\"approach-retreat\",\"76\",\"707302\",\"0.0-76.0\",\"\",\"\",\"3-2\",\"4295\",\"37\",\"1\",\"Training\",\"Stims/Figures/128-J-10-3.bmp\",\"papa:ka\",\"Right\",\"37\",\"5\",\"9\",\"4\",\"P\",\"J\",\"73\"
\"\",\"\",\"approach-retreat\",\"77\",\"712782\",\"0.0-77.0\",\"\",\"\",\"3-2\",\"3976\",\"39\",\"0\",\"Training\",\"Stims/Figures/27-C-30-1.bmp\",\"ma:lana\",\"Left\",\"37\",\"5\",\"10\",\"4\",\"S\",\"J\",\"74\"
\"\",\"\",\"approach-retreat\",\"78\",\"718766\",\"0.0-78.0\",\"\",\"\",\"3-2\",\"4480\",\"37\",\"0\",\"Training\",\"Stims/Figures/128-C-30-3.bmp\",\"mala:na\",\"Right\",\"39\",\"5\",\"11\",\"4\",\"S\",\"J\",\"75\"
\"\",\"\",\"approach-retreat\",\"79\",\"724446\",\"0.0-79.0\",\"\",\"\",\"3-2\",\"4176\",\"38\",\"1\",\"Training\",\"Stims/Figures/85-J-0-2.bmp\",\"tapata\",\"Down\",\"38\",\"5\",\"12\",\"4\",\"P\",\"J\",\"76\"
\"\",\"\",\"approach-retreat\",\"80\",\"733056\",\"0.0-80.0\",\"\",\"\",\"3-2\",\"7105\",\"39\",\"1\",\"Training\",\"Stims/Figures/85-C-20-2.bmp\",\"ma:mana\",\"Right\",\"39\",\"5\",\"13\",\"4\",\"S\",\"J\",\"77\"
\"\",\"\",\"approach-retreat\",\"81\",\"738655\",\"0.0-81.0\",\"\",\"\",\"3-2\",\"4096\",\"39\",\"1\",\"Training\",\"Stims/Figures/86-C-30-1.bmp\",\"malala\",\"Right\",\"39\",\"5\",\"14\",\"4\",\"S\",\"J\",\"78\"
\"\",\"\",\"approach-retreat\",\"82\",\"744254\",\"0.0-82.0\",\"\",\"\",\"3-2\",\"4095\",\"39\",\"0\",\"Training\",\"Stims/Figures/44-C-30-3.bmp\",\"ma:la:la\",\"Left\",\"37\",\"5\",\"15\",\"4\",\"S\",\"J\",\"79\"
\"\",\"\",\"approach-retreat\",\"83\",\"749815\",\"0.0-83.0\",\"\",\"\",\"3-2\",\"4057\",\"40\",\"0\",\"Training\",\"Stims/Figures/27-J-0-1.bmp\",\"pakata\",\"Down\",\"38\",\"5\",\"16\",\"4\",\"P\",\"J\",\"80\"
\"\",\"\",\"approach-retreat\",\"84\",\"755567\",\"0.0-84.0\",\"\",\"\",\"3-2\",\"4247\",\"40\",\"1\",\"Training\",\"Stims/Figures/85-C-20-2.bmp\",\"ma:mana\",\"Down\",\"40\",\"6\",\"1\",\"4\",\"S\",\"J\",\"81\"
\"\",\"\",\"approach-retreat\",\"85\",\"761918\",\"0.0-85.0\",\"\",\"\",\"3-2\",\"4849\",\"39\",\"1\",\"Training\",\"Stims/Figures/85-J-0-2.bmp\",\"tapata\",\"Left\",\"39\",\"6\",\"2\",\"4\",\"P\",\"J\",\"82\"
\"\",\"\",\"approach-retreat\",\"86\",\"767696\",\"0.0-86.0\",\"\",\"\",\"3-2\",\"4273\",\"40\",\"0\",\"Training\",\"Stims/Figures/102-C-20-4.bmp\",\"nala:la\",\"Up\",\"38\",\"6\",\"3\",\"4\",\"S\",\"J\",\"83\"
\"\",\"\",\"approach-retreat\",\"87\",\"773943\",\"0.0-87.0\",\"\",\"\",\"3-2\",\"4745\",\"37\",\"0\",\"Training\",\"Stims/Figures/27-J-0-1.bmp\",\"pakata\",\"Left\",\"39\",\"6\",\"4\",\"4\",\"P\",\"J\",\"84\"
\"\",\"\",\"approach-retreat\",\"88\",\"779718\",\"0.0-88.0\",\"\",\"\",\"3-2\",\"4271\",\"40\",\"1\",\"Training\",\"Stims/Figures/128-C-30-3.bmp\",\"mala:na\",\"Down\",\"40\",\"6\",\"5\",\"4\",\"S\",\"J\",\"85\"
\"\",\"\",\"approach-retreat\",\"89\",\"785383\",\"0.0-89.0\",\"\",\"\",\"3-2\",\"4159\",\"39\",\"0\",\"Training\",\"Stims/Figures/102-J-10-4.bmp\",\"papa:ta\",\"Right\",\"37\",\"6\",\"6\",\"4\",\"P\",\"J\",\"86\"
\"\",\"\",\"approach-retreat\",\"90\",\"791134\",\"0.0-90.0\",\"\",\"\",\"3-2\",\"4247\",\"37\",\"0\",\"Training\",\"Stims/Figures/44-J-10-3.bmp\",\"papata\",\"Left\",\"39\",\"6\",\"7\",\"4\",\"P\",\"J\",\"87\"
\"\",\"\",\"approach-retreat\",\"91\",\"798765\",\"0.0-91.0\",\"\",\"\",\"3-2\",\"6128\",\"38\",\"1\",\"Training\",\"Stims/Figures/84-C-20-2.bmp\",\"na:la:na\",\"Up\",\"38\",\"6\",\"8\",\"4\",\"S\",\"J\",\"88\"
\"\",\"\",\"approach-retreat\",\"92\",\"804374\",\"0.0-92.0\",\"\",\"\",\"3-2\",\"4104\",\"40\",\"0\",\"Training\",\"Stims/Figures/44-C-30-3.bmp\",\"ma:la:la\",\"Up\",\"38\",\"6\",\"9\",\"4\",\"S\",\"J\",\"89\"
\"\",\"\",\"approach-retreat\",\"93\",\"812167\",\"0.0-93.0\",\"\",\"\",\"3-2\",\"6290\",\"39\",\"1\",\"Training\",\"Stims/Figures/86-C-30-1.bmp\",\"malala\",\"Right\",\"39\",\"6\",\"10\",\"4\",\"S\",\"J\",\"90\"
\"\",\"\",\"approach-retreat\",\"94\",\"817774\",\"0.0-94.0\",\"\",\"\",\"3-2\",\"4103\",\"39\",\"0\",\"Training\",\"Stims/Figures/84-J-0-2.bmp\",\"paka:ta\",\"Right\",\"37\",\"6\",\"11\",\"4\",\"P\",\"J\",\"91\"
\"\",\"\",\"approach-retreat\",\"95\",\"823447\",\"0.0-95.0\",\"\",\"\",\"3-2\",\"4169\",\"40\",\"0\",\"Training\",\"Stims/Figures/86-J-0-1.bmp\",\"tapa:ta\",\"Down\",\"38\",\"6\",\"12\",\"4\",\"P\",\"J\",\"92\"
\"\",\"\",\"approach-retreat\",\"96\",\"829517\",\"0.0-96.0\",\"\",\"\",\"3-2\",\"4567\",\"38\",\"1\",\"Training\",\"Stims/Figures/27-C-30-1.bmp\",\"ma:lana\",\"Up\",\"38\",\"6\",\"13\",\"4\",\"S\",\"J\",\"93\"
\"\",\"\",\"approach-retreat\",\"97\",\"835230\",\"0.0-97.0\",\"\",\"\",\"3-2\",\"4207\",\"39\",\"0\",\"Training\",\"Stims/Figures/19-J-10-4.bmp\",\"pa:pa:ka\",\"Right\",\"37\",\"6\",\"14\",\"4\",\"P\",\"J\",\"94\"
\"\",\"\",\"approach-retreat\",\"98\",\"841246\",\"0.0-98.0\",\"\",\"\",\"3-2\",\"4512\",\"37\",\"1\",\"Training\",\"Stims/Figures/19-C-20-4.bmp\",\"ma:la:na\",\"Left\",\"37\",\"6\",\"15\",\"4\",\"S\",\"J\",\"95\"
\"\",\"\",\"approach-retreat\",\"99\",\"847326\",\"0.0-99.0\",\"\",\"\",\"3-2\",\"4576\",\"40\",\"0\",\"Training\",\"Stims/Figures/128-J-10-3.bmp\",\"papa:ka\",\"Down\",\"38\",\"6\",\"16\",\"4\",\"P\",\"J\",\"96\"
\"\",\"\",\"approach-retreat\",\"100\",\"854320\",\"0.0-100.0\",\"\",\"\",\"3-2\",\"5489\",\"40\",\"0\",\"Training\",\"Stims/Figures/102-C-20-4.bmp\",\"nala:la\",\"Up\",\"38\",\"7\",\"1\",\"4\",\"S\",\"J\",\"97\"
\"\",\"\",\"approach-retreat\",\"101\",\"859903\",\"0.0-101.0\",\"\",\"\",\"3-2\",\"4080\",\"37\",\"0\",\"Training\",\"Stims/Figures/86-J-0-1.bmp\",\"tapa:ta\",\"Left\",\"39\",\"7\",\"2\",\"4\",\"P\",\"J\",\"98\"
\"\",\"\",\"approach-retreat\",\"102\",\"866695\",\"0.0-102.0\",\"\",\"\",\"3-2\",\"5287\",\"38\",\"1\",\"Training\",\"Stims/Figures/85-J-0-2.bmp\",\"tapata\",\"Down\",\"38\",\"7\",\"3\",\"4\",\"P\",\"J\",\"99\"
\"\",\"\",\"approach-retreat\",\"103\",\"872031\",\"0.0-103.0\",\"\",\"\",\"3-2\",\"3833\",\"39\",\"0\",\"Training\",\"Stims/Figures/44-C-30-3.bmp\",\"ma:la:la\",\"Left\",\"37\",\"7\",\"4\",\"4\",\"S\",\"J\",\"100\"
\"\",\"\",\"approach-retreat\",\"104\",\"877534\",\"0.0-104.0\",\"\",\"\",\"3-2\",\"3999\",\"39\",\"1\",\"Training\",\"Stims/Figures/84-C-20-2.bmp\",\"na:la:na\",\"Right\",\"39\",\"7\",\"5\",\"4\",\"S\",\"J\",\"101\"
\"\",\"\",\"approach-retreat\",\"105\",\"883191\",\"0.0-105.0\",\"\",\"\",\"3-2\",\"4151\",\"38\",\"0\",\"Training\",\"Stims/Figures/19-J-10-4.bmp\",\"pa:pa:ka\",\"Up\",\"40\",\"7\",\"6\",\"4\",\"P\",\"J\",\"102\"
\"\",\"\",\"approach-retreat\",\"106\",\"889559\",\"0.0-106.0\",\"\",\"\",\"3-2\",\"4865\",\"37\",\"1\",\"Training\",\"Stims/Figures/102-J-10-4.bmp\",\"papa:ta\",\"Right\",\"37\",\"7\",\"7\",\"4\",\"P\",\"J\",\"103\"
\"\",\"\",\"approach-retreat\",\"107\",\"895463\",\"0.0-107.0\",\"\",\"\",\"3-2\",\"4399\",\"37\",\"1\",\"Training\",\"Stims/Figures/128-C-30-3.bmp\",\"mala:na\",\"Left\",\"37\",\"7\",\"8\",\"4\",\"S\",\"J\",\"104\"
\"\",\"\",\"approach-retreat\",\"108\",\"901302\",\"0.0-108.0\",\"\",\"\",\"3-2\",\"4334\",\"38\",\"0\",\"Training\",\"Stims/Figures/85-C-20-2.bmp\",\"ma:mana\",\"Down\",\"40\",\"7\",\"9\",\"4\",\"S\",\"J\",\"105\"
\"\",\"\",\"approach-retreat\",\"109\",\"906776\",\"0.0-109.0\",\"\",\"\",\"3-2\",\"3970\",\"39\",\"0\",\"Training\",\"Stims/Figures/84-J-0-2.bmp\",\"paka:ta\",\"Right\",\"37\",\"7\",\"10\",\"4\",\"P\",\"J\",\"106\"
\"\",\"\",\"approach-retreat\",\"110\",\"912447\",\"0.0-110.0\",\"\",\"\",\"3-2\",\"4167\",\"37\",\"1\",\"Training\",\"Stims/Figures/128-J-10-3.bmp\",\"papa:ka\",\"Right\",\"37\",\"7\",\"11\",\"4\",\"P\",\"J\",\"107\"
\"\",\"\",\"approach-retreat\",\"111\",\"917919\",\"0.0-111.0\",\"\",\"\",\"3-2\",\"3967\",\"38\",\"1\",\"Training\",\"Stims/Figures/44-J-10-3.bmp\",\"papata\",\"Down\",\"38\",\"7\",\"12\",\"4\",\"P\",\"J\",\"108\"
\"\",\"\",\"approach-retreat\",\"112\",\"924479\",\"0.0-112.0\",\"\",\"\",\"3-2\",\"5057\",\"38\",\"0\",\"Training\",\"Stims/Figures/27-C-30-1.bmp\",\"ma:lana\",\"Down\",\"40\",\"7\",\"13\",\"4\",\"S\",\"J\",\"109\"
\"\",\"\",\"approach-retreat\",\"113\",\"930031\",\"0.0-113.0\",\"\",\"\",\"3-2\",\"4049\",\"39\",\"0\",\"Training\",\"Stims/Figures/19-C-20-4.bmp\",\"ma:la:na\",\"Left\",\"37\",\"7\",\"14\",\"4\",\"S\",\"J\",\"110\"
\"\",\"\",\"approach-retreat\",\"114\",\"935679\",\"0.0-114.0\",\"\",\"\",\"3-2\",\"4142\",\"38\",\"1\",\"Training\",\"Stims/Figures/86-C-30-1.bmp\",\"malala\",\"Up\",\"38\",\"7\",\"15\",\"4\",\"S\",\"J\",\"111\"
\"\",\"\",\"approach-retreat\",\"115\",\"941168\",\"0.0-115.0\",\"\",\"\",\"3-2\",\"3985\",\"38\",\"0\",\"Training\",\"Stims/Figures/27-J-0-1.bmp\",\"pakata\",\"Up\",\"40\",\"7\",\"16\",\"4\",\"P\",\"J\",\"112\"
\"\",\"\",\"approach-retreat\",\"116\",\"947919\",\"0.0-116.0\",\"\",\"\",\"3-2\",\"5247\",\"37\",\"1\",\"Training\",\"Stims/Figures/84-J-0-2.bmp\",\"paka:ta\",\"Right\",\"37\",\"8\",\"1\",\"4\",\"P\",\"J\",\"113\"
\"\",\"\",\"approach-retreat\",\"117\",\"958383\",\"0.0-117.0\",\"\",\"\",\"3-2\",\"8959\",\"40\",\"0\",\"Training\",\"Stims/Figures/102-C-20-4.bmp\",\"nala:la\",\"Up\",\"38\",\"8\",\"2\",\"4\",\"S\",\"J\",\"114\"
\"\",\"\",\"approach-retreat\",\"118\",\"966128\",\"0.0-118.0\",\"\",\"\",\"3-2\",\"6241\",\"39\",\"1\",\"Training\",\"Stims/Figures/19-J-10-4.bmp\",\"pa:pa:ka\",\"Left\",\"39\",\"8\",\"3\",\"4\",\"P\",\"J\",\"115\"
\"\",\"\",\"approach-retreat\",\"119\",\"975166\",\"0.0-119.0\",\"\",\"\",\"3-2\",\"7534\",\"39\",\"0\",\"Training\",\"Stims/Figures/128-J-10-3.bmp\",\"papa:ka\",\"Right\",\"37\",\"8\",\"4\",\"4\",\"P\",\"J\",\"116\"
\"\",\"\",\"approach-retreat\",\"120\",\"981142\",\"0.0-120.0\",\"\",\"\",\"3-2\",\"4472\",\"37\",\"1\",\"Training\",\"Stims/Figures/84-C-20-2.bmp\",\"na:la:na\",\"Left\",\"37\",\"8\",\"5\",\"4\",\"S\",\"J\",\"117\"
\"\",\"\",\"approach-retreat\",\"121\",\"986846\",\"0.0-121.0\",\"\",\"\",\"3-2\",\"4200\",\"38\",\"1\",\"Training\",\"Stims/Figures/86-C-30-1.bmp\",\"malala\",\"Up\",\"38\",\"8\",\"6\",\"4\",\"S\",\"J\",\"118\"
\"\",\"\",\"approach-retreat\",\"122\",\"992590\",\"0.0-122.0\",\"\",\"\",\"3-2\",\"4239\",\"37\",\"0\",\"Training\",\"Stims/Figures/44-C-30-3.bmp\",\"ma:la:la\",\"Right\",\"39\",\"8\",\"7\",\"4\",\"S\",\"J\",\"119\"
\"\",\"\",\"approach-retreat\",\"123\",\"998335\",\"0.0-123.0\",\"\",\"\",\"3-2\",\"4241\",\"40\",\"0\",\"Training\",\"Stims/Figures/128-C-30-3.bmp\",\"mala:na\",\"Up\",\"38\",\"8\",\"8\",\"4\",\"S\",\"J\",\"120\"
\"\",\"\",\"approach-retreat\",\"124\",\"1007030\",\"0.0-124.0\",\"\",\"\",\"3-2\",\"7191\",\"38\",\"1\",\"Training\",\"Stims/Figures/85-J-0-2.bmp\",\"tapata\",\"Down\",\"38\",\"8\",\"9\",\"4\",\"P\",\"J\",\"121\"
\"\",\"\",\"approach-retreat\",\"125\",\"1012591\",\"0.0-125.0\",\"\",\"\",\"3-2\",\"4057\",\"38\",\"0\",\"Training\",\"Stims/Figures/85-C-20-2.bmp\",\"ma:mana\",\"Down\",\"40\",\"8\",\"10\",\"4\",\"S\",\"J\",\"122\"
\"\",\"\",\"approach-retreat\",\"126\",\"1019038\",\"0.0-126.0\",\"\",\"\",\"3-2\",\"4943\",\"38\",\"0\",\"Training\",\"Stims/Figures/27-J-0-1.bmp\",\"pakata\",\"Up\",\"40\",\"8\",\"11\",\"4\",\"P\",\"J\",\"123\"
\"\",\"\",\"approach-retreat\",\"127\",\"1024398\",\"0.0-127.0\",\"\",\"\",\"3-2\",\"3856\",\"39\",\"1\",\"Training\",\"Stims/Figures/86-J-0-1.bmp\",\"tapa:ta\",\"Left\",\"39\",\"8\",\"12\",\"4\",\"P\",\"J\",\"124\"
\"\",\"\",\"approach-retreat\",\"128\",\"1029912\",\"0.0-128.0\",\"\",\"\",\"3-2\",\"4010\",\"37\",\"0\",\"Training\",\"Stims/Figures/27-C-30-1.bmp\",\"ma:lana\",\"Right\",\"39\",\"8\",\"13\",\"4\",\"S\",\"J\",\"125\"
\"\",\"\",\"approach-retreat\",\"129\",\"1035623\",\"0.0-129.0\",\"\",\"\",\"3-2\",\"4209\",\"39\",\"1\",\"Training\",\"Stims/Figures/44-J-10-3.bmp\",\"papata\",\"Left\",\"39\",\"8\",\"14\",\"4\",\"P\",\"J\",\"126\"
\"\",\"\",\"approach-retreat\",\"130\",\"1041342\",\"0.0-130.0\",\"\",\"\",\"3-2\",\"4215\",\"38\",\"0\",\"Training\",\"Stims/Figures/19-C-20-4.bmp\",\"ma:la:na\",\"Down\",\"40\",\"8\",\"15\",\"4\",\"S\",\"J\",\"127\"
\"\",\"\",\"approach-retreat\",\"131\",\"1049216\",\"0.0-131.0\",\"\",\"\",\"3-2\",\"6369\",\"40\",\"0\",\"Training\",\"Stims/Figures/102-J-10-4.bmp\",\"papa:ta\",\"Down\",\"38\",\"8\",\"16\",\"4\",\"P\",\"J\",\"128\"
\"\",\"\",\"approach-retreat\",\"132\",\"1054871\",\"0.0-132.0\",\"\",\"\",\"3-2\",\"4151\",\"40\",\"1\",\"Training\",\"Stims/Figures/102-C-20-4.bmp\",\"nala:la\",\"Down\",\"40\",\"9\",\"1\",\"4\",\"S\",\"J\",\"129\"
\"\",\"\",\"approach-retreat\",\"133\",\"1063190\",\"0.0-133.0\",\"\",\"\",\"3-2\",\"6816\",\"37\",\"1\",\"Training\",\"Stims/Figures/27-C-30-1.bmp\",\"ma:lana\",\"Left\",\"37\",\"9\",\"2\",\"4\",\"S\",\"J\",\"130\"
\"\",\"\",\"approach-retreat\",\"134\",\"1068878\",\"0.0-134.0\",\"\",\"\",\"3-2\",\"4184\",\"37\",\"0\",\"Training\",\"Stims/Figures/84-J-0-2.bmp\",\"paka:ta\",\"Left\",\"39\",\"9\",\"3\",\"4\",\"P\",\"J\",\"131\"
\"\",\"\",\"approach-retreat\",\"135\",\"1074367\",\"0.0-135.0\",\"\",\"\",\"3-2\",\"3982\",\"40\",\"1\",\"Training\",\"Stims/Figures/27-J-0-1.bmp\",\"pakata\",\"Up\",\"40\",\"9\",\"4\",\"4\",\"P\",\"J\",\"132\"
\"\",\"\",\"approach-retreat\",\"136\",\"1081095\",\"0.0-136.0\",\"\",\"\",\"3-2\",\"5226\",\"38\",\"1\",\"Training\",\"Stims/Figures/44-J-10-3.bmp\",\"papata\",\"Down\",\"38\",\"9\",\"5\",\"4\",\"P\",\"J\",\"133\"
\"\",\"\",\"approach-retreat\",\"137\",\"1088000\",\"0.0-137.0\",\"\",\"\",\"3-2\",\"5399\",\"37\",\"1\",\"Training\",\"Stims/Figures/102-J-10-4.bmp\",\"papa:ta\",\"Right\",\"37\",\"9\",\"6\",\"4\",\"P\",\"J\",\"134\"
\"\",\"\",\"approach-retreat\",\"138\",\"1094062\",\"0.0-138.0\",\"\",\"\",\"3-2\",\"4559\",\"39\",\"0\",\"Training\",\"Stims/Figures/128-J-10-3.bmp\",\"papa:ka\",\"Right\",\"37\",\"9\",\"7\",\"4\",\"P\",\"J\",\"135\"
\"\",\"\",\"approach-retreat\",\"139\",\"1100799\",\"0.0-139.0\",\"\",\"\",\"3-2\",\"5233\",\"38\",\"0\",\"Training\",\"Stims/Figures/85-C-20-2.bmp\",\"ma:mana\",\"Down\",\"40\",\"9\",\"8\",\"4\",\"S\",\"J\",\"136\"
\"\",\"\",\"approach-retreat\",\"140\",\"1106798\",\"0.0-140.0\",\"\",\"\",\"3-2\",\"4495\",\"39\",\"0\",\"Training\",\"Stims/Figures/86-C-30-1.bmp\",\"malala\",\"Left\",\"37\",\"9\",\"9\",\"4\",\"S\",\"J\",\"137\"
\"\",\"\",\"approach-retreat\",\"141\",\"1112647\",\"0.0-141.0\",\"\",\"\",\"3-2\",\"4344\",\"40\",\"0\",\"Training\",\"Stims/Figures/19-J-10-4.bmp\",\"pa:pa:ka\",\"Down\",\"38\",\"9\",\"10\",\"4\",\"P\",\"J\",\"138\"
\"\",\"\",\"approach-retreat\",\"142\",\"1120734\",\"0.0-142.0\",\"\",\"\",\"3-2\",\"6584\",\"37\",\"1\",\"Training\",\"Stims/Figures/128-C-30-3.bmp\",\"mala:na\",\"Left\",\"37\",\"9\",\"11\",\"4\",\"S\",\"J\",\"139\"
\"\",\"\",\"approach-retreat\",\"143\",\"1128521\",\"0.0-143.0\",\"\",\"\",\"3-2\",\"6281\",\"38\",\"1\",\"Training\",\"Stims/Figures/44-C-30-3.bmp\",\"ma:la:la\",\"Up\",\"38\",\"9\",\"12\",\"4\",\"S\",\"J\",\"140\"
\"\",\"\",\"approach-retreat\",\"144\",\"1134191\",\"0.0-144.0\",\"\",\"\",\"3-2\",\"4168\",\"38\",\"1\",\"Training\",\"Stims/Figures/19-C-20-4.bmp\",\"ma:la:na\",\"Up\",\"38\",\"9\",\"13\",\"4\",\"S\",\"J\",\"141\"
\"\",\"\",\"approach-retreat\",\"145\",\"1139775\",\"0.0-145.0\",\"\",\"\",\"3-2\",\"4079\",\"39\",\"0\",\"Training\",\"Stims/Figures/86-J-0-1.bmp\",\"tapa:ta\",\"Right\",\"37\",\"9\",\"14\",\"4\",\"P\",\"J\",\"142\"
\"\",\"\",\"approach-retreat\",\"146\",\"1146022\",\"0.0-146.0\",\"\",\"\",\"3-2\",\"4744\",\"39\",\"0\",\"Training\",\"Stims/Figures/85-J-0-2.bmp\",\"tapata\",\"Right\",\"37\",\"9\",\"15\",\"4\",\"P\",\"J\",\"143\"
\"\",\"\",\"approach-retreat\",\"147\",\"1154319\",\"0.0-147.0\",\"\",\"\",\"3-2\",\"6794\",\"40\",\"0\",\"Training\",\"Stims/Figures/84-C-20-2.bmp\",\"na:la:na\",\"Up\",\"38\",\"9\",\"16\",\"4\",\"S\",\"J\",\"144\"
\"28885\",\"\",\"instructions\",\"148\",\"1183204\",\"0.0-148.0\",\"[{\"\"page_index\"\":0,\"\"viewing_time\"\":28885}]\",\"\",\"\",\"\",\"\",\"\",\"\",\"\",\"\",\"\",\"\",\"\",\"\",\"\",\"\",\"\",\"\"
\"\",\"\",\"approach-retreat\",\"149\",\"1191215\",\"0.0-149.0\",\"\",\"\",\"3-2\",\"6509\",\"39\",\"0\",\"Testing\",\"Stims/Figures/84-J-0-2.bmp\",\"paka:ta\",\"Right\",\"37\",\"1\",\"1\",\"4\",\"P\",\"J\",\"1\"
\"\",\"\",\"approach-retreat\",\"150\",\"1201343\",\"0.0-150.0\",\"\",\"\",\"3-2\",\"8625\",\"40\",\"0\",\"Testing\",\"Stims/Figures/100-J-10-3.bmp\",\"ta:ka:ka\",\"Down\",\"38\",\"1\",\"2\",\"4\",\"P\",\"J\",\"2\"
\"\",\"\",\"approach-retreat\",\"151\",\"1207358\",\"0.0-151.0\",\"\",\"\",\"3-2\",\"4513\",\"37\",\"1\",\"Testing\",\"Stims/Figures/85-C-20-2.bmp\",\"ma:mana\",\"Left\",\"37\",\"1\",\"3\",\"4\",\"S\",\"J\",\"3\"
\"\",\"\",\"approach-retreat\",\"152\",\"1213150\",\"0.0-152.0\",\"\",\"\",\"3-2\",\"4289\",\"40\",\"1\",\"Testing\",\"Stims/Figures/57-C-30-1.bmp\",\"malana\",\"Down\",\"40\",\"1\",\"4\",\"4\",\"S\",\"J\",\"4\"
\"\",\"\",\"approach-retreat\",\"153\",\"1218973\",\"0.0-153.0\",\"\",\"\",\"3-2\",\"4321\",\"38\",\"1\",\"Testing\",\"Stims/Figures/57-J-0-1.bmp\",\"takaka\",\"Down\",\"38\",\"1\",\"5\",\"4\",\"P\",\"J\",\"5\"
\"\",\"\",\"approach-retreat\",\"154\",\"1228695\",\"0.0-154.0\",\"\",\"\",\"3-2\",\"8218\",\"40\",\"0\",\"Testing\",\"Stims/Figures/86-C-30-1.bmp\",\"malala\",\"Up\",\"38\",\"1\",\"6\",\"4\",\"S\",\"J\",\"6\"
\"\",\"\",\"approach-retreat\",\"155\",\"1237710\",\"0.0-155.0\",\"\",\"\",\"3-2\",\"7511\",\"38\",\"0\",\"Testing\",\"Stims/Figures/84-C-20-2.bmp\",\"na:la:na\",\"Down\",\"40\",\"1\",\"7\",\"4\",\"S\",\"J\",\"7\"
\"\",\"\",\"approach-retreat\",\"156\",\"1247862\",\"0.0-156.0\",\"\",\"\",\"3-2\",\"8649\",\"39\",\"1\",\"Testing\",\"Stims/Figures/100-C-30-3.bmp\",\"nama:na\",\"Right\",\"39\",\"1\",\"8\",\"4\",\"S\",\"J\",\"8\"
\"\",\"\",\"approach-retreat\",\"157\",\"1254167\",\"0.0-157.0\",\"\",\"\",\"3-2\",\"4800\",\"40\",\"0\",\"Testing\",\"Stims/Figures/27-C-30-1.bmp\",\"ma:lana\",\"Up\",\"38\",\"1\",\"9\",\"4\",\"S\",\"J\",\"9\"
\"\",\"\",\"approach-retreat\",\"158\",\"1260598\",\"0.0-158.0\",\"\",\"\",\"3-2\",\"4928\",\"37\",\"1\",\"Testing\",\"Stims/Figures/87-C-20-4.bmp\",\"nalana\",\"Left\",\"37\",\"1\",\"10\",\"4\",\"S\",\"J\",\"10\"
\"\",\"\",\"approach-retreat\",\"159\",\"1268478\",\"0.0-159.0\",\"\",\"\",\"3-2\",\"6377\",\"37\",\"1\",\"Testing\",\"Stims/Figures/27-J-0-1.bmp\",\"pakata\",\"Right\",\"37\",\"1\",\"11\",\"4\",\"P\",\"J\",\"11\"
\"\",\"\",\"approach-retreat\",\"160\",\"1274535\",\"0.0-160.0\",\"\",\"\",\"3-2\",\"4554\",\"39\",\"1\",\"Testing\",\"Stims/Figures/102-J-10-4.bmp\",\"papa:ta\",\"Left\",\"39\",\"1\",\"12\",\"4\",\"P\",\"J\",\"12\"
\"\",\"\",\"approach-retreat\",\"161\",\"1282111\",\"0.0-161.0\",\"\",\"\",\"3-2\",\"6072\",\"37\",\"1\",\"Testing\",\"Stims/Figures/94-C-20-2.bmp\",\"mamana\",\"Left\",\"37\",\"1\",\"13\",\"4\",\"S\",\"J\",\"13\"
\"\",\"\",\"approach-retreat\",\"162\",\"1290104\",\"0.0-162.0\",\"\",\"\",\"3-2\",\"6488\",\"37\",\"1\",\"Testing\",\"Stims/Figures/128-J-10-3.bmp\",\"papa:ka\",\"Right\",\"37\",\"1\",\"14\",\"4\",\"P\",\"J\",\"14\"
\"\",\"\",\"approach-retreat\",\"163\",\"1298839\",\"0.0-163.0\",\"\",\"\",\"3-2\",\"7231\",\"38\",\"1\",\"Testing\",\"Stims/Figures/19-J-10-4.bmp\",\"pa:pa:ka\",\"Down\",\"38\",\"1\",\"15\",\"4\",\"P\",\"J\",\"15\"
\"\",\"\",\"approach-retreat\",\"164\",\"1304287\",\"0.0-164.0\",\"\",\"\",\"3-2\",\"3945\",\"39\",\"0\",\"Testing\",\"Stims/Figures/87-J-10-4.bmp\",\"taka:ta\",\"Right\",\"37\",\"1\",\"16\",\"4\",\"P\",\"J\",\"16\"
\"\",\"\",\"approach-retreat\",\"165\",\"1313527\",\"0.0-165.0\",\"\",\"\",\"3-2\",\"7736\",\"40\",\"1\",\"Testing\",\"Stims/Figures/86-J-0-1.bmp\",\"tapa:ta\",\"Up\",\"40\",\"1\",\"17\",\"4\",\"P\",\"J\",\"17\"
\"\",\"\",\"approach-retreat\",\"166\",\"1319671\",\"0.0-166.0\",\"\",\"\",\"3-2\",\"4640\",\"40\",\"1\",\"Testing\",\"Stims/Figures/44-C-30-3.bmp\",\"ma:la:la\",\"Down\",\"40\",\"1\",\"18\",\"4\",\"S\",\"J\",\"18\"
\"\",\"\",\"approach-retreat\",\"167\",\"1326304\",\"0.0-167.0\",\"\",\"\",\"3-2\",\"5127\",\"39\",\"0\",\"Testing\",\"Stims/Figures/128-C-30-3.bmp\",\"mala:na\",\"Left\",\"37\",\"1\",\"19\",\"4\",\"S\",\"J\",\"19\"
\"\",\"\",\"approach-retreat\",\"168\",\"1333366\",\"0.0-168.0\",\"\",\"\",\"3-2\",\"5560\",\"38\",\"0\",\"Testing\",\"Stims/Figures/94-J-0-2.bmp\",\"ta:ka:ta\",\"Up\",\"40\",\"1\",\"20\",\"4\",\"P\",\"J\",\"20\"
\"\",\"\",\"approach-retreat\",\"169\",\"1341189\",\"0.0-169.0\",\"\",\"\",\"3-2\",\"6320\",\"40\",\"1\",\"Testing\",\"Stims/Figures/85-J-0-2.bmp\",\"tapata\",\"Up\",\"40\",\"1\",\"21\",\"4\",\"P\",\"J\",\"21\"
\"\",\"\",\"approach-retreat\",\"170\",\"1347543\",\"0.0-170.0\",\"\",\"\",\"3-2\",\"4850\",\"38\",\"1\",\"Testing\",\"Stims/Figures/102-C-20-4.bmp\",\"nala:la\",\"Up\",\"38\",\"1\",\"22\",\"4\",\"S\",\"J\",\"22\"
\"\",\"\",\"approach-retreat\",\"171\",\"1353158\",\"0.0-171.0\",\"\",\"\",\"3-2\",\"4112\",\"39\",\"0\",\"Testing\",\"Stims/Figures/44-J-10-3.bmp\",\"papata\",\"Right\",\"37\",\"1\",\"23\",\"4\",\"P\",\"J\",\"23\"
\"\",\"\",\"approach-retreat\",\"172\",\"1358942\",\"0.0-172.0\",\"\",\"\",\"3-2\",\"4281\",\"37\",\"1\",\"Testing\",\"Stims/Figures/19-C-20-4.bmp\",\"ma:la:na\",\"Left\",\"37\",\"1\",\"24\",\"4\",\"S\",\"J\",\"24\"
\"\",\"\",\"approach-retreat\",\"173\",\"1366950\",\"0.0-173.0\",\"\",\"\",\"3-2\",\"6505\",\"39\",\"0\",\"Testing\",\"Stims/Figures/87-J-10-4.bmp\",\"taka:ta\",\"Right\",\"37\",\"2\",\"1\",\"4\",\"P\",\"J\",\"25\"
\"\",\"\",\"approach-retreat\",\"174\",\"1373918\",\"0.0-174.0\",\"\",\"\",\"3-2\",\"5465\",\"38\",\"1\",\"Testing\",\"Stims/Figures/27-C-30-1.bmp\",\"ma:lana\",\"Up\",\"38\",\"2\",\"2\",\"4\",\"S\",\"J\",\"26\"
\"\",\"\",\"approach-retreat\",\"175\",\"1379894\",\"0.0-175.0\",\"\",\"\",\"3-2\",\"4473\",\"40\",\"0\",\"Testing\",\"Stims/Figures/57-C-30-1.bmp\",\"malana\",\"Up\",\"38\",\"2\",\"3\",\"4\",\"S\",\"J\",\"27\"
\"\",\"\",\"approach-retreat\",\"176\",\"1385566\",\"0.0-176.0\",\"\",\"\",\"3-2\",\"4169\",\"39\",\"1\",\"Testing\",\"Stims/Figures/102-J-10-4.bmp\",\"papa:ta\",\"Left\",\"39\",\"2\",\"4\",\"4\",\"P\",\"J\",\"28\"
\"\",\"\",\"approach-retreat\",\"177\",\"1391207\",\"0.0-177.0\",\"\",\"\",\"3-2\",\"4137\",\"40\",\"0\",\"Testing\",\"Stims/Figures/100-J-10-3.bmp\",\"ta:ka:ka\",\"Down\",\"38\",\"2\",\"5\",\"4\",\"P\",\"J\",\"29\"
\"\",\"\",\"approach-retreat\",\"178\",\"1398304\",\"0.0-178.0\",\"\",\"\",\"3-2\",\"5593\",\"38\",\"1\",\"Testing\",\"Stims/Figures/86-J-0-1.bmp\",\"tapa:ta\",\"Down\",\"38\",\"2\",\"6\",\"4\",\"P\",\"J\",\"30\"
\"\",\"\",\"approach-retreat\",\"179\",\"1404119\",\"0.0-179.0\",\"\",\"\",\"3-2\",\"4311\",\"37\",\"1\",\"Testing\",\"Stims/Figures/44-C-30-3.bmp\",\"ma:la:la\",\"Left\",\"37\",\"2\",\"7\",\"4\",\"S\",\"J\",\"31\"
\"\",\"\",\"approach-retreat\",\"180\",\"1409822\",\"0.0-180.0\",\"\",\"\",\"3-2\",\"4201\",\"38\",\"0\",\"Testing\",\"Stims/Figures/86-C-30-1.bmp\",\"malala\",\"Down\",\"40\",\"2\",\"8\",\"4\",\"S\",\"J\",\"32\"
\"\",\"\",\"approach-retreat\",\"181\",\"1417039\",\"0.0-181.0\",\"\",\"\",\"3-2\",\"5713\",\"38\",\"0\",\"Testing\",\"Stims/Figures/19-J-10-4.bmp\",\"pa:pa:ka\",\"Up\",\"40\",\"2\",\"9\",\"4\",\"P\",\"J\",\"33\"
\"\",\"\",\"approach-retreat\",\"182\",\"1423151\",\"0.0-182.0\",\"\",\"\",\"3-2\",\"4609\",\"39\",\"1\",\"Testing\",\"Stims/Figures/94-C-20-2.bmp\",\"mamana\",\"Right\",\"39\",\"2\",\"10\",\"4\",\"S\",\"J\",\"34\"
\"\",\"\",\"approach-retreat\",\"183\",\"1430575\",\"0.0-183.0\",\"\",\"\",\"3-2\",\"5922\",\"38\",\"0\",\"Testing\",\"Stims/Figures/84-J-0-2.bmp\",\"paka:ta\",\"Up\",\"40\",\"2\",\"11\",\"4\",\"P\",\"J\",\"35\"
\"\",\"\",\"approach-retreat\",\"184\",\"1437086\",\"0.0-184.0\",\"\",\"\",\"3-2\",\"5008\",\"39\",\"0\",\"Testing\",\"Stims/Figures/128-J-10-3.bmp\",\"papa:ka\",\"Right\",\"37\",\"2\",\"12\",\"4\",\"P\",\"J\",\"36\"
\"\",\"\",\"approach-retreat\",\"185\",\"1442726\",\"0.0-185.0\",\"\",\"\",\"3-2\",\"4136\",\"38\",\"1\",\"Testing\",\"Stims/Figures/85-C-20-2.bmp\",\"ma:mana\",\"Up\",\"38\",\"2\",\"13\",\"4\",\"S\",\"J\",\"37\"
\"\",\"\",\"approach-retreat\",\"186\",\"1449015\",\"0.0-186.0\",\"\",\"\",\"3-2\",\"4787\",\"37\",\"1\",\"Testing\",\"Stims/Figures/100-C-30-3.bmp\",\"nama:na\",\"Left\",\"37\",\"2\",\"14\",\"4\",\"S\",\"J\",\"38\"
\"\",\"\",\"approach-retreat\",\"187\",\"1455390\",\"0.0-187.0\",\"\",\"\",\"3-2\",\"4872\",\"40\",\"0\",\"Testing\",\"Stims/Figures/85-J-0-2.bmp\",\"tapata\",\"Down\",\"38\",\"2\",\"15\",\"4\",\"P\",\"J\",\"39\"
\"\",\"\",\"approach-retreat\",\"188\",\"1461334\",\"0.0-188.0\",\"\",\"\",\"3-2\",\"4441\",\"39\",\"1\",\"Testing\",\"Stims/Figures/87-C-20-4.bmp\",\"nalana\",\"Right\",\"39\",\"2\",\"16\",\"4\",\"S\",\"J\",\"40\"
\"\",\"\",\"approach-retreat\",\"189\",\"1468110\",\"0.0-189.0\",\"\",\"\",\"3-2\",\"5273\",\"39\",\"1\",\"Testing\",\"Stims/Figures/19-C-20-4.bmp\",\"ma:la:na\",\"Right\",\"39\",\"2\",\"17\",\"4\",\"S\",\"J\",\"41\"
\"\",\"\",\"approach-retreat\",\"190\",\"1474158\",\"0.0-190.0\",\"\",\"\",\"3-2\",\"4545\",\"38\",\"0\",\"Testing\",\"Stims/Figures/128-C-30-3.bmp\",\"mala:na\",\"Down\",\"40\",\"2\",\"18\",\"4\",\"S\",\"J\",\"42\"
\"\",\"\",\"approach-retreat\",\"191\",\"1481309\",\"0.0-191.0\",\"\",\"\",\"3-2\",\"5649\",\"39\",\"1\",\"Testing\",\"Stims/Figures/44-J-10-3.bmp\",\"papata\",\"Left\",\"39\",\"2\",\"19\",\"4\",\"P\",\"J\",\"43\"
\"\",\"\",\"approach-retreat\",\"192\",\"1487358\",\"0.0-192.0\",\"\",\"\",\"3-2\",\"4546\",\"40\",\"0\",\"Testing\",\"Stims/Figures/57-J-0-1.bmp\",\"takaka\",\"Down\",\"38\",\"2\",\"20\",\"4\",\"P\",\"J\",\"44\"
\"\",\"\",\"approach-retreat\",\"193\",\"1496046\",\"0.0-193.0\",\"\",\"\",\"3-2\",\"7185\",\"37\",\"1\",\"Testing\",\"Stims/Figures/102-C-20-4.bmp\",\"nala:la\",\"Left\",\"37\",\"2\",\"21\",\"4\",\"S\",\"J\",\"45\"
\"\",\"\",\"approach-retreat\",\"194\",\"1502327\",\"0.0-194.0\",\"\",\"\",\"3-2\",\"4779\",\"40\",\"0\",\"Testing\",\"Stims/Figures/84-C-20-2.bmp\",\"na:la:na\",\"Up\",\"38\",\"2\",\"22\",\"4\",\"S\",\"J\",\"46\"
\"\",\"\",\"approach-retreat\",\"195\",\"1508766\",\"0.0-195.0\",\"\",\"\",\"3-2\",\"4936\",\"39\",\"0\",\"Testing\",\"Stims/Figures/94-J-0-2.bmp\",\"ta:ka:ta\",\"Right\",\"37\",\"2\",\"23\",\"4\",\"P\",\"J\",\"47\"
\"\",\"\",\"approach-retreat\",\"196\",\"1515183\",\"0.0-196.0\",\"\",\"\",\"3-2\",\"4914\",\"39\",\"1\",\"Testing\",\"Stims/Figures/27-J-0-1.bmp\",\"pakata\",\"Left\",\"39\",\"2\",\"24\",\"4\",\"P\",\"J\",\"48\"
\"\",\"\",\"approach-retreat\",\"197\",\"1521383\",\"0.0-197.0\",\"\",\"\",\"3-2\",\"4697\",\"40\",\"0\",\"Testing\",\"Stims/Figures/44-J-10-3.bmp\",\"papata\",\"Down\",\"38\",\"3\",\"1\",\"4\",\"P\",\"J\",\"49\"
\"\",\"\",\"approach-retreat\",\"198\",\"1528775\",\"0.0-198.0\",\"\",\"\",\"3-2\",\"5889\",\"38\",\"1\",\"Testing\",\"Stims/Figures/57-J-0-1.bmp\",\"takaka\",\"Down\",\"38\",\"3\",\"2\",\"4\",\"P\",\"J\",\"50\"
\"\",\"\",\"approach-retreat\",\"199\",\"1536015\",\"0.0-199.0\",\"\",\"\",\"3-2\",\"5736\",\"38\",\"1\",\"Testing\",\"Stims/Figures/128-C-30-3.bmp\",\"mala:na\",\"Up\",\"38\",\"3\",\"3\",\"4\",\"S\",\"J\",\"51\"
\"\",\"\",\"approach-retreat\",\"200\",\"1542407\",\"0.0-200.0\",\"\",\"\",\"3-2\",\"4889\",\"39\",\"0\",\"Testing\",\"Stims/Figures/27-C-30-1.bmp\",\"ma:lana\",\"Left\",\"37\",\"3\",\"4\",\"4\",\"S\",\"J\",\"52\"
\"\",\"\",\"approach-retreat\",\"201\",\"1548255\",\"0.0-201.0\",\"\",\"\",\"3-2\",\"4345\",\"40\",\"1\",\"Testing\",\"Stims/Figures/86-C-30-1.bmp\",\"malala\",\"Down\",\"40\",\"3\",\"5\",\"4\",\"S\",\"J\",\"53\"
\"\",\"\",\"approach-retreat\",\"202\",\"1554607\",\"0.0-202.0\",\"\",\"\",\"3-2\",\"4849\",\"39\",\"1\",\"Testing\",\"Stims/Figures/94-C-20-2.bmp\",\"mamana\",\"Right\",\"39\",\"3\",\"6\",\"4\",\"S\",\"J\",\"54\"
\"\",\"\",\"approach-retreat\",\"203\",\"1560662\",\"0.0-203.0\",\"\",\"\",\"3-2\",\"4552\",\"38\",\"0\",\"Testing\",\"Stims/Figures/94-J-0-2.bmp\",\"ta:ka:ta\",\"Up\",\"40\",\"3\",\"7\",\"4\",\"P\",\"J\",\"55\"
\"\",\"\",\"approach-retreat\",\"204\",\"1567783\",\"0.0-204.0\",\"\",\"\",\"3-2\",\"5618\",\"38\",\"0\",\"Testing\",\"Stims/Figures/85-J-0-2.bmp\",\"tapata\",\"Up\",\"40\",\"3\",\"8\",\"4\",\"P\",\"J\",\"56\"
\"\",\"\",\"approach-retreat\",\"205\",\"1574278\",\"0.0-205.0\",\"\",\"\",\"3-2\",\"4992\",\"39\",\"1\",\"Testing\",\"Stims/Figures/102-C-20-4.bmp\",\"nala:la\",\"Right\",\"39\",\"3\",\"9\",\"4\",\"S\",\"J\",\"57\"
\"\",\"\",\"approach-retreat\",\"206\",\"1579854\",\"0.0-206.0\",\"\",\"\",\"3-2\",\"4073\",\"40\",\"1\",\"Testing\",\"Stims/Figures/87-C-20-4.bmp\",\"nalana\",\"Down\",\"40\",\"3\",\"10\",\"4\",\"S\",\"J\",\"58\"
\"\",\"\",\"approach-retreat\",\"207\",\"1585413\",\"0.0-207.0\",\"\",\"\",\"3-2\",\"4056\",\"37\",\"0\",\"Testing\",\"Stims/Figures/128-J-10-3.bmp\",\"papa:ka\",\"Left\",\"39\",\"3\",\"11\",\"4\",\"P\",\"J\",\"59\"
\"\",\"\",\"approach-retreat\",\"208\",\"1591510\",\"0.0-208.0\",\"\",\"\",\"3-2\",\"4594\",\"39\",\"0\",\"Testing\",\"Stims/Figures/19-J-10-4.bmp\",\"pa:pa:ka\",\"Right\",\"37\",\"3\",\"12\",\"4\",\"P\",\"J\",\"60\"
\"\",\"\",\"approach-retreat\",\"209\",\"1599214\",\"0.0-209.0\",\"\",\"\",\"3-2\",\"6201\",\"37\",\"0\",\"Testing\",\"Stims/Figures/100-J-10-3.bmp\",\"ta:ka:ka\",\"Left\",\"39\",\"3\",\"13\",\"4\",\"P\",\"J\",\"61\"
\"\",\"\",\"approach-retreat\",\"210\",\"1606111\",\"0.0-210.0\",\"\",\"\",\"3-2\",\"5394\",\"39\",\"1\",\"Testing\",\"Stims/Figures/85-C-20-2.bmp\",\"ma:mana\",\"Right\",\"39\",\"3\",\"14\",\"4\",\"S\",\"J\",\"62\"
\"\",\"\",\"approach-retreat\",\"211\",\"1612366\",\"0.0-211.0\",\"\",\"\",\"3-2\",\"4752\",\"37\",\"0\",\"Testing\",\"Stims/Figures/84-J-0-2.bmp\",\"paka:ta\",\"Left\",\"39\",\"3\",\"15\",\"4\",\"P\",\"J\",\"63\"
\"\",\"\",\"approach-retreat\",\"212\",\"1618614\",\"0.0-212.0\",\"\",\"\",\"3-2\",\"4745\",\"37\",\"0\",\"Testing\",\"Stims/Figures/86-J-0-1.bmp\",\"tapa:ta\",\"Left\",\"39\",\"3\",\"16\",\"4\",\"P\",\"J\",\"64\"
\"\",\"\",\"approach-retreat\",\"213\",\"1624454\",\"0.0-213.0\",\"\",\"\",\"3-2\",\"4336\",\"37\",\"0\",\"Testing\",\"Stims/Figures/84-C-20-2.bmp\",\"na:la:na\",\"Right\",\"39\",\"3\",\"17\",\"4\",\"S\",\"J\",\"65\"
\"\",\"\",\"approach-retreat\",\"214\",\"1630190\",\"0.0-214.0\",\"\",\"\",\"3-2\",\"4233\",\"40\",\"1\",\"Testing\",\"Stims/Figures/102-J-10-4.bmp\",\"papa:ta\",\"Up\",\"40\",\"3\",\"18\",\"4\",\"P\",\"J\",\"66\"
\"\",\"\",\"approach-retreat\",\"215\",\"1635695\",\"0.0-215.0\",\"\",\"\",\"3-2\",\"4001\",\"40\",\"0\",\"Testing\",\"Stims/Figures/87-J-10-4.bmp\",\"taka:ta\",\"Down\",\"38\",\"3\",\"19\",\"4\",\"P\",\"J\",\"67\"
\"\",\"\",\"approach-retreat\",\"216\",\"1641655\",\"0.0-216.0\",\"\",\"\",\"3-2\",\"4458\",\"38\",\"1\",\"Testing\",\"Stims/Figures/57-C-30-1.bmp\",\"malana\",\"Up\",\"38\",\"3\",\"20\",\"4\",\"S\",\"J\",\"68\"
\"\",\"\",\"approach-retreat\",\"217\",\"1648646\",\"0.0-217.0\",\"\",\"\",\"3-2\",\"5487\",\"37\",\"0\",\"Testing\",\"Stims/Figures/27-J-0-1.bmp\",\"pakata\",\"Left\",\"39\",\"3\",\"21\",\"4\",\"P\",\"J\",\"69\"
\"\",\"\",\"approach-retreat\",\"218\",\"1654750\",\"0.0-218.0\",\"\",\"\",\"3-2\",\"4602\",\"38\",\"1\",\"Testing\",\"Stims/Figures/100-C-30-3.bmp\",\"nama:na\",\"Up\",\"38\",\"3\",\"22\",\"4\",\"S\",\"J\",\"70\"
\"\",\"\",\"approach-retreat\",\"219\",\"1660798\",\"0.0-219.0\",\"\",\"\",\"3-2\",\"4545\",\"40\",\"1\",\"Testing\",\"Stims/Figures/19-C-20-4.bmp\",\"ma:la:na\",\"Down\",\"40\",\"3\",\"23\",\"4\",\"S\",\"J\",\"71\"
\"\",\"\",\"approach-retreat\",\"220\",\"1666526\",\"0.0-220.0\",\"\",\"\",\"3-2\",\"4226\",\"39\",\"1\",\"Testing\",\"Stims/Figures/44-C-30-3.bmp\",\"ma:la:la\",\"Right\",\"39\",\"3\",\"24\",\"4\",\"S\",\"J\",\"72\"
\"\",\"\",\"approach-retreat\",\"221\",\"1672861\",\"0.0-221.0\",\"\",\"\",\"3-2\",\"4831\",\"38\",\"0\",\"Testing\",\"Stims/Figures/87-J-10-4.bmp\",\"taka:ta\",\"Up\",\"40\",\"4\",\"1\",\"4\",\"P\",\"J\",\"73\"
\"\",\"\",\"approach-retreat\",\"222\",\"1679631\",\"0.0-222.0\",\"\",\"\",\"3-2\",\"5266\",\"39\",\"1\",\"Testing\",\"Stims/Figures/27-C-30-1.bmp\",\"ma:lana\",\"Right\",\"39\",\"4\",\"2\",\"4\",\"S\",\"J\",\"74\"
\"\",\"\",\"approach-retreat\",\"223\",\"1685782\",\"0.0-223.0\",\"\",\"\",\"3-2\",\"4648\",\"38\",\"1\",\"Testing\",\"Stims/Figures/57-C-30-1.bmp\",\"malana\",\"Up\",\"38\",\"4\",\"3\",\"4\",\"S\",\"J\",\"75\"
\"\",\"\",\"approach-retreat\",\"224\",\"1691632\",\"0.0-224.0\",\"\",\"\",\"3-2\",\"4345\",\"38\",\"0\",\"Testing\",\"Stims/Figures/85-J-0-2.bmp\",\"tapata\",\"Up\",\"40\",\"4\",\"4\",\"4\",\"P\",\"J\",\"76\"
\"\",\"\",\"approach-retreat\",\"225\",\"1697614\",\"0.0-225.0\",\"\",\"\",\"3-2\",\"4479\",\"40\",\"1\",\"Testing\",\"Stims/Figures/100-C-30-3.bmp\",\"nama:na\",\"Down\",\"40\",\"4\",\"5\",\"4\",\"S\",\"J\",\"77\"
\"\",\"\",\"approach-retreat\",\"226\",\"1703558\",\"0.0-226.0\",\"\",\"\",\"3-2\",\"4441\",\"40\",\"0\",\"Testing\",\"Stims/Figures/94-J-0-2.bmp\",\"ta:ka:ta\",\"Down\",\"38\",\"4\",\"6\",\"4\",\"P\",\"J\",\"78\"
\"\",\"\",\"approach-retreat\",\"227\",\"1709645\",\"0.0-227.0\",\"\",\"\",\"3-2\",\"4584\",\"37\",\"1\",\"Testing\",\"Stims/Figures/94-C-20-2.bmp\",\"mamana\",\"Left\",\"37\",\"4\",\"7\",\"4\",\"S\",\"J\",\"79\"
\"\",\"\",\"approach-retreat\",\"228\",\"1716246\",\"0.0-228.0\",\"\",\"\",\"3-2\",\"5098\",\"39\",\"0\",\"Testing\",\"Stims/Figures/19-J-10-4.bmp\",\"pa:pa:ka\",\"Right\",\"37\",\"4\",\"8\",\"4\",\"P\",\"J\",\"80\"
\"\",\"\",\"approach-retreat\",\"229\",\"1722134\",\"0.0-229.0\",\"\",\"\",\"3-2\",\"4385\",\"37\",\"1\",\"Testing\",\"Stims/Figures/44-C-30-3.bmp\",\"ma:la:la\",\"Left\",\"37\",\"4\",\"9\",\"4\",\"S\",\"J\",\"81\"
\"\",\"\",\"approach-retreat\",\"230\",\"1728031\",\"0.0-230.0\",\"\",\"\",\"3-2\",\"4394\",\"38\",\"0\",\"Testing\",\"Stims/Figures/44-J-10-3.bmp\",\"papata\",\"Up\",\"40\",\"4\",\"10\",\"4\",\"P\",\"J\",\"82\"
\"\",\"\",\"approach-retreat\",\"231\",\"1733822\",\"0.0-231.0\",\"\",\"\",\"3-2\",\"4288\",\"38\",\"0\",\"Testing\",\"Stims/Figures/84-J-0-2.bmp\",\"paka:ta\",\"Up\",\"40\",\"4\",\"11\",\"4\",\"P\",\"J\",\"83\"
\"\",\"\",\"approach-retreat\",\"232\",\"1739662\",\"0.0-232.0\",\"\",\"\",\"3-2\",\"4337\",\"37\",\"0\",\"Testing\",\"Stims/Figures/100-J-10-3.bmp\",\"ta:ka:ka\",\"Left\",\"39\",\"4\",\"12\",\"4\",\"P\",\"J\",\"84\"
\"\",\"\",\"approach-retreat\",\"233\",\"1745574\",\"0.0-233.0\",\"\",\"\",\"3-2\",\"4409\",\"37\",\"0\",\"Testing\",\"Stims/Figures/19-C-20-4.bmp\",\"ma:la:na\",\"Right\",\"39\",\"4\",\"13\",\"4\",\"S\",\"J\",\"85\"
\"\",\"\",\"approach-retreat\",\"234\",\"1752422\",\"0.0-234.0\",\"\",\"\",\"3-2\",\"5345\",\"39\",\"0\",\"Testing\",\"Stims/Figures/85-C-20-2.bmp\",\"ma:mana\",\"Left\",\"37\",\"4\",\"14\",\"4\",\"S\",\"J\",\"86\"
\"\",\"\",\"approach-retreat\",\"235\",\"1758159\",\"0.0-235.0\",\"\",\"\",\"3-2\",\"4233\",\"40\",\"1\",\"Testing\",\"Stims/Figures/87-C-20-4.bmp\",\"nalana\",\"Down\",\"40\",\"4\",\"15\",\"4\",\"S\",\"J\",\"87\"
\"\",\"\",\"approach-retreat\",\"236\",\"1764144\",\"0.0-236.0\",\"\",\"\",\"3-2\",\"4483\",\"39\",\"0\",\"Testing\",\"Stims/Figures/57-J-0-1.bmp\",\"takaka\",\"Right\",\"37\",\"4\",\"16\",\"4\",\"P\",\"J\",\"88\"
\"\",\"\",\"approach-retreat\",\"237\",\"1770158\",\"0.0-237.0\",\"\",\"\",\"3-2\",\"4512\",\"39\",\"0\",\"Testing\",\"Stims/Figures/86-J-0-1.bmp\",\"tapa:ta\",\"Right\",\"37\",\"4\",\"17\",\"4\",\"P\",\"J\",\"89\"
\"\",\"\",\"approach-retreat\",\"238\",\"1776119\",\"0.0-238.0\",\"\",\"\",\"3-2\",\"4458\",\"37\",\"1\",\"Testing\",\"Stims/Figures/102-C-20-4.bmp\",\"nala:la\",\"Left\",\"37\",\"4\",\"18\",\"4\",\"S\",\"J\",\"90\"
\"\",\"\",\"approach-retreat\",\"239\",\"1782343\",\"0.0-239.0\",\"\",\"\",\"3-2\",\"4722\",\"40\",\"1\",\"Testing\",\"Stims/Figures/128-C-30-3.bmp\",\"mala:na\",\"Down\",\"40\",\"4\",\"19\",\"4\",\"S\",\"J\",\"91\"
\"\",\"\",\"approach-retreat\",\"240\",\"1789070\",\"0.0-240.0\",\"\",\"\",\"3-2\",\"5224\",\"39\",\"1\",\"Testing\",\"Stims/Figures/84-C-20-2.bmp\",\"na:la:na\",\"Right\",\"39\",\"4\",\"20\",\"4\",\"S\",\"J\",\"92\"
\"\",\"\",\"approach-retreat\",\"241\",\"1797734\",\"0.0-241.0\",\"\",\"\",\"3-2\",\"7161\",\"40\",\"1\",\"Testing\",\"Stims/Figures/128-J-10-3.bmp\",\"papa:ka\",\"Up\",\"40\",\"4\",\"21\",\"4\",\"P\",\"J\",\"93\"
\"\",\"\",\"approach-retreat\",\"242\",\"1803159\",\"0.0-242.0\",\"\",\"\",\"3-2\",\"3921\",\"40\",\"1\",\"Testing\",\"Stims/Figures/86-C-30-1.bmp\",\"malala\",\"Down\",\"40\",\"4\",\"22\",\"4\",\"S\",\"J\",\"94\"
\"\",\"\",\"approach-retreat\",\"243\",\"1809910\",\"0.0-243.0\",\"\",\"\",\"3-2\",\"5249\",\"39\",\"1\",\"Testing\",\"Stims/Figures/102-J-10-4.bmp\",\"papa:ta\",\"Left\",\"39\",\"4\",\"23\",\"4\",\"P\",\"J\",\"95\"
\"\",\"\",\"approach-retreat\",\"244\",\"1815831\",\"0.0-244.0\",\"\",\"\",\"3-2\",\"4418\",\"38\",\"1\",\"Testing\",\"Stims/Figures/27-J-0-1.bmp\",\"pakata\",\"Down\",\"38\",\"4\",\"24\",\"4\",\"P\",\"J\",\"96\"
\"41523\",\"\",\"survey-text\",\"245\",\"1857357\",\"0.0-245.0\",\"\",\"{\"\"Q0\"\":\"\"1246\"\"}\",\"\",\"\",\"\",\"\",\"\",\"\",\"\",\"\",\"\",\"\",\"\",\"\",\"\",\"\",\"\"
