\"rt\",\"key_press\",\"trial_type\",\"trial_index\",\"time_elapsed\",\"internal_node_id\",\"view_history\",\"responses\",\"Id\",\"Rt\",\"ResKeyCode\",\"ResCorr\",\"TrialType2\",\"Image\",\"Label\",\"Location\",\"CorrectResponse\",\"Block\",\"BlockTrial\",\"Condition\",\"LabelType\",\"Subcondition\",\"trialNum\"
\"324\",\"32\",\"text\",\"0\",\"326\",\"0.0-0.0-0.0\",\"\",\"\",\"\",\"\",\"\",\"\",\"\",\"\",\"\",\"\",\"\",\"\",\"\",\"\",\"\",\"\",\"\"
\"2431\",\"\",\"instructions\",\"1\",\"2759\",\"0.0-1.0\",\"[{\"\"page_index\"\":0,\"\"viewing_time\"\":2431}]\",\"\",\"\",\"\",\"\",\"\",\"\",\"\",\"\",\"\",\"\",\"\",\"\",\"\",\"\",\"\",\"\"
\"19733\",\"\",\"survey-multi-choice\",\"2\",\"22517\",\"0.0-2.0\",\"\",\"{\"\"Q0\"\":\"\"Da\"\",\"\"Q1\"\":\"\"Da\"\",\"\"Q2\"\":\"\"Da\"\",\"\"Q3\"\":\"\"Da\"\",\"\"Q4\"\":\"\"Da\"\",\"\"Q5\"\":\"\"Da\"\"}\",\"\",\"\",\"\",\"\",\"\",\"\",\"\",\"\",\"\",\"\",\"\",\"\",\"\",\"\",\"\"
\"\",\"\",\"bio\",\"3\",\"30791\",\"0.0-3.0\",\"\",\"{\"\"age\"\":\"\"19\"\",\"\"gender\"\":\"\"f\"\",\"\"specify\"\":\"\"\"\"}\",\"\",\"\",\"\",\"\",\"\",\"\",\"\",\"\",\"\",\"\",\"\",\"\",\"\",\"\",\"\"
\"\",\"\",\"approach-retreat\",\"4\",\"37149\",\"0.0-4.0\",\"\",\"\",\"2-3\",\"4851\",\"37\",\"1\",\"Training\",\"Stims/Figures/84-J-0-2.bmp\",\"sasaza\",\"Right\",\"37\",\"1\",\"1\",\"3B\",\"C2\",\"J\",\"1\"
\"\",\"\",\"approach-retreat\",\"5\",\"43097\",\"0.0-5.0\",\"\",\"\",\"2-3\",\"4440\",\"37\",\"0\",\"Training\",\"Stims/Figures/84-C-20-2.bmp\",\"fa:fasha\",\"Right\",\"39\",\"1\",\"2\",\"3B\",\"C1\",\"J\",\"2\"
\"\",\"\",\"approach-retreat\",\"6\",\"49072\",\"0.0-6.0\",\"\",\"\",\"2-3\",\"4470\",\"40\",\"1\",\"Training\",\"Stims/Figures/100-J-10-3.bmp\",\"sasaza\",\"Up\",\"40\",\"1\",\"3\",\"3B\",\"C2\",\"J\",\"3\"
\"\",\"\",\"approach-retreat\",\"7\",\"55041\",\"0.0-7.0\",\"\",\"\",\"2-3\",\"4465\",\"38\",\"1\",\"Training\",\"Stims/Figures/93-J-0-1.bmp\",\"sasaza\",\"Down\",\"38\",\"1\",\"4\",\"3B\",\"C2\",\"J\",\"4\"
\"\",\"\",\"approach-retreat\",\"8\",\"60596\",\"0.0-8.0\",\"\",\"\",\"2-3\",\"4050\",\"40\",\"1\",\"Training\",\"Stims/Figures/19-J-10-4.bmp\",\"sasaza\",\"Up\",\"40\",\"1\",\"5\",\"3B\",\"C2\",\"J\",\"5\"
\"\",\"\",\"approach-retreat\",\"9\",\"66147\",\"0.0-9.0\",\"\",\"\",\"2-3\",\"4045\",\"39\",\"0\",\"Training\",\"Stims/Figures/57-C-30-1.bmp\",\"fa:fasha\",\"Left\",\"37\",\"1\",\"6\",\"3B\",\"C1\",\"J\",\"6\"
\"\",\"\",\"approach-retreat\",\"10\",\"71897\",\"0.0-10.0\",\"\",\"\",\"2-3\",\"4245\",\"38\",\"1\",\"Training\",\"Stims/Figures/7-C-20-4.bmp\",\"fa:fasha\",\"Up\",\"38\",\"1\",\"7\",\"3B\",\"C1\",\"J\",\"7\"
\"\",\"\",\"approach-retreat\",\"11\",\"78149\",\"0.0-11.0\",\"\",\"\",\"2-3\",\"4747\",\"37\",\"1\",\"Training\",\"Stims/Figures/128-C-30-3.bmp\",\"fa:fasha\",\"Left\",\"37\",\"1\",\"8\",\"3B\",\"C1\",\"J\",\"8\"
\"\",\"\",\"approach-retreat\",\"12\",\"83648\",\"0.0-12.0\",\"\",\"\",\"2-3\",\"3993\",\"39\",\"1\",\"Training\",\"Stims/Figures/100-C-30-3.bmp\",\"fa:fasha\",\"Right\",\"39\",\"1\",\"9\",\"3B\",\"C1\",\"J\",\"9\"
\"\",\"\",\"approach-retreat\",\"13\",\"89163\",\"0.0-13.0\",\"\",\"\",\"2-3\",\"4009\",\"37\",\"1\",\"Training\",\"Stims/Figures/19-C-20-4.bmp\",\"fa:fasha\",\"Left\",\"37\",\"1\",\"10\",\"3B\",\"C1\",\"J\",\"10\"
\"\",\"\",\"approach-retreat\",\"14\",\"94526\",\"0.0-14.0\",\"\",\"\",\"2-3\",\"3857\",\"40\",\"0\",\"Training\",\"Stims/Figures/57-J-0-1.bmp\",\"sasaza\",\"Down\",\"38\",\"1\",\"11\",\"3B\",\"C2\",\"J\",\"11\"
\"\",\"\",\"approach-retreat\",\"15\",\"99985\",\"0.0-15.0\",\"\",\"\",\"2-3\",\"3952\",\"39\",\"1\",\"Training\",\"Stims/Figures/7-J-10-4.bmp\",\"sasaza\",\"Left\",\"39\",\"1\",\"12\",\"3B\",\"C2\",\"J\",\"12\"
\"\",\"\",\"approach-retreat\",\"16\",\"105606\",\"0.0-16.0\",\"\",\"\",\"2-3\",\"4115\",\"39\",\"1\",\"Training\",\"Stims/Figures/118-C-20-2.bmp\",\"fa:fasha\",\"Right\",\"39\",\"1\",\"13\",\"3B\",\"C1\",\"J\",\"13\"
\"\",\"\",\"approach-retreat\",\"17\",\"111173\",\"0.0-17.0\",\"\",\"\",\"2-3\",\"4061\",\"38\",\"1\",\"Training\",\"Stims/Figures/128-J-10-3.bmp\",\"sasaza\",\"Down\",\"38\",\"1\",\"14\",\"3B\",\"C2\",\"J\",\"14\"
\"\",\"\",\"approach-retreat\",\"18\",\"116705\",\"0.0-18.0\",\"\",\"\",\"2-3\",\"4027\",\"38\",\"0\",\"Training\",\"Stims/Figures/93-C-30-1.bmp\",\"fa:fasha\",\"Down\",\"40\",\"1\",\"15\",\"3B\",\"C1\",\"J\",\"15\"
\"\",\"\",\"approach-retreat\",\"19\",\"122214\",\"0.0-19.0\",\"\",\"\",\"2-3\",\"4005\",\"38\",\"0\",\"Training\",\"Stims/Figures/118-J-0-2.bmp\",\"sasaza\",\"Up\",\"40\",\"1\",\"16\",\"3B\",\"C2\",\"J\",\"16\"
\"\",\"\",\"approach-retreat\",\"20\",\"128280\",\"0.0-20.0\",\"\",\"\",\"2-3\",\"4560\",\"40\",\"1\",\"Training\",\"Stims/Figures/128-J-10-3.bmp\",\"sasaza\",\"Up\",\"40\",\"2\",\"1\",\"3B\",\"C2\",\"J\",\"17\"
\"\",\"\",\"approach-retreat\",\"21\",\"133735\",\"0.0-21.0\",\"\",\"\",\"2-3\",\"3950\",\"39\",\"1\",\"Training\",\"Stims/Figures/100-J-10-3.bmp\",\"sasaza\",\"Left\",\"39\",\"2\",\"2\",\"3B\",\"C2\",\"J\",\"18\"
\"\",\"\",\"approach-retreat\",\"22\",\"139288\",\"0.0-22.0\",\"\",\"\",\"2-3\",\"4049\",\"38\",\"1\",\"Training\",\"Stims/Figures/118-J-0-2.bmp\",\"sasaza\",\"Down\",\"38\",\"2\",\"3\",\"3B\",\"C2\",\"J\",\"19\"
\"\",\"\",\"approach-retreat\",\"23\",\"144739\",\"0.0-23.0\",\"\",\"\",\"2-3\",\"3944\",\"39\",\"1\",\"Training\",\"Stims/Figures/128-C-30-3.bmp\",\"fa:fasha\",\"Right\",\"39\",\"2\",\"4\",\"3B\",\"C1\",\"J\",\"20\"
\"\",\"\",\"approach-retreat\",\"24\",\"150543\",\"0.0-24.0\",\"\",\"\",\"2-3\",\"4297\",\"40\",\"1\",\"Training\",\"Stims/Figures/57-C-30-1.bmp\",\"fa:fasha\",\"Down\",\"40\",\"2\",\"5\",\"3B\",\"C1\",\"J\",\"21\"
\"\",\"\",\"approach-retreat\",\"25\",\"156092\",\"0.0-25.0\",\"\",\"\",\"2-3\",\"4044\",\"37\",\"1\",\"Training\",\"Stims/Figures/19-C-20-4.bmp\",\"fa:fasha\",\"Left\",\"37\",\"2\",\"6\",\"3B\",\"C1\",\"J\",\"22\"
\"\",\"\",\"approach-retreat\",\"26\",\"161984\",\"0.0-26.0\",\"\",\"\",\"2-3\",\"4386\",\"38\",\"0\",\"Training\",\"Stims/Figures/84-J-0-2.bmp\",\"sasaza\",\"Up\",\"40\",\"2\",\"7\",\"3B\",\"C2\",\"J\",\"23\"
\"\",\"\",\"approach-retreat\",\"27\",\"167730\",\"0.0-27.0\",\"\",\"\",\"2-3\",\"4242\",\"40\",\"1\",\"Training\",\"Stims/Figures/100-C-30-3.bmp\",\"fa:fasha\",\"Down\",\"40\",\"2\",\"8\",\"3B\",\"C1\",\"J\",\"24\"
\"\",\"\",\"approach-retreat\",\"28\",\"173114\",\"0.0-28.0\",\"\",\"\",\"2-3\",\"3880\",\"40\",\"1\",\"Training\",\"Stims/Figures/118-C-20-2.bmp\",\"fa:fasha\",\"Down\",\"40\",\"2\",\"9\",\"3B\",\"C1\",\"J\",\"25\"
\"\",\"\",\"approach-retreat\",\"29\",\"178956\",\"0.0-29.0\",\"\",\"\",\"2-3\",\"4337\",\"40\",\"1\",\"Training\",\"Stims/Figures/57-J-0-1.bmp\",\"sasaza\",\"Up\",\"40\",\"2\",\"10\",\"3B\",\"C2\",\"J\",\"26\"
\"\",\"\",\"approach-retreat\",\"30\",\"184530\",\"0.0-30.0\",\"\",\"\",\"2-3\",\"4068\",\"39\",\"1\",\"Training\",\"Stims/Figures/7-J-10-4.bmp\",\"sasaza\",\"Left\",\"39\",\"2\",\"11\",\"3B\",\"C2\",\"J\",\"27\"
\"\",\"\",\"approach-retreat\",\"31\",\"189974\",\"0.0-31.0\",\"\",\"\",\"2-3\",\"3940\",\"37\",\"1\",\"Training\",\"Stims/Figures/93-J-0-1.bmp\",\"sasaza\",\"Right\",\"37\",\"2\",\"12\",\"3B\",\"C2\",\"J\",\"28\"
\"\",\"\",\"approach-retreat\",\"32\",\"195474\",\"0.0-32.0\",\"\",\"\",\"2-3\",\"3993\",\"39\",\"1\",\"Training\",\"Stims/Figures/7-C-20-4.bmp\",\"fa:fasha\",\"Right\",\"39\",\"2\",\"13\",\"3B\",\"C1\",\"J\",\"29\"
\"\",\"\",\"approach-retreat\",\"33\",\"201095\",\"0.0-33.0\",\"\",\"\",\"2-3\",\"4115\",\"40\",\"1\",\"Training\",\"Stims/Figures/19-J-10-4.bmp\",\"sasaza\",\"Up\",\"40\",\"2\",\"14\",\"3B\",\"C2\",\"J\",\"30\"
\"\",\"\",\"approach-retreat\",\"34\",\"206565\",\"0.0-34.0\",\"\",\"\",\"2-3\",\"3966\",\"37\",\"1\",\"Training\",\"Stims/Figures/93-C-30-1.bmp\",\"fa:fasha\",\"Left\",\"37\",\"2\",\"15\",\"3B\",\"C1\",\"J\",\"31\"
\"\",\"\",\"approach-retreat\",\"35\",\"212166\",\"0.0-35.0\",\"\",\"\",\"2-3\",\"4096\",\"39\",\"1\",\"Training\",\"Stims/Figures/84-C-20-2.bmp\",\"fa:fasha\",\"Right\",\"39\",\"2\",\"16\",\"3B\",\"C1\",\"J\",\"32\"
\"\",\"\",\"approach-retreat\",\"36\",\"217917\",\"0.0-36.0\",\"\",\"\",\"2-3\",\"4246\",\"40\",\"1\",\"Training\",\"Stims/Figures/57-J-0-1.bmp\",\"sasaza\",\"Up\",\"40\",\"3\",\"1\",\"3B\",\"C2\",\"J\",\"33\"
\"\",\"\",\"approach-retreat\",\"37\",\"223461\",\"0.0-37.0\",\"\",\"\",\"2-3\",\"4038\",\"38\",\"0\",\"Training\",\"Stims/Figures/84-C-20-2.bmp\",\"fa:fasha\",\"Down\",\"40\",\"3\",\"2\",\"3B\",\"C1\",\"J\",\"34\"
\"\",\"\",\"approach-retreat\",\"38\",\"228999\",\"0.0-38.0\",\"\",\"\",\"2-3\",\"4032\",\"40\",\"1\",\"Training\",\"Stims/Figures/7-J-10-4.bmp\",\"sasaza\",\"Up\",\"40\",\"3\",\"3\",\"3B\",\"C2\",\"J\",\"35\"
\"\",\"\",\"approach-retreat\",\"39\",\"234748\",\"0.0-39.0\",\"\",\"\",\"2-3\",\"4244\",\"37\",\"1\",\"Training\",\"Stims/Figures/19-C-20-4.bmp\",\"fa:fasha\",\"Left\",\"37\",\"3\",\"4\",\"3B\",\"C1\",\"J\",\"36\"
\"\",\"\",\"approach-retreat\",\"40\",\"240266\",\"0.0-40.0\",\"\",\"\",\"2-3\",\"4014\",\"37\",\"1\",\"Training\",\"Stims/Figures/100-J-10-3.bmp\",\"sasaza\",\"Right\",\"37\",\"3\",\"5\",\"3B\",\"C2\",\"J\",\"37\"
\"\",\"\",\"approach-retreat\",\"41\",\"245855\",\"0.0-41.0\",\"\",\"\",\"2-3\",\"4084\",\"40\",\"1\",\"Training\",\"Stims/Figures/84-J-0-2.bmp\",\"sasaza\",\"Up\",\"40\",\"3\",\"6\",\"3B\",\"C2\",\"J\",\"38\"
\"\",\"\",\"approach-retreat\",\"42\",\"251683\",\"0.0-42.0\",\"\",\"\",\"2-3\",\"4321\",\"40\",\"1\",\"Training\",\"Stims/Figures/7-C-20-4.bmp\",\"fa:fasha\",\"Down\",\"40\",\"3\",\"7\",\"3B\",\"C1\",\"J\",\"39\"
\"\",\"\",\"approach-retreat\",\"43\",\"257824\",\"0.0-43.0\",\"\",\"\",\"2-3\",\"4637\",\"39\",\"1\",\"Training\",\"Stims/Figures/118-C-20-2.bmp\",\"fa:fasha\",\"Right\",\"39\",\"3\",\"8\",\"3B\",\"C1\",\"J\",\"40\"
\"\",\"\",\"approach-retreat\",\"44\",\"263404\",\"0.0-44.0\",\"\",\"\",\"2-3\",\"4074\",\"39\",\"1\",\"Training\",\"Stims/Figures/118-J-0-2.bmp\",\"sasaza\",\"Left\",\"39\",\"3\",\"9\",\"3B\",\"C2\",\"J\",\"41\"
\"\",\"\",\"approach-retreat\",\"45\",\"269332\",\"0.0-45.0\",\"\",\"\",\"2-3\",\"4423\",\"39\",\"1\",\"Training\",\"Stims/Figures/128-C-30-3.bmp\",\"fa:fasha\",\"Right\",\"39\",\"3\",\"10\",\"3B\",\"C1\",\"J\",\"42\"
\"\",\"\",\"approach-retreat\",\"46\",\"275033\",\"0.0-46.0\",\"\",\"\",\"2-3\",\"4196\",\"38\",\"1\",\"Training\",\"Stims/Figures/128-J-10-3.bmp\",\"sasaza\",\"Down\",\"38\",\"3\",\"11\",\"3B\",\"C2\",\"J\",\"43\"
\"\",\"\",\"approach-retreat\",\"47\",\"280467\",\"0.0-47.0\",\"\",\"\",\"2-3\",\"3929\",\"37\",\"1\",\"Training\",\"Stims/Figures/100-C-30-3.bmp\",\"fa:fasha\",\"Left\",\"37\",\"3\",\"12\",\"3B\",\"C1\",\"J\",\"44\"
\"\",\"\",\"approach-retreat\",\"48\",\"286062\",\"0.0-48.0\",\"\",\"\",\"2-3\",\"4089\",\"40\",\"1\",\"Training\",\"Stims/Figures/19-J-10-4.bmp\",\"sasaza\",\"Up\",\"40\",\"3\",\"13\",\"3B\",\"C2\",\"J\",\"45\"
\"\",\"\",\"approach-retreat\",\"49\",\"291726\",\"0.0-49.0\",\"\",\"\",\"2-3\",\"4157\",\"37\",\"1\",\"Training\",\"Stims/Figures/93-J-0-1.bmp\",\"sasaza\",\"Right\",\"37\",\"3\",\"14\",\"3B\",\"C2\",\"J\",\"46\"
\"\",\"\",\"approach-retreat\",\"50\",\"297227\",\"0.0-50.0\",\"\",\"\",\"2-3\",\"3996\",\"40\",\"1\",\"Training\",\"Stims/Figures/93-C-30-1.bmp\",\"fa:fasha\",\"Down\",\"40\",\"3\",\"15\",\"3B\",\"C1\",\"J\",\"47\"
\"\",\"\",\"approach-retreat\",\"51\",\"302672\",\"0.0-51.0\",\"\",\"\",\"2-3\",\"3940\",\"37\",\"1\",\"Training\",\"Stims/Figures/57-C-30-1.bmp\",\"fa:fasha\",\"Left\",\"37\",\"3\",\"16\",\"3B\",\"C1\",\"J\",\"48\"
\"\",\"\",\"approach-retreat\",\"52\",\"308103\",\"0.0-52.0\",\"\",\"\",\"2-3\",\"3924\",\"38\",\"1\",\"Training\",\"Stims/Figures/100-J-10-3.bmp\",\"sasaza\",\"Down\",\"38\",\"4\",\"1\",\"3B\",\"C2\",\"J\",\"49\"
\"\",\"\",\"approach-retreat\",\"53\",\"313622\",\"0.0-53.0\",\"\",\"\",\"2-3\",\"4014\",\"39\",\"1\",\"Training\",\"Stims/Figures/118-J-0-2.bmp\",\"sasaza\",\"Left\",\"39\",\"4\",\"2\",\"3B\",\"C2\",\"J\",\"50\"
\"\",\"\",\"approach-retreat\",\"54\",\"319225\",\"0.0-54.0\",\"\",\"\",\"2-3\",\"4096\",\"38\",\"1\",\"Training\",\"Stims/Figures/7-C-20-4.bmp\",\"fa:fasha\",\"Up\",\"38\",\"4\",\"3\",\"3B\",\"C1\",\"J\",\"51\"
\"\",\"\",\"approach-retreat\",\"55\",\"324793\",\"0.0-55.0\",\"\",\"\",\"2-3\",\"4064\",\"37\",\"1\",\"Training\",\"Stims/Figures/19-C-20-4.bmp\",\"fa:fasha\",\"Left\",\"37\",\"4\",\"4\",\"3B\",\"C1\",\"J\",\"52\"
\"\",\"\",\"approach-retreat\",\"56\",\"330266\",\"0.0-56.0\",\"\",\"\",\"2-3\",\"3969\",\"38\",\"1\",\"Training\",\"Stims/Figures/84-C-20-2.bmp\",\"fa:fasha\",\"Up\",\"38\",\"4\",\"5\",\"3B\",\"C1\",\"J\",\"53\"
\"\",\"\",\"approach-retreat\",\"57\",\"335857\",\"0.0-57.0\",\"\",\"\",\"2-3\",\"4087\",\"38\",\"1\",\"Training\",\"Stims/Figures/84-J-0-2.bmp\",\"sasaza\",\"Down\",\"38\",\"4\",\"6\",\"3B\",\"C2\",\"J\",\"54\"
\"\",\"\",\"approach-retreat\",\"58\",\"341472\",\"0.0-58.0\",\"\",\"\",\"2-3\",\"4109\",\"37\",\"1\",\"Training\",\"Stims/Figures/93-J-0-1.bmp\",\"sasaza\",\"Right\",\"37\",\"4\",\"7\",\"3B\",\"C2\",\"J\",\"55\"
\"\",\"\",\"approach-retreat\",\"59\",\"346900\",\"0.0-59.0\",\"\",\"\",\"2-3\",\"3921\",\"40\",\"1\",\"Training\",\"Stims/Figures/7-J-10-4.bmp\",\"sasaza\",\"Up\",\"40\",\"4\",\"8\",\"3B\",\"C2\",\"J\",\"56\"
\"\",\"\",\"approach-retreat\",\"60\",\"352369\",\"0.0-60.0\",\"\",\"\",\"2-3\",\"3963\",\"40\",\"1\",\"Training\",\"Stims/Figures/93-C-30-1.bmp\",\"fa:fasha\",\"Down\",\"40\",\"4\",\"9\",\"3B\",\"C1\",\"J\",\"57\"
\"\",\"\",\"approach-retreat\",\"61\",\"358051\",\"0.0-61.0\",\"\",\"\",\"2-3\",\"4176\",\"37\",\"1\",\"Training\",\"Stims/Figures/19-J-10-4.bmp\",\"sasaza\",\"Right\",\"37\",\"4\",\"10\",\"3B\",\"C2\",\"J\",\"58\"
\"\",\"\",\"approach-retreat\",\"62\",\"363496\",\"0.0-62.0\",\"\",\"\",\"2-3\",\"3940\",\"39\",\"1\",\"Training\",\"Stims/Figures/128-J-10-3.bmp\",\"sasaza\",\"Left\",\"39\",\"4\",\"11\",\"3B\",\"C2\",\"J\",\"59\"
\"\",\"\",\"approach-retreat\",\"63\",\"368951\",\"0.0-63.0\",\"\",\"\",\"2-3\",\"3948\",\"37\",\"1\",\"Training\",\"Stims/Figures/118-C-20-2.bmp\",\"fa:fasha\",\"Left\",\"37\",\"4\",\"12\",\"3B\",\"C1\",\"J\",\"60\"
\"\",\"\",\"approach-retreat\",\"64\",\"374376\",\"0.0-64.0\",\"\",\"\",\"2-3\",\"3920\",\"37\",\"1\",\"Training\",\"Stims/Figures/57-J-0-1.bmp\",\"sasaza\",\"Right\",\"37\",\"4\",\"13\",\"3B\",\"C2\",\"J\",\"61\"
\"\",\"\",\"approach-retreat\",\"65\",\"379947\",\"0.0-65.0\",\"\",\"\",\"2-3\",\"4065\",\"37\",\"0\",\"Training\",\"Stims/Figures/128-C-30-3.bmp\",\"fa:fasha\",\"Right\",\"39\",\"4\",\"14\",\"3B\",\"C1\",\"J\",\"62\"
\"\",\"\",\"approach-retreat\",\"66\",\"385758\",\"0.0-66.0\",\"\",\"\",\"2-3\",\"4305\",\"38\",\"1\",\"Training\",\"Stims/Figures/57-C-30-1.bmp\",\"fa:fasha\",\"Up\",\"38\",\"4\",\"15\",\"3B\",\"C1\",\"J\",\"63\"
\"\",\"\",\"approach-retreat\",\"67\",\"391484\",\"0.0-67.0\",\"\",\"\",\"2-3\",\"4222\",\"40\",\"1\",\"Training\",\"Stims/Figures/100-C-30-3.bmp\",\"fa:fasha\",\"Down\",\"40\",\"4\",\"16\",\"3B\",\"C1\",\"J\",\"64\"
\"\",\"\",\"approach-retreat\",\"68\",\"396844\",\"0.0-68.0\",\"\",\"\",\"2-3\",\"3855\",\"37\",\"1\",\"Training\",\"Stims/Figures/93-J-0-1.bmp\",\"sasaza\",\"Right\",\"37\",\"5\",\"1\",\"3B\",\"C2\",\"J\",\"65\"
\"\",\"\",\"approach-retreat\",\"69\",\"402855\",\"0.0-69.0\",\"\",\"\",\"2-3\",\"4505\",\"40\",\"1\",\"Training\",\"Stims/Figures/100-J-10-3.bmp\",\"sasaza\",\"Up\",\"40\",\"5\",\"2\",\"3B\",\"C2\",\"J\",\"66\"
\"\",\"\",\"approach-retreat\",\"70\",\"408465\",\"0.0-70.0\",\"\",\"\",\"2-3\",\"4101\",\"38\",\"1\",\"Training\",\"Stims/Figures/118-J-0-2.bmp\",\"sasaza\",\"Down\",\"38\",\"5\",\"3\",\"3B\",\"C2\",\"J\",\"67\"
\"\",\"\",\"approach-retreat\",\"71\",\"413981\",\"0.0-71.0\",\"\",\"\",\"2-3\",\"4012\",\"38\",\"1\",\"Training\",\"Stims/Figures/100-C-30-3.bmp\",\"fa:fasha\",\"Up\",\"38\",\"5\",\"4\",\"3B\",\"C1\",\"J\",\"68\"
\"\",\"\",\"approach-retreat\",\"72\",\"419378\",\"0.0-72.0\",\"\",\"\",\"2-3\",\"3892\",\"37\",\"1\",\"Training\",\"Stims/Figures/19-C-20-4.bmp\",\"fa:fasha\",\"Left\",\"37\",\"5\",\"5\",\"3B\",\"C1\",\"J\",\"69\"
\"\",\"\",\"approach-retreat\",\"73\",\"424786\",\"0.0-73.0\",\"\",\"\",\"2-3\",\"3901\",\"37\",\"1\",\"Training\",\"Stims/Figures/93-C-30-1.bmp\",\"fa:fasha\",\"Left\",\"37\",\"5\",\"6\",\"3B\",\"C1\",\"J\",\"70\"
\"\",\"\",\"approach-retreat\",\"74\",\"430185\",\"0.0-74.0\",\"\",\"\",\"2-3\",\"3894\",\"40\",\"1\",\"Training\",\"Stims/Figures/84-C-20-2.bmp\",\"fa:fasha\",\"Down\",\"40\",\"5\",\"7\",\"3B\",\"C1\",\"J\",\"71\"
\"\",\"\",\"approach-retreat\",\"75\",\"435906\",\"0.0-75.0\",\"\",\"\",\"2-3\",\"4216\",\"40\",\"1\",\"Training\",\"Stims/Figures/118-C-20-2.bmp\",\"fa:fasha\",\"Down\",\"40\",\"5\",\"8\",\"3B\",\"C1\",\"J\",\"72\"
\"\",\"\",\"approach-retreat\",\"76\",\"441791\",\"0.0-76.0\",\"\",\"\",\"2-3\",\"4379\",\"39\",\"1\",\"Training\",\"Stims/Figures/128-C-30-3.bmp\",\"fa:fasha\",\"Right\",\"39\",\"5\",\"9\",\"3B\",\"C1\",\"J\",\"73\"
\"\",\"\",\"approach-retreat\",\"77\",\"447260\",\"0.0-77.0\",\"\",\"\",\"2-3\",\"3964\",\"38\",\"1\",\"Training\",\"Stims/Figures/7-C-20-4.bmp\",\"fa:fasha\",\"Up\",\"38\",\"5\",\"10\",\"3B\",\"C1\",\"J\",\"74\"
\"\",\"\",\"approach-retreat\",\"78\",\"452997\",\"0.0-78.0\",\"\",\"\",\"2-3\",\"4230\",\"40\",\"1\",\"Training\",\"Stims/Figures/57-J-0-1.bmp\",\"sasaza\",\"Up\",\"40\",\"5\",\"11\",\"3B\",\"C2\",\"J\",\"75\"
\"\",\"\",\"approach-retreat\",\"79\",\"458666\",\"0.0-79.0\",\"\",\"\",\"2-3\",\"4164\",\"38\",\"1\",\"Training\",\"Stims/Figures/19-J-10-4.bmp\",\"sasaza\",\"Down\",\"38\",\"5\",\"12\",\"3B\",\"C2\",\"J\",\"76\"
\"\",\"\",\"approach-retreat\",\"80\",\"464221\",\"0.0-80.0\",\"\",\"\",\"2-3\",\"4049\",\"39\",\"1\",\"Training\",\"Stims/Figures/128-J-10-3.bmp\",\"sasaza\",\"Left\",\"39\",\"5\",\"13\",\"3B\",\"C2\",\"J\",\"77\"
\"\",\"\",\"approach-retreat\",\"81\",\"469725\",\"0.0-81.0\",\"\",\"\",\"2-3\",\"3997\",\"39\",\"1\",\"Training\",\"Stims/Figures/7-J-10-4.bmp\",\"sasaza\",\"Left\",\"39\",\"5\",\"14\",\"3B\",\"C2\",\"J\",\"78\"
\"\",\"\",\"approach-retreat\",\"82\",\"475148\",\"0.0-82.0\",\"\",\"\",\"2-3\",\"3918\",\"37\",\"1\",\"Training\",\"Stims/Figures/84-J-0-2.bmp\",\"sasaza\",\"Right\",\"37\",\"5\",\"15\",\"3B\",\"C2\",\"J\",\"79\"
\"\",\"\",\"approach-retreat\",\"83\",\"480693\",\"0.0-83.0\",\"\",\"\",\"2-3\",\"4038\",\"39\",\"1\",\"Training\",\"Stims/Figures/57-C-30-1.bmp\",\"fa:fasha\",\"Right\",\"39\",\"5\",\"16\",\"3B\",\"C1\",\"J\",\"80\"
\"\",\"\",\"approach-retreat\",\"84\",\"486338\",\"0.0-84.0\",\"\",\"\",\"2-3\",\"4142\",\"40\",\"1\",\"Training\",\"Stims/Figures/93-C-30-1.bmp\",\"fa:fasha\",\"Down\",\"40\",\"6\",\"1\",\"3B\",\"C1\",\"J\",\"81\"
\"\",\"\",\"approach-retreat\",\"85\",\"492112\",\"0.0-85.0\",\"\",\"\",\"2-3\",\"4268\",\"40\",\"1\",\"Training\",\"Stims/Figures/118-J-0-2.bmp\",\"sasaza\",\"Up\",\"40\",\"6\",\"2\",\"3B\",\"C2\",\"J\",\"82\"
\"\",\"\",\"approach-retreat\",\"86\",\"497539\",\"0.0-86.0\",\"\",\"\",\"2-3\",\"3923\",\"39\",\"1\",\"Training\",\"Stims/Figures/57-J-0-1.bmp\",\"sasaza\",\"Left\",\"39\",\"6\",\"3\",\"3B\",\"C2\",\"J\",\"83\"
\"\",\"\",\"approach-retreat\",\"87\",\"503413\",\"0.0-87.0\",\"\",\"\",\"2-3\",\"4367\",\"38\",\"1\",\"Training\",\"Stims/Figures/84-J-0-2.bmp\",\"sasaza\",\"Down\",\"38\",\"6\",\"4\",\"3B\",\"C2\",\"J\",\"84\"
\"\",\"\",\"approach-retreat\",\"88\",\"508957\",\"0.0-88.0\",\"\",\"\",\"2-3\",\"4039\",\"38\",\"1\",\"Training\",\"Stims/Figures/100-J-10-3.bmp\",\"sasaza\",\"Down\",\"38\",\"6\",\"5\",\"3B\",\"C2\",\"J\",\"85\"
\"\",\"\",\"approach-retreat\",\"89\",\"514588\",\"0.0-89.0\",\"\",\"\",\"2-3\",\"4125\",\"40\",\"1\",\"Training\",\"Stims/Figures/7-J-10-4.bmp\",\"sasaza\",\"Up\",\"40\",\"6\",\"6\",\"3B\",\"C2\",\"J\",\"86\"
\"\",\"\",\"approach-retreat\",\"90\",\"520034\",\"0.0-90.0\",\"\",\"\",\"2-3\",\"3940\",\"37\",\"1\",\"Training\",\"Stims/Figures/19-J-10-4.bmp\",\"sasaza\",\"Right\",\"37\",\"6\",\"7\",\"3B\",\"C2\",\"J\",\"87\"
\"\",\"\",\"approach-retreat\",\"91\",\"525419\",\"0.0-91.0\",\"\",\"\",\"2-3\",\"3881\",\"37\",\"1\",\"Training\",\"Stims/Figures/19-C-20-4.bmp\",\"fa:fasha\",\"Left\",\"37\",\"6\",\"8\",\"3B\",\"C1\",\"J\",\"88\"
\"\",\"\",\"approach-retreat\",\"92\",\"530801\",\"0.0-92.0\",\"\",\"\",\"2-3\",\"3876\",\"38\",\"1\",\"Training\",\"Stims/Figures/7-C-20-4.bmp\",\"fa:fasha\",\"Up\",\"38\",\"6\",\"9\",\"3B\",\"C1\",\"J\",\"89\"
\"\",\"\",\"approach-retreat\",\"93\",\"536226\",\"0.0-93.0\",\"\",\"\",\"2-3\",\"3919\",\"39\",\"1\",\"Training\",\"Stims/Figures/118-C-20-2.bmp\",\"fa:fasha\",\"Right\",\"39\",\"6\",\"10\",\"3B\",\"C1\",\"J\",\"90\"
\"\",\"\",\"approach-retreat\",\"94\",\"541664\",\"0.0-94.0\",\"\",\"\",\"2-3\",\"3934\",\"38\",\"1\",\"Training\",\"Stims/Figures/93-J-0-1.bmp\",\"sasaza\",\"Down\",\"38\",\"6\",\"11\",\"3B\",\"C2\",\"J\",\"91\"
\"\",\"\",\"approach-retreat\",\"95\",\"547295\",\"0.0-95.0\",\"\",\"\",\"2-3\",\"4126\",\"37\",\"0\",\"Training\",\"Stims/Figures/128-J-10-3.bmp\",\"sasaza\",\"Left\",\"39\",\"6\",\"12\",\"3B\",\"C2\",\"J\",\"92\"
\"\",\"\",\"approach-retreat\",\"96\",\"552874\",\"0.0-96.0\",\"\",\"\",\"2-3\",\"4074\",\"39\",\"1\",\"Training\",\"Stims/Figures/57-C-30-1.bmp\",\"fa:fasha\",\"Right\",\"39\",\"6\",\"13\",\"3B\",\"C1\",\"J\",\"93\"
\"\",\"\",\"approach-retreat\",\"97\",\"558314\",\"0.0-97.0\",\"\",\"\",\"2-3\",\"3934\",\"39\",\"1\",\"Training\",\"Stims/Figures/84-C-20-2.bmp\",\"fa:fasha\",\"Right\",\"39\",\"6\",\"14\",\"3B\",\"C1\",\"J\",\"94\"
\"\",\"\",\"approach-retreat\",\"98\",\"563692\",\"0.0-98.0\",\"\",\"\",\"2-3\",\"3874\",\"37\",\"1\",\"Training\",\"Stims/Figures/128-C-30-3.bmp\",\"fa:fasha\",\"Left\",\"37\",\"6\",\"15\",\"3B\",\"C1\",\"J\",\"95\"
\"\",\"\",\"approach-retreat\",\"99\",\"569575\",\"0.0-99.0\",\"\",\"\",\"2-3\",\"4377\",\"38\",\"1\",\"Training\",\"Stims/Figures/100-C-30-3.bmp\",\"fa:fasha\",\"Up\",\"38\",\"6\",\"16\",\"3B\",\"C1\",\"J\",\"96\"
\"\",\"\",\"approach-retreat\",\"100\",\"575005\",\"0.0-100.0\",\"\",\"\",\"2-3\",\"3925\",\"38\",\"1\",\"Training\",\"Stims/Figures/7-J-10-4.bmp\",\"sasaza\",\"Down\",\"38\",\"7\",\"1\",\"3B\",\"C2\",\"J\",\"97\"
\"\",\"\",\"approach-retreat\",\"101\",\"580411\",\"0.0-101.0\",\"\",\"\",\"2-3\",\"3901\",\"39\",\"1\",\"Training\",\"Stims/Figures/19-C-20-4.bmp\",\"fa:fasha\",\"Right\",\"39\",\"7\",\"2\",\"3B\",\"C1\",\"J\",\"98\"
\"\",\"\",\"approach-retreat\",\"102\",\"585989\",\"0.0-102.0\",\"\",\"\",\"2-3\",\"4073\",\"40\",\"1\",\"Training\",\"Stims/Figures/128-C-30-3.bmp\",\"fa:fasha\",\"Down\",\"40\",\"7\",\"3\",\"3B\",\"C1\",\"J\",\"99\"
\"\",\"\",\"approach-retreat\",\"103\",\"591410\",\"0.0-103.0\",\"\",\"\",\"2-3\",\"3914\",\"37\",\"1\",\"Training\",\"Stims/Figures/93-J-0-1.bmp\",\"sasaza\",\"Right\",\"37\",\"7\",\"4\",\"3B\",\"C2\",\"J\",\"100\"
\"\",\"\",\"approach-retreat\",\"104\",\"596915\",\"0.0-104.0\",\"\",\"\",\"2-3\",\"4000\",\"37\",\"1\",\"Training\",\"Stims/Figures/93-C-30-1.bmp\",\"fa:fasha\",\"Left\",\"37\",\"7\",\"5\",\"3B\",\"C1\",\"J\",\"101\"
\"\",\"\",\"approach-retreat\",\"105\",\"602541\",\"0.0-105.0\",\"\",\"\",\"2-3\",\"4120\",\"40\",\"1\",\"Training\",\"Stims/Figures/100-J-10-3.bmp\",\"sasaza\",\"Up\",\"40\",\"7\",\"6\",\"3B\",\"C2\",\"J\",\"102\"
\"\",\"\",\"approach-retreat\",\"106\",\"608056\",\"0.0-106.0\",\"\",\"\",\"2-3\",\"4009\",\"40\",\"1\",\"Training\",\"Stims/Figures/118-J-0-2.bmp\",\"sasaza\",\"Up\",\"40\",\"7\",\"7\",\"3B\",\"C2\",\"J\",\"103\"
\"\",\"\",\"approach-retreat\",\"107\",\"613546\",\"0.0-107.0\",\"\",\"\",\"2-3\",\"3986\",\"40\",\"1\",\"Training\",\"Stims/Figures/100-C-30-3.bmp\",\"fa:fasha\",\"Down\",\"40\",\"7\",\"8\",\"3B\",\"C1\",\"J\",\"104\"
\"\",\"\",\"approach-retreat\",\"108\",\"619147\",\"0.0-108.0\",\"\",\"\",\"2-3\",\"4095\",\"39\",\"1\",\"Training\",\"Stims/Figures/84-C-20-2.bmp\",\"fa:fasha\",\"Right\",\"39\",\"7\",\"9\",\"3B\",\"C1\",\"J\",\"105\"
\"\",\"\",\"approach-retreat\",\"109\",\"624725\",\"0.0-109.0\",\"\",\"\",\"2-3\",\"4072\",\"38\",\"0\",\"Training\",\"Stims/Figures/84-J-0-2.bmp\",\"sasaza\",\"Up\",\"40\",\"7\",\"10\",\"3B\",\"C2\",\"J\",\"106\"
\"\",\"\",\"approach-retreat\",\"110\",\"630200\",\"0.0-110.0\",\"\",\"\",\"2-3\",\"3969\",\"37\",\"1\",\"Training\",\"Stims/Figures/118-C-20-2.bmp\",\"fa:fasha\",\"Left\",\"37\",\"7\",\"11\",\"3B\",\"C1\",\"J\",\"107\"
\"\",\"\",\"approach-retreat\",\"111\",\"635726\",\"0.0-111.0\",\"\",\"\",\"2-3\",\"4021\",\"40\",\"1\",\"Training\",\"Stims/Figures/128-J-10-3.bmp\",\"sasaza\",\"Up\",\"40\",\"7\",\"12\",\"3B\",\"C2\",\"J\",\"108\"
\"\",\"\",\"approach-retreat\",\"112\",\"641487\",\"0.0-112.0\",\"\",\"\",\"2-3\",\"4255\",\"39\",\"1\",\"Training\",\"Stims/Figures/19-J-10-4.bmp\",\"sasaza\",\"Left\",\"39\",\"7\",\"13\",\"3B\",\"C2\",\"J\",\"109\"
\"\",\"\",\"approach-retreat\",\"113\",\"647007\",\"0.0-113.0\",\"\",\"\",\"2-3\",\"4015\",\"38\",\"1\",\"Training\",\"Stims/Figures/57-J-0-1.bmp\",\"sasaza\",\"Down\",\"38\",\"7\",\"14\",\"3B\",\"C2\",\"J\",\"110\"
\"\",\"\",\"approach-retreat\",\"114\",\"653387\",\"0.0-114.0\",\"\",\"\",\"2-3\",\"4875\",\"39\",\"1\",\"Training\",\"Stims/Figures/7-C-20-4.bmp\",\"fa:fasha\",\"Right\",\"39\",\"7\",\"15\",\"3B\",\"C1\",\"J\",\"111\"
\"\",\"\",\"approach-retreat\",\"115\",\"658872\",\"0.0-115.0\",\"\",\"\",\"2-3\",\"3979\",\"37\",\"1\",\"Training\",\"Stims/Figures/57-C-30-1.bmp\",\"fa:fasha\",\"Left\",\"37\",\"7\",\"16\",\"3B\",\"C1\",\"J\",\"112\"
\"\",\"\",\"approach-retreat\",\"116\",\"664496\",\"0.0-116.0\",\"\",\"\",\"2-3\",\"4120\",\"39\",\"1\",\"Training\",\"Stims/Figures/128-C-30-3.bmp\",\"fa:fasha\",\"Right\",\"39\",\"8\",\"1\",\"3B\",\"C1\",\"J\",\"113\"
\"\",\"\",\"approach-retreat\",\"117\",\"670083\",\"0.0-117.0\",\"\",\"\",\"2-3\",\"4080\",\"39\",\"1\",\"Training\",\"Stims/Figures/7-J-10-4.bmp\",\"sasaza\",\"Left\",\"39\",\"8\",\"2\",\"3B\",\"C2\",\"J\",\"114\"
\"\",\"\",\"approach-retreat\",\"118\",\"675494\",\"0.0-118.0\",\"\",\"\",\"2-3\",\"3906\",\"39\",\"1\",\"Training\",\"Stims/Figures/84-C-20-2.bmp\",\"fa:fasha\",\"Right\",\"39\",\"8\",\"3\",\"3B\",\"C1\",\"J\",\"115\"
\"\",\"\",\"approach-retreat\",\"119\",\"680988\",\"0.0-119.0\",\"\",\"\",\"2-3\",\"3988\",\"40\",\"1\",\"Training\",\"Stims/Figures/100-J-10-3.bmp\",\"sasaza\",\"Up\",\"40\",\"8\",\"4\",\"3B\",\"C2\",\"J\",\"116\"
\"\",\"\",\"approach-retreat\",\"120\",\"686582\",\"0.0-120.0\",\"\",\"\",\"2-3\",\"4090\",\"38\",\"1\",\"Training\",\"Stims/Figures/100-C-30-3.bmp\",\"fa:fasha\",\"Up\",\"38\",\"8\",\"5\",\"3B\",\"C1\",\"J\",\"117\"
\"\",\"\",\"approach-retreat\",\"121\",\"692216\",\"0.0-121.0\",\"\",\"\",\"2-3\",\"4129\",\"39\",\"1\",\"Training\",\"Stims/Figures/128-J-10-3.bmp\",\"sasaza\",\"Left\",\"39\",\"8\",\"6\",\"3B\",\"C2\",\"J\",\"118\"
\"\",\"\",\"approach-retreat\",\"122\",\"697568\",\"0.0-122.0\",\"\",\"\",\"2-3\",\"3847\",\"40\",\"1\",\"Training\",\"Stims/Figures/118-J-0-2.bmp\",\"sasaza\",\"Up\",\"40\",\"8\",\"7\",\"3B\",\"C2\",\"J\",\"119\"
\"\",\"\",\"approach-retreat\",\"123\",\"703071\",\"0.0-123.0\",\"\",\"\",\"2-3\",\"3997\",\"37\",\"1\",\"Training\",\"Stims/Figures/57-J-0-1.bmp\",\"sasaza\",\"Right\",\"37\",\"8\",\"8\",\"3B\",\"C2\",\"J\",\"120\"
\"\",\"\",\"approach-retreat\",\"124\",\"708626\",\"0.0-124.0\",\"\",\"\",\"2-3\",\"4049\",\"38\",\"0\",\"Training\",\"Stims/Figures/7-C-20-4.bmp\",\"fa:fasha\",\"Down\",\"40\",\"8\",\"9\",\"3B\",\"C1\",\"J\",\"121\"
\"\",\"\",\"approach-retreat\",\"125\",\"714341\",\"0.0-125.0\",\"\",\"\",\"2-3\",\"4211\",\"40\",\"1\",\"Training\",\"Stims/Figures/57-C-30-1.bmp\",\"fa:fasha\",\"Down\",\"40\",\"8\",\"10\",\"3B\",\"C1\",\"J\",\"122\"
\"\",\"\",\"approach-retreat\",\"126\",\"719861\",\"0.0-126.0\",\"\",\"\",\"2-3\",\"4016\",\"40\",\"1\",\"Training\",\"Stims/Figures/19-J-10-4.bmp\",\"sasaza\",\"Up\",\"40\",\"8\",\"11\",\"3B\",\"C2\",\"J\",\"123\"
\"\",\"\",\"approach-retreat\",\"127\",\"725307\",\"0.0-127.0\",\"\",\"\",\"2-3\",\"3939\",\"39\",\"1\",\"Training\",\"Stims/Figures/19-C-20-4.bmp\",\"fa:fasha\",\"Right\",\"39\",\"8\",\"12\",\"3B\",\"C1\",\"J\",\"124\"
\"\",\"\",\"approach-retreat\",\"128\",\"730815\",\"0.0-128.0\",\"\",\"\",\"2-3\",\"4003\",\"39\",\"1\",\"Training\",\"Stims/Figures/84-J-0-2.bmp\",\"sasaza\",\"Left\",\"39\",\"8\",\"13\",\"3B\",\"C2\",\"J\",\"125\"
\"\",\"\",\"approach-retreat\",\"129\",\"736363\",\"0.0-129.0\",\"\",\"\",\"2-3\",\"4043\",\"38\",\"1\",\"Training\",\"Stims/Figures/93-J-0-1.bmp\",\"sasaza\",\"Down\",\"38\",\"8\",\"14\",\"3B\",\"C2\",\"J\",\"126\"
\"\",\"\",\"approach-retreat\",\"130\",\"741875\",\"0.0-130.0\",\"\",\"\",\"2-3\",\"4006\",\"40\",\"1\",\"Training\",\"Stims/Figures/93-C-30-1.bmp\",\"fa:fasha\",\"Down\",\"40\",\"8\",\"15\",\"3B\",\"C1\",\"J\",\"127\"
\"\",\"\",\"approach-retreat\",\"131\",\"747438\",\"0.0-131.0\",\"\",\"\",\"2-3\",\"4058\",\"37\",\"1\",\"Training\",\"Stims/Figures/118-C-20-2.bmp\",\"fa:fasha\",\"Left\",\"37\",\"8\",\"16\",\"3B\",\"C1\",\"J\",\"128\"
\"\",\"\",\"approach-retreat\",\"132\",\"752999\",\"0.0-132.0\",\"\",\"\",\"2-3\",\"4055\",\"37\",\"1\",\"Training\",\"Stims/Figures/118-J-0-2.bmp\",\"sasaza\",\"Right\",\"37\",\"9\",\"1\",\"3B\",\"C2\",\"J\",\"129\"
\"\",\"\",\"approach-retreat\",\"133\",\"758591\",\"0.0-133.0\",\"\",\"\",\"2-3\",\"4086\",\"38\",\"1\",\"Training\",\"Stims/Figures/128-C-30-3.bmp\",\"fa:fasha\",\"Up\",\"38\",\"9\",\"2\",\"3B\",\"C1\",\"J\",\"130\"
\"\",\"\",\"approach-retreat\",\"134\",\"764169\",\"0.0-134.0\",\"\",\"\",\"2-3\",\"4072\",\"39\",\"1\",\"Training\",\"Stims/Figures/57-J-0-1.bmp\",\"sasaza\",\"Left\",\"39\",\"9\",\"3\",\"3B\",\"C2\",\"J\",\"131\"
\"\",\"\",\"approach-retreat\",\"135\",\"769742\",\"0.0-135.0\",\"\",\"\",\"2-3\",\"4068\",\"40\",\"1\",\"Training\",\"Stims/Figures/84-C-20-2.bmp\",\"fa:fasha\",\"Down\",\"40\",\"9\",\"4\",\"3B\",\"C1\",\"J\",\"132\"
\"\",\"\",\"approach-retreat\",\"136\",\"775207\",\"0.0-136.0\",\"\",\"\",\"2-3\",\"3959\",\"40\",\"1\",\"Training\",\"Stims/Figures/128-J-10-3.bmp\",\"sasaza\",\"Up\",\"40\",\"9\",\"5\",\"3B\",\"C2\",\"J\",\"133\"
\"\",\"\",\"approach-retreat\",\"137\",\"780890\",\"0.0-137.0\",\"\",\"\",\"2-3\",\"4177\",\"37\",\"1\",\"Training\",\"Stims/Figures/7-C-20-4.bmp\",\"fa:fasha\",\"Left\",\"37\",\"9\",\"6\",\"3B\",\"C1\",\"J\",\"134\"
\"\",\"\",\"approach-retreat\",\"138\",\"786394\",\"0.0-138.0\",\"\",\"\",\"2-3\",\"3998\",\"39\",\"1\",\"Training\",\"Stims/Figures/118-C-20-2.bmp\",\"fa:fasha\",\"Right\",\"39\",\"9\",\"7\",\"3B\",\"C1\",\"J\",\"135\"
\"\",\"\",\"approach-retreat\",\"139\",\"792039\",\"0.0-139.0\",\"\",\"\",\"2-3\",\"4139\",\"39\",\"1\",\"Training\",\"Stims/Figures/7-J-10-4.bmp\",\"sasaza\",\"Left\",\"39\",\"9\",\"8\",\"3B\",\"C2\",\"J\",\"136\"
\"\",\"\",\"approach-retreat\",\"140\",\"797574\",\"0.0-140.0\",\"\",\"\",\"2-3\",\"4029\",\"38\",\"1\",\"Training\",\"Stims/Figures/100-J-10-3.bmp\",\"sasaza\",\"Down\",\"38\",\"9\",\"9\",\"3B\",\"C2\",\"J\",\"137\"
\"\",\"\",\"approach-retreat\",\"141\",\"803090\",\"0.0-141.0\",\"\",\"\",\"2-3\",\"4011\",\"40\",\"1\",\"Training\",\"Stims/Figures/93-J-0-1.bmp\",\"sasaza\",\"Up\",\"40\",\"9\",\"10\",\"3B\",\"C2\",\"J\",\"138\"
\"\",\"\",\"approach-retreat\",\"142\",\"808567\",\"0.0-142.0\",\"\",\"\",\"2-3\",\"3972\",\"38\",\"1\",\"Training\",\"Stims/Figures/100-C-30-3.bmp\",\"fa:fasha\",\"Up\",\"38\",\"9\",\"11\",\"3B\",\"C1\",\"J\",\"139\"
\"\",\"\",\"approach-retreat\",\"143\",\"814041\",\"0.0-143.0\",\"\",\"\",\"2-3\",\"3969\",\"39\",\"1\",\"Training\",\"Stims/Figures/57-C-30-1.bmp\",\"fa:fasha\",\"Right\",\"39\",\"9\",\"12\",\"3B\",\"C1\",\"J\",\"140\"
\"\",\"\",\"approach-retreat\",\"144\",\"819492\",\"0.0-144.0\",\"\",\"\",\"2-3\",\"3946\",\"39\",\"1\",\"Training\",\"Stims/Figures/19-C-20-4.bmp\",\"fa:fasha\",\"Right\",\"39\",\"9\",\"13\",\"3B\",\"C1\",\"J\",\"141\"
\"\",\"\",\"approach-retreat\",\"145\",\"824967\",\"0.0-145.0\",\"\",\"\",\"2-3\",\"3970\",\"38\",\"1\",\"Training\",\"Stims/Figures/19-J-10-4.bmp\",\"sasaza\",\"Down\",\"38\",\"9\",\"14\",\"3B\",\"C2\",\"J\",\"142\"
\"\",\"\",\"approach-retreat\",\"146\",\"830466\",\"0.0-146.0\",\"\",\"\",\"2-3\",\"3993\",\"39\",\"1\",\"Training\",\"Stims/Figures/84-J-0-2.bmp\",\"sasaza\",\"Left\",\"39\",\"9\",\"15\",\"3B\",\"C2\",\"J\",\"143\"
\"\",\"\",\"approach-retreat\",\"147\",\"836018\",\"0.0-147.0\",\"\",\"\",\"2-3\",\"4048\",\"40\",\"1\",\"Training\",\"Stims/Figures/93-C-30-1.bmp\",\"fa:fasha\",\"Down\",\"40\",\"9\",\"16\",\"3B\",\"C1\",\"J\",\"144\"
\"15117\",\"\",\"instructions\",\"148\",\"851136\",\"0.0-148.0\",\"[{\"\"page_index\"\":0,\"\"viewing_time\"\":15117}]\",\"\",\"\",\"\",\"\",\"\",\"\",\"\",\"\",\"\",\"\",\"\",\"\",\"\",\"\",\"\",\"\"
\"\",\"\",\"approach-retreat\",\"149\",\"860835\",\"0.0-149.0\",\"\",\"\",\"2-3\",\"8195\",\"38\",\"1\",\"Testing\",\"Stims/Figures/7-C-20-4.bmp\",\"fa:fasha\",\"Up\",\"38\",\"1\",\"1\",\"3B\",\"C1\",\"J\",\"1\"
\"\",\"\",\"approach-retreat\",\"150\",\"867725\",\"0.0-150.0\",\"\",\"\",\"2-3\",\"5387\",\"38\",\"0\",\"Testing\",\"Stims/Figures/144-C-30-3.bmp\",\"fa:fasha\",\"Down\",\"40\",\"1\",\"2\",\"3B\",\"C1\",\"J\",\"2\"
\"\",\"\",\"approach-retreat\",\"151\",\"874004\",\"0.0-151.0\",\"\",\"\",\"2-3\",\"4775\",\"37\",\"1\",\"Testing\",\"Stims/Figures/84-J-0-2.bmp\",\"sasaza\",\"Right\",\"37\",\"1\",\"3\",\"3B\",\"C2\",\"J\",\"3\"
\"\",\"\",\"approach-retreat\",\"152\",\"880459\",\"0.0-152.0\",\"\",\"\",\"2-3\",\"4952\",\"39\",\"1\",\"Testing\",\"Stims/Figures/94-J-0-2.bmp\",\"sasaza\",\"Left\",\"39\",\"1\",\"4\",\"3B\",\"C2\",\"J\",\"4\"
\"\",\"\",\"approach-retreat\",\"153\",\"887172\",\"0.0-153.0\",\"\",\"\",\"2-3\",\"5208\",\"38\",\"1\",\"Testing\",\"Stims/Figures/100-J-10-3.bmp\",\"sasaza\",\"Down\",\"38\",\"1\",\"5\",\"3B\",\"C2\",\"J\",\"5\"
\"\",\"\",\"approach-retreat\",\"154\",\"892833\",\"0.0-154.0\",\"\",\"\",\"2-3\",\"4157\",\"40\",\"1\",\"Testing\",\"Stims/Figures/19-C-20-4.bmp\",\"fa:fasha\",\"Down\",\"40\",\"1\",\"6\",\"3B\",\"C1\",\"J\",\"6\"
\"\",\"\",\"approach-retreat\",\"155\",\"898509\",\"0.0-155.0\",\"\",\"\",\"2-3\",\"4172\",\"39\",\"1\",\"Testing\",\"Stims/Figures/86-C-30-1.bmp\",\"fa:fasha\",\"Right\",\"39\",\"1\",\"7\",\"3B\",\"C1\",\"J\",\"7\"
\"\",\"\",\"approach-retreat\",\"156\",\"904176\",\"0.0-156.0\",\"\",\"\",\"2-3\",\"4162\",\"38\",\"1\",\"Testing\",\"Stims/Figures/7-J-10-4.bmp\",\"sasaza\",\"Down\",\"38\",\"1\",\"8\",\"3B\",\"C2\",\"J\",\"8\"
\"\",\"\",\"approach-retreat\",\"157\",\"909744\",\"0.0-157.0\",\"\",\"\",\"2-3\",\"4063\",\"37\",\"0\",\"Testing\",\"Stims/Figures/94-C-20-2.bmp\",\"fa:fasha\",\"Right\",\"39\",\"1\",\"9\",\"3B\",\"C1\",\"J\",\"9\"
\"\",\"\",\"approach-retreat\",\"158\",\"916667\",\"0.0-158.0\",\"\",\"\",\"2-3\",\"5419\",\"38\",\"0\",\"Testing\",\"Stims/Figures/118-J-0-2.bmp\",\"sasaza\",\"Up\",\"40\",\"1\",\"10\",\"3B\",\"C2\",\"J\",\"10\"
\"\",\"\",\"approach-retreat\",\"159\",\"922343\",\"0.0-159.0\",\"\",\"\",\"2-3\",\"4171\",\"40\",\"1\",\"Testing\",\"Stims/Figures/118-C-20-2.bmp\",\"fa:fasha\",\"Down\",\"40\",\"1\",\"11\",\"3B\",\"C1\",\"J\",\"11\"
\"\",\"\",\"approach-retreat\",\"160\",\"928175\",\"0.0-160.0\",\"\",\"\",\"2-3\",\"4329\",\"39\",\"0\",\"Testing\",\"Stims/Figures/100-C-30-3.bmp\",\"fa:fasha\",\"Left\",\"37\",\"1\",\"12\",\"3B\",\"C1\",\"J\",\"12\"
\"\",\"\",\"approach-retreat\",\"161\",\"933795\",\"0.0-161.0\",\"\",\"\",\"2-3\",\"4116\",\"39\",\"0\",\"Testing\",\"Stims/Figures/74-J-10-4.bmp\",\"sasaza\",\"Right\",\"37\",\"1\",\"13\",\"3B\",\"C2\",\"J\",\"13\"
\"\",\"\",\"approach-retreat\",\"162\",\"939859\",\"0.0-162.0\",\"\",\"\",\"2-3\",\"4559\",\"40\",\"1\",\"Testing\",\"Stims/Figures/93-J-0-1.bmp\",\"sasaza\",\"Up\",\"40\",\"1\",\"14\",\"3B\",\"C2\",\"J\",\"14\"
\"\",\"\",\"approach-retreat\",\"163\",\"945413\",\"0.0-163.0\",\"\",\"\",\"2-3\",\"4050\",\"39\",\"0\",\"Testing\",\"Stims/Figures/19-J-10-4.bmp\",\"sasaza\",\"Right\",\"37\",\"1\",\"15\",\"3B\",\"C2\",\"J\",\"15\"
\"\",\"\",\"approach-retreat\",\"164\",\"950814\",\"0.0-164.0\",\"\",\"\",\"2-3\",\"3896\",\"40\",\"1\",\"Testing\",\"Stims/Figures/144-J-10-3.bmp\",\"sasaza\",\"Up\",\"40\",\"1\",\"16\",\"3B\",\"C2\",\"J\",\"16\"
\"\",\"\",\"approach-retreat\",\"165\",\"956493\",\"0.0-165.0\",\"\",\"\",\"2-3\",\"4173\",\"40\",\"1\",\"Testing\",\"Stims/Figures/93-C-30-1.bmp\",\"fa:fasha\",\"Down\",\"40\",\"1\",\"17\",\"3B\",\"C1\",\"J\",\"17\"
\"\",\"\",\"approach-retreat\",\"166\",\"961949\",\"0.0-166.0\",\"\",\"\",\"2-3\",\"3952\",\"37\",\"1\",\"Testing\",\"Stims/Figures/74-C-20-4.bmp\",\"fa:fasha\",\"Left\",\"37\",\"1\",\"18\",\"3B\",\"C1\",\"J\",\"18\"
\"\",\"\",\"approach-retreat\",\"167\",\"967564\",\"0.0-167.0\",\"\",\"\",\"2-3\",\"4107\",\"37\",\"1\",\"Testing\",\"Stims/Figures/128-J-10-3.bmp\",\"sasaza\",\"Right\",\"37\",\"1\",\"19\",\"3B\",\"C2\",\"J\",\"19\"
\"\",\"\",\"approach-retreat\",\"168\",\"973276\",\"0.0-168.0\",\"\",\"\",\"2-3\",\"4207\",\"39\",\"1\",\"Testing\",\"Stims/Figures/57-J-0-1.bmp\",\"sasaza\",\"Left\",\"39\",\"1\",\"20\",\"3B\",\"C2\",\"J\",\"20\"
\"\",\"\",\"approach-retreat\",\"169\",\"978970\",\"0.0-169.0\",\"\",\"\",\"2-3\",\"4189\",\"38\",\"1\",\"Testing\",\"Stims/Figures/84-C-20-2.bmp\",\"fa:fasha\",\"Up\",\"38\",\"1\",\"21\",\"3B\",\"C1\",\"J\",\"21\"
\"\",\"\",\"approach-retreat\",\"170\",\"984835\",\"0.0-170.0\",\"\",\"\",\"2-3\",\"4360\",\"37\",\"1\",\"Testing\",\"Stims/Figures/128-C-30-3.bmp\",\"fa:fasha\",\"Left\",\"37\",\"1\",\"22\",\"3B\",\"C1\",\"J\",\"22\"
\"\",\"\",\"approach-retreat\",\"171\",\"990408\",\"0.0-171.0\",\"\",\"\",\"2-3\",\"4068\",\"38\",\"1\",\"Testing\",\"Stims/Figures/57-C-30-1.bmp\",\"fa:fasha\",\"Up\",\"38\",\"1\",\"23\",\"3B\",\"C1\",\"J\",\"23\"
\"\",\"\",\"approach-retreat\",\"172\",\"996296\",\"0.0-172.0\",\"\",\"\",\"2-3\",\"4383\",\"39\",\"1\",\"Testing\",\"Stims/Figures/86-J-0-1.bmp\",\"sasaza\",\"Left\",\"39\",\"1\",\"24\",\"3B\",\"C2\",\"J\",\"24\"
\"\",\"\",\"approach-retreat\",\"173\",\"1002066\",\"0.0-173.0\",\"\",\"\",\"2-3\",\"4266\",\"37\",\"0\",\"Testing\",\"Stims/Figures/19-J-10-4.bmp\",\"sasaza\",\"Left\",\"39\",\"2\",\"1\",\"3B\",\"C2\",\"J\",\"25\"
\"\",\"\",\"approach-retreat\",\"174\",\"1007662\",\"0.0-174.0\",\"\",\"\",\"2-3\",\"4091\",\"40\",\"1\",\"Testing\",\"Stims/Figures/93-J-0-1.bmp\",\"sasaza\",\"Up\",\"40\",\"2\",\"2\",\"3B\",\"C2\",\"J\",\"26\"
\"\",\"\",\"approach-retreat\",\"175\",\"1013413\",\"0.0-175.0\",\"\",\"\",\"2-3\",\"4247\",\"40\",\"1\",\"Testing\",\"Stims/Figures/93-C-30-1.bmp\",\"fa:fasha\",\"Down\",\"40\",\"2\",\"3\",\"3B\",\"C1\",\"J\",\"27\"
\"\",\"\",\"approach-retreat\",\"176\",\"1018954\",\"0.0-176.0\",\"\",\"\",\"2-3\",\"4037\",\"37\",\"1\",\"Testing\",\"Stims/Figures/144-C-30-3.bmp\",\"fa:fasha\",\"Left\",\"37\",\"2\",\"4\",\"3B\",\"C1\",\"J\",\"28\"
\"\",\"\",\"approach-retreat\",\"177\",\"1025129\",\"0.0-177.0\",\"\",\"\",\"2-3\",\"4669\",\"37\",\"1\",\"Testing\",\"Stims/Figures/86-J-0-1.bmp\",\"sasaza\",\"Right\",\"37\",\"2\",\"5\",\"3B\",\"C2\",\"J\",\"29\"
\"\",\"\",\"approach-retreat\",\"178\",\"1030903\",\"0.0-178.0\",\"\",\"\",\"2-3\",\"4271\",\"38\",\"1\",\"Testing\",\"Stims/Figures/84-J-0-2.bmp\",\"sasaza\",\"Down\",\"38\",\"2\",\"6\",\"3B\",\"C2\",\"J\",\"30\"
\"\",\"\",\"approach-retreat\",\"179\",\"1036563\",\"0.0-179.0\",\"\",\"\",\"2-3\",\"4156\",\"40\",\"0\",\"Testing\",\"Stims/Figures/128-J-10-3.bmp\",\"sasaza\",\"Down\",\"38\",\"2\",\"7\",\"3B\",\"C2\",\"J\",\"31\"
\"\",\"\",\"approach-retreat\",\"180\",\"1042149\",\"0.0-180.0\",\"\",\"\",\"2-3\",\"4080\",\"39\",\"1\",\"Testing\",\"Stims/Figures/84-C-20-2.bmp\",\"fa:fasha\",\"Right\",\"39\",\"2\",\"8\",\"3B\",\"C1\",\"J\",\"32\"
\"\",\"\",\"approach-retreat\",\"181\",\"1047581\",\"0.0-181.0\",\"\",\"\",\"2-3\",\"3927\",\"37\",\"1\",\"Testing\",\"Stims/Figures/74-C-20-4.bmp\",\"fa:fasha\",\"Left\",\"37\",\"2\",\"9\",\"3B\",\"C1\",\"J\",\"33\"
\"\",\"\",\"approach-retreat\",\"182\",\"1053179\",\"0.0-182.0\",\"\",\"\",\"2-3\",\"4093\",\"40\",\"1\",\"Testing\",\"Stims/Figures/57-C-30-1.bmp\",\"fa:fasha\",\"Down\",\"40\",\"2\",\"10\",\"3B\",\"C1\",\"J\",\"34\"
\"\",\"\",\"approach-retreat\",\"183\",\"1058791\",\"0.0-183.0\",\"\",\"\",\"2-3\",\"4109\",\"39\",\"0\",\"Testing\",\"Stims/Figures/7-J-10-4.bmp\",\"sasaza\",\"Right\",\"37\",\"2\",\"11\",\"3B\",\"C2\",\"J\",\"35\"
\"\",\"\",\"approach-retreat\",\"184\",\"1064278\",\"0.0-184.0\",\"\",\"\",\"2-3\",\"3982\",\"38\",\"1\",\"Testing\",\"Stims/Figures/94-C-20-2.bmp\",\"fa:fasha\",\"Up\",\"38\",\"2\",\"12\",\"3B\",\"C1\",\"J\",\"36\"
\"\",\"\",\"approach-retreat\",\"185\",\"1069895\",\"0.0-185.0\",\"\",\"\",\"2-3\",\"4112\",\"39\",\"1\",\"Testing\",\"Stims/Figures/100-C-30-3.bmp\",\"fa:fasha\",\"Right\",\"39\",\"2\",\"13\",\"3B\",\"C1\",\"J\",\"37\"
\"\",\"\",\"approach-retreat\",\"186\",\"1075470\",\"0.0-186.0\",\"\",\"\",\"2-3\",\"4072\",\"39\",\"1\",\"Testing\",\"Stims/Figures/118-C-20-2.bmp\",\"fa:fasha\",\"Right\",\"39\",\"2\",\"14\",\"3B\",\"C1\",\"J\",\"38\"
\"\",\"\",\"approach-retreat\",\"187\",\"1081028\",\"0.0-187.0\",\"\",\"\",\"2-3\",\"4054\",\"37\",\"1\",\"Testing\",\"Stims/Figures/94-J-0-2.bmp\",\"sasaza\",\"Right\",\"37\",\"2\",\"15\",\"3B\",\"C2\",\"J\",\"39\"
\"\",\"\",\"approach-retreat\",\"188\",\"1087108\",\"0.0-188.0\",\"\",\"\",\"2-3\",\"4576\",\"39\",\"1\",\"Testing\",\"Stims/Figures/118-J-0-2.bmp\",\"sasaza\",\"Left\",\"39\",\"2\",\"16\",\"3B\",\"C2\",\"J\",\"40\"
\"\",\"\",\"approach-retreat\",\"189\",\"1093073\",\"0.0-189.0\",\"\",\"\",\"2-3\",\"4460\",\"37\",\"1\",\"Testing\",\"Stims/Figures/7-C-20-4.bmp\",\"fa:fasha\",\"Left\",\"37\",\"2\",\"17\",\"3B\",\"C1\",\"J\",\"41\"
\"\",\"\",\"approach-retreat\",\"190\",\"1098659\",\"0.0-190.0\",\"\",\"\",\"2-3\",\"4082\",\"40\",\"1\",\"Testing\",\"Stims/Figures/19-C-20-4.bmp\",\"fa:fasha\",\"Down\",\"40\",\"2\",\"18\",\"3B\",\"C1\",\"J\",\"42\"
\"\",\"\",\"approach-retreat\",\"191\",\"1104922\",\"0.0-191.0\",\"\",\"\",\"2-3\",\"4759\",\"37\",\"1\",\"Testing\",\"Stims/Figures/128-C-30-3.bmp\",\"fa:fasha\",\"Left\",\"37\",\"2\",\"19\",\"3B\",\"C1\",\"J\",\"43\"
\"\",\"\",\"approach-retreat\",\"192\",\"1110696\",\"0.0-192.0\",\"\",\"\",\"2-3\",\"4270\",\"40\",\"1\",\"Testing\",\"Stims/Figures/57-J-0-1.bmp\",\"sasaza\",\"Up\",\"40\",\"2\",\"20\",\"3B\",\"C2\",\"J\",\"44\"
\"\",\"\",\"approach-retreat\",\"193\",\"1116721\",\"0.0-193.0\",\"\",\"\",\"2-3\",\"4521\",\"38\",\"1\",\"Testing\",\"Stims/Figures/86-C-30-1.bmp\",\"fa:fasha\",\"Up\",\"38\",\"2\",\"21\",\"3B\",\"C1\",\"J\",\"45\"
\"\",\"\",\"approach-retreat\",\"194\",\"1122172\",\"0.0-194.0\",\"\",\"\",\"2-3\",\"3946\",\"40\",\"1\",\"Testing\",\"Stims/Figures/74-J-10-4.bmp\",\"sasaza\",\"Up\",\"40\",\"2\",\"22\",\"3B\",\"C2\",\"J\",\"46\"
\"\",\"\",\"approach-retreat\",\"195\",\"1127752\",\"0.0-195.0\",\"\",\"\",\"2-3\",\"4076\",\"38\",\"1\",\"Testing\",\"Stims/Figures/144-J-10-3.bmp\",\"sasaza\",\"Down\",\"38\",\"2\",\"23\",\"3B\",\"C2\",\"J\",\"47\"
\"\",\"\",\"approach-retreat\",\"196\",\"1134407\",\"0.0-196.0\",\"\",\"\",\"2-3\",\"5151\",\"40\",\"1\",\"Testing\",\"Stims/Figures/100-J-10-3.bmp\",\"sasaza\",\"Up\",\"40\",\"2\",\"24\",\"3B\",\"C2\",\"J\",\"48\"
\"\",\"\",\"approach-retreat\",\"197\",\"1139916\",\"0.0-197.0\",\"\",\"\",\"2-3\",\"4004\",\"38\",\"1\",\"Testing\",\"Stims/Figures/74-C-20-4.bmp\",\"fa:fasha\",\"Up\",\"38\",\"3\",\"1\",\"3B\",\"C1\",\"J\",\"49\"
\"\",\"\",\"approach-retreat\",\"198\",\"1145726\",\"0.0-198.0\",\"\",\"\",\"2-3\",\"4305\",\"39\",\"1\",\"Testing\",\"Stims/Figures/128-J-10-3.bmp\",\"sasaza\",\"Left\",\"39\",\"3\",\"2\",\"3B\",\"C2\",\"J\",\"50\"
\"\",\"\",\"approach-retreat\",\"199\",\"1151380\",\"0.0-199.0\",\"\",\"\",\"2-3\",\"4150\",\"40\",\"1\",\"Testing\",\"Stims/Figures/94-C-20-2.bmp\",\"fa:fasha\",\"Down\",\"40\",\"3\",\"3\",\"3B\",\"C1\",\"J\",\"51\"
\"\",\"\",\"approach-retreat\",\"200\",\"1157347\",\"0.0-200.0\",\"\",\"\",\"2-3\",\"4463\",\"38\",\"1\",\"Testing\",\"Stims/Figures/93-J-0-1.bmp\",\"sasaza\",\"Down\",\"38\",\"3\",\"4\",\"3B\",\"C2\",\"J\",\"52\"
\"\",\"\",\"approach-retreat\",\"201\",\"1162840\",\"0.0-201.0\",\"\",\"\",\"2-3\",\"3988\",\"38\",\"1\",\"Testing\",\"Stims/Figures/94-J-0-2.bmp\",\"sasaza\",\"Down\",\"38\",\"3\",\"5\",\"3B\",\"C2\",\"J\",\"53\"
\"\",\"\",\"approach-retreat\",\"202\",\"1168349\",\"0.0-202.0\",\"\",\"\",\"2-3\",\"4006\",\"40\",\"1\",\"Testing\",\"Stims/Figures/93-C-30-1.bmp\",\"fa:fasha\",\"Down\",\"40\",\"3\",\"6\",\"3B\",\"C1\",\"J\",\"54\"
\"\",\"\",\"approach-retreat\",\"203\",\"1173847\",\"0.0-203.0\",\"\",\"\",\"2-3\",\"3994\",\"39\",\"1\",\"Testing\",\"Stims/Figures/144-J-10-3.bmp\",\"sasaza\",\"Left\",\"39\",\"3\",\"7\",\"3B\",\"C2\",\"J\",\"55\"
\"\",\"\",\"approach-retreat\",\"204\",\"1179352\",\"0.0-204.0\",\"\",\"\",\"2-3\",\"3999\",\"37\",\"0\",\"Testing\",\"Stims/Figures/7-J-10-4.bmp\",\"sasaza\",\"Left\",\"39\",\"3\",\"8\",\"3B\",\"C2\",\"J\",\"56\"
\"\",\"\",\"approach-retreat\",\"205\",\"1184828\",\"0.0-205.0\",\"\",\"\",\"2-3\",\"3972\",\"37\",\"1\",\"Testing\",\"Stims/Figures/84-J-0-2.bmp\",\"sasaza\",\"Right\",\"37\",\"3\",\"9\",\"3B\",\"C2\",\"J\",\"57\"
\"\",\"\",\"approach-retreat\",\"206\",\"1190408\",\"0.0-206.0\",\"\",\"\",\"2-3\",\"4075\",\"37\",\"1\",\"Testing\",\"Stims/Figures/118-J-0-2.bmp\",\"sasaza\",\"Right\",\"37\",\"3\",\"10\",\"3B\",\"C2\",\"J\",\"58\"
\"\",\"\",\"approach-retreat\",\"207\",\"1196407\",\"0.0-207.0\",\"\",\"\",\"2-3\",\"4495\",\"40\",\"1\",\"Testing\",\"Stims/Figures/86-J-0-1.bmp\",\"sasaza\",\"Up\",\"40\",\"3\",\"11\",\"3B\",\"C2\",\"J\",\"59\"
\"\",\"\",\"approach-retreat\",\"208\",\"1202025\",\"0.0-208.0\",\"\",\"\",\"2-3\",\"4114\",\"37\",\"1\",\"Testing\",\"Stims/Figures/7-C-20-4.bmp\",\"fa:fasha\",\"Left\",\"37\",\"3\",\"12\",\"3B\",\"C1\",\"J\",\"60\"
\"\",\"\",\"approach-retreat\",\"209\",\"1207534\",\"0.0-209.0\",\"\",\"\",\"2-3\",\"4005\",\"38\",\"1\",\"Testing\",\"Stims/Figures/144-C-30-3.bmp\",\"fa:fasha\",\"Up\",\"38\",\"3\",\"13\",\"3B\",\"C1\",\"J\",\"61\"
\"\",\"\",\"approach-retreat\",\"210\",\"1213175\",\"0.0-210.0\",\"\",\"\",\"2-3\",\"4135\",\"37\",\"1\",\"Testing\",\"Stims/Figures/74-J-10-4.bmp\",\"sasaza\",\"Right\",\"37\",\"3\",\"14\",\"3B\",\"C2\",\"J\",\"62\"
\"\",\"\",\"approach-retreat\",\"211\",\"1219129\",\"0.0-211.0\",\"\",\"\",\"2-3\",\"4452\",\"38\",\"0\",\"Testing\",\"Stims/Figures/100-J-10-3.bmp\",\"sasaza\",\"Up\",\"40\",\"3\",\"15\",\"3B\",\"C2\",\"J\",\"63\"
\"\",\"\",\"approach-retreat\",\"212\",\"1224749\",\"0.0-212.0\",\"\",\"\",\"2-3\",\"4116\",\"40\",\"1\",\"Testing\",\"Stims/Figures/19-C-20-4.bmp\",\"fa:fasha\",\"Down\",\"40\",\"3\",\"16\",\"3B\",\"C1\",\"J\",\"64\"
\"\",\"\",\"approach-retreat\",\"213\",\"1230508\",\"0.0-213.0\",\"\",\"\",\"2-3\",\"4254\",\"39\",\"1\",\"Testing\",\"Stims/Figures/84-C-20-2.bmp\",\"fa:fasha\",\"Right\",\"39\",\"3\",\"17\",\"3B\",\"C1\",\"J\",\"65\"
\"\",\"\",\"approach-retreat\",\"214\",\"1236830\",\"0.0-214.0\",\"\",\"\",\"2-3\",\"4817\",\"39\",\"0\",\"Testing\",\"Stims/Figures/19-J-10-4.bmp\",\"sasaza\",\"Right\",\"37\",\"3\",\"18\",\"3B\",\"C2\",\"J\",\"66\"
\"\",\"\",\"approach-retreat\",\"215\",\"1242308\",\"0.0-215.0\",\"\",\"\",\"2-3\",\"3975\",\"37\",\"1\",\"Testing\",\"Stims/Figures/128-C-30-3.bmp\",\"fa:fasha\",\"Left\",\"37\",\"3\",\"19\",\"3B\",\"C1\",\"J\",\"67\"
\"\",\"\",\"approach-retreat\",\"216\",\"1247873\",\"0.0-216.0\",\"\",\"\",\"2-3\",\"4060\",\"40\",\"1\",\"Testing\",\"Stims/Figures/100-C-30-3.bmp\",\"fa:fasha\",\"Down\",\"40\",\"3\",\"20\",\"3B\",\"C1\",\"J\",\"68\"
\"\",\"\",\"approach-retreat\",\"217\",\"1253342\",\"0.0-217.0\",\"\",\"\",\"2-3\",\"3964\",\"37\",\"1\",\"Testing\",\"Stims/Figures/86-C-30-1.bmp\",\"fa:fasha\",\"Left\",\"37\",\"3\",\"21\",\"3B\",\"C1\",\"J\",\"69\"
\"\",\"\",\"approach-retreat\",\"218\",\"1259099\",\"0.0-218.0\",\"\",\"\",\"2-3\",\"4252\",\"38\",\"1\",\"Testing\",\"Stims/Figures/118-C-20-2.bmp\",\"fa:fasha\",\"Up\",\"38\",\"3\",\"22\",\"3B\",\"C1\",\"J\",\"70\"
\"\",\"\",\"approach-retreat\",\"219\",\"1264618\",\"0.0-219.0\",\"\",\"\",\"2-3\",\"4014\",\"38\",\"1\",\"Testing\",\"Stims/Figures/57-C-30-1.bmp\",\"fa:fasha\",\"Up\",\"38\",\"3\",\"23\",\"3B\",\"C1\",\"J\",\"71\"
\"\",\"\",\"approach-retreat\",\"220\",\"1270624\",\"0.0-220.0\",\"\",\"\",\"2-3\",\"4501\",\"37\",\"1\",\"Testing\",\"Stims/Figures/57-J-0-1.bmp\",\"sasaza\",\"Right\",\"37\",\"3\",\"24\",\"3B\",\"C2\",\"J\",\"72\"
\"\",\"\",\"approach-retreat\",\"221\",\"1276254\",\"0.0-221.0\",\"\",\"\",\"2-3\",\"4124\",\"37\",\"1\",\"Testing\",\"Stims/Figures/86-C-30-1.bmp\",\"fa:fasha\",\"Left\",\"37\",\"4\",\"1\",\"3B\",\"C1\",\"J\",\"73\"
\"\",\"\",\"approach-retreat\",\"222\",\"1282068\",\"0.0-222.0\",\"\",\"\",\"2-3\",\"4310\",\"39\",\"1\",\"Testing\",\"Stims/Figures/74-C-20-4.bmp\",\"fa:fasha\",\"Right\",\"39\",\"4\",\"2\",\"3B\",\"C1\",\"J\",\"74\"
\"\",\"\",\"approach-retreat\",\"223\",\"1287722\",\"0.0-223.0\",\"\",\"\",\"2-3\",\"4149\",\"38\",\"1\",\"Testing\",\"Stims/Figures/118-C-20-2.bmp\",\"fa:fasha\",\"Up\",\"38\",\"4\",\"3\",\"3B\",\"C1\",\"J\",\"75\"
\"\",\"\",\"approach-retreat\",\"224\",\"1293422\",\"0.0-224.0\",\"\",\"\",\"2-3\",\"4195\",\"38\",\"1\",\"Testing\",\"Stims/Figures/74-J-10-4.bmp\",\"sasaza\",\"Down\",\"38\",\"4\",\"4\",\"3B\",\"C2\",\"J\",\"76\"
\"\",\"\",\"approach-retreat\",\"225\",\"1299161\",\"0.0-225.0\",\"\",\"\",\"2-3\",\"4235\",\"38\",\"1\",\"Testing\",\"Stims/Figures/94-J-0-2.bmp\",\"sasaza\",\"Down\",\"38\",\"4\",\"5\",\"3B\",\"C2\",\"J\",\"77\"
\"\",\"\",\"approach-retreat\",\"226\",\"1304830\",\"0.0-226.0\",\"\",\"\",\"2-3\",\"4164\",\"39\",\"1\",\"Testing\",\"Stims/Figures/19-C-20-4.bmp\",\"fa:fasha\",\"Right\",\"39\",\"4\",\"6\",\"3B\",\"C1\",\"J\",\"78\"
\"\",\"\",\"approach-retreat\",\"227\",\"1310302\",\"0.0-227.0\",\"\",\"\",\"2-3\",\"3969\",\"37\",\"1\",\"Testing\",\"Stims/Figures/128-C-30-3.bmp\",\"fa:fasha\",\"Left\",\"37\",\"4\",\"7\",\"3B\",\"C1\",\"J\",\"79\"
\"\",\"\",\"approach-retreat\",\"228\",\"1315954\",\"0.0-228.0\",\"\",\"\",\"2-3\",\"4148\",\"40\",\"1\",\"Testing\",\"Stims/Figures/93-J-0-1.bmp\",\"sasaza\",\"Up\",\"40\",\"4\",\"8\",\"3B\",\"C2\",\"J\",\"80\"
\"\",\"\",\"approach-retreat\",\"229\",\"1321740\",\"0.0-229.0\",\"\",\"\",\"2-3\",\"4281\",\"40\",\"1\",\"Testing\",\"Stims/Figures/19-J-10-4.bmp\",\"sasaza\",\"Up\",\"40\",\"4\",\"9\",\"3B\",\"C2\",\"J\",\"81\"
\"\",\"\",\"approach-retreat\",\"230\",\"1327318\",\"0.0-230.0\",\"\",\"\",\"2-3\",\"4073\",\"39\",\"1\",\"Testing\",\"Stims/Figures/100-J-10-3.bmp\",\"sasaza\",\"Left\",\"39\",\"4\",\"10\",\"3B\",\"C2\",\"J\",\"82\"
\"\",\"\",\"approach-retreat\",\"231\",\"1332932\",\"0.0-231.0\",\"\",\"\",\"2-3\",\"4109\",\"37\",\"1\",\"Testing\",\"Stims/Figures/57-C-30-1.bmp\",\"fa:fasha\",\"Left\",\"37\",\"4\",\"11\",\"3B\",\"C1\",\"J\",\"83\"
\"\",\"\",\"approach-retreat\",\"232\",\"1338407\",\"0.0-232.0\",\"\",\"\",\"2-3\",\"3970\",\"39\",\"0\",\"Testing\",\"Stims/Figures/7-C-20-4.bmp\",\"fa:fasha\",\"Left\",\"37\",\"4\",\"12\",\"3B\",\"C1\",\"J\",\"84\"
\"\",\"\",\"approach-retreat\",\"233\",\"1344065\",\"0.0-233.0\",\"\",\"\",\"2-3\",\"4153\",\"38\",\"1\",\"Testing\",\"Stims/Figures/84-J-0-2.bmp\",\"sasaza\",\"Down\",\"38\",\"4\",\"13\",\"3B\",\"C2\",\"J\",\"85\"
\"\",\"\",\"approach-retreat\",\"234\",\"1350591\",\"0.0-234.0\",\"\",\"\",\"2-3\",\"5021\",\"37\",\"1\",\"Testing\",\"Stims/Figures/57-J-0-1.bmp\",\"sasaza\",\"Right\",\"37\",\"4\",\"14\",\"3B\",\"C2\",\"J\",\"86\"
\"\",\"\",\"approach-retreat\",\"235\",\"1355998\",\"0.0-235.0\",\"\",\"\",\"2-3\",\"3903\",\"37\",\"1\",\"Testing\",\"Stims/Figures/7-J-10-4.bmp\",\"sasaza\",\"Right\",\"37\",\"4\",\"15\",\"3B\",\"C2\",\"J\",\"87\"
\"\",\"\",\"approach-retreat\",\"236\",\"1361632\",\"0.0-236.0\",\"\",\"\",\"2-3\",\"4129\",\"39\",\"0\",\"Testing\",\"Stims/Figures/94-C-20-2.bmp\",\"fa:fasha\",\"Left\",\"37\",\"4\",\"16\",\"3B\",\"C1\",\"J\",\"88\"
\"\",\"\",\"approach-retreat\",\"237\",\"1367608\",\"0.0-237.0\",\"\",\"\",\"2-3\",\"4472\",\"40\",\"1\",\"Testing\",\"Stims/Figures/86-J-0-1.bmp\",\"sasaza\",\"Up\",\"40\",\"4\",\"17\",\"3B\",\"C2\",\"J\",\"89\"
\"\",\"\",\"approach-retreat\",\"238\",\"1373060\",\"0.0-238.0\",\"\",\"\",\"2-3\",\"3948\",\"39\",\"1\",\"Testing\",\"Stims/Figures/93-C-30-1.bmp\",\"fa:fasha\",\"Right\",\"39\",\"4\",\"18\",\"3B\",\"C1\",\"J\",\"90\"
\"\",\"\",\"approach-retreat\",\"239\",\"1378651\",\"0.0-239.0\",\"\",\"\",\"2-3\",\"4088\",\"40\",\"1\",\"Testing\",\"Stims/Figures/100-C-30-3.bmp\",\"fa:fasha\",\"Down\",\"40\",\"4\",\"19\",\"3B\",\"C1\",\"J\",\"91\"
\"\",\"\",\"approach-retreat\",\"240\",\"1384210\",\"0.0-240.0\",\"\",\"\",\"2-3\",\"4055\",\"38\",\"0\",\"Testing\",\"Stims/Figures/128-J-10-3.bmp\",\"sasaza\",\"Up\",\"40\",\"4\",\"20\",\"3B\",\"C2\",\"J\",\"92\"
\"\",\"\",\"approach-retreat\",\"241\",\"1390044\",\"0.0-241.0\",\"\",\"\",\"2-3\",\"4329\",\"40\",\"1\",\"Testing\",\"Stims/Figures/84-C-20-2.bmp\",\"fa:fasha\",\"Down\",\"40\",\"4\",\"21\",\"3B\",\"C1\",\"J\",\"93\"
\"\",\"\",\"approach-retreat\",\"242\",\"1395713\",\"0.0-242.0\",\"\",\"\",\"2-3\",\"4164\",\"37\",\"1\",\"Testing\",\"Stims/Figures/118-J-0-2.bmp\",\"sasaza\",\"Right\",\"37\",\"4\",\"22\",\"3B\",\"C2\",\"J\",\"94\"
\"\",\"\",\"approach-retreat\",\"243\",\"1401566\",\"0.0-243.0\",\"\",\"\",\"2-3\",\"4349\",\"38\",\"1\",\"Testing\",\"Stims/Figures/144-J-10-3.bmp\",\"sasaza\",\"Down\",\"38\",\"4\",\"23\",\"3B\",\"C2\",\"J\",\"95\"
\"\",\"\",\"approach-retreat\",\"244\",\"1407320\",\"0.0-244.0\",\"\",\"\",\"2-3\",\"4250\",\"38\",\"1\",\"Testing\",\"Stims/Figures/144-C-30-3.bmp\",\"fa:fasha\",\"Up\",\"38\",\"4\",\"24\",\"3B\",\"C1\",\"J\",\"96\"
\"42338\",\"\",\"survey-text\",\"245\",\"1449662\",\"0.0-245.0\",\"\",\"{\"\"Q0\"\":\"\"PS170002\"\"}\",\"\",\"\",\"\",\"\",\"\",\"\",\"\",\"\",\"\",\"\",\"\",\"\",\"\",\"\",\"\"
