"rt","key_press","trial_type","trial_index","time_elapsed","internal_node_id","view_history","responses","Id","Rt","ResKeyCode","ResCorr","TrialType2","Image","Label","Location","CorrectResponse","Block","BlockTrial","Condition","LabelType","Subcondition","trialNum"
"69864","32","text","0","69867","0.0-0.0-0.0","","","","","","","","","","","","","","","","",""
"18155019","","instructions","1","18224889","0.0-1.0","[{""page_index"":0,""viewing_time"":18155018}]","","","","","","","","","","","","","","","",""
"78761","","survey-multi-choice","2","18303684","0.0-2.0","","{""Q0"":""Da"",""Q1"":""Ne"",""Q2"":""Ne"",""Q3"":""Ne"",""Q4"":""Da"",""Q5"":""Da""}","","","","","","","","","","","","","","",""
"","","bio","3","18316990","0.0-3.0","","{""age"":""19"",""gender"":""f"",""specify"":""""}","","","","","","","","","","","","","","",""
"","","approach-retreat","4","18352992","0.0-4.0","","","1-2","34464","37","1","Training","Stims/Figures/86-C-30-1.bmp","va:sha:va","Right","37","1","1","3B","C1","C","1"
"","","approach-retreat","5","18366144","0.0-5.0","","","1-2","11634","39","1","Training","Stims/Figures/7-J-10-4.bmp","za:haza","Right","39","1","2","3B","C2","C","2"
"","","approach-retreat","6","18373066","0.0-6.0","","","1-2","5413","40","1","Training","Stims/Figures/85-J-0-2.bmp","za:haza","Down","40","1","3","3B","C2","C","3"
"","","approach-retreat","7","18380138","0.0-7.0","","","1-2","5562","40","1","Training","Stims/Figures/27-J-0-1.bmp","za:haza","Down","40","1","4","3B","C2","C","4"
"","","approach-retreat","8","18386662","0.0-8.0","","","1-2","5018","38","1","Training","Stims/Figures/102-J-10-4.bmp","za:haza","Up","38","1","5","3B","C2","C","5"
"","","approach-retreat","9","18393015","0.0-9.0","","","1-2","4849","37","1","Training","Stims/Figures/44-C-30-3.bmp","va:sha:va","Right","37","1","6","3B","C1","C","6"
"","","approach-retreat","10","18399325","0.0-10.0","","","1-2","4802","39","1","Training","Stims/Figures/7-C-20-4.bmp","va:sha:va","Left","39","1","7","3B","C1","C","7"
"","","approach-retreat","11","18406278","0.0-11.0","","","1-2","5446","37","1","Training","Stims/Figures/102-C-20-4.bmp","va:sha:va","Right","37","1","8","3B","C1","C","8"
"","","approach-retreat","12","18412629","0.0-12.0","","","1-2","4846","40","1","Training","Stims/Figures/94-C-20-2.bmp","va:sha:va","Up","40","1","9","3B","C1","C","9"
"","","approach-retreat","13","18418822","0.0-13.0","","","1-2","4688","39","1","Training","Stims/Figures/144-C-30-3.bmp","va:sha:va","Left","39","1","10","3B","C1","C","10"
"","","approach-retreat","14","18426073","0.0-14.0","","","1-2","5743","40","1","Training","Stims/Figures/144-J-10-3.bmp","za:haza","Down","40","1","11","3B","C2","C","11"
"","","approach-retreat","15","18432176","0.0-15.0","","","1-2","4599","39","1","Training","Stims/Figures/85-C-20-2.bmp","va:sha:va","Left","39","1","12","3B","C1","C","12"
"","","approach-retreat","16","18438812","0.0-16.0","","","1-2","5128","37","1","Training","Stims/Figures/86-J-0-1.bmp","za:haza","Left","37","1","13","3B","C2","C","13"
"","","approach-retreat","17","18447975","0.0-17.0","","","1-2","7657","40","0","Training","Stims/Figures/27-C-30-1.bmp","va:sha:va","Down","38","1","14","3B","C1","C","14"
"","","approach-retreat","18","18457408","0.0-18.0","","","1-2","7927","40","0","Training","Stims/Figures/44-J-10-3.bmp","za:haza","Up","38","1","15","3B","C2","C","15"
"","","approach-retreat","19","18463580","0.0-19.0","","","1-2","4665","38","1","Training","Stims/Figures/94-J-0-2.bmp","za:haza","Up","38","1","16","3B","C2","C","16"
"","","approach-retreat","20","18470725","0.0-20.0","","","1-2","5638","39","1","Training","Stims/Figures/94-J-0-2.bmp","za:haza","Right","39","2","1","3B","C2","C","17"
"","","approach-retreat","21","18476791","0.0-21.0","","","1-2","4555","39","1","Training","Stims/Figures/85-J-0-2.bmp","za:haza","Right","39","2","2","3B","C2","C","18"
"","","approach-retreat","22","18484380","0.0-22.0","","","1-2","6080","40","1","Training","Stims/Figures/102-C-20-4.bmp","va:sha:va","Up","40","2","3","3B","C1","C","19"
"","","approach-retreat","23","18493572","0.0-23.0","","","1-2","7681","37","1","Training","Stims/Figures/27-J-0-1.bmp","za:haza","Left","37","2","4","3B","C2","C","20"
"","","approach-retreat","24","18500225","0.0-24.0","","","1-2","5148","39","1","Training","Stims/Figures/44-C-30-3.bmp","va:sha:va","Left","39","2","5","3B","C1","C","21"
"","","approach-retreat","25","18508875","0.0-25.0","","","1-2","7144","38","1","Training","Stims/Figures/85-C-20-2.bmp","va:sha:va","Down","38","2","6","3B","C1","C","22"
"","","approach-retreat","26","18516051","0.0-26.0","","","1-2","5669","39","1","Training","Stims/Figures/94-C-20-2.bmp","va:sha:va","Left","39","2","7","3B","C1","C","23"
"","","approach-retreat","27","18522071","0.0-27.0","","","1-2","4512","37","1","Training","Stims/Figures/7-C-20-4.bmp","va:sha:va","Right","37","2","8","3B","C1","C","24"
"","","approach-retreat","28","18528989","0.0-28.0","","","1-2","5411","38","1","Training","Stims/Figures/144-J-10-3.bmp","za:haza","Up","38","2","9","3B","C2","C","25"
"","","approach-retreat","29","18536817","0.0-29.0","","","1-2","6323","40","1","Training","Stims/Figures/7-J-10-4.bmp","za:haza","Down","40","2","10","3B","C2","C","26"
"","","approach-retreat","30","18543193","0.0-30.0","","","1-2","4869","37","1","Training","Stims/Figures/86-J-0-1.bmp","za:haza","Left","37","2","11","3B","C2","C","27"
"","","approach-retreat","31","18550704","0.0-31.0","","","1-2","6004","40","1","Training","Stims/Figures/86-C-30-1.bmp","va:sha:va","Up","40","2","12","3B","C1","C","28"
"","","approach-retreat","32","18556846","0.0-32.0","","","1-2","4634","37","1","Training","Stims/Figures/144-C-30-3.bmp","va:sha:va","Right","37","2","13","3B","C1","C","29"
"","","approach-retreat","33","18563404","0.0-33.0","","","1-2","5055","40","1","Training","Stims/Figures/44-J-10-3.bmp","za:haza","Down","40","2","14","3B","C2","C","30"
"","","approach-retreat","34","18569592","0.0-34.0","","","1-2","4682","38","1","Training","Stims/Figures/102-J-10-4.bmp","za:haza","Up","38","2","15","3B","C2","C","31"
"","","approach-retreat","35","18576436","0.0-35.0","","","1-2","5337","38","1","Training","Stims/Figures/27-C-30-1.bmp","va:sha:va","Down","38","2","16","3B","C1","C","32"
"","","approach-retreat","36","18583679","0.0-36.0","","","1-2","5739","39","1","Training","Stims/Figures/27-J-0-1.bmp","za:haza","Right","39","3","1","3B","C2","C","33"
"","","approach-retreat","37","18589635","0.0-37.0","","","1-2","4447","38","1","Training","Stims/Figures/27-C-30-1.bmp","va:sha:va","Down","38","3","2","3B","C1","C","34"
"","","approach-retreat","38","18595787","0.0-38.0","","","1-2","4642","37","1","Training","Stims/Figures/86-C-30-1.bmp","va:sha:va","Right","37","3","3","3B","C1","C","35"
"","","approach-retreat","39","18601802","0.0-39.0","","","1-2","4509","39","1","Training","Stims/Figures/44-J-10-3.bmp","za:haza","Right","39","3","4","3B","C2","C","36"
"","","approach-retreat","40","18610507","0.0-40.0","","","1-2","7200","38","0","Training","Stims/Figures/102-J-10-4.bmp","za:haza","Down","40","3","5","3B","C2","C","37"
"","","approach-retreat","41","18617262","0.0-41.0","","","1-2","5250","37","1","Training","Stims/Figures/144-C-30-3.bmp","va:sha:va","Right","37","3","6","3B","C1","C","38"
"","","approach-retreat","42","18624263","0.0-42.0","","","1-2","5496","37","1","Training","Stims/Figures/85-J-0-2.bmp","za:haza","Left","37","3","7","3B","C2","C","39"
"","","approach-retreat","43","18632525","0.0-43.0","","","1-2","6756","38","1","Training","Stims/Figures/144-J-10-3.bmp","za:haza","Up","38","3","8","3B","C2","C","40"
"","","approach-retreat","44","18638771","0.0-44.0","","","1-2","4736","39","1","Training","Stims/Figures/85-C-20-2.bmp","va:sha:va","Left","39","3","9","3B","C1","C","41"
"","","approach-retreat","45","18645719","0.0-45.0","","","1-2","5444","40","1","Training","Stims/Figures/7-J-10-4.bmp","za:haza","Down","40","3","10","3B","C2","C","42"
"","","approach-retreat","46","18655138","0.0-46.0","","","1-2","7912","38","1","Training","Stims/Figures/94-J-0-2.bmp","za:haza","Up","38","3","11","3B","C2","C","43"
"","","approach-retreat","47","18666563","0.0-47.0","","","1-2","9917","39","1","Training","Stims/Figures/94-C-20-2.bmp","va:sha:va","Left","39","3","12","3B","C1","C","44"
"","","approach-retreat","48","18673006","0.0-48.0","","","1-2","4935","38","1","Training","Stims/Figures/102-C-20-4.bmp","va:sha:va","Down","38","3","13","3B","C1","C","45"
"","","approach-retreat","49","18679532","0.0-49.0","","","1-2","5017","40","1","Training","Stims/Figures/7-C-20-4.bmp","va:sha:va","Up","40","3","14","3B","C1","C","46"
"","","approach-retreat","50","18691850","0.0-50.0","","","1-2","10813","38","1","Training","Stims/Figures/86-J-0-1.bmp","za:haza","Up","38","3","15","3B","C2","C","47"
"","","approach-retreat","51","18698502","0.0-51.0","","","1-2","5145","39","1","Training","Stims/Figures/44-C-30-3.bmp","va:sha:va","Left","39","3","16","3B","C1","C","48"
"","","approach-retreat","52","18704720","0.0-52.0","","","1-2","4711","39","1","Training","Stims/Figures/86-C-30-1.bmp","va:sha:va","Left","39","4","1","3B","C1","C","49"
"","","approach-retreat","53","18711018","0.0-53.0","","","1-2","4792","38","1","Training","Stims/Figures/7-J-10-4.bmp","za:haza","Up","38","4","2","3B","C2","C","50"
"","","approach-retreat","54","18717578","0.0-54.0","","","1-2","5055","37","1","Training","Stims/Figures/44-C-30-3.bmp","va:sha:va","Right","37","4","3","3B","C1","C","51"
"","","approach-retreat","55","18723892","0.0-55.0","","","1-2","4806","40","1","Training","Stims/Figures/94-J-0-2.bmp","za:haza","Down","40","4","4","3B","C2","C","52"
"","","approach-retreat","56","18730769","0.0-56.0","","","1-2","5369","39","1","Training","Stims/Figures/27-J-0-1.bmp","za:haza","Right","39","4","5","3B","C2","C","53"
"","","approach-retreat","57","18739944","0.0-57.0","","","1-2","7670","39","1","Training","Stims/Figures/7-C-20-4.bmp","va:sha:va","Left","39","4","6","3B","C1","C","54"
"","","approach-retreat","58","18747352","0.0-58.0","","","1-2","5902","40","1","Training","Stims/Figures/102-J-10-4.bmp","za:haza","Down","40","4","7","3B","C2","C","55"
"","","approach-retreat","59","18756180","0.0-59.0","","","1-2","7320","40","1","Training","Stims/Figures/85-C-20-2.bmp","va:sha:va","Up","40","4","8","3B","C1","C","56"
"","","approach-retreat","60","18765350","0.0-60.0","","","1-2","7665","38","1","Training","Stims/Figures/144-C-30-3.bmp","va:sha:va","Down","38","4","9","3B","C1","C","57"
"","","approach-retreat","61","18774371","0.0-61.0","","","1-2","7516","38","1","Training","Stims/Figures/144-J-10-3.bmp","za:haza","Up","38","4","10","3B","C2","C","58"
"","","approach-retreat","62","18782124","0.0-62.0","","","1-2","6246","39","1","Training","Stims/Figures/85-J-0-2.bmp","za:haza","Right","39","4","11","3B","C2","C","59"
"","","approach-retreat","63","18790212","0.0-63.0","","","1-2","6582","37","1","Training","Stims/Figures/44-J-10-3.bmp","za:haza","Left","37","4","12","3B","C2","C","60"
"","","approach-retreat","64","18796527","0.0-64.0","","","1-2","4805","38","1","Training","Stims/Figures/27-C-30-1.bmp","va:sha:va","Down","38","4","13","3B","C1","C","61"
"","","approach-retreat","65","18802542","0.0-65.0","","","1-2","4511","37","1","Training","Stims/Figures/102-C-20-4.bmp","va:sha:va","Right","37","4","14","3B","C1","C","62"
"","","approach-retreat","66","18809004","0.0-66.0","","","1-2","4953","38","1","Training","Stims/Figures/86-J-0-1.bmp","za:haza","Up","38","4","15","3B","C2","C","63"
"","","approach-retreat","67","18814856","0.0-67.0","","","1-2","4346","39","1","Training","Stims/Figures/94-C-20-2.bmp","va:sha:va","Left","39","4","16","3B","C1","C","64"
"","","approach-retreat","68","18821425","0.0-68.0","","","1-2","5062","40","1","Training","Stims/Figures/102-J-10-4.bmp","za:haza","Down","40","5","1","3B","C2","C","65"
"","","approach-retreat","69","18828164","0.0-69.0","","","1-2","5232","39","1","Training","Stims/Figures/86-J-0-1.bmp","za:haza","Right","39","5","2","3B","C2","C","66"
"","","approach-retreat","70","18835481","0.0-70.0","","","1-2","5808","37","1","Training","Stims/Figures/85-J-0-2.bmp","za:haza","Left","37","5","3","3B","C2","C","67"
"","","approach-retreat","71","18843246","0.0-71.0","","","1-2","6257","37","1","Training","Stims/Figures/44-C-30-3.bmp","va:sha:va","Right","37","5","4","3B","C1","C","68"
"","","approach-retreat","72","18851809","0.0-72.0","","","1-2","7058","38","1","Training","Stims/Figures/7-J-10-4.bmp","za:haza","Up","38","5","5","3B","C2","C","69"
"","","approach-retreat","73","18857876","0.0-73.0","","","1-2","4563","37","1","Training","Stims/Figures/94-J-0-2.bmp","za:haza","Left","37","5","6","3B","C2","C","70"
"","","approach-retreat","74","18863953","0.0-74.0","","","1-2","4571","38","1","Training","Stims/Figures/144-C-30-3.bmp","va:sha:va","Down","38","5","7","3B","C1","C","71"
"","","approach-retreat","75","18870864","0.0-75.0","","","1-2","5405","39","1","Training","Stims/Figures/94-C-20-2.bmp","va:sha:va","Left","39","5","8","3B","C1","C","72"
"","","approach-retreat","76","18877454","0.0-76.0","","","1-2","5085","38","1","Training","Stims/Figures/144-J-10-3.bmp","za:haza","Up","38","5","9","3B","C2","C","73"
"","","approach-retreat","77","18883529","0.0-77.0","","","1-2","4568","37","1","Training","Stims/Figures/7-C-20-4.bmp","va:sha:va","Right","37","5","10","3B","C1","C","74"
"","","approach-retreat","78","18889687","0.0-78.0","","","1-2","4647","38","1","Training","Stims/Figures/27-C-30-1.bmp","va:sha:va","Down","38","5","11","3B","C1","C","75"
"","","approach-retreat","79","18896771","0.0-79.0","","","1-2","5573","38","1","Training","Stims/Figures/27-J-0-1.bmp","za:haza","Up","38","5","12","3B","C2","C","76"
"","","approach-retreat","80","18902945","0.0-80.0","","","1-2","4669","38","1","Training","Stims/Figures/86-C-30-1.bmp","va:sha:va","Down","38","5","13","3B","C1","C","77"
"","","approach-retreat","81","18909353","0.0-81.0","","","1-2","4901","39","1","Training","Stims/Figures/85-C-20-2.bmp","va:sha:va","Left","39","5","14","3B","C1","C","78"
"","","approach-retreat","82","18915535","0.0-82.0","","","1-2","4675","39","1","Training","Stims/Figures/44-J-10-3.bmp","za:haza","Right","39","5","15","3B","C2","C","79"
"","","approach-retreat","83","18921645","0.0-83.0","","","1-2","4606","40","1","Training","Stims/Figures/102-C-20-4.bmp","va:sha:va","Up","40","5","16","3B","C1","C","80"
"","","approach-retreat","84","18930815","0.0-84.0","","","1-2","7661","38","1","Training","Stims/Figures/44-J-10-3.bmp","za:haza","Up","38","6","1","3B","C2","C","81"
"","","approach-retreat","85","18937037","0.0-85.0","","","1-2","4717","40","1","Training","Stims/Figures/94-J-0-2.bmp","za:haza","Down","40","6","2","3B","C2","C","82"
"","","approach-retreat","86","18948574","0.0-86.0","","","1-2","10034","40","1","Training","Stims/Figures/44-C-30-3.bmp","va:sha:va","Up","40","6","3","3B","C1","C","83"
"","","approach-retreat","87","18955028","0.0-87.0","","","1-2","4949","38","1","Training","Stims/Figures/7-C-20-4.bmp","va:sha:va","Down","38","6","4","3B","C1","C","84"
"","","approach-retreat","88","18961354","0.0-88.0","","","1-2","4819","39","1","Training","Stims/Figures/86-J-0-1.bmp","za:haza","Right","39","6","5","3B","C2","C","85"
"","","approach-retreat","89","18970824","0.0-89.0","","","1-2","7963","37","1","Training","Stims/Figures/102-J-10-4.bmp","za:haza","Left","37","6","6","3B","C2","C","86"
"","","approach-retreat","90","18979695","0.0-90.0","","","1-2","7364","37","1","Training","Stims/Figures/85-C-20-2.bmp","va:sha:va","Right","37","6","7","3B","C1","C","87"
"","","approach-retreat","91","18985520","0.0-91.0","","","1-2","4316","38","1","Training","Stims/Figures/27-C-30-1.bmp","va:sha:va","Down","38","6","8","3B","C1","C","88"
"","","approach-retreat","92","18991557","0.0-92.0","","","1-2","4530","38","1","Training","Stims/Figures/144-J-10-3.bmp","za:haza","Up","38","6","9","3B","C2","C","89"
"","","approach-retreat","93","18998019","0.0-93.0","","","1-2","4952","37","1","Training","Stims/Figures/85-J-0-2.bmp","za:haza","Left","37","6","10","3B","C2","C","90"
"","","approach-retreat","94","19005204","0.0-94.0","","","1-2","5678","38","1","Training","Stims/Figures/7-J-10-4.bmp","za:haza","Up","38","6","11","3B","C2","C","91"
"","","approach-retreat","95","19011307","0.0-95.0","","","1-2","4600","37","1","Training","Stims/Figures/27-J-0-1.bmp","za:haza","Left","37","6","12","3B","C2","C","92"
"","","approach-retreat","96","19017932","0.0-96.0","","","1-2","5120","37","1","Training","Stims/Figures/102-C-20-4.bmp","va:sha:va","Right","37","6","13","3B","C1","C","93"
"","","approach-retreat","97","19024431","0.0-97.0","","","1-2","4996","39","1","Training","Stims/Figures/94-C-20-2.bmp","va:sha:va","Left","39","6","14","3B","C1","C","94"
"","","approach-retreat","98","19030962","0.0-98.0","","","1-2","5021","37","1","Training","Stims/Figures/144-C-30-3.bmp","va:sha:va","Right","37","6","15","3B","C1","C","95"
"","","approach-retreat","99","19037750","0.0-99.0","","","1-2","5281","38","1","Training","Stims/Figures/86-C-30-1.bmp","va:sha:va","Down","38","6","16","3B","C1","C","96"
"","","approach-retreat","100","19044677","0.0-100.0","","","1-2","5424","38","1","Training","Stims/Figures/27-C-30-1.bmp","va:sha:va","Down","38","7","1","3B","C1","C","97"
"","","approach-retreat","101","19050537","0.0-101.0","","","1-2","4355","39","1","Training","Stims/Figures/85-C-20-2.bmp","va:sha:va","Left","39","7","2","3B","C1","C","98"
"","","approach-retreat","102","19056464","0.0-102.0","","","1-2","4419","37","1","Training","Stims/Figures/44-C-30-3.bmp","va:sha:va","Right","37","7","3","3B","C1","C","99"
"","","approach-retreat","103","19062757","0.0-103.0","","","1-2","4787","37","1","Training","Stims/Figures/102-C-20-4.bmp","va:sha:va","Right","37","7","4","3B","C1","C","100"
"","","approach-retreat","104","19068965","0.0-104.0","","","1-2","4702","38","1","Training","Stims/Figures/144-J-10-3.bmp","za:haza","Up","38","7","5","3B","C2","C","101"
"","","approach-retreat","105","19075206","0.0-105.0","","","1-2","4735","39","1","Training","Stims/Figures/85-J-0-2.bmp","za:haza","Right","39","7","6","3B","C2","C","102"
"","","approach-retreat","106","19081726","0.0-106.0","","","1-2","5010","40","1","Training","Stims/Figures/94-C-20-2.bmp","va:sha:va","Up","40","7","7","3B","C1","C","103"
"","","approach-retreat","107","19087435","0.0-107.0","","","1-2","4203","40","1","Training","Stims/Figures/44-J-10-3.bmp","za:haza","Down","40","7","8","3B","C2","C","104"
"","","approach-retreat","108","19093069","0.0-108.0","","","1-2","4127","37","1","Training","Stims/Figures/102-J-10-4.bmp","za:haza","Left","37","7","9","3B","C2","C","105"
"","","approach-retreat","109","19099233","0.0-109.0","","","1-2","4660","39","1","Training","Stims/Figures/86-C-30-1.bmp","va:sha:va","Left","39","7","10","3B","C1","C","106"
"","","approach-retreat","110","19106202","0.0-110.0","","","1-2","5461","40","0","Training","Stims/Figures/94-J-0-2.bmp","za:haza","Up","38","7","11","3B","C2","C","107"
"","","approach-retreat","111","19112065","0.0-111.0","","","1-2","4353","37","1","Training","Stims/Figures/144-C-30-3.bmp","va:sha:va","Right","37","7","12","3B","C1","C","108"
"","","approach-retreat","112","19119353","0.0-112.0","","","1-2","5780","38","1","Training","Stims/Figures/27-J-0-1.bmp","za:haza","Up","38","7","13","3B","C2","C","109"
"","","approach-retreat","113","19126309","0.0-113.0","","","1-2","5450","40","1","Training","Stims/Figures/86-J-0-1.bmp","za:haza","Down","40","7","14","3B","C2","C","110"
"","","approach-retreat","114","19132751","0.0-114.0","","","1-2","4935","40","1","Training","Stims/Figures/7-J-10-4.bmp","za:haza","Down","40","7","15","3B","C2","C","111"
"","","approach-retreat","115","19139663","0.0-115.0","","","1-2","5400","39","1","Training","Stims/Figures/7-C-20-4.bmp","va:sha:va","Left","39","7","16","3B","C1","C","112"
"","","approach-retreat","116","19145651","0.0-116.0","","","1-2","4483","37","1","Training","Stims/Figures/27-C-30-1.bmp","va:sha:va","Right","37","8","1","3B","C1","C","113"
"","","approach-retreat","117","19156785","0.0-117.0","","","1-2","9630","39","1","Training","Stims/Figures/102-J-10-4.bmp","za:haza","Right","39","8","2","3B","C2","C","114"
"","","approach-retreat","118","19163907","0.0-118.0","","","1-2","5615","39","1","Training","Stims/Figures/85-J-0-2.bmp","za:haza","Right","39","8","3","3B","C2","C","115"
"","","approach-retreat","119","19169915","0.0-119.0","","","1-2","4504","39","1","Training","Stims/Figures/102-C-20-4.bmp","va:sha:va","Left","39","8","4","3B","C1","C","116"
"","","approach-retreat","120","19176772","0.0-120.0","","","1-2","5354","38","1","Training","Stims/Figures/85-C-20-2.bmp","va:sha:va","Down","38","8","5","3B","C1","C","117"
"","","approach-retreat","121","19185705","0.0-121.0","","","1-2","7429","38","1","Training","Stims/Figures/94-J-0-2.bmp","za:haza","Up","38","8","6","3B","C2","C","118"
"","","approach-retreat","122","19193444","0.0-122.0","","","1-2","6235","40","1","Training","Stims/Figures/27-J-0-1.bmp","za:haza","Down","40","8","7","3B","C2","C","119"
"","","approach-retreat","123","19200786","0.0-123.0","","","1-2","5836","40","1","Training","Stims/Figures/44-C-30-3.bmp","va:sha:va","Up","40","8","8","3B","C1","C","120"
"","","approach-retreat","124","19207110","0.0-124.0","","","1-2","4818","40","1","Training","Stims/Figures/94-C-20-2.bmp","va:sha:va","Up","40","8","9","3B","C1","C","121"
"","","approach-retreat","125","19213017","0.0-125.0","","","1-2","4402","40","1","Training","Stims/Figures/44-J-10-3.bmp","za:haza","Down","40","8","10","3B","C2","C","122"
"","","approach-retreat","126","19219046","0.0-126.0","","","1-2","4518","39","1","Training","Stims/Figures/86-C-30-1.bmp","va:sha:va","Left","39","8","11","3B","C1","C","123"
"","","approach-retreat","127","19227876","0.0-127.0","","","1-2","7321","39","1","Training","Stims/Figures/144-C-30-3.bmp","va:sha:va","Left","39","8","12","3B","C1","C","124"
"","","approach-retreat","128","19235295","0.0-128.0","","","1-2","5910","39","1","Training","Stims/Figures/144-J-10-3.bmp","za:haza","Right","39","8","13","3B","C2","C","125"
"","","approach-retreat","129","19242431","0.0-129.0","","","1-2","5631","39","1","Training","Stims/Figures/7-C-20-4.bmp","va:sha:va","Left","39","8","14","3B","C1","C","126"
"","","approach-retreat","130","19249385","0.0-130.0","","","1-2","5444","38","1","Training","Stims/Figures/7-J-10-4.bmp","za:haza","Up","38","8","15","3B","C2","C","127"
"","","approach-retreat","131","19255354","0.0-131.0","","","1-2","4459","40","1","Training","Stims/Figures/86-J-0-1.bmp","za:haza","Down","40","8","16","3B","C2","C","128"
"","","approach-retreat","132","19263557","0.0-132.0","","","1-2","6697","40","1","Training","Stims/Figures/44-J-10-3.bmp","za:haza","Down","40","9","1","3B","C2","C","129"
"","","approach-retreat","133","19271638","0.0-133.0","","","1-2","6576","40","1","Training","Stims/Figures/86-C-30-1.bmp","va:sha:va","Up","40","9","2","3B","C1","C","130"
"","","approach-retreat","134","19277917","0.0-134.0","","","1-2","4768","37","1","Training","Stims/Figures/27-C-30-1.bmp","va:sha:va","Right","37","9","3","3B","C1","C","131"
"","","approach-retreat","135","19284863","0.0-135.0","","","1-2","5435","39","1","Training","Stims/Figures/85-C-20-2.bmp","va:sha:va","Left","39","9","4","3B","C1","C","132"
"","","approach-retreat","136","19291310","0.0-136.0","","","1-2","4941","38","1","Training","Stims/Figures/7-J-10-4.bmp","za:haza","Up","38","9","5","3B","C2","C","133"
"","","approach-retreat","137","19297206","0.0-137.0","","","1-2","4390","37","1","Training","Stims/Figures/94-C-20-2.bmp","va:sha:va","Right","37","9","6","3B","C1","C","134"
"","","approach-retreat","138","19304811","0.0-138.0","","","1-2","6098","37","1","Training","Stims/Figures/44-C-30-3.bmp","va:sha:va","Right","37","9","7","3B","C1","C","135"
"","","approach-retreat","139","19311438","0.0-139.0","","","1-2","5123","39","1","Training","Stims/Figures/144-C-30-3.bmp","va:sha:va","Left","39","9","8","3B","C1","C","136"
"","","approach-retreat","140","19317656","0.0-140.0","","","1-2","4705","38","1","Training","Stims/Figures/102-J-10-4.bmp","za:haza","Up","38","9","9","3B","C2","C","137"
"","","approach-retreat","141","19323604","0.0-141.0","","","1-2","4442","38","1","Training","Stims/Figures/86-J-0-1.bmp","za:haza","Up","38","9","10","3B","C2","C","138"
"","","approach-retreat","142","19332205","0.0-142.0","","","1-2","7092","38","1","Training","Stims/Figures/102-C-20-4.bmp","va:sha:va","Down","38","9","11","3B","C1","C","139"
"","","approach-retreat","143","19339324","0.0-143.0","","","1-2","5609","39","1","Training","Stims/Figures/94-J-0-2.bmp","za:haza","Right","39","9","12","3B","C2","C","140"
"","","approach-retreat","144","19345276","0.0-144.0","","","1-2","4448","40","1","Training","Stims/Figures/85-J-0-2.bmp","za:haza","Down","40","9","13","3B","C2","C","141"
"","","approach-retreat","145","19351261","0.0-145.0","","","1-2","4477","37","1","Training","Stims/Figures/144-J-10-3.bmp","za:haza","Left","37","9","14","3B","C2","C","142"
"","","approach-retreat","146","19357273","0.0-146.0","","","1-2","4505","40","1","Training","Stims/Figures/27-J-0-1.bmp","za:haza","Down","40","9","15","3B","C2","C","143"
"","","approach-retreat","147","19365317","0.0-147.0","","","1-2","6539","39","1","Training","Stims/Figures/7-C-20-4.bmp","va:sha:va","Left","39","9","16","3B","C1","C","144"
"648518","","instructions","148","20013836","0.0-148.0","[{""page_index"":0,""viewing_time"":648517}]","","","","","","","","","","","","","","","",""
"","","approach-retreat","149","20032847","0.0-149.0","","","1-2","17501","37","0","Testing","Stims/Figures/27-J-0-1.bmp","za:haza","Right","39","1","1","3B","C2","C","1"
"","","approach-retreat","150","20039493","0.0-150.0","","","1-2","5139","40","0","Testing","Stims/Figures/27-C-30-1.bmp","va:sha:va","Down","38","1","2","3B","C1","C","2"
"","","approach-retreat","151","20051330","0.0-151.0","","","1-2","10325","39","1","Testing","Stims/Figures/144-J-10-3.bmp","za:haza","Right","39","1","3","3B","C2","C","3"
"","","approach-retreat","152","20065029","0.0-152.0","","","1-2","12191","38","0","Testing","Stims/Figures/84-C-20-2.bmp","va:sha:va","Up","40","1","4","3B","C1","C","4"
"","","approach-retreat","153","20092568","0.0-153.0","","","1-2","26032","40","1","Testing","Stims/Figures/93-J-0-1.bmp","za:haza","Down","40","1","5","3B","C2","C","5"
"","","approach-retreat","154","20105875","0.0-154.0","","","1-2","11799","37","0","Testing","Stims/Figures/19-C-20-4.bmp","va:sha:va","Left","39","1","6","3B","C1","C","6"
"","","approach-retreat","155","20112770","0.0-155.0","","","1-2","5386","39","0","Testing","Stims/Figures/144-C-30-3.bmp","va:sha:va","Right","37","1","7","3B","C1","C","7"
"","","approach-retreat","156","20119054","0.0-156.0","","","1-2","4773","38","0","Testing","Stims/Figures/86-C-30-1.bmp","va:sha:va","Up","40","1","8","3B","C1","C","8"
"","","approach-retreat","157","20129850","0.0-157.0","","","1-2","9287","38","0","Testing","Stims/Figures/111-J-10-3.bmp","za:haza","Down","40","1","9","3B","C2","C","9"
"","","approach-retreat","158","20143079","0.0-158.0","","","1-2","11719","38","1","Testing","Stims/Figures/85-C-20-2.bmp","va:sha:va","Down","38","1","10","3B","C1","C","10"
"","","approach-retreat","159","20149359","0.0-159.0","","","1-2","4771","37","0","Testing","Stims/Figures/94-J-0-2.bmp","za:haza","Right","39","1","11","3B","C2","C","11"
"","","approach-retreat","160","20157339","0.0-160.0","","","1-2","6473","37","1","Testing","Stims/Figures/102-C-20-4.bmp","va:sha:va","Right","37","1","12","3B","C1","C","12"
"","","approach-retreat","161","20163527","0.0-161.0","","","1-2","4678","37","1","Testing","Stims/Figures/19-J-10-4.bmp","za:haza","Left","37","1","13","3B","C2","C","13"
"","","approach-retreat","162","20171119","0.0-162.0","","","1-2","6082","37","0","Testing","Stims/Figures/85-J-0-2.bmp","za:haza","Right","39","1","14","3B","C2","C","14"
"","","approach-retreat","163","20180485","0.0-163.0","","","1-2","7857","39","1","Testing","Stims/Figures/94-C-20-2.bmp","va:sha:va","Left","39","1","15","3B","C1","C","15"
"","","approach-retreat","164","20187716","0.0-164.0","","","1-2","5719","37","1","Testing","Stims/Figures/84-J-0-2.bmp","za:haza","Left","37","1","16","3B","C2","C","16"
"","","approach-retreat","165","20199405","0.0-165.0","","","1-2","10180","40","0","Testing","Stims/Figures/44-J-10-3.bmp","za:haza","Up","38","1","17","3B","C2","C","17"
"","","approach-retreat","166","20206219","0.0-166.0","","","1-2","5305","40","1","Testing","Stims/Figures/111-C-30-3.bmp","va:sha:va","Up","40","1","18","3B","C1","C","18"
"","","approach-retreat","167","20216075","0.0-167.0","","","1-2","8338","39","1","Testing","Stims/Figures/93-C-30-1.bmp","va:sha:va","Left","39","1","19","3B","C1","C","19"
"","","approach-retreat","168","20222938","0.0-168.0","","","1-2","5356","40","0","Testing","Stims/Figures/102-J-10-4.bmp","za:haza","Up","38","1","20","3B","C2","C","20"
"","","approach-retreat","169","20229144","0.0-169.0","","","1-2","4698","40","1","Testing","Stims/Figures/86-J-0-1.bmp","za:haza","Down","40","1","21","3B","C2","C","21"
"","","approach-retreat","170","20237683","0.0-170.0","","","1-2","7030","38","0","Testing","Stims/Figures/7-C-20-4.bmp","va:sha:va","Up","40","1","22","3B","C1","C","22"
"","","approach-retreat","171","20245985","0.0-171.0","","","1-2","6794","37","1","Testing","Stims/Figures/7-J-10-4.bmp","za:haza","Left","37","1","23","3B","C2","C","23"
"","","approach-retreat","172","20254934","0.0-172.0","","","1-2","7440","40","0","Testing","Stims/Figures/44-C-30-3.bmp","va:sha:va","Down","38","1","24","3B","C1","C","24"
"","","approach-retreat","173","20261035","0.0-173.0","","","1-2","4592","39","1","Testing","Stims/Figures/93-J-0-1.bmp","za:haza","Right","39","2","1","3B","C2","C","25"
"","","approach-retreat","174","20278595","0.0-174.0","","","1-2","16052","39","1","Testing","Stims/Figures/111-C-30-3.bmp","va:sha:va","Left","39","2","2","3B","C1","C","26"
"","","approach-retreat","175","20286232","0.0-175.0","","","1-2","6128","37","0","Testing","Stims/Figures/102-J-10-4.bmp","za:haza","Right","39","2","3","3B","C2","C","27"
"","","approach-retreat","176","20293743","0.0-176.0","","","1-2","6003","39","1","Testing","Stims/Figures/93-C-30-1.bmp","va:sha:va","Left","39","2","4","3B","C1","C","28"
"","","approach-retreat","177","20301209","0.0-177.0","","","1-2","5959","39","0","Testing","Stims/Figures/19-C-20-4.bmp","va:sha:va","Right","37","2","5","3B","C1","C","29"
"","","approach-retreat","178","20307316","0.0-178.0","","","1-2","4598","40","0","Testing","Stims/Figures/111-J-10-3.bmp","za:haza","Up","38","2","6","3B","C2","C","30"
"","","approach-retreat","179","20313666","0.0-179.0","","","1-2","4842","37","0","Testing","Stims/Figures/86-C-30-1.bmp","va:sha:va","Left","39","2","7","3B","C1","C","31"
"","","approach-retreat","180","20320619","0.0-180.0","","","1-2","5446","40","0","Testing","Stims/Figures/44-J-10-3.bmp","za:haza","Up","38","2","8","3B","C2","C","32"
"","","approach-retreat","181","20327029","0.0-181.0","","","1-2","4899","40","1","Testing","Stims/Figures/84-J-0-2.bmp","za:haza","Down","40","2","9","3B","C2","C","33"
"","","approach-retreat","182","20347225","0.0-182.0","","","1-2","18686","38","0","Testing","Stims/Figures/27-C-30-1.bmp","va:sha:va","Up","40","2","10","3B","C1","C","34"
"","","approach-retreat","183","20353088","0.0-183.0","","","1-2","4354","40","1","Testing","Stims/Figures/102-C-20-4.bmp","va:sha:va","Up","40","2","11","3B","C1","C","35"
"","","approach-retreat","184","20358839","0.0-184.0","","","1-2","4245","40","0","Testing","Stims/Figures/84-C-20-2.bmp","va:sha:va","Down","38","2","12","3B","C1","C","36"
"","","approach-retreat","185","20364839","0.0-185.0","","","1-2","4492","40","0","Testing","Stims/Figures/85-J-0-2.bmp","za:haza","Up","38","2","13","3B","C2","C","37"
"","","approach-retreat","186","20370753","0.0-186.0","","","1-2","4403","37","1","Testing","Stims/Figures/19-J-10-4.bmp","za:haza","Left","37","2","14","3B","C2","C","38"
"","","approach-retreat","187","20381039","0.0-187.0","","","1-2","8776","40","1","Testing","Stims/Figures/86-J-0-1.bmp","za:haza","Down","40","2","15","3B","C2","C","39"
"","","approach-retreat","188","20386956","0.0-188.0","","","1-2","4408","37","0","Testing","Stims/Figures/27-J-0-1.bmp","za:haza","Right","39","2","16","3B","C2","C","40"
"","","approach-retreat","189","20393155","0.0-189.0","","","1-2","4692","37","1","Testing","Stims/Figures/7-J-10-4.bmp","za:haza","Left","37","2","17","3B","C2","C","41"
"","","approach-retreat","190","20402185","0.0-190.0","","","1-2","7521","39","0","Testing","Stims/Figures/7-C-20-4.bmp","va:sha:va","Right","37","2","18","3B","C1","C","42"
"","","approach-retreat","191","20409108","0.0-191.0","","","1-2","5416","40","0","Testing","Stims/Figures/44-C-30-3.bmp","va:sha:va","Down","38","2","19","3B","C1","C","43"
"","","approach-retreat","192","20414984","0.0-192.0","","","1-2","4366","40","1","Testing","Stims/Figures/144-J-10-3.bmp","za:haza","Down","40","2","20","3B","C2","C","44"
"","","approach-retreat","193","20420673","0.0-193.0","","","1-2","4180","37","1","Testing","Stims/Figures/94-C-20-2.bmp","va:sha:va","Right","37","2","21","3B","C1","C","45"
"","","approach-retreat","194","20427443","0.0-194.0","","","1-2","5261","39","1","Testing","Stims/Figures/85-C-20-2.bmp","va:sha:va","Left","39","2","22","3B","C1","C","46"
"","","approach-retreat","195","20433234","0.0-195.0","","","1-2","4284","40","0","Testing","Stims/Figures/144-C-30-3.bmp","va:sha:va","Down","38","2","23","3B","C1","C","47"
"","","approach-retreat","196","20438975","0.0-196.0","","","1-2","4232","40","0","Testing","Stims/Figures/94-J-0-2.bmp","za:haza","Up","38","2","24","3B","C2","C","48"
"","","approach-retreat","197","20448739","0.0-197.0","","","1-2","8257","38","0","Testing","Stims/Figures/144-C-30-3.bmp","va:sha:va","Up","40","3","1","3B","C1","C","49"
"","","approach-retreat","198","20457979","0.0-198.0","","","1-2","7729","39","0","Testing","Stims/Figures/85-J-0-2.bmp","za:haza","Left","37","3","2","3B","C2","C","50"
"","","approach-retreat","199","20463959","0.0-199.0","","","1-2","4471","37","1","Testing","Stims/Figures/86-C-30-1.bmp","va:sha:va","Right","37","3","3","3B","C1","C","51"
"","","approach-retreat","200","20469813","0.0-200.0","","","1-2","4343","39","0","Testing","Stims/Figures/111-J-10-3.bmp","za:haza","Left","37","3","4","3B","C2","C","52"
"","","approach-retreat","201","20478055","0.0-201.0","","","1-2","6735","40","1","Testing","Stims/Figures/27-C-30-1.bmp","va:sha:va","Up","40","3","5","3B","C1","C","53"
"","","approach-retreat","202","20485468","0.0-202.0","","","1-2","5903","40","1","Testing","Stims/Figures/19-J-10-4.bmp","za:haza","Down","40","3","6","3B","C2","C","54"
"","","approach-retreat","203","20491738","0.0-203.0","","","1-2","4763","38","1","Testing","Stims/Figures/144-J-10-3.bmp","za:haza","Up","38","3","7","3B","C2","C","55"
"","","approach-retreat","204","20498574","0.0-204.0","","","1-2","5327","37","1","Testing","Stims/Figures/86-J-0-1.bmp","za:haza","Left","37","3","8","3B","C2","C","56"
"","","approach-retreat","205","20504568","0.0-205.0","","","1-2","4485","38","1","Testing","Stims/Figures/102-C-20-4.bmp","va:sha:va","Down","38","3","9","3B","C1","C","57"
"","","approach-retreat","206","20510565","0.0-206.0","","","1-2","4489","37","1","Testing","Stims/Figures/7-J-10-4.bmp","za:haza","Left","37","3","10","3B","C2","C","58"
"","","approach-retreat","207","20519799","0.0-207.0","","","1-2","7724","40","0","Testing","Stims/Figures/27-J-0-1.bmp","za:haza","Up","38","3","11","3B","C2","C","59"
"","","approach-retreat","208","20525923","0.0-208.0","","","1-2","4614","38","0","Testing","Stims/Figures/94-J-0-2.bmp","za:haza","Down","40","3","12","3B","C2","C","60"
"","","approach-retreat","209","20532689","0.0-209.0","","","1-2","5257","40","1","Testing","Stims/Figures/93-J-0-1.bmp","za:haza","Down","40","3","13","3B","C2","C","61"
"","","approach-retreat","210","20540397","0.0-210.0","","","1-2","6199","39","0","Testing","Stims/Figures/84-C-20-2.bmp","va:sha:va","Right","37","3","14","3B","C1","C","62"
"","","approach-retreat","211","20546495","0.0-211.0","","","1-2","4589","39","1","Testing","Stims/Figures/44-C-30-3.bmp","va:sha:va","Left","39","3","15","3B","C1","C","63"
"","","approach-retreat","212","20553375","0.0-212.0","","","1-2","5372","37","0","Testing","Stims/Figures/102-J-10-4.bmp","za:haza","Right","39","3","16","3B","C2","C","64"
"","","approach-retreat","213","20559269","0.0-213.0","","","1-2","4384","40","1","Testing","Stims/Figures/111-C-30-3.bmp","va:sha:va","Up","40","3","17","3B","C1","C","65"
"","","approach-retreat","214","20564892","0.0-214.0","","","1-2","4113","40","0","Testing","Stims/Figures/93-C-30-1.bmp","va:sha:va","Down","38","3","18","3B","C1","C","66"
"","","approach-retreat","215","20570539","0.0-215.0","","","1-2","4140","38","0","Testing","Stims/Figures/44-J-10-3.bmp","za:haza","Down","40","3","19","3B","C2","C","67"
"","","approach-retreat","216","20576204","0.0-216.0","","","1-2","4158","39","1","Testing","Stims/Figures/84-J-0-2.bmp","za:haza","Right","39","3","20","3B","C2","C","68"
"","","approach-retreat","217","20581938","0.0-217.0","","","1-2","4224","37","1","Testing","Stims/Figures/85-C-20-2.bmp","va:sha:va","Right","37","3","21","3B","C1","C","69"
"","","approach-retreat","218","20589048","0.0-218.0","","","1-2","5604","40","1","Testing","Stims/Figures/7-C-20-4.bmp","va:sha:va","Up","40","3","22","3B","C1","C","70"
"","","approach-retreat","219","20594954","0.0-219.0","","","1-2","4396","37","0","Testing","Stims/Figures/19-C-20-4.bmp","va:sha:va","Left","39","3","23","3B","C1","C","71"
"","","approach-retreat","220","20601075","0.0-220.0","","","1-2","4612","37","1","Testing","Stims/Figures/94-C-20-2.bmp","va:sha:va","Right","37","3","24","3B","C1","C","72"
"","","approach-retreat","221","20611128","0.0-221.0","","","1-2","8545","39","0","Testing","Stims/Figures/19-C-20-4.bmp","va:sha:va","Right","37","4","1","3B","C1","C","73"
"","","approach-retreat","222","20635468","0.0-222.0","","","1-2","22831","37","0","Testing","Stims/Figures/102-J-10-4.bmp","za:haza","Right","39","4","2","3B","C2","C","74"
"","","approach-retreat","223","20650643","0.0-223.0","","","1-2","13667","37","0","Testing","Stims/Figures/27-J-0-1.bmp","za:haza","Right","39","4","3","3B","C2","C","75"
"","","approach-retreat","224","20657775","0.0-224.0","","","1-2","5623","38","1","Testing","Stims/Figures/93-J-0-1.bmp","za:haza","Up","38","4","4","3B","C2","C","76"
"","","approach-retreat","225","20680828","0.0-225.0","","","1-2","21547","39","0","Testing","Stims/Figures/94-J-0-2.bmp","za:haza","Left","37","4","5","3B","C2","C","77"
"","","approach-retreat","226","20705676","0.0-226.0","","","1-2","23340","38","0","Testing","Stims/Figures/7-C-20-4.bmp","va:sha:va","Up","40","4","6","3B","C1","C","78"
"","","approach-retreat","227","20712073","0.0-227.0","","","1-2","4886","40","0","Testing","Stims/Figures/44-J-10-3.bmp","za:haza","Up","38","4","7","3B","C2","C","79"
"","","approach-retreat","228","20718679","0.0-228.0","","","1-2","5102","40","0","Testing","Stims/Figures/85-J-0-2.bmp","za:haza","Up","38","4","8","3B","C2","C","80"
"","","approach-retreat","229","20725816","0.0-229.0","","","1-2","5626","40","1","Testing","Stims/Figures/44-C-30-3.bmp","va:sha:va","Up","40","4","9","3B","C1","C","81"
"","","approach-retreat","230","20733833","0.0-230.0","","","1-2","6511","37","1","Testing","Stims/Figures/102-C-20-4.bmp","va:sha:va","Right","37","4","10","3B","C1","C","82"
"","","approach-retreat","231","20740086","0.0-231.0","","","1-2","4744","37","1","Testing","Stims/Figures/144-J-10-3.bmp","za:haza","Left","37","4","11","3B","C2","C","83"
"","","approach-retreat","232","20746199","0.0-232.0","","","1-2","4604","39","0","Testing","Stims/Figures/86-C-30-1.bmp","va:sha:va","Right","37","4","12","3B","C1","C","84"
"","","approach-retreat","233","20759556","0.0-233.0","","","1-2","11847","40","0","Testing","Stims/Figures/84-C-20-2.bmp","va:sha:va","Down","38","4","13","3B","C1","C","85"
"","","approach-retreat","234","20769245","0.0-234.0","","","1-2","8179","39","1","Testing","Stims/Figures/27-C-30-1.bmp","va:sha:va","Left","39","4","14","3B","C1","C","86"
"","","approach-retreat","235","20788185","0.0-235.0","","","1-2","17432","40","0","Testing","Stims/Figures/144-C-30-3.bmp","va:sha:va","Down","38","4","15","3B","C1","C","87"
"","","approach-retreat","236","20799885","0.0-236.0","","","1-2","10191","39","0","Testing","Stims/Figures/111-J-10-3.bmp","za:haza","Left","37","4","16","3B","C2","C","88"
"","","approach-retreat","237","20805777","0.0-237.0","","","1-2","4383","40","1","Testing","Stims/Figures/84-J-0-2.bmp","za:haza","Down","40","4","17","3B","C2","C","89"
"","","approach-retreat","238","20812086","0.0-238.0","","","1-2","4799","39","1","Testing","Stims/Figures/94-C-20-2.bmp","va:sha:va","Left","39","4","18","3B","C1","C","90"
"","","approach-retreat","239","20820052","0.0-239.0","","","1-2","6456","38","1","Testing","Stims/Figures/93-C-30-1.bmp","va:sha:va","Down","38","4","19","3B","C1","C","91"
"","","approach-retreat","240","20829276","0.0-240.0","","","1-2","7713","39","1","Testing","Stims/Figures/86-J-0-1.bmp","za:haza","Right","39","4","20","3B","C2","C","92"
"","","approach-retreat","241","20836710","0.0-241.0","","","1-2","5926","39","1","Testing","Stims/Figures/85-C-20-2.bmp","va:sha:va","Left","39","4","21","3B","C1","C","93"
"","","approach-retreat","242","20843176","0.0-242.0","","","1-2","4957","40","1","Testing","Stims/Figures/7-J-10-4.bmp","za:haza","Down","40","4","22","3B","C2","C","94"
"","","approach-retreat","243","20850444","0.0-243.0","","","1-2","5758","40","1","Testing","Stims/Figures/19-J-10-4.bmp","za:haza","Down","40","4","23","3B","C2","C","95"
"","","approach-retreat","244","20857445","0.0-244.0","","","1-2","5492","40","1","Testing","Stims/Figures/111-C-30-3.bmp","va:sha:va","Up","40","4","24","3B","C1","C","96"
"35782","","survey-text","245","20893236","0.0-245.0","","{""Q0"":""1127/2018""}","","","","","","","","","","","","","","",""
