\"rt\",\"key_press\",\"trial_type\",\"trial_index\",\"time_elapsed\",\"internal_node_id\",\"view_history\",\"responses\",\"Id\",\"Rt\",\"ResKeyCode\",\"ResCorr\",\"TrialType2\",\"Image\",\"Label\",\"Location\",\"CorrectResponse\",\"Block\",\"BlockTrial\",\"Condition\",\"LabelType\",\"Subcondition\",\"trialNum\"
\"24270\",\"32\",\"text\",\"0\",\"24272\",\"0.0-0.0-0.0\",\"\",\"\",\"\",\"\",\"\",\"\",\"\",\"\",\"\",\"\",\"\",\"\",\"\",\"\",\"\",\"\",\"\"
\"2397\",\"\",\"instructions\",\"1\",\"26670\",\"0.0-1.0\",\"[{\"\"page_index\"\":0,\"\"viewing_time\"\":2397}]\",\"\",\"\",\"\",\"\",\"\",\"\",\"\",\"\",\"\",\"\",\"\",\"\",\"\",\"\",\"\",\"\"
\"18410\",\"\",\"survey-multi-choice\",\"2\",\"45099\",\"0.0-2.0\",\"\",\"{\"\"Q0\"\":\"\"Da\"\",\"\"Q1\"\":\"\"Da\"\",\"\"Q2\"\":\"\"Da\"\",\"\"Q3\"\":\"\"Da\"\",\"\"Q4\"\":\"\"Da\"\",\"\"Q5\"\":\"\"Da\"\"}\",\"\",\"\",\"\",\"\",\"\",\"\",\"\",\"\",\"\",\"\",\"\",\"\",\"\",\"\",\"\"
\"\",\"\",\"bio\",\"3\",\"52817\",\"0.0-3.0\",\"\",\"{\"\"age\"\":\"\"22\"\",\"\"gender\"\":\"\"f\"\",\"\"specify\"\":\"\"\"\"}\",\"\",\"\",\"\",\"\",\"\",\"\",\"\",\"\",\"\",\"\",\"\",\"\",\"\",\"\",\"\"
\"\",\"\",\"approach-retreat\",\"4\",\"58086\",\"0.0-4.0\",\"\",\"\",\"2-3\",\"3760\",\"38\",\"1\",\"Training\",\"Stims/Figures/100-C-30-3.bmp\",\"zahaha\",\"Down\",\"38\",\"1\",\"1\",\"3A\",\"C2\",\"C\",\"1\"
\"\",\"\",\"approach-retreat\",\"5\",\"64013\",\"0.0-5.0\",\"\",\"\",\"2-3\",\"4418\",\"37\",\"1\",\"Training\",\"Stims/Figures/118-J-0-2.bmp\",\"fa:fa:sha\",\"Left\",\"37\",\"1\",\"2\",\"3A\",\"C1\",\"C\",\"2\"
\"\",\"\",\"approach-retreat\",\"6\",\"70723\",\"0.0-6.0\",\"\",\"\",\"2-3\",\"5205\",\"37\",\"1\",\"Training\",\"Stims/Figures/93-C-30-1.bmp\",\"zahaha\",\"Right\",\"37\",\"1\",\"3\",\"3A\",\"C2\",\"C\",\"3\"
\"\",\"\",\"approach-retreat\",\"7\",\"76211\",\"0.0-7.0\",\"\",\"\",\"2-3\",\"3974\",\"39\",\"1\",\"Training\",\"Stims/Figures/102-C-20-4.bmp\",\"zahaha\",\"Left\",\"39\",\"1\",\"4\",\"3A\",\"C2\",\"C\",\"4\"
\"\",\"\",\"approach-retreat\",\"8\",\"82310\",\"0.0-8.0\",\"\",\"\",\"2-3\",\"4591\",\"40\",\"1\",\"Training\",\"Stims/Figures/144-J-10-3.bmp\",\"fa:fa:sha\",\"Down\",\"40\",\"1\",\"5\",\"3A\",\"C1\",\"C\",\"5\"
\"\",\"\",\"approach-retreat\",\"9\",\"88273\",\"0.0-9.0\",\"\",\"\",\"2-3\",\"4459\",\"38\",\"1\",\"Training\",\"Stims/Figures/94-J-0-2.bmp\",\"fa:fa:sha\",\"Up\",\"38\",\"1\",\"6\",\"3A\",\"C1\",\"C\",\"6\"
\"\",\"\",\"approach-retreat\",\"10\",\"93984\",\"0.0-10.0\",\"\",\"\",\"2-3\",\"4206\",\"39\",\"1\",\"Training\",\"Stims/Figures/19-J-10-4.bmp\",\"fa:fa:sha\",\"Right\",\"39\",\"1\",\"7\",\"3A\",\"C1\",\"C\",\"7\"
\"\",\"\",\"approach-retreat\",\"11\",\"99589\",\"0.0-11.0\",\"\",\"\",\"2-3\",\"4096\",\"39\",\"1\",\"Training\",\"Stims/Figures/118-C-20-2.bmp\",\"zahaha\",\"Left\",\"39\",\"1\",\"8\",\"3A\",\"C2\",\"C\",\"8\"
\"\",\"\",\"approach-retreat\",\"12\",\"105136\",\"0.0-12.0\",\"\",\"\",\"2-3\",\"4043\",\"38\",\"1\",\"Training\",\"Stims/Figures/93-J-0-1.bmp\",\"fa:fa:sha\",\"Up\",\"38\",\"1\",\"9\",\"3A\",\"C1\",\"C\",\"9\"
\"\",\"\",\"approach-retreat\",\"13\",\"110788\",\"0.0-13.0\",\"\",\"\",\"2-3\",\"4144\",\"38\",\"1\",\"Training\",\"Stims/Figures/86-C-30-1.bmp\",\"zahaha\",\"Down\",\"38\",\"1\",\"10\",\"3A\",\"C2\",\"C\",\"10\"
\"\",\"\",\"approach-retreat\",\"14\",\"116536\",\"0.0-14.0\",\"\",\"\",\"2-3\",\"4236\",\"38\",\"1\",\"Training\",\"Stims/Figures/86-J-0-1.bmp\",\"fa:fa:sha\",\"Up\",\"38\",\"1\",\"11\",\"3A\",\"C1\",\"C\",\"11\"
\"\",\"\",\"approach-retreat\",\"15\",\"122216\",\"0.0-15.0\",\"\",\"\",\"2-3\",\"4167\",\"37\",\"0\",\"Training\",\"Stims/Figures/19-C-20-4.bmp\",\"zahaha\",\"Left\",\"39\",\"1\",\"12\",\"3A\",\"C2\",\"C\",\"12\"
\"\",\"\",\"approach-retreat\",\"16\",\"127770\",\"0.0-16.0\",\"\",\"\",\"2-3\",\"4047\",\"39\",\"1\",\"Training\",\"Stims/Figures/100-J-10-3.bmp\",\"fa:fa:sha\",\"Right\",\"39\",\"1\",\"13\",\"3A\",\"C1\",\"C\",\"13\"
\"\",\"\",\"approach-retreat\",\"17\",\"133333\",\"0.0-17.0\",\"\",\"\",\"2-3\",\"4053\",\"39\",\"1\",\"Training\",\"Stims/Figures/102-J-10-4.bmp\",\"fa:fa:sha\",\"Right\",\"39\",\"1\",\"14\",\"3A\",\"C1\",\"C\",\"14\"
\"\",\"\",\"approach-retreat\",\"18\",\"139785\",\"0.0-18.0\",\"\",\"\",\"2-3\",\"4946\",\"40\",\"1\",\"Training\",\"Stims/Figures/94-C-20-2.bmp\",\"zahaha\",\"Up\",\"40\",\"1\",\"15\",\"3A\",\"C2\",\"C\",\"15\"
\"\",\"\",\"approach-retreat\",\"19\",\"145871\",\"0.0-19.0\",\"\",\"\",\"2-3\",\"4573\",\"38\",\"1\",\"Training\",\"Stims/Figures/144-C-30-3.bmp\",\"zahaha\",\"Down\",\"38\",\"1\",\"16\",\"3A\",\"C2\",\"C\",\"16\"
\"\",\"\",\"approach-retreat\",\"20\",\"151622\",\"0.0-20.0\",\"\",\"\",\"2-3\",\"4241\",\"37\",\"1\",\"Training\",\"Stims/Figures/94-C-20-2.bmp\",\"zahaha\",\"Right\",\"37\",\"2\",\"1\",\"3A\",\"C2\",\"C\",\"17\"
\"\",\"\",\"approach-retreat\",\"21\",\"157370\",\"0.0-21.0\",\"\",\"\",\"2-3\",\"4241\",\"37\",\"1\",\"Training\",\"Stims/Figures/118-J-0-2.bmp\",\"fa:fa:sha\",\"Left\",\"37\",\"2\",\"2\",\"3A\",\"C1\",\"C\",\"18\"
\"\",\"\",\"approach-retreat\",\"22\",\"162993\",\"0.0-22.0\",\"\",\"\",\"2-3\",\"4109\",\"39\",\"1\",\"Training\",\"Stims/Figures/94-J-0-2.bmp\",\"fa:fa:sha\",\"Right\",\"39\",\"2\",\"3\",\"3A\",\"C1\",\"C\",\"19\"
\"\",\"\",\"approach-retreat\",\"23\",\"168560\",\"0.0-23.0\",\"\",\"\",\"2-3\",\"4060\",\"38\",\"1\",\"Training\",\"Stims/Figures/93-C-30-1.bmp\",\"zahaha\",\"Down\",\"38\",\"2\",\"4\",\"3A\",\"C2\",\"C\",\"20\"
\"\",\"\",\"approach-retreat\",\"24\",\"174209\",\"0.0-24.0\",\"\",\"\",\"2-3\",\"4136\",\"39\",\"1\",\"Training\",\"Stims/Figures/102-C-20-4.bmp\",\"zahaha\",\"Left\",\"39\",\"2\",\"5\",\"3A\",\"C2\",\"C\",\"21\"
\"\",\"\",\"approach-retreat\",\"25\",\"179836\",\"0.0-25.0\",\"\",\"\",\"2-3\",\"4119\",\"38\",\"1\",\"Training\",\"Stims/Figures/118-C-20-2.bmp\",\"zahaha\",\"Down\",\"38\",\"2\",\"6\",\"3A\",\"C2\",\"C\",\"22\"
\"\",\"\",\"approach-retreat\",\"26\",\"185808\",\"0.0-26.0\",\"\",\"\",\"2-3\",\"4467\",\"38\",\"1\",\"Training\",\"Stims/Figures/100-J-10-3.bmp\",\"fa:fa:sha\",\"Up\",\"38\",\"2\",\"7\",\"3A\",\"C1\",\"C\",\"23\"
\"\",\"\",\"approach-retreat\",\"27\",\"191451\",\"0.0-27.0\",\"\",\"\",\"2-3\",\"4135\",\"40\",\"1\",\"Training\",\"Stims/Figures/144-C-30-3.bmp\",\"zahaha\",\"Up\",\"40\",\"2\",\"8\",\"3A\",\"C2\",\"C\",\"24\"
\"\",\"\",\"approach-retreat\",\"28\",\"197264\",\"0.0-28.0\",\"\",\"\",\"2-3\",\"4308\",\"40\",\"1\",\"Training\",\"Stims/Figures/19-C-20-4.bmp\",\"zahaha\",\"Up\",\"40\",\"2\",\"9\",\"3A\",\"C2\",\"C\",\"25\"
\"\",\"\",\"approach-retreat\",\"29\",\"203073\",\"0.0-29.0\",\"\",\"\",\"2-3\",\"4304\",\"37\",\"1\",\"Training\",\"Stims/Figures/86-J-0-1.bmp\",\"fa:fa:sha\",\"Left\",\"37\",\"2\",\"10\",\"3A\",\"C1\",\"C\",\"26\"
\"\",\"\",\"approach-retreat\",\"30\",\"208775\",\"0.0-30.0\",\"\",\"\",\"2-3\",\"4190\",\"37\",\"1\",\"Training\",\"Stims/Figures/144-J-10-3.bmp\",\"fa:fa:sha\",\"Left\",\"37\",\"2\",\"11\",\"3A\",\"C1\",\"C\",\"27\"
\"\",\"\",\"approach-retreat\",\"31\",\"214909\",\"0.0-31.0\",\"\",\"\",\"2-3\",\"4623\",\"38\",\"1\",\"Training\",\"Stims/Figures/102-J-10-4.bmp\",\"fa:fa:sha\",\"Up\",\"38\",\"2\",\"12\",\"3A\",\"C1\",\"C\",\"28\"
\"\",\"\",\"approach-retreat\",\"32\",\"220646\",\"0.0-32.0\",\"\",\"\",\"2-3\",\"4225\",\"40\",\"1\",\"Training\",\"Stims/Figures/93-J-0-1.bmp\",\"fa:fa:sha\",\"Down\",\"40\",\"2\",\"13\",\"3A\",\"C1\",\"C\",\"29\"
\"\",\"\",\"approach-retreat\",\"33\",\"226223\",\"0.0-33.0\",\"\",\"\",\"2-3\",\"4063\",\"37\",\"1\",\"Training\",\"Stims/Figures/100-C-30-3.bmp\",\"zahaha\",\"Right\",\"37\",\"2\",\"14\",\"3A\",\"C2\",\"C\",\"30\"
\"\",\"\",\"approach-retreat\",\"34\",\"232989\",\"0.0-34.0\",\"\",\"\",\"2-3\",\"5256\",\"38\",\"0\",\"Training\",\"Stims/Figures/19-J-10-4.bmp\",\"fa:fa:sha\",\"Down\",\"40\",\"2\",\"15\",\"3A\",\"C1\",\"C\",\"31\"
\"\",\"\",\"approach-retreat\",\"35\",\"238596\",\"0.0-35.0\",\"\",\"\",\"2-3\",\"4098\",\"37\",\"1\",\"Training\",\"Stims/Figures/86-C-30-1.bmp\",\"zahaha\",\"Right\",\"37\",\"2\",\"16\",\"3A\",\"C2\",\"C\",\"32\"
\"\",\"\",\"approach-retreat\",\"36\",\"244229\",\"0.0-36.0\",\"\",\"\",\"2-3\",\"4123\",\"37\",\"1\",\"Training\",\"Stims/Figures/19-C-20-4.bmp\",\"zahaha\",\"Right\",\"37\",\"3\",\"1\",\"3A\",\"C2\",\"C\",\"33\"
\"\",\"\",\"approach-retreat\",\"37\",\"250038\",\"0.0-37.0\",\"\",\"\",\"2-3\",\"4297\",\"40\",\"0\",\"Training\",\"Stims/Figures/93-C-30-1.bmp\",\"zahaha\",\"Down\",\"38\",\"3\",\"2\",\"3A\",\"C2\",\"C\",\"34\"
\"\",\"\",\"approach-retreat\",\"38\",\"255505\",\"0.0-38.0\",\"\",\"\",\"2-3\",\"3960\",\"38\",\"1\",\"Training\",\"Stims/Figures/100-C-30-3.bmp\",\"zahaha\",\"Down\",\"38\",\"3\",\"3\",\"3A\",\"C2\",\"C\",\"35\"
\"\",\"\",\"approach-retreat\",\"39\",\"261820\",\"0.0-39.0\",\"\",\"\",\"2-3\",\"4805\",\"37\",\"1\",\"Training\",\"Stims/Figures/102-J-10-4.bmp\",\"fa:fa:sha\",\"Left\",\"37\",\"3\",\"4\",\"3A\",\"C1\",\"C\",\"36\"
\"\",\"\",\"approach-retreat\",\"40\",\"267440\",\"0.0-40.0\",\"\",\"\",\"2-3\",\"4111\",\"38\",\"1\",\"Training\",\"Stims/Figures/86-J-0-1.bmp\",\"fa:fa:sha\",\"Up\",\"38\",\"3\",\"5\",\"3A\",\"C1\",\"C\",\"37\"
\"\",\"\",\"approach-retreat\",\"41\",\"273164\",\"0.0-41.0\",\"\",\"\",\"2-3\",\"4218\",\"38\",\"1\",\"Training\",\"Stims/Figures/102-C-20-4.bmp\",\"zahaha\",\"Down\",\"38\",\"3\",\"6\",\"3A\",\"C2\",\"C\",\"38\"
\"\",\"\",\"approach-retreat\",\"42\",\"278740\",\"0.0-42.0\",\"\",\"\",\"2-3\",\"4064\",\"38\",\"1\",\"Training\",\"Stims/Figures/144-C-30-3.bmp\",\"zahaha\",\"Down\",\"38\",\"3\",\"7\",\"3A\",\"C2\",\"C\",\"39\"
\"\",\"\",\"approach-retreat\",\"43\",\"284372\",\"0.0-43.0\",\"\",\"\",\"2-3\",\"4119\",\"39\",\"1\",\"Training\",\"Stims/Figures/93-J-0-1.bmp\",\"fa:fa:sha\",\"Right\",\"39\",\"3\",\"8\",\"3A\",\"C1\",\"C\",\"40\"
\"\",\"\",\"approach-retreat\",\"44\",\"291512\",\"0.0-44.0\",\"\",\"\",\"2-3\",\"5631\",\"39\",\"0\",\"Training\",\"Stims/Figures/118-C-20-2.bmp\",\"zahaha\",\"Right\",\"37\",\"3\",\"9\",\"3A\",\"C2\",\"C\",\"41\"
\"\",\"\",\"approach-retreat\",\"45\",\"297129\",\"0.0-45.0\",\"\",\"\",\"2-3\",\"4107\",\"37\",\"1\",\"Training\",\"Stims/Figures/144-J-10-3.bmp\",\"fa:fa:sha\",\"Left\",\"37\",\"3\",\"10\",\"3A\",\"C1\",\"C\",\"42\"
\"\",\"\",\"approach-retreat\",\"46\",\"302788\",\"0.0-46.0\",\"\",\"\",\"2-3\",\"4146\",\"37\",\"1\",\"Training\",\"Stims/Figures/94-J-0-2.bmp\",\"fa:fa:sha\",\"Left\",\"37\",\"3\",\"11\",\"3A\",\"C1\",\"C\",\"43\"
\"\",\"\",\"approach-retreat\",\"47\",\"308491\",\"0.0-47.0\",\"\",\"\",\"2-3\",\"4190\",\"38\",\"1\",\"Training\",\"Stims/Figures/118-J-0-2.bmp\",\"fa:fa:sha\",\"Up\",\"38\",\"3\",\"12\",\"3A\",\"C1\",\"C\",\"44\"
\"\",\"\",\"approach-retreat\",\"48\",\"314297\",\"0.0-48.0\",\"\",\"\",\"2-3\",\"4296\",\"40\",\"1\",\"Training\",\"Stims/Figures/94-C-20-2.bmp\",\"zahaha\",\"Up\",\"40\",\"3\",\"13\",\"3A\",\"C2\",\"C\",\"45\"
\"\",\"\",\"approach-retreat\",\"49\",\"319782\",\"0.0-49.0\",\"\",\"\",\"2-3\",\"3977\",\"40\",\"1\",\"Training\",\"Stims/Figures/86-C-30-1.bmp\",\"zahaha\",\"Up\",\"40\",\"3\",\"14\",\"3A\",\"C2\",\"C\",\"46\"
\"\",\"\",\"approach-retreat\",\"50\",\"325410\",\"0.0-50.0\",\"\",\"\",\"2-3\",\"4116\",\"39\",\"1\",\"Training\",\"Stims/Figures/100-J-10-3.bmp\",\"fa:fa:sha\",\"Right\",\"39\",\"3\",\"15\",\"3A\",\"C1\",\"C\",\"47\"
\"\",\"\",\"approach-retreat\",\"51\",\"331073\",\"0.0-51.0\",\"\",\"\",\"2-3\",\"4156\",\"37\",\"1\",\"Training\",\"Stims/Figures/19-J-10-4.bmp\",\"fa:fa:sha\",\"Left\",\"37\",\"3\",\"16\",\"3A\",\"C1\",\"C\",\"48\"
\"\",\"\",\"approach-retreat\",\"52\",\"336701\",\"0.0-52.0\",\"\",\"\",\"2-3\",\"4118\",\"37\",\"1\",\"Training\",\"Stims/Figures/102-C-20-4.bmp\",\"zahaha\",\"Right\",\"37\",\"4\",\"1\",\"3A\",\"C2\",\"C\",\"49\"
\"\",\"\",\"approach-retreat\",\"53\",\"342351\",\"0.0-53.0\",\"\",\"\",\"2-3\",\"4138\",\"38\",\"1\",\"Training\",\"Stims/Figures/86-J-0-1.bmp\",\"fa:fa:sha\",\"Up\",\"38\",\"4\",\"2\",\"3A\",\"C1\",\"C\",\"50\"
\"\",\"\",\"approach-retreat\",\"54\",\"347859\",\"0.0-54.0\",\"\",\"\",\"2-3\",\"3999\",\"39\",\"1\",\"Training\",\"Stims/Figures/144-C-30-3.bmp\",\"zahaha\",\"Left\",\"39\",\"4\",\"3\",\"3A\",\"C2\",\"C\",\"51\"
\"\",\"\",\"approach-retreat\",\"55\",\"354688\",\"0.0-55.0\",\"\",\"\",\"2-3\",\"5324\",\"39\",\"1\",\"Training\",\"Stims/Figures/144-J-10-3.bmp\",\"fa:fa:sha\",\"Right\",\"39\",\"4\",\"4\",\"3A\",\"C1\",\"C\",\"52\"
\"\",\"\",\"approach-retreat\",\"56\",\"360454\",\"0.0-56.0\",\"\",\"\",\"2-3\",\"4263\",\"37\",\"1\",\"Training\",\"Stims/Figures/102-J-10-4.bmp\",\"fa:fa:sha\",\"Left\",\"37\",\"4\",\"5\",\"3A\",\"C1\",\"C\",\"53\"
\"\",\"\",\"approach-retreat\",\"57\",\"366214\",\"0.0-57.0\",\"\",\"\",\"2-3\",\"4248\",\"38\",\"1\",\"Training\",\"Stims/Figures/19-C-20-4.bmp\",\"zahaha\",\"Down\",\"38\",\"4\",\"6\",\"3A\",\"C2\",\"C\",\"54\"
\"\",\"\",\"approach-retreat\",\"58\",\"372126\",\"0.0-58.0\",\"\",\"\",\"2-3\",\"4407\",\"40\",\"1\",\"Training\",\"Stims/Figures/93-C-30-1.bmp\",\"zahaha\",\"Up\",\"40\",\"4\",\"7\",\"3A\",\"C2\",\"C\",\"55\"
\"\",\"\",\"approach-retreat\",\"59\",\"378345\",\"0.0-59.0\",\"\",\"\",\"2-3\",\"4711\",\"40\",\"1\",\"Training\",\"Stims/Figures/94-J-0-2.bmp\",\"fa:fa:sha\",\"Down\",\"40\",\"4\",\"8\",\"3A\",\"C1\",\"C\",\"56\"
\"\",\"\",\"approach-retreat\",\"60\",\"383886\",\"0.0-60.0\",\"\",\"\",\"2-3\",\"4035\",\"37\",\"1\",\"Training\",\"Stims/Figures/118-J-0-2.bmp\",\"fa:fa:sha\",\"Left\",\"37\",\"4\",\"9\",\"3A\",\"C1\",\"C\",\"57\"
\"\",\"\",\"approach-retreat\",\"61\",\"389891\",\"0.0-61.0\",\"\",\"\",\"2-3\",\"4496\",\"39\",\"1\",\"Training\",\"Stims/Figures/19-J-10-4.bmp\",\"fa:fa:sha\",\"Right\",\"39\",\"4\",\"10\",\"3A\",\"C1\",\"C\",\"58\"
\"\",\"\",\"approach-retreat\",\"62\",\"395735\",\"0.0-62.0\",\"\",\"\",\"2-3\",\"4339\",\"40\",\"1\",\"Training\",\"Stims/Figures/100-J-10-3.bmp\",\"fa:fa:sha\",\"Down\",\"40\",\"4\",\"11\",\"3A\",\"C1\",\"C\",\"59\"
\"\",\"\",\"approach-retreat\",\"63\",\"401701\",\"0.0-63.0\",\"\",\"\",\"2-3\",\"4455\",\"40\",\"1\",\"Training\",\"Stims/Figures/94-C-20-2.bmp\",\"zahaha\",\"Up\",\"40\",\"4\",\"12\",\"3A\",\"C2\",\"C\",\"60\"
\"\",\"\",\"approach-retreat\",\"64\",\"407334\",\"0.0-64.0\",\"\",\"\",\"2-3\",\"4128\",\"40\",\"1\",\"Training\",\"Stims/Figures/100-C-30-3.bmp\",\"zahaha\",\"Up\",\"40\",\"4\",\"13\",\"3A\",\"C2\",\"C\",\"61\"
\"\",\"\",\"approach-retreat\",\"65\",\"413240\",\"0.0-65.0\",\"\",\"\",\"2-3\",\"4399\",\"38\",\"1\",\"Training\",\"Stims/Figures/86-C-30-1.bmp\",\"zahaha\",\"Down\",\"38\",\"4\",\"14\",\"3A\",\"C2\",\"C\",\"62\"
\"\",\"\",\"approach-retreat\",\"66\",\"419133\",\"0.0-66.0\",\"\",\"\",\"2-3\",\"4382\",\"37\",\"1\",\"Training\",\"Stims/Figures/93-J-0-1.bmp\",\"fa:fa:sha\",\"Left\",\"37\",\"4\",\"15\",\"3A\",\"C1\",\"C\",\"63\"
\"\",\"\",\"approach-retreat\",\"67\",\"424865\",\"0.0-67.0\",\"\",\"\",\"2-3\",\"4225\",\"37\",\"1\",\"Training\",\"Stims/Figures/118-C-20-2.bmp\",\"zahaha\",\"Right\",\"37\",\"4\",\"16\",\"3A\",\"C2\",\"C\",\"64\"
\"\",\"\",\"approach-retreat\",\"68\",\"430566\",\"0.0-68.0\",\"\",\"\",\"2-3\",\"4187\",\"37\",\"1\",\"Training\",\"Stims/Figures/144-J-10-3.bmp\",\"fa:fa:sha\",\"Left\",\"37\",\"5\",\"1\",\"3A\",\"C1\",\"C\",\"65\"
\"\",\"\",\"approach-retreat\",\"69\",\"436260\",\"0.0-69.0\",\"\",\"\",\"2-3\",\"4183\",\"40\",\"1\",\"Training\",\"Stims/Figures/102-C-20-4.bmp\",\"zahaha\",\"Up\",\"40\",\"5\",\"2\",\"3A\",\"C2\",\"C\",\"66\"
\"\",\"\",\"approach-retreat\",\"70\",\"442274\",\"0.0-70.0\",\"\",\"\",\"2-3\",\"4505\",\"40\",\"1\",\"Training\",\"Stims/Figures/102-J-10-4.bmp\",\"fa:fa:sha\",\"Down\",\"40\",\"5\",\"3\",\"3A\",\"C1\",\"C\",\"67\"
\"\",\"\",\"approach-retreat\",\"71\",\"447941\",\"0.0-71.0\",\"\",\"\",\"2-3\",\"4154\",\"39\",\"1\",\"Training\",\"Stims/Figures/100-C-30-3.bmp\",\"zahaha\",\"Left\",\"39\",\"5\",\"4\",\"3A\",\"C2\",\"C\",\"68\"
\"\",\"\",\"approach-retreat\",\"72\",\"454140\",\"0.0-72.0\",\"\",\"\",\"2-3\",\"4690\",\"38\",\"1\",\"Training\",\"Stims/Figures/93-J-0-1.bmp\",\"fa:fa:sha\",\"Up\",\"38\",\"5\",\"5\",\"3A\",\"C1\",\"C\",\"69\"
\"\",\"\",\"approach-retreat\",\"73\",\"459846\",\"0.0-73.0\",\"\",\"\",\"2-3\",\"4200\",\"40\",\"1\",\"Training\",\"Stims/Figures/144-C-30-3.bmp\",\"zahaha\",\"Up\",\"40\",\"5\",\"6\",\"3A\",\"C2\",\"C\",\"70\"
\"\",\"\",\"approach-retreat\",\"74\",\"465499\",\"0.0-74.0\",\"\",\"\",\"2-3\",\"4144\",\"37\",\"1\",\"Training\",\"Stims/Figures/19-C-20-4.bmp\",\"zahaha\",\"Right\",\"37\",\"5\",\"7\",\"3A\",\"C2\",\"C\",\"71\"
\"\",\"\",\"approach-retreat\",\"75\",\"471306\",\"0.0-75.0\",\"\",\"\",\"2-3\",\"4299\",\"39\",\"1\",\"Training\",\"Stims/Figures/100-J-10-3.bmp\",\"fa:fa:sha\",\"Right\",\"39\",\"5\",\"8\",\"3A\",\"C1\",\"C\",\"72\"
\"\",\"\",\"approach-retreat\",\"76\",\"476861\",\"0.0-76.0\",\"\",\"\",\"2-3\",\"4052\",\"37\",\"1\",\"Training\",\"Stims/Figures/94-J-0-2.bmp\",\"fa:fa:sha\",\"Left\",\"37\",\"5\",\"9\",\"3A\",\"C1\",\"C\",\"73\"
\"\",\"\",\"approach-retreat\",\"77\",\"482755\",\"0.0-77.0\",\"\",\"\",\"2-3\",\"4384\",\"39\",\"1\",\"Training\",\"Stims/Figures/19-J-10-4.bmp\",\"fa:fa:sha\",\"Right\",\"39\",\"5\",\"10\",\"3A\",\"C1\",\"C\",\"74\"
\"\",\"\",\"approach-retreat\",\"78\",\"488370\",\"0.0-78.0\",\"\",\"\",\"2-3\",\"4106\",\"39\",\"1\",\"Training\",\"Stims/Figures/86-J-0-1.bmp\",\"fa:fa:sha\",\"Right\",\"39\",\"5\",\"11\",\"3A\",\"C1\",\"C\",\"75\"
\"\",\"\",\"approach-retreat\",\"79\",\"494021\",\"0.0-79.0\",\"\",\"\",\"2-3\",\"4145\",\"39\",\"1\",\"Training\",\"Stims/Figures/93-C-30-1.bmp\",\"zahaha\",\"Left\",\"39\",\"5\",\"12\",\"3A\",\"C2\",\"C\",\"76\"
\"\",\"\",\"approach-retreat\",\"80\",\"499593\",\"0.0-80.0\",\"\",\"\",\"2-3\",\"4062\",\"38\",\"1\",\"Training\",\"Stims/Figures/94-C-20-2.bmp\",\"zahaha\",\"Down\",\"38\",\"5\",\"13\",\"3A\",\"C2\",\"C\",\"77\"
\"\",\"\",\"approach-retreat\",\"81\",\"505452\",\"0.0-81.0\",\"\",\"\",\"2-3\",\"4348\",\"40\",\"1\",\"Training\",\"Stims/Figures/118-J-0-2.bmp\",\"fa:fa:sha\",\"Down\",\"40\",\"5\",\"14\",\"3A\",\"C1\",\"C\",\"78\"
\"\",\"\",\"approach-retreat\",\"82\",\"511128\",\"0.0-82.0\",\"\",\"\",\"2-3\",\"4170\",\"40\",\"1\",\"Training\",\"Stims/Figures/118-C-20-2.bmp\",\"zahaha\",\"Up\",\"40\",\"5\",\"15\",\"3A\",\"C2\",\"C\",\"79\"
\"\",\"\",\"approach-retreat\",\"83\",\"517137\",\"0.0-83.0\",\"\",\"\",\"2-3\",\"4501\",\"38\",\"1\",\"Training\",\"Stims/Figures/86-C-30-1.bmp\",\"zahaha\",\"Down\",\"38\",\"5\",\"16\",\"3A\",\"C2\",\"C\",\"80\"
\"\",\"\",\"approach-retreat\",\"84\",\"522943\",\"0.0-84.0\",\"\",\"\",\"2-3\",\"4300\",\"37\",\"1\",\"Training\",\"Stims/Figures/102-J-10-4.bmp\",\"fa:fa:sha\",\"Left\",\"37\",\"6\",\"1\",\"3A\",\"C1\",\"C\",\"81\"
\"\",\"\",\"approach-retreat\",\"85\",\"528542\",\"0.0-85.0\",\"\",\"\",\"2-3\",\"4094\",\"37\",\"1\",\"Training\",\"Stims/Figures/144-C-30-3.bmp\",\"zahaha\",\"Right\",\"37\",\"6\",\"2\",\"3A\",\"C2\",\"C\",\"82\"
\"\",\"\",\"approach-retreat\",\"86\",\"534661\",\"0.0-86.0\",\"\",\"\",\"2-3\",\"4614\",\"37\",\"1\",\"Training\",\"Stims/Figures/100-J-10-3.bmp\",\"fa:fa:sha\",\"Left\",\"37\",\"6\",\"3\",\"3A\",\"C1\",\"C\",\"83\"
\"\",\"\",\"approach-retreat\",\"87\",\"540502\",\"0.0-87.0\",\"\",\"\",\"2-3\",\"4325\",\"40\",\"1\",\"Training\",\"Stims/Figures/144-J-10-3.bmp\",\"fa:fa:sha\",\"Down\",\"40\",\"6\",\"4\",\"3A\",\"C1\",\"C\",\"84\"
\"\",\"\",\"approach-retreat\",\"88\",\"546213\",\"0.0-88.0\",\"\",\"\",\"2-3\",\"4206\",\"40\",\"1\",\"Training\",\"Stims/Figures/86-C-30-1.bmp\",\"zahaha\",\"Up\",\"40\",\"6\",\"5\",\"3A\",\"C2\",\"C\",\"85\"
\"\",\"\",\"approach-retreat\",\"89\",\"552301\",\"0.0-89.0\",\"\",\"\",\"2-3\",\"4573\",\"37\",\"1\",\"Training\",\"Stims/Figures/19-J-10-4.bmp\",\"fa:fa:sha\",\"Left\",\"37\",\"6\",\"6\",\"3A\",\"C1\",\"C\",\"86\"
\"\",\"\",\"approach-retreat\",\"90\",\"557864\",\"0.0-90.0\",\"\",\"\",\"2-3\",\"4056\",\"38\",\"1\",\"Training\",\"Stims/Figures/102-C-20-4.bmp\",\"zahaha\",\"Down\",\"38\",\"6\",\"7\",\"3A\",\"C2\",\"C\",\"87\"
\"\",\"\",\"approach-retreat\",\"91\",\"563483\",\"0.0-91.0\",\"\",\"\",\"2-3\",\"4109\",\"39\",\"1\",\"Training\",\"Stims/Figures/100-C-30-3.bmp\",\"zahaha\",\"Left\",\"39\",\"6\",\"8\",\"3A\",\"C2\",\"C\",\"88\"
\"\",\"\",\"approach-retreat\",\"92\",\"569018\",\"0.0-92.0\",\"\",\"\",\"2-3\",\"4031\",\"40\",\"1\",\"Training\",\"Stims/Figures/93-C-30-1.bmp\",\"zahaha\",\"Up\",\"40\",\"6\",\"9\",\"3A\",\"C2\",\"C\",\"89\"
\"\",\"\",\"approach-retreat\",\"93\",\"574612\",\"0.0-93.0\",\"\",\"\",\"2-3\",\"4087\",\"38\",\"1\",\"Training\",\"Stims/Figures/86-J-0-1.bmp\",\"fa:fa:sha\",\"Up\",\"38\",\"6\",\"10\",\"3A\",\"C1\",\"C\",\"90\"
\"\",\"\",\"approach-retreat\",\"94\",\"580264\",\"0.0-94.0\",\"\",\"\",\"2-3\",\"4139\",\"39\",\"1\",\"Training\",\"Stims/Figures/118-J-0-2.bmp\",\"fa:fa:sha\",\"Right\",\"39\",\"6\",\"11\",\"3A\",\"C1\",\"C\",\"91\"
\"\",\"\",\"approach-retreat\",\"95\",\"585851\",\"0.0-95.0\",\"\",\"\",\"2-3\",\"4081\",\"38\",\"1\",\"Training\",\"Stims/Figures/19-C-20-4.bmp\",\"zahaha\",\"Down\",\"38\",\"6\",\"12\",\"3A\",\"C2\",\"C\",\"92\"
\"\",\"\",\"approach-retreat\",\"96\",\"591517\",\"0.0-96.0\",\"\",\"\",\"2-3\",\"4157\",\"38\",\"1\",\"Training\",\"Stims/Figures/94-C-20-2.bmp\",\"zahaha\",\"Down\",\"38\",\"6\",\"13\",\"3A\",\"C2\",\"C\",\"93\"
\"\",\"\",\"approach-retreat\",\"97\",\"597067\",\"0.0-97.0\",\"\",\"\",\"2-3\",\"4042\",\"39\",\"1\",\"Training\",\"Stims/Figures/93-J-0-1.bmp\",\"fa:fa:sha\",\"Right\",\"39\",\"6\",\"14\",\"3A\",\"C1\",\"C\",\"94\"
\"\",\"\",\"approach-retreat\",\"98\",\"602726\",\"0.0-98.0\",\"\",\"\",\"2-3\",\"4149\",\"40\",\"1\",\"Training\",\"Stims/Figures/118-C-20-2.bmp\",\"zahaha\",\"Up\",\"40\",\"6\",\"15\",\"3A\",\"C2\",\"C\",\"95\"
\"\",\"\",\"approach-retreat\",\"99\",\"608384\",\"0.0-99.0\",\"\",\"\",\"2-3\",\"4154\",\"39\",\"1\",\"Training\",\"Stims/Figures/94-J-0-2.bmp\",\"fa:fa:sha\",\"Right\",\"39\",\"6\",\"16\",\"3A\",\"C1\",\"C\",\"96\"
\"\",\"\",\"approach-retreat\",\"100\",\"613966\",\"0.0-100.0\",\"\",\"\",\"2-3\",\"4072\",\"40\",\"1\",\"Training\",\"Stims/Figures/93-C-30-1.bmp\",\"zahaha\",\"Up\",\"40\",\"7\",\"1\",\"3A\",\"C2\",\"C\",\"97\"
\"\",\"\",\"approach-retreat\",\"101\",\"620249\",\"0.0-101.0\",\"\",\"\",\"2-3\",\"4770\",\"40\",\"1\",\"Training\",\"Stims/Figures/100-J-10-3.bmp\",\"fa:fa:sha\",\"Down\",\"40\",\"7\",\"2\",\"3A\",\"C1\",\"C\",\"98\"
\"\",\"\",\"approach-retreat\",\"102\",\"625975\",\"0.0-102.0\",\"\",\"\",\"2-3\",\"4215\",\"37\",\"1\",\"Training\",\"Stims/Figures/93-J-0-1.bmp\",\"fa:fa:sha\",\"Left\",\"37\",\"7\",\"3\",\"3A\",\"C1\",\"C\",\"99\"
\"\",\"\",\"approach-retreat\",\"103\",\"632301\",\"0.0-103.0\",\"\",\"\",\"2-3\",\"4813\",\"37\",\"1\",\"Training\",\"Stims/Figures/94-C-20-2.bmp\",\"zahaha\",\"Right\",\"37\",\"7\",\"4\",\"3A\",\"C2\",\"C\",\"100\"
\"\",\"\",\"approach-retreat\",\"104\",\"638285\",\"0.0-104.0\",\"\",\"\",\"2-3\",\"4478\",\"39\",\"1\",\"Training\",\"Stims/Figures/144-C-30-3.bmp\",\"zahaha\",\"Left\",\"39\",\"7\",\"5\",\"3A\",\"C2\",\"C\",\"101\"
\"\",\"\",\"approach-retreat\",\"105\",\"644021\",\"0.0-105.0\",\"\",\"\",\"2-3\",\"4232\",\"38\",\"1\",\"Training\",\"Stims/Figures/102-C-20-4.bmp\",\"zahaha\",\"Down\",\"38\",\"7\",\"6\",\"3A\",\"C2\",\"C\",\"102\"
\"\",\"\",\"approach-retreat\",\"106\",\"649773\",\"0.0-106.0\",\"\",\"\",\"2-3\",\"4248\",\"40\",\"1\",\"Training\",\"Stims/Figures/102-J-10-4.bmp\",\"fa:fa:sha\",\"Down\",\"40\",\"7\",\"7\",\"3A\",\"C1\",\"C\",\"103\"
\"\",\"\",\"approach-retreat\",\"107\",\"655743\",\"0.0-107.0\",\"\",\"\",\"2-3\",\"4462\",\"37\",\"1\",\"Training\",\"Stims/Figures/86-C-30-1.bmp\",\"zahaha\",\"Right\",\"37\",\"7\",\"8\",\"3A\",\"C2\",\"C\",\"104\"
\"\",\"\",\"approach-retreat\",\"108\",\"661341\",\"0.0-108.0\",\"\",\"\",\"2-3\",\"4093\",\"39\",\"1\",\"Training\",\"Stims/Figures/86-J-0-1.bmp\",\"fa:fa:sha\",\"Right\",\"39\",\"7\",\"9\",\"3A\",\"C1\",\"C\",\"105\"
\"\",\"\",\"approach-retreat\",\"109\",\"667532\",\"0.0-109.0\",\"\",\"\",\"2-3\",\"4687\",\"37\",\"1\",\"Training\",\"Stims/Figures/118-J-0-2.bmp\",\"fa:fa:sha\",\"Left\",\"37\",\"7\",\"10\",\"3A\",\"C1\",\"C\",\"106\"
\"\",\"\",\"approach-retreat\",\"110\",\"673266\",\"0.0-110.0\",\"\",\"\",\"2-3\",\"4222\",\"40\",\"1\",\"Training\",\"Stims/Figures/118-C-20-2.bmp\",\"zahaha\",\"Up\",\"40\",\"7\",\"11\",\"3A\",\"C2\",\"C\",\"107\"
\"\",\"\",\"approach-retreat\",\"111\",\"678894\",\"0.0-111.0\",\"\",\"\",\"2-3\",\"4122\",\"40\",\"1\",\"Training\",\"Stims/Figures/19-C-20-4.bmp\",\"zahaha\",\"Up\",\"40\",\"7\",\"12\",\"3A\",\"C2\",\"C\",\"108\"
\"\",\"\",\"approach-retreat\",\"112\",\"684664\",\"0.0-112.0\",\"\",\"\",\"2-3\",\"4262\",\"39\",\"1\",\"Training\",\"Stims/Figures/19-J-10-4.bmp\",\"fa:fa:sha\",\"Right\",\"39\",\"7\",\"13\",\"3A\",\"C1\",\"C\",\"109\"
\"\",\"\",\"approach-retreat\",\"113\",\"690249\",\"0.0-113.0\",\"\",\"\",\"2-3\",\"4072\",\"40\",\"1\",\"Training\",\"Stims/Figures/100-C-30-3.bmp\",\"zahaha\",\"Up\",\"40\",\"7\",\"14\",\"3A\",\"C2\",\"C\",\"110\"
\"\",\"\",\"approach-retreat\",\"114\",\"695973\",\"0.0-114.0\",\"\",\"\",\"2-3\",\"4214\",\"37\",\"1\",\"Training\",\"Stims/Figures/144-J-10-3.bmp\",\"fa:fa:sha\",\"Left\",\"37\",\"7\",\"15\",\"3A\",\"C1\",\"C\",\"111\"
\"\",\"\",\"approach-retreat\",\"115\",\"701651\",\"0.0-115.0\",\"\",\"\",\"2-3\",\"4172\",\"40\",\"1\",\"Training\",\"Stims/Figures/94-J-0-2.bmp\",\"fa:fa:sha\",\"Down\",\"40\",\"7\",\"16\",\"3A\",\"C1\",\"C\",\"112\"
\"\",\"\",\"approach-retreat\",\"116\",\"707580\",\"0.0-116.0\",\"\",\"\",\"2-3\",\"4422\",\"37\",\"1\",\"Training\",\"Stims/Figures/144-J-10-3.bmp\",\"fa:fa:sha\",\"Left\",\"37\",\"8\",\"1\",\"3A\",\"C1\",\"C\",\"113\"
\"\",\"\",\"approach-retreat\",\"117\",\"713410\",\"0.0-117.0\",\"\",\"\",\"2-3\",\"4323\",\"37\",\"1\",\"Training\",\"Stims/Figures/100-J-10-3.bmp\",\"fa:fa:sha\",\"Left\",\"37\",\"8\",\"2\",\"3A\",\"C1\",\"C\",\"114\"
\"\",\"\",\"approach-retreat\",\"118\",\"719076\",\"0.0-118.0\",\"\",\"\",\"2-3\",\"4159\",\"40\",\"1\",\"Training\",\"Stims/Figures/19-J-10-4.bmp\",\"fa:fa:sha\",\"Down\",\"40\",\"8\",\"3\",\"3A\",\"C1\",\"C\",\"115\"
\"\",\"\",\"approach-retreat\",\"119\",\"724859\",\"0.0-119.0\",\"\",\"\",\"2-3\",\"4275\",\"40\",\"1\",\"Training\",\"Stims/Figures/94-J-0-2.bmp\",\"fa:fa:sha\",\"Down\",\"40\",\"8\",\"4\",\"3A\",\"C1\",\"C\",\"116\"
\"\",\"\",\"approach-retreat\",\"120\",\"730553\",\"0.0-120.0\",\"\",\"\",\"2-3\",\"4180\",\"39\",\"1\",\"Training\",\"Stims/Figures/94-C-20-2.bmp\",\"zahaha\",\"Left\",\"39\",\"8\",\"5\",\"3A\",\"C2\",\"C\",\"117\"
\"\",\"\",\"approach-retreat\",\"121\",\"736175\",\"0.0-121.0\",\"\",\"\",\"2-3\",\"4110\",\"39\",\"1\",\"Training\",\"Stims/Figures/118-J-0-2.bmp\",\"fa:fa:sha\",\"Right\",\"39\",\"8\",\"6\",\"3A\",\"C1\",\"C\",\"118\"
\"\",\"\",\"approach-retreat\",\"122\",\"741794\",\"0.0-122.0\",\"\",\"\",\"2-3\",\"4114\",\"37\",\"1\",\"Training\",\"Stims/Figures/86-C-30-1.bmp\",\"zahaha\",\"Right\",\"37\",\"8\",\"7\",\"3A\",\"C2\",\"C\",\"119\"
\"\",\"\",\"approach-retreat\",\"123\",\"747884\",\"0.0-123.0\",\"\",\"\",\"2-3\",\"4582\",\"38\",\"1\",\"Training\",\"Stims/Figures/102-J-10-4.bmp\",\"fa:fa:sha\",\"Up\",\"38\",\"8\",\"8\",\"3A\",\"C1\",\"C\",\"120\"
\"\",\"\",\"approach-retreat\",\"124\",\"753396\",\"0.0-124.0\",\"\",\"\",\"2-3\",\"4008\",\"37\",\"1\",\"Training\",\"Stims/Figures/144-C-30-3.bmp\",\"zahaha\",\"Right\",\"37\",\"8\",\"9\",\"3A\",\"C2\",\"C\",\"121\"
\"\",\"\",\"approach-retreat\",\"125\",\"759016\",\"0.0-125.0\",\"\",\"\",\"2-3\",\"4111\",\"38\",\"0\",\"Training\",\"Stims/Figures/19-C-20-4.bmp\",\"zahaha\",\"Up\",\"40\",\"8\",\"10\",\"3A\",\"C2\",\"C\",\"122\"
\"\",\"\",\"approach-retreat\",\"126\",\"765121\",\"0.0-126.0\",\"\",\"\",\"2-3\",\"4594\",\"40\",\"1\",\"Training\",\"Stims/Figures/100-C-30-3.bmp\",\"zahaha\",\"Up\",\"40\",\"8\",\"11\",\"3A\",\"C2\",\"C\",\"123\"
\"\",\"\",\"approach-retreat\",\"127\",\"771058\",\"0.0-127.0\",\"\",\"\",\"2-3\",\"4426\",\"40\",\"1\",\"Training\",\"Stims/Figures/93-J-0-1.bmp\",\"fa:fa:sha\",\"Down\",\"40\",\"8\",\"12\",\"3A\",\"C1\",\"C\",\"124\"
\"\",\"\",\"approach-retreat\",\"128\",\"777142\",\"0.0-128.0\",\"\",\"\",\"2-3\",\"4577\",\"38\",\"1\",\"Training\",\"Stims/Figures/102-C-20-4.bmp\",\"zahaha\",\"Down\",\"38\",\"8\",\"13\",\"3A\",\"C2\",\"C\",\"125\"
\"\",\"\",\"approach-retreat\",\"129\",\"782643\",\"0.0-129.0\",\"\",\"\",\"2-3\",\"3998\",\"39\",\"1\",\"Training\",\"Stims/Figures/118-C-20-2.bmp\",\"zahaha\",\"Left\",\"39\",\"8\",\"14\",\"3A\",\"C2\",\"C\",\"126\"
\"\",\"\",\"approach-retreat\",\"130\",\"788365\",\"0.0-130.0\",\"\",\"\",\"2-3\",\"4215\",\"40\",\"1\",\"Training\",\"Stims/Figures/93-C-30-1.bmp\",\"zahaha\",\"Up\",\"40\",\"8\",\"15\",\"3A\",\"C2\",\"C\",\"127\"
\"\",\"\",\"approach-retreat\",\"131\",\"794231\",\"0.0-131.0\",\"\",\"\",\"2-3\",\"4357\",\"39\",\"1\",\"Training\",\"Stims/Figures/86-J-0-1.bmp\",\"fa:fa:sha\",\"Right\",\"39\",\"8\",\"16\",\"3A\",\"C1\",\"C\",\"128\"
\"\",\"\",\"approach-retreat\",\"132\",\"800499\",\"0.0-132.0\",\"\",\"\",\"2-3\",\"4756\",\"38\",\"1\",\"Training\",\"Stims/Figures/94-C-20-2.bmp\",\"zahaha\",\"Down\",\"38\",\"9\",\"1\",\"3A\",\"C2\",\"C\",\"129\"
\"\",\"\",\"approach-retreat\",\"133\",\"806429\",\"0.0-133.0\",\"\",\"\",\"2-3\",\"4422\",\"37\",\"1\",\"Training\",\"Stims/Figures/93-J-0-1.bmp\",\"fa:fa:sha\",\"Left\",\"37\",\"9\",\"2\",\"3A\",\"C1\",\"C\",\"130\"
\"\",\"\",\"approach-retreat\",\"134\",\"812153\",\"0.0-134.0\",\"\",\"\",\"2-3\",\"4219\",\"40\",\"1\",\"Training\",\"Stims/Figures/102-C-20-4.bmp\",\"zahaha\",\"Up\",\"40\",\"9\",\"3\",\"3A\",\"C2\",\"C\",\"131\"
\"\",\"\",\"approach-retreat\",\"135\",\"817888\",\"0.0-135.0\",\"\",\"\",\"2-3\",\"4231\",\"37\",\"1\",\"Training\",\"Stims/Figures/86-C-30-1.bmp\",\"zahaha\",\"Right\",\"37\",\"9\",\"4\",\"3A\",\"C2\",\"C\",\"132\"
\"\",\"\",\"approach-retreat\",\"136\",\"823679\",\"0.0-136.0\",\"\",\"\",\"2-3\",\"4280\",\"40\",\"1\",\"Training\",\"Stims/Figures/100-J-10-3.bmp\",\"fa:fa:sha\",\"Down\",\"40\",\"9\",\"5\",\"3A\",\"C1\",\"C\",\"133\"
\"\",\"\",\"approach-retreat\",\"137\",\"829369\",\"0.0-137.0\",\"\",\"\",\"2-3\",\"4177\",\"39\",\"1\",\"Training\",\"Stims/Figures/19-C-20-4.bmp\",\"zahaha\",\"Left\",\"39\",\"9\",\"6\",\"3A\",\"C2\",\"C\",\"134\"
\"\",\"\",\"approach-retreat\",\"138\",\"834934\",\"0.0-138.0\",\"\",\"\",\"2-3\",\"4055\",\"37\",\"1\",\"Training\",\"Stims/Figures/118-C-20-2.bmp\",\"zahaha\",\"Right\",\"37\",\"9\",\"7\",\"3A\",\"C2\",\"C\",\"135\"
\"\",\"\",\"approach-retreat\",\"139\",\"840467\",\"0.0-139.0\",\"\",\"\",\"2-3\",\"4024\",\"40\",\"1\",\"Training\",\"Stims/Figures/93-C-30-1.bmp\",\"zahaha\",\"Up\",\"40\",\"9\",\"8\",\"3A\",\"C2\",\"C\",\"136\"
\"\",\"\",\"approach-retreat\",\"140\",\"846185\",\"0.0-140.0\",\"\",\"\",\"2-3\",\"4211\",\"40\",\"1\",\"Training\",\"Stims/Figures/118-J-0-2.bmp\",\"fa:fa:sha\",\"Down\",\"40\",\"9\",\"9\",\"3A\",\"C1\",\"C\",\"137\"
\"\",\"\",\"approach-retreat\",\"141\",\"852256\",\"0.0-141.0\",\"\",\"\",\"2-3\",\"4564\",\"39\",\"1\",\"Training\",\"Stims/Figures/102-J-10-4.bmp\",\"fa:fa:sha\",\"Right\",\"39\",\"9\",\"10\",\"3A\",\"C1\",\"C\",\"138\"
\"\",\"\",\"approach-retreat\",\"142\",\"858506\",\"0.0-142.0\",\"\",\"\",\"2-3\",\"4743\",\"38\",\"1\",\"Training\",\"Stims/Figures/19-J-10-4.bmp\",\"fa:fa:sha\",\"Up\",\"38\",\"9\",\"11\",\"3A\",\"C1\",\"C\",\"139\"
\"\",\"\",\"approach-retreat\",\"143\",\"864136\",\"0.0-143.0\",\"\",\"\",\"2-3\",\"4126\",\"38\",\"1\",\"Training\",\"Stims/Figures/86-J-0-1.bmp\",\"fa:fa:sha\",\"Up\",\"38\",\"9\",\"12\",\"3A\",\"C1\",\"C\",\"140\"
\"\",\"\",\"approach-retreat\",\"144\",\"870075\",\"0.0-144.0\",\"\",\"\",\"2-3\",\"4432\",\"38\",\"1\",\"Training\",\"Stims/Figures/144-C-30-3.bmp\",\"zahaha\",\"Down\",\"38\",\"9\",\"13\",\"3A\",\"C2\",\"C\",\"141\"
\"\",\"\",\"approach-retreat\",\"145\",\"875901\",\"0.0-145.0\",\"\",\"\",\"2-3\",\"4320\",\"37\",\"1\",\"Training\",\"Stims/Figures/144-J-10-3.bmp\",\"fa:fa:sha\",\"Left\",\"37\",\"9\",\"14\",\"3A\",\"C1\",\"C\",\"142\"
\"\",\"\",\"approach-retreat\",\"146\",\"881834\",\"0.0-146.0\",\"\",\"\",\"2-3\",\"4421\",\"37\",\"1\",\"Training\",\"Stims/Figures/100-C-30-3.bmp\",\"zahaha\",\"Right\",\"37\",\"9\",\"15\",\"3A\",\"C2\",\"C\",\"143\"
\"\",\"\",\"approach-retreat\",\"147\",\"887570\",\"0.0-147.0\",\"\",\"\",\"2-3\",\"4223\",\"37\",\"1\",\"Training\",\"Stims/Figures/94-J-0-2.bmp\",\"fa:fa:sha\",\"Left\",\"37\",\"9\",\"16\",\"3A\",\"C1\",\"C\",\"144\"
\"17308\",\"\",\"instructions\",\"148\",\"904878\",\"0.0-148.0\",\"[{\"\"page_index\"\":0,\"\"viewing_time\"\":17308}]\",\"\",\"\",\"\",\"\",\"\",\"\",\"\",\"\",\"\",\"\",\"\",\"\",\"\",\"\",\"\",\"\"
\"\",\"\",\"approach-retreat\",\"149\",\"911439\",\"0.0-149.0\",\"\",\"\",\"2-3\",\"5053\",\"37\",\"1\",\"Testing\",\"Stims/Figures/19-C-20-4.bmp\",\"zahaha\",\"Right\",\"37\",\"1\",\"1\",\"3A\",\"C2\",\"C\",\"1\"
\"\",\"\",\"approach-retreat\",\"150\",\"917122\",\"0.0-150.0\",\"\",\"\",\"2-3\",\"4179\",\"39\",\"1\",\"Testing\",\"Stims/Figures/74-C-20-4.bmp\",\"zahaha\",\"Left\",\"39\",\"1\",\"2\",\"3A\",\"C2\",\"C\",\"2\"
\"\",\"\",\"approach-retreat\",\"151\",\"922795\",\"0.0-151.0\",\"\",\"\",\"2-3\",\"4161\",\"37\",\"1\",\"Testing\",\"Stims/Figures/100-C-30-3.bmp\",\"zahaha\",\"Right\",\"37\",\"1\",\"3\",\"3A\",\"C2\",\"C\",\"3\"
\"\",\"\",\"approach-retreat\",\"152\",\"928711\",\"0.0-152.0\",\"\",\"\",\"2-3\",\"4407\",\"39\",\"1\",\"Testing\",\"Stims/Figures/94-J-0-2.bmp\",\"fa:fa:sha\",\"Right\",\"39\",\"1\",\"4\",\"3A\",\"C1\",\"C\",\"4\"
\"\",\"\",\"approach-retreat\",\"153\",\"934425\",\"0.0-153.0\",\"\",\"\",\"2-3\",\"4208\",\"38\",\"1\",\"Testing\",\"Stims/Figures/71-J-0-1.bmp\",\"fa:fa:sha\",\"Up\",\"38\",\"1\",\"5\",\"3A\",\"C1\",\"C\",\"5\"
\"\",\"\",\"approach-retreat\",\"154\",\"940025\",\"0.0-154.0\",\"\",\"\",\"2-3\",\"4095\",\"37\",\"1\",\"Testing\",\"Stims/Figures/71-C-30-1.bmp\",\"zahaha\",\"Right\",\"37\",\"1\",\"6\",\"3A\",\"C2\",\"C\",\"6\"
\"\",\"\",\"approach-retreat\",\"155\",\"945639\",\"0.0-155.0\",\"\",\"\",\"2-3\",\"4102\",\"40\",\"1\",\"Testing\",\"Stims/Figures/86-J-0-1.bmp\",\"fa:fa:sha\",\"Down\",\"40\",\"1\",\"7\",\"3A\",\"C1\",\"C\",\"7\"
\"\",\"\",\"approach-retreat\",\"156\",\"951240\",\"0.0-156.0\",\"\",\"\",\"2-3\",\"4095\",\"40\",\"1\",\"Testing\",\"Stims/Figures/93-C-30-1.bmp\",\"zahaha\",\"Up\",\"40\",\"1\",\"8\",\"3A\",\"C2\",\"C\",\"8\"
\"\",\"\",\"approach-retreat\",\"157\",\"956840\",\"0.0-157.0\",\"\",\"\",\"2-3\",\"4094\",\"38\",\"1\",\"Testing\",\"Stims/Figures/93-J-0-1.bmp\",\"fa:fa:sha\",\"Up\",\"38\",\"1\",\"9\",\"3A\",\"C1\",\"C\",\"9\"
\"\",\"\",\"approach-retreat\",\"158\",\"962622\",\"0.0-158.0\",\"\",\"\",\"2-3\",\"4270\",\"39\",\"1\",\"Testing\",\"Stims/Figures/102-J-10-4.bmp\",\"fa:fa:sha\",\"Right\",\"39\",\"1\",\"10\",\"3A\",\"C1\",\"C\",\"10\"
\"\",\"\",\"approach-retreat\",\"159\",\"968538\",\"0.0-159.0\",\"\",\"\",\"2-3\",\"4401\",\"38\",\"1\",\"Testing\",\"Stims/Figures/84-C-20-2.bmp\",\"zahaha\",\"Down\",\"38\",\"1\",\"11\",\"3A\",\"C2\",\"C\",\"11\"
\"\",\"\",\"approach-retreat\",\"160\",\"974320\",\"0.0-160.0\",\"\",\"\",\"2-3\",\"4268\",\"38\",\"1\",\"Testing\",\"Stims/Figures/94-C-20-2.bmp\",\"zahaha\",\"Down\",\"38\",\"1\",\"12\",\"3A\",\"C2\",\"C\",\"12\"
\"\",\"\",\"approach-retreat\",\"161\",\"980170\",\"0.0-161.0\",\"\",\"\",\"2-3\",\"4334\",\"37\",\"1\",\"Testing\",\"Stims/Figures/44-J-10-3.bmp\",\"fa:fa:sha\",\"Left\",\"37\",\"1\",\"13\",\"3A\",\"C1\",\"C\",\"13\"
\"\",\"\",\"approach-retreat\",\"162\",\"985971\",\"0.0-162.0\",\"\",\"\",\"2-3\",\"4284\",\"40\",\"1\",\"Testing\",\"Stims/Figures/84-J-0-2.bmp\",\"fa:fa:sha\",\"Down\",\"40\",\"1\",\"14\",\"3A\",\"C1\",\"C\",\"14\"
\"\",\"\",\"approach-retreat\",\"163\",\"991705\",\"0.0-163.0\",\"\",\"\",\"2-3\",\"4227\",\"38\",\"1\",\"Testing\",\"Stims/Figures/118-J-0-2.bmp\",\"fa:fa:sha\",\"Up\",\"38\",\"1\",\"15\",\"3A\",\"C1\",\"C\",\"15\"
\"\",\"\",\"approach-retreat\",\"164\",\"998073\",\"0.0-164.0\",\"\",\"\",\"2-3\",\"4849\",\"39\",\"1\",\"Testing\",\"Stims/Figures/86-C-30-1.bmp\",\"zahaha\",\"Left\",\"39\",\"1\",\"16\",\"3A\",\"C2\",\"C\",\"16\"
\"\",\"\",\"approach-retreat\",\"165\",\"1003886\",\"0.0-165.0\",\"\",\"\",\"2-3\",\"4296\",\"39\",\"1\",\"Testing\",\"Stims/Figures/144-J-10-3.bmp\",\"fa:fa:sha\",\"Right\",\"39\",\"1\",\"17\",\"3A\",\"C1\",\"C\",\"17\"
\"\",\"\",\"approach-retreat\",\"166\",\"1009555\",\"0.0-166.0\",\"\",\"\",\"2-3\",\"4157\",\"38\",\"1\",\"Testing\",\"Stims/Figures/100-J-10-3.bmp\",\"fa:fa:sha\",\"Up\",\"38\",\"1\",\"18\",\"3A\",\"C1\",\"C\",\"18\"
\"\",\"\",\"approach-retreat\",\"167\",\"1015189\",\"0.0-167.0\",\"\",\"\",\"2-3\",\"4116\",\"39\",\"1\",\"Testing\",\"Stims/Figures/44-C-30-3.bmp\",\"zahaha\",\"Left\",\"39\",\"1\",\"19\",\"3A\",\"C2\",\"C\",\"19\"
\"\",\"\",\"approach-retreat\",\"168\",\"1020804\",\"0.0-168.0\",\"\",\"\",\"2-3\",\"4109\",\"38\",\"1\",\"Testing\",\"Stims/Figures/144-C-30-3.bmp\",\"zahaha\",\"Down\",\"38\",\"1\",\"20\",\"3A\",\"C2\",\"C\",\"20\"
\"\",\"\",\"approach-retreat\",\"169\",\"1026537\",\"0.0-169.0\",\"\",\"\",\"2-3\",\"4228\",\"37\",\"1\",\"Testing\",\"Stims/Figures/19-J-10-4.bmp\",\"fa:fa:sha\",\"Left\",\"37\",\"1\",\"21\",\"3A\",\"C1\",\"C\",\"21\"
\"\",\"\",\"approach-retreat\",\"170\",\"1032286\",\"0.0-170.0\",\"\",\"\",\"2-3\",\"4232\",\"39\",\"1\",\"Testing\",\"Stims/Figures/118-C-20-2.bmp\",\"zahaha\",\"Left\",\"39\",\"1\",\"22\",\"3A\",\"C2\",\"C\",\"22\"
\"\",\"\",\"approach-retreat\",\"171\",\"1038004\",\"0.0-171.0\",\"\",\"\",\"2-3\",\"4202\",\"38\",\"1\",\"Testing\",\"Stims/Figures/102-C-20-4.bmp\",\"zahaha\",\"Down\",\"38\",\"1\",\"23\",\"3A\",\"C2\",\"C\",\"23\"
\"\",\"\",\"approach-retreat\",\"172\",\"1043735\",\"0.0-172.0\",\"\",\"\",\"2-3\",\"4220\",\"38\",\"1\",\"Testing\",\"Stims/Figures/74-J-10-4.bmp\",\"fa:fa:sha\",\"Up\",\"38\",\"1\",\"24\",\"3A\",\"C1\",\"C\",\"24\"
\"\",\"\",\"approach-retreat\",\"173\",\"1049321\",\"0.0-173.0\",\"\",\"\",\"2-3\",\"4080\",\"38\",\"1\",\"Testing\",\"Stims/Figures/100-J-10-3.bmp\",\"fa:fa:sha\",\"Up\",\"38\",\"2\",\"1\",\"3A\",\"C1\",\"C\",\"25\"
\"\",\"\",\"approach-retreat\",\"174\",\"1055053\",\"0.0-174.0\",\"\",\"\",\"2-3\",\"4223\",\"38\",\"1\",\"Testing\",\"Stims/Figures/86-C-30-1.bmp\",\"zahaha\",\"Down\",\"38\",\"2\",\"2\",\"3A\",\"C2\",\"C\",\"26\"
\"\",\"\",\"approach-retreat\",\"175\",\"1060681\",\"0.0-175.0\",\"\",\"\",\"2-3\",\"4121\",\"39\",\"1\",\"Testing\",\"Stims/Figures/44-C-30-3.bmp\",\"zahaha\",\"Left\",\"39\",\"2\",\"3\",\"3A\",\"C2\",\"C\",\"27\"
\"\",\"\",\"approach-retreat\",\"176\",\"1066550\",\"0.0-176.0\",\"\",\"\",\"2-3\",\"4365\",\"37\",\"1\",\"Testing\",\"Stims/Figures/100-C-30-3.bmp\",\"zahaha\",\"Right\",\"37\",\"2\",\"4\",\"3A\",\"C2\",\"C\",\"28\"
\"\",\"\",\"approach-retreat\",\"177\",\"1072282\",\"0.0-177.0\",\"\",\"\",\"2-3\",\"4224\",\"39\",\"1\",\"Testing\",\"Stims/Figures/102-C-20-4.bmp\",\"zahaha\",\"Left\",\"39\",\"2\",\"5\",\"3A\",\"C2\",\"C\",\"29\"
\"\",\"\",\"approach-retreat\",\"178\",\"1077997\",\"0.0-178.0\",\"\",\"\",\"2-3\",\"4205\",\"38\",\"1\",\"Testing\",\"Stims/Figures/93-C-30-1.bmp\",\"zahaha\",\"Down\",\"38\",\"2\",\"6\",\"3A\",\"C2\",\"C\",\"30\"
\"\",\"\",\"approach-retreat\",\"179\",\"1084032\",\"0.0-179.0\",\"\",\"\",\"2-3\",\"4529\",\"40\",\"1\",\"Testing\",\"Stims/Figures/44-J-10-3.bmp\",\"fa:fa:sha\",\"Down\",\"40\",\"2\",\"7\",\"3A\",\"C1\",\"C\",\"31\"
\"\",\"\",\"approach-retreat\",\"180\",\"1089812\",\"0.0-180.0\",\"\",\"\",\"2-3\",\"4270\",\"40\",\"1\",\"Testing\",\"Stims/Figures/84-J-0-2.bmp\",\"fa:fa:sha\",\"Down\",\"40\",\"2\",\"8\",\"3A\",\"C1\",\"C\",\"32\"
\"\",\"\",\"approach-retreat\",\"181\",\"1095471\",\"0.0-181.0\",\"\",\"\",\"2-3\",\"4146\",\"37\",\"1\",\"Testing\",\"Stims/Figures/102-J-10-4.bmp\",\"fa:fa:sha\",\"Left\",\"37\",\"2\",\"9\",\"3A\",\"C1\",\"C\",\"33\"
\"\",\"\",\"approach-retreat\",\"182\",\"1101015\",\"0.0-182.0\",\"\",\"\",\"2-3\",\"4029\",\"37\",\"1\",\"Testing\",\"Stims/Figures/84-C-20-2.bmp\",\"zahaha\",\"Right\",\"37\",\"2\",\"10\",\"3A\",\"C2\",\"C\",\"34\"
\"\",\"\",\"approach-retreat\",\"183\",\"1106713\",\"0.0-183.0\",\"\",\"\",\"2-3\",\"4190\",\"38\",\"1\",\"Testing\",\"Stims/Figures/144-C-30-3.bmp\",\"zahaha\",\"Down\",\"38\",\"2\",\"11\",\"3A\",\"C2\",\"C\",\"35\"
\"\",\"\",\"approach-retreat\",\"184\",\"1112683\",\"0.0-184.0\",\"\",\"\",\"2-3\",\"4462\",\"39\",\"1\",\"Testing\",\"Stims/Figures/118-J-0-2.bmp\",\"fa:fa:sha\",\"Right\",\"39\",\"2\",\"12\",\"3A\",\"C1\",\"C\",\"36\"
\"\",\"\",\"approach-retreat\",\"185\",\"1118448\",\"0.0-185.0\",\"\",\"\",\"2-3\",\"4244\",\"37\",\"1\",\"Testing\",\"Stims/Figures/93-J-0-1.bmp\",\"fa:fa:sha\",\"Left\",\"37\",\"2\",\"13\",\"3A\",\"C1\",\"C\",\"37\"
\"\",\"\",\"approach-retreat\",\"186\",\"1124217\",\"0.0-186.0\",\"\",\"\",\"2-3\",\"4265\",\"39\",\"1\",\"Testing\",\"Stims/Figures/71-J-0-1.bmp\",\"fa:fa:sha\",\"Right\",\"39\",\"2\",\"14\",\"3A\",\"C1\",\"C\",\"38\"
\"\",\"\",\"approach-retreat\",\"187\",\"1130614\",\"0.0-187.0\",\"\",\"\",\"2-3\",\"4880\",\"40\",\"1\",\"Testing\",\"Stims/Figures/71-C-30-1.bmp\",\"zahaha\",\"Up\",\"40\",\"2\",\"15\",\"3A\",\"C2\",\"C\",\"39\"
\"\",\"\",\"approach-retreat\",\"188\",\"1136464\",\"0.0-188.0\",\"\",\"\",\"2-3\",\"4348\",\"37\",\"1\",\"Testing\",\"Stims/Figures/94-C-20-2.bmp\",\"zahaha\",\"Right\",\"37\",\"2\",\"16\",\"3A\",\"C2\",\"C\",\"40\"
\"\",\"\",\"approach-retreat\",\"189\",\"1142196\",\"0.0-189.0\",\"\",\"\",\"2-3\",\"4215\",\"40\",\"1\",\"Testing\",\"Stims/Figures/74-C-20-4.bmp\",\"zahaha\",\"Up\",\"40\",\"2\",\"17\",\"3A\",\"C2\",\"C\",\"41\"
\"\",\"\",\"approach-retreat\",\"190\",\"1148035\",\"0.0-190.0\",\"\",\"\",\"2-3\",\"4333\",\"37\",\"1\",\"Testing\",\"Stims/Figures/118-C-20-2.bmp\",\"zahaha\",\"Right\",\"37\",\"2\",\"18\",\"3A\",\"C2\",\"C\",\"42\"
\"\",\"\",\"approach-retreat\",\"191\",\"1153729\",\"0.0-191.0\",\"\",\"\",\"2-3\",\"4190\",\"38\",\"1\",\"Testing\",\"Stims/Figures/144-J-10-3.bmp\",\"fa:fa:sha\",\"Up\",\"38\",\"2\",\"19\",\"3A\",\"C1\",\"C\",\"43\"
\"\",\"\",\"approach-retreat\",\"192\",\"1159595\",\"0.0-192.0\",\"\",\"\",\"2-3\",\"4358\",\"38\",\"1\",\"Testing\",\"Stims/Figures/19-J-10-4.bmp\",\"fa:fa:sha\",\"Up\",\"38\",\"2\",\"20\",\"3A\",\"C1\",\"C\",\"44\"
\"\",\"\",\"approach-retreat\",\"193\",\"1165710\",\"0.0-193.0\",\"\",\"\",\"2-3\",\"4597\",\"38\",\"1\",\"Testing\",\"Stims/Figures/74-J-10-4.bmp\",\"fa:fa:sha\",\"Up\",\"38\",\"2\",\"21\",\"3A\",\"C1\",\"C\",\"45\"
\"\",\"\",\"approach-retreat\",\"194\",\"1171361\",\"0.0-194.0\",\"\",\"\",\"2-3\",\"4145\",\"40\",\"1\",\"Testing\",\"Stims/Figures/94-J-0-2.bmp\",\"fa:fa:sha\",\"Down\",\"40\",\"2\",\"22\",\"3A\",\"C1\",\"C\",\"46\"
\"\",\"\",\"approach-retreat\",\"195\",\"1177157\",\"0.0-195.0\",\"\",\"\",\"2-3\",\"4291\",\"37\",\"0\",\"Testing\",\"Stims/Figures/19-C-20-4.bmp\",\"zahaha\",\"Left\",\"39\",\"2\",\"23\",\"3A\",\"C2\",\"C\",\"47\"
\"\",\"\",\"approach-retreat\",\"196\",\"1183407\",\"0.0-196.0\",\"\",\"\",\"2-3\",\"4744\",\"37\",\"1\",\"Testing\",\"Stims/Figures/86-J-0-1.bmp\",\"fa:fa:sha\",\"Left\",\"37\",\"2\",\"24\",\"3A\",\"C1\",\"C\",\"48\"
\"\",\"\",\"approach-retreat\",\"197\",\"1189073\",\"0.0-197.0\",\"\",\"\",\"2-3\",\"4149\",\"37\",\"1\",\"Testing\",\"Stims/Figures/44-C-30-3.bmp\",\"zahaha\",\"Right\",\"37\",\"3\",\"1\",\"3A\",\"C2\",\"C\",\"49\"
\"\",\"\",\"approach-retreat\",\"198\",\"1194738\",\"0.0-198.0\",\"\",\"\",\"2-3\",\"4146\",\"40\",\"1\",\"Testing\",\"Stims/Figures/86-J-0-1.bmp\",\"fa:fa:sha\",\"Down\",\"40\",\"3\",\"2\",\"3A\",\"C1\",\"C\",\"50\"
\"\",\"\",\"approach-retreat\",\"199\",\"1200754\",\"0.0-199.0\",\"\",\"\",\"2-3\",\"4505\",\"39\",\"1\",\"Testing\",\"Stims/Figures/84-C-20-2.bmp\",\"zahaha\",\"Left\",\"39\",\"3\",\"3\",\"3A\",\"C2\",\"C\",\"51\"
\"\",\"\",\"approach-retreat\",\"200\",\"1206819\",\"0.0-200.0\",\"\",\"\",\"2-3\",\"4563\",\"38\",\"1\",\"Testing\",\"Stims/Figures/93-J-0-1.bmp\",\"fa:fa:sha\",\"Up\",\"38\",\"3\",\"4\",\"3A\",\"C1\",\"C\",\"52\"
\"\",\"\",\"approach-retreat\",\"201\",\"1212869\",\"0.0-201.0\",\"\",\"\",\"2-3\",\"4543\",\"38\",\"1\",\"Testing\",\"Stims/Figures/144-C-30-3.bmp\",\"zahaha\",\"Down\",\"38\",\"3\",\"5\",\"3A\",\"C2\",\"C\",\"53\"
\"\",\"\",\"approach-retreat\",\"202\",\"1218705\",\"0.0-202.0\",\"\",\"\",\"2-3\",\"4326\",\"40\",\"1\",\"Testing\",\"Stims/Figures/44-J-10-3.bmp\",\"fa:fa:sha\",\"Down\",\"40\",\"3\",\"6\",\"3A\",\"C1\",\"C\",\"54\"
\"\",\"\",\"approach-retreat\",\"203\",\"1224419\",\"0.0-203.0\",\"\",\"\",\"2-3\",\"4204\",\"38\",\"1\",\"Testing\",\"Stims/Figures/93-C-30-1.bmp\",\"zahaha\",\"Down\",\"38\",\"3\",\"7\",\"3A\",\"C2\",\"C\",\"55\"
\"\",\"\",\"approach-retreat\",\"204\",\"1230203\",\"0.0-204.0\",\"\",\"\",\"2-3\",\"4272\",\"39\",\"1\",\"Testing\",\"Stims/Figures/100-C-30-3.bmp\",\"zahaha\",\"Left\",\"39\",\"3\",\"8\",\"3A\",\"C2\",\"C\",\"56\"
\"\",\"\",\"approach-retreat\",\"205\",\"1236328\",\"0.0-205.0\",\"\",\"\",\"2-3\",\"4625\",\"37\",\"1\",\"Testing\",\"Stims/Figures/71-C-30-1.bmp\",\"zahaha\",\"Right\",\"37\",\"3\",\"9\",\"3A\",\"C2\",\"C\",\"57\"
\"\",\"\",\"approach-retreat\",\"206\",\"1241995\",\"0.0-206.0\",\"\",\"\",\"2-3\",\"4149\",\"39\",\"1\",\"Testing\",\"Stims/Figures/118-C-20-2.bmp\",\"zahaha\",\"Left\",\"39\",\"3\",\"10\",\"3A\",\"C2\",\"C\",\"58\"
\"\",\"\",\"approach-retreat\",\"207\",\"1247533\",\"0.0-207.0\",\"\",\"\",\"2-3\",\"4026\",\"38\",\"1\",\"Testing\",\"Stims/Figures/118-J-0-2.bmp\",\"fa:fa:sha\",\"Up\",\"38\",\"3\",\"11\",\"3A\",\"C1\",\"C\",\"59\"
\"\",\"\",\"approach-retreat\",\"208\",\"1253578\",\"0.0-208.0\",\"\",\"\",\"2-3\",\"4527\",\"39\",\"1\",\"Testing\",\"Stims/Figures/74-J-10-4.bmp\",\"fa:fa:sha\",\"Right\",\"39\",\"3\",\"12\",\"3A\",\"C1\",\"C\",\"60\"
\"\",\"\",\"approach-retreat\",\"209\",\"1259776\",\"0.0-209.0\",\"\",\"\",\"2-3\",\"4682\",\"37\",\"1\",\"Testing\",\"Stims/Figures/19-C-20-4.bmp\",\"zahaha\",\"Right\",\"37\",\"3\",\"13\",\"3A\",\"C2\",\"C\",\"61\"
\"\",\"\",\"approach-retreat\",\"210\",\"1266597\",\"0.0-210.0\",\"\",\"\",\"2-3\",\"5317\",\"37\",\"1\",\"Testing\",\"Stims/Figures/102-C-20-4.bmp\",\"zahaha\",\"Right\",\"37\",\"3\",\"14\",\"3A\",\"C2\",\"C\",\"62\"
\"\",\"\",\"approach-retreat\",\"211\",\"1272409\",\"0.0-211.0\",\"\",\"\",\"2-3\",\"4294\",\"40\",\"1\",\"Testing\",\"Stims/Figures/94-J-0-2.bmp\",\"fa:fa:sha\",\"Down\",\"40\",\"3\",\"15\",\"3A\",\"C1\",\"C\",\"63\"
\"\",\"\",\"approach-retreat\",\"212\",\"1278529\",\"0.0-212.0\",\"\",\"\",\"2-3\",\"4611\",\"39\",\"1\",\"Testing\",\"Stims/Figures/74-C-20-4.bmp\",\"zahaha\",\"Left\",\"39\",\"3\",\"16\",\"3A\",\"C2\",\"C\",\"64\"
\"\",\"\",\"approach-retreat\",\"213\",\"1284209\",\"0.0-213.0\",\"\",\"\",\"2-3\",\"4171\",\"37\",\"1\",\"Testing\",\"Stims/Figures/19-J-10-4.bmp\",\"fa:fa:sha\",\"Left\",\"37\",\"3\",\"17\",\"3A\",\"C1\",\"C\",\"65\"
\"\",\"\",\"approach-retreat\",\"214\",\"1289913\",\"0.0-214.0\",\"\",\"\",\"2-3\",\"4187\",\"39\",\"0\",\"Testing\",\"Stims/Figures/86-C-30-1.bmp\",\"zahaha\",\"Right\",\"37\",\"3\",\"18\",\"3A\",\"C2\",\"C\",\"66\"
\"\",\"\",\"approach-retreat\",\"215\",\"1296102\",\"0.0-215.0\",\"\",\"\",\"2-3\",\"4666\",\"40\",\"1\",\"Testing\",\"Stims/Figures/71-J-0-1.bmp\",\"fa:fa:sha\",\"Down\",\"40\",\"3\",\"19\",\"3A\",\"C1\",\"C\",\"67\"
\"\",\"\",\"approach-retreat\",\"216\",\"1301702\",\"0.0-216.0\",\"\",\"\",\"2-3\",\"4091\",\"38\",\"1\",\"Testing\",\"Stims/Figures/144-J-10-3.bmp\",\"fa:fa:sha\",\"Up\",\"38\",\"3\",\"20\",\"3A\",\"C1\",\"C\",\"68\"
\"\",\"\",\"approach-retreat\",\"217\",\"1307701\",\"0.0-217.0\",\"\",\"\",\"2-3\",\"4482\",\"38\",\"1\",\"Testing\",\"Stims/Figures/100-J-10-3.bmp\",\"fa:fa:sha\",\"Up\",\"38\",\"3\",\"21\",\"3A\",\"C1\",\"C\",\"69\"
\"\",\"\",\"approach-retreat\",\"218\",\"1313268\",\"0.0-218.0\",\"\",\"\",\"2-3\",\"4050\",\"37\",\"1\",\"Testing\",\"Stims/Figures/102-J-10-4.bmp\",\"fa:fa:sha\",\"Left\",\"37\",\"3\",\"22\",\"3A\",\"C1\",\"C\",\"70\"
\"\",\"\",\"approach-retreat\",\"219\",\"1318917\",\"0.0-219.0\",\"\",\"\",\"2-3\",\"4132\",\"38\",\"1\",\"Testing\",\"Stims/Figures/84-J-0-2.bmp\",\"fa:fa:sha\",\"Up\",\"38\",\"3\",\"23\",\"3A\",\"C1\",\"C\",\"71\"
\"\",\"\",\"approach-retreat\",\"220\",\"1324617\",\"0.0-220.0\",\"\",\"\",\"2-3\",\"4187\",\"38\",\"0\",\"Testing\",\"Stims/Figures/94-C-20-2.bmp\",\"zahaha\",\"Up\",\"40\",\"3\",\"24\",\"3A\",\"C2\",\"C\",\"72\"
\"\",\"\",\"approach-retreat\",\"221\",\"1331016\",\"0.0-221.0\",\"\",\"\",\"2-3\",\"4894\",\"38\",\"0\",\"Testing\",\"Stims/Figures/102-J-10-4.bmp\",\"fa:fa:sha\",\"Down\",\"40\",\"4\",\"1\",\"3A\",\"C1\",\"C\",\"73\"
\"\",\"\",\"approach-retreat\",\"222\",\"1337417\",\"0.0-222.0\",\"\",\"\",\"2-3\",\"4895\",\"37\",\"0\",\"Testing\",\"Stims/Figures/74-J-10-4.bmp\",\"fa:fa:sha\",\"Right\",\"39\",\"4\",\"2\",\"3A\",\"C1\",\"C\",\"74\"
\"\",\"\",\"approach-retreat\",\"223\",\"1344015\",\"0.0-223.0\",\"\",\"\",\"2-3\",\"5086\",\"38\",\"1\",\"Testing\",\"Stims/Figures/71-J-0-1.bmp\",\"fa:fa:sha\",\"Up\",\"38\",\"4\",\"3\",\"3A\",\"C1\",\"C\",\"75\"
\"\",\"\",\"approach-retreat\",\"224\",\"1349770\",\"0.0-224.0\",\"\",\"\",\"2-3\",\"4249\",\"37\",\"1\",\"Testing\",\"Stims/Figures/118-C-20-2.bmp\",\"zahaha\",\"Right\",\"37\",\"4\",\"4\",\"3A\",\"C2\",\"C\",\"76\"
\"\",\"\",\"approach-retreat\",\"225\",\"1355998\",\"0.0-225.0\",\"\",\"\",\"2-3\",\"4718\",\"38\",\"1\",\"Testing\",\"Stims/Figures/86-J-0-1.bmp\",\"fa:fa:sha\",\"Up\",\"38\",\"4\",\"5\",\"3A\",\"C1\",\"C\",\"77\"
\"\",\"\",\"approach-retreat\",\"226\",\"1362364\",\"0.0-226.0\",\"\",\"\",\"2-3\",\"4850\",\"39\",\"1\",\"Testing\",\"Stims/Figures/100-J-10-3.bmp\",\"fa:fa:sha\",\"Right\",\"39\",\"4\",\"6\",\"3A\",\"C1\",\"C\",\"78\"
\"\",\"\",\"approach-retreat\",\"227\",\"1369165\",\"0.0-227.0\",\"\",\"\",\"2-3\",\"5290\",\"38\",\"1\",\"Testing\",\"Stims/Figures/74-C-20-4.bmp\",\"zahaha\",\"Down\",\"38\",\"4\",\"7\",\"3A\",\"C2\",\"C\",\"79\"
\"\",\"\",\"approach-retreat\",\"228\",\"1375716\",\"0.0-228.0\",\"\",\"\",\"2-3\",\"5035\",\"37\",\"1\",\"Testing\",\"Stims/Figures/19-J-10-4.bmp\",\"fa:fa:sha\",\"Left\",\"37\",\"4\",\"8\",\"3A\",\"C1\",\"C\",\"80\"
\"\",\"\",\"approach-retreat\",\"229\",\"1381829\",\"0.0-229.0\",\"\",\"\",\"2-3\",\"4595\",\"38\",\"1\",\"Testing\",\"Stims/Figures/144-J-10-3.bmp\",\"fa:fa:sha\",\"Up\",\"38\",\"4\",\"9\",\"3A\",\"C1\",\"C\",\"81\"
\"\",\"\",\"approach-retreat\",\"230\",\"1387779\",\"0.0-230.0\",\"\",\"\",\"2-3\",\"4434\",\"38\",\"1\",\"Testing\",\"Stims/Figures/100-C-30-3.bmp\",\"zahaha\",\"Down\",\"38\",\"4\",\"10\",\"3A\",\"C2\",\"C\",\"82\"
\"\",\"\",\"approach-retreat\",\"231\",\"1393778\",\"0.0-231.0\",\"\",\"\",\"2-3\",\"4492\",\"38\",\"1\",\"Testing\",\"Stims/Figures/44-C-30-3.bmp\",\"zahaha\",\"Down\",\"38\",\"4\",\"11\",\"3A\",\"C2\",\"C\",\"83\"
\"\",\"\",\"approach-retreat\",\"232\",\"1399378\",\"0.0-232.0\",\"\",\"\",\"2-3\",\"4083\",\"37\",\"1\",\"Testing\",\"Stims/Figures/118-J-0-2.bmp\",\"fa:fa:sha\",\"Left\",\"37\",\"4\",\"12\",\"3A\",\"C1\",\"C\",\"84\"
\"\",\"\",\"approach-retreat\",\"233\",\"1405129\",\"0.0-233.0\",\"\",\"\",\"2-3\",\"4245\",\"37\",\"1\",\"Testing\",\"Stims/Figures/94-C-20-2.bmp\",\"zahaha\",\"Right\",\"37\",\"4\",\"13\",\"3A\",\"C2\",\"C\",\"85\"
\"\",\"\",\"approach-retreat\",\"234\",\"1411311\",\"0.0-234.0\",\"\",\"\",\"2-3\",\"4669\",\"37\",\"1\",\"Testing\",\"Stims/Figures/102-C-20-4.bmp\",\"zahaha\",\"Right\",\"37\",\"4\",\"14\",\"3A\",\"C2\",\"C\",\"86\"
\"\",\"\",\"approach-retreat\",\"235\",\"1417595\",\"0.0-235.0\",\"\",\"\",\"2-3\",\"4768\",\"40\",\"1\",\"Testing\",\"Stims/Figures/84-J-0-2.bmp\",\"fa:fa:sha\",\"Down\",\"40\",\"4\",\"15\",\"3A\",\"C1\",\"C\",\"87\"
\"\",\"\",\"approach-retreat\",\"236\",\"1423660\",\"0.0-236.0\",\"\",\"\",\"2-3\",\"4556\",\"39\",\"1\",\"Testing\",\"Stims/Figures/86-C-30-1.bmp\",\"zahaha\",\"Left\",\"39\",\"4\",\"16\",\"3A\",\"C2\",\"C\",\"88\"
\"\",\"\",\"approach-retreat\",\"237\",\"1429410\",\"0.0-237.0\",\"\",\"\",\"2-3\",\"4235\",\"40\",\"1\",\"Testing\",\"Stims/Figures/84-C-20-2.bmp\",\"zahaha\",\"Up\",\"40\",\"4\",\"17\",\"3A\",\"C2\",\"C\",\"89\"
\"\",\"\",\"approach-retreat\",\"238\",\"1435493\",\"0.0-238.0\",\"\",\"\",\"2-3\",\"4573\",\"39\",\"1\",\"Testing\",\"Stims/Figures/94-J-0-2.bmp\",\"fa:fa:sha\",\"Right\",\"39\",\"4\",\"18\",\"3A\",\"C1\",\"C\",\"90\"
\"\",\"\",\"approach-retreat\",\"239\",\"1441576\",\"0.0-239.0\",\"\",\"\",\"2-3\",\"4577\",\"39\",\"1\",\"Testing\",\"Stims/Figures/93-C-30-1.bmp\",\"zahaha\",\"Left\",\"39\",\"4\",\"19\",\"3A\",\"C2\",\"C\",\"91\"
\"\",\"\",\"approach-retreat\",\"240\",\"1447475\",\"0.0-240.0\",\"\",\"\",\"2-3\",\"4391\",\"38\",\"1\",\"Testing\",\"Stims/Figures/93-J-0-1.bmp\",\"fa:fa:sha\",\"Up\",\"38\",\"4\",\"20\",\"3A\",\"C1\",\"C\",\"92\"
\"\",\"\",\"approach-retreat\",\"241\",\"1453141\",\"0.0-241.0\",\"\",\"\",\"2-3\",\"4147\",\"39\",\"1\",\"Testing\",\"Stims/Figures/19-C-20-4.bmp\",\"zahaha\",\"Left\",\"39\",\"4\",\"21\",\"3A\",\"C2\",\"C\",\"93\"
\"\",\"\",\"approach-retreat\",\"242\",\"1459208\",\"0.0-242.0\",\"\",\"\",\"2-3\",\"4554\",\"38\",\"1\",\"Testing\",\"Stims/Figures/71-C-30-1.bmp\",\"zahaha\",\"Down\",\"38\",\"4\",\"22\",\"3A\",\"C2\",\"C\",\"94\"
\"\",\"\",\"approach-retreat\",\"243\",\"1464891\",\"0.0-243.0\",\"\",\"\",\"2-3\",\"4174\",\"38\",\"1\",\"Testing\",\"Stims/Figures/44-J-10-3.bmp\",\"fa:fa:sha\",\"Up\",\"38\",\"4\",\"23\",\"3A\",\"C1\",\"C\",\"95\"
\"\",\"\",\"approach-retreat\",\"244\",\"1471206\",\"0.0-244.0\",\"\",\"\",\"2-3\",\"4804\",\"39\",\"1\",\"Testing\",\"Stims/Figures/144-C-30-3.bmp\",\"zahaha\",\"Left\",\"39\",\"4\",\"24\",\"3A\",\"C2\",\"C\",\"96\"
\"26769\",\"\",\"survey-text\",\"245\",\"1497978\",\"0.0-245.0\",\"\",\"{\"\"Q0\"\":\"\"PS150006\"\"}\",\"\",\"\",\"\",\"\",\"\",\"\",\"\",\"\",\"\",\"\",\"\",\"\",\"\",\"\",\"\"
