\"rt\",\"key_press\",\"trial_type\",\"trial_index\",\"time_elapsed\",\"internal_node_id\",\"view_history\",\"responses\",\"Id\",\"Rt\",\"ResKeyCode\",\"ResCorr\",\"TrialType2\",\"Image\",\"Label\",\"Location\",\"CorrectResponse\",\"Block\",\"BlockTrial\",\"Condition\",\"LabelType\",\"Subcondition\",\"trialNum\"
\"28630\",\"32\",\"text\",\"0\",\"28636\",\"0.0-0.0-0.0\",\"\",\"\",\"\",\"\",\"\",\"\",\"\",\"\",\"\",\"\",\"\",\"\",\"\",\"\",\"\",\"\",\"\"
\"78597\",\"\",\"instructions\",\"1\",\"107235\",\"0.0-1.0\",\"[{\"\"page_index\"\":0,\"\"viewing_time\"\":78596}]\",\"\",\"\",\"\",\"\",\"\",\"\",\"\",\"\",\"\",\"\",\"\",\"\",\"\",\"\",\"\",\"\"
\"19895\",\"\",\"survey-multi-choice\",\"2\",\"127179\",\"0.0-2.0\",\"\",\"{\"\"Q0\"\":\"\"Da\"\",\"\"Q1\"\":\"\"Da\"\",\"\"Q2\"\":\"\"Da\"\",\"\"Q3\"\":\"\"Da\"\",\"\"Q4\"\":\"\"Da\"\",\"\"Q5\"\":\"\"Da\"\"}\",\"\",\"\",\"\",\"\",\"\",\"\",\"\",\"\",\"\",\"\",\"\",\"\",\"\",\"\",\"\"
\"\",\"\",\"bio\",\"3\",\"137143\",\"0.0-3.0\",\"\",\"{\"\"age\"\":\"\"20\"\",\"\"gender\"\":\"\"f\"\",\"\"specify\"\":\"\"\"\"}\",\"\",\"\",\"\",\"\",\"\",\"\",\"\",\"\",\"\",\"\",\"\",\"\",\"\",\"\",\"\"
\"\",\"\",\"approach-retreat\",\"4\",\"145087\",\"0.0-4.0\",\"\",\"\",\"2-1\",\"6425\",\"40\",\"1\",\"Training\",\"Stims/Figures/144-C-30-3.bmp\",\"zasa:ha\",\"Down\",\"40\",\"1\",\"1\",\"6A\",\"C2\",\"J\",\"1\"
\"\",\"\",\"approach-retreat\",\"5\",\"152333\",\"0.0-5.0\",\"\",\"\",\"2-1\",\"5729\",\"37\",\"0\",\"Training\",\"Stims/Figures/94-C-20-2.bmp\",\"za:haha\",\"Right\",\"39\",\"1\",\"2\",\"6A\",\"C2\",\"J\",\"2\"
\"\",\"\",\"approach-retreat\",\"6\",\"158466\",\"0.0-6.0\",\"\",\"\",\"2-1\",\"4614\",\"39\",\"1\",\"Training\",\"Stims/Figures/27-J-0-1.bmp\",\"vafa:sha\",\"Left\",\"39\",\"1\",\"3\",\"6A\",\"C1\",\"J\",\"3\"
\"\",\"\",\"approach-retreat\",\"7\",\"164666\",\"0.0-7.0\",\"\",\"\",\"2-1\",\"4677\",\"38\",\"1\",\"Training\",\"Stims/Figures/87-J-10-4.bmp\",\"fashasha\",\"Down\",\"38\",\"1\",\"4\",\"6A\",\"C1\",\"J\",\"4\"
\"\",\"\",\"approach-retreat\",\"8\",\"171002\",\"0.0-8.0\",\"\",\"\",\"2-1\",\"4813\",\"40\",\"1\",\"Training\",\"Stims/Figures/57-J-0-1.bmp\",\"va:fa:sha\",\"Up\",\"40\",\"1\",\"5\",\"6A\",\"C1\",\"J\",\"5\"
\"\",\"\",\"approach-retreat\",\"9\",\"178196\",\"0.0-9.0\",\"\",\"\",\"2-1\",\"5669\",\"38\",\"1\",\"Training\",\"Stims/Figures/118-C-20-2.bmp\",\"sa:saha\",\"Up\",\"38\",\"1\",\"6\",\"6A\",\"C2\",\"J\",\"6\"
\"\",\"\",\"approach-retreat\",\"10\",\"184364\",\"0.0-10.0\",\"\",\"\",\"2-1\",\"4647\",\"40\",\"1\",\"Training\",\"Stims/Figures/102-J-10-4.bmp\",\"fa:fasha\",\"Up\",\"40\",\"1\",\"7\",\"6A\",\"C1\",\"J\",\"7\"
\"\",\"\",\"approach-retreat\",\"11\",\"190661\",\"0.0-11.0\",\"\",\"\",\"2-1\",\"4782\",\"39\",\"0\",\"Training\",\"Stims/Figures/100-J-10-3.bmp\",\"vafava\",\"Right\",\"37\",\"1\",\"8\",\"6A\",\"C1\",\"J\",\"8\"
\"\",\"\",\"approach-retreat\",\"12\",\"196929\",\"0.0-12.0\",\"\",\"\",\"2-1\",\"4752\",\"40\",\"1\",\"Training\",\"Stims/Figures/87-C-20-4.bmp\",\"sahaza\",\"Down\",\"40\",\"1\",\"9\",\"6A\",\"C2\",\"J\",\"9\"
\"\",\"\",\"approach-retreat\",\"13\",\"202783\",\"0.0-13.0\",\"\",\"\",\"2-1\",\"4328\",\"39\",\"1\",\"Training\",\"Stims/Figures/94-J-0-2.bmp\",\"fafa:va\",\"Left\",\"39\",\"1\",\"10\",\"6A\",\"C1\",\"J\",\"10\"
\"\",\"\",\"approach-retreat\",\"14\",\"208711\",\"0.0-14.0\",\"\",\"\",\"2-1\",\"4405\",\"37\",\"1\",\"Training\",\"Stims/Figures/100-C-30-3.bmp\",\"sa:haha\",\"Left\",\"37\",\"1\",\"11\",\"6A\",\"C2\",\"J\",\"11\"
\"\",\"\",\"approach-retreat\",\"15\",\"214711\",\"0.0-15.0\",\"\",\"\",\"2-1\",\"4486\",\"39\",\"1\",\"Training\",\"Stims/Figures/102-C-20-4.bmp\",\"sasa:za\",\"Right\",\"39\",\"1\",\"12\",\"6A\",\"C2\",\"J\",\"12\"
\"\",\"\",\"approach-retreat\",\"16\",\"220611\",\"0.0-16.0\",\"\",\"\",\"2-1\",\"4376\",\"37\",\"1\",\"Training\",\"Stims/Figures/27-C-30-1.bmp\",\"saha:za\",\"Left\",\"37\",\"1\",\"13\",\"6A\",\"C2\",\"J\",\"13\"
\"\",\"\",\"approach-retreat\",\"17\",\"227711\",\"0.0-17.0\",\"\",\"\",\"2-1\",\"5576\",\"40\",\"0\",\"Training\",\"Stims/Figures/57-C-30-1.bmp\",\"sa:sa:ha\",\"Up\",\"38\",\"1\",\"14\",\"6A\",\"C2\",\"J\",\"14\"
\"\",\"\",\"approach-retreat\",\"18\",\"233778\",\"0.0-18.0\",\"\",\"\",\"2-1\",\"4542\",\"38\",\"1\",\"Training\",\"Stims/Figures/118-J-0-2.bmp\",\"vasha:sha\",\"Down\",\"38\",\"1\",\"15\",\"6A\",\"C1\",\"J\",\"15\"
\"\",\"\",\"approach-retreat\",\"19\",\"239850\",\"0.0-19.0\",\"\",\"\",\"2-1\",\"4549\",\"37\",\"1\",\"Training\",\"Stims/Figures/144-J-10-3.bmp\",\"fasha:va\",\"Right\",\"37\",\"1\",\"16\",\"6A\",\"C1\",\"J\",\"16\"
\"\",\"\",\"approach-retreat\",\"20\",\"245577\",\"0.0-20.0\",\"\",\"\",\"2-1\",\"4201\",\"39\",\"0\",\"Training\",\"Stims/Figures/118-C-20-2.bmp\",\"sa:saha\",\"Left\",\"37\",\"2\",\"1\",\"6A\",\"C2\",\"J\",\"17\"
\"\",\"\",\"approach-retreat\",\"21\",\"253442\",\"0.0-21.0\",\"\",\"\",\"2-1\",\"6352\",\"38\",\"1\",\"Training\",\"Stims/Figures/118-J-0-2.bmp\",\"vasha:sha\",\"Down\",\"38\",\"2\",\"2\",\"6A\",\"C1\",\"J\",\"18\"
\"\",\"\",\"approach-retreat\",\"22\",\"260510\",\"0.0-22.0\",\"\",\"\",\"2-1\",\"5547\",\"40\",\"1\",\"Training\",\"Stims/Figures/57-J-0-1.bmp\",\"va:fa:sha\",\"Up\",\"40\",\"2\",\"3\",\"6A\",\"C1\",\"J\",\"19\"
\"\",\"\",\"approach-retreat\",\"23\",\"266098\",\"0.0-23.0\",\"\",\"\",\"2-1\",\"4068\",\"38\",\"1\",\"Training\",\"Stims/Figures/87-J-10-4.bmp\",\"fashasha\",\"Down\",\"38\",\"2\",\"4\",\"6A\",\"C1\",\"J\",\"20\"
\"\",\"\",\"approach-retreat\",\"24\",\"271708\",\"0.0-24.0\",\"\",\"\",\"2-1\",\"4093\",\"40\",\"1\",\"Training\",\"Stims/Figures/144-C-30-3.bmp\",\"zasa:ha\",\"Down\",\"40\",\"2\",\"5\",\"6A\",\"C2\",\"J\",\"21\"
\"\",\"\",\"approach-retreat\",\"25\",\"277691\",\"0.0-25.0\",\"\",\"\",\"2-1\",\"4461\",\"40\",\"1\",\"Training\",\"Stims/Figures/94-J-0-2.bmp\",\"fafa:va\",\"Up\",\"40\",\"2\",\"6\",\"6A\",\"C1\",\"J\",\"22\"
\"\",\"\",\"approach-retreat\",\"26\",\"283491\",\"0.0-26.0\",\"\",\"\",\"2-1\",\"4277\",\"39\",\"0\",\"Training\",\"Stims/Figures/94-C-20-2.bmp\",\"za:haha\",\"Left\",\"37\",\"2\",\"7\",\"6A\",\"C2\",\"J\",\"23\"
\"\",\"\",\"approach-retreat\",\"27\",\"290980\",\"0.0-27.0\",\"\",\"\",\"2-1\",\"5972\",\"39\",\"1\",\"Training\",\"Stims/Figures/102-C-20-4.bmp\",\"sasa:za\",\"Right\",\"39\",\"2\",\"8\",\"6A\",\"C2\",\"J\",\"24\"
\"\",\"\",\"approach-retreat\",\"28\",\"297655\",\"0.0-28.0\",\"\",\"\",\"2-1\",\"5156\",\"39\",\"0\",\"Training\",\"Stims/Figures/100-J-10-3.bmp\",\"vafava\",\"Right\",\"37\",\"2\",\"9\",\"6A\",\"C1\",\"J\",\"25\"
\"\",\"\",\"approach-retreat\",\"29\",\"303625\",\"0.0-29.0\",\"\",\"\",\"2-1\",\"4454\",\"37\",\"1\",\"Training\",\"Stims/Figures/87-C-20-4.bmp\",\"sahaza\",\"Left\",\"37\",\"2\",\"10\",\"6A\",\"C2\",\"J\",\"26\"
\"\",\"\",\"approach-retreat\",\"30\",\"310062\",\"0.0-30.0\",\"\",\"\",\"2-1\",\"4920\",\"40\",\"1\",\"Training\",\"Stims/Figures/102-J-10-4.bmp\",\"fa:fasha\",\"Up\",\"40\",\"2\",\"11\",\"6A\",\"C1\",\"J\",\"27\"
\"\",\"\",\"approach-retreat\",\"31\",\"316524\",\"0.0-31.0\",\"\",\"\",\"2-1\",\"4945\",\"38\",\"1\",\"Training\",\"Stims/Figures/57-C-30-1.bmp\",\"sa:sa:ha\",\"Up\",\"38\",\"2\",\"12\",\"6A\",\"C2\",\"J\",\"28\"
\"\",\"\",\"approach-retreat\",\"32\",\"322788\",\"0.0-32.0\",\"\",\"\",\"2-1\",\"4751\",\"37\",\"0\",\"Training\",\"Stims/Figures/100-C-30-3.bmp\",\"sa:haha\",\"Right\",\"39\",\"2\",\"13\",\"6A\",\"C2\",\"J\",\"29\"
\"\",\"\",\"approach-retreat\",\"33\",\"328743\",\"0.0-33.0\",\"\",\"\",\"2-1\",\"4429\",\"37\",\"1\",\"Training\",\"Stims/Figures/27-C-30-1.bmp\",\"saha:za\",\"Left\",\"37\",\"2\",\"14\",\"6A\",\"C2\",\"J\",\"30\"
\"\",\"\",\"approach-retreat\",\"34\",\"335792\",\"0.0-34.0\",\"\",\"\",\"2-1\",\"5536\",\"40\",\"0\",\"Training\",\"Stims/Figures/144-J-10-3.bmp\",\"fasha:va\",\"Down\",\"38\",\"2\",\"15\",\"6A\",\"C1\",\"J\",\"31\"
\"\",\"\",\"approach-retreat\",\"35\",\"342053\",\"0.0-35.0\",\"\",\"\",\"2-1\",\"4744\",\"39\",\"0\",\"Training\",\"Stims/Figures/27-J-0-1.bmp\",\"vafa:sha\",\"Right\",\"37\",\"2\",\"16\",\"6A\",\"C1\",\"J\",\"32\"
\"\",\"\",\"approach-retreat\",\"36\",\"347919\",\"0.0-36.0\",\"\",\"\",\"2-1\",\"4352\",\"38\",\"0\",\"Training\",\"Stims/Figures/118-C-20-2.bmp\",\"sa:saha\",\"Down\",\"40\",\"3\",\"1\",\"6A\",\"C2\",\"J\",\"33\"
\"\",\"\",\"approach-retreat\",\"37\",\"354175\",\"0.0-37.0\",\"\",\"\",\"2-1\",\"4735\",\"39\",\"0\",\"Training\",\"Stims/Figures/144-J-10-3.bmp\",\"fasha:va\",\"Right\",\"37\",\"3\",\"2\",\"6A\",\"C1\",\"J\",\"34\"
\"\",\"\",\"approach-retreat\",\"38\",\"359955\",\"0.0-38.0\",\"\",\"\",\"2-1\",\"4267\",\"37\",\"1\",\"Training\",\"Stims/Figures/102-C-20-4.bmp\",\"sasa:za\",\"Left\",\"37\",\"3\",\"3\",\"6A\",\"C2\",\"J\",\"35\"
\"\",\"\",\"approach-retreat\",\"39\",\"365619\",\"0.0-39.0\",\"\",\"\",\"2-1\",\"4137\",\"38\",\"1\",\"Training\",\"Stims/Figures/27-J-0-1.bmp\",\"vafa:sha\",\"Down\",\"38\",\"3\",\"4\",\"6A\",\"C1\",\"J\",\"36\"
\"\",\"\",\"approach-retreat\",\"40\",\"372201\",\"0.0-40.0\",\"\",\"\",\"2-1\",\"5070\",\"38\",\"0\",\"Training\",\"Stims/Figures/102-J-10-4.bmp\",\"fa:fasha\",\"Up\",\"40\",\"3\",\"5\",\"6A\",\"C1\",\"J\",\"37\"
\"\",\"\",\"approach-retreat\",\"41\",\"378282\",\"0.0-41.0\",\"\",\"\",\"2-1\",\"4556\",\"39\",\"0\",\"Training\",\"Stims/Figures/118-J-0-2.bmp\",\"vasha:sha\",\"Right\",\"37\",\"3\",\"6\",\"6A\",\"C1\",\"J\",\"38\"
\"\",\"\",\"approach-retreat\",\"42\",\"384285\",\"0.0-42.0\",\"\",\"\",\"2-1\",\"4477\",\"37\",\"1\",\"Training\",\"Stims/Figures/94-J-0-2.bmp\",\"fafa:va\",\"Right\",\"37\",\"3\",\"7\",\"6A\",\"C1\",\"J\",\"39\"
\"\",\"\",\"approach-retreat\",\"43\",\"390508\",\"0.0-43.0\",\"\",\"\",\"2-1\",\"4705\",\"40\",\"1\",\"Training\",\"Stims/Figures/100-J-10-3.bmp\",\"vafava\",\"Up\",\"40\",\"3\",\"8\",\"6A\",\"C1\",\"J\",\"40\"
\"\",\"\",\"approach-retreat\",\"44\",\"396619\",\"0.0-44.0\",\"\",\"\",\"2-1\",\"4587\",\"37\",\"1\",\"Training\",\"Stims/Figures/57-C-30-1.bmp\",\"sa:sa:ha\",\"Left\",\"37\",\"3\",\"9\",\"6A\",\"C2\",\"J\",\"41\"
\"\",\"\",\"approach-retreat\",\"45\",\"403518\",\"0.0-45.0\",\"\",\"\",\"2-1\",\"5388\",\"40\",\"1\",\"Training\",\"Stims/Figures/100-C-30-3.bmp\",\"sa:haha\",\"Down\",\"40\",\"3\",\"10\",\"6A\",\"C2\",\"J\",\"42\"
\"\",\"\",\"approach-retreat\",\"46\",\"409787\",\"0.0-46.0\",\"\",\"\",\"2-1\",\"4758\",\"39\",\"1\",\"Training\",\"Stims/Figures/87-C-20-4.bmp\",\"sahaza\",\"Right\",\"39\",\"3\",\"11\",\"6A\",\"C2\",\"J\",\"43\"
\"\",\"\",\"approach-retreat\",\"47\",\"415888\",\"0.0-47.0\",\"\",\"\",\"2-1\",\"4579\",\"37\",\"1\",\"Training\",\"Stims/Figures/94-C-20-2.bmp\",\"za:haha\",\"Left\",\"37\",\"3\",\"12\",\"6A\",\"C2\",\"J\",\"44\"
\"\",\"\",\"approach-retreat\",\"48\",\"422986\",\"0.0-48.0\",\"\",\"\",\"2-1\",\"5570\",\"40\",\"1\",\"Training\",\"Stims/Figures/57-J-0-1.bmp\",\"va:fa:sha\",\"Up\",\"40\",\"3\",\"13\",\"6A\",\"C1\",\"J\",\"45\"
\"\",\"\",\"approach-retreat\",\"49\",\"429205\",\"0.0-49.0\",\"\",\"\",\"2-1\",\"4708\",\"40\",\"1\",\"Training\",\"Stims/Figures/27-C-30-1.bmp\",\"saha:za\",\"Down\",\"40\",\"3\",\"14\",\"6A\",\"C2\",\"J\",\"46\"
\"\",\"\",\"approach-retreat\",\"50\",\"435165\",\"0.0-50.0\",\"\",\"\",\"2-1\",\"4435\",\"39\",\"0\",\"Training\",\"Stims/Figures/144-C-30-3.bmp\",\"zasa:ha\",\"Left\",\"37\",\"3\",\"15\",\"6A\",\"C2\",\"J\",\"47\"
\"\",\"\",\"approach-retreat\",\"51\",\"441650\",\"0.0-51.0\",\"\",\"\",\"2-1\",\"4969\",\"38\",\"0\",\"Training\",\"Stims/Figures/87-J-10-4.bmp\",\"fashasha\",\"Up\",\"40\",\"3\",\"16\",\"6A\",\"C1\",\"J\",\"48\"
\"\",\"\",\"approach-retreat\",\"52\",\"447538\",\"0.0-52.0\",\"\",\"\",\"2-1\",\"4377\",\"38\",\"1\",\"Training\",\"Stims/Figures/102-J-10-4.bmp\",\"fa:fasha\",\"Down\",\"38\",\"4\",\"1\",\"6A\",\"C1\",\"J\",\"49\"
\"\",\"\",\"approach-retreat\",\"53\",\"453902\",\"0.0-53.0\",\"\",\"\",\"2-1\",\"4852\",\"38\",\"1\",\"Training\",\"Stims/Figures/57-J-0-1.bmp\",\"va:fa:sha\",\"Down\",\"38\",\"4\",\"2\",\"6A\",\"C1\",\"J\",\"50\"
\"\",\"\",\"approach-retreat\",\"54\",\"460056\",\"0.0-54.0\",\"\",\"\",\"2-1\",\"4627\",\"38\",\"1\",\"Training\",\"Stims/Figures/144-J-10-3.bmp\",\"fasha:va\",\"Down\",\"38\",\"4\",\"3\",\"6A\",\"C1\",\"J\",\"51\"
\"\",\"\",\"approach-retreat\",\"55\",\"466368\",\"0.0-55.0\",\"\",\"\",\"2-1\",\"4799\",\"38\",\"1\",\"Training\",\"Stims/Figures/102-C-20-4.bmp\",\"sasa:za\",\"Up\",\"38\",\"4\",\"4\",\"6A\",\"C2\",\"J\",\"52\"
\"\",\"\",\"approach-retreat\",\"56\",\"472305\",\"0.0-56.0\",\"\",\"\",\"2-1\",\"4412\",\"37\",\"1\",\"Training\",\"Stims/Figures/100-C-30-3.bmp\",\"sa:haha\",\"Left\",\"37\",\"4\",\"5\",\"6A\",\"C2\",\"J\",\"53\"
\"\",\"\",\"approach-retreat\",\"57\",\"478414\",\"0.0-57.0\",\"\",\"\",\"2-1\",\"4591\",\"37\",\"0\",\"Training\",\"Stims/Figures/144-C-30-3.bmp\",\"zasa:ha\",\"Right\",\"39\",\"4\",\"6\",\"6A\",\"C2\",\"J\",\"54\"
\"\",\"\",\"approach-retreat\",\"58\",\"484569\",\"0.0-58.0\",\"\",\"\",\"2-1\",\"4645\",\"38\",\"1\",\"Training\",\"Stims/Figures/27-C-30-1.bmp\",\"saha:za\",\"Up\",\"38\",\"4\",\"7\",\"6A\",\"C2\",\"J\",\"55\"
\"\",\"\",\"approach-retreat\",\"59\",\"490616\",\"0.0-59.0\",\"\",\"\",\"2-1\",\"4535\",\"40\",\"1\",\"Training\",\"Stims/Figures/100-J-10-3.bmp\",\"vafava\",\"Up\",\"40\",\"4\",\"8\",\"6A\",\"C1\",\"J\",\"56\"
\"\",\"\",\"approach-retreat\",\"60\",\"496568\",\"0.0-60.0\",\"\",\"\",\"2-1\",\"4441\",\"37\",\"1\",\"Training\",\"Stims/Figures/118-J-0-2.bmp\",\"vasha:sha\",\"Right\",\"37\",\"4\",\"9\",\"6A\",\"C1\",\"J\",\"57\"
\"\",\"\",\"approach-retreat\",\"61\",\"502680\",\"0.0-61.0\",\"\",\"\",\"2-1\",\"4596\",\"39\",\"0\",\"Training\",\"Stims/Figures/57-C-30-1.bmp\",\"sa:sa:ha\",\"Left\",\"37\",\"4\",\"10\",\"6A\",\"C2\",\"J\",\"58\"
\"\",\"\",\"approach-retreat\",\"62\",\"509033\",\"0.0-62.0\",\"\",\"\",\"2-1\",\"4837\",\"39\",\"1\",\"Training\",\"Stims/Figures/118-C-20-2.bmp\",\"sa:saha\",\"Right\",\"39\",\"4\",\"11\",\"6A\",\"C2\",\"J\",\"59\"
\"\",\"\",\"approach-retreat\",\"63\",\"514800\",\"0.0-63.0\",\"\",\"\",\"2-1\",\"4256\",\"40\",\"1\",\"Training\",\"Stims/Figures/27-J-0-1.bmp\",\"vafa:sha\",\"Up\",\"40\",\"4\",\"12\",\"6A\",\"C1\",\"J\",\"60\"
\"\",\"\",\"approach-retreat\",\"64\",\"520595\",\"0.0-64.0\",\"\",\"\",\"2-1\",\"4278\",\"37\",\"1\",\"Training\",\"Stims/Figures/87-C-20-4.bmp\",\"sahaza\",\"Left\",\"37\",\"4\",\"13\",\"6A\",\"C2\",\"J\",\"61\"
\"\",\"\",\"approach-retreat\",\"65\",\"526667\",\"0.0-65.0\",\"\",\"\",\"2-1\",\"4560\",\"39\",\"0\",\"Training\",\"Stims/Figures/87-J-10-4.bmp\",\"fashasha\",\"Right\",\"37\",\"4\",\"14\",\"6A\",\"C1\",\"J\",\"62\"
\"\",\"\",\"approach-retreat\",\"66\",\"532533\",\"0.0-66.0\",\"\",\"\",\"2-1\",\"4354\",\"37\",\"1\",\"Training\",\"Stims/Figures/94-C-20-2.bmp\",\"za:haha\",\"Left\",\"37\",\"4\",\"15\",\"6A\",\"C2\",\"J\",\"63\"
\"\",\"\",\"approach-retreat\",\"67\",\"538280\",\"0.0-67.0\",\"\",\"\",\"2-1\",\"4225\",\"38\",\"1\",\"Training\",\"Stims/Figures/94-J-0-2.bmp\",\"fafa:va\",\"Down\",\"38\",\"4\",\"16\",\"6A\",\"C1\",\"J\",\"64\"
\"\",\"\",\"approach-retreat\",\"68\",\"544783\",\"0.0-68.0\",\"\",\"\",\"2-1\",\"4987\",\"38\",\"1\",\"Training\",\"Stims/Figures/57-C-30-1.bmp\",\"sa:sa:ha\",\"Up\",\"38\",\"5\",\"1\",\"6A\",\"C2\",\"J\",\"65\"
\"\",\"\",\"approach-retreat\",\"69\",\"550381\",\"0.0-69.0\",\"\",\"\",\"2-1\",\"4083\",\"38\",\"1\",\"Training\",\"Stims/Figures/27-J-0-1.bmp\",\"vafa:sha\",\"Down\",\"38\",\"5\",\"2\",\"6A\",\"C1\",\"J\",\"66\"
\"\",\"\",\"approach-retreat\",\"70\",\"556045\",\"0.0-70.0\",\"\",\"\",\"2-1\",\"4148\",\"39\",\"1\",\"Training\",\"Stims/Figures/94-J-0-2.bmp\",\"fafa:va\",\"Left\",\"39\",\"5\",\"3\",\"6A\",\"C1\",\"J\",\"67\"
\"\",\"\",\"approach-retreat\",\"71\",\"561613\",\"0.0-71.0\",\"\",\"\",\"2-1\",\"4045\",\"38\",\"1\",\"Training\",\"Stims/Figures/102-J-10-4.bmp\",\"fa:fasha\",\"Down\",\"38\",\"5\",\"4\",\"6A\",\"C1\",\"J\",\"68\"
\"\",\"\",\"approach-retreat\",\"72\",\"567162\",\"0.0-72.0\",\"\",\"\",\"2-1\",\"4038\",\"39\",\"1\",\"Training\",\"Stims/Figures/100-J-10-3.bmp\",\"vafava\",\"Left\",\"39\",\"5\",\"5\",\"6A\",\"C1\",\"J\",\"69\"
\"\",\"\",\"approach-retreat\",\"73\",\"573513\",\"0.0-73.0\",\"\",\"\",\"2-1\",\"4830\",\"37\",\"1\",\"Training\",\"Stims/Figures/57-J-0-1.bmp\",\"va:fa:sha\",\"Right\",\"37\",\"5\",\"6\",\"6A\",\"C1\",\"J\",\"70\"
\"\",\"\",\"approach-retreat\",\"74\",\"579696\",\"0.0-74.0\",\"\",\"\",\"2-1\",\"4664\",\"39\",\"1\",\"Training\",\"Stims/Figures/94-C-20-2.bmp\",\"za:haha\",\"Right\",\"39\",\"5\",\"7\",\"6A\",\"C2\",\"J\",\"71\"
\"\",\"\",\"approach-retreat\",\"75\",\"585610\",\"0.0-75.0\",\"\",\"\",\"2-1\",\"4403\",\"38\",\"1\",\"Training\",\"Stims/Figures/87-C-20-4.bmp\",\"sahaza\",\"Up\",\"38\",\"5\",\"8\",\"6A\",\"C2\",\"J\",\"72\"
\"\",\"\",\"approach-retreat\",\"76\",\"591897\",\"0.0-76.0\",\"\",\"\",\"2-1\",\"4762\",\"38\",\"1\",\"Training\",\"Stims/Figures/27-C-30-1.bmp\",\"saha:za\",\"Up\",\"38\",\"5\",\"9\",\"6A\",\"C2\",\"J\",\"73\"
\"\",\"\",\"approach-retreat\",\"77\",\"597911\",\"0.0-77.0\",\"\",\"\",\"2-1\",\"4500\",\"37\",\"1\",\"Training\",\"Stims/Figures/144-C-30-3.bmp\",\"zasa:ha\",\"Left\",\"37\",\"5\",\"10\",\"6A\",\"C2\",\"J\",\"74\"
\"\",\"\",\"approach-retreat\",\"78\",\"603659\",\"0.0-78.0\",\"\",\"\",\"2-1\",\"4229\",\"39\",\"1\",\"Training\",\"Stims/Figures/102-C-20-4.bmp\",\"sasa:za\",\"Right\",\"39\",\"5\",\"11\",\"6A\",\"C2\",\"J\",\"75\"
\"\",\"\",\"approach-retreat\",\"79\",\"609378\",\"0.0-79.0\",\"\",\"\",\"2-1\",\"4204\",\"38\",\"1\",\"Training\",\"Stims/Figures/144-J-10-3.bmp\",\"fasha:va\",\"Down\",\"38\",\"5\",\"12\",\"6A\",\"C1\",\"J\",\"76\"
\"\",\"\",\"approach-retreat\",\"80\",\"615661\",\"0.0-80.0\",\"\",\"\",\"2-1\",\"4769\",\"37\",\"1\",\"Training\",\"Stims/Figures/100-C-30-3.bmp\",\"sa:haha\",\"Left\",\"37\",\"5\",\"13\",\"6A\",\"C2\",\"J\",\"77\"
\"\",\"\",\"approach-retreat\",\"81\",\"621795\",\"0.0-81.0\",\"\",\"\",\"2-1\",\"4618\",\"40\",\"1\",\"Training\",\"Stims/Figures/118-J-0-2.bmp\",\"vasha:sha\",\"Up\",\"40\",\"5\",\"14\",\"6A\",\"C1\",\"J\",\"78\"
\"\",\"\",\"approach-retreat\",\"82\",\"627395\",\"0.0-82.0\",\"\",\"\",\"2-1\",\"4082\",\"38\",\"1\",\"Training\",\"Stims/Figures/87-J-10-4.bmp\",\"fashasha\",\"Down\",\"38\",\"5\",\"15\",\"6A\",\"C1\",\"J\",\"79\"
\"\",\"\",\"approach-retreat\",\"83\",\"633044\",\"0.0-83.0\",\"\",\"\",\"2-1\",\"4131\",\"39\",\"1\",\"Training\",\"Stims/Figures/118-C-20-2.bmp\",\"sa:saha\",\"Right\",\"39\",\"5\",\"16\",\"6A\",\"C2\",\"J\",\"80\"
\"\",\"\",\"approach-retreat\",\"84\",\"638693\",\"0.0-84.0\",\"\",\"\",\"2-1\",\"4130\",\"37\",\"1\",\"Training\",\"Stims/Figures/100-J-10-3.bmp\",\"vafava\",\"Right\",\"37\",\"6\",\"1\",\"6A\",\"C1\",\"J\",\"81\"
\"\",\"\",\"approach-retreat\",\"85\",\"644996\",\"0.0-85.0\",\"\",\"\",\"2-1\",\"4791\",\"40\",\"1\",\"Training\",\"Stims/Figures/118-J-0-2.bmp\",\"vasha:sha\",\"Up\",\"40\",\"6\",\"2\",\"6A\",\"C1\",\"J\",\"82\"
\"\",\"\",\"approach-retreat\",\"86\",\"650659\",\"0.0-86.0\",\"\",\"\",\"2-1\",\"4148\",\"38\",\"1\",\"Training\",\"Stims/Figures/94-J-0-2.bmp\",\"fafa:va\",\"Down\",\"38\",\"6\",\"3\",\"6A\",\"C1\",\"J\",\"83\"
\"\",\"\",\"approach-retreat\",\"87\",\"656443\",\"0.0-87.0\",\"\",\"\",\"2-1\",\"4270\",\"37\",\"1\",\"Training\",\"Stims/Figures/102-C-20-4.bmp\",\"sasa:za\",\"Left\",\"37\",\"6\",\"4\",\"6A\",\"C2\",\"J\",\"84\"
\"\",\"\",\"approach-retreat\",\"88\",\"662223\",\"0.0-88.0\",\"\",\"\",\"2-1\",\"4267\",\"38\",\"1\",\"Training\",\"Stims/Figures/27-C-30-1.bmp\",\"saha:za\",\"Up\",\"38\",\"6\",\"5\",\"6A\",\"C2\",\"J\",\"85\"
\"\",\"\",\"approach-retreat\",\"89\",\"667908\",\"0.0-89.0\",\"\",\"\",\"2-1\",\"4168\",\"40\",\"1\",\"Training\",\"Stims/Figures/87-C-20-4.bmp\",\"sahaza\",\"Down\",\"40\",\"6\",\"6\",\"6A\",\"C2\",\"J\",\"86\"
\"\",\"\",\"approach-retreat\",\"90\",\"673625\",\"0.0-90.0\",\"\",\"\",\"2-1\",\"4199\",\"40\",\"1\",\"Training\",\"Stims/Figures/118-C-20-2.bmp\",\"sa:saha\",\"Down\",\"40\",\"6\",\"7\",\"6A\",\"C2\",\"J\",\"87\"
\"\",\"\",\"approach-retreat\",\"91\",\"680193\",\"0.0-91.0\",\"\",\"\",\"2-1\",\"5050\",\"39\",\"1\",\"Training\",\"Stims/Figures/57-C-30-1.bmp\",\"sa:sa:ha\",\"Right\",\"39\",\"6\",\"8\",\"6A\",\"C2\",\"J\",\"88\"
\"\",\"\",\"approach-retreat\",\"92\",\"685991\",\"0.0-92.0\",\"\",\"\",\"2-1\",\"4279\",\"37\",\"1\",\"Training\",\"Stims/Figures/87-J-10-4.bmp\",\"fashasha\",\"Right\",\"37\",\"6\",\"9\",\"6A\",\"C1\",\"J\",\"89\"
\"\",\"\",\"approach-retreat\",\"93\",\"692022\",\"0.0-93.0\",\"\",\"\",\"2-1\",\"4517\",\"39\",\"0\",\"Training\",\"Stims/Figures/100-C-30-3.bmp\",\"sa:haha\",\"Left\",\"37\",\"6\",\"10\",\"6A\",\"C2\",\"J\",\"90\"
\"\",\"\",\"approach-retreat\",\"94\",\"697732\",\"0.0-94.0\",\"\",\"\",\"2-1\",\"4195\",\"40\",\"1\",\"Training\",\"Stims/Figures/144-J-10-3.bmp\",\"fasha:va\",\"Up\",\"40\",\"6\",\"11\",\"6A\",\"C1\",\"J\",\"91\"
\"\",\"\",\"approach-retreat\",\"95\",\"703842\",\"0.0-95.0\",\"\",\"\",\"2-1\",\"4597\",\"38\",\"1\",\"Training\",\"Stims/Figures/144-C-30-3.bmp\",\"zasa:ha\",\"Up\",\"38\",\"6\",\"12\",\"6A\",\"C2\",\"J\",\"92\"
\"\",\"\",\"approach-retreat\",\"96\",\"709494\",\"0.0-96.0\",\"\",\"\",\"2-1\",\"4131\",\"38\",\"1\",\"Training\",\"Stims/Figures/57-J-0-1.bmp\",\"va:fa:sha\",\"Down\",\"38\",\"6\",\"13\",\"6A\",\"C1\",\"J\",\"93\"
\"\",\"\",\"approach-retreat\",\"97\",\"715028\",\"0.0-97.0\",\"\",\"\",\"2-1\",\"4017\",\"39\",\"1\",\"Training\",\"Stims/Figures/102-J-10-4.bmp\",\"fa:fasha\",\"Left\",\"39\",\"6\",\"14\",\"6A\",\"C1\",\"J\",\"94\"
\"\",\"\",\"approach-retreat\",\"98\",\"720591\",\"0.0-98.0\",\"\",\"\",\"2-1\",\"4045\",\"37\",\"1\",\"Training\",\"Stims/Figures/27-J-0-1.bmp\",\"vafa:sha\",\"Right\",\"37\",\"6\",\"15\",\"6A\",\"C1\",\"J\",\"95\"
\"\",\"\",\"approach-retreat\",\"99\",\"726211\",\"0.0-99.0\",\"\",\"\",\"2-1\",\"4102\",\"39\",\"0\",\"Training\",\"Stims/Figures/94-C-20-2.bmp\",\"za:haha\",\"Left\",\"37\",\"6\",\"16\",\"6A\",\"C2\",\"J\",\"96\"
\"\",\"\",\"approach-retreat\",\"100\",\"732028\",\"0.0-100.0\",\"\",\"\",\"2-1\",\"4297\",\"38\",\"1\",\"Training\",\"Stims/Figures/27-C-30-1.bmp\",\"saha:za\",\"Up\",\"38\",\"7\",\"1\",\"6A\",\"C2\",\"J\",\"97\"
\"\",\"\",\"approach-retreat\",\"101\",\"737988\",\"0.0-101.0\",\"\",\"\",\"2-1\",\"4442\",\"40\",\"1\",\"Training\",\"Stims/Figures/57-J-0-1.bmp\",\"va:fa:sha\",\"Up\",\"40\",\"7\",\"2\",\"6A\",\"C1\",\"J\",\"98\"
\"\",\"\",\"approach-retreat\",\"102\",\"744661\",\"0.0-102.0\",\"\",\"\",\"2-1\",\"5161\",\"39\",\"1\",\"Training\",\"Stims/Figures/118-J-0-2.bmp\",\"vasha:sha\",\"Left\",\"39\",\"7\",\"3\",\"6A\",\"C1\",\"J\",\"99\"
\"\",\"\",\"approach-retreat\",\"103\",\"750787\",\"0.0-103.0\",\"\",\"\",\"2-1\",\"4604\",\"39\",\"1\",\"Training\",\"Stims/Figures/57-C-30-1.bmp\",\"sa:sa:ha\",\"Right\",\"39\",\"7\",\"4\",\"6A\",\"C2\",\"J\",\"100\"
\"\",\"\",\"approach-retreat\",\"104\",\"756333\",\"0.0-104.0\",\"\",\"\",\"2-1\",\"4034\",\"38\",\"1\",\"Training\",\"Stims/Figures/144-J-10-3.bmp\",\"fasha:va\",\"Down\",\"38\",\"7\",\"5\",\"6A\",\"C1\",\"J\",\"101\"
\"\",\"\",\"approach-retreat\",\"105\",\"762421\",\"0.0-105.0\",\"\",\"\",\"2-1\",\"4565\",\"40\",\"1\",\"Training\",\"Stims/Figures/94-C-20-2.bmp\",\"za:haha\",\"Down\",\"40\",\"7\",\"6\",\"6A\",\"C2\",\"J\",\"102\"
\"\",\"\",\"approach-retreat\",\"106\",\"768210\",\"0.0-106.0\",\"\",\"\",\"2-1\",\"4275\",\"39\",\"1\",\"Training\",\"Stims/Figures/87-C-20-4.bmp\",\"sahaza\",\"Right\",\"39\",\"7\",\"7\",\"6A\",\"C2\",\"J\",\"103\"
\"\",\"\",\"approach-retreat\",\"107\",\"774790\",\"0.0-107.0\",\"\",\"\",\"2-1\",\"5059\",\"38\",\"1\",\"Training\",\"Stims/Figures/100-J-10-3.bmp\",\"vafava\",\"Down\",\"38\",\"7\",\"8\",\"6A\",\"C1\",\"J\",\"104\"
\"\",\"\",\"approach-retreat\",\"108\",\"780403\",\"0.0-108.0\",\"\",\"\",\"2-1\",\"4085\",\"40\",\"1\",\"Training\",\"Stims/Figures/102-C-20-4.bmp\",\"sasa:za\",\"Down\",\"40\",\"7\",\"9\",\"6A\",\"C2\",\"J\",\"105\"
\"\",\"\",\"approach-retreat\",\"109\",\"786088\",\"0.0-109.0\",\"\",\"\",\"2-1\",\"4173\",\"39\",\"1\",\"Training\",\"Stims/Figures/94-J-0-2.bmp\",\"fafa:va\",\"Left\",\"39\",\"7\",\"10\",\"6A\",\"C1\",\"J\",\"106\"
\"\",\"\",\"approach-retreat\",\"110\",\"791749\",\"0.0-110.0\",\"\",\"\",\"2-1\",\"4137\",\"40\",\"1\",\"Training\",\"Stims/Figures/87-J-10-4.bmp\",\"fashasha\",\"Up\",\"40\",\"7\",\"11\",\"6A\",\"C1\",\"J\",\"107\"
\"\",\"\",\"approach-retreat\",\"111\",\"797471\",\"0.0-111.0\",\"\",\"\",\"2-1\",\"4205\",\"37\",\"1\",\"Training\",\"Stims/Figures/118-C-20-2.bmp\",\"sa:saha\",\"Left\",\"37\",\"7\",\"12\",\"6A\",\"C2\",\"J\",\"108\"
\"\",\"\",\"approach-retreat\",\"112\",\"804288\",\"0.0-112.0\",\"\",\"\",\"2-1\",\"5304\",\"39\",\"1\",\"Training\",\"Stims/Figures/100-C-30-3.bmp\",\"sa:haha\",\"Right\",\"39\",\"7\",\"13\",\"6A\",\"C2\",\"J\",\"109\"
\"\",\"\",\"approach-retreat\",\"113\",\"810036\",\"0.0-113.0\",\"\",\"\",\"2-1\",\"4224\",\"37\",\"1\",\"Training\",\"Stims/Figures/27-J-0-1.bmp\",\"vafa:sha\",\"Right\",\"37\",\"7\",\"14\",\"6A\",\"C1\",\"J\",\"110\"
\"\",\"\",\"approach-retreat\",\"114\",\"815672\",\"0.0-114.0\",\"\",\"\",\"2-1\",\"4119\",\"38\",\"1\",\"Training\",\"Stims/Figures/144-C-30-3.bmp\",\"zasa:ha\",\"Up\",\"38\",\"7\",\"15\",\"6A\",\"C2\",\"J\",\"111\"
\"\",\"\",\"approach-retreat\",\"115\",\"821269\",\"0.0-115.0\",\"\",\"\",\"2-1\",\"4085\",\"39\",\"1\",\"Training\",\"Stims/Figures/102-J-10-4.bmp\",\"fa:fasha\",\"Left\",\"39\",\"7\",\"16\",\"6A\",\"C1\",\"J\",\"112\"
\"\",\"\",\"approach-retreat\",\"116\",\"827036\",\"0.0-116.0\",\"\",\"\",\"2-1\",\"4251\",\"38\",\"1\",\"Training\",\"Stims/Figures/144-C-30-3.bmp\",\"zasa:ha\",\"Up\",\"38\",\"8\",\"1\",\"6A\",\"C2\",\"J\",\"113\"
\"\",\"\",\"approach-retreat\",\"117\",\"832754\",\"0.0-117.0\",\"\",\"\",\"2-1\",\"4199\",\"39\",\"1\",\"Training\",\"Stims/Figures/118-J-0-2.bmp\",\"vasha:sha\",\"Left\",\"39\",\"8\",\"2\",\"6A\",\"C1\",\"J\",\"114\"
\"\",\"\",\"approach-retreat\",\"118\",\"838277\",\"0.0-118.0\",\"\",\"\",\"2-1\",\"4004\",\"37\",\"1\",\"Training\",\"Stims/Figures/102-J-10-4.bmp\",\"fa:fasha\",\"Right\",\"37\",\"8\",\"3\",\"6A\",\"C1\",\"J\",\"115\"
\"\",\"\",\"approach-retreat\",\"119\",\"843802\",\"0.0-119.0\",\"\",\"\",\"2-1\",\"4000\",\"39\",\"1\",\"Training\",\"Stims/Figures/57-J-0-1.bmp\",\"va:fa:sha\",\"Left\",\"39\",\"8\",\"4\",\"6A\",\"C1\",\"J\",\"116\"
\"\",\"\",\"approach-retreat\",\"120\",\"850115\",\"0.0-120.0\",\"\",\"\",\"2-1\",\"4794\",\"37\",\"0\",\"Training\",\"Stims/Figures/100-C-30-3.bmp\",\"sa:haha\",\"Right\",\"39\",\"8\",\"5\",\"6A\",\"C2\",\"J\",\"117\"
\"\",\"\",\"approach-retreat\",\"121\",\"856556\",\"0.0-121.0\",\"\",\"\",\"2-1\",\"4917\",\"38\",\"1\",\"Training\",\"Stims/Figures/27-C-30-1.bmp\",\"saha:za\",\"Up\",\"38\",\"8\",\"6\",\"6A\",\"C2\",\"J\",\"118\"
\"\",\"\",\"approach-retreat\",\"122\",\"863435\",\"0.0-122.0\",\"\",\"\",\"2-1\",\"5358\",\"38\",\"1\",\"Training\",\"Stims/Figures/87-C-20-4.bmp\",\"sahaza\",\"Up\",\"38\",\"8\",\"7\",\"6A\",\"C2\",\"J\",\"119\"
\"\",\"\",\"approach-retreat\",\"123\",\"870599\",\"0.0-123.0\",\"\",\"\",\"2-1\",\"5650\",\"39\",\"1\",\"Training\",\"Stims/Figures/57-C-30-1.bmp\",\"sa:sa:ha\",\"Right\",\"39\",\"8\",\"8\",\"6A\",\"C2\",\"J\",\"120\"
\"\",\"\",\"approach-retreat\",\"124\",\"876073\",\"0.0-124.0\",\"\",\"\",\"2-1\",\"3948\",\"39\",\"1\",\"Training\",\"Stims/Figures/27-J-0-1.bmp\",\"vafa:sha\",\"Left\",\"39\",\"8\",\"9\",\"6A\",\"C1\",\"J\",\"121\"
\"\",\"\",\"approach-retreat\",\"125\",\"881718\",\"0.0-125.0\",\"\",\"\",\"2-1\",\"4126\",\"40\",\"1\",\"Training\",\"Stims/Figures/94-J-0-2.bmp\",\"fafa:va\",\"Up\",\"40\",\"8\",\"10\",\"6A\",\"C1\",\"J\",\"122\"
\"\",\"\",\"approach-retreat\",\"126\",\"887253\",\"0.0-126.0\",\"\",\"\",\"2-1\",\"4023\",\"39\",\"1\",\"Training\",\"Stims/Figures/94-C-20-2.bmp\",\"za:haha\",\"Right\",\"39\",\"8\",\"11\",\"6A\",\"C2\",\"J\",\"123\"
\"\",\"\",\"approach-retreat\",\"127\",\"892835\",\"0.0-127.0\",\"\",\"\",\"2-1\",\"4071\",\"38\",\"1\",\"Training\",\"Stims/Figures/87-J-10-4.bmp\",\"fashasha\",\"Down\",\"38\",\"8\",\"12\",\"6A\",\"C1\",\"J\",\"124\"
\"\",\"\",\"approach-retreat\",\"128\",\"898499\",\"0.0-128.0\",\"\",\"\",\"2-1\",\"4146\",\"40\",\"1\",\"Training\",\"Stims/Figures/118-C-20-2.bmp\",\"sa:saha\",\"Down\",\"40\",\"8\",\"13\",\"6A\",\"C2\",\"J\",\"125\"
\"\",\"\",\"approach-retreat\",\"129\",\"904006\",\"0.0-129.0\",\"\",\"\",\"2-1\",\"3991\",\"39\",\"1\",\"Training\",\"Stims/Figures/100-J-10-3.bmp\",\"vafava\",\"Left\",\"39\",\"8\",\"14\",\"6A\",\"C1\",\"J\",\"126\"
\"\",\"\",\"approach-retreat\",\"130\",\"910065\",\"0.0-130.0\",\"\",\"\",\"2-1\",\"4540\",\"38\",\"1\",\"Training\",\"Stims/Figures/144-J-10-3.bmp\",\"fasha:va\",\"Down\",\"38\",\"8\",\"15\",\"6A\",\"C1\",\"J\",\"127\"
\"\",\"\",\"approach-retreat\",\"131\",\"915810\",\"0.0-131.0\",\"\",\"\",\"2-1\",\"4223\",\"40\",\"1\",\"Training\",\"Stims/Figures/102-C-20-4.bmp\",\"sasa:za\",\"Down\",\"40\",\"8\",\"16\",\"6A\",\"C2\",\"J\",\"128\"
\"\",\"\",\"approach-retreat\",\"132\",\"921747\",\"0.0-132.0\",\"\",\"\",\"2-1\",\"4421\",\"40\",\"1\",\"Training\",\"Stims/Figures/94-J-0-2.bmp\",\"fafa:va\",\"Up\",\"40\",\"9\",\"1\",\"6A\",\"C1\",\"J\",\"129\"
\"\",\"\",\"approach-retreat\",\"133\",\"927648\",\"0.0-133.0\",\"\",\"\",\"2-1\",\"4384\",\"38\",\"1\",\"Training\",\"Stims/Figures/100-C-30-3.bmp\",\"sa:haha\",\"Up\",\"38\",\"9\",\"2\",\"6A\",\"C2\",\"J\",\"130\"
\"\",\"\",\"approach-retreat\",\"134\",\"933264\",\"0.0-134.0\",\"\",\"\",\"2-1\",\"4092\",\"38\",\"1\",\"Training\",\"Stims/Figures/102-J-10-4.bmp\",\"fa:fasha\",\"Down\",\"38\",\"9\",\"3\",\"6A\",\"C1\",\"J\",\"131\"
\"\",\"\",\"approach-retreat\",\"135\",\"939687\",\"0.0-135.0\",\"\",\"\",\"2-1\",\"4899\",\"39\",\"1\",\"Training\",\"Stims/Figures/57-J-0-1.bmp\",\"va:fa:sha\",\"Left\",\"39\",\"9\",\"4\",\"6A\",\"C1\",\"J\",\"132\"
\"\",\"\",\"approach-retreat\",\"136\",\"945313\",\"0.0-136.0\",\"\",\"\",\"2-1\",\"4104\",\"39\",\"1\",\"Training\",\"Stims/Figures/118-C-20-2.bmp\",\"sa:saha\",\"Right\",\"39\",\"9\",\"5\",\"6A\",\"C2\",\"J\",\"133\"
\"\",\"\",\"approach-retreat\",\"137\",\"950964\",\"0.0-137.0\",\"\",\"\",\"2-1\",\"4134\",\"38\",\"1\",\"Training\",\"Stims/Figures/94-C-20-2.bmp\",\"za:haha\",\"Up\",\"38\",\"9\",\"6\",\"6A\",\"C2\",\"J\",\"134\"
\"\",\"\",\"approach-retreat\",\"138\",\"956664\",\"0.0-138.0\",\"\",\"\",\"2-1\",\"4172\",\"40\",\"1\",\"Training\",\"Stims/Figures/144-C-30-3.bmp\",\"zasa:ha\",\"Down\",\"40\",\"9\",\"7\",\"6A\",\"C2\",\"J\",\"135\"
\"\",\"\",\"approach-retreat\",\"139\",\"962330\",\"0.0-139.0\",\"\",\"\",\"2-1\",\"4153\",\"40\",\"1\",\"Training\",\"Stims/Figures/102-C-20-4.bmp\",\"sasa:za\",\"Down\",\"40\",\"9\",\"8\",\"6A\",\"C2\",\"J\",\"136\"
\"\",\"\",\"approach-retreat\",\"140\",\"967911\",\"0.0-140.0\",\"\",\"\",\"2-1\",\"4058\",\"37\",\"1\",\"Training\",\"Stims/Figures/144-J-10-3.bmp\",\"fasha:va\",\"Right\",\"37\",\"9\",\"9\",\"6A\",\"C1\",\"J\",\"137\"
\"\",\"\",\"approach-retreat\",\"141\",\"973481\",\"0.0-141.0\",\"\",\"\",\"2-1\",\"4057\",\"37\",\"1\",\"Training\",\"Stims/Figures/87-C-20-4.bmp\",\"sahaza\",\"Left\",\"37\",\"9\",\"10\",\"6A\",\"C2\",\"J\",\"138\"
\"\",\"\",\"approach-retreat\",\"142\",\"979247\",\"0.0-142.0\",\"\",\"\",\"2-1\",\"4244\",\"39\",\"1\",\"Training\",\"Stims/Figures/57-C-30-1.bmp\",\"sa:sa:ha\",\"Right\",\"39\",\"9\",\"11\",\"6A\",\"C2\",\"J\",\"139\"
\"\",\"\",\"approach-retreat\",\"143\",\"984790\",\"0.0-143.0\",\"\",\"\",\"2-1\",\"4032\",\"39\",\"1\",\"Training\",\"Stims/Figures/27-C-30-1.bmp\",\"saha:za\",\"Right\",\"39\",\"9\",\"12\",\"6A\",\"C2\",\"J\",\"140\"
\"\",\"\",\"approach-retreat\",\"144\",\"990429\",\"0.0-144.0\",\"\",\"\",\"2-1\",\"4114\",\"39\",\"1\",\"Training\",\"Stims/Figures/100-J-10-3.bmp\",\"vafava\",\"Left\",\"39\",\"9\",\"13\",\"6A\",\"C1\",\"J\",\"141\"
\"\",\"\",\"approach-retreat\",\"145\",\"996896\",\"0.0-145.0\",\"\",\"\",\"2-1\",\"4953\",\"39\",\"1\",\"Training\",\"Stims/Figures/87-J-10-4.bmp\",\"fashasha\",\"Left\",\"39\",\"9\",\"14\",\"6A\",\"C1\",\"J\",\"142\"
\"\",\"\",\"approach-retreat\",\"146\",\"1003177\",\"0.0-146.0\",\"\",\"\",\"2-1\",\"4763\",\"38\",\"1\",\"Training\",\"Stims/Figures/27-J-0-1.bmp\",\"vafa:sha\",\"Down\",\"38\",\"9\",\"15\",\"6A\",\"C1\",\"J\",\"143\"
\"\",\"\",\"approach-retreat\",\"147\",\"1008830\",\"0.0-147.0\",\"\",\"\",\"2-1\",\"4141\",\"40\",\"1\",\"Training\",\"Stims/Figures/118-J-0-2.bmp\",\"vasha:sha\",\"Up\",\"40\",\"9\",\"16\",\"6A\",\"C1\",\"J\",\"144\"
\"13566\",\"\",\"instructions\",\"148\",\"1022396\",\"0.0-148.0\",\"[{\"\"page_index\"\":0,\"\"viewing_time\"\":13565}]\",\"\",\"\",\"\",\"\",\"\",\"\",\"\",\"\",\"\",\"\",\"\",\"\",\"\",\"\",\"\",\"\"
\"\",\"\",\"approach-retreat\",\"149\",\"1029650\",\"0.0-149.0\",\"\",\"\",\"2-1\",\"5743\",\"40\",\"1\",\"Testing\",\"Stims/Figures/94-J-0-2.bmp\",\"fafa:va\",\"Up\",\"40\",\"1\",\"1\",\"6A\",\"C1\",\"J\",\"1\"
\"\",\"\",\"approach-retreat\",\"150\",\"1035512\",\"0.0-150.0\",\"\",\"\",\"2-1\",\"4342\",\"40\",\"0\",\"Testing\",\"Stims/Figures/27-J-0-1.bmp\",\"vafa:sha\",\"Down\",\"38\",\"1\",\"2\",\"6A\",\"C1\",\"J\",\"2\"
\"\",\"\",\"approach-retreat\",\"151\",\"1042112\",\"0.0-151.0\",\"\",\"\",\"2-1\",\"5083\",\"40\",\"1\",\"Testing\",\"Stims/Figures/111-J-10-3.bmp\",\"fa:shasha\",\"Up\",\"40\",\"1\",\"3\",\"6A\",\"C1\",\"J\",\"3\"
\"\",\"\",\"approach-retreat\",\"152\",\"1049107\",\"0.0-152.0\",\"\",\"\",\"2-1\",\"5477\",\"40\",\"0\",\"Testing\",\"Stims/Figures/57-J-0-1.bmp\",\"va:fa:sha\",\"Down\",\"38\",\"1\",\"4\",\"6A\",\"C1\",\"J\",\"4\"
\"\",\"\",\"approach-retreat\",\"153\",\"1055535\",\"0.0-153.0\",\"\",\"\",\"2-1\",\"4913\",\"39\",\"0\",\"Testing\",\"Stims/Figures/86-J-0-1.bmp\",\"fashava\",\"Right\",\"37\",\"1\",\"5\",\"6A\",\"C1\",\"J\",\"5\"
\"\",\"\",\"approach-retreat\",\"154\",\"1061403\",\"0.0-154.0\",\"\",\"\",\"2-1\",\"4338\",\"37\",\"1\",\"Testing\",\"Stims/Figures/57-C-30-1.bmp\",\"sa:sa:ha\",\"Left\",\"37\",\"1\",\"6\",\"6A\",\"C2\",\"J\",\"6\"
\"\",\"\",\"approach-retreat\",\"155\",\"1067466\",\"0.0-155.0\",\"\",\"\",\"2-1\",\"4553\",\"38\",\"0\",\"Testing\",\"Stims/Figures/7-J-10-4.bmp\",\"fa:shava\",\"Up\",\"40\",\"1\",\"7\",\"6A\",\"C1\",\"J\",\"7\"
\"\",\"\",\"approach-retreat\",\"156\",\"1073329\",\"0.0-156.0\",\"\",\"\",\"2-1\",\"4345\",\"40\",\"0\",\"Testing\",\"Stims/Figures/144-J-10-3.bmp\",\"fasha:va\",\"Down\",\"38\",\"1\",\"8\",\"6A\",\"C1\",\"J\",\"8\"
\"\",\"\",\"approach-retreat\",\"157\",\"1079312\",\"0.0-157.0\",\"\",\"\",\"2-1\",\"4461\",\"40\",\"0\",\"Testing\",\"Stims/Figures/102-C-20-4.bmp\",\"sasa:za\",\"Up\",\"38\",\"1\",\"9\",\"6A\",\"C2\",\"J\",\"9\"
\"\",\"\",\"approach-retreat\",\"158\",\"1084898\",\"0.0-158.0\",\"\",\"\",\"2-1\",\"4065\",\"37\",\"0\",\"Testing\",\"Stims/Figures/86-C-30-1.bmp\",\"za:saza\",\"Right\",\"39\",\"1\",\"10\",\"6A\",\"C2\",\"J\",\"10\"
\"\",\"\",\"approach-retreat\",\"159\",\"1090653\",\"0.0-159.0\",\"\",\"\",\"2-1\",\"4244\",\"37\",\"0\",\"Testing\",\"Stims/Figures/94-C-20-2.bmp\",\"za:haha\",\"Right\",\"39\",\"1\",\"11\",\"6A\",\"C2\",\"J\",\"11\"
\"\",\"\",\"approach-retreat\",\"160\",\"1097309\",\"0.0-160.0\",\"\",\"\",\"2-1\",\"5133\",\"37\",\"0\",\"Testing\",\"Stims/Figures/118-C-20-2.bmp\",\"sa:saha\",\"Right\",\"39\",\"1\",\"12\",\"6A\",\"C2\",\"J\",\"12\"
\"\",\"\",\"approach-retreat\",\"161\",\"1103214\",\"0.0-161.0\",\"\",\"\",\"2-1\",\"4378\",\"40\",\"1\",\"Testing\",\"Stims/Figures/100-J-10-3.bmp\",\"vafava\",\"Up\",\"40\",\"1\",\"13\",\"6A\",\"C1\",\"J\",\"13\"
\"\",\"\",\"approach-retreat\",\"162\",\"1108948\",\"0.0-162.0\",\"\",\"\",\"2-1\",\"4219\",\"37\",\"1\",\"Testing\",\"Stims/Figures/144-C-30-3.bmp\",\"zasa:ha\",\"Left\",\"37\",\"1\",\"14\",\"6A\",\"C2\",\"J\",\"14\"
\"\",\"\",\"approach-retreat\",\"163\",\"1114625\",\"0.0-163.0\",\"\",\"\",\"2-1\",\"4156\",\"39\",\"1\",\"Testing\",\"Stims/Figures/102-J-10-4.bmp\",\"fa:fasha\",\"Left\",\"39\",\"1\",\"15\",\"6A\",\"C1\",\"J\",\"15\"
\"\",\"\",\"approach-retreat\",\"164\",\"1120431\",\"0.0-164.0\",\"\",\"\",\"2-1\",\"4287\",\"40\",\"1\",\"Testing\",\"Stims/Figures/87-C-20-4.bmp\",\"sahaza\",\"Down\",\"40\",\"1\",\"16\",\"6A\",\"C2\",\"J\",\"16\"
\"\",\"\",\"approach-retreat\",\"165\",\"1127360\",\"0.0-165.0\",\"\",\"\",\"2-1\",\"5402\",\"37\",\"0\",\"Testing\",\"Stims/Figures/111-C-30-3.bmp\",\"zaha:ha\",\"Right\",\"39\",\"1\",\"17\",\"6A\",\"C2\",\"J\",\"17\"
\"\",\"\",\"approach-retreat\",\"166\",\"1133998\",\"0.0-166.0\",\"\",\"\",\"2-1\",\"5125\",\"40\",\"0\",\"Testing\",\"Stims/Figures/7-C-20-4.bmp\",\"za:ha:ha\",\"Up\",\"38\",\"1\",\"18\",\"6A\",\"C2\",\"J\",\"18\"
\"\",\"\",\"approach-retreat\",\"167\",\"1140754\",\"0.0-167.0\",\"\",\"\",\"2-1\",\"5215\",\"39\",\"1\",\"Testing\",\"Stims/Figures/139-C-20-2.bmp\",\"zasaha\",\"Right\",\"39\",\"1\",\"19\",\"6A\",\"C2\",\"J\",\"19\"
\"\",\"\",\"approach-retreat\",\"168\",\"1146725\",\"0.0-168.0\",\"\",\"\",\"2-1\",\"4461\",\"38\",\"1\",\"Testing\",\"Stims/Figures/118-J-0-2.bmp\",\"vasha:sha\",\"Down\",\"38\",\"1\",\"20\",\"6A\",\"C1\",\"J\",\"20\"
\"\",\"\",\"approach-retreat\",\"169\",\"1152674\",\"0.0-169.0\",\"\",\"\",\"2-1\",\"4424\",\"37\",\"0\",\"Testing\",\"Stims/Figures/139-J-0-2.bmp\",\"va:shasha\",\"Left\",\"39\",\"1\",\"21\",\"6A\",\"C1\",\"J\",\"21\"
\"\",\"\",\"approach-retreat\",\"170\",\"1158353\",\"0.0-170.0\",\"\",\"\",\"2-1\",\"4168\",\"39\",\"0\",\"Testing\",\"Stims/Figures/27-C-30-1.bmp\",\"saha:za\",\"Left\",\"37\",\"1\",\"22\",\"6A\",\"C2\",\"J\",\"22\"
\"\",\"\",\"approach-retreat\",\"171\",\"1164204\",\"0.0-171.0\",\"\",\"\",\"2-1\",\"4337\",\"40\",\"0\",\"Testing\",\"Stims/Figures/87-J-10-4.bmp\",\"fashasha\",\"Down\",\"38\",\"1\",\"23\",\"6A\",\"C1\",\"J\",\"23\"
\"\",\"\",\"approach-retreat\",\"172\",\"1170009\",\"0.0-172.0\",\"\",\"\",\"2-1\",\"4286\",\"39\",\"0\",\"Testing\",\"Stims/Figures/100-C-30-3.bmp\",\"sa:haha\",\"Left\",\"37\",\"1\",\"24\",\"6A\",\"C2\",\"J\",\"24\"
\"\",\"\",\"approach-retreat\",\"173\",\"1175692\",\"0.0-173.0\",\"\",\"\",\"2-1\",\"4165\",\"39\",\"0\",\"Testing\",\"Stims/Figures/144-J-10-3.bmp\",\"fasha:va\",\"Right\",\"37\",\"2\",\"1\",\"6A\",\"C1\",\"J\",\"25\"
\"\",\"\",\"approach-retreat\",\"174\",\"1182670\",\"0.0-174.0\",\"\",\"\",\"2-1\",\"5453\",\"38\",\"1\",\"Testing\",\"Stims/Figures/86-C-30-1.bmp\",\"za:saza\",\"Up\",\"38\",\"2\",\"2\",\"6A\",\"C2\",\"J\",\"26\"
\"\",\"\",\"approach-retreat\",\"175\",\"1188207\",\"0.0-175.0\",\"\",\"\",\"2-1\",\"4026\",\"37\",\"1\",\"Testing\",\"Stims/Figures/144-C-30-3.bmp\",\"zasa:ha\",\"Left\",\"37\",\"2\",\"3\",\"6A\",\"C2\",\"J\",\"27\"
\"\",\"\",\"approach-retreat\",\"176\",\"1194616\",\"0.0-176.0\",\"\",\"\",\"2-1\",\"4895\",\"40\",\"0\",\"Testing\",\"Stims/Figures/139-J-0-2.bmp\",\"va:shasha\",\"Down\",\"38\",\"2\",\"4\",\"6A\",\"C1\",\"J\",\"28\"
\"\",\"\",\"approach-retreat\",\"177\",\"1200963\",\"0.0-177.0\",\"\",\"\",\"2-1\",\"4826\",\"40\",\"1\",\"Testing\",\"Stims/Figures/94-J-0-2.bmp\",\"fafa:va\",\"Up\",\"40\",\"2\",\"5\",\"6A\",\"C1\",\"J\",\"29\"
\"\",\"\",\"approach-retreat\",\"178\",\"1207386\",\"0.0-178.0\",\"\",\"\",\"2-1\",\"4913\",\"38\",\"0\",\"Testing\",\"Stims/Figures/57-C-30-1.bmp\",\"sa:sa:ha\",\"Down\",\"40\",\"2\",\"6\",\"6A\",\"C2\",\"J\",\"30\"
\"\",\"\",\"approach-retreat\",\"179\",\"1213139\",\"0.0-179.0\",\"\",\"\",\"2-1\",\"4235\",\"39\",\"1\",\"Testing\",\"Stims/Figures/87-C-20-4.bmp\",\"sahaza\",\"Right\",\"39\",\"2\",\"7\",\"6A\",\"C2\",\"J\",\"31\"
\"\",\"\",\"approach-retreat\",\"180\",\"1218786\",\"0.0-180.0\",\"\",\"\",\"2-1\",\"4137\",\"39\",\"0\",\"Testing\",\"Stims/Figures/86-J-0-1.bmp\",\"fashava\",\"Right\",\"37\",\"2\",\"8\",\"6A\",\"C1\",\"J\",\"32\"
\"\",\"\",\"approach-retreat\",\"181\",\"1225912\",\"0.0-181.0\",\"\",\"\",\"2-1\",\"5613\",\"40\",\"1\",\"Testing\",\"Stims/Figures/7-J-10-4.bmp\",\"fa:shava\",\"Up\",\"40\",\"2\",\"9\",\"6A\",\"C1\",\"J\",\"33\"
\"\",\"\",\"approach-retreat\",\"182\",\"1231556\",\"0.0-182.0\",\"\",\"\",\"2-1\",\"4131\",\"40\",\"1\",\"Testing\",\"Stims/Figures/27-J-0-1.bmp\",\"vafa:sha\",\"Up\",\"40\",\"2\",\"10\",\"6A\",\"C1\",\"J\",\"34\"
\"\",\"\",\"approach-retreat\",\"183\",\"1237045\",\"0.0-183.0\",\"\",\"\",\"2-1\",\"3979\",\"39\",\"0\",\"Testing\",\"Stims/Figures/118-C-20-2.bmp\",\"sa:saha\",\"Left\",\"37\",\"2\",\"11\",\"6A\",\"C2\",\"J\",\"35\"
\"\",\"\",\"approach-retreat\",\"184\",\"1242662\",\"0.0-184.0\",\"\",\"\",\"2-1\",\"4102\",\"39\",\"0\",\"Testing\",\"Stims/Figures/27-C-30-1.bmp\",\"saha:za\",\"Left\",\"37\",\"2\",\"12\",\"6A\",\"C2\",\"J\",\"36\"
\"\",\"\",\"approach-retreat\",\"185\",\"1248385\",\"0.0-185.0\",\"\",\"\",\"2-1\",\"4199\",\"39\",\"0\",\"Testing\",\"Stims/Figures/7-C-20-4.bmp\",\"za:ha:ha\",\"Left\",\"37\",\"2\",\"13\",\"6A\",\"C2\",\"J\",\"37\"
\"\",\"\",\"approach-retreat\",\"186\",\"1255744\",\"0.0-186.0\",\"\",\"\",\"2-1\",\"5836\",\"39\",\"1\",\"Testing\",\"Stims/Figures/139-C-20-2.bmp\",\"zasaha\",\"Right\",\"39\",\"2\",\"14\",\"6A\",\"C2\",\"J\",\"38\"
\"\",\"\",\"approach-retreat\",\"187\",\"1261652\",\"0.0-187.0\",\"\",\"\",\"2-1\",\"4384\",\"38\",\"0\",\"Testing\",\"Stims/Figures/94-C-20-2.bmp\",\"za:haha\",\"Down\",\"40\",\"2\",\"15\",\"6A\",\"C2\",\"J\",\"39\"
\"\",\"\",\"approach-retreat\",\"188\",\"1269270\",\"0.0-188.0\",\"\",\"\",\"2-1\",\"6105\",\"39\",\"1\",\"Testing\",\"Stims/Figures/102-J-10-4.bmp\",\"fa:fasha\",\"Left\",\"39\",\"2\",\"16\",\"6A\",\"C1\",\"J\",\"40\"
\"\",\"\",\"approach-retreat\",\"189\",\"1275681\",\"0.0-189.0\",\"\",\"\",\"2-1\",\"4884\",\"38\",\"1\",\"Testing\",\"Stims/Figures/100-J-10-3.bmp\",\"vafava\",\"Down\",\"38\",\"2\",\"17\",\"6A\",\"C1\",\"J\",\"41\"
\"\",\"\",\"approach-retreat\",\"190\",\"1281356\",\"0.0-190.0\",\"\",\"\",\"2-1\",\"4148\",\"37\",\"0\",\"Testing\",\"Stims/Figures/87-J-10-4.bmp\",\"fashasha\",\"Left\",\"39\",\"2\",\"18\",\"6A\",\"C1\",\"J\",\"42\"
\"\",\"\",\"approach-retreat\",\"191\",\"1287936\",\"0.0-191.0\",\"\",\"\",\"2-1\",\"5063\",\"38\",\"0\",\"Testing\",\"Stims/Figures/111-C-30-3.bmp\",\"zaha:ha\",\"Down\",\"40\",\"2\",\"19\",\"6A\",\"C2\",\"J\",\"43\"
\"\",\"\",\"approach-retreat\",\"192\",\"1294593\",\"0.0-192.0\",\"\",\"\",\"2-1\",\"5147\",\"40\",\"1\",\"Testing\",\"Stims/Figures/111-J-10-3.bmp\",\"fa:shasha\",\"Up\",\"40\",\"2\",\"20\",\"6A\",\"C1\",\"J\",\"44\"
\"\",\"\",\"approach-retreat\",\"193\",\"1301683\",\"0.0-193.0\",\"\",\"\",\"2-1\",\"5571\",\"40\",\"1\",\"Testing\",\"Stims/Figures/118-J-0-2.bmp\",\"vasha:sha\",\"Up\",\"40\",\"2\",\"21\",\"6A\",\"C1\",\"J\",\"45\"
\"\",\"\",\"approach-retreat\",\"194\",\"1307483\",\"0.0-194.0\",\"\",\"\",\"2-1\",\"4282\",\"37\",\"0\",\"Testing\",\"Stims/Figures/102-C-20-4.bmp\",\"sasa:za\",\"Right\",\"39\",\"2\",\"22\",\"6A\",\"C2\",\"J\",\"46\"
\"\",\"\",\"approach-retreat\",\"195\",\"1313356\",\"0.0-195.0\",\"\",\"\",\"2-1\",\"4351\",\"40\",\"1\",\"Testing\",\"Stims/Figures/100-C-30-3.bmp\",\"sa:haha\",\"Down\",\"40\",\"2\",\"23\",\"6A\",\"C2\",\"J\",\"47\"
\"\",\"\",\"approach-retreat\",\"196\",\"1320374\",\"0.0-196.0\",\"\",\"\",\"2-1\",\"5499\",\"39\",\"0\",\"Testing\",\"Stims/Figures/57-J-0-1.bmp\",\"va:fa:sha\",\"Right\",\"37\",\"2\",\"24\",\"6A\",\"C1\",\"J\",\"48\"
\"\",\"\",\"approach-retreat\",\"197\",\"1326051\",\"0.0-197.0\",\"\",\"\",\"2-1\",\"4164\",\"39\",\"0\",\"Testing\",\"Stims/Figures/87-J-10-4.bmp\",\"fashasha\",\"Right\",\"37\",\"3\",\"1\",\"6A\",\"C1\",\"J\",\"49\"
\"\",\"\",\"approach-retreat\",\"198\",\"1331652\",\"0.0-198.0\",\"\",\"\",\"2-1\",\"4088\",\"39\",\"1\",\"Testing\",\"Stims/Figures/27-J-0-1.bmp\",\"vafa:sha\",\"Left\",\"39\",\"3\",\"2\",\"6A\",\"C1\",\"J\",\"50\"
\"\",\"\",\"approach-retreat\",\"199\",\"1337425\",\"0.0-199.0\",\"\",\"\",\"2-1\",\"4250\",\"37\",\"0\",\"Testing\",\"Stims/Figures/86-J-0-1.bmp\",\"fashava\",\"Left\",\"39\",\"3\",\"3\",\"6A\",\"C1\",\"J\",\"51\"
\"\",\"\",\"approach-retreat\",\"200\",\"1343660\",\"0.0-200.0\",\"\",\"\",\"2-1\",\"4723\",\"38\",\"0\",\"Testing\",\"Stims/Figures/57-C-30-1.bmp\",\"sa:sa:ha\",\"Down\",\"40\",\"3\",\"4\",\"6A\",\"C2\",\"J\",\"52\"
\"\",\"\",\"approach-retreat\",\"201\",\"1349705\",\"0.0-201.0\",\"\",\"\",\"2-1\",\"4532\",\"40\",\"0\",\"Testing\",\"Stims/Figures/94-C-20-2.bmp\",\"za:haha\",\"Up\",\"38\",\"3\",\"5\",\"6A\",\"C2\",\"J\",\"53\"
\"\",\"\",\"approach-retreat\",\"202\",\"1355717\",\"0.0-202.0\",\"\",\"\",\"2-1\",\"4494\",\"37\",\"0\",\"Testing\",\"Stims/Figures/86-C-30-1.bmp\",\"za:saza\",\"Right\",\"39\",\"3\",\"6\",\"6A\",\"C2\",\"J\",\"54\"
\"\",\"\",\"approach-retreat\",\"203\",\"1362192\",\"0.0-203.0\",\"\",\"\",\"2-1\",\"4957\",\"38\",\"0\",\"Testing\",\"Stims/Figures/57-J-0-1.bmp\",\"va:fa:sha\",\"Up\",\"40\",\"3\",\"7\",\"6A\",\"C1\",\"J\",\"55\"
\"\",\"\",\"approach-retreat\",\"204\",\"1369316\",\"0.0-204.0\",\"\",\"\",\"2-1\",\"5611\",\"40\",\"0\",\"Testing\",\"Stims/Figures/144-J-10-3.bmp\",\"fasha:va\",\"Down\",\"38\",\"3\",\"8\",\"6A\",\"C1\",\"J\",\"56\"
\"\",\"\",\"approach-retreat\",\"205\",\"1374852\",\"0.0-205.0\",\"\",\"\",\"2-1\",\"4028\",\"39\",\"0\",\"Testing\",\"Stims/Figures/102-C-20-4.bmp\",\"sasa:za\",\"Left\",\"37\",\"3\",\"9\",\"6A\",\"C2\",\"J\",\"57\"
\"\",\"\",\"approach-retreat\",\"206\",\"1380624\",\"0.0-206.0\",\"\",\"\",\"2-1\",\"4264\",\"40\",\"0\",\"Testing\",\"Stims/Figures/111-C-30-3.bmp\",\"zaha:ha\",\"Up\",\"38\",\"3\",\"10\",\"6A\",\"C2\",\"J\",\"58\"
\"\",\"\",\"approach-retreat\",\"207\",\"1387596\",\"0.0-207.0\",\"\",\"\",\"2-1\",\"5450\",\"40\",\"1\",\"Testing\",\"Stims/Figures/100-C-30-3.bmp\",\"sa:haha\",\"Down\",\"40\",\"3\",\"11\",\"6A\",\"C2\",\"J\",\"59\"
\"\",\"\",\"approach-retreat\",\"208\",\"1395112\",\"0.0-208.0\",\"\",\"\",\"2-1\",\"6004\",\"40\",\"1\",\"Testing\",\"Stims/Figures/7-J-10-4.bmp\",\"fa:shava\",\"Up\",\"40\",\"3\",\"12\",\"6A\",\"C1\",\"J\",\"60\"
\"\",\"\",\"approach-retreat\",\"209\",\"1400715\",\"0.0-209.0\",\"\",\"\",\"2-1\",\"4084\",\"39\",\"0\",\"Testing\",\"Stims/Figures/27-C-30-1.bmp\",\"saha:za\",\"Left\",\"37\",\"3\",\"13\",\"6A\",\"C2\",\"J\",\"61\"
\"\",\"\",\"approach-retreat\",\"210\",\"1407038\",\"0.0-210.0\",\"\",\"\",\"2-1\",\"4805\",\"40\",\"0\",\"Testing\",\"Stims/Figures/139-J-0-2.bmp\",\"va:shasha\",\"Down\",\"38\",\"3\",\"14\",\"6A\",\"C1\",\"J\",\"62\"
\"\",\"\",\"approach-retreat\",\"211\",\"1412830\",\"0.0-211.0\",\"\",\"\",\"2-1\",\"4276\",\"39\",\"1\",\"Testing\",\"Stims/Figures/87-C-20-4.bmp\",\"sahaza\",\"Right\",\"39\",\"3\",\"15\",\"6A\",\"C2\",\"J\",\"63\"
\"\",\"\",\"approach-retreat\",\"212\",\"1418477\",\"0.0-212.0\",\"\",\"\",\"2-1\",\"4126\",\"39\",\"1\",\"Testing\",\"Stims/Figures/144-C-30-3.bmp\",\"zasa:ha\",\"Right\",\"39\",\"3\",\"16\",\"6A\",\"C2\",\"J\",\"64\"
\"\",\"\",\"approach-retreat\",\"213\",\"1424607\",\"0.0-213.0\",\"\",\"\",\"2-1\",\"4609\",\"39\",\"1\",\"Testing\",\"Stims/Figures/94-J-0-2.bmp\",\"fafa:va\",\"Left\",\"39\",\"3\",\"17\",\"6A\",\"C1\",\"J\",\"65\"
\"\",\"\",\"approach-retreat\",\"214\",\"1430241\",\"0.0-214.0\",\"\",\"\",\"2-1\",\"4124\",\"39\",\"1\",\"Testing\",\"Stims/Figures/111-J-10-3.bmp\",\"fa:shasha\",\"Left\",\"39\",\"3\",\"18\",\"6A\",\"C1\",\"J\",\"66\"
\"\",\"\",\"approach-retreat\",\"215\",\"1437679\",\"0.0-215.0\",\"\",\"\",\"2-1\",\"5919\",\"40\",\"0\",\"Testing\",\"Stims/Figures/139-C-20-2.bmp\",\"zasaha\",\"Up\",\"38\",\"3\",\"19\",\"6A\",\"C2\",\"J\",\"67\"
\"\",\"\",\"approach-retreat\",\"216\",\"1443720\",\"0.0-216.0\",\"\",\"\",\"2-1\",\"4533\",\"37\",\"1\",\"Testing\",\"Stims/Figures/102-J-10-4.bmp\",\"fa:fasha\",\"Right\",\"37\",\"3\",\"20\",\"6A\",\"C1\",\"J\",\"68\"
\"\",\"\",\"approach-retreat\",\"217\",\"1449567\",\"0.0-217.0\",\"\",\"\",\"2-1\",\"4324\",\"39\",\"0\",\"Testing\",\"Stims/Figures/100-J-10-3.bmp\",\"vafava\",\"Right\",\"37\",\"3\",\"21\",\"6A\",\"C1\",\"J\",\"69\"
\"\",\"\",\"approach-retreat\",\"218\",\"1455407\",\"0.0-218.0\",\"\",\"\",\"2-1\",\"4329\",\"38\",\"1\",\"Testing\",\"Stims/Figures/118-J-0-2.bmp\",\"vasha:sha\",\"Down\",\"38\",\"3\",\"22\",\"6A\",\"C1\",\"J\",\"70\"
\"\",\"\",\"approach-retreat\",\"219\",\"1461013\",\"0.0-219.0\",\"\",\"\",\"2-1\",\"4088\",\"38\",\"0\",\"Testing\",\"Stims/Figures/7-C-20-4.bmp\",\"za:ha:ha\",\"Down\",\"40\",\"3\",\"23\",\"6A\",\"C2\",\"J\",\"71\"
\"\",\"\",\"approach-retreat\",\"220\",\"1466852\",\"0.0-220.0\",\"\",\"\",\"2-1\",\"4314\",\"40\",\"0\",\"Testing\",\"Stims/Figures/118-C-20-2.bmp\",\"sa:saha\",\"Up\",\"38\",\"3\",\"24\",\"6A\",\"C2\",\"J\",\"72\"
\"\",\"\",\"approach-retreat\",\"221\",\"1472722\",\"0.0-221.0\",\"\",\"\",\"2-1\",\"4355\",\"37\",\"0\",\"Testing\",\"Stims/Figures/144-J-10-3.bmp\",\"fasha:va\",\"Left\",\"39\",\"4\",\"1\",\"6A\",\"C1\",\"J\",\"73\"
\"\",\"\",\"approach-retreat\",\"222\",\"1479775\",\"0.0-222.0\",\"\",\"\",\"2-1\",\"5545\",\"39\",\"0\",\"Testing\",\"Stims/Figures/139-C-20-2.bmp\",\"zasaha\",\"Left\",\"37\",\"4\",\"2\",\"6A\",\"C2\",\"J\",\"74\"
\"\",\"\",\"approach-retreat\",\"223\",\"1485516\",\"0.0-223.0\",\"\",\"\",\"2-1\",\"4213\",\"40\",\"1\",\"Testing\",\"Stims/Figures/118-J-0-2.bmp\",\"vasha:sha\",\"Up\",\"40\",\"4\",\"3\",\"6A\",\"C1\",\"J\",\"75\"
\"\",\"\",\"approach-retreat\",\"224\",\"1491893\",\"0.0-224.0\",\"\",\"\",\"2-1\",\"4866\",\"39\",\"0\",\"Testing\",\"Stims/Figures/57-C-30-1.bmp\",\"sa:sa:ha\",\"Left\",\"37\",\"4\",\"4\",\"6A\",\"C2\",\"J\",\"76\"
\"\",\"\",\"approach-retreat\",\"225\",\"1498299\",\"0.0-225.0\",\"\",\"\",\"2-1\",\"4892\",\"39\",\"1\",\"Testing\",\"Stims/Figures/7-J-10-4.bmp\",\"fa:shava\",\"Left\",\"39\",\"4\",\"5\",\"6A\",\"C1\",\"J\",\"77\"
\"\",\"\",\"approach-retreat\",\"226\",\"1504512\",\"0.0-226.0\",\"\",\"\",\"2-1\",\"4701\",\"40\",\"1\",\"Testing\",\"Stims/Figures/94-C-20-2.bmp\",\"za:haha\",\"Down\",\"40\",\"4\",\"6\",\"6A\",\"C2\",\"J\",\"78\"
\"\",\"\",\"approach-retreat\",\"227\",\"1510178\",\"0.0-227.0\",\"\",\"\",\"2-1\",\"4139\",\"38\",\"0\",\"Testing\",\"Stims/Figures/118-C-20-2.bmp\",\"sa:saha\",\"Down\",\"40\",\"4\",\"7\",\"6A\",\"C2\",\"J\",\"79\"
\"\",\"\",\"approach-retreat\",\"228\",\"1517259\",\"0.0-228.0\",\"\",\"\",\"2-1\",\"5568\",\"37\",\"1\",\"Testing\",\"Stims/Figures/57-J-0-1.bmp\",\"va:fa:sha\",\"Right\",\"37\",\"4\",\"8\",\"6A\",\"C1\",\"J\",\"80\"
\"\",\"\",\"approach-retreat\",\"229\",\"1523913\",\"0.0-229.0\",\"\",\"\",\"2-1\",\"5136\",\"40\",\"1\",\"Testing\",\"Stims/Figures/139-J-0-2.bmp\",\"va:shasha\",\"Up\",\"40\",\"4\",\"9\",\"6A\",\"C1\",\"J\",\"81\"
\"\",\"\",\"approach-retreat\",\"230\",\"1529543\",\"0.0-230.0\",\"\",\"\",\"2-1\",\"4112\",\"37\",\"0\",\"Testing\",\"Stims/Figures/102-C-20-4.bmp\",\"sasa:za\",\"Right\",\"39\",\"4\",\"10\",\"6A\",\"C2\",\"J\",\"82\"
\"\",\"\",\"approach-retreat\",\"231\",\"1535788\",\"0.0-231.0\",\"\",\"\",\"2-1\",\"4719\",\"37\",\"0\",\"Testing\",\"Stims/Figures/111-C-30-3.bmp\",\"zaha:ha\",\"Right\",\"39\",\"4\",\"11\",\"6A\",\"C2\",\"J\",\"83\"
\"\",\"\",\"approach-retreat\",\"232\",\"1542141\",\"0.0-232.0\",\"\",\"\",\"2-1\",\"4832\",\"37\",\"1\",\"Testing\",\"Stims/Figures/27-J-0-1.bmp\",\"vafa:sha\",\"Right\",\"37\",\"4\",\"12\",\"6A\",\"C1\",\"J\",\"84\"
\"\",\"\",\"approach-retreat\",\"233\",\"1547738\",\"0.0-233.0\",\"\",\"\",\"2-1\",\"4075\",\"37\",\"1\",\"Testing\",\"Stims/Figures/87-C-20-4.bmp\",\"sahaza\",\"Left\",\"37\",\"4\",\"13\",\"6A\",\"C2\",\"J\",\"85\"
\"\",\"\",\"approach-retreat\",\"234\",\"1553231\",\"0.0-234.0\",\"\",\"\",\"2-1\",\"3980\",\"40\",\"1\",\"Testing\",\"Stims/Figures/111-J-10-3.bmp\",\"fa:shasha\",\"Up\",\"40\",\"4\",\"14\",\"6A\",\"C1\",\"J\",\"86\"
\"\",\"\",\"approach-retreat\",\"235\",\"1559084\",\"0.0-235.0\",\"\",\"\",\"2-1\",\"4332\",\"38\",\"1\",\"Testing\",\"Stims/Figures/86-C-30-1.bmp\",\"za:saza\",\"Up\",\"38\",\"4\",\"15\",\"6A\",\"C2\",\"J\",\"87\"
\"\",\"\",\"approach-retreat\",\"236\",\"1566245\",\"0.0-236.0\",\"\",\"\",\"2-1\",\"5649\",\"39\",\"0\",\"Testing\",\"Stims/Figures/86-J-0-1.bmp\",\"fashava\",\"Right\",\"37\",\"4\",\"16\",\"6A\",\"C1\",\"J\",\"88\"
\"\",\"\",\"approach-retreat\",\"237\",\"1572461\",\"0.0-237.0\",\"\",\"\",\"2-1\",\"4694\",\"38\",\"0\",\"Testing\",\"Stims/Figures/100-J-10-3.bmp\",\"vafava\",\"Up\",\"40\",\"4\",\"17\",\"6A\",\"C1\",\"J\",\"89\"
\"\",\"\",\"approach-retreat\",\"238\",\"1578844\",\"0.0-238.0\",\"\",\"\",\"2-1\",\"4868\",\"40\",\"0\",\"Testing\",\"Stims/Figures/94-J-0-2.bmp\",\"fafa:va\",\"Down\",\"38\",\"4\",\"18\",\"6A\",\"C1\",\"J\",\"90\"
\"\",\"\",\"approach-retreat\",\"239\",\"1584576\",\"0.0-239.0\",\"\",\"\",\"2-1\",\"4215\",\"38\",\"1\",\"Testing\",\"Stims/Figures/102-J-10-4.bmp\",\"fa:fasha\",\"Down\",\"38\",\"4\",\"19\",\"6A\",\"C1\",\"J\",\"91\"
\"\",\"\",\"approach-retreat\",\"240\",\"1590212\",\"0.0-240.0\",\"\",\"\",\"2-1\",\"4122\",\"38\",\"1\",\"Testing\",\"Stims/Figures/144-C-30-3.bmp\",\"zasa:ha\",\"Up\",\"38\",\"4\",\"20\",\"6A\",\"C2\",\"J\",\"92\"
\"\",\"\",\"approach-retreat\",\"241\",\"1595927\",\"0.0-241.0\",\"\",\"\",\"2-1\",\"4191\",\"40\",\"0\",\"Testing\",\"Stims/Figures/87-J-10-4.bmp\",\"fashasha\",\"Down\",\"38\",\"4\",\"21\",\"6A\",\"C1\",\"J\",\"93\"
\"\",\"\",\"approach-retreat\",\"242\",\"1601691\",\"0.0-242.0\",\"\",\"\",\"2-1\",\"4248\",\"39\",\"0\",\"Testing\",\"Stims/Figures/7-C-20-4.bmp\",\"za:ha:ha\",\"Left\",\"37\",\"4\",\"22\",\"6A\",\"C2\",\"J\",\"94\"
\"\",\"\",\"approach-retreat\",\"243\",\"1607302\",\"0.0-243.0\",\"\",\"\",\"2-1\",\"4091\",\"39\",\"1\",\"Testing\",\"Stims/Figures/100-C-30-3.bmp\",\"sa:haha\",\"Right\",\"39\",\"4\",\"23\",\"6A\",\"C2\",\"J\",\"95\"
\"\",\"\",\"approach-retreat\",\"244\",\"1613019\",\"0.0-244.0\",\"\",\"\",\"2-1\",\"4195\",\"38\",\"0\",\"Testing\",\"Stims/Figures/27-C-30-1.bmp\",\"saha:za\",\"Down\",\"40\",\"4\",\"24\",\"6A\",\"C2\",\"J\",\"96\"
\"25037\",\"\",\"survey-text\",\"245\",\"1638064\",\"0.0-245.0\",\"\",\"{\"\"Q0\"\":\"\"PS160017\"\"}\",\"\",\"\",\"\",\"\",\"\",\"\",\"\",\"\",\"\",\"\",\"\",\"\",\"\",\"\",\"\"
