\"rt\",\"key_press\",\"trial_type\",\"trial_index\",\"time_elapsed\",\"internal_node_id\",\"view_history\",\"responses\",\"Id\",\"Rt\",\"ResKeyCode\",\"ResCorr\",\"TrialType2\",\"Image\",\"Label\",\"Location\",\"CorrectResponse\",\"Block\",\"BlockTrial\",\"Condition\",\"LabelType\",\"Subcondition\",\"trialNum\"
\"23962\",\"32\",\"text\",\"0\",\"23974\",\"0.0-0.0-0.0\",\"\",\"\",\"\",\"\",\"\",\"\",\"\",\"\",\"\",\"\",\"\",\"\",\"\",\"\",\"\",\"\",\"\"
\"40864\",\"\",\"instructions\",\"1\",\"64849\",\"0.0-1.0\",\"[{\"\"page_index\"\":0,\"\"viewing_time\"\":40861}]\",\"\",\"\",\"\",\"\",\"\",\"\",\"\",\"\",\"\",\"\",\"\",\"\",\"\",\"\",\"\",\"\"
\"38086\",\"\",\"survey-multi-choice\",\"2\",\"103045\",\"0.0-2.0\",\"\",\"{\"\"Q0\"\":\"\"Da\"\",\"\"Q1\"\":\"\"Da\"\",\"\"Q2\"\":\"\"Da\"\",\"\"Q3\"\":\"\"Da\"\",\"\"Q4\"\":\"\"Da\"\",\"\"Q5\"\":\"\"Da\"\"}\",\"\",\"\",\"\",\"\",\"\",\"\",\"\",\"\",\"\",\"\",\"\",\"\",\"\",\"\",\"\"
\"\",\"\",\"bio\",\"3\",\"110325\",\"0.0-3.0\",\"\",\"{\"\"age\"\":\"\"19\"\",\"\"gender\"\":\"\"f\"\",\"\"specify\"\":\"\"\"\"}\",\"\",\"\",\"\",\"\",\"\",\"\",\"\",\"\",\"\",\"\",\"\",\"\",\"\",\"\",\"\"
\"\",\"\",\"approach-retreat\",\"4\",\"117721\",\"0.0-4.0\",\"\",\"\",\"3-1\",\"5877\",\"39\",\"0\",\"Training\",\"Stims/Figures/102-C-20-4.bmp\",\"nala:la\",\"Left\",\"37\",\"1\",\"1\",\"4\",\"S\",\"J\",\"1\"
\"\",\"\",\"approach-retreat\",\"5\",\"123139\",\"0.0-5.0\",\"\",\"\",\"3-1\",\"3877\",\"39\",\"1\",\"Training\",\"Stims/Figures/44-J-10-3.bmp\",\"papata\",\"Left\",\"39\",\"1\",\"2\",\"4\",\"P\",\"J\",\"2\"
\"\",\"\",\"approach-retreat\",\"6\",\"129498\",\"0.0-6.0\",\"\",\"\",\"3-1\",\"4824\",\"40\",\"1\",\"Training\",\"Stims/Figures/84-C-20-2.bmp\",\"na:la:na\",\"Down\",\"40\",\"1\",\"3\",\"4\",\"S\",\"J\",\"3\"
\"\",\"\",\"approach-retreat\",\"7\",\"135170\",\"0.0-7.0\",\"\",\"\",\"3-1\",\"4138\",\"38\",\"0\",\"Training\",\"Stims/Figures/19-C-20-4.bmp\",\"ma:la:na\",\"Down\",\"40\",\"1\",\"4\",\"4\",\"S\",\"J\",\"4\"
\"\",\"\",\"approach-retreat\",\"8\",\"141462\",\"0.0-8.0\",\"\",\"\",\"3-1\",\"4759\",\"38\",\"0\",\"Training\",\"Stims/Figures/44-C-30-3.bmp\",\"ma:la:la\",\"Down\",\"40\",\"1\",\"5\",\"4\",\"S\",\"J\",\"5\"
\"\",\"\",\"approach-retreat\",\"9\",\"147081\",\"0.0-9.0\",\"\",\"\",\"3-1\",\"4083\",\"40\",\"1\",\"Training\",\"Stims/Figures/102-J-10-4.bmp\",\"papa:ta\",\"Up\",\"40\",\"1\",\"6\",\"4\",\"P\",\"J\",\"6\"
\"\",\"\",\"approach-retreat\",\"10\",\"152961\",\"0.0-10.0\",\"\",\"\",\"3-1\",\"4351\",\"39\",\"0\",\"Training\",\"Stims/Figures/19-J-10-4.bmp\",\"pa:pa:ka\",\"Right\",\"37\",\"1\",\"7\",\"4\",\"P\",\"J\",\"7\"
\"\",\"\",\"approach-retreat\",\"11\",\"158625\",\"0.0-11.0\",\"\",\"\",\"3-1\",\"4131\",\"37\",\"1\",\"Training\",\"Stims/Figures/27-J-0-1.bmp\",\"pakata\",\"Right\",\"37\",\"1\",\"8\",\"4\",\"P\",\"J\",\"8\"
\"\",\"\",\"approach-retreat\",\"12\",\"164725\",\"0.0-12.0\",\"\",\"\",\"3-1\",\"4567\",\"38\",\"1\",\"Training\",\"Stims/Figures/86-J-0-1.bmp\",\"tapa:ta\",\"Down\",\"38\",\"1\",\"9\",\"4\",\"P\",\"J\",\"9\"
\"\",\"\",\"approach-retreat\",\"13\",\"170390\",\"0.0-13.0\",\"\",\"\",\"3-1\",\"4133\",\"39\",\"1\",\"Training\",\"Stims/Figures/27-C-30-1.bmp\",\"ma:lana\",\"Right\",\"39\",\"1\",\"10\",\"4\",\"S\",\"J\",\"10\"
\"\",\"\",\"approach-retreat\",\"14\",\"176034\",\"0.0-14.0\",\"\",\"\",\"3-1\",\"4116\",\"39\",\"1\",\"Training\",\"Stims/Figures/85-J-0-2.bmp\",\"tapata\",\"Left\",\"39\",\"1\",\"11\",\"4\",\"P\",\"J\",\"11\"
\"\",\"\",\"approach-retreat\",\"15\",\"181524\",\"0.0-15.0\",\"\",\"\",\"3-1\",\"3955\",\"39\",\"1\",\"Training\",\"Stims/Figures/128-J-10-3.bmp\",\"papa:ka\",\"Left\",\"39\",\"1\",\"12\",\"4\",\"P\",\"J\",\"12\"
\"\",\"\",\"approach-retreat\",\"16\",\"187818\",\"0.0-16.0\",\"\",\"\",\"3-1\",\"4762\",\"38\",\"1\",\"Training\",\"Stims/Figures/128-C-30-3.bmp\",\"mala:na\",\"Up\",\"38\",\"1\",\"13\",\"4\",\"S\",\"J\",\"13\"
\"\",\"\",\"approach-retreat\",\"17\",\"194312\",\"0.0-17.0\",\"\",\"\",\"3-1\",\"4960\",\"37\",\"0\",\"Training\",\"Stims/Figures/86-C-30-1.bmp\",\"malala\",\"Right\",\"39\",\"1\",\"14\",\"4\",\"S\",\"J\",\"14\"
\"\",\"\",\"approach-retreat\",\"18\",\"200048\",\"0.0-18.0\",\"\",\"\",\"3-1\",\"4199\",\"40\",\"0\",\"Training\",\"Stims/Figures/85-C-20-2.bmp\",\"ma:mana\",\"Up\",\"38\",\"1\",\"15\",\"4\",\"S\",\"J\",\"15\"
\"\",\"\",\"approach-retreat\",\"19\",\"206564\",\"0.0-19.0\",\"\",\"\",\"3-1\",\"4983\",\"40\",\"1\",\"Training\",\"Stims/Figures/84-J-0-2.bmp\",\"paka:ta\",\"Up\",\"40\",\"1\",\"16\",\"4\",\"P\",\"J\",\"16\"
\"\",\"\",\"approach-retreat\",\"20\",\"212652\",\"0.0-20.0\",\"\",\"\",\"3-1\",\"4553\",\"39\",\"0\",\"Training\",\"Stims/Figures/19-C-20-4.bmp\",\"ma:la:na\",\"Left\",\"37\",\"2\",\"1\",\"4\",\"S\",\"J\",\"17\"
\"\",\"\",\"approach-retreat\",\"21\",\"218028\",\"0.0-21.0\",\"\",\"\",\"3-1\",\"3842\",\"40\",\"1\",\"Training\",\"Stims/Figures/86-J-0-1.bmp\",\"tapa:ta\",\"Up\",\"40\",\"2\",\"2\",\"4\",\"P\",\"J\",\"18\"
\"\",\"\",\"approach-retreat\",\"22\",\"223817\",\"0.0-22.0\",\"\",\"\",\"3-1\",\"4256\",\"39\",\"0\",\"Training\",\"Stims/Figures/84-C-20-2.bmp\",\"na:la:na\",\"Left\",\"37\",\"2\",\"3\",\"4\",\"S\",\"J\",\"19\"
\"\",\"\",\"approach-retreat\",\"23\",\"229317\",\"0.0-23.0\",\"\",\"\",\"3-1\",\"3965\",\"37\",\"1\",\"Training\",\"Stims/Figures/84-J-0-2.bmp\",\"paka:ta\",\"Right\",\"37\",\"2\",\"4\",\"4\",\"P\",\"J\",\"20\"
\"\",\"\",\"approach-retreat\",\"24\",\"235035\",\"0.0-24.0\",\"\",\"\",\"3-1\",\"4182\",\"38\",\"1\",\"Training\",\"Stims/Figures/44-J-10-3.bmp\",\"papata\",\"Down\",\"38\",\"2\",\"5\",\"4\",\"P\",\"J\",\"21\"
\"\",\"\",\"approach-retreat\",\"25\",\"240805\",\"0.0-25.0\",\"\",\"\",\"3-1\",\"4239\",\"37\",\"1\",\"Training\",\"Stims/Figures/44-C-30-3.bmp\",\"ma:la:la\",\"Left\",\"37\",\"2\",\"6\",\"4\",\"S\",\"J\",\"22\"
\"\",\"\",\"approach-retreat\",\"26\",\"246503\",\"0.0-26.0\",\"\",\"\",\"3-1\",\"4164\",\"40\",\"1\",\"Training\",\"Stims/Figures/27-J-0-1.bmp\",\"pakata\",\"Up\",\"40\",\"2\",\"7\",\"4\",\"P\",\"J\",\"23\"
\"\",\"\",\"approach-retreat\",\"27\",\"252051\",\"0.0-27.0\",\"\",\"\",\"3-1\",\"4014\",\"39\",\"0\",\"Training\",\"Stims/Figures/19-J-10-4.bmp\",\"pa:pa:ka\",\"Right\",\"37\",\"2\",\"8\",\"4\",\"P\",\"J\",\"24\"
\"\",\"\",\"approach-retreat\",\"28\",\"257916\",\"0.0-28.0\",\"\",\"\",\"3-1\",\"4328\",\"40\",\"1\",\"Training\",\"Stims/Figures/27-C-30-1.bmp\",\"ma:lana\",\"Down\",\"40\",\"2\",\"9\",\"4\",\"S\",\"J\",\"25\"
\"\",\"\",\"approach-retreat\",\"29\",\"263613\",\"0.0-29.0\",\"\",\"\",\"3-1\",\"4162\",\"40\",\"0\",\"Training\",\"Stims/Figures/86-C-30-1.bmp\",\"malala\",\"Up\",\"38\",\"2\",\"10\",\"4\",\"S\",\"J\",\"26\"
\"\",\"\",\"approach-retreat\",\"30\",\"269246\",\"0.0-30.0\",\"\",\"\",\"3-1\",\"4097\",\"37\",\"1\",\"Training\",\"Stims/Figures/85-J-0-2.bmp\",\"tapata\",\"Right\",\"37\",\"2\",\"11\",\"4\",\"P\",\"J\",\"27\"
\"\",\"\",\"approach-retreat\",\"31\",\"275725\",\"0.0-31.0\",\"\",\"\",\"3-1\",\"4945\",\"37\",\"1\",\"Training\",\"Stims/Figures/128-C-30-3.bmp\",\"mala:na\",\"Left\",\"37\",\"2\",\"12\",\"4\",\"S\",\"J\",\"28\"
\"\",\"\",\"approach-retreat\",\"32\",\"281368\",\"0.0-32.0\",\"\",\"\",\"3-1\",\"4108\",\"40\",\"0\",\"Training\",\"Stims/Figures/128-J-10-3.bmp\",\"papa:ka\",\"Down\",\"38\",\"2\",\"13\",\"4\",\"P\",\"J\",\"29\"
\"\",\"\",\"approach-retreat\",\"33\",\"286958\",\"0.0-33.0\",\"\",\"\",\"3-1\",\"4056\",\"37\",\"1\",\"Training\",\"Stims/Figures/102-J-10-4.bmp\",\"papa:ta\",\"Right\",\"37\",\"2\",\"14\",\"4\",\"P\",\"J\",\"30\"
\"\",\"\",\"approach-retreat\",\"34\",\"292733\",\"0.0-34.0\",\"\",\"\",\"3-1\",\"4242\",\"40\",\"1\",\"Training\",\"Stims/Figures/85-C-20-2.bmp\",\"ma:mana\",\"Down\",\"40\",\"2\",\"15\",\"4\",\"S\",\"J\",\"31\"
\"\",\"\",\"approach-retreat\",\"35\",\"299653\",\"0.0-35.0\",\"\",\"\",\"3-1\",\"5385\",\"38\",\"1\",\"Training\",\"Stims/Figures/102-C-20-4.bmp\",\"nala:la\",\"Up\",\"38\",\"2\",\"16\",\"4\",\"S\",\"J\",\"32\"
\"\",\"\",\"approach-retreat\",\"36\",\"305469\",\"0.0-36.0\",\"\",\"\",\"3-1\",\"4282\",\"37\",\"1\",\"Training\",\"Stims/Figures/128-C-30-3.bmp\",\"mala:na\",\"Left\",\"37\",\"3\",\"1\",\"4\",\"S\",\"J\",\"33\"
\"\",\"\",\"approach-retreat\",\"37\",\"311345\",\"0.0-37.0\",\"\",\"\",\"3-1\",\"4340\",\"37\",\"1\",\"Training\",\"Stims/Figures/84-C-20-2.bmp\",\"na:la:na\",\"Left\",\"37\",\"3\",\"2\",\"4\",\"S\",\"J\",\"34\"
\"\",\"\",\"approach-retreat\",\"38\",\"317167\",\"0.0-38.0\",\"\",\"\",\"3-1\",\"4284\",\"37\",\"1\",\"Training\",\"Stims/Figures/86-J-0-1.bmp\",\"tapa:ta\",\"Right\",\"37\",\"3\",\"3\",\"4\",\"P\",\"J\",\"35\"
\"\",\"\",\"approach-retreat\",\"39\",\"322824\",\"0.0-39.0\",\"\",\"\",\"3-1\",\"4121\",\"40\",\"1\",\"Training\",\"Stims/Figures/44-C-30-3.bmp\",\"ma:la:la\",\"Down\",\"40\",\"3\",\"4\",\"4\",\"S\",\"J\",\"36\"
\"\",\"\",\"approach-retreat\",\"40\",\"328515\",\"0.0-40.0\",\"\",\"\",\"3-1\",\"4159\",\"37\",\"1\",\"Training\",\"Stims/Figures/44-J-10-3.bmp\",\"papata\",\"Right\",\"37\",\"3\",\"5\",\"4\",\"P\",\"J\",\"37\"
\"\",\"\",\"approach-retreat\",\"41\",\"335101\",\"0.0-41.0\",\"\",\"\",\"3-1\",\"5054\",\"38\",\"1\",\"Training\",\"Stims/Figures/27-C-30-1.bmp\",\"ma:lana\",\"Up\",\"38\",\"3\",\"6\",\"4\",\"S\",\"J\",\"38\"
\"\",\"\",\"approach-retreat\",\"42\",\"341356\",\"0.0-42.0\",\"\",\"\",\"3-1\",\"4723\",\"37\",\"1\",\"Training\",\"Stims/Figures/27-J-0-1.bmp\",\"pakata\",\"Right\",\"37\",\"3\",\"7\",\"4\",\"P\",\"J\",\"39\"
\"\",\"\",\"approach-retreat\",\"43\",\"347196\",\"0.0-43.0\",\"\",\"\",\"3-1\",\"4306\",\"38\",\"1\",\"Training\",\"Stims/Figures/128-J-10-3.bmp\",\"papa:ka\",\"Down\",\"38\",\"3\",\"8\",\"4\",\"P\",\"J\",\"40\"
\"\",\"\",\"approach-retreat\",\"44\",\"352754\",\"0.0-44.0\",\"\",\"\",\"3-1\",\"4024\",\"37\",\"1\",\"Training\",\"Stims/Figures/19-J-10-4.bmp\",\"pa:pa:ka\",\"Right\",\"37\",\"3\",\"9\",\"4\",\"P\",\"J\",\"41\"
\"\",\"\",\"approach-retreat\",\"45\",\"359273\",\"0.0-45.0\",\"\",\"\",\"3-1\",\"4989\",\"37\",\"1\",\"Training\",\"Stims/Figures/85-C-20-2.bmp\",\"ma:mana\",\"Left\",\"37\",\"3\",\"10\",\"4\",\"S\",\"J\",\"42\"
\"\",\"\",\"approach-retreat\",\"46\",\"365103\",\"0.0-46.0\",\"\",\"\",\"3-1\",\"4296\",\"37\",\"1\",\"Training\",\"Stims/Figures/19-C-20-4.bmp\",\"ma:la:na\",\"Left\",\"37\",\"3\",\"11\",\"4\",\"S\",\"J\",\"43\"
\"\",\"\",\"approach-retreat\",\"47\",\"371034\",\"0.0-47.0\",\"\",\"\",\"3-1\",\"4398\",\"40\",\"1\",\"Training\",\"Stims/Figures/86-C-30-1.bmp\",\"malala\",\"Down\",\"40\",\"3\",\"12\",\"4\",\"S\",\"J\",\"44\"
\"\",\"\",\"approach-retreat\",\"48\",\"377067\",\"0.0-48.0\",\"\",\"\",\"3-1\",\"4501\",\"40\",\"1\",\"Training\",\"Stims/Figures/102-J-10-4.bmp\",\"papa:ta\",\"Up\",\"40\",\"3\",\"13\",\"4\",\"P\",\"J\",\"45\"
\"\",\"\",\"approach-retreat\",\"49\",\"382996\",\"0.0-49.0\",\"\",\"\",\"3-1\",\"4394\",\"38\",\"1\",\"Training\",\"Stims/Figures/102-C-20-4.bmp\",\"nala:la\",\"Up\",\"38\",\"3\",\"14\",\"4\",\"S\",\"J\",\"46\"
\"\",\"\",\"approach-retreat\",\"50\",\"388686\",\"0.0-50.0\",\"\",\"\",\"3-1\",\"4155\",\"38\",\"1\",\"Training\",\"Stims/Figures/85-J-0-2.bmp\",\"tapata\",\"Down\",\"38\",\"3\",\"15\",\"4\",\"P\",\"J\",\"47\"
\"\",\"\",\"approach-retreat\",\"51\",\"395578\",\"0.0-51.0\",\"\",\"\",\"3-1\",\"5359\",\"40\",\"1\",\"Training\",\"Stims/Figures/84-J-0-2.bmp\",\"paka:ta\",\"Up\",\"40\",\"3\",\"16\",\"4\",\"P\",\"J\",\"48\"
\"\",\"\",\"approach-retreat\",\"52\",\"401614\",\"0.0-52.0\",\"\",\"\",\"3-1\",\"4505\",\"39\",\"1\",\"Training\",\"Stims/Figures/85-C-20-2.bmp\",\"ma:mana\",\"Right\",\"39\",\"4\",\"1\",\"4\",\"S\",\"J\",\"49\"
\"\",\"\",\"approach-retreat\",\"53\",\"407434\",\"0.0-53.0\",\"\",\"\",\"3-1\",\"4285\",\"37\",\"1\",\"Training\",\"Stims/Figures/85-J-0-2.bmp\",\"tapata\",\"Right\",\"37\",\"4\",\"2\",\"4\",\"P\",\"J\",\"50\"
\"\",\"\",\"approach-retreat\",\"54\",\"413784\",\"0.0-54.0\",\"\",\"\",\"3-1\",\"4816\",\"40\",\"1\",\"Training\",\"Stims/Figures/44-C-30-3.bmp\",\"ma:la:la\",\"Down\",\"40\",\"4\",\"3\",\"4\",\"S\",\"J\",\"51\"
\"\",\"\",\"approach-retreat\",\"55\",\"420119\",\"0.0-55.0\",\"\",\"\",\"3-1\",\"4803\",\"38\",\"1\",\"Training\",\"Stims/Figures/86-C-30-1.bmp\",\"malala\",\"Up\",\"38\",\"4\",\"4\",\"4\",\"S\",\"J\",\"52\"
\"\",\"\",\"approach-retreat\",\"56\",\"426412\",\"0.0-56.0\",\"\",\"\",\"3-1\",\"4757\",\"39\",\"1\",\"Training\",\"Stims/Figures/128-C-30-3.bmp\",\"mala:na\",\"Right\",\"39\",\"4\",\"5\",\"4\",\"S\",\"J\",\"53\"
\"\",\"\",\"approach-retreat\",\"57\",\"432005\",\"0.0-57.0\",\"\",\"\",\"3-1\",\"4051\",\"39\",\"1\",\"Training\",\"Stims/Figures/84-C-20-2.bmp\",\"na:la:na\",\"Right\",\"39\",\"4\",\"6\",\"4\",\"S\",\"J\",\"54\"
\"\",\"\",\"approach-retreat\",\"58\",\"437621\",\"0.0-58.0\",\"\",\"\",\"3-1\",\"4083\",\"38\",\"1\",\"Training\",\"Stims/Figures/44-J-10-3.bmp\",\"papata\",\"Down\",\"38\",\"4\",\"7\",\"4\",\"P\",\"J\",\"55\"
\"\",\"\",\"approach-retreat\",\"59\",\"443200\",\"0.0-59.0\",\"\",\"\",\"3-1\",\"4048\",\"38\",\"1\",\"Training\",\"Stims/Figures/27-C-30-1.bmp\",\"ma:lana\",\"Up\",\"38\",\"4\",\"8\",\"4\",\"S\",\"J\",\"56\"
\"\",\"\",\"approach-retreat\",\"60\",\"448698\",\"0.0-60.0\",\"\",\"\",\"3-1\",\"3964\",\"38\",\"1\",\"Training\",\"Stims/Figures/84-J-0-2.bmp\",\"paka:ta\",\"Down\",\"38\",\"4\",\"9\",\"4\",\"P\",\"J\",\"57\"
\"\",\"\",\"approach-retreat\",\"61\",\"454856\",\"0.0-61.0\",\"\",\"\",\"3-1\",\"4630\",\"39\",\"1\",\"Training\",\"Stims/Figures/102-J-10-4.bmp\",\"papa:ta\",\"Left\",\"39\",\"4\",\"10\",\"4\",\"P\",\"J\",\"58\"
\"\",\"\",\"approach-retreat\",\"62\",\"461092\",\"0.0-62.0\",\"\",\"\",\"3-1\",\"4700\",\"37\",\"1\",\"Training\",\"Stims/Figures/19-C-20-4.bmp\",\"ma:la:na\",\"Left\",\"37\",\"4\",\"11\",\"4\",\"S\",\"J\",\"59\"
\"\",\"\",\"approach-retreat\",\"63\",\"467471\",\"0.0-63.0\",\"\",\"\",\"3-1\",\"4844\",\"39\",\"1\",\"Training\",\"Stims/Figures/86-J-0-1.bmp\",\"tapa:ta\",\"Left\",\"39\",\"4\",\"12\",\"4\",\"P\",\"J\",\"60\"
\"\",\"\",\"approach-retreat\",\"64\",\"473338\",\"0.0-64.0\",\"\",\"\",\"3-1\",\"4333\",\"40\",\"1\",\"Training\",\"Stims/Figures/27-J-0-1.bmp\",\"pakata\",\"Up\",\"40\",\"4\",\"13\",\"4\",\"P\",\"J\",\"61\"
\"\",\"\",\"approach-retreat\",\"65\",\"479389\",\"0.0-65.0\",\"\",\"\",\"3-1\",\"4518\",\"39\",\"1\",\"Training\",\"Stims/Figures/128-J-10-3.bmp\",\"papa:ka\",\"Left\",\"39\",\"4\",\"14\",\"4\",\"P\",\"J\",\"62\"
\"\",\"\",\"approach-retreat\",\"66\",\"485739\",\"0.0-66.0\",\"\",\"\",\"3-1\",\"4829\",\"38\",\"1\",\"Training\",\"Stims/Figures/19-J-10-4.bmp\",\"pa:pa:ka\",\"Down\",\"38\",\"4\",\"15\",\"4\",\"P\",\"J\",\"63\"
\"\",\"\",\"approach-retreat\",\"67\",\"491487\",\"0.0-67.0\",\"\",\"\",\"3-1\",\"4217\",\"38\",\"1\",\"Training\",\"Stims/Figures/102-C-20-4.bmp\",\"nala:la\",\"Up\",\"38\",\"4\",\"16\",\"4\",\"S\",\"J\",\"64\"
\"\",\"\",\"approach-retreat\",\"68\",\"497220\",\"0.0-68.0\",\"\",\"\",\"3-1\",\"4200\",\"40\",\"1\",\"Training\",\"Stims/Figures/19-J-10-4.bmp\",\"pa:pa:ka\",\"Up\",\"40\",\"5\",\"1\",\"4\",\"P\",\"J\",\"65\"
\"\",\"\",\"approach-retreat\",\"69\",\"502952\",\"0.0-69.0\",\"\",\"\",\"3-1\",\"4193\",\"40\",\"1\",\"Training\",\"Stims/Figures/102-J-10-4.bmp\",\"papa:ta\",\"Up\",\"40\",\"5\",\"2\",\"4\",\"P\",\"J\",\"66\"
\"\",\"\",\"approach-retreat\",\"70\",\"508844\",\"0.0-70.0\",\"\",\"\",\"3-1\",\"4359\",\"37\",\"1\",\"Training\",\"Stims/Figures/84-C-20-2.bmp\",\"na:la:na\",\"Left\",\"37\",\"5\",\"3\",\"4\",\"S\",\"J\",\"67\"
\"\",\"\",\"approach-retreat\",\"71\",\"515480\",\"0.0-71.0\",\"\",\"\",\"3-1\",\"5108\",\"38\",\"1\",\"Training\",\"Stims/Figures/44-J-10-3.bmp\",\"papata\",\"Down\",\"38\",\"5\",\"4\",\"4\",\"P\",\"J\",\"68\"
\"\",\"\",\"approach-retreat\",\"72\",\"522551\",\"0.0-72.0\",\"\",\"\",\"3-1\",\"5539\",\"38\",\"1\",\"Training\",\"Stims/Figures/86-J-0-1.bmp\",\"tapa:ta\",\"Down\",\"38\",\"5\",\"5\",\"4\",\"P\",\"J\",\"69\"
\"\",\"\",\"approach-retreat\",\"73\",\"528833\",\"0.0-73.0\",\"\",\"\",\"3-1\",\"4749\",\"38\",\"1\",\"Training\",\"Stims/Figures/27-C-30-1.bmp\",\"ma:lana\",\"Up\",\"38\",\"5\",\"6\",\"4\",\"S\",\"J\",\"70\"
\"\",\"\",\"approach-retreat\",\"74\",\"534814\",\"0.0-74.0\",\"\",\"\",\"3-1\",\"4448\",\"37\",\"1\",\"Training\",\"Stims/Figures/27-J-0-1.bmp\",\"pakata\",\"Right\",\"37\",\"5\",\"7\",\"4\",\"P\",\"J\",\"71\"
\"\",\"\",\"approach-retreat\",\"75\",\"540658\",\"0.0-75.0\",\"\",\"\",\"3-1\",\"4311\",\"40\",\"1\",\"Training\",\"Stims/Figures/102-C-20-4.bmp\",\"nala:la\",\"Down\",\"40\",\"5\",\"8\",\"4\",\"S\",\"J\",\"72\"
\"\",\"\",\"approach-retreat\",\"76\",\"546558\",\"0.0-76.0\",\"\",\"\",\"3-1\",\"4366\",\"37\",\"1\",\"Training\",\"Stims/Figures/86-C-30-1.bmp\",\"malala\",\"Left\",\"37\",\"5\",\"9\",\"4\",\"S\",\"J\",\"73\"
\"\",\"\",\"approach-retreat\",\"77\",\"552024\",\"0.0-77.0\",\"\",\"\",\"3-1\",\"3937\",\"40\",\"1\",\"Training\",\"Stims/Figures/44-C-30-3.bmp\",\"ma:la:la\",\"Down\",\"40\",\"5\",\"10\",\"4\",\"S\",\"J\",\"74\"
\"\",\"\",\"approach-retreat\",\"78\",\"558111\",\"0.0-78.0\",\"\",\"\",\"3-1\",\"4553\",\"40\",\"1\",\"Training\",\"Stims/Figures/84-J-0-2.bmp\",\"paka:ta\",\"Up\",\"40\",\"5\",\"11\",\"4\",\"P\",\"J\",\"75\"
\"\",\"\",\"approach-retreat\",\"79\",\"564730\",\"0.0-79.0\",\"\",\"\",\"3-1\",\"5085\",\"37\",\"1\",\"Training\",\"Stims/Figures/85-C-20-2.bmp\",\"ma:mana\",\"Left\",\"37\",\"5\",\"12\",\"4\",\"S\",\"J\",\"76\"
\"\",\"\",\"approach-retreat\",\"80\",\"573200\",\"0.0-80.0\",\"\",\"\",\"3-1\",\"6939\",\"37\",\"1\",\"Training\",\"Stims/Figures/19-C-20-4.bmp\",\"ma:la:na\",\"Left\",\"37\",\"5\",\"13\",\"4\",\"S\",\"J\",\"77\"
\"\",\"\",\"approach-retreat\",\"81\",\"580385\",\"0.0-81.0\",\"\",\"\",\"3-1\",\"5656\",\"39\",\"1\",\"Training\",\"Stims/Figures/128-C-30-3.bmp\",\"mala:na\",\"Right\",\"39\",\"5\",\"14\",\"4\",\"S\",\"J\",\"78\"
\"\",\"\",\"approach-retreat\",\"82\",\"585932\",\"0.0-82.0\",\"\",\"\",\"3-1\",\"4013\",\"37\",\"1\",\"Training\",\"Stims/Figures/85-J-0-2.bmp\",\"tapata\",\"Right\",\"37\",\"5\",\"15\",\"4\",\"P\",\"J\",\"79\"
\"\",\"\",\"approach-retreat\",\"83\",\"591379\",\"0.0-83.0\",\"\",\"\",\"3-1\",\"3914\",\"37\",\"1\",\"Training\",\"Stims/Figures/128-J-10-3.bmp\",\"papa:ka\",\"Right\",\"37\",\"5\",\"16\",\"4\",\"P\",\"J\",\"80\"
\"\",\"\",\"approach-retreat\",\"84\",\"597062\",\"0.0-84.0\",\"\",\"\",\"3-1\",\"4149\",\"38\",\"1\",\"Training\",\"Stims/Figures/85-C-20-2.bmp\",\"ma:mana\",\"Up\",\"38\",\"6\",\"1\",\"4\",\"S\",\"J\",\"81\"
\"\",\"\",\"approach-retreat\",\"85\",\"602509\",\"0.0-85.0\",\"\",\"\",\"3-1\",\"3914\",\"37\",\"1\",\"Training\",\"Stims/Figures/128-J-10-3.bmp\",\"papa:ka\",\"Right\",\"37\",\"6\",\"2\",\"4\",\"P\",\"J\",\"82\"
\"\",\"\",\"approach-retreat\",\"86\",\"608043\",\"0.0-86.0\",\"\",\"\",\"3-1\",\"4001\",\"37\",\"1\",\"Training\",\"Stims/Figures/85-J-0-2.bmp\",\"tapata\",\"Right\",\"37\",\"6\",\"3\",\"4\",\"P\",\"J\",\"83\"
\"\",\"\",\"approach-retreat\",\"87\",\"613698\",\"0.0-87.0\",\"\",\"\",\"3-1\",\"4119\",\"38\",\"1\",\"Training\",\"Stims/Figures/84-J-0-2.bmp\",\"paka:ta\",\"Down\",\"38\",\"6\",\"4\",\"4\",\"P\",\"J\",\"84\"
\"\",\"\",\"approach-retreat\",\"88\",\"619836\",\"0.0-88.0\",\"\",\"\",\"3-1\",\"4609\",\"39\",\"1\",\"Training\",\"Stims/Figures/86-C-30-1.bmp\",\"malala\",\"Right\",\"39\",\"6\",\"5\",\"4\",\"S\",\"J\",\"85\"
\"\",\"\",\"approach-retreat\",\"89\",\"625803\",\"0.0-89.0\",\"\",\"\",\"3-1\",\"4433\",\"40\",\"1\",\"Training\",\"Stims/Figures/27-J-0-1.bmp\",\"pakata\",\"Up\",\"40\",\"6\",\"6\",\"4\",\"P\",\"J\",\"86\"
\"\",\"\",\"approach-retreat\",\"90\",\"632032\",\"0.0-90.0\",\"\",\"\",\"3-1\",\"4695\",\"38\",\"1\",\"Training\",\"Stims/Figures/44-C-30-3.bmp\",\"ma:la:la\",\"Up\",\"38\",\"6\",\"7\",\"4\",\"S\",\"J\",\"87\"
\"\",\"\",\"approach-retreat\",\"91\",\"637513\",\"0.0-91.0\",\"\",\"\",\"3-1\",\"3946\",\"39\",\"1\",\"Training\",\"Stims/Figures/19-J-10-4.bmp\",\"pa:pa:ka\",\"Left\",\"39\",\"6\",\"8\",\"4\",\"P\",\"J\",\"88\"
\"\",\"\",\"approach-retreat\",\"92\",\"643514\",\"0.0-92.0\",\"\",\"\",\"3-1\",\"4470\",\"39\",\"1\",\"Training\",\"Stims/Figures/84-C-20-2.bmp\",\"na:la:na\",\"Right\",\"39\",\"6\",\"9\",\"4\",\"S\",\"J\",\"89\"
\"\",\"\",\"approach-retreat\",\"93\",\"649006\",\"0.0-93.0\",\"\",\"\",\"3-1\",\"3959\",\"39\",\"1\",\"Training\",\"Stims/Figures/44-J-10-3.bmp\",\"papata\",\"Left\",\"39\",\"6\",\"10\",\"4\",\"P\",\"J\",\"90\"
\"\",\"\",\"approach-retreat\",\"94\",\"654516\",\"0.0-94.0\",\"\",\"\",\"3-1\",\"3980\",\"38\",\"0\",\"Training\",\"Stims/Figures/86-J-0-1.bmp\",\"tapa:ta\",\"Up\",\"40\",\"6\",\"11\",\"4\",\"P\",\"J\",\"91\"
\"\",\"\",\"approach-retreat\",\"95\",\"660152\",\"0.0-95.0\",\"\",\"\",\"3-1\",\"4101\",\"40\",\"1\",\"Training\",\"Stims/Figures/19-C-20-4.bmp\",\"ma:la:na\",\"Down\",\"40\",\"6\",\"12\",\"4\",\"S\",\"J\",\"92\"
\"\",\"\",\"approach-retreat\",\"96\",\"666224\",\"0.0-96.0\",\"\",\"\",\"3-1\",\"4539\",\"37\",\"1\",\"Training\",\"Stims/Figures/128-C-30-3.bmp\",\"mala:na\",\"Left\",\"37\",\"6\",\"13\",\"4\",\"S\",\"J\",\"93\"
\"\",\"\",\"approach-retreat\",\"97\",\"671796\",\"0.0-97.0\",\"\",\"\",\"3-1\",\"4039\",\"38\",\"1\",\"Training\",\"Stims/Figures/102-J-10-4.bmp\",\"papa:ta\",\"Down\",\"38\",\"6\",\"14\",\"4\",\"P\",\"J\",\"94\"
\"\",\"\",\"approach-retreat\",\"98\",\"677513\",\"0.0-98.0\",\"\",\"\",\"3-1\",\"4183\",\"37\",\"1\",\"Training\",\"Stims/Figures/27-C-30-1.bmp\",\"ma:lana\",\"Left\",\"37\",\"6\",\"15\",\"4\",\"S\",\"J\",\"95\"
\"\",\"\",\"approach-retreat\",\"99\",\"683143\",\"0.0-99.0\",\"\",\"\",\"3-1\",\"4095\",\"40\",\"1\",\"Training\",\"Stims/Figures/102-C-20-4.bmp\",\"nala:la\",\"Down\",\"40\",\"6\",\"16\",\"4\",\"S\",\"J\",\"96\"
\"\",\"\",\"approach-retreat\",\"100\",\"688863\",\"0.0-100.0\",\"\",\"\",\"3-1\",\"4186\",\"40\",\"1\",\"Training\",\"Stims/Figures/27-J-0-1.bmp\",\"pakata\",\"Up\",\"40\",\"7\",\"1\",\"4\",\"P\",\"J\",\"97\"
\"\",\"\",\"approach-retreat\",\"101\",\"694506\",\"0.0-101.0\",\"\",\"\",\"3-1\",\"4109\",\"40\",\"1\",\"Training\",\"Stims/Figures/44-C-30-3.bmp\",\"ma:la:la\",\"Down\",\"40\",\"7\",\"2\",\"4\",\"S\",\"J\",\"98\"
\"\",\"\",\"approach-retreat\",\"102\",\"700059\",\"0.0-102.0\",\"\",\"\",\"3-1\",\"4018\",\"39\",\"1\",\"Training\",\"Stims/Figures/19-C-20-4.bmp\",\"ma:la:na\",\"Right\",\"39\",\"7\",\"3\",\"4\",\"S\",\"J\",\"99\"
\"\",\"\",\"approach-retreat\",\"103\",\"705617\",\"0.0-103.0\",\"\",\"\",\"3-1\",\"4024\",\"37\",\"1\",\"Training\",\"Stims/Figures/128-C-30-3.bmp\",\"mala:na\",\"Left\",\"37\",\"7\",\"4\",\"4\",\"S\",\"J\",\"100\"
\"\",\"\",\"approach-retreat\",\"104\",\"711131\",\"0.0-104.0\",\"\",\"\",\"3-1\",\"3981\",\"37\",\"1\",\"Training\",\"Stims/Figures/84-J-0-2.bmp\",\"paka:ta\",\"Right\",\"37\",\"7\",\"5\",\"4\",\"P\",\"J\",\"101\"
\"\",\"\",\"approach-retreat\",\"105\",\"716886\",\"0.0-105.0\",\"\",\"\",\"3-1\",\"4225\",\"37\",\"1\",\"Training\",\"Stims/Figures/84-C-20-2.bmp\",\"na:la:na\",\"Left\",\"37\",\"7\",\"6\",\"4\",\"S\",\"J\",\"102\"
\"\",\"\",\"approach-retreat\",\"106\",\"722326\",\"0.0-106.0\",\"\",\"\",\"3-1\",\"3909\",\"37\",\"1\",\"Training\",\"Stims/Figures/86-J-0-1.bmp\",\"tapa:ta\",\"Right\",\"37\",\"7\",\"7\",\"4\",\"P\",\"J\",\"103\"
\"\",\"\",\"approach-retreat\",\"107\",\"727944\",\"0.0-107.0\",\"\",\"\",\"3-1\",\"4085\",\"39\",\"1\",\"Training\",\"Stims/Figures/19-J-10-4.bmp\",\"pa:pa:ka\",\"Left\",\"39\",\"7\",\"8\",\"4\",\"P\",\"J\",\"104\"
\"\",\"\",\"approach-retreat\",\"108\",\"733460\",\"0.0-108.0\",\"\",\"\",\"3-1\",\"3982\",\"40\",\"1\",\"Training\",\"Stims/Figures/85-J-0-2.bmp\",\"tapata\",\"Up\",\"40\",\"7\",\"9\",\"4\",\"P\",\"J\",\"105\"
\"\",\"\",\"approach-retreat\",\"109\",\"739143\",\"0.0-109.0\",\"\",\"\",\"3-1\",\"4151\",\"38\",\"1\",\"Training\",\"Stims/Figures/128-J-10-3.bmp\",\"papa:ka\",\"Down\",\"38\",\"7\",\"10\",\"4\",\"P\",\"J\",\"106\"
\"\",\"\",\"approach-retreat\",\"110\",\"744612\",\"0.0-110.0\",\"\",\"\",\"3-1\",\"3935\",\"38\",\"1\",\"Training\",\"Stims/Figures/27-C-30-1.bmp\",\"ma:lana\",\"Up\",\"38\",\"7\",\"11\",\"4\",\"S\",\"J\",\"107\"
\"\",\"\",\"approach-retreat\",\"111\",\"750105\",\"0.0-111.0\",\"\",\"\",\"3-1\",\"3960\",\"38\",\"1\",\"Training\",\"Stims/Figures/86-C-30-1.bmp\",\"malala\",\"Up\",\"38\",\"7\",\"12\",\"4\",\"S\",\"J\",\"108\"
\"\",\"\",\"approach-retreat\",\"112\",\"755554\",\"0.0-112.0\",\"\",\"\",\"3-1\",\"3916\",\"38\",\"1\",\"Training\",\"Stims/Figures/44-J-10-3.bmp\",\"papata\",\"Down\",\"38\",\"7\",\"13\",\"4\",\"P\",\"J\",\"109\"
\"\",\"\",\"approach-retreat\",\"113\",\"761564\",\"0.0-113.0\",\"\",\"\",\"3-1\",\"4476\",\"40\",\"1\",\"Training\",\"Stims/Figures/85-C-20-2.bmp\",\"ma:mana\",\"Down\",\"40\",\"7\",\"14\",\"4\",\"S\",\"J\",\"110\"
\"\",\"\",\"approach-retreat\",\"114\",\"767546\",\"0.0-114.0\",\"\",\"\",\"3-1\",\"4451\",\"37\",\"1\",\"Training\",\"Stims/Figures/102-J-10-4.bmp\",\"papa:ta\",\"Right\",\"37\",\"7\",\"15\",\"4\",\"P\",\"J\",\"111\"
\"\",\"\",\"approach-retreat\",\"115\",\"773022\",\"0.0-115.0\",\"\",\"\",\"3-1\",\"3942\",\"37\",\"1\",\"Training\",\"Stims/Figures/102-C-20-4.bmp\",\"nala:la\",\"Left\",\"37\",\"7\",\"16\",\"4\",\"S\",\"J\",\"112\"
\"\",\"\",\"approach-retreat\",\"116\",\"778577\",\"0.0-116.0\",\"\",\"\",\"3-1\",\"4024\",\"40\",\"1\",\"Training\",\"Stims/Figures/85-C-20-2.bmp\",\"ma:mana\",\"Down\",\"40\",\"8\",\"1\",\"4\",\"S\",\"J\",\"113\"
\"\",\"\",\"approach-retreat\",\"117\",\"784654\",\"0.0-117.0\",\"\",\"\",\"3-1\",\"4547\",\"40\",\"0\",\"Training\",\"Stims/Figures/86-C-30-1.bmp\",\"malala\",\"Up\",\"38\",\"8\",\"2\",\"4\",\"S\",\"J\",\"114\"
\"\",\"\",\"approach-retreat\",\"118\",\"790114\",\"0.0-118.0\",\"\",\"\",\"3-1\",\"3928\",\"38\",\"1\",\"Training\",\"Stims/Figures/44-J-10-3.bmp\",\"papata\",\"Down\",\"38\",\"8\",\"3\",\"4\",\"P\",\"J\",\"115\"
\"\",\"\",\"approach-retreat\",\"119\",\"795602\",\"0.0-119.0\",\"\",\"\",\"3-1\",\"3952\",\"40\",\"1\",\"Training\",\"Stims/Figures/27-J-0-1.bmp\",\"pakata\",\"Up\",\"40\",\"8\",\"4\",\"4\",\"P\",\"J\",\"116\"
\"\",\"\",\"approach-retreat\",\"120\",\"801064\",\"0.0-120.0\",\"\",\"\",\"3-1\",\"3929\",\"39\",\"1\",\"Training\",\"Stims/Figures/128-C-30-3.bmp\",\"mala:na\",\"Right\",\"39\",\"8\",\"5\",\"4\",\"S\",\"J\",\"117\"
\"\",\"\",\"approach-retreat\",\"121\",\"806940\",\"0.0-121.0\",\"\",\"\",\"3-1\",\"4343\",\"40\",\"1\",\"Training\",\"Stims/Figures/84-C-20-2.bmp\",\"na:la:na\",\"Down\",\"40\",\"8\",\"6\",\"4\",\"S\",\"J\",\"118\"
\"\",\"\",\"approach-retreat\",\"122\",\"812524\",\"0.0-122.0\",\"\",\"\",\"3-1\",\"4050\",\"40\",\"1\",\"Training\",\"Stims/Figures/19-J-10-4.bmp\",\"pa:pa:ka\",\"Up\",\"40\",\"8\",\"7\",\"4\",\"P\",\"J\",\"119\"
\"\",\"\",\"approach-retreat\",\"123\",\"818338\",\"0.0-123.0\",\"\",\"\",\"3-1\",\"4279\",\"37\",\"1\",\"Training\",\"Stims/Figures/102-C-20-4.bmp\",\"nala:la\",\"Left\",\"37\",\"8\",\"8\",\"4\",\"S\",\"J\",\"120\"
\"\",\"\",\"approach-retreat\",\"124\",\"823882\",\"0.0-124.0\",\"\",\"\",\"3-1\",\"4010\",\"38\",\"1\",\"Training\",\"Stims/Figures/27-C-30-1.bmp\",\"ma:lana\",\"Up\",\"38\",\"8\",\"9\",\"4\",\"S\",\"J\",\"121\"
\"\",\"\",\"approach-retreat\",\"125\",\"829445\",\"0.0-125.0\",\"\",\"\",\"3-1\",\"4029\",\"38\",\"1\",\"Training\",\"Stims/Figures/84-J-0-2.bmp\",\"paka:ta\",\"Down\",\"38\",\"8\",\"10\",\"4\",\"P\",\"J\",\"122\"
\"\",\"\",\"approach-retreat\",\"126\",\"835020\",\"0.0-126.0\",\"\",\"\",\"3-1\",\"4039\",\"39\",\"1\",\"Training\",\"Stims/Figures/85-J-0-2.bmp\",\"tapata\",\"Left\",\"39\",\"8\",\"11\",\"4\",\"P\",\"J\",\"123\"
\"\",\"\",\"approach-retreat\",\"127\",\"840492\",\"0.0-127.0\",\"\",\"\",\"3-1\",\"3937\",\"39\",\"1\",\"Training\",\"Stims/Figures/86-J-0-1.bmp\",\"tapa:ta\",\"Left\",\"39\",\"8\",\"12\",\"4\",\"P\",\"J\",\"124\"
\"\",\"\",\"approach-retreat\",\"128\",\"845943\",\"0.0-128.0\",\"\",\"\",\"3-1\",\"3917\",\"39\",\"1\",\"Training\",\"Stims/Figures/102-J-10-4.bmp\",\"papa:ta\",\"Left\",\"39\",\"8\",\"13\",\"4\",\"P\",\"J\",\"125\"
\"\",\"\",\"approach-retreat\",\"129\",\"851387\",\"0.0-129.0\",\"\",\"\",\"3-1\",\"3909\",\"37\",\"1\",\"Training\",\"Stims/Figures/128-J-10-3.bmp\",\"papa:ka\",\"Right\",\"37\",\"8\",\"14\",\"4\",\"P\",\"J\",\"126\"
\"\",\"\",\"approach-retreat\",\"130\",\"856965\",\"0.0-130.0\",\"\",\"\",\"3-1\",\"4045\",\"39\",\"1\",\"Training\",\"Stims/Figures/44-C-30-3.bmp\",\"ma:la:la\",\"Right\",\"39\",\"8\",\"15\",\"4\",\"S\",\"J\",\"127\"
\"\",\"\",\"approach-retreat\",\"131\",\"862560\",\"0.0-131.0\",\"\",\"\",\"3-1\",\"4061\",\"39\",\"1\",\"Training\",\"Stims/Figures/19-C-20-4.bmp\",\"ma:la:na\",\"Right\",\"39\",\"8\",\"16\",\"4\",\"S\",\"J\",\"128\"
\"\",\"\",\"approach-retreat\",\"132\",\"868217\",\"0.0-132.0\",\"\",\"\",\"3-1\",\"4123\",\"38\",\"1\",\"Training\",\"Stims/Figures/44-C-30-3.bmp\",\"ma:la:la\",\"Up\",\"38\",\"9\",\"1\",\"4\",\"S\",\"J\",\"129\"
\"\",\"\",\"approach-retreat\",\"133\",\"873775\",\"0.0-133.0\",\"\",\"\",\"3-1\",\"4027\",\"38\",\"1\",\"Training\",\"Stims/Figures/128-J-10-3.bmp\",\"papa:ka\",\"Down\",\"38\",\"9\",\"2\",\"4\",\"P\",\"J\",\"130\"
\"\",\"\",\"approach-retreat\",\"134\",\"879607\",\"0.0-134.0\",\"\",\"\",\"3-1\",\"4300\",\"37\",\"1\",\"Training\",\"Stims/Figures/44-J-10-3.bmp\",\"papata\",\"Right\",\"37\",\"9\",\"3\",\"4\",\"P\",\"J\",\"131\"
\"\",\"\",\"approach-retreat\",\"135\",\"885367\",\"0.0-135.0\",\"\",\"\",\"3-1\",\"4225\",\"38\",\"1\",\"Training\",\"Stims/Figures/19-J-10-4.bmp\",\"pa:pa:ka\",\"Down\",\"38\",\"9\",\"4\",\"4\",\"P\",\"J\",\"132\"
\"\",\"\",\"approach-retreat\",\"136\",\"890781\",\"0.0-136.0\",\"\",\"\",\"3-1\",\"3879\",\"39\",\"1\",\"Training\",\"Stims/Figures/85-J-0-2.bmp\",\"tapata\",\"Left\",\"39\",\"9\",\"5\",\"4\",\"P\",\"J\",\"133\"
\"\",\"\",\"approach-retreat\",\"137\",\"896504\",\"0.0-137.0\",\"\",\"\",\"3-1\",\"4189\",\"37\",\"1\",\"Training\",\"Stims/Figures/84-C-20-2.bmp\",\"na:la:na\",\"Left\",\"37\",\"9\",\"6\",\"4\",\"S\",\"J\",\"134\"
\"\",\"\",\"approach-retreat\",\"138\",\"901903\",\"0.0-138.0\",\"\",\"\",\"3-1\",\"3867\",\"39\",\"1\",\"Training\",\"Stims/Figures/86-C-30-1.bmp\",\"malala\",\"Right\",\"39\",\"9\",\"7\",\"4\",\"S\",\"J\",\"135\"
\"\",\"\",\"approach-retreat\",\"139\",\"907425\",\"0.0-139.0\",\"\",\"\",\"3-1\",\"3992\",\"38\",\"1\",\"Training\",\"Stims/Figures/128-C-30-3.bmp\",\"mala:na\",\"Up\",\"38\",\"9\",\"8\",\"4\",\"S\",\"J\",\"136\"
\"\",\"\",\"approach-retreat\",\"140\",\"912905\",\"0.0-140.0\",\"\",\"\",\"3-1\",\"3947\",\"38\",\"1\",\"Training\",\"Stims/Figures/27-J-0-1.bmp\",\"pakata\",\"Down\",\"38\",\"9\",\"9\",\"4\",\"P\",\"J\",\"137\"
\"\",\"\",\"approach-retreat\",\"141\",\"918742\",\"0.0-141.0\",\"\",\"\",\"3-1\",\"4304\",\"39\",\"1\",\"Training\",\"Stims/Figures/19-C-20-4.bmp\",\"ma:la:na\",\"Right\",\"39\",\"9\",\"10\",\"4\",\"S\",\"J\",\"138\"
\"\",\"\",\"approach-retreat\",\"142\",\"924288\",\"0.0-142.0\",\"\",\"\",\"3-1\",\"4013\",\"38\",\"1\",\"Training\",\"Stims/Figures/86-J-0-1.bmp\",\"tapa:ta\",\"Down\",\"38\",\"9\",\"11\",\"4\",\"P\",\"J\",\"139\"
\"\",\"\",\"approach-retreat\",\"143\",\"929805\",\"0.0-143.0\",\"\",\"\",\"3-1\",\"3987\",\"39\",\"1\",\"Training\",\"Stims/Figures/85-C-20-2.bmp\",\"ma:mana\",\"Right\",\"39\",\"9\",\"12\",\"4\",\"S\",\"J\",\"140\"
\"\",\"\",\"approach-retreat\",\"144\",\"935334\",\"0.0-144.0\",\"\",\"\",\"3-1\",\"3995\",\"39\",\"1\",\"Training\",\"Stims/Figures/102-J-10-4.bmp\",\"papa:ta\",\"Left\",\"39\",\"9\",\"13\",\"4\",\"P\",\"J\",\"141\"
\"\",\"\",\"approach-retreat\",\"145\",\"940732\",\"0.0-145.0\",\"\",\"\",\"3-1\",\"3865\",\"40\",\"1\",\"Training\",\"Stims/Figures/84-J-0-2.bmp\",\"paka:ta\",\"Up\",\"40\",\"9\",\"14\",\"4\",\"P\",\"J\",\"142\"
\"\",\"\",\"approach-retreat\",\"146\",\"946228\",\"0.0-146.0\",\"\",\"\",\"3-1\",\"3963\",\"37\",\"1\",\"Training\",\"Stims/Figures/102-C-20-4.bmp\",\"nala:la\",\"Left\",\"37\",\"9\",\"15\",\"4\",\"S\",\"J\",\"143\"
\"\",\"\",\"approach-retreat\",\"147\",\"951892\",\"0.0-147.0\",\"\",\"\",\"3-1\",\"4133\",\"38\",\"1\",\"Training\",\"Stims/Figures/27-C-30-1.bmp\",\"ma:lana\",\"Up\",\"38\",\"9\",\"16\",\"4\",\"S\",\"J\",\"144\"
\"8719\",\"\",\"instructions\",\"148\",\"960614\",\"0.0-148.0\",\"[{\"\"page_index\"\":0,\"\"viewing_time\"\":8719}]\",\"\",\"\",\"\",\"\",\"\",\"\",\"\",\"\",\"\",\"\",\"\",\"\",\"\",\"\",\"\",\"\"
\"\",\"\",\"approach-retreat\",\"149\",\"966948\",\"0.0-149.0\",\"\",\"\",\"3-1\",\"4828\",\"37\",\"1\",\"Testing\",\"Stims/Figures/86-C-30-1.bmp\",\"malala\",\"Left\",\"37\",\"1\",\"1\",\"4\",\"S\",\"J\",\"1\"
\"\",\"\",\"approach-retreat\",\"150\",\"972789\",\"0.0-150.0\",\"\",\"\",\"3-1\",\"4314\",\"40\",\"0\",\"Testing\",\"Stims/Figures/87-J-10-4.bmp\",\"taka:ta\",\"Down\",\"38\",\"1\",\"2\",\"4\",\"P\",\"J\",\"2\"
\"\",\"\",\"approach-retreat\",\"151\",\"978706\",\"0.0-151.0\",\"\",\"\",\"3-1\",\"4388\",\"40\",\"0\",\"Testing\",\"Stims/Figures/86-J-0-1.bmp\",\"tapa:ta\",\"Down\",\"38\",\"1\",\"3\",\"4\",\"P\",\"J\",\"3\"
\"\",\"\",\"approach-retreat\",\"152\",\"984145\",\"0.0-152.0\",\"\",\"\",\"3-1\",\"3915\",\"39\",\"0\",\"Testing\",\"Stims/Figures/85-C-20-2.bmp\",\"ma:mana\",\"Left\",\"37\",\"1\",\"4\",\"4\",\"S\",\"J\",\"4\"
\"\",\"\",\"approach-retreat\",\"153\",\"989981\",\"0.0-153.0\",\"\",\"\",\"3-1\",\"4311\",\"37\",\"0\",\"Testing\",\"Stims/Figures/100-C-30-3.bmp\",\"nama:na\",\"Right\",\"39\",\"1\",\"5\",\"4\",\"S\",\"J\",\"5\"
\"\",\"\",\"approach-retreat\",\"154\",\"995585\",\"0.0-154.0\",\"\",\"\",\"3-1\",\"4078\",\"40\",\"0\",\"Testing\",\"Stims/Figures/94-C-20-2.bmp\",\"mamana\",\"Up\",\"38\",\"1\",\"6\",\"4\",\"S\",\"J\",\"6\"
\"\",\"\",\"approach-retreat\",\"155\",\"1001172\",\"0.0-155.0\",\"\",\"\",\"3-1\",\"4062\",\"40\",\"0\",\"Testing\",\"Stims/Figures/128-J-10-3.bmp\",\"papa:ka\",\"Down\",\"38\",\"1\",\"7\",\"4\",\"P\",\"J\",\"7\"
\"\",\"\",\"approach-retreat\",\"156\",\"1006673\",\"0.0-156.0\",\"\",\"\",\"3-1\",\"3975\",\"39\",\"1\",\"Testing\",\"Stims/Figures/44-J-10-3.bmp\",\"papata\",\"Left\",\"39\",\"1\",\"8\",\"4\",\"P\",\"J\",\"8\"
\"\",\"\",\"approach-retreat\",\"157\",\"1012185\",\"0.0-157.0\",\"\",\"\",\"3-1\",\"3986\",\"40\",\"0\",\"Testing\",\"Stims/Figures/57-C-30-1.bmp\",\"malana\",\"Up\",\"38\",\"1\",\"9\",\"4\",\"S\",\"J\",\"9\"
\"\",\"\",\"approach-retreat\",\"158\",\"1017631\",\"0.0-158.0\",\"\",\"\",\"3-1\",\"3920\",\"37\",\"1\",\"Testing\",\"Stims/Figures/85-J-0-2.bmp\",\"tapata\",\"Right\",\"37\",\"1\",\"10\",\"4\",\"P\",\"J\",\"10\"
\"\",\"\",\"approach-retreat\",\"159\",\"1023071\",\"0.0-159.0\",\"\",\"\",\"3-1\",\"3914\",\"39\",\"1\",\"Testing\",\"Stims/Figures/102-C-20-4.bmp\",\"nala:la\",\"Right\",\"39\",\"1\",\"11\",\"4\",\"S\",\"J\",\"11\"
\"\",\"\",\"approach-retreat\",\"160\",\"1028607\",\"0.0-160.0\",\"\",\"\",\"3-1\",\"4010\",\"40\",\"0\",\"Testing\",\"Stims/Figures/44-C-30-3.bmp\",\"ma:la:la\",\"Up\",\"38\",\"1\",\"12\",\"4\",\"S\",\"J\",\"12\"
\"\",\"\",\"approach-retreat\",\"161\",\"1034063\",\"0.0-161.0\",\"\",\"\",\"3-1\",\"3930\",\"39\",\"0\",\"Testing\",\"Stims/Figures/100-J-10-3.bmp\",\"ta:ka:ka\",\"Right\",\"37\",\"1\",\"13\",\"4\",\"P\",\"J\",\"13\"
\"\",\"\",\"approach-retreat\",\"162\",\"1039690\",\"0.0-162.0\",\"\",\"\",\"3-1\",\"4100\",\"39\",\"0\",\"Testing\",\"Stims/Figures/94-J-0-2.bmp\",\"ta:ka:ta\",\"Right\",\"37\",\"1\",\"14\",\"4\",\"P\",\"J\",\"14\"
\"\",\"\",\"approach-retreat\",\"163\",\"1045498\",\"0.0-163.0\",\"\",\"\",\"3-1\",\"4281\",\"38\",\"0\",\"Testing\",\"Stims/Figures/27-J-0-1.bmp\",\"pakata\",\"Up\",\"40\",\"1\",\"15\",\"4\",\"P\",\"J\",\"15\"
\"\",\"\",\"approach-retreat\",\"164\",\"1051037\",\"0.0-164.0\",\"\",\"\",\"3-1\",\"4013\",\"40\",\"1\",\"Testing\",\"Stims/Figures/19-C-20-4.bmp\",\"ma:la:na\",\"Down\",\"40\",\"1\",\"16\",\"4\",\"S\",\"J\",\"16\"
\"\",\"\",\"approach-retreat\",\"165\",\"1056587\",\"0.0-165.0\",\"\",\"\",\"3-1\",\"4017\",\"37\",\"0\",\"Testing\",\"Stims/Figures/19-J-10-4.bmp\",\"pa:pa:ka\",\"Left\",\"39\",\"1\",\"17\",\"4\",\"P\",\"J\",\"17\"
\"\",\"\",\"approach-retreat\",\"166\",\"1062121\",\"0.0-166.0\",\"\",\"\",\"3-1\",\"4010\",\"39\",\"0\",\"Testing\",\"Stims/Figures/57-J-0-1.bmp\",\"takaka\",\"Right\",\"37\",\"1\",\"18\",\"4\",\"P\",\"J\",\"18\"
\"\",\"\",\"approach-retreat\",\"167\",\"1067589\",\"0.0-167.0\",\"\",\"\",\"3-1\",\"3919\",\"37\",\"1\",\"Testing\",\"Stims/Figures/27-C-30-1.bmp\",\"ma:lana\",\"Left\",\"37\",\"1\",\"19\",\"4\",\"S\",\"J\",\"19\"
\"\",\"\",\"approach-retreat\",\"168\",\"1073210\",\"0.0-168.0\",\"\",\"\",\"3-1\",\"4094\",\"40\",\"1\",\"Testing\",\"Stims/Figures/84-C-20-2.bmp\",\"na:la:na\",\"Down\",\"40\",\"1\",\"20\",\"4\",\"S\",\"J\",\"20\"
\"\",\"\",\"approach-retreat\",\"169\",\"1078642\",\"0.0-169.0\",\"\",\"\",\"3-1\",\"3905\",\"39\",\"1\",\"Testing\",\"Stims/Figures/102-J-10-4.bmp\",\"papa:ta\",\"Left\",\"39\",\"1\",\"21\",\"4\",\"P\",\"J\",\"21\"
\"\",\"\",\"approach-retreat\",\"170\",\"1084222\",\"0.0-170.0\",\"\",\"\",\"3-1\",\"4057\",\"40\",\"0\",\"Testing\",\"Stims/Figures/128-C-30-3.bmp\",\"mala:na\",\"Up\",\"38\",\"1\",\"22\",\"4\",\"S\",\"J\",\"22\"
\"\",\"\",\"approach-retreat\",\"171\",\"1089827\",\"0.0-171.0\",\"\",\"\",\"3-1\",\"4080\",\"40\",\"0\",\"Testing\",\"Stims/Figures/87-C-20-4.bmp\",\"nalana\",\"Up\",\"38\",\"1\",\"23\",\"4\",\"S\",\"J\",\"23\"
\"\",\"\",\"approach-retreat\",\"172\",\"1095343\",\"0.0-172.0\",\"\",\"\",\"3-1\",\"3991\",\"40\",\"0\",\"Testing\",\"Stims/Figures/84-J-0-2.bmp\",\"paka:ta\",\"Down\",\"38\",\"1\",\"24\",\"4\",\"P\",\"J\",\"24\"
\"\",\"\",\"approach-retreat\",\"173\",\"1100999\",\"0.0-173.0\",\"\",\"\",\"3-1\",\"4130\",\"40\",\"1\",\"Testing\",\"Stims/Figures/57-J-0-1.bmp\",\"takaka\",\"Up\",\"40\",\"2\",\"1\",\"4\",\"P\",\"J\",\"25\"
\"\",\"\",\"approach-retreat\",\"174\",\"1106507\",\"0.0-174.0\",\"\",\"\",\"3-1\",\"3980\",\"39\",\"1\",\"Testing\",\"Stims/Figures/100-C-30-3.bmp\",\"nama:na\",\"Right\",\"39\",\"2\",\"2\",\"4\",\"S\",\"J\",\"26\"
\"\",\"\",\"approach-retreat\",\"175\",\"1112287\",\"0.0-175.0\",\"\",\"\",\"3-1\",\"4255\",\"37\",\"1\",\"Testing\",\"Stims/Figures/19-C-20-4.bmp\",\"ma:la:na\",\"Left\",\"37\",\"2\",\"3\",\"4\",\"S\",\"J\",\"27\"
\"\",\"\",\"approach-retreat\",\"176\",\"1117998\",\"0.0-176.0\",\"\",\"\",\"3-1\",\"4187\",\"40\",\"0\",\"Testing\",\"Stims/Figures/94-C-20-2.bmp\",\"mamana\",\"Up\",\"38\",\"2\",\"4\",\"4\",\"S\",\"J\",\"28\"
\"\",\"\",\"approach-retreat\",\"177\",\"1124115\",\"0.0-177.0\",\"\",\"\",\"3-1\",\"4591\",\"39\",\"0\",\"Testing\",\"Stims/Figures/100-J-10-3.bmp\",\"ta:ka:ka\",\"Right\",\"37\",\"2\",\"5\",\"4\",\"P\",\"J\",\"29\"
\"\",\"\",\"approach-retreat\",\"178\",\"1129791\",\"0.0-178.0\",\"\",\"\",\"3-1\",\"4151\",\"39\",\"1\",\"Testing\",\"Stims/Figures/128-C-30-3.bmp\",\"mala:na\",\"Right\",\"39\",\"2\",\"6\",\"4\",\"S\",\"J\",\"30\"
\"\",\"\",\"approach-retreat\",\"179\",\"1135336\",\"0.0-179.0\",\"\",\"\",\"3-1\",\"4019\",\"40\",\"0\",\"Testing\",\"Stims/Figures/87-C-20-4.bmp\",\"nalana\",\"Up\",\"38\",\"2\",\"7\",\"4\",\"S\",\"J\",\"31\"
\"\",\"\",\"approach-retreat\",\"180\",\"1140845\",\"0.0-180.0\",\"\",\"\",\"3-1\",\"3985\",\"40\",\"1\",\"Testing\",\"Stims/Figures/85-C-20-2.bmp\",\"ma:mana\",\"Down\",\"40\",\"2\",\"8\",\"4\",\"S\",\"J\",\"32\"
\"\",\"\",\"approach-retreat\",\"181\",\"1146504\",\"0.0-181.0\",\"\",\"\",\"3-1\",\"4132\",\"39\",\"1\",\"Testing\",\"Stims/Figures/27-C-30-1.bmp\",\"ma:lana\",\"Right\",\"39\",\"2\",\"9\",\"4\",\"S\",\"J\",\"33\"
\"\",\"\",\"approach-retreat\",\"182\",\"1152451\",\"0.0-182.0\",\"\",\"\",\"3-1\",\"4422\",\"40\",\"1\",\"Testing\",\"Stims/Figures/86-C-30-1.bmp\",\"malala\",\"Down\",\"40\",\"2\",\"10\",\"4\",\"S\",\"J\",\"34\"
\"\",\"\",\"approach-retreat\",\"183\",\"1158044\",\"0.0-183.0\",\"\",\"\",\"3-1\",\"4066\",\"40\",\"0\",\"Testing\",\"Stims/Figures/84-J-0-2.bmp\",\"paka:ta\",\"Down\",\"38\",\"2\",\"11\",\"4\",\"P\",\"J\",\"35\"
\"\",\"\",\"approach-retreat\",\"184\",\"1163515\",\"0.0-184.0\",\"\",\"\",\"3-1\",\"3945\",\"40\",\"1\",\"Testing\",\"Stims/Figures/85-J-0-2.bmp\",\"tapata\",\"Up\",\"40\",\"2\",\"12\",\"4\",\"P\",\"J\",\"36\"
\"\",\"\",\"approach-retreat\",\"185\",\"1169668\",\"0.0-185.0\",\"\",\"\",\"3-1\",\"4628\",\"39\",\"0\",\"Testing\",\"Stims/Figures/94-J-0-2.bmp\",\"ta:ka:ta\",\"Right\",\"37\",\"2\",\"13\",\"4\",\"P\",\"J\",\"37\"
\"\",\"\",\"approach-retreat\",\"186\",\"1175273\",\"0.0-186.0\",\"\",\"\",\"3-1\",\"4079\",\"40\",\"1\",\"Testing\",\"Stims/Figures/27-J-0-1.bmp\",\"pakata\",\"Up\",\"40\",\"2\",\"14\",\"4\",\"P\",\"J\",\"38\"
\"\",\"\",\"approach-retreat\",\"187\",\"1180912\",\"0.0-187.0\",\"\",\"\",\"3-1\",\"4116\",\"40\",\"0\",\"Testing\",\"Stims/Figures/86-J-0-1.bmp\",\"tapa:ta\",\"Down\",\"38\",\"2\",\"15\",\"4\",\"P\",\"J\",\"39\"
\"\",\"\",\"approach-retreat\",\"188\",\"1186543\",\"0.0-188.0\",\"\",\"\",\"3-1\",\"4104\",\"39\",\"1\",\"Testing\",\"Stims/Figures/44-C-30-3.bmp\",\"ma:la:la\",\"Right\",\"39\",\"2\",\"16\",\"4\",\"S\",\"J\",\"40\"
\"\",\"\",\"approach-retreat\",\"189\",\"1192415\",\"0.0-189.0\",\"\",\"\",\"3-1\",\"4346\",\"40\",\"0\",\"Testing\",\"Stims/Figures/128-J-10-3.bmp\",\"papa:ka\",\"Down\",\"38\",\"2\",\"17\",\"4\",\"P\",\"J\",\"41\"
\"\",\"\",\"approach-retreat\",\"190\",\"1198067\",\"0.0-190.0\",\"\",\"\",\"3-1\",\"4127\",\"39\",\"0\",\"Testing\",\"Stims/Figures/102-C-20-4.bmp\",\"nala:la\",\"Left\",\"37\",\"2\",\"18\",\"4\",\"S\",\"J\",\"42\"
\"\",\"\",\"approach-retreat\",\"191\",\"1204119\",\"0.0-191.0\",\"\",\"\",\"3-1\",\"4527\",\"37\",\"0\",\"Testing\",\"Stims/Figures/44-J-10-3.bmp\",\"papata\",\"Left\",\"39\",\"2\",\"19\",\"4\",\"P\",\"J\",\"43\"
\"\",\"\",\"approach-retreat\",\"192\",\"1209770\",\"0.0-192.0\",\"\",\"\",\"3-1\",\"4125\",\"37\",\"0\",\"Testing\",\"Stims/Figures/19-J-10-4.bmp\",\"pa:pa:ka\",\"Left\",\"39\",\"2\",\"20\",\"4\",\"P\",\"J\",\"44\"
\"\",\"\",\"approach-retreat\",\"193\",\"1215748\",\"0.0-193.0\",\"\",\"\",\"3-1\",\"4455\",\"37\",\"1\",\"Testing\",\"Stims/Figures/84-C-20-2.bmp\",\"na:la:na\",\"Left\",\"37\",\"2\",\"21\",\"4\",\"S\",\"J\",\"45\"
\"\",\"\",\"approach-retreat\",\"194\",\"1221739\",\"0.0-194.0\",\"\",\"\",\"3-1\",\"4465\",\"38\",\"0\",\"Testing\",\"Stims/Figures/87-J-10-4.bmp\",\"taka:ta\",\"Up\",\"40\",\"2\",\"22\",\"4\",\"P\",\"J\",\"46\"
\"\",\"\",\"approach-retreat\",\"195\",\"1228319\",\"0.0-195.0\",\"\",\"\",\"3-1\",\"5055\",\"37\",\"0\",\"Testing\",\"Stims/Figures/102-J-10-4.bmp\",\"papa:ta\",\"Left\",\"39\",\"2\",\"23\",\"4\",\"P\",\"J\",\"47\"
\"\",\"\",\"approach-retreat\",\"196\",\"1234094\",\"0.0-196.0\",\"\",\"\",\"3-1\",\"4248\",\"40\",\"1\",\"Testing\",\"Stims/Figures/57-C-30-1.bmp\",\"malana\",\"Down\",\"40\",\"2\",\"24\",\"4\",\"S\",\"J\",\"48\"
\"\",\"\",\"approach-retreat\",\"197\",\"1240196\",\"0.0-197.0\",\"\",\"\",\"3-1\",\"4575\",\"38\",\"0\",\"Testing\",\"Stims/Figures/19-J-10-4.bmp\",\"pa:pa:ka\",\"Up\",\"40\",\"3\",\"1\",\"4\",\"P\",\"J\",\"49\"
\"\",\"\",\"approach-retreat\",\"198\",\"1245836\",\"0.0-198.0\",\"\",\"\",\"3-1\",\"4114\",\"38\",\"0\",\"Testing\",\"Stims/Figures/128-J-10-3.bmp\",\"papa:ka\",\"Up\",\"40\",\"3\",\"2\",\"4\",\"P\",\"J\",\"50\"
\"\",\"\",\"approach-retreat\",\"199\",\"1251271\",\"0.0-199.0\",\"\",\"\",\"3-1\",\"3907\",\"40\",\"1\",\"Testing\",\"Stims/Figures/44-C-30-3.bmp\",\"ma:la:la\",\"Down\",\"40\",\"3\",\"3\",\"4\",\"S\",\"J\",\"51\"
\"\",\"\",\"approach-retreat\",\"200\",\"1256935\",\"0.0-200.0\",\"\",\"\",\"3-1\",\"4136\",\"40\",\"1\",\"Testing\",\"Stims/Figures/128-C-30-3.bmp\",\"mala:na\",\"Down\",\"40\",\"3\",\"4\",\"4\",\"S\",\"J\",\"52\"
\"\",\"\",\"approach-retreat\",\"201\",\"1262391\",\"0.0-201.0\",\"\",\"\",\"3-1\",\"3931\",\"40\",\"1\",\"Testing\",\"Stims/Figures/102-C-20-4.bmp\",\"nala:la\",\"Down\",\"40\",\"3\",\"5\",\"4\",\"S\",\"J\",\"53\"
\"\",\"\",\"approach-retreat\",\"202\",\"1268997\",\"0.0-202.0\",\"\",\"\",\"3-1\",\"5080\",\"38\",\"1\",\"Testing\",\"Stims/Figures/57-C-30-1.bmp\",\"malana\",\"Up\",\"38\",\"3\",\"6\",\"4\",\"S\",\"J\",\"54\"
\"\",\"\",\"approach-retreat\",\"203\",\"1274538\",\"0.0-203.0\",\"\",\"\",\"3-1\",\"4016\",\"39\",\"1\",\"Testing\",\"Stims/Figures/87-C-20-4.bmp\",\"nalana\",\"Right\",\"39\",\"3\",\"7\",\"4\",\"S\",\"J\",\"55\"
\"\",\"\",\"approach-retreat\",\"204\",\"1280004\",\"0.0-204.0\",\"\",\"\",\"3-1\",\"3941\",\"37\",\"1\",\"Testing\",\"Stims/Figures/94-J-0-2.bmp\",\"ta:ka:ta\",\"Right\",\"37\",\"3\",\"8\",\"4\",\"P\",\"J\",\"56\"
\"\",\"\",\"approach-retreat\",\"205\",\"1285390\",\"0.0-205.0\",\"\",\"\",\"3-1\",\"3861\",\"37\",\"1\",\"Testing\",\"Stims/Figures/27-C-30-1.bmp\",\"ma:lana\",\"Left\",\"37\",\"3\",\"9\",\"4\",\"S\",\"J\",\"57\"
\"\",\"\",\"approach-retreat\",\"206\",\"1290990\",\"0.0-206.0\",\"\",\"\",\"3-1\",\"4074\",\"39\",\"1\",\"Testing\",\"Stims/Figures/86-J-0-1.bmp\",\"tapa:ta\",\"Left\",\"39\",\"3\",\"10\",\"4\",\"P\",\"J\",\"58\"
\"\",\"\",\"approach-retreat\",\"207\",\"1297361\",\"0.0-207.0\",\"\",\"\",\"3-1\",\"4846\",\"38\",\"0\",\"Testing\",\"Stims/Figures/87-J-10-4.bmp\",\"taka:ta\",\"Up\",\"40\",\"3\",\"11\",\"4\",\"P\",\"J\",\"59\"
\"\",\"\",\"approach-retreat\",\"208\",\"1302956\",\"0.0-208.0\",\"\",\"\",\"3-1\",\"4072\",\"38\",\"1\",\"Testing\",\"Stims/Figures/86-C-30-1.bmp\",\"malala\",\"Up\",\"38\",\"3\",\"12\",\"4\",\"S\",\"J\",\"60\"
\"\",\"\",\"approach-retreat\",\"209\",\"1308482\",\"0.0-209.0\",\"\",\"\",\"3-1\",\"4000\",\"37\",\"0\",\"Testing\",\"Stims/Figures/102-J-10-4.bmp\",\"papa:ta\",\"Left\",\"39\",\"3\",\"13\",\"4\",\"P\",\"J\",\"61\"
\"\",\"\",\"approach-retreat\",\"210\",\"1313944\",\"0.0-210.0\",\"\",\"\",\"3-1\",\"3937\",\"37\",\"1\",\"Testing\",\"Stims/Figures/27-J-0-1.bmp\",\"pakata\",\"Right\",\"37\",\"3\",\"14\",\"4\",\"P\",\"J\",\"62\"
\"\",\"\",\"approach-retreat\",\"211\",\"1319574\",\"0.0-211.0\",\"\",\"\",\"3-1\",\"4104\",\"39\",\"0\",\"Testing\",\"Stims/Figures/94-C-20-2.bmp\",\"mamana\",\"Left\",\"37\",\"3\",\"15\",\"4\",\"S\",\"J\",\"63\"
\"\",\"\",\"approach-retreat\",\"212\",\"1324971\",\"0.0-212.0\",\"\",\"\",\"3-1\",\"3872\",\"38\",\"1\",\"Testing\",\"Stims/Figures/85-J-0-2.bmp\",\"tapata\",\"Down\",\"38\",\"3\",\"16\",\"4\",\"P\",\"J\",\"64\"
\"\",\"\",\"approach-retreat\",\"213\",\"1330595\",\"0.0-213.0\",\"\",\"\",\"3-1\",\"4098\",\"40\",\"0\",\"Testing\",\"Stims/Figures/100-C-30-3.bmp\",\"nama:na\",\"Up\",\"38\",\"3\",\"17\",\"4\",\"S\",\"J\",\"65\"
\"\",\"\",\"approach-retreat\",\"214\",\"1336330\",\"0.0-214.0\",\"\",\"\",\"3-1\",\"4210\",\"39\",\"1\",\"Testing\",\"Stims/Figures/100-J-10-3.bmp\",\"ta:ka:ka\",\"Left\",\"39\",\"3\",\"18\",\"4\",\"P\",\"J\",\"66\"
\"\",\"\",\"approach-retreat\",\"215\",\"1341846\",\"0.0-215.0\",\"\",\"\",\"3-1\",\"3991\",\"39\",\"1\",\"Testing\",\"Stims/Figures/85-C-20-2.bmp\",\"ma:mana\",\"Right\",\"39\",\"3\",\"19\",\"4\",\"S\",\"J\",\"67\"
\"\",\"\",\"approach-retreat\",\"216\",\"1347398\",\"0.0-216.0\",\"\",\"\",\"3-1\",\"4024\",\"40\",\"0\",\"Testing\",\"Stims/Figures/44-J-10-3.bmp\",\"papata\",\"Down\",\"38\",\"3\",\"20\",\"4\",\"P\",\"J\",\"68\"
\"\",\"\",\"approach-retreat\",\"217\",\"1353118\",\"0.0-217.0\",\"\",\"\",\"3-1\",\"4196\",\"40\",\"0\",\"Testing\",\"Stims/Figures/57-J-0-1.bmp\",\"takaka\",\"Down\",\"38\",\"3\",\"21\",\"4\",\"P\",\"J\",\"69\"
\"\",\"\",\"approach-retreat\",\"218\",\"1360141\",\"0.0-218.0\",\"\",\"\",\"3-1\",\"5498\",\"37\",\"0\",\"Testing\",\"Stims/Figures/84-J-0-2.bmp\",\"paka:ta\",\"Left\",\"39\",\"3\",\"22\",\"4\",\"P\",\"J\",\"70\"
\"\",\"\",\"approach-retreat\",\"219\",\"1365562\",\"0.0-219.0\",\"\",\"\",\"3-1\",\"3895\",\"39\",\"1\",\"Testing\",\"Stims/Figures/19-C-20-4.bmp\",\"ma:la:na\",\"Right\",\"39\",\"3\",\"23\",\"4\",\"S\",\"J\",\"71\"
\"\",\"\",\"approach-retreat\",\"220\",\"1375000\",\"0.0-220.0\",\"\",\"\",\"3-1\",\"7912\",\"39\",\"1\",\"Testing\",\"Stims/Figures/84-C-20-2.bmp\",\"na:la:na\",\"Right\",\"39\",\"3\",\"24\",\"4\",\"S\",\"J\",\"72\"
\"\",\"\",\"approach-retreat\",\"221\",\"1380594\",\"0.0-221.0\",\"\",\"\",\"3-1\",\"4068\",\"39\",\"1\",\"Testing\",\"Stims/Figures/87-C-20-4.bmp\",\"nalana\",\"Right\",\"39\",\"4\",\"1\",\"4\",\"S\",\"J\",\"73\"
\"\",\"\",\"approach-retreat\",\"222\",\"1386036\",\"0.0-222.0\",\"\",\"\",\"3-1\",\"3915\",\"40\",\"0\",\"Testing\",\"Stims/Figures/100-C-30-3.bmp\",\"nama:na\",\"Up\",\"38\",\"4\",\"2\",\"4\",\"S\",\"J\",\"74\"
\"\",\"\",\"approach-retreat\",\"223\",\"1391990\",\"0.0-223.0\",\"\",\"\",\"3-1\",\"4426\",\"38\",\"1\",\"Testing\",\"Stims/Figures/128-C-30-3.bmp\",\"mala:na\",\"Up\",\"38\",\"4\",\"3\",\"4\",\"S\",\"J\",\"75\"
\"\",\"\",\"approach-retreat\",\"224\",\"1397913\",\"0.0-224.0\",\"\",\"\",\"3-1\",\"4399\",\"38\",\"1\",\"Testing\",\"Stims/Figures/57-C-30-1.bmp\",\"malana\",\"Up\",\"38\",\"4\",\"4\",\"4\",\"S\",\"J\",\"76\"
\"\",\"\",\"approach-retreat\",\"225\",\"1403472\",\"0.0-225.0\",\"\",\"\",\"3-1\",\"4032\",\"38\",\"0\",\"Testing\",\"Stims/Figures/27-J-0-1.bmp\",\"pakata\",\"Up\",\"40\",\"4\",\"5\",\"4\",\"P\",\"J\",\"77\"
\"\",\"\",\"approach-retreat\",\"226\",\"1409470\",\"0.0-226.0\",\"\",\"\",\"3-1\",\"4472\",\"40\",\"0\",\"Testing\",\"Stims/Figures/86-J-0-1.bmp\",\"tapa:ta\",\"Down\",\"38\",\"4\",\"6\",\"4\",\"P\",\"J\",\"78\"
\"\",\"\",\"approach-retreat\",\"227\",\"1415714\",\"0.0-227.0\",\"\",\"\",\"3-1\",\"4717\",\"39\",\"0\",\"Testing\",\"Stims/Figures/85-J-0-2.bmp\",\"tapata\",\"Right\",\"37\",\"4\",\"7\",\"4\",\"P\",\"J\",\"79\"
\"\",\"\",\"approach-retreat\",\"228\",\"1421212\",\"0.0-228.0\",\"\",\"\",\"3-1\",\"3971\",\"37\",\"0\",\"Testing\",\"Stims/Figures/102-J-10-4.bmp\",\"papa:ta\",\"Left\",\"39\",\"4\",\"8\",\"4\",\"P\",\"J\",\"80\"
\"\",\"\",\"approach-retreat\",\"229\",\"1426699\",\"0.0-229.0\",\"\",\"\",\"3-1\",\"3962\",\"37\",\"1\",\"Testing\",\"Stims/Figures/86-C-30-1.bmp\",\"malala\",\"Left\",\"37\",\"4\",\"9\",\"4\",\"S\",\"J\",\"81\"
\"\",\"\",\"approach-retreat\",\"230\",\"1433117\",\"0.0-230.0\",\"\",\"\",\"3-1\",\"4892\",\"40\",\"0\",\"Testing\",\"Stims/Figures/94-C-20-2.bmp\",\"mamana\",\"Up\",\"38\",\"4\",\"10\",\"4\",\"S\",\"J\",\"82\"
\"\",\"\",\"approach-retreat\",\"231\",\"1438666\",\"0.0-231.0\",\"\",\"\",\"3-1\",\"4023\",\"38\",\"0\",\"Testing\",\"Stims/Figures/100-J-10-3.bmp\",\"ta:ka:ka\",\"Up\",\"40\",\"4\",\"11\",\"4\",\"P\",\"J\",\"83\"
\"\",\"\",\"approach-retreat\",\"232\",\"1444143\",\"0.0-232.0\",\"\",\"\",\"3-1\",\"3949\",\"37\",\"1\",\"Testing\",\"Stims/Figures/44-C-30-3.bmp\",\"ma:la:la\",\"Left\",\"37\",\"4\",\"12\",\"4\",\"S\",\"J\",\"84\"
\"\",\"\",\"approach-retreat\",\"233\",\"1449716\",\"0.0-233.0\",\"\",\"\",\"3-1\",\"4045\",\"39\",\"1\",\"Testing\",\"Stims/Figures/102-C-20-4.bmp\",\"nala:la\",\"Right\",\"39\",\"4\",\"13\",\"4\",\"S\",\"J\",\"85\"
\"\",\"\",\"approach-retreat\",\"234\",\"1455377\",\"0.0-234.0\",\"\",\"\",\"3-1\",\"4137\",\"40\",\"1\",\"Testing\",\"Stims/Figures/85-C-20-2.bmp\",\"ma:mana\",\"Down\",\"40\",\"4\",\"14\",\"4\",\"S\",\"J\",\"86\"
\"\",\"\",\"approach-retreat\",\"235\",\"1461025\",\"0.0-235.0\",\"\",\"\",\"3-1\",\"4123\",\"37\",\"1\",\"Testing\",\"Stims/Figures/19-C-20-4.bmp\",\"ma:la:na\",\"Left\",\"37\",\"4\",\"15\",\"4\",\"S\",\"J\",\"87\"
\"\",\"\",\"approach-retreat\",\"236\",\"1466593\",\"0.0-236.0\",\"\",\"\",\"3-1\",\"4044\",\"37\",\"1\",\"Testing\",\"Stims/Figures/84-C-20-2.bmp\",\"na:la:na\",\"Left\",\"37\",\"4\",\"16\",\"4\",\"S\",\"J\",\"88\"
\"\",\"\",\"approach-retreat\",\"237\",\"1473813\",\"0.0-237.0\",\"\",\"\",\"3-1\",\"5695\",\"40\",\"0\",\"Testing\",\"Stims/Figures/57-J-0-1.bmp\",\"takaka\",\"Down\",\"38\",\"4\",\"17\",\"4\",\"P\",\"J\",\"89\"
\"\",\"\",\"approach-retreat\",\"238\",\"1479601\",\"0.0-238.0\",\"\",\"\",\"3-1\",\"4260\",\"39\",\"1\",\"Testing\",\"Stims/Figures/94-J-0-2.bmp\",\"ta:ka:ta\",\"Left\",\"39\",\"4\",\"18\",\"4\",\"P\",\"J\",\"90\"
\"\",\"\",\"approach-retreat\",\"239\",\"1485423\",\"0.0-239.0\",\"\",\"\",\"3-1\",\"4298\",\"39\",\"0\",\"Testing\",\"Stims/Figures/19-J-10-4.bmp\",\"pa:pa:ka\",\"Right\",\"37\",\"4\",\"19\",\"4\",\"P\",\"J\",\"91\"
\"\",\"\",\"approach-retreat\",\"240\",\"1490809\",\"0.0-240.0\",\"\",\"\",\"3-1\",\"3862\",\"40\",\"0\",\"Testing\",\"Stims/Figures/44-J-10-3.bmp\",\"papata\",\"Down\",\"38\",\"4\",\"20\",\"4\",\"P\",\"J\",\"92\"
\"\",\"\",\"approach-retreat\",\"241\",\"1496263\",\"0.0-241.0\",\"\",\"\",\"3-1\",\"3927\",\"40\",\"1\",\"Testing\",\"Stims/Figures/27-C-30-1.bmp\",\"ma:lana\",\"Down\",\"40\",\"4\",\"21\",\"4\",\"S\",\"J\",\"93\"
\"\",\"\",\"approach-retreat\",\"242\",\"1502361\",\"0.0-242.0\",\"\",\"\",\"3-1\",\"4574\",\"40\",\"0\",\"Testing\",\"Stims/Figures/87-J-10-4.bmp\",\"taka:ta\",\"Down\",\"38\",\"4\",\"22\",\"4\",\"P\",\"J\",\"94\"
\"\",\"\",\"approach-retreat\",\"243\",\"1507972\",\"0.0-243.0\",\"\",\"\",\"3-1\",\"4087\",\"39\",\"0\",\"Testing\",\"Stims/Figures/84-J-0-2.bmp\",\"paka:ta\",\"Right\",\"37\",\"4\",\"23\",\"4\",\"P\",\"J\",\"95\"
\"\",\"\",\"approach-retreat\",\"244\",\"1514155\",\"0.0-244.0\",\"\",\"\",\"3-1\",\"4657\",\"39\",\"0\",\"Testing\",\"Stims/Figures/128-J-10-3.bmp\",\"papa:ka\",\"Right\",\"37\",\"4\",\"24\",\"4\",\"P\",\"J\",\"96\"
\"\",\"\",\"survey-text\",\"245\",\"1529710\",\"0.0-245.0\",\"\",\"\",\"3-1\",\"20213\",\"37\",\"1\",\"Testing\",\"Stims/Figures/128-J-10-3.bmp\",\"papa:ka\",\"Right\",\"37\",\"4\",\"24\",\"4\",\"P\",\"J\",\"\"
