\"rt\",\"key_press\",\"trial_type\",\"trial_index\",\"time_elapsed\",\"internal_node_id\",\"view_history\",\"responses\",\"Id\",\"Rt\",\"ResKeyCode\",\"ResCorr\",\"TrialType2\",\"Image\",\"Label\",\"Location\",\"CorrectResponse\",\"Block\",\"BlockTrial\",\"Condition\",\"LabelType\",\"Subcondition\",\"trialNum\"
\"20772\",\"32\",\"text\",\"0\",\"20777\",\"0.0-0.0-0.0\",\"\",\"\",\"\",\"\",\"\",\"\",\"\",\"\",\"\",\"\",\"\",\"\",\"\",\"\",\"\",\"\",\"\"
\"1380670\",\"\",\"instructions\",\"1\",\"1401450\",\"0.0-1.0\",\"[{\"\"page_index\"\":0,\"\"viewing_time\"\":1380669}]\",\"\",\"\",\"\",\"\",\"\",\"\",\"\",\"\",\"\",\"\",\"\",\"\",\"\",\"\",\"\",\"\"
\"19402\",\"\",\"survey-multi-choice\",\"2\",\"1420933\",\"0.0-2.0\",\"\",\"{\"\"Q0\"\":\"\"Da\"\",\"\"Q1\"\":\"\"Da\"\",\"\"Q2\"\":\"\"Da\"\",\"\"Q3\"\":\"\"Da\"\",\"\"Q4\"\":\"\"Da\"\",\"\"Q5\"\":\"\"Da\"\"}\",\"\",\"\",\"\",\"\",\"\",\"\",\"\",\"\",\"\",\"\",\"\",\"\",\"\",\"\",\"\"
\"\",\"\",\"bio\",\"3\",\"1431144\",\"0.0-3.0\",\"\",\"{\"\"age\"\":\"\"20\"\",\"\"gender\"\":\"\"f\"\",\"\"specify\"\":\"\"\"\"}\",\"\",\"\",\"\",\"\",\"\",\"\",\"\",\"\",\"\",\"\",\"\",\"\",\"\",\"\",\"\"
\"\",\"\",\"approach-retreat\",\"4\",\"1438767\",\"0.0-4.0\",\"\",\"\",\"1-3\",\"6081\",\"38\",\"1\",\"Training\",\"Stims/Figures/84-C-20-2.bmp\",\"mamana\",\"Up\",\"38\",\"1\",\"1\",\"4\",\"S\",\"J\",\"1\"
\"\",\"\",\"approach-retreat\",\"5\",\"1446225\",\"0.0-5.0\",\"\",\"\",\"1-3\",\"5942\",\"40\",\"0\",\"Training\",\"Stims/Figures/19-J-10-4.bmp\",\"tapata\",\"Down\",\"38\",\"1\",\"2\",\"4\",\"P\",\"J\",\"2\"
\"\",\"\",\"approach-retreat\",\"6\",\"1454461\",\"0.0-6.0\",\"\",\"\",\"1-3\",\"6732\",\"39\",\"0\",\"Training\",\"Stims/Figures/87-J-10-4.bmp\",\"tapaka\",\"Right\",\"37\",\"1\",\"3\",\"4\",\"P\",\"J\",\"3\"
\"\",\"\",\"approach-retreat\",\"7\",\"1461889\",\"0.0-7.0\",\"\",\"\",\"1-3\",\"5907\",\"39\",\"0\",\"Training\",\"Stims/Figures/118-C-20-2.bmp\",\"nalala\",\"Left\",\"37\",\"1\",\"4\",\"4\",\"S\",\"J\",\"4\"
\"\",\"\",\"approach-retreat\",\"8\",\"1468079\",\"0.0-8.0\",\"\",\"\",\"1-3\",\"4673\",\"39\",\"0\",\"Training\",\"Stims/Figures/111-J-10-3.bmp\",\"pa:ka:ta\",\"Right\",\"37\",\"1\",\"5\",\"4\",\"P\",\"J\",\"5\"
\"\",\"\",\"approach-retreat\",\"9\",\"1474290\",\"0.0-9.0\",\"\",\"\",\"1-3\",\"4687\",\"38\",\"1\",\"Training\",\"Stims/Figures/128-C-30-3.bmp\",\"na:la:la\",\"Up\",\"38\",\"1\",\"6\",\"4\",\"S\",\"J\",\"6\"
\"\",\"\",\"approach-retreat\",\"10\",\"1480053\",\"0.0-10.0\",\"\",\"\",\"1-3\",\"4239\",\"39\",\"0\",\"Training\",\"Stims/Figures/128-J-10-3.bmp\",\"pa:kaka\",\"Right\",\"37\",\"1\",\"7\",\"4\",\"P\",\"J\",\"7\"
\"\",\"\",\"approach-retreat\",\"11\",\"1485836\",\"0.0-11.0\",\"\",\"\",\"1-3\",\"4255\",\"37\",\"0\",\"Training\",\"Stims/Figures/27-C-30-1.bmp\",\"nalana\",\"Right\",\"39\",\"1\",\"8\",\"4\",\"S\",\"J\",\"8\"
\"\",\"\",\"approach-retreat\",\"12\",\"1492478\",\"0.0-12.0\",\"\",\"\",\"1-3\",\"5125\",\"40\",\"0\",\"Training\",\"Stims/Figures/19-C-20-4.bmp\",\"ma:lala\",\"Up\",\"38\",\"1\",\"9\",\"4\",\"S\",\"J\",\"9\"
\"\",\"\",\"approach-retreat\",\"13\",\"1498601\",\"0.0-13.0\",\"\",\"\",\"1-3\",\"4604\",\"39\",\"1\",\"Training\",\"Stims/Figures/27-J-0-1.bmp\",\"ta:pata\",\"Left\",\"39\",\"1\",\"10\",\"4\",\"P\",\"J\",\"10\"
\"\",\"\",\"approach-retreat\",\"14\",\"1505818\",\"0.0-14.0\",\"\",\"\",\"1-3\",\"5696\",\"40\",\"0\",\"Training\",\"Stims/Figures/111-C-30-3.bmp\",\"mama:na\",\"Up\",\"38\",\"1\",\"11\",\"4\",\"S\",\"J\",\"11\"
\"\",\"\",\"approach-retreat\",\"15\",\"1512367\",\"0.0-15.0\",\"\",\"\",\"1-3\",\"5038\",\"38\",\"0\",\"Training\",\"Stims/Figures/71-C-30-1.bmp\",\"na:mana\",\"Down\",\"40\",\"1\",\"12\",\"4\",\"S\",\"J\",\"12\"
\"\",\"\",\"approach-retreat\",\"16\",\"1518480\",\"0.0-16.0\",\"\",\"\",\"1-3\",\"4597\",\"39\",\"1\",\"Training\",\"Stims/Figures/118-J-0-2.bmp\",\"tapa:ta\",\"Left\",\"39\",\"1\",\"13\",\"4\",\"P\",\"J\",\"13\"
\"\",\"\",\"approach-retreat\",\"17\",\"1524828\",\"0.0-17.0\",\"\",\"\",\"1-3\",\"4835\",\"37\",\"1\",\"Training\",\"Stims/Figures/87-C-20-4.bmp\",\"nala:na\",\"Left\",\"37\",\"1\",\"14\",\"4\",\"S\",\"J\",\"14\"
\"\",\"\",\"approach-retreat\",\"18\",\"1535184\",\"0.0-18.0\",\"\",\"\",\"1-3\",\"8836\",\"38\",\"1\",\"Training\",\"Stims/Figures/71-J-0-1.bmp\",\"tapa:ka\",\"Down\",\"38\",\"1\",\"15\",\"4\",\"P\",\"J\",\"15\"
\"\",\"\",\"approach-retreat\",\"19\",\"1540709\",\"0.0-19.0\",\"\",\"\",\"1-3\",\"3999\",\"38\",\"1\",\"Training\",\"Stims/Figures/84-J-0-2.bmp\",\"pakaka\",\"Down\",\"38\",\"1\",\"16\",\"4\",\"P\",\"J\",\"16\"
\"\",\"\",\"approach-retreat\",\"20\",\"1546607\",\"0.0-20.0\",\"\",\"\",\"1-3\",\"4375\",\"40\",\"1\",\"Training\",\"Stims/Figures/84-J-0-2.bmp\",\"pakaka\",\"Up\",\"40\",\"2\",\"1\",\"4\",\"P\",\"J\",\"17\"
\"\",\"\",\"approach-retreat\",\"21\",\"1560736\",\"0.0-21.0\",\"\",\"\",\"1-3\",\"12615\",\"39\",\"1\",\"Training\",\"Stims/Figures/118-C-20-2.bmp\",\"nalala\",\"Right\",\"39\",\"2\",\"2\",\"4\",\"S\",\"J\",\"18\"
\"\",\"\",\"approach-retreat\",\"22\",\"1566619\",\"0.0-22.0\",\"\",\"\",\"1-3\",\"4358\",\"38\",\"1\",\"Training\",\"Stims/Figures/71-C-30-1.bmp\",\"na:mana\",\"Up\",\"38\",\"2\",\"3\",\"4\",\"S\",\"J\",\"19\"
\"\",\"\",\"approach-retreat\",\"23\",\"1572352\",\"0.0-23.0\",\"\",\"\",\"1-3\",\"4206\",\"40\",\"1\",\"Training\",\"Stims/Figures/27-C-30-1.bmp\",\"nalana\",\"Down\",\"40\",\"2\",\"4\",\"4\",\"S\",\"J\",\"20\"
\"\",\"\",\"approach-retreat\",\"24\",\"1578651\",\"0.0-24.0\",\"\",\"\",\"1-3\",\"4775\",\"40\",\"1\",\"Training\",\"Stims/Figures/27-J-0-1.bmp\",\"ta:pata\",\"Up\",\"40\",\"2\",\"5\",\"4\",\"P\",\"J\",\"21\"
\"\",\"\",\"approach-retreat\",\"25\",\"1584341\",\"0.0-25.0\",\"\",\"\",\"1-3\",\"4139\",\"38\",\"1\",\"Training\",\"Stims/Figures/118-J-0-2.bmp\",\"tapa:ta\",\"Down\",\"38\",\"2\",\"6\",\"4\",\"P\",\"J\",\"22\"
\"\",\"\",\"approach-retreat\",\"26\",\"1590066\",\"0.0-26.0\",\"\",\"\",\"1-3\",\"4200\",\"40\",\"1\",\"Training\",\"Stims/Figures/87-J-10-4.bmp\",\"tapaka\",\"Up\",\"40\",\"2\",\"7\",\"4\",\"P\",\"J\",\"23\"
\"\",\"\",\"approach-retreat\",\"27\",\"1595969\",\"0.0-27.0\",\"\",\"\",\"1-3\",\"4379\",\"37\",\"1\",\"Training\",\"Stims/Figures/111-C-30-3.bmp\",\"mama:na\",\"Left\",\"37\",\"2\",\"8\",\"4\",\"S\",\"J\",\"24\"
\"\",\"\",\"approach-retreat\",\"28\",\"1601662\",\"0.0-28.0\",\"\",\"\",\"1-3\",\"4169\",\"39\",\"1\",\"Training\",\"Stims/Figures/84-C-20-2.bmp\",\"mamana\",\"Right\",\"39\",\"2\",\"9\",\"4\",\"S\",\"J\",\"25\"
\"\",\"\",\"approach-retreat\",\"29\",\"1607258\",\"0.0-29.0\",\"\",\"\",\"1-3\",\"4076\",\"37\",\"1\",\"Training\",\"Stims/Figures/87-C-20-4.bmp\",\"nala:na\",\"Left\",\"37\",\"2\",\"10\",\"4\",\"S\",\"J\",\"26\"
\"\",\"\",\"approach-retreat\",\"30\",\"1612862\",\"0.0-30.0\",\"\",\"\",\"1-3\",\"4094\",\"38\",\"1\",\"Training\",\"Stims/Figures/128-J-10-3.bmp\",\"pa:kaka\",\"Down\",\"38\",\"2\",\"11\",\"4\",\"P\",\"J\",\"27\"
\"\",\"\",\"approach-retreat\",\"31\",\"1618876\",\"0.0-31.0\",\"\",\"\",\"1-3\",\"4495\",\"37\",\"1\",\"Training\",\"Stims/Figures/128-C-30-3.bmp\",\"na:la:la\",\"Left\",\"37\",\"2\",\"12\",\"4\",\"S\",\"J\",\"28\"
\"\",\"\",\"approach-retreat\",\"32\",\"1625320\",\"0.0-32.0\",\"\",\"\",\"1-3\",\"4932\",\"39\",\"1\",\"Training\",\"Stims/Figures/19-C-20-4.bmp\",\"ma:lala\",\"Right\",\"39\",\"2\",\"13\",\"4\",\"S\",\"J\",\"29\"
\"\",\"\",\"approach-retreat\",\"33\",\"1630851\",\"0.0-33.0\",\"\",\"\",\"1-3\",\"4013\",\"37\",\"1\",\"Training\",\"Stims/Figures/111-J-10-3.bmp\",\"pa:ka:ta\",\"Right\",\"37\",\"2\",\"14\",\"4\",\"P\",\"J\",\"30\"
\"\",\"\",\"approach-retreat\",\"34\",\"1636537\",\"0.0-34.0\",\"\",\"\",\"1-3\",\"4161\",\"39\",\"1\",\"Training\",\"Stims/Figures/71-J-0-1.bmp\",\"tapa:ka\",\"Left\",\"39\",\"2\",\"15\",\"4\",\"P\",\"J\",\"31\"
\"\",\"\",\"approach-retreat\",\"35\",\"1642258\",\"0.0-35.0\",\"\",\"\",\"1-3\",\"4200\",\"38\",\"1\",\"Training\",\"Stims/Figures/19-J-10-4.bmp\",\"tapata\",\"Down\",\"38\",\"2\",\"16\",\"4\",\"P\",\"J\",\"32\"
\"\",\"\",\"approach-retreat\",\"36\",\"1648480\",\"0.0-36.0\",\"\",\"\",\"1-3\",\"4709\",\"39\",\"1\",\"Training\",\"Stims/Figures/118-J-0-2.bmp\",\"tapa:ta\",\"Left\",\"39\",\"3\",\"1\",\"4\",\"P\",\"J\",\"33\"
\"\",\"\",\"approach-retreat\",\"37\",\"1654635\",\"0.0-37.0\",\"\",\"\",\"1-3\",\"4633\",\"38\",\"1\",\"Training\",\"Stims/Figures/118-C-20-2.bmp\",\"nalala\",\"Up\",\"38\",\"3\",\"2\",\"4\",\"S\",\"J\",\"34\"
\"\",\"\",\"approach-retreat\",\"38\",\"1660572\",\"0.0-38.0\",\"\",\"\",\"1-3\",\"4411\",\"39\",\"1\",\"Training\",\"Stims/Figures/128-C-30-3.bmp\",\"na:la:la\",\"Right\",\"39\",\"3\",\"3\",\"4\",\"S\",\"J\",\"35\"
\"\",\"\",\"approach-retreat\",\"39\",\"1666632\",\"0.0-39.0\",\"\",\"\",\"1-3\",\"4540\",\"40\",\"1\",\"Training\",\"Stims/Figures/71-J-0-1.bmp\",\"tapa:ka\",\"Up\",\"40\",\"3\",\"4\",\"4\",\"P\",\"J\",\"36\"
\"\",\"\",\"approach-retreat\",\"40\",\"1672413\",\"0.0-40.0\",\"\",\"\",\"1-3\",\"4266\",\"37\",\"1\",\"Training\",\"Stims/Figures/84-J-0-2.bmp\",\"pakaka\",\"Right\",\"37\",\"3\",\"5\",\"4\",\"P\",\"J\",\"37\"
\"\",\"\",\"approach-retreat\",\"41\",\"1678452\",\"0.0-41.0\",\"\",\"\",\"1-3\",\"4521\",\"40\",\"1\",\"Training\",\"Stims/Figures/84-C-20-2.bmp\",\"mamana\",\"Down\",\"40\",\"3\",\"6\",\"4\",\"S\",\"J\",\"38\"
\"\",\"\",\"approach-retreat\",\"42\",\"1684238\",\"0.0-42.0\",\"\",\"\",\"1-3\",\"4273\",\"40\",\"1\",\"Training\",\"Stims/Figures/111-C-30-3.bmp\",\"mama:na\",\"Down\",\"40\",\"3\",\"7\",\"4\",\"S\",\"J\",\"39\"
\"\",\"\",\"approach-retreat\",\"43\",\"1690018\",\"0.0-43.0\",\"\",\"\",\"1-3\",\"4264\",\"40\",\"1\",\"Training\",\"Stims/Figures/27-J-0-1.bmp\",\"ta:pata\",\"Up\",\"40\",\"3\",\"8\",\"4\",\"P\",\"J\",\"40\"
\"\",\"\",\"approach-retreat\",\"44\",\"1695677\",\"0.0-44.0\",\"\",\"\",\"1-3\",\"4136\",\"37\",\"1\",\"Training\",\"Stims/Figures/111-J-10-3.bmp\",\"pa:ka:ta\",\"Right\",\"37\",\"3\",\"9\",\"4\",\"P\",\"J\",\"41\"
\"\",\"\",\"approach-retreat\",\"45\",\"1701740\",\"0.0-45.0\",\"\",\"\",\"1-3\",\"4543\",\"37\",\"1\",\"Training\",\"Stims/Figures/71-C-30-1.bmp\",\"na:mana\",\"Left\",\"37\",\"3\",\"10\",\"4\",\"S\",\"J\",\"42\"
\"\",\"\",\"approach-retreat\",\"46\",\"1707760\",\"0.0-46.0\",\"\",\"\",\"1-3\",\"4496\",\"37\",\"1\",\"Training\",\"Stims/Figures/19-C-20-4.bmp\",\"ma:lala\",\"Left\",\"37\",\"3\",\"11\",\"4\",\"S\",\"J\",\"43\"
\"\",\"\",\"approach-retreat\",\"47\",\"1715871\",\"0.0-47.0\",\"\",\"\",\"1-3\",\"6602\",\"40\",\"1\",\"Training\",\"Stims/Figures/27-C-30-1.bmp\",\"nalana\",\"Down\",\"40\",\"3\",\"12\",\"4\",\"S\",\"J\",\"44\"
\"\",\"\",\"approach-retreat\",\"48\",\"1721593\",\"0.0-48.0\",\"\",\"\",\"1-3\",\"4195\",\"39\",\"1\",\"Training\",\"Stims/Figures/87-C-20-4.bmp\",\"nala:na\",\"Right\",\"39\",\"3\",\"13\",\"4\",\"S\",\"J\",\"45\"
\"\",\"\",\"approach-retreat\",\"49\",\"1727436\",\"0.0-49.0\",\"\",\"\",\"1-3\",\"4318\",\"40\",\"1\",\"Training\",\"Stims/Figures/87-J-10-4.bmp\",\"tapaka\",\"Up\",\"40\",\"3\",\"14\",\"4\",\"P\",\"J\",\"46\"
\"\",\"\",\"approach-retreat\",\"50\",\"1733260\",\"0.0-50.0\",\"\",\"\",\"1-3\",\"4305\",\"38\",\"1\",\"Training\",\"Stims/Figures/19-J-10-4.bmp\",\"tapata\",\"Down\",\"38\",\"3\",\"15\",\"4\",\"P\",\"J\",\"47\"
\"\",\"\",\"approach-retreat\",\"51\",\"1739259\",\"0.0-51.0\",\"\",\"\",\"1-3\",\"4476\",\"39\",\"1\",\"Training\",\"Stims/Figures/128-J-10-3.bmp\",\"pa:kaka\",\"Left\",\"39\",\"3\",\"16\",\"4\",\"P\",\"J\",\"48\"
\"\",\"\",\"approach-retreat\",\"52\",\"1745482\",\"0.0-52.0\",\"\",\"\",\"1-3\",\"4702\",\"38\",\"1\",\"Training\",\"Stims/Figures/87-C-20-4.bmp\",\"nala:na\",\"Up\",\"38\",\"4\",\"1\",\"4\",\"S\",\"J\",\"49\"
\"\",\"\",\"approach-retreat\",\"53\",\"1751383\",\"0.0-53.0\",\"\",\"\",\"1-3\",\"4378\",\"38\",\"1\",\"Training\",\"Stims/Figures/128-C-30-3.bmp\",\"na:la:la\",\"Up\",\"38\",\"4\",\"2\",\"4\",\"S\",\"J\",\"50\"
\"\",\"\",\"approach-retreat\",\"54\",\"1756981\",\"0.0-54.0\",\"\",\"\",\"1-3\",\"4085\",\"38\",\"1\",\"Training\",\"Stims/Figures/128-J-10-3.bmp\",\"pa:kaka\",\"Down\",\"38\",\"4\",\"3\",\"4\",\"P\",\"J\",\"51\"
\"\",\"\",\"approach-retreat\",\"55\",\"1763595\",\"0.0-55.0\",\"\",\"\",\"1-3\",\"5097\",\"39\",\"1\",\"Training\",\"Stims/Figures/19-J-10-4.bmp\",\"tapata\",\"Left\",\"39\",\"4\",\"4\",\"4\",\"P\",\"J\",\"52\"
\"\",\"\",\"approach-retreat\",\"56\",\"1770640\",\"0.0-56.0\",\"\",\"\",\"1-3\",\"5533\",\"37\",\"1\",\"Training\",\"Stims/Figures/84-C-20-2.bmp\",\"mamana\",\"Left\",\"37\",\"4\",\"5\",\"4\",\"S\",\"J\",\"53\"
\"\",\"\",\"approach-retreat\",\"57\",\"1776560\",\"0.0-57.0\",\"\",\"\",\"1-3\",\"4404\",\"37\",\"1\",\"Training\",\"Stims/Figures/118-J-0-2.bmp\",\"tapa:ta\",\"Right\",\"37\",\"4\",\"6\",\"4\",\"P\",\"J\",\"54\"
\"\",\"\",\"approach-retreat\",\"58\",\"1782207\",\"0.0-58.0\",\"\",\"\",\"1-3\",\"4134\",\"37\",\"1\",\"Training\",\"Stims/Figures/19-C-20-4.bmp\",\"ma:lala\",\"Left\",\"37\",\"4\",\"7\",\"4\",\"S\",\"J\",\"55\"
\"\",\"\",\"approach-retreat\",\"59\",\"1788157\",\"0.0-59.0\",\"\",\"\",\"1-3\",\"4436\",\"40\",\"1\",\"Training\",\"Stims/Figures/27-C-30-1.bmp\",\"nalana\",\"Down\",\"40\",\"4\",\"8\",\"4\",\"S\",\"J\",\"56\"
\"\",\"\",\"approach-retreat\",\"60\",\"1794023\",\"0.0-60.0\",\"\",\"\",\"1-3\",\"4351\",\"37\",\"1\",\"Training\",\"Stims/Figures/84-J-0-2.bmp\",\"pakaka\",\"Right\",\"37\",\"4\",\"9\",\"4\",\"P\",\"J\",\"57\"
\"\",\"\",\"approach-retreat\",\"61\",\"1800019\",\"0.0-61.0\",\"\",\"\",\"1-3\",\"4480\",\"39\",\"1\",\"Training\",\"Stims/Figures/71-J-0-1.bmp\",\"tapa:ka\",\"Left\",\"39\",\"4\",\"10\",\"4\",\"P\",\"J\",\"58\"
\"\",\"\",\"approach-retreat\",\"62\",\"1806144\",\"0.0-62.0\",\"\",\"\",\"1-3\",\"4610\",\"38\",\"1\",\"Training\",\"Stims/Figures/118-C-20-2.bmp\",\"nalala\",\"Up\",\"38\",\"4\",\"11\",\"4\",\"S\",\"J\",\"59\"
\"\",\"\",\"approach-retreat\",\"63\",\"1811919\",\"0.0-63.0\",\"\",\"\",\"1-3\",\"4261\",\"40\",\"1\",\"Training\",\"Stims/Figures/27-J-0-1.bmp\",\"ta:pata\",\"Up\",\"40\",\"4\",\"12\",\"4\",\"P\",\"J\",\"60\"
\"\",\"\",\"approach-retreat\",\"64\",\"1817618\",\"0.0-64.0\",\"\",\"\",\"1-3\",\"4180\",\"37\",\"1\",\"Training\",\"Stims/Figures/87-J-10-4.bmp\",\"tapaka\",\"Right\",\"37\",\"4\",\"13\",\"4\",\"P\",\"J\",\"61\"
\"\",\"\",\"approach-retreat\",\"65\",\"1823583\",\"0.0-65.0\",\"\",\"\",\"1-3\",\"4446\",\"38\",\"1\",\"Training\",\"Stims/Figures/111-J-10-3.bmp\",\"pa:ka:ta\",\"Down\",\"38\",\"4\",\"14\",\"4\",\"P\",\"J\",\"62\"
\"\",\"\",\"approach-retreat\",\"66\",\"1829337\",\"0.0-66.0\",\"\",\"\",\"1-3\",\"4228\",\"40\",\"1\",\"Training\",\"Stims/Figures/71-C-30-1.bmp\",\"na:mana\",\"Down\",\"40\",\"4\",\"15\",\"4\",\"S\",\"J\",\"63\"
\"\",\"\",\"approach-retreat\",\"67\",\"1835617\",\"0.0-67.0\",\"\",\"\",\"1-3\",\"4770\",\"39\",\"1\",\"Training\",\"Stims/Figures/111-C-30-3.bmp\",\"mama:na\",\"Right\",\"39\",\"4\",\"16\",\"4\",\"S\",\"J\",\"64\"
\"\",\"\",\"approach-retreat\",\"68\",\"1843097\",\"0.0-68.0\",\"\",\"\",\"1-3\",\"5966\",\"39\",\"1\",\"Training\",\"Stims/Figures/128-C-30-3.bmp\",\"na:la:la\",\"Right\",\"39\",\"5\",\"1\",\"4\",\"S\",\"J\",\"65\"
\"\",\"\",\"approach-retreat\",\"69\",\"1849062\",\"0.0-69.0\",\"\",\"\",\"1-3\",\"4445\",\"39\",\"1\",\"Training\",\"Stims/Figures/87-J-10-4.bmp\",\"tapaka\",\"Left\",\"39\",\"5\",\"2\",\"4\",\"P\",\"J\",\"66\"
\"\",\"\",\"approach-retreat\",\"70\",\"1854644\",\"0.0-70.0\",\"\",\"\",\"1-3\",\"4060\",\"38\",\"1\",\"Training\",\"Stims/Figures/71-J-0-1.bmp\",\"tapa:ka\",\"Down\",\"38\",\"5\",\"3\",\"4\",\"P\",\"J\",\"67\"
\"\",\"\",\"approach-retreat\",\"71\",\"1860435\",\"0.0-71.0\",\"\",\"\",\"1-3\",\"4274\",\"38\",\"1\",\"Training\",\"Stims/Figures/111-C-30-3.bmp\",\"mama:na\",\"Up\",\"38\",\"5\",\"4\",\"4\",\"S\",\"J\",\"68\"
\"\",\"\",\"approach-retreat\",\"72\",\"1866259\",\"0.0-72.0\",\"\",\"\",\"1-3\",\"4302\",\"37\",\"1\",\"Training\",\"Stims/Figures/118-J-0-2.bmp\",\"tapa:ta\",\"Right\",\"37\",\"5\",\"5\",\"4\",\"P\",\"J\",\"69\"
\"\",\"\",\"approach-retreat\",\"73\",\"1872137\",\"0.0-73.0\",\"\",\"\",\"1-3\",\"4354\",\"38\",\"1\",\"Training\",\"Stims/Figures/87-C-20-4.bmp\",\"nala:na\",\"Up\",\"38\",\"5\",\"6\",\"4\",\"S\",\"J\",\"70\"
\"\",\"\",\"approach-retreat\",\"74\",\"1878080\",\"0.0-74.0\",\"\",\"\",\"1-3\",\"4415\",\"37\",\"1\",\"Training\",\"Stims/Figures/84-C-20-2.bmp\",\"mamana\",\"Left\",\"37\",\"5\",\"7\",\"4\",\"S\",\"J\",\"71\"
\"\",\"\",\"approach-retreat\",\"75\",\"1884202\",\"0.0-75.0\",\"\",\"\",\"1-3\",\"4608\",\"40\",\"1\",\"Training\",\"Stims/Figures/27-J-0-1.bmp\",\"ta:pata\",\"Up\",\"40\",\"5\",\"8\",\"4\",\"P\",\"J\",\"72\"
\"\",\"\",\"approach-retreat\",\"76\",\"1889806\",\"0.0-76.0\",\"\",\"\",\"1-3\",\"4083\",\"38\",\"1\",\"Training\",\"Stims/Figures/19-J-10-4.bmp\",\"tapata\",\"Down\",\"38\",\"5\",\"9\",\"4\",\"P\",\"J\",\"73\"
\"\",\"\",\"approach-retreat\",\"77\",\"1895218\",\"0.0-77.0\",\"\",\"\",\"1-3\",\"3898\",\"40\",\"1\",\"Training\",\"Stims/Figures/118-C-20-2.bmp\",\"nalala\",\"Down\",\"40\",\"5\",\"10\",\"4\",\"S\",\"J\",\"74\"
\"\",\"\",\"approach-retreat\",\"78\",\"1900835\",\"0.0-78.0\",\"\",\"\",\"1-3\",\"4089\",\"39\",\"1\",\"Training\",\"Stims/Figures/71-C-30-1.bmp\",\"na:mana\",\"Right\",\"39\",\"5\",\"11\",\"4\",\"S\",\"J\",\"75\"
\"\",\"\",\"approach-retreat\",\"79\",\"1906517\",\"0.0-79.0\",\"\",\"\",\"1-3\",\"4159\",\"39\",\"1\",\"Training\",\"Stims/Figures/19-C-20-4.bmp\",\"ma:lala\",\"Right\",\"39\",\"5\",\"12\",\"4\",\"S\",\"J\",\"76\"
\"\",\"\",\"approach-retreat\",\"80\",\"1912220\",\"0.0-80.0\",\"\",\"\",\"1-3\",\"4190\",\"38\",\"1\",\"Training\",\"Stims/Figures/27-C-30-1.bmp\",\"nalana\",\"Up\",\"38\",\"5\",\"13\",\"4\",\"S\",\"J\",\"77\"
\"\",\"\",\"approach-retreat\",\"81\",\"1918196\",\"0.0-81.0\",\"\",\"\",\"1-3\",\"4457\",\"39\",\"1\",\"Training\",\"Stims/Figures/84-J-0-2.bmp\",\"pakaka\",\"Left\",\"39\",\"5\",\"14\",\"4\",\"P\",\"J\",\"78\"
\"\",\"\",\"approach-retreat\",\"82\",\"1924062\",\"0.0-82.0\",\"\",\"\",\"1-3\",\"4343\",\"39\",\"1\",\"Training\",\"Stims/Figures/111-J-10-3.bmp\",\"pa:ka:ta\",\"Left\",\"39\",\"5\",\"15\",\"4\",\"P\",\"J\",\"79\"
\"\",\"\",\"approach-retreat\",\"83\",\"1929711\",\"0.0-83.0\",\"\",\"\",\"1-3\",\"4125\",\"38\",\"1\",\"Training\",\"Stims/Figures/128-J-10-3.bmp\",\"pa:kaka\",\"Down\",\"38\",\"5\",\"16\",\"4\",\"P\",\"J\",\"80\"
\"\",\"\",\"approach-retreat\",\"84\",\"1935742\",\"0.0-84.0\",\"\",\"\",\"1-3\",\"4506\",\"40\",\"1\",\"Training\",\"Stims/Figures/19-J-10-4.bmp\",\"tapata\",\"Up\",\"40\",\"6\",\"1\",\"4\",\"P\",\"J\",\"81\"
\"\",\"\",\"approach-retreat\",\"85\",\"1941523\",\"0.0-85.0\",\"\",\"\",\"1-3\",\"4256\",\"39\",\"1\",\"Training\",\"Stims/Figures/87-J-10-4.bmp\",\"tapaka\",\"Left\",\"39\",\"6\",\"2\",\"4\",\"P\",\"J\",\"82\"
\"\",\"\",\"approach-retreat\",\"86\",\"1948770\",\"0.0-86.0\",\"\",\"\",\"1-3\",\"5732\",\"38\",\"1\",\"Training\",\"Stims/Figures/111-C-30-3.bmp\",\"mama:na\",\"Up\",\"38\",\"6\",\"3\",\"4\",\"S\",\"J\",\"83\"
\"\",\"\",\"approach-retreat\",\"87\",\"1954399\",\"0.0-87.0\",\"\",\"\",\"1-3\",\"4111\",\"38\",\"1\",\"Training\",\"Stims/Figures/118-J-0-2.bmp\",\"tapa:ta\",\"Down\",\"38\",\"6\",\"4\",\"4\",\"P\",\"J\",\"84\"
\"\",\"\",\"approach-retreat\",\"88\",\"1960036\",\"0.0-88.0\",\"\",\"\",\"1-3\",\"4113\",\"39\",\"1\",\"Training\",\"Stims/Figures/84-J-0-2.bmp\",\"pakaka\",\"Left\",\"39\",\"6\",\"5\",\"4\",\"P\",\"J\",\"85\"
\"\",\"\",\"approach-retreat\",\"89\",\"1965919\",\"0.0-89.0\",\"\",\"\",\"1-3\",\"4364\",\"38\",\"1\",\"Training\",\"Stims/Figures/111-J-10-3.bmp\",\"pa:ka:ta\",\"Down\",\"38\",\"6\",\"6\",\"4\",\"P\",\"J\",\"86\"
\"\",\"\",\"approach-retreat\",\"90\",\"1971970\",\"0.0-90.0\",\"\",\"\",\"1-3\",\"4534\",\"37\",\"1\",\"Training\",\"Stims/Figures/84-C-20-2.bmp\",\"mamana\",\"Left\",\"37\",\"6\",\"7\",\"4\",\"S\",\"J\",\"87\"
\"\",\"\",\"approach-retreat\",\"91\",\"1977801\",\"0.0-91.0\",\"\",\"\",\"1-3\",\"4319\",\"38\",\"1\",\"Training\",\"Stims/Figures/71-C-30-1.bmp\",\"na:mana\",\"Up\",\"38\",\"6\",\"8\",\"4\",\"S\",\"J\",\"88\"
\"\",\"\",\"approach-retreat\",\"92\",\"1983398\",\"0.0-92.0\",\"\",\"\",\"1-3\",\"4081\",\"39\",\"1\",\"Training\",\"Stims/Figures/27-C-30-1.bmp\",\"nalana\",\"Right\",\"39\",\"6\",\"9\",\"4\",\"S\",\"J\",\"89\"
\"\",\"\",\"approach-retreat\",\"93\",\"1989135\",\"0.0-93.0\",\"\",\"\",\"1-3\",\"4216\",\"40\",\"1\",\"Training\",\"Stims/Figures/128-C-30-3.bmp\",\"na:la:la\",\"Down\",\"40\",\"6\",\"10\",\"4\",\"S\",\"J\",\"90\"
\"\",\"\",\"approach-retreat\",\"94\",\"1995148\",\"0.0-94.0\",\"\",\"\",\"1-3\",\"4485\",\"39\",\"1\",\"Training\",\"Stims/Figures/128-J-10-3.bmp\",\"pa:kaka\",\"Left\",\"39\",\"6\",\"11\",\"4\",\"P\",\"J\",\"91\"
\"\",\"\",\"approach-retreat\",\"95\",\"2000914\",\"0.0-95.0\",\"\",\"\",\"1-3\",\"4253\",\"39\",\"1\",\"Training\",\"Stims/Figures/118-C-20-2.bmp\",\"nalala\",\"Right\",\"39\",\"6\",\"12\",\"4\",\"S\",\"J\",\"92\"
\"\",\"\",\"approach-retreat\",\"96\",\"2006576\",\"0.0-96.0\",\"\",\"\",\"1-3\",\"4143\",\"37\",\"1\",\"Training\",\"Stims/Figures/71-J-0-1.bmp\",\"tapa:ka\",\"Right\",\"37\",\"6\",\"13\",\"4\",\"P\",\"J\",\"93\"
\"\",\"\",\"approach-retreat\",\"97\",\"2012307\",\"0.0-97.0\",\"\",\"\",\"1-3\",\"4215\",\"40\",\"1\",\"Training\",\"Stims/Figures/27-J-0-1.bmp\",\"ta:pata\",\"Up\",\"40\",\"6\",\"14\",\"4\",\"P\",\"J\",\"94\"
\"\",\"\",\"approach-retreat\",\"98\",\"2017958\",\"0.0-98.0\",\"\",\"\",\"1-3\",\"4129\",\"40\",\"1\",\"Training\",\"Stims/Figures/87-C-20-4.bmp\",\"nala:na\",\"Down\",\"40\",\"6\",\"15\",\"4\",\"S\",\"J\",\"95\"
\"\",\"\",\"approach-retreat\",\"99\",\"2023491\",\"0.0-99.0\",\"\",\"\",\"1-3\",\"4019\",\"39\",\"1\",\"Training\",\"Stims/Figures/19-C-20-4.bmp\",\"ma:lala\",\"Right\",\"39\",\"6\",\"16\",\"4\",\"S\",\"J\",\"96\"
\"\",\"\",\"approach-retreat\",\"100\",\"2029174\",\"0.0-100.0\",\"\",\"\",\"1-3\",\"4167\",\"40\",\"1\",\"Training\",\"Stims/Figures/71-C-30-1.bmp\",\"na:mana\",\"Down\",\"40\",\"7\",\"1\",\"4\",\"S\",\"J\",\"97\"
\"\",\"\",\"approach-retreat\",\"101\",\"2034735\",\"0.0-101.0\",\"\",\"\",\"1-3\",\"4051\",\"38\",\"1\",\"Training\",\"Stims/Figures/71-J-0-1.bmp\",\"tapa:ka\",\"Down\",\"38\",\"7\",\"2\",\"4\",\"P\",\"J\",\"98\"
\"\",\"\",\"approach-retreat\",\"102\",\"2040413\",\"0.0-102.0\",\"\",\"\",\"1-3\",\"4165\",\"40\",\"1\",\"Training\",\"Stims/Figures/128-J-10-3.bmp\",\"pa:kaka\",\"Up\",\"40\",\"7\",\"3\",\"4\",\"P\",\"J\",\"99\"
\"\",\"\",\"approach-retreat\",\"103\",\"2046086\",\"0.0-103.0\",\"\",\"\",\"1-3\",\"4148\",\"39\",\"1\",\"Training\",\"Stims/Figures/87-C-20-4.bmp\",\"nala:na\",\"Right\",\"39\",\"7\",\"4\",\"4\",\"S\",\"J\",\"100\"
\"\",\"\",\"approach-retreat\",\"104\",\"2051917\",\"0.0-104.0\",\"\",\"\",\"1-3\",\"4317\",\"39\",\"1\",\"Training\",\"Stims/Figures/19-J-10-4.bmp\",\"tapata\",\"Left\",\"39\",\"7\",\"5\",\"4\",\"P\",\"J\",\"101\"
\"\",\"\",\"approach-retreat\",\"105\",\"2057567\",\"0.0-105.0\",\"\",\"\",\"1-3\",\"4134\",\"37\",\"1\",\"Training\",\"Stims/Figures/19-C-20-4.bmp\",\"ma:lala\",\"Left\",\"37\",\"7\",\"6\",\"4\",\"S\",\"J\",\"102\"
\"\",\"\",\"approach-retreat\",\"106\",\"2063312\",\"0.0-106.0\",\"\",\"\",\"1-3\",\"4231\",\"39\",\"1\",\"Training\",\"Stims/Figures/111-C-30-3.bmp\",\"mama:na\",\"Right\",\"39\",\"7\",\"7\",\"4\",\"S\",\"J\",\"103\"
\"\",\"\",\"approach-retreat\",\"107\",\"2069290\",\"0.0-107.0\",\"\",\"\",\"1-3\",\"4453\",\"38\",\"1\",\"Training\",\"Stims/Figures/27-C-30-1.bmp\",\"nalana\",\"Up\",\"38\",\"7\",\"8\",\"4\",\"S\",\"J\",\"104\"
\"\",\"\",\"approach-retreat\",\"108\",\"2075029\",\"0.0-108.0\",\"\",\"\",\"1-3\",\"4220\",\"38\",\"1\",\"Training\",\"Stims/Figures/84-C-20-2.bmp\",\"mamana\",\"Up\",\"38\",\"7\",\"9\",\"4\",\"S\",\"J\",\"105\"
\"\",\"\",\"approach-retreat\",\"109\",\"2080726\",\"0.0-109.0\",\"\",\"\",\"1-3\",\"4185\",\"40\",\"1\",\"Training\",\"Stims/Figures/27-J-0-1.bmp\",\"ta:pata\",\"Up\",\"40\",\"7\",\"10\",\"4\",\"P\",\"J\",\"106\"
\"\",\"\",\"approach-retreat\",\"110\",\"2086492\",\"0.0-110.0\",\"\",\"\",\"1-3\",\"4249\",\"37\",\"1\",\"Training\",\"Stims/Figures/87-J-10-4.bmp\",\"tapaka\",\"Right\",\"37\",\"7\",\"11\",\"4\",\"P\",\"J\",\"107\"
\"\",\"\",\"approach-retreat\",\"111\",\"2092109\",\"0.0-111.0\",\"\",\"\",\"1-3\",\"4097\",\"38\",\"1\",\"Training\",\"Stims/Figures/118-J-0-2.bmp\",\"tapa:ta\",\"Down\",\"38\",\"7\",\"12\",\"4\",\"P\",\"J\",\"108\"
\"\",\"\",\"approach-retreat\",\"112\",\"2097992\",\"0.0-112.0\",\"\",\"\",\"1-3\",\"4366\",\"38\",\"1\",\"Training\",\"Stims/Figures/111-J-10-3.bmp\",\"pa:ka:ta\",\"Down\",\"38\",\"7\",\"13\",\"4\",\"P\",\"J\",\"109\"
\"\",\"\",\"approach-retreat\",\"113\",\"2103623\",\"0.0-113.0\",\"\",\"\",\"1-3\",\"4117\",\"39\",\"1\",\"Training\",\"Stims/Figures/128-C-30-3.bmp\",\"na:la:la\",\"Right\",\"39\",\"7\",\"14\",\"4\",\"S\",\"J\",\"110\"
\"\",\"\",\"approach-retreat\",\"114\",\"2109188\",\"0.0-114.0\",\"\",\"\",\"1-3\",\"4042\",\"37\",\"1\",\"Training\",\"Stims/Figures/118-C-20-2.bmp\",\"nalala\",\"Left\",\"37\",\"7\",\"15\",\"4\",\"S\",\"J\",\"111\"
\"\",\"\",\"approach-retreat\",\"115\",\"2115021\",\"0.0-115.0\",\"\",\"\",\"1-3\",\"4310\",\"39\",\"1\",\"Training\",\"Stims/Figures/84-J-0-2.bmp\",\"pakaka\",\"Left\",\"39\",\"7\",\"16\",\"4\",\"P\",\"J\",\"112\"
\"\",\"\",\"approach-retreat\",\"116\",\"2120563\",\"0.0-116.0\",\"\",\"\",\"1-3\",\"4029\",\"37\",\"1\",\"Training\",\"Stims/Figures/19-C-20-4.bmp\",\"ma:lala\",\"Left\",\"37\",\"8\",\"1\",\"4\",\"S\",\"J\",\"113\"
\"\",\"\",\"approach-retreat\",\"117\",\"2126297\",\"0.0-117.0\",\"\",\"\",\"1-3\",\"4217\",\"37\",\"1\",\"Training\",\"Stims/Figures/87-C-20-4.bmp\",\"nala:na\",\"Left\",\"37\",\"8\",\"2\",\"4\",\"S\",\"J\",\"114\"
\"\",\"\",\"approach-retreat\",\"118\",\"2131902\",\"0.0-118.0\",\"\",\"\",\"1-3\",\"4083\",\"38\",\"1\",\"Training\",\"Stims/Figures/118-J-0-2.bmp\",\"tapa:ta\",\"Down\",\"38\",\"8\",\"3\",\"4\",\"P\",\"J\",\"115\"
\"\",\"\",\"approach-retreat\",\"119\",\"2137575\",\"0.0-119.0\",\"\",\"\",\"1-3\",\"4156\",\"39\",\"1\",\"Training\",\"Stims/Figures/111-C-30-3.bmp\",\"mama:na\",\"Right\",\"39\",\"8\",\"4\",\"4\",\"S\",\"J\",\"116\"
\"\",\"\",\"approach-retreat\",\"120\",\"2143321\",\"0.0-120.0\",\"\",\"\",\"1-3\",\"4223\",\"39\",\"1\",\"Training\",\"Stims/Figures/71-C-30-1.bmp\",\"na:mana\",\"Right\",\"39\",\"8\",\"5\",\"4\",\"S\",\"J\",\"117\"
\"\",\"\",\"approach-retreat\",\"121\",\"2148954\",\"0.0-121.0\",\"\",\"\",\"1-3\",\"4118\",\"39\",\"1\",\"Training\",\"Stims/Figures/27-J-0-1.bmp\",\"ta:pata\",\"Left\",\"39\",\"8\",\"6\",\"4\",\"P\",\"J\",\"118\"
\"\",\"\",\"approach-retreat\",\"122\",\"2154518\",\"0.0-122.0\",\"\",\"\",\"1-3\",\"4052\",\"40\",\"1\",\"Training\",\"Stims/Figures/118-C-20-2.bmp\",\"nalala\",\"Down\",\"40\",\"8\",\"7\",\"4\",\"S\",\"J\",\"119\"
\"\",\"\",\"approach-retreat\",\"123\",\"2160132\",\"0.0-123.0\",\"\",\"\",\"1-3\",\"4094\",\"38\",\"0\",\"Training\",\"Stims/Figures/19-J-10-4.bmp\",\"tapata\",\"Up\",\"40\",\"8\",\"8\",\"4\",\"P\",\"J\",\"120\"
\"\",\"\",\"approach-retreat\",\"124\",\"2165819\",\"0.0-124.0\",\"\",\"\",\"1-3\",\"4164\",\"37\",\"1\",\"Training\",\"Stims/Figures/111-J-10-3.bmp\",\"pa:ka:ta\",\"Right\",\"37\",\"8\",\"9\",\"4\",\"P\",\"J\",\"121\"
\"\",\"\",\"approach-retreat\",\"125\",\"2171336\",\"0.0-125.0\",\"\",\"\",\"1-3\",\"4004\",\"38\",\"1\",\"Training\",\"Stims/Figures/128-J-10-3.bmp\",\"pa:kaka\",\"Down\",\"38\",\"8\",\"10\",\"4\",\"P\",\"J\",\"122\"
\"\",\"\",\"approach-retreat\",\"126\",\"2177226\",\"0.0-126.0\",\"\",\"\",\"1-3\",\"4364\",\"38\",\"1\",\"Training\",\"Stims/Figures/128-C-30-3.bmp\",\"na:la:la\",\"Up\",\"38\",\"8\",\"11\",\"4\",\"S\",\"J\",\"123\"
\"\",\"\",\"approach-retreat\",\"127\",\"2183413\",\"0.0-127.0\",\"\",\"\",\"1-3\",\"4673\",\"38\",\"1\",\"Training\",\"Stims/Figures/87-J-10-4.bmp\",\"tapaka\",\"Down\",\"38\",\"8\",\"12\",\"4\",\"P\",\"J\",\"124\"
\"\",\"\",\"approach-retreat\",\"128\",\"2189058\",\"0.0-128.0\",\"\",\"\",\"1-3\",\"4127\",\"39\",\"1\",\"Training\",\"Stims/Figures/84-J-0-2.bmp\",\"pakaka\",\"Left\",\"39\",\"8\",\"13\",\"4\",\"P\",\"J\",\"125\"
\"\",\"\",\"approach-retreat\",\"129\",\"2194739\",\"0.0-129.0\",\"\",\"\",\"1-3\",\"4161\",\"38\",\"1\",\"Training\",\"Stims/Figures/27-C-30-1.bmp\",\"nalana\",\"Up\",\"38\",\"8\",\"14\",\"4\",\"S\",\"J\",\"126\"
\"\",\"\",\"approach-retreat\",\"130\",\"2200564\",\"0.0-130.0\",\"\",\"\",\"1-3\",\"4307\",\"39\",\"1\",\"Training\",\"Stims/Figures/84-C-20-2.bmp\",\"mamana\",\"Right\",\"39\",\"8\",\"15\",\"4\",\"S\",\"J\",\"127\"
\"\",\"\",\"approach-retreat\",\"131\",\"2206669\",\"0.0-131.0\",\"\",\"\",\"1-3\",\"4593\",\"40\",\"1\",\"Training\",\"Stims/Figures/71-J-0-1.bmp\",\"tapa:ka\",\"Up\",\"40\",\"8\",\"16\",\"4\",\"P\",\"J\",\"128\"
\"\",\"\",\"approach-retreat\",\"132\",\"2212321\",\"0.0-132.0\",\"\",\"\",\"1-3\",\"4127\",\"39\",\"1\",\"Training\",\"Stims/Figures/118-J-0-2.bmp\",\"tapa:ta\",\"Left\",\"39\",\"9\",\"1\",\"4\",\"P\",\"J\",\"129\"
\"\",\"\",\"approach-retreat\",\"133\",\"2218055\",\"0.0-133.0\",\"\",\"\",\"1-3\",\"4208\",\"37\",\"1\",\"Training\",\"Stims/Figures/71-C-30-1.bmp\",\"na:mana\",\"Left\",\"37\",\"9\",\"2\",\"4\",\"S\",\"J\",\"130\"
\"\",\"\",\"approach-retreat\",\"134\",\"2223682\",\"0.0-134.0\",\"\",\"\",\"1-3\",\"4102\",\"39\",\"1\",\"Training\",\"Stims/Figures/27-J-0-1.bmp\",\"ta:pata\",\"Left\",\"39\",\"9\",\"3\",\"4\",\"P\",\"J\",\"131\"
\"\",\"\",\"approach-retreat\",\"135\",\"2229536\",\"0.0-135.0\",\"\",\"\",\"1-3\",\"4340\",\"38\",\"1\",\"Training\",\"Stims/Figures/87-J-10-4.bmp\",\"tapaka\",\"Down\",\"38\",\"9\",\"4\",\"4\",\"P\",\"J\",\"132\"
\"\",\"\",\"approach-retreat\",\"136\",\"2235119\",\"0.0-136.0\",\"\",\"\",\"1-3\",\"4059\",\"37\",\"1\",\"Training\",\"Stims/Figures/111-C-30-3.bmp\",\"mama:na\",\"Left\",\"37\",\"9\",\"5\",\"4\",\"S\",\"J\",\"133\"
\"\",\"\",\"approach-retreat\",\"137\",\"2240611\",\"0.0-137.0\",\"\",\"\",\"1-3\",\"3977\",\"38\",\"1\",\"Training\",\"Stims/Figures/111-J-10-3.bmp\",\"pa:ka:ta\",\"Down\",\"38\",\"9\",\"6\",\"4\",\"P\",\"J\",\"134\"
\"\",\"\",\"approach-retreat\",\"138\",\"2246278\",\"0.0-138.0\",\"\",\"\",\"1-3\",\"4144\",\"38\",\"1\",\"Training\",\"Stims/Figures/84-J-0-2.bmp\",\"pakaka\",\"Down\",\"38\",\"9\",\"7\",\"4\",\"P\",\"J\",\"135\"
\"\",\"\",\"approach-retreat\",\"139\",\"2252360\",\"0.0-139.0\",\"\",\"\",\"1-3\",\"4568\",\"37\",\"0\",\"Training\",\"Stims/Figures/118-C-20-2.bmp\",\"nalala\",\"Right\",\"39\",\"9\",\"8\",\"4\",\"S\",\"J\",\"136\"
\"\",\"\",\"approach-retreat\",\"140\",\"2264413\",\"0.0-140.0\",\"\",\"\",\"1-3\",\"10541\",\"39\",\"1\",\"Training\",\"Stims/Figures/87-C-20-4.bmp\",\"nala:na\",\"Right\",\"39\",\"9\",\"9\",\"4\",\"S\",\"J\",\"137\"
\"\",\"\",\"approach-retreat\",\"141\",\"2270101\",\"0.0-141.0\",\"\",\"\",\"1-3\",\"4166\",\"38\",\"1\",\"Training\",\"Stims/Figures/19-C-20-4.bmp\",\"ma:lala\",\"Up\",\"38\",\"9\",\"10\",\"4\",\"S\",\"J\",\"138\"
\"\",\"\",\"approach-retreat\",\"142\",\"2276023\",\"0.0-142.0\",\"\",\"\",\"1-3\",\"4407\",\"38\",\"1\",\"Training\",\"Stims/Figures/84-C-20-2.bmp\",\"mamana\",\"Up\",\"38\",\"9\",\"11\",\"4\",\"S\",\"J\",\"139\"
\"\",\"\",\"approach-retreat\",\"143\",\"2281635\",\"0.0-143.0\",\"\",\"\",\"1-3\",\"4096\",\"38\",\"1\",\"Training\",\"Stims/Figures/19-J-10-4.bmp\",\"tapata\",\"Down\",\"38\",\"9\",\"12\",\"4\",\"P\",\"J\",\"140\"
\"\",\"\",\"approach-retreat\",\"144\",\"2287281\",\"0.0-144.0\",\"\",\"\",\"1-3\",\"4126\",\"37\",\"1\",\"Training\",\"Stims/Figures/128-J-10-3.bmp\",\"pa:kaka\",\"Right\",\"37\",\"9\",\"13\",\"4\",\"P\",\"J\",\"141\"
\"\",\"\",\"approach-retreat\",\"145\",\"2295682\",\"0.0-145.0\",\"\",\"\",\"1-3\",\"6882\",\"38\",\"1\",\"Training\",\"Stims/Figures/27-C-30-1.bmp\",\"nalana\",\"Up\",\"38\",\"9\",\"14\",\"4\",\"S\",\"J\",\"142\"
\"\",\"\",\"approach-retreat\",\"146\",\"2301313\",\"0.0-146.0\",\"\",\"\",\"1-3\",\"4114\",\"37\",\"1\",\"Training\",\"Stims/Figures/71-J-0-1.bmp\",\"tapa:ka\",\"Right\",\"37\",\"9\",\"15\",\"4\",\"P\",\"J\",\"143\"
\"\",\"\",\"approach-retreat\",\"147\",\"2307014\",\"0.0-147.0\",\"\",\"\",\"1-3\",\"4184\",\"38\",\"1\",\"Training\",\"Stims/Figures/128-C-30-3.bmp\",\"na:la:la\",\"Up\",\"38\",\"9\",\"16\",\"4\",\"S\",\"J\",\"144\"
\"9413\",\"\",\"instructions\",\"148\",\"2316428\",\"0.0-148.0\",\"[{\"\"page_index\"\":0,\"\"viewing_time\"\":9412}]\",\"\",\"\",\"\",\"\",\"\",\"\",\"\",\"\",\"\",\"\",\"\",\"\",\"\",\"\",\"\",\"\"
\"\",\"\",\"approach-retreat\",\"149\",\"2322595\",\"0.0-149.0\",\"\",\"\",\"1-3\",\"4652\",\"38\",\"1\",\"Testing\",\"Stims/Figures/144-C-30-3.bmp\",\"nala:la\",\"Up\",\"38\",\"1\",\"1\",\"4\",\"S\",\"J\",\"1\"
\"\",\"\",\"approach-retreat\",\"150\",\"2328899\",\"0.0-150.0\",\"\",\"\",\"1-3\",\"4794\",\"38\",\"1\",\"Testing\",\"Stims/Figures/111-J-10-3.bmp\",\"pa:ka:ta\",\"Down\",\"38\",\"1\",\"2\",\"4\",\"P\",\"J\",\"2\"
\"\",\"\",\"approach-retreat\",\"151\",\"2335221\",\"0.0-151.0\",\"\",\"\",\"1-3\",\"4813\",\"39\",\"1\",\"Testing\",\"Stims/Figures/102-C-20-4.bmp\",\"malana\",\"Right\",\"39\",\"1\",\"3\",\"4\",\"S\",\"J\",\"3\"
\"\",\"\",\"approach-retreat\",\"152\",\"2341108\",\"0.0-152.0\",\"\",\"\",\"1-3\",\"4364\",\"38\",\"1\",\"Testing\",\"Stims/Figures/84-C-20-2.bmp\",\"mamana\",\"Up\",\"38\",\"1\",\"4\",\"4\",\"S\",\"J\",\"4\"
\"\",\"\",\"approach-retreat\",\"153\",\"2346900\",\"0.0-153.0\",\"\",\"\",\"1-3\",\"4283\",\"37\",\"1\",\"Testing\",\"Stims/Figures/71-J-0-1.bmp\",\"tapa:ka\",\"Right\",\"37\",\"1\",\"5\",\"4\",\"P\",\"J\",\"5\"
\"\",\"\",\"approach-retreat\",\"154\",\"2352751\",\"0.0-154.0\",\"\",\"\",\"1-3\",\"4328\",\"40\",\"1\",\"Testing\",\"Stims/Figures/19-C-20-4.bmp\",\"ma:lala\",\"Down\",\"40\",\"1\",\"6\",\"4\",\"S\",\"J\",\"6\"
\"\",\"\",\"approach-retreat\",\"155\",\"2359010\",\"0.0-155.0\",\"\",\"\",\"1-3\",\"4748\",\"39\",\"1\",\"Testing\",\"Stims/Figures/128-J-10-3.bmp\",\"pa:kaka\",\"Left\",\"39\",\"1\",\"7\",\"4\",\"P\",\"J\",\"7\"
\"\",\"\",\"approach-retreat\",\"156\",\"2364627\",\"0.0-156.0\",\"\",\"\",\"1-3\",\"4098\",\"37\",\"1\",\"Testing\",\"Stims/Figures/128-C-30-3.bmp\",\"na:la:la\",\"Left\",\"37\",\"1\",\"8\",\"4\",\"S\",\"J\",\"8\"
\"\",\"\",\"approach-retreat\",\"157\",\"2370384\",\"0.0-157.0\",\"\",\"\",\"1-3\",\"4237\",\"40\",\"1\",\"Testing\",\"Stims/Figures/27-C-30-1.bmp\",\"nalana\",\"Down\",\"40\",\"1\",\"9\",\"4\",\"S\",\"J\",\"9\"
\"\",\"\",\"approach-retreat\",\"158\",\"2376431\",\"0.0-158.0\",\"\",\"\",\"1-3\",\"4523\",\"38\",\"1\",\"Testing\",\"Stims/Figures/87-C-20-4.bmp\",\"nala:na\",\"Up\",\"38\",\"1\",\"10\",\"4\",\"S\",\"J\",\"10\"
\"\",\"\",\"approach-retreat\",\"159\",\"2382221\",\"0.0-159.0\",\"\",\"\",\"1-3\",\"4266\",\"39\",\"1\",\"Testing\",\"Stims/Figures/71-C-30-1.bmp\",\"na:mana\",\"Right\",\"39\",\"1\",\"11\",\"4\",\"S\",\"J\",\"11\"
\"\",\"\",\"approach-retreat\",\"160\",\"2387983\",\"0.0-160.0\",\"\",\"\",\"1-3\",\"4248\",\"40\",\"1\",\"Testing\",\"Stims/Figures/118-J-0-2.bmp\",\"tapa:ta\",\"Up\",\"40\",\"1\",\"12\",\"4\",\"P\",\"J\",\"12\"
\"\",\"\",\"approach-retreat\",\"161\",\"2394790\",\"0.0-161.0\",\"\",\"\",\"1-3\",\"5287\",\"39\",\"1\",\"Testing\",\"Stims/Figures/111-C-30-3.bmp\",\"mama:na\",\"Right\",\"39\",\"1\",\"13\",\"4\",\"S\",\"J\",\"13\"
\"\",\"\",\"approach-retreat\",\"162\",\"2400494\",\"0.0-162.0\",\"\",\"\",\"1-3\",\"4187\",\"39\",\"1\",\"Testing\",\"Stims/Figures/102-J-10-4.bmp\",\"ta:kata\",\"Left\",\"39\",\"1\",\"14\",\"4\",\"P\",\"J\",\"14\"
\"\",\"\",\"approach-retreat\",\"163\",\"2406319\",\"0.0-163.0\",\"\",\"\",\"1-3\",\"4309\",\"40\",\"1\",\"Testing\",\"Stims/Figures/19-J-10-4.bmp\",\"tapata\",\"Up\",\"40\",\"1\",\"15\",\"4\",\"P\",\"J\",\"15\"
\"\",\"\",\"approach-retreat\",\"164\",\"2411975\",\"0.0-164.0\",\"\",\"\",\"1-3\",\"4144\",\"39\",\"1\",\"Testing\",\"Stims/Figures/87-J-10-4.bmp\",\"tapaka\",\"Left\",\"39\",\"1\",\"16\",\"4\",\"P\",\"J\",\"16\"
\"\",\"\",\"approach-retreat\",\"165\",\"2418229\",\"0.0-165.0\",\"\",\"\",\"1-3\",\"4732\",\"40\",\"1\",\"Testing\",\"Stims/Figures/86-C-30-1.bmp\",\"ma:mala\",\"Down\",\"40\",\"1\",\"17\",\"4\",\"S\",\"J\",\"17\"
\"\",\"\",\"approach-retreat\",\"166\",\"2423884\",\"0.0-166.0\",\"\",\"\",\"1-3\",\"4130\",\"38\",\"1\",\"Testing\",\"Stims/Figures/86-J-0-1.bmp\",\"papa:ka\",\"Down\",\"38\",\"1\",\"18\",\"4\",\"P\",\"J\",\"18\"
\"\",\"\",\"approach-retreat\",\"167\",\"2429889\",\"0.0-167.0\",\"\",\"\",\"1-3\",\"4472\",\"37\",\"1\",\"Testing\",\"Stims/Figures/84-J-0-2.bmp\",\"pakaka\",\"Right\",\"37\",\"1\",\"19\",\"4\",\"P\",\"J\",\"19\"
\"\",\"\",\"approach-retreat\",\"168\",\"2435636\",\"0.0-168.0\",\"\",\"\",\"1-3\",\"4233\",\"40\",\"1\",\"Testing\",\"Stims/Figures/94-J-0-2.bmp\",\"ta:ka:ta\",\"Up\",\"40\",\"1\",\"20\",\"4\",\"P\",\"J\",\"20\"
\"\",\"\",\"approach-retreat\",\"169\",\"2441579\",\"0.0-169.0\",\"\",\"\",\"1-3\",\"4419\",\"39\",\"1\",\"Testing\",\"Stims/Figures/144-J-10-3.bmp\",\"pa:ka:ka\",\"Left\",\"39\",\"1\",\"21\",\"4\",\"P\",\"J\",\"21\"
\"\",\"\",\"approach-retreat\",\"170\",\"2447415\",\"0.0-170.0\",\"\",\"\",\"1-3\",\"4323\",\"37\",\"1\",\"Testing\",\"Stims/Figures/27-J-0-1.bmp\",\"ta:pata\",\"Right\",\"37\",\"1\",\"22\",\"4\",\"P\",\"J\",\"22\"
\"\",\"\",\"approach-retreat\",\"171\",\"2453056\",\"0.0-171.0\",\"\",\"\",\"1-3\",\"4129\",\"37\",\"1\",\"Testing\",\"Stims/Figures/118-C-20-2.bmp\",\"nalala\",\"Left\",\"37\",\"1\",\"23\",\"4\",\"S\",\"J\",\"23\"
\"\",\"\",\"approach-retreat\",\"172\",\"2458759\",\"0.0-172.0\",\"\",\"\",\"1-3\",\"4180\",\"40\",\"1\",\"Testing\",\"Stims/Figures/94-C-20-2.bmp\",\"ma:ma:na\",\"Down\",\"40\",\"1\",\"24\",\"4\",\"S\",\"J\",\"24\"
\"\",\"\",\"approach-retreat\",\"173\",\"2464493\",\"0.0-173.0\",\"\",\"\",\"1-3\",\"4212\",\"38\",\"1\",\"Testing\",\"Stims/Figures/27-J-0-1.bmp\",\"ta:pata\",\"Down\",\"38\",\"2\",\"1\",\"4\",\"P\",\"J\",\"25\"
\"\",\"\",\"approach-retreat\",\"174\",\"2470203\",\"0.0-174.0\",\"\",\"\",\"1-3\",\"4188\",\"38\",\"1\",\"Testing\",\"Stims/Figures/27-C-30-1.bmp\",\"nalana\",\"Up\",\"38\",\"2\",\"2\",\"4\",\"S\",\"J\",\"26\"
\"\",\"\",\"approach-retreat\",\"175\",\"2476859\",\"0.0-175.0\",\"\",\"\",\"1-3\",\"5137\",\"40\",\"1\",\"Testing\",\"Stims/Figures/87-J-10-4.bmp\",\"tapaka\",\"Up\",\"40\",\"2\",\"3\",\"4\",\"P\",\"J\",\"27\"
\"\",\"\",\"approach-retreat\",\"176\",\"2482664\",\"0.0-176.0\",\"\",\"\",\"1-3\",\"4283\",\"38\",\"1\",\"Testing\",\"Stims/Figures/118-J-0-2.bmp\",\"tapa:ta\",\"Down\",\"38\",\"2\",\"4\",\"4\",\"P\",\"J\",\"28\"
\"\",\"\",\"approach-retreat\",\"177\",\"2488291\",\"0.0-177.0\",\"\",\"\",\"1-3\",\"4110\",\"39\",\"1\",\"Testing\",\"Stims/Figures/19-J-10-4.bmp\",\"tapata\",\"Left\",\"39\",\"2\",\"5\",\"4\",\"P\",\"J\",\"29\"
\"\",\"\",\"approach-retreat\",\"178\",\"2494166\",\"0.0-178.0\",\"\",\"\",\"1-3\",\"4347\",\"40\",\"1\",\"Testing\",\"Stims/Figures/144-C-30-3.bmp\",\"nala:la\",\"Down\",\"40\",\"2\",\"6\",\"4\",\"S\",\"J\",\"30\"
\"\",\"\",\"approach-retreat\",\"179\",\"2499973\",\"0.0-179.0\",\"\",\"\",\"1-3\",\"4287\",\"38\",\"1\",\"Testing\",\"Stims/Figures/84-J-0-2.bmp\",\"pakaka\",\"Down\",\"38\",\"2\",\"7\",\"4\",\"P\",\"J\",\"31\"
\"\",\"\",\"approach-retreat\",\"180\",\"2505771\",\"0.0-180.0\",\"\",\"\",\"1-3\",\"4289\",\"37\",\"1\",\"Testing\",\"Stims/Figures/84-C-20-2.bmp\",\"mamana\",\"Left\",\"37\",\"2\",\"8\",\"4\",\"S\",\"J\",\"32\"
\"\",\"\",\"approach-retreat\",\"181\",\"2511902\",\"0.0-181.0\",\"\",\"\",\"1-3\",\"4609\",\"39\",\"1\",\"Testing\",\"Stims/Figures/71-J-0-1.bmp\",\"tapa:ka\",\"Left\",\"39\",\"2\",\"9\",\"4\",\"P\",\"J\",\"33\"
\"\",\"\",\"approach-retreat\",\"182\",\"2517465\",\"0.0-182.0\",\"\",\"\",\"1-3\",\"4053\",\"37\",\"1\",\"Testing\",\"Stims/Figures/118-C-20-2.bmp\",\"nalala\",\"Left\",\"37\",\"2\",\"10\",\"4\",\"S\",\"J\",\"34\"
\"\",\"\",\"approach-retreat\",\"183\",\"2523286\",\"0.0-183.0\",\"\",\"\",\"1-3\",\"4276\",\"40\",\"1\",\"Testing\",\"Stims/Figures/144-J-10-3.bmp\",\"pa:ka:ka\",\"Up\",\"40\",\"2\",\"11\",\"4\",\"P\",\"J\",\"35\"
\"\",\"\",\"approach-retreat\",\"184\",\"2529035\",\"0.0-184.0\",\"\",\"\",\"1-3\",\"4239\",\"39\",\"1\",\"Testing\",\"Stims/Figures/71-C-30-1.bmp\",\"na:mana\",\"Right\",\"39\",\"2\",\"12\",\"4\",\"S\",\"J\",\"36\"
\"\",\"\",\"approach-retreat\",\"185\",\"2534849\",\"0.0-185.0\",\"\",\"\",\"1-3\",\"4290\",\"39\",\"1\",\"Testing\",\"Stims/Figures/94-C-20-2.bmp\",\"ma:ma:na\",\"Right\",\"39\",\"2\",\"13\",\"4\",\"S\",\"J\",\"37\"
\"\",\"\",\"approach-retreat\",\"186\",\"2540662\",\"0.0-186.0\",\"\",\"\",\"1-3\",\"4297\",\"38\",\"1\",\"Testing\",\"Stims/Figures/128-C-30-3.bmp\",\"na:la:la\",\"Up\",\"38\",\"2\",\"14\",\"4\",\"S\",\"J\",\"38\"
\"\",\"\",\"approach-retreat\",\"187\",\"2546340\",\"0.0-187.0\",\"\",\"\",\"1-3\",\"4161\",\"37\",\"1\",\"Testing\",\"Stims/Figures/102-J-10-4.bmp\",\"ta:kata\",\"Right\",\"37\",\"2\",\"15\",\"4\",\"P\",\"J\",\"39\"
\"\",\"\",\"approach-retreat\",\"188\",\"2551882\",\"0.0-188.0\",\"\",\"\",\"1-3\",\"4022\",\"40\",\"1\",\"Testing\",\"Stims/Figures/87-C-20-4.bmp\",\"nala:na\",\"Down\",\"40\",\"2\",\"16\",\"4\",\"S\",\"J\",\"40\"
\"\",\"\",\"approach-retreat\",\"189\",\"2557633\",\"0.0-189.0\",\"\",\"\",\"1-3\",\"4236\",\"40\",\"1\",\"Testing\",\"Stims/Figures/128-J-10-3.bmp\",\"pa:kaka\",\"Up\",\"40\",\"2\",\"17\",\"4\",\"P\",\"J\",\"41\"
\"\",\"\",\"approach-retreat\",\"190\",\"2565542\",\"0.0-190.0\",\"\",\"\",\"1-3\",\"6392\",\"40\",\"0\",\"Testing\",\"Stims/Figures/102-C-20-4.bmp\",\"malana\",\"Up\",\"38\",\"2\",\"18\",\"4\",\"S\",\"J\",\"42\"
\"\",\"\",\"approach-retreat\",\"191\",\"2571384\",\"0.0-191.0\",\"\",\"\",\"1-3\",\"4329\",\"37\",\"0\",\"Testing\",\"Stims/Figures/19-C-20-4.bmp\",\"ma:lala\",\"Right\",\"39\",\"2\",\"19\",\"4\",\"S\",\"J\",\"43\"
\"\",\"\",\"approach-retreat\",\"192\",\"2577106\",\"0.0-192.0\",\"\",\"\",\"1-3\",\"4196\",\"39\",\"1\",\"Testing\",\"Stims/Figures/86-C-30-1.bmp\",\"ma:mala\",\"Right\",\"39\",\"2\",\"20\",\"4\",\"S\",\"J\",\"44\"
\"\",\"\",\"approach-retreat\",\"193\",\"2585773\",\"0.0-193.0\",\"\",\"\",\"1-3\",\"7148\",\"39\",\"1\",\"Testing\",\"Stims/Figures/111-J-10-3.bmp\",\"pa:ka:ta\",\"Left\",\"39\",\"2\",\"21\",\"4\",\"P\",\"J\",\"45\"
\"\",\"\",\"approach-retreat\",\"194\",\"2591791\",\"0.0-194.0\",\"\",\"\",\"1-3\",\"4505\",\"40\",\"1\",\"Testing\",\"Stims/Figures/111-C-30-3.bmp\",\"mama:na\",\"Down\",\"40\",\"2\",\"22\",\"4\",\"S\",\"J\",\"46\"
\"\",\"\",\"approach-retreat\",\"195\",\"2597446\",\"0.0-195.0\",\"\",\"\",\"1-3\",\"4133\",\"37\",\"1\",\"Testing\",\"Stims/Figures/86-J-0-1.bmp\",\"papa:ka\",\"Right\",\"37\",\"2\",\"23\",\"4\",\"P\",\"J\",\"47\"
\"\",\"\",\"approach-retreat\",\"196\",\"2603203\",\"0.0-196.0\",\"\",\"\",\"1-3\",\"4234\",\"39\",\"1\",\"Testing\",\"Stims/Figures/94-J-0-2.bmp\",\"ta:ka:ta\",\"Left\",\"39\",\"2\",\"24\",\"4\",\"P\",\"J\",\"48\"
\"\",\"\",\"approach-retreat\",\"197\",\"2609223\",\"0.0-197.0\",\"\",\"\",\"1-3\",\"4503\",\"38\",\"1\",\"Testing\",\"Stims/Figures/144-C-30-3.bmp\",\"nala:la\",\"Up\",\"38\",\"3\",\"1\",\"4\",\"S\",\"J\",\"49\"
\"\",\"\",\"approach-retreat\",\"198\",\"2614837\",\"0.0-198.0\",\"\",\"\",\"1-3\",\"4084\",\"38\",\"1\",\"Testing\",\"Stims/Figures/118-J-0-2.bmp\",\"tapa:ta\",\"Down\",\"38\",\"3\",\"2\",\"4\",\"P\",\"J\",\"50\"
\"\",\"\",\"approach-retreat\",\"199\",\"2620785\",\"0.0-199.0\",\"\",\"\",\"1-3\",\"4426\",\"38\",\"1\",\"Testing\",\"Stims/Figures/111-J-10-3.bmp\",\"pa:ka:ta\",\"Down\",\"38\",\"3\",\"3\",\"4\",\"P\",\"J\",\"51\"
\"\",\"\",\"approach-retreat\",\"200\",\"2626551\",\"0.0-200.0\",\"\",\"\",\"1-3\",\"4258\",\"37\",\"1\",\"Testing\",\"Stims/Figures/27-J-0-1.bmp\",\"ta:pata\",\"Right\",\"37\",\"3\",\"4\",\"4\",\"P\",\"J\",\"52\"
\"\",\"\",\"approach-retreat\",\"201\",\"2632379\",\"0.0-201.0\",\"\",\"\",\"1-3\",\"4316\",\"37\",\"0\",\"Testing\",\"Stims/Figures/102-C-20-4.bmp\",\"malana\",\"Right\",\"39\",\"3\",\"5\",\"4\",\"S\",\"J\",\"53\"
\"\",\"\",\"approach-retreat\",\"202\",\"2638059\",\"0.0-202.0\",\"\",\"\",\"1-3\",\"4155\",\"39\",\"1\",\"Testing\",\"Stims/Figures/71-J-0-1.bmp\",\"tapa:ka\",\"Left\",\"39\",\"3\",\"6\",\"4\",\"P\",\"J\",\"54\"
\"\",\"\",\"approach-retreat\",\"203\",\"2643848\",\"0.0-203.0\",\"\",\"\",\"1-3\",\"4277\",\"37\",\"1\",\"Testing\",\"Stims/Figures/27-C-30-1.bmp\",\"nalana\",\"Left\",\"37\",\"3\",\"7\",\"4\",\"S\",\"J\",\"55\"
\"\",\"\",\"approach-retreat\",\"204\",\"2649598\",\"0.0-204.0\",\"\",\"\",\"1-3\",\"4237\",\"39\",\"1\",\"Testing\",\"Stims/Figures/19-C-20-4.bmp\",\"ma:lala\",\"Right\",\"39\",\"3\",\"8\",\"4\",\"S\",\"J\",\"56\"
\"\",\"\",\"approach-retreat\",\"205\",\"2657754\",\"0.0-205.0\",\"\",\"\",\"1-3\",\"6647\",\"39\",\"1\",\"Testing\",\"Stims/Figures/87-J-10-4.bmp\",\"tapaka\",\"Left\",\"39\",\"3\",\"9\",\"4\",\"P\",\"J\",\"57\"
\"\",\"\",\"approach-retreat\",\"206\",\"2663332\",\"0.0-206.0\",\"\",\"\",\"1-3\",\"4063\",\"37\",\"1\",\"Testing\",\"Stims/Figures/128-C-30-3.bmp\",\"na:la:la\",\"Left\",\"37\",\"3\",\"10\",\"4\",\"S\",\"J\",\"58\"
\"\",\"\",\"approach-retreat\",\"207\",\"2669089\",\"0.0-207.0\",\"\",\"\",\"1-3\",\"4247\",\"37\",\"1\",\"Testing\",\"Stims/Figures/86-J-0-1.bmp\",\"papa:ka\",\"Right\",\"37\",\"3\",\"11\",\"4\",\"P\",\"J\",\"59\"
\"\",\"\",\"approach-retreat\",\"208\",\"2674801\",\"0.0-208.0\",\"\",\"\",\"1-3\",\"4192\",\"37\",\"1\",\"Testing\",\"Stims/Figures/144-J-10-3.bmp\",\"pa:ka:ka\",\"Right\",\"37\",\"3\",\"12\",\"4\",\"P\",\"J\",\"60\"
\"\",\"\",\"approach-retreat\",\"209\",\"2680797\",\"0.0-209.0\",\"\",\"\",\"1-3\",\"4472\",\"37\",\"1\",\"Testing\",\"Stims/Figures/118-C-20-2.bmp\",\"nalala\",\"Left\",\"37\",\"3\",\"13\",\"4\",\"S\",\"J\",\"61\"
\"\",\"\",\"approach-retreat\",\"210\",\"2686616\",\"0.0-210.0\",\"\",\"\",\"1-3\",\"4298\",\"37\",\"1\",\"Testing\",\"Stims/Figures/94-C-20-2.bmp\",\"ma:ma:na\",\"Left\",\"37\",\"3\",\"14\",\"4\",\"S\",\"J\",\"62\"
\"\",\"\",\"approach-retreat\",\"211\",\"2692624\",\"0.0-211.0\",\"\",\"\",\"1-3\",\"4485\",\"40\",\"1\",\"Testing\",\"Stims/Figures/84-J-0-2.bmp\",\"pakaka\",\"Up\",\"40\",\"3\",\"15\",\"4\",\"P\",\"J\",\"63\"
\"\",\"\",\"approach-retreat\",\"212\",\"2698313\",\"0.0-212.0\",\"\",\"\",\"1-3\",\"4134\",\"38\",\"0\",\"Testing\",\"Stims/Figures/111-C-30-3.bmp\",\"mama:na\",\"Down\",\"40\",\"3\",\"16\",\"4\",\"S\",\"J\",\"64\"
\"\",\"\",\"approach-retreat\",\"213\",\"2706203\",\"0.0-213.0\",\"\",\"\",\"1-3\",\"6378\",\"37\",\"1\",\"Testing\",\"Stims/Figures/19-J-10-4.bmp\",\"tapata\",\"Right\",\"37\",\"3\",\"17\",\"4\",\"P\",\"J\",\"65\"
\"\",\"\",\"approach-retreat\",\"214\",\"2711968\",\"0.0-214.0\",\"\",\"\",\"1-3\",\"4254\",\"40\",\"1\",\"Testing\",\"Stims/Figures/84-C-20-2.bmp\",\"mamana\",\"Down\",\"40\",\"3\",\"18\",\"4\",\"S\",\"J\",\"66\"
\"\",\"\",\"approach-retreat\",\"215\",\"2718038\",\"0.0-215.0\",\"\",\"\",\"1-3\",\"4561\",\"38\",\"1\",\"Testing\",\"Stims/Figures/102-J-10-4.bmp\",\"ta:kata\",\"Down\",\"38\",\"3\",\"19\",\"4\",\"P\",\"J\",\"67\"
\"\",\"\",\"approach-retreat\",\"216\",\"2723784\",\"0.0-216.0\",\"\",\"\",\"1-3\",\"4234\",\"38\",\"1\",\"Testing\",\"Stims/Figures/87-C-20-4.bmp\",\"nala:na\",\"Up\",\"38\",\"3\",\"20\",\"4\",\"S\",\"J\",\"68\"
\"\",\"\",\"approach-retreat\",\"217\",\"2730031\",\"0.0-217.0\",\"\",\"\",\"1-3\",\"4725\",\"40\",\"1\",\"Testing\",\"Stims/Figures/128-J-10-3.bmp\",\"pa:kaka\",\"Up\",\"40\",\"3\",\"21\",\"4\",\"P\",\"J\",\"69\"
\"\",\"\",\"approach-retreat\",\"218\",\"2735787\",\"0.0-218.0\",\"\",\"\",\"1-3\",\"4244\",\"38\",\"1\",\"Testing\",\"Stims/Figures/71-C-30-1.bmp\",\"na:mana\",\"Up\",\"38\",\"3\",\"22\",\"4\",\"S\",\"J\",\"70\"
\"\",\"\",\"approach-retreat\",\"219\",\"2741391\",\"0.0-219.0\",\"\",\"\",\"1-3\",\"4080\",\"38\",\"1\",\"Testing\",\"Stims/Figures/86-C-30-1.bmp\",\"ma:mala\",\"Up\",\"38\",\"3\",\"23\",\"4\",\"S\",\"J\",\"71\"
\"\",\"\",\"approach-retreat\",\"220\",\"2747062\",\"0.0-220.0\",\"\",\"\",\"1-3\",\"4157\",\"38\",\"1\",\"Testing\",\"Stims/Figures/94-J-0-2.bmp\",\"ta:ka:ta\",\"Down\",\"38\",\"3\",\"24\",\"4\",\"P\",\"J\",\"72\"
\"\",\"\",\"approach-retreat\",\"221\",\"2752877\",\"0.0-221.0\",\"\",\"\",\"1-3\",\"4299\",\"40\",\"1\",\"Testing\",\"Stims/Figures/27-J-0-1.bmp\",\"ta:pata\",\"Up\",\"40\",\"4\",\"1\",\"4\",\"P\",\"J\",\"73\"
\"\",\"\",\"approach-retreat\",\"222\",\"2758706\",\"0.0-222.0\",\"\",\"\",\"1-3\",\"4313\",\"39\",\"1\",\"Testing\",\"Stims/Figures/86-J-0-1.bmp\",\"papa:ka\",\"Left\",\"39\",\"4\",\"2\",\"4\",\"P\",\"J\",\"74\"
\"\",\"\",\"approach-retreat\",\"223\",\"2764422\",\"0.0-223.0\",\"\",\"\",\"1-3\",\"4198\",\"39\",\"1\",\"Testing\",\"Stims/Figures/87-C-20-4.bmp\",\"nala:na\",\"Right\",\"39\",\"4\",\"3\",\"4\",\"S\",\"J\",\"75\"
\"\",\"\",\"approach-retreat\",\"224\",\"2770398\",\"0.0-224.0\",\"\",\"\",\"1-3\",\"4461\",\"39\",\"1\",\"Testing\",\"Stims/Figures/84-C-20-2.bmp\",\"mamana\",\"Right\",\"39\",\"4\",\"4\",\"4\",\"S\",\"J\",\"76\"
\"\",\"\",\"approach-retreat\",\"225\",\"2776376\",\"0.0-225.0\",\"\",\"\",\"1-3\",\"4462\",\"39\",\"1\",\"Testing\",\"Stims/Figures/128-C-30-3.bmp\",\"na:la:la\",\"Right\",\"39\",\"4\",\"5\",\"4\",\"S\",\"J\",\"77\"
\"\",\"\",\"approach-retreat\",\"226\",\"2782067\",\"0.0-226.0\",\"\",\"\",\"1-3\",\"4180\",\"37\",\"1\",\"Testing\",\"Stims/Figures/19-C-20-4.bmp\",\"ma:lala\",\"Left\",\"37\",\"4\",\"6\",\"4\",\"S\",\"J\",\"78\"
\"\",\"\",\"approach-retreat\",\"227\",\"2788017\",\"0.0-227.0\",\"\",\"\",\"1-3\",\"4437\",\"40\",\"1\",\"Testing\",\"Stims/Figures/27-C-30-1.bmp\",\"nalana\",\"Down\",\"40\",\"4\",\"7\",\"4\",\"S\",\"J\",\"79\"
\"\",\"\",\"approach-retreat\",\"228\",\"2794063\",\"0.0-228.0\",\"\",\"\",\"1-3\",\"4536\",\"38\",\"1\",\"Testing\",\"Stims/Figures/71-C-30-1.bmp\",\"na:mana\",\"Up\",\"38\",\"4\",\"8\",\"4\",\"S\",\"J\",\"80\"
\"\",\"\",\"approach-retreat\",\"229\",\"2799784\",\"0.0-229.0\",\"\",\"\",\"1-3\",\"4202\",\"38\",\"1\",\"Testing\",\"Stims/Figures/71-J-0-1.bmp\",\"tapa:ka\",\"Down\",\"38\",\"4\",\"9\",\"4\",\"P\",\"J\",\"81\"
\"\",\"\",\"approach-retreat\",\"230\",\"2805531\",\"0.0-230.0\",\"\",\"\",\"1-3\",\"4230\",\"40\",\"1\",\"Testing\",\"Stims/Figures/128-J-10-3.bmp\",\"pa:kaka\",\"Up\",\"40\",\"4\",\"10\",\"4\",\"P\",\"J\",\"82\"
\"\",\"\",\"approach-retreat\",\"231\",\"2811258\",\"0.0-231.0\",\"\",\"\",\"1-3\",\"4216\",\"38\",\"0\",\"Testing\",\"Stims/Figures/102-C-20-4.bmp\",\"malana\",\"Down\",\"40\",\"4\",\"11\",\"4\",\"S\",\"J\",\"83\"
\"\",\"\",\"approach-retreat\",\"232\",\"2817106\",\"0.0-232.0\",\"\",\"\",\"1-3\",\"4334\",\"40\",\"1\",\"Testing\",\"Stims/Figures/144-J-10-3.bmp\",\"pa:ka:ka\",\"Up\",\"40\",\"4\",\"12\",\"4\",\"P\",\"J\",\"84\"
\"\",\"\",\"approach-retreat\",\"233\",\"2822854\",\"0.0-233.0\",\"\",\"\",\"1-3\",\"4227\",\"37\",\"1\",\"Testing\",\"Stims/Figures/102-J-10-4.bmp\",\"ta:kata\",\"Right\",\"37\",\"4\",\"13\",\"4\",\"P\",\"J\",\"85\"
\"\",\"\",\"approach-retreat\",\"234\",\"2828539\",\"0.0-234.0\",\"\",\"\",\"1-3\",\"4166\",\"38\",\"1\",\"Testing\",\"Stims/Figures/19-J-10-4.bmp\",\"tapata\",\"Down\",\"38\",\"4\",\"14\",\"4\",\"P\",\"J\",\"86\"
\"\",\"\",\"approach-retreat\",\"235\",\"2834713\",\"0.0-235.0\",\"\",\"\",\"1-3\",\"4657\",\"39\",\"1\",\"Testing\",\"Stims/Figures/94-J-0-2.bmp\",\"ta:ka:ta\",\"Left\",\"39\",\"4\",\"15\",\"4\",\"P\",\"J\",\"87\"
\"\",\"\",\"approach-retreat\",\"236\",\"2840439\",\"0.0-236.0\",\"\",\"\",\"1-3\",\"4208\",\"37\",\"1\",\"Testing\",\"Stims/Figures/118-C-20-2.bmp\",\"nalala\",\"Left\",\"37\",\"4\",\"16\",\"4\",\"S\",\"J\",\"88\"
\"\",\"\",\"approach-retreat\",\"237\",\"2846337\",\"0.0-237.0\",\"\",\"\",\"1-3\",\"4362\",\"40\",\"1\",\"Testing\",\"Stims/Figures/94-C-20-2.bmp\",\"ma:ma:na\",\"Down\",\"40\",\"4\",\"17\",\"4\",\"S\",\"J\",\"89\"
\"\",\"\",\"approach-retreat\",\"238\",\"2852121\",\"0.0-238.0\",\"\",\"\",\"1-3\",\"4270\",\"39\",\"1\",\"Testing\",\"Stims/Figures/111-J-10-3.bmp\",\"pa:ka:ta\",\"Left\",\"39\",\"4\",\"18\",\"4\",\"P\",\"J\",\"90\"
\"\",\"\",\"approach-retreat\",\"239\",\"2858088\",\"0.0-239.0\",\"\",\"\",\"1-3\",\"4444\",\"38\",\"1\",\"Testing\",\"Stims/Figures/86-C-30-1.bmp\",\"ma:mala\",\"Up\",\"38\",\"4\",\"19\",\"4\",\"S\",\"J\",\"91\"
\"\",\"\",\"approach-retreat\",\"240\",\"2863766\",\"0.0-240.0\",\"\",\"\",\"1-3\",\"4164\",\"37\",\"1\",\"Testing\",\"Stims/Figures/118-J-0-2.bmp\",\"tapa:ta\",\"Right\",\"37\",\"4\",\"20\",\"4\",\"P\",\"J\",\"92\"
\"\",\"\",\"approach-retreat\",\"241\",\"2869448\",\"0.0-241.0\",\"\",\"\",\"1-3\",\"4165\",\"39\",\"1\",\"Testing\",\"Stims/Figures/87-J-10-4.bmp\",\"tapaka\",\"Left\",\"39\",\"4\",\"21\",\"4\",\"P\",\"J\",\"93\"
\"\",\"\",\"approach-retreat\",\"242\",\"2875121\",\"0.0-242.0\",\"\",\"\",\"1-3\",\"4164\",\"40\",\"1\",\"Testing\",\"Stims/Figures/144-C-30-3.bmp\",\"nala:la\",\"Down\",\"40\",\"4\",\"22\",\"4\",\"S\",\"J\",\"94\"
\"\",\"\",\"approach-retreat\",\"243\",\"2881011\",\"0.0-243.0\",\"\",\"\",\"1-3\",\"4371\",\"37\",\"1\",\"Testing\",\"Stims/Figures/84-J-0-2.bmp\",\"pakaka\",\"Right\",\"37\",\"4\",\"23\",\"4\",\"P\",\"J\",\"95\"
\"\",\"\",\"approach-retreat\",\"244\",\"2886744\",\"0.0-244.0\",\"\",\"\",\"1-3\",\"4213\",\"38\",\"1\",\"Testing\",\"Stims/Figures/111-C-30-3.bmp\",\"mama:na\",\"Up\",\"38\",\"4\",\"24\",\"4\",\"S\",\"J\",\"96\"
\"18037\",\"\",\"survey-text\",\"245\",\"2904790\",\"0.0-245.0\",\"\",\"{\"\"Q0\"\":\"\"PS160020\"\"}\",\"\",\"\",\"\",\"\",\"\",\"\",\"\",\"\",\"\",\"\",\"\",\"\",\"\",\"\",\"\"
