"rt","key_press","trial_type","trial_index","time_elapsed","internal_node_id","view_history","responses","Id","Rt","ResKeyCode","ResCorr","TrialType2","Image","Label","Location","CorrectResponse","Block","BlockTrial","Condition","LabelType","Subcondition","trialNum"
"2903","32","text","0","2912","0.0-0.0-0.0","","","","","","","","","","","","","","","","",""
"1609","","instructions","1","4524","0.0-1.0","[{""page_index"":0,""viewing_time"":1607}]","","","","","","","","","","","","","","","",""
"20324","","survey-multi-choice","2","24894","0.0-2.0","","{""Q0"":""Da"",""Q1"":""Da"",""Q2"":""Da"",""Q3"":""Da"",""Q4"":""Da"",""Q5"":""Da""}","","","","","","","","","","","","","","",""
"","","bio","3","33563","0.0-3.0","","{""age"":""21"",""gender"":""f"",""specify"":""""}","","","","","","","","","","","","","","",""
"","","approach-retreat","4","43335","0.0-4.0","","","2-3","8261","39","1","Training","Stims/Figures/19-C-20-4.bmp","za:saha","Right","39","1","1","8","C2","J","1"
"","","approach-retreat","5","49087","0.0-5.0","","","2-3","4232","37","0","Training","Stims/Figures/44-C-30-3.bmp","zahaza","Right","39","1","2","8","C2","J","2"
"","","approach-retreat","6","56331","0.0-6.0","","","2-3","5728","38","1","Training","Stims/Figures/27-J-0-1.bmp","fa:fa:sha","Down","38","1","3","8","C1","J","3"
"","","approach-retreat","7","63364","0.0-7.0","","","2-3","5518","38","0","Training","Stims/Figures/74-C-20-4.bmp","sa:ha:ha","Down","40","1","4","8","C2","J","4"
"","","approach-retreat","8","69300","0.0-8.0","","","2-3","4421","40","0","Training","Stims/Figures/118-C-20-2.bmp","vashava","Up","38","1","5","8","C1","J","5"
"","","approach-retreat","9","75041","0.0-9.0","","","2-3","4225","38","1","Training","Stims/Figures/128-C-30-3.bmp","zasaza","Up","38","1","6","8","C2","J","6"
"","","approach-retreat","10","80795","0.0-10.0","","","2-3","4241","38","0","Training","Stims/Figures/93-J-0-1.bmp","vafa:va","Up","40","1","7","8","C1","J","7"
"","","approach-retreat","11","87144","0.0-11.0","","","2-3","4833","37","1","Training","Stims/Figures/84-C-20-2.bmp","fasha:sha","Left","37","1","8","8","C1","J","8"
"","","approach-retreat","12","93157","0.0-12.0","","","2-3","4495","40","1","Training","Stims/Figures/44-J-10-3.bmp","zasa:za","Up","40","1","9","8","C2","J","9"
"","","approach-retreat","13","99303","0.0-13.0","","","2-3","4632","39","1","Training","Stims/Figures/128-J-10-3.bmp","sa:sa:ha","Left","39","1","10","8","C2","J","10"
"","","approach-retreat","14","105342","0.0-14.0","","","2-3","4525","39","1","Training","Stims/Figures/93-C-30-1.bmp","va:sha:va","Right","39","1","11","8","C1","J","11"
"","","approach-retreat","15","111290","0.0-15.0","","","2-3","4433","38","1","Training","Stims/Figures/19-J-10-4.bmp","za:ha:ha","Down","38","1","12","8","C2","J","12"
"","","approach-retreat","16","118163","0.0-16.0","","","2-3","5360","37","1","Training","Stims/Figures/27-C-30-1.bmp","fafa:sha","Left","37","1","13","8","C1","J","13"
"","","approach-retreat","17","124298","0.0-17.0","","","2-3","4619","40","0","Training","Stims/Figures/118-J-0-2.bmp","fa:shava","Down","38","1","14","8","C1","J","14"
"","","approach-retreat","18","130460","0.0-18.0","","","2-3","4646","37","1","Training","Stims/Figures/74-J-10-4.bmp","sahaza","Right","37","1","15","8","C2","J","15"
"","","approach-retreat","19","136685","0.0-19.0","","","2-3","4709","39","1","Training","Stims/Figures/84-J-0-2.bmp","fa:sha:va","Left","39","1","16","8","C1","J","16"
"","","approach-retreat","20","142369","0.0-20.0","","","2-3","4168","40","1","Training","Stims/Figures/93-J-0-1.bmp","vafa:va","Up","40","2","1","8","C1","J","17"
"","","approach-retreat","21","148237","0.0-21.0","","","2-3","4352","39","1","Training","Stims/Figures/118-J-0-2.bmp","fa:shava","Left","39","2","2","8","C1","J","18"
"","","approach-retreat","22","154185","0.0-22.0","","","2-3","4430","38","1","Training","Stims/Figures/44-C-30-3.bmp","zahaza","Up","38","2","3","8","C2","J","19"
"","","approach-retreat","23","160789","0.0-23.0","","","2-3","5089","37","1","Training","Stims/Figures/118-C-20-2.bmp","vashava","Left","37","2","4","8","C1","J","20"
"","","approach-retreat","24","166418","0.0-24.0","","","2-3","4115","39","0","Training","Stims/Figures/19-C-20-4.bmp","za:saha","Left","37","2","5","8","C2","J","21"
"","","approach-retreat","25","173142","0.0-25.0","","","2-3","5206","40","0","Training","Stims/Figures/84-C-20-2.bmp","fasha:sha","Up","38","2","6","8","C1","J","22"
"","","approach-retreat","26","179258","0.0-26.0","","","2-3","4600","40","1","Training","Stims/Figures/27-C-30-1.bmp","fafa:sha","Down","40","2","7","8","C1","J","23"
"","","approach-retreat","27","185196","0.0-27.0","","","2-3","4424","39","0","Training","Stims/Figures/44-J-10-3.bmp","zasa:za","Right","37","2","8","8","C2","J","24"
"","","approach-retreat","28","191915","0.0-28.0","","","2-3","5203","37","1","Training","Stims/Figures/27-J-0-1.bmp","fa:fa:sha","Right","37","2","9","8","C1","J","25"
"","","approach-retreat","29","198471","0.0-29.0","","","2-3","5044","40","0","Training","Stims/Figures/93-C-30-1.bmp","va:sha:va","Up","38","2","10","8","C1","J","26"
"","","approach-retreat","30","204440","0.0-30.0","","","2-3","4452","40","1","Training","Stims/Figures/128-C-30-3.bmp","zasaza","Down","40","2","11","8","C2","J","27"
"","","approach-retreat","31","210120","0.0-31.0","","","2-3","4165","38","0","Training","Stims/Figures/74-C-20-4.bmp","sa:ha:ha","Down","40","2","12","8","C2","J","28"
"","","approach-retreat","32","216202","0.0-32.0","","","2-3","4568","37","1","Training","Stims/Figures/128-J-10-3.bmp","sa:sa:ha","Right","37","2","13","8","C2","J","29"
"","","approach-retreat","33","222770","0.0-33.0","","","2-3","5052","39","1","Training","Stims/Figures/84-J-0-2.bmp","fa:sha:va","Left","39","2","14","8","C1","J","30"
"","","approach-retreat","34","228372","0.0-34.0","","","2-3","4084","38","1","Training","Stims/Figures/19-J-10-4.bmp","za:ha:ha","Down","38","2","15","8","C2","J","31"
"","","approach-retreat","35","234123","0.0-35.0","","","2-3","4237","39","0","Training","Stims/Figures/74-J-10-4.bmp","sahaza","Right","37","2","16","8","C2","J","32"
"","","approach-retreat","36","240047","0.0-36.0","","","2-3","4408","37","1","Training","Stims/Figures/84-C-20-2.bmp","fasha:sha","Left","37","3","1","8","C1","J","33"
"","","approach-retreat","37","246132","0.0-37.0","","","2-3","4569","38","1","Training","Stims/Figures/128-C-30-3.bmp","zasaza","Up","38","3","2","8","C2","J","34"
"","","approach-retreat","38","251892","0.0-38.0","","","2-3","4245","37","1","Training","Stims/Figures/118-C-20-2.bmp","vashava","Left","37","3","3","8","C1","J","35"
"","","approach-retreat","39","257578","0.0-39.0","","","2-3","4170","38","1","Training","Stims/Figures/93-J-0-1.bmp","vafa:va","Down","38","3","4","8","C1","J","36"
"","","approach-retreat","40","264471","0.0-40.0","","","2-3","5375","37","1","Training","Stims/Figures/19-J-10-4.bmp","za:ha:ha","Right","37","3","5","8","C2","J","37"
"","","approach-retreat","41","270695","0.0-41.0","","","2-3","4711","38","0","Training","Stims/Figures/74-J-10-4.bmp","sahaza","Up","40","3","6","8","C2","J","38"
"","","approach-retreat","42","276712","0.0-42.0","","","2-3","4503","37","0","Training","Stims/Figures/44-C-30-3.bmp","zahaza","Right","39","3","7","8","C2","J","39"
"","","approach-retreat","43","282283","0.0-43.0","","","2-3","4056","39","0","Training","Stims/Figures/44-J-10-3.bmp","zasa:za","Right","37","3","8","8","C2","J","40"
"","","approach-retreat","44","288086","0.0-44.0","","","2-3","4287","37","0","Training","Stims/Figures/118-J-0-2.bmp","fa:shava","Left","39","3","9","8","C1","J","41"
"","","approach-retreat","45","293772","0.0-45.0","","","2-3","4174","40","1","Training","Stims/Figures/27-J-0-1.bmp","fa:fa:sha","Up","40","3","10","8","C1","J","42"
"","","approach-retreat","46","299364","0.0-46.0","","","2-3","4077","38","1","Training","Stims/Figures/128-J-10-3.bmp","sa:sa:ha","Down","38","3","11","8","C2","J","43"
"","","approach-retreat","47","305350","0.0-47.0","","","2-3","4470","40","0","Training","Stims/Figures/93-C-30-1.bmp","va:sha:va","Up","38","3","12","8","C1","J","44"
"","","approach-retreat","48","310805","0.0-48.0","","","2-3","3941","38","0","Training","Stims/Figures/19-C-20-4.bmp","za:saha","Down","40","3","13","8","C2","J","45"
"","","approach-retreat","49","316387","0.0-49.0","","","2-3","4067","39","1","Training","Stims/Figures/84-J-0-2.bmp","fa:sha:va","Left","39","3","14","8","C1","J","46"
"","","approach-retreat","50","321946","0.0-50.0","","","2-3","4042","38","0","Training","Stims/Figures/27-C-30-1.bmp","fafa:sha","Down","40","3","15","8","C1","J","47"
"","","approach-retreat","51","327505","0.0-51.0","","","2-3","4043","37","0","Training","Stims/Figures/74-C-20-4.bmp","sa:ha:ha","Right","39","3","16","8","C2","J","48"
"","","approach-retreat","52","333234","0.0-52.0","","","2-3","4216","40","0","Training","Stims/Figures/27-C-30-1.bmp","fafa:sha","Up","38","4","1","8","C1","J","49"
"","","approach-retreat","53","338902","0.0-53.0","","","2-3","4153","39","1","Training","Stims/Figures/128-J-10-3.bmp","sa:sa:ha","Left","39","4","2","8","C2","J","50"
"","","approach-retreat","54","344874","0.0-54.0","","","2-3","4456","38","0","Training","Stims/Figures/27-J-0-1.bmp","fa:fa:sha","Up","40","4","3","8","C1","J","51"
"","","approach-retreat","55","350564","0.0-55.0","","","2-3","4175","39","0","Training","Stims/Figures/93-C-30-1.bmp","va:sha:va","Left","37","4","4","8","C1","J","52"
"","","approach-retreat","56","356575","0.0-56.0","","","2-3","4496","39","1","Training","Stims/Figures/118-C-20-2.bmp","vashava","Right","39","4","5","8","C1","J","53"
"","","approach-retreat","57","362624","0.0-57.0","","","2-3","4534","40","1","Training","Stims/Figures/84-C-20-2.bmp","fasha:sha","Down","40","4","6","8","C1","J","54"
"","","approach-retreat","58","368679","0.0-58.0","","","2-3","4537","37","0","Training","Stims/Figures/118-J-0-2.bmp","fa:shava","Left","39","4","7","8","C1","J","55"
"","","approach-retreat","59","374491","0.0-59.0","","","2-3","4294","37","1","Training","Stims/Figures/84-J-0-2.bmp","fa:sha:va","Right","37","4","8","8","C1","J","56"
"","","approach-retreat","60","380161","0.0-60.0","","","2-3","4154","37","0","Training","Stims/Figures/74-J-10-4.bmp","sahaza","Left","39","4","9","8","C2","J","57"
"","","approach-retreat","61","385974","0.0-61.0","","","2-3","4296","40","0","Training","Stims/Figures/74-C-20-4.bmp","sa:ha:ha","Up","38","4","10","8","C2","J","58"
"","","approach-retreat","62","392770","0.0-62.0","","","2-3","5282","39","0","Training","Stims/Figures/44-J-10-3.bmp","zasa:za","Right","37","4","11","8","C2","J","59"
"","","approach-retreat","63","398185","0.0-63.0","","","2-3","3899","39","1","Training","Stims/Figures/44-C-30-3.bmp","zahaza","Right","39","4","12","8","C2","J","60"
"","","approach-retreat","64","404431","0.0-64.0","","","2-3","4729","40","0","Training","Stims/Figures/93-J-0-1.bmp","vafa:va","Down","38","4","13","8","C1","J","61"
"","","approach-retreat","65","410295","0.0-65.0","","","2-3","4349","40","0","Training","Stims/Figures/128-C-30-3.bmp","zasaza","Up","38","4","14","8","C2","J","62"
"","","approach-retreat","66","415895","0.0-66.0","","","2-3","4080","38","0","Training","Stims/Figures/19-C-20-4.bmp","za:saha","Down","40","4","15","8","C2","J","63"
"","","approach-retreat","67","421334","0.0-67.0","","","2-3","3922","38","1","Training","Stims/Figures/19-J-10-4.bmp","za:ha:ha","Down","38","4","16","8","C2","J","64"
"","","approach-retreat","68","427185","0.0-68.0","","","2-3","4334","39","0","Training","Stims/Figures/27-J-0-1.bmp","fa:fa:sha","Right","37","5","1","8","C1","J","65"
"","","approach-retreat","69","432831","0.0-69.0","","","2-3","4130","40","0","Training","Stims/Figures/84-C-20-2.bmp","fasha:sha","Up","38","5","2","8","C1","J","66"
"","","approach-retreat","70","438961","0.0-70.0","","","2-3","4615","37","1","Training","Stims/Figures/19-J-10-4.bmp","za:ha:ha","Right","37","5","3","8","C2","J","67"
"","","approach-retreat","71","445665","0.0-71.0","","","2-3","5190","40","0","Training","Stims/Figures/93-C-30-1.bmp","va:sha:va","Up","38","5","4","8","C1","J","68"
"","","approach-retreat","72","451912","0.0-72.0","","","2-3","4732","40","0","Training","Stims/Figures/128-C-30-3.bmp","zasaza","Up","38","5","5","8","C2","J","69"
"","","approach-retreat","73","458553","0.0-73.0","","","2-3","5126","38","1","Training","Stims/Figures/93-J-0-1.bmp","vafa:va","Down","38","5","6","8","C1","J","70"
"","","approach-retreat","74","464684","0.0-74.0","","","2-3","4617","39","0","Training","Stims/Figures/44-C-30-3.bmp","zahaza","Left","37","5","7","8","C2","J","71"
"","","approach-retreat","75","470469","0.0-75.0","","","2-3","4268","40","0","Training","Stims/Figures/128-J-10-3.bmp","sa:sa:ha","Down","38","5","8","8","C2","J","72"
"","","approach-retreat","76","476368","0.0-76.0","","","2-3","4383","38","1","Training","Stims/Figures/74-J-10-4.bmp","sahaza","Down","38","5","9","8","C2","J","73"
"","","approach-retreat","77","483134","0.0-77.0","","","2-3","5249","39","1","Training","Stims/Figures/84-J-0-2.bmp","fa:sha:va","Left","39","5","10","8","C1","J","74"
"","","approach-retreat","78","488636","0.0-78.0","","","2-3","3988","39","1","Training","Stims/Figures/118-J-0-2.bmp","fa:shava","Left","39","5","11","8","C1","J","75"
"","","approach-retreat","79","494375","0.0-79.0","","","2-3","4224","39","1","Training","Stims/Figures/74-C-20-4.bmp","sa:ha:ha","Right","39","5","12","8","C2","J","76"
"","","approach-retreat","80","500155","0.0-80.0","","","2-3","4263","37","1","Training","Stims/Figures/118-C-20-2.bmp","vashava","Left","37","5","13","8","C1","J","77"
"","","approach-retreat","81","505755","0.0-81.0","","","2-3","4084","40","1","Training","Stims/Figures/27-C-30-1.bmp","fafa:sha","Down","40","5","14","8","C1","J","78"
"","","approach-retreat","82","511475","0.0-82.0","","","2-3","4203","40","0","Training","Stims/Figures/19-C-20-4.bmp","za:saha","Up","38","5","15","8","C2","J","79"
"","","approach-retreat","83","517225","0.0-83.0","","","2-3","4234","37","1","Training","Stims/Figures/44-J-10-3.bmp","zasa:za","Right","37","5","16","8","C2","J","80"
"","","approach-retreat","84","522954","0.0-84.0","","","2-3","4214","40","0","Training","Stims/Figures/74-C-20-4.bmp","sa:ha:ha","Up","38","6","1","8","C2","J","81"
"","","approach-retreat","85","528604","0.0-85.0","","","2-3","4136","37","1","Training","Stims/Figures/27-J-0-1.bmp","fa:fa:sha","Right","37","6","2","8","C1","J","82"
"","","approach-retreat","86","534493","0.0-86.0","","","2-3","4372","40","0","Training","Stims/Figures/19-C-20-4.bmp","za:saha","Up","38","6","3","8","C2","J","83"
"","","approach-retreat","87","540352","0.0-87.0","","","2-3","4347","39","1","Training","Stims/Figures/84-J-0-2.bmp","fa:sha:va","Left","39","6","4","8","C1","J","84"
"","","approach-retreat","88","546133","0.0-88.0","","","2-3","4264","40","0","Training","Stims/Figures/44-J-10-3.bmp","zasa:za","Down","38","6","5","8","C2","J","85"
"","","approach-retreat","89","553149","0.0-89.0","","","2-3","5499","40","0","Training","Stims/Figures/27-C-30-1.bmp","fafa:sha","Up","38","6","6","8","C1","J","86"
"","","approach-retreat","90","559283","0.0-90.0","","","2-3","4617","40","0","Training","Stims/Figures/118-J-0-2.bmp","fa:shava","Down","38","6","7","8","C1","J","87"
"","","approach-retreat","91","565743","0.0-91.0","","","2-3","4944","38","0","Training","Stims/Figures/84-C-20-2.bmp","fasha:sha","Down","40","6","8","8","C1","J","88"
"","","approach-retreat","92","571177","0.0-92.0","","","2-3","3919","39","1","Training","Stims/Figures/128-C-30-3.bmp","zasaza","Right","39","6","9","8","C2","J","89"
"","","approach-retreat","93","576982","0.0-93.0","","","2-3","4290","38","1","Training","Stims/Figures/118-C-20-2.bmp","vashava","Up","38","6","10","8","C1","J","90"
"","","approach-retreat","94","582507","0.0-94.0","","","2-3","4012","39","1","Training","Stims/Figures/93-J-0-1.bmp","vafa:va","Left","39","6","11","8","C1","J","91"
"","","approach-retreat","95","589134","0.0-95.0","","","2-3","5113","39","0","Training","Stims/Figures/19-J-10-4.bmp","za:ha:ha","Right","37","6","12","8","C2","J","92"
"","","approach-retreat","96","594665","0.0-96.0","","","2-3","4016","39","0","Training","Stims/Figures/74-J-10-4.bmp","sahaza","Right","37","6","13","8","C2","J","93"
"","","approach-retreat","97","600619","0.0-97.0","","","2-3","4437","40","1","Training","Stims/Figures/93-C-30-1.bmp","va:sha:va","Down","40","6","14","8","C1","J","94"
"","","approach-retreat","98","606430","0.0-98.0","","","2-3","4298","37","1","Training","Stims/Figures/44-C-30-3.bmp","zahaza","Left","37","6","15","8","C2","J","95"
"","","approach-retreat","99","612059","0.0-99.0","","","2-3","4112","39","1","Training","Stims/Figures/128-J-10-3.bmp","sa:sa:ha","Left","39","6","16","8","C2","J","96"
"","","approach-retreat","100","618225","0.0-100.0","","","2-3","4651","37","1","Training","Stims/Figures/19-J-10-4.bmp","za:ha:ha","Right","37","7","1","8","C2","J","97"
"","","approach-retreat","101","623903","0.0-101.0","","","2-3","4161","40","1","Training","Stims/Figures/44-J-10-3.bmp","zasa:za","Up","40","7","2","8","C2","J","98"
"","","approach-retreat","102","629480","0.0-102.0","","","2-3","4063","40","0","Training","Stims/Figures/74-C-20-4.bmp","sa:ha:ha","Up","38","7","3","8","C2","J","99"
"","","approach-retreat","103","635266","0.0-103.0","","","2-3","4270","39","0","Training","Stims/Figures/27-J-0-1.bmp","fa:fa:sha","Right","37","7","4","8","C1","J","100"
"","","approach-retreat","104","640832","0.0-104.0","","","2-3","4058","38","1","Training","Stims/Figures/74-J-10-4.bmp","sahaza","Down","38","7","5","8","C2","J","101"
"","","approach-retreat","105","646813","0.0-105.0","","","2-3","4466","40","1","Training","Stims/Figures/84-J-0-2.bmp","fa:sha:va","Up","40","7","6","8","C1","J","102"
"","","approach-retreat","106","653145","0.0-106.0","","","2-3","4816","40","1","Training","Stims/Figures/44-C-30-3.bmp","zahaza","Down","40","7","7","8","C2","J","103"
"","","approach-retreat","107","659535","0.0-107.0","","","2-3","4875","40","1","Training","Stims/Figures/128-C-30-3.bmp","zasaza","Down","40","7","8","8","C2","J","104"
"","","approach-retreat","108","665514","0.0-108.0","","","2-3","4463","37","1","Training","Stims/Figures/118-C-20-2.bmp","vashava","Left","37","7","9","8","C1","J","105"
"","","approach-retreat","109","670987","0.0-109.0","","","2-3","3956","39","0","Training","Stims/Figures/93-C-30-1.bmp","va:sha:va","Left","37","7","10","8","C1","J","106"
"","","approach-retreat","110","677199","0.0-110.0","","","2-3","4697","38","0","Training","Stims/Figures/93-J-0-1.bmp","vafa:va","Up","40","7","11","8","C1","J","107"
"","","approach-retreat","111","682869","0.0-111.0","","","2-3","4155","39","0","Training","Stims/Figures/27-C-30-1.bmp","fafa:sha","Left","37","7","12","8","C1","J","108"
"","","approach-retreat","112","688396","0.0-112.0","","","2-3","4013","37","1","Training","Stims/Figures/128-J-10-3.bmp","sa:sa:ha","Right","37","7","13","8","C2","J","109"
"","","approach-retreat","113","694475","0.0-113.0","","","2-3","4565","40","1","Training","Stims/Figures/84-C-20-2.bmp","fasha:sha","Down","40","7","14","8","C1","J","110"
"","","approach-retreat","114","700060","0.0-114.0","","","2-3","4070","37","0","Training","Stims/Figures/19-C-20-4.bmp","za:saha","Right","39","7","15","8","C2","J","111"
"","","approach-retreat","115","705728","0.0-115.0","","","2-3","4155","39","1","Training","Stims/Figures/118-J-0-2.bmp","fa:shava","Left","39","7","16","8","C1","J","112"
"","","approach-retreat","116","711652","0.0-116.0","","","2-3","4410","39","0","Training","Stims/Figures/44-C-30-3.bmp","zahaza","Left","37","8","1","8","C2","J","113"
"","","approach-retreat","117","717171","0.0-117.0","","","2-3","4003","37","0","Training","Stims/Figures/128-C-30-3.bmp","zasaza","Right","39","8","2","8","C2","J","114"
"","","approach-retreat","118","722794","0.0-118.0","","","2-3","4108","40","1","Training","Stims/Figures/27-C-30-1.bmp","fafa:sha","Down","40","8","3","8","C1","J","115"
"","","approach-retreat","119","728479","0.0-119.0","","","2-3","4171","38","1","Training","Stims/Figures/44-J-10-3.bmp","zasa:za","Down","38","8","4","8","C2","J","116"
"","","approach-retreat","120","734159","0.0-120.0","","","2-3","4166","39","0","Training","Stims/Figures/19-J-10-4.bmp","za:ha:ha","Right","37","8","5","8","C2","J","117"
"","","approach-retreat","121","740213","0.0-121.0","","","2-3","4538","37","1","Training","Stims/Figures/74-C-20-4.bmp","sa:ha:ha","Left","37","8","6","8","C2","J","118"
"","","approach-retreat","122","745769","0.0-122.0","","","2-3","4042","37","1","Training","Stims/Figures/118-C-20-2.bmp","vashava","Left","37","8","7","8","C1","J","119"
"","","approach-retreat","123","751865","0.0-123.0","","","2-3","4581","39","1","Training","Stims/Figures/84-C-20-2.bmp","fasha:sha","Right","39","8","8","8","C1","J","120"
"","","approach-retreat","124","757563","0.0-124.0","","","2-3","4185","39","1","Training","Stims/Figures/93-J-0-1.bmp","vafa:va","Left","39","8","9","8","C1","J","121"
"","","approach-retreat","125","763852","0.0-125.0","","","2-3","4775","37","1","Training","Stims/Figures/84-J-0-2.bmp","fa:sha:va","Right","37","8","10","8","C1","J","122"
"","","approach-retreat","126","769534","0.0-126.0","","","2-3","4168","38","1","Training","Stims/Figures/128-J-10-3.bmp","sa:sa:ha","Down","38","8","11","8","C2","J","123"
"","","approach-retreat","127","775264","0.0-127.0","","","2-3","4214","38","1","Training","Stims/Figures/27-J-0-1.bmp","fa:fa:sha","Down","38","8","12","8","C1","J","124"
"","","approach-retreat","128","780998","0.0-128.0","","","2-3","4217","40","0","Training","Stims/Figures/19-C-20-4.bmp","za:saha","Up","38","8","13","8","C2","J","125"
"","","approach-retreat","129","786768","0.0-129.0","","","2-3","4256","40","1","Training","Stims/Figures/74-J-10-4.bmp","sahaza","Up","40","8","14","8","C2","J","126"
"","","approach-retreat","130","792575","0.0-130.0","","","2-3","4286","40","0","Training","Stims/Figures/93-C-30-1.bmp","va:sha:va","Up","38","8","15","8","C1","J","127"
"","","approach-retreat","131","798745","0.0-131.0","","","2-3","4655","40","1","Training","Stims/Figures/118-J-0-2.bmp","fa:shava","Up","40","8","16","8","C1","J","128"
"","","approach-retreat","132","804653","0.0-132.0","","","2-3","4395","38","0","Training","Stims/Figures/84-C-20-2.bmp","fasha:sha","Down","40","9","1","8","C1","J","129"
"","","approach-retreat","133","810270","0.0-133.0","","","2-3","4101","38","1","Training","Stims/Figures/118-J-0-2.bmp","fa:shava","Down","38","9","2","8","C1","J","130"
"","","approach-retreat","134","815921","0.0-134.0","","","2-3","4138","37","0","Training","Stims/Figures/74-C-20-4.bmp","sa:ha:ha","Right","39","9","3","8","C2","J","131"
"","","approach-retreat","135","821329","0.0-135.0","","","2-3","3890","40","1","Training","Stims/Figures/19-C-20-4.bmp","za:saha","Down","40","9","4","8","C2","J","132"
"","","approach-retreat","136","826972","0.0-136.0","","","2-3","4127","38","0","Training","Stims/Figures/128-J-10-3.bmp","sa:sa:ha","Up","40","9","5","8","C2","J","133"
"","","approach-retreat","137","832449","0.0-137.0","","","2-3","3964","37","1","Training","Stims/Figures/44-J-10-3.bmp","zasa:za","Right","37","9","6","8","C2","J","134"
"","","approach-retreat","138","837783","0.0-138.0","","","2-3","3817","37","0","Training","Stims/Figures/44-C-30-3.bmp","zahaza","Right","39","9","7","8","C2","J","135"
"","","approach-retreat","139","843264","0.0-139.0","","","2-3","3965","37","1","Training","Stims/Figures/27-J-0-1.bmp","fa:fa:sha","Right","37","9","8","8","C1","J","136"
"","","approach-retreat","140","848765","0.0-140.0","","","2-3","3987","39","1","Training","Stims/Figures/93-J-0-1.bmp","vafa:va","Left","39","9","9","8","C1","J","137"
"","","approach-retreat","141","854374","0.0-141.0","","","2-3","4093","40","0","Training","Stims/Figures/27-C-30-1.bmp","fafa:sha","Up","38","9","10","8","C1","J","138"
"","","approach-retreat","142","859893","0.0-142.0","","","2-3","3999","39","0","Training","Stims/Figures/118-C-20-2.bmp","vashava","Left","37","9","11","8","C1","J","139"
"","","approach-retreat","143","865571","0.0-143.0","","","2-3","4163","38","0","Training","Stims/Figures/19-J-10-4.bmp","za:ha:ha","Up","40","9","12","8","C2","J","140"
"","","approach-retreat","144","872287","0.0-144.0","","","2-3","5196","39","0","Training","Stims/Figures/93-C-30-1.bmp","va:sha:va","Left","37","9","13","8","C1","J","141"
"","","approach-retreat","145","878014","0.0-145.0","","","2-3","4211","38","1","Training","Stims/Figures/84-J-0-2.bmp","fa:sha:va","Down","38","9","14","8","C1","J","142"
"","","approach-retreat","146","884465","0.0-146.0","","","2-3","4933","38","1","Training","Stims/Figures/128-C-30-3.bmp","zasaza","Up","38","9","15","8","C2","J","143"
"","","approach-retreat","147","890675","0.0-147.0","","","2-3","4696","37","0","Training","Stims/Figures/74-J-10-4.bmp","sahaza","Left","39","9","16","8","C2","J","144"
"21011","","instructions","148","911686","0.0-148.0","[{""page_index"":0,""viewing_time"":21011}]","","","","","","","","","","","","","","","",""
"","","approach-retreat","149","920206","0.0-149.0","","","2-3","7006","38","0","Testing","Stims/Figures/139-J-0-2.bmp","va:fa:va","Up","40","1","1","8","C1","J","1"
"","","approach-retreat","150","928720","0.0-150.0","","","2-3","7001","38","0","Testing","Stims/Figures/118-C-20-2.bmp","vashava","Down","40","1","2","8","C1","J","2"
"","","approach-retreat","151","937071","0.0-151.0","","","2-3","6836","40","0","Testing","Stims/Figures/44-C-30-3.bmp","zahaza","Up","38","1","3","8","C2","J","3"
"","","approach-retreat","152","947805","0.0-152.0","","","2-3","9221","39","0","Testing","Stims/Figures/93-J-0-1.bmp","vafa:va","Right","37","1","4","8","C1","J","4"
"","","approach-retreat","153","954131","0.0-153.0","","","2-3","4813","37","0","Testing","Stims/Figures/139-C-20-2.bmp","vasha:va","Right","39","1","5","8","C1","J","5"
"","","approach-retreat","154","960411","0.0-154.0","","","2-3","4768","38","1","Testing","Stims/Figures/84-C-20-2.bmp","fasha:sha","Up","38","1","6","8","C1","J","6"
"","","approach-retreat","155","970235","0.0-155.0","","","2-3","8311","37","1","Testing","Stims/Figures/128-J-10-3.bmp","sa:sa:ha","Right","37","1","7","8","C2","J","7"
"","","approach-retreat","156","977059","0.0-156.0","","","2-3","5310","40","1","Testing","Stims/Figures/102-C-20-4.bmp","za:sa:za","Down","40","1","8","8","C2","J","8"
"","","approach-retreat","157","982635","0.0-157.0","","","2-3","4064","38","1","Testing","Stims/Figures/118-J-0-2.bmp","fa:shava","Down","38","1","9","8","C1","J","9"
"","","approach-retreat","158","989016","0.0-158.0","","","2-3","4867","37","1","Testing","Stims/Figures/19-C-20-4.bmp","za:saha","Left","37","1","10","8","C2","J","10"
"","","approach-retreat","159","995360","0.0-159.0","","","2-3","4828","39","0","Testing","Stims/Figures/128-C-30-3.bmp","zasaza","Left","37","1","11","8","C2","J","11"
"","","approach-retreat","160","1001423","0.0-160.0","","","2-3","4552","38","1","Testing","Stims/Figures/86-C-30-1.bmp","fa:fa:va","Up","38","1","12","8","C1","J","12"
"","","approach-retreat","161","1008740","0.0-161.0","","","2-3","5804","37","1","Testing","Stims/Figures/27-J-0-1.bmp","fa:fa:sha","Right","37","1","13","8","C1","J","13"
"","","approach-retreat","162","1015010","0.0-162.0","","","2-3","4756","39","1","Testing","Stims/Figures/44-J-10-3.bmp","zasa:za","Left","39","1","14","8","C2","J","14"
"","","approach-retreat","163","1021563","0.0-163.0","","","2-3","5041","38","1","Testing","Stims/Figures/93-C-30-1.bmp","va:sha:va","Up","38","1","15","8","C1","J","15"
"","","approach-retreat","164","1028340","0.0-164.0","","","2-3","5265","38","1","Testing","Stims/Figures/74-J-10-4.bmp","sahaza","Down","38","1","16","8","C2","J","16"
"","","approach-retreat","165","1034113","0.0-165.0","","","2-3","4258","40","1","Testing","Stims/Figures/27-C-30-1.bmp","fafa:sha","Down","40","1","17","8","C1","J","17"
"","","approach-retreat","166","1040088","0.0-166.0","","","2-3","4462","39","0","Testing","Stims/Figures/84-J-0-2.bmp","fa:sha:va","Right","37","1","18","8","C1","J","18"
"","","approach-retreat","167","1046277","0.0-167.0","","","2-3","4668","40","0","Testing","Stims/Figures/19-J-10-4.bmp","za:ha:ha","Down","38","1","19","8","C2","J","19"
"","","approach-retreat","168","1053488","0.0-168.0","","","2-3","5700","37","1","Testing","Stims/Figures/102-J-10-4.bmp","sahaha","Right","37","1","20","8","C2","J","20"
"","","approach-retreat","169","1060141","0.0-169.0","","","2-3","5138","37","1","Testing","Stims/Figures/74-C-20-4.bmp","sa:ha:ha","Left","37","1","21","8","C2","J","21"
"","","approach-retreat","170","1065960","0.0-170.0","","","2-3","4308","37","0","Testing","Stims/Figures/100-J-10-3.bmp","zasa:ha","Left","39","1","22","8","C2","J","22"
"","","approach-retreat","171","1071870","0.0-171.0","","","2-3","4398","37","0","Testing","Stims/Figures/86-J-0-1.bmp","fashasha","Left","39","1","23","8","C1","J","23"
"","","approach-retreat","172","1077695","0.0-172.0","","","2-3","4313","38","1","Testing","Stims/Figures/100-C-30-3.bmp","za:haza","Up","38","1","24","8","C2","J","24"
"","","approach-retreat","173","1083370","0.0-173.0","","","2-3","4162","37","1","Testing","Stims/Figures/102-C-20-4.bmp","za:sa:za","Left","37","2","1","8","C2","J","25"
"","","approach-retreat","174","1089734","0.0-174.0","","","2-3","4847","39","0","Testing","Stims/Figures/102-J-10-4.bmp","sahaha","Right","37","2","2","8","C2","J","26"
"","","approach-retreat","175","1096435","0.0-175.0","","","2-3","5189","38","0","Testing","Stims/Figures/100-C-30-3.bmp","za:haza","Down","40","2","3","8","C2","J","27"
"","","approach-retreat","176","1102510","0.0-176.0","","","2-3","4561","37","1","Testing","Stims/Figures/74-J-10-4.bmp","sahaza","Right","37","2","4","8","C2","J","28"
"","","approach-retreat","177","1108360","0.0-177.0","","","2-3","4336","38","1","Testing","Stims/Figures/139-J-0-2.bmp","va:fa:va","Down","38","2","5","8","C1","J","29"
"","","approach-retreat","178","1115020","0.0-178.0","","","2-3","5146","38","1","Testing","Stims/Figures/86-J-0-1.bmp","fashasha","Down","38","2","6","8","C1","J","30"
"","","approach-retreat","179","1121095","0.0-179.0","","","2-3","4562","39","1","Testing","Stims/Figures/27-C-30-1.bmp","fafa:sha","Right","39","2","7","8","C1","J","31"
"","","approach-retreat","180","1127021","0.0-180.0","","","2-3","4412","37","0","Testing","Stims/Figures/128-J-10-3.bmp","sa:sa:ha","Left","39","2","8","8","C2","J","32"
"","","approach-retreat","181","1134185","0.0-181.0","","","2-3","5650","39","0","Testing","Stims/Figures/74-C-20-4.bmp","sa:ha:ha","Left","37","2","9","8","C2","J","33"
"","","approach-retreat","182","1140655","0.0-182.0","","","2-3","4959","40","0","Testing","Stims/Figures/19-C-20-4.bmp","za:saha","Up","38","2","10","8","C2","J","34"
"","","approach-retreat","183","1147331","0.0-183.0","","","2-3","5164","38","0","Testing","Stims/Figures/100-J-10-3.bmp","zasa:ha","Up","40","2","11","8","C2","J","35"
"","","approach-retreat","184","1153165","0.0-184.0","","","2-3","4322","39","1","Testing","Stims/Figures/118-J-0-2.bmp","fa:shava","Left","39","2","12","8","C1","J","36"
"","","approach-retreat","185","1159155","0.0-185.0","","","2-3","4478","40","0","Testing","Stims/Figures/86-C-30-1.bmp","fa:fa:va","Up","38","2","13","8","C1","J","37"
"","","approach-retreat","186","1165163","0.0-186.0","","","2-3","4496","38","1","Testing","Stims/Figures/44-C-30-3.bmp","zahaza","Up","38","2","14","8","C2","J","38"
"","","approach-retreat","187","1170917","0.0-187.0","","","2-3","4242","37","0","Testing","Stims/Figures/19-J-10-4.bmp","za:ha:ha","Left","39","2","15","8","C2","J","39"
"","","approach-retreat","188","1180249","0.0-188.0","","","2-3","7819","38","0","Testing","Stims/Figures/139-C-20-2.bmp","vasha:va","Down","40","2","16","8","C1","J","40"
"","","approach-retreat","189","1187451","0.0-189.0","","","2-3","5688","39","1","Testing","Stims/Figures/93-C-30-1.bmp","va:sha:va","Right","39","2","17","8","C1","J","41"
"","","approach-retreat","190","1195935","0.0-190.0","","","2-3","6971","38","1","Testing","Stims/Figures/84-J-0-2.bmp","fa:sha:va","Down","38","2","18","8","C1","J","42"
"","","approach-retreat","191","1202336","0.0-191.0","","","2-3","4888","38","0","Testing","Stims/Figures/93-J-0-1.bmp","vafa:va","Up","40","2","19","8","C1","J","43"
"","","approach-retreat","192","1212289","0.0-192.0","","","2-3","8444","37","0","Testing","Stims/Figures/44-J-10-3.bmp","zasa:za","Left","39","2","20","8","C2","J","44"
"","","approach-retreat","193","1218885","0.0-193.0","","","2-3","5088","39","0","Testing","Stims/Figures/27-J-0-1.bmp","fa:fa:sha","Right","37","2","21","8","C1","J","45"
"","","approach-retreat","194","1227368","0.0-194.0","","","2-3","6970","39","1","Testing","Stims/Figures/84-C-20-2.bmp","fasha:sha","Right","39","2","22","8","C1","J","46"
"","","approach-retreat","195","1233276","0.0-195.0","","","2-3","4395","38","1","Testing","Stims/Figures/128-C-30-3.bmp","zasaza","Up","38","2","23","8","C2","J","47"
"","","approach-retreat","196","1239105","0.0-196.0","","","2-3","4317","40","1","Testing","Stims/Figures/118-C-20-2.bmp","vashava","Down","40","2","24","8","C1","J","48"
"","","approach-retreat","197","1245012","0.0-197.0","","","2-3","4392","37","1","Testing","Stims/Figures/128-C-30-3.bmp","zasaza","Left","37","3","1","8","C2","J","49"
"","","approach-retreat","198","1251827","0.0-198.0","","","2-3","5302","38","0","Testing","Stims/Figures/102-J-10-4.bmp","sahaha","Up","40","3","2","8","C2","J","50"
"","","approach-retreat","199","1257812","0.0-199.0","","","2-3","4472","38","0","Testing","Stims/Figures/74-C-20-4.bmp","sa:ha:ha","Down","40","3","3","8","C2","J","51"
"","","approach-retreat","200","1263531","0.0-200.0","","","2-3","4206","38","0","Testing","Stims/Figures/86-C-30-1.bmp","fa:fa:va","Down","40","3","4","8","C1","J","52"
"","","approach-retreat","201","1269702","0.0-201.0","","","2-3","4661","39","1","Testing","Stims/Figures/102-C-20-4.bmp","za:sa:za","Right","39","3","5","8","C2","J","53"
"","","approach-retreat","202","1275438","0.0-202.0","","","2-3","4225","39","1","Testing","Stims/Figures/27-C-30-1.bmp","fafa:sha","Right","39","3","6","8","C1","J","54"
"","","approach-retreat","203","1281040","0.0-203.0","","","2-3","4090","37","1","Testing","Stims/Figures/44-C-30-3.bmp","zahaza","Left","37","3","7","8","C2","J","55"
"","","approach-retreat","204","1286622","0.0-204.0","","","2-3","4069","38","1","Testing","Stims/Figures/86-J-0-1.bmp","fashasha","Down","38","3","8","8","C1","J","56"
"","","approach-retreat","205","1292168","0.0-205.0","","","2-3","4033","38","1","Testing","Stims/Figures/100-J-10-3.bmp","zasa:ha","Down","38","3","9","8","C2","J","57"
"","","approach-retreat","206","1297822","0.0-206.0","","","2-3","4142","37","0","Testing","Stims/Figures/27-J-0-1.bmp","fa:fa:sha","Left","39","3","10","8","C1","J","58"
"","","approach-retreat","207","1304142","0.0-207.0","","","2-3","4802","40","1","Testing","Stims/Figures/93-J-0-1.bmp","vafa:va","Up","40","3","11","8","C1","J","59"
"","","approach-retreat","208","1314661","0.0-208.0","","","2-3","9005","38","0","Testing","Stims/Figures/139-C-20-2.bmp","vasha:va","Down","40","3","12","8","C1","J","60"
"","","approach-retreat","209","1320698","0.0-209.0","","","2-3","4523","40","1","Testing","Stims/Figures/74-J-10-4.bmp","sahaza","Up","40","3","13","8","C2","J","61"
"","","approach-retreat","210","1326217","0.0-210.0","","","2-3","4002","37","0","Testing","Stims/Figures/118-C-20-2.bmp","vashava","Right","39","3","14","8","C1","J","62"
"","","approach-retreat","211","1332232","0.0-211.0","","","2-3","4500","39","1","Testing","Stims/Figures/84-C-20-2.bmp","fasha:sha","Right","39","3","15","8","C1","J","63"
"","","approach-retreat","212","1338405","0.0-212.0","","","2-3","4660","39","0","Testing","Stims/Figures/128-J-10-3.bmp","sa:sa:ha","Right","37","3","16","8","C2","J","64"
"","","approach-retreat","213","1345719","0.0-213.0","","","2-3","5801","39","0","Testing","Stims/Figures/84-J-0-2.bmp","fa:sha:va","Right","37","3","17","8","C1","J","65"
"","","approach-retreat","214","1351699","0.0-214.0","","","2-3","4468","39","0","Testing","Stims/Figures/100-C-30-3.bmp","za:haza","Left","37","3","18","8","C2","J","66"
"","","approach-retreat","215","1358195","0.0-215.0","","","2-3","4984","40","1","Testing","Stims/Figures/139-J-0-2.bmp","va:fa:va","Up","40","3","19","8","C1","J","67"
"","","approach-retreat","216","1369108","0.0-216.0","","","2-3","9401","38","0","Testing","Stims/Figures/19-J-10-4.bmp","za:ha:ha","Up","40","3","20","8","C2","J","68"
"","","approach-retreat","217","1375981","0.0-217.0","","","2-3","5362","38","1","Testing","Stims/Figures/19-C-20-4.bmp","za:saha","Up","38","3","21","8","C2","J","69"
"","","approach-retreat","218","1382167","0.0-218.0","","","2-3","4673","40","1","Testing","Stims/Figures/93-C-30-1.bmp","va:sha:va","Down","40","3","22","8","C1","J","70"
"","","approach-retreat","219","1388653","0.0-219.0","","","2-3","4976","39","1","Testing","Stims/Figures/118-J-0-2.bmp","fa:shava","Left","39","3","23","8","C1","J","71"
"","","approach-retreat","220","1395893","0.0-220.0","","","2-3","5728","39","1","Testing","Stims/Figures/44-J-10-3.bmp","zasa:za","Left","39","3","24","8","C2","J","72"
"","","approach-retreat","221","1401628","0.0-221.0","","","2-3","4225","37","0","Testing","Stims/Figures/100-J-10-3.bmp","zasa:ha","Left","39","4","1","8","C2","J","73"
"","","approach-retreat","222","1412137","0.0-222.0","","","2-3","8996","38","1","Testing","Stims/Figures/100-C-30-3.bmp","za:haza","Up","38","4","2","8","C2","J","74"
"","","approach-retreat","223","1420183","0.0-223.0","","","2-3","6533","37","1","Testing","Stims/Figures/74-J-10-4.bmp","sahaza","Right","37","4","3","8","C2","J","75"
"","","approach-retreat","224","1426183","0.0-224.0","","","2-3","4489","40","1","Testing","Stims/Figures/139-C-20-2.bmp","vasha:va","Down","40","4","4","8","C1","J","76"
"","","approach-retreat","225","1432309","0.0-225.0","","","2-3","4612","37","0","Testing","Stims/Figures/86-J-0-1.bmp","fashasha","Left","39","4","5","8","C1","J","77"
"","","approach-retreat","226","1438227","0.0-226.0","","","2-3","4404","39","1","Testing","Stims/Figures/102-C-20-4.bmp","za:sa:za","Right","39","4","6","8","C2","J","78"
"","","approach-retreat","227","1445297","0.0-227.0","","","2-3","5554","40","1","Testing","Stims/Figures/44-J-10-3.bmp","zasa:za","Up","40","4","7","8","C2","J","79"
"","","approach-retreat","228","1452274","0.0-228.0","","","2-3","5463","38","0","Testing","Stims/Figures/74-C-20-4.bmp","sa:ha:ha","Down","40","4","8","8","C2","J","80"
"","","approach-retreat","229","1458277","0.0-229.0","","","2-3","4489","37","0","Testing","Stims/Figures/102-J-10-4.bmp","sahaha","Left","39","4","9","8","C2","J","81"
"","","approach-retreat","230","1470008","0.0-230.0","","","2-3","10214","39","1","Testing","Stims/Figures/27-C-30-1.bmp","fafa:sha","Right","39","4","10","8","C1","J","82"
"","","approach-retreat","231","1476262","0.0-231.0","","","2-3","4744","40","0","Testing","Stims/Figures/27-J-0-1.bmp","fa:fa:sha","Down","38","4","11","8","C1","J","83"
"","","approach-retreat","232","1484727","0.0-232.0","","","2-3","6951","40","0","Testing","Stims/Figures/128-J-10-3.bmp","sa:sa:ha","Down","38","4","12","8","C2","J","84"
"","","approach-retreat","233","1490464","0.0-233.0","","","2-3","4223","39","1","Testing","Stims/Figures/93-C-30-1.bmp","va:sha:va","Right","39","4","13","8","C1","J","85"
"","","approach-retreat","234","1496000","0.0-234.0","","","2-3","4024","38","1","Testing","Stims/Figures/118-J-0-2.bmp","fa:shava","Down","38","4","14","8","C1","J","86"
"","","approach-retreat","235","1501884","0.0-235.0","","","2-3","4374","39","0","Testing","Stims/Figures/19-C-20-4.bmp","za:saha","Left","37","4","15","8","C2","J","87"
"","","approach-retreat","236","1508679","0.0-236.0","","","2-3","5284","39","1","Testing","Stims/Figures/128-C-30-3.bmp","zasaza","Right","39","4","16","8","C2","J","88"
"","","approach-retreat","237","1530620","0.0-237.0","","","2-3","20430","40","1","Testing","Stims/Figures/118-C-20-2.bmp","vashava","Down","40","4","17","8","C1","J","89"
"","","approach-retreat","238","1536987","0.0-238.0","","","2-3","4853","38","1","Testing","Stims/Figures/84-C-20-2.bmp","fasha:sha","Up","38","4","18","8","C1","J","90"
"","","approach-retreat","239","1543514","0.0-239.0","","","2-3","5012","37","0","Testing","Stims/Figures/19-J-10-4.bmp","za:ha:ha","Left","39","4","19","8","C2","J","91"
"","","approach-retreat","240","1554789","0.0-240.0","","","2-3","9759","38","0","Testing","Stims/Figures/93-J-0-1.bmp","vafa:va","Up","40","4","20","8","C1","J","92"
"","","approach-retreat","241","1567839","0.0-241.0","","","2-3","11538","38","1","Testing","Stims/Figures/44-C-30-3.bmp","zahaza","Up","38","4","21","8","C2","J","93"
"","","approach-retreat","242","1575293","0.0-242.0","","","2-3","5942","37","1","Testing","Stims/Figures/139-J-0-2.bmp","va:fa:va","Right","37","4","22","8","C1","J","94"
"","","approach-retreat","243","1585233","0.0-243.0","","","2-3","8428","37","0","Testing","Stims/Figures/84-J-0-2.bmp","fa:sha:va","Left","39","4","23","8","C1","J","95"
"","","approach-retreat","244","1599743","0.0-244.0","","","2-3","12997","40","0","Testing","Stims/Figures/86-C-30-1.bmp","fa:fa:va","Up","38","4","24","8","C1","J","96"
"","","survey-text","245","1625716","0.0-245.0","","","2-3","38972","38","1","Testing","Stims/Figures/86-C-30-1.bmp","fa:fa:va","Up","38","4","24","8","C1","J",""
