\"rt\",\"key_press\",\"trial_type\",\"trial_index\",\"time_elapsed\",\"internal_node_id\",\"view_history\",\"responses\",\"Id\",\"Rt\",\"ResKeyCode\",\"ResCorr\",\"TrialType2\",\"Image\",\"Label\",\"Location\",\"CorrectResponse\",\"Block\",\"BlockTrial\",\"Condition\",\"LabelType\",\"Subcondition\",\"trialNum\"
\"65762\",\"32\",\"text\",\"0\",\"65779\",\"0.0-0.0-0.0\",\"\",\"\",\"\",\"\",\"\",\"\",\"\",\"\",\"\",\"\",\"\",\"\",\"\",\"\",\"\",\"\",\"\"
\"92645\",\"\",\"instructions\",\"1\",\"158436\",\"0.0-1.0\",\"[{\"\"page_index\"\":0,\"\"viewing_time\"\":92639}]\",\"\",\"\",\"\",\"\",\"\",\"\",\"\",\"\",\"\",\"\",\"\",\"\",\"\",\"\",\"\",\"\"
\"66612\",\"\",\"survey-multi-choice\",\"2\",\"225328\",\"0.0-2.0\",\"\",\"{\"\"Q0\"\":\"\"Da\"\",\"\"Q1\"\":\"\"Da\"\",\"\"Q2\"\":\"\"Da\"\",\"\"Q3\"\":\"\"Da\"\",\"\"Q4\"\":\"\"Da\"\",\"\"Q5\"\":\"\"Da\"\"}\",\"\",\"\",\"\",\"\",\"\",\"\",\"\",\"\",\"\",\"\",\"\",\"\",\"\",\"\",\"\"
\"\",\"\",\"bio\",\"3\",\"238763\",\"0.0-3.0\",\"\",\"{\"\"age\"\":\"\"20\"\",\"\"gender\"\":\"\"f\"\",\"\"specify\"\":\"\"\"\"}\",\"\",\"\",\"\",\"\",\"\",\"\",\"\",\"\",\"\",\"\",\"\",\"\",\"\",\"\",\"\"
\"\",\"\",\"approach-retreat\",\"4\",\"253585\",\"0.0-4.0\",\"\",\"\",\"2-5\",\"13137\",\"38\",\"0\",\"Training\",\"Stims/Figures/86-J-0-1.bmp\",\"vafa:va\",\"Down\",\"40\",\"1\",\"1\",\"9\",\"C1\",\"C\",\"1\"
\"\",\"\",\"approach-retreat\",\"5\",\"264189\",\"0.0-5.0\",\"\",\"\",\"2-5\",\"9084\",\"37\",\"1\",\"Training\",\"Stims/Figures/7-J-10-4.bmp\",\"sasaha\",\"Left\",\"37\",\"1\",\"2\",\"9\",\"C2\",\"C\",\"2\"
\"\",\"\",\"approach-retreat\",\"6\",\"272034\",\"0.0-6.0\",\"\",\"\",\"2-5\",\"6316\",\"39\",\"0\",\"Training\",\"Stims/Figures/139-C-20-2.bmp\",\"na:lana\",\"Right\",\"37\",\"1\",\"3\",\"9\",\"S\",\"C\",\"3\"
\"\",\"\",\"approach-retreat\",\"7\",\"282195\",\"0.0-7.0\",\"\",\"\",\"2-5\",\"8634\",\"40\",\"1\",\"Training\",\"Stims/Figures/144-C-30-3.bmp\",\"za:saza\",\"Up\",\"40\",\"1\",\"4\",\"9\",\"C2\",\"C\",\"4\"
\"\",\"\",\"approach-retreat\",\"8\",\"295512\",\"0.0-8.0\",\"\",\"\",\"2-5\",\"11796\",\"37\",\"1\",\"Training\",\"Stims/Figures/27-C-30-1.bmp\",\"fa:sha:sha\",\"Right\",\"37\",\"1\",\"5\",\"9\",\"C1\",\"C\",\"5\"
\"\",\"\",\"approach-retreat\",\"9\",\"303405\",\"0.0-9.0\",\"\",\"\",\"2-5\",\"6366\",\"40\",\"1\",\"Training\",\"Stims/Figures/144-J-10-3.bmp\",\"fashasha\",\"Down\",\"40\",\"1\",\"6\",\"9\",\"C1\",\"C\",\"6\"
\"\",\"\",\"approach-retreat\",\"10\",\"310899\",\"0.0-10.0\",\"\",\"\",\"2-5\",\"5970\",\"37\",\"1\",\"Training\",\"Stims/Figures/87-J-10-4.bmp\",\"na:la:la\",\"Left\",\"37\",\"1\",\"7\",\"9\",\"S\",\"C\",\"7\"
\"\",\"\",\"approach-retreat\",\"11\",\"318167\",\"0.0-11.0\",\"\",\"\",\"2-5\",\"5737\",\"38\",\"0\",\"Training\",\"Stims/Figures/86-C-30-1.bmp\",\"saha:ha\",\"Up\",\"40\",\"1\",\"8\",\"9\",\"C2\",\"C\",\"8\"
\"\",\"\",\"approach-retreat\",\"12\",\"325799\",\"0.0-12.0\",\"\",\"\",\"2-5\",\"6102\",\"38\",\"1\",\"Training\",\"Stims/Figures/139-J-0-2.bmp\",\"pa:pa:ka\",\"Up\",\"38\",\"1\",\"9\",\"9\",\"P\",\"C\",\"9\"
\"\",\"\",\"approach-retreat\",\"13\",\"332721\",\"0.0-13.0\",\"\",\"\",\"2-5\",\"5404\",\"40\",\"0\",\"Training\",\"Stims/Figures/85-C-20-2.bmp\",\"sa:sa:za\",\"Down\",\"38\",\"1\",\"10\",\"9\",\"C2\",\"C\",\"10\"
\"\",\"\",\"approach-retreat\",\"14\",\"345839\",\"0.0-14.0\",\"\",\"\",\"2-5\",\"11599\",\"39\",\"1\",\"Training\",\"Stims/Figures/85-J-0-2.bmp\",\"ta:ka:ka\",\"Right\",\"39\",\"1\",\"11\",\"9\",\"P\",\"C\",\"11\"
\"\",\"\",\"approach-retreat\",\"15\",\"352231\",\"0.0-15.0\",\"\",\"\",\"2-5\",\"4863\",\"40\",\"0\",\"Training\",\"Stims/Figures/128-J-10-3.bmp\",\"na:mana\",\"Up\",\"38\",\"1\",\"12\",\"9\",\"S\",\"C\",\"12\"
\"\",\"\",\"approach-retreat\",\"16\",\"358282\",\"0.0-16.0\",\"\",\"\",\"2-5\",\"4433\",\"37\",\"1\",\"Training\",\"Stims/Figures/128-C-30-3.bmp\",\"sa:ha:ha\",\"Right\",\"37\",\"1\",\"13\",\"9\",\"C2\",\"C\",\"13\"
\"\",\"\",\"approach-retreat\",\"17\",\"364896\",\"0.0-17.0\",\"\",\"\",\"2-5\",\"5087\",\"39\",\"1\",\"Training\",\"Stims/Figures/7-C-20-4.bmp\",\"ta:pa:ta\",\"Left\",\"39\",\"1\",\"14\",\"9\",\"P\",\"C\",\"14\"
\"\",\"\",\"approach-retreat\",\"18\",\"374288\",\"0.0-18.0\",\"\",\"\",\"2-5\",\"7859\",\"38\",\"0\",\"Training\",\"Stims/Figures/27-J-0-1.bmp\",\"mama:la\",\"Down\",\"40\",\"1\",\"15\",\"9\",\"S\",\"C\",\"15\"
\"\",\"\",\"approach-retreat\",\"19\",\"384705\",\"0.0-19.0\",\"\",\"\",\"2-5\",\"8889\",\"39\",\"1\",\"Training\",\"Stims/Figures/87-C-20-4.bmp\",\"nala:la\",\"Left\",\"39\",\"1\",\"16\",\"9\",\"S\",\"C\",\"16\"
\"\",\"\",\"approach-retreat\",\"20\",\"393064\",\"0.0-20.0\",\"\",\"\",\"2-5\",\"6816\",\"40\",\"1\",\"Training\",\"Stims/Figures/144-J-10-3.bmp\",\"fashasha\",\"Down\",\"40\",\"2\",\"1\",\"9\",\"C1\",\"C\",\"17\"
\"\",\"\",\"approach-retreat\",\"21\",\"402803\",\"0.0-21.0\",\"\",\"\",\"2-5\",\"8215\",\"38\",\"0\",\"Training\",\"Stims/Figures/86-J-0-1.bmp\",\"vafa:va\",\"Down\",\"40\",\"2\",\"2\",\"9\",\"C1\",\"C\",\"18\"
\"\",\"\",\"approach-retreat\",\"22\",\"409223\",\"0.0-22.0\",\"\",\"\",\"2-5\",\"4895\",\"39\",\"0\",\"Training\",\"Stims/Figures/128-J-10-3.bmp\",\"na:mana\",\"Left\",\"37\",\"2\",\"3\",\"9\",\"S\",\"C\",\"19\"
\"\",\"\",\"approach-retreat\",\"23\",\"415119\",\"0.0-23.0\",\"\",\"\",\"2-5\",\"4376\",\"38\",\"1\",\"Training\",\"Stims/Figures/128-C-30-3.bmp\",\"sa:ha:ha\",\"Down\",\"38\",\"2\",\"4\",\"9\",\"C2\",\"C\",\"20\"
\"\",\"\",\"approach-retreat\",\"24\",\"422788\",\"0.0-24.0\",\"\",\"\",\"2-5\",\"6149\",\"40\",\"0\",\"Training\",\"Stims/Figures/87-J-10-4.bmp\",\"na:la:la\",\"Up\",\"38\",\"2\",\"5\",\"9\",\"S\",\"C\",\"21\"
\"\",\"\",\"approach-retreat\",\"25\",\"428966\",\"0.0-25.0\",\"\",\"\",\"2-5\",\"4651\",\"37\",\"0\",\"Training\",\"Stims/Figures/27-J-0-1.bmp\",\"mama:la\",\"Right\",\"39\",\"2\",\"6\",\"9\",\"S\",\"C\",\"22\"
\"\",\"\",\"approach-retreat\",\"26\",\"443465\",\"0.0-26.0\",\"\",\"\",\"2-5\",\"12970\",\"40\",\"1\",\"Training\",\"Stims/Figures/27-C-30-1.bmp\",\"fa:sha:sha\",\"Up\",\"40\",\"2\",\"7\",\"9\",\"C1\",\"C\",\"23\"
\"\",\"\",\"approach-retreat\",\"27\",\"450875\",\"0.0-27.0\",\"\",\"\",\"2-5\",\"5883\",\"37\",\"1\",\"Training\",\"Stims/Figures/139-J-0-2.bmp\",\"pa:pa:ka\",\"Left\",\"37\",\"2\",\"8\",\"9\",\"P\",\"C\",\"24\"
\"\",\"\",\"approach-retreat\",\"28\",\"457813\",\"0.0-28.0\",\"\",\"\",\"2-5\",\"5417\",\"38\",\"1\",\"Training\",\"Stims/Figures/85-J-0-2.bmp\",\"ta:ka:ka\",\"Up\",\"38\",\"2\",\"9\",\"9\",\"P\",\"C\",\"25\"
\"\",\"\",\"approach-retreat\",\"29\",\"465341\",\"0.0-29.0\",\"\",\"\",\"2-5\",\"6002\",\"37\",\"1\",\"Training\",\"Stims/Figures/144-C-30-3.bmp\",\"za:saza\",\"Right\",\"37\",\"2\",\"10\",\"9\",\"C2\",\"C\",\"26\"
\"\",\"\",\"approach-retreat\",\"30\",\"471768\",\"0.0-30.0\",\"\",\"\",\"2-5\",\"4897\",\"38\",\"0\",\"Training\",\"Stims/Figures/7-C-20-4.bmp\",\"ta:pa:ta\",\"Up\",\"40\",\"2\",\"11\",\"9\",\"P\",\"C\",\"27\"
\"\",\"\",\"approach-retreat\",\"31\",\"478488\",\"0.0-31.0\",\"\",\"\",\"2-5\",\"5187\",\"39\",\"1\",\"Training\",\"Stims/Figures/139-C-20-2.bmp\",\"na:lana\",\"Left\",\"39\",\"2\",\"12\",\"9\",\"S\",\"C\",\"28\"
\"\",\"\",\"approach-retreat\",\"32\",\"485478\",\"0.0-32.0\",\"\",\"\",\"2-5\",\"5472\",\"38\",\"1\",\"Training\",\"Stims/Figures/86-C-30-1.bmp\",\"saha:ha\",\"Down\",\"38\",\"2\",\"13\",\"9\",\"C2\",\"C\",\"29\"
\"\",\"\",\"approach-retreat\",\"33\",\"492820\",\"0.0-33.0\",\"\",\"\",\"2-5\",\"5817\",\"39\",\"1\",\"Training\",\"Stims/Figures/7-J-10-4.bmp\",\"sasaha\",\"Right\",\"39\",\"2\",\"14\",\"9\",\"C2\",\"C\",\"30\"
\"\",\"\",\"approach-retreat\",\"34\",\"500025\",\"0.0-34.0\",\"\",\"\",\"2-5\",\"5684\",\"39\",\"1\",\"Training\",\"Stims/Figures/85-C-20-2.bmp\",\"sa:sa:za\",\"Left\",\"39\",\"2\",\"15\",\"9\",\"C2\",\"C\",\"31\"
\"\",\"\",\"approach-retreat\",\"35\",\"509347\",\"0.0-35.0\",\"\",\"\",\"2-5\",\"7795\",\"37\",\"1\",\"Training\",\"Stims/Figures/87-C-20-4.bmp\",\"nala:la\",\"Right\",\"37\",\"2\",\"16\",\"9\",\"S\",\"C\",\"32\"
\"\",\"\",\"approach-retreat\",\"36\",\"518067\",\"0.0-36.0\",\"\",\"\",\"2-5\",\"7198\",\"38\",\"0\",\"Training\",\"Stims/Figures/128-C-30-3.bmp\",\"sa:ha:ha\",\"Up\",\"40\",\"3\",\"1\",\"9\",\"C2\",\"C\",\"33\"
\"\",\"\",\"approach-retreat\",\"37\",\"524582\",\"0.0-37.0\",\"\",\"\",\"2-5\",\"4987\",\"37\",\"1\",\"Training\",\"Stims/Figures/27-J-0-1.bmp\",\"mama:la\",\"Left\",\"37\",\"3\",\"2\",\"9\",\"S\",\"C\",\"34\"
\"\",\"\",\"approach-retreat\",\"38\",\"532504\",\"0.0-38.0\",\"\",\"\",\"2-5\",\"6397\",\"37\",\"1\",\"Training\",\"Stims/Figures/87-C-20-4.bmp\",\"nala:la\",\"Right\",\"37\",\"3\",\"3\",\"9\",\"S\",\"C\",\"35\"
\"\",\"\",\"approach-retreat\",\"39\",\"539445\",\"0.0-39.0\",\"\",\"\",\"2-5\",\"5421\",\"37\",\"1\",\"Training\",\"Stims/Figures/27-C-30-1.bmp\",\"fa:sha:sha\",\"Right\",\"37\",\"3\",\"4\",\"9\",\"C1\",\"C\",\"36\"
\"\",\"\",\"approach-retreat\",\"40\",\"546535\",\"0.0-40.0\",\"\",\"\",\"2-5\",\"5568\",\"40\",\"1\",\"Training\",\"Stims/Figures/139-J-0-2.bmp\",\"pa:pa:ka\",\"Down\",\"40\",\"3\",\"5\",\"9\",\"P\",\"C\",\"37\"
\"\",\"\",\"approach-retreat\",\"41\",\"552602\",\"0.0-41.0\",\"\",\"\",\"2-5\",\"4543\",\"38\",\"1\",\"Training\",\"Stims/Figures/86-C-30-1.bmp\",\"saha:ha\",\"Down\",\"38\",\"3\",\"6\",\"9\",\"C2\",\"C\",\"38\"
\"\",\"\",\"approach-retreat\",\"42\",\"559139\",\"0.0-42.0\",\"\",\"\",\"2-5\",\"5020\",\"37\",\"1\",\"Training\",\"Stims/Figures/144-J-10-3.bmp\",\"fashasha\",\"Left\",\"37\",\"3\",\"7\",\"9\",\"C1\",\"C\",\"39\"
\"\",\"\",\"approach-retreat\",\"43\",\"567130\",\"0.0-43.0\",\"\",\"\",\"2-5\",\"6469\",\"38\",\"1\",\"Training\",\"Stims/Figures/144-C-30-3.bmp\",\"za:saza\",\"Down\",\"38\",\"3\",\"8\",\"9\",\"C2\",\"C\",\"40\"
\"\",\"\",\"approach-retreat\",\"44\",\"575208\",\"0.0-44.0\",\"\",\"\",\"2-5\",\"6558\",\"40\",\"1\",\"Training\",\"Stims/Figures/85-J-0-2.bmp\",\"ta:ka:ka\",\"Down\",\"40\",\"3\",\"9\",\"9\",\"P\",\"C\",\"41\"
\"\",\"\",\"approach-retreat\",\"45\",\"584810\",\"0.0-45.0\",\"\",\"\",\"2-5\",\"8078\",\"39\",\"0\",\"Training\",\"Stims/Figures/128-J-10-3.bmp\",\"na:mana\",\"Left\",\"37\",\"3\",\"10\",\"9\",\"S\",\"C\",\"42\"
\"\",\"\",\"approach-retreat\",\"46\",\"591417\",\"0.0-46.0\",\"\",\"\",\"2-5\",\"5086\",\"37\",\"1\",\"Training\",\"Stims/Figures/85-C-20-2.bmp\",\"sa:sa:za\",\"Right\",\"37\",\"3\",\"11\",\"9\",\"C2\",\"C\",\"43\"
\"\",\"\",\"approach-retreat\",\"47\",\"600521\",\"0.0-47.0\",\"\",\"\",\"2-5\",\"7570\",\"40\",\"0\",\"Training\",\"Stims/Figures/86-J-0-1.bmp\",\"vafa:va\",\"Up\",\"38\",\"3\",\"12\",\"9\",\"C1\",\"C\",\"44\"
\"\",\"\",\"approach-retreat\",\"48\",\"606990\",\"0.0-48.0\",\"\",\"\",\"2-5\",\"4927\",\"37\",\"1\",\"Training\",\"Stims/Figures/139-C-20-2.bmp\",\"na:lana\",\"Right\",\"37\",\"3\",\"13\",\"9\",\"S\",\"C\",\"45\"
\"\",\"\",\"approach-retreat\",\"49\",\"614569\",\"0.0-49.0\",\"\",\"\",\"2-5\",\"6062\",\"39\",\"0\",\"Training\",\"Stims/Figures/7-J-10-4.bmp\",\"sasaha\",\"Left\",\"37\",\"3\",\"14\",\"9\",\"C2\",\"C\",\"46\"
\"\",\"\",\"approach-retreat\",\"50\",\"628112\",\"0.0-50.0\",\"\",\"\",\"2-5\",\"12018\",\"38\",\"0\",\"Training\",\"Stims/Figures/7-C-20-4.bmp\",\"ta:pa:ta\",\"Up\",\"40\",\"3\",\"15\",\"9\",\"P\",\"C\",\"47\"
\"\",\"\",\"approach-retreat\",\"51\",\"634518\",\"0.0-51.0\",\"\",\"\",\"2-5\",\"4886\",\"40\",\"0\",\"Training\",\"Stims/Figures/87-J-10-4.bmp\",\"na:la:la\",\"Up\",\"38\",\"3\",\"16\",\"9\",\"S\",\"C\",\"48\"
\"\",\"\",\"approach-retreat\",\"52\",\"641158\",\"0.0-52.0\",\"\",\"\",\"2-5\",\"5120\",\"39\",\"0\",\"Training\",\"Stims/Figures/85-C-20-2.bmp\",\"sa:sa:za\",\"Right\",\"37\",\"4\",\"1\",\"9\",\"C2\",\"C\",\"49\"
\"\",\"\",\"approach-retreat\",\"53\",\"647800\",\"0.0-53.0\",\"\",\"\",\"2-5\",\"5120\",\"40\",\"1\",\"Training\",\"Stims/Figures/27-C-30-1.bmp\",\"fa:sha:sha\",\"Up\",\"40\",\"4\",\"2\",\"9\",\"C1\",\"C\",\"50\"
\"\",\"\",\"approach-retreat\",\"54\",\"658160\",\"0.0-54.0\",\"\",\"\",\"2-5\",\"8838\",\"37\",\"1\",\"Training\",\"Stims/Figures/144-J-10-3.bmp\",\"fashasha\",\"Left\",\"37\",\"4\",\"3\",\"9\",\"C1\",\"C\",\"51\"
\"\",\"\",\"approach-retreat\",\"55\",\"667865\",\"0.0-55.0\",\"\",\"\",\"2-5\",\"8194\",\"39\",\"1\",\"Training\",\"Stims/Figures/86-J-0-1.bmp\",\"vafa:va\",\"Right\",\"39\",\"4\",\"4\",\"9\",\"C1\",\"C\",\"52\"
\"\",\"\",\"approach-retreat\",\"56\",\"675409\",\"0.0-56.0\",\"\",\"\",\"2-5\",\"6014\",\"40\",\"1\",\"Training\",\"Stims/Figures/86-C-30-1.bmp\",\"saha:ha\",\"Up\",\"40\",\"4\",\"5\",\"9\",\"C2\",\"C\",\"53\"
\"\",\"\",\"approach-retreat\",\"57\",\"682298\",\"0.0-57.0\",\"\",\"\",\"2-5\",\"5379\",\"37\",\"0\",\"Training\",\"Stims/Figures/128-J-10-3.bmp\",\"na:mana\",\"Right\",\"39\",\"4\",\"6\",\"9\",\"S\",\"C\",\"54\"
\"\",\"\",\"approach-retreat\",\"58\",\"694649\",\"0.0-58.0\",\"\",\"\",\"2-5\",\"10835\",\"37\",\"0\",\"Training\",\"Stims/Figures/144-C-30-3.bmp\",\"za:saza\",\"Left\",\"39\",\"4\",\"7\",\"9\",\"C2\",\"C\",\"55\"
\"\",\"\",\"approach-retreat\",\"59\",\"700898\",\"0.0-59.0\",\"\",\"\",\"2-5\",\"4729\",\"40\",\"0\",\"Training\",\"Stims/Figures/7-C-20-4.bmp\",\"ta:pa:ta\",\"Down\",\"38\",\"4\",\"8\",\"9\",\"P\",\"C\",\"56\"
\"\",\"\",\"approach-retreat\",\"60\",\"707376\",\"0.0-60.0\",\"\",\"\",\"2-5\",\"4945\",\"40\",\"1\",\"Training\",\"Stims/Figures/128-C-30-3.bmp\",\"sa:ha:ha\",\"Up\",\"40\",\"4\",\"9\",\"9\",\"C2\",\"C\",\"57\"
\"\",\"\",\"approach-retreat\",\"61\",\"713630\",\"0.0-61.0\",\"\",\"\",\"2-5\",\"4729\",\"39\",\"1\",\"Training\",\"Stims/Figures/85-J-0-2.bmp\",\"ta:ka:ka\",\"Right\",\"39\",\"4\",\"10\",\"9\",\"P\",\"C\",\"58\"
\"\",\"\",\"approach-retreat\",\"62\",\"719887\",\"0.0-62.0\",\"\",\"\",\"2-5\",\"4737\",\"39\",\"0\",\"Training\",\"Stims/Figures/7-J-10-4.bmp\",\"sasaha\",\"Left\",\"37\",\"4\",\"11\",\"9\",\"C2\",\"C\",\"59\"
\"\",\"\",\"approach-retreat\",\"63\",\"726405\",\"0.0-63.0\",\"\",\"\",\"2-5\",\"4989\",\"38\",\"1\",\"Training\",\"Stims/Figures/139-J-0-2.bmp\",\"pa:pa:ka\",\"Up\",\"38\",\"4\",\"12\",\"9\",\"P\",\"C\",\"60\"
\"\",\"\",\"approach-retreat\",\"64\",\"733126\",\"0.0-64.0\",\"\",\"\",\"2-5\",\"5209\",\"38\",\"0\",\"Training\",\"Stims/Figures/87-J-10-4.bmp\",\"na:la:la\",\"Down\",\"40\",\"4\",\"13\",\"9\",\"S\",\"C\",\"61\"
\"\",\"\",\"approach-retreat\",\"65\",\"743192\",\"0.0-65.0\",\"\",\"\",\"2-5\",\"8540\",\"38\",\"0\",\"Training\",\"Stims/Figures/27-J-0-1.bmp\",\"mama:la\",\"Down\",\"40\",\"4\",\"14\",\"9\",\"S\",\"C\",\"62\"
\"\",\"\",\"approach-retreat\",\"66\",\"750974\",\"0.0-66.0\",\"\",\"\",\"2-5\",\"6259\",\"37\",\"0\",\"Training\",\"Stims/Figures/87-C-20-4.bmp\",\"nala:la\",\"Left\",\"39\",\"4\",\"15\",\"9\",\"S\",\"C\",\"63\"
\"\",\"\",\"approach-retreat\",\"67\",\"762546\",\"0.0-67.0\",\"\",\"\",\"2-5\",\"10047\",\"38\",\"1\",\"Training\",\"Stims/Figures/139-C-20-2.bmp\",\"na:lana\",\"Down\",\"38\",\"4\",\"16\",\"9\",\"S\",\"C\",\"64\"
\"\",\"\",\"approach-retreat\",\"68\",\"769539\",\"0.0-68.0\",\"\",\"\",\"2-5\",\"5472\",\"37\",\"1\",\"Training\",\"Stims/Figures/139-J-0-2.bmp\",\"pa:pa:ka\",\"Left\",\"37\",\"5\",\"1\",\"9\",\"P\",\"C\",\"65\"
\"\",\"\",\"approach-retreat\",\"69\",\"777533\",\"0.0-69.0\",\"\",\"\",\"2-5\",\"6464\",\"38\",\"1\",\"Training\",\"Stims/Figures/128-J-10-3.bmp\",\"na:mana\",\"Up\",\"38\",\"5\",\"2\",\"9\",\"S\",\"C\",\"66\"
\"\",\"\",\"approach-retreat\",\"70\",\"785883\",\"0.0-70.0\",\"\",\"\",\"2-5\",\"6828\",\"37\",\"1\",\"Training\",\"Stims/Figures/27-C-30-1.bmp\",\"fa:sha:sha\",\"Right\",\"37\",\"5\",\"3\",\"9\",\"C1\",\"C\",\"67\"
\"\",\"\",\"approach-retreat\",\"71\",\"793354\",\"0.0-71.0\",\"\",\"\",\"2-5\",\"5955\",\"38\",\"0\",\"Training\",\"Stims/Figures/7-J-10-4.bmp\",\"sasaha\",\"Down\",\"40\",\"5\",\"4\",\"9\",\"C2\",\"C\",\"68\"
\"\",\"\",\"approach-retreat\",\"72\",\"801584\",\"0.0-72.0\",\"\",\"\",\"2-5\",\"6703\",\"39\",\"1\",\"Training\",\"Stims/Figures/86-C-30-1.bmp\",\"saha:ha\",\"Left\",\"39\",\"5\",\"5\",\"9\",\"C2\",\"C\",\"69\"
\"\",\"\",\"approach-retreat\",\"73\",\"807677\",\"0.0-73.0\",\"\",\"\",\"2-5\",\"4575\",\"37\",\"0\",\"Training\",\"Stims/Figures/128-C-30-3.bmp\",\"sa:ha:ha\",\"Left\",\"39\",\"5\",\"6\",\"9\",\"C2\",\"C\",\"70\"
\"\",\"\",\"approach-retreat\",\"74\",\"814036\",\"0.0-74.0\",\"\",\"\",\"2-5\",\"4834\",\"37\",\"1\",\"Training\",\"Stims/Figures/144-J-10-3.bmp\",\"fashasha\",\"Left\",\"37\",\"5\",\"7\",\"9\",\"C1\",\"C\",\"71\"
\"\",\"\",\"approach-retreat\",\"75\",\"820858\",\"0.0-75.0\",\"\",\"\",\"2-5\",\"5294\",\"40\",\"0\",\"Training\",\"Stims/Figures/86-J-0-1.bmp\",\"vafa:va\",\"Up\",\"38\",\"5\",\"8\",\"9\",\"C1\",\"C\",\"72\"
\"\",\"\",\"approach-retreat\",\"76\",\"827180\",\"0.0-76.0\",\"\",\"\",\"2-5\",\"4799\",\"40\",\"1\",\"Training\",\"Stims/Figures/85-J-0-2.bmp\",\"ta:ka:ka\",\"Down\",\"40\",\"5\",\"9\",\"9\",\"P\",\"C\",\"73\"
\"\",\"\",\"approach-retreat\",\"77\",\"836198\",\"0.0-77.0\",\"\",\"\",\"2-5\",\"7489\",\"40\",\"1\",\"Training\",\"Stims/Figures/7-C-20-4.bmp\",\"ta:pa:ta\",\"Up\",\"40\",\"5\",\"10\",\"9\",\"P\",\"C\",\"74\"
\"\",\"\",\"approach-retreat\",\"78\",\"843369\",\"0.0-78.0\",\"\",\"\",\"2-5\",\"5660\",\"37\",\"1\",\"Training\",\"Stims/Figures/87-C-20-4.bmp\",\"nala:la\",\"Right\",\"37\",\"5\",\"11\",\"9\",\"S\",\"C\",\"75\"
\"\",\"\",\"approach-retreat\",\"79\",\"853225\",\"0.0-79.0\",\"\",\"\",\"2-5\",\"8327\",\"38\",\"0\",\"Training\",\"Stims/Figures/27-J-0-1.bmp\",\"mama:la\",\"Down\",\"40\",\"5\",\"12\",\"9\",\"S\",\"C\",\"76\"
\"\",\"\",\"approach-retreat\",\"80\",\"863787\",\"0.0-80.0\",\"\",\"\",\"2-5\",\"9041\",\"40\",\"1\",\"Training\",\"Stims/Figures/139-C-20-2.bmp\",\"na:lana\",\"Up\",\"40\",\"5\",\"13\",\"9\",\"S\",\"C\",\"77\"
\"\",\"\",\"approach-retreat\",\"81\",\"872621\",\"0.0-81.0\",\"\",\"\",\"2-5\",\"7312\",\"37\",\"1\",\"Training\",\"Stims/Figures/144-C-30-3.bmp\",\"za:saza\",\"Right\",\"37\",\"5\",\"14\",\"9\",\"C2\",\"C\",\"78\"
\"\",\"\",\"approach-retreat\",\"82\",\"878522\",\"0.0-82.0\",\"\",\"\",\"2-5\",\"4377\",\"38\",\"0\",\"Training\",\"Stims/Figures/87-J-10-4.bmp\",\"na:la:la\",\"Down\",\"40\",\"5\",\"15\",\"9\",\"S\",\"C\",\"79\"
\"\",\"\",\"approach-retreat\",\"83\",\"885077\",\"0.0-83.0\",\"\",\"\",\"2-5\",\"5022\",\"37\",\"1\",\"Training\",\"Stims/Figures/85-C-20-2.bmp\",\"sa:sa:za\",\"Right\",\"37\",\"5\",\"16\",\"9\",\"C2\",\"C\",\"80\"
\"\",\"\",\"approach-retreat\",\"84\",\"890947\",\"0.0-84.0\",\"\",\"\",\"2-5\",\"4336\",\"37\",\"1\",\"Training\",\"Stims/Figures/139-J-0-2.bmp\",\"pa:pa:ka\",\"Left\",\"37\",\"6\",\"1\",\"9\",\"P\",\"C\",\"81\"
\"\",\"\",\"approach-retreat\",\"85\",\"897701\",\"0.0-85.0\",\"\",\"\",\"2-5\",\"5233\",\"40\",\"0\",\"Training\",\"Stims/Figures/144-J-10-3.bmp\",\"fashasha\",\"Up\",\"38\",\"6\",\"2\",\"9\",\"C1\",\"C\",\"82\"
\"\",\"\",\"approach-retreat\",\"86\",\"905257\",\"0.0-86.0\",\"\",\"\",\"2-5\",\"6022\",\"40\",\"0\",\"Training\",\"Stims/Figures/144-C-30-3.bmp\",\"za:saza\",\"Down\",\"38\",\"6\",\"3\",\"9\",\"C2\",\"C\",\"83\"
\"\",\"\",\"approach-retreat\",\"87\",\"911087\",\"0.0-87.0\",\"\",\"\",\"2-5\",\"4304\",\"37\",\"1\",\"Training\",\"Stims/Figures/7-C-20-4.bmp\",\"ta:pa:ta\",\"Right\",\"37\",\"6\",\"4\",\"9\",\"P\",\"C\",\"84\"
\"\",\"\",\"approach-retreat\",\"88\",\"917727\",\"0.0-88.0\",\"\",\"\",\"2-5\",\"5094\",\"38\",\"1\",\"Training\",\"Stims/Figures/85-J-0-2.bmp\",\"ta:ka:ka\",\"Up\",\"38\",\"6\",\"5\",\"9\",\"P\",\"C\",\"85\"
\"\",\"\",\"approach-retreat\",\"89\",\"925218\",\"0.0-89.0\",\"\",\"\",\"2-5\",\"5967\",\"40\",\"1\",\"Training\",\"Stims/Figures/139-C-20-2.bmp\",\"na:lana\",\"Up\",\"40\",\"6\",\"6\",\"9\",\"S\",\"C\",\"86\"
\"\",\"\",\"approach-retreat\",\"90\",\"932533\",\"0.0-90.0\",\"\",\"\",\"2-5\",\"5804\",\"40\",\"1\",\"Training\",\"Stims/Figures/128-J-10-3.bmp\",\"na:mana\",\"Down\",\"40\",\"6\",\"7\",\"9\",\"S\",\"C\",\"87\"
\"\",\"\",\"approach-retreat\",\"91\",\"940143\",\"0.0-91.0\",\"\",\"\",\"2-5\",\"6074\",\"37\",\"0\",\"Training\",\"Stims/Figures/87-C-20-4.bmp\",\"nala:la\",\"Left\",\"39\",\"6\",\"8\",\"9\",\"S\",\"C\",\"88\"
\"\",\"\",\"approach-retreat\",\"92\",\"946928\",\"0.0-92.0\",\"\",\"\",\"2-5\",\"5268\",\"40\",\"1\",\"Training\",\"Stims/Figures/7-J-10-4.bmp\",\"sasaha\",\"Down\",\"40\",\"6\",\"9\",\"9\",\"C2\",\"C\",\"89\"
\"\",\"\",\"approach-retreat\",\"93\",\"953914\",\"0.0-93.0\",\"\",\"\",\"2-5\",\"5471\",\"39\",\"1\",\"Training\",\"Stims/Figures/128-C-30-3.bmp\",\"sa:ha:ha\",\"Left\",\"39\",\"6\",\"10\",\"9\",\"C2\",\"C\",\"90\"
\"\",\"\",\"approach-retreat\",\"94\",\"960400\",\"0.0-94.0\",\"\",\"\",\"2-5\",\"4967\",\"37\",\"0\",\"Training\",\"Stims/Figures/86-C-30-1.bmp\",\"saha:ha\",\"Left\",\"39\",\"6\",\"11\",\"9\",\"C2\",\"C\",\"91\"
\"\",\"\",\"approach-retreat\",\"95\",\"967287\",\"0.0-95.0\",\"\",\"\",\"2-5\",\"5355\",\"40\",\"0\",\"Training\",\"Stims/Figures/86-J-0-1.bmp\",\"vafa:va\",\"Up\",\"38\",\"6\",\"12\",\"9\",\"C1\",\"C\",\"92\"
\"\",\"\",\"approach-retreat\",\"96\",\"975867\",\"0.0-96.0\",\"\",\"\",\"2-5\",\"7070\",\"39\",\"1\",\"Training\",\"Stims/Figures/27-J-0-1.bmp\",\"mama:la\",\"Right\",\"39\",\"6\",\"13\",\"9\",\"S\",\"C\",\"93\"
\"\",\"\",\"approach-retreat\",\"97\",\"981958\",\"0.0-97.0\",\"\",\"\",\"2-5\",\"4573\",\"38\",\"1\",\"Training\",\"Stims/Figures/27-C-30-1.bmp\",\"fa:sha:sha\",\"Down\",\"38\",\"6\",\"14\",\"9\",\"C1\",\"C\",\"94\"
\"\",\"\",\"approach-retreat\",\"98\",\"989194\",\"0.0-98.0\",\"\",\"\",\"2-5\",\"5717\",\"39\",\"1\",\"Training\",\"Stims/Figures/87-J-10-4.bmp\",\"na:la:la\",\"Right\",\"39\",\"6\",\"15\",\"9\",\"S\",\"C\",\"95\"
\"\",\"\",\"approach-retreat\",\"99\",\"996600\",\"0.0-99.0\",\"\",\"\",\"2-5\",\"5896\",\"37\",\"1\",\"Training\",\"Stims/Figures/85-C-20-2.bmp\",\"sa:sa:za\",\"Right\",\"37\",\"6\",\"16\",\"9\",\"C2\",\"C\",\"96\"
\"\",\"\",\"approach-retreat\",\"100\",\"1003959\",\"0.0-100.0\",\"\",\"\",\"2-5\",\"5833\",\"39\",\"1\",\"Training\",\"Stims/Figures/86-C-30-1.bmp\",\"saha:ha\",\"Left\",\"39\",\"7\",\"1\",\"9\",\"C2\",\"C\",\"97\"
\"\",\"\",\"approach-retreat\",\"101\",\"1010091\",\"0.0-101.0\",\"\",\"\",\"2-5\",\"4610\",\"38\",\"1\",\"Training\",\"Stims/Figures/139-C-20-2.bmp\",\"na:lana\",\"Down\",\"38\",\"7\",\"2\",\"9\",\"S\",\"C\",\"98\"
\"\",\"\",\"approach-retreat\",\"102\",\"1016048\",\"0.0-102.0\",\"\",\"\",\"2-5\",\"4446\",\"39\",\"0\",\"Training\",\"Stims/Figures/87-J-10-4.bmp\",\"na:la:la\",\"Left\",\"37\",\"7\",\"3\",\"9\",\"S\",\"C\",\"99\"
\"\",\"\",\"approach-retreat\",\"103\",\"1021459\",\"0.0-103.0\",\"\",\"\",\"2-5\",\"3893\",\"39\",\"1\",\"Training\",\"Stims/Figures/85-J-0-2.bmp\",\"ta:ka:ka\",\"Right\",\"39\",\"7\",\"4\",\"9\",\"P\",\"C\",\"100\"
\"\",\"\",\"approach-retreat\",\"104\",\"1027722\",\"0.0-104.0\",\"\",\"\",\"2-5\",\"4735\",\"40\",\"1\",\"Training\",\"Stims/Figures/144-C-30-3.bmp\",\"za:saza\",\"Up\",\"40\",\"7\",\"5\",\"9\",\"C2\",\"C\",\"101\"
\"\",\"\",\"approach-retreat\",\"105\",\"1034141\",\"0.0-105.0\",\"\",\"\",\"2-5\",\"4900\",\"38\",\"0\",\"Training\",\"Stims/Figures/144-J-10-3.bmp\",\"fashasha\",\"Down\",\"40\",\"7\",\"6\",\"9\",\"C1\",\"C\",\"102\"
\"\",\"\",\"approach-retreat\",\"106\",\"1043031\",\"0.0-106.0\",\"\",\"\",\"2-5\",\"7379\",\"38\",\"1\",\"Training\",\"Stims/Figures/128-J-10-3.bmp\",\"na:mana\",\"Up\",\"38\",\"7\",\"7\",\"9\",\"S\",\"C\",\"103\"
\"\",\"\",\"approach-retreat\",\"107\",\"1049016\",\"0.0-107.0\",\"\",\"\",\"2-5\",\"4473\",\"37\",\"0\",\"Training\",\"Stims/Figures/128-C-30-3.bmp\",\"sa:ha:ha\",\"Left\",\"39\",\"7\",\"8\",\"9\",\"C2\",\"C\",\"104\"
\"\",\"\",\"approach-retreat\",\"108\",\"1055088\",\"0.0-108.0\",\"\",\"\",\"2-5\",\"4560\",\"38\",\"1\",\"Training\",\"Stims/Figures/7-C-20-4.bmp\",\"ta:pa:ta\",\"Down\",\"38\",\"7\",\"9\",\"9\",\"P\",\"C\",\"105\"
\"\",\"\",\"approach-retreat\",\"109\",\"1062123\",\"0.0-109.0\",\"\",\"\",\"2-5\",\"5518\",\"39\",\"1\",\"Training\",\"Stims/Figures/27-J-0-1.bmp\",\"mama:la\",\"Right\",\"39\",\"7\",\"10\",\"9\",\"S\",\"C\",\"106\"
\"\",\"\",\"approach-retreat\",\"110\",\"1068100\",\"0.0-110.0\",\"\",\"\",\"2-5\",\"4454\",\"37\",\"1\",\"Training\",\"Stims/Figures/87-C-20-4.bmp\",\"nala:la\",\"Right\",\"37\",\"7\",\"11\",\"9\",\"S\",\"C\",\"107\"
\"\",\"\",\"approach-retreat\",\"111\",\"1074223\",\"0.0-111.0\",\"\",\"\",\"2-5\",\"4606\",\"37\",\"0\",\"Training\",\"Stims/Figures/86-J-0-1.bmp\",\"vafa:va\",\"Right\",\"39\",\"7\",\"12\",\"9\",\"C1\",\"C\",\"108\"
\"\",\"\",\"approach-retreat\",\"112\",\"1080842\",\"0.0-112.0\",\"\",\"\",\"2-5\",\"5108\",\"38\",\"0\",\"Training\",\"Stims/Figures/7-J-10-4.bmp\",\"sasaha\",\"Down\",\"40\",\"7\",\"13\",\"9\",\"C2\",\"C\",\"109\"
\"\",\"\",\"approach-retreat\",\"113\",\"1087486\",\"0.0-113.0\",\"\",\"\",\"2-5\",\"5130\",\"37\",\"0\",\"Training\",\"Stims/Figures/85-C-20-2.bmp\",\"sa:sa:za\",\"Left\",\"39\",\"7\",\"14\",\"9\",\"C2\",\"C\",\"110\"
\"\",\"\",\"approach-retreat\",\"114\",\"1094053\",\"0.0-114.0\",\"\",\"\",\"2-5\",\"5055\",\"40\",\"1\",\"Training\",\"Stims/Figures/27-C-30-1.bmp\",\"fa:sha:sha\",\"Up\",\"40\",\"7\",\"15\",\"9\",\"C1\",\"C\",\"111\"
\"\",\"\",\"approach-retreat\",\"115\",\"1100686\",\"0.0-115.0\",\"\",\"\",\"2-5\",\"5105\",\"38\",\"1\",\"Training\",\"Stims/Figures/139-J-0-2.bmp\",\"pa:pa:ka\",\"Up\",\"38\",\"7\",\"16\",\"9\",\"P\",\"C\",\"112\"
\"\",\"\",\"approach-retreat\",\"116\",\"1107602\",\"0.0-116.0\",\"\",\"\",\"2-5\",\"5396\",\"39\",\"1\",\"Training\",\"Stims/Figures/139-C-20-2.bmp\",\"na:lana\",\"Left\",\"39\",\"8\",\"1\",\"9\",\"S\",\"C\",\"113\"
\"\",\"\",\"approach-retreat\",\"117\",\"1114668\",\"0.0-117.0\",\"\",\"\",\"2-5\",\"5555\",\"38\",\"0\",\"Training\",\"Stims/Figures/128-J-10-3.bmp\",\"na:mana\",\"Down\",\"40\",\"8\",\"2\",\"9\",\"S\",\"C\",\"114\"
\"\",\"\",\"approach-retreat\",\"118\",\"1121030\",\"0.0-118.0\",\"\",\"\",\"2-5\",\"4851\",\"37\",\"1\",\"Training\",\"Stims/Figures/85-C-20-2.bmp\",\"sa:sa:za\",\"Right\",\"37\",\"8\",\"3\",\"9\",\"C2\",\"C\",\"115\"
\"\",\"\",\"approach-retreat\",\"119\",\"1129274\",\"0.0-119.0\",\"\",\"\",\"2-5\",\"6734\",\"38\",\"0\",\"Training\",\"Stims/Figures/87-C-20-4.bmp\",\"nala:la\",\"Up\",\"40\",\"8\",\"4\",\"9\",\"S\",\"C\",\"116\"
\"\",\"\",\"approach-retreat\",\"120\",\"1136883\",\"0.0-120.0\",\"\",\"\",\"2-5\",\"6098\",\"37\",\"1\",\"Training\",\"Stims/Figures/27-C-30-1.bmp\",\"fa:sha:sha\",\"Right\",\"37\",\"8\",\"5\",\"9\",\"C1\",\"C\",\"117\"
\"\",\"\",\"approach-retreat\",\"121\",\"1143841\",\"0.0-121.0\",\"\",\"\",\"2-5\",\"5447\",\"40\",\"0\",\"Training\",\"Stims/Figures/144-C-30-3.bmp\",\"za:saza\",\"Down\",\"38\",\"8\",\"6\",\"9\",\"C2\",\"C\",\"118\"
\"\",\"\",\"approach-retreat\",\"122\",\"1149956\",\"0.0-122.0\",\"\",\"\",\"2-5\",\"4605\",\"37\",\"1\",\"Training\",\"Stims/Figures/85-J-0-2.bmp\",\"ta:ka:ka\",\"Left\",\"37\",\"8\",\"7\",\"9\",\"P\",\"C\",\"119\"
\"\",\"\",\"approach-retreat\",\"123\",\"1155821\",\"0.0-123.0\",\"\",\"\",\"2-5\",\"4355\",\"39\",\"0\",\"Training\",\"Stims/Figures/27-J-0-1.bmp\",\"mama:la\",\"Left\",\"37\",\"8\",\"8\",\"9\",\"S\",\"C\",\"120\"
\"\",\"\",\"approach-retreat\",\"124\",\"1162971\",\"0.0-124.0\",\"\",\"\",\"2-5\",\"5639\",\"38\",\"1\",\"Training\",\"Stims/Figures/128-C-30-3.bmp\",\"sa:ha:ha\",\"Down\",\"38\",\"8\",\"9\",\"9\",\"C2\",\"C\",\"121\"
\"\",\"\",\"approach-retreat\",\"125\",\"1169183\",\"0.0-125.0\",\"\",\"\",\"2-5\",\"4702\",\"37\",\"0\",\"Training\",\"Stims/Figures/7-C-20-4.bmp\",\"ta:pa:ta\",\"Left\",\"39\",\"8\",\"10\",\"9\",\"P\",\"C\",\"122\"
\"\",\"\",\"approach-retreat\",\"126\",\"1176114\",\"0.0-126.0\",\"\",\"\",\"2-5\",\"5380\",\"37\",\"1\",\"Training\",\"Stims/Figures/86-C-30-1.bmp\",\"saha:ha\",\"Right\",\"37\",\"8\",\"11\",\"9\",\"C2\",\"C\",\"123\"
\"\",\"\",\"approach-retreat\",\"127\",\"1183798\",\"0.0-127.0\",\"\",\"\",\"2-5\",\"6169\",\"38\",\"1\",\"Training\",\"Stims/Figures/144-J-10-3.bmp\",\"fashasha\",\"Up\",\"38\",\"8\",\"12\",\"9\",\"C1\",\"C\",\"124\"
\"\",\"\",\"approach-retreat\",\"128\",\"1189741\",\"0.0-128.0\",\"\",\"\",\"2-5\",\"4432\",\"38\",\"1\",\"Training\",\"Stims/Figures/139-J-0-2.bmp\",\"pa:pa:ka\",\"Up\",\"38\",\"8\",\"13\",\"9\",\"P\",\"C\",\"125\"
\"\",\"\",\"approach-retreat\",\"129\",\"1198063\",\"0.0-129.0\",\"\",\"\",\"2-5\",\"6812\",\"40\",\"1\",\"Training\",\"Stims/Figures/87-J-10-4.bmp\",\"na:la:la\",\"Down\",\"40\",\"8\",\"14\",\"9\",\"S\",\"C\",\"126\"
\"\",\"\",\"approach-retreat\",\"130\",\"1204104\",\"0.0-130.0\",\"\",\"\",\"2-5\",\"4529\",\"40\",\"0\",\"Training\",\"Stims/Figures/7-J-10-4.bmp\",\"sasaha\",\"Up\",\"38\",\"8\",\"15\",\"9\",\"C2\",\"C\",\"127\"
\"\",\"\",\"approach-retreat\",\"131\",\"1210360\",\"0.0-131.0\",\"\",\"\",\"2-5\",\"4746\",\"37\",\"0\",\"Training\",\"Stims/Figures/86-J-0-1.bmp\",\"vafa:va\",\"Right\",\"39\",\"8\",\"16\",\"9\",\"C1\",\"C\",\"128\"
\"\",\"\",\"approach-retreat\",\"132\",\"1218634\",\"0.0-132.0\",\"\",\"\",\"2-5\",\"6756\",\"40\",\"1\",\"Training\",\"Stims/Figures/139-C-20-2.bmp\",\"na:lana\",\"Up\",\"40\",\"9\",\"1\",\"9\",\"S\",\"C\",\"129\"
\"\",\"\",\"approach-retreat\",\"133\",\"1225871\",\"0.0-133.0\",\"\",\"\",\"2-5\",\"5715\",\"40\",\"1\",\"Training\",\"Stims/Figures/87-J-10-4.bmp\",\"na:la:la\",\"Down\",\"40\",\"9\",\"2\",\"9\",\"S\",\"C\",\"130\"
\"\",\"\",\"approach-retreat\",\"134\",\"1232567\",\"0.0-134.0\",\"\",\"\",\"2-5\",\"5178\",\"37\",\"0\",\"Training\",\"Stims/Figures/87-C-20-4.bmp\",\"nala:la\",\"Left\",\"39\",\"9\",\"3\",\"9\",\"S\",\"C\",\"131\"
\"\",\"\",\"approach-retreat\",\"135\",\"1239598\",\"0.0-135.0\",\"\",\"\",\"2-5\",\"5520\",\"38\",\"1\",\"Training\",\"Stims/Figures/144-J-10-3.bmp\",\"fashasha\",\"Up\",\"38\",\"9\",\"4\",\"9\",\"C1\",\"C\",\"132\"
\"\",\"\",\"approach-retreat\",\"136\",\"1245730\",\"0.0-136.0\",\"\",\"\",\"2-5\",\"4615\",\"39\",\"0\",\"Training\",\"Stims/Figures/144-C-30-3.bmp\",\"za:saza\",\"Right\",\"37\",\"9\",\"5\",\"9\",\"C2\",\"C\",\"133\"
\"\",\"\",\"approach-retreat\",\"137\",\"1252382\",\"0.0-137.0\",\"\",\"\",\"2-5\",\"5132\",\"37\",\"1\",\"Training\",\"Stims/Figures/128-C-30-3.bmp\",\"sa:ha:ha\",\"Right\",\"37\",\"9\",\"6\",\"9\",\"C2\",\"C\",\"134\"
\"\",\"\",\"approach-retreat\",\"138\",\"1259728\",\"0.0-138.0\",\"\",\"\",\"2-5\",\"5822\",\"39\",\"0\",\"Training\",\"Stims/Figures/86-J-0-1.bmp\",\"vafa:va\",\"Left\",\"37\",\"9\",\"7\",\"9\",\"C1\",\"C\",\"135\"
\"\",\"\",\"approach-retreat\",\"139\",\"1267867\",\"0.0-139.0\",\"\",\"\",\"2-5\",\"6623\",\"37\",\"1\",\"Training\",\"Stims/Figures/7-C-20-4.bmp\",\"ta:pa:ta\",\"Right\",\"37\",\"9\",\"8\",\"9\",\"P\",\"C\",\"136\"
\"\",\"\",\"approach-retreat\",\"140\",\"1274482\",\"0.0-140.0\",\"\",\"\",\"2-5\",\"5103\",\"40\",\"1\",\"Training\",\"Stims/Figures/139-J-0-2.bmp\",\"pa:pa:ka\",\"Down\",\"40\",\"9\",\"9\",\"9\",\"P\",\"C\",\"137\"
\"\",\"\",\"approach-retreat\",\"141\",\"1280435\",\"0.0-141.0\",\"\",\"\",\"2-5\",\"4421\",\"40\",\"1\",\"Training\",\"Stims/Figures/27-J-0-1.bmp\",\"mama:la\",\"Down\",\"40\",\"9\",\"10\",\"9\",\"S\",\"C\",\"138\"
\"\",\"\",\"approach-retreat\",\"142\",\"1286481\",\"0.0-142.0\",\"\",\"\",\"2-5\",\"4520\",\"37\",\"1\",\"Training\",\"Stims/Figures/85-J-0-2.bmp\",\"ta:ka:ka\",\"Left\",\"37\",\"9\",\"11\",\"9\",\"P\",\"C\",\"139\"
\"\",\"\",\"approach-retreat\",\"143\",\"1293211\",\"0.0-143.0\",\"\",\"\",\"2-5\",\"5210\",\"38\",\"0\",\"Training\",\"Stims/Figures/7-J-10-4.bmp\",\"sasaha\",\"Down\",\"40\",\"9\",\"12\",\"9\",\"C2\",\"C\",\"140\"
\"\",\"\",\"approach-retreat\",\"144\",\"1300036\",\"0.0-144.0\",\"\",\"\",\"2-5\",\"5301\",\"40\",\"1\",\"Training\",\"Stims/Figures/86-C-30-1.bmp\",\"saha:ha\",\"Up\",\"40\",\"9\",\"13\",\"9\",\"C2\",\"C\",\"141\"
\"\",\"\",\"approach-retreat\",\"145\",\"1305900\",\"0.0-145.0\",\"\",\"\",\"2-5\",\"4351\",\"39\",\"1\",\"Training\",\"Stims/Figures/85-C-20-2.bmp\",\"sa:sa:za\",\"Left\",\"39\",\"9\",\"14\",\"9\",\"C2\",\"C\",\"142\"
\"\",\"\",\"approach-retreat\",\"146\",\"1311985\",\"0.0-146.0\",\"\",\"\",\"2-5\",\"4573\",\"40\",\"1\",\"Training\",\"Stims/Figures/27-C-30-1.bmp\",\"fa:sha:sha\",\"Up\",\"40\",\"9\",\"15\",\"9\",\"C1\",\"C\",\"143\"
\"\",\"\",\"approach-retreat\",\"147\",\"1319065\",\"0.0-147.0\",\"\",\"\",\"2-5\",\"5570\",\"39\",\"1\",\"Training\",\"Stims/Figures/128-J-10-3.bmp\",\"na:mana\",\"Right\",\"39\",\"9\",\"16\",\"9\",\"S\",\"C\",\"144\"
\"29462\",\"\",\"instructions\",\"148\",\"1348527\",\"0.0-148.0\",\"[{\"\"page_index\"\":0,\"\"viewing_time\"\":29460}]\",\"\",\"\",\"\",\"\",\"\",\"\",\"\",\"\",\"\",\"\",\"\",\"\",\"\",\"\",\"\",\"\"
\"\",\"\",\"approach-retreat\",\"149\",\"1361767\",\"0.0-149.0\",\"\",\"\",\"2-5\",\"11727\",\"39\",\"0\",\"Testing\",\"Stims/Figures/139-C-20-2.bmp\",\"na:lana\",\"Right\",\"37\",\"1\",\"1\",\"9\",\"S\",\"C\",\"1\"
\"\",\"\",\"approach-retreat\",\"150\",\"1370215\",\"0.0-150.0\",\"\",\"\",\"2-5\",\"6901\",\"37\",\"1\",\"Testing\",\"Stims/Figures/85-C-20-2.bmp\",\"sa:sa:za\",\"Right\",\"37\",\"1\",\"2\",\"9\",\"C2\",\"C\",\"2\"
\"\",\"\",\"approach-retreat\",\"151\",\"1380938\",\"0.0-151.0\",\"\",\"\",\"2-5\",\"9211\",\"40\",\"1\",\"Testing\",\"Stims/Figures/27-C-30-1.bmp\",\"fa:sha:sha\",\"Up\",\"40\",\"1\",\"3\",\"9\",\"C1\",\"C\",\"3\"
\"\",\"\",\"approach-retreat\",\"152\",\"1387049\",\"0.0-152.0\",\"\",\"\",\"2-5\",\"4593\",\"37\",\"1\",\"Testing\",\"Stims/Figures/139-J-0-2.bmp\",\"pa:pa:ka\",\"Left\",\"37\",\"1\",\"4\",\"9\",\"P\",\"C\",\"4\"
\"\",\"\",\"approach-retreat\",\"153\",\"1395598\",\"0.0-153.0\",\"\",\"\",\"2-5\",\"7019\",\"39\",\"1\",\"Testing\",\"Stims/Figures/57-C-30-1.bmp\",\"tapa:ta\",\"Left\",\"39\",\"1\",\"5\",\"9\",\"P\",\"C\",\"5\"
\"\",\"\",\"approach-retreat\",\"154\",\"1402195\",\"0.0-154.0\",\"\",\"\",\"2-5\",\"5066\",\"40\",\"1\",\"Testing\",\"Stims/Figures/94-J-0-2.bmp\",\"fa:sha:va\",\"Down\",\"40\",\"1\",\"6\",\"9\",\"C1\",\"C\",\"6\"
\"\",\"\",\"approach-retreat\",\"155\",\"1408914\",\"0.0-155.0\",\"\",\"\",\"2-5\",\"5187\",\"38\",\"1\",\"Testing\",\"Stims/Figures/44-J-10-3.bmp\",\"fa:shava\",\"Up\",\"38\",\"1\",\"7\",\"9\",\"C1\",\"C\",\"7\"
\"\",\"\",\"approach-retreat\",\"156\",\"1418654\",\"0.0-156.0\",\"\",\"\",\"2-5\",\"8209\",\"37\",\"1\",\"Testing\",\"Stims/Figures/144-C-30-3.bmp\",\"za:saza\",\"Right\",\"37\",\"1\",\"8\",\"9\",\"C2\",\"C\",\"8\"
\"\",\"\",\"approach-retreat\",\"157\",\"1426290\",\"0.0-157.0\",\"\",\"\",\"2-5\",\"6103\",\"40\",\"1\",\"Testing\",\"Stims/Figures/86-C-30-1.bmp\",\"saha:ha\",\"Up\",\"40\",\"1\",\"9\",\"9\",\"C2\",\"C\",\"9\"
\"\",\"\",\"approach-retreat\",\"158\",\"1434718\",\"0.0-158.0\",\"\",\"\",\"2-5\",\"6916\",\"37\",\"1\",\"Testing\",\"Stims/Figures/94-C-20-2.bmp\",\"na:ma:na\",\"Right\",\"37\",\"1\",\"10\",\"9\",\"S\",\"C\",\"10\"
\"\",\"\",\"approach-retreat\",\"159\",\"1441244\",\"0.0-159.0\",\"\",\"\",\"2-5\",\"5013\",\"37\",\"1\",\"Testing\",\"Stims/Figures/85-J-0-2.bmp\",\"ta:ka:ka\",\"Left\",\"37\",\"1\",\"11\",\"9\",\"P\",\"C\",\"11\"
\"\",\"\",\"approach-retreat\",\"160\",\"1448886\",\"0.0-160.0\",\"\",\"\",\"2-5\",\"6123\",\"38\",\"0\",\"Testing\",\"Stims/Figures/144-J-10-3.bmp\",\"fashasha\",\"Down\",\"40\",\"1\",\"12\",\"9\",\"C1\",\"C\",\"12\"
\"\",\"\",\"approach-retreat\",\"161\",\"1455453\",\"0.0-161.0\",\"\",\"\",\"2-5\",\"5036\",\"38\",\"0\",\"Testing\",\"Stims/Figures/87-C-20-4.bmp\",\"nala:la\",\"Up\",\"40\",\"1\",\"13\",\"9\",\"S\",\"C\",\"13\"
\"\",\"\",\"approach-retreat\",\"162\",\"1462657\",\"0.0-162.0\",\"\",\"\",\"2-5\",\"5677\",\"40\",\"1\",\"Testing\",\"Stims/Figures/128-J-10-3.bmp\",\"na:mana\",\"Down\",\"40\",\"1\",\"14\",\"9\",\"S\",\"C\",\"14\"
\"\",\"\",\"approach-retreat\",\"163\",\"1472008\",\"0.0-163.0\",\"\",\"\",\"2-5\",\"7841\",\"39\",\"0\",\"Testing\",\"Stims/Figures/7-J-10-4.bmp\",\"sasaha\",\"Left\",\"37\",\"1\",\"15\",\"9\",\"C2\",\"C\",\"15\"
\"\",\"\",\"approach-retreat\",\"164\",\"1478467\",\"0.0-164.0\",\"\",\"\",\"2-5\",\"4927\",\"40\",\"1\",\"Testing\",\"Stims/Figures/86-J-0-1.bmp\",\"vafa:va\",\"Down\",\"40\",\"1\",\"16\",\"9\",\"C1\",\"C\",\"16\"
\"\",\"\",\"approach-retreat\",\"165\",\"1487607\",\"0.0-165.0\",\"\",\"\",\"2-5\",\"7608\",\"37\",\"1\",\"Testing\",\"Stims/Figures/44-C-30-3.bmp\",\"sasa:ha\",\"Right\",\"37\",\"1\",\"17\",\"9\",\"C2\",\"C\",\"17\"
\"\",\"\",\"approach-retreat\",\"166\",\"1493460\",\"0.0-166.0\",\"\",\"\",\"2-5\",\"4324\",\"39\",\"1\",\"Testing\",\"Stims/Figures/87-J-10-4.bmp\",\"na:la:la\",\"Right\",\"39\",\"1\",\"18\",\"9\",\"S\",\"C\",\"18\"
\"\",\"\",\"approach-retreat\",\"167\",\"1500800\",\"0.0-167.0\",\"\",\"\",\"2-5\",\"5830\",\"38\",\"1\",\"Testing\",\"Stims/Figures/27-J-0-1.bmp\",\"mama:la\",\"Up\",\"38\",\"1\",\"19\",\"9\",\"S\",\"C\",\"19\"
\"\",\"\",\"approach-retreat\",\"168\",\"1506959\",\"0.0-168.0\",\"\",\"\",\"2-5\",\"4615\",\"40\",\"1\",\"Testing\",\"Stims/Figures/57-J-0-1.bmp\",\"ma:la:na\",\"Down\",\"40\",\"1\",\"20\",\"9\",\"S\",\"C\",\"20\"
\"\",\"\",\"approach-retreat\",\"169\",\"1513680\",\"0.0-169.0\",\"\",\"\",\"2-5\",\"5192\",\"39\",\"1\",\"Testing\",\"Stims/Figures/74-C-20-4.bmp\",\"za:saha\",\"Left\",\"39\",\"1\",\"21\",\"9\",\"C2\",\"C\",\"21\"
\"\",\"\",\"approach-retreat\",\"170\",\"1520036\",\"0.0-170.0\",\"\",\"\",\"2-5\",\"4836\",\"38\",\"1\",\"Testing\",\"Stims/Figures/128-C-30-3.bmp\",\"sa:ha:ha\",\"Down\",\"38\",\"1\",\"22\",\"9\",\"C2\",\"C\",\"22\"
\"\",\"\",\"approach-retreat\",\"171\",\"1526539\",\"0.0-171.0\",\"\",\"\",\"2-5\",\"4995\",\"37\",\"0\",\"Testing\",\"Stims/Figures/7-C-20-4.bmp\",\"ta:pa:ta\",\"Left\",\"39\",\"1\",\"23\",\"9\",\"P\",\"C\",\"23\"
\"\",\"\",\"approach-retreat\",\"172\",\"1534897\",\"0.0-172.0\",\"\",\"\",\"2-5\",\"6838\",\"40\",\"0\",\"Testing\",\"Stims/Figures/74-J-10-4.bmp\",\"pa:ka:ka\",\"Up\",\"38\",\"1\",\"24\",\"9\",\"P\",\"C\",\"24\"
\"\",\"\",\"approach-retreat\",\"173\",\"1541963\",\"0.0-173.0\",\"\",\"\",\"2-5\",\"5534\",\"40\",\"1\",\"Testing\",\"Stims/Figures/85-J-0-2.bmp\",\"ta:ka:ka\",\"Down\",\"40\",\"2\",\"1\",\"9\",\"P\",\"C\",\"25\"
\"\",\"\",\"approach-retreat\",\"174\",\"1549400\",\"0.0-174.0\",\"\",\"\",\"2-5\",\"5902\",\"40\",\"0\",\"Testing\",\"Stims/Figures/74-J-10-4.bmp\",\"pa:ka:ka\",\"Up\",\"38\",\"2\",\"2\",\"9\",\"P\",\"C\",\"26\"
\"\",\"\",\"approach-retreat\",\"175\",\"1555843\",\"0.0-175.0\",\"\",\"\",\"2-5\",\"4932\",\"37\",\"1\",\"Testing\",\"Stims/Figures/86-J-0-1.bmp\",\"vafa:va\",\"Left\",\"37\",\"2\",\"3\",\"9\",\"C1\",\"C\",\"27\"
\"\",\"\",\"approach-retreat\",\"176\",\"1563081\",\"0.0-176.0\",\"\",\"\",\"2-5\",\"5706\",\"39\",\"0\",\"Testing\",\"Stims/Figures/139-C-20-2.bmp\",\"na:lana\",\"Right\",\"37\",\"2\",\"4\",\"9\",\"S\",\"C\",\"28\"
\"\",\"\",\"approach-retreat\",\"177\",\"1573163\",\"0.0-177.0\",\"\",\"\",\"2-5\",\"8553\",\"40\",\"1\",\"Testing\",\"Stims/Figures/94-C-20-2.bmp\",\"na:ma:na\",\"Up\",\"40\",\"2\",\"5\",\"9\",\"S\",\"C\",\"29\"
\"\",\"\",\"approach-retreat\",\"178\",\"1579480\",\"0.0-178.0\",\"\",\"\",\"2-5\",\"4785\",\"37\",\"0\",\"Testing\",\"Stims/Figures/7-C-20-4.bmp\",\"ta:pa:ta\",\"Left\",\"39\",\"2\",\"6\",\"9\",\"P\",\"C\",\"30\"
\"\",\"\",\"approach-retreat\",\"179\",\"1585688\",\"0.0-179.0\",\"\",\"\",\"2-5\",\"4699\",\"40\",\"1\",\"Testing\",\"Stims/Figures/144-C-30-3.bmp\",\"za:saza\",\"Up\",\"40\",\"2\",\"7\",\"9\",\"C2\",\"C\",\"31\"
\"\",\"\",\"approach-retreat\",\"180\",\"1593668\",\"0.0-180.0\",\"\",\"\",\"2-5\",\"6460\",\"38\",\"1\",\"Testing\",\"Stims/Figures/44-C-30-3.bmp\",\"sasa:ha\",\"Down\",\"38\",\"2\",\"8\",\"9\",\"C2\",\"C\",\"32\"
\"\",\"\",\"approach-retreat\",\"181\",\"1601525\",\"0.0-181.0\",\"\",\"\",\"2-5\",\"6326\",\"38\",\"0\",\"Testing\",\"Stims/Figures/144-J-10-3.bmp\",\"fashasha\",\"Down\",\"40\",\"2\",\"9\",\"9\",\"C1\",\"C\",\"33\"
\"\",\"\",\"approach-retreat\",\"182\",\"1608264\",\"0.0-182.0\",\"\",\"\",\"2-5\",\"5214\",\"38\",\"1\",\"Testing\",\"Stims/Figures/74-C-20-4.bmp\",\"za:saha\",\"Down\",\"38\",\"2\",\"10\",\"9\",\"C2\",\"C\",\"34\"
\"\",\"\",\"approach-retreat\",\"183\",\"1615564\",\"0.0-183.0\",\"\",\"\",\"2-5\",\"5770\",\"38\",\"0\",\"Testing\",\"Stims/Figures/7-J-10-4.bmp\",\"sasaha\",\"Down\",\"40\",\"2\",\"11\",\"9\",\"C2\",\"C\",\"35\"
\"\",\"\",\"approach-retreat\",\"184\",\"1622279\",\"0.0-184.0\",\"\",\"\",\"2-5\",\"5207\",\"37\",\"1\",\"Testing\",\"Stims/Figures/57-C-30-1.bmp\",\"tapa:ta\",\"Right\",\"37\",\"2\",\"12\",\"9\",\"P\",\"C\",\"36\"
\"\",\"\",\"approach-retreat\",\"185\",\"1628989\",\"0.0-185.0\",\"\",\"\",\"2-5\",\"5179\",\"37\",\"1\",\"Testing\",\"Stims/Figures/27-J-0-1.bmp\",\"mama:la\",\"Left\",\"37\",\"2\",\"13\",\"9\",\"S\",\"C\",\"37\"
\"\",\"\",\"approach-retreat\",\"186\",\"1636950\",\"0.0-186.0\",\"\",\"\",\"2-5\",\"6453\",\"40\",\"1\",\"Testing\",\"Stims/Figures/128-C-30-3.bmp\",\"sa:ha:ha\",\"Up\",\"40\",\"2\",\"14\",\"9\",\"C2\",\"C\",\"38\"
\"\",\"\",\"approach-retreat\",\"187\",\"1644637\",\"0.0-187.0\",\"\",\"\",\"2-5\",\"6178\",\"39\",\"1\",\"Testing\",\"Stims/Figures/44-J-10-3.bmp\",\"fa:shava\",\"Right\",\"39\",\"2\",\"15\",\"9\",\"C1\",\"C\",\"39\"
\"\",\"\",\"approach-retreat\",\"188\",\"1651419\",\"0.0-188.0\",\"\",\"\",\"2-5\",\"5251\",\"39\",\"0\",\"Testing\",\"Stims/Figures/27-C-30-1.bmp\",\"fa:sha:sha\",\"Right\",\"37\",\"2\",\"16\",\"9\",\"C1\",\"C\",\"40\"
\"\",\"\",\"approach-retreat\",\"189\",\"1657510\",\"0.0-189.0\",\"\",\"\",\"2-5\",\"4571\",\"37\",\"1\",\"Testing\",\"Stims/Figures/87-J-10-4.bmp\",\"na:la:la\",\"Left\",\"37\",\"2\",\"17\",\"9\",\"S\",\"C\",\"41\"
\"\",\"\",\"approach-retreat\",\"190\",\"1664126\",\"0.0-190.0\",\"\",\"\",\"2-5\",\"5093\",\"38\",\"1\",\"Testing\",\"Stims/Figures/57-J-0-1.bmp\",\"ma:la:na\",\"Up\",\"38\",\"2\",\"18\",\"9\",\"S\",\"C\",\"42\"
\"\",\"\",\"approach-retreat\",\"191\",\"1671938\",\"0.0-191.0\",\"\",\"\",\"2-5\",\"6296\",\"39\",\"1\",\"Testing\",\"Stims/Figures/87-C-20-4.bmp\",\"nala:la\",\"Left\",\"39\",\"2\",\"19\",\"9\",\"S\",\"C\",\"43\"
\"\",\"\",\"approach-retreat\",\"192\",\"1680103\",\"0.0-192.0\",\"\",\"\",\"2-5\",\"6654\",\"38\",\"0\",\"Testing\",\"Stims/Figures/85-C-20-2.bmp\",\"sa:sa:za\",\"Up\",\"40\",\"2\",\"20\",\"9\",\"C2\",\"C\",\"44\"
\"\",\"\",\"approach-retreat\",\"193\",\"1690235\",\"0.0-193.0\",\"\",\"\",\"2-5\",\"8622\",\"38\",\"0\",\"Testing\",\"Stims/Figures/128-J-10-3.bmp\",\"na:mana\",\"Down\",\"40\",\"2\",\"21\",\"9\",\"S\",\"C\",\"45\"
\"\",\"\",\"approach-retreat\",\"194\",\"1697024\",\"0.0-194.0\",\"\",\"\",\"2-5\",\"5264\",\"39\",\"1\",\"Testing\",\"Stims/Figures/94-J-0-2.bmp\",\"fa:sha:va\",\"Right\",\"39\",\"2\",\"22\",\"9\",\"C1\",\"C\",\"46\"
\"\",\"\",\"approach-retreat\",\"195\",\"1703399\",\"0.0-195.0\",\"\",\"\",\"2-5\",\"4867\",\"37\",\"1\",\"Testing\",\"Stims/Figures/86-C-30-1.bmp\",\"saha:ha\",\"Right\",\"37\",\"2\",\"23\",\"9\",\"C2\",\"C\",\"47\"
\"\",\"\",\"approach-retreat\",\"196\",\"1712115\",\"0.0-196.0\",\"\",\"\",\"2-5\",\"7207\",\"37\",\"1\",\"Testing\",\"Stims/Figures/139-J-0-2.bmp\",\"pa:pa:ka\",\"Left\",\"37\",\"2\",\"24\",\"9\",\"P\",\"C\",\"48\"
\"\",\"\",\"approach-retreat\",\"197\",\"1718925\",\"0.0-197.0\",\"\",\"\",\"2-5\",\"5302\",\"37\",\"0\",\"Testing\",\"Stims/Figures/85-C-20-2.bmp\",\"sa:sa:za\",\"Left\",\"39\",\"3\",\"1\",\"9\",\"C2\",\"C\",\"49\"
\"\",\"\",\"approach-retreat\",\"198\",\"1726897\",\"0.0-198.0\",\"\",\"\",\"2-5\",\"6452\",\"37\",\"1\",\"Testing\",\"Stims/Figures/27-C-30-1.bmp\",\"fa:sha:sha\",\"Right\",\"37\",\"3\",\"2\",\"9\",\"C1\",\"C\",\"50\"
\"\",\"\",\"approach-retreat\",\"199\",\"1733698\",\"0.0-199.0\",\"\",\"\",\"2-5\",\"5291\",\"40\",\"1\",\"Testing\",\"Stims/Figures/44-J-10-3.bmp\",\"fa:shava\",\"Down\",\"40\",\"3\",\"3\",\"9\",\"C1\",\"C\",\"51\"
\"\",\"\",\"approach-retreat\",\"200\",\"1740296\",\"0.0-200.0\",\"\",\"\",\"2-5\",\"5079\",\"37\",\"1\",\"Testing\",\"Stims/Figures/87-C-20-4.bmp\",\"nala:la\",\"Right\",\"37\",\"3\",\"4\",\"9\",\"S\",\"C\",\"52\"
\"\",\"\",\"approach-retreat\",\"201\",\"1747193\",\"0.0-201.0\",\"\",\"\",\"2-5\",\"5389\",\"40\",\"1\",\"Testing\",\"Stims/Figures/86-C-30-1.bmp\",\"saha:ha\",\"Up\",\"40\",\"3\",\"5\",\"9\",\"C2\",\"C\",\"53\"
\"\",\"\",\"approach-retreat\",\"202\",\"1756298\",\"0.0-202.0\",\"\",\"\",\"2-5\",\"7595\",\"39\",\"1\",\"Testing\",\"Stims/Figures/139-J-0-2.bmp\",\"pa:pa:ka\",\"Right\",\"39\",\"3\",\"6\",\"9\",\"P\",\"C\",\"54\"
\"\",\"\",\"approach-retreat\",\"203\",\"1764047\",\"0.0-203.0\",\"\",\"\",\"2-5\",\"6213\",\"38\",\"0\",\"Testing\",\"Stims/Figures/74-J-10-4.bmp\",\"pa:ka:ka\",\"Down\",\"40\",\"3\",\"7\",\"9\",\"P\",\"C\",\"55\"
\"\",\"\",\"approach-retreat\",\"204\",\"1770446\",\"0.0-204.0\",\"\",\"\",\"2-5\",\"4870\",\"37\",\"1\",\"Testing\",\"Stims/Figures/128-C-30-3.bmp\",\"sa:ha:ha\",\"Right\",\"37\",\"3\",\"8\",\"9\",\"C2\",\"C\",\"56\"
\"\",\"\",\"approach-retreat\",\"205\",\"1780032\",\"0.0-205.0\",\"\",\"\",\"2-5\",\"8075\",\"37\",\"1\",\"Testing\",\"Stims/Figures/94-C-20-2.bmp\",\"na:ma:na\",\"Right\",\"37\",\"3\",\"9\",\"9\",\"S\",\"C\",\"57\"
\"\",\"\",\"approach-retreat\",\"206\",\"1789056\",\"0.0-206.0\",\"\",\"\",\"2-5\",\"7494\",\"40\",\"1\",\"Testing\",\"Stims/Figures/57-C-30-1.bmp\",\"tapa:ta\",\"Up\",\"40\",\"3\",\"10\",\"9\",\"P\",\"C\",\"58\"
\"\",\"\",\"approach-retreat\",\"207\",\"1795498\",\"0.0-207.0\",\"\",\"\",\"2-5\",\"4910\",\"38\",\"1\",\"Testing\",\"Stims/Figures/27-J-0-1.bmp\",\"mama:la\",\"Up\",\"38\",\"3\",\"11\",\"9\",\"S\",\"C\",\"59\"
\"\",\"\",\"approach-retreat\",\"208\",\"1801566\",\"0.0-208.0\",\"\",\"\",\"2-5\",\"4539\",\"40\",\"1\",\"Testing\",\"Stims/Figures/94-J-0-2.bmp\",\"fa:sha:va\",\"Down\",\"40\",\"3\",\"12\",\"9\",\"C1\",\"C\",\"60\"
\"\",\"\",\"approach-retreat\",\"209\",\"1809399\",\"0.0-209.0\",\"\",\"\",\"2-5\",\"6312\",\"39\",\"1\",\"Testing\",\"Stims/Figures/74-C-20-4.bmp\",\"za:saha\",\"Left\",\"39\",\"3\",\"13\",\"9\",\"C2\",\"C\",\"61\"
\"\",\"\",\"approach-retreat\",\"210\",\"1816153\",\"0.0-210.0\",\"\",\"\",\"2-5\",\"5220\",\"39\",\"1\",\"Testing\",\"Stims/Figures/144-C-30-3.bmp\",\"za:saza\",\"Left\",\"39\",\"3\",\"14\",\"9\",\"C2\",\"C\",\"62\"
\"\",\"\",\"approach-retreat\",\"211\",\"1822091\",\"0.0-211.0\",\"\",\"\",\"2-5\",\"4406\",\"37\",\"1\",\"Testing\",\"Stims/Figures/7-J-10-4.bmp\",\"sasaha\",\"Left\",\"37\",\"3\",\"15\",\"9\",\"C2\",\"C\",\"63\"
\"\",\"\",\"approach-retreat\",\"212\",\"1828077\",\"0.0-212.0\",\"\",\"\",\"2-5\",\"4474\",\"40\",\"1\",\"Testing\",\"Stims/Figures/57-J-0-1.bmp\",\"ma:la:na\",\"Down\",\"40\",\"3\",\"16\",\"9\",\"S\",\"C\",\"64\"
\"\",\"\",\"approach-retreat\",\"213\",\"1834495\",\"0.0-213.0\",\"\",\"\",\"2-5\",\"4905\",\"39\",\"1\",\"Testing\",\"Stims/Figures/139-C-20-2.bmp\",\"na:lana\",\"Left\",\"39\",\"3\",\"17\",\"9\",\"S\",\"C\",\"65\"
\"\",\"\",\"approach-retreat\",\"214\",\"1840496\",\"0.0-214.0\",\"\",\"\",\"2-5\",\"4493\",\"38\",\"0\",\"Testing\",\"Stims/Figures/128-J-10-3.bmp\",\"na:mana\",\"Down\",\"40\",\"3\",\"18\",\"9\",\"S\",\"C\",\"66\"
\"\",\"\",\"approach-retreat\",\"215\",\"1847133\",\"0.0-215.0\",\"\",\"\",\"2-5\",\"5127\",\"38\",\"0\",\"Testing\",\"Stims/Figures/44-C-30-3.bmp\",\"sasa:ha\",\"Up\",\"40\",\"3\",\"19\",\"9\",\"C2\",\"C\",\"67\"
\"\",\"\",\"approach-retreat\",\"216\",\"1854445\",\"0.0-216.0\",\"\",\"\",\"2-5\",\"5802\",\"38\",\"1\",\"Testing\",\"Stims/Figures/86-J-0-1.bmp\",\"vafa:va\",\"Up\",\"38\",\"3\",\"20\",\"9\",\"C1\",\"C\",\"68\"
\"\",\"\",\"approach-retreat\",\"217\",\"1860914\",\"0.0-217.0\",\"\",\"\",\"2-5\",\"4949\",\"39\",\"1\",\"Testing\",\"Stims/Figures/7-C-20-4.bmp\",\"ta:pa:ta\",\"Left\",\"39\",\"3\",\"21\",\"9\",\"P\",\"C\",\"69\"
\"\",\"\",\"approach-retreat\",\"218\",\"1867479\",\"0.0-218.0\",\"\",\"\",\"2-5\",\"5052\",\"40\",\"1\",\"Testing\",\"Stims/Figures/85-J-0-2.bmp\",\"ta:ka:ka\",\"Down\",\"40\",\"3\",\"22\",\"9\",\"P\",\"C\",\"70\"
\"\",\"\",\"approach-retreat\",\"219\",\"1874375\",\"0.0-219.0\",\"\",\"\",\"2-5\",\"5388\",\"40\",\"0\",\"Testing\",\"Stims/Figures/87-J-10-4.bmp\",\"na:la:la\",\"Up\",\"38\",\"3\",\"23\",\"9\",\"S\",\"C\",\"71\"
\"\",\"\",\"approach-retreat\",\"220\",\"1882181\",\"0.0-220.0\",\"\",\"\",\"2-5\",\"6296\",\"39\",\"1\",\"Testing\",\"Stims/Figures/144-J-10-3.bmp\",\"fashasha\",\"Right\",\"39\",\"3\",\"24\",\"9\",\"C1\",\"C\",\"72\"
\"\",\"\",\"approach-retreat\",\"221\",\"1888936\",\"0.0-221.0\",\"\",\"\",\"2-5\",\"5231\",\"38\",\"1\",\"Testing\",\"Stims/Figures/87-C-20-4.bmp\",\"nala:la\",\"Down\",\"38\",\"4\",\"1\",\"9\",\"S\",\"C\",\"73\"
\"\",\"\",\"approach-retreat\",\"222\",\"1894939\",\"0.0-222.0\",\"\",\"\",\"2-5\",\"4479\",\"39\",\"0\",\"Testing\",\"Stims/Figures/7-J-10-4.bmp\",\"sasaha\",\"Left\",\"37\",\"4\",\"2\",\"9\",\"C2\",\"C\",\"74\"
\"\",\"\",\"approach-retreat\",\"223\",\"1901137\",\"0.0-223.0\",\"\",\"\",\"2-5\",\"4679\",\"39\",\"1\",\"Testing\",\"Stims/Figures/44-C-30-3.bmp\",\"sasa:ha\",\"Left\",\"39\",\"4\",\"3\",\"9\",\"C2\",\"C\",\"75\"
\"\",\"\",\"approach-retreat\",\"224\",\"1908427\",\"0.0-224.0\",\"\",\"\",\"2-5\",\"5777\",\"38\",\"0\",\"Testing\",\"Stims/Figures/85-C-20-2.bmp\",\"sa:sa:za\",\"Up\",\"40\",\"4\",\"4\",\"9\",\"C2\",\"C\",\"76\"
\"\",\"\",\"approach-retreat\",\"225\",\"1914631\",\"0.0-225.0\",\"\",\"\",\"2-5\",\"4693\",\"39\",\"0\",\"Testing\",\"Stims/Figures/86-C-30-1.bmp\",\"saha:ha\",\"Right\",\"37\",\"4\",\"5\",\"9\",\"C2\",\"C\",\"77\"
\"\",\"\",\"approach-retreat\",\"226\",\"1920758\",\"0.0-226.0\",\"\",\"\",\"2-5\",\"4573\",\"37\",\"1\",\"Testing\",\"Stims/Figures/44-J-10-3.bmp\",\"fa:shava\",\"Left\",\"37\",\"4\",\"6\",\"9\",\"C1\",\"C\",\"78\"
\"\",\"\",\"approach-retreat\",\"227\",\"1926815\",\"0.0-227.0\",\"\",\"\",\"2-5\",\"4550\",\"38\",\"0\",\"Testing\",\"Stims/Figures/128-J-10-3.bmp\",\"na:mana\",\"Down\",\"40\",\"4\",\"7\",\"9\",\"S\",\"C\",\"79\"
\"\",\"\",\"approach-retreat\",\"228\",\"1933317\",\"0.0-228.0\",\"\",\"\",\"2-5\",\"4993\",\"40\",\"1\",\"Testing\",\"Stims/Figures/94-J-0-2.bmp\",\"fa:sha:va\",\"Down\",\"40\",\"4\",\"8\",\"9\",\"C1\",\"C\",\"80\"
\"\",\"\",\"approach-retreat\",\"229\",\"1939906\",\"0.0-229.0\",\"\",\"\",\"2-5\",\"5074\",\"39\",\"1\",\"Testing\",\"Stims/Figures/94-C-20-2.bmp\",\"na:ma:na\",\"Left\",\"39\",\"4\",\"9\",\"9\",\"S\",\"C\",\"81\"
\"\",\"\",\"approach-retreat\",\"230\",\"1947037\",\"0.0-230.0\",\"\",\"\",\"2-5\",\"5600\",\"40\",\"1\",\"Testing\",\"Stims/Figures/144-C-30-3.bmp\",\"za:saza\",\"Up\",\"40\",\"4\",\"10\",\"9\",\"C2\",\"C\",\"82\"
\"\",\"\",\"approach-retreat\",\"231\",\"1952920\",\"0.0-231.0\",\"\",\"\",\"2-5\",\"4352\",\"40\",\"0\",\"Testing\",\"Stims/Figures/144-J-10-3.bmp\",\"fashasha\",\"Up\",\"38\",\"4\",\"11\",\"9\",\"C1\",\"C\",\"83\"
\"\",\"\",\"approach-retreat\",\"232\",\"1960708\",\"0.0-232.0\",\"\",\"\",\"2-5\",\"6274\",\"37\",\"1\",\"Testing\",\"Stims/Figures/139-C-20-2.bmp\",\"na:lana\",\"Right\",\"37\",\"4\",\"12\",\"9\",\"S\",\"C\",\"84\"
\"\",\"\",\"approach-retreat\",\"233\",\"1968023\",\"0.0-233.0\",\"\",\"\",\"2-5\",\"5797\",\"40\",\"1\",\"Testing\",\"Stims/Figures/85-J-0-2.bmp\",\"ta:ka:ka\",\"Down\",\"40\",\"4\",\"13\",\"9\",\"P\",\"C\",\"85\"
\"\",\"\",\"approach-retreat\",\"234\",\"1977350\",\"0.0-234.0\",\"\",\"\",\"2-5\",\"7805\",\"39\",\"1\",\"Testing\",\"Stims/Figures/7-C-20-4.bmp\",\"ta:pa:ta\",\"Left\",\"39\",\"4\",\"14\",\"9\",\"P\",\"C\",\"86\"
\"\",\"\",\"approach-retreat\",\"235\",\"1987736\",\"0.0-235.0\",\"\",\"\",\"2-5\",\"8865\",\"40\",\"1\",\"Testing\",\"Stims/Figures/27-C-30-1.bmp\",\"fa:sha:sha\",\"Up\",\"40\",\"4\",\"15\",\"9\",\"C1\",\"C\",\"87\"
\"\",\"\",\"approach-retreat\",\"236\",\"1993845\",\"0.0-236.0\",\"\",\"\",\"2-5\",\"4591\",\"37\",\"1\",\"Testing\",\"Stims/Figures/57-J-0-1.bmp\",\"ma:la:na\",\"Left\",\"37\",\"4\",\"16\",\"9\",\"S\",\"C\",\"88\"
\"\",\"\",\"approach-retreat\",\"237\",\"2000416\",\"0.0-237.0\",\"\",\"\",\"2-5\",\"5060\",\"38\",\"0\",\"Testing\",\"Stims/Figures/86-J-0-1.bmp\",\"vafa:va\",\"Down\",\"40\",\"4\",\"17\",\"9\",\"C1\",\"C\",\"89\"
\"\",\"\",\"approach-retreat\",\"238\",\"2007723\",\"0.0-238.0\",\"\",\"\",\"2-5\",\"5797\",\"37\",\"1\",\"Testing\",\"Stims/Figures/74-C-20-4.bmp\",\"za:saha\",\"Right\",\"37\",\"4\",\"18\",\"9\",\"C2\",\"C\",\"90\"
\"\",\"\",\"approach-retreat\",\"239\",\"2014287\",\"0.0-239.0\",\"\",\"\",\"2-5\",\"5048\",\"37\",\"0\",\"Testing\",\"Stims/Figures/74-J-10-4.bmp\",\"pa:ka:ka\",\"Right\",\"39\",\"4\",\"19\",\"9\",\"P\",\"C\",\"91\"
\"\",\"\",\"approach-retreat\",\"240\",\"2021408\",\"0.0-240.0\",\"\",\"\",\"2-5\",\"5592\",\"40\",\"1\",\"Testing\",\"Stims/Figures/128-C-30-3.bmp\",\"sa:ha:ha\",\"Up\",\"40\",\"4\",\"20\",\"9\",\"C2\",\"C\",\"92\"
\"\",\"\",\"approach-retreat\",\"241\",\"2028661\",\"0.0-241.0\",\"\",\"\",\"2-5\",\"5736\",\"40\",\"1\",\"Testing\",\"Stims/Figures/139-J-0-2.bmp\",\"pa:pa:ka\",\"Down\",\"40\",\"4\",\"21\",\"9\",\"P\",\"C\",\"93\"
\"\",\"\",\"approach-retreat\",\"242\",\"2035989\",\"0.0-242.0\",\"\",\"\",\"2-5\",\"5802\",\"37\",\"1\",\"Testing\",\"Stims/Figures/57-C-30-1.bmp\",\"tapa:ta\",\"Right\",\"37\",\"4\",\"22\",\"9\",\"P\",\"C\",\"94\"
\"\",\"\",\"approach-retreat\",\"243\",\"2045521\",\"0.0-243.0\",\"\",\"\",\"2-5\",\"8023\",\"38\",\"1\",\"Testing\",\"Stims/Figures/27-J-0-1.bmp\",\"mama:la\",\"Up\",\"38\",\"4\",\"23\",\"9\",\"S\",\"C\",\"95\"
\"\",\"\",\"approach-retreat\",\"244\",\"2053816\",\"0.0-244.0\",\"\",\"\",\"2-5\",\"6786\",\"37\",\"0\",\"Testing\",\"Stims/Figures/87-J-10-4.bmp\",\"na:la:la\",\"Right\",\"39\",\"4\",\"24\",\"9\",\"S\",\"C\",\"96\"
\"41826\",\"\",\"survey-text\",\"245\",\"2095670\",\"0.0-245.0\",\"\",\"{\"\"Q0\"\":\"\"PS160015\"\"}\",\"\",\"\",\"\",\"\",\"\",\"\",\"\",\"\",\"\",\"\",\"\",\"\",\"\",\"\",\"\"
