"rt","key_press","trial_type","trial_index","time_elapsed","internal_node_id","view_history","responses","Id","Rt","ResKeyCode","ResCorr","TrialType2","Image","Label","Location","CorrectResponse","Block","BlockTrial","Condition","LabelType","Subcondition","trialNum"
"5916","32","text","0","5923","0.0-0.0-0.0","","","","","","","","","","","","","","","","",""
"75575","","instructions","1","81505","0.0-1.0","[{""page_index"":0,""viewing_time"":75574}]","","","","","","","","","","","","","","","",""
"37522","","survey-multi-choice","2","119160","0.0-2.0","","{""Q0"":""Da"",""Q1"":""Da"",""Q2"":""Da"",""Q3"":""Da"",""Q4"":""Da"",""Q5"":""Da""}","","","","","","","","","","","","","","",""
"","","bio","3","128727","0.0-3.0","","{""age"":""19"",""gender"":""f"",""specify"":""""}","","","","","","","","","","","","","","",""
"","","approach-retreat","4","137332","0.0-4.0","","","2-4","6837","38","0","Training","Stims/Figures/44-C-30-3.bmp","sa:haha","Up","40","1","1","6A","C2","C","1"
"","","approach-retreat","5","147753","0.0-5.0","","","2-4","8893","39","1","Training","Stims/Figures/102-J-10-4.bmp","fafa:va","Right","39","1","2","6A","C1","C","2"
"","","approach-retreat","6","155097","0.0-6.0","","","2-4","5820","37","1","Training","Stims/Figures/27-C-30-1.bmp","za:sa:ha","Right","37","1","3","6A","C2","C","3"
"","","approach-retreat","7","161487","0.0-7.0","","","2-4","4868","37","1","Training","Stims/Figures/74-J-10-4.bmp","vafa:sha","Left","37","1","4","6A","C1","C","4"
"","","approach-retreat","8","169383","0.0-8.0","","","2-4","6351","40","0","Training","Stims/Figures/74-C-20-4.bmp","sa:ha:ha","Down","38","1","5","6A","C2","C","5"
"","","approach-retreat","9","175902","0.0-9.0","","","2-4","4998","37","1","Training","Stims/Figures/85-J-0-2.bmp","fa:fa:sha","Left","37","1","6","6A","C1","C","6"
"","","approach-retreat","10","182029","0.0-10.0","","","2-4","4605","40","1","Training","Stims/Figures/100-J-10-3.bmp","fa:shasha","Down","40","1","7","6A","C1","C","7"
"","","approach-retreat","11","189112","0.0-11.0","","","2-4","5544","37","1","Training","Stims/Figures/84-J-0-2.bmp","va:sha:sha","Left","37","1","8","6A","C1","C","8"
"","","approach-retreat","12","196899","0.0-12.0","","","2-4","6266","40","0","Training","Stims/Figures/102-C-20-4.bmp","za:saza","Down","38","1","9","6A","C2","C","9"
"","","approach-retreat","13","203714","0.0-13.0","","","2-4","5295","38","1","Training","Stims/Figures/27-J-0-1.bmp","vafasha","Up","38","1","10","6A","C1","C","10"
"","","approach-retreat","14","210280","0.0-14.0","","","2-4","5045","39","1","Training","Stims/Figures/93-J-0-1.bmp","va:fa:va","Right","39","1","11","6A","C1","C","11"
"","","approach-retreat","15","216944","0.0-15.0","","","2-4","5146","38","1","Training","Stims/Figures/100-C-30-3.bmp","zaha:ha","Down","38","1","12","6A","C2","C","12"
"","","approach-retreat","16","222754","0.0-16.0","","","2-4","4289","39","0","Training","Stims/Figures/93-C-30-1.bmp","sa:saza","Right","37","1","13","6A","C2","C","13"
"","","approach-retreat","17","229568","0.0-17.0","","","2-4","5288","38","1","Training","Stims/Figures/44-J-10-3.bmp","fa:fava","Up","38","1","14","6A","C1","C","14"
"","","approach-retreat","18","235757","0.0-18.0","","","2-4","4669","38","0","Training","Stims/Figures/85-C-20-2.bmp","za:sa:za","Up","40","1","15","6A","C2","C","15"
"","","approach-retreat","19","241735","0.0-19.0","","","2-4","4456","37","0","Training","Stims/Figures/84-C-20-2.bmp","sa:sa:za","Left","39","1","16","6A","C2","C","16"
"","","approach-retreat","20","247405","0.0-20.0","","","2-4","4152","38","0","Training","Stims/Figures/100-C-30-3.bmp","zaha:ha","Up","40","2","1","6A","C2","C","17"
"","","approach-retreat","21","253114","0.0-21.0","","","2-4","4194","40","0","Training","Stims/Figures/84-C-20-2.bmp","sa:sa:za","Down","38","2","2","6A","C2","C","18"
"","","approach-retreat","22","258776","0.0-22.0","","","2-4","4149","38","0","Training","Stims/Figures/93-C-30-1.bmp","sa:saza","Up","40","2","3","6A","C2","C","19"
"","","approach-retreat","23","264425","0.0-23.0","","","2-4","4127","39","1","Training","Stims/Figures/85-J-0-2.bmp","fa:fa:sha","Right","39","2","4","6A","C1","C","20"
"","","approach-retreat","24","271154","0.0-24.0","","","2-4","5208","37","1","Training","Stims/Figures/74-J-10-4.bmp","vafa:sha","Left","37","2","5","6A","C1","C","21"
"","","approach-retreat","25","276886","0.0-25.0","","","2-4","4208","37","1","Training","Stims/Figures/84-J-0-2.bmp","va:sha:sha","Left","37","2","6","6A","C1","C","22"
"","","approach-retreat","26","282770","0.0-26.0","","","2-4","4354","39","1","Training","Stims/Figures/93-J-0-1.bmp","va:fa:va","Right","39","2","7","6A","C1","C","23"
"","","approach-retreat","27","288712","0.0-27.0","","","2-4","4420","39","0","Training","Stims/Figures/27-C-30-1.bmp","za:sa:ha","Right","37","2","8","6A","C2","C","24"
"","","approach-retreat","28","294518","0.0-28.0","","","2-4","4277","38","1","Training","Stims/Figures/44-J-10-3.bmp","fa:fava","Up","38","2","9","6A","C1","C","25"
"","","approach-retreat","29","300108","0.0-29.0","","","2-4","4065","39","1","Training","Stims/Figures/100-J-10-3.bmp","fa:shasha","Right","39","2","10","6A","C1","C","26"
"","","approach-retreat","30","305983","0.0-30.0","","","2-4","4348","37","1","Training","Stims/Figures/27-J-0-1.bmp","vafasha","Left","37","2","11","6A","C1","C","27"
"","","approach-retreat","31","312259","0.0-31.0","","","2-4","4752","40","1","Training","Stims/Figures/102-J-10-4.bmp","fafa:va","Down","40","2","12","6A","C1","C","28"
"","","approach-retreat","32","318376","0.0-32.0","","","2-4","4596","38","0","Training","Stims/Figures/44-C-30-3.bmp","sa:haha","Up","40","2","13","6A","C2","C","29"
"","","approach-retreat","33","324901","0.0-33.0","","","2-4","4994","38","1","Training","Stims/Figures/85-C-20-2.bmp","za:sa:za","Down","38","2","14","6A","C2","C","30"
"","","approach-retreat","34","331030","0.0-34.0","","","2-4","4607","39","1","Training","Stims/Figures/74-C-20-4.bmp","sa:ha:ha","Left","39","2","15","6A","C2","C","31"
"","","approach-retreat","35","336706","0.0-35.0","","","2-4","4154","40","0","Training","Stims/Figures/102-C-20-4.bmp","za:saza","Down","38","2","16","6A","C2","C","32"
"","","approach-retreat","36","343079","0.0-36.0","","","2-4","4850","38","1","Training","Stims/Figures/84-C-20-2.bmp","sa:sa:za","Down","38","3","1","6A","C2","C","33"
"","","approach-retreat","37","350687","0.0-37.0","","","2-4","6086","38","1","Training","Stims/Figures/102-J-10-4.bmp","fafa:va","Up","38","3","2","6A","C1","C","34"
"","","approach-retreat","38","357582","0.0-38.0","","","2-4","5338","40","1","Training","Stims/Figures/85-C-20-2.bmp","za:sa:za","Up","40","3","3","6A","C2","C","35"
"","","approach-retreat","39","363428","0.0-39.0","","","2-4","4321","38","0","Training","Stims/Figures/93-J-0-1.bmp","va:fa:va","Down","40","3","4","6A","C1","C","36"
"","","approach-retreat","40","369270","0.0-40.0","","","2-4","4320","39","1","Training","Stims/Figures/84-J-0-2.bmp","va:sha:sha","Right","39","3","5","6A","C1","C","37"
"","","approach-retreat","41","375652","0.0-41.0","","","2-4","4864","37","0","Training","Stims/Figures/102-C-20-4.bmp","za:saza","Left","39","3","6","6A","C2","C","38"
"","","approach-retreat","42","382513","0.0-42.0","","","2-4","5340","38","1","Training","Stims/Figures/44-J-10-3.bmp","fa:fava","Up","38","3","7","6A","C1","C","39"
"","","approach-retreat","43","388716","0.0-43.0","","","2-4","4681","39","0","Training","Stims/Figures/100-J-10-3.bmp","fa:shasha","Left","37","3","8","6A","C1","C","40"
"","","approach-retreat","44","395039","0.0-44.0","","","2-4","4803","40","1","Training","Stims/Figures/74-J-10-4.bmp","vafa:sha","Down","40","3","9","6A","C1","C","41"
"","","approach-retreat","45","400898","0.0-45.0","","","2-4","4338","39","1","Training","Stims/Figures/44-C-30-3.bmp","sa:haha","Left","39","3","10","6A","C2","C","42"
"","","approach-retreat","46","407642","0.0-46.0","","","2-4","5223","40","1","Training","Stims/Figures/27-C-30-1.bmp","za:sa:ha","Up","40","3","11","6A","C2","C","43"
"","","approach-retreat","47","414791","0.0-47.0","","","2-4","5628","38","0","Training","Stims/Figures/27-J-0-1.bmp","vafasha","Down","40","3","12","6A","C1","C","44"
"","","approach-retreat","48","423236","0.0-48.0","","","2-4","6923","37","0","Training","Stims/Figures/100-C-30-3.bmp","zaha:ha","Left","39","3","13","6A","C2","C","45"
"","","approach-retreat","49","430180","0.0-49.0","","","2-4","5414","39","1","Training","Stims/Figures/85-J-0-2.bmp","fa:fa:sha","Right","39","3","14","6A","C1","C","46"
"","","approach-retreat","50","436229","0.0-50.0","","","2-4","4530","39","0","Training","Stims/Figures/93-C-30-1.bmp","sa:saza","Right","37","3","15","6A","C2","C","47"
"","","approach-retreat","51","442045","0.0-51.0","","","2-4","4281","39","0","Training","Stims/Figures/74-C-20-4.bmp","sa:ha:ha","Right","37","3","16","6A","C2","C","48"
"","","approach-retreat","52","448172","0.0-52.0","","","2-4","4606","38","1","Training","Stims/Figures/100-C-30-3.bmp","zaha:ha","Down","38","4","1","6A","C2","C","49"
"","","approach-retreat","53","454187","0.0-53.0","","","2-4","4482","38","1","Training","Stims/Figures/27-C-30-1.bmp","za:sa:ha","Down","38","4","2","6A","C2","C","50"
"","","approach-retreat","54","460180","0.0-54.0","","","2-4","4460","39","1","Training","Stims/Figures/27-J-0-1.bmp","vafasha","Right","39","4","3","6A","C1","C","51"
"","","approach-retreat","55","466440","0.0-55.0","","","2-4","4749","37","1","Training","Stims/Figures/84-C-20-2.bmp","sa:sa:za","Right","37","4","4","6A","C2","C","52"
"","","approach-retreat","56","472384","0.0-56.0","","","2-4","4424","40","1","Training","Stims/Figures/85-C-20-2.bmp","za:sa:za","Up","40","4","5","6A","C2","C","53"
"","","approach-retreat","57","479089","0.0-57.0","","","2-4","5190","38","0","Training","Stims/Figures/100-J-10-3.bmp","fa:shasha","Down","40","4","6","6A","C1","C","54"
"","","approach-retreat","58","484834","0.0-58.0","","","2-4","4225","39","1","Training","Stims/Figures/102-J-10-4.bmp","fafa:va","Right","39","4","7","6A","C1","C","55"
"","","approach-retreat","59","491640","0.0-59.0","","","2-4","5287","40","1","Training","Stims/Figures/74-C-20-4.bmp","sa:ha:ha","Up","40","4","8","6A","C2","C","56"
"","","approach-retreat","60","497391","0.0-60.0","","","2-4","4231","37","1","Training","Stims/Figures/85-J-0-2.bmp","fa:fa:sha","Left","37","4","9","6A","C1","C","57"
"","","approach-retreat","61","503559","0.0-61.0","","","2-4","4648","37","1","Training","Stims/Figures/93-J-0-1.bmp","va:fa:va","Left","37","4","10","6A","C1","C","58"
"","","approach-retreat","62","509562","0.0-62.0","","","2-4","4483","40","0","Training","Stims/Figures/74-J-10-4.bmp","vafa:sha","Up","38","4","11","6A","C1","C","59"
"","","approach-retreat","63","515113","0.0-63.0","","","2-4","4030","37","0","Training","Stims/Figures/102-C-20-4.bmp","za:saza","Left","39","4","12","6A","C2","C","60"
"","","approach-retreat","64","521420","0.0-64.0","","","2-4","4787","39","0","Training","Stims/Figures/44-J-10-3.bmp","fa:fava","Left","37","4","13","6A","C1","C","61"
"","","approach-retreat","65","527077","0.0-65.0","","","2-4","4136","39","0","Training","Stims/Figures/44-C-30-3.bmp","sa:haha","Right","37","4","14","6A","C2","C","62"
"","","approach-retreat","66","533284","0.0-66.0","","","2-4","4688","40","0","Training","Stims/Figures/84-J-0-2.bmp","va:sha:sha","Up","38","4","15","6A","C1","C","63"
"","","approach-retreat","67","539107","0.0-67.0","","","2-4","4305","40","0","Training","Stims/Figures/93-C-30-1.bmp","sa:saza","Down","38","4","16","6A","C2","C","64"
"","","approach-retreat","68","545424","0.0-68.0","","","2-4","4795","37","0","Training","Stims/Figures/100-C-30-3.bmp","zaha:ha","Left","39","5","1","6A","C2","C","65"
"","","approach-retreat","69","551018","0.0-69.0","","","2-4","4076","38","1","Training","Stims/Figures/93-C-30-1.bmp","sa:saza","Down","38","5","2","6A","C2","C","66"
"","","approach-retreat","70","556727","0.0-70.0","","","2-4","4189","38","1","Training","Stims/Figures/27-C-30-1.bmp","za:sa:ha","Down","38","5","3","6A","C2","C","67"
"","","approach-retreat","71","563349","0.0-71.0","","","2-4","5098","40","1","Training","Stims/Figures/84-C-20-2.bmp","sa:sa:za","Up","40","5","4","6A","C2","C","68"
"","","approach-retreat","72","570016","0.0-72.0","","","2-4","5145","37","1","Training","Stims/Figures/102-C-20-4.bmp","za:saza","Right","37","5","5","6A","C2","C","69"
"","","approach-retreat","73","575921","0.0-73.0","","","2-4","4384","38","1","Training","Stims/Figures/102-J-10-4.bmp","fafa:va","Up","38","5","6","6A","C1","C","70"
"","","approach-retreat","74","581853","0.0-74.0","","","2-4","4409","38","1","Training","Stims/Figures/44-J-10-3.bmp","fa:fava","Up","38","5","7","6A","C1","C","71"
"","","approach-retreat","75","587744","0.0-75.0","","","2-4","4371","39","1","Training","Stims/Figures/74-J-10-4.bmp","vafa:sha","Right","39","5","8","6A","C1","C","72"
"","","approach-retreat","76","593843","0.0-76.0","","","2-4","4580","37","1","Training","Stims/Figures/93-J-0-1.bmp","va:fa:va","Left","37","5","9","6A","C1","C","73"
"","","approach-retreat","77","599933","0.0-77.0","","","2-4","4568","37","1","Training","Stims/Figures/44-C-30-3.bmp","sa:haha","Right","37","5","10","6A","C2","C","74"
"","","approach-retreat","78","606243","0.0-78.0","","","2-4","4789","37","1","Training","Stims/Figures/84-J-0-2.bmp","va:sha:sha","Left","37","5","11","6A","C1","C","75"
"","","approach-retreat","79","613803","0.0-79.0","","","2-4","6041","38","1","Training","Stims/Figures/74-C-20-4.bmp","sa:ha:ha","Down","38","5","12","6A","C2","C","76"
"","","approach-retreat","80","620348","0.0-80.0","","","2-4","5023","37","0","Training","Stims/Figures/85-C-20-2.bmp","za:sa:za","Left","39","5","13","6A","C2","C","77"
"","","approach-retreat","81","625848","0.0-81.0","","","2-4","3978","40","1","Training","Stims/Figures/27-J-0-1.bmp","vafasha","Down","40","5","14","6A","C1","C","78"
"","","approach-retreat","82","633117","0.0-82.0","","","2-4","5748","38","1","Training","Stims/Figures/85-J-0-2.bmp","fa:fa:sha","Up","38","5","15","6A","C1","C","79"
"","","approach-retreat","83","639154","0.0-83.0","","","2-4","4517","39","1","Training","Stims/Figures/100-J-10-3.bmp","fa:shasha","Right","39","5","16","6A","C1","C","80"
"","","approach-retreat","84","645275","0.0-84.0","","","2-4","4600","38","1","Training","Stims/Figures/74-C-20-4.bmp","sa:ha:ha","Down","38","6","1","6A","C2","C","81"
"","","approach-retreat","85","651359","0.0-85.0","","","2-4","4563","38","1","Training","Stims/Figures/44-J-10-3.bmp","fa:fava","Up","38","6","2","6A","C1","C","82"
"","","approach-retreat","86","657218","0.0-86.0","","","2-4","4338","37","0","Training","Stims/Figures/100-J-10-3.bmp","fa:shasha","Right","39","6","3","6A","C1","C","83"
"","","approach-retreat","87","662949","0.0-87.0","","","2-4","4207","38","1","Training","Stims/Figures/85-J-0-2.bmp","fa:fa:sha","Up","38","6","4","6A","C1","C","84"
"","","approach-retreat","88","669020","0.0-88.0","","","2-4","4551","37","1","Training","Stims/Figures/93-J-0-1.bmp","va:fa:va","Left","37","6","5","6A","C1","C","85"
"","","approach-retreat","89","677425","0.0-89.0","","","2-4","6884","40","0","Training","Stims/Figures/100-C-30-3.bmp","zaha:ha","Down","38","6","6","6A","C2","C","86"
"","","approach-retreat","90","683064","0.0-90.0","","","2-4","4118","39","1","Training","Stims/Figures/102-J-10-4.bmp","fafa:va","Right","39","6","7","6A","C1","C","87"
"","","approach-retreat","91","688772","0.0-91.0","","","2-4","4180","39","1","Training","Stims/Figures/44-C-30-3.bmp","sa:haha","Left","39","6","8","6A","C2","C","88"
"","","approach-retreat","92","695391","0.0-92.0","","","2-4","5093","38","1","Training","Stims/Figures/102-C-20-4.bmp","za:saza","Down","38","6","9","6A","C2","C","89"
"","","approach-retreat","93","701033","0.0-93.0","","","2-4","4120","39","1","Training","Stims/Figures/84-C-20-2.bmp","sa:sa:za","Left","39","6","10","6A","C2","C","90"
"","","approach-retreat","94","707134","0.0-94.0","","","2-4","4579","37","1","Training","Stims/Figures/93-C-30-1.bmp","sa:saza","Right","37","6","11","6A","C2","C","91"
"","","approach-retreat","95","713108","0.0-95.0","","","2-4","4435","40","1","Training","Stims/Figures/27-J-0-1.bmp","vafasha","Down","40","6","12","6A","C1","C","92"
"","","approach-retreat","96","718990","0.0-96.0","","","2-4","4357","37","1","Training","Stims/Figures/74-J-10-4.bmp","vafa:sha","Left","37","6","13","6A","C1","C","93"
"","","approach-retreat","97","725667","0.0-97.0","","","2-4","5156","38","1","Training","Stims/Figures/84-J-0-2.bmp","va:sha:sha","Up","38","6","14","6A","C1","C","94"
"","","approach-retreat","98","731507","0.0-98.0","","","2-4","4318","39","0","Training","Stims/Figures/85-C-20-2.bmp","za:sa:za","Right","37","6","15","6A","C2","C","95"
"","","approach-retreat","99","739465","0.0-99.0","","","2-4","6436","38","0","Training","Stims/Figures/27-C-30-1.bmp","za:sa:ha","Up","40","6","16","6A","C2","C","96"
"","","approach-retreat","100","745188","0.0-100.0","","","2-4","4204","39","1","Training","Stims/Figures/85-J-0-2.bmp","fa:fa:sha","Right","39","7","1","6A","C1","C","97"
"","","approach-retreat","101","751276","0.0-101.0","","","2-4","4566","38","1","Training","Stims/Figures/85-C-20-2.bmp","za:sa:za","Down","38","7","2","6A","C2","C","98"
"","","approach-retreat","102","758683","0.0-102.0","","","2-4","5885","37","1","Training","Stims/Figures/74-J-10-4.bmp","vafa:sha","Left","37","7","3","6A","C1","C","99"
"","","approach-retreat","103","764332","0.0-103.0","","","2-4","4127","39","1","Training","Stims/Figures/44-J-10-3.bmp","fa:fava","Right","39","7","4","6A","C1","C","100"
"","","approach-retreat","104","771031","0.0-104.0","","","2-4","5175","40","1","Training","Stims/Figures/27-J-0-1.bmp","vafasha","Down","40","7","5","6A","C1","C","101"
"","","approach-retreat","105","776846","0.0-105.0","","","2-4","4297","40","1","Training","Stims/Figures/74-C-20-4.bmp","sa:ha:ha","Up","40","7","6","6A","C2","C","102"
"","","approach-retreat","106","782647","0.0-106.0","","","2-4","4279","38","1","Training","Stims/Figures/100-J-10-3.bmp","fa:shasha","Up","38","7","7","6A","C1","C","103"
"","","approach-retreat","107","788776","0.0-107.0","","","2-4","4605","40","1","Training","Stims/Figures/93-J-0-1.bmp","va:fa:va","Down","40","7","8","6A","C1","C","104"
"","","approach-retreat","108","794756","0.0-108.0","","","2-4","4460","37","1","Training","Stims/Figures/102-J-10-4.bmp","fafa:va","Left","37","7","9","6A","C1","C","105"
"","","approach-retreat","109","800568","0.0-109.0","","","2-4","4293","40","1","Training","Stims/Figures/93-C-30-1.bmp","sa:saza","Up","40","7","10","6A","C2","C","106"
"","","approach-retreat","110","806858","0.0-110.0","","","2-4","4766","38","1","Training","Stims/Figures/84-C-20-2.bmp","sa:sa:za","Down","38","7","11","6A","C2","C","107"
"","","approach-retreat","111","813065","0.0-111.0","","","2-4","4688","37","1","Training","Stims/Figures/44-C-30-3.bmp","sa:haha","Right","37","7","12","6A","C2","C","108"
"","","approach-retreat","112","818737","0.0-112.0","","","2-4","4152","37","1","Training","Stims/Figures/84-J-0-2.bmp","va:sha:sha","Left","37","7","13","6A","C1","C","109"
"","","approach-retreat","113","825012","0.0-113.0","","","2-4","4752","39","1","Training","Stims/Figures/102-C-20-4.bmp","za:saza","Left","39","7","14","6A","C2","C","110"
"","","approach-retreat","114","830713","0.0-114.0","","","2-4","4163","37","1","Training","Stims/Figures/100-C-30-3.bmp","zaha:ha","Right","37","7","15","6A","C2","C","111"
"","","approach-retreat","115","836719","0.0-115.0","","","2-4","4485","40","1","Training","Stims/Figures/27-C-30-1.bmp","za:sa:ha","Up","40","7","16","6A","C2","C","112"
"","","approach-retreat","116","843584","0.0-116.0","","","2-4","5340","40","1","Training","Stims/Figures/44-J-10-3.bmp","fa:fava","Down","40","8","1","6A","C1","C","113"
"","","approach-retreat","117","849344","0.0-117.0","","","2-4","4239","40","1","Training","Stims/Figures/85-J-0-2.bmp","fa:fa:sha","Down","40","8","2","6A","C1","C","114"
"","","approach-retreat","118","854918","0.0-118.0","","","2-4","4053","40","1","Training","Stims/Figures/93-J-0-1.bmp","va:fa:va","Down","40","8","3","6A","C1","C","115"
"","","approach-retreat","119","861132","0.0-119.0","","","2-4","4690","37","1","Training","Stims/Figures/27-J-0-1.bmp","vafasha","Left","37","8","4","6A","C1","C","116"
"","","approach-retreat","120","866925","0.0-120.0","","","2-4","4272","37","1","Training","Stims/Figures/27-C-30-1.bmp","za:sa:ha","Right","37","8","5","6A","C2","C","117"
"","","approach-retreat","121","872520","0.0-121.0","","","2-4","4073","39","1","Training","Stims/Figures/84-J-0-2.bmp","va:sha:sha","Right","39","8","6","6A","C1","C","118"
"","","approach-retreat","122","878534","0.0-122.0","","","2-4","4491","39","1","Training","Stims/Figures/84-C-20-2.bmp","sa:sa:za","Left","39","8","7","6A","C2","C","119"
"","","approach-retreat","123","884394","0.0-123.0","","","2-4","4288","38","1","Training","Stims/Figures/102-J-10-4.bmp","fafa:va","Up","38","8","8","6A","C1","C","120"
"","","approach-retreat","124","890108","0.0-124.0","","","2-4","4194","37","1","Training","Stims/Figures/100-J-10-3.bmp","fa:shasha","Left","37","8","9","6A","C1","C","121"
"","","approach-retreat","125","895892","0.0-125.0","","","2-4","4261","40","1","Training","Stims/Figures/74-J-10-4.bmp","vafa:sha","Down","40","8","10","6A","C1","C","122"
"","","approach-retreat","126","902701","0.0-126.0","","","2-4","5277","40","1","Training","Stims/Figures/44-C-30-3.bmp","sa:haha","Up","40","8","11","6A","C2","C","123"
"","","approach-retreat","127","908604","0.0-127.0","","","2-4","4383","39","1","Training","Stims/Figures/102-C-20-4.bmp","za:saza","Left","39","8","12","6A","C2","C","124"
"","","approach-retreat","128","915525","0.0-128.0","","","2-4","5400","40","1","Training","Stims/Figures/74-C-20-4.bmp","sa:ha:ha","Up","40","8","13","6A","C2","C","125"
"","","approach-retreat","129","921102","0.0-129.0","","","2-4","4057","40","1","Training","Stims/Figures/93-C-30-1.bmp","sa:saza","Up","40","8","14","6A","C2","C","126"
"","","approach-retreat","130","927022","0.0-130.0","","","2-4","4399","37","1","Training","Stims/Figures/85-C-20-2.bmp","za:sa:za","Right","37","8","15","6A","C2","C","127"
"","","approach-retreat","131","932605","0.0-131.0","","","2-4","4057","37","1","Training","Stims/Figures/100-C-30-3.bmp","zaha:ha","Right","37","8","16","6A","C2","C","128"
"","","approach-retreat","132","938056","0.0-132.0","","","2-4","3931","37","1","Training","Stims/Figures/93-C-30-1.bmp","sa:saza","Right","37","9","1","6A","C2","C","129"
"","","approach-retreat","133","943797","0.0-133.0","","","2-4","4219","40","1","Training","Stims/Figures/44-C-30-3.bmp","sa:haha","Up","40","9","2","6A","C2","C","130"
"","","approach-retreat","134","951104","0.0-134.0","","","2-4","5787","39","1","Training","Stims/Figures/84-C-20-2.bmp","sa:sa:za","Left","39","9","3","6A","C2","C","131"
"","","approach-retreat","135","957156","0.0-135.0","","","2-4","4529","38","1","Training","Stims/Figures/102-C-20-4.bmp","za:saza","Down","38","9","4","6A","C2","C","132"
"","","approach-retreat","136","963171","0.0-136.0","","","2-4","4492","37","1","Training","Stims/Figures/44-J-10-3.bmp","fa:fava","Left","37","9","5","6A","C1","C","133"
"","","approach-retreat","137","968769","0.0-137.0","","","2-4","4068","39","1","Training","Stims/Figures/74-J-10-4.bmp","vafa:sha","Right","39","9","6","6A","C1","C","134"
"","","approach-retreat","138","974596","0.0-138.0","","","2-4","4298","37","1","Training","Stims/Figures/27-C-30-1.bmp","za:sa:ha","Right","37","9","7","6A","C2","C","135"
"","","approach-retreat","139","980237","0.0-139.0","","","2-4","4121","37","1","Training","Stims/Figures/102-J-10-4.bmp","fafa:va","Left","37","9","8","6A","C1","C","136"
"","","approach-retreat","140","986736","0.0-140.0","","","2-4","4977","40","1","Training","Stims/Figures/85-J-0-2.bmp","fa:fa:sha","Down","40","9","9","6A","C1","C","137"
"","","approach-retreat","141","993048","0.0-141.0","","","2-4","4788","40","1","Training","Stims/Figures/100-C-30-3.bmp","zaha:ha","Up","40","9","10","6A","C2","C","138"
"","","approach-retreat","142","998755","0.0-142.0","","","2-4","4186","38","1","Training","Stims/Figures/100-J-10-3.bmp","fa:shasha","Up","38","9","11","6A","C1","C","139"
"","","approach-retreat","143","1004629","0.0-143.0","","","2-4","4353","39","1","Training","Stims/Figures/84-J-0-2.bmp","va:sha:sha","Right","39","9","12","6A","C1","C","140"
"","","approach-retreat","144","1011539","0.0-144.0","","","2-4","5387","40","1","Training","Stims/Figures/74-C-20-4.bmp","sa:ha:ha","Up","40","9","13","6A","C2","C","141"
"","","approach-retreat","145","1017261","0.0-145.0","","","2-4","4181","40","1","Training","Stims/Figures/93-J-0-1.bmp","va:fa:va","Down","40","9","14","6A","C1","C","142"
"","","approach-retreat","146","1023509","0.0-146.0","","","2-4","4726","38","1","Training","Stims/Figures/85-C-20-2.bmp","za:sa:za","Down","38","9","15","6A","C2","C","143"
"","","approach-retreat","147","1031142","0.0-147.0","","","2-4","6114","37","1","Training","Stims/Figures/27-J-0-1.bmp","vafasha","Left","37","9","16","6A","C1","C","144"
"14504","","instructions","148","1045647","0.0-148.0","[{""page_index"":0,""viewing_time"":14504}]","","","","","","","","","","","","","","","",""
"","","approach-retreat","149","1051848","0.0-149.0","","","2-4","4687","37","0","Testing","Stims/Figures/118-C-20-2.bmp","sasa:ha","Left","39","1","1","6A","C2","C","1"
"","","approach-retreat","150","1063043","0.0-150.0","","","2-4","9679","40","1","Testing","Stims/Figures/87-J-10-4.bmp","va:sha:va","Down","40","1","2","6A","C1","C","2"
"","","approach-retreat","151","1069083","0.0-151.0","","","2-4","4522","38","0","Testing","Stims/Figures/27-J-0-1.bmp","vafasha","Down","40","1","3","6A","C1","C","3"
"","","approach-retreat","152","1074748","0.0-152.0","","","2-4","4148","40","0","Testing","Stims/Figures/128-C-30-3.bmp","za:haza","Down","38","1","4","6A","C2","C","4"
"","","approach-retreat","153","1082867","0.0-153.0","","","2-4","6604","40","1","Testing","Stims/Figures/71-C-30-1.bmp","zasa:ha","Up","40","1","5","6A","C2","C","5"
"","","approach-retreat","154","1089358","0.0-154.0","","","2-4","4956","39","0","Testing","Stims/Figures/93-C-30-1.bmp","sa:saza","Right","37","1","6","6A","C2","C","6"
"","","approach-retreat","155","1097285","0.0-155.0","","","2-4","6412","37","0","Testing","Stims/Figures/71-J-0-1.bmp","va:fasha","Right","39","1","7","6A","C1","C","7"
"","","approach-retreat","156","1103209","0.0-156.0","","","2-4","4408","37","0","Testing","Stims/Figures/27-C-30-1.bmp","za:sa:ha","Left","39","1","8","6A","C2","C","8"
"","","approach-retreat","157","1109311","0.0-157.0","","","2-4","4586","37","1","Testing","Stims/Figures/100-J-10-3.bmp","fa:shasha","Left","37","1","9","6A","C1","C","9"
"","","approach-retreat","158","1116268","0.0-158.0","","","2-4","5437","38","1","Testing","Stims/Figures/93-J-0-1.bmp","va:fa:va","Up","38","1","10","6A","C1","C","10"
"","","approach-retreat","159","1122223","0.0-159.0","","","2-4","4433","37","1","Testing","Stims/Figures/44-C-30-3.bmp","sa:haha","Right","37","1","11","6A","C2","C","11"
"","","approach-retreat","160","1128220","0.0-160.0","","","2-4","4483","40","1","Testing","Stims/Figures/84-J-0-2.bmp","va:sha:sha","Down","40","1","12","6A","C1","C","12"
"","","approach-retreat","161","1134506","0.0-161.0","","","2-4","4770","38","1","Testing","Stims/Figures/44-J-10-3.bmp","fa:fava","Up","38","1","13","6A","C1","C","13"
"","","approach-retreat","162","1141535","0.0-162.0","","","2-4","5510","40","0","Testing","Stims/Figures/85-C-20-2.bmp","za:sa:za","Down","38","1","14","6A","C2","C","14"
"","","approach-retreat","163","1147573","0.0-163.0","","","2-4","4522","39","1","Testing","Stims/Figures/102-J-10-4.bmp","fafa:va","Right","39","1","15","6A","C1","C","15"
"","","approach-retreat","164","1153441","0.0-164.0","","","2-4","4353","38","0","Testing","Stims/Figures/87-C-20-4.bmp","za:haha","Up","40","1","16","6A","C2","C","16"
"","","approach-retreat","165","1159406","0.0-165.0","","","2-4","4449","39","0","Testing","Stims/Figures/102-C-20-4.bmp","za:saza","Right","37","1","17","6A","C2","C","17"
"","","approach-retreat","166","1165803","0.0-166.0","","","2-4","4881","38","1","Testing","Stims/Figures/85-J-0-2.bmp","fa:fa:sha","Up","38","1","18","6A","C1","C","18"
"","","approach-retreat","167","1174085","0.0-167.0","","","2-4","6754","40","0","Testing","Stims/Figures/100-C-30-3.bmp","zaha:ha","Down","38","1","19","6A","C2","C","19"
"","","approach-retreat","168","1179747","0.0-168.0","","","2-4","4148","38","0","Testing","Stims/Figures/84-C-20-2.bmp","sa:sa:za","Up","40","1","20","6A","C2","C","20"
"","","approach-retreat","169","1186208","0.0-169.0","","","2-4","4945","37","1","Testing","Stims/Figures/74-J-10-4.bmp","vafa:sha","Left","37","1","21","6A","C1","C","21"
"","","approach-retreat","170","1193655","0.0-170.0","","","2-4","5932","39","0","Testing","Stims/Figures/118-J-0-2.bmp","va:shava","Left","37","1","22","6A","C1","C","22"
"","","approach-retreat","171","1199271","0.0-171.0","","","2-4","4100","37","0","Testing","Stims/Figures/74-C-20-4.bmp","sa:ha:ha","Left","39","1","23","6A","C2","C","23"
"","","approach-retreat","172","1204865","0.0-172.0","","","2-4","4079","39","1","Testing","Stims/Figures/128-J-10-3.bmp","fa:sha:va","Right","39","1","24","6A","C1","C","24"
"","","approach-retreat","173","1210529","0.0-173.0","","","2-4","4148","40","0","Testing","Stims/Figures/128-C-30-3.bmp","za:haza","Down","38","2","1","6A","C2","C","25"
"","","approach-retreat","174","1216358","0.0-174.0","","","2-4","4314","38","1","Testing","Stims/Figures/44-J-10-3.bmp","fa:fava","Up","38","2","2","6A","C1","C","26"
"","","approach-retreat","175","1222397","0.0-175.0","","","2-4","4524","39","1","Testing","Stims/Figures/85-C-20-2.bmp","za:sa:za","Left","39","2","3","6A","C2","C","27"
"","","approach-retreat","176","1228447","0.0-176.0","","","2-4","4534","40","0","Testing","Stims/Figures/100-C-30-3.bmp","zaha:ha","Down","38","2","4","6A","C2","C","28"
"","","approach-retreat","177","1239081","0.0-177.0","","","2-4","9119","40","1","Testing","Stims/Figures/100-J-10-3.bmp","fa:shasha","Down","40","2","5","6A","C1","C","29"
"","","approach-retreat","178","1244836","0.0-178.0","","","2-4","4238","38","1","Testing","Stims/Figures/71-J-0-1.bmp","va:fasha","Up","38","2","6","6A","C1","C","30"
"","","approach-retreat","179","1251750","0.0-179.0","","","2-4","5400","37","0","Testing","Stims/Figures/71-C-30-1.bmp","zasa:ha","Left","39","2","7","6A","C2","C","31"
"","","approach-retreat","180","1258349","0.0-180.0","","","2-4","5082","39","1","Testing","Stims/Figures/87-C-20-4.bmp","za:haha","Left","39","2","8","6A","C2","C","32"
"","","approach-retreat","181","1265591","0.0-181.0","","","2-4","5727","40","0","Testing","Stims/Figures/27-J-0-1.bmp","vafasha","Up","38","2","9","6A","C1","C","33"
"","","approach-retreat","182","1272928","0.0-182.0","","","2-4","5821","37","0","Testing","Stims/Figures/93-C-30-1.bmp","sa:saza","Left","39","2","10","6A","C2","C","34"
"","","approach-retreat","183","1280604","0.0-183.0","","","2-4","6160","39","1","Testing","Stims/Figures/85-J-0-2.bmp","fa:fa:sha","Right","39","2","11","6A","C1","C","35"
"","","approach-retreat","184","1286414","0.0-184.0","","","2-4","4294","38","0","Testing","Stims/Figures/44-C-30-3.bmp","sa:haha","Up","40","2","12","6A","C2","C","36"
"","","approach-retreat","185","1292412","0.0-185.0","","","2-4","4483","39","1","Testing","Stims/Figures/93-J-0-1.bmp","va:fa:va","Right","39","2","13","6A","C1","C","37"
"","","approach-retreat","186","1300812","0.0-186.0","","","2-4","6877","40","1","Testing","Stims/Figures/128-J-10-3.bmp","fa:sha:va","Down","40","2","14","6A","C1","C","38"
"","","approach-retreat","187","1306586","0.0-187.0","","","2-4","4258","37","1","Testing","Stims/Figures/84-J-0-2.bmp","va:sha:sha","Left","37","2","15","6A","C1","C","39"
"","","approach-retreat","188","1313824","0.0-188.0","","","2-4","5722","37","1","Testing","Stims/Figures/102-J-10-4.bmp","fafa:va","Left","37","2","16","6A","C1","C","40"
"","","approach-retreat","189","1320969","0.0-189.0","","","2-4","5630","40","0","Testing","Stims/Figures/84-C-20-2.bmp","sa:sa:za","Down","38","2","17","6A","C2","C","41"
"","","approach-retreat","190","1328704","0.0-190.0","","","2-4","6221","39","0","Testing","Stims/Figures/74-C-20-4.bmp","sa:ha:ha","Right","37","2","18","6A","C2","C","42"
"","","approach-retreat","191","1341770","0.0-191.0","","","2-4","11552","38","0","Testing","Stims/Figures/118-C-20-2.bmp","sasa:ha","Up","40","2","19","6A","C2","C","43"
"","","approach-retreat","192","1348673","0.0-192.0","","","2-4","5387","39","1","Testing","Stims/Figures/118-J-0-2.bmp","va:shava","Right","39","2","20","6A","C1","C","44"
"","","approach-retreat","193","1357113","0.0-193.0","","","2-4","6925","38","0","Testing","Stims/Figures/102-C-20-4.bmp","za:saza","Up","40","2","21","6A","C2","C","45"
"","","approach-retreat","194","1363653","0.0-194.0","","","2-4","5024","40","1","Testing","Stims/Figures/87-J-10-4.bmp","va:sha:va","Down","40","2","22","6A","C1","C","46"
"","","approach-retreat","195","1372560","0.0-195.0","","","2-4","7392","39","1","Testing","Stims/Figures/74-J-10-4.bmp","vafa:sha","Right","39","2","23","6A","C1","C","47"
"","","approach-retreat","196","1379850","0.0-196.0","","","2-4","5772","39","0","Testing","Stims/Figures/27-C-30-1.bmp","za:sa:ha","Right","37","2","24","6A","C2","C","48"
"","","approach-retreat","197","1385854","0.0-197.0","","","2-4","4490","38","1","Testing","Stims/Figures/102-J-10-4.bmp","fafa:va","Up","38","3","1","6A","C1","C","49"
"","","approach-retreat","198","1391648","0.0-198.0","","","2-4","4279","39","0","Testing","Stims/Figures/128-C-30-3.bmp","za:haza","Right","37","3","2","6A","C2","C","50"
"","","approach-retreat","199","1398229","0.0-199.0","","","2-4","5066","39","1","Testing","Stims/Figures/27-C-30-1.bmp","za:sa:ha","Left","39","3","3","6A","C2","C","51"
"","","approach-retreat","200","1409285","0.0-200.0","","","2-4","9538","38","0","Testing","Stims/Figures/102-C-20-4.bmp","za:saza","Up","40","3","4","6A","C2","C","52"
"","","approach-retreat","201","1419611","0.0-201.0","","","2-4","8813","37","0","Testing","Stims/Figures/85-C-20-2.bmp","za:sa:za","Left","39","3","5","6A","C2","C","53"
"","","approach-retreat","202","1425398","0.0-202.0","","","2-4","4272","39","1","Testing","Stims/Figures/44-C-30-3.bmp","sa:haha","Left","39","3","6","6A","C2","C","54"
"","","approach-retreat","203","1431618","0.0-203.0","","","2-4","4705","40","1","Testing","Stims/Figures/93-J-0-1.bmp","va:fa:va","Down","40","3","7","6A","C1","C","55"
"","","approach-retreat","204","1437791","0.0-204.0","","","2-4","4656","40","1","Testing","Stims/Figures/74-J-10-4.bmp","vafa:sha","Down","40","3","8","6A","C1","C","56"
"","","approach-retreat","205","1453015","0.0-205.0","","","2-4","13709","38","1","Testing","Stims/Figures/27-J-0-1.bmp","vafasha","Up","38","3","9","6A","C1","C","57"
"","","approach-retreat","206","1461329","0.0-206.0","","","2-4","6799","38","1","Testing","Stims/Figures/128-J-10-3.bmp","fa:sha:va","Up","38","3","10","6A","C1","C","58"
"","","approach-retreat","207","1471149","0.0-207.0","","","2-4","8306","38","1","Testing","Stims/Figures/71-C-30-1.bmp","zasa:ha","Down","38","3","11","6A","C2","C","59"
"","","approach-retreat","208","1482784","0.0-208.0","","","2-4","10112","37","0","Testing","Stims/Figures/118-C-20-2.bmp","sasa:ha","Left","39","3","12","6A","C2","C","60"
"","","approach-retreat","209","1490604","0.0-209.0","","","2-4","6304","39","0","Testing","Stims/Figures/100-C-30-3.bmp","zaha:ha","Right","37","3","13","6A","C2","C","61"
"","","approach-retreat","210","1497028","0.0-210.0","","","2-4","4907","39","1","Testing","Stims/Figures/85-J-0-2.bmp","fa:fa:sha","Right","39","3","14","6A","C1","C","62"
"","","approach-retreat","211","1503208","0.0-211.0","","","2-4","4666","40","0","Testing","Stims/Figures/84-C-20-2.bmp","sa:sa:za","Down","38","3","15","6A","C2","C","63"
"","","approach-retreat","212","1509801","0.0-212.0","","","2-4","5078","40","0","Testing","Stims/Figures/87-C-20-4.bmp","za:haha","Down","38","3","16","6A","C2","C","64"
"","","approach-retreat","213","1516317","0.0-213.0","","","2-4","5002","37","0","Testing","Stims/Figures/100-J-10-3.bmp","fa:shasha","Right","39","3","17","6A","C1","C","65"
"","","approach-retreat","214","1522559","0.0-214.0","","","2-4","4724","39","1","Testing","Stims/Figures/118-J-0-2.bmp","va:shava","Right","39","3","18","6A","C1","C","66"
"","","approach-retreat","215","1534701","0.0-215.0","","","2-4","10626","37","0","Testing","Stims/Figures/84-J-0-2.bmp","va:sha:sha","Right","39","3","19","6A","C1","C","67"
"","","approach-retreat","216","1541850","0.0-216.0","","","2-4","5634","38","1","Testing","Stims/Figures/87-J-10-4.bmp","va:sha:va","Up","38","3","20","6A","C1","C","68"
"","","approach-retreat","217","1549537","0.0-217.0","","","2-4","6171","37","1","Testing","Stims/Figures/71-J-0-1.bmp","va:fasha","Left","37","3","21","6A","C1","C","69"
"","","approach-retreat","218","1555568","0.0-218.0","","","2-4","4514","38","1","Testing","Stims/Figures/44-J-10-3.bmp","fa:fava","Up","38","3","22","6A","C1","C","70"
"","","approach-retreat","219","1561823","0.0-219.0","","","2-4","4731","38","1","Testing","Stims/Figures/74-C-20-4.bmp","sa:ha:ha","Down","38","3","23","6A","C2","C","71"
"","","approach-retreat","220","1567684","0.0-220.0","","","2-4","4346","39","1","Testing","Stims/Figures/93-C-30-1.bmp","sa:saza","Left","39","3","24","6A","C2","C","72"
"","","approach-retreat","221","1573697","0.0-221.0","","","2-4","4496","37","0","Testing","Stims/Figures/71-J-0-1.bmp","va:fasha","Right","39","4","1","6A","C1","C","73"
"","","approach-retreat","222","1581721","0.0-222.0","","","2-4","6508","38","0","Testing","Stims/Figures/102-C-20-4.bmp","za:saza","Up","40","4","2","6A","C2","C","74"
"","","approach-retreat","223","1589641","0.0-223.0","","","2-4","6404","38","1","Testing","Stims/Figures/100-J-10-3.bmp","fa:shasha","Up","38","4","3","6A","C1","C","75"
"","","approach-retreat","224","1596872","0.0-224.0","","","2-4","5716","38","1","Testing","Stims/Figures/85-J-0-2.bmp","fa:fa:sha","Up","38","4","4","6A","C1","C","76"
"","","approach-retreat","225","1607175","0.0-225.0","","","2-4","8787","39","0","Testing","Stims/Figures/93-C-30-1.bmp","sa:saza","Right","37","4","5","6A","C2","C","77"
"","","approach-retreat","226","1615649","0.0-226.0","","","2-4","6958","37","1","Testing","Stims/Figures/118-J-0-2.bmp","va:shava","Left","37","4","6","6A","C1","C","78"
"","","approach-retreat","227","1621677","0.0-227.0","","","2-4","4513","39","1","Testing","Stims/Figures/74-J-10-4.bmp","vafa:sha","Right","39","4","7","6A","C1","C","79"
"","","approach-retreat","228","1627545","0.0-228.0","","","2-4","4355","38","1","Testing","Stims/Figures/44-C-30-3.bmp","sa:haha","Down","38","4","8","6A","C2","C","80"
"","","approach-retreat","229","1634654","0.0-229.0","","","2-4","5596","40","0","Testing","Stims/Figures/74-C-20-4.bmp","sa:ha:ha","Down","38","4","9","6A","C2","C","81"
"","","approach-retreat","230","1643977","0.0-230.0","","","2-4","7808","39","0","Testing","Stims/Figures/87-C-20-4.bmp","za:haha","Right","37","4","10","6A","C2","C","82"
"","","approach-retreat","231","1650444","0.0-231.0","","","2-4","4953","39","1","Testing","Stims/Figures/128-C-30-3.bmp","za:haza","Left","39","4","11","6A","C2","C","83"
"","","approach-retreat","232","1656318","0.0-232.0","","","2-4","4357","39","0","Testing","Stims/Figures/100-C-30-3.bmp","zaha:ha","Right","37","4","12","6A","C2","C","84"
"","","approach-retreat","233","1664882","0.0-233.0","","","2-4","7043","38","1","Testing","Stims/Figures/128-J-10-3.bmp","fa:sha:va","Up","38","4","13","6A","C1","C","85"
"","","approach-retreat","234","1670898","0.0-234.0","","","2-4","4501","38","0","Testing","Stims/Figures/27-J-0-1.bmp","vafasha","Down","40","4","14","6A","C1","C","86"
"","","approach-retreat","235","1676059","0.0-235.0","","","2-4","3646","38","1","Testing","Stims/Figures/102-J-10-4.bmp","fafa:va","Up","38","4","15","6A","C1","C","87"
"","","approach-retreat","236","1686140","0.0-236.0","","","2-4","8566","37","0","Testing","Stims/Figures/84-C-20-2.bmp","sa:sa:za","Left","39","4","16","6A","C2","C","88"
"","","approach-retreat","237","1695069","0.0-237.0","","","2-4","7414","40","0","Testing","Stims/Figures/85-C-20-2.bmp","za:sa:za","Down","38","4","17","6A","C2","C","89"
"","","approach-retreat","238","1702310","0.0-238.0","","","2-4","5726","38","1","Testing","Stims/Figures/93-J-0-1.bmp","va:fa:va","Up","38","4","18","6A","C1","C","90"
"","","approach-retreat","239","1708012","0.0-239.0","","","2-4","4184","39","1","Testing","Stims/Figures/44-J-10-3.bmp","fa:fava","Right","39","4","19","6A","C1","C","91"
"","","approach-retreat","240","1715149","0.0-240.0","","","2-4","5622","37","1","Testing","Stims/Figures/84-J-0-2.bmp","va:sha:sha","Left","37","4","20","6A","C1","C","92"
"","","approach-retreat","241","1722153","0.0-241.0","","","2-4","5487","40","1","Testing","Stims/Figures/87-J-10-4.bmp","va:sha:va","Down","40","4","21","6A","C1","C","93"
"","","approach-retreat","242","1728005","0.0-242.0","","","2-4","4337","38","1","Testing","Stims/Figures/71-C-30-1.bmp","zasa:ha","Down","38","4","22","6A","C2","C","94"
"","","approach-retreat","243","1737017","0.0-243.0","","","2-4","7501","37","0","Testing","Stims/Figures/118-C-20-2.bmp","sasa:ha","Left","39","4","23","6A","C2","C","95"
"","","approach-retreat","244","1744121","0.0-244.0","","","2-4","5589","37","0","Testing","Stims/Figures/27-C-30-1.bmp","za:sa:ha","Left","39","4","24","6A","C2","C","96"
"40095","","survey-text","245","1784229","0.0-245.0","","{""Q0"":""PS180015""}","","","","","","","","","","","","","","",""
