\"rt\",\"key_press\",\"trial_type\",\"trial_index\",\"time_elapsed\",\"internal_node_id\",\"view_history\",\"responses\",\"Id\",\"Rt\",\"ResKeyCode\",\"ResCorr\",\"TrialType2\",\"Image\",\"Label\",\"Location\",\"CorrectResponse\",\"Block\",\"BlockTrial\",\"Condition\",\"LabelType\",\"Subcondition\",\"trialNum\"
\"1765\",\"32\",\"text\",\"0\",\"1769\",\"0.0-0.0-0.0\",\"\",\"\",\"\",\"\",\"\",\"\",\"\",\"\",\"\",\"\",\"\",\"\",\"\",\"\",\"\",\"\",\"\"
\"221\",\"\",\"instructions\",\"1\",\"1992\",\"0.0-1.0\",\"[{\"\"page_index\"\":0,\"\"viewing_time\"\":221}]\",\"\",\"\",\"\",\"\",\"\",\"\",\"\",\"\",\"\",\"\",\"\",\"\",\"\",\"\",\"\",\"\"
\"7046\",\"\",\"survey-multi-choice\",\"2\",\"9057\",\"0.0-2.0\",\"\",\"{\"\"Q0\"\":\"\"Da\"\",\"\"Q1\"\":\"\"Da\"\",\"\"Q2\"\":\"\"Da\"\",\"\"Q3\"\":\"\"Da\"\",\"\"Q4\"\":\"\"Da\"\",\"\"Q5\"\":\"\"Da\"\"}\",\"\",\"\",\"\",\"\",\"\",\"\",\"\",\"\",\"\",\"\",\"\",\"\",\"\",\"\",\"\"
\"\",\"\",\"bio\",\"3\",\"13140\",\"0.0-3.0\",\"\",\"{\"\"age\"\":\"\"21\"\",\"\"gender\"\":\"\"m\"\",\"\"specify\"\":\"\"\"\"}\",\"\",\"\",\"\",\"\",\"\",\"\",\"\",\"\",\"\",\"\",\"\",\"\",\"\",\"\",\"\"
\"\",\"\",\"approach-retreat\",\"4\",\"19370\",\"0.0-4.0\",\"\",\"\",\"1-1\",\"4722\",\"40\",\"1\",\"Training\",\"Stims/Figures/57-C-30-1.bmp\",\"papa:ta\",\"Up\",\"40\",\"1\",\"1\",\"7\",\"P\",\"C\",\"1\"
\"\",\"\",\"approach-retreat\",\"5\",\"24963\",\"0.0-5.0\",\"\",\"\",\"1-1\",\"4081\",\"39\",\"0\",\"Training\",\"Stims/Figures/85-J-0-2.bmp\",\"tapa:ka\",\"Left\",\"37\",\"1\",\"2\",\"7\",\"P\",\"C\",\"2\"
\"\",\"\",\"approach-retreat\",\"6\",\"30827\",\"0.0-6.0\",\"\",\"\",\"1-1\",\"4346\",\"37\",\"0\",\"Training\",\"Stims/Figures/74-J-10-4.bmp\",\"na:lana\",\"Right\",\"39\",\"1\",\"3\",\"7\",\"S\",\"C\",\"3\"
\"\",\"\",\"approach-retreat\",\"7\",\"52022\",\"0.0-7.0\",\"\",\"\",\"1-1\",\"19674\",\"39\",\"1\",\"Training\",\"Stims/Figures/86-C-30-1.bmp\",\"takata\",\"Left\",\"39\",\"1\",\"4\",\"7\",\"P\",\"C\",\"4\"
\"\",\"\",\"approach-retreat\",\"8\",\"69530\",\"0.0-8.0\",\"\",\"\",\"1-1\",\"16003\",\"40\",\"1\",\"Training\",\"Stims/Figures/128-C-30-3.bmp\",\"mala:la\",\"Up\",\"40\",\"1\",\"5\",\"7\",\"S\",\"C\",\"5\"
\"\",\"\",\"approach-retreat\",\"9\",\"88966\",\"0.0-9.0\",\"\",\"\",\"1-1\",\"17922\",\"38\",\"0\",\"Training\",\"Stims/Figures/57-J-0-1.bmp\",\"ta:ka:ta\",\"Down\",\"40\",\"1\",\"6\",\"7\",\"P\",\"C\",\"6\"
\"\",\"\",\"approach-retreat\",\"10\",\"97508\",\"0.0-10.0\",\"\",\"\",\"1-1\",\"7031\",\"39\",\"1\",\"Training\",\"Stims/Figures/118-C-20-2.bmp\",\"takaka\",\"Left\",\"39\",\"1\",\"7\",\"7\",\"P\",\"C\",\"7\"
\"\",\"\",\"approach-retreat\",\"11\",\"113116\",\"0.0-11.0\",\"\",\"\",\"1-1\",\"14092\",\"39\",\"1\",\"Training\",\"Stims/Figures/111-J-10-3.bmp\",\"ma:lana\",\"Right\",\"39\",\"1\",\"8\",\"7\",\"S\",\"C\",\"8\"
\"\",\"\",\"approach-retreat\",\"12\",\"126571\",\"0.0-12.0\",\"\",\"\",\"1-1\",\"11931\",\"38\",\"1\",\"Training\",\"Stims/Figures/85-C-20-2.bmp\",\"taka:ta\",\"Down\",\"38\",\"1\",\"9\",\"7\",\"P\",\"C\",\"9\"
\"\",\"\",\"approach-retreat\",\"13\",\"133196\",\"0.0-13.0\",\"\",\"\",\"1-1\",\"5104\",\"39\",\"1\",\"Training\",\"Stims/Figures/86-J-0-1.bmp\",\"pa:pa:ka\",\"Right\",\"39\",\"1\",\"10\",\"7\",\"P\",\"C\",\"10\"
\"\",\"\",\"approach-retreat\",\"14\",\"151635\",\"0.0-14.0\",\"\",\"\",\"1-1\",\"16920\",\"40\",\"0\",\"Training\",\"Stims/Figures/87-J-10-4.bmp\",\"na:lala\",\"Up\",\"38\",\"1\",\"11\",\"7\",\"S\",\"C\",\"11\"
\"\",\"\",\"approach-retreat\",\"15\",\"161333\",\"0.0-15.0\",\"\",\"\",\"1-1\",\"8177\",\"39\",\"1\",\"Training\",\"Stims/Figures/111-C-30-3.bmp\",\"ma:ma:na\",\"Left\",\"39\",\"1\",\"12\",\"7\",\"S\",\"C\",\"12\"
\"\",\"\",\"approach-retreat\",\"16\",\"178206\",\"0.0-16.0\",\"\",\"\",\"1-1\",\"15360\",\"38\",\"1\",\"Training\",\"Stims/Figures/74-C-20-4.bmp\",\"mamala\",\"Down\",\"38\",\"1\",\"13\",\"7\",\"S\",\"C\",\"13\"
\"\",\"\",\"approach-retreat\",\"17\",\"194798\",\"0.0-17.0\",\"\",\"\",\"1-1\",\"15077\",\"40\",\"1\",\"Training\",\"Stims/Figures/118-J-0-2.bmp\",\"ta:kata\",\"Down\",\"40\",\"1\",\"14\",\"7\",\"P\",\"C\",\"14\"
\"\",\"\",\"approach-retreat\",\"18\",\"209868\",\"0.0-18.0\",\"\",\"\",\"1-1\",\"13561\",\"40\",\"1\",\"Training\",\"Stims/Figures/87-C-20-4.bmp\",\"nala:la\",\"Up\",\"40\",\"1\",\"15\",\"7\",\"S\",\"C\",\"15\"
\"\",\"\",\"approach-retreat\",\"19\",\"220122\",\"0.0-19.0\",\"\",\"\",\"1-1\",\"8737\",\"39\",\"1\",\"Training\",\"Stims/Figures/128-J-10-3.bmp\",\"mala:na\",\"Right\",\"39\",\"1\",\"16\",\"7\",\"S\",\"C\",\"16\"
\"\",\"\",\"approach-retreat\",\"20\",\"236755\",\"0.0-20.0\",\"\",\"\",\"1-1\",\"15120\",\"40\",\"1\",\"Training\",\"Stims/Figures/86-C-30-1.bmp\",\"takata\",\"Up\",\"40\",\"2\",\"1\",\"7\",\"P\",\"C\",\"17\"
\"\",\"\",\"approach-retreat\",\"21\",\"249962\",\"0.0-21.0\",\"\",\"\",\"1-1\",\"11689\",\"39\",\"1\",\"Training\",\"Stims/Figures/85-C-20-2.bmp\",\"taka:ta\",\"Left\",\"39\",\"2\",\"2\",\"7\",\"P\",\"C\",\"18\"
\"\",\"\",\"approach-retreat\",\"22\",\"257297\",\"0.0-22.0\",\"\",\"\",\"1-1\",\"5813\",\"37\",\"0\",\"Training\",\"Stims/Figures/87-C-20-4.bmp\",\"nala:la\",\"Left\",\"39\",\"2\",\"3\",\"7\",\"S\",\"C\",\"19\"
\"\",\"\",\"approach-retreat\",\"23\",\"274628\",\"0.0-23.0\",\"\",\"\",\"1-1\",\"15811\",\"39\",\"1\",\"Training\",\"Stims/Figures/118-J-0-2.bmp\",\"ta:kata\",\"Right\",\"39\",\"2\",\"4\",\"7\",\"P\",\"C\",\"20\"
\"\",\"\",\"approach-retreat\",\"24\",\"284328\",\"0.0-24.0\",\"\",\"\",\"1-1\",\"8177\",\"38\",\"0\",\"Training\",\"Stims/Figures/74-J-10-4.bmp\",\"na:lana\",\"Down\",\"40\",\"2\",\"5\",\"7\",\"S\",\"C\",\"21\"
\"\",\"\",\"approach-retreat\",\"25\",\"295932\",\"0.0-25.0\",\"\",\"\",\"1-1\",\"10087\",\"40\",\"0\",\"Training\",\"Stims/Figures/111-J-10-3.bmp\",\"ma:lana\",\"Up\",\"38\",\"2\",\"6\",\"7\",\"S\",\"C\",\"22\"
\"\",\"\",\"approach-retreat\",\"26\",\"303383\",\"0.0-26.0\",\"\",\"\",\"1-1\",\"5942\",\"40\",\"1\",\"Training\",\"Stims/Figures/128-J-10-3.bmp\",\"mala:na\",\"Down\",\"40\",\"2\",\"7\",\"7\",\"S\",\"C\",\"23\"
\"\",\"\",\"approach-retreat\",\"27\",\"314257\",\"0.0-27.0\",\"\",\"\",\"1-1\",\"9355\",\"39\",\"1\",\"Training\",\"Stims/Figures/85-J-0-2.bmp\",\"tapa:ka\",\"Right\",\"39\",\"2\",\"8\",\"7\",\"P\",\"C\",\"24\"
\"\",\"\",\"approach-retreat\",\"28\",\"322753\",\"0.0-28.0\",\"\",\"\",\"1-1\",\"6986\",\"37\",\"1\",\"Training\",\"Stims/Figures/57-J-0-1.bmp\",\"ta:ka:ta\",\"Left\",\"37\",\"2\",\"9\",\"7\",\"P\",\"C\",\"25\"
\"\",\"\",\"approach-retreat\",\"29\",\"336614\",\"0.0-29.0\",\"\",\"\",\"1-1\",\"12350\",\"40\",\"1\",\"Training\",\"Stims/Figures/74-C-20-4.bmp\",\"mamala\",\"Up\",\"40\",\"2\",\"10\",\"7\",\"S\",\"C\",\"26\"
\"\",\"\",\"approach-retreat\",\"30\",\"347142\",\"0.0-30.0\",\"\",\"\",\"1-1\",\"9016\",\"37\",\"0\",\"Training\",\"Stims/Figures/87-J-10-4.bmp\",\"na:lala\",\"Right\",\"39\",\"2\",\"11\",\"7\",\"S\",\"C\",\"27\"
\"\",\"\",\"approach-retreat\",\"31\",\"384262\",\"0.0-31.0\",\"\",\"\",\"1-1\",\"35597\",\"40\",\"1\",\"Training\",\"Stims/Figures/111-C-30-3.bmp\",\"ma:ma:na\",\"Up\",\"40\",\"2\",\"12\",\"7\",\"S\",\"C\",\"28\"
\"\",\"\",\"approach-retreat\",\"32\",\"416662\",\"0.0-32.0\",\"\",\"\",\"1-1\",\"30879\",\"39\",\"0\",\"Training\",\"Stims/Figures/86-J-0-1.bmp\",\"pa:pa:ka\",\"Left\",\"37\",\"2\",\"13\",\"7\",\"P\",\"C\",\"29\"
\"\",\"\",\"approach-retreat\",\"33\",\"423562\",\"0.0-33.0\",\"\",\"\",\"1-1\",\"5389\",\"38\",\"1\",\"Training\",\"Stims/Figures/128-C-30-3.bmp\",\"mala:la\",\"Down\",\"38\",\"2\",\"14\",\"7\",\"S\",\"C\",\"30\"
\"\",\"\",\"approach-retreat\",\"34\",\"432278\",\"0.0-34.0\",\"\",\"\",\"1-1\",\"7194\",\"39\",\"0\",\"Training\",\"Stims/Figures/57-C-30-1.bmp\",\"papa:ta\",\"Right\",\"37\",\"2\",\"15\",\"7\",\"P\",\"C\",\"31\"
\"\",\"\",\"approach-retreat\",\"35\",\"439788\",\"0.0-35.0\",\"\",\"\",\"1-1\",\"5996\",\"38\",\"1\",\"Training\",\"Stims/Figures/118-C-20-2.bmp\",\"takaka\",\"Down\",\"38\",\"2\",\"16\",\"7\",\"P\",\"C\",\"32\"
\"\",\"\",\"approach-retreat\",\"36\",\"447308\",\"0.0-36.0\",\"\",\"\",\"1-1\",\"6009\",\"37\",\"0\",\"Training\",\"Stims/Figures/111-J-10-3.bmp\",\"ma:lana\",\"Right\",\"39\",\"3\",\"1\",\"7\",\"S\",\"C\",\"33\"
\"\",\"\",\"approach-retreat\",\"37\",\"456849\",\"0.0-37.0\",\"\",\"\",\"1-1\",\"8024\",\"40\",\"1\",\"Training\",\"Stims/Figures/74-C-20-4.bmp\",\"mamala\",\"Up\",\"40\",\"3\",\"2\",\"7\",\"S\",\"C\",\"34\"
\"\",\"\",\"approach-retreat\",\"38\",\"466264\",\"0.0-38.0\",\"\",\"\",\"1-1\",\"7895\",\"40\",\"0\",\"Training\",\"Stims/Figures/57-J-0-1.bmp\",\"ta:ka:ta\",\"Up\",\"38\",\"3\",\"3\",\"7\",\"P\",\"C\",\"35\"
\"\",\"\",\"approach-retreat\",\"39\",\"474172\",\"0.0-39.0\",\"\",\"\",\"1-1\",\"6391\",\"37\",\"1\",\"Training\",\"Stims/Figures/111-C-30-3.bmp\",\"ma:ma:na\",\"Right\",\"37\",\"3\",\"4\",\"7\",\"S\",\"C\",\"36\"
\"\",\"\",\"approach-retreat\",\"40\",\"484336\",\"0.0-40.0\",\"\",\"\",\"1-1\",\"8652\",\"39\",\"0\",\"Training\",\"Stims/Figures/128-J-10-3.bmp\",\"mala:na\",\"Left\",\"37\",\"3\",\"5\",\"7\",\"S\",\"C\",\"37\"
\"\",\"\",\"approach-retreat\",\"41\",\"494694\",\"0.0-41.0\",\"\",\"\",\"1-1\",\"8838\",\"40\",\"1\",\"Training\",\"Stims/Figures/87-C-20-4.bmp\",\"nala:la\",\"Up\",\"40\",\"3\",\"6\",\"7\",\"S\",\"C\",\"38\"
\"\",\"\",\"approach-retreat\",\"42\",\"506389\",\"0.0-42.0\",\"\",\"\",\"1-1\",\"10182\",\"39\",\"1\",\"Training\",\"Stims/Figures/74-J-10-4.bmp\",\"na:lana\",\"Right\",\"39\",\"3\",\"7\",\"7\",\"S\",\"C\",\"39\"
\"\",\"\",\"approach-retreat\",\"43\",\"514165\",\"0.0-43.0\",\"\",\"\",\"1-1\",\"6253\",\"40\",\"1\",\"Training\",\"Stims/Figures/57-C-30-1.bmp\",\"papa:ta\",\"Up\",\"40\",\"3\",\"8\",\"7\",\"P\",\"C\",\"40\"
\"\",\"\",\"approach-retreat\",\"44\",\"526755\",\"0.0-44.0\",\"\",\"\",\"1-1\",\"11066\",\"39\",\"0\",\"Training\",\"Stims/Figures/85-J-0-2.bmp\",\"tapa:ka\",\"Left\",\"37\",\"3\",\"9\",\"7\",\"P\",\"C\",\"41\"
\"\",\"\",\"approach-retreat\",\"45\",\"536346\",\"0.0-45.0\",\"\",\"\",\"1-1\",\"8069\",\"37\",\"1\",\"Training\",\"Stims/Figures/118-C-20-2.bmp\",\"takaka\",\"Right\",\"37\",\"3\",\"10\",\"7\",\"P\",\"C\",\"42\"
\"\",\"\",\"approach-retreat\",\"46\",\"546914\",\"0.0-46.0\",\"\",\"\",\"1-1\",\"9052\",\"38\",\"0\",\"Training\",\"Stims/Figures/86-J-0-1.bmp\",\"pa:pa:ka\",\"Down\",\"40\",\"3\",\"11\",\"7\",\"P\",\"C\",\"43\"
\"\",\"\",\"approach-retreat\",\"47\",\"556820\",\"0.0-47.0\",\"\",\"\",\"1-1\",\"8387\",\"37\",\"1\",\"Training\",\"Stims/Figures/118-J-0-2.bmp\",\"ta:kata\",\"Left\",\"37\",\"3\",\"12\",\"7\",\"P\",\"C\",\"44\"
\"\",\"\",\"approach-retreat\",\"48\",\"565051\",\"0.0-48.0\",\"\",\"\",\"1-1\",\"6706\",\"37\",\"0\",\"Training\",\"Stims/Figures/85-C-20-2.bmp\",\"taka:ta\",\"Left\",\"39\",\"3\",\"13\",\"7\",\"P\",\"C\",\"45\"
\"\",\"\",\"approach-retreat\",\"49\",\"575279\",\"0.0-49.0\",\"\",\"\",\"1-1\",\"8711\",\"38\",\"0\",\"Training\",\"Stims/Figures/87-J-10-4.bmp\",\"na:lala\",\"Down\",\"40\",\"3\",\"14\",\"7\",\"S\",\"C\",\"46\"
\"\",\"\",\"approach-retreat\",\"50\",\"583686\",\"0.0-50.0\",\"\",\"\",\"1-1\",\"6898\",\"40\",\"0\",\"Training\",\"Stims/Figures/86-C-30-1.bmp\",\"takata\",\"Down\",\"38\",\"3\",\"15\",\"7\",\"P\",\"C\",\"47\"
\"\",\"\",\"approach-retreat\",\"51\",\"589227\",\"0.0-51.0\",\"\",\"\",\"1-1\",\"4031\",\"38\",\"1\",\"Training\",\"Stims/Figures/128-C-30-3.bmp\",\"mala:la\",\"Down\",\"38\",\"3\",\"16\",\"7\",\"S\",\"C\",\"48\"
\"\",\"\",\"approach-retreat\",\"52\",\"597058\",\"0.0-52.0\",\"\",\"\",\"1-1\",\"6317\",\"39\",\"1\",\"Training\",\"Stims/Figures/118-J-0-2.bmp\",\"ta:kata\",\"Right\",\"39\",\"4\",\"1\",\"7\",\"P\",\"C\",\"49\"
\"\",\"\",\"approach-retreat\",\"53\",\"603488\",\"0.0-53.0\",\"\",\"\",\"1-1\",\"4925\",\"38\",\"1\",\"Training\",\"Stims/Figures/128-C-30-3.bmp\",\"mala:la\",\"Down\",\"38\",\"4\",\"2\",\"7\",\"S\",\"C\",\"50\"
\"\",\"\",\"approach-retreat\",\"54\",\"610237\",\"0.0-54.0\",\"\",\"\",\"1-1\",\"5229\",\"37\",\"0\",\"Training\",\"Stims/Figures/87-J-10-4.bmp\",\"na:lala\",\"Right\",\"39\",\"4\",\"3\",\"7\",\"S\",\"C\",\"51\"
\"\",\"\",\"approach-retreat\",\"55\",\"619919\",\"0.0-55.0\",\"\",\"\",\"1-1\",\"8173\",\"37\",\"1\",\"Training\",\"Stims/Figures/85-J-0-2.bmp\",\"tapa:ka\",\"Left\",\"37\",\"4\",\"4\",\"7\",\"P\",\"C\",\"52\"
\"\",\"\",\"approach-retreat\",\"56\",\"629516\",\"0.0-56.0\",\"\",\"\",\"1-1\",\"8085\",\"39\",\"1\",\"Training\",\"Stims/Figures/128-J-10-3.bmp\",\"mala:na\",\"Right\",\"39\",\"4\",\"5\",\"7\",\"S\",\"C\",\"53\"
\"\",\"\",\"approach-retreat\",\"57\",\"642828\",\"0.0-57.0\",\"\",\"\",\"1-1\",\"11794\",\"39\",\"1\",\"Training\",\"Stims/Figures/111-C-30-3.bmp\",\"ma:ma:na\",\"Left\",\"39\",\"4\",\"6\",\"7\",\"S\",\"C\",\"54\"
\"\",\"\",\"approach-retreat\",\"58\",\"653742\",\"0.0-58.0\",\"\",\"\",\"1-1\",\"9405\",\"38\",\"0\",\"Training\",\"Stims/Figures/86-C-30-1.bmp\",\"takata\",\"Up\",\"40\",\"4\",\"7\",\"7\",\"P\",\"C\",\"55\"
\"\",\"\",\"approach-retreat\",\"59\",\"671858\",\"0.0-59.0\",\"\",\"\",\"1-1\",\"16594\",\"38\",\"1\",\"Training\",\"Stims/Figures/74-J-10-4.bmp\",\"na:lana\",\"Up\",\"38\",\"4\",\"8\",\"7\",\"S\",\"C\",\"56\"
\"\",\"\",\"approach-retreat\",\"60\",\"680771\",\"0.0-60.0\",\"\",\"\",\"1-1\",\"7404\",\"38\",\"1\",\"Training\",\"Stims/Figures/85-C-20-2.bmp\",\"taka:ta\",\"Down\",\"38\",\"4\",\"9\",\"7\",\"P\",\"C\",\"57\"
\"\",\"\",\"approach-retreat\",\"61\",\"692994\",\"0.0-61.0\",\"\",\"\",\"1-1\",\"10711\",\"37\",\"1\",\"Training\",\"Stims/Figures/57-C-30-1.bmp\",\"papa:ta\",\"Right\",\"37\",\"4\",\"10\",\"7\",\"P\",\"C\",\"58\"
\"\",\"\",\"approach-retreat\",\"62\",\"700141\",\"0.0-62.0\",\"\",\"\",\"1-1\",\"5627\",\"38\",\"1\",\"Training\",\"Stims/Figures/87-C-20-4.bmp\",\"nala:la\",\"Down\",\"38\",\"4\",\"11\",\"7\",\"S\",\"C\",\"59\"
\"\",\"\",\"approach-retreat\",\"63\",\"711097\",\"0.0-63.0\",\"\",\"\",\"1-1\",\"9432\",\"38\",\"0\",\"Training\",\"Stims/Figures/118-C-20-2.bmp\",\"takaka\",\"Up\",\"40\",\"4\",\"12\",\"7\",\"P\",\"C\",\"60\"
\"\",\"\",\"approach-retreat\",\"64\",\"720293\",\"0.0-64.0\",\"\",\"\",\"1-1\",\"7688\",\"40\",\"1\",\"Training\",\"Stims/Figures/111-J-10-3.bmp\",\"ma:lana\",\"Down\",\"40\",\"4\",\"13\",\"7\",\"S\",\"C\",\"61\"
\"\",\"\",\"approach-retreat\",\"65\",\"732305\",\"0.0-65.0\",\"\",\"\",\"1-1\",\"10490\",\"38\",\"1\",\"Training\",\"Stims/Figures/57-J-0-1.bmp\",\"ta:ka:ta\",\"Up\",\"38\",\"4\",\"14\",\"7\",\"P\",\"C\",\"62\"
\"\",\"\",\"approach-retreat\",\"66\",\"745792\",\"0.0-66.0\",\"\",\"\",\"1-1\",\"11978\",\"37\",\"0\",\"Training\",\"Stims/Figures/74-C-20-4.bmp\",\"mamala\",\"Left\",\"39\",\"4\",\"15\",\"7\",\"S\",\"C\",\"63\"
\"\",\"\",\"approach-retreat\",\"67\",\"754601\",\"0.0-67.0\",\"\",\"\",\"1-1\",\"7296\",\"39\",\"0\",\"Training\",\"Stims/Figures/86-J-0-1.bmp\",\"pa:pa:ka\",\"Left\",\"37\",\"4\",\"16\",\"7\",\"P\",\"C\",\"64\"
\"\",\"\",\"approach-retreat\",\"68\",\"762432\",\"0.0-68.0\",\"\",\"\",\"1-1\",\"6318\",\"37\",\"0\",\"Training\",\"Stims/Figures/87-J-10-4.bmp\",\"na:lala\",\"Right\",\"39\",\"5\",\"1\",\"7\",\"S\",\"C\",\"65\"
\"\",\"\",\"approach-retreat\",\"69\",\"769461\",\"0.0-69.0\",\"\",\"\",\"1-1\",\"5519\",\"37\",\"1\",\"Training\",\"Stims/Figures/111-C-30-3.bmp\",\"ma:ma:na\",\"Right\",\"37\",\"5\",\"2\",\"7\",\"S\",\"C\",\"66\"
\"\",\"\",\"approach-retreat\",\"70\",\"775597\",\"0.0-70.0\",\"\",\"\",\"1-1\",\"4625\",\"37\",\"1\",\"Training\",\"Stims/Figures/118-J-0-2.bmp\",\"ta:kata\",\"Left\",\"37\",\"5\",\"3\",\"7\",\"P\",\"C\",\"67\"
\"\",\"\",\"approach-retreat\",\"71\",\"781270\",\"0.0-71.0\",\"\",\"\",\"1-1\",\"4164\",\"40\",\"1\",\"Training\",\"Stims/Figures/57-J-0-1.bmp\",\"ta:ka:ta\",\"Down\",\"40\",\"5\",\"4\",\"7\",\"P\",\"C\",\"68\"
\"\",\"\",\"approach-retreat\",\"72\",\"786931\",\"0.0-72.0\",\"\",\"\",\"1-1\",\"4140\",\"37\",\"1\",\"Training\",\"Stims/Figures/86-J-0-1.bmp\",\"pa:pa:ka\",\"Left\",\"37\",\"5\",\"5\",\"7\",\"P\",\"C\",\"69\"
\"\",\"\",\"approach-retreat\",\"73\",\"792508\",\"0.0-73.0\",\"\",\"\",\"1-1\",\"4062\",\"39\",\"1\",\"Training\",\"Stims/Figures/85-J-0-2.bmp\",\"tapa:ka\",\"Right\",\"39\",\"5\",\"6\",\"7\",\"P\",\"C\",\"70\"
\"\",\"\",\"approach-retreat\",\"74\",\"798265\",\"0.0-74.0\",\"\",\"\",\"1-1\",\"4247\",\"38\",\"1\",\"Training\",\"Stims/Figures/128-J-10-3.bmp\",\"mala:na\",\"Up\",\"38\",\"5\",\"7\",\"7\",\"S\",\"C\",\"71\"
\"\",\"\",\"approach-retreat\",\"75\",\"805522\",\"0.0-75.0\",\"\",\"\",\"1-1\",\"5748\",\"37\",\"0\",\"Training\",\"Stims/Figures/74-C-20-4.bmp\",\"mamala\",\"Left\",\"39\",\"5\",\"8\",\"7\",\"S\",\"C\",\"72\"
\"\",\"\",\"approach-retreat\",\"76\",\"811063\",\"0.0-76.0\",\"\",\"\",\"1-1\",\"4032\",\"39\",\"1\",\"Training\",\"Stims/Figures/87-C-20-4.bmp\",\"nala:la\",\"Left\",\"39\",\"5\",\"9\",\"7\",\"S\",\"C\",\"73\"
\"\",\"\",\"approach-retreat\",\"77\",\"817203\",\"0.0-77.0\",\"\",\"\",\"1-1\",\"4630\",\"38\",\"1\",\"Training\",\"Stims/Figures/111-J-10-3.bmp\",\"ma:lana\",\"Up\",\"38\",\"5\",\"10\",\"7\",\"S\",\"C\",\"74\"
\"\",\"\",\"approach-retreat\",\"78\",\"823109\",\"0.0-78.0\",\"\",\"\",\"1-1\",\"4387\",\"39\",\"1\",\"Training\",\"Stims/Figures/74-J-10-4.bmp\",\"na:lana\",\"Right\",\"39\",\"5\",\"11\",\"7\",\"S\",\"C\",\"75\"
\"\",\"\",\"approach-retreat\",\"79\",\"830244\",\"0.0-79.0\",\"\",\"\",\"1-1\",\"5625\",\"40\",\"1\",\"Training\",\"Stims/Figures/85-C-20-2.bmp\",\"taka:ta\",\"Up\",\"40\",\"5\",\"12\",\"7\",\"P\",\"C\",\"76\"
\"\",\"\",\"approach-retreat\",\"80\",\"839333\",\"0.0-80.0\",\"\",\"\",\"1-1\",\"7571\",\"38\",\"1\",\"Training\",\"Stims/Figures/118-C-20-2.bmp\",\"takaka\",\"Down\",\"38\",\"5\",\"13\",\"7\",\"P\",\"C\",\"77\"
\"\",\"\",\"approach-retreat\",\"81\",\"845139\",\"0.0-81.0\",\"\",\"\",\"1-1\",\"4289\",\"40\",\"1\",\"Training\",\"Stims/Figures/128-C-30-3.bmp\",\"mala:la\",\"Up\",\"40\",\"5\",\"14\",\"7\",\"S\",\"C\",\"78\"
\"\",\"\",\"approach-retreat\",\"82\",\"850926\",\"0.0-82.0\",\"\",\"\",\"1-1\",\"4275\",\"38\",\"1\",\"Training\",\"Stims/Figures/86-C-30-1.bmp\",\"takata\",\"Down\",\"38\",\"5\",\"15\",\"7\",\"P\",\"C\",\"79\"
\"\",\"\",\"approach-retreat\",\"83\",\"856730\",\"0.0-83.0\",\"\",\"\",\"1-1\",\"4287\",\"38\",\"1\",\"Training\",\"Stims/Figures/57-C-30-1.bmp\",\"papa:ta\",\"Down\",\"38\",\"5\",\"16\",\"7\",\"P\",\"C\",\"80\"
\"\",\"\",\"approach-retreat\",\"84\",\"862810\",\"0.0-84.0\",\"\",\"\",\"1-1\",\"4568\",\"39\",\"1\",\"Training\",\"Stims/Figures/128-J-10-3.bmp\",\"mala:na\",\"Right\",\"39\",\"6\",\"1\",\"7\",\"S\",\"C\",\"81\"
\"\",\"\",\"approach-retreat\",\"85\",\"868818\",\"0.0-85.0\",\"\",\"\",\"1-1\",\"4498\",\"38\",\"1\",\"Training\",\"Stims/Figures/86-J-0-1.bmp\",\"pa:pa:ka\",\"Up\",\"38\",\"6\",\"2\",\"7\",\"P\",\"C\",\"82\"
\"\",\"\",\"approach-retreat\",\"86\",\"902517\",\"0.0-86.0\",\"\",\"\",\"1-1\",\"32190\",\"39\",\"1\",\"Training\",\"Stims/Figures/87-C-20-4.bmp\",\"nala:la\",\"Left\",\"39\",\"6\",\"3\",\"7\",\"S\",\"C\",\"83\"
\"\",\"\",\"approach-retreat\",\"87\",\"908768\",\"0.0-87.0\",\"\",\"\",\"1-1\",\"4740\",\"40\",\"1\",\"Training\",\"Stims/Figures/118-J-0-2.bmp\",\"ta:kata\",\"Down\",\"40\",\"6\",\"4\",\"7\",\"P\",\"C\",\"84\"
\"\",\"\",\"approach-retreat\",\"88\",\"915720\",\"0.0-88.0\",\"\",\"\",\"1-1\",\"5443\",\"37\",\"1\",\"Training\",\"Stims/Figures/74-J-10-4.bmp\",\"na:lana\",\"Left\",\"37\",\"6\",\"5\",\"7\",\"S\",\"C\",\"85\"
\"\",\"\",\"approach-retreat\",\"89\",\"922024\",\"0.0-89.0\",\"\",\"\",\"1-1\",\"4788\",\"38\",\"1\",\"Training\",\"Stims/Figures/111-J-10-3.bmp\",\"ma:lana\",\"Up\",\"38\",\"6\",\"6\",\"7\",\"S\",\"C\",\"86\"
\"\",\"\",\"approach-retreat\",\"90\",\"928675\",\"0.0-90.0\",\"\",\"\",\"1-1\",\"5141\",\"37\",\"1\",\"Training\",\"Stims/Figures/74-C-20-4.bmp\",\"mamala\",\"Right\",\"37\",\"6\",\"7\",\"7\",\"S\",\"C\",\"87\"
\"\",\"\",\"approach-retreat\",\"91\",\"934359\",\"0.0-91.0\",\"\",\"\",\"1-1\",\"4165\",\"37\",\"1\",\"Training\",\"Stims/Figures/111-C-30-3.bmp\",\"ma:ma:na\",\"Right\",\"37\",\"6\",\"8\",\"7\",\"S\",\"C\",\"88\"
\"\",\"\",\"approach-retreat\",\"92\",\"940800\",\"0.0-92.0\",\"\",\"\",\"1-1\",\"4927\",\"38\",\"1\",\"Training\",\"Stims/Figures/57-J-0-1.bmp\",\"ta:ka:ta\",\"Up\",\"38\",\"6\",\"9\",\"7\",\"P\",\"C\",\"89\"
\"\",\"\",\"approach-retreat\",\"93\",\"948017\",\"0.0-93.0\",\"\",\"\",\"1-1\",\"5699\",\"38\",\"1\",\"Training\",\"Stims/Figures/128-C-30-3.bmp\",\"mala:la\",\"Down\",\"38\",\"6\",\"10\",\"7\",\"S\",\"C\",\"90\"
\"\",\"\",\"approach-retreat\",\"94\",\"954072\",\"0.0-94.0\",\"\",\"\",\"1-1\",\"4543\",\"37\",\"1\",\"Training\",\"Stims/Figures/85-J-0-2.bmp\",\"tapa:ka\",\"Left\",\"37\",\"6\",\"11\",\"7\",\"P\",\"C\",\"91\"
\"\",\"\",\"approach-retreat\",\"95\",\"962200\",\"0.0-95.0\",\"\",\"\",\"1-1\",\"6619\",\"40\",\"1\",\"Training\",\"Stims/Figures/87-J-10-4.bmp\",\"na:lala\",\"Down\",\"40\",\"6\",\"12\",\"7\",\"S\",\"C\",\"92\"
\"\",\"\",\"approach-retreat\",\"96\",\"969955\",\"0.0-96.0\",\"\",\"\",\"1-1\",\"6241\",\"39\",\"1\",\"Training\",\"Stims/Figures/118-C-20-2.bmp\",\"takaka\",\"Left\",\"39\",\"6\",\"13\",\"7\",\"P\",\"C\",\"93\"
\"\",\"\",\"approach-retreat\",\"97\",\"999067\",\"0.0-97.0\",\"\",\"\",\"1-1\",\"27591\",\"40\",\"1\",\"Training\",\"Stims/Figures/57-C-30-1.bmp\",\"papa:ta\",\"Up\",\"40\",\"6\",\"14\",\"7\",\"P\",\"C\",\"94\"
\"\",\"\",\"approach-retreat\",\"98\",\"1005386\",\"0.0-98.0\",\"\",\"\",\"1-1\",\"4800\",\"37\",\"1\",\"Training\",\"Stims/Figures/85-C-20-2.bmp\",\"taka:ta\",\"Right\",\"37\",\"6\",\"15\",\"7\",\"P\",\"C\",\"95\"
\"\",\"\",\"approach-retreat\",\"99\",\"1011211\",\"0.0-99.0\",\"\",\"\",\"1-1\",\"4309\",\"38\",\"1\",\"Training\",\"Stims/Figures/86-C-30-1.bmp\",\"takata\",\"Down\",\"38\",\"6\",\"16\",\"7\",\"P\",\"C\",\"96\"
\"\",\"\",\"approach-retreat\",\"100\",\"1016971\",\"0.0-100.0\",\"\",\"\",\"1-1\",\"4252\",\"37\",\"1\",\"Training\",\"Stims/Figures/85-C-20-2.bmp\",\"taka:ta\",\"Right\",\"37\",\"7\",\"1\",\"7\",\"P\",\"C\",\"97\"
\"\",\"\",\"approach-retreat\",\"101\",\"1024297\",\"0.0-101.0\",\"\",\"\",\"1-1\",\"5816\",\"38\",\"1\",\"Training\",\"Stims/Figures/111-J-10-3.bmp\",\"ma:lana\",\"Up\",\"38\",\"7\",\"2\",\"7\",\"S\",\"C\",\"98\"
\"\",\"\",\"approach-retreat\",\"102\",\"1033152\",\"0.0-102.0\",\"\",\"\",\"1-1\",\"7334\",\"37\",\"0\",\"Training\",\"Stims/Figures/118-C-20-2.bmp\",\"takaka\",\"Left\",\"39\",\"7\",\"3\",\"7\",\"P\",\"C\",\"99\"
\"\",\"\",\"approach-retreat\",\"103\",\"1039342\",\"0.0-103.0\",\"\",\"\",\"1-1\",\"4669\",\"40\",\"1\",\"Training\",\"Stims/Figures/85-J-0-2.bmp\",\"tapa:ka\",\"Down\",\"40\",\"7\",\"4\",\"7\",\"P\",\"C\",\"100\"
\"\",\"\",\"approach-retreat\",\"104\",\"1046186\",\"0.0-104.0\",\"\",\"\",\"1-1\",\"5323\",\"40\",\"1\",\"Training\",\"Stims/Figures/118-J-0-2.bmp\",\"ta:kata\",\"Down\",\"40\",\"7\",\"5\",\"7\",\"P\",\"C\",\"101\"
\"\",\"\",\"approach-retreat\",\"105\",\"1052480\",\"0.0-105.0\",\"\",\"\",\"1-1\",\"4776\",\"38\",\"1\",\"Training\",\"Stims/Figures/86-J-0-1.bmp\",\"pa:pa:ka\",\"Up\",\"38\",\"7\",\"6\",\"7\",\"P\",\"C\",\"102\"
\"\",\"\",\"approach-retreat\",\"106\",\"1058299\",\"0.0-106.0\",\"\",\"\",\"1-1\",\"4301\",\"39\",\"1\",\"Training\",\"Stims/Figures/57-C-30-1.bmp\",\"papa:ta\",\"Left\",\"39\",\"7\",\"7\",\"7\",\"P\",\"C\",\"103\"
\"\",\"\",\"approach-retreat\",\"107\",\"1064216\",\"0.0-107.0\",\"\",\"\",\"1-1\",\"4404\",\"37\",\"0\",\"Training\",\"Stims/Figures/128-J-10-3.bmp\",\"mala:na\",\"Right\",\"39\",\"7\",\"8\",\"7\",\"S\",\"C\",\"104\"
\"\",\"\",\"approach-retreat\",\"108\",\"1069978\",\"0.0-108.0\",\"\",\"\",\"1-1\",\"4244\",\"40\",\"1\",\"Training\",\"Stims/Figures/86-C-30-1.bmp\",\"takata\",\"Up\",\"40\",\"7\",\"9\",\"7\",\"P\",\"C\",\"105\"
\"\",\"\",\"approach-retreat\",\"109\",\"1075764\",\"0.0-109.0\",\"\",\"\",\"1-1\",\"4278\",\"37\",\"0\",\"Training\",\"Stims/Figures/87-J-10-4.bmp\",\"na:lala\",\"Right\",\"39\",\"7\",\"10\",\"7\",\"S\",\"C\",\"106\"
\"\",\"\",\"approach-retreat\",\"110\",\"1081462\",\"0.0-110.0\",\"\",\"\",\"1-1\",\"4192\",\"37\",\"1\",\"Training\",\"Stims/Figures/128-C-30-3.bmp\",\"mala:la\",\"Right\",\"37\",\"7\",\"11\",\"7\",\"S\",\"C\",\"107\"
\"\",\"\",\"approach-retreat\",\"111\",\"1087985\",\"0.0-111.0\",\"\",\"\",\"1-1\",\"5001\",\"37\",\"1\",\"Training\",\"Stims/Figures/57-J-0-1.bmp\",\"ta:ka:ta\",\"Left\",\"37\",\"7\",\"12\",\"7\",\"P\",\"C\",\"108\"
\"\",\"\",\"approach-retreat\",\"112\",\"1095929\",\"0.0-112.0\",\"\",\"\",\"1-1\",\"6424\",\"39\",\"1\",\"Training\",\"Stims/Figures/111-C-30-3.bmp\",\"ma:ma:na\",\"Left\",\"39\",\"7\",\"13\",\"7\",\"S\",\"C\",\"109\"
\"\",\"\",\"approach-retreat\",\"113\",\"1102297\",\"0.0-113.0\",\"\",\"\",\"1-1\",\"4845\",\"40\",\"1\",\"Training\",\"Stims/Figures/87-C-20-4.bmp\",\"nala:la\",\"Up\",\"40\",\"7\",\"14\",\"7\",\"S\",\"C\",\"110\"
\"\",\"\",\"approach-retreat\",\"114\",\"1109088\",\"0.0-114.0\",\"\",\"\",\"1-1\",\"5280\",\"40\",\"1\",\"Training\",\"Stims/Figures/74-J-10-4.bmp\",\"na:lana\",\"Down\",\"40\",\"7\",\"15\",\"7\",\"S\",\"C\",\"111\"
\"\",\"\",\"approach-retreat\",\"115\",\"1116034\",\"0.0-115.0\",\"\",\"\",\"1-1\",\"5430\",\"40\",\"0\",\"Training\",\"Stims/Figures/74-C-20-4.bmp\",\"mamala\",\"Down\",\"38\",\"7\",\"16\",\"7\",\"S\",\"C\",\"112\"
\"\",\"\",\"approach-retreat\",\"116\",\"1122655\",\"0.0-116.0\",\"\",\"\",\"1-1\",\"5109\",\"40\",\"1\",\"Training\",\"Stims/Figures/111-C-30-3.bmp\",\"ma:ma:na\",\"Up\",\"40\",\"8\",\"1\",\"7\",\"S\",\"C\",\"113\"
\"\",\"\",\"approach-retreat\",\"117\",\"1131845\",\"0.0-117.0\",\"\",\"\",\"1-1\",\"7669\",\"37\",\"1\",\"Training\",\"Stims/Figures/85-J-0-2.bmp\",\"tapa:ka\",\"Left\",\"37\",\"8\",\"2\",\"7\",\"P\",\"C\",\"114\"
\"\",\"\",\"approach-retreat\",\"118\",\"1138169\",\"0.0-118.0\",\"\",\"\",\"1-1\",\"4814\",\"38\",\"1\",\"Training\",\"Stims/Figures/86-J-0-1.bmp\",\"pa:pa:ka\",\"Up\",\"38\",\"8\",\"3\",\"7\",\"P\",\"C\",\"115\"
\"\",\"\",\"approach-retreat\",\"119\",\"1145864\",\"0.0-119.0\",\"\",\"\",\"1-1\",\"6171\",\"37\",\"1\",\"Training\",\"Stims/Figures/57-J-0-1.bmp\",\"ta:ka:ta\",\"Left\",\"37\",\"8\",\"4\",\"7\",\"P\",\"C\",\"116\"
\"\",\"\",\"approach-retreat\",\"120\",\"1151961\",\"0.0-120.0\",\"\",\"\",\"1-1\",\"4581\",\"39\",\"1\",\"Training\",\"Stims/Figures/118-C-20-2.bmp\",\"takaka\",\"Left\",\"39\",\"8\",\"5\",\"7\",\"P\",\"C\",\"117\"
\"\",\"\",\"approach-retreat\",\"121\",\"1157870\",\"0.0-121.0\",\"\",\"\",\"1-1\",\"4402\",\"39\",\"0\",\"Training\",\"Stims/Figures/87-J-10-4.bmp\",\"na:lala\",\"Left\",\"37\",\"8\",\"6\",\"7\",\"S\",\"C\",\"118\"
\"\",\"\",\"approach-retreat\",\"122\",\"1163805\",\"0.0-122.0\",\"\",\"\",\"1-1\",\"4416\",\"39\",\"0\",\"Training\",\"Stims/Figures/74-C-20-4.bmp\",\"mamala\",\"Right\",\"37\",\"8\",\"7\",\"7\",\"S\",\"C\",\"119\"
\"\",\"\",\"approach-retreat\",\"123\",\"1170099\",\"0.0-123.0\",\"\",\"\",\"1-1\",\"4783\",\"38\",\"1\",\"Training\",\"Stims/Figures/87-C-20-4.bmp\",\"nala:la\",\"Down\",\"38\",\"8\",\"8\",\"7\",\"S\",\"C\",\"120\"
\"\",\"\",\"approach-retreat\",\"124\",\"1181019\",\"0.0-124.0\",\"\",\"\",\"1-1\",\"9401\",\"38\",\"1\",\"Training\",\"Stims/Figures/128-C-30-3.bmp\",\"mala:la\",\"Down\",\"38\",\"8\",\"9\",\"7\",\"S\",\"C\",\"121\"
\"\",\"\",\"approach-retreat\",\"125\",\"1192466\",\"0.0-125.0\",\"\",\"\",\"1-1\",\"9936\",\"37\",\"1\",\"Training\",\"Stims/Figures/85-C-20-2.bmp\",\"taka:ta\",\"Right\",\"37\",\"8\",\"10\",\"7\",\"P\",\"C\",\"122\"
\"\",\"\",\"approach-retreat\",\"126\",\"1201117\",\"0.0-126.0\",\"\",\"\",\"1-1\",\"7147\",\"39\",\"1\",\"Training\",\"Stims/Figures/111-J-10-3.bmp\",\"ma:lana\",\"Right\",\"39\",\"8\",\"11\",\"7\",\"S\",\"C\",\"123\"
\"\",\"\",\"approach-retreat\",\"127\",\"1207514\",\"0.0-127.0\",\"\",\"\",\"1-1\",\"4885\",\"38\",\"1\",\"Training\",\"Stims/Figures/74-J-10-4.bmp\",\"na:lana\",\"Up\",\"38\",\"8\",\"12\",\"7\",\"S\",\"C\",\"124\"
\"\",\"\",\"approach-retreat\",\"128\",\"1214474\",\"0.0-128.0\",\"\",\"\",\"1-1\",\"5437\",\"38\",\"0\",\"Training\",\"Stims/Figures/57-C-30-1.bmp\",\"papa:ta\",\"Up\",\"40\",\"8\",\"13\",\"7\",\"P\",\"C\",\"125\"
\"\",\"\",\"approach-retreat\",\"129\",\"1220903\",\"0.0-129.0\",\"\",\"\",\"1-1\",\"4914\",\"39\",\"1\",\"Training\",\"Stims/Figures/128-J-10-3.bmp\",\"mala:na\",\"Right\",\"39\",\"8\",\"14\",\"7\",\"S\",\"C\",\"126\"
\"\",\"\",\"approach-retreat\",\"130\",\"1227448\",\"0.0-130.0\",\"\",\"\",\"1-1\",\"5037\",\"38\",\"1\",\"Training\",\"Stims/Figures/86-C-30-1.bmp\",\"takata\",\"Down\",\"38\",\"8\",\"15\",\"7\",\"P\",\"C\",\"127\"
\"\",\"\",\"approach-retreat\",\"131\",\"1233588\",\"0.0-131.0\",\"\",\"\",\"1-1\",\"4628\",\"40\",\"1\",\"Training\",\"Stims/Figures/118-J-0-2.bmp\",\"ta:kata\",\"Down\",\"40\",\"8\",\"16\",\"7\",\"P\",\"C\",\"128\"
\"\",\"\",\"approach-retreat\",\"132\",\"1241135\",\"0.0-132.0\",\"\",\"\",\"1-1\",\"6034\",\"37\",\"0\",\"Training\",\"Stims/Figures/74-C-20-4.bmp\",\"mamala\",\"Left\",\"39\",\"9\",\"1\",\"7\",\"S\",\"C\",\"129\"
\"\",\"\",\"approach-retreat\",\"133\",\"1246723\",\"0.0-133.0\",\"\",\"\",\"1-1\",\"4077\",\"40\",\"1\",\"Training\",\"Stims/Figures/118-J-0-2.bmp\",\"ta:kata\",\"Down\",\"40\",\"9\",\"2\",\"7\",\"P\",\"C\",\"130\"
\"\",\"\",\"approach-retreat\",\"134\",\"1252830\",\"0.0-134.0\",\"\",\"\",\"1-1\",\"4589\",\"38\",\"1\",\"Training\",\"Stims/Figures/57-C-30-1.bmp\",\"papa:ta\",\"Down\",\"38\",\"9\",\"3\",\"7\",\"P\",\"C\",\"131\"
\"\",\"\",\"approach-retreat\",\"135\",\"1259417\",\"0.0-135.0\",\"\",\"\",\"1-1\",\"5070\",\"38\",\"1\",\"Training\",\"Stims/Figures/86-J-0-1.bmp\",\"pa:pa:ka\",\"Up\",\"38\",\"9\",\"4\",\"7\",\"P\",\"C\",\"132\"
\"\",\"\",\"approach-retreat\",\"136\",\"1268497\",\"0.0-136.0\",\"\",\"\",\"1-1\",\"7571\",\"40\",\"1\",\"Training\",\"Stims/Figures/86-C-30-1.bmp\",\"takata\",\"Up\",\"40\",\"9\",\"5\",\"7\",\"P\",\"C\",\"133\"
\"\",\"\",\"approach-retreat\",\"137\",\"1275175\",\"0.0-137.0\",\"\",\"\",\"1-1\",\"5153\",\"40\",\"1\",\"Training\",\"Stims/Figures/74-J-10-4.bmp\",\"na:lana\",\"Down\",\"40\",\"9\",\"6\",\"7\",\"S\",\"C\",\"134\"
\"\",\"\",\"approach-retreat\",\"138\",\"1284541\",\"0.0-138.0\",\"\",\"\",\"1-1\",\"7856\",\"39\",\"1\",\"Training\",\"Stims/Figures/111-J-10-3.bmp\",\"ma:lana\",\"Right\",\"39\",\"9\",\"7\",\"7\",\"S\",\"C\",\"135\"
\"\",\"\",\"approach-retreat\",\"139\",\"1300630\",\"0.0-139.0\",\"\",\"\",\"1-1\",\"14579\",\"39\",\"1\",\"Training\",\"Stims/Figures/87-C-20-4.bmp\",\"nala:la\",\"Left\",\"39\",\"9\",\"8\",\"7\",\"S\",\"C\",\"136\"
\"\",\"\",\"approach-retreat\",\"140\",\"1307048\",\"0.0-140.0\",\"\",\"\",\"1-1\",\"4908\",\"39\",\"1\",\"Training\",\"Stims/Figures/128-J-10-3.bmp\",\"mala:na\",\"Right\",\"39\",\"9\",\"9\",\"7\",\"S\",\"C\",\"137\"
\"\",\"\",\"approach-retreat\",\"141\",\"1312593\",\"0.0-141.0\",\"\",\"\",\"1-1\",\"4032\",\"39\",\"1\",\"Training\",\"Stims/Figures/118-C-20-2.bmp\",\"takaka\",\"Left\",\"39\",\"9\",\"10\",\"7\",\"P\",\"C\",\"138\"
\"\",\"\",\"approach-retreat\",\"142\",\"1319394\",\"0.0-142.0\",\"\",\"\",\"1-1\",\"5285\",\"38\",\"1\",\"Training\",\"Stims/Figures/111-C-30-3.bmp\",\"ma:ma:na\",\"Down\",\"38\",\"9\",\"11\",\"7\",\"S\",\"C\",\"139\"
\"\",\"\",\"approach-retreat\",\"143\",\"1325636\",\"0.0-143.0\",\"\",\"\",\"1-1\",\"4721\",\"38\",\"1\",\"Training\",\"Stims/Figures/57-J-0-1.bmp\",\"ta:ka:ta\",\"Up\",\"38\",\"9\",\"12\",\"7\",\"P\",\"C\",\"140\"
\"\",\"\",\"approach-retreat\",\"144\",\"1332878\",\"0.0-144.0\",\"\",\"\",\"1-1\",\"5729\",\"37\",\"1\",\"Training\",\"Stims/Figures/85-C-20-2.bmp\",\"taka:ta\",\"Right\",\"37\",\"9\",\"13\",\"7\",\"P\",\"C\",\"141\"
\"\",\"\",\"approach-retreat\",\"145\",\"1342991\",\"0.0-145.0\",\"\",\"\",\"1-1\",\"8603\",\"40\",\"0\",\"Training\",\"Stims/Figures/87-J-10-4.bmp\",\"na:lala\",\"Up\",\"38\",\"9\",\"14\",\"7\",\"S\",\"C\",\"142\"
\"\",\"\",\"approach-retreat\",\"146\",\"1349494\",\"0.0-146.0\",\"\",\"\",\"1-1\",\"4993\",\"39\",\"1\",\"Training\",\"Stims/Figures/85-J-0-2.bmp\",\"tapa:ka\",\"Right\",\"39\",\"9\",\"15\",\"7\",\"P\",\"C\",\"143\"
\"\",\"\",\"approach-retreat\",\"147\",\"1355912\",\"0.0-147.0\",\"\",\"\",\"1-1\",\"4909\",\"39\",\"1\",\"Training\",\"Stims/Figures/128-C-30-3.bmp\",\"mala:la\",\"Left\",\"39\",\"9\",\"16\",\"7\",\"S\",\"C\",\"144\"
\"13086\",\"\",\"instructions\",\"148\",\"1368999\",\"0.0-148.0\",\"[{\"\"page_index\"\":0,\"\"viewing_time\"\":13085}]\",\"\",\"\",\"\",\"\",\"\",\"\",\"\",\"\",\"\",\"\",\"\",\"\",\"\",\"\",\"\",\"\"
\"\",\"\",\"approach-retreat\",\"149\",\"1375410\",\"0.0-149.0\",\"\",\"\",\"1-1\",\"4891\",\"39\",\"0\",\"Testing\",\"Stims/Figures/144-C-30-3.bmp\",\"na:ma:la\",\"Right\",\"37\",\"1\",\"1\",\"7\",\"S\",\"C\",\"1\"
\"\",\"\",\"approach-retreat\",\"150\",\"1381452\",\"0.0-150.0\",\"\",\"\",\"1-1\",\"4525\",\"37\",\"0\",\"Testing\",\"Stims/Figures/57-C-30-1.bmp\",\"papa:ta\",\"Left\",\"39\",\"1\",\"2\",\"7\",\"P\",\"C\",\"2\"
\"\",\"\",\"approach-retreat\",\"151\",\"1387326\",\"0.0-151.0\",\"\",\"\",\"1-1\",\"4354\",\"37\",\"0\",\"Testing\",\"Stims/Figures/86-C-30-1.bmp\",\"takata\",\"Left\",\"39\",\"1\",\"3\",\"7\",\"P\",\"C\",\"3\"
\"\",\"\",\"approach-retreat\",\"152\",\"1393372\",\"0.0-152.0\",\"\",\"\",\"1-1\",\"4528\",\"37\",\"1\",\"Testing\",\"Stims/Figures/102-J-10-4.bmp\",\"ma:mana\",\"Left\",\"37\",\"1\",\"4\",\"7\",\"S\",\"C\",\"4\"
\"\",\"\",\"approach-retreat\",\"153\",\"1399167\",\"0.0-153.0\",\"\",\"\",\"1-1\",\"4285\",\"39\",\"1\",\"Testing\",\"Stims/Figures/111-C-30-3.bmp\",\"ma:ma:na\",\"Left\",\"39\",\"1\",\"5\",\"7\",\"S\",\"C\",\"5\"
\"\",\"\",\"approach-retreat\",\"154\",\"1404981\",\"0.0-154.0\",\"\",\"\",\"1-1\",\"4303\",\"40\",\"1\",\"Testing\",\"Stims/Figures/128-C-30-3.bmp\",\"mala:la\",\"Up\",\"40\",\"1\",\"6\",\"7\",\"S\",\"C\",\"6\"
\"\",\"\",\"approach-retreat\",\"155\",\"1410941\",\"0.0-155.0\",\"\",\"\",\"1-1\",\"4437\",\"40\",\"1\",\"Testing\",\"Stims/Figures/111-J-10-3.bmp\",\"ma:lana\",\"Down\",\"40\",\"1\",\"7\",\"7\",\"S\",\"C\",\"7\"
\"\",\"\",\"approach-retreat\",\"156\",\"1417272\",\"0.0-156.0\",\"\",\"\",\"1-1\",\"4807\",\"38\",\"1\",\"Testing\",\"Stims/Figures/118-J-0-2.bmp\",\"ta:kata\",\"Up\",\"38\",\"1\",\"8\",\"7\",\"P\",\"C\",\"8\"
\"\",\"\",\"approach-retreat\",\"157\",\"1423129\",\"0.0-157.0\",\"\",\"\",\"1-1\",\"4333\",\"39\",\"1\",\"Testing\",\"Stims/Figures/102-C-20-4.bmp\",\"nala:na\",\"Left\",\"39\",\"1\",\"9\",\"7\",\"S\",\"C\",\"9\"
\"\",\"\",\"approach-retreat\",\"158\",\"1433364\",\"0.0-158.0\",\"\",\"\",\"1-1\",\"8725\",\"37\",\"1\",\"Testing\",\"Stims/Figures/85-C-20-2.bmp\",\"taka:ta\",\"Right\",\"37\",\"1\",\"10\",\"7\",\"P\",\"C\",\"10\"
\"\",\"\",\"approach-retreat\",\"159\",\"1440665\",\"0.0-159.0\",\"\",\"\",\"1-1\",\"5794\",\"40\",\"1\",\"Testing\",\"Stims/Figures/57-J-0-1.bmp\",\"ta:ka:ta\",\"Down\",\"40\",\"1\",\"11\",\"7\",\"P\",\"C\",\"11\"
\"\",\"\",\"approach-retreat\",\"160\",\"1446605\",\"0.0-160.0\",\"\",\"\",\"1-1\",\"4416\",\"38\",\"1\",\"Testing\",\"Stims/Figures/87-C-20-4.bmp\",\"nala:la\",\"Down\",\"38\",\"1\",\"12\",\"7\",\"S\",\"C\",\"12\"
\"\",\"\",\"approach-retreat\",\"161\",\"1452320\",\"0.0-161.0\",\"\",\"\",\"1-1\",\"4199\",\"40\",\"1\",\"Testing\",\"Stims/Figures/128-J-10-3.bmp\",\"mala:na\",\"Down\",\"40\",\"1\",\"13\",\"7\",\"S\",\"C\",\"13\"
\"\",\"\",\"approach-retreat\",\"162\",\"1458091\",\"0.0-162.0\",\"\",\"\",\"1-1\",\"4252\",\"37\",\"1\",\"Testing\",\"Stims/Figures/86-J-0-1.bmp\",\"pa:pa:ka\",\"Left\",\"37\",\"1\",\"14\",\"7\",\"P\",\"C\",\"14\"
\"\",\"\",\"approach-retreat\",\"163\",\"1465705\",\"0.0-163.0\",\"\",\"\",\"1-1\",\"6096\",\"38\",\"0\",\"Testing\",\"Stims/Figures/74-C-20-4.bmp\",\"mamala\",\"Up\",\"40\",\"1\",\"15\",\"7\",\"S\",\"C\",\"15\"
\"\",\"\",\"approach-retreat\",\"164\",\"1471793\",\"0.0-164.0\",\"\",\"\",\"1-1\",\"4579\",\"38\",\"1\",\"Testing\",\"Stims/Figures/87-J-10-4.bmp\",\"na:lala\",\"Up\",\"38\",\"1\",\"16\",\"7\",\"S\",\"C\",\"16\"
\"\",\"\",\"approach-retreat\",\"165\",\"1477784\",\"0.0-165.0\",\"\",\"\",\"1-1\",\"4464\",\"39\",\"1\",\"Testing\",\"Stims/Figures/74-J-10-4.bmp\",\"na:lana\",\"Right\",\"39\",\"1\",\"17\",\"7\",\"S\",\"C\",\"17\"
\"\",\"\",\"approach-retreat\",\"166\",\"1484956\",\"0.0-166.0\",\"\",\"\",\"1-1\",\"5666\",\"37\",\"1\",\"Testing\",\"Stims/Figures/118-C-20-2.bmp\",\"takaka\",\"Right\",\"37\",\"1\",\"18\",\"7\",\"P\",\"C\",\"18\"
\"\",\"\",\"approach-retreat\",\"167\",\"1492125\",\"0.0-167.0\",\"\",\"\",\"1-1\",\"5649\",\"38\",\"1\",\"Testing\",\"Stims/Figures/27-C-30-1.bmp\",\"pa:kata\",\"Down\",\"38\",\"1\",\"19\",\"7\",\"P\",\"C\",\"19\"
\"\",\"\",\"approach-retreat\",\"168\",\"1499096\",\"0.0-168.0\",\"\",\"\",\"1-1\",\"5465\",\"38\",\"1\",\"Testing\",\"Stims/Figures/94-J-0-2.bmp\",\"ta:pa:ta\",\"Up\",\"38\",\"1\",\"20\",\"7\",\"P\",\"C\",\"20\"
\"\",\"\",\"approach-retreat\",\"169\",\"1505407\",\"0.0-169.0\",\"\",\"\",\"1-1\",\"4797\",\"39\",\"1\",\"Testing\",\"Stims/Figures/85-J-0-2.bmp\",\"tapa:ka\",\"Right\",\"39\",\"1\",\"21\",\"7\",\"P\",\"C\",\"21\"
\"\",\"\",\"approach-retreat\",\"170\",\"1512535\",\"0.0-170.0\",\"\",\"\",\"1-1\",\"5605\",\"38\",\"1\",\"Testing\",\"Stims/Figures/27-J-0-1.bmp\",\"ta:pata\",\"Up\",\"38\",\"1\",\"22\",\"7\",\"P\",\"C\",\"22\"
\"\",\"\",\"approach-retreat\",\"171\",\"1519780\",\"0.0-171.0\",\"\",\"\",\"1-1\",\"5725\",\"40\",\"1\",\"Testing\",\"Stims/Figures/144-J-10-3.bmp\",\"malala\",\"Down\",\"40\",\"1\",\"23\",\"7\",\"S\",\"C\",\"23\"
\"\",\"\",\"approach-retreat\",\"172\",\"1526258\",\"0.0-172.0\",\"\",\"\",\"1-1\",\"4966\",\"37\",\"1\",\"Testing\",\"Stims/Figures/94-C-20-2.bmp\",\"pa:ka:ka\",\"Right\",\"37\",\"1\",\"24\",\"7\",\"P\",\"C\",\"24\"
\"\",\"\",\"approach-retreat\",\"173\",\"1532302\",\"0.0-173.0\",\"\",\"\",\"1-1\",\"4530\",\"38\",\"1\",\"Testing\",\"Stims/Figures/87-C-20-4.bmp\",\"nala:la\",\"Down\",\"38\",\"2\",\"1\",\"7\",\"S\",\"C\",\"25\"
\"\",\"\",\"approach-retreat\",\"174\",\"1540114\",\"0.0-174.0\",\"\",\"\",\"1-1\",\"6288\",\"38\",\"1\",\"Testing\",\"Stims/Figures/128-J-10-3.bmp\",\"mala:na\",\"Up\",\"38\",\"2\",\"2\",\"7\",\"S\",\"C\",\"26\"
\"\",\"\",\"approach-retreat\",\"175\",\"1545634\",\"0.0-175.0\",\"\",\"\",\"1-1\",\"3997\",\"39\",\"1\",\"Testing\",\"Stims/Figures/86-C-30-1.bmp\",\"takata\",\"Left\",\"39\",\"2\",\"3\",\"7\",\"P\",\"C\",\"27\"
\"\",\"\",\"approach-retreat\",\"176\",\"1551177\",\"0.0-176.0\",\"\",\"\",\"1-1\",\"4035\",\"37\",\"1\",\"Testing\",\"Stims/Figures/128-C-30-3.bmp\",\"mala:la\",\"Right\",\"37\",\"2\",\"4\",\"7\",\"S\",\"C\",\"28\"
\"\",\"\",\"approach-retreat\",\"177\",\"1556877\",\"0.0-177.0\",\"\",\"\",\"1-1\",\"4189\",\"38\",\"1\",\"Testing\",\"Stims/Figures/144-C-30-3.bmp\",\"na:ma:la\",\"Down\",\"38\",\"2\",\"5\",\"7\",\"S\",\"C\",\"29\"
\"\",\"\",\"approach-retreat\",\"178\",\"1562356\",\"0.0-178.0\",\"\",\"\",\"1-1\",\"3960\",\"38\",\"0\",\"Testing\",\"Stims/Figures/74-J-10-4.bmp\",\"na:lana\",\"Down\",\"40\",\"2\",\"6\",\"7\",\"S\",\"C\",\"30\"
\"\",\"\",\"approach-retreat\",\"179\",\"1568685\",\"0.0-179.0\",\"\",\"\",\"1-1\",\"4811\",\"38\",\"1\",\"Testing\",\"Stims/Figures/85-J-0-2.bmp\",\"tapa:ka\",\"Up\",\"38\",\"2\",\"7\",\"7\",\"P\",\"C\",\"31\"
\"\",\"\",\"approach-retreat\",\"180\",\"1575034\",\"0.0-180.0\",\"\",\"\",\"1-1\",\"4821\",\"39\",\"1\",\"Testing\",\"Stims/Figures/86-J-0-1.bmp\",\"pa:pa:ka\",\"Right\",\"39\",\"2\",\"8\",\"7\",\"P\",\"C\",\"32\"
\"\",\"\",\"approach-retreat\",\"181\",\"1581032\",\"0.0-181.0\",\"\",\"\",\"1-1\",\"4474\",\"37\",\"1\",\"Testing\",\"Stims/Figures/94-J-0-2.bmp\",\"ta:pa:ta\",\"Left\",\"37\",\"2\",\"9\",\"7\",\"P\",\"C\",\"33\"
\"\",\"\",\"approach-retreat\",\"182\",\"1586719\",\"0.0-182.0\",\"\",\"\",\"1-1\",\"4164\",\"39\",\"0\",\"Testing\",\"Stims/Figures/94-C-20-2.bmp\",\"pa:ka:ka\",\"Right\",\"37\",\"2\",\"10\",\"7\",\"P\",\"C\",\"34\"
\"\",\"\",\"approach-retreat\",\"183\",\"1592624\",\"0.0-183.0\",\"\",\"\",\"1-1\",\"4397\",\"37\",\"1\",\"Testing\",\"Stims/Figures/111-C-30-3.bmp\",\"ma:ma:na\",\"Right\",\"37\",\"2\",\"11\",\"7\",\"S\",\"C\",\"35\"
\"\",\"\",\"approach-retreat\",\"184\",\"1598820\",\"0.0-184.0\",\"\",\"\",\"1-1\",\"4688\",\"38\",\"1\",\"Testing\",\"Stims/Figures/85-C-20-2.bmp\",\"taka:ta\",\"Down\",\"38\",\"2\",\"12\",\"7\",\"P\",\"C\",\"36\"
\"\",\"\",\"approach-retreat\",\"185\",\"1605504\",\"0.0-185.0\",\"\",\"\",\"1-1\",\"5162\",\"39\",\"1\",\"Testing\",\"Stims/Figures/102-C-20-4.bmp\",\"nala:na\",\"Left\",\"39\",\"2\",\"13\",\"7\",\"S\",\"C\",\"37\"
\"\",\"\",\"approach-retreat\",\"186\",\"1610966\",\"0.0-186.0\",\"\",\"\",\"1-1\",\"3952\",\"39\",\"1\",\"Testing\",\"Stims/Figures/118-C-20-2.bmp\",\"takaka\",\"Left\",\"39\",\"2\",\"14\",\"7\",\"P\",\"C\",\"38\"
\"\",\"\",\"approach-retreat\",\"187\",\"1617634\",\"0.0-187.0\",\"\",\"\",\"1-1\",\"5149\",\"38\",\"0\",\"Testing\",\"Stims/Figures/111-J-10-3.bmp\",\"ma:lana\",\"Down\",\"40\",\"2\",\"15\",\"7\",\"S\",\"C\",\"39\"
\"\",\"\",\"approach-retreat\",\"188\",\"1623243\",\"0.0-188.0\",\"\",\"\",\"1-1\",\"4088\",\"37\",\"0\",\"Testing\",\"Stims/Figures/144-J-10-3.bmp\",\"malala\",\"Right\",\"39\",\"2\",\"16\",\"7\",\"S\",\"C\",\"40\"
\"\",\"\",\"approach-retreat\",\"189\",\"1629254\",\"0.0-189.0\",\"\",\"\",\"1-1\",\"4496\",\"38\",\"1\",\"Testing\",\"Stims/Figures/87-J-10-4.bmp\",\"na:lala\",\"Up\",\"38\",\"2\",\"17\",\"7\",\"S\",\"C\",\"41\"
\"\",\"\",\"approach-retreat\",\"190\",\"1635034\",\"0.0-190.0\",\"\",\"\",\"1-1\",\"4268\",\"38\",\"1\",\"Testing\",\"Stims/Figures/118-J-0-2.bmp\",\"ta:kata\",\"Up\",\"38\",\"2\",\"18\",\"7\",\"P\",\"C\",\"42\"
\"\",\"\",\"approach-retreat\",\"191\",\"1643274\",\"0.0-191.0\",\"\",\"\",\"1-1\",\"6718\",\"38\",\"1\",\"Testing\",\"Stims/Figures/27-J-0-1.bmp\",\"ta:pata\",\"Up\",\"38\",\"2\",\"19\",\"7\",\"P\",\"C\",\"43\"
\"\",\"\",\"approach-retreat\",\"192\",\"1653379\",\"0.0-192.0\",\"\",\"\",\"1-1\",\"8590\",\"38\",\"1\",\"Testing\",\"Stims/Figures/74-C-20-4.bmp\",\"mamala\",\"Down\",\"38\",\"2\",\"20\",\"7\",\"S\",\"C\",\"44\"
\"\",\"\",\"approach-retreat\",\"193\",\"1673591\",\"0.0-193.0\",\"\",\"\",\"1-1\",\"18696\",\"37\",\"1\",\"Testing\",\"Stims/Figures/102-J-10-4.bmp\",\"ma:mana\",\"Left\",\"37\",\"2\",\"21\",\"7\",\"S\",\"C\",\"45\"
\"\",\"\",\"approach-retreat\",\"194\",\"1679939\",\"0.0-194.0\",\"\",\"\",\"1-1\",\"4836\",\"39\",\"0\",\"Testing\",\"Stims/Figures/57-C-30-1.bmp\",\"papa:ta\",\"Right\",\"37\",\"2\",\"22\",\"7\",\"P\",\"C\",\"46\"
\"\",\"\",\"approach-retreat\",\"195\",\"1686334\",\"0.0-195.0\",\"\",\"\",\"1-1\",\"4871\",\"40\",\"1\",\"Testing\",\"Stims/Figures/27-C-30-1.bmp\",\"pa:kata\",\"Up\",\"40\",\"2\",\"23\",\"7\",\"P\",\"C\",\"47\"
\"\",\"\",\"approach-retreat\",\"196\",\"1693488\",\"0.0-196.0\",\"\",\"\",\"1-1\",\"5639\",\"37\",\"1\",\"Testing\",\"Stims/Figures/57-J-0-1.bmp\",\"ta:ka:ta\",\"Left\",\"37\",\"2\",\"24\",\"7\",\"P\",\"C\",\"48\"
\"\",\"\",\"approach-retreat\",\"197\",\"1700834\",\"0.0-197.0\",\"\",\"\",\"1-1\",\"5830\",\"40\",\"1\",\"Testing\",\"Stims/Figures/85-J-0-2.bmp\",\"tapa:ka\",\"Down\",\"40\",\"3\",\"1\",\"7\",\"P\",\"C\",\"49\"
\"\",\"\",\"approach-retreat\",\"198\",\"1707473\",\"0.0-198.0\",\"\",\"\",\"1-1\",\"5118\",\"40\",\"1\",\"Testing\",\"Stims/Figures/57-J-0-1.bmp\",\"ta:ka:ta\",\"Down\",\"40\",\"3\",\"2\",\"7\",\"P\",\"C\",\"50\"
\"\",\"\",\"approach-retreat\",\"199\",\"1716471\",\"0.0-199.0\",\"\",\"\",\"1-1\",\"7479\",\"40\",\"1\",\"Testing\",\"Stims/Figures/102-C-20-4.bmp\",\"nala:na\",\"Up\",\"40\",\"3\",\"3\",\"7\",\"S\",\"C\",\"51\"
\"\",\"\",\"approach-retreat\",\"200\",\"1722762\",\"0.0-200.0\",\"\",\"\",\"1-1\",\"4783\",\"39\",\"1\",\"Testing\",\"Stims/Figures/27-J-0-1.bmp\",\"ta:pata\",\"Right\",\"39\",\"3\",\"4\",\"7\",\"P\",\"C\",\"52\"
\"\",\"\",\"approach-retreat\",\"201\",\"1736596\",\"0.0-201.0\",\"\",\"\",\"1-1\",\"12310\",\"40\",\"1\",\"Testing\",\"Stims/Figures/85-C-20-2.bmp\",\"taka:ta\",\"Up\",\"40\",\"3\",\"5\",\"7\",\"P\",\"C\",\"53\"
\"\",\"\",\"approach-retreat\",\"202\",\"1782589\",\"0.0-202.0\",\"\",\"\",\"1-1\",\"44472\",\"37\",\"0\",\"Testing\",\"Stims/Figures/94-C-20-2.bmp\",\"pa:ka:ka\",\"Left\",\"39\",\"3\",\"6\",\"7\",\"P\",\"C\",\"54\"
\"\",\"\",\"approach-retreat\",\"203\",\"1789069\",\"0.0-203.0\",\"\",\"\",\"1-1\",\"4957\",\"37\",\"0\",\"Testing\",\"Stims/Figures/118-C-20-2.bmp\",\"takaka\",\"Left\",\"39\",\"3\",\"7\",\"7\",\"P\",\"C\",\"55\"
\"\",\"\",\"approach-retreat\",\"204\",\"1796214\",\"0.0-204.0\",\"\",\"\",\"1-1\",\"5630\",\"37\",\"0\",\"Testing\",\"Stims/Figures/87-C-20-4.bmp\",\"nala:la\",\"Left\",\"39\",\"3\",\"8\",\"7\",\"S\",\"C\",\"56\"
\"\",\"\",\"approach-retreat\",\"205\",\"1802846\",\"0.0-205.0\",\"\",\"\",\"1-1\",\"5123\",\"38\",\"1\",\"Testing\",\"Stims/Figures/102-J-10-4.bmp\",\"ma:mana\",\"Up\",\"38\",\"3\",\"9\",\"7\",\"S\",\"C\",\"57\"
\"\",\"\",\"approach-retreat\",\"206\",\"1810745\",\"0.0-206.0\",\"\",\"\",\"1-1\",\"6389\",\"38\",\"1\",\"Testing\",\"Stims/Figures/74-J-10-4.bmp\",\"na:lana\",\"Up\",\"38\",\"3\",\"10\",\"7\",\"S\",\"C\",\"58\"
\"\",\"\",\"approach-retreat\",\"207\",\"1817906\",\"0.0-207.0\",\"\",\"\",\"1-1\",\"5637\",\"37\",\"1\",\"Testing\",\"Stims/Figures/57-C-30-1.bmp\",\"papa:ta\",\"Right\",\"37\",\"3\",\"11\",\"7\",\"P\",\"C\",\"59\"
\"\",\"\",\"approach-retreat\",\"208\",\"1826113\",\"0.0-208.0\",\"\",\"\",\"1-1\",\"6683\",\"37\",\"1\",\"Testing\",\"Stims/Figures/27-C-30-1.bmp\",\"pa:kata\",\"Right\",\"37\",\"3\",\"12\",\"7\",\"P\",\"C\",\"60\"
\"\",\"\",\"approach-retreat\",\"209\",\"1834603\",\"0.0-209.0\",\"\",\"\",\"1-1\",\"6965\",\"40\",\"1\",\"Testing\",\"Stims/Figures/128-C-30-3.bmp\",\"mala:la\",\"Up\",\"40\",\"3\",\"13\",\"7\",\"S\",\"C\",\"61\"
\"\",\"\",\"approach-retreat\",\"210\",\"1840986\",\"0.0-210.0\",\"\",\"\",\"1-1\",\"4861\",\"38\",\"1\",\"Testing\",\"Stims/Figures/111-J-10-3.bmp\",\"ma:lana\",\"Up\",\"38\",\"3\",\"14\",\"7\",\"S\",\"C\",\"62\"
\"\",\"\",\"approach-retreat\",\"211\",\"1847456\",\"0.0-211.0\",\"\",\"\",\"1-1\",\"4958\",\"39\",\"1\",\"Testing\",\"Stims/Figures/144-J-10-3.bmp\",\"malala\",\"Right\",\"39\",\"3\",\"15\",\"7\",\"S\",\"C\",\"63\"
\"\",\"\",\"approach-retreat\",\"212\",\"1854242\",\"0.0-212.0\",\"\",\"\",\"1-1\",\"5273\",\"40\",\"1\",\"Testing\",\"Stims/Figures/94-J-0-2.bmp\",\"ta:pa:ta\",\"Down\",\"40\",\"3\",\"16\",\"7\",\"P\",\"C\",\"64\"
\"\",\"\",\"approach-retreat\",\"213\",\"1869770\",\"0.0-213.0\",\"\",\"\",\"1-1\",\"14013\",\"37\",\"1\",\"Testing\",\"Stims/Figures/128-J-10-3.bmp\",\"mala:na\",\"Left\",\"37\",\"3\",\"17\",\"7\",\"S\",\"C\",\"65\"
\"\",\"\",\"approach-retreat\",\"214\",\"1876035\",\"0.0-214.0\",\"\",\"\",\"1-1\",\"4751\",\"40\",\"1\",\"Testing\",\"Stims/Figures/87-J-10-4.bmp\",\"na:lala\",\"Down\",\"40\",\"3\",\"18\",\"7\",\"S\",\"C\",\"66\"
\"\",\"\",\"approach-retreat\",\"215\",\"1889633\",\"0.0-215.0\",\"\",\"\",\"1-1\",\"12074\",\"37\",\"1\",\"Testing\",\"Stims/Figures/86-C-30-1.bmp\",\"takata\",\"Right\",\"37\",\"3\",\"19\",\"7\",\"P\",\"C\",\"67\"
\"\",\"\",\"approach-retreat\",\"216\",\"1898924\",\"0.0-216.0\",\"\",\"\",\"1-1\",\"7778\",\"37\",\"1\",\"Testing\",\"Stims/Figures/144-C-30-3.bmp\",\"na:ma:la\",\"Right\",\"37\",\"3\",\"20\",\"7\",\"S\",\"C\",\"68\"
\"\",\"\",\"approach-retreat\",\"217\",\"1907742\",\"0.0-217.0\",\"\",\"\",\"1-1\",\"7298\",\"37\",\"1\",\"Testing\",\"Stims/Figures/86-J-0-1.bmp\",\"pa:pa:ka\",\"Left\",\"37\",\"3\",\"21\",\"7\",\"P\",\"C\",\"69\"
\"\",\"\",\"approach-retreat\",\"218\",\"1918335\",\"0.0-218.0\",\"\",\"\",\"1-1\",\"9071\",\"40\",\"0\",\"Testing\",\"Stims/Figures/74-C-20-4.bmp\",\"mamala\",\"Down\",\"38\",\"3\",\"22\",\"7\",\"S\",\"C\",\"70\"
\"\",\"\",\"approach-retreat\",\"219\",\"1935560\",\"0.0-219.0\",\"\",\"\",\"1-1\",\"15703\",\"38\",\"1\",\"Testing\",\"Stims/Figures/111-C-30-3.bmp\",\"ma:ma:na\",\"Down\",\"38\",\"3\",\"23\",\"7\",\"S\",\"C\",\"71\"
\"\",\"\",\"approach-retreat\",\"220\",\"1942075\",\"0.0-220.0\",\"\",\"\",\"1-1\",\"4991\",\"37\",\"1\",\"Testing\",\"Stims/Figures/118-J-0-2.bmp\",\"ta:kata\",\"Left\",\"37\",\"3\",\"24\",\"7\",\"P\",\"C\",\"72\"
\"\",\"\",\"approach-retreat\",\"221\",\"1970238\",\"0.0-221.0\",\"\",\"\",\"1-1\",\"26649\",\"40\",\"1\",\"Testing\",\"Stims/Figures/74-J-10-4.bmp\",\"na:lana\",\"Down\",\"40\",\"4\",\"1\",\"7\",\"S\",\"C\",\"73\"
\"\",\"\",\"approach-retreat\",\"222\",\"1981485\",\"0.0-222.0\",\"\",\"\",\"1-1\",\"9739\",\"37\",\"1\",\"Testing\",\"Stims/Figures/94-C-20-2.bmp\",\"pa:ka:ka\",\"Right\",\"37\",\"4\",\"2\",\"7\",\"P\",\"C\",\"74\"
\"\",\"\",\"approach-retreat\",\"223\",\"1987890\",\"0.0-223.0\",\"\",\"\",\"1-1\",\"4882\",\"40\",\"1\",\"Testing\",\"Stims/Figures/144-C-30-3.bmp\",\"na:ma:la\",\"Up\",\"40\",\"4\",\"3\",\"7\",\"S\",\"C\",\"75\"
\"\",\"\",\"approach-retreat\",\"224\",\"2000200\",\"0.0-224.0\",\"\",\"\",\"1-1\",\"10797\",\"40\",\"1\",\"Testing\",\"Stims/Figures/111-J-10-3.bmp\",\"ma:lana\",\"Down\",\"40\",\"4\",\"4\",\"7\",\"S\",\"C\",\"76\"
\"\",\"\",\"approach-retreat\",\"225\",\"2009817\",\"0.0-225.0\",\"\",\"\",\"1-1\",\"8097\",\"39\",\"1\",\"Testing\",\"Stims/Figures/87-C-20-4.bmp\",\"nala:la\",\"Left\",\"39\",\"4\",\"5\",\"7\",\"S\",\"C\",\"77\"
\"\",\"\",\"approach-retreat\",\"226\",\"2017419\",\"0.0-226.0\",\"\",\"\",\"1-1\",\"6079\",\"39\",\"1\",\"Testing\",\"Stims/Figures/27-J-0-1.bmp\",\"ta:pata\",\"Right\",\"39\",\"4\",\"6\",\"7\",\"P\",\"C\",\"78\"
\"\",\"\",\"approach-retreat\",\"227\",\"2028763\",\"0.0-227.0\",\"\",\"\",\"1-1\",\"9835\",\"37\",\"1\",\"Testing\",\"Stims/Figures/102-J-10-4.bmp\",\"ma:mana\",\"Left\",\"37\",\"4\",\"7\",\"7\",\"S\",\"C\",\"79\"
\"\",\"\",\"approach-retreat\",\"228\",\"2038736\",\"0.0-228.0\",\"\",\"\",\"1-1\",\"8462\",\"40\",\"1\",\"Testing\",\"Stims/Figures/118-C-20-2.bmp\",\"takaka\",\"Up\",\"40\",\"4\",\"8\",\"7\",\"P\",\"C\",\"80\"
\"\",\"\",\"approach-retreat\",\"229\",\"2046491\",\"0.0-229.0\",\"\",\"\",\"1-1\",\"6231\",\"38\",\"1\",\"Testing\",\"Stims/Figures/74-C-20-4.bmp\",\"mamala\",\"Down\",\"38\",\"4\",\"9\",\"7\",\"S\",\"C\",\"81\"
\"\",\"\",\"approach-retreat\",\"230\",\"2052344\",\"0.0-230.0\",\"\",\"\",\"1-1\",\"4334\",\"38\",\"1\",\"Testing\",\"Stims/Figures/87-J-10-4.bmp\",\"na:lala\",\"Up\",\"38\",\"4\",\"10\",\"7\",\"S\",\"C\",\"82\"
\"\",\"\",\"approach-retreat\",\"231\",\"2059508\",\"0.0-231.0\",\"\",\"\",\"1-1\",\"5651\",\"37\",\"1\",\"Testing\",\"Stims/Figures/86-J-0-1.bmp\",\"pa:pa:ka\",\"Left\",\"37\",\"4\",\"11\",\"7\",\"P\",\"C\",\"83\"
\"\",\"\",\"approach-retreat\",\"232\",\"2069352\",\"0.0-232.0\",\"\",\"\",\"1-1\",\"8320\",\"37\",\"1\",\"Testing\",\"Stims/Figures/111-C-30-3.bmp\",\"ma:ma:na\",\"Right\",\"37\",\"4\",\"12\",\"7\",\"S\",\"C\",\"84\"
\"\",\"\",\"approach-retreat\",\"233\",\"2079802\",\"0.0-233.0\",\"\",\"\",\"1-1\",\"8926\",\"38\",\"1\",\"Testing\",\"Stims/Figures/27-C-30-1.bmp\",\"pa:kata\",\"Down\",\"38\",\"4\",\"13\",\"7\",\"P\",\"C\",\"85\"
\"\",\"\",\"approach-retreat\",\"234\",\"2088149\",\"0.0-234.0\",\"\",\"\",\"1-1\",\"6837\",\"39\",\"1\",\"Testing\",\"Stims/Figures/86-C-30-1.bmp\",\"takata\",\"Left\",\"39\",\"4\",\"14\",\"7\",\"P\",\"C\",\"86\"
\"\",\"\",\"approach-retreat\",\"235\",\"2099829\",\"0.0-235.0\",\"\",\"\",\"1-1\",\"10156\",\"38\",\"0\",\"Testing\",\"Stims/Figures/144-J-10-3.bmp\",\"malala\",\"Down\",\"40\",\"4\",\"15\",\"7\",\"S\",\"C\",\"87\"
\"\",\"\",\"approach-retreat\",\"236\",\"2107053\",\"0.0-236.0\",\"\",\"\",\"1-1\",\"5716\",\"38\",\"1\",\"Testing\",\"Stims/Figures/85-J-0-2.bmp\",\"tapa:ka\",\"Up\",\"38\",\"4\",\"16\",\"7\",\"P\",\"C\",\"88\"
\"\",\"\",\"approach-retreat\",\"237\",\"2117608\",\"0.0-237.0\",\"\",\"\",\"1-1\",\"9034\",\"37\",\"1\",\"Testing\",\"Stims/Figures/57-C-30-1.bmp\",\"papa:ta\",\"Right\",\"37\",\"4\",\"17\",\"7\",\"P\",\"C\",\"89\"
\"\",\"\",\"approach-retreat\",\"238\",\"2133313\",\"0.0-238.0\",\"\",\"\",\"1-1\",\"14185\",\"38\",\"1\",\"Testing\",\"Stims/Figures/94-J-0-2.bmp\",\"ta:pa:ta\",\"Up\",\"38\",\"4\",\"18\",\"7\",\"P\",\"C\",\"90\"
\"\",\"\",\"approach-retreat\",\"239\",\"2150648\",\"0.0-239.0\",\"\",\"\",\"1-1\",\"15817\",\"39\",\"1\",\"Testing\",\"Stims/Figures/128-J-10-3.bmp\",\"mala:na\",\"Right\",\"39\",\"4\",\"19\",\"7\",\"S\",\"C\",\"91\"
\"\",\"\",\"approach-retreat\",\"240\",\"2157475\",\"0.0-240.0\",\"\",\"\",\"1-1\",\"5310\",\"39\",\"1\",\"Testing\",\"Stims/Figures/57-J-0-1.bmp\",\"ta:ka:ta\",\"Right\",\"39\",\"4\",\"20\",\"7\",\"P\",\"C\",\"92\"
\"\",\"\",\"approach-retreat\",\"241\",\"2163236\",\"0.0-241.0\",\"\",\"\",\"1-1\",\"4238\",\"40\",\"0\",\"Testing\",\"Stims/Figures/128-C-30-3.bmp\",\"mala:la\",\"Down\",\"38\",\"4\",\"21\",\"7\",\"S\",\"C\",\"93\"
\"\",\"\",\"approach-retreat\",\"242\",\"2169744\",\"0.0-242.0\",\"\",\"\",\"1-1\",\"4990\",\"39\",\"1\",\"Testing\",\"Stims/Figures/85-C-20-2.bmp\",\"taka:ta\",\"Left\",\"39\",\"4\",\"22\",\"7\",\"P\",\"C\",\"94\"
\"\",\"\",\"approach-retreat\",\"243\",\"2175331\",\"0.0-243.0\",\"\",\"\",\"1-1\",\"4068\",\"37\",\"1\",\"Testing\",\"Stims/Figures/118-J-0-2.bmp\",\"ta:kata\",\"Left\",\"37\",\"4\",\"23\",\"7\",\"P\",\"C\",\"95\"
\"\",\"\",\"approach-retreat\",\"244\",\"2183722\",\"0.0-244.0\",\"\",\"\",\"1-1\",\"6870\",\"40\",\"1\",\"Testing\",\"Stims/Figures/102-C-20-4.bmp\",\"nala:na\",\"Up\",\"40\",\"4\",\"24\",\"7\",\"S\",\"C\",\"96\"
\"27912\",\"\",\"survey-text\",\"245\",\"2211639\",\"0.0-245.0\",\"\",\"{\"\"Q0\"\":\"\"PS150033\"\"}\",\"\",\"\",\"\",\"\",\"\",\"\",\"\",\"\",\"\",\"\",\"\",\"\",\"\",\"\",\"\"
