\"rt\",\"key_press\",\"trial_type\",\"trial_index\",\"time_elapsed\",\"internal_node_id\",\"view_history\",\"responses\",\"Id\",\"Rt\",\"ResKeyCode\",\"ResCorr\",\"TrialType2\",\"Image\",\"Label\",\"Location\",\"CorrectResponse\",\"Block\",\"BlockTrial\",\"Condition\",\"LabelType\",\"Subcondition\",\"trialNum\"
\"231065\",\"32\",\"text\",\"0\",\"231092\",\"0.0-0.0-0.0\",\"\",\"\",\"\",\"\",\"\",\"\",\"\",\"\",\"\",\"\",\"\",\"\",\"\",\"\",\"\",\"\",\"\"
\"139110\",\"\",\"instructions\",\"1\",\"370219\",\"0.0-1.0\",\"[{\"\"page_index\"\":0,\"\"viewing_time\"\":139104}]\",\"\",\"\",\"\",\"\",\"\",\"\",\"\",\"\",\"\",\"\",\"\",\"\",\"\",\"\",\"\",\"\"
\"24473\",\"\",\"survey-multi-choice\",\"2\",\"394878\",\"0.0-2.0\",\"\",\"{\"\"Q0\"\":\"\"Da\"\",\"\"Q1\"\":\"\"Da\"\",\"\"Q2\"\":\"\"Da\"\",\"\"Q3\"\":\"\"Da\"\",\"\"Q4\"\":\"\"Da\"\",\"\"Q5\"\":\"\"Da\"\"}\",\"\",\"\",\"\",\"\",\"\",\"\",\"\",\"\",\"\",\"\",\"\",\"\",\"\",\"\",\"\"
\"\",\"\",\"bio\",\"3\",\"404947\",\"0.0-3.0\",\"\",\"{\"\"age\"\":\"\"19\"\",\"\"gender\"\":\"\"f\"\",\"\"specify\"\":\"\"\"\"}\",\"\",\"\",\"\",\"\",\"\",\"\",\"\",\"\",\"\",\"\",\"\",\"\",\"\",\"\",\"\"
\"\",\"\",\"approach-retreat\",\"4\",\"417178\",\"0.0-4.0\",\"\",\"\",\"1-2\",\"10686\",\"40\",\"1\",\"Training\",\"Stims/Figures/27-C-30-1.bmp\",\"nalana\",\"Down\",\"40\",\"1\",\"1\",\"4\",\"S\",\"J\",\"1\"
\"\",\"\",\"approach-retreat\",\"5\",\"426437\",\"0.0-5.0\",\"\",\"\",\"1-2\",\"7734\",\"38\",\"0\",\"Training\",\"Stims/Figures/71-J-0-1.bmp\",\"tapa:ka\",\"Up\",\"40\",\"1\",\"2\",\"4\",\"P\",\"J\",\"2\"
\"\",\"\",\"approach-retreat\",\"6\",\"434295\",\"0.0-6.0\",\"\",\"\",\"1-2\",\"6255\",\"38\",\"1\",\"Training\",\"Stims/Figures/87-J-10-4.bmp\",\"tapaka\",\"Down\",\"38\",\"1\",\"3\",\"4\",\"P\",\"J\",\"3\"
\"\",\"\",\"approach-retreat\",\"7\",\"443442\",\"0.0-7.0\",\"\",\"\",\"1-2\",\"7630\",\"40\",\"0\",\"Training\",\"Stims/Figures/128-J-10-3.bmp\",\"pa:kaka\",\"Down\",\"38\",\"1\",\"4\",\"4\",\"P\",\"J\",\"4\"
\"\",\"\",\"approach-retreat\",\"8\",\"450682\",\"0.0-8.0\",\"\",\"\",\"1-2\",\"5719\",\"39\",\"0\",\"Training\",\"Stims/Figures/128-C-30-3.bmp\",\"na:la:la\",\"Left\",\"37\",\"1\",\"5\",\"4\",\"S\",\"J\",\"5\"
\"\",\"\",\"approach-retreat\",\"9\",\"457785\",\"0.0-9.0\",\"\",\"\",\"1-2\",\"5565\",\"39\",\"1\",\"Training\",\"Stims/Figures/84-C-20-2.bmp\",\"mamana\",\"Right\",\"39\",\"1\",\"6\",\"4\",\"S\",\"J\",\"6\"
\"\",\"\",\"approach-retreat\",\"10\",\"467634\",\"0.0-10.0\",\"\",\"\",\"1-2\",\"8305\",\"37\",\"0\",\"Training\",\"Stims/Figures/87-C-20-4.bmp\",\"nala:na\",\"Right\",\"39\",\"1\",\"7\",\"4\",\"S\",\"J\",\"7\"
\"\",\"\",\"approach-retreat\",\"11\",\"475180\",\"0.0-11.0\",\"\",\"\",\"1-2\",\"6023\",\"40\",\"0\",\"Training\",\"Stims/Figures/19-C-20-4.bmp\",\"ma:lala\",\"Up\",\"38\",\"1\",\"8\",\"4\",\"S\",\"J\",\"8\"
\"\",\"\",\"approach-retreat\",\"12\",\"482510\",\"0.0-12.0\",\"\",\"\",\"1-2\",\"5791\",\"37\",\"1\",\"Training\",\"Stims/Figures/84-J-0-2.bmp\",\"pakaka\",\"Right\",\"37\",\"1\",\"9\",\"4\",\"P\",\"J\",\"9\"
\"\",\"\",\"approach-retreat\",\"13\",\"490613\",\"0.0-13.0\",\"\",\"\",\"1-2\",\"6568\",\"38\",\"0\",\"Training\",\"Stims/Figures/111-C-30-3.bmp\",\"mama:na\",\"Down\",\"40\",\"1\",\"10\",\"4\",\"S\",\"J\",\"10\"
\"\",\"\",\"approach-retreat\",\"14\",\"499109\",\"0.0-14.0\",\"\",\"\",\"1-2\",\"6925\",\"39\",\"0\",\"Training\",\"Stims/Figures/118-C-20-2.bmp\",\"nalala\",\"Left\",\"37\",\"1\",\"11\",\"4\",\"S\",\"J\",\"11\"
\"\",\"\",\"approach-retreat\",\"15\",\"505232\",\"0.0-15.0\",\"\",\"\",\"1-2\",\"4590\",\"40\",\"1\",\"Training\",\"Stims/Figures/19-J-10-4.bmp\",\"tapata\",\"Up\",\"40\",\"1\",\"12\",\"4\",\"P\",\"J\",\"12\"
\"\",\"\",\"approach-retreat\",\"16\",\"512529\",\"0.0-16.0\",\"\",\"\",\"1-2\",\"5755\",\"37\",\"1\",\"Training\",\"Stims/Figures/111-J-10-3.bmp\",\"pa:ka:ta\",\"Right\",\"37\",\"1\",\"13\",\"4\",\"P\",\"J\",\"13\"
\"\",\"\",\"approach-retreat\",\"17\",\"519962\",\"0.0-17.0\",\"\",\"\",\"1-2\",\"5907\",\"37\",\"0\",\"Training\",\"Stims/Figures/118-J-0-2.bmp\",\"tapa:ta\",\"Left\",\"39\",\"1\",\"14\",\"4\",\"P\",\"J\",\"14\"
\"\",\"\",\"approach-retreat\",\"18\",\"526147\",\"0.0-18.0\",\"\",\"\",\"1-2\",\"4665\",\"40\",\"1\",\"Training\",\"Stims/Figures/27-J-0-1.bmp\",\"ta:pata\",\"Up\",\"40\",\"1\",\"15\",\"4\",\"P\",\"J\",\"15\"
\"\",\"\",\"approach-retreat\",\"19\",\"533054\",\"0.0-19.0\",\"\",\"\",\"1-2\",\"5384\",\"37\",\"1\",\"Training\",\"Stims/Figures/71-C-30-1.bmp\",\"na:mana\",\"Left\",\"37\",\"1\",\"16\",\"4\",\"S\",\"J\",\"16\"
\"\",\"\",\"approach-retreat\",\"20\",\"541834\",\"0.0-20.0\",\"\",\"\",\"1-2\",\"7263\",\"40\",\"1\",\"Training\",\"Stims/Figures/111-C-30-3.bmp\",\"mama:na\",\"Down\",\"40\",\"2\",\"1\",\"4\",\"S\",\"J\",\"17\"
\"\",\"\",\"approach-retreat\",\"21\",\"548405\",\"0.0-21.0\",\"\",\"\",\"1-2\",\"5040\",\"37\",\"1\",\"Training\",\"Stims/Figures/19-C-20-4.bmp\",\"ma:lala\",\"Left\",\"37\",\"2\",\"2\",\"4\",\"S\",\"J\",\"18\"
\"\",\"\",\"approach-retreat\",\"22\",\"554421\",\"0.0-22.0\",\"\",\"\",\"1-2\",\"4503\",\"40\",\"0\",\"Training\",\"Stims/Figures/128-J-10-3.bmp\",\"pa:kaka\",\"Down\",\"38\",\"2\",\"3\",\"4\",\"P\",\"J\",\"19\"
\"\",\"\",\"approach-retreat\",\"23\",\"560765\",\"0.0-23.0\",\"\",\"\",\"1-2\",\"4833\",\"38\",\"1\",\"Training\",\"Stims/Figures/128-C-30-3.bmp\",\"na:la:la\",\"Up\",\"38\",\"2\",\"4\",\"4\",\"S\",\"J\",\"20\"
\"\",\"\",\"approach-retreat\",\"24\",\"568695\",\"0.0-24.0\",\"\",\"\",\"1-2\",\"6404\",\"39\",\"0\",\"Training\",\"Stims/Figures/87-J-10-4.bmp\",\"tapaka\",\"Right\",\"37\",\"2\",\"5\",\"4\",\"P\",\"J\",\"21\"
\"\",\"\",\"approach-retreat\",\"25\",\"576164\",\"0.0-25.0\",\"\",\"\",\"1-2\",\"5927\",\"39\",\"1\",\"Training\",\"Stims/Figures/27-C-30-1.bmp\",\"nalana\",\"Right\",\"39\",\"2\",\"6\",\"4\",\"S\",\"J\",\"22\"
\"\",\"\",\"approach-retreat\",\"26\",\"582389\",\"0.0-26.0\",\"\",\"\",\"1-2\",\"4713\",\"39\",\"1\",\"Training\",\"Stims/Figures/27-J-0-1.bmp\",\"ta:pata\",\"Left\",\"39\",\"2\",\"7\",\"4\",\"P\",\"J\",\"23\"
\"\",\"\",\"approach-retreat\",\"27\",\"590998\",\"0.0-27.0\",\"\",\"\",\"1-2\",\"7074\",\"38\",\"1\",\"Training\",\"Stims/Figures/87-C-20-4.bmp\",\"nala:na\",\"Up\",\"38\",\"2\",\"8\",\"4\",\"S\",\"J\",\"24\"
\"\",\"\",\"approach-retreat\",\"28\",\"597413\",\"0.0-28.0\",\"\",\"\",\"1-2\",\"4905\",\"37\",\"0\",\"Training\",\"Stims/Figures/84-J-0-2.bmp\",\"pakaka\",\"Left\",\"39\",\"2\",\"9\",\"4\",\"P\",\"J\",\"25\"
\"\",\"\",\"approach-retreat\",\"29\",\"606045\",\"0.0-29.0\",\"\",\"\",\"1-2\",\"7113\",\"40\",\"0\",\"Training\",\"Stims/Figures/111-J-10-3.bmp\",\"pa:ka:ta\",\"Down\",\"38\",\"2\",\"10\",\"4\",\"P\",\"J\",\"26\"
\"\",\"\",\"approach-retreat\",\"30\",\"612203\",\"0.0-30.0\",\"\",\"\",\"1-2\",\"4637\",\"38\",\"0\",\"Training\",\"Stims/Figures/118-C-20-2.bmp\",\"nalala\",\"Down\",\"40\",\"2\",\"11\",\"4\",\"S\",\"J\",\"27\"
\"\",\"\",\"approach-retreat\",\"31\",\"619208\",\"0.0-31.0\",\"\",\"\",\"1-2\",\"5486\",\"39\",\"0\",\"Training\",\"Stims/Figures/71-C-30-1.bmp\",\"na:mana\",\"Left\",\"37\",\"2\",\"12\",\"4\",\"S\",\"J\",\"28\"
\"\",\"\",\"approach-retreat\",\"32\",\"627582\",\"0.0-32.0\",\"\",\"\",\"1-2\",\"6848\",\"38\",\"0\",\"Training\",\"Stims/Figures/118-J-0-2.bmp\",\"tapa:ta\",\"Up\",\"40\",\"2\",\"13\",\"4\",\"P\",\"J\",\"29\"
\"\",\"\",\"approach-retreat\",\"33\",\"634224\",\"0.0-33.0\",\"\",\"\",\"1-2\",\"5121\",\"39\",\"0\",\"Training\",\"Stims/Figures/19-J-10-4.bmp\",\"tapata\",\"Right\",\"37\",\"2\",\"14\",\"4\",\"P\",\"J\",\"30\"
\"\",\"\",\"approach-retreat\",\"34\",\"641443\",\"0.0-34.0\",\"\",\"\",\"1-2\",\"5699\",\"40\",\"1\",\"Training\",\"Stims/Figures/71-J-0-1.bmp\",\"tapa:ka\",\"Up\",\"40\",\"2\",\"15\",\"4\",\"P\",\"J\",\"31\"
\"\",\"\",\"approach-retreat\",\"35\",\"648765\",\"0.0-35.0\",\"\",\"\",\"1-2\",\"5801\",\"37\",\"0\",\"Training\",\"Stims/Figures/84-C-20-2.bmp\",\"mamana\",\"Right\",\"39\",\"2\",\"16\",\"4\",\"S\",\"J\",\"32\"
\"\",\"\",\"approach-retreat\",\"36\",\"655484\",\"0.0-36.0\",\"\",\"\",\"1-2\",\"5196\",\"38\",\"1\",\"Training\",\"Stims/Figures/84-C-20-2.bmp\",\"mamana\",\"Up\",\"38\",\"3\",\"1\",\"4\",\"S\",\"J\",\"33\"
\"\",\"\",\"approach-retreat\",\"37\",\"661880\",\"0.0-37.0\",\"\",\"\",\"1-2\",\"4828\",\"37\",\"0\",\"Training\",\"Stims/Figures/84-J-0-2.bmp\",\"pakaka\",\"Left\",\"39\",\"3\",\"2\",\"4\",\"P\",\"J\",\"34\"
\"\",\"\",\"approach-retreat\",\"38\",\"668834\",\"0.0-38.0\",\"\",\"\",\"1-2\",\"5431\",\"40\",\"0\",\"Training\",\"Stims/Figures/27-J-0-1.bmp\",\"ta:pata\",\"Down\",\"38\",\"3\",\"3\",\"4\",\"P\",\"J\",\"35\"
\"\",\"\",\"approach-retreat\",\"39\",\"675148\",\"0.0-39.0\",\"\",\"\",\"1-2\",\"4795\",\"40\",\"0\",\"Training\",\"Stims/Figures/111-C-30-3.bmp\",\"mama:na\",\"Up\",\"38\",\"3\",\"4\",\"4\",\"S\",\"J\",\"36\"
\"\",\"\",\"approach-retreat\",\"40\",\"684486\",\"0.0-40.0\",\"\",\"\",\"1-2\",\"7814\",\"39\",\"1\",\"Training\",\"Stims/Figures/118-C-20-2.bmp\",\"nalala\",\"Right\",\"39\",\"3\",\"5\",\"4\",\"S\",\"J\",\"37\"
\"\",\"\",\"approach-retreat\",\"41\",\"691663\",\"0.0-41.0\",\"\",\"\",\"1-2\",\"5657\",\"37\",\"1\",\"Training\",\"Stims/Figures/111-J-10-3.bmp\",\"pa:ka:ta\",\"Right\",\"37\",\"3\",\"6\",\"4\",\"P\",\"J\",\"38\"
\"\",\"\",\"approach-retreat\",\"42\",\"701779\",\"0.0-42.0\",\"\",\"\",\"1-2\",\"8597\",\"39\",\"1\",\"Training\",\"Stims/Figures/71-C-30-1.bmp\",\"na:mana\",\"Right\",\"39\",\"3\",\"7\",\"4\",\"S\",\"J\",\"39\"
\"\",\"\",\"approach-retreat\",\"43\",\"709868\",\"0.0-43.0\",\"\",\"\",\"1-2\",\"6571\",\"40\",\"0\",\"Training\",\"Stims/Figures/87-J-10-4.bmp\",\"tapaka\",\"Down\",\"38\",\"3\",\"8\",\"4\",\"P\",\"J\",\"40\"
\"\",\"\",\"approach-retreat\",\"44\",\"716062\",\"0.0-44.0\",\"\",\"\",\"1-2\",\"4674\",\"37\",\"1\",\"Training\",\"Stims/Figures/19-C-20-4.bmp\",\"ma:lala\",\"Left\",\"37\",\"3\",\"9\",\"4\",\"S\",\"J\",\"41\"
\"\",\"\",\"approach-retreat\",\"45\",\"722373\",\"0.0-45.0\",\"\",\"\",\"1-2\",\"4791\",\"39\",\"0\",\"Training\",\"Stims/Figures/19-J-10-4.bmp\",\"tapata\",\"Right\",\"37\",\"3\",\"10\",\"4\",\"P\",\"J\",\"42\"
\"\",\"\",\"approach-retreat\",\"46\",\"733221\",\"0.0-46.0\",\"\",\"\",\"1-2\",\"9328\",\"40\",\"0\",\"Training\",\"Stims/Figures/118-J-0-2.bmp\",\"tapa:ta\",\"Down\",\"38\",\"3\",\"11\",\"4\",\"P\",\"J\",\"43\"
\"\",\"\",\"approach-retreat\",\"47\",\"743160\",\"0.0-47.0\",\"\",\"\",\"1-2\",\"8420\",\"40\",\"1\",\"Training\",\"Stims/Figures/128-C-30-3.bmp\",\"na:la:la\",\"Down\",\"40\",\"3\",\"12\",\"4\",\"S\",\"J\",\"44\"
\"\",\"\",\"approach-retreat\",\"48\",\"752849\",\"0.0-48.0\",\"\",\"\",\"1-2\",\"8170\",\"37\",\"1\",\"Training\",\"Stims/Figures/87-C-20-4.bmp\",\"nala:na\",\"Left\",\"37\",\"3\",\"13\",\"4\",\"S\",\"J\",\"45\"
\"\",\"\",\"approach-retreat\",\"49\",\"761801\",\"0.0-49.0\",\"\",\"\",\"1-2\",\"7432\",\"40\",\"0\",\"Training\",\"Stims/Figures/27-C-30-1.bmp\",\"nalana\",\"Up\",\"38\",\"3\",\"14\",\"4\",\"S\",\"J\",\"46\"
\"\",\"\",\"approach-retreat\",\"50\",\"768059\",\"0.0-50.0\",\"\",\"\",\"1-2\",\"4739\",\"37\",\"0\",\"Training\",\"Stims/Figures/128-J-10-3.bmp\",\"pa:kaka\",\"Left\",\"39\",\"3\",\"15\",\"4\",\"P\",\"J\",\"47\"
\"\",\"\",\"approach-retreat\",\"51\",\"775732\",\"0.0-51.0\",\"\",\"\",\"1-2\",\"6152\",\"38\",\"0\",\"Training\",\"Stims/Figures/71-J-0-1.bmp\",\"tapa:ka\",\"Up\",\"40\",\"3\",\"16\",\"4\",\"P\",\"J\",\"48\"
\"\",\"\",\"approach-retreat\",\"52\",\"785889\",\"0.0-52.0\",\"\",\"\",\"1-2\",\"8637\",\"40\",\"0\",\"Training\",\"Stims/Figures/71-C-30-1.bmp\",\"na:mana\",\"Up\",\"38\",\"4\",\"1\",\"4\",\"S\",\"J\",\"49\"
\"\",\"\",\"approach-retreat\",\"53\",\"791990\",\"0.0-53.0\",\"\",\"\",\"1-2\",\"4583\",\"37\",\"1\",\"Training\",\"Stims/Figures/87-C-20-4.bmp\",\"nala:na\",\"Left\",\"37\",\"4\",\"2\",\"4\",\"S\",\"J\",\"50\"
\"\",\"\",\"approach-retreat\",\"54\",\"797960\",\"0.0-54.0\",\"\",\"\",\"1-2\",\"4451\",\"40\",\"1\",\"Training\",\"Stims/Figures/118-C-20-2.bmp\",\"nalala\",\"Down\",\"40\",\"4\",\"3\",\"4\",\"S\",\"J\",\"51\"
\"\",\"\",\"approach-retreat\",\"55\",\"803953\",\"0.0-55.0\",\"\",\"\",\"1-2\",\"4473\",\"40\",\"0\",\"Training\",\"Stims/Figures/27-J-0-1.bmp\",\"ta:pata\",\"Down\",\"38\",\"4\",\"4\",\"4\",\"P\",\"J\",\"52\"
\"\",\"\",\"approach-retreat\",\"56\",\"809858\",\"0.0-56.0\",\"\",\"\",\"1-2\",\"4384\",\"37\",\"0\",\"Training\",\"Stims/Figures/19-J-10-4.bmp\",\"tapata\",\"Left\",\"39\",\"4\",\"5\",\"4\",\"P\",\"J\",\"53\"
\"\",\"\",\"approach-retreat\",\"57\",\"816757\",\"0.0-57.0\",\"\",\"\",\"1-2\",\"5379\",\"40\",\"0\",\"Training\",\"Stims/Figures/27-C-30-1.bmp\",\"nalana\",\"Up\",\"38\",\"4\",\"6\",\"4\",\"S\",\"J\",\"54\"
\"\",\"\",\"approach-retreat\",\"58\",\"823332\",\"0.0-58.0\",\"\",\"\",\"1-2\",\"5058\",\"37\",\"0\",\"Training\",\"Stims/Figures/87-J-10-4.bmp\",\"tapaka\",\"Left\",\"39\",\"4\",\"7\",\"4\",\"P\",\"J\",\"55\"
\"\",\"\",\"approach-retreat\",\"59\",\"833792\",\"0.0-59.0\",\"\",\"\",\"1-2\",\"8943\",\"38\",\"0\",\"Training\",\"Stims/Figures/71-J-0-1.bmp\",\"tapa:ka\",\"Up\",\"40\",\"4\",\"8\",\"4\",\"P\",\"J\",\"56\"
\"\",\"\",\"approach-retreat\",\"60\",\"840043\",\"0.0-60.0\",\"\",\"\",\"1-2\",\"4733\",\"39\",\"0\",\"Training\",\"Stims/Figures/118-J-0-2.bmp\",\"tapa:ta\",\"Right\",\"37\",\"4\",\"9\",\"4\",\"P\",\"J\",\"57\"
\"\",\"\",\"approach-retreat\",\"61\",\"845853\",\"0.0-61.0\",\"\",\"\",\"1-2\",\"4289\",\"40\",\"0\",\"Training\",\"Stims/Figures/128-J-10-3.bmp\",\"pa:kaka\",\"Down\",\"38\",\"4\",\"10\",\"4\",\"P\",\"J\",\"58\"
\"\",\"\",\"approach-retreat\",\"62\",\"852060\",\"0.0-62.0\",\"\",\"\",\"1-2\",\"4687\",\"38\",\"1\",\"Training\",\"Stims/Figures/84-C-20-2.bmp\",\"mamana\",\"Up\",\"38\",\"4\",\"11\",\"4\",\"S\",\"J\",\"59\"
\"\",\"\",\"approach-retreat\",\"63\",\"859094\",\"0.0-63.0\",\"\",\"\",\"1-2\",\"5507\",\"37\",\"1\",\"Training\",\"Stims/Figures/84-J-0-2.bmp\",\"pakaka\",\"Right\",\"37\",\"4\",\"12\",\"4\",\"P\",\"J\",\"60\"
\"\",\"\",\"approach-retreat\",\"64\",\"865181\",\"0.0-64.0\",\"\",\"\",\"1-2\",\"4565\",\"39\",\"1\",\"Training\",\"Stims/Figures/111-J-10-3.bmp\",\"pa:ka:ta\",\"Left\",\"39\",\"4\",\"13\",\"4\",\"P\",\"J\",\"61\"
\"\",\"\",\"approach-retreat\",\"65\",\"872111\",\"0.0-65.0\",\"\",\"\",\"1-2\",\"5408\",\"39\",\"1\",\"Training\",\"Stims/Figures/128-C-30-3.bmp\",\"na:la:la\",\"Right\",\"39\",\"4\",\"14\",\"4\",\"S\",\"J\",\"62\"
\"\",\"\",\"approach-retreat\",\"66\",\"878364\",\"0.0-66.0\",\"\",\"\",\"1-2\",\"4734\",\"37\",\"0\",\"Training\",\"Stims/Figures/111-C-30-3.bmp\",\"mama:na\",\"Right\",\"39\",\"4\",\"15\",\"4\",\"S\",\"J\",\"63\"
\"\",\"\",\"approach-retreat\",\"67\",\"885752\",\"0.0-67.0\",\"\",\"\",\"1-2\",\"5872\",\"38\",\"0\",\"Training\",\"Stims/Figures/19-C-20-4.bmp\",\"ma:lala\",\"Down\",\"40\",\"4\",\"16\",\"4\",\"S\",\"J\",\"64\"
\"\",\"\",\"approach-retreat\",\"68\",\"891911\",\"0.0-68.0\",\"\",\"\",\"1-2\",\"4639\",\"38\",\"1\",\"Training\",\"Stims/Figures/111-J-10-3.bmp\",\"pa:ka:ta\",\"Down\",\"38\",\"5\",\"1\",\"4\",\"P\",\"J\",\"65\"
\"\",\"\",\"approach-retreat\",\"69\",\"901997\",\"0.0-69.0\",\"\",\"\",\"1-2\",\"8569\",\"37\",\"0\",\"Training\",\"Stims/Figures/27-J-0-1.bmp\",\"ta:pata\",\"Left\",\"39\",\"5\",\"2\",\"4\",\"P\",\"J\",\"66\"
\"\",\"\",\"approach-retreat\",\"70\",\"908381\",\"0.0-70.0\",\"\",\"\",\"1-2\",\"4872\",\"40\",\"1\",\"Training\",\"Stims/Figures/118-C-20-2.bmp\",\"nalala\",\"Down\",\"40\",\"5\",\"3\",\"4\",\"S\",\"J\",\"67\"
\"\",\"\",\"approach-retreat\",\"71\",\"916578\",\"0.0-71.0\",\"\",\"\",\"1-2\",\"6676\",\"38\",\"1\",\"Training\",\"Stims/Figures/128-C-30-3.bmp\",\"na:la:la\",\"Up\",\"38\",\"5\",\"4\",\"4\",\"S\",\"J\",\"68\"
\"\",\"\",\"approach-retreat\",\"72\",\"926740\",\"0.0-72.0\",\"\",\"\",\"1-2\",\"8632\",\"37\",\"1\",\"Training\",\"Stims/Figures/87-J-10-4.bmp\",\"tapaka\",\"Right\",\"37\",\"5\",\"5\",\"4\",\"P\",\"J\",\"69\"
\"\",\"\",\"approach-retreat\",\"73\",\"933128\",\"0.0-73.0\",\"\",\"\",\"1-2\",\"4869\",\"37\",\"1\",\"Training\",\"Stims/Figures/84-C-20-2.bmp\",\"mamana\",\"Left\",\"37\",\"5\",\"6\",\"4\",\"S\",\"J\",\"70\"
\"\",\"\",\"approach-retreat\",\"74\",\"940697\",\"0.0-74.0\",\"\",\"\",\"1-2\",\"6051\",\"38\",\"1\",\"Training\",\"Stims/Figures/111-C-30-3.bmp\",\"mama:na\",\"Up\",\"38\",\"5\",\"7\",\"4\",\"S\",\"J\",\"71\"
\"\",\"\",\"approach-retreat\",\"75\",\"946622\",\"0.0-75.0\",\"\",\"\",\"1-2\",\"4408\",\"40\",\"0\",\"Training\",\"Stims/Figures/27-C-30-1.bmp\",\"nalana\",\"Up\",\"38\",\"5\",\"8\",\"4\",\"S\",\"J\",\"72\"
\"\",\"\",\"approach-retreat\",\"76\",\"954276\",\"0.0-76.0\",\"\",\"\",\"1-2\",\"6129\",\"38\",\"1\",\"Training\",\"Stims/Figures/118-J-0-2.bmp\",\"tapa:ta\",\"Down\",\"38\",\"5\",\"9\",\"4\",\"P\",\"J\",\"73\"
\"\",\"\",\"approach-retreat\",\"77\",\"960370\",\"0.0-77.0\",\"\",\"\",\"1-2\",\"4575\",\"40\",\"0\",\"Training\",\"Stims/Figures/71-J-0-1.bmp\",\"tapa:ka\",\"Down\",\"38\",\"5\",\"10\",\"4\",\"P\",\"J\",\"74\"
\"\",\"\",\"approach-retreat\",\"78\",\"966436\",\"0.0-78.0\",\"\",\"\",\"1-2\",\"4546\",\"37\",\"1\",\"Training\",\"Stims/Figures/87-C-20-4.bmp\",\"nala:na\",\"Left\",\"37\",\"5\",\"11\",\"4\",\"S\",\"J\",\"75\"
\"\",\"\",\"approach-retreat\",\"79\",\"972381\",\"0.0-79.0\",\"\",\"\",\"1-2\",\"4427\",\"39\",\"0\",\"Training\",\"Stims/Figures/84-J-0-2.bmp\",\"pakaka\",\"Right\",\"37\",\"5\",\"12\",\"4\",\"P\",\"J\",\"76\"
\"\",\"\",\"approach-retreat\",\"80\",\"979998\",\"0.0-80.0\",\"\",\"\",\"1-2\",\"6097\",\"39\",\"1\",\"Training\",\"Stims/Figures/128-J-10-3.bmp\",\"pa:kaka\",\"Left\",\"39\",\"5\",\"13\",\"4\",\"P\",\"J\",\"77\"
\"\",\"\",\"approach-retreat\",\"81\",\"988447\",\"0.0-81.0\",\"\",\"\",\"1-2\",\"6931\",\"38\",\"0\",\"Training\",\"Stims/Figures/19-J-10-4.bmp\",\"tapata\",\"Up\",\"40\",\"5\",\"14\",\"4\",\"P\",\"J\",\"78\"
\"\",\"\",\"approach-retreat\",\"82\",\"999086\",\"0.0-82.0\",\"\",\"\",\"1-2\",\"9120\",\"37\",\"0\",\"Training\",\"Stims/Figures/71-C-30-1.bmp\",\"na:mana\",\"Right\",\"39\",\"5\",\"15\",\"4\",\"S\",\"J\",\"79\"
\"\",\"\",\"approach-retreat\",\"83\",\"1005165\",\"0.0-83.0\",\"\",\"\",\"1-2\",\"4562\",\"37\",\"0\",\"Training\",\"Stims/Figures/19-C-20-4.bmp\",\"ma:lala\",\"Right\",\"39\",\"5\",\"16\",\"4\",\"S\",\"J\",\"80\"
\"\",\"\",\"approach-retreat\",\"84\",\"1012493\",\"0.0-84.0\",\"\",\"\",\"1-2\",\"5810\",\"38\",\"1\",\"Training\",\"Stims/Figures/27-J-0-1.bmp\",\"ta:pata\",\"Down\",\"38\",\"6\",\"1\",\"4\",\"P\",\"J\",\"81\"
\"\",\"\",\"approach-retreat\",\"85\",\"1018517\",\"0.0-85.0\",\"\",\"\",\"1-2\",\"4507\",\"39\",\"1\",\"Training\",\"Stims/Figures/87-J-10-4.bmp\",\"tapaka\",\"Left\",\"39\",\"6\",\"2\",\"4\",\"P\",\"J\",\"82\"
\"\",\"\",\"approach-retreat\",\"86\",\"1024503\",\"0.0-86.0\",\"\",\"\",\"1-2\",\"4468\",\"40\",\"0\",\"Training\",\"Stims/Figures/111-C-30-3.bmp\",\"mama:na\",\"Up\",\"38\",\"6\",\"3\",\"4\",\"S\",\"J\",\"83\"
\"\",\"\",\"approach-retreat\",\"87\",\"1033548\",\"0.0-87.0\",\"\",\"\",\"1-2\",\"7528\",\"37\",\"0\",\"Training\",\"Stims/Figures/84-C-20-2.bmp\",\"mamana\",\"Right\",\"39\",\"6\",\"4\",\"4\",\"S\",\"J\",\"84\"
\"\",\"\",\"approach-retreat\",\"88\",\"1040062\",\"0.0-88.0\",\"\",\"\",\"1-2\",\"4950\",\"40\",\"1\",\"Training\",\"Stims/Figures/84-J-0-2.bmp\",\"pakaka\",\"Up\",\"40\",\"6\",\"5\",\"4\",\"P\",\"J\",\"85\"
\"\",\"\",\"approach-retreat\",\"89\",\"1046339\",\"0.0-89.0\",\"\",\"\",\"1-2\",\"4752\",\"38\",\"1\",\"Training\",\"Stims/Figures/128-J-10-3.bmp\",\"pa:kaka\",\"Down\",\"38\",\"6\",\"6\",\"4\",\"P\",\"J\",\"86\"
\"\",\"\",\"approach-retreat\",\"90\",\"1052866\",\"0.0-90.0\",\"\",\"\",\"1-2\",\"5007\",\"39\",\"1\",\"Training\",\"Stims/Figures/87-C-20-4.bmp\",\"nala:na\",\"Right\",\"39\",\"6\",\"7\",\"4\",\"S\",\"J\",\"87\"
\"\",\"\",\"approach-retreat\",\"91\",\"1058795\",\"0.0-91.0\",\"\",\"\",\"1-2\",\"4409\",\"40\",\"1\",\"Training\",\"Stims/Figures/19-J-10-4.bmp\",\"tapata\",\"Up\",\"40\",\"6\",\"8\",\"4\",\"P\",\"J\",\"88\"
\"\",\"\",\"approach-retreat\",\"92\",\"1066624\",\"0.0-92.0\",\"\",\"\",\"1-2\",\"6310\",\"39\",\"0\",\"Training\",\"Stims/Figures/118-C-20-2.bmp\",\"nalala\",\"Left\",\"37\",\"6\",\"9\",\"4\",\"S\",\"J\",\"89\"
\"\",\"\",\"approach-retreat\",\"93\",\"1072426\",\"0.0-93.0\",\"\",\"\",\"1-2\",\"4284\",\"40\",\"1\",\"Training\",\"Stims/Figures/111-J-10-3.bmp\",\"pa:ka:ta\",\"Up\",\"40\",\"6\",\"10\",\"4\",\"P\",\"J\",\"90\"
\"\",\"\",\"approach-retreat\",\"94\",\"1078443\",\"0.0-94.0\",\"\",\"\",\"1-2\",\"4499\",\"39\",\"0\",\"Training\",\"Stims/Figures/27-C-30-1.bmp\",\"nalana\",\"Left\",\"37\",\"6\",\"11\",\"4\",\"S\",\"J\",\"91\"
\"\",\"\",\"approach-retreat\",\"95\",\"1084726\",\"0.0-95.0\",\"\",\"\",\"1-2\",\"4764\",\"37\",\"0\",\"Training\",\"Stims/Figures/19-C-20-4.bmp\",\"ma:lala\",\"Right\",\"39\",\"6\",\"12\",\"4\",\"S\",\"J\",\"92\"
\"\",\"\",\"approach-retreat\",\"96\",\"1091225\",\"0.0-96.0\",\"\",\"\",\"1-2\",\"4979\",\"38\",\"0\",\"Training\",\"Stims/Figures/71-C-30-1.bmp\",\"na:mana\",\"Down\",\"40\",\"6\",\"13\",\"4\",\"S\",\"J\",\"93\"
\"\",\"\",\"approach-retreat\",\"97\",\"1099900\",\"0.0-97.0\",\"\",\"\",\"1-2\",\"7157\",\"38\",\"0\",\"Training\",\"Stims/Figures/128-C-30-3.bmp\",\"na:la:la\",\"Down\",\"40\",\"6\",\"14\",\"4\",\"S\",\"J\",\"94\"
\"\",\"\",\"approach-retreat\",\"98\",\"1106851\",\"0.0-98.0\",\"\",\"\",\"1-2\",\"5433\",\"37\",\"0\",\"Training\",\"Stims/Figures/71-J-0-1.bmp\",\"tapa:ka\",\"Left\",\"39\",\"6\",\"15\",\"4\",\"P\",\"J\",\"95\"
\"\",\"\",\"approach-retreat\",\"99\",\"1113119\",\"0.0-99.0\",\"\",\"\",\"1-2\",\"4749\",\"37\",\"1\",\"Training\",\"Stims/Figures/118-J-0-2.bmp\",\"tapa:ta\",\"Right\",\"37\",\"6\",\"16\",\"4\",\"P\",\"J\",\"96\"
\"\",\"\",\"approach-retreat\",\"100\",\"1119313\",\"0.0-100.0\",\"\",\"\",\"1-2\",\"4676\",\"40\",\"1\",\"Training\",\"Stims/Figures/111-J-10-3.bmp\",\"pa:ka:ta\",\"Up\",\"40\",\"7\",\"1\",\"4\",\"P\",\"J\",\"97\"
\"\",\"\",\"approach-retreat\",\"101\",\"1125472\",\"0.0-101.0\",\"\",\"\",\"1-2\",\"4641\",\"39\",\"1\",\"Training\",\"Stims/Figures/128-J-10-3.bmp\",\"pa:kaka\",\"Left\",\"39\",\"7\",\"2\",\"4\",\"P\",\"J\",\"98\"
\"\",\"\",\"approach-retreat\",\"102\",\"1131039\",\"0.0-102.0\",\"\",\"\",\"1-2\",\"4047\",\"37\",\"1\",\"Training\",\"Stims/Figures/128-C-30-3.bmp\",\"na:la:la\",\"Left\",\"37\",\"7\",\"3\",\"4\",\"S\",\"J\",\"99\"
\"\",\"\",\"approach-retreat\",\"103\",\"1137933\",\"0.0-103.0\",\"\",\"\",\"1-2\",\"5376\",\"37\",\"0\",\"Training\",\"Stims/Figures/27-C-30-1.bmp\",\"nalana\",\"Right\",\"39\",\"7\",\"4\",\"4\",\"S\",\"J\",\"100\"
\"\",\"\",\"approach-retreat\",\"104\",\"1145132\",\"0.0-104.0\",\"\",\"\",\"1-2\",\"5681\",\"40\",\"1\",\"Training\",\"Stims/Figures/27-J-0-1.bmp\",\"ta:pata\",\"Up\",\"40\",\"7\",\"5\",\"4\",\"P\",\"J\",\"101\"
\"\",\"\",\"approach-retreat\",\"105\",\"1150935\",\"0.0-105.0\",\"\",\"\",\"1-2\",\"4285\",\"40\",\"1\",\"Training\",\"Stims/Figures/118-J-0-2.bmp\",\"tapa:ta\",\"Up\",\"40\",\"7\",\"6\",\"4\",\"P\",\"J\",\"102\"
\"\",\"\",\"approach-retreat\",\"106\",\"1156507\",\"0.0-106.0\",\"\",\"\",\"1-2\",\"4054\",\"40\",\"0\",\"Training\",\"Stims/Figures/87-C-20-4.bmp\",\"nala:na\",\"Up\",\"38\",\"7\",\"7\",\"4\",\"S\",\"J\",\"103\"
\"\",\"\",\"approach-retreat\",\"107\",\"1162933\",\"0.0-107.0\",\"\",\"\",\"1-2\",\"4908\",\"38\",\"0\",\"Training\",\"Stims/Figures/19-C-20-4.bmp\",\"ma:lala\",\"Down\",\"40\",\"7\",\"8\",\"4\",\"S\",\"J\",\"104\"
\"\",\"\",\"approach-retreat\",\"108\",\"1169772\",\"0.0-108.0\",\"\",\"\",\"1-2\",\"5322\",\"37\",\"1\",\"Training\",\"Stims/Figures/87-J-10-4.bmp\",\"tapaka\",\"Right\",\"37\",\"7\",\"9\",\"4\",\"P\",\"J\",\"105\"
\"\",\"\",\"approach-retreat\",\"109\",\"1175856\",\"0.0-109.0\",\"\",\"\",\"1-2\",\"4565\",\"38\",\"0\",\"Training\",\"Stims/Figures/118-C-20-2.bmp\",\"nalala\",\"Down\",\"40\",\"7\",\"10\",\"4\",\"S\",\"J\",\"106\"
\"\",\"\",\"approach-retreat\",\"110\",\"1184133\",\"0.0-110.0\",\"\",\"\",\"1-2\",\"6758\",\"39\",\"1\",\"Training\",\"Stims/Figures/71-J-0-1.bmp\",\"tapa:ka\",\"Left\",\"39\",\"7\",\"11\",\"4\",\"P\",\"J\",\"107\"
\"\",\"\",\"approach-retreat\",\"111\",\"1189760\",\"0.0-111.0\",\"\",\"\",\"1-2\",\"4110\",\"39\",\"1\",\"Training\",\"Stims/Figures/19-J-10-4.bmp\",\"tapata\",\"Left\",\"39\",\"7\",\"12\",\"4\",\"P\",\"J\",\"108\"
\"\",\"\",\"approach-retreat\",\"112\",\"1195723\",\"0.0-112.0\",\"\",\"\",\"1-2\",\"4439\",\"38\",\"0\",\"Training\",\"Stims/Figures/71-C-30-1.bmp\",\"na:mana\",\"Down\",\"40\",\"7\",\"13\",\"4\",\"S\",\"J\",\"109\"
\"\",\"\",\"approach-retreat\",\"113\",\"1202270\",\"0.0-113.0\",\"\",\"\",\"1-2\",\"5028\",\"39\",\"0\",\"Training\",\"Stims/Figures/84-J-0-2.bmp\",\"pakaka\",\"Right\",\"37\",\"7\",\"14\",\"4\",\"P\",\"J\",\"110\"
\"\",\"\",\"approach-retreat\",\"114\",\"1208254\",\"0.0-114.0\",\"\",\"\",\"1-2\",\"4465\",\"38\",\"0\",\"Training\",\"Stims/Figures/111-C-30-3.bmp\",\"mama:na\",\"Down\",\"40\",\"7\",\"15\",\"4\",\"S\",\"J\",\"111\"
\"\",\"\",\"approach-retreat\",\"115\",\"1214685\",\"0.0-115.0\",\"\",\"\",\"1-2\",\"4915\",\"37\",\"0\",\"Training\",\"Stims/Figures/84-C-20-2.bmp\",\"mamana\",\"Right\",\"39\",\"7\",\"16\",\"4\",\"S\",\"J\",\"112\"
\"\",\"\",\"approach-retreat\",\"116\",\"1220862\",\"0.0-116.0\",\"\",\"\",\"1-2\",\"4659\",\"39\",\"0\",\"Training\",\"Stims/Figures/111-C-30-3.bmp\",\"mama:na\",\"Left\",\"37\",\"8\",\"1\",\"4\",\"S\",\"J\",\"113\"
\"\",\"\",\"approach-retreat\",\"117\",\"1227094\",\"0.0-117.0\",\"\",\"\",\"1-2\",\"4713\",\"38\",\"1\",\"Training\",\"Stims/Figures/87-C-20-4.bmp\",\"nala:na\",\"Up\",\"38\",\"8\",\"2\",\"4\",\"S\",\"J\",\"114\"
\"\",\"\",\"approach-retreat\",\"118\",\"1234277\",\"0.0-118.0\",\"\",\"\",\"1-2\",\"5666\",\"37\",\"0\",\"Training\",\"Stims/Figures/111-J-10-3.bmp\",\"pa:ka:ta\",\"Left\",\"39\",\"8\",\"3\",\"4\",\"P\",\"J\",\"115\"
\"\",\"\",\"approach-retreat\",\"119\",\"1240625\",\"0.0-119.0\",\"\",\"\",\"1-2\",\"4830\",\"39\",\"0\",\"Training\",\"Stims/Figures/19-J-10-4.bmp\",\"tapata\",\"Right\",\"37\",\"8\",\"4\",\"4\",\"P\",\"J\",\"116\"
\"\",\"\",\"approach-retreat\",\"120\",\"1247445\",\"0.0-120.0\",\"\",\"\",\"1-2\",\"5301\",\"38\",\"1\",\"Training\",\"Stims/Figures/19-C-20-4.bmp\",\"ma:lala\",\"Up\",\"38\",\"8\",\"5\",\"4\",\"S\",\"J\",\"117\"
\"\",\"\",\"approach-retreat\",\"121\",\"1254355\",\"0.0-121.0\",\"\",\"\",\"1-2\",\"5392\",\"40\",\"0\",\"Training\",\"Stims/Figures/87-J-10-4.bmp\",\"tapaka\",\"Down\",\"38\",\"8\",\"6\",\"4\",\"P\",\"J\",\"118\"
\"\",\"\",\"approach-retreat\",\"122\",\"1260994\",\"0.0-122.0\",\"\",\"\",\"1-2\",\"5104\",\"39\",\"0\",\"Training\",\"Stims/Figures/27-J-0-1.bmp\",\"ta:pata\",\"Right\",\"37\",\"8\",\"7\",\"4\",\"P\",\"J\",\"119\"
\"\",\"\",\"approach-retreat\",\"123\",\"1267937\",\"0.0-123.0\",\"\",\"\",\"1-2\",\"5424\",\"40\",\"1\",\"Training\",\"Stims/Figures/71-C-30-1.bmp\",\"na:mana\",\"Down\",\"40\",\"8\",\"8\",\"4\",\"S\",\"J\",\"120\"
\"\",\"\",\"approach-retreat\",\"124\",\"1275032\",\"0.0-124.0\",\"\",\"\",\"1-2\",\"5574\",\"38\",\"0\",\"Training\",\"Stims/Figures/27-C-30-1.bmp\",\"nalana\",\"Down\",\"40\",\"8\",\"9\",\"4\",\"S\",\"J\",\"121\"
\"\",\"\",\"approach-retreat\",\"125\",\"1281227\",\"0.0-125.0\",\"\",\"\",\"1-2\",\"4675\",\"37\",\"1\",\"Training\",\"Stims/Figures/118-C-20-2.bmp\",\"nalala\",\"Left\",\"37\",\"8\",\"10\",\"4\",\"S\",\"J\",\"122\"
\"\",\"\",\"approach-retreat\",\"126\",\"1287085\",\"0.0-126.0\",\"\",\"\",\"1-2\",\"4338\",\"38\",\"0\",\"Training\",\"Stims/Figures/118-J-0-2.bmp\",\"tapa:ta\",\"Up\",\"40\",\"8\",\"11\",\"4\",\"P\",\"J\",\"123\"
\"\",\"\",\"approach-retreat\",\"127\",\"1294067\",\"0.0-127.0\",\"\",\"\",\"1-2\",\"5461\",\"38\",\"0\",\"Training\",\"Stims/Figures/128-C-30-3.bmp\",\"na:la:la\",\"Down\",\"40\",\"8\",\"12\",\"4\",\"S\",\"J\",\"124\"
\"\",\"\",\"approach-retreat\",\"128\",\"1300482\",\"0.0-128.0\",\"\",\"\",\"1-2\",\"4897\",\"39\",\"0\",\"Training\",\"Stims/Figures/71-J-0-1.bmp\",\"tapa:ka\",\"Right\",\"37\",\"8\",\"13\",\"4\",\"P\",\"J\",\"125\"
\"\",\"\",\"approach-retreat\",\"129\",\"1310644\",\"0.0-129.0\",\"\",\"\",\"1-2\",\"8644\",\"40\",\"1\",\"Training\",\"Stims/Figures/128-J-10-3.bmp\",\"pa:kaka\",\"Up\",\"40\",\"8\",\"14\",\"4\",\"P\",\"J\",\"126\"
\"\",\"\",\"approach-retreat\",\"130\",\"1316890\",\"0.0-130.0\",\"\",\"\",\"1-2\",\"4728\",\"37\",\"1\",\"Training\",\"Stims/Figures/84-C-20-2.bmp\",\"mamana\",\"Left\",\"37\",\"8\",\"15\",\"4\",\"S\",\"J\",\"127\"
\"\",\"\",\"approach-retreat\",\"131\",\"1323073\",\"0.0-131.0\",\"\",\"\",\"1-2\",\"4664\",\"37\",\"1\",\"Training\",\"Stims/Figures/84-J-0-2.bmp\",\"pakaka\",\"Right\",\"37\",\"8\",\"16\",\"4\",\"P\",\"J\",\"128\"
\"\",\"\",\"approach-retreat\",\"132\",\"1328894\",\"0.0-132.0\",\"\",\"\",\"1-2\",\"4296\",\"37\",\"1\",\"Training\",\"Stims/Figures/71-J-0-1.bmp\",\"tapa:ka\",\"Right\",\"37\",\"9\",\"1\",\"4\",\"P\",\"J\",\"129\"
\"\",\"\",\"approach-retreat\",\"133\",\"1335641\",\"0.0-133.0\",\"\",\"\",\"1-2\",\"5226\",\"37\",\"0\",\"Training\",\"Stims/Figures/128-J-10-3.bmp\",\"pa:kaka\",\"Left\",\"39\",\"9\",\"2\",\"4\",\"P\",\"J\",\"130\"
\"\",\"\",\"approach-retreat\",\"134\",\"1341889\",\"0.0-134.0\",\"\",\"\",\"1-2\",\"4730\",\"40\",\"1\",\"Training\",\"Stims/Figures/87-J-10-4.bmp\",\"tapaka\",\"Up\",\"40\",\"9\",\"3\",\"4\",\"P\",\"J\",\"131\"
\"\",\"\",\"approach-retreat\",\"135\",\"1348101\",\"0.0-135.0\",\"\",\"\",\"1-2\",\"4693\",\"40\",\"1\",\"Training\",\"Stims/Figures/87-C-20-4.bmp\",\"nala:na\",\"Down\",\"40\",\"9\",\"4\",\"4\",\"S\",\"J\",\"132\"
\"\",\"\",\"approach-retreat\",\"136\",\"1354009\",\"0.0-136.0\",\"\",\"\",\"1-2\",\"4389\",\"40\",\"1\",\"Training\",\"Stims/Figures/71-C-30-1.bmp\",\"na:mana\",\"Down\",\"40\",\"9\",\"5\",\"4\",\"S\",\"J\",\"133\"
\"\",\"\",\"approach-retreat\",\"137\",\"1360696\",\"0.0-137.0\",\"\",\"\",\"1-2\",\"5169\",\"39\",\"1\",\"Training\",\"Stims/Figures/84-C-20-2.bmp\",\"mamana\",\"Right\",\"39\",\"9\",\"6\",\"4\",\"S\",\"J\",\"134\"
\"\",\"\",\"approach-retreat\",\"138\",\"1366901\",\"0.0-138.0\",\"\",\"\",\"1-2\",\"4685\",\"40\",\"1\",\"Training\",\"Stims/Figures/84-J-0-2.bmp\",\"pakaka\",\"Up\",\"40\",\"9\",\"7\",\"4\",\"P\",\"J\",\"135\"
\"\",\"\",\"approach-retreat\",\"139\",\"1374052\",\"0.0-139.0\",\"\",\"\",\"1-2\",\"5603\",\"37\",\"1\",\"Training\",\"Stims/Figures/19-J-10-4.bmp\",\"tapata\",\"Right\",\"37\",\"9\",\"8\",\"4\",\"P\",\"J\",\"136\"
\"\",\"\",\"approach-retreat\",\"140\",\"1380046\",\"0.0-140.0\",\"\",\"\",\"1-2\",\"4468\",\"39\",\"1\",\"Training\",\"Stims/Figures/27-J-0-1.bmp\",\"ta:pata\",\"Left\",\"39\",\"9\",\"9\",\"4\",\"P\",\"J\",\"137\"
\"\",\"\",\"approach-retreat\",\"141\",\"1386127\",\"0.0-141.0\",\"\",\"\",\"1-2\",\"4563\",\"39\",\"1\",\"Training\",\"Stims/Figures/27-C-30-1.bmp\",\"nalana\",\"Right\",\"39\",\"9\",\"10\",\"4\",\"S\",\"J\",\"138\"
\"\",\"\",\"approach-retreat\",\"142\",\"1391996\",\"0.0-142.0\",\"\",\"\",\"1-2\",\"4351\",\"37\",\"1\",\"Training\",\"Stims/Figures/111-C-30-3.bmp\",\"mama:na\",\"Left\",\"37\",\"9\",\"11\",\"4\",\"S\",\"J\",\"139\"
\"\",\"\",\"approach-retreat\",\"143\",\"1397879\",\"0.0-143.0\",\"\",\"\",\"1-2\",\"4365\",\"37\",\"1\",\"Training\",\"Stims/Figures/118-C-20-2.bmp\",\"nalala\",\"Left\",\"37\",\"9\",\"12\",\"4\",\"S\",\"J\",\"140\"
\"\",\"\",\"approach-retreat\",\"144\",\"1404521\",\"0.0-144.0\",\"\",\"\",\"1-2\",\"5123\",\"38\",\"1\",\"Training\",\"Stims/Figures/19-C-20-4.bmp\",\"ma:lala\",\"Up\",\"38\",\"9\",\"13\",\"4\",\"S\",\"J\",\"141\"
\"\",\"\",\"approach-retreat\",\"145\",\"1410681\",\"0.0-145.0\",\"\",\"\",\"1-2\",\"4640\",\"38\",\"1\",\"Training\",\"Stims/Figures/111-J-10-3.bmp\",\"pa:ka:ta\",\"Down\",\"38\",\"9\",\"14\",\"4\",\"P\",\"J\",\"142\"
\"\",\"\",\"approach-retreat\",\"146\",\"1416588\",\"0.0-146.0\",\"\",\"\",\"1-2\",\"4388\",\"38\",\"1\",\"Training\",\"Stims/Figures/128-C-30-3.bmp\",\"na:la:la\",\"Up\",\"38\",\"9\",\"15\",\"4\",\"S\",\"J\",\"143\"
\"\",\"\",\"approach-retreat\",\"147\",\"1422533\",\"0.0-147.0\",\"\",\"\",\"1-2\",\"4423\",\"38\",\"1\",\"Training\",\"Stims/Figures/118-J-0-2.bmp\",\"tapa:ta\",\"Down\",\"38\",\"9\",\"16\",\"4\",\"P\",\"J\",\"144\"
\"43329\",\"\",\"instructions\",\"148\",\"1465862\",\"0.0-148.0\",\"[{\"\"page_index\"\":0,\"\"viewing_time\"\":43325}]\",\"\",\"\",\"\",\"\",\"\",\"\",\"\",\"\",\"\",\"\",\"\",\"\",\"\",\"\",\"\",\"\"
\"\",\"\",\"approach-retreat\",\"149\",\"1473324\",\"0.0-149.0\",\"\",\"\",\"1-2\",\"5921\",\"40\",\"1\",\"Testing\",\"Stims/Figures/87-C-20-4.bmp\",\"nala:na\",\"Down\",\"40\",\"1\",\"1\",\"4\",\"S\",\"J\",\"1\"
\"\",\"\",\"approach-retreat\",\"150\",\"1479502\",\"0.0-150.0\",\"\",\"\",\"1-2\",\"4660\",\"40\",\"1\",\"Testing\",\"Stims/Figures/84-J-0-2.bmp\",\"pakaka\",\"Up\",\"40\",\"1\",\"2\",\"4\",\"P\",\"J\",\"2\"
\"\",\"\",\"approach-retreat\",\"151\",\"1485643\",\"0.0-151.0\",\"\",\"\",\"1-2\",\"4609\",\"38\",\"1\",\"Testing\",\"Stims/Figures/94-C-20-2.bmp\",\"ma:ma:na\",\"Up\",\"38\",\"1\",\"3\",\"4\",\"S\",\"J\",\"3\"
\"\",\"\",\"approach-retreat\",\"152\",\"1491863\",\"0.0-152.0\",\"\",\"\",\"1-2\",\"4704\",\"40\",\"1\",\"Testing\",\"Stims/Figures/71-J-0-1.bmp\",\"tapa:ka\",\"Up\",\"40\",\"1\",\"4\",\"4\",\"P\",\"J\",\"4\"
\"\",\"\",\"approach-retreat\",\"153\",\"1498026\",\"0.0-153.0\",\"\",\"\",\"1-2\",\"4644\",\"39\",\"1\",\"Testing\",\"Stims/Figures/102-C-20-4.bmp\",\"malana\",\"Right\",\"39\",\"1\",\"5\",\"4\",\"S\",\"J\",\"5\"
\"\",\"\",\"approach-retreat\",\"154\",\"1504007\",\"0.0-154.0\",\"\",\"\",\"1-2\",\"4464\",\"37\",\"1\",\"Testing\",\"Stims/Figures/111-C-30-3.bmp\",\"mama:na\",\"Left\",\"37\",\"1\",\"6\",\"4\",\"S\",\"J\",\"6\"
\"\",\"\",\"approach-retreat\",\"155\",\"1510211\",\"0.0-155.0\",\"\",\"\",\"1-2\",\"4675\",\"38\",\"1\",\"Testing\",\"Stims/Figures/86-C-30-1.bmp\",\"ma:mala\",\"Up\",\"38\",\"1\",\"7\",\"4\",\"S\",\"J\",\"7\"
\"\",\"\",\"approach-retreat\",\"156\",\"1516311\",\"0.0-156.0\",\"\",\"\",\"1-2\",\"4583\",\"37\",\"0\",\"Testing\",\"Stims/Figures/19-J-10-4.bmp\",\"tapata\",\"Left\",\"39\",\"1\",\"8\",\"4\",\"P\",\"J\",\"8\"
\"\",\"\",\"approach-retreat\",\"157\",\"1522217\",\"0.0-157.0\",\"\",\"\",\"1-2\",\"4394\",\"39\",\"1\",\"Testing\",\"Stims/Figures/111-J-10-3.bmp\",\"pa:ka:ta\",\"Left\",\"39\",\"1\",\"9\",\"4\",\"P\",\"J\",\"9\"
\"\",\"\",\"approach-retreat\",\"158\",\"1528081\",\"0.0-158.0\",\"\",\"\",\"1-2\",\"4357\",\"40\",\"1\",\"Testing\",\"Stims/Figures/27-C-30-1.bmp\",\"nalana\",\"Down\",\"40\",\"1\",\"10\",\"4\",\"S\",\"J\",\"10\"
\"\",\"\",\"approach-retreat\",\"159\",\"1540922\",\"0.0-159.0\",\"\",\"\",\"1-2\",\"11324\",\"37\",\"0\",\"Testing\",\"Stims/Figures/19-C-20-4.bmp\",\"ma:lala\",\"Right\",\"39\",\"1\",\"11\",\"4\",\"S\",\"J\",\"11\"
\"\",\"\",\"approach-retreat\",\"160\",\"1547060\",\"0.0-160.0\",\"\",\"\",\"1-2\",\"4611\",\"40\",\"1\",\"Testing\",\"Stims/Figures/84-C-20-2.bmp\",\"mamana\",\"Down\",\"40\",\"1\",\"12\",\"4\",\"S\",\"J\",\"12\"
\"\",\"\",\"approach-retreat\",\"161\",\"1553315\",\"0.0-161.0\",\"\",\"\",\"1-2\",\"4733\",\"39\",\"1\",\"Testing\",\"Stims/Figures/87-J-10-4.bmp\",\"tapaka\",\"Left\",\"39\",\"1\",\"13\",\"4\",\"P\",\"J\",\"13\"
\"\",\"\",\"approach-retreat\",\"162\",\"1559846\",\"0.0-162.0\",\"\",\"\",\"1-2\",\"5013\",\"38\",\"1\",\"Testing\",\"Stims/Figures/118-J-0-2.bmp\",\"tapa:ta\",\"Down\",\"38\",\"1\",\"14\",\"4\",\"P\",\"J\",\"14\"
\"\",\"\",\"approach-retreat\",\"163\",\"1565849\",\"0.0-163.0\",\"\",\"\",\"1-2\",\"4473\",\"37\",\"1\",\"Testing\",\"Stims/Figures/86-J-0-1.bmp\",\"papa:ka\",\"Right\",\"37\",\"1\",\"15\",\"4\",\"P\",\"J\",\"15\"
\"\",\"\",\"approach-retreat\",\"164\",\"1572571\",\"0.0-164.0\",\"\",\"\",\"1-2\",\"5205\",\"38\",\"1\",\"Testing\",\"Stims/Figures/27-J-0-1.bmp\",\"ta:pata\",\"Down\",\"38\",\"1\",\"16\",\"4\",\"P\",\"J\",\"16\"
\"\",\"\",\"approach-retreat\",\"165\",\"1581625\",\"0.0-165.0\",\"\",\"\",\"1-2\",\"6632\",\"37\",\"1\",\"Testing\",\"Stims/Figures/118-C-20-2.bmp\",\"nalala\",\"Left\",\"37\",\"1\",\"17\",\"4\",\"S\",\"J\",\"17\"
\"\",\"\",\"approach-retreat\",\"166\",\"1590964\",\"0.0-166.0\",\"\",\"\",\"1-2\",\"7824\",\"40\",\"1\",\"Testing\",\"Stims/Figures/102-J-10-4.bmp\",\"ta:kata\",\"Up\",\"40\",\"1\",\"18\",\"4\",\"P\",\"J\",\"18\"
\"\",\"\",\"approach-retreat\",\"167\",\"1597502\",\"0.0-167.0\",\"\",\"\",\"1-2\",\"5021\",\"39\",\"1\",\"Testing\",\"Stims/Figures/71-C-30-1.bmp\",\"na:mana\",\"Right\",\"39\",\"1\",\"19\",\"4\",\"S\",\"J\",\"19\"
\"\",\"\",\"approach-retreat\",\"168\",\"1603580\",\"0.0-168.0\",\"\",\"\",\"1-2\",\"4555\",\"37\",\"1\",\"Testing\",\"Stims/Figures/128-C-30-3.bmp\",\"na:la:la\",\"Left\",\"37\",\"1\",\"20\",\"4\",\"S\",\"J\",\"20\"
\"\",\"\",\"approach-retreat\",\"169\",\"1609501\",\"0.0-169.0\",\"\",\"\",\"1-2\",\"4399\",\"40\",\"1\",\"Testing\",\"Stims/Figures/128-J-10-3.bmp\",\"pa:kaka\",\"Up\",\"40\",\"1\",\"21\",\"4\",\"P\",\"J\",\"21\"
\"\",\"\",\"approach-retreat\",\"170\",\"1615577\",\"0.0-170.0\",\"\",\"\",\"1-2\",\"4548\",\"40\",\"1\",\"Testing\",\"Stims/Figures/144-C-30-3.bmp\",\"nala:la\",\"Down\",\"40\",\"1\",\"22\",\"4\",\"S\",\"J\",\"22\"
\"\",\"\",\"approach-retreat\",\"171\",\"1621487\",\"0.0-171.0\",\"\",\"\",\"1-2\",\"4379\",\"37\",\"1\",\"Testing\",\"Stims/Figures/94-J-0-2.bmp\",\"ta:ka:ta\",\"Right\",\"37\",\"1\",\"23\",\"4\",\"P\",\"J\",\"23\"
\"\",\"\",\"approach-retreat\",\"172\",\"1627553\",\"0.0-172.0\",\"\",\"\",\"1-2\",\"4544\",\"37\",\"1\",\"Testing\",\"Stims/Figures/144-J-10-3.bmp\",\"pa:ka:ka\",\"Right\",\"37\",\"1\",\"24\",\"4\",\"P\",\"J\",\"24\"
\"\",\"\",\"approach-retreat\",\"173\",\"1633414\",\"0.0-173.0\",\"\",\"\",\"1-2\",\"4343\",\"39\",\"1\",\"Testing\",\"Stims/Figures/87-J-10-4.bmp\",\"tapaka\",\"Left\",\"39\",\"2\",\"1\",\"4\",\"P\",\"J\",\"25\"
\"\",\"\",\"approach-retreat\",\"174\",\"1639521\",\"0.0-174.0\",\"\",\"\",\"1-2\",\"4588\",\"40\",\"1\",\"Testing\",\"Stims/Figures/128-C-30-3.bmp\",\"na:la:la\",\"Down\",\"40\",\"2\",\"2\",\"4\",\"S\",\"J\",\"26\"
\"\",\"\",\"approach-retreat\",\"175\",\"1647734\",\"0.0-175.0\",\"\",\"\",\"1-2\",\"6696\",\"40\",\"1\",\"Testing\",\"Stims/Figures/111-C-30-3.bmp\",\"mama:na\",\"Down\",\"40\",\"2\",\"3\",\"4\",\"S\",\"J\",\"27\"
\"\",\"\",\"approach-retreat\",\"176\",\"1654119\",\"0.0-176.0\",\"\",\"\",\"1-2\",\"4869\",\"38\",\"1\",\"Testing\",\"Stims/Figures/84-C-20-2.bmp\",\"mamana\",\"Up\",\"38\",\"2\",\"4\",\"4\",\"S\",\"J\",\"28\"
\"\",\"\",\"approach-retreat\",\"177\",\"1661955\",\"0.0-177.0\",\"\",\"\",\"1-2\",\"6318\",\"40\",\"1\",\"Testing\",\"Stims/Figures/144-J-10-3.bmp\",\"pa:ka:ka\",\"Up\",\"40\",\"2\",\"5\",\"4\",\"P\",\"J\",\"29\"
\"\",\"\",\"approach-retreat\",\"178\",\"1668441\",\"0.0-178.0\",\"\",\"\",\"1-2\",\"4968\",\"39\",\"1\",\"Testing\",\"Stims/Figures/118-J-0-2.bmp\",\"tapa:ta\",\"Left\",\"39\",\"2\",\"6\",\"4\",\"P\",\"J\",\"30\"
\"\",\"\",\"approach-retreat\",\"179\",\"1674476\",\"0.0-179.0\",\"\",\"\",\"1-2\",\"4518\",\"40\",\"1\",\"Testing\",\"Stims/Figures/144-C-30-3.bmp\",\"nala:la\",\"Down\",\"40\",\"2\",\"7\",\"4\",\"S\",\"J\",\"31\"
\"\",\"\",\"approach-retreat\",\"180\",\"1682290\",\"0.0-180.0\",\"\",\"\",\"1-2\",\"6296\",\"39\",\"1\",\"Testing\",\"Stims/Figures/94-C-20-2.bmp\",\"ma:ma:na\",\"Right\",\"39\",\"2\",\"8\",\"4\",\"S\",\"J\",\"32\"
\"\",\"\",\"approach-retreat\",\"181\",\"1688249\",\"0.0-181.0\",\"\",\"\",\"1-2\",\"4441\",\"39\",\"1\",\"Testing\",\"Stims/Figures/102-C-20-4.bmp\",\"malana\",\"Right\",\"39\",\"2\",\"9\",\"4\",\"S\",\"J\",\"33\"
\"\",\"\",\"approach-retreat\",\"182\",\"1695252\",\"0.0-182.0\",\"\",\"\",\"1-2\",\"5487\",\"37\",\"0\",\"Testing\",\"Stims/Figures/87-C-20-4.bmp\",\"nala:na\",\"Right\",\"39\",\"2\",\"10\",\"4\",\"S\",\"J\",\"34\"
\"\",\"\",\"approach-retreat\",\"183\",\"1701277\",\"0.0-183.0\",\"\",\"\",\"1-2\",\"4508\",\"39\",\"1\",\"Testing\",\"Stims/Figures/102-J-10-4.bmp\",\"ta:kata\",\"Left\",\"39\",\"2\",\"11\",\"4\",\"P\",\"J\",\"35\"
\"\",\"\",\"approach-retreat\",\"184\",\"1708549\",\"0.0-184.0\",\"\",\"\",\"1-2\",\"5755\",\"38\",\"1\",\"Testing\",\"Stims/Figures/71-C-30-1.bmp\",\"na:mana\",\"Up\",\"38\",\"2\",\"12\",\"4\",\"S\",\"J\",\"36\"
\"\",\"\",\"approach-retreat\",\"185\",\"1714696\",\"0.0-185.0\",\"\",\"\",\"1-2\",\"4614\",\"39\",\"1\",\"Testing\",\"Stims/Figures/86-J-0-1.bmp\",\"papa:ka\",\"Left\",\"39\",\"2\",\"13\",\"4\",\"P\",\"J\",\"37\"
\"\",\"\",\"approach-retreat\",\"186\",\"1722666\",\"0.0-186.0\",\"\",\"\",\"1-2\",\"6450\",\"39\",\"1\",\"Testing\",\"Stims/Figures/111-J-10-3.bmp\",\"pa:ka:ta\",\"Left\",\"39\",\"2\",\"14\",\"4\",\"P\",\"J\",\"38\"
\"\",\"\",\"approach-retreat\",\"187\",\"1728603\",\"0.0-187.0\",\"\",\"\",\"1-2\",\"4421\",\"40\",\"1\",\"Testing\",\"Stims/Figures/27-C-30-1.bmp\",\"nalana\",\"Down\",\"40\",\"2\",\"15\",\"4\",\"S\",\"J\",\"39\"
\"\",\"\",\"approach-retreat\",\"188\",\"1734944\",\"0.0-188.0\",\"\",\"\",\"1-2\",\"4824\",\"38\",\"1\",\"Testing\",\"Stims/Figures/71-J-0-1.bmp\",\"tapa:ka\",\"Down\",\"38\",\"2\",\"16\",\"4\",\"P\",\"J\",\"40\"
\"\",\"\",\"approach-retreat\",\"189\",\"1743302\",\"0.0-189.0\",\"\",\"\",\"1-2\",\"6842\",\"37\",\"1\",\"Testing\",\"Stims/Figures/27-J-0-1.bmp\",\"ta:pata\",\"Right\",\"37\",\"2\",\"17\",\"4\",\"P\",\"J\",\"41\"
\"\",\"\",\"approach-retreat\",\"190\",\"1754860\",\"0.0-190.0\",\"\",\"\",\"1-2\",\"10042\",\"38\",\"1\",\"Testing\",\"Stims/Figures/19-C-20-4.bmp\",\"ma:lala\",\"Up\",\"38\",\"2\",\"18\",\"4\",\"S\",\"J\",\"42\"
\"\",\"\",\"approach-retreat\",\"191\",\"1761607\",\"0.0-191.0\",\"\",\"\",\"1-2\",\"5231\",\"37\",\"1\",\"Testing\",\"Stims/Figures/19-J-10-4.bmp\",\"tapata\",\"Right\",\"37\",\"2\",\"19\",\"4\",\"P\",\"J\",\"43\"
\"\",\"\",\"approach-retreat\",\"192\",\"1767565\",\"0.0-192.0\",\"\",\"\",\"1-2\",\"4440\",\"37\",\"1\",\"Testing\",\"Stims/Figures/128-J-10-3.bmp\",\"pa:kaka\",\"Right\",\"37\",\"2\",\"20\",\"4\",\"P\",\"J\",\"44\"
\"\",\"\",\"approach-retreat\",\"193\",\"1775648\",\"0.0-193.0\",\"\",\"\",\"1-2\",\"6569\",\"38\",\"1\",\"Testing\",\"Stims/Figures/118-C-20-2.bmp\",\"nalala\",\"Up\",\"38\",\"2\",\"21\",\"4\",\"S\",\"J\",\"45\"
\"\",\"\",\"approach-retreat\",\"194\",\"1783548\",\"0.0-194.0\",\"\",\"\",\"1-2\",\"6173\",\"40\",\"1\",\"Testing\",\"Stims/Figures/86-C-30-1.bmp\",\"ma:mala\",\"Down\",\"40\",\"2\",\"22\",\"4\",\"S\",\"J\",\"46\"
\"\",\"\",\"approach-retreat\",\"195\",\"1800901\",\"0.0-195.0\",\"\",\"\",\"1-2\",\"15837\",\"39\",\"1\",\"Testing\",\"Stims/Figures/94-J-0-2.bmp\",\"ta:ka:ta\",\"Left\",\"39\",\"2\",\"23\",\"4\",\"P\",\"J\",\"47\"
\"\",\"\",\"approach-retreat\",\"196\",\"1806667\",\"0.0-196.0\",\"\",\"\",\"1-2\",\"4251\",\"40\",\"1\",\"Testing\",\"Stims/Figures/84-J-0-2.bmp\",\"pakaka\",\"Up\",\"40\",\"2\",\"24\",\"4\",\"P\",\"J\",\"48\"
\"\",\"\",\"approach-retreat\",\"197\",\"1812500\",\"0.0-197.0\",\"\",\"\",\"1-2\",\"4318\",\"37\",\"1\",\"Testing\",\"Stims/Figures/102-C-20-4.bmp\",\"malana\",\"Left\",\"37\",\"3\",\"1\",\"4\",\"S\",\"J\",\"49\"
\"\",\"\",\"approach-retreat\",\"198\",\"1818377\",\"0.0-198.0\",\"\",\"\",\"1-2\",\"4361\",\"39\",\"1\",\"Testing\",\"Stims/Figures/144-J-10-3.bmp\",\"pa:ka:ka\",\"Left\",\"39\",\"3\",\"2\",\"4\",\"P\",\"J\",\"50\"
\"\",\"\",\"approach-retreat\",\"199\",\"1825162\",\"0.0-199.0\",\"\",\"\",\"1-2\",\"5266\",\"38\",\"1\",\"Testing\",\"Stims/Figures/27-J-0-1.bmp\",\"ta:pata\",\"Down\",\"38\",\"3\",\"3\",\"4\",\"P\",\"J\",\"51\"
\"\",\"\",\"approach-retreat\",\"200\",\"1832787\",\"0.0-200.0\",\"\",\"\",\"1-2\",\"6114\",\"39\",\"1\",\"Testing\",\"Stims/Figures/87-J-10-4.bmp\",\"tapaka\",\"Left\",\"39\",\"3\",\"4\",\"4\",\"P\",\"J\",\"52\"
\"\",\"\",\"approach-retreat\",\"201\",\"1848195\",\"0.0-201.0\",\"\",\"\",\"1-2\",\"13893\",\"39\",\"1\",\"Testing\",\"Stims/Figures/19-C-20-4.bmp\",\"ma:lala\",\"Right\",\"39\",\"3\",\"5\",\"4\",\"S\",\"J\",\"53\"
\"\",\"\",\"approach-retreat\",\"202\",\"1856676\",\"0.0-202.0\",\"\",\"\",\"1-2\",\"6965\",\"38\",\"1\",\"Testing\",\"Stims/Figures/87-C-20-4.bmp\",\"nala:na\",\"Up\",\"38\",\"3\",\"6\",\"4\",\"S\",\"J\",\"54\"
\"\",\"\",\"approach-retreat\",\"203\",\"1863387\",\"0.0-203.0\",\"\",\"\",\"1-2\",\"5194\",\"39\",\"1\",\"Testing\",\"Stims/Figures/71-J-0-1.bmp\",\"tapa:ka\",\"Left\",\"39\",\"3\",\"7\",\"4\",\"P\",\"J\",\"55\"
\"\",\"\",\"approach-retreat\",\"204\",\"1876748\",\"0.0-204.0\",\"\",\"\",\"1-2\",\"11842\",\"37\",\"1\",\"Testing\",\"Stims/Figures/27-C-30-1.bmp\",\"nalana\",\"Left\",\"37\",\"3\",\"8\",\"4\",\"S\",\"J\",\"56\"
\"\",\"\",\"approach-retreat\",\"205\",\"1885023\",\"0.0-205.0\",\"\",\"\",\"1-2\",\"6748\",\"38\",\"1\",\"Testing\",\"Stims/Figures/94-C-20-2.bmp\",\"ma:ma:na\",\"Up\",\"38\",\"3\",\"9\",\"4\",\"S\",\"J\",\"57\"
\"\",\"\",\"approach-retreat\",\"206\",\"1891076\",\"0.0-206.0\",\"\",\"\",\"1-2\",\"4537\",\"40\",\"1\",\"Testing\",\"Stims/Figures/111-C-30-3.bmp\",\"mama:na\",\"Down\",\"40\",\"3\",\"10\",\"4\",\"S\",\"J\",\"58\"
\"\",\"\",\"approach-retreat\",\"207\",\"1897244\",\"0.0-207.0\",\"\",\"\",\"1-2\",\"4682\",\"38\",\"1\",\"Testing\",\"Stims/Figures/144-C-30-3.bmp\",\"nala:la\",\"Up\",\"38\",\"3\",\"11\",\"4\",\"S\",\"J\",\"59\"
\"\",\"\",\"approach-retreat\",\"208\",\"1903121\",\"0.0-208.0\",\"\",\"\",\"1-2\",\"4362\",\"40\",\"1\",\"Testing\",\"Stims/Figures/118-J-0-2.bmp\",\"tapa:ta\",\"Up\",\"40\",\"3\",\"12\",\"4\",\"P\",\"J\",\"60\"
\"\",\"\",\"approach-retreat\",\"209\",\"1916471\",\"0.0-209.0\",\"\",\"\",\"1-2\",\"11833\",\"40\",\"0\",\"Testing\",\"Stims/Figures/71-C-30-1.bmp\",\"na:mana\",\"Up\",\"38\",\"3\",\"13\",\"4\",\"S\",\"J\",\"61\"
\"\",\"\",\"approach-retreat\",\"210\",\"1922626\",\"0.0-210.0\",\"\",\"\",\"1-2\",\"4638\",\"39\",\"1\",\"Testing\",\"Stims/Figures/128-C-30-3.bmp\",\"na:la:la\",\"Right\",\"39\",\"3\",\"14\",\"4\",\"S\",\"J\",\"62\"
\"\",\"\",\"approach-retreat\",\"211\",\"1928520\",\"0.0-211.0\",\"\",\"\",\"1-2\",\"4377\",\"37\",\"1\",\"Testing\",\"Stims/Figures/19-J-10-4.bmp\",\"tapata\",\"Right\",\"37\",\"3\",\"15\",\"4\",\"P\",\"J\",\"63\"
\"\",\"\",\"approach-retreat\",\"212\",\"1935523\",\"0.0-212.0\",\"\",\"\",\"1-2\",\"5488\",\"38\",\"1\",\"Testing\",\"Stims/Figures/84-J-0-2.bmp\",\"pakaka\",\"Down\",\"38\",\"3\",\"16\",\"4\",\"P\",\"J\",\"64\"
\"\",\"\",\"approach-retreat\",\"213\",\"1945631\",\"0.0-213.0\",\"\",\"\",\"1-2\",\"8592\",\"39\",\"1\",\"Testing\",\"Stims/Figures/86-C-30-1.bmp\",\"ma:mala\",\"Right\",\"39\",\"3\",\"17\",\"4\",\"S\",\"J\",\"65\"
\"\",\"\",\"approach-retreat\",\"214\",\"1951613\",\"0.0-214.0\",\"\",\"\",\"1-2\",\"4467\",\"38\",\"1\",\"Testing\",\"Stims/Figures/118-C-20-2.bmp\",\"nalala\",\"Up\",\"38\",\"3\",\"18\",\"4\",\"S\",\"J\",\"66\"
\"\",\"\",\"approach-retreat\",\"215\",\"1959385\",\"0.0-215.0\",\"\",\"\",\"1-2\",\"6256\",\"39\",\"1\",\"Testing\",\"Stims/Figures/84-C-20-2.bmp\",\"mamana\",\"Right\",\"39\",\"3\",\"19\",\"4\",\"S\",\"J\",\"67\"
\"\",\"\",\"approach-retreat\",\"216\",\"1967604\",\"0.0-216.0\",\"\",\"\",\"1-2\",\"6703\",\"38\",\"1\",\"Testing\",\"Stims/Figures/86-J-0-1.bmp\",\"papa:ka\",\"Down\",\"38\",\"3\",\"20\",\"4\",\"P\",\"J\",\"68\"
\"\",\"\",\"approach-retreat\",\"217\",\"1973684\",\"0.0-217.0\",\"\",\"\",\"1-2\",\"4563\",\"38\",\"1\",\"Testing\",\"Stims/Figures/102-J-10-4.bmp\",\"ta:kata\",\"Down\",\"38\",\"3\",\"21\",\"4\",\"P\",\"J\",\"69\"
\"\",\"\",\"approach-retreat\",\"218\",\"1979632\",\"0.0-218.0\",\"\",\"\",\"1-2\",\"4432\",\"37\",\"1\",\"Testing\",\"Stims/Figures/128-J-10-3.bmp\",\"pa:kaka\",\"Right\",\"37\",\"3\",\"22\",\"4\",\"P\",\"J\",\"70\"
\"\",\"\",\"approach-retreat\",\"219\",\"1989090\",\"0.0-219.0\",\"\",\"\",\"1-2\",\"7943\",\"39\",\"1\",\"Testing\",\"Stims/Figures/111-J-10-3.bmp\",\"pa:ka:ta\",\"Left\",\"39\",\"3\",\"23\",\"4\",\"P\",\"J\",\"71\"
\"\",\"\",\"approach-retreat\",\"220\",\"1995143\",\"0.0-220.0\",\"\",\"\",\"1-2\",\"4535\",\"38\",\"1\",\"Testing\",\"Stims/Figures/94-J-0-2.bmp\",\"ta:ka:ta\",\"Down\",\"38\",\"3\",\"24\",\"4\",\"P\",\"J\",\"72\"
\"\",\"\",\"approach-retreat\",\"221\",\"2001781\",\"0.0-221.0\",\"\",\"\",\"1-2\",\"5122\",\"37\",\"1\",\"Testing\",\"Stims/Figures/71-J-0-1.bmp\",\"tapa:ka\",\"Right\",\"37\",\"4\",\"1\",\"4\",\"P\",\"J\",\"73\"
\"\",\"\",\"approach-retreat\",\"222\",\"2007988\",\"0.0-222.0\",\"\",\"\",\"1-2\",\"4689\",\"40\",\"1\",\"Testing\",\"Stims/Figures/87-C-20-4.bmp\",\"nala:na\",\"Down\",\"40\",\"4\",\"2\",\"4\",\"S\",\"J\",\"74\"
\"\",\"\",\"approach-retreat\",\"223\",\"2015720\",\"0.0-223.0\",\"\",\"\",\"1-2\",\"6216\",\"39\",\"1\",\"Testing\",\"Stims/Figures/102-J-10-4.bmp\",\"ta:kata\",\"Left\",\"39\",\"4\",\"3\",\"4\",\"P\",\"J\",\"75\"
\"\",\"\",\"approach-retreat\",\"224\",\"2021798\",\"0.0-224.0\",\"\",\"\",\"1-2\",\"4560\",\"39\",\"1\",\"Testing\",\"Stims/Figures/84-J-0-2.bmp\",\"pakaka\",\"Left\",\"39\",\"4\",\"4\",\"4\",\"P\",\"J\",\"76\"
\"\",\"\",\"approach-retreat\",\"225\",\"2028348\",\"0.0-225.0\",\"\",\"\",\"1-2\",\"5035\",\"38\",\"1\",\"Testing\",\"Stims/Figures/94-J-0-2.bmp\",\"ta:ka:ta\",\"Down\",\"38\",\"4\",\"5\",\"4\",\"P\",\"J\",\"77\"
\"\",\"\",\"approach-retreat\",\"226\",\"2034284\",\"0.0-226.0\",\"\",\"\",\"1-2\",\"4419\",\"40\",\"1\",\"Testing\",\"Stims/Figures/128-J-10-3.bmp\",\"pa:kaka\",\"Up\",\"40\",\"4\",\"6\",\"4\",\"P\",\"J\",\"78\"
\"\",\"\",\"approach-retreat\",\"227\",\"2041806\",\"0.0-227.0\",\"\",\"\",\"1-2\",\"6005\",\"37\",\"1\",\"Testing\",\"Stims/Figures/111-J-10-3.bmp\",\"pa:ka:ta\",\"Right\",\"37\",\"4\",\"7\",\"4\",\"P\",\"J\",\"79\"
\"\",\"\",\"approach-retreat\",\"228\",\"2047835\",\"0.0-228.0\",\"\",\"\",\"1-2\",\"4512\",\"38\",\"1\",\"Testing\",\"Stims/Figures/71-C-30-1.bmp\",\"na:mana\",\"Up\",\"38\",\"4\",\"8\",\"4\",\"S\",\"J\",\"80\"
\"\",\"\",\"approach-retreat\",\"229\",\"2053729\",\"0.0-229.0\",\"\",\"\",\"1-2\",\"4377\",\"38\",\"1\",\"Testing\",\"Stims/Figures/144-J-10-3.bmp\",\"pa:ka:ka\",\"Down\",\"38\",\"4\",\"9\",\"4\",\"P\",\"J\",\"81\"
\"\",\"\",\"approach-retreat\",\"230\",\"2059816\",\"0.0-230.0\",\"\",\"\",\"1-2\",\"4571\",\"38\",\"1\",\"Testing\",\"Stims/Figures/19-C-20-4.bmp\",\"ma:lala\",\"Up\",\"38\",\"4\",\"10\",\"4\",\"S\",\"J\",\"82\"
\"\",\"\",\"approach-retreat\",\"231\",\"2069059\",\"0.0-231.0\",\"\",\"\",\"1-2\",\"7727\",\"37\",\"1\",\"Testing\",\"Stims/Figures/84-C-20-2.bmp\",\"mamana\",\"Left\",\"37\",\"4\",\"11\",\"4\",\"S\",\"J\",\"83\"
\"\",\"\",\"approach-retreat\",\"232\",\"2076095\",\"0.0-232.0\",\"\",\"\",\"1-2\",\"5520\",\"37\",\"1\",\"Testing\",\"Stims/Figures/27-C-30-1.bmp\",\"nalana\",\"Left\",\"37\",\"4\",\"12\",\"4\",\"S\",\"J\",\"84\"
\"\",\"\",\"approach-retreat\",\"233\",\"2081952\",\"0.0-233.0\",\"\",\"\",\"1-2\",\"4340\",\"40\",\"1\",\"Testing\",\"Stims/Figures/128-C-30-3.bmp\",\"na:la:la\",\"Down\",\"40\",\"4\",\"13\",\"4\",\"S\",\"J\",\"85\"
\"\",\"\",\"approach-retreat\",\"234\",\"2088188\",\"0.0-234.0\",\"\",\"\",\"1-2\",\"4719\",\"37\",\"1\",\"Testing\",\"Stims/Figures/118-J-0-2.bmp\",\"tapa:ta\",\"Right\",\"37\",\"4\",\"14\",\"4\",\"P\",\"J\",\"86\"
\"\",\"\",\"approach-retreat\",\"235\",\"2094195\",\"0.0-235.0\",\"\",\"\",\"1-2\",\"4491\",\"39\",\"1\",\"Testing\",\"Stims/Figures/86-C-30-1.bmp\",\"ma:mala\",\"Right\",\"39\",\"4\",\"15\",\"4\",\"S\",\"J\",\"87\"
\"\",\"\",\"approach-retreat\",\"236\",\"2100029\",\"0.0-236.0\",\"\",\"\",\"1-2\",\"4316\",\"40\",\"1\",\"Testing\",\"Stims/Figures/87-J-10-4.bmp\",\"tapaka\",\"Up\",\"40\",\"4\",\"16\",\"4\",\"P\",\"J\",\"88\"
\"\",\"\",\"approach-retreat\",\"237\",\"2106333\",\"0.0-237.0\",\"\",\"\",\"1-2\",\"4779\",\"38\",\"1\",\"Testing\",\"Stims/Figures/94-C-20-2.bmp\",\"ma:ma:na\",\"Up\",\"38\",\"4\",\"17\",\"4\",\"S\",\"J\",\"89\"
\"\",\"\",\"approach-retreat\",\"238\",\"2112777\",\"0.0-238.0\",\"\",\"\",\"1-2\",\"4928\",\"37\",\"1\",\"Testing\",\"Stims/Figures/102-C-20-4.bmp\",\"malana\",\"Left\",\"37\",\"4\",\"18\",\"4\",\"S\",\"J\",\"90\"
\"\",\"\",\"approach-retreat\",\"239\",\"2119504\",\"0.0-239.0\",\"\",\"\",\"1-2\",\"5210\",\"39\",\"1\",\"Testing\",\"Stims/Figures/144-C-30-3.bmp\",\"nala:la\",\"Right\",\"39\",\"4\",\"19\",\"4\",\"S\",\"J\",\"91\"
\"\",\"\",\"approach-retreat\",\"240\",\"2125560\",\"0.0-240.0\",\"\",\"\",\"1-2\",\"4541\",\"39\",\"1\",\"Testing\",\"Stims/Figures/86-J-0-1.bmp\",\"papa:ka\",\"Left\",\"39\",\"4\",\"20\",\"4\",\"P\",\"J\",\"92\"
\"\",\"\",\"approach-retreat\",\"241\",\"2132525\",\"0.0-241.0\",\"\",\"\",\"1-2\",\"5448\",\"38\",\"1\",\"Testing\",\"Stims/Figures/27-J-0-1.bmp\",\"ta:pata\",\"Down\",\"38\",\"4\",\"21\",\"4\",\"P\",\"J\",\"93\"
\"\",\"\",\"approach-retreat\",\"242\",\"2138744\",\"0.0-242.0\",\"\",\"\",\"1-2\",\"4702\",\"40\",\"1\",\"Testing\",\"Stims/Figures/19-J-10-4.bmp\",\"tapata\",\"Up\",\"40\",\"4\",\"22\",\"4\",\"P\",\"J\",\"94\"
\"\",\"\",\"approach-retreat\",\"243\",\"2144606\",\"0.0-243.0\",\"\",\"\",\"1-2\",\"4351\",\"40\",\"1\",\"Testing\",\"Stims/Figures/111-C-30-3.bmp\",\"mama:na\",\"Down\",\"40\",\"4\",\"23\",\"4\",\"S\",\"J\",\"95\"
\"\",\"\",\"approach-retreat\",\"244\",\"2156856\",\"0.0-244.0\",\"\",\"\",\"1-2\",\"10734\",\"39\",\"1\",\"Testing\",\"Stims/Figures/118-C-20-2.bmp\",\"nalala\",\"Right\",\"39\",\"4\",\"24\",\"4\",\"S\",\"J\",\"96\"
\"35391\",\"\",\"survey-text\",\"245\",\"2192288\",\"0.0-245.0\",\"\",\"{\"\"Q0\"\":\"\"PS170085\"\"}\",\"\",\"\",\"\",\"\",\"\",\"\",\"\",\"\",\"\",\"\",\"\",\"\",\"\",\"\",\"\"
