"rt","key_press","trial_type","trial_index","time_elapsed","internal_node_id","view_history","responses","Id","Rt","ResKeyCode","ResCorr","TrialType2","Image","Label","Location","CorrectResponse","Block","BlockTrial","Condition","LabelType","Subcondition","trialNum"
"80205","32","text","0","80211","0.0-0.0-0.0","","","","","","","","","","","","","","","","",""
"3884","","instructions","1","84100","0.0-1.0","[{""page_index"":0,""viewing_time"":3879}]","","","","","","","","","","","","","","","",""
"90651","","survey-multi-choice","2","174805","0.0-2.0","","{""Q0"":""Da"",""Q1"":""Da"",""Q2"":""Da"",""Q3"":""Da"",""Q4"":""Da"",""Q5"":""Da""}","","","","","","","","","","","","","","",""
"","","bio","3","188244","0.0-3.0","","{""age"":""19"",""gender"":""f"",""specify"":""""}","","","","","","","","","","","","","","",""
"","","approach-retreat","4","228708","0.0-4.0","","","2-4","38384","40","0","Training","Stims/Figures/128-J-10-3.bmp","ta:ka:ta","Down","38","1","1","1","P","J","1"
"","","approach-retreat","5","240127","0.0-5.0","","","2-4","9896","39","0","Training","Stims/Figures/139-J-0-2.bmp","ta:ka:ta","Right","37","1","2","1","P","J","2"
"","","approach-retreat","6","256347","0.0-6.0","","","2-4","14694","37","1","Training","Stims/Figures/44-C-30-3.bmp","nala:na","Left","37","1","3","1","S","J","3"
"","","approach-retreat","7","268147","0.0-7.0","","","2-4","10271","39","1","Training","Stims/Figures/84-J-0-2.bmp","ta:ka:ta","Left","39","1","4","1","P","J","4"
"","","approach-retreat","8","282288","0.0-8.0","","","2-4","12617","38","1","Training","Stims/Figures/84-C-20-2.bmp","nala:na","Up","38","1","5","1","S","J","5"
"","","approach-retreat","9","294417","0.0-9.0","","","2-4","10599","39","1","Training","Stims/Figures/44-J-10-3.bmp","ta:ka:ta","Left","39","1","6","1","P","J","6"
"","","approach-retreat","10","305067","0.0-10.0","","","2-4","9133","37","1","Training","Stims/Figures/87-J-10-4.bmp","ta:ka:ta","Right","37","1","7","1","P","J","7"
"","","approach-retreat","11","316547","0.0-11.0","","","2-4","9967","38","1","Training","Stims/Figures/93-C-30-1.bmp","nala:na","Up","38","1","8","1","S","J","8"
"","","approach-retreat","12","333157","0.0-12.0","","","2-4","15095","38","0","Training","Stims/Figures/93-J-0-1.bmp","ta:ka:ta","Up","40","1","9","1","P","J","9"
"","","approach-retreat","13","343997","0.0-13.0","","","2-4","9325","37","1","Training","Stims/Figures/57-J-0-1.bmp","ta:ka:ta","Right","37","1","10","1","P","J","10"
"","","approach-retreat","14","352908","0.0-14.0","","","2-4","7387","40","1","Training","Stims/Figures/102-C-20-4.bmp","nala:na","Down","40","1","11","1","S","J","11"
"","","approach-retreat","15","361507","0.0-15.0","","","2-4","7075","40","1","Training","Stims/Figures/128-C-30-3.bmp","nala:na","Down","40","1","12","1","S","J","12"
"","","approach-retreat","16","368058","0.0-16.0","","","2-4","5032","40","1","Training","Stims/Figures/87-C-20-4.bmp","nala:na","Down","40","1","13","1","S","J","13"
"","","approach-retreat","17","375216","0.0-17.0","","","2-4","5641","37","1","Training","Stims/Figures/57-C-30-1.bmp","nala:na","Left","37","1","14","1","S","J","14"
"","","approach-retreat","18","382997","0.0-18.0","","","2-4","6255","39","1","Training","Stims/Figures/139-C-20-2.bmp","nala:na","Right","39","1","15","1","S","J","15"
"","","approach-retreat","19","390317","0.0-19.0","","","2-4","5804","40","1","Training","Stims/Figures/102-J-10-4.bmp","ta:ka:ta","Up","40","1","16","1","P","J","16"
"","","approach-retreat","20","405097","0.0-20.0","","","2-4","13273","40","0","Training","Stims/Figures/87-J-10-4.bmp","ta:ka:ta","Down","38","2","1","1","P","J","17"
"","","approach-retreat","21","411347","0.0-21.0","","","2-4","4736","39","1","Training","Stims/Figures/84-J-0-2.bmp","ta:ka:ta","Left","39","2","2","1","P","J","18"
"","","approach-retreat","22","421407","0.0-22.0","","","2-4","8535","39","0","Training","Stims/Figures/57-J-0-1.bmp","ta:ka:ta","Right","37","2","3","1","P","J","19"
"","","approach-retreat","23","429968","0.0-23.0","","","2-4","7044","37","1","Training","Stims/Figures/84-C-20-2.bmp","nala:na","Left","37","2","4","1","S","J","20"
"","","approach-retreat","24","437209","0.0-24.0","","","2-4","5726","39","1","Training","Stims/Figures/139-C-20-2.bmp","nala:na","Right","39","2","5","1","S","J","21"
"","","approach-retreat","25","444487","0.0-25.0","","","2-4","5758","37","1","Training","Stims/Figures/87-C-20-4.bmp","nala:na","Left","37","2","6","1","S","J","22"
"","","approach-retreat","26","460567","0.0-26.0","","","2-4","14560","38","1","Training","Stims/Figures/44-C-30-3.bmp","nala:na","Up","38","2","7","1","S","J","23"
"","","approach-retreat","27","468828","0.0-27.0","","","2-4","6744","38","1","Training","Stims/Figures/128-C-30-3.bmp","nala:na","Up","38","2","8","1","S","J","24"
"","","approach-retreat","28","478478","0.0-28.0","","","2-4","8133","37","1","Training","Stims/Figures/57-C-30-1.bmp","nala:na","Left","37","2","9","1","S","J","25"
"","","approach-retreat","29","488868","0.0-29.0","","","2-4","8867","37","1","Training","Stims/Figures/128-J-10-3.bmp","ta:ka:ta","Right","37","2","10","1","P","J","26"
"","","approach-retreat","30","497048","0.0-30.0","","","2-4","6657","40","0","Training","Stims/Figures/93-J-0-1.bmp","ta:ka:ta","Down","38","2","11","1","P","J","27"
"","","approach-retreat","31","503317","0.0-31.0","","","2-4","4750","38","1","Training","Stims/Figures/102-C-20-4.bmp","nala:na","Up","38","2","12","1","S","J","28"
"","","approach-retreat","32","509577","0.0-32.0","","","2-4","4749","40","1","Training","Stims/Figures/44-J-10-3.bmp","ta:ka:ta","Up","40","2","13","1","P","J","29"
"","","approach-retreat","33","516478","0.0-33.0","","","2-4","5396","37","1","Training","Stims/Figures/102-J-10-4.bmp","ta:ka:ta","Right","37","2","14","1","P","J","30"
"","","approach-retreat","34","526878","0.0-34.0","","","2-4","8886","40","0","Training","Stims/Figures/139-J-0-2.bmp","ta:ka:ta","Down","38","2","15","1","P","J","31"
"","","approach-retreat","35","537518","0.0-35.0","","","2-4","9117","38","0","Training","Stims/Figures/93-C-30-1.bmp","nala:na","Down","40","2","16","1","S","J","32"
"","","approach-retreat","36","544027","0.0-36.0","","","2-4","4985","39","1","Training","Stims/Figures/57-C-30-1.bmp","nala:na","Right","39","3","1","1","S","J","33"
"","","approach-retreat","37","550358","0.0-37.0","","","2-4","4805","38","0","Training","Stims/Figures/102-J-10-4.bmp","ta:ka:ta","Up","40","3","2","1","P","J","34"
"","","approach-retreat","38","558728","0.0-38.0","","","2-4","6849","40","1","Training","Stims/Figures/139-C-20-2.bmp","nala:na","Down","40","3","3","1","S","J","35"
"","","approach-retreat","39","564828","0.0-39.0","","","2-4","4578","37","1","Training","Stims/Figures/44-C-30-3.bmp","nala:na","Left","37","3","4","1","S","J","36"
"","","approach-retreat","40","574598","0.0-40.0","","","2-4","8262","40","0","Training","Stims/Figures/128-J-10-3.bmp","ta:ka:ta","Down","38","3","5","1","P","J","37"
"","","approach-retreat","41","580968","0.0-41.0","","","2-4","4861","38","1","Training","Stims/Figures/93-J-0-1.bmp","ta:ka:ta","Down","38","3","6","1","P","J","38"
"","","approach-retreat","42","589518","0.0-42.0","","","2-4","7036","37","0","Training","Stims/Figures/139-J-0-2.bmp","ta:ka:ta","Left","39","3","7","1","P","J","39"
"","","approach-retreat","43","598278","0.0-43.0","","","2-4","7254","39","1","Training","Stims/Figures/44-J-10-3.bmp","ta:ka:ta","Left","39","3","8","1","P","J","40"
"","","approach-retreat","44","605308","0.0-44.0","","","2-4","5515","38","0","Training","Stims/Figures/87-C-20-4.bmp","nala:na","Down","40","3","9","1","S","J","41"
"","","approach-retreat","45","612578","0.0-45.0","","","2-4","5761","39","0","Training","Stims/Figures/87-J-10-4.bmp","ta:ka:ta","Right","37","3","10","1","P","J","42"
"","","approach-retreat","46","618888","0.0-46.0","","","2-4","4790","37","0","Training","Stims/Figures/93-C-30-1.bmp","nala:na","Right","39","3","11","1","S","J","43"
"","","approach-retreat","47","632758","0.0-47.0","","","2-4","12347","38","0","Training","Stims/Figures/57-J-0-1.bmp","ta:ka:ta","Up","40","3","12","1","P","J","44"
"","","approach-retreat","48","641508","0.0-48.0","","","2-4","7231","37","1","Training","Stims/Figures/84-C-20-2.bmp","nala:na","Left","37","3","13","1","S","J","45"
"","","approach-retreat","49","648608","0.0-49.0","","","2-4","5582","38","0","Training","Stims/Figures/84-J-0-2.bmp","ta:ka:ta","Up","40","3","14","1","P","J","46"
"","","approach-retreat","50","656218","0.0-50.0","","","2-4","6097","38","1","Training","Stims/Figures/102-C-20-4.bmp","nala:na","Up","38","3","15","1","S","J","47"
"","","approach-retreat","51","663298","0.0-51.0","","","2-4","5563","39","1","Training","Stims/Figures/128-C-30-3.bmp","nala:na","Right","39","3","16","1","S","J","48"
"","","approach-retreat","52","670998","0.0-52.0","","","2-4","6181","40","0","Training","Stims/Figures/139-J-0-2.bmp","ta:ka:ta","Down","38","4","1","1","P","J","49"
"","","approach-retreat","53","678548","0.0-53.0","","","2-4","6045","38","1","Training","Stims/Figures/102-J-10-4.bmp","ta:ka:ta","Down","38","4","2","1","P","J","50"
"","","approach-retreat","54","687528","0.0-54.0","","","2-4","7458","39","1","Training","Stims/Figures/87-C-20-4.bmp","nala:na","Right","39","4","3","1","S","J","51"
"","","approach-retreat","55","695498","0.0-55.0","","","2-4","6449","38","1","Training","Stims/Figures/139-C-20-2.bmp","nala:na","Up","38","4","4","1","S","J","52"
"","","approach-retreat","56","703618","0.0-56.0","","","2-4","6614","37","1","Training","Stims/Figures/84-C-20-2.bmp","nala:na","Left","37","4","5","1","S","J","53"
"","","approach-retreat","57","710298","0.0-57.0","","","2-4","5172","37","1","Training","Stims/Figures/57-J-0-1.bmp","ta:ka:ta","Right","37","4","6","1","P","J","54"
"","","approach-retreat","58","718338","0.0-58.0","","","2-4","6524","38","1","Training","Stims/Figures/93-C-30-1.bmp","nala:na","Up","38","4","7","1","S","J","55"
"","","approach-retreat","59","726489","0.0-59.0","","","2-4","6633","37","1","Training","Stims/Figures/87-J-10-4.bmp","ta:ka:ta","Right","37","4","8","1","P","J","56"
"","","approach-retreat","60","732728","0.0-60.0","","","2-4","4726","37","0","Training","Stims/Figures/93-J-0-1.bmp","ta:ka:ta","Left","39","4","9","1","P","J","57"
"","","approach-retreat","61","741488","0.0-61.0","","","2-4","7248","39","0","Training","Stims/Figures/102-C-20-4.bmp","nala:na","Left","37","4","10","1","S","J","58"
"","","approach-retreat","62","750228","0.0-62.0","","","2-4","7225","40","1","Training","Stims/Figures/44-J-10-3.bmp","ta:ka:ta","Up","40","4","11","1","P","J","59"
"","","approach-retreat","63","765088","0.0-63.0","","","2-4","13355","40","1","Training","Stims/Figures/44-C-30-3.bmp","nala:na","Down","40","4","12","1","S","J","60"
"","","approach-retreat","64","771078","0.0-64.0","","","2-4","4481","38","1","Training","Stims/Figures/128-J-10-3.bmp","ta:ka:ta","Down","38","4","13","1","P","J","61"
"","","approach-retreat","65","777939","0.0-65.0","","","2-4","5352","40","1","Training","Stims/Figures/84-J-0-2.bmp","ta:ka:ta","Up","40","4","14","1","P","J","62"
"","","approach-retreat","66","784999","0.0-66.0","","","2-4","5541","39","0","Training","Stims/Figures/57-C-30-1.bmp","nala:na","Left","37","4","15","1","S","J","63"
"","","approach-retreat","67","791969","0.0-67.0","","","2-4","5455","39","1","Training","Stims/Figures/128-C-30-3.bmp","nala:na","Right","39","4","16","1","S","J","64"
"","","approach-retreat","68","801069","0.0-68.0","","","2-4","7597","39","1","Training","Stims/Figures/44-C-30-3.bmp","nala:na","Right","39","5","1","1","S","J","65"
"","","approach-retreat","69","809029","0.0-69.0","","","2-4","6441","38","0","Training","Stims/Figures/44-J-10-3.bmp","ta:ka:ta","Up","40","5","2","1","P","J","66"
"","","approach-retreat","70","815549","0.0-70.0","","","2-4","5013","39","1","Training","Stims/Figures/57-C-30-1.bmp","nala:na","Right","39","5","3","1","S","J","67"
"","","approach-retreat","71","821869","0.0-71.0","","","2-4","4809","38","0","Training","Stims/Figures/87-C-20-4.bmp","nala:na","Down","40","5","4","1","S","J","68"
"","","approach-retreat","72","828428","0.0-72.0","","","2-4","5046","40","0","Training","Stims/Figures/84-J-0-2.bmp","ta:ka:ta","Down","38","5","5","1","P","J","69"
"","","approach-retreat","73","834739","0.0-73.0","","","2-4","4798","37","1","Training","Stims/Figures/84-C-20-2.bmp","nala:na","Left","37","5","6","1","S","J","70"
"","","approach-retreat","74","843858","0.0-74.0","","","2-4","7613","38","0","Training","Stims/Figures/139-J-0-2.bmp","ta:ka:ta","Up","40","5","7","1","P","J","71"
"","","approach-retreat","75","851149","0.0-75.0","","","2-4","5769","39","0","Training","Stims/Figures/93-J-0-1.bmp","ta:ka:ta","Right","37","5","8","1","P","J","72"
"","","approach-retreat","76","856879","0.0-76.0","","","2-4","4226","39","1","Training","Stims/Figures/139-C-20-2.bmp","nala:na","Right","39","5","9","1","S","J","73"
"","","approach-retreat","77","864379","0.0-77.0","","","2-4","5981","40","1","Training","Stims/Figures/128-C-30-3.bmp","nala:na","Down","40","5","10","1","S","J","74"
"","","approach-retreat","78","871379","0.0-78.0","","","2-4","5481","40","1","Training","Stims/Figures/87-J-10-4.bmp","ta:ka:ta","Up","40","5","11","1","P","J","75"
"","","approach-retreat","79","877598","0.0-79.0","","","2-4","4710","39","1","Training","Stims/Figures/128-J-10-3.bmp","ta:ka:ta","Left","39","5","12","1","P","J","76"
"","","approach-retreat","80","887219","0.0-80.0","","","2-4","8115","40","1","Training","Stims/Figures/102-C-20-4.bmp","nala:na","Down","40","5","13","1","S","J","77"
"","","approach-retreat","81","893839","0.0-81.0","","","2-4","5101","39","1","Training","Stims/Figures/57-J-0-1.bmp","ta:ka:ta","Left","39","5","14","1","P","J","78"
"","","approach-retreat","82","899999","0.0-82.0","","","2-4","4645","37","1","Training","Stims/Figures/93-C-30-1.bmp","nala:na","Left","37","5","15","1","S","J","79"
"","","approach-retreat","83","907439","0.0-83.0","","","2-4","5920","40","1","Training","Stims/Figures/102-J-10-4.bmp","ta:ka:ta","Up","40","5","16","1","P","J","80"
"","","approach-retreat","84","915189","0.0-84.0","","","2-4","6230","39","1","Training","Stims/Figures/93-J-0-1.bmp","ta:ka:ta","Left","39","6","1","1","P","J","81"
"","","approach-retreat","85","921268","0.0-85.0","","","2-4","4573","39","1","Training","Stims/Figures/87-J-10-4.bmp","ta:ka:ta","Left","39","6","2","1","P","J","82"
"","","approach-retreat","86","928320","0.0-86.0","","","2-4","5538","40","1","Training","Stims/Figures/87-C-20-4.bmp","nala:na","Down","40","6","3","1","S","J","83"
"","","approach-retreat","87","934850","0.0-87.0","","","2-4","5016","39","1","Training","Stims/Figures/139-J-0-2.bmp","ta:ka:ta","Left","39","6","4","1","P","J","84"
"","","approach-retreat","88","943389","0.0-88.0","","","2-4","7030","40","1","Training","Stims/Figures/139-C-20-2.bmp","nala:na","Down","40","6","5","1","S","J","85"
"","","approach-retreat","89","950340","0.0-89.0","","","2-4","5429","37","1","Training","Stims/Figures/128-J-10-3.bmp","ta:ka:ta","Right","37","6","6","1","P","J","86"
"","","approach-retreat","90","956389","0.0-90.0","","","2-4","4529","39","1","Training","Stims/Figures/128-C-30-3.bmp","nala:na","Right","39","6","7","1","S","J","87"
"","","approach-retreat","91","962170","0.0-91.0","","","2-4","4268","37","1","Training","Stims/Figures/102-J-10-4.bmp","ta:ka:ta","Right","37","6","8","1","P","J","88"
"","","approach-retreat","92","969869","0.0-92.0","","","2-4","6185","37","1","Training","Stims/Figures/93-C-30-1.bmp","nala:na","Left","37","6","9","1","S","J","89"
"","","approach-retreat","93","976169","0.0-93.0","","","2-4","4793","39","1","Training","Stims/Figures/44-C-30-3.bmp","nala:na","Right","39","6","10","1","S","J","90"
"","","approach-retreat","94","983169","0.0-94.0","","","2-4","5485","38","1","Training","Stims/Figures/102-C-20-4.bmp","nala:na","Up","38","6","11","1","S","J","91"
"","","approach-retreat","95","989179","0.0-95.0","","","2-4","4504","38","1","Training","Stims/Figures/84-C-20-2.bmp","nala:na","Up","38","6","12","1","S","J","92"
"","","approach-retreat","96","994820","0.0-96.0","","","2-4","4138","38","1","Training","Stims/Figures/57-C-30-1.bmp","nala:na","Up","38","6","13","1","S","J","93"
"","","approach-retreat","97","1001689","0.0-97.0","","","2-4","5349","38","1","Training","Stims/Figures/84-J-0-2.bmp","ta:ka:ta","Down","38","6","14","1","P","J","94"
"","","approach-retreat","98","1009049","0.0-98.0","","","2-4","5840","38","1","Training","Stims/Figures/44-J-10-3.bmp","ta:ka:ta","Down","38","6","15","1","P","J","95"
"","","approach-retreat","99","1015019","0.0-99.0","","","2-4","4450","40","1","Training","Stims/Figures/57-J-0-1.bmp","ta:ka:ta","Up","40","6","16","1","P","J","96"
"","","approach-retreat","100","1021720","0.0-100.0","","","2-4","5191","39","1","Training","Stims/Figures/128-J-10-3.bmp","ta:ka:ta","Left","39","7","1","1","P","J","97"
"","","approach-retreat","101","1029560","0.0-101.0","","","2-4","6337","38","1","Training","Stims/Figures/102-C-20-4.bmp","nala:na","Up","38","7","2","1","S","J","98"
"","","approach-retreat","102","1036150","0.0-102.0","","","2-4","5078","39","1","Training","Stims/Figures/87-J-10-4.bmp","ta:ka:ta","Left","39","7","3","1","P","J","99"
"","","approach-retreat","103","1043170","0.0-103.0","","","2-4","5511","38","1","Training","Stims/Figures/44-J-10-3.bmp","ta:ka:ta","Down","38","7","4","1","P","J","100"
"","","approach-retreat","104","1050710","0.0-104.0","","","2-4","6034","40","1","Training","Stims/Figures/44-C-30-3.bmp","nala:na","Down","40","7","5","1","S","J","101"
"","","approach-retreat","105","1057109","0.0-105.0","","","2-4","4881","40","1","Training","Stims/Figures/57-C-30-1.bmp","nala:na","Down","40","7","6","1","S","J","102"
"","","approach-retreat","106","1064350","0.0-106.0","","","2-4","5723","40","1","Training","Stims/Figures/93-J-0-1.bmp","ta:ka:ta","Up","40","7","7","1","P","J","103"
"","","approach-retreat","107","1070470","0.0-107.0","","","2-4","4600","39","1","Training","Stims/Figures/84-C-20-2.bmp","nala:na","Right","39","7","8","1","S","J","104"
"","","approach-retreat","108","1076300","0.0-108.0","","","2-4","4322","37","1","Training","Stims/Figures/87-C-20-4.bmp","nala:na","Left","37","7","9","1","S","J","105"
"","","approach-retreat","109","1087410","0.0-109.0","","","2-4","9592","40","0","Training","Stims/Figures/84-J-0-2.bmp","ta:ka:ta","Down","38","7","10","1","P","J","106"
"","","approach-retreat","110","1094019","0.0-110.0","","","2-4","5090","37","1","Training","Stims/Figures/139-J-0-2.bmp","ta:ka:ta","Right","37","7","11","1","P","J","107"
"","","approach-retreat","111","1109329","0.0-111.0","","","2-4","13801","37","1","Training","Stims/Figures/102-J-10-4.bmp","ta:ka:ta","Right","37","7","12","1","P","J","108"
"","","approach-retreat","112","1115520","0.0-112.0","","","2-4","4680","38","1","Training","Stims/Figures/128-C-30-3.bmp","nala:na","Up","38","7","13","1","S","J","109"
"","","approach-retreat","113","1121440","0.0-113.0","","","2-4","4402","39","1","Training","Stims/Figures/93-C-30-1.bmp","nala:na","Right","39","7","14","1","S","J","110"
"","","approach-retreat","114","1127719","0.0-114.0","","","2-4","4765","40","1","Training","Stims/Figures/57-J-0-1.bmp","ta:ka:ta","Up","40","7","15","1","P","J","111"
"","","approach-retreat","115","1133709","0.0-115.0","","","2-4","4474","37","1","Training","Stims/Figures/139-C-20-2.bmp","nala:na","Left","37","7","16","1","S","J","112"
"","","approach-retreat","116","1139210","0.0-116.0","","","2-4","3995","38","1","Training","Stims/Figures/57-C-30-1.bmp","nala:na","Up","38","8","1","1","S","J","113"
"","","approach-retreat","117","1145069","0.0-117.0","","","2-4","4340","37","1","Training","Stims/Figures/102-J-10-4.bmp","ta:ka:ta","Right","37","8","2","1","P","J","114"
"","","approach-retreat","118","1151190","0.0-118.0","","","2-4","4615","39","1","Training","Stims/Figures/128-C-30-3.bmp","nala:na","Right","39","8","3","1","S","J","115"
"","","approach-retreat","119","1158350","0.0-119.0","","","2-4","5646","39","1","Training","Stims/Figures/128-J-10-3.bmp","ta:ka:ta","Left","39","8","4","1","P","J","116"
"","","approach-retreat","120","1164340","0.0-120.0","","","2-4","4472","38","1","Training","Stims/Figures/44-C-30-3.bmp","nala:na","Up","38","8","5","1","S","J","117"
"","","approach-retreat","121","1170490","0.0-121.0","","","2-4","4638","37","1","Training","Stims/Figures/102-C-20-4.bmp","nala:na","Left","37","8","6","1","S","J","118"
"","","approach-retreat","122","1177540","0.0-122.0","","","2-4","5544","38","1","Training","Stims/Figures/87-J-10-4.bmp","ta:ka:ta","Down","38","8","7","1","P","J","119"
"","","approach-retreat","123","1183450","0.0-123.0","","","2-4","4406","38","1","Training","Stims/Figures/84-C-20-2.bmp","nala:na","Up","38","8","8","1","S","J","120"
"","","approach-retreat","124","1189730","0.0-124.0","","","2-4","4764","40","1","Training","Stims/Figures/87-C-20-4.bmp","nala:na","Down","40","8","9","1","S","J","121"
"","","approach-retreat","125","1196930","0.0-125.0","","","2-4","5690","38","1","Training","Stims/Figures/84-J-0-2.bmp","ta:ka:ta","Down","38","8","10","1","P","J","122"
"","","approach-retreat","126","1203250","0.0-126.0","","","2-4","4807","39","1","Training","Stims/Figures/93-C-30-1.bmp","nala:na","Right","39","8","11","1","S","J","123"
"","","approach-retreat","127","1209290","0.0-127.0","","","2-4","4521","38","1","Training","Stims/Figures/57-J-0-1.bmp","ta:ka:ta","Down","38","8","12","1","P","J","124"
"","","approach-retreat","128","1215800","0.0-128.0","","","2-4","4996","39","1","Training","Stims/Figures/93-J-0-1.bmp","ta:ka:ta","Left","39","8","13","1","P","J","125"
"","","approach-retreat","129","1223771","0.0-129.0","","","2-4","6448","39","1","Training","Stims/Figures/44-J-10-3.bmp","ta:ka:ta","Left","39","8","14","1","P","J","126"
"","","approach-retreat","130","1229710","0.0-130.0","","","2-4","4425","38","1","Training","Stims/Figures/139-C-20-2.bmp","nala:na","Up","38","8","15","1","S","J","127"
"","","approach-retreat","131","1235820","0.0-131.0","","","2-4","4593","37","1","Training","Stims/Figures/139-J-0-2.bmp","ta:ka:ta","Right","37","8","16","1","P","J","128"
"","","approach-retreat","132","1241601","0.0-132.0","","","2-4","4271","39","1","Training","Stims/Figures/44-C-30-3.bmp","nala:na","Right","39","9","1","1","S","J","129"
"","","approach-retreat","133","1247590","0.0-133.0","","","2-4","4468","38","1","Training","Stims/Figures/139-C-20-2.bmp","nala:na","Up","38","9","2","1","S","J","130"
"","","approach-retreat","134","1253111","0.0-134.0","","","2-4","4005","38","1","Training","Stims/Figures/84-C-20-2.bmp","nala:na","Up","38","9","3","1","S","J","131"
"","","approach-retreat","135","1259140","0.0-135.0","","","2-4","4515","40","1","Training","Stims/Figures/93-C-30-1.bmp","nala:na","Down","40","9","4","1","S","J","132"
"","","approach-retreat","136","1265980","0.0-136.0","","","2-4","5327","39","1","Training","Stims/Figures/93-J-0-1.bmp","ta:ka:ta","Left","39","9","5","1","P","J","133"
"","","approach-retreat","137","1272211","0.0-137.0","","","2-4","4712","38","1","Training","Stims/Figures/57-J-0-1.bmp","ta:ka:ta","Down","38","9","6","1","P","J","134"
"","","approach-retreat","138","1278460","0.0-138.0","","","2-4","4730","39","1","Training","Stims/Figures/44-J-10-3.bmp","ta:ka:ta","Left","39","9","7","1","P","J","135"
"","","approach-retreat","139","1284171","0.0-139.0","","","2-4","4183","39","1","Training","Stims/Figures/84-J-0-2.bmp","ta:ka:ta","Left","39","9","8","1","P","J","136"
"","","approach-retreat","140","1289970","0.0-140.0","","","2-4","4278","39","1","Training","Stims/Figures/57-C-30-1.bmp","nala:na","Right","39","9","9","1","S","J","137"
"","","approach-retreat","141","1296400","0.0-141.0","","","2-4","4922","40","1","Training","Stims/Figures/102-J-10-4.bmp","ta:ka:ta","Up","40","9","10","1","P","J","138"
"","","approach-retreat","142","1302110","0.0-142.0","","","2-4","4194","39","1","Training","Stims/Figures/87-C-20-4.bmp","nala:na","Right","39","9","11","1","S","J","139"
"","","approach-retreat","143","1308211","0.0-143.0","","","2-4","4596","37","1","Training","Stims/Figures/139-J-0-2.bmp","ta:ka:ta","Right","37","9","12","1","P","J","140"
"","","approach-retreat","144","1314431","0.0-144.0","","","2-4","4705","40","1","Training","Stims/Figures/128-J-10-3.bmp","ta:ka:ta","Up","40","9","13","1","P","J","141"
"","","approach-retreat","145","1321861","0.0-145.0","","","2-4","5908","40","1","Training","Stims/Figures/128-C-30-3.bmp","nala:na","Down","40","9","14","1","S","J","142"
"","","approach-retreat","146","1327841","0.0-146.0","","","2-4","4458","37","1","Training","Stims/Figures/102-C-20-4.bmp","nala:na","Left","37","9","15","1","S","J","143"
"","","approach-retreat","147","1337090","0.0-147.0","","","2-4","7737","38","1","Training","Stims/Figures/87-J-10-4.bmp","ta:ka:ta","Down","38","9","16","1","P","J","144"
"18873","","instructions","148","1355963","0.0-148.0","[{""page_index"":0,""viewing_time"":18873}]","","","","","","","","","","","","","","","",""
"","","approach-retreat","149","1367761","0.0-149.0","","","2-4","10287","38","1","Testing","Stims/Figures/84-C-20-2.bmp","nala:na","Up","38","1","1","1","S","J","1"
"","","approach-retreat","150","1378481","0.0-150.0","","","2-4","9205","40","1","Testing","Stims/Figures/128-C-30-3.bmp","nala:na","Down","40","1","2","1","S","J","2"
"","","approach-retreat","151","1385641","0.0-151.0","","","2-4","5656","39","0","Testing","Stims/Figures/84-J-0-2.bmp","ta:ka:ta","Right","37","1","3","1","P","J","3"
"","","approach-retreat","152","1392961","0.0-152.0","","","2-4","5802","39","0","Testing","Stims/Figures/144-J-10-3.bmp","ta:ka:ta","Right","37","1","4","1","P","J","4"
"","","approach-retreat","153","1401631","0.0-153.0","","","2-4","7151","37","0","Testing","Stims/Figures/93-J-0-1.bmp","ta:ka:ta","Left","39","1","5","1","P","J","5"
"","","approach-retreat","154","1407390","0.0-154.0","","","2-4","4250","38","0","Testing","Stims/Figures/7-J-10-4.bmp","ta:ka:ta","Up","40","1","6","1","P","J","6"
"","","approach-retreat","155","1416091","0.0-155.0","","","2-4","7188","39","0","Testing","Stims/Figures/128-J-10-3.bmp","ta:ka:ta","Right","37","1","7","1","P","J","7"
"","","approach-retreat","156","1422321","0.0-156.0","","","2-4","4726","38","1","Testing","Stims/Figures/87-J-10-4.bmp","ta:ka:ta","Down","38","1","8","1","P","J","8"
"","","approach-retreat","157","1430732","0.0-157.0","","","2-4","6886","38","0","Testing","Stims/Figures/7-C-20-4.bmp","nala:na","Down","40","1","9","1","S","J","9"
"","","approach-retreat","158","1437621","0.0-158.0","","","2-4","5383","39","0","Testing","Stims/Figures/144-C-30-3.bmp","nala:na","Left","37","1","10","1","S","J","10"
"","","approach-retreat","159","1444598","0.0-159.0","","","2-4","5473","37","0","Testing","Stims/Figures/139-J-0-2.bmp","ta:ka:ta","Left","39","1","11","1","P","J","11"
"","","approach-retreat","160","1450391","0.0-160.0","","","2-4","4282","37","0","Testing","Stims/Figures/102-J-10-4.bmp","ta:ka:ta","Left","39","1","12","1","P","J","12"
"","","approach-retreat","161","1456471","0.0-161.0","","","2-4","4563","38","0","Testing","Stims/Figures/44-C-30-3.bmp","nala:na","Down","40","1","13","1","S","J","13"
"","","approach-retreat","162","1463631","0.0-162.0","","","2-4","5643","38","0","Testing","Stims/Figures/87-C-20-4.bmp","nala:na","Down","40","1","14","1","S","J","14"
"","","approach-retreat","163","1469882","0.0-163.0","","","2-4","4732","37","0","Testing","Stims/Figures/57-J-0-1.bmp","ta:ka:ta","Left","39","1","15","1","P","J","15"
"","","approach-retreat","164","1475721","0.0-164.0","","","2-4","4320","37","0","Testing","Stims/Figures/118-J-0-2.bmp","ta:ka:ta","Left","39","1","16","1","P","J","16"
"","","approach-retreat","165","1481611","0.0-165.0","","","2-4","4369","39","0","Testing","Stims/Figures/44-J-10-3.bmp","ta:ka:ta","Right","37","1","17","1","P","J","17"
"","","approach-retreat","166","1500231","0.0-166.0","","","2-4","17109","38","1","Testing","Stims/Figures/57-C-30-1.bmp","nala:na","Up","38","1","18","1","S","J","18"
"","","approach-retreat","167","1506661","0.0-167.0","","","2-4","4921","38","1","Testing","Stims/Figures/93-C-30-1.bmp","nala:na","Up","38","1","19","1","S","J","19"
"","","approach-retreat","168","1513722","0.0-168.0","","","2-4","5541","38","1","Testing","Stims/Figures/71-C-30-1.bmp","nala:na","Up","38","1","20","1","S","J","20"
"","","approach-retreat","169","1519549","0.0-169.0","","","2-4","4316","39","1","Testing","Stims/Figures/139-C-20-2.bmp","nala:na","Right","39","1","21","1","S","J","21"
"","","approach-retreat","170","1527721","0.0-170.0","","","2-4","6660","39","0","Testing","Stims/Figures/71-J-0-1.bmp","ta:ka:ta","Right","37","1","22","1","P","J","22"
"","","approach-retreat","171","1534721","0.0-171.0","","","2-4","5479","40","1","Testing","Stims/Figures/118-C-20-2.bmp","nala:na","Down","40","1","23","1","S","J","23"
"","","approach-retreat","172","1540822","0.0-172.0","","","2-4","4587","38","1","Testing","Stims/Figures/102-C-20-4.bmp","nala:na","Up","38","1","24","1","S","J","24"
"","","approach-retreat","173","1547771","0.0-173.0","","","2-4","5442","37","1","Testing","Stims/Figures/84-C-20-2.bmp","nala:na","Left","37","2","1","1","S","J","25"
"","","approach-retreat","174","1554292","0.0-174.0","","","2-4","5017","38","0","Testing","Stims/Figures/44-C-30-3.bmp","nala:na","Down","40","2","2","1","S","J","26"
"","","approach-retreat","175","1561202","0.0-175.0","","","2-4","5397","39","1","Testing","Stims/Figures/139-J-0-2.bmp","ta:ka:ta","Left","39","2","3","1","P","J","27"
"","","approach-retreat","176","1567872","0.0-176.0","","","2-4","5157","39","1","Testing","Stims/Figures/7-J-10-4.bmp","ta:ka:ta","Left","39","2","4","1","P","J","28"
"","","approach-retreat","177","1574051","0.0-177.0","","","2-4","4669","38","1","Testing","Stims/Figures/144-C-30-3.bmp","nala:na","Up","38","2","5","1","S","J","29"
"","","approach-retreat","178","1581372","0.0-178.0","","","2-4","5806","37","0","Testing","Stims/Figures/118-J-0-2.bmp","ta:ka:ta","Left","39","2","6","1","P","J","30"
"","","approach-retreat","179","1587542","0.0-179.0","","","2-4","4657","38","0","Testing","Stims/Figures/71-C-30-1.bmp","nala:na","Down","40","2","7","1","S","J","31"
"","","approach-retreat","180","1593442","0.0-180.0","","","2-4","4397","38","1","Testing","Stims/Figures/102-J-10-4.bmp","ta:ka:ta","Down","38","2","8","1","P","J","32"
"","","approach-retreat","181","1599382","0.0-181.0","","","2-4","4434","39","0","Testing","Stims/Figures/71-J-0-1.bmp","ta:ka:ta","Right","37","2","9","1","P","J","33"
"","","approach-retreat","182","1605092","0.0-182.0","","","2-4","4192","38","0","Testing","Stims/Figures/93-C-30-1.bmp","nala:na","Down","40","2","10","1","S","J","34"
"","","approach-retreat","183","1611022","0.0-183.0","","","2-4","4423","40","0","Testing","Stims/Figures/139-C-20-2.bmp","nala:na","Up","38","2","11","1","S","J","35"
"","","approach-retreat","184","1617271","0.0-184.0","","","2-4","4731","40","1","Testing","Stims/Figures/57-J-0-1.bmp","ta:ka:ta","Up","40","2","12","1","P","J","36"
"","","approach-retreat","185","1622992","0.0-185.0","","","2-4","4203","37","1","Testing","Stims/Figures/7-C-20-4.bmp","nala:na","Left","37","2","13","1","S","J","37"
"","","approach-retreat","186","1629642","0.0-186.0","","","2-4","5127","39","0","Testing","Stims/Figures/87-C-20-4.bmp","nala:na","Left","37","2","14","1","S","J","38"
"","","approach-retreat","187","1635222","0.0-187.0","","","2-4","4067","39","1","Testing","Stims/Figures/57-C-30-1.bmp","nala:na","Right","39","2","15","1","S","J","39"
"","","approach-retreat","188","1640981","0.0-188.0","","","2-4","4255","39","0","Testing","Stims/Figures/128-J-10-3.bmp","ta:ka:ta","Right","37","2","16","1","P","J","40"
"","","approach-retreat","189","1646982","0.0-189.0","","","2-4","4496","40","1","Testing","Stims/Figures/87-J-10-4.bmp","ta:ka:ta","Up","40","2","17","1","P","J","41"
"","","approach-retreat","190","1652712","0.0-190.0","","","2-4","4224","38","1","Testing","Stims/Figures/84-J-0-2.bmp","ta:ka:ta","Down","38","2","18","1","P","J","42"
"","","approach-retreat","191","1658852","0.0-191.0","","","2-4","4631","40","0","Testing","Stims/Figures/118-C-20-2.bmp","nala:na","Up","38","2","19","1","S","J","43"
"","","approach-retreat","192","1664822","0.0-192.0","","","2-4","4459","38","0","Testing","Stims/Figures/102-C-20-4.bmp","nala:na","Down","40","2","20","1","S","J","44"
"","","approach-retreat","193","1673562","0.0-193.0","","","2-4","7219","39","0","Testing","Stims/Figures/44-J-10-3.bmp","ta:ka:ta","Right","37","2","21","1","P","J","45"
"","","approach-retreat","194","1680092","0.0-194.0","","","2-4","5021","37","0","Testing","Stims/Figures/128-C-30-3.bmp","nala:na","Right","39","2","22","1","S","J","46"
"","","approach-retreat","195","1686132","0.0-195.0","","","2-4","4527","39","0","Testing","Stims/Figures/144-J-10-3.bmp","ta:ka:ta","Right","37","2","23","1","P","J","47"
"","","approach-retreat","196","1692082","0.0-196.0","","","2-4","4432","40","1","Testing","Stims/Figures/93-J-0-1.bmp","ta:ka:ta","Up","40","2","24","1","P","J","48"
"","","approach-retreat","197","1699121","0.0-197.0","","","2-4","5527","37","0","Testing","Stims/Figures/84-C-20-2.bmp","nala:na","Right","39","3","1","1","S","J","49"
"","","approach-retreat","198","1707742","0.0-198.0","","","2-4","7110","40","0","Testing","Stims/Figures/57-C-30-1.bmp","nala:na","Up","38","3","2","1","S","J","50"
"","","approach-retreat","199","1715702","0.0-199.0","","","2-4","6441","38","1","Testing","Stims/Figures/71-J-0-1.bmp","ta:ka:ta","Down","38","3","3","1","P","J","51"
"","","approach-retreat","200","1721692","0.0-200.0","","","2-4","4486","39","0","Testing","Stims/Figures/7-C-20-4.bmp","nala:na","Left","37","3","4","1","S","J","52"
"","","approach-retreat","201","1728622","0.0-201.0","","","2-4","5413","37","1","Testing","Stims/Figures/84-J-0-2.bmp","ta:ka:ta","Right","37","3","5","1","P","J","53"
"","","approach-retreat","202","1734752","0.0-202.0","","","2-4","4608","38","0","Testing","Stims/Figures/118-C-20-2.bmp","nala:na","Down","40","3","6","1","S","J","54"
"","","approach-retreat","203","1740553","0.0-203.0","","","2-4","4285","37","1","Testing","Stims/Figures/128-C-30-3.bmp","nala:na","Left","37","3","7","1","S","J","55"
"","","approach-retreat","204","1746423","0.0-204.0","","","2-4","4363","37","1","Testing","Stims/Figures/44-C-30-3.bmp","nala:na","Left","37","3","8","1","S","J","56"
"","","approach-retreat","205","1755643","0.0-205.0","","","2-4","7704","38","1","Testing","Stims/Figures/71-C-30-1.bmp","nala:na","Up","38","3","9","1","S","J","57"
"","","approach-retreat","206","1762972","0.0-206.0","","","2-4","5827","38","1","Testing","Stims/Figures/102-J-10-4.bmp","ta:ka:ta","Down","38","3","10","1","P","J","58"
"","","approach-retreat","207","1770382","0.0-207.0","","","2-4","5900","40","0","Testing","Stims/Figures/93-C-30-1.bmp","nala:na","Up","38","3","11","1","S","J","59"
"","","approach-retreat","208","1777943","0.0-208.0","","","2-4","6057","40","1","Testing","Stims/Figures/128-J-10-3.bmp","ta:ka:ta","Up","40","3","12","1","P","J","60"
"","","approach-retreat","209","1784322","0.0-209.0","","","2-4","4865","40","0","Testing","Stims/Figures/139-J-0-2.bmp","ta:ka:ta","Down","38","3","13","1","P","J","61"
"","","approach-retreat","210","1791503","0.0-210.0","","","2-4","5660","37","0","Testing","Stims/Figures/102-C-20-4.bmp","nala:na","Right","39","3","14","1","S","J","62"
"","","approach-retreat","211","1797762","0.0-211.0","","","2-4","4753","37","0","Testing","Stims/Figures/93-J-0-1.bmp","ta:ka:ta","Left","39","3","15","1","P","J","63"
"","","approach-retreat","212","1803592","0.0-212.0","","","2-4","4321","39","0","Testing","Stims/Figures/44-J-10-3.bmp","ta:ka:ta","Right","37","3","16","1","P","J","64"
"","","approach-retreat","213","1811112","0.0-213.0","","","2-4","5999","39","0","Testing","Stims/Figures/87-J-10-4.bmp","ta:ka:ta","Right","37","3","17","1","P","J","65"
"","","approach-retreat","214","1820012","0.0-214.0","","","2-4","7385","38","0","Testing","Stims/Figures/144-C-30-3.bmp","nala:na","Down","40","3","18","1","S","J","66"
"","","approach-retreat","215","1827382","0.0-215.0","","","2-4","5851","37","0","Testing","Stims/Figures/7-J-10-4.bmp","ta:ka:ta","Left","39","3","19","1","P","J","67"
"","","approach-retreat","216","1833333","0.0-216.0","","","2-4","4446","37","0","Testing","Stims/Figures/57-J-0-1.bmp","ta:ka:ta","Left","39","3","20","1","P","J","68"
"","","approach-retreat","217","1839603","0.0-217.0","","","2-4","4749","40","1","Testing","Stims/Figures/118-J-0-2.bmp","ta:ka:ta","Up","40","3","21","1","P","J","69"
"","","approach-retreat","218","1846660","0.0-218.0","","","2-4","5554","38","1","Testing","Stims/Figures/144-J-10-3.bmp","ta:ka:ta","Down","38","3","22","1","P","J","70"
"","","approach-retreat","219","1852702","0.0-219.0","","","2-4","4531","37","0","Testing","Stims/Figures/87-C-20-4.bmp","nala:na","Right","39","3","23","1","S","J","71"
"","","approach-retreat","220","1859103","0.0-220.0","","","2-4","4896","38","1","Testing","Stims/Figures/139-C-20-2.bmp","nala:na","Up","38","3","24","1","S","J","72"
"","","approach-retreat","221","1866633","0.0-221.0","","","2-4","6023","38","1","Testing","Stims/Figures/7-J-10-4.bmp","ta:ka:ta","Down","38","4","1","1","P","J","73"
"","","approach-retreat","222","1872513","0.0-222.0","","","2-4","4366","37","1","Testing","Stims/Figures/144-C-30-3.bmp","nala:na","Left","37","4","2","1","S","J","74"
"","","approach-retreat","223","1881173","0.0-223.0","","","2-4","7158","37","1","Testing","Stims/Figures/144-J-10-3.bmp","ta:ka:ta","Right","37","4","3","1","P","J","75"
"","","approach-retreat","224","1888293","0.0-224.0","","","2-4","5610","38","0","Testing","Stims/Figures/57-C-30-1.bmp","nala:na","Down","40","4","4","1","S","J","76"
"","","approach-retreat","225","1895373","0.0-225.0","","","2-4","5560","37","1","Testing","Stims/Figures/71-J-0-1.bmp","ta:ka:ta","Right","37","4","5","1","P","J","77"
"","","approach-retreat","226","1901994","0.0-226.0","","","2-4","5113","37","1","Testing","Stims/Figures/102-C-20-4.bmp","nala:na","Left","37","4","6","1","S","J","78"
"","","approach-retreat","227","1908133","0.0-227.0","","","2-4","4629","38","0","Testing","Stims/Figures/44-J-10-3.bmp","ta:ka:ta","Up","40","4","7","1","P","J","79"
"","","approach-retreat","228","1915233","0.0-228.0","","","2-4","5595","37","1","Testing","Stims/Figures/84-C-20-2.bmp","nala:na","Left","37","4","8","1","S","J","80"
"","","approach-retreat","229","1921971","0.0-229.0","","","2-4","5222","37","1","Testing","Stims/Figures/139-J-0-2.bmp","ta:ka:ta","Right","37","4","9","1","P","J","81"
"","","approach-retreat","230","1928353","0.0-230.0","","","2-4","4873","37","0","Testing","Stims/Figures/7-C-20-4.bmp","nala:na","Right","39","4","10","1","S","J","82"
"","","approach-retreat","231","1935003","0.0-231.0","","","2-4","5147","38","1","Testing","Stims/Figures/118-C-20-2.bmp","nala:na","Up","38","4","11","1","S","J","83"
"","","approach-retreat","232","1941003","0.0-232.0","","","2-4","4482","37","0","Testing","Stims/Figures/87-J-10-4.bmp","ta:ka:ta","Left","39","4","12","1","P","J","84"
"","","approach-retreat","233","1948694","0.0-233.0","","","2-4","6177","38","0","Testing","Stims/Figures/128-J-10-3.bmp","ta:ka:ta","Up","40","4","13","1","P","J","85"
"","","approach-retreat","234","1954903","0.0-234.0","","","2-4","4693","38","1","Testing","Stims/Figures/93-C-30-1.bmp","nala:na","Up","38","4","14","1","S","J","86"
"","","approach-retreat","235","1961233","0.0-235.0","","","2-4","4812","37","1","Testing","Stims/Figures/87-C-20-4.bmp","nala:na","Left","37","4","15","1","S","J","87"
"","","approach-retreat","236","1968243","0.0-236.0","","","2-4","5491","38","1","Testing","Stims/Figures/102-J-10-4.bmp","ta:ka:ta","Down","38","4","16","1","P","J","88"
"","","approach-retreat","237","1974483","0.0-237.0","","","2-4","4732","38","0","Testing","Stims/Figures/93-J-0-1.bmp","ta:ka:ta","Up","40","4","17","1","P","J","89"
"","","approach-retreat","238","1980634","0.0-238.0","","","2-4","4636","38","0","Testing","Stims/Figures/128-C-30-3.bmp","nala:na","Down","40","4","18","1","S","J","90"
"","","approach-retreat","239","1986603","0.0-239.0","","","2-4","4465","38","1","Testing","Stims/Figures/71-C-30-1.bmp","nala:na","Up","38","4","19","1","S","J","91"
"","","approach-retreat","240","1994913","0.0-240.0","","","2-4","6791","38","1","Testing","Stims/Figures/118-J-0-2.bmp","ta:ka:ta","Down","38","4","20","1","P","J","92"
"","","approach-retreat","241","2002214","0.0-241.0","","","2-4","5795","37","1","Testing","Stims/Figures/44-C-30-3.bmp","nala:na","Left","37","4","21","1","S","J","93"
"","","approach-retreat","242","2009074","0.0-242.0","","","2-4","5341","37","1","Testing","Stims/Figures/84-J-0-2.bmp","ta:ka:ta","Right","37","4","22","1","P","J","94"
"","","approach-retreat","243","2015474","0.0-243.0","","","2-4","4878","37","0","Testing","Stims/Figures/139-C-20-2.bmp","nala:na","Right","39","4","23","1","S","J","95"
"","","approach-retreat","244","2021794","0.0-244.0","","","2-4","4804","38","1","Testing","Stims/Figures/57-J-0-1.bmp","ta:ka:ta","Down","38","4","24","1","P","J","96"
"206515","","survey-text","245","2228317","0.0-245.0","","{""Q0"":""104/2018""}","","","","","","","","","","","","","","",""
