\"rt\",\"key_press\",\"trial_type\",\"trial_index\",\"time_elapsed\",\"internal_node_id\",\"view_history\",\"responses\",\"Id\",\"Rt\",\"ResKeyCode\",\"ResCorr\",\"TrialType2\",\"Image\",\"Label\",\"Location\",\"CorrectResponse\",\"Block\",\"BlockTrial\",\"Condition\",\"LabelType\",\"Subcondition\",\"trialNum\"
\"9042\",\"32\",\"text\",\"0\",\"9046\",\"0.0-0.0-0.0\",\"\",\"\",\"\",\"\",\"\",\"\",\"\",\"\",\"\",\"\",\"\",\"\",\"\",\"\",\"\",\"\",\"\"
\"51837\",\"\",\"instructions\",\"1\",\"60885\",\"0.0-1.0\",\"[{\"\"page_index\"\":0,\"\"viewing_time\"\":51836}]\",\"\",\"\",\"\",\"\",\"\",\"\",\"\",\"\",\"\",\"\",\"\",\"\",\"\",\"\",\"\",\"\"
\"17894\",\"\",\"survey-multi-choice\",\"2\",\"78818\",\"0.0-2.0\",\"\",\"{\"\"Q0\"\":\"\"Da\"\",\"\"Q1\"\":\"\"Da\"\",\"\"Q2\"\":\"\"Da\"\",\"\"Q3\"\":\"\"Da\"\",\"\"Q4\"\":\"\"Da\"\",\"\"Q5\"\":\"\"Da\"\"}\",\"\",\"\",\"\",\"\",\"\",\"\",\"\",\"\",\"\",\"\",\"\",\"\",\"\",\"\",\"\"
\"\",\"\",\"bio\",\"3\",\"86917\",\"0.0-3.0\",\"\",\"{\"\"age\"\":\"\"20\"\",\"\"gender\"\":\"\"f\"\",\"\"specify\"\":\"\"\"\"}\",\"\",\"\",\"\",\"\",\"\",\"\",\"\",\"\",\"\",\"\",\"\",\"\",\"\",\"\",\"\"
\"\",\"\",\"approach-retreat\",\"4\",\"95125\",\"0.0-4.0\",\"\",\"\",\"2-1\",\"6646\",\"38\",\"0\",\"Training\",\"Stims/Figures/139-C-20-2.bmp\",\"tapa:ta\",\"Down\",\"40\",\"1\",\"1\",\"7\",\"P\",\"J\",\"1\"
\"\",\"\",\"approach-retreat\",\"5\",\"102408\",\"0.0-5.0\",\"\",\"\",\"2-1\",\"5773\",\"37\",\"0\",\"Training\",\"Stims/Figures/118-C-20-2.bmp\",\"pa:pa:ka\",\"Right\",\"39\",\"1\",\"2\",\"7\",\"P\",\"J\",\"2\"
\"\",\"\",\"approach-retreat\",\"6\",\"109079\",\"0.0-6.0\",\"\",\"\",\"2-1\",\"5166\",\"37\",\"1\",\"Training\",\"Stims/Figures/100-J-10-3.bmp\",\"mamana\",\"Right\",\"37\",\"1\",\"3\",\"7\",\"S\",\"J\",\"3\"
\"\",\"\",\"approach-retreat\",\"7\",\"114945\",\"0.0-7.0\",\"\",\"\",\"2-1\",\"4357\",\"39\",\"1\",\"Training\",\"Stims/Figures/7-J-10-4.bmp\",\"malala\",\"Left\",\"39\",\"1\",\"4\",\"7\",\"S\",\"J\",\"4\"
\"\",\"\",\"approach-retreat\",\"8\",\"120754\",\"0.0-8.0\",\"\",\"\",\"2-1\",\"4299\",\"38\",\"0\",\"Training\",\"Stims/Figures/86-C-30-1.bmp\",\"pa:pata\",\"Down\",\"40\",\"1\",\"5\",\"7\",\"P\",\"J\",\"5\"
\"\",\"\",\"approach-retreat\",\"9\",\"126576\",\"0.0-9.0\",\"\",\"\",\"2-1\",\"4316\",\"40\",\"1\",\"Training\",\"Stims/Figures/128-J-10-3.bmp\",\"na:mana\",\"Up\",\"40\",\"1\",\"6\",\"7\",\"S\",\"J\",\"6\"
\"\",\"\",\"approach-retreat\",\"10\",\"132306\",\"0.0-10.0\",\"\",\"\",\"2-1\",\"4222\",\"39\",\"0\",\"Training\",\"Stims/Figures/100-C-30-3.bmp\",\"na:mala\",\"Left\",\"37\",\"1\",\"7\",\"7\",\"S\",\"J\",\"7\"
\"\",\"\",\"approach-retreat\",\"11\",\"138363\",\"0.0-11.0\",\"\",\"\",\"2-1\",\"4550\",\"40\",\"0\",\"Training\",\"Stims/Figures/7-C-20-4.bmp\",\"ma:lana\",\"Up\",\"38\",\"1\",\"8\",\"7\",\"S\",\"J\",\"8\"
\"\",\"\",\"approach-retreat\",\"12\",\"147013\",\"0.0-12.0\",\"\",\"\",\"2-1\",\"7140\",\"40\",\"1\",\"Training\",\"Stims/Figures/86-J-0-1.bmp\",\"pa:kata\",\"Up\",\"40\",\"1\",\"9\",\"7\",\"P\",\"J\",\"9\"
\"\",\"\",\"approach-retreat\",\"13\",\"152787\",\"0.0-13.0\",\"\",\"\",\"2-1\",\"4268\",\"37\",\"1\",\"Training\",\"Stims/Figures/93-C-30-1.bmp\",\"pa:pa:ta\",\"Left\",\"37\",\"1\",\"10\",\"7\",\"P\",\"J\",\"10\"
\"\",\"\",\"approach-retreat\",\"14\",\"158439\",\"0.0-14.0\",\"\",\"\",\"2-1\",\"4146\",\"38\",\"1\",\"Training\",\"Stims/Figures/118-J-0-2.bmp\",\"ta:ka:ta\",\"Down\",\"38\",\"1\",\"11\",\"7\",\"P\",\"J\",\"11\"
\"\",\"\",\"approach-retreat\",\"15\",\"164407\",\"0.0-15.0\",\"\",\"\",\"2-1\",\"4460\",\"39\",\"1\",\"Training\",\"Stims/Figures/139-J-0-2.bmp\",\"paka:ta\",\"Left\",\"39\",\"1\",\"12\",\"7\",\"P\",\"J\",\"12\"
\"\",\"\",\"approach-retreat\",\"16\",\"170013\",\"0.0-16.0\",\"\",\"\",\"2-1\",\"4102\",\"39\",\"0\",\"Training\",\"Stims/Figures/74-J-10-4.bmp\",\"mala:la\",\"Right\",\"37\",\"1\",\"13\",\"7\",\"S\",\"J\",\"13\"
\"\",\"\",\"approach-retreat\",\"17\",\"175634\",\"0.0-17.0\",\"\",\"\",\"2-1\",\"4114\",\"38\",\"1\",\"Training\",\"Stims/Figures/93-J-0-1.bmp\",\"papa:ka\",\"Down\",\"38\",\"1\",\"14\",\"7\",\"P\",\"J\",\"14\"
\"\",\"\",\"approach-retreat\",\"18\",\"181747\",\"0.0-18.0\",\"\",\"\",\"2-1\",\"4606\",\"39\",\"1\",\"Training\",\"Stims/Figures/128-C-30-3.bmp\",\"mama:la\",\"Right\",\"39\",\"1\",\"15\",\"7\",\"S\",\"J\",\"15\"
\"\",\"\",\"approach-retreat\",\"19\",\"189300\",\"0.0-19.0\",\"\",\"\",\"2-1\",\"6044\",\"38\",\"1\",\"Training\",\"Stims/Figures/74-C-20-4.bmp\",\"ma:mala\",\"Up\",\"38\",\"1\",\"16\",\"7\",\"S\",\"J\",\"16\"
\"\",\"\",\"approach-retreat\",\"20\",\"195760\",\"0.0-20.0\",\"\",\"\",\"2-1\",\"4952\",\"37\",\"0\",\"Training\",\"Stims/Figures/100-J-10-3.bmp\",\"mamana\",\"Left\",\"39\",\"2\",\"1\",\"7\",\"S\",\"J\",\"17\"
\"\",\"\",\"approach-retreat\",\"21\",\"201488\",\"0.0-21.0\",\"\",\"\",\"2-1\",\"4225\",\"37\",\"0\",\"Training\",\"Stims/Figures/128-J-10-3.bmp\",\"na:mana\",\"Left\",\"39\",\"2\",\"2\",\"7\",\"S\",\"J\",\"18\"
\"\",\"\",\"approach-retreat\",\"22\",\"207280\",\"0.0-22.0\",\"\",\"\",\"2-1\",\"4286\",\"40\",\"1\",\"Training\",\"Stims/Figures/93-J-0-1.bmp\",\"papa:ka\",\"Up\",\"40\",\"2\",\"3\",\"7\",\"P\",\"J\",\"19\"
\"\",\"\",\"approach-retreat\",\"23\",\"213035\",\"0.0-23.0\",\"\",\"\",\"2-1\",\"4250\",\"38\",\"1\",\"Training\",\"Stims/Figures/118-J-0-2.bmp\",\"ta:ka:ta\",\"Down\",\"38\",\"2\",\"4\",\"7\",\"P\",\"J\",\"20\"
\"\",\"\",\"approach-retreat\",\"24\",\"220922\",\"0.0-24.0\",\"\",\"\",\"2-1\",\"6380\",\"40\",\"1\",\"Training\",\"Stims/Figures/74-C-20-4.bmp\",\"ma:mala\",\"Down\",\"40\",\"2\",\"5\",\"7\",\"S\",\"J\",\"21\"
\"\",\"\",\"approach-retreat\",\"25\",\"227472\",\"0.0-25.0\",\"\",\"\",\"2-1\",\"5042\",\"39\",\"1\",\"Training\",\"Stims/Figures/128-C-30-3.bmp\",\"mama:la\",\"Right\",\"39\",\"2\",\"6\",\"7\",\"S\",\"J\",\"22\"
\"\",\"\",\"approach-retreat\",\"26\",\"233216\",\"0.0-26.0\",\"\",\"\",\"2-1\",\"4236\",\"39\",\"1\",\"Training\",\"Stims/Figures/100-C-30-3.bmp\",\"na:mala\",\"Right\",\"39\",\"2\",\"7\",\"7\",\"S\",\"J\",\"23\"
\"\",\"\",\"approach-retreat\",\"27\",\"238886\",\"0.0-27.0\",\"\",\"\",\"2-1\",\"4162\",\"39\",\"1\",\"Training\",\"Stims/Figures/93-C-30-1.bmp\",\"pa:pa:ta\",\"Right\",\"39\",\"2\",\"8\",\"7\",\"P\",\"J\",\"24\"
\"\",\"\",\"approach-retreat\",\"28\",\"244721\",\"0.0-28.0\",\"\",\"\",\"2-1\",\"4326\",\"40\",\"1\",\"Training\",\"Stims/Figures/86-C-30-1.bmp\",\"pa:pata\",\"Down\",\"40\",\"2\",\"9\",\"7\",\"P\",\"J\",\"25\"
\"\",\"\",\"approach-retreat\",\"29\",\"250516\",\"0.0-29.0\",\"\",\"\",\"2-1\",\"4292\",\"38\",\"0\",\"Training\",\"Stims/Figures/7-J-10-4.bmp\",\"malala\",\"Up\",\"40\",\"2\",\"10\",\"7\",\"S\",\"J\",\"26\"
\"\",\"\",\"approach-retreat\",\"30\",\"256601\",\"0.0-30.0\",\"\",\"\",\"2-1\",\"4577\",\"38\",\"1\",\"Training\",\"Stims/Figures/118-C-20-2.bmp\",\"pa:pa:ka\",\"Up\",\"38\",\"2\",\"11\",\"7\",\"P\",\"J\",\"27\"
\"\",\"\",\"approach-retreat\",\"31\",\"262265\",\"0.0-31.0\",\"\",\"\",\"2-1\",\"4156\",\"39\",\"1\",\"Training\",\"Stims/Figures/74-J-10-4.bmp\",\"mala:la\",\"Left\",\"39\",\"2\",\"12\",\"7\",\"S\",\"J\",\"28\"
\"\",\"\",\"approach-retreat\",\"32\",\"268119\",\"0.0-32.0\",\"\",\"\",\"2-1\",\"4345\",\"37\",\"1\",\"Training\",\"Stims/Figures/139-C-20-2.bmp\",\"tapa:ta\",\"Left\",\"37\",\"2\",\"13\",\"7\",\"P\",\"J\",\"29\"
\"\",\"\",\"approach-retreat\",\"33\",\"274021\",\"0.0-33.0\",\"\",\"\",\"2-1\",\"4395\",\"40\",\"1\",\"Training\",\"Stims/Figures/86-J-0-1.bmp\",\"pa:kata\",\"Up\",\"40\",\"2\",\"14\",\"7\",\"P\",\"J\",\"30\"
\"\",\"\",\"approach-retreat\",\"34\",\"279770\",\"0.0-34.0\",\"\",\"\",\"2-1\",\"4245\",\"38\",\"1\",\"Training\",\"Stims/Figures/139-J-0-2.bmp\",\"paka:ta\",\"Down\",\"38\",\"2\",\"15\",\"7\",\"P\",\"J\",\"31\"
\"\",\"\",\"approach-retreat\",\"35\",\"285536\",\"0.0-35.0\",\"\",\"\",\"2-1\",\"4257\",\"39\",\"1\",\"Training\",\"Stims/Figures/7-C-20-4.bmp\",\"ma:lana\",\"Right\",\"39\",\"2\",\"16\",\"7\",\"S\",\"J\",\"32\"
\"\",\"\",\"approach-retreat\",\"36\",\"292704\",\"0.0-36.0\",\"\",\"\",\"2-1\",\"5661\",\"38\",\"1\",\"Training\",\"Stims/Figures/7-C-20-4.bmp\",\"ma:lana\",\"Up\",\"38\",\"3\",\"1\",\"7\",\"S\",\"J\",\"33\"
\"\",\"\",\"approach-retreat\",\"37\",\"299137\",\"0.0-37.0\",\"\",\"\",\"2-1\",\"4926\",\"40\",\"1\",\"Training\",\"Stims/Figures/74-C-20-4.bmp\",\"ma:mala\",\"Down\",\"40\",\"3\",\"2\",\"7\",\"S\",\"J\",\"34\"
\"\",\"\",\"approach-retreat\",\"38\",\"309897\",\"0.0-38.0\",\"\",\"\",\"2-1\",\"9252\",\"40\",\"1\",\"Training\",\"Stims/Figures/93-J-0-1.bmp\",\"papa:ka\",\"Up\",\"40\",\"3\",\"3\",\"7\",\"P\",\"J\",\"35\"
\"\",\"\",\"approach-retreat\",\"39\",\"327070\",\"0.0-39.0\",\"\",\"\",\"2-1\",\"15664\",\"39\",\"1\",\"Training\",\"Stims/Figures/86-C-30-1.bmp\",\"pa:pata\",\"Right\",\"39\",\"3\",\"4\",\"7\",\"P\",\"J\",\"36\"
\"\",\"\",\"approach-retreat\",\"40\",\"335079\",\"0.0-40.0\",\"\",\"\",\"2-1\",\"6503\",\"37\",\"0\",\"Training\",\"Stims/Figures/128-J-10-3.bmp\",\"na:mana\",\"Left\",\"39\",\"3\",\"5\",\"7\",\"S\",\"J\",\"37\"
\"\",\"\",\"approach-retreat\",\"41\",\"341890\",\"0.0-41.0\",\"\",\"\",\"2-1\",\"5303\",\"38\",\"1\",\"Training\",\"Stims/Figures/93-C-30-1.bmp\",\"pa:pa:ta\",\"Up\",\"38\",\"3\",\"6\",\"7\",\"P\",\"J\",\"38\"
\"\",\"\",\"approach-retreat\",\"42\",\"348561\",\"0.0-42.0\",\"\",\"\",\"2-1\",\"5163\",\"37\",\"0\",\"Training\",\"Stims/Figures/100-J-10-3.bmp\",\"mamana\",\"Left\",\"39\",\"3\",\"7\",\"7\",\"S\",\"J\",\"39\"
\"\",\"\",\"approach-retreat\",\"43\",\"355461\",\"0.0-43.0\",\"\",\"\",\"2-1\",\"5391\",\"39\",\"1\",\"Training\",\"Stims/Figures/118-C-20-2.bmp\",\"pa:pa:ka\",\"Right\",\"39\",\"3\",\"8\",\"7\",\"P\",\"J\",\"40\"
\"\",\"\",\"approach-retreat\",\"44\",\"361805\",\"0.0-44.0\",\"\",\"\",\"2-1\",\"4836\",\"38\",\"1\",\"Training\",\"Stims/Figures/139-J-0-2.bmp\",\"paka:ta\",\"Down\",\"38\",\"3\",\"9\",\"7\",\"P\",\"J\",\"41\"
\"\",\"\",\"approach-retreat\",\"45\",\"367761\",\"0.0-45.0\",\"\",\"\",\"2-1\",\"4451\",\"39\",\"1\",\"Training\",\"Stims/Figures/86-J-0-1.bmp\",\"pa:kata\",\"Left\",\"39\",\"3\",\"10\",\"7\",\"P\",\"J\",\"42\"
\"\",\"\",\"approach-retreat\",\"46\",\"376289\",\"0.0-46.0\",\"\",\"\",\"2-1\",\"7020\",\"40\",\"1\",\"Training\",\"Stims/Figures/139-C-20-2.bmp\",\"tapa:ta\",\"Down\",\"40\",\"3\",\"11\",\"7\",\"P\",\"J\",\"43\"
\"\",\"\",\"approach-retreat\",\"47\",\"387788\",\"0.0-47.0\",\"\",\"\",\"2-1\",\"9990\",\"38\",\"1\",\"Training\",\"Stims/Figures/128-C-30-3.bmp\",\"mama:la\",\"Up\",\"38\",\"3\",\"12\",\"7\",\"S\",\"J\",\"44\"
\"\",\"\",\"approach-retreat\",\"48\",\"394282\",\"0.0-48.0\",\"\",\"\",\"2-1\",\"4985\",\"37\",\"1\",\"Training\",\"Stims/Figures/118-J-0-2.bmp\",\"ta:ka:ta\",\"Right\",\"37\",\"3\",\"13\",\"7\",\"P\",\"J\",\"45\"
\"\",\"\",\"approach-retreat\",\"49\",\"401306\",\"0.0-49.0\",\"\",\"\",\"2-1\",\"5515\",\"40\",\"1\",\"Training\",\"Stims/Figures/100-C-30-3.bmp\",\"na:mala\",\"Down\",\"40\",\"3\",\"14\",\"7\",\"S\",\"J\",\"46\"
\"\",\"\",\"approach-retreat\",\"50\",\"407111\",\"0.0-50.0\",\"\",\"\",\"2-1\",\"4297\",\"37\",\"1\",\"Training\",\"Stims/Figures/74-J-10-4.bmp\",\"mala:la\",\"Right\",\"37\",\"3\",\"15\",\"7\",\"S\",\"J\",\"47\"
\"\",\"\",\"approach-retreat\",\"51\",\"412877\",\"0.0-51.0\",\"\",\"\",\"2-1\",\"4260\",\"39\",\"1\",\"Training\",\"Stims/Figures/7-J-10-4.bmp\",\"malala\",\"Left\",\"39\",\"3\",\"16\",\"7\",\"S\",\"J\",\"48\"
\"\",\"\",\"approach-retreat\",\"52\",\"418972\",\"0.0-52.0\",\"\",\"\",\"2-1\",\"4587\",\"38\",\"1\",\"Training\",\"Stims/Figures/100-C-30-3.bmp\",\"na:mala\",\"Up\",\"38\",\"4\",\"1\",\"7\",\"S\",\"J\",\"49\"
\"\",\"\",\"approach-retreat\",\"53\",\"425160\",\"0.0-53.0\",\"\",\"\",\"2-1\",\"4684\",\"40\",\"1\",\"Training\",\"Stims/Figures/118-C-20-2.bmp\",\"pa:pa:ka\",\"Down\",\"40\",\"4\",\"2\",\"7\",\"P\",\"J\",\"50\"
\"\",\"\",\"approach-retreat\",\"54\",\"431867\",\"0.0-54.0\",\"\",\"\",\"2-1\",\"5197\",\"38\",\"1\",\"Training\",\"Stims/Figures/86-C-30-1.bmp\",\"pa:pata\",\"Up\",\"38\",\"4\",\"3\",\"7\",\"P\",\"J\",\"51\"
\"\",\"\",\"approach-retreat\",\"55\",\"437640\",\"0.0-55.0\",\"\",\"\",\"2-1\",\"4264\",\"37\",\"1\",\"Training\",\"Stims/Figures/139-J-0-2.bmp\",\"paka:ta\",\"Right\",\"37\",\"4\",\"4\",\"7\",\"P\",\"J\",\"52\"
\"\",\"\",\"approach-retreat\",\"56\",\"444801\",\"0.0-56.0\",\"\",\"\",\"2-1\",\"5654\",\"39\",\"1\",\"Training\",\"Stims/Figures/93-C-30-1.bmp\",\"pa:pa:ta\",\"Right\",\"39\",\"4\",\"5\",\"7\",\"P\",\"J\",\"53\"
\"\",\"\",\"approach-retreat\",\"57\",\"450486\",\"0.0-57.0\",\"\",\"\",\"2-1\",\"4176\",\"40\",\"1\",\"Training\",\"Stims/Figures/128-J-10-3.bmp\",\"na:mana\",\"Up\",\"40\",\"4\",\"6\",\"7\",\"S\",\"J\",\"54\"
\"\",\"\",\"approach-retreat\",\"58\",\"456111\",\"0.0-58.0\",\"\",\"\",\"2-1\",\"4117\",\"38\",\"1\",\"Training\",\"Stims/Figures/118-J-0-2.bmp\",\"ta:ka:ta\",\"Down\",\"38\",\"4\",\"7\",\"7\",\"P\",\"J\",\"55\"
\"\",\"\",\"approach-retreat\",\"59\",\"462254\",\"0.0-59.0\",\"\",\"\",\"2-1\",\"4634\",\"37\",\"1\",\"Training\",\"Stims/Figures/7-C-20-4.bmp\",\"ma:lana\",\"Left\",\"37\",\"4\",\"8\",\"7\",\"S\",\"J\",\"56\"
\"\",\"\",\"approach-retreat\",\"60\",\"468001\",\"0.0-60.0\",\"\",\"\",\"2-1\",\"4240\",\"39\",\"1\",\"Training\",\"Stims/Figures/139-C-20-2.bmp\",\"tapa:ta\",\"Right\",\"39\",\"4\",\"9\",\"7\",\"P\",\"J\",\"57\"
\"\",\"\",\"approach-retreat\",\"61\",\"473745\",\"0.0-61.0\",\"\",\"\",\"2-1\",\"4237\",\"40\",\"0\",\"Training\",\"Stims/Figures/100-J-10-3.bmp\",\"mamana\",\"Down\",\"38\",\"4\",\"10\",\"7\",\"S\",\"J\",\"58\"
\"\",\"\",\"approach-retreat\",\"62\",\"479401\",\"0.0-62.0\",\"\",\"\",\"2-1\",\"4149\",\"37\",\"1\",\"Training\",\"Stims/Figures/128-C-30-3.bmp\",\"mama:la\",\"Left\",\"37\",\"4\",\"11\",\"7\",\"S\",\"J\",\"59\"
\"\",\"\",\"approach-retreat\",\"63\",\"485905\",\"0.0-63.0\",\"\",\"\",\"2-1\",\"4998\",\"40\",\"0\",\"Training\",\"Stims/Figures/7-J-10-4.bmp\",\"malala\",\"Down\",\"38\",\"4\",\"12\",\"7\",\"S\",\"J\",\"60\"
\"\",\"\",\"approach-retreat\",\"64\",\"492002\",\"0.0-64.0\",\"\",\"\",\"2-1\",\"4589\",\"37\",\"1\",\"Training\",\"Stims/Figures/74-C-20-4.bmp\",\"ma:mala\",\"Left\",\"37\",\"4\",\"13\",\"7\",\"S\",\"J\",\"61\"
\"\",\"\",\"approach-retreat\",\"65\",\"498500\",\"0.0-65.0\",\"\",\"\",\"2-1\",\"4993\",\"39\",\"0\",\"Training\",\"Stims/Figures/74-J-10-4.bmp\",\"mala:la\",\"Right\",\"37\",\"4\",\"14\",\"7\",\"S\",\"J\",\"62\"
\"\",\"\",\"approach-retreat\",\"66\",\"504520\",\"0.0-66.0\",\"\",\"\",\"2-1\",\"4511\",\"40\",\"1\",\"Training\",\"Stims/Figures/93-J-0-1.bmp\",\"papa:ka\",\"Up\",\"40\",\"4\",\"15\",\"7\",\"P\",\"J\",\"63\"
\"\",\"\",\"approach-retreat\",\"67\",\"510346\",\"0.0-67.0\",\"\",\"\",\"2-1\",\"4320\",\"39\",\"1\",\"Training\",\"Stims/Figures/86-J-0-1.bmp\",\"pa:kata\",\"Left\",\"39\",\"4\",\"16\",\"7\",\"P\",\"J\",\"64\"
\"\",\"\",\"approach-retreat\",\"68\",\"516166\",\"0.0-68.0\",\"\",\"\",\"2-1\",\"4311\",\"39\",\"1\",\"Training\",\"Stims/Figures/100-C-30-3.bmp\",\"na:mala\",\"Right\",\"39\",\"5\",\"1\",\"7\",\"S\",\"J\",\"65\"
\"\",\"\",\"approach-retreat\",\"69\",\"521811\",\"0.0-69.0\",\"\",\"\",\"2-1\",\"4136\",\"40\",\"1\",\"Training\",\"Stims/Figures/74-C-20-4.bmp\",\"ma:mala\",\"Down\",\"40\",\"5\",\"2\",\"7\",\"S\",\"J\",\"66\"
\"\",\"\",\"approach-retreat\",\"70\",\"528245\",\"0.0-70.0\",\"\",\"\",\"2-1\",\"4927\",\"38\",\"0\",\"Training\",\"Stims/Figures/100-J-10-3.bmp\",\"mamana\",\"Up\",\"40\",\"5\",\"3\",\"7\",\"S\",\"J\",\"67\"
\"\",\"\",\"approach-retreat\",\"71\",\"533795\",\"0.0-71.0\",\"\",\"\",\"2-1\",\"4040\",\"39\",\"1\",\"Training\",\"Stims/Figures/74-J-10-4.bmp\",\"mala:la\",\"Left\",\"39\",\"5\",\"4\",\"7\",\"S\",\"J\",\"68\"
\"\",\"\",\"approach-retreat\",\"72\",\"539502\",\"0.0-72.0\",\"\",\"\",\"2-1\",\"4199\",\"38\",\"1\",\"Training\",\"Stims/Figures/128-J-10-3.bmp\",\"na:mana\",\"Down\",\"38\",\"5\",\"5\",\"7\",\"S\",\"J\",\"69\"
\"\",\"\",\"approach-retreat\",\"73\",\"546749\",\"0.0-73.0\",\"\",\"\",\"2-1\",\"5738\",\"37\",\"1\",\"Training\",\"Stims/Figures/118-C-20-2.bmp\",\"pa:pa:ka\",\"Left\",\"37\",\"5\",\"6\",\"7\",\"P\",\"J\",\"70\"
\"\",\"\",\"approach-retreat\",\"74\",\"553271\",\"0.0-74.0\",\"\",\"\",\"2-1\",\"5014\",\"37\",\"1\",\"Training\",\"Stims/Figures/7-C-20-4.bmp\",\"ma:lana\",\"Left\",\"37\",\"5\",\"7\",\"7\",\"S\",\"J\",\"71\"
\"\",\"\",\"approach-retreat\",\"75\",\"559809\",\"0.0-75.0\",\"\",\"\",\"2-1\",\"5029\",\"39\",\"1\",\"Training\",\"Stims/Figures/93-C-30-1.bmp\",\"pa:pa:ta\",\"Right\",\"39\",\"5\",\"8\",\"7\",\"P\",\"J\",\"72\"
\"\",\"\",\"approach-retreat\",\"76\",\"565780\",\"0.0-76.0\",\"\",\"\",\"2-1\",\"4466\",\"40\",\"0\",\"Training\",\"Stims/Figures/86-J-0-1.bmp\",\"pa:kata\",\"Down\",\"38\",\"5\",\"9\",\"7\",\"P\",\"J\",\"73\"
\"\",\"\",\"approach-retreat\",\"77\",\"572102\",\"0.0-77.0\",\"\",\"\",\"2-1\",\"4815\",\"37\",\"0\",\"Training\",\"Stims/Figures/7-J-10-4.bmp\",\"malala\",\"Left\",\"39\",\"5\",\"10\",\"7\",\"S\",\"J\",\"74\"
\"\",\"\",\"approach-retreat\",\"78\",\"577789\",\"0.0-78.0\",\"\",\"\",\"2-1\",\"4180\",\"40\",\"1\",\"Training\",\"Stims/Figures/139-J-0-2.bmp\",\"paka:ta\",\"Up\",\"40\",\"5\",\"11\",\"7\",\"P\",\"J\",\"75\"
\"\",\"\",\"approach-retreat\",\"79\",\"583602\",\"0.0-79.0\",\"\",\"\",\"2-1\",\"4308\",\"39\",\"1\",\"Training\",\"Stims/Figures/128-C-30-3.bmp\",\"mama:la\",\"Right\",\"39\",\"5\",\"12\",\"7\",\"S\",\"J\",\"76\"
\"\",\"\",\"approach-retreat\",\"80\",\"589504\",\"0.0-80.0\",\"\",\"\",\"2-1\",\"4396\",\"38\",\"1\",\"Training\",\"Stims/Figures/118-J-0-2.bmp\",\"ta:ka:ta\",\"Down\",\"38\",\"5\",\"13\",\"7\",\"P\",\"J\",\"77\"
\"\",\"\",\"approach-retreat\",\"81\",\"595358\",\"0.0-81.0\",\"\",\"\",\"2-1\",\"4347\",\"40\",\"1\",\"Training\",\"Stims/Figures/93-J-0-1.bmp\",\"papa:ka\",\"Up\",\"40\",\"5\",\"14\",\"7\",\"P\",\"J\",\"78\"
\"\",\"\",\"approach-retreat\",\"82\",\"601318\",\"0.0-82.0\",\"\",\"\",\"2-1\",\"4452\",\"39\",\"1\",\"Training\",\"Stims/Figures/139-C-20-2.bmp\",\"tapa:ta\",\"Right\",\"39\",\"5\",\"15\",\"7\",\"P\",\"J\",\"79\"
\"\",\"\",\"approach-retreat\",\"83\",\"607288\",\"0.0-83.0\",\"\",\"\",\"2-1\",\"4465\",\"38\",\"1\",\"Training\",\"Stims/Figures/86-C-30-1.bmp\",\"pa:pata\",\"Up\",\"38\",\"5\",\"16\",\"7\",\"P\",\"J\",\"80\"
\"\",\"\",\"approach-retreat\",\"84\",\"613046\",\"0.0-84.0\",\"\",\"\",\"2-1\",\"4253\",\"39\",\"1\",\"Training\",\"Stims/Figures/118-J-0-2.bmp\",\"ta:ka:ta\",\"Left\",\"39\",\"6\",\"1\",\"7\",\"P\",\"J\",\"81\"
\"\",\"\",\"approach-retreat\",\"85\",\"618797\",\"0.0-85.0\",\"\",\"\",\"2-1\",\"4247\",\"39\",\"1\",\"Training\",\"Stims/Figures/93-J-0-1.bmp\",\"papa:ka\",\"Left\",\"39\",\"6\",\"2\",\"7\",\"P\",\"J\",\"82\"
\"\",\"\",\"approach-retreat\",\"86\",\"624514\",\"0.0-86.0\",\"\",\"\",\"2-1\",\"4211\",\"38\",\"1\",\"Training\",\"Stims/Figures/128-J-10-3.bmp\",\"na:mana\",\"Down\",\"38\",\"6\",\"3\",\"7\",\"S\",\"J\",\"83\"
\"\",\"\",\"approach-retreat\",\"87\",\"630215\",\"0.0-87.0\",\"\",\"\",\"2-1\",\"4196\",\"40\",\"1\",\"Training\",\"Stims/Figures/139-J-0-2.bmp\",\"paka:ta\",\"Up\",\"40\",\"6\",\"4\",\"7\",\"P\",\"J\",\"84\"
\"\",\"\",\"approach-retreat\",\"88\",\"636282\",\"0.0-88.0\",\"\",\"\",\"2-1\",\"4562\",\"40\",\"1\",\"Training\",\"Stims/Figures/118-C-20-2.bmp\",\"pa:pa:ka\",\"Down\",\"40\",\"6\",\"5\",\"7\",\"P\",\"J\",\"85\"
\"\",\"\",\"approach-retreat\",\"89\",\"644498\",\"0.0-89.0\",\"\",\"\",\"2-1\",\"6707\",\"38\",\"0\",\"Training\",\"Stims/Figures/100-J-10-3.bmp\",\"mamana\",\"Up\",\"40\",\"6\",\"6\",\"7\",\"S\",\"J\",\"86\"
\"\",\"\",\"approach-retreat\",\"90\",\"651378\",\"0.0-90.0\",\"\",\"\",\"2-1\",\"5372\",\"39\",\"1\",\"Training\",\"Stims/Figures/86-C-30-1.bmp\",\"pa:pata\",\"Right\",\"39\",\"6\",\"7\",\"7\",\"P\",\"J\",\"87\"
\"\",\"\",\"approach-retreat\",\"91\",\"657291\",\"0.0-91.0\",\"\",\"\",\"2-1\",\"4404\",\"37\",\"1\",\"Training\",\"Stims/Figures/7-C-20-4.bmp\",\"ma:lana\",\"Left\",\"37\",\"6\",\"8\",\"7\",\"S\",\"J\",\"88\"
\"\",\"\",\"approach-retreat\",\"92\",\"662947\",\"0.0-92.0\",\"\",\"\",\"2-1\",\"4148\",\"39\",\"0\",\"Training\",\"Stims/Figures/7-J-10-4.bmp\",\"malala\",\"Right\",\"37\",\"6\",\"9\",\"7\",\"S\",\"J\",\"89\"
\"\",\"\",\"approach-retreat\",\"93\",\"669259\",\"0.0-93.0\",\"\",\"\",\"2-1\",\"4803\",\"40\",\"1\",\"Training\",\"Stims/Figures/74-C-20-4.bmp\",\"ma:mala\",\"Down\",\"40\",\"6\",\"10\",\"7\",\"S\",\"J\",\"90\"
\"\",\"\",\"approach-retreat\",\"94\",\"675035\",\"0.0-94.0\",\"\",\"\",\"2-1\",\"4269\",\"38\",\"1\",\"Training\",\"Stims/Figures/86-J-0-1.bmp\",\"pa:kata\",\"Down\",\"38\",\"6\",\"11\",\"7\",\"P\",\"J\",\"91\"
\"\",\"\",\"approach-retreat\",\"95\",\"680719\",\"0.0-95.0\",\"\",\"\",\"2-1\",\"4176\",\"39\",\"1\",\"Training\",\"Stims/Figures/93-C-30-1.bmp\",\"pa:pa:ta\",\"Right\",\"39\",\"6\",\"12\",\"7\",\"P\",\"J\",\"92\"
\"\",\"\",\"approach-retreat\",\"96\",\"686604\",\"0.0-96.0\",\"\",\"\",\"2-1\",\"4376\",\"38\",\"1\",\"Training\",\"Stims/Figures/128-C-30-3.bmp\",\"mama:la\",\"Up\",\"38\",\"6\",\"13\",\"7\",\"S\",\"J\",\"93\"
\"\",\"\",\"approach-retreat\",\"97\",\"692328\",\"0.0-97.0\",\"\",\"\",\"2-1\",\"4217\",\"39\",\"0\",\"Training\",\"Stims/Figures/74-J-10-4.bmp\",\"mala:la\",\"Right\",\"37\",\"6\",\"14\",\"7\",\"S\",\"J\",\"94\"
\"\",\"\",\"approach-retreat\",\"98\",\"698037\",\"0.0-98.0\",\"\",\"\",\"2-1\",\"4200\",\"37\",\"1\",\"Training\",\"Stims/Figures/139-C-20-2.bmp\",\"tapa:ta\",\"Left\",\"37\",\"6\",\"15\",\"7\",\"P\",\"J\",\"95\"
\"\",\"\",\"approach-retreat\",\"99\",\"704832\",\"0.0-99.0\",\"\",\"\",\"2-1\",\"5286\",\"38\",\"1\",\"Training\",\"Stims/Figures/100-C-30-3.bmp\",\"na:mala\",\"Up\",\"38\",\"6\",\"16\",\"7\",\"S\",\"J\",\"96\"
\"\",\"\",\"approach-retreat\",\"100\",\"710565\",\"0.0-100.0\",\"\",\"\",\"2-1\",\"4225\",\"38\",\"1\",\"Training\",\"Stims/Figures/93-J-0-1.bmp\",\"papa:ka\",\"Down\",\"38\",\"7\",\"1\",\"7\",\"P\",\"J\",\"97\"
\"\",\"\",\"approach-retreat\",\"101\",\"716194\",\"0.0-101.0\",\"\",\"\",\"2-1\",\"4121\",\"39\",\"1\",\"Training\",\"Stims/Figures/118-J-0-2.bmp\",\"ta:ka:ta\",\"Left\",\"39\",\"7\",\"2\",\"7\",\"P\",\"J\",\"98\"
\"\",\"\",\"approach-retreat\",\"102\",\"721983\",\"0.0-102.0\",\"\",\"\",\"2-1\",\"4281\",\"37\",\"1\",\"Training\",\"Stims/Figures/86-C-30-1.bmp\",\"pa:pata\",\"Left\",\"37\",\"7\",\"3\",\"7\",\"P\",\"J\",\"99\"
\"\",\"\",\"approach-retreat\",\"103\",\"727647\",\"0.0-103.0\",\"\",\"\",\"2-1\",\"4155\",\"37\",\"1\",\"Training\",\"Stims/Figures/128-J-10-3.bmp\",\"na:mana\",\"Right\",\"37\",\"7\",\"4\",\"7\",\"S\",\"J\",\"100\"
\"\",\"\",\"approach-retreat\",\"104\",\"733343\",\"0.0-104.0\",\"\",\"\",\"2-1\",\"4187\",\"38\",\"1\",\"Training\",\"Stims/Figures/7-J-10-4.bmp\",\"malala\",\"Down\",\"38\",\"7\",\"5\",\"7\",\"S\",\"J\",\"101\"
\"\",\"\",\"approach-retreat\",\"105\",\"739100\",\"0.0-105.0\",\"\",\"\",\"2-1\",\"4249\",\"38\",\"1\",\"Training\",\"Stims/Figures/128-C-30-3.bmp\",\"mama:la\",\"Up\",\"38\",\"7\",\"6\",\"7\",\"S\",\"J\",\"102\"
\"\",\"\",\"approach-retreat\",\"106\",\"744755\",\"0.0-106.0\",\"\",\"\",\"2-1\",\"4148\",\"37\",\"1\",\"Training\",\"Stims/Figures/100-J-10-3.bmp\",\"mamana\",\"Right\",\"37\",\"7\",\"7\",\"7\",\"S\",\"J\",\"103\"
\"\",\"\",\"approach-retreat\",\"107\",\"751685\",\"0.0-107.0\",\"\",\"\",\"2-1\",\"5421\",\"39\",\"1\",\"Training\",\"Stims/Figures/118-C-20-2.bmp\",\"pa:pa:ka\",\"Right\",\"39\",\"7\",\"8\",\"7\",\"P\",\"J\",\"104\"
\"\",\"\",\"approach-retreat\",\"108\",\"757442\",\"0.0-108.0\",\"\",\"\",\"2-1\",\"4248\",\"37\",\"1\",\"Training\",\"Stims/Figures/100-C-30-3.bmp\",\"na:mala\",\"Left\",\"37\",\"7\",\"9\",\"7\",\"S\",\"J\",\"105\"
\"\",\"\",\"approach-retreat\",\"109\",\"763283\",\"0.0-109.0\",\"\",\"\",\"2-1\",\"4333\",\"38\",\"1\",\"Training\",\"Stims/Figures/139-C-20-2.bmp\",\"tapa:ta\",\"Up\",\"38\",\"7\",\"10\",\"7\",\"P\",\"J\",\"106\"
\"\",\"\",\"approach-retreat\",\"110\",\"768925\",\"0.0-110.0\",\"\",\"\",\"2-1\",\"4134\",\"37\",\"1\",\"Training\",\"Stims/Figures/139-J-0-2.bmp\",\"paka:ta\",\"Right\",\"37\",\"7\",\"11\",\"7\",\"P\",\"J\",\"107\"
\"\",\"\",\"approach-retreat\",\"111\",\"775206\",\"0.0-111.0\",\"\",\"\",\"2-1\",\"4774\",\"39\",\"1\",\"Training\",\"Stims/Figures/86-J-0-1.bmp\",\"pa:kata\",\"Left\",\"39\",\"7\",\"12\",\"7\",\"P\",\"J\",\"108\"
\"\",\"\",\"approach-retreat\",\"112\",\"780811\",\"0.0-112.0\",\"\",\"\",\"2-1\",\"4095\",\"40\",\"1\",\"Training\",\"Stims/Figures/74-C-20-4.bmp\",\"ma:mala\",\"Down\",\"40\",\"7\",\"13\",\"7\",\"S\",\"J\",\"109\"
\"\",\"\",\"approach-retreat\",\"113\",\"787150\",\"0.0-113.0\",\"\",\"\",\"2-1\",\"4831\",\"38\",\"1\",\"Training\",\"Stims/Figures/93-C-30-1.bmp\",\"pa:pa:ta\",\"Up\",\"38\",\"7\",\"14\",\"7\",\"P\",\"J\",\"110\"
\"\",\"\",\"approach-retreat\",\"114\",\"793016\",\"0.0-114.0\",\"\",\"\",\"2-1\",\"4358\",\"38\",\"1\",\"Training\",\"Stims/Figures/7-C-20-4.bmp\",\"ma:lana\",\"Up\",\"38\",\"7\",\"15\",\"7\",\"S\",\"J\",\"111\"
\"\",\"\",\"approach-retreat\",\"115\",\"798694\",\"0.0-115.0\",\"\",\"\",\"2-1\",\"4168\",\"40\",\"0\",\"Training\",\"Stims/Figures/74-J-10-4.bmp\",\"mala:la\",\"Down\",\"38\",\"7\",\"16\",\"7\",\"S\",\"J\",\"112\"
\"\",\"\",\"approach-retreat\",\"116\",\"819330\",\"0.0-116.0\",\"\",\"\",\"2-1\",\"19129\",\"39\",\"0\",\"Training\",\"Stims/Figures/100-J-10-3.bmp\",\"mamana\",\"Right\",\"37\",\"8\",\"1\",\"7\",\"S\",\"J\",\"113\"
\"\",\"\",\"approach-retreat\",\"117\",\"829578\",\"0.0-117.0\",\"\",\"\",\"2-1\",\"8739\",\"39\",\"1\",\"Training\",\"Stims/Figures/86-C-30-1.bmp\",\"pa:pata\",\"Right\",\"39\",\"8\",\"2\",\"7\",\"P\",\"J\",\"114\"
\"\",\"\",\"approach-retreat\",\"118\",\"836786\",\"0.0-118.0\",\"\",\"\",\"2-1\",\"5699\",\"39\",\"1\",\"Training\",\"Stims/Figures/118-C-20-2.bmp\",\"pa:pa:ka\",\"Right\",\"39\",\"8\",\"3\",\"7\",\"P\",\"J\",\"115\"
\"\",\"\",\"approach-retreat\",\"119\",\"848414\",\"0.0-119.0\",\"\",\"\",\"2-1\",\"10119\",\"38\",\"1\",\"Training\",\"Stims/Figures/128-C-30-3.bmp\",\"mama:la\",\"Up\",\"38\",\"8\",\"4\",\"7\",\"S\",\"J\",\"116\"
\"\",\"\",\"approach-retreat\",\"120\",\"856811\",\"0.0-120.0\",\"\",\"\",\"2-1\",\"6889\",\"38\",\"0\",\"Training\",\"Stims/Figures/128-J-10-3.bmp\",\"na:mana\",\"Up\",\"40\",\"8\",\"5\",\"7\",\"S\",\"J\",\"117\"
\"\",\"\",\"approach-retreat\",\"121\",\"862527\",\"0.0-121.0\",\"\",\"\",\"2-1\",\"4208\",\"39\",\"1\",\"Training\",\"Stims/Figures/7-J-10-4.bmp\",\"malala\",\"Left\",\"39\",\"8\",\"6\",\"7\",\"S\",\"J\",\"118\"
\"\",\"\",\"approach-retreat\",\"122\",\"868148\",\"0.0-122.0\",\"\",\"\",\"2-1\",\"4111\",\"39\",\"1\",\"Training\",\"Stims/Figures/100-C-30-3.bmp\",\"na:mala\",\"Right\",\"39\",\"8\",\"7\",\"7\",\"S\",\"J\",\"119\"
\"\",\"\",\"approach-retreat\",\"123\",\"874068\",\"0.0-123.0\",\"\",\"\",\"2-1\",\"4410\",\"40\",\"1\",\"Training\",\"Stims/Figures/139-C-20-2.bmp\",\"tapa:ta\",\"Down\",\"40\",\"8\",\"8\",\"7\",\"P\",\"J\",\"120\"
\"\",\"\",\"approach-retreat\",\"124\",\"881253\",\"0.0-124.0\",\"\",\"\",\"2-1\",\"5676\",\"40\",\"1\",\"Training\",\"Stims/Figures/74-C-20-4.bmp\",\"ma:mala\",\"Down\",\"40\",\"8\",\"9\",\"7\",\"S\",\"J\",\"121\"
\"\",\"\",\"approach-retreat\",\"125\",\"886999\",\"0.0-125.0\",\"\",\"\",\"2-1\",\"4238\",\"38\",\"1\",\"Training\",\"Stims/Figures/93-J-0-1.bmp\",\"papa:ka\",\"Down\",\"38\",\"8\",\"10\",\"7\",\"P\",\"J\",\"122\"
\"\",\"\",\"approach-retreat\",\"126\",\"893791\",\"0.0-126.0\",\"\",\"\",\"2-1\",\"5285\",\"38\",\"1\",\"Training\",\"Stims/Figures/7-C-20-4.bmp\",\"ma:lana\",\"Up\",\"38\",\"8\",\"11\",\"7\",\"S\",\"J\",\"123\"
\"\",\"\",\"approach-retreat\",\"127\",\"899336\",\"0.0-127.0\",\"\",\"\",\"2-1\",\"4037\",\"39\",\"1\",\"Training\",\"Stims/Figures/118-J-0-2.bmp\",\"ta:ka:ta\",\"Left\",\"39\",\"8\",\"12\",\"7\",\"P\",\"J\",\"124\"
\"\",\"\",\"approach-retreat\",\"128\",\"905411\",\"0.0-128.0\",\"\",\"\",\"2-1\",\"4565\",\"37\",\"1\",\"Training\",\"Stims/Figures/93-C-30-1.bmp\",\"pa:pa:ta\",\"Left\",\"37\",\"8\",\"13\",\"7\",\"P\",\"J\",\"125\"
\"\",\"\",\"approach-retreat\",\"129\",\"911292\",\"0.0-129.0\",\"\",\"\",\"2-1\",\"4373\",\"38\",\"1\",\"Training\",\"Stims/Figures/139-J-0-2.bmp\",\"paka:ta\",\"Down\",\"38\",\"8\",\"14\",\"7\",\"P\",\"J\",\"126\"
\"\",\"\",\"approach-retreat\",\"130\",\"917026\",\"0.0-130.0\",\"\",\"\",\"2-1\",\"4226\",\"37\",\"0\",\"Training\",\"Stims/Figures/74-J-10-4.bmp\",\"mala:la\",\"Left\",\"39\",\"8\",\"15\",\"7\",\"S\",\"J\",\"127\"
\"\",\"\",\"approach-retreat\",\"131\",\"922715\",\"0.0-131.0\",\"\",\"\",\"2-1\",\"4181\",\"40\",\"1\",\"Training\",\"Stims/Figures/86-J-0-1.bmp\",\"pa:kata\",\"Up\",\"40\",\"8\",\"16\",\"7\",\"P\",\"J\",\"128\"
\"\",\"\",\"approach-retreat\",\"132\",\"929326\",\"0.0-132.0\",\"\",\"\",\"2-1\",\"5103\",\"40\",\"1\",\"Training\",\"Stims/Figures/74-C-20-4.bmp\",\"ma:mala\",\"Down\",\"40\",\"9\",\"1\",\"7\",\"S\",\"J\",\"129\"
\"\",\"\",\"approach-retreat\",\"133\",\"935499\",\"0.0-133.0\",\"\",\"\",\"2-1\",\"4663\",\"39\",\"1\",\"Training\",\"Stims/Figures/128-C-30-3.bmp\",\"mama:la\",\"Right\",\"39\",\"9\",\"2\",\"7\",\"S\",\"J\",\"130\"
\"\",\"\",\"approach-retreat\",\"134\",\"941147\",\"0.0-134.0\",\"\",\"\",\"2-1\",\"4141\",\"38\",\"1\",\"Training\",\"Stims/Figures/93-J-0-1.bmp\",\"papa:ka\",\"Down\",\"38\",\"9\",\"3\",\"7\",\"P\",\"J\",\"131\"
\"\",\"\",\"approach-retreat\",\"135\",\"946763\",\"0.0-135.0\",\"\",\"\",\"2-1\",\"4107\",\"39\",\"1\",\"Training\",\"Stims/Figures/100-C-30-3.bmp\",\"na:mala\",\"Right\",\"39\",\"9\",\"4\",\"7\",\"S\",\"J\",\"132\"
\"\",\"\",\"approach-retreat\",\"136\",\"952543\",\"0.0-136.0\",\"\",\"\",\"2-1\",\"4272\",\"38\",\"0\",\"Training\",\"Stims/Figures/7-J-10-4.bmp\",\"malala\",\"Up\",\"40\",\"9\",\"5\",\"7\",\"S\",\"J\",\"133\"
\"\",\"\",\"approach-retreat\",\"137\",\"958642\",\"0.0-137.0\",\"\",\"\",\"2-1\",\"4591\",\"38\",\"1\",\"Training\",\"Stims/Figures/93-C-30-1.bmp\",\"pa:pa:ta\",\"Up\",\"38\",\"9\",\"6\",\"7\",\"P\",\"J\",\"134\"
\"\",\"\",\"approach-retreat\",\"138\",\"964397\",\"0.0-138.0\",\"\",\"\",\"2-1\",\"4240\",\"37\",\"1\",\"Training\",\"Stims/Figures/118-C-20-2.bmp\",\"pa:pa:ka\",\"Left\",\"37\",\"9\",\"7\",\"7\",\"P\",\"J\",\"135\"
\"\",\"\",\"approach-retreat\",\"139\",\"970076\",\"0.0-139.0\",\"\",\"\",\"2-1\",\"4171\",\"37\",\"1\",\"Training\",\"Stims/Figures/139-C-20-2.bmp\",\"tapa:ta\",\"Left\",\"37\",\"9\",\"8\",\"7\",\"P\",\"J\",\"136\"
\"\",\"\",\"approach-retreat\",\"140\",\"975698\",\"0.0-140.0\",\"\",\"\",\"2-1\",\"4113\",\"39\",\"1\",\"Training\",\"Stims/Figures/74-J-10-4.bmp\",\"mala:la\",\"Left\",\"39\",\"9\",\"9\",\"7\",\"S\",\"J\",\"137\"
\"\",\"\",\"approach-retreat\",\"141\",\"981331\",\"0.0-141.0\",\"\",\"\",\"2-1\",\"4125\",\"37\",\"1\",\"Training\",\"Stims/Figures/86-J-0-1.bmp\",\"pa:kata\",\"Right\",\"37\",\"9\",\"10\",\"7\",\"P\",\"J\",\"138\"
\"\",\"\",\"approach-retreat\",\"142\",\"986858\",\"0.0-142.0\",\"\",\"\",\"2-1\",\"4019\",\"39\",\"1\",\"Training\",\"Stims/Figures/128-J-10-3.bmp\",\"na:mana\",\"Left\",\"39\",\"9\",\"11\",\"7\",\"S\",\"J\",\"139\"
\"\",\"\",\"approach-retreat\",\"143\",\"992594\",\"0.0-143.0\",\"\",\"\",\"2-1\",\"4229\",\"38\",\"1\",\"Training\",\"Stims/Figures/7-C-20-4.bmp\",\"ma:lana\",\"Up\",\"38\",\"9\",\"12\",\"7\",\"S\",\"J\",\"140\"
\"\",\"\",\"approach-retreat\",\"144\",\"998356\",\"0.0-144.0\",\"\",\"\",\"2-1\",\"4254\",\"40\",\"1\",\"Training\",\"Stims/Figures/118-J-0-2.bmp\",\"ta:ka:ta\",\"Up\",\"40\",\"9\",\"13\",\"7\",\"P\",\"J\",\"141\"
\"\",\"\",\"approach-retreat\",\"145\",\"1004343\",\"0.0-145.0\",\"\",\"\",\"2-1\",\"4479\",\"37\",\"1\",\"Training\",\"Stims/Figures/100-J-10-3.bmp\",\"mamana\",\"Right\",\"37\",\"9\",\"14\",\"7\",\"S\",\"J\",\"142\"
\"\",\"\",\"approach-retreat\",\"146\",\"1009981\",\"0.0-146.0\",\"\",\"\",\"2-1\",\"4130\",\"38\",\"1\",\"Training\",\"Stims/Figures/139-J-0-2.bmp\",\"paka:ta\",\"Down\",\"38\",\"9\",\"15\",\"7\",\"P\",\"J\",\"143\"
\"\",\"\",\"approach-retreat\",\"147\",\"1016179\",\"0.0-147.0\",\"\",\"\",\"2-1\",\"4689\",\"40\",\"1\",\"Training\",\"Stims/Figures/86-C-30-1.bmp\",\"pa:pata\",\"Down\",\"40\",\"9\",\"16\",\"7\",\"P\",\"J\",\"144\"
\"4633\",\"\",\"instructions\",\"148\",\"1020814\",\"0.0-148.0\",\"[{\"\"page_index\"\":0,\"\"viewing_time\"\":4633}]\",\"\",\"\",\"\",\"\",\"\",\"\",\"\",\"\",\"\",\"\",\"\",\"\",\"\",\"\",\"\",\"\"
\"\",\"\",\"approach-retreat\",\"149\",\"1029968\",\"0.0-149.0\",\"\",\"\",\"2-1\",\"7648\",\"40\",\"1\",\"Testing\",\"Stims/Figures/100-J-10-3.bmp\",\"mamana\",\"Up\",\"40\",\"1\",\"1\",\"7\",\"S\",\"J\",\"1\"
\"\",\"\",\"approach-retreat\",\"150\",\"1035741\",\"0.0-150.0\",\"\",\"\",\"2-1\",\"4266\",\"40\",\"1\",\"Testing\",\"Stims/Figures/87-C-20-4.bmp\",\"namala\",\"Down\",\"40\",\"1\",\"2\",\"7\",\"S\",\"J\",\"2\"
\"\",\"\",\"approach-retreat\",\"151\",\"1042180\",\"0.0-151.0\",\"\",\"\",\"2-1\",\"4934\",\"37\",\"1\",\"Testing\",\"Stims/Figures/74-J-10-4.bmp\",\"mala:la\",\"Right\",\"37\",\"1\",\"3\",\"7\",\"S\",\"J\",\"3\"
\"\",\"\",\"approach-retreat\",\"152\",\"1048212\",\"0.0-152.0\",\"\",\"\",\"2-1\",\"4523\",\"38\",\"1\",\"Testing\",\"Stims/Figures/128-C-30-3.bmp\",\"mama:la\",\"Up\",\"38\",\"1\",\"4\",\"7\",\"S\",\"J\",\"4\"
\"\",\"\",\"approach-retreat\",\"153\",\"1054589\",\"0.0-153.0\",\"\",\"\",\"2-1\",\"4871\",\"39\",\"1\",\"Testing\",\"Stims/Figures/139-J-0-2.bmp\",\"paka:ta\",\"Left\",\"39\",\"1\",\"5\",\"7\",\"P\",\"J\",\"5\"
\"\",\"\",\"approach-retreat\",\"154\",\"1060831\",\"0.0-154.0\",\"\",\"\",\"2-1\",\"4735\",\"37\",\"1\",\"Testing\",\"Stims/Figures/118-C-20-2.bmp\",\"pa:pa:ka\",\"Left\",\"37\",\"1\",\"6\",\"7\",\"P\",\"J\",\"6\"
\"\",\"\",\"approach-retreat\",\"155\",\"1066494\",\"0.0-155.0\",\"\",\"\",\"2-1\",\"4157\",\"38\",\"1\",\"Testing\",\"Stims/Figures/128-J-10-3.bmp\",\"na:mana\",\"Down\",\"38\",\"1\",\"7\",\"7\",\"S\",\"J\",\"7\"
\"\",\"\",\"approach-retreat\",\"156\",\"1072772\",\"0.0-156.0\",\"\",\"\",\"2-1\",\"4771\",\"39\",\"1\",\"Testing\",\"Stims/Figures/86-C-30-1.bmp\",\"pa:pata\",\"Right\",\"39\",\"1\",\"8\",\"7\",\"P\",\"J\",\"8\"
\"\",\"\",\"approach-retreat\",\"157\",\"1078491\",\"0.0-157.0\",\"\",\"\",\"2-1\",\"4212\",\"40\",\"1\",\"Testing\",\"Stims/Figures/7-J-10-4.bmp\",\"malala\",\"Up\",\"40\",\"1\",\"9\",\"7\",\"S\",\"J\",\"9\"
\"\",\"\",\"approach-retreat\",\"158\",\"1084103\",\"0.0-158.0\",\"\",\"\",\"2-1\",\"4102\",\"39\",\"0\",\"Testing\",\"Stims/Figures/139-C-20-2.bmp\",\"tapa:ta\",\"Left\",\"37\",\"1\",\"10\",\"7\",\"P\",\"J\",\"10\"
\"\",\"\",\"approach-retreat\",\"159\",\"1092552\",\"0.0-159.0\",\"\",\"\",\"2-1\",\"6942\",\"40\",\"1\",\"Testing\",\"Stims/Figures/87-J-10-4.bmp\",\"mamala\",\"Up\",\"40\",\"1\",\"11\",\"7\",\"S\",\"J\",\"11\"
\"\",\"\",\"approach-retreat\",\"160\",\"1098340\",\"0.0-160.0\",\"\",\"\",\"2-1\",\"4282\",\"40\",\"1\",\"Testing\",\"Stims/Figures/44-C-30-3.bmp\",\"na:la:la\",\"Down\",\"40\",\"1\",\"12\",\"7\",\"S\",\"J\",\"12\"
\"\",\"\",\"approach-retreat\",\"161\",\"1103899\",\"0.0-161.0\",\"\",\"\",\"2-1\",\"4053\",\"39\",\"1\",\"Testing\",\"Stims/Figures/93-J-0-1.bmp\",\"papa:ka\",\"Left\",\"39\",\"1\",\"13\",\"7\",\"P\",\"J\",\"13\"
\"\",\"\",\"approach-retreat\",\"162\",\"1109601\",\"0.0-162.0\",\"\",\"\",\"2-1\",\"4195\",\"39\",\"1\",\"Testing\",\"Stims/Figures/71-C-30-1.bmp\",\"ta:paka\",\"Right\",\"39\",\"1\",\"14\",\"7\",\"P\",\"J\",\"14\"
\"\",\"\",\"approach-retreat\",\"163\",\"1115929\",\"0.0-163.0\",\"\",\"\",\"2-1\",\"4822\",\"38\",\"1\",\"Testing\",\"Stims/Figures/74-C-20-4.bmp\",\"ma:mala\",\"Up\",\"38\",\"1\",\"15\",\"7\",\"S\",\"J\",\"15\"
\"\",\"\",\"approach-retreat\",\"164\",\"1121476\",\"0.0-164.0\",\"\",\"\",\"2-1\",\"4039\",\"37\",\"1\",\"Testing\",\"Stims/Figures/86-J-0-1.bmp\",\"pa:kata\",\"Right\",\"37\",\"1\",\"16\",\"7\",\"P\",\"J\",\"16\"
\"\",\"\",\"approach-retreat\",\"165\",\"1127155\",\"0.0-165.0\",\"\",\"\",\"2-1\",\"4171\",\"38\",\"1\",\"Testing\",\"Stims/Figures/118-J-0-2.bmp\",\"ta:ka:ta\",\"Down\",\"38\",\"1\",\"17\",\"7\",\"P\",\"J\",\"17\"
\"\",\"\",\"approach-retreat\",\"166\",\"1132983\",\"0.0-166.0\",\"\",\"\",\"2-1\",\"4321\",\"37\",\"1\",\"Testing\",\"Stims/Figures/93-C-30-1.bmp\",\"pa:pa:ta\",\"Left\",\"37\",\"1\",\"18\",\"7\",\"P\",\"J\",\"18\"
\"\",\"\",\"approach-retreat\",\"167\",\"1138896\",\"0.0-167.0\",\"\",\"\",\"2-1\",\"4401\",\"40\",\"1\",\"Testing\",\"Stims/Figures/94-J-0-2.bmp\",\"ta:pa:ka\",\"Up\",\"40\",\"1\",\"19\",\"7\",\"P\",\"J\",\"19\"
\"\",\"\",\"approach-retreat\",\"168\",\"1144953\",\"0.0-168.0\",\"\",\"\",\"2-1\",\"4551\",\"38\",\"1\",\"Testing\",\"Stims/Figures/71-J-0-1.bmp\",\"pa:kaka\",\"Down\",\"38\",\"1\",\"20\",\"7\",\"P\",\"J\",\"20\"
\"\",\"\",\"approach-retreat\",\"169\",\"1152690\",\"0.0-169.0\",\"\",\"\",\"2-1\",\"6231\",\"37\",\"0\",\"Testing\",\"Stims/Figures/7-C-20-4.bmp\",\"ma:lana\",\"Right\",\"39\",\"1\",\"21\",\"7\",\"S\",\"J\",\"21\"
\"\",\"\",\"approach-retreat\",\"170\",\"1159041\",\"0.0-170.0\",\"\",\"\",\"2-1\",\"4844\",\"38\",\"1\",\"Testing\",\"Stims/Figures/44-J-10-3.bmp\",\"na:lana\",\"Down\",\"38\",\"1\",\"22\",\"7\",\"S\",\"J\",\"22\"
\"\",\"\",\"approach-retreat\",\"171\",\"1165258\",\"0.0-171.0\",\"\",\"\",\"2-1\",\"4710\",\"37\",\"1\",\"Testing\",\"Stims/Figures/100-C-30-3.bmp\",\"na:mala\",\"Left\",\"37\",\"1\",\"23\",\"7\",\"S\",\"J\",\"23\"
\"\",\"\",\"approach-retreat\",\"172\",\"1170769\",\"0.0-172.0\",\"\",\"\",\"2-1\",\"4001\",\"39\",\"1\",\"Testing\",\"Stims/Figures/94-C-20-2.bmp\",\"ta:kaka\",\"Right\",\"39\",\"1\",\"24\",\"7\",\"P\",\"J\",\"24\"
\"\",\"\",\"approach-retreat\",\"173\",\"1176768\",\"0.0-173.0\",\"\",\"\",\"2-1\",\"4492\",\"37\",\"1\",\"Testing\",\"Stims/Figures/71-C-30-1.bmp\",\"ta:paka\",\"Left\",\"37\",\"2\",\"1\",\"7\",\"P\",\"J\",\"25\"
\"\",\"\",\"approach-retreat\",\"174\",\"1182527\",\"0.0-174.0\",\"\",\"\",\"2-1\",\"4253\",\"38\",\"1\",\"Testing\",\"Stims/Figures/71-J-0-1.bmp\",\"pa:kaka\",\"Down\",\"38\",\"2\",\"2\",\"7\",\"P\",\"J\",\"26\"
\"\",\"\",\"approach-retreat\",\"175\",\"1188170\",\"0.0-175.0\",\"\",\"\",\"2-1\",\"4136\",\"40\",\"1\",\"Testing\",\"Stims/Figures/86-J-0-1.bmp\",\"pa:kata\",\"Up\",\"40\",\"2\",\"3\",\"7\",\"P\",\"J\",\"27\"
\"\",\"\",\"approach-retreat\",\"176\",\"1193922\",\"0.0-176.0\",\"\",\"\",\"2-1\",\"4244\",\"40\",\"1\",\"Testing\",\"Stims/Figures/128-C-30-3.bmp\",\"mama:la\",\"Down\",\"40\",\"2\",\"4\",\"7\",\"S\",\"J\",\"28\"
\"\",\"\",\"approach-retreat\",\"177\",\"1199683\",\"0.0-177.0\",\"\",\"\",\"2-1\",\"4254\",\"39\",\"1\",\"Testing\",\"Stims/Figures/44-C-30-3.bmp\",\"na:la:la\",\"Right\",\"39\",\"2\",\"5\",\"7\",\"S\",\"J\",\"29\"
\"\",\"\",\"approach-retreat\",\"178\",\"1205770\",\"0.0-178.0\",\"\",\"\",\"2-1\",\"4581\",\"39\",\"1\",\"Testing\",\"Stims/Figures/74-J-10-4.bmp\",\"mala:la\",\"Left\",\"39\",\"2\",\"6\",\"7\",\"S\",\"J\",\"30\"
\"\",\"\",\"approach-retreat\",\"179\",\"1211924\",\"0.0-179.0\",\"\",\"\",\"2-1\",\"4647\",\"38\",\"1\",\"Testing\",\"Stims/Figures/118-C-20-2.bmp\",\"pa:pa:ka\",\"Up\",\"38\",\"2\",\"7\",\"7\",\"P\",\"J\",\"31\"
\"\",\"\",\"approach-retreat\",\"180\",\"1217927\",\"0.0-180.0\",\"\",\"\",\"2-1\",\"4496\",\"39\",\"1\",\"Testing\",\"Stims/Figures/87-C-20-4.bmp\",\"namala\",\"Right\",\"39\",\"2\",\"8\",\"7\",\"S\",\"J\",\"32\"
\"\",\"\",\"approach-retreat\",\"181\",\"1223631\",\"0.0-181.0\",\"\",\"\",\"2-1\",\"4198\",\"39\",\"1\",\"Testing\",\"Stims/Figures/44-J-10-3.bmp\",\"na:lana\",\"Left\",\"39\",\"2\",\"9\",\"7\",\"S\",\"J\",\"33\"
\"\",\"\",\"approach-retreat\",\"182\",\"1229309\",\"0.0-182.0\",\"\",\"\",\"2-1\",\"4170\",\"37\",\"1\",\"Testing\",\"Stims/Figures/93-C-30-1.bmp\",\"pa:pa:ta\",\"Left\",\"37\",\"2\",\"10\",\"7\",\"P\",\"J\",\"34\"
\"\",\"\",\"approach-retreat\",\"183\",\"1235590\",\"0.0-183.0\",\"\",\"\",\"2-1\",\"4775\",\"38\",\"1\",\"Testing\",\"Stims/Figures/118-J-0-2.bmp\",\"ta:ka:ta\",\"Down\",\"38\",\"2\",\"11\",\"7\",\"P\",\"J\",\"35\"
\"\",\"\",\"approach-retreat\",\"184\",\"1241271\",\"0.0-184.0\",\"\",\"\",\"2-1\",\"4175\",\"39\",\"1\",\"Testing\",\"Stims/Figures/74-C-20-4.bmp\",\"ma:mala\",\"Right\",\"39\",\"2\",\"12\",\"7\",\"S\",\"J\",\"36\"
\"\",\"\",\"approach-retreat\",\"185\",\"1247267\",\"0.0-185.0\",\"\",\"\",\"2-1\",\"4489\",\"39\",\"1\",\"Testing\",\"Stims/Figures/7-J-10-4.bmp\",\"malala\",\"Left\",\"39\",\"2\",\"13\",\"7\",\"S\",\"J\",\"37\"
\"\",\"\",\"approach-retreat\",\"186\",\"1253178\",\"0.0-186.0\",\"\",\"\",\"2-1\",\"4405\",\"40\",\"1\",\"Testing\",\"Stims/Figures/128-J-10-3.bmp\",\"na:mana\",\"Up\",\"40\",\"2\",\"14\",\"7\",\"S\",\"J\",\"38\"
\"\",\"\",\"approach-retreat\",\"187\",\"1258762\",\"0.0-187.0\",\"\",\"\",\"2-1\",\"4078\",\"37\",\"1\",\"Testing\",\"Stims/Figures/94-J-0-2.bmp\",\"ta:pa:ka\",\"Right\",\"37\",\"2\",\"15\",\"7\",\"P\",\"J\",\"39\"
\"\",\"\",\"approach-retreat\",\"188\",\"1265111\",\"0.0-188.0\",\"\",\"\",\"2-1\",\"4842\",\"40\",\"1\",\"Testing\",\"Stims/Figures/94-C-20-2.bmp\",\"ta:kaka\",\"Down\",\"40\",\"2\",\"16\",\"7\",\"P\",\"J\",\"40\"
\"\",\"\",\"approach-retreat\",\"189\",\"1271057\",\"0.0-189.0\",\"\",\"\",\"2-1\",\"4440\",\"39\",\"1\",\"Testing\",\"Stims/Figures/86-C-30-1.bmp\",\"pa:pata\",\"Right\",\"39\",\"2\",\"17\",\"7\",\"P\",\"J\",\"41\"
\"\",\"\",\"approach-retreat\",\"190\",\"1277906\",\"0.0-190.0\",\"\",\"\",\"2-1\",\"5342\",\"38\",\"1\",\"Testing\",\"Stims/Figures/7-C-20-4.bmp\",\"ma:lana\",\"Up\",\"38\",\"2\",\"18\",\"7\",\"S\",\"J\",\"42\"
\"\",\"\",\"approach-retreat\",\"191\",\"1283536\",\"0.0-191.0\",\"\",\"\",\"2-1\",\"4123\",\"39\",\"1\",\"Testing\",\"Stims/Figures/139-J-0-2.bmp\",\"paka:ta\",\"Left\",\"39\",\"2\",\"19\",\"7\",\"P\",\"J\",\"43\"
\"\",\"\",\"approach-retreat\",\"192\",\"1289113\",\"0.0-192.0\",\"\",\"\",\"2-1\",\"4071\",\"40\",\"1\",\"Testing\",\"Stims/Figures/100-J-10-3.bmp\",\"mamana\",\"Up\",\"40\",\"2\",\"20\",\"7\",\"S\",\"J\",\"44\"
\"\",\"\",\"approach-retreat\",\"193\",\"1294634\",\"0.0-193.0\",\"\",\"\",\"2-1\",\"4014\",\"40\",\"1\",\"Testing\",\"Stims/Figures/93-J-0-1.bmp\",\"papa:ka\",\"Up\",\"40\",\"2\",\"21\",\"7\",\"P\",\"J\",\"45\"
\"\",\"\",\"approach-retreat\",\"194\",\"1300387\",\"0.0-194.0\",\"\",\"\",\"2-1\",\"4247\",\"40\",\"0\",\"Testing\",\"Stims/Figures/87-J-10-4.bmp\",\"mamala\",\"Down\",\"38\",\"2\",\"22\",\"7\",\"S\",\"J\",\"46\"
\"\",\"\",\"approach-retreat\",\"195\",\"1306115\",\"0.0-195.0\",\"\",\"\",\"2-1\",\"4220\",\"40\",\"1\",\"Testing\",\"Stims/Figures/139-C-20-2.bmp\",\"tapa:ta\",\"Down\",\"40\",\"2\",\"23\",\"7\",\"P\",\"J\",\"47\"
\"\",\"\",\"approach-retreat\",\"196\",\"1312060\",\"0.0-196.0\",\"\",\"\",\"2-1\",\"4439\",\"39\",\"1\",\"Testing\",\"Stims/Figures/100-C-30-3.bmp\",\"na:mala\",\"Right\",\"39\",\"2\",\"24\",\"7\",\"S\",\"J\",\"48\"
\"\",\"\",\"approach-retreat\",\"197\",\"1317813\",\"0.0-197.0\",\"\",\"\",\"2-1\",\"4246\",\"37\",\"1\",\"Testing\",\"Stims/Figures/7-J-10-4.bmp\",\"malala\",\"Right\",\"37\",\"3\",\"1\",\"7\",\"S\",\"J\",\"49\"
\"\",\"\",\"approach-retreat\",\"198\",\"1323559\",\"0.0-198.0\",\"\",\"\",\"2-1\",\"4239\",\"40\",\"1\",\"Testing\",\"Stims/Figures/71-C-30-1.bmp\",\"ta:paka\",\"Down\",\"40\",\"3\",\"2\",\"7\",\"P\",\"J\",\"50\"
\"\",\"\",\"approach-retreat\",\"199\",\"1329135\",\"0.0-199.0\",\"\",\"\",\"2-1\",\"4069\",\"37\",\"1\",\"Testing\",\"Stims/Figures/87-C-20-4.bmp\",\"namala\",\"Left\",\"37\",\"3\",\"3\",\"7\",\"S\",\"J\",\"51\"
\"\",\"\",\"approach-retreat\",\"200\",\"1334610\",\"0.0-200.0\",\"\",\"\",\"2-1\",\"3969\",\"37\",\"1\",\"Testing\",\"Stims/Figures/139-J-0-2.bmp\",\"paka:ta\",\"Right\",\"37\",\"3\",\"4\",\"7\",\"P\",\"J\",\"52\"
\"\",\"\",\"approach-retreat\",\"201\",\"1340900\",\"0.0-201.0\",\"\",\"\",\"2-1\",\"4784\",\"38\",\"1\",\"Testing\",\"Stims/Figures/44-C-30-3.bmp\",\"na:la:la\",\"Up\",\"38\",\"3\",\"5\",\"7\",\"S\",\"J\",\"53\"
\"\",\"\",\"approach-retreat\",\"202\",\"1349250\",\"0.0-202.0\",\"\",\"\",\"2-1\",\"6844\",\"40\",\"1\",\"Testing\",\"Stims/Figures/118-C-20-2.bmp\",\"pa:pa:ka\",\"Down\",\"40\",\"3\",\"6\",\"7\",\"P\",\"J\",\"54\"
\"\",\"\",\"approach-retreat\",\"203\",\"1354857\",\"0.0-203.0\",\"\",\"\",\"2-1\",\"4100\",\"39\",\"1\",\"Testing\",\"Stims/Figures/86-J-0-1.bmp\",\"pa:kata\",\"Left\",\"39\",\"3\",\"7\",\"7\",\"P\",\"J\",\"55\"
\"\",\"\",\"approach-retreat\",\"204\",\"1360582\",\"0.0-204.0\",\"\",\"\",\"2-1\",\"4219\",\"38\",\"1\",\"Testing\",\"Stims/Figures/128-J-10-3.bmp\",\"na:mana\",\"Down\",\"38\",\"3\",\"8\",\"7\",\"S\",\"J\",\"56\"
\"\",\"\",\"approach-retreat\",\"205\",\"1366409\",\"0.0-205.0\",\"\",\"\",\"2-1\",\"4321\",\"40\",\"1\",\"Testing\",\"Stims/Figures/86-C-30-1.bmp\",\"pa:pata\",\"Down\",\"40\",\"3\",\"9\",\"7\",\"P\",\"J\",\"57\"
\"\",\"\",\"approach-retreat\",\"206\",\"1373302\",\"0.0-206.0\",\"\",\"\",\"2-1\",\"5386\",\"38\",\"0\",\"Testing\",\"Stims/Figures/87-J-10-4.bmp\",\"mamala\",\"Up\",\"40\",\"3\",\"10\",\"7\",\"S\",\"J\",\"58\"
\"\",\"\",\"approach-retreat\",\"207\",\"1379032\",\"0.0-207.0\",\"\",\"\",\"2-1\",\"4222\",\"37\",\"1\",\"Testing\",\"Stims/Figures/139-C-20-2.bmp\",\"tapa:ta\",\"Left\",\"37\",\"3\",\"11\",\"7\",\"P\",\"J\",\"59\"
\"\",\"\",\"approach-retreat\",\"208\",\"1384916\",\"0.0-208.0\",\"\",\"\",\"2-1\",\"4377\",\"38\",\"1\",\"Testing\",\"Stims/Figures/74-J-10-4.bmp\",\"mala:la\",\"Down\",\"38\",\"3\",\"12\",\"7\",\"S\",\"J\",\"60\"
\"\",\"\",\"approach-retreat\",\"209\",\"1391091\",\"0.0-209.0\",\"\",\"\",\"2-1\",\"4669\",\"39\",\"1\",\"Testing\",\"Stims/Figures/44-J-10-3.bmp\",\"na:lana\",\"Left\",\"39\",\"3\",\"13\",\"7\",\"S\",\"J\",\"61\"
\"\",\"\",\"approach-retreat\",\"210\",\"1396752\",\"0.0-210.0\",\"\",\"\",\"2-1\",\"4154\",\"37\",\"1\",\"Testing\",\"Stims/Figures/94-J-0-2.bmp\",\"ta:pa:ka\",\"Right\",\"37\",\"3\",\"14\",\"7\",\"P\",\"J\",\"62\"
\"\",\"\",\"approach-retreat\",\"211\",\"1402548\",\"0.0-211.0\",\"\",\"\",\"2-1\",\"4290\",\"37\",\"1\",\"Testing\",\"Stims/Figures/100-C-30-3.bmp\",\"na:mala\",\"Left\",\"37\",\"3\",\"15\",\"7\",\"S\",\"J\",\"63\"
\"\",\"\",\"approach-retreat\",\"212\",\"1408524\",\"0.0-212.0\",\"\",\"\",\"2-1\",\"4466\",\"40\",\"1\",\"Testing\",\"Stims/Figures/100-J-10-3.bmp\",\"mamana\",\"Up\",\"40\",\"3\",\"16\",\"7\",\"S\",\"J\",\"64\"
\"\",\"\",\"approach-retreat\",\"213\",\"1414879\",\"0.0-213.0\",\"\",\"\",\"2-1\",\"4850\",\"40\",\"1\",\"Testing\",\"Stims/Figures/93-C-30-1.bmp\",\"pa:pa:ta\",\"Down\",\"40\",\"3\",\"17\",\"7\",\"P\",\"J\",\"65\"
\"\",\"\",\"approach-retreat\",\"214\",\"1420945\",\"0.0-214.0\",\"\",\"\",\"2-1\",\"4558\",\"38\",\"1\",\"Testing\",\"Stims/Figures/74-C-20-4.bmp\",\"ma:mala\",\"Up\",\"38\",\"3\",\"18\",\"7\",\"S\",\"J\",\"66\"
\"\",\"\",\"approach-retreat\",\"215\",\"1426667\",\"0.0-215.0\",\"\",\"\",\"2-1\",\"4216\",\"39\",\"1\",\"Testing\",\"Stims/Figures/128-C-30-3.bmp\",\"mama:la\",\"Right\",\"39\",\"3\",\"19\",\"7\",\"S\",\"J\",\"67\"
\"\",\"\",\"approach-retreat\",\"216\",\"1432483\",\"0.0-216.0\",\"\",\"\",\"2-1\",\"4310\",\"39\",\"1\",\"Testing\",\"Stims/Figures/94-C-20-2.bmp\",\"ta:kaka\",\"Right\",\"39\",\"3\",\"20\",\"7\",\"P\",\"J\",\"68\"
\"\",\"\",\"approach-retreat\",\"217\",\"1438261\",\"0.0-217.0\",\"\",\"\",\"2-1\",\"4271\",\"37\",\"1\",\"Testing\",\"Stims/Figures/7-C-20-4.bmp\",\"ma:lana\",\"Left\",\"37\",\"3\",\"21\",\"7\",\"S\",\"J\",\"69\"
\"\",\"\",\"approach-retreat\",\"218\",\"1443942\",\"0.0-218.0\",\"\",\"\",\"2-1\",\"4175\",\"40\",\"1\",\"Testing\",\"Stims/Figures/93-J-0-1.bmp\",\"papa:ka\",\"Up\",\"40\",\"3\",\"22\",\"7\",\"P\",\"J\",\"70\"
\"\",\"\",\"approach-retreat\",\"219\",\"1449627\",\"0.0-219.0\",\"\",\"\",\"2-1\",\"4178\",\"40\",\"1\",\"Testing\",\"Stims/Figures/71-J-0-1.bmp\",\"pa:kaka\",\"Up\",\"40\",\"3\",\"23\",\"7\",\"P\",\"J\",\"71\"
\"\",\"\",\"approach-retreat\",\"220\",\"1455240\",\"0.0-220.0\",\"\",\"\",\"2-1\",\"4106\",\"37\",\"1\",\"Testing\",\"Stims/Figures/118-J-0-2.bmp\",\"ta:ka:ta\",\"Right\",\"37\",\"3\",\"24\",\"7\",\"P\",\"J\",\"72\"
\"\",\"\",\"approach-retreat\",\"221\",\"1460944\",\"0.0-221.0\",\"\",\"\",\"2-1\",\"4199\",\"39\",\"1\",\"Testing\",\"Stims/Figures/93-C-30-1.bmp\",\"pa:pa:ta\",\"Right\",\"39\",\"4\",\"1\",\"7\",\"P\",\"J\",\"73\"
\"\",\"\",\"approach-retreat\",\"222\",\"1466612\",\"0.0-222.0\",\"\",\"\",\"2-1\",\"4161\",\"39\",\"1\",\"Testing\",\"Stims/Figures/44-C-30-3.bmp\",\"na:la:la\",\"Right\",\"39\",\"4\",\"2\",\"7\",\"S\",\"J\",\"74\"
\"\",\"\",\"approach-retreat\",\"223\",\"1473762\",\"0.0-223.0\",\"\",\"\",\"2-1\",\"5643\",\"37\",\"0\",\"Testing\",\"Stims/Figures/128-J-10-3.bmp\",\"na:mana\",\"Left\",\"39\",\"4\",\"3\",\"7\",\"S\",\"J\",\"75\"
\"\",\"\",\"approach-retreat\",\"224\",\"1479385\",\"0.0-224.0\",\"\",\"\",\"2-1\",\"4117\",\"39\",\"1\",\"Testing\",\"Stims/Figures/87-J-10-4.bmp\",\"mamala\",\"Left\",\"39\",\"4\",\"4\",\"7\",\"S\",\"J\",\"76\"
\"\",\"\",\"approach-retreat\",\"225\",\"1485190\",\"0.0-225.0\",\"\",\"\",\"2-1\",\"4299\",\"37\",\"1\",\"Testing\",\"Stims/Figures/139-J-0-2.bmp\",\"paka:ta\",\"Right\",\"37\",\"4\",\"5\",\"7\",\"P\",\"J\",\"77\"
\"\",\"\",\"approach-retreat\",\"226\",\"1490749\",\"0.0-226.0\",\"\",\"\",\"2-1\",\"4054\",\"39\",\"1\",\"Testing\",\"Stims/Figures/44-J-10-3.bmp\",\"na:lana\",\"Left\",\"39\",\"4\",\"6\",\"7\",\"S\",\"J\",\"78\"
\"\",\"\",\"approach-retreat\",\"227\",\"1496415\",\"0.0-227.0\",\"\",\"\",\"2-1\",\"4158\",\"40\",\"1\",\"Testing\",\"Stims/Figures/128-C-30-3.bmp\",\"mama:la\",\"Down\",\"40\",\"4\",\"7\",\"7\",\"S\",\"J\",\"79\"
\"\",\"\",\"approach-retreat\",\"228\",\"1502506\",\"0.0-228.0\",\"\",\"\",\"2-1\",\"4585\",\"38\",\"1\",\"Testing\",\"Stims/Figures/118-C-20-2.bmp\",\"pa:pa:ka\",\"Up\",\"38\",\"4\",\"8\",\"7\",\"P\",\"J\",\"80\"
\"\",\"\",\"approach-retreat\",\"229\",\"1509518\",\"0.0-229.0\",\"\",\"\",\"2-1\",\"5506\",\"40\",\"1\",\"Testing\",\"Stims/Figures/7-J-10-4.bmp\",\"malala\",\"Up\",\"40\",\"4\",\"9\",\"7\",\"S\",\"J\",\"81\"
\"\",\"\",\"approach-retreat\",\"230\",\"1515257\",\"0.0-230.0\",\"\",\"\",\"2-1\",\"4232\",\"37\",\"1\",\"Testing\",\"Stims/Figures/7-C-20-4.bmp\",\"ma:lana\",\"Left\",\"37\",\"4\",\"10\",\"7\",\"S\",\"J\",\"82\"
\"\",\"\",\"approach-retreat\",\"231\",\"1522722\",\"0.0-231.0\",\"\",\"\",\"2-1\",\"5960\",\"39\",\"0\",\"Testing\",\"Stims/Figures/100-J-10-3.bmp\",\"mamana\",\"Right\",\"37\",\"4\",\"11\",\"7\",\"S\",\"J\",\"83\"
\"\",\"\",\"approach-retreat\",\"232\",\"1528317\",\"0.0-232.0\",\"\",\"\",\"2-1\",\"4090\",\"37\",\"1\",\"Testing\",\"Stims/Figures/100-C-30-3.bmp\",\"na:mala\",\"Left\",\"37\",\"4\",\"12\",\"7\",\"S\",\"J\",\"84\"
\"\",\"\",\"approach-retreat\",\"233\",\"1533942\",\"0.0-233.0\",\"\",\"\",\"2-1\",\"4119\",\"40\",\"1\",\"Testing\",\"Stims/Figures/94-C-20-2.bmp\",\"ta:kaka\",\"Down\",\"40\",\"4\",\"13\",\"7\",\"P\",\"J\",\"85\"
\"\",\"\",\"approach-retreat\",\"234\",\"1540058\",\"0.0-234.0\",\"\",\"\",\"2-1\",\"4610\",\"40\",\"1\",\"Testing\",\"Stims/Figures/74-J-10-4.bmp\",\"mala:la\",\"Up\",\"40\",\"4\",\"14\",\"7\",\"S\",\"J\",\"86\"
\"\",\"\",\"approach-retreat\",\"235\",\"1547900\",\"0.0-235.0\",\"\",\"\",\"2-1\",\"6336\",\"40\",\"1\",\"Testing\",\"Stims/Figures/86-C-30-1.bmp\",\"pa:pata\",\"Down\",\"40\",\"4\",\"15\",\"7\",\"P\",\"J\",\"87\"
\"\",\"\",\"approach-retreat\",\"236\",\"1553696\",\"0.0-236.0\",\"\",\"\",\"2-1\",\"4290\",\"38\",\"1\",\"Testing\",\"Stims/Figures/71-J-0-1.bmp\",\"pa:kaka\",\"Down\",\"38\",\"4\",\"16\",\"7\",\"P\",\"J\",\"88\"
\"\",\"\",\"approach-retreat\",\"237\",\"1559495\",\"0.0-237.0\",\"\",\"\",\"2-1\",\"4290\",\"39\",\"1\",\"Testing\",\"Stims/Figures/87-C-20-4.bmp\",\"namala\",\"Right\",\"39\",\"4\",\"17\",\"7\",\"S\",\"J\",\"89\"
\"\",\"\",\"approach-retreat\",\"238\",\"1565130\",\"0.0-238.0\",\"\",\"\",\"2-1\",\"4130\",\"38\",\"1\",\"Testing\",\"Stims/Figures/118-J-0-2.bmp\",\"ta:ka:ta\",\"Down\",\"38\",\"4\",\"18\",\"7\",\"P\",\"J\",\"90\"
\"\",\"\",\"approach-retreat\",\"239\",\"1570937\",\"0.0-239.0\",\"\",\"\",\"2-1\",\"4299\",\"40\",\"1\",\"Testing\",\"Stims/Figures/93-J-0-1.bmp\",\"papa:ka\",\"Up\",\"40\",\"4\",\"19\",\"7\",\"P\",\"J\",\"91\"
\"\",\"\",\"approach-retreat\",\"240\",\"1576527\",\"0.0-240.0\",\"\",\"\",\"2-1\",\"4084\",\"40\",\"1\",\"Testing\",\"Stims/Figures/86-J-0-1.bmp\",\"pa:kata\",\"Up\",\"40\",\"4\",\"20\",\"7\",\"P\",\"J\",\"92\"
\"\",\"\",\"approach-retreat\",\"241\",\"1582395\",\"0.0-241.0\",\"\",\"\",\"2-1\",\"4363\",\"38\",\"1\",\"Testing\",\"Stims/Figures/71-C-30-1.bmp\",\"ta:paka\",\"Up\",\"38\",\"4\",\"21\",\"7\",\"P\",\"J\",\"93\"
\"\",\"\",\"approach-retreat\",\"242\",\"1588092\",\"0.0-242.0\",\"\",\"\",\"2-1\",\"4190\",\"40\",\"1\",\"Testing\",\"Stims/Figures/74-C-20-4.bmp\",\"ma:mala\",\"Down\",\"40\",\"4\",\"22\",\"7\",\"S\",\"J\",\"94\"
\"\",\"\",\"approach-retreat\",\"243\",\"1594261\",\"0.0-243.0\",\"\",\"\",\"2-1\",\"4662\",\"39\",\"1\",\"Testing\",\"Stims/Figures/139-C-20-2.bmp\",\"tapa:ta\",\"Right\",\"39\",\"4\",\"23\",\"7\",\"P\",\"J\",\"95\"
\"\",\"\",\"approach-retreat\",\"244\",\"1600048\",\"0.0-244.0\",\"\",\"\",\"2-1\",\"4280\",\"39\",\"1\",\"Testing\",\"Stims/Figures/94-J-0-2.bmp\",\"ta:pa:ka\",\"Left\",\"39\",\"4\",\"24\",\"7\",\"P\",\"J\",\"96\"
\"25479\",\"\",\"survey-text\",\"245\",\"1625533\",\"0.0-245.0\",\"\",\"{\"\"Q0\"\":\"\"PS160066\"\"}\",\"\",\"\",\"\",\"\",\"\",\"\",\"\",\"\",\"\",\"\",\"\",\"\",\"\",\"\",\"\"
