\"rt\",\"key_press\",\"trial_type\",\"trial_index\",\"time_elapsed\",\"internal_node_id\",\"view_history\",\"responses\",\"Id\",\"Rt\",\"ResKeyCode\",\"ResCorr\",\"TrialType2\",\"Image\",\"Label\",\"Location\",\"CorrectResponse\",\"Block\",\"BlockTrial\",\"Condition\",\"LabelType\",\"Subcondition\",\"trialNum\"
\"56435\",\"32\",\"text\",\"0\",\"56440\",\"0.0-0.0-0.0\",\"\",\"\",\"\",\"\",\"\",\"\",\"\",\"\",\"\",\"\",\"\",\"\",\"\",\"\",\"\",\"\",\"\"
\"56780\",\"\",\"instructions\",\"1\",\"113223\",\"0.0-1.0\",\"[{\"\"page_index\"\":0,\"\"viewing_time\"\":56778}]\",\"\",\"\",\"\",\"\",\"\",\"\",\"\",\"\",\"\",\"\",\"\",\"\",\"\",\"\",\"\",\"\"
\"25553\",\"\",\"survey-multi-choice\",\"2\",\"138832\",\"0.0-2.0\",\"\",\"{\"\"Q0\"\":\"\"Da\"\",\"\"Q1\"\":\"\"Da\"\",\"\"Q2\"\":\"\"Da\"\",\"\"Q3\"\":\"\"Da\"\",\"\"Q4\"\":\"\"Da\"\",\"\"Q5\"\":\"\"Da\"\"}\",\"\",\"\",\"\",\"\",\"\",\"\",\"\",\"\",\"\",\"\",\"\",\"\",\"\",\"\",\"\"
\"\",\"\",\"bio\",\"3\",\"147324\",\"0.0-3.0\",\"\",\"{\"\"age\"\":\"\"20\"\",\"\"gender\"\":\"\"f\"\",\"\"specify\"\":\"\"\"\"}\",\"\",\"\",\"\",\"\",\"\",\"\",\"\",\"\",\"\",\"\",\"\",\"\",\"\",\"\",\"\"
\"\",\"\",\"approach-retreat\",\"4\",\"161681\",\"0.0-4.0\",\"\",\"\",\"1-2\",\"12842\",\"37\",\"0\",\"Training\",\"Stims/Figures/93-J-0-1.bmp\",\"mala:na\",\"Right\",\"39\",\"1\",\"1\",\"5\",\"S\",\"C\",\"1\"
\"\",\"\",\"approach-retreat\",\"5\",\"170362\",\"0.0-5.0\",\"\",\"\",\"1-2\",\"7174\",\"37\",\"1\",\"Training\",\"Stims/Figures/85-C-20-2.bmp\",\"ta:kata\",\"Right\",\"37\",\"1\",\"2\",\"5\",\"P\",\"C\",\"2\"
\"\",\"\",\"approach-retreat\",\"6\",\"176985\",\"0.0-6.0\",\"\",\"\",\"1-2\",\"5110\",\"39\",\"1\",\"Training\",\"Stims/Figures/111-J-10-3.bmp\",\"ma:mana\",\"Right\",\"39\",\"1\",\"3\",\"5\",\"S\",\"C\",\"3\"
\"\",\"\",\"approach-retreat\",\"7\",\"185491\",\"0.0-7.0\",\"\",\"\",\"1-2\",\"6994\",\"38\",\"1\",\"Training\",\"Stims/Figures/118-J-0-2.bmp\",\"ma:la:la\",\"Up\",\"38\",\"1\",\"4\",\"5\",\"S\",\"C\",\"4\"
\"\",\"\",\"approach-retreat\",\"8\",\"191694\",\"0.0-8.0\",\"\",\"\",\"1-2\",\"4691\",\"37\",\"1\",\"Training\",\"Stims/Figures/87-J-10-4.bmp\",\"mamana\",\"Left\",\"37\",\"1\",\"5\",\"5\",\"S\",\"C\",\"5\"
\"\",\"\",\"approach-retreat\",\"9\",\"197554\",\"0.0-9.0\",\"\",\"\",\"1-2\",\"4349\",\"38\",\"0\",\"Training\",\"Stims/Figures/111-C-30-3.bmp\",\"papata\",\"Up\",\"40\",\"1\",\"6\",\"5\",\"P\",\"C\",\"6\"
\"\",\"\",\"approach-retreat\",\"10\",\"203716\",\"0.0-10.0\",\"\",\"\",\"1-2\",\"4652\",\"37\",\"1\",\"Training\",\"Stims/Figures/85-J-0-2.bmp\",\"ma:la:na\",\"Left\",\"37\",\"1\",\"7\",\"5\",\"S\",\"C\",\"7\"
\"\",\"\",\"approach-retreat\",\"11\",\"210339\",\"0.0-11.0\",\"\",\"\",\"1-2\",\"5110\",\"38\",\"1\",\"Training\",\"Stims/Figures/27-C-30-1.bmp\",\"pa:ka:ta\",\"Down\",\"38\",\"1\",\"8\",\"5\",\"P\",\"C\",\"8\"
\"\",\"\",\"approach-retreat\",\"12\",\"216644\",\"0.0-12.0\",\"\",\"\",\"1-2\",\"4791\",\"37\",\"0\",\"Training\",\"Stims/Figures/118-C-20-2.bmp\",\"pa:kaka\",\"Left\",\"39\",\"1\",\"9\",\"5\",\"P\",\"C\",\"9\"
\"\",\"\",\"approach-retreat\",\"13\",\"222743\",\"0.0-13.0\",\"\",\"\",\"1-2\",\"4588\",\"38\",\"1\",\"Training\",\"Stims/Figures/7-C-20-4.bmp\",\"pakaka\",\"Down\",\"38\",\"1\",\"10\",\"5\",\"P\",\"C\",\"10\"
\"\",\"\",\"approach-retreat\",\"14\",\"231992\",\"0.0-14.0\",\"\",\"\",\"1-2\",\"7737\",\"37\",\"1\",\"Training\",\"Stims/Figures/93-C-30-1.bmp\",\"ta:kaka\",\"Right\",\"37\",\"1\",\"11\",\"5\",\"P\",\"C\",\"11\"
\"\",\"\",\"approach-retreat\",\"15\",\"237613\",\"0.0-15.0\",\"\",\"\",\"1-2\",\"4110\",\"37\",\"1\",\"Training\",\"Stims/Figures/27-J-0-1.bmp\",\"mamala\",\"Left\",\"37\",\"1\",\"12\",\"5\",\"S\",\"C\",\"12\"
\"\",\"\",\"approach-retreat\",\"16\",\"246001\",\"0.0-16.0\",\"\",\"\",\"1-2\",\"6871\",\"40\",\"0\",\"Training\",\"Stims/Figures/144-J-10-3.bmp\",\"na:lana\",\"Up\",\"38\",\"1\",\"13\",\"5\",\"S\",\"C\",\"13\"
\"\",\"\",\"approach-retreat\",\"17\",\"252347\",\"0.0-17.0\",\"\",\"\",\"1-2\",\"4834\",\"38\",\"1\",\"Training\",\"Stims/Figures/7-J-10-4.bmp\",\"nalana\",\"Up\",\"38\",\"1\",\"14\",\"5\",\"S\",\"C\",\"14\"
\"\",\"\",\"approach-retreat\",\"18\",\"258253\",\"0.0-18.0\",\"\",\"\",\"1-2\",\"4394\",\"38\",\"1\",\"Training\",\"Stims/Figures/87-C-20-4.bmp\",\"pa:pa:ka\",\"Down\",\"38\",\"1\",\"15\",\"5\",\"P\",\"C\",\"15\"
\"\",\"\",\"approach-retreat\",\"19\",\"265123\",\"0.0-19.0\",\"\",\"\",\"1-2\",\"5356\",\"38\",\"1\",\"Training\",\"Stims/Figures/144-C-30-3.bmp\",\"takata\",\"Down\",\"38\",\"1\",\"16\",\"5\",\"P\",\"C\",\"16\"
\"\",\"\",\"approach-retreat\",\"20\",\"271391\",\"0.0-20.0\",\"\",\"\",\"1-2\",\"4759\",\"39\",\"1\",\"Training\",\"Stims/Figures/7-C-20-4.bmp\",\"pakaka\",\"Left\",\"39\",\"2\",\"1\",\"5\",\"P\",\"C\",\"17\"
\"\",\"\",\"approach-retreat\",\"21\",\"277075\",\"0.0-21.0\",\"\",\"\",\"1-2\",\"4174\",\"37\",\"1\",\"Training\",\"Stims/Figures/118-C-20-2.bmp\",\"pa:kaka\",\"Right\",\"37\",\"2\",\"2\",\"5\",\"P\",\"C\",\"18\"
\"\",\"\",\"approach-retreat\",\"22\",\"282833\",\"0.0-22.0\",\"\",\"\",\"1-2\",\"4247\",\"38\",\"1\",\"Training\",\"Stims/Figures/27-C-30-1.bmp\",\"pa:ka:ta\",\"Down\",\"38\",\"2\",\"3\",\"5\",\"P\",\"C\",\"19\"
\"\",\"\",\"approach-retreat\",\"23\",\"289466\",\"0.0-23.0\",\"\",\"\",\"1-2\",\"5121\",\"38\",\"1\",\"Training\",\"Stims/Figures/85-J-0-2.bmp\",\"ma:la:na\",\"Up\",\"38\",\"2\",\"4\",\"5\",\"S\",\"C\",\"20\"
\"\",\"\",\"approach-retreat\",\"24\",\"295166\",\"0.0-24.0\",\"\",\"\",\"1-2\",\"4185\",\"37\",\"1\",\"Training\",\"Stims/Figures/111-C-30-3.bmp\",\"papata\",\"Right\",\"37\",\"2\",\"5\",\"5\",\"P\",\"C\",\"21\"
\"\",\"\",\"approach-retreat\",\"25\",\"301674\",\"0.0-25.0\",\"\",\"\",\"1-2\",\"4998\",\"39\",\"0\",\"Training\",\"Stims/Figures/144-C-30-3.bmp\",\"takata\",\"Right\",\"37\",\"2\",\"6\",\"5\",\"P\",\"C\",\"22\"
\"\",\"\",\"approach-retreat\",\"26\",\"307551\",\"0.0-26.0\",\"\",\"\",\"1-2\",\"4367\",\"39\",\"1\",\"Training\",\"Stims/Figures/93-C-30-1.bmp\",\"ta:kaka\",\"Left\",\"39\",\"2\",\"7\",\"5\",\"P\",\"C\",\"23\"
\"\",\"\",\"approach-retreat\",\"27\",\"314034\",\"0.0-27.0\",\"\",\"\",\"1-2\",\"4973\",\"38\",\"1\",\"Training\",\"Stims/Figures/87-J-10-4.bmp\",\"mamana\",\"Up\",\"38\",\"2\",\"8\",\"5\",\"S\",\"C\",\"24\"
\"\",\"\",\"approach-retreat\",\"28\",\"320796\",\"0.0-28.0\",\"\",\"\",\"1-2\",\"5250\",\"39\",\"0\",\"Training\",\"Stims/Figures/118-J-0-2.bmp\",\"ma:la:la\",\"Left\",\"37\",\"2\",\"9\",\"5\",\"S\",\"C\",\"25\"
\"\",\"\",\"approach-retreat\",\"29\",\"326793\",\"0.0-29.0\",\"\",\"\",\"1-2\",\"4485\",\"40\",\"1\",\"Training\",\"Stims/Figures/7-J-10-4.bmp\",\"nalana\",\"Down\",\"40\",\"2\",\"10\",\"5\",\"S\",\"C\",\"26\"
\"\",\"\",\"approach-retreat\",\"30\",\"333877\",\"0.0-30.0\",\"\",\"\",\"1-2\",\"5581\",\"38\",\"1\",\"Training\",\"Stims/Figures/93-J-0-1.bmp\",\"mala:na\",\"Up\",\"38\",\"2\",\"11\",\"5\",\"S\",\"C\",\"27\"
\"\",\"\",\"approach-retreat\",\"31\",\"339571\",\"0.0-31.0\",\"\",\"\",\"1-2\",\"4181\",\"37\",\"1\",\"Training\",\"Stims/Figures/144-J-10-3.bmp\",\"na:lana\",\"Left\",\"37\",\"2\",\"12\",\"5\",\"S\",\"C\",\"28\"
\"\",\"\",\"approach-retreat\",\"32\",\"345931\",\"0.0-32.0\",\"\",\"\",\"1-2\",\"4857\",\"38\",\"1\",\"Training\",\"Stims/Figures/85-C-20-2.bmp\",\"ta:kata\",\"Down\",\"38\",\"2\",\"13\",\"5\",\"P\",\"C\",\"29\"
\"\",\"\",\"approach-retreat\",\"33\",\"351808\",\"0.0-33.0\",\"\",\"\",\"1-2\",\"4366\",\"40\",\"1\",\"Training\",\"Stims/Figures/27-J-0-1.bmp\",\"mamala\",\"Down\",\"40\",\"2\",\"14\",\"5\",\"S\",\"C\",\"30\"
\"\",\"\",\"approach-retreat\",\"34\",\"357445\",\"0.0-34.0\",\"\",\"\",\"1-2\",\"4127\",\"37\",\"1\",\"Training\",\"Stims/Figures/87-C-20-4.bmp\",\"pa:pa:ka\",\"Right\",\"37\",\"2\",\"15\",\"5\",\"P\",\"C\",\"31\"
\"\",\"\",\"approach-retreat\",\"35\",\"363267\",\"0.0-35.0\",\"\",\"\",\"1-2\",\"4316\",\"38\",\"1\",\"Training\",\"Stims/Figures/111-J-10-3.bmp\",\"ma:mana\",\"Up\",\"38\",\"2\",\"16\",\"5\",\"S\",\"C\",\"32\"
\"\",\"\",\"approach-retreat\",\"36\",\"369312\",\"0.0-36.0\",\"\",\"\",\"1-2\",\"4534\",\"40\",\"1\",\"Training\",\"Stims/Figures/27-J-0-1.bmp\",\"mamala\",\"Down\",\"40\",\"3\",\"1\",\"5\",\"S\",\"C\",\"33\"
\"\",\"\",\"approach-retreat\",\"37\",\"375089\",\"0.0-37.0\",\"\",\"\",\"1-2\",\"4267\",\"39\",\"1\",\"Training\",\"Stims/Figures/111-J-10-3.bmp\",\"ma:mana\",\"Right\",\"39\",\"3\",\"2\",\"5\",\"S\",\"C\",\"34\"
\"\",\"\",\"approach-retreat\",\"38\",\"380928\",\"0.0-38.0\",\"\",\"\",\"1-2\",\"4326\",\"39\",\"1\",\"Training\",\"Stims/Figures/7-C-20-4.bmp\",\"pakaka\",\"Left\",\"39\",\"3\",\"3\",\"5\",\"P\",\"C\",\"35\"
\"\",\"\",\"approach-retreat\",\"39\",\"386894\",\"0.0-39.0\",\"\",\"\",\"1-2\",\"4454\",\"40\",\"1\",\"Training\",\"Stims/Figures/118-C-20-2.bmp\",\"pa:kaka\",\"Up\",\"40\",\"3\",\"4\",\"5\",\"P\",\"C\",\"36\"
\"\",\"\",\"approach-retreat\",\"40\",\"392961\",\"0.0-40.0\",\"\",\"\",\"1-2\",\"4557\",\"40\",\"1\",\"Training\",\"Stims/Figures/27-C-30-1.bmp\",\"pa:ka:ta\",\"Up\",\"40\",\"3\",\"5\",\"5\",\"P\",\"C\",\"37\"
\"\",\"\",\"approach-retreat\",\"41\",\"398717\",\"0.0-41.0\",\"\",\"\",\"1-2\",\"4244\",\"40\",\"1\",\"Training\",\"Stims/Figures/7-J-10-4.bmp\",\"nalana\",\"Down\",\"40\",\"3\",\"6\",\"5\",\"S\",\"C\",\"38\"
\"\",\"\",\"approach-retreat\",\"42\",\"404459\",\"0.0-42.0\",\"\",\"\",\"1-2\",\"4229\",\"40\",\"1\",\"Training\",\"Stims/Figures/85-J-0-2.bmp\",\"ma:la:na\",\"Down\",\"40\",\"3\",\"7\",\"5\",\"S\",\"C\",\"39\"
\"\",\"\",\"approach-retreat\",\"43\",\"411054\",\"0.0-43.0\",\"\",\"\",\"1-2\",\"5082\",\"38\",\"1\",\"Training\",\"Stims/Figures/118-J-0-2.bmp\",\"ma:la:la\",\"Up\",\"38\",\"3\",\"8\",\"5\",\"S\",\"C\",\"40\"
\"\",\"\",\"approach-retreat\",\"44\",\"416992\",\"0.0-44.0\",\"\",\"\",\"1-2\",\"4426\",\"37\",\"1\",\"Training\",\"Stims/Figures/93-J-0-1.bmp\",\"mala:na\",\"Left\",\"37\",\"3\",\"9\",\"5\",\"S\",\"C\",\"41\"
\"\",\"\",\"approach-retreat\",\"45\",\"423006\",\"0.0-45.0\",\"\",\"\",\"1-2\",\"4501\",\"39\",\"1\",\"Training\",\"Stims/Figures/144-C-30-3.bmp\",\"takata\",\"Left\",\"39\",\"3\",\"10\",\"5\",\"P\",\"C\",\"42\"
\"\",\"\",\"approach-retreat\",\"46\",\"428674\",\"0.0-46.0\",\"\",\"\",\"1-2\",\"4157\",\"40\",\"1\",\"Training\",\"Stims/Figures/93-C-30-1.bmp\",\"ta:kaka\",\"Up\",\"40\",\"3\",\"11\",\"5\",\"P\",\"C\",\"43\"
\"\",\"\",\"approach-retreat\",\"47\",\"434671\",\"0.0-47.0\",\"\",\"\",\"1-2\",\"4487\",\"37\",\"1\",\"Training\",\"Stims/Figures/87-C-20-4.bmp\",\"pa:pa:ka\",\"Right\",\"37\",\"3\",\"12\",\"5\",\"P\",\"C\",\"44\"
\"\",\"\",\"approach-retreat\",\"48\",\"440586\",\"0.0-48.0\",\"\",\"\",\"1-2\",\"4411\",\"39\",\"1\",\"Training\",\"Stims/Figures/85-C-20-2.bmp\",\"ta:kata\",\"Left\",\"39\",\"3\",\"13\",\"5\",\"P\",\"C\",\"45\"
\"\",\"\",\"approach-retreat\",\"49\",\"446553\",\"0.0-49.0\",\"\",\"\",\"1-2\",\"4457\",\"40\",\"1\",\"Training\",\"Stims/Figures/87-J-10-4.bmp\",\"mamana\",\"Down\",\"40\",\"3\",\"14\",\"5\",\"S\",\"C\",\"46\"
\"\",\"\",\"approach-retreat\",\"50\",\"452390\",\"0.0-50.0\",\"\",\"\",\"1-2\",\"4325\",\"39\",\"1\",\"Training\",\"Stims/Figures/144-J-10-3.bmp\",\"na:lana\",\"Right\",\"39\",\"3\",\"15\",\"5\",\"S\",\"C\",\"47\"
\"\",\"\",\"approach-retreat\",\"51\",\"458022\",\"0.0-51.0\",\"\",\"\",\"1-2\",\"4121\",\"37\",\"1\",\"Training\",\"Stims/Figures/111-C-30-3.bmp\",\"papata\",\"Right\",\"37\",\"3\",\"16\",\"5\",\"P\",\"C\",\"48\"
\"\",\"\",\"approach-retreat\",\"52\",\"463732\",\"0.0-52.0\",\"\",\"\",\"1-2\",\"4200\",\"40\",\"1\",\"Training\",\"Stims/Figures/118-J-0-2.bmp\",\"ma:la:la\",\"Down\",\"40\",\"4\",\"1\",\"5\",\"S\",\"C\",\"49\"
\"\",\"\",\"approach-retreat\",\"53\",\"469717\",\"0.0-53.0\",\"\",\"\",\"1-2\",\"4473\",\"38\",\"1\",\"Training\",\"Stims/Figures/87-J-10-4.bmp\",\"mamana\",\"Up\",\"38\",\"4\",\"2\",\"5\",\"S\",\"C\",\"50\"
\"\",\"\",\"approach-retreat\",\"54\",\"475512\",\"0.0-54.0\",\"\",\"\",\"1-2\",\"4282\",\"39\",\"1\",\"Training\",\"Stims/Figures/144-J-10-3.bmp\",\"na:lana\",\"Right\",\"39\",\"4\",\"3\",\"5\",\"S\",\"C\",\"51\"
\"\",\"\",\"approach-retreat\",\"55\",\"481392\",\"0.0-55.0\",\"\",\"\",\"1-2\",\"4369\",\"38\",\"1\",\"Training\",\"Stims/Figures/144-C-30-3.bmp\",\"takata\",\"Down\",\"38\",\"4\",\"4\",\"5\",\"P\",\"C\",\"52\"
\"\",\"\",\"approach-retreat\",\"56\",\"488278\",\"0.0-56.0\",\"\",\"\",\"1-2\",\"5370\",\"38\",\"1\",\"Training\",\"Stims/Figures/7-J-10-4.bmp\",\"nalana\",\"Up\",\"38\",\"4\",\"5\",\"5\",\"S\",\"C\",\"53\"
\"\",\"\",\"approach-retreat\",\"57\",\"493824\",\"0.0-57.0\",\"\",\"\",\"1-2\",\"4034\",\"39\",\"1\",\"Training\",\"Stims/Figures/27-C-30-1.bmp\",\"pa:ka:ta\",\"Left\",\"39\",\"4\",\"6\",\"5\",\"P\",\"C\",\"54\"
\"\",\"\",\"approach-retreat\",\"58\",\"499495\",\"0.0-58.0\",\"\",\"\",\"1-2\",\"4159\",\"39\",\"1\",\"Training\",\"Stims/Figures/118-C-20-2.bmp\",\"pa:kaka\",\"Left\",\"39\",\"4\",\"7\",\"5\",\"P\",\"C\",\"55\"
\"\",\"\",\"approach-retreat\",\"59\",\"505036\",\"0.0-59.0\",\"\",\"\",\"1-2\",\"4030\",\"38\",\"1\",\"Training\",\"Stims/Figures/85-C-20-2.bmp\",\"ta:kata\",\"Down\",\"38\",\"4\",\"8\",\"5\",\"P\",\"C\",\"56\"
\"\",\"\",\"approach-retreat\",\"60\",\"510589\",\"0.0-60.0\",\"\",\"\",\"1-2\",\"4040\",\"39\",\"1\",\"Training\",\"Stims/Figures/93-C-30-1.bmp\",\"ta:kaka\",\"Left\",\"39\",\"4\",\"9\",\"5\",\"P\",\"C\",\"57\"
\"\",\"\",\"approach-retreat\",\"61\",\"516375\",\"0.0-61.0\",\"\",\"\",\"1-2\",\"4275\",\"40\",\"1\",\"Training\",\"Stims/Figures/111-J-10-3.bmp\",\"ma:mana\",\"Down\",\"40\",\"4\",\"10\",\"5\",\"S\",\"C\",\"58\"
\"\",\"\",\"approach-retreat\",\"62\",\"522167\",\"0.0-62.0\",\"\",\"\",\"1-2\",\"4281\",\"37\",\"1\",\"Training\",\"Stims/Figures/7-C-20-4.bmp\",\"pakaka\",\"Right\",\"37\",\"4\",\"11\",\"5\",\"P\",\"C\",\"59\"
\"\",\"\",\"approach-retreat\",\"63\",\"528342\",\"0.0-63.0\",\"\",\"\",\"1-2\",\"4664\",\"39\",\"1\",\"Training\",\"Stims/Figures/27-J-0-1.bmp\",\"mamala\",\"Right\",\"39\",\"4\",\"12\",\"5\",\"S\",\"C\",\"60\"
\"\",\"\",\"approach-retreat\",\"64\",\"534395\",\"0.0-64.0\",\"\",\"\",\"1-2\",\"4543\",\"40\",\"1\",\"Training\",\"Stims/Figures/87-C-20-4.bmp\",\"pa:pa:ka\",\"Up\",\"40\",\"4\",\"13\",\"5\",\"P\",\"C\",\"61\"
\"\",\"\",\"approach-retreat\",\"65\",\"540085\",\"0.0-65.0\",\"\",\"\",\"1-2\",\"4179\",\"39\",\"1\",\"Training\",\"Stims/Figures/93-J-0-1.bmp\",\"mala:na\",\"Right\",\"39\",\"4\",\"14\",\"5\",\"S\",\"C\",\"62\"
\"\",\"\",\"approach-retreat\",\"66\",\"545652\",\"0.0-66.0\",\"\",\"\",\"1-2\",\"4054\",\"37\",\"1\",\"Training\",\"Stims/Figures/85-J-0-2.bmp\",\"ma:la:na\",\"Left\",\"37\",\"4\",\"15\",\"5\",\"S\",\"C\",\"63\"
\"\",\"\",\"approach-retreat\",\"67\",\"551243\",\"0.0-67.0\",\"\",\"\",\"1-2\",\"4079\",\"40\",\"1\",\"Training\",\"Stims/Figures/111-C-30-3.bmp\",\"papata\",\"Up\",\"40\",\"4\",\"16\",\"5\",\"P\",\"C\",\"64\"
\"\",\"\",\"approach-retreat\",\"68\",\"557696\",\"0.0-68.0\",\"\",\"\",\"1-2\",\"4942\",\"38\",\"1\",\"Training\",\"Stims/Figures/111-J-10-3.bmp\",\"ma:mana\",\"Up\",\"38\",\"5\",\"1\",\"5\",\"S\",\"C\",\"65\"
\"\",\"\",\"approach-retreat\",\"69\",\"564438\",\"0.0-69.0\",\"\",\"\",\"1-2\",\"5232\",\"38\",\"1\",\"Training\",\"Stims/Figures/118-J-0-2.bmp\",\"ma:la:la\",\"Up\",\"38\",\"5\",\"2\",\"5\",\"S\",\"C\",\"66\"
\"\",\"\",\"approach-retreat\",\"70\",\"571189\",\"0.0-70.0\",\"\",\"\",\"1-2\",\"5241\",\"40\",\"1\",\"Training\",\"Stims/Figures/7-J-10-4.bmp\",\"nalana\",\"Down\",\"40\",\"5\",\"3\",\"5\",\"S\",\"C\",\"67\"
\"\",\"\",\"approach-retreat\",\"71\",\"577111\",\"0.0-71.0\",\"\",\"\",\"1-2\",\"4411\",\"38\",\"1\",\"Training\",\"Stims/Figures/87-J-10-4.bmp\",\"mamana\",\"Up\",\"38\",\"5\",\"4\",\"5\",\"S\",\"C\",\"68\"
\"\",\"\",\"approach-retreat\",\"72\",\"583682\",\"0.0-72.0\",\"\",\"\",\"1-2\",\"5060\",\"39\",\"1\",\"Training\",\"Stims/Figures/93-C-30-1.bmp\",\"ta:kaka\",\"Left\",\"39\",\"5\",\"5\",\"5\",\"P\",\"C\",\"69\"
\"\",\"\",\"approach-retreat\",\"73\",\"590233\",\"0.0-73.0\",\"\",\"\",\"1-2\",\"5039\",\"38\",\"0\",\"Training\",\"Stims/Figures/93-J-0-1.bmp\",\"mala:na\",\"Down\",\"40\",\"5\",\"6\",\"5\",\"S\",\"C\",\"70\"
\"\",\"\",\"approach-retreat\",\"74\",\"595869\",\"0.0-74.0\",\"\",\"\",\"1-2\",\"4124\",\"37\",\"1\",\"Training\",\"Stims/Figures/85-C-20-2.bmp\",\"ta:kata\",\"Right\",\"37\",\"5\",\"7\",\"5\",\"P\",\"C\",\"71\"
\"\",\"\",\"approach-retreat\",\"75\",\"601723\",\"0.0-75.0\",\"\",\"\",\"1-2\",\"4342\",\"40\",\"1\",\"Training\",\"Stims/Figures/27-J-0-1.bmp\",\"mamala\",\"Down\",\"40\",\"5\",\"8\",\"5\",\"S\",\"C\",\"72\"
\"\",\"\",\"approach-retreat\",\"76\",\"608864\",\"0.0-76.0\",\"\",\"\",\"1-2\",\"5631\",\"39\",\"1\",\"Training\",\"Stims/Figures/144-J-10-3.bmp\",\"na:lana\",\"Right\",\"39\",\"5\",\"9\",\"5\",\"S\",\"C\",\"73\"
\"\",\"\",\"approach-retreat\",\"77\",\"614523\",\"0.0-77.0\",\"\",\"\",\"1-2\",\"4146\",\"38\",\"1\",\"Training\",\"Stims/Figures/7-C-20-4.bmp\",\"pakaka\",\"Down\",\"38\",\"5\",\"10\",\"5\",\"P\",\"C\",\"74\"
\"\",\"\",\"approach-retreat\",\"78\",\"619988\",\"0.0-78.0\",\"\",\"\",\"1-2\",\"3953\",\"39\",\"1\",\"Training\",\"Stims/Figures/144-C-30-3.bmp\",\"takata\",\"Left\",\"39\",\"5\",\"11\",\"5\",\"P\",\"C\",\"75\"
\"\",\"\",\"approach-retreat\",\"79\",\"627289\",\"0.0-79.0\",\"\",\"\",\"1-2\",\"5790\",\"39\",\"1\",\"Training\",\"Stims/Figures/111-C-30-3.bmp\",\"papata\",\"Left\",\"39\",\"5\",\"12\",\"5\",\"P\",\"C\",\"76\"
\"\",\"\",\"approach-retreat\",\"80\",\"633192\",\"0.0-80.0\",\"\",\"\",\"1-2\",\"4387\",\"37\",\"1\",\"Training\",\"Stims/Figures/118-C-20-2.bmp\",\"pa:kaka\",\"Right\",\"37\",\"5\",\"13\",\"5\",\"P\",\"C\",\"77\"
\"\",\"\",\"approach-retreat\",\"81\",\"638789\",\"0.0-81.0\",\"\",\"\",\"1-2\",\"4085\",\"37\",\"1\",\"Training\",\"Stims/Figures/85-J-0-2.bmp\",\"ma:la:na\",\"Left\",\"37\",\"5\",\"14\",\"5\",\"S\",\"C\",\"78\"
\"\",\"\",\"approach-retreat\",\"82\",\"644852\",\"0.0-82.0\",\"\",\"\",\"1-2\",\"4554\",\"37\",\"1\",\"Training\",\"Stims/Figures/87-C-20-4.bmp\",\"pa:pa:ka\",\"Right\",\"37\",\"5\",\"15\",\"5\",\"P\",\"C\",\"79\"
\"\",\"\",\"approach-retreat\",\"83\",\"651230\",\"0.0-83.0\",\"\",\"\",\"1-2\",\"4866\",\"40\",\"1\",\"Training\",\"Stims/Figures/27-C-30-1.bmp\",\"pa:ka:ta\",\"Up\",\"40\",\"5\",\"16\",\"5\",\"P\",\"C\",\"80\"
\"\",\"\",\"approach-retreat\",\"84\",\"656986\",\"0.0-84.0\",\"\",\"\",\"1-2\",\"4245\",\"37\",\"1\",\"Training\",\"Stims/Figures/7-C-20-4.bmp\",\"pakaka\",\"Right\",\"37\",\"6\",\"1\",\"5\",\"P\",\"C\",\"81\"
\"\",\"\",\"approach-retreat\",\"85\",\"662619\",\"0.0-85.0\",\"\",\"\",\"1-2\",\"4119\",\"38\",\"1\",\"Training\",\"Stims/Figures/85-C-20-2.bmp\",\"ta:kata\",\"Down\",\"38\",\"6\",\"2\",\"5\",\"P\",\"C\",\"82\"
\"\",\"\",\"approach-retreat\",\"86\",\"668258\",\"0.0-86.0\",\"\",\"\",\"1-2\",\"4128\",\"39\",\"1\",\"Training\",\"Stims/Figures/118-J-0-2.bmp\",\"ma:la:la\",\"Right\",\"39\",\"6\",\"3\",\"5\",\"S\",\"C\",\"83\"
\"\",\"\",\"approach-retreat\",\"87\",\"673811\",\"0.0-87.0\",\"\",\"\",\"1-2\",\"4041\",\"38\",\"1\",\"Training\",\"Stims/Figures/118-C-20-2.bmp\",\"pa:kaka\",\"Down\",\"38\",\"6\",\"4\",\"5\",\"P\",\"C\",\"84\"
\"\",\"\",\"approach-retreat\",\"88\",\"680279\",\"0.0-88.0\",\"\",\"\",\"1-2\",\"4957\",\"40\",\"1\",\"Training\",\"Stims/Figures/93-C-30-1.bmp\",\"ta:kaka\",\"Up\",\"40\",\"6\",\"5\",\"5\",\"P\",\"C\",\"85\"
\"\",\"\",\"approach-retreat\",\"89\",\"686769\",\"0.0-89.0\",\"\",\"\",\"1-2\",\"4979\",\"39\",\"1\",\"Training\",\"Stims/Figures/27-C-30-1.bmp\",\"pa:ka:ta\",\"Left\",\"39\",\"6\",\"6\",\"5\",\"P\",\"C\",\"86\"
\"\",\"\",\"approach-retreat\",\"90\",\"692472\",\"0.0-90.0\",\"\",\"\",\"1-2\",\"4191\",\"40\",\"1\",\"Training\",\"Stims/Figures/144-C-30-3.bmp\",\"takata\",\"Up\",\"40\",\"6\",\"7\",\"5\",\"P\",\"C\",\"87\"
\"\",\"\",\"approach-retreat\",\"91\",\"698316\",\"0.0-91.0\",\"\",\"\",\"1-2\",\"4333\",\"37\",\"1\",\"Training\",\"Stims/Figures/27-J-0-1.bmp\",\"mamala\",\"Left\",\"37\",\"6\",\"8\",\"5\",\"S\",\"C\",\"88\"
\"\",\"\",\"approach-retreat\",\"92\",\"705736\",\"0.0-92.0\",\"\",\"\",\"1-2\",\"5907\",\"37\",\"1\",\"Training\",\"Stims/Figures/87-J-10-4.bmp\",\"mamana\",\"Left\",\"37\",\"6\",\"9\",\"5\",\"S\",\"C\",\"89\"
\"\",\"\",\"approach-retreat\",\"93\",\"713445\",\"0.0-93.0\",\"\",\"\",\"1-2\",\"6198\",\"37\",\"1\",\"Training\",\"Stims/Figures/7-J-10-4.bmp\",\"nalana\",\"Left\",\"37\",\"6\",\"10\",\"5\",\"S\",\"C\",\"90\"
\"\",\"\",\"approach-retreat\",\"94\",\"720100\",\"0.0-94.0\",\"\",\"\",\"1-2\",\"5144\",\"38\",\"1\",\"Training\",\"Stims/Figures/85-J-0-2.bmp\",\"ma:la:na\",\"Up\",\"38\",\"6\",\"11\",\"5\",\"S\",\"C\",\"91\"
\"\",\"\",\"approach-retreat\",\"95\",\"726039\",\"0.0-95.0\",\"\",\"\",\"1-2\",\"4428\",\"40\",\"1\",\"Training\",\"Stims/Figures/93-J-0-1.bmp\",\"mala:na\",\"Down\",\"40\",\"6\",\"12\",\"5\",\"S\",\"C\",\"92\"
\"\",\"\",\"approach-retreat\",\"96\",\"731769\",\"0.0-96.0\",\"\",\"\",\"1-2\",\"4219\",\"37\",\"1\",\"Training\",\"Stims/Figures/87-C-20-4.bmp\",\"pa:pa:ka\",\"Right\",\"37\",\"6\",\"13\",\"5\",\"P\",\"C\",\"93\"
\"\",\"\",\"approach-retreat\",\"97\",\"737681\",\"0.0-97.0\",\"\",\"\",\"1-2\",\"4401\",\"39\",\"1\",\"Training\",\"Stims/Figures/111-J-10-3.bmp\",\"ma:mana\",\"Right\",\"39\",\"6\",\"14\",\"5\",\"S\",\"C\",\"94\"
\"\",\"\",\"approach-retreat\",\"98\",\"744132\",\"0.0-98.0\",\"\",\"\",\"1-2\",\"4938\",\"40\",\"1\",\"Training\",\"Stims/Figures/144-J-10-3.bmp\",\"na:lana\",\"Down\",\"40\",\"6\",\"15\",\"5\",\"S\",\"C\",\"95\"
\"\",\"\",\"approach-retreat\",\"99\",\"749931\",\"0.0-99.0\",\"\",\"\",\"1-2\",\"4289\",\"40\",\"1\",\"Training\",\"Stims/Figures/111-C-30-3.bmp\",\"papata\",\"Up\",\"40\",\"6\",\"16\",\"5\",\"P\",\"C\",\"96\"
\"\",\"\",\"approach-retreat\",\"100\",\"756123\",\"0.0-100.0\",\"\",\"\",\"1-2\",\"4681\",\"38\",\"1\",\"Training\",\"Stims/Figures/87-C-20-4.bmp\",\"pa:pa:ka\",\"Down\",\"38\",\"7\",\"1\",\"5\",\"P\",\"C\",\"97\"
\"\",\"\",\"approach-retreat\",\"101\",\"762711\",\"0.0-101.0\",\"\",\"\",\"1-2\",\"5077\",\"37\",\"1\",\"Training\",\"Stims/Figures/93-C-30-1.bmp\",\"ta:kaka\",\"Right\",\"37\",\"7\",\"2\",\"5\",\"P\",\"C\",\"98\"
\"\",\"\",\"approach-retreat\",\"102\",\"769152\",\"0.0-102.0\",\"\",\"\",\"1-2\",\"4930\",\"40\",\"1\",\"Training\",\"Stims/Figures/144-J-10-3.bmp\",\"na:lana\",\"Down\",\"40\",\"7\",\"3\",\"5\",\"S\",\"C\",\"99\"
\"\",\"\",\"approach-retreat\",\"103\",\"775203\",\"0.0-103.0\",\"\",\"\",\"1-2\",\"4538\",\"40\",\"1\",\"Training\",\"Stims/Figures/111-C-30-3.bmp\",\"papata\",\"Up\",\"40\",\"7\",\"4\",\"5\",\"P\",\"C\",\"100\"
\"\",\"\",\"approach-retreat\",\"104\",\"781652\",\"0.0-104.0\",\"\",\"\",\"1-2\",\"4938\",\"38\",\"1\",\"Training\",\"Stims/Figures/85-C-20-2.bmp\",\"ta:kata\",\"Down\",\"38\",\"7\",\"5\",\"5\",\"P\",\"C\",\"101\"
\"\",\"\",\"approach-retreat\",\"105\",\"788562\",\"0.0-105.0\",\"\",\"\",\"1-2\",\"5399\",\"40\",\"1\",\"Training\",\"Stims/Figures/85-J-0-2.bmp\",\"ma:la:na\",\"Down\",\"40\",\"7\",\"6\",\"5\",\"S\",\"C\",\"102\"
\"\",\"\",\"approach-retreat\",\"106\",\"794548\",\"0.0-106.0\",\"\",\"\",\"1-2\",\"4474\",\"38\",\"1\",\"Training\",\"Stims/Figures/7-J-10-4.bmp\",\"nalana\",\"Up\",\"38\",\"7\",\"7\",\"5\",\"S\",\"C\",\"103\"
\"\",\"\",\"approach-retreat\",\"107\",\"800803\",\"0.0-107.0\",\"\",\"\",\"1-2\",\"4743\",\"38\",\"1\",\"Training\",\"Stims/Figures/87-J-10-4.bmp\",\"mamana\",\"Up\",\"38\",\"7\",\"8\",\"5\",\"S\",\"C\",\"104\"
\"\",\"\",\"approach-retreat\",\"108\",\"806570\",\"0.0-108.0\",\"\",\"\",\"1-2\",\"4257\",\"39\",\"1\",\"Training\",\"Stims/Figures/118-J-0-2.bmp\",\"ma:la:la\",\"Right\",\"39\",\"7\",\"9\",\"5\",\"S\",\"C\",\"105\"
\"\",\"\",\"approach-retreat\",\"109\",\"812228\",\"0.0-109.0\",\"\",\"\",\"1-2\",\"4148\",\"38\",\"1\",\"Training\",\"Stims/Figures/111-J-10-3.bmp\",\"ma:mana\",\"Up\",\"38\",\"7\",\"10\",\"5\",\"S\",\"C\",\"106\"
\"\",\"\",\"approach-retreat\",\"110\",\"818143\",\"0.0-110.0\",\"\",\"\",\"1-2\",\"4402\",\"39\",\"0\",\"Training\",\"Stims/Figures/7-C-20-4.bmp\",\"pakaka\",\"Right\",\"37\",\"7\",\"11\",\"5\",\"P\",\"C\",\"107\"
\"\",\"\",\"approach-retreat\",\"111\",\"823789\",\"0.0-111.0\",\"\",\"\",\"1-2\",\"4135\",\"39\",\"1\",\"Training\",\"Stims/Figures/144-C-30-3.bmp\",\"takata\",\"Left\",\"39\",\"7\",\"12\",\"5\",\"P\",\"C\",\"108\"
\"\",\"\",\"approach-retreat\",\"112\",\"829502\",\"0.0-112.0\",\"\",\"\",\"1-2\",\"4202\",\"37\",\"1\",\"Training\",\"Stims/Figures/118-C-20-2.bmp\",\"pa:kaka\",\"Right\",\"37\",\"7\",\"13\",\"5\",\"P\",\"C\",\"109\"
\"\",\"\",\"approach-retreat\",\"113\",\"835365\",\"0.0-113.0\",\"\",\"\",\"1-2\",\"4352\",\"39\",\"1\",\"Training\",\"Stims/Figures/27-C-30-1.bmp\",\"pa:ka:ta\",\"Left\",\"39\",\"7\",\"14\",\"5\",\"P\",\"C\",\"110\"
\"\",\"\",\"approach-retreat\",\"114\",\"842596\",\"0.0-114.0\",\"\",\"\",\"1-2\",\"5720\",\"37\",\"1\",\"Training\",\"Stims/Figures/93-J-0-1.bmp\",\"mala:na\",\"Left\",\"37\",\"7\",\"15\",\"5\",\"S\",\"C\",\"111\"
\"\",\"\",\"approach-retreat\",\"115\",\"848495\",\"0.0-115.0\",\"\",\"\",\"1-2\",\"4387\",\"37\",\"1\",\"Training\",\"Stims/Figures/27-J-0-1.bmp\",\"mamala\",\"Left\",\"37\",\"7\",\"16\",\"5\",\"S\",\"C\",\"112\"
\"\",\"\",\"approach-retreat\",\"116\",\"854430\",\"0.0-116.0\",\"\",\"\",\"1-2\",\"4423\",\"37\",\"1\",\"Training\",\"Stims/Figures/7-J-10-4.bmp\",\"nalana\",\"Left\",\"37\",\"8\",\"1\",\"5\",\"S\",\"C\",\"113\"
\"\",\"\",\"approach-retreat\",\"117\",\"859969\",\"0.0-117.0\",\"\",\"\",\"1-2\",\"4029\",\"38\",\"1\",\"Training\",\"Stims/Figures/144-C-30-3.bmp\",\"takata\",\"Down\",\"38\",\"8\",\"2\",\"5\",\"P\",\"C\",\"114\"
\"\",\"\",\"approach-retreat\",\"118\",\"865811\",\"0.0-118.0\",\"\",\"\",\"1-2\",\"4330\",\"40\",\"1\",\"Training\",\"Stims/Figures/7-C-20-4.bmp\",\"pakaka\",\"Up\",\"40\",\"8\",\"3\",\"5\",\"P\",\"C\",\"115\"
\"\",\"\",\"approach-retreat\",\"119\",\"872107\",\"0.0-119.0\",\"\",\"\",\"1-2\",\"4785\",\"37\",\"0\",\"Training\",\"Stims/Figures/118-J-0-2.bmp\",\"ma:la:la\",\"Right\",\"39\",\"8\",\"4\",\"5\",\"S\",\"C\",\"116\"
\"\",\"\",\"approach-retreat\",\"120\",\"878581\",\"0.0-120.0\",\"\",\"\",\"1-2\",\"4960\",\"38\",\"0\",\"Training\",\"Stims/Figures/93-C-30-1.bmp\",\"ta:kaka\",\"Up\",\"40\",\"8\",\"5\",\"5\",\"P\",\"C\",\"117\"
\"\",\"\",\"approach-retreat\",\"121\",\"884238\",\"0.0-121.0\",\"\",\"\",\"1-2\",\"4146\",\"39\",\"1\",\"Training\",\"Stims/Figures/27-C-30-1.bmp\",\"pa:ka:ta\",\"Left\",\"39\",\"8\",\"6\",\"5\",\"P\",\"C\",\"118\"
\"\",\"\",\"approach-retreat\",\"122\",\"889764\",\"0.0-122.0\",\"\",\"\",\"1-2\",\"4015\",\"37\",\"1\",\"Training\",\"Stims/Figures/111-C-30-3.bmp\",\"papata\",\"Right\",\"37\",\"8\",\"7\",\"5\",\"P\",\"C\",\"119\"
\"\",\"\",\"approach-retreat\",\"123\",\"895571\",\"0.0-123.0\",\"\",\"\",\"1-2\",\"4296\",\"40\",\"1\",\"Training\",\"Stims/Figures/87-J-10-4.bmp\",\"mamana\",\"Down\",\"40\",\"8\",\"8\",\"5\",\"S\",\"C\",\"120\"
\"\",\"\",\"approach-retreat\",\"124\",\"901853\",\"0.0-124.0\",\"\",\"\",\"1-2\",\"4771\",\"37\",\"1\",\"Training\",\"Stims/Figures/85-J-0-2.bmp\",\"ma:la:na\",\"Left\",\"37\",\"8\",\"9\",\"5\",\"S\",\"C\",\"121\"
\"\",\"\",\"approach-retreat\",\"125\",\"908343\",\"0.0-125.0\",\"\",\"\",\"1-2\",\"4978\",\"40\",\"1\",\"Training\",\"Stims/Figures/144-J-10-3.bmp\",\"na:lana\",\"Down\",\"40\",\"8\",\"10\",\"5\",\"S\",\"C\",\"122\"
\"\",\"\",\"approach-retreat\",\"126\",\"914684\",\"0.0-126.0\",\"\",\"\",\"1-2\",\"4830\",\"39\",\"1\",\"Training\",\"Stims/Figures/111-J-10-3.bmp\",\"ma:mana\",\"Right\",\"39\",\"8\",\"11\",\"5\",\"S\",\"C\",\"123\"
\"\",\"\",\"approach-retreat\",\"127\",\"920482\",\"0.0-127.0\",\"\",\"\",\"1-2\",\"4285\",\"37\",\"1\",\"Training\",\"Stims/Figures/93-J-0-1.bmp\",\"mala:na\",\"Left\",\"37\",\"8\",\"12\",\"5\",\"S\",\"C\",\"124\"
\"\",\"\",\"approach-retreat\",\"128\",\"926193\",\"0.0-128.0\",\"\",\"\",\"1-2\",\"4199\",\"37\",\"1\",\"Training\",\"Stims/Figures/85-C-20-2.bmp\",\"ta:kata\",\"Right\",\"37\",\"8\",\"13\",\"5\",\"P\",\"C\",\"125\"
\"\",\"\",\"approach-retreat\",\"129\",\"932297\",\"0.0-129.0\",\"\",\"\",\"1-2\",\"4592\",\"38\",\"1\",\"Training\",\"Stims/Figures/27-J-0-1.bmp\",\"mamala\",\"Up\",\"38\",\"8\",\"14\",\"5\",\"S\",\"C\",\"126\"
\"\",\"\",\"approach-retreat\",\"130\",\"938056\",\"0.0-130.0\",\"\",\"\",\"1-2\",\"4248\",\"40\",\"0\",\"Training\",\"Stims/Figures/118-C-20-2.bmp\",\"pa:kaka\",\"Down\",\"38\",\"8\",\"15\",\"5\",\"P\",\"C\",\"127\"
\"\",\"\",\"approach-retreat\",\"131\",\"944253\",\"0.0-131.0\",\"\",\"\",\"1-2\",\"4686\",\"40\",\"1\",\"Training\",\"Stims/Figures/87-C-20-4.bmp\",\"pa:pa:ka\",\"Up\",\"40\",\"8\",\"16\",\"5\",\"P\",\"C\",\"128\"
\"\",\"\",\"approach-retreat\",\"132\",\"951996\",\"0.0-132.0\",\"\",\"\",\"1-2\",\"6233\",\"39\",\"1\",\"Training\",\"Stims/Figures/7-J-10-4.bmp\",\"nalana\",\"Right\",\"39\",\"9\",\"1\",\"5\",\"S\",\"C\",\"129\"
\"\",\"\",\"approach-retreat\",\"133\",\"957928\",\"0.0-133.0\",\"\",\"\",\"1-2\",\"4420\",\"38\",\"1\",\"Training\",\"Stims/Figures/118-C-20-2.bmp\",\"pa:kaka\",\"Down\",\"38\",\"9\",\"2\",\"5\",\"P\",\"C\",\"130\"
\"\",\"\",\"approach-retreat\",\"134\",\"963923\",\"0.0-134.0\",\"\",\"\",\"1-2\",\"4484\",\"39\",\"1\",\"Training\",\"Stims/Figures/93-C-30-1.bmp\",\"ta:kaka\",\"Left\",\"39\",\"9\",\"3\",\"5\",\"P\",\"C\",\"131\"
\"\",\"\",\"approach-retreat\",\"135\",\"970117\",\"0.0-135.0\",\"\",\"\",\"1-2\",\"4682\",\"38\",\"1\",\"Training\",\"Stims/Figures/118-J-0-2.bmp\",\"ma:la:la\",\"Up\",\"38\",\"9\",\"4\",\"5\",\"S\",\"C\",\"132\"
\"\",\"\",\"approach-retreat\",\"136\",\"976382\",\"0.0-136.0\",\"\",\"\",\"1-2\",\"4753\",\"38\",\"1\",\"Training\",\"Stims/Figures/27-J-0-1.bmp\",\"mamala\",\"Up\",\"38\",\"9\",\"5\",\"5\",\"S\",\"C\",\"133\"
\"\",\"\",\"approach-retreat\",\"137\",\"982742\",\"0.0-137.0\",\"\",\"\",\"1-2\",\"4849\",\"40\",\"1\",\"Training\",\"Stims/Figures/87-J-10-4.bmp\",\"mamana\",\"Down\",\"40\",\"9\",\"6\",\"5\",\"S\",\"C\",\"134\"
\"\",\"\",\"approach-retreat\",\"138\",\"989187\",\"0.0-138.0\",\"\",\"\",\"1-2\",\"4933\",\"39\",\"1\",\"Training\",\"Stims/Figures/144-J-10-3.bmp\",\"na:lana\",\"Right\",\"39\",\"9\",\"7\",\"5\",\"S\",\"C\",\"135\"
\"\",\"\",\"approach-retreat\",\"139\",\"994897\",\"0.0-139.0\",\"\",\"\",\"1-2\",\"4198\",\"40\",\"0\",\"Training\",\"Stims/Figures/27-C-30-1.bmp\",\"pa:ka:ta\",\"Down\",\"38\",\"9\",\"8\",\"5\",\"P\",\"C\",\"136\"
\"\",\"\",\"approach-retreat\",\"140\",\"1001054\",\"0.0-140.0\",\"\",\"\",\"1-2\",\"4647\",\"40\",\"1\",\"Training\",\"Stims/Figures/111-C-30-3.bmp\",\"papata\",\"Up\",\"40\",\"9\",\"9\",\"5\",\"P\",\"C\",\"137\"
\"\",\"\",\"approach-retreat\",\"141\",\"1007112\",\"0.0-141.0\",\"\",\"\",\"1-2\",\"4548\",\"38\",\"1\",\"Training\",\"Stims/Figures/7-C-20-4.bmp\",\"pakaka\",\"Down\",\"38\",\"9\",\"10\",\"5\",\"P\",\"C\",\"138\"
\"\",\"\",\"approach-retreat\",\"142\",\"1012932\",\"0.0-142.0\",\"\",\"\",\"1-2\",\"4309\",\"37\",\"1\",\"Training\",\"Stims/Figures/93-J-0-1.bmp\",\"mala:na\",\"Left\",\"37\",\"9\",\"11\",\"5\",\"S\",\"C\",\"139\"
\"\",\"\",\"approach-retreat\",\"143\",\"1018594\",\"0.0-143.0\",\"\",\"\",\"1-2\",\"4149\",\"40\",\"1\",\"Training\",\"Stims/Figures/144-C-30-3.bmp\",\"takata\",\"Up\",\"40\",\"9\",\"12\",\"5\",\"P\",\"C\",\"140\"
\"\",\"\",\"approach-retreat\",\"144\",\"1024954\",\"0.0-144.0\",\"\",\"\",\"1-2\",\"4848\",\"39\",\"1\",\"Training\",\"Stims/Figures/111-J-10-3.bmp\",\"ma:mana\",\"Right\",\"39\",\"9\",\"13\",\"5\",\"S\",\"C\",\"141\"
\"\",\"\",\"approach-retreat\",\"145\",\"1030937\",\"0.0-145.0\",\"\",\"\",\"1-2\",\"4471\",\"39\",\"1\",\"Training\",\"Stims/Figures/87-C-20-4.bmp\",\"pa:pa:ka\",\"Left\",\"39\",\"9\",\"14\",\"5\",\"P\",\"C\",\"142\"
\"\",\"\",\"approach-retreat\",\"146\",\"1036974\",\"0.0-146.0\",\"\",\"\",\"1-2\",\"4526\",\"39\",\"1\",\"Training\",\"Stims/Figures/85-J-0-2.bmp\",\"ma:la:na\",\"Right\",\"39\",\"9\",\"15\",\"5\",\"S\",\"C\",\"143\"
\"\",\"\",\"approach-retreat\",\"147\",\"1043002\",\"0.0-147.0\",\"\",\"\",\"1-2\",\"4517\",\"39\",\"1\",\"Training\",\"Stims/Figures/85-C-20-2.bmp\",\"ta:kata\",\"Left\",\"39\",\"9\",\"16\",\"5\",\"P\",\"C\",\"144\"
\"16023\",\"\",\"instructions\",\"148\",\"1059025\",\"0.0-148.0\",\"[{\"\"page_index\"\":0,\"\"viewing_time\"\":16021}]\",\"\",\"\",\"\",\"\",\"\",\"\",\"\",\"\",\"\",\"\",\"\",\"\",\"\",\"\",\"\",\"\"
\"\",\"\",\"approach-retreat\",\"149\",\"1066850\",\"0.0-149.0\",\"\",\"\",\"1-2\",\"6316\",\"39\",\"1\",\"Testing\",\"Stims/Figures/7-J-10-4.bmp\",\"nalana\",\"Right\",\"39\",\"1\",\"1\",\"5\",\"S\",\"C\",\"1\"
\"\",\"\",\"approach-retreat\",\"150\",\"1073444\",\"0.0-150.0\",\"\",\"\",\"1-2\",\"5084\",\"39\",\"1\",\"Testing\",\"Stims/Figures/144-C-30-3.bmp\",\"takata\",\"Left\",\"39\",\"1\",\"2\",\"5\",\"P\",\"C\",\"2\"
\"\",\"\",\"approach-retreat\",\"151\",\"1080223\",\"0.0-151.0\",\"\",\"\",\"1-2\",\"5267\",\"37\",\"1\",\"Testing\",\"Stims/Figures/93-C-30-1.bmp\",\"ta:kaka\",\"Right\",\"37\",\"1\",\"3\",\"5\",\"P\",\"C\",\"3\"
\"\",\"\",\"approach-retreat\",\"152\",\"1086376\",\"0.0-152.0\",\"\",\"\",\"1-2\",\"4644\",\"40\",\"1\",\"Testing\",\"Stims/Figures/7-C-20-4.bmp\",\"pakaka\",\"Up\",\"40\",\"1\",\"4\",\"5\",\"P\",\"C\",\"4\"
\"\",\"\",\"approach-retreat\",\"153\",\"1092208\",\"0.0-153.0\",\"\",\"\",\"1-2\",\"4322\",\"38\",\"1\",\"Testing\",\"Stims/Figures/87-J-10-4.bmp\",\"mamana\",\"Up\",\"38\",\"1\",\"5\",\"5\",\"S\",\"C\",\"5\"
\"\",\"\",\"approach-retreat\",\"154\",\"1098666\",\"0.0-154.0\",\"\",\"\",\"1-2\",\"4948\",\"40\",\"1\",\"Testing\",\"Stims/Figures/111-C-30-3.bmp\",\"papata\",\"Up\",\"40\",\"1\",\"6\",\"5\",\"P\",\"C\",\"6\"
\"\",\"\",\"approach-retreat\",\"155\",\"1105179\",\"0.0-155.0\",\"\",\"\",\"1-2\",\"5005\",\"38\",\"1\",\"Testing\",\"Stims/Figures/85-J-0-2.bmp\",\"ma:la:na\",\"Up\",\"38\",\"1\",\"7\",\"5\",\"S\",\"C\",\"7\"
\"\",\"\",\"approach-retreat\",\"156\",\"1111457\",\"0.0-156.0\",\"\",\"\",\"1-2\",\"4768\",\"39\",\"1\",\"Testing\",\"Stims/Figures/93-J-0-1.bmp\",\"mala:na\",\"Right\",\"39\",\"1\",\"8\",\"5\",\"S\",\"C\",\"8\"
\"\",\"\",\"approach-retreat\",\"157\",\"1117314\",\"0.0-157.0\",\"\",\"\",\"1-2\",\"4346\",\"37\",\"1\",\"Testing\",\"Stims/Figures/100-J-10-3.bmp\",\"mama:na\",\"Left\",\"37\",\"1\",\"9\",\"5\",\"S\",\"C\",\"9\"
\"\",\"\",\"approach-retreat\",\"158\",\"1123585\",\"0.0-158.0\",\"\",\"\",\"1-2\",\"4762\",\"40\",\"1\",\"Testing\",\"Stims/Figures/74-J-10-4.bmp\",\"ma:lala\",\"Down\",\"40\",\"1\",\"10\",\"5\",\"S\",\"C\",\"10\"
\"\",\"\",\"approach-retreat\",\"159\",\"1129533\",\"0.0-159.0\",\"\",\"\",\"1-2\",\"4439\",\"39\",\"1\",\"Testing\",\"Stims/Figures/86-J-0-1.bmp\",\"nama:na\",\"Right\",\"39\",\"1\",\"11\",\"5\",\"S\",\"C\",\"11\"
\"\",\"\",\"approach-retreat\",\"160\",\"1135190\",\"0.0-160.0\",\"\",\"\",\"1-2\",\"4149\",\"37\",\"1\",\"Testing\",\"Stims/Figures/144-J-10-3.bmp\",\"na:lana\",\"Left\",\"37\",\"1\",\"12\",\"5\",\"S\",\"C\",\"12\"
\"\",\"\",\"approach-retreat\",\"161\",\"1140894\",\"0.0-161.0\",\"\",\"\",\"1-2\",\"4195\",\"37\",\"1\",\"Testing\",\"Stims/Figures/94-C-20-2.bmp\",\"taka:ta\",\"Right\",\"37\",\"1\",\"13\",\"5\",\"P\",\"C\",\"13\"
\"\",\"\",\"approach-retreat\",\"162\",\"1146582\",\"0.0-162.0\",\"\",\"\",\"1-2\",\"4179\",\"39\",\"1\",\"Testing\",\"Stims/Figures/87-C-20-4.bmp\",\"pa:pa:ka\",\"Left\",\"39\",\"1\",\"14\",\"5\",\"P\",\"C\",\"14\"
\"\",\"\",\"approach-retreat\",\"163\",\"1152306\",\"0.0-163.0\",\"\",\"\",\"1-2\",\"4214\",\"40\",\"1\",\"Testing\",\"Stims/Figures/94-J-0-2.bmp\",\"ma:ma:na\",\"Down\",\"40\",\"1\",\"15\",\"5\",\"S\",\"C\",\"15\"
\"\",\"\",\"approach-retreat\",\"164\",\"1158015\",\"0.0-164.0\",\"\",\"\",\"1-2\",\"4199\",\"37\",\"1\",\"Testing\",\"Stims/Figures/86-C-30-1.bmp\",\"tapa:ka\",\"Right\",\"37\",\"1\",\"16\",\"5\",\"P\",\"C\",\"16\"
\"\",\"\",\"approach-retreat\",\"165\",\"1163858\",\"0.0-165.0\",\"\",\"\",\"1-2\",\"4332\",\"40\",\"0\",\"Testing\",\"Stims/Figures/118-C-20-2.bmp\",\"pa:kaka\",\"Down\",\"38\",\"1\",\"17\",\"5\",\"P\",\"C\",\"17\"
\"\",\"\",\"approach-retreat\",\"166\",\"1170446\",\"0.0-166.0\",\"\",\"\",\"1-2\",\"5077\",\"38\",\"1\",\"Testing\",\"Stims/Figures/74-C-20-4.bmp\",\"tapata\",\"Down\",\"38\",\"1\",\"18\",\"5\",\"P\",\"C\",\"18\"
\"\",\"\",\"approach-retreat\",\"167\",\"1176094\",\"0.0-167.0\",\"\",\"\",\"1-2\",\"4131\",\"40\",\"1\",\"Testing\",\"Stims/Figures/118-J-0-2.bmp\",\"ma:la:la\",\"Down\",\"40\",\"1\",\"19\",\"5\",\"S\",\"C\",\"19\"
\"\",\"\",\"approach-retreat\",\"168\",\"1182454\",\"0.0-168.0\",\"\",\"\",\"1-2\",\"4852\",\"39\",\"1\",\"Testing\",\"Stims/Figures/27-C-30-1.bmp\",\"pa:ka:ta\",\"Left\",\"39\",\"1\",\"20\",\"5\",\"P\",\"C\",\"20\"
\"\",\"\",\"approach-retreat\",\"169\",\"1188532\",\"0.0-169.0\",\"\",\"\",\"1-2\",\"4568\",\"40\",\"1\",\"Testing\",\"Stims/Figures/27-J-0-1.bmp\",\"mamala\",\"Down\",\"40\",\"1\",\"21\",\"5\",\"S\",\"C\",\"21\"
\"\",\"\",\"approach-retreat\",\"170\",\"1194664\",\"0.0-170.0\",\"\",\"\",\"1-2\",\"4623\",\"38\",\"0\",\"Testing\",\"Stims/Figures/100-C-30-3.bmp\",\"pa:ka:ka\",\"Up\",\"40\",\"1\",\"22\",\"5\",\"P\",\"C\",\"22\"
\"\",\"\",\"approach-retreat\",\"171\",\"1200446\",\"0.0-171.0\",\"\",\"\",\"1-2\",\"4272\",\"38\",\"1\",\"Testing\",\"Stims/Figures/111-J-10-3.bmp\",\"ma:mana\",\"Up\",\"38\",\"1\",\"23\",\"5\",\"S\",\"C\",\"23\"
\"\",\"\",\"approach-retreat\",\"172\",\"1206678\",\"0.0-172.0\",\"\",\"\",\"1-2\",\"4722\",\"37\",\"0\",\"Testing\",\"Stims/Figures/85-C-20-2.bmp\",\"ta:kata\",\"Left\",\"39\",\"1\",\"24\",\"5\",\"P\",\"C\",\"24\"
\"\",\"\",\"approach-retreat\",\"173\",\"1212336\",\"0.0-173.0\",\"\",\"\",\"1-2\",\"4149\",\"37\",\"1\",\"Testing\",\"Stims/Figures/118-C-20-2.bmp\",\"pa:kaka\",\"Right\",\"37\",\"2\",\"1\",\"5\",\"P\",\"C\",\"25\"
\"\",\"\",\"approach-retreat\",\"174\",\"1218693\",\"0.0-174.0\",\"\",\"\",\"1-2\",\"4847\",\"40\",\"1\",\"Testing\",\"Stims/Figures/118-J-0-2.bmp\",\"ma:la:la\",\"Down\",\"40\",\"2\",\"2\",\"5\",\"S\",\"C\",\"26\"
\"\",\"\",\"approach-retreat\",\"175\",\"1224390\",\"0.0-175.0\",\"\",\"\",\"1-2\",\"4187\",\"37\",\"0\",\"Testing\",\"Stims/Figures/74-C-20-4.bmp\",\"tapata\",\"Left\",\"39\",\"2\",\"3\",\"5\",\"P\",\"C\",\"27\"
\"\",\"\",\"approach-retreat\",\"176\",\"1230090\",\"0.0-176.0\",\"\",\"\",\"1-2\",\"4191\",\"39\",\"0\",\"Testing\",\"Stims/Figures/74-J-10-4.bmp\",\"ma:lala\",\"Left\",\"37\",\"2\",\"4\",\"5\",\"S\",\"C\",\"28\"
\"\",\"\",\"approach-retreat\",\"177\",\"1235900\",\"0.0-177.0\",\"\",\"\",\"1-2\",\"4301\",\"40\",\"1\",\"Testing\",\"Stims/Figures/87-C-20-4.bmp\",\"pa:pa:ka\",\"Up\",\"40\",\"2\",\"5\",\"5\",\"P\",\"C\",\"29\"
\"\",\"\",\"approach-retreat\",\"178\",\"1241591\",\"0.0-178.0\",\"\",\"\",\"1-2\",\"4182\",\"37\",\"1\",\"Testing\",\"Stims/Figures/86-C-30-1.bmp\",\"tapa:ka\",\"Right\",\"37\",\"2\",\"6\",\"5\",\"P\",\"C\",\"30\"
\"\",\"\",\"approach-retreat\",\"179\",\"1247352\",\"0.0-179.0\",\"\",\"\",\"1-2\",\"4253\",\"40\",\"1\",\"Testing\",\"Stims/Figures/93-C-30-1.bmp\",\"ta:kaka\",\"Up\",\"40\",\"2\",\"7\",\"5\",\"P\",\"C\",\"31\"
\"\",\"\",\"approach-retreat\",\"180\",\"1252947\",\"0.0-180.0\",\"\",\"\",\"1-2\",\"4087\",\"37\",\"1\",\"Testing\",\"Stims/Figures/86-J-0-1.bmp\",\"nama:na\",\"Left\",\"37\",\"2\",\"8\",\"5\",\"S\",\"C\",\"32\"
\"\",\"\",\"approach-retreat\",\"181\",\"1258626\",\"0.0-181.0\",\"\",\"\",\"1-2\",\"4168\",\"40\",\"1\",\"Testing\",\"Stims/Figures/100-C-30-3.bmp\",\"pa:ka:ka\",\"Up\",\"40\",\"2\",\"9\",\"5\",\"P\",\"C\",\"33\"
\"\",\"\",\"approach-retreat\",\"182\",\"1264611\",\"0.0-182.0\",\"\",\"\",\"1-2\",\"4476\",\"37\",\"1\",\"Testing\",\"Stims/Figures/87-J-10-4.bmp\",\"mamana\",\"Left\",\"37\",\"2\",\"10\",\"5\",\"S\",\"C\",\"34\"
\"\",\"\",\"approach-retreat\",\"183\",\"1270832\",\"0.0-183.0\",\"\",\"\",\"1-2\",\"4712\",\"37\",\"1\",\"Testing\",\"Stims/Figures/144-C-30-3.bmp\",\"takata\",\"Right\",\"37\",\"2\",\"11\",\"5\",\"P\",\"C\",\"35\"
\"\",\"\",\"approach-retreat\",\"184\",\"1276887\",\"0.0-184.0\",\"\",\"\",\"1-2\",\"4545\",\"37\",\"1\",\"Testing\",\"Stims/Figures/94-C-20-2.bmp\",\"taka:ta\",\"Right\",\"37\",\"2\",\"12\",\"5\",\"P\",\"C\",\"36\"
\"\",\"\",\"approach-retreat\",\"185\",\"1283047\",\"0.0-185.0\",\"\",\"\",\"1-2\",\"4651\",\"39\",\"1\",\"Testing\",\"Stims/Figures/85-J-0-2.bmp\",\"ma:la:na\",\"Right\",\"39\",\"2\",\"13\",\"5\",\"S\",\"C\",\"37\"
\"\",\"\",\"approach-retreat\",\"186\",\"1289570\",\"0.0-186.0\",\"\",\"\",\"1-2\",\"5014\",\"40\",\"0\",\"Testing\",\"Stims/Figures/85-C-20-2.bmp\",\"ta:kata\",\"Down\",\"38\",\"2\",\"14\",\"5\",\"P\",\"C\",\"38\"
\"\",\"\",\"approach-retreat\",\"187\",\"1295373\",\"0.0-187.0\",\"\",\"\",\"1-2\",\"4294\",\"40\",\"1\",\"Testing\",\"Stims/Figures/7-J-10-4.bmp\",\"nalana\",\"Down\",\"40\",\"2\",\"15\",\"5\",\"S\",\"C\",\"39\"
\"\",\"\",\"approach-retreat\",\"188\",\"1301125\",\"0.0-188.0\",\"\",\"\",\"1-2\",\"4241\",\"40\",\"1\",\"Testing\",\"Stims/Figures/27-J-0-1.bmp\",\"mamala\",\"Down\",\"40\",\"2\",\"16\",\"5\",\"S\",\"C\",\"40\"
\"\",\"\",\"approach-retreat\",\"189\",\"1307660\",\"0.0-189.0\",\"\",\"\",\"1-2\",\"5025\",\"39\",\"1\",\"Testing\",\"Stims/Figures/144-J-10-3.bmp\",\"na:lana\",\"Right\",\"39\",\"2\",\"17\",\"5\",\"S\",\"C\",\"41\"
\"\",\"\",\"approach-retreat\",\"190\",\"1313545\",\"0.0-190.0\",\"\",\"\",\"1-2\",\"4375\",\"38\",\"1\",\"Testing\",\"Stims/Figures/111-J-10-3.bmp\",\"ma:mana\",\"Up\",\"38\",\"2\",\"18\",\"5\",\"S\",\"C\",\"42\"
\"\",\"\",\"approach-retreat\",\"191\",\"1319605\",\"0.0-191.0\",\"\",\"\",\"1-2\",\"4552\",\"38\",\"1\",\"Testing\",\"Stims/Figures/27-C-30-1.bmp\",\"pa:ka:ta\",\"Down\",\"38\",\"2\",\"19\",\"5\",\"P\",\"C\",\"43\"
\"\",\"\",\"approach-retreat\",\"192\",\"1325977\",\"0.0-192.0\",\"\",\"\",\"1-2\",\"4863\",\"39\",\"1\",\"Testing\",\"Stims/Figures/111-C-30-3.bmp\",\"papata\",\"Left\",\"39\",\"2\",\"20\",\"5\",\"P\",\"C\",\"44\"
\"\",\"\",\"approach-retreat\",\"193\",\"1331832\",\"0.0-193.0\",\"\",\"\",\"1-2\",\"4347\",\"38\",\"1\",\"Testing\",\"Stims/Figures/93-J-0-1.bmp\",\"mala:na\",\"Up\",\"38\",\"2\",\"21\",\"5\",\"S\",\"C\",\"45\"
\"\",\"\",\"approach-retreat\",\"194\",\"1337654\",\"0.0-194.0\",\"\",\"\",\"1-2\",\"4313\",\"40\",\"1\",\"Testing\",\"Stims/Figures/94-J-0-2.bmp\",\"ma:ma:na\",\"Down\",\"40\",\"2\",\"22\",\"5\",\"S\",\"C\",\"46\"
\"\",\"\",\"approach-retreat\",\"195\",\"1343316\",\"0.0-195.0\",\"\",\"\",\"1-2\",\"4152\",\"39\",\"1\",\"Testing\",\"Stims/Figures/7-C-20-4.bmp\",\"pakaka\",\"Left\",\"39\",\"2\",\"23\",\"5\",\"P\",\"C\",\"47\"
\"\",\"\",\"approach-retreat\",\"196\",\"1349029\",\"0.0-196.0\",\"\",\"\",\"1-2\",\"4205\",\"38\",\"1\",\"Testing\",\"Stims/Figures/100-J-10-3.bmp\",\"mama:na\",\"Up\",\"38\",\"2\",\"24\",\"5\",\"S\",\"C\",\"48\"
\"\",\"\",\"approach-retreat\",\"197\",\"1354839\",\"0.0-197.0\",\"\",\"\",\"1-2\",\"4302\",\"37\",\"1\",\"Testing\",\"Stims/Figures/118-J-0-2.bmp\",\"ma:la:la\",\"Left\",\"37\",\"3\",\"1\",\"5\",\"S\",\"C\",\"49\"
\"\",\"\",\"approach-retreat\",\"198\",\"1360403\",\"0.0-198.0\",\"\",\"\",\"1-2\",\"4054\",\"37\",\"1\",\"Testing\",\"Stims/Figures/94-J-0-2.bmp\",\"ma:ma:na\",\"Left\",\"37\",\"3\",\"2\",\"5\",\"S\",\"C\",\"50\"
\"\",\"\",\"approach-retreat\",\"199\",\"1366093\",\"0.0-199.0\",\"\",\"\",\"1-2\",\"4180\",\"37\",\"1\",\"Testing\",\"Stims/Figures/100-C-30-3.bmp\",\"pa:ka:ka\",\"Right\",\"37\",\"3\",\"3\",\"5\",\"P\",\"C\",\"51\"
\"\",\"\",\"approach-retreat\",\"200\",\"1372208\",\"0.0-200.0\",\"\",\"\",\"1-2\",\"4606\",\"37\",\"1\",\"Testing\",\"Stims/Figures/144-C-30-3.bmp\",\"takata\",\"Right\",\"37\",\"3\",\"4\",\"5\",\"P\",\"C\",\"52\"
\"\",\"\",\"approach-retreat\",\"201\",\"1379107\",\"0.0-201.0\",\"\",\"\",\"1-2\",\"5389\",\"39\",\"1\",\"Testing\",\"Stims/Figures/93-J-0-1.bmp\",\"mala:na\",\"Right\",\"39\",\"3\",\"5\",\"5\",\"S\",\"C\",\"53\"
\"\",\"\",\"approach-retreat\",\"202\",\"1384822\",\"0.0-202.0\",\"\",\"\",\"1-2\",\"4206\",\"37\",\"0\",\"Testing\",\"Stims/Figures/7-J-10-4.bmp\",\"nalana\",\"Right\",\"39\",\"3\",\"6\",\"5\",\"S\",\"C\",\"54\"
\"\",\"\",\"approach-retreat\",\"203\",\"1390627\",\"0.0-203.0\",\"\",\"\",\"1-2\",\"4295\",\"40\",\"1\",\"Testing\",\"Stims/Figures/85-J-0-2.bmp\",\"ma:la:na\",\"Down\",\"40\",\"3\",\"7\",\"5\",\"S\",\"C\",\"55\"
\"\",\"\",\"approach-retreat\",\"204\",\"1396419\",\"0.0-204.0\",\"\",\"\",\"1-2\",\"4283\",\"39\",\"1\",\"Testing\",\"Stims/Figures/7-C-20-4.bmp\",\"pakaka\",\"Left\",\"39\",\"3\",\"8\",\"5\",\"P\",\"C\",\"56\"
\"\",\"\",\"approach-retreat\",\"205\",\"1402475\",\"0.0-205.0\",\"\",\"\",\"1-2\",\"4547\",\"39\",\"1\",\"Testing\",\"Stims/Figures/87-J-10-4.bmp\",\"mamana\",\"Right\",\"39\",\"3\",\"9\",\"5\",\"S\",\"C\",\"57\"
\"\",\"\",\"approach-retreat\",\"206\",\"1408643\",\"0.0-206.0\",\"\",\"\",\"1-2\",\"4659\",\"40\",\"0\",\"Testing\",\"Stims/Figures/87-C-20-4.bmp\",\"pa:pa:ka\",\"Down\",\"38\",\"3\",\"10\",\"5\",\"P\",\"C\",\"58\"
\"\",\"\",\"approach-retreat\",\"207\",\"1414373\",\"0.0-207.0\",\"\",\"\",\"1-2\",\"4221\",\"39\",\"1\",\"Testing\",\"Stims/Figures/111-C-30-3.bmp\",\"papata\",\"Left\",\"39\",\"3\",\"11\",\"5\",\"P\",\"C\",\"59\"
\"\",\"\",\"approach-retreat\",\"208\",\"1420092\",\"0.0-208.0\",\"\",\"\",\"1-2\",\"4210\",\"37\",\"1\",\"Testing\",\"Stims/Figures/111-J-10-3.bmp\",\"ma:mana\",\"Left\",\"37\",\"3\",\"12\",\"5\",\"S\",\"C\",\"60\"
\"\",\"\",\"approach-retreat\",\"209\",\"1426080\",\"0.0-209.0\",\"\",\"\",\"1-2\",\"4478\",\"38\",\"1\",\"Testing\",\"Stims/Figures/100-J-10-3.bmp\",\"mama:na\",\"Up\",\"38\",\"3\",\"13\",\"5\",\"S\",\"C\",\"61\"
\"\",\"\",\"approach-retreat\",\"210\",\"1431751\",\"0.0-210.0\",\"\",\"\",\"1-2\",\"4163\",\"38\",\"1\",\"Testing\",\"Stims/Figures/86-J-0-1.bmp\",\"nama:na\",\"Up\",\"38\",\"3\",\"14\",\"5\",\"S\",\"C\",\"62\"
\"\",\"\",\"approach-retreat\",\"211\",\"1440554\",\"0.0-211.0\",\"\",\"\",\"1-2\",\"7291\",\"38\",\"1\",\"Testing\",\"Stims/Figures/144-J-10-3.bmp\",\"na:lana\",\"Up\",\"38\",\"3\",\"15\",\"5\",\"S\",\"C\",\"63\"
\"\",\"\",\"approach-retreat\",\"212\",\"1446394\",\"0.0-212.0\",\"\",\"\",\"1-2\",\"4331\",\"40\",\"1\",\"Testing\",\"Stims/Figures/27-J-0-1.bmp\",\"mamala\",\"Down\",\"40\",\"3\",\"16\",\"5\",\"S\",\"C\",\"64\"
\"\",\"\",\"approach-retreat\",\"213\",\"1452316\",\"0.0-213.0\",\"\",\"\",\"1-2\",\"4412\",\"38\",\"1\",\"Testing\",\"Stims/Figures/93-C-30-1.bmp\",\"ta:kaka\",\"Down\",\"38\",\"3\",\"17\",\"5\",\"P\",\"C\",\"65\"
\"\",\"\",\"approach-retreat\",\"214\",\"1458086\",\"0.0-214.0\",\"\",\"\",\"1-2\",\"4262\",\"40\",\"1\",\"Testing\",\"Stims/Figures/27-C-30-1.bmp\",\"pa:ka:ta\",\"Up\",\"40\",\"3\",\"18\",\"5\",\"P\",\"C\",\"66\"
\"\",\"\",\"approach-retreat\",\"215\",\"1463860\",\"0.0-215.0\",\"\",\"\",\"1-2\",\"4263\",\"40\",\"1\",\"Testing\",\"Stims/Figures/118-C-20-2.bmp\",\"pa:kaka\",\"Up\",\"40\",\"3\",\"19\",\"5\",\"P\",\"C\",\"67\"
\"\",\"\",\"approach-retreat\",\"216\",\"1469956\",\"0.0-216.0\",\"\",\"\",\"1-2\",\"4588\",\"40\",\"1\",\"Testing\",\"Stims/Figures/85-C-20-2.bmp\",\"ta:kata\",\"Up\",\"40\",\"3\",\"20\",\"5\",\"P\",\"C\",\"68\"
\"\",\"\",\"approach-retreat\",\"217\",\"1475827\",\"0.0-217.0\",\"\",\"\",\"1-2\",\"4362\",\"38\",\"1\",\"Testing\",\"Stims/Figures/94-C-20-2.bmp\",\"taka:ta\",\"Down\",\"38\",\"3\",\"21\",\"5\",\"P\",\"C\",\"69\"
\"\",\"\",\"approach-retreat\",\"218\",\"1482050\",\"0.0-218.0\",\"\",\"\",\"1-2\",\"4714\",\"39\",\"1\",\"Testing\",\"Stims/Figures/74-C-20-4.bmp\",\"tapata\",\"Left\",\"39\",\"3\",\"22\",\"5\",\"P\",\"C\",\"70\"
\"\",\"\",\"approach-retreat\",\"219\",\"1487739\",\"0.0-219.0\",\"\",\"\",\"1-2\",\"4179\",\"38\",\"1\",\"Testing\",\"Stims/Figures/86-C-30-1.bmp\",\"tapa:ka\",\"Down\",\"38\",\"3\",\"23\",\"5\",\"P\",\"C\",\"71\"
\"\",\"\",\"approach-retreat\",\"220\",\"1494107\",\"0.0-220.0\",\"\",\"\",\"1-2\",\"4859\",\"39\",\"1\",\"Testing\",\"Stims/Figures/74-J-10-4.bmp\",\"ma:lala\",\"Right\",\"39\",\"3\",\"24\",\"5\",\"S\",\"C\",\"72\"
\"\",\"\",\"approach-retreat\",\"221\",\"1499877\",\"0.0-221.0\",\"\",\"\",\"1-2\",\"4260\",\"39\",\"1\",\"Testing\",\"Stims/Figures/111-J-10-3.bmp\",\"ma:mana\",\"Right\",\"39\",\"4\",\"1\",\"5\",\"S\",\"C\",\"73\"
\"\",\"\",\"approach-retreat\",\"222\",\"1506355\",\"0.0-222.0\",\"\",\"\",\"1-2\",\"4968\",\"40\",\"1\",\"Testing\",\"Stims/Figures/27-J-0-1.bmp\",\"mamala\",\"Down\",\"40\",\"4\",\"2\",\"5\",\"S\",\"C\",\"74\"
\"\",\"\",\"approach-retreat\",\"223\",\"1511860\",\"0.0-223.0\",\"\",\"\",\"1-2\",\"3996\",\"39\",\"1\",\"Testing\",\"Stims/Figures/93-C-30-1.bmp\",\"ta:kaka\",\"Left\",\"39\",\"4\",\"3\",\"5\",\"P\",\"C\",\"75\"
\"\",\"\",\"approach-retreat\",\"224\",\"1517432\",\"0.0-224.0\",\"\",\"\",\"1-2\",\"4062\",\"40\",\"1\",\"Testing\",\"Stims/Figures/93-J-0-1.bmp\",\"mala:na\",\"Down\",\"40\",\"4\",\"4\",\"5\",\"S\",\"C\",\"76\"
\"\",\"\",\"approach-retreat\",\"225\",\"1522962\",\"0.0-225.0\",\"\",\"\",\"1-2\",\"4021\",\"37\",\"1\",\"Testing\",\"Stims/Figures/7-J-10-4.bmp\",\"nalana\",\"Left\",\"37\",\"4\",\"5\",\"5\",\"S\",\"C\",\"77\"
\"\",\"\",\"approach-retreat\",\"226\",\"1528604\",\"0.0-226.0\",\"\",\"\",\"1-2\",\"4133\",\"40\",\"1\",\"Testing\",\"Stims/Figures/74-J-10-4.bmp\",\"ma:lala\",\"Down\",\"40\",\"4\",\"6\",\"5\",\"S\",\"C\",\"78\"
\"\",\"\",\"approach-retreat\",\"227\",\"1535120\",\"0.0-227.0\",\"\",\"\",\"1-2\",\"5006\",\"38\",\"0\",\"Testing\",\"Stims/Figures/85-C-20-2.bmp\",\"ta:kata\",\"Up\",\"40\",\"4\",\"7\",\"5\",\"P\",\"C\",\"79\"
\"\",\"\",\"approach-retreat\",\"228\",\"1540864\",\"0.0-228.0\",\"\",\"\",\"1-2\",\"4236\",\"40\",\"1\",\"Testing\",\"Stims/Figures/27-C-30-1.bmp\",\"pa:ka:ta\",\"Up\",\"40\",\"4\",\"8\",\"5\",\"P\",\"C\",\"80\"
\"\",\"\",\"approach-retreat\",\"229\",\"1547192\",\"0.0-229.0\",\"\",\"\",\"1-2\",\"4820\",\"39\",\"0\",\"Testing\",\"Stims/Figures/118-C-20-2.bmp\",\"pa:kaka\",\"Right\",\"37\",\"4\",\"9\",\"5\",\"P\",\"C\",\"81\"
\"\",\"\",\"approach-retreat\",\"230\",\"1552905\",\"0.0-230.0\",\"\",\"\",\"1-2\",\"4204\",\"40\",\"1\",\"Testing\",\"Stims/Figures/7-C-20-4.bmp\",\"pakaka\",\"Up\",\"40\",\"4\",\"10\",\"5\",\"P\",\"C\",\"82\"
\"\",\"\",\"approach-retreat\",\"231\",\"1558486\",\"0.0-231.0\",\"\",\"\",\"1-2\",\"4071\",\"39\",\"1\",\"Testing\",\"Stims/Figures/100-J-10-3.bmp\",\"mama:na\",\"Right\",\"39\",\"4\",\"11\",\"5\",\"S\",\"C\",\"83\"
\"\",\"\",\"approach-retreat\",\"232\",\"1564331\",\"0.0-232.0\",\"\",\"\",\"1-2\",\"4336\",\"37\",\"1\",\"Testing\",\"Stims/Figures/144-C-30-3.bmp\",\"takata\",\"Right\",\"37\",\"4\",\"12\",\"5\",\"P\",\"C\",\"84\"
\"\",\"\",\"approach-retreat\",\"233\",\"1570289\",\"0.0-233.0\",\"\",\"\",\"1-2\",\"4448\",\"37\",\"1\",\"Testing\",\"Stims/Figures/94-J-0-2.bmp\",\"ma:ma:na\",\"Left\",\"37\",\"4\",\"13\",\"5\",\"S\",\"C\",\"85\"
\"\",\"\",\"approach-retreat\",\"234\",\"1575996\",\"0.0-234.0\",\"\",\"\",\"1-2\",\"4197\",\"38\",\"1\",\"Testing\",\"Stims/Figures/74-C-20-4.bmp\",\"tapata\",\"Down\",\"38\",\"4\",\"14\",\"5\",\"P\",\"C\",\"86\"
\"\",\"\",\"approach-retreat\",\"235\",\"1581577\",\"0.0-235.0\",\"\",\"\",\"1-2\",\"4072\",\"39\",\"1\",\"Testing\",\"Stims/Figures/87-C-20-4.bmp\",\"pa:pa:ka\",\"Left\",\"39\",\"4\",\"15\",\"5\",\"P\",\"C\",\"87\"
\"\",\"\",\"approach-retreat\",\"236\",\"1587308\",\"0.0-236.0\",\"\",\"\",\"1-2\",\"4221\",\"37\",\"1\",\"Testing\",\"Stims/Figures/118-J-0-2.bmp\",\"ma:la:la\",\"Left\",\"37\",\"4\",\"16\",\"5\",\"S\",\"C\",\"88\"
\"\",\"\",\"approach-retreat\",\"237\",\"1593347\",\"0.0-237.0\",\"\",\"\",\"1-2\",\"4531\",\"39\",\"1\",\"Testing\",\"Stims/Figures/86-J-0-1.bmp\",\"nama:na\",\"Right\",\"39\",\"4\",\"17\",\"5\",\"S\",\"C\",\"89\"
\"\",\"\",\"approach-retreat\",\"238\",\"1598948\",\"0.0-238.0\",\"\",\"\",\"1-2\",\"4093\",\"37\",\"1\",\"Testing\",\"Stims/Figures/86-C-30-1.bmp\",\"tapa:ka\",\"Right\",\"37\",\"4\",\"18\",\"5\",\"P\",\"C\",\"90\"
\"\",\"\",\"approach-retreat\",\"239\",\"1605313\",\"0.0-239.0\",\"\",\"\",\"1-2\",\"4854\",\"38\",\"1\",\"Testing\",\"Stims/Figures/94-C-20-2.bmp\",\"taka:ta\",\"Down\",\"38\",\"4\",\"19\",\"5\",\"P\",\"C\",\"91\"
\"\",\"\",\"approach-retreat\",\"240\",\"1610975\",\"0.0-240.0\",\"\",\"\",\"1-2\",\"4154\",\"38\",\"1\",\"Testing\",\"Stims/Figures/144-J-10-3.bmp\",\"na:lana\",\"Up\",\"38\",\"4\",\"20\",\"5\",\"S\",\"C\",\"92\"
\"\",\"\",\"approach-retreat\",\"241\",\"1616943\",\"0.0-241.0\",\"\",\"\",\"1-2\",\"4458\",\"40\",\"1\",\"Testing\",\"Stims/Figures/100-C-30-3.bmp\",\"pa:ka:ka\",\"Up\",\"40\",\"4\",\"21\",\"5\",\"P\",\"C\",\"93\"
\"\",\"\",\"approach-retreat\",\"242\",\"1622885\",\"0.0-242.0\",\"\",\"\",\"1-2\",\"4433\",\"40\",\"1\",\"Testing\",\"Stims/Figures/87-J-10-4.bmp\",\"mamana\",\"Down\",\"40\",\"4\",\"22\",\"5\",\"S\",\"C\",\"94\"
\"\",\"\",\"approach-retreat\",\"243\",\"1629461\",\"0.0-243.0\",\"\",\"\",\"1-2\",\"5068\",\"38\",\"1\",\"Testing\",\"Stims/Figures/85-J-0-2.bmp\",\"ma:la:na\",\"Up\",\"38\",\"4\",\"23\",\"5\",\"S\",\"C\",\"95\"
\"\",\"\",\"approach-retreat\",\"244\",\"1635902\",\"0.0-244.0\",\"\",\"\",\"1-2\",\"4931\",\"39\",\"1\",\"Testing\",\"Stims/Figures/111-C-30-3.bmp\",\"papata\",\"Left\",\"39\",\"4\",\"24\",\"5\",\"P\",\"C\",\"96\"
\"36679\",\"\",\"survey-text\",\"245\",\"1672590\",\"0.0-245.0\",\"\",\"{\"\"Q0\"\":\"\"PS160067\"\"}\",\"\",\"\",\"\",\"\",\"\",\"\",\"\",\"\",\"\",\"\",\"\",\"\",\"\",\"\",\"\"
