\"rt\",\"key_press\",\"trial_type\",\"trial_index\",\"time_elapsed\",\"internal_node_id\",\"view_history\",\"responses\",\"Id\",\"Rt\",\"ResKeyCode\",\"ResCorr\",\"TrialType2\",\"Image\",\"Label\",\"Location\",\"CorrectResponse\",\"Block\",\"BlockTrial\",\"Condition\",\"LabelType\",\"Subcondition\",\"trialNum\"
\"55846\",\"32\",\"text\",\"0\",\"55858\",\"0.0-0.0-0.0\",\"\",\"\",\"\",\"\",\"\",\"\",\"\",\"\",\"\",\"\",\"\",\"\",\"\",\"\",\"\",\"\",\"\"
\"41368\",\"\",\"instructions\",\"1\",\"97230\",\"0.0-1.0\",\"[{\"\"page_index\"\":0,\"\"viewing_time\"\":41368}]\",\"\",\"\",\"\",\"\",\"\",\"\",\"\",\"\",\"\",\"\",\"\",\"\",\"\",\"\",\"\",\"\"
\"20622\",\"\",\"survey-multi-choice\",\"2\",\"117895\",\"0.0-2.0\",\"\",\"{\"\"Q0\"\":\"\"Da\"\",\"\"Q1\"\":\"\"Da\"\",\"\"Q2\"\":\"\"Da\"\",\"\"Q3\"\":\"\"Da\"\",\"\"Q4\"\":\"\"Da\"\",\"\"Q5\"\":\"\"Da\"\"}\",\"\",\"\",\"\",\"\",\"\",\"\",\"\",\"\",\"\",\"\",\"\",\"\",\"\",\"\",\"\"
\"\",\"\",\"bio\",\"3\",\"125415\",\"0.0-3.0\",\"\",\"{\"\"age\"\":\"\"21\"\",\"\"gender\"\":\"\"f\"\",\"\"specify\"\":\"\"\"\"}\",\"\",\"\",\"\",\"\",\"\",\"\",\"\",\"\",\"\",\"\",\"\",\"\",\"\",\"\",\"\"
\"\",\"\",\"approach-retreat\",\"4\",\"136815\",\"0.0-4.0\",\"\",\"\",\"2-5\",\"9887\",\"38\",\"1\",\"Training\",\"Stims/Figures/86-C-30-1.bmp\",\"na:la:na\",\"Down\",\"38\",\"1\",\"1\",\"1\",\"S\",\"C\",\"1\"
\"\",\"\",\"approach-retreat\",\"5\",\"143259\",\"0.0-5.0\",\"\",\"\",\"2-5\",\"4936\",\"40\",\"1\",\"Training\",\"Stims/Figures/93-C-30-1.bmp\",\"na:la:na\",\"Up\",\"40\",\"1\",\"2\",\"1\",\"S\",\"C\",\"2\"
\"\",\"\",\"approach-retreat\",\"6\",\"149610\",\"0.0-6.0\",\"\",\"\",\"2-5\",\"4843\",\"38\",\"0\",\"Training\",\"Stims/Figures/86-J-0-1.bmp\",\"pakaka\",\"Down\",\"40\",\"1\",\"3\",\"1\",\"P\",\"C\",\"3\"
\"\",\"\",\"approach-retreat\",\"7\",\"155710\",\"0.0-7.0\",\"\",\"\",\"2-5\",\"4583\",\"40\",\"1\",\"Training\",\"Stims/Figures/93-J-0-1.bmp\",\"pakaka\",\"Down\",\"40\",\"1\",\"4\",\"1\",\"P\",\"C\",\"4\"
\"\",\"\",\"approach-retreat\",\"8\",\"161924\",\"0.0-8.0\",\"\",\"\",\"2-5\",\"4705\",\"38\",\"1\",\"Training\",\"Stims/Figures/19-J-10-4.bmp\",\"pakaka\",\"Up\",\"38\",\"1\",\"5\",\"1\",\"P\",\"C\",\"5\"
\"\",\"\",\"approach-retreat\",\"9\",\"167980\",\"0.0-9.0\",\"\",\"\",\"2-5\",\"4546\",\"37\",\"1\",\"Training\",\"Stims/Figures/144-J-10-3.bmp\",\"pakaka\",\"Left\",\"37\",\"1\",\"6\",\"1\",\"P\",\"C\",\"6\"
\"\",\"\",\"approach-retreat\",\"10\",\"173969\",\"0.0-10.0\",\"\",\"\",\"2-5\",\"4480\",\"39\",\"1\",\"Training\",\"Stims/Figures/100-J-10-3.bmp\",\"pakaka\",\"Right\",\"39\",\"1\",\"7\",\"1\",\"P\",\"C\",\"7\"
\"\",\"\",\"approach-retreat\",\"11\",\"179840\",\"0.0-11.0\",\"\",\"\",\"2-5\",\"4363\",\"40\",\"1\",\"Training\",\"Stims/Figures/87-J-10-4.bmp\",\"pakaka\",\"Down\",\"40\",\"1\",\"8\",\"1\",\"P\",\"C\",\"8\"
\"\",\"\",\"approach-retreat\",\"12\",\"186363\",\"0.0-12.0\",\"\",\"\",\"2-5\",\"5011\",\"37\",\"1\",\"Training\",\"Stims/Figures/144-C-30-3.bmp\",\"na:la:na\",\"Right\",\"37\",\"1\",\"9\",\"1\",\"S\",\"C\",\"9\"
\"\",\"\",\"approach-retreat\",\"13\",\"192233\",\"0.0-13.0\",\"\",\"\",\"2-5\",\"4358\",\"39\",\"1\",\"Training\",\"Stims/Figures/118-C-20-2.bmp\",\"na:la:na\",\"Left\",\"39\",\"1\",\"10\",\"1\",\"S\",\"C\",\"10\"
\"\",\"\",\"approach-retreat\",\"14\",\"198705\",\"0.0-14.0\",\"\",\"\",\"2-5\",\"4964\",\"37\",\"1\",\"Training\",\"Stims/Figures/118-J-0-2.bmp\",\"pakaka\",\"Left\",\"37\",\"1\",\"11\",\"1\",\"P\",\"C\",\"11\"
\"\",\"\",\"approach-retreat\",\"15\",\"204565\",\"0.0-15.0\",\"\",\"\",\"2-5\",\"4353\",\"37\",\"1\",\"Training\",\"Stims/Figures/94-C-20-2.bmp\",\"na:la:na\",\"Right\",\"37\",\"1\",\"12\",\"1\",\"S\",\"C\",\"12\"
\"\",\"\",\"approach-retreat\",\"16\",\"210785\",\"0.0-16.0\",\"\",\"\",\"2-5\",\"4711\",\"40\",\"1\",\"Training\",\"Stims/Figures/19-C-20-4.bmp\",\"na:la:na\",\"Up\",\"40\",\"1\",\"13\",\"1\",\"S\",\"C\",\"13\"
\"\",\"\",\"approach-retreat\",\"17\",\"217285\",\"0.0-17.0\",\"\",\"\",\"2-5\",\"4992\",\"39\",\"1\",\"Training\",\"Stims/Figures/87-C-20-4.bmp\",\"na:la:na\",\"Left\",\"39\",\"1\",\"14\",\"1\",\"S\",\"C\",\"14\"
\"\",\"\",\"approach-retreat\",\"18\",\"223182\",\"0.0-18.0\",\"\",\"\",\"2-5\",\"4389\",\"39\",\"1\",\"Training\",\"Stims/Figures/94-J-0-2.bmp\",\"pakaka\",\"Right\",\"39\",\"1\",\"15\",\"1\",\"P\",\"C\",\"15\"
\"\",\"\",\"approach-retreat\",\"19\",\"229343\",\"0.0-19.0\",\"\",\"\",\"2-5\",\"4652\",\"40\",\"1\",\"Training\",\"Stims/Figures/100-C-30-3.bmp\",\"na:la:na\",\"Up\",\"40\",\"1\",\"16\",\"1\",\"S\",\"C\",\"16\"
\"\",\"\",\"approach-retreat\",\"20\",\"235577\",\"0.0-20.0\",\"\",\"\",\"2-5\",\"4726\",\"37\",\"1\",\"Training\",\"Stims/Figures/19-C-20-4.bmp\",\"na:la:na\",\"Right\",\"37\",\"2\",\"1\",\"1\",\"S\",\"C\",\"17\"
\"\",\"\",\"approach-retreat\",\"21\",\"241433\",\"0.0-21.0\",\"\",\"\",\"2-5\",\"4348\",\"40\",\"1\",\"Training\",\"Stims/Figures/19-J-10-4.bmp\",\"pakaka\",\"Down\",\"40\",\"2\",\"2\",\"1\",\"P\",\"C\",\"18\"
\"\",\"\",\"approach-retreat\",\"22\",\"247617\",\"0.0-22.0\",\"\",\"\",\"2-5\",\"4676\",\"39\",\"1\",\"Training\",\"Stims/Figures/144-J-10-3.bmp\",\"pakaka\",\"Right\",\"39\",\"2\",\"3\",\"1\",\"P\",\"C\",\"19\"
\"\",\"\",\"approach-retreat\",\"23\",\"253594\",\"0.0-23.0\",\"\",\"\",\"2-5\",\"4468\",\"40\",\"1\",\"Training\",\"Stims/Figures/93-J-0-1.bmp\",\"pakaka\",\"Down\",\"40\",\"2\",\"4\",\"1\",\"P\",\"C\",\"20\"
\"\",\"\",\"approach-retreat\",\"24\",\"260561\",\"0.0-24.0\",\"\",\"\",\"2-5\",\"5460\",\"40\",\"1\",\"Training\",\"Stims/Figures/86-C-30-1.bmp\",\"na:la:na\",\"Up\",\"40\",\"2\",\"5\",\"1\",\"S\",\"C\",\"21\"
\"\",\"\",\"approach-retreat\",\"25\",\"267405\",\"0.0-25.0\",\"\",\"\",\"2-5\",\"5332\",\"37\",\"1\",\"Training\",\"Stims/Figures/93-C-30-1.bmp\",\"na:la:na\",\"Right\",\"37\",\"2\",\"6\",\"1\",\"S\",\"C\",\"22\"
\"\",\"\",\"approach-retreat\",\"26\",\"275517\",\"0.0-26.0\",\"\",\"\",\"2-5\",\"6604\",\"38\",\"1\",\"Training\",\"Stims/Figures/118-J-0-2.bmp\",\"pakaka\",\"Up\",\"38\",\"2\",\"7\",\"1\",\"P\",\"C\",\"23\"
\"\",\"\",\"approach-retreat\",\"27\",\"281296\",\"0.0-27.0\",\"\",\"\",\"2-5\",\"4269\",\"38\",\"1\",\"Training\",\"Stims/Figures/94-C-20-2.bmp\",\"na:la:na\",\"Down\",\"38\",\"2\",\"8\",\"1\",\"S\",\"C\",\"24\"
\"\",\"\",\"approach-retreat\",\"28\",\"287076\",\"0.0-28.0\",\"\",\"\",\"2-5\",\"4272\",\"39\",\"1\",\"Training\",\"Stims/Figures/87-J-10-4.bmp\",\"pakaka\",\"Right\",\"39\",\"2\",\"9\",\"1\",\"P\",\"C\",\"25\"
\"\",\"\",\"approach-retreat\",\"29\",\"292998\",\"0.0-29.0\",\"\",\"\",\"2-5\",\"4413\",\"37\",\"1\",\"Training\",\"Stims/Figures/100-J-10-3.bmp\",\"pakaka\",\"Left\",\"37\",\"2\",\"10\",\"1\",\"P\",\"C\",\"26\"
\"\",\"\",\"approach-retreat\",\"30\",\"298930\",\"0.0-30.0\",\"\",\"\",\"2-5\",\"4420\",\"39\",\"1\",\"Training\",\"Stims/Figures/87-C-20-4.bmp\",\"na:la:na\",\"Left\",\"39\",\"2\",\"11\",\"1\",\"S\",\"C\",\"27\"
\"\",\"\",\"approach-retreat\",\"31\",\"305391\",\"0.0-31.0\",\"\",\"\",\"2-5\",\"4953\",\"38\",\"1\",\"Training\",\"Stims/Figures/100-C-30-3.bmp\",\"na:la:na\",\"Down\",\"38\",\"2\",\"12\",\"1\",\"S\",\"C\",\"28\"
\"\",\"\",\"approach-retreat\",\"32\",\"311111\",\"0.0-32.0\",\"\",\"\",\"2-5\",\"4212\",\"40\",\"1\",\"Training\",\"Stims/Figures/144-C-30-3.bmp\",\"na:la:na\",\"Up\",\"40\",\"2\",\"13\",\"1\",\"S\",\"C\",\"29\"
\"\",\"\",\"approach-retreat\",\"33\",\"316669\",\"0.0-33.0\",\"\",\"\",\"2-5\",\"4048\",\"40\",\"1\",\"Training\",\"Stims/Figures/118-C-20-2.bmp\",\"na:la:na\",\"Up\",\"40\",\"2\",\"14\",\"1\",\"S\",\"C\",\"30\"
\"\",\"\",\"approach-retreat\",\"34\",\"323111\",\"0.0-34.0\",\"\",\"\",\"2-5\",\"4932\",\"37\",\"1\",\"Training\",\"Stims/Figures/94-J-0-2.bmp\",\"pakaka\",\"Left\",\"37\",\"2\",\"15\",\"1\",\"P\",\"C\",\"31\"
\"\",\"\",\"approach-retreat\",\"35\",\"329014\",\"0.0-35.0\",\"\",\"\",\"2-5\",\"4396\",\"37\",\"1\",\"Training\",\"Stims/Figures/86-J-0-1.bmp\",\"pakaka\",\"Left\",\"37\",\"2\",\"16\",\"1\",\"P\",\"C\",\"32\"
\"\",\"\",\"approach-retreat\",\"36\",\"334834\",\"0.0-36.0\",\"\",\"\",\"2-5\",\"4311\",\"39\",\"1\",\"Training\",\"Stims/Figures/144-C-30-3.bmp\",\"na:la:na\",\"Left\",\"39\",\"3\",\"1\",\"1\",\"S\",\"C\",\"33\"
\"\",\"\",\"approach-retreat\",\"37\",\"340680\",\"0.0-37.0\",\"\",\"\",\"2-5\",\"4337\",\"39\",\"1\",\"Training\",\"Stims/Figures/19-J-10-4.bmp\",\"pakaka\",\"Right\",\"39\",\"3\",\"2\",\"1\",\"P\",\"C\",\"34\"
\"\",\"\",\"approach-retreat\",\"38\",\"346412\",\"0.0-38.0\",\"\",\"\",\"2-5\",\"4220\",\"38\",\"1\",\"Training\",\"Stims/Figures/86-J-0-1.bmp\",\"pakaka\",\"Up\",\"38\",\"3\",\"3\",\"1\",\"P\",\"C\",\"35\"
\"\",\"\",\"approach-retreat\",\"39\",\"352188\",\"0.0-39.0\",\"\",\"\",\"2-5\",\"4255\",\"40\",\"1\",\"Training\",\"Stims/Figures/144-J-10-3.bmp\",\"pakaka\",\"Down\",\"40\",\"3\",\"4\",\"1\",\"P\",\"C\",\"36\"
\"\",\"\",\"approach-retreat\",\"40\",\"358143\",\"0.0-40.0\",\"\",\"\",\"2-5\",\"4447\",\"40\",\"1\",\"Training\",\"Stims/Figures/118-C-20-2.bmp\",\"na:la:na\",\"Up\",\"40\",\"3\",\"5\",\"1\",\"S\",\"C\",\"37\"
\"\",\"\",\"approach-retreat\",\"41\",\"363903\",\"0.0-41.0\",\"\",\"\",\"2-5\",\"4252\",\"38\",\"1\",\"Training\",\"Stims/Figures/86-C-30-1.bmp\",\"na:la:na\",\"Down\",\"38\",\"3\",\"6\",\"1\",\"S\",\"C\",\"38\"
\"\",\"\",\"approach-retreat\",\"42\",\"369619\",\"0.0-42.0\",\"\",\"\",\"2-5\",\"4204\",\"39\",\"1\",\"Training\",\"Stims/Figures/94-C-20-2.bmp\",\"na:la:na\",\"Left\",\"39\",\"3\",\"7\",\"1\",\"S\",\"C\",\"39\"
\"\",\"\",\"approach-retreat\",\"43\",\"375327\",\"0.0-43.0\",\"\",\"\",\"2-5\",\"4199\",\"37\",\"1\",\"Training\",\"Stims/Figures/93-C-30-1.bmp\",\"na:la:na\",\"Right\",\"37\",\"3\",\"8\",\"1\",\"S\",\"C\",\"40\"
\"\",\"\",\"approach-retreat\",\"44\",\"381107\",\"0.0-44.0\",\"\",\"\",\"2-5\",\"4271\",\"37\",\"1\",\"Training\",\"Stims/Figures/118-J-0-2.bmp\",\"pakaka\",\"Left\",\"37\",\"3\",\"9\",\"1\",\"P\",\"C\",\"41\"
\"\",\"\",\"approach-retreat\",\"45\",\"387583\",\"0.0-45.0\",\"\",\"\",\"2-5\",\"4968\",\"39\",\"1\",\"Training\",\"Stims/Figures/87-J-10-4.bmp\",\"pakaka\",\"Right\",\"39\",\"3\",\"10\",\"1\",\"P\",\"C\",\"42\"
\"\",\"\",\"approach-retreat\",\"46\",\"393978\",\"0.0-46.0\",\"\",\"\",\"2-5\",\"4884\",\"39\",\"1\",\"Training\",\"Stims/Figures/100-J-10-3.bmp\",\"pakaka\",\"Right\",\"39\",\"3\",\"11\",\"1\",\"P\",\"C\",\"43\"
\"\",\"\",\"approach-retreat\",\"47\",\"399788\",\"0.0-47.0\",\"\",\"\",\"2-5\",\"4299\",\"38\",\"1\",\"Training\",\"Stims/Figures/19-C-20-4.bmp\",\"na:la:na\",\"Down\",\"38\",\"3\",\"12\",\"1\",\"S\",\"C\",\"44\"
\"\",\"\",\"approach-retreat\",\"48\",\"407036\",\"0.0-48.0\",\"\",\"\",\"2-5\",\"5741\",\"38\",\"1\",\"Training\",\"Stims/Figures/93-J-0-1.bmp\",\"pakaka\",\"Up\",\"38\",\"3\",\"13\",\"1\",\"P\",\"C\",\"45\"
\"\",\"\",\"approach-retreat\",\"49\",\"413460\",\"0.0-49.0\",\"\",\"\",\"2-5\",\"4912\",\"40\",\"1\",\"Training\",\"Stims/Figures/94-J-0-2.bmp\",\"pakaka\",\"Down\",\"40\",\"3\",\"14\",\"1\",\"P\",\"C\",\"46\"
\"\",\"\",\"approach-retreat\",\"50\",\"419660\",\"0.0-50.0\",\"\",\"\",\"2-5\",\"4692\",\"39\",\"1\",\"Training\",\"Stims/Figures/100-C-30-3.bmp\",\"na:la:na\",\"Left\",\"39\",\"3\",\"15\",\"1\",\"S\",\"C\",\"47\"
\"\",\"\",\"approach-retreat\",\"51\",\"425831\",\"0.0-51.0\",\"\",\"\",\"2-5\",\"4664\",\"40\",\"1\",\"Training\",\"Stims/Figures/87-C-20-4.bmp\",\"na:la:na\",\"Up\",\"40\",\"3\",\"16\",\"1\",\"S\",\"C\",\"48\"
\"\",\"\",\"approach-retreat\",\"52\",\"431764\",\"0.0-52.0\",\"\",\"\",\"2-5\",\"4424\",\"40\",\"1\",\"Training\",\"Stims/Figures/100-C-30-3.bmp\",\"na:la:na\",\"Up\",\"40\",\"4\",\"1\",\"1\",\"S\",\"C\",\"49\"
\"\",\"\",\"approach-retreat\",\"53\",\"438211\",\"0.0-53.0\",\"\",\"\",\"2-5\",\"4936\",\"39\",\"1\",\"Training\",\"Stims/Figures/87-J-10-4.bmp\",\"pakaka\",\"Right\",\"39\",\"4\",\"2\",\"1\",\"P\",\"C\",\"50\"
\"\",\"\",\"approach-retreat\",\"54\",\"444727\",\"0.0-54.0\",\"\",\"\",\"2-5\",\"5008\",\"37\",\"1\",\"Training\",\"Stims/Figures/93-C-30-1.bmp\",\"na:la:na\",\"Right\",\"37\",\"4\",\"3\",\"1\",\"S\",\"C\",\"51\"
\"\",\"\",\"approach-retreat\",\"55\",\"452075\",\"0.0-55.0\",\"\",\"\",\"2-5\",\"5841\",\"37\",\"1\",\"Training\",\"Stims/Figures/86-J-0-1.bmp\",\"pakaka\",\"Left\",\"37\",\"4\",\"4\",\"1\",\"P\",\"C\",\"52\"
\"\",\"\",\"approach-retreat\",\"56\",\"458402\",\"0.0-56.0\",\"\",\"\",\"2-5\",\"4819\",\"38\",\"1\",\"Training\",\"Stims/Figures/144-C-30-3.bmp\",\"na:la:na\",\"Down\",\"38\",\"4\",\"5\",\"1\",\"S\",\"C\",\"53\"
\"\",\"\",\"approach-retreat\",\"57\",\"465665\",\"0.0-57.0\",\"\",\"\",\"2-5\",\"5754\",\"38\",\"1\",\"Training\",\"Stims/Figures/19-J-10-4.bmp\",\"pakaka\",\"Up\",\"38\",\"4\",\"6\",\"1\",\"P\",\"C\",\"54\"
\"\",\"\",\"approach-retreat\",\"58\",\"471825\",\"0.0-58.0\",\"\",\"\",\"2-5\",\"4651\",\"38\",\"1\",\"Training\",\"Stims/Figures/86-C-30-1.bmp\",\"na:la:na\",\"Down\",\"38\",\"4\",\"7\",\"1\",\"S\",\"C\",\"55\"
\"\",\"\",\"approach-retreat\",\"59\",\"477776\",\"0.0-59.0\",\"\",\"\",\"2-5\",\"4444\",\"39\",\"1\",\"Training\",\"Stims/Figures/93-J-0-1.bmp\",\"pakaka\",\"Right\",\"39\",\"4\",\"8\",\"1\",\"P\",\"C\",\"56\"
\"\",\"\",\"approach-retreat\",\"60\",\"483655\",\"0.0-60.0\",\"\",\"\",\"2-5\",\"4371\",\"38\",\"1\",\"Training\",\"Stims/Figures/87-C-20-4.bmp\",\"na:la:na\",\"Down\",\"38\",\"4\",\"9\",\"1\",\"S\",\"C\",\"57\"
\"\",\"\",\"approach-retreat\",\"61\",\"489335\",\"0.0-61.0\",\"\",\"\",\"2-5\",\"4172\",\"37\",\"1\",\"Training\",\"Stims/Figures/100-J-10-3.bmp\",\"pakaka\",\"Left\",\"37\",\"4\",\"10\",\"1\",\"P\",\"C\",\"58\"
\"\",\"\",\"approach-retreat\",\"62\",\"495546\",\"0.0-62.0\",\"\",\"\",\"2-5\",\"4700\",\"38\",\"1\",\"Training\",\"Stims/Figures/94-J-0-2.bmp\",\"pakaka\",\"Up\",\"38\",\"4\",\"11\",\"1\",\"P\",\"C\",\"59\"
\"\",\"\",\"approach-retreat\",\"63\",\"501611\",\"0.0-63.0\",\"\",\"\",\"2-5\",\"4552\",\"39\",\"1\",\"Training\",\"Stims/Figures/19-C-20-4.bmp\",\"na:la:na\",\"Left\",\"39\",\"4\",\"12\",\"1\",\"S\",\"C\",\"60\"
\"\",\"\",\"approach-retreat\",\"64\",\"507383\",\"0.0-64.0\",\"\",\"\",\"2-5\",\"4263\",\"38\",\"1\",\"Training\",\"Stims/Figures/94-C-20-2.bmp\",\"na:la:na\",\"Down\",\"38\",\"4\",\"13\",\"1\",\"S\",\"C\",\"61\"
\"\",\"\",\"approach-retreat\",\"65\",\"513214\",\"0.0-65.0\",\"\",\"\",\"2-5\",\"4325\",\"39\",\"1\",\"Training\",\"Stims/Figures/118-C-20-2.bmp\",\"na:la:na\",\"Left\",\"39\",\"4\",\"14\",\"1\",\"S\",\"C\",\"62\"
\"\",\"\",\"approach-retreat\",\"66\",\"519325\",\"0.0-66.0\",\"\",\"\",\"2-5\",\"4594\",\"38\",\"1\",\"Training\",\"Stims/Figures/144-J-10-3.bmp\",\"pakaka\",\"Up\",\"38\",\"4\",\"15\",\"1\",\"P\",\"C\",\"63\"
\"\",\"\",\"approach-retreat\",\"67\",\"525124\",\"0.0-67.0\",\"\",\"\",\"2-5\",\"4287\",\"39\",\"1\",\"Training\",\"Stims/Figures/118-J-0-2.bmp\",\"pakaka\",\"Right\",\"39\",\"4\",\"16\",\"1\",\"P\",\"C\",\"64\"
\"\",\"\",\"approach-retreat\",\"68\",\"531328\",\"0.0-68.0\",\"\",\"\",\"2-5\",\"4692\",\"40\",\"1\",\"Training\",\"Stims/Figures/118-J-0-2.bmp\",\"pakaka\",\"Down\",\"40\",\"5\",\"1\",\"1\",\"P\",\"C\",\"65\"
\"\",\"\",\"approach-retreat\",\"69\",\"537595\",\"0.0-69.0\",\"\",\"\",\"2-5\",\"4755\",\"37\",\"1\",\"Training\",\"Stims/Figures/100-J-10-3.bmp\",\"pakaka\",\"Left\",\"37\",\"5\",\"2\",\"1\",\"P\",\"C\",\"66\"
\"\",\"\",\"approach-retreat\",\"70\",\"543124\",\"0.0-70.0\",\"\",\"\",\"2-5\",\"4020\",\"39\",\"1\",\"Training\",\"Stims/Figures/94-J-0-2.bmp\",\"pakaka\",\"Right\",\"39\",\"5\",\"3\",\"1\",\"P\",\"C\",\"67\"
\"\",\"\",\"approach-retreat\",\"71\",\"549206\",\"0.0-71.0\",\"\",\"\",\"2-5\",\"4574\",\"37\",\"1\",\"Training\",\"Stims/Figures/87-J-10-4.bmp\",\"pakaka\",\"Left\",\"37\",\"5\",\"4\",\"1\",\"P\",\"C\",\"68\"
\"\",\"\",\"approach-retreat\",\"72\",\"555390\",\"0.0-72.0\",\"\",\"\",\"2-5\",\"4675\",\"38\",\"1\",\"Training\",\"Stims/Figures/94-C-20-2.bmp\",\"na:la:na\",\"Down\",\"38\",\"5\",\"5\",\"1\",\"S\",\"C\",\"69\"
\"\",\"\",\"approach-retreat\",\"73\",\"561818\",\"0.0-73.0\",\"\",\"\",\"2-5\",\"4916\",\"38\",\"1\",\"Training\",\"Stims/Figures/86-J-0-1.bmp\",\"pakaka\",\"Up\",\"38\",\"5\",\"6\",\"1\",\"P\",\"C\",\"70\"
\"\",\"\",\"approach-retreat\",\"74\",\"567841\",\"0.0-74.0\",\"\",\"\",\"2-5\",\"4515\",\"37\",\"1\",\"Training\",\"Stims/Figures/93-J-0-1.bmp\",\"pakaka\",\"Left\",\"37\",\"5\",\"7\",\"1\",\"P\",\"C\",\"71\"
\"\",\"\",\"approach-retreat\",\"75\",\"573993\",\"0.0-75.0\",\"\",\"\",\"2-5\",\"4641\",\"39\",\"1\",\"Training\",\"Stims/Figures/100-C-30-3.bmp\",\"na:la:na\",\"Left\",\"39\",\"5\",\"8\",\"1\",\"S\",\"C\",\"72\"
\"\",\"\",\"approach-retreat\",\"76\",\"580463\",\"0.0-76.0\",\"\",\"\",\"2-5\",\"4957\",\"37\",\"1\",\"Training\",\"Stims/Figures/87-C-20-4.bmp\",\"na:la:na\",\"Right\",\"37\",\"5\",\"9\",\"1\",\"S\",\"C\",\"73\"
\"\",\"\",\"approach-retreat\",\"77\",\"586935\",\"0.0-77.0\",\"\",\"\",\"2-5\",\"4964\",\"38\",\"1\",\"Training\",\"Stims/Figures/144-J-10-3.bmp\",\"pakaka\",\"Up\",\"38\",\"5\",\"10\",\"1\",\"P\",\"C\",\"74\"
\"\",\"\",\"approach-retreat\",\"78\",\"593222\",\"0.0-78.0\",\"\",\"\",\"2-5\",\"4780\",\"37\",\"1\",\"Training\",\"Stims/Figures/144-C-30-3.bmp\",\"na:la:na\",\"Right\",\"37\",\"5\",\"11\",\"1\",\"S\",\"C\",\"75\"
\"\",\"\",\"approach-retreat\",\"79\",\"600449\",\"0.0-79.0\",\"\",\"\",\"2-5\",\"5718\",\"40\",\"1\",\"Training\",\"Stims/Figures/93-C-30-1.bmp\",\"na:la:na\",\"Up\",\"40\",\"5\",\"12\",\"1\",\"S\",\"C\",\"76\"
\"\",\"\",\"approach-retreat\",\"80\",\"606506\",\"0.0-80.0\",\"\",\"\",\"2-5\",\"4548\",\"38\",\"1\",\"Training\",\"Stims/Figures/19-J-10-4.bmp\",\"pakaka\",\"Up\",\"38\",\"5\",\"13\",\"1\",\"P\",\"C\",\"77\"
\"\",\"\",\"approach-retreat\",\"81\",\"613330\",\"0.0-81.0\",\"\",\"\",\"2-5\",\"5313\",\"38\",\"1\",\"Training\",\"Stims/Figures/86-C-30-1.bmp\",\"na:la:na\",\"Down\",\"38\",\"5\",\"14\",\"1\",\"S\",\"C\",\"78\"
\"\",\"\",\"approach-retreat\",\"82\",\"622041\",\"0.0-82.0\",\"\",\"\",\"2-5\",\"7199\",\"37\",\"1\",\"Training\",\"Stims/Figures/118-C-20-2.bmp\",\"na:la:na\",\"Right\",\"37\",\"5\",\"15\",\"1\",\"S\",\"C\",\"79\"
\"\",\"\",\"approach-retreat\",\"83\",\"629317\",\"0.0-83.0\",\"\",\"\",\"2-5\",\"5764\",\"38\",\"1\",\"Training\",\"Stims/Figures/19-C-20-4.bmp\",\"na:la:na\",\"Down\",\"38\",\"5\",\"16\",\"1\",\"S\",\"C\",\"80\"
\"\",\"\",\"approach-retreat\",\"84\",\"635858\",\"0.0-84.0\",\"\",\"\",\"2-5\",\"5029\",\"40\",\"1\",\"Training\",\"Stims/Figures/86-C-30-1.bmp\",\"na:la:na\",\"Up\",\"40\",\"6\",\"1\",\"1\",\"S\",\"C\",\"81\"
\"\",\"\",\"approach-retreat\",\"85\",\"643672\",\"0.0-85.0\",\"\",\"\",\"2-5\",\"6302\",\"40\",\"1\",\"Training\",\"Stims/Figures/94-C-20-2.bmp\",\"na:la:na\",\"Up\",\"40\",\"6\",\"2\",\"1\",\"S\",\"C\",\"82\"
\"\",\"\",\"approach-retreat\",\"86\",\"650816\",\"0.0-86.0\",\"\",\"\",\"2-5\",\"5633\",\"40\",\"1\",\"Training\",\"Stims/Figures/144-J-10-3.bmp\",\"pakaka\",\"Down\",\"40\",\"6\",\"3\",\"1\",\"P\",\"C\",\"83\"
\"\",\"\",\"approach-retreat\",\"87\",\"657692\",\"0.0-87.0\",\"\",\"\",\"2-5\",\"5364\",\"37\",\"1\",\"Training\",\"Stims/Figures/93-C-30-1.bmp\",\"na:la:na\",\"Right\",\"37\",\"6\",\"4\",\"1\",\"S\",\"C\",\"84\"
\"\",\"\",\"approach-retreat\",\"88\",\"664312\",\"0.0-88.0\",\"\",\"\",\"2-5\",\"5107\",\"37\",\"1\",\"Training\",\"Stims/Figures/93-J-0-1.bmp\",\"pakaka\",\"Left\",\"37\",\"6\",\"5\",\"1\",\"P\",\"C\",\"85\"
\"\",\"\",\"approach-retreat\",\"89\",\"670719\",\"0.0-89.0\",\"\",\"\",\"2-5\",\"4900\",\"37\",\"1\",\"Training\",\"Stims/Figures/100-J-10-3.bmp\",\"pakaka\",\"Left\",\"37\",\"6\",\"6\",\"1\",\"P\",\"C\",\"86\"
\"\",\"\",\"approach-retreat\",\"90\",\"676900\",\"0.0-90.0\",\"\",\"\",\"2-5\",\"4672\",\"37\",\"1\",\"Training\",\"Stims/Figures/118-J-0-2.bmp\",\"pakaka\",\"Left\",\"37\",\"6\",\"7\",\"1\",\"P\",\"C\",\"87\"
\"\",\"\",\"approach-retreat\",\"91\",\"682888\",\"0.0-91.0\",\"\",\"\",\"2-5\",\"4476\",\"40\",\"1\",\"Training\",\"Stims/Figures/86-J-0-1.bmp\",\"pakaka\",\"Down\",\"40\",\"6\",\"8\",\"1\",\"P\",\"C\",\"88\"
\"\",\"\",\"approach-retreat\",\"92\",\"689627\",\"0.0-92.0\",\"\",\"\",\"2-5\",\"5232\",\"39\",\"1\",\"Training\",\"Stims/Figures/94-J-0-2.bmp\",\"pakaka\",\"Right\",\"39\",\"6\",\"9\",\"1\",\"P\",\"C\",\"89\"
\"\",\"\",\"approach-retreat\",\"93\",\"695587\",\"0.0-93.0\",\"\",\"\",\"2-5\",\"4448\",\"37\",\"1\",\"Training\",\"Stims/Figures/144-C-30-3.bmp\",\"na:la:na\",\"Right\",\"37\",\"6\",\"10\",\"1\",\"S\",\"C\",\"90\"
\"\",\"\",\"approach-retreat\",\"94\",\"701698\",\"0.0-94.0\",\"\",\"\",\"2-5\",\"4602\",\"40\",\"1\",\"Training\",\"Stims/Figures/19-J-10-4.bmp\",\"pakaka\",\"Down\",\"40\",\"6\",\"11\",\"1\",\"P\",\"C\",\"91\"
\"\",\"\",\"approach-retreat\",\"95\",\"708286\",\"0.0-95.0\",\"\",\"\",\"2-5\",\"5080\",\"37\",\"1\",\"Training\",\"Stims/Figures/87-J-10-4.bmp\",\"pakaka\",\"Left\",\"37\",\"6\",\"12\",\"1\",\"P\",\"C\",\"92\"
\"\",\"\",\"approach-retreat\",\"96\",\"714190\",\"0.0-96.0\",\"\",\"\",\"2-5\",\"4396\",\"40\",\"1\",\"Training\",\"Stims/Figures/87-C-20-4.bmp\",\"na:la:na\",\"Up\",\"40\",\"6\",\"13\",\"1\",\"S\",\"C\",\"93\"
\"\",\"\",\"approach-retreat\",\"97\",\"720953\",\"0.0-97.0\",\"\",\"\",\"2-5\",\"5250\",\"37\",\"1\",\"Training\",\"Stims/Figures/118-C-20-2.bmp\",\"na:la:na\",\"Right\",\"37\",\"6\",\"14\",\"1\",\"S\",\"C\",\"94\"
\"\",\"\",\"approach-retreat\",\"98\",\"726869\",\"0.0-98.0\",\"\",\"\",\"2-5\",\"4408\",\"40\",\"1\",\"Training\",\"Stims/Figures/100-C-30-3.bmp\",\"na:la:na\",\"Up\",\"40\",\"6\",\"15\",\"1\",\"S\",\"C\",\"95\"
\"\",\"\",\"approach-retreat\",\"99\",\"734125\",\"0.0-99.0\",\"\",\"\",\"2-5\",\"5748\",\"38\",\"1\",\"Training\",\"Stims/Figures/19-C-20-4.bmp\",\"na:la:na\",\"Down\",\"38\",\"6\",\"16\",\"1\",\"S\",\"C\",\"96\"
\"\",\"\",\"approach-retreat\",\"100\",\"740488\",\"0.0-100.0\",\"\",\"\",\"2-5\",\"4856\",\"38\",\"1\",\"Training\",\"Stims/Figures/93-J-0-1.bmp\",\"pakaka\",\"Up\",\"38\",\"7\",\"1\",\"1\",\"P\",\"C\",\"97\"
\"\",\"\",\"approach-retreat\",\"101\",\"746341\",\"0.0-101.0\",\"\",\"\",\"2-5\",\"4344\",\"37\",\"1\",\"Training\",\"Stims/Figures/118-J-0-2.bmp\",\"pakaka\",\"Left\",\"37\",\"7\",\"2\",\"1\",\"P\",\"C\",\"98\"
\"\",\"\",\"approach-retreat\",\"102\",\"753520\",\"0.0-102.0\",\"\",\"\",\"2-5\",\"5672\",\"37\",\"1\",\"Training\",\"Stims/Figures/87-J-10-4.bmp\",\"pakaka\",\"Left\",\"37\",\"7\",\"3\",\"1\",\"P\",\"C\",\"99\"
\"\",\"\",\"approach-retreat\",\"103\",\"759167\",\"0.0-103.0\",\"\",\"\",\"2-5\",\"4134\",\"38\",\"1\",\"Training\",\"Stims/Figures/86-C-30-1.bmp\",\"na:la:na\",\"Down\",\"38\",\"7\",\"4\",\"1\",\"S\",\"C\",\"100\"
\"\",\"\",\"approach-retreat\",\"104\",\"765495\",\"0.0-104.0\",\"\",\"\",\"2-5\",\"4821\",\"37\",\"1\",\"Training\",\"Stims/Figures/19-C-20-4.bmp\",\"na:la:na\",\"Right\",\"37\",\"7\",\"5\",\"1\",\"S\",\"C\",\"101\"
\"\",\"\",\"approach-retreat\",\"105\",\"771768\",\"0.0-105.0\",\"\",\"\",\"2-5\",\"4765\",\"39\",\"1\",\"Training\",\"Stims/Figures/93-C-30-1.bmp\",\"na:la:na\",\"Left\",\"39\",\"7\",\"6\",\"1\",\"S\",\"C\",\"102\"
\"\",\"\",\"approach-retreat\",\"106\",\"778052\",\"0.0-106.0\",\"\",\"\",\"2-5\",\"4775\",\"37\",\"1\",\"Training\",\"Stims/Figures/144-J-10-3.bmp\",\"pakaka\",\"Left\",\"37\",\"7\",\"7\",\"1\",\"P\",\"C\",\"103\"
\"\",\"\",\"approach-retreat\",\"107\",\"783714\",\"0.0-107.0\",\"\",\"\",\"2-5\",\"4152\",\"38\",\"1\",\"Training\",\"Stims/Figures/94-J-0-2.bmp\",\"pakaka\",\"Up\",\"38\",\"7\",\"8\",\"1\",\"P\",\"C\",\"104\"
\"\",\"\",\"approach-retreat\",\"108\",\"790074\",\"0.0-108.0\",\"\",\"\",\"2-5\",\"4844\",\"37\",\"1\",\"Training\",\"Stims/Figures/118-C-20-2.bmp\",\"na:la:na\",\"Right\",\"37\",\"7\",\"9\",\"1\",\"S\",\"C\",\"105\"
\"\",\"\",\"approach-retreat\",\"109\",\"795734\",\"0.0-109.0\",\"\",\"\",\"2-5\",\"4151\",\"38\",\"1\",\"Training\",\"Stims/Figures/100-C-30-3.bmp\",\"na:la:na\",\"Down\",\"38\",\"7\",\"10\",\"1\",\"S\",\"C\",\"106\"
\"\",\"\",\"approach-retreat\",\"110\",\"801637\",\"0.0-110.0\",\"\",\"\",\"2-5\",\"4392\",\"40\",\"1\",\"Training\",\"Stims/Figures/19-J-10-4.bmp\",\"pakaka\",\"Down\",\"40\",\"7\",\"11\",\"1\",\"P\",\"C\",\"107\"
\"\",\"\",\"approach-retreat\",\"111\",\"808541\",\"0.0-111.0\",\"\",\"\",\"2-5\",\"5392\",\"38\",\"1\",\"Training\",\"Stims/Figures/86-J-0-1.bmp\",\"pakaka\",\"Up\",\"38\",\"7\",\"12\",\"1\",\"P\",\"C\",\"108\"
\"\",\"\",\"approach-retreat\",\"112\",\"815090\",\"0.0-112.0\",\"\",\"\",\"2-5\",\"5041\",\"38\",\"1\",\"Training\",\"Stims/Figures/100-J-10-3.bmp\",\"pakaka\",\"Up\",\"38\",\"7\",\"13\",\"1\",\"P\",\"C\",\"109\"
\"\",\"\",\"approach-retreat\",\"113\",\"822094\",\"0.0-113.0\",\"\",\"\",\"2-5\",\"5495\",\"37\",\"1\",\"Training\",\"Stims/Figures/87-C-20-4.bmp\",\"na:la:na\",\"Right\",\"37\",\"7\",\"14\",\"1\",\"S\",\"C\",\"110\"
\"\",\"\",\"approach-retreat\",\"114\",\"827618\",\"0.0-114.0\",\"\",\"\",\"2-5\",\"4016\",\"38\",\"1\",\"Training\",\"Stims/Figures/94-C-20-2.bmp\",\"na:la:na\",\"Down\",\"38\",\"7\",\"15\",\"1\",\"S\",\"C\",\"111\"
\"\",\"\",\"approach-retreat\",\"115\",\"833689\",\"0.0-115.0\",\"\",\"\",\"2-5\",\"4564\",\"37\",\"1\",\"Training\",\"Stims/Figures/144-C-30-3.bmp\",\"na:la:na\",\"Right\",\"37\",\"7\",\"16\",\"1\",\"S\",\"C\",\"112\"
\"\",\"\",\"approach-retreat\",\"116\",\"839625\",\"0.0-116.0\",\"\",\"\",\"2-5\",\"4428\",\"40\",\"1\",\"Training\",\"Stims/Figures/19-J-10-4.bmp\",\"pakaka\",\"Down\",\"40\",\"8\",\"1\",\"1\",\"P\",\"C\",\"113\"
\"\",\"\",\"approach-retreat\",\"117\",\"845945\",\"0.0-117.0\",\"\",\"\",\"2-5\",\"4808\",\"39\",\"1\",\"Training\",\"Stims/Figures/100-J-10-3.bmp\",\"pakaka\",\"Right\",\"39\",\"8\",\"2\",\"1\",\"P\",\"C\",\"114\"
\"\",\"\",\"approach-retreat\",\"118\",\"852726\",\"0.0-118.0\",\"\",\"\",\"2-5\",\"5270\",\"37\",\"1\",\"Training\",\"Stims/Figures/118-C-20-2.bmp\",\"na:la:na\",\"Right\",\"37\",\"8\",\"3\",\"1\",\"S\",\"C\",\"115\"
\"\",\"\",\"approach-retreat\",\"119\",\"859383\",\"0.0-119.0\",\"\",\"\",\"2-5\",\"5145\",\"39\",\"1\",\"Training\",\"Stims/Figures/144-C-30-3.bmp\",\"na:la:na\",\"Left\",\"39\",\"8\",\"4\",\"1\",\"S\",\"C\",\"116\"
\"\",\"\",\"approach-retreat\",\"120\",\"865478\",\"0.0-120.0\",\"\",\"\",\"2-5\",\"4587\",\"38\",\"1\",\"Training\",\"Stims/Figures/94-J-0-2.bmp\",\"pakaka\",\"Up\",\"38\",\"8\",\"5\",\"1\",\"P\",\"C\",\"117\"
\"\",\"\",\"approach-retreat\",\"121\",\"871391\",\"0.0-121.0\",\"\",\"\",\"2-5\",\"4403\",\"37\",\"1\",\"Training\",\"Stims/Figures/86-C-30-1.bmp\",\"na:la:na\",\"Right\",\"37\",\"8\",\"6\",\"1\",\"S\",\"C\",\"118\"
\"\",\"\",\"approach-retreat\",\"122\",\"877762\",\"0.0-122.0\",\"\",\"\",\"2-5\",\"4860\",\"38\",\"1\",\"Training\",\"Stims/Figures/100-C-30-3.bmp\",\"na:la:na\",\"Down\",\"38\",\"8\",\"7\",\"1\",\"S\",\"C\",\"119\"
\"\",\"\",\"approach-retreat\",\"123\",\"883812\",\"0.0-123.0\",\"\",\"\",\"2-5\",\"4543\",\"38\",\"1\",\"Training\",\"Stims/Figures/87-C-20-4.bmp\",\"na:la:na\",\"Down\",\"38\",\"8\",\"8\",\"1\",\"S\",\"C\",\"120\"
\"\",\"\",\"approach-retreat\",\"124\",\"890905\",\"0.0-124.0\",\"\",\"\",\"2-5\",\"5584\",\"38\",\"1\",\"Training\",\"Stims/Figures/93-J-0-1.bmp\",\"pakaka\",\"Up\",\"38\",\"8\",\"9\",\"1\",\"P\",\"C\",\"121\"
\"\",\"\",\"approach-retreat\",\"125\",\"897785\",\"0.0-125.0\",\"\",\"\",\"2-5\",\"5371\",\"38\",\"1\",\"Training\",\"Stims/Figures/94-C-20-2.bmp\",\"na:la:na\",\"Down\",\"38\",\"8\",\"10\",\"1\",\"S\",\"C\",\"122\"
\"\",\"\",\"approach-retreat\",\"126\",\"904605\",\"0.0-126.0\",\"\",\"\",\"2-5\",\"5312\",\"40\",\"1\",\"Training\",\"Stims/Figures/19-C-20-4.bmp\",\"na:la:na\",\"Up\",\"40\",\"8\",\"11\",\"1\",\"S\",\"C\",\"123\"
\"\",\"\",\"approach-retreat\",\"127\",\"910805\",\"0.0-127.0\",\"\",\"\",\"2-5\",\"4692\",\"37\",\"1\",\"Training\",\"Stims/Figures/144-J-10-3.bmp\",\"pakaka\",\"Left\",\"37\",\"8\",\"12\",\"1\",\"P\",\"C\",\"124\"
\"\",\"\",\"approach-retreat\",\"128\",\"916677\",\"0.0-128.0\",\"\",\"\",\"2-5\",\"4364\",\"39\",\"1\",\"Training\",\"Stims/Figures/86-J-0-1.bmp\",\"pakaka\",\"Right\",\"39\",\"8\",\"13\",\"1\",\"P\",\"C\",\"125\"
\"\",\"\",\"approach-retreat\",\"129\",\"923749\",\"0.0-129.0\",\"\",\"\",\"2-5\",\"5561\",\"37\",\"1\",\"Training\",\"Stims/Figures/118-J-0-2.bmp\",\"pakaka\",\"Left\",\"37\",\"8\",\"14\",\"1\",\"P\",\"C\",\"126\"
\"\",\"\",\"approach-retreat\",\"130\",\"929621\",\"0.0-130.0\",\"\",\"\",\"2-5\",\"4365\",\"37\",\"1\",\"Training\",\"Stims/Figures/87-J-10-4.bmp\",\"pakaka\",\"Left\",\"37\",\"8\",\"15\",\"1\",\"P\",\"C\",\"127\"
\"\",\"\",\"approach-retreat\",\"131\",\"935520\",\"0.0-131.0\",\"\",\"\",\"2-5\",\"4388\",\"40\",\"1\",\"Training\",\"Stims/Figures/93-C-30-1.bmp\",\"na:la:na\",\"Up\",\"40\",\"8\",\"16\",\"1\",\"S\",\"C\",\"128\"
\"\",\"\",\"approach-retreat\",\"132\",\"941699\",\"0.0-132.0\",\"\",\"\",\"2-5\",\"4670\",\"39\",\"1\",\"Training\",\"Stims/Figures/100-C-30-3.bmp\",\"na:la:na\",\"Left\",\"39\",\"9\",\"1\",\"1\",\"S\",\"C\",\"129\"
\"\",\"\",\"approach-retreat\",\"133\",\"947411\",\"0.0-133.0\",\"\",\"\",\"2-5\",\"4202\",\"38\",\"1\",\"Training\",\"Stims/Figures/86-C-30-1.bmp\",\"na:la:na\",\"Down\",\"38\",\"9\",\"2\",\"1\",\"S\",\"C\",\"130\"
\"\",\"\",\"approach-retreat\",\"134\",\"953533\",\"0.0-134.0\",\"\",\"\",\"2-5\",\"4612\",\"39\",\"0\",\"Training\",\"Stims/Figures/87-J-10-4.bmp\",\"pakaka\",\"Left\",\"37\",\"9\",\"3\",\"1\",\"P\",\"C\",\"131\"
\"\",\"\",\"approach-retreat\",\"135\",\"959853\",\"0.0-135.0\",\"\",\"\",\"2-5\",\"4813\",\"38\",\"1\",\"Training\",\"Stims/Figures/118-J-0-2.bmp\",\"pakaka\",\"Up\",\"38\",\"9\",\"4\",\"1\",\"P\",\"C\",\"132\"
\"\",\"\",\"approach-retreat\",\"136\",\"966852\",\"0.0-136.0\",\"\",\"\",\"2-5\",\"5492\",\"39\",\"1\",\"Training\",\"Stims/Figures/94-C-20-2.bmp\",\"na:la:na\",\"Left\",\"39\",\"9\",\"5\",\"1\",\"S\",\"C\",\"133\"
\"\",\"\",\"approach-retreat\",\"137\",\"972687\",\"0.0-137.0\",\"\",\"\",\"2-5\",\"4325\",\"40\",\"1\",\"Training\",\"Stims/Figures/144-C-30-3.bmp\",\"na:la:na\",\"Up\",\"40\",\"9\",\"6\",\"1\",\"S\",\"C\",\"134\"
\"\",\"\",\"approach-retreat\",\"138\",\"978675\",\"0.0-138.0\",\"\",\"\",\"2-5\",\"4476\",\"39\",\"1\",\"Training\",\"Stims/Figures/19-J-10-4.bmp\",\"pakaka\",\"Right\",\"39\",\"9\",\"7\",\"1\",\"P\",\"C\",\"135\"
\"\",\"\",\"approach-retreat\",\"139\",\"985255\",\"0.0-139.0\",\"\",\"\",\"2-5\",\"5068\",\"39\",\"1\",\"Training\",\"Stims/Figures/93-J-0-1.bmp\",\"pakaka\",\"Right\",\"39\",\"9\",\"8\",\"1\",\"P\",\"C\",\"136\"
\"\",\"\",\"approach-retreat\",\"140\",\"991295\",\"0.0-140.0\",\"\",\"\",\"2-5\",\"4529\",\"38\",\"1\",\"Training\",\"Stims/Figures/94-J-0-2.bmp\",\"pakaka\",\"Up\",\"38\",\"9\",\"9\",\"1\",\"P\",\"C\",\"137\"
\"\",\"\",\"approach-retreat\",\"141\",\"997304\",\"0.0-141.0\",\"\",\"\",\"2-5\",\"4499\",\"39\",\"1\",\"Training\",\"Stims/Figures/100-J-10-3.bmp\",\"pakaka\",\"Right\",\"39\",\"9\",\"10\",\"1\",\"P\",\"C\",\"138\"
\"\",\"\",\"approach-retreat\",\"142\",\"1002986\",\"0.0-142.0\",\"\",\"\",\"2-5\",\"4176\",\"39\",\"1\",\"Training\",\"Stims/Figures/86-J-0-1.bmp\",\"pakaka\",\"Right\",\"39\",\"9\",\"11\",\"1\",\"P\",\"C\",\"139\"
\"\",\"\",\"approach-retreat\",\"143\",\"1008910\",\"0.0-143.0\",\"\",\"\",\"2-5\",\"4416\",\"38\",\"1\",\"Training\",\"Stims/Figures/19-C-20-4.bmp\",\"na:la:na\",\"Down\",\"38\",\"9\",\"12\",\"1\",\"S\",\"C\",\"140\"
\"\",\"\",\"approach-retreat\",\"144\",\"1014939\",\"0.0-144.0\",\"\",\"\",\"2-5\",\"4519\",\"38\",\"1\",\"Training\",\"Stims/Figures/118-C-20-2.bmp\",\"na:la:na\",\"Down\",\"38\",\"9\",\"13\",\"1\",\"S\",\"C\",\"141\"
\"\",\"\",\"approach-retreat\",\"145\",\"1022082\",\"0.0-145.0\",\"\",\"\",\"2-5\",\"5633\",\"38\",\"1\",\"Training\",\"Stims/Figures/144-J-10-3.bmp\",\"pakaka\",\"Up\",\"38\",\"9\",\"14\",\"1\",\"P\",\"C\",\"142\"
\"\",\"\",\"approach-retreat\",\"146\",\"1028662\",\"0.0-146.0\",\"\",\"\",\"2-5\",\"5072\",\"39\",\"1\",\"Training\",\"Stims/Figures/87-C-20-4.bmp\",\"na:la:na\",\"Left\",\"39\",\"9\",\"15\",\"1\",\"S\",\"C\",\"143\"
\"\",\"\",\"approach-retreat\",\"147\",\"1034636\",\"0.0-147.0\",\"\",\"\",\"2-5\",\"4464\",\"38\",\"1\",\"Training\",\"Stims/Figures/93-C-30-1.bmp\",\"na:la:na\",\"Down\",\"38\",\"9\",\"16\",\"1\",\"S\",\"C\",\"144\"
\"42940\",\"\",\"instructions\",\"148\",\"1077576\",\"0.0-148.0\",\"[{\"\"page_index\"\":0,\"\"viewing_time\"\":42940}]\",\"\",\"\",\"\",\"\",\"\",\"\",\"\",\"\",\"\",\"\",\"\",\"\",\"\",\"\",\"\",\"\"
\"\",\"\",\"approach-retreat\",\"149\",\"1083540\",\"0.0-149.0\",\"\",\"\",\"2-5\",\"4456\",\"39\",\"0\",\"Testing\",\"Stims/Figures/144-C-30-3.bmp\",\"na:la:na\",\"Right\",\"37\",\"1\",\"1\",\"1\",\"S\",\"C\",\"1\"
\"\",\"\",\"approach-retreat\",\"150\",\"1089440\",\"0.0-150.0\",\"\",\"\",\"2-5\",\"4392\",\"38\",\"1\",\"Testing\",\"Stims/Figures/100-J-10-3.bmp\",\"pakaka\",\"Up\",\"38\",\"1\",\"2\",\"1\",\"P\",\"C\",\"2\"
\"\",\"\",\"approach-retreat\",\"151\",\"1095311\",\"0.0-151.0\",\"\",\"\",\"2-5\",\"4364\",\"37\",\"1\",\"Testing\",\"Stims/Figures/93-C-30-1.bmp\",\"na:la:na\",\"Right\",\"37\",\"1\",\"3\",\"1\",\"S\",\"C\",\"3\"
\"\",\"\",\"approach-retreat\",\"152\",\"1100972\",\"0.0-152.0\",\"\",\"\",\"2-5\",\"4152\",\"39\",\"1\",\"Testing\",\"Stims/Figures/84-C-20-2.bmp\",\"na:la:na\",\"Left\",\"39\",\"1\",\"4\",\"1\",\"S\",\"C\",\"4\"
\"\",\"\",\"approach-retreat\",\"153\",\"1106748\",\"0.0-153.0\",\"\",\"\",\"2-5\",\"4268\",\"39\",\"1\",\"Testing\",\"Stims/Figures/19-C-20-4.bmp\",\"na:la:na\",\"Left\",\"39\",\"1\",\"5\",\"1\",\"S\",\"C\",\"5\"
\"\",\"\",\"approach-retreat\",\"154\",\"1112487\",\"0.0-154.0\",\"\",\"\",\"2-5\",\"4235\",\"39\",\"0\",\"Testing\",\"Stims/Figures/87-J-10-4.bmp\",\"pakaka\",\"Left\",\"37\",\"1\",\"6\",\"1\",\"P\",\"C\",\"6\"
\"\",\"\",\"approach-retreat\",\"155\",\"1118283\",\"0.0-155.0\",\"\",\"\",\"2-5\",\"4286\",\"38\",\"1\",\"Testing\",\"Stims/Figures/44-C-30-3.bmp\",\"na:la:na\",\"Down\",\"38\",\"1\",\"7\",\"1\",\"S\",\"C\",\"7\"
\"\",\"\",\"approach-retreat\",\"156\",\"1124150\",\"0.0-156.0\",\"\",\"\",\"2-5\",\"4360\",\"38\",\"1\",\"Testing\",\"Stims/Figures/144-J-10-3.bmp\",\"pakaka\",\"Up\",\"38\",\"1\",\"8\",\"1\",\"P\",\"C\",\"8\"
\"\",\"\",\"approach-retreat\",\"157\",\"1130882\",\"0.0-157.0\",\"\",\"\",\"2-5\",\"5228\",\"37\",\"1\",\"Testing\",\"Stims/Figures/94-C-20-2.bmp\",\"na:la:na\",\"Right\",\"37\",\"1\",\"9\",\"1\",\"S\",\"C\",\"9\"
\"\",\"\",\"approach-retreat\",\"158\",\"1136696\",\"0.0-158.0\",\"\",\"\",\"2-5\",\"4308\",\"39\",\"1\",\"Testing\",\"Stims/Figures/57-J-0-1.bmp\",\"pakaka\",\"Right\",\"39\",\"1\",\"10\",\"1\",\"P\",\"C\",\"10\"
\"\",\"\",\"approach-retreat\",\"159\",\"1142517\",\"0.0-159.0\",\"\",\"\",\"2-5\",\"4316\",\"37\",\"1\",\"Testing\",\"Stims/Figures/74-J-10-4.bmp\",\"pakaka\",\"Left\",\"37\",\"1\",\"11\",\"1\",\"P\",\"C\",\"11\"
\"\",\"\",\"approach-retreat\",\"160\",\"1148581\",\"0.0-160.0\",\"\",\"\",\"2-5\",\"4560\",\"38\",\"1\",\"Testing\",\"Stims/Figures/57-C-30-1.bmp\",\"na:la:na\",\"Down\",\"38\",\"1\",\"12\",\"1\",\"S\",\"C\",\"12\"
\"\",\"\",\"approach-retreat\",\"161\",\"1154478\",\"0.0-161.0\",\"\",\"\",\"2-5\",\"4391\",\"37\",\"1\",\"Testing\",\"Stims/Figures/44-J-10-3.bmp\",\"pakaka\",\"Left\",\"37\",\"1\",\"13\",\"1\",\"P\",\"C\",\"13\"
\"\",\"\",\"approach-retreat\",\"162\",\"1160159\",\"0.0-162.0\",\"\",\"\",\"2-5\",\"4179\",\"38\",\"1\",\"Testing\",\"Stims/Figures/84-J-0-2.bmp\",\"pakaka\",\"Up\",\"38\",\"1\",\"14\",\"1\",\"P\",\"C\",\"14\"
\"\",\"\",\"approach-retreat\",\"163\",\"1166863\",\"0.0-163.0\",\"\",\"\",\"2-5\",\"5196\",\"40\",\"1\",\"Testing\",\"Stims/Figures/94-J-0-2.bmp\",\"pakaka\",\"Down\",\"40\",\"1\",\"15\",\"1\",\"P\",\"C\",\"15\"
\"\",\"\",\"approach-retreat\",\"164\",\"1172635\",\"0.0-164.0\",\"\",\"\",\"2-5\",\"4264\",\"37\",\"1\",\"Testing\",\"Stims/Figures/19-J-10-4.bmp\",\"pakaka\",\"Left\",\"37\",\"1\",\"16\",\"1\",\"P\",\"C\",\"16\"
\"\",\"\",\"approach-retreat\",\"165\",\"1178632\",\"0.0-165.0\",\"\",\"\",\"2-5\",\"4479\",\"40\",\"1\",\"Testing\",\"Stims/Figures/100-C-30-3.bmp\",\"na:la:na\",\"Up\",\"40\",\"1\",\"17\",\"1\",\"S\",\"C\",\"17\"
\"\",\"\",\"approach-retreat\",\"166\",\"1185193\",\"0.0-166.0\",\"\",\"\",\"2-5\",\"5056\",\"40\",\"1\",\"Testing\",\"Stims/Figures/118-C-20-2.bmp\",\"na:la:na\",\"Up\",\"40\",\"1\",\"18\",\"1\",\"S\",\"C\",\"18\"
\"\",\"\",\"approach-retreat\",\"167\",\"1191833\",\"0.0-167.0\",\"\",\"\",\"2-5\",\"5129\",\"39\",\"1\",\"Testing\",\"Stims/Figures/86-J-0-1.bmp\",\"pakaka\",\"Right\",\"39\",\"1\",\"19\",\"1\",\"P\",\"C\",\"19\"
\"\",\"\",\"approach-retreat\",\"168\",\"1198428\",\"0.0-168.0\",\"\",\"\",\"2-5\",\"5088\",\"40\",\"1\",\"Testing\",\"Stims/Figures/118-J-0-2.bmp\",\"pakaka\",\"Down\",\"40\",\"1\",\"20\",\"1\",\"P\",\"C\",\"20\"
\"\",\"\",\"approach-retreat\",\"169\",\"1205556\",\"0.0-169.0\",\"\",\"\",\"2-5\",\"5619\",\"39\",\"1\",\"Testing\",\"Stims/Figures/93-J-0-1.bmp\",\"pakaka\",\"Right\",\"39\",\"1\",\"21\",\"1\",\"P\",\"C\",\"21\"
\"\",\"\",\"approach-retreat\",\"170\",\"1212264\",\"0.0-170.0\",\"\",\"\",\"2-5\",\"5199\",\"40\",\"1\",\"Testing\",\"Stims/Figures/74-C-20-4.bmp\",\"na:la:na\",\"Up\",\"40\",\"1\",\"22\",\"1\",\"S\",\"C\",\"22\"
\"\",\"\",\"approach-retreat\",\"171\",\"1218362\",\"0.0-171.0\",\"\",\"\",\"2-5\",\"4592\",\"38\",\"1\",\"Testing\",\"Stims/Figures/87-C-20-4.bmp\",\"na:la:na\",\"Down\",\"38\",\"1\",\"23\",\"1\",\"S\",\"C\",\"23\"
\"\",\"\",\"approach-retreat\",\"172\",\"1224667\",\"0.0-172.0\",\"\",\"\",\"2-5\",\"4799\",\"38\",\"1\",\"Testing\",\"Stims/Figures/86-C-30-1.bmp\",\"na:la:na\",\"Down\",\"38\",\"1\",\"24\",\"1\",\"S\",\"C\",\"24\"
\"\",\"\",\"approach-retreat\",\"173\",\"1230483\",\"0.0-173.0\",\"\",\"\",\"2-5\",\"4312\",\"38\",\"1\",\"Testing\",\"Stims/Figures/87-C-20-4.bmp\",\"na:la:na\",\"Down\",\"38\",\"2\",\"1\",\"1\",\"S\",\"C\",\"25\"
\"\",\"\",\"approach-retreat\",\"174\",\"1236458\",\"0.0-174.0\",\"\",\"\",\"2-5\",\"4469\",\"40\",\"1\",\"Testing\",\"Stims/Figures/100-C-30-3.bmp\",\"na:la:na\",\"Up\",\"40\",\"2\",\"2\",\"1\",\"S\",\"C\",\"26\"
\"\",\"\",\"approach-retreat\",\"175\",\"1242761\",\"0.0-175.0\",\"\",\"\",\"2-5\",\"4795\",\"39\",\"1\",\"Testing\",\"Stims/Figures/74-J-10-4.bmp\",\"pakaka\",\"Right\",\"39\",\"2\",\"3\",\"1\",\"P\",\"C\",\"27\"
\"\",\"\",\"approach-retreat\",\"176\",\"1249612\",\"0.0-176.0\",\"\",\"\",\"2-5\",\"5348\",\"37\",\"1\",\"Testing\",\"Stims/Figures/93-C-30-1.bmp\",\"na:la:na\",\"Right\",\"37\",\"2\",\"4\",\"1\",\"S\",\"C\",\"28\"
\"\",\"\",\"approach-retreat\",\"177\",\"1255808\",\"0.0-177.0\",\"\",\"\",\"2-5\",\"4688\",\"40\",\"1\",\"Testing\",\"Stims/Figures/84-J-0-2.bmp\",\"pakaka\",\"Down\",\"40\",\"2\",\"5\",\"1\",\"P\",\"C\",\"29\"
\"\",\"\",\"approach-retreat\",\"178\",\"1262218\",\"0.0-178.0\",\"\",\"\",\"2-5\",\"4901\",\"37\",\"1\",\"Testing\",\"Stims/Figures/94-J-0-2.bmp\",\"pakaka\",\"Left\",\"37\",\"2\",\"6\",\"1\",\"P\",\"C\",\"30\"
\"\",\"\",\"approach-retreat\",\"179\",\"1270911\",\"0.0-179.0\",\"\",\"\",\"2-5\",\"7188\",\"39\",\"1\",\"Testing\",\"Stims/Figures/44-C-30-3.bmp\",\"na:la:na\",\"Left\",\"39\",\"2\",\"7\",\"1\",\"S\",\"C\",\"31\"
\"\",\"\",\"approach-retreat\",\"180\",\"1277475\",\"0.0-180.0\",\"\",\"\",\"2-5\",\"5060\",\"38\",\"1\",\"Testing\",\"Stims/Figures/93-J-0-1.bmp\",\"pakaka\",\"Up\",\"38\",\"2\",\"8\",\"1\",\"P\",\"C\",\"32\"
\"\",\"\",\"approach-retreat\",\"181\",\"1284310\",\"0.0-181.0\",\"\",\"\",\"2-5\",\"5332\",\"39\",\"1\",\"Testing\",\"Stims/Figures/94-C-20-2.bmp\",\"na:la:na\",\"Left\",\"39\",\"2\",\"9\",\"1\",\"S\",\"C\",\"33\"
\"\",\"\",\"approach-retreat\",\"182\",\"1292398\",\"0.0-182.0\",\"\",\"\",\"2-5\",\"6584\",\"37\",\"1\",\"Testing\",\"Stims/Figures/144-J-10-3.bmp\",\"pakaka\",\"Left\",\"37\",\"2\",\"10\",\"1\",\"P\",\"C\",\"34\"
\"\",\"\",\"approach-retreat\",\"183\",\"1299423\",\"0.0-183.0\",\"\",\"\",\"2-5\",\"5520\",\"40\",\"1\",\"Testing\",\"Stims/Figures/19-J-10-4.bmp\",\"pakaka\",\"Down\",\"40\",\"2\",\"11\",\"1\",\"P\",\"C\",\"35\"
\"\",\"\",\"approach-retreat\",\"184\",\"1305283\",\"0.0-184.0\",\"\",\"\",\"2-5\",\"4356\",\"38\",\"1\",\"Testing\",\"Stims/Figures/84-C-20-2.bmp\",\"na:la:na\",\"Down\",\"38\",\"2\",\"12\",\"1\",\"S\",\"C\",\"36\"
\"\",\"\",\"approach-retreat\",\"185\",\"1312351\",\"0.0-185.0\",\"\",\"\",\"2-5\",\"5564\",\"40\",\"1\",\"Testing\",\"Stims/Figures/144-C-30-3.bmp\",\"na:la:na\",\"Up\",\"40\",\"2\",\"13\",\"1\",\"S\",\"C\",\"37\"
\"\",\"\",\"approach-retreat\",\"186\",\"1318839\",\"0.0-186.0\",\"\",\"\",\"2-5\",\"4980\",\"39\",\"1\",\"Testing\",\"Stims/Figures/100-J-10-3.bmp\",\"pakaka\",\"Right\",\"39\",\"2\",\"14\",\"1\",\"P\",\"C\",\"38\"
\"\",\"\",\"approach-retreat\",\"187\",\"1327771\",\"0.0-187.0\",\"\",\"\",\"2-5\",\"7427\",\"39\",\"1\",\"Testing\",\"Stims/Figures/87-J-10-4.bmp\",\"pakaka\",\"Right\",\"39\",\"2\",\"15\",\"1\",\"P\",\"C\",\"39\"
\"\",\"\",\"approach-retreat\",\"188\",\"1334443\",\"0.0-188.0\",\"\",\"\",\"2-5\",\"5168\",\"38\",\"1\",\"Testing\",\"Stims/Figures/118-C-20-2.bmp\",\"na:la:na\",\"Down\",\"38\",\"2\",\"16\",\"1\",\"S\",\"C\",\"40\"
\"\",\"\",\"approach-retreat\",\"189\",\"1340202\",\"0.0-189.0\",\"\",\"\",\"2-5\",\"4253\",\"37\",\"1\",\"Testing\",\"Stims/Figures/57-C-30-1.bmp\",\"na:la:na\",\"Right\",\"37\",\"2\",\"17\",\"1\",\"S\",\"C\",\"41\"
\"\",\"\",\"approach-retreat\",\"190\",\"1346918\",\"0.0-190.0\",\"\",\"\",\"2-5\",\"5212\",\"39\",\"1\",\"Testing\",\"Stims/Figures/19-C-20-4.bmp\",\"na:la:na\",\"Left\",\"39\",\"2\",\"18\",\"1\",\"S\",\"C\",\"42\"
\"\",\"\",\"approach-retreat\",\"191\",\"1353246\",\"0.0-191.0\",\"\",\"\",\"2-5\",\"4819\",\"40\",\"1\",\"Testing\",\"Stims/Figures/44-J-10-3.bmp\",\"pakaka\",\"Down\",\"40\",\"2\",\"19\",\"1\",\"P\",\"C\",\"43\"
\"\",\"\",\"approach-retreat\",\"192\",\"1359733\",\"0.0-192.0\",\"\",\"\",\"2-5\",\"4980\",\"37\",\"1\",\"Testing\",\"Stims/Figures/118-J-0-2.bmp\",\"pakaka\",\"Left\",\"37\",\"2\",\"20\",\"1\",\"P\",\"C\",\"44\"
\"\",\"\",\"approach-retreat\",\"193\",\"1366241\",\"0.0-193.0\",\"\",\"\",\"2-5\",\"5002\",\"38\",\"1\",\"Testing\",\"Stims/Figures/86-J-0-1.bmp\",\"pakaka\",\"Up\",\"38\",\"2\",\"21\",\"1\",\"P\",\"C\",\"45\"
\"\",\"\",\"approach-retreat\",\"194\",\"1373373\",\"0.0-194.0\",\"\",\"\",\"2-5\",\"5624\",\"39\",\"1\",\"Testing\",\"Stims/Figures/57-J-0-1.bmp\",\"pakaka\",\"Right\",\"39\",\"2\",\"22\",\"1\",\"P\",\"C\",\"46\"
\"\",\"\",\"approach-retreat\",\"195\",\"1380304\",\"0.0-195.0\",\"\",\"\",\"2-5\",\"5424\",\"40\",\"1\",\"Testing\",\"Stims/Figures/74-C-20-4.bmp\",\"na:la:na\",\"Up\",\"40\",\"2\",\"23\",\"1\",\"S\",\"C\",\"47\"
\"\",\"\",\"approach-retreat\",\"196\",\"1388632\",\"0.0-196.0\",\"\",\"\",\"2-5\",\"6825\",\"40\",\"1\",\"Testing\",\"Stims/Figures/86-C-30-1.bmp\",\"na:la:na\",\"Up\",\"40\",\"2\",\"24\",\"1\",\"S\",\"C\",\"48\"
\"\",\"\",\"approach-retreat\",\"197\",\"1395055\",\"0.0-197.0\",\"\",\"\",\"2-5\",\"4919\",\"38\",\"1\",\"Testing\",\"Stims/Figures/19-C-20-4.bmp\",\"na:la:na\",\"Down\",\"38\",\"3\",\"1\",\"1\",\"S\",\"C\",\"49\"
\"\",\"\",\"approach-retreat\",\"198\",\"1400591\",\"0.0-198.0\",\"\",\"\",\"2-5\",\"4027\",\"37\",\"1\",\"Testing\",\"Stims/Figures/93-C-30-1.bmp\",\"na:la:na\",\"Right\",\"37\",\"3\",\"2\",\"1\",\"S\",\"C\",\"50\"
\"\",\"\",\"approach-retreat\",\"199\",\"1407383\",\"0.0-199.0\",\"\",\"\",\"2-5\",\"5285\",\"40\",\"1\",\"Testing\",\"Stims/Figures/87-J-10-4.bmp\",\"pakaka\",\"Down\",\"40\",\"3\",\"3\",\"1\",\"P\",\"C\",\"51\"
\"\",\"\",\"approach-retreat\",\"200\",\"1413834\",\"0.0-200.0\",\"\",\"\",\"2-5\",\"4943\",\"40\",\"1\",\"Testing\",\"Stims/Figures/144-C-30-3.bmp\",\"na:la:na\",\"Up\",\"40\",\"3\",\"4\",\"1\",\"S\",\"C\",\"52\"
\"\",\"\",\"approach-retreat\",\"201\",\"1419574\",\"0.0-201.0\",\"\",\"\",\"2-5\",\"4232\",\"39\",\"1\",\"Testing\",\"Stims/Figures/100-J-10-3.bmp\",\"pakaka\",\"Right\",\"39\",\"3\",\"5\",\"1\",\"P\",\"C\",\"53\"
\"\",\"\",\"approach-retreat\",\"202\",\"1426138\",\"0.0-202.0\",\"\",\"\",\"2-5\",\"5060\",\"37\",\"1\",\"Testing\",\"Stims/Figures/93-J-0-1.bmp\",\"pakaka\",\"Left\",\"37\",\"3\",\"6\",\"1\",\"P\",\"C\",\"54\"
\"\",\"\",\"approach-retreat\",\"203\",\"1432840\",\"0.0-203.0\",\"\",\"\",\"2-5\",\"5194\",\"40\",\"1\",\"Testing\",\"Stims/Figures/86-C-30-1.bmp\",\"na:la:na\",\"Up\",\"40\",\"3\",\"7\",\"1\",\"S\",\"C\",\"55\"
\"\",\"\",\"approach-retreat\",\"204\",\"1439900\",\"0.0-204.0\",\"\",\"\",\"2-5\",\"5556\",\"37\",\"1\",\"Testing\",\"Stims/Figures/87-C-20-4.bmp\",\"na:la:na\",\"Right\",\"37\",\"3\",\"8\",\"1\",\"S\",\"C\",\"56\"
\"\",\"\",\"approach-retreat\",\"205\",\"1449217\",\"0.0-205.0\",\"\",\"\",\"2-5\",\"7813\",\"37\",\"1\",\"Testing\",\"Stims/Figures/100-C-30-3.bmp\",\"na:la:na\",\"Right\",\"37\",\"3\",\"9\",\"1\",\"S\",\"C\",\"57\"
\"\",\"\",\"approach-retreat\",\"206\",\"1456424\",\"0.0-206.0\",\"\",\"\",\"2-5\",\"5699\",\"38\",\"1\",\"Testing\",\"Stims/Figures/144-J-10-3.bmp\",\"pakaka\",\"Up\",\"38\",\"3\",\"10\",\"1\",\"P\",\"C\",\"58\"
\"\",\"\",\"approach-retreat\",\"207\",\"1462189\",\"0.0-207.0\",\"\",\"\",\"2-5\",\"4252\",\"39\",\"1\",\"Testing\",\"Stims/Figures/94-C-20-2.bmp\",\"na:la:na\",\"Left\",\"39\",\"3\",\"11\",\"1\",\"S\",\"C\",\"59\"
\"\",\"\",\"approach-retreat\",\"208\",\"1468064\",\"0.0-208.0\",\"\",\"\",\"2-5\",\"4373\",\"37\",\"1\",\"Testing\",\"Stims/Figures/86-J-0-1.bmp\",\"pakaka\",\"Left\",\"37\",\"3\",\"12\",\"1\",\"P\",\"C\",\"60\"
\"\",\"\",\"approach-retreat\",\"209\",\"1473745\",\"0.0-209.0\",\"\",\"\",\"2-5\",\"4173\",\"39\",\"1\",\"Testing\",\"Stims/Figures/94-J-0-2.bmp\",\"pakaka\",\"Right\",\"39\",\"3\",\"13\",\"1\",\"P\",\"C\",\"61\"
\"\",\"\",\"approach-retreat\",\"210\",\"1480032\",\"0.0-210.0\",\"\",\"\",\"2-5\",\"4779\",\"38\",\"1\",\"Testing\",\"Stims/Figures/118-J-0-2.bmp\",\"pakaka\",\"Up\",\"38\",\"3\",\"14\",\"1\",\"P\",\"C\",\"62\"
\"\",\"\",\"approach-retreat\",\"211\",\"1487271\",\"0.0-211.0\",\"\",\"\",\"2-5\",\"5732\",\"37\",\"1\",\"Testing\",\"Stims/Figures/19-J-10-4.bmp\",\"pakaka\",\"Left\",\"37\",\"3\",\"15\",\"1\",\"P\",\"C\",\"63\"
\"\",\"\",\"approach-retreat\",\"212\",\"1493659\",\"0.0-212.0\",\"\",\"\",\"2-5\",\"4882\",\"40\",\"1\",\"Testing\",\"Stims/Figures/57-J-0-1.bmp\",\"pakaka\",\"Down\",\"40\",\"3\",\"16\",\"1\",\"P\",\"C\",\"64\"
\"\",\"\",\"approach-retreat\",\"213\",\"1501087\",\"0.0-213.0\",\"\",\"\",\"2-5\",\"5925\",\"40\",\"1\",\"Testing\",\"Stims/Figures/44-C-30-3.bmp\",\"na:la:na\",\"Up\",\"40\",\"3\",\"17\",\"1\",\"S\",\"C\",\"65\"
\"\",\"\",\"approach-retreat\",\"214\",\"1507675\",\"0.0-214.0\",\"\",\"\",\"2-5\",\"5085\",\"40\",\"1\",\"Testing\",\"Stims/Figures/74-J-10-4.bmp\",\"pakaka\",\"Down\",\"40\",\"3\",\"18\",\"1\",\"P\",\"C\",\"66\"
\"\",\"\",\"approach-retreat\",\"215\",\"1515482\",\"0.0-215.0\",\"\",\"\",\"2-5\",\"6300\",\"40\",\"1\",\"Testing\",\"Stims/Figures/57-C-30-1.bmp\",\"na:la:na\",\"Up\",\"40\",\"3\",\"19\",\"1\",\"S\",\"C\",\"67\"
\"\",\"\",\"approach-retreat\",\"216\",\"1521710\",\"0.0-216.0\",\"\",\"\",\"2-5\",\"4724\",\"37\",\"1\",\"Testing\",\"Stims/Figures/84-C-20-2.bmp\",\"na:la:na\",\"Right\",\"37\",\"3\",\"20\",\"1\",\"S\",\"C\",\"68\"
\"\",\"\",\"approach-retreat\",\"217\",\"1527779\",\"0.0-217.0\",\"\",\"\",\"2-5\",\"4563\",\"39\",\"1\",\"Testing\",\"Stims/Figures/118-C-20-2.bmp\",\"na:la:na\",\"Left\",\"39\",\"3\",\"21\",\"1\",\"S\",\"C\",\"69\"
\"\",\"\",\"approach-retreat\",\"218\",\"1534114\",\"0.0-218.0\",\"\",\"\",\"2-5\",\"4830\",\"40\",\"1\",\"Testing\",\"Stims/Figures/84-J-0-2.bmp\",\"pakaka\",\"Down\",\"40\",\"3\",\"22\",\"1\",\"P\",\"C\",\"70\"
\"\",\"\",\"approach-retreat\",\"219\",\"1540584\",\"0.0-219.0\",\"\",\"\",\"2-5\",\"4967\",\"38\",\"1\",\"Testing\",\"Stims/Figures/74-C-20-4.bmp\",\"na:la:na\",\"Down\",\"38\",\"3\",\"23\",\"1\",\"S\",\"C\",\"71\"
\"\",\"\",\"approach-retreat\",\"220\",\"1547684\",\"0.0-220.0\",\"\",\"\",\"2-5\",\"5597\",\"37\",\"1\",\"Testing\",\"Stims/Figures/44-J-10-3.bmp\",\"pakaka\",\"Left\",\"37\",\"3\",\"24\",\"1\",\"P\",\"C\",\"72\"
\"\",\"\",\"approach-retreat\",\"221\",\"1555183\",\"0.0-221.0\",\"\",\"\",\"2-5\",\"5990\",\"38\",\"0\",\"Testing\",\"Stims/Figures/19-J-10-4.bmp\",\"pakaka\",\"Down\",\"40\",\"4\",\"1\",\"1\",\"P\",\"C\",\"73\"
\"\",\"\",\"approach-retreat\",\"222\",\"1561872\",\"0.0-222.0\",\"\",\"\",\"2-5\",\"5181\",\"37\",\"1\",\"Testing\",\"Stims/Figures/93-C-30-1.bmp\",\"na:la:na\",\"Right\",\"37\",\"4\",\"2\",\"1\",\"S\",\"C\",\"74\"
\"\",\"\",\"approach-retreat\",\"223\",\"1567984\",\"0.0-223.0\",\"\",\"\",\"2-5\",\"4608\",\"40\",\"1\",\"Testing\",\"Stims/Figures/86-J-0-1.bmp\",\"pakaka\",\"Down\",\"40\",\"4\",\"3\",\"1\",\"P\",\"C\",\"75\"
\"\",\"\",\"approach-retreat\",\"224\",\"1574249\",\"0.0-224.0\",\"\",\"\",\"2-5\",\"4759\",\"38\",\"1\",\"Testing\",\"Stims/Figures/19-C-20-4.bmp\",\"na:la:na\",\"Down\",\"38\",\"4\",\"4\",\"1\",\"S\",\"C\",\"76\"
\"\",\"\",\"approach-retreat\",\"225\",\"1580554\",\"0.0-225.0\",\"\",\"\",\"2-5\",\"4801\",\"39\",\"1\",\"Testing\",\"Stims/Figures/144-C-30-3.bmp\",\"na:la:na\",\"Left\",\"39\",\"4\",\"5\",\"1\",\"S\",\"C\",\"77\"
\"\",\"\",\"approach-retreat\",\"226\",\"1586862\",\"0.0-226.0\",\"\",\"\",\"2-5\",\"4799\",\"38\",\"1\",\"Testing\",\"Stims/Figures/94-J-0-2.bmp\",\"pakaka\",\"Up\",\"38\",\"4\",\"6\",\"1\",\"P\",\"C\",\"78\"
\"\",\"\",\"approach-retreat\",\"227\",\"1595028\",\"0.0-227.0\",\"\",\"\",\"2-5\",\"6659\",\"39\",\"1\",\"Testing\",\"Stims/Figures/144-J-10-3.bmp\",\"pakaka\",\"Right\",\"39\",\"4\",\"7\",\"1\",\"P\",\"C\",\"79\"
\"\",\"\",\"approach-retreat\",\"228\",\"1602119\",\"0.0-228.0\",\"\",\"\",\"2-5\",\"5586\",\"40\",\"1\",\"Testing\",\"Stims/Figures/74-J-10-4.bmp\",\"pakaka\",\"Down\",\"40\",\"4\",\"8\",\"1\",\"P\",\"C\",\"80\"
\"\",\"\",\"approach-retreat\",\"229\",\"1608600\",\"0.0-229.0\",\"\",\"\",\"2-5\",\"4977\",\"37\",\"1\",\"Testing\",\"Stims/Figures/57-J-0-1.bmp\",\"pakaka\",\"Left\",\"37\",\"4\",\"9\",\"1\",\"P\",\"C\",\"81\"
\"\",\"\",\"approach-retreat\",\"230\",\"1615767\",\"0.0-230.0\",\"\",\"\",\"2-5\",\"5660\",\"37\",\"1\",\"Testing\",\"Stims/Figures/87-J-10-4.bmp\",\"pakaka\",\"Left\",\"37\",\"4\",\"10\",\"1\",\"P\",\"C\",\"82\"
\"\",\"\",\"approach-retreat\",\"231\",\"1622062\",\"0.0-231.0\",\"\",\"\",\"2-5\",\"4792\",\"40\",\"1\",\"Testing\",\"Stims/Figures/87-C-20-4.bmp\",\"na:la:na\",\"Up\",\"40\",\"4\",\"11\",\"1\",\"S\",\"C\",\"83\"
\"\",\"\",\"approach-retreat\",\"232\",\"1629074\",\"0.0-232.0\",\"\",\"\",\"2-5\",\"5507\",\"39\",\"1\",\"Testing\",\"Stims/Figures/84-J-0-2.bmp\",\"pakaka\",\"Right\",\"39\",\"4\",\"12\",\"1\",\"P\",\"C\",\"84\"
\"\",\"\",\"approach-retreat\",\"233\",\"1635270\",\"0.0-233.0\",\"\",\"\",\"2-5\",\"4687\",\"39\",\"1\",\"Testing\",\"Stims/Figures/93-J-0-1.bmp\",\"pakaka\",\"Right\",\"39\",\"4\",\"13\",\"1\",\"P\",\"C\",\"85\"
\"\",\"\",\"approach-retreat\",\"234\",\"1642701\",\"0.0-234.0\",\"\",\"\",\"2-5\",\"5925\",\"40\",\"1\",\"Testing\",\"Stims/Figures/84-C-20-2.bmp\",\"na:la:na\",\"Up\",\"40\",\"4\",\"14\",\"1\",\"S\",\"C\",\"86\"
\"\",\"\",\"approach-retreat\",\"235\",\"1649198\",\"0.0-235.0\",\"\",\"\",\"2-5\",\"4991\",\"40\",\"1\",\"Testing\",\"Stims/Figures/86-C-30-1.bmp\",\"na:la:na\",\"Up\",\"40\",\"4\",\"15\",\"1\",\"S\",\"C\",\"87\"
\"\",\"\",\"approach-retreat\",\"236\",\"1656065\",\"0.0-236.0\",\"\",\"\",\"2-5\",\"5358\",\"40\",\"1\",\"Testing\",\"Stims/Figures/100-J-10-3.bmp\",\"pakaka\",\"Down\",\"40\",\"4\",\"16\",\"1\",\"P\",\"C\",\"88\"
\"\",\"\",\"approach-retreat\",\"237\",\"1664175\",\"0.0-237.0\",\"\",\"\",\"2-5\",\"6606\",\"37\",\"1\",\"Testing\",\"Stims/Figures/118-J-0-2.bmp\",\"pakaka\",\"Left\",\"37\",\"4\",\"17\",\"1\",\"P\",\"C\",\"89\"
\"\",\"\",\"approach-retreat\",\"238\",\"1672235\",\"0.0-238.0\",\"\",\"\",\"2-5\",\"6555\",\"39\",\"1\",\"Testing\",\"Stims/Figures/118-C-20-2.bmp\",\"na:la:na\",\"Left\",\"39\",\"4\",\"18\",\"1\",\"S\",\"C\",\"90\"
\"\",\"\",\"approach-retreat\",\"239\",\"1679255\",\"0.0-239.0\",\"\",\"\",\"2-5\",\"5510\",\"38\",\"1\",\"Testing\",\"Stims/Figures/44-J-10-3.bmp\",\"pakaka\",\"Up\",\"38\",\"4\",\"19\",\"1\",\"P\",\"C\",\"91\"
\"\",\"\",\"approach-retreat\",\"240\",\"1685186\",\"0.0-240.0\",\"\",\"\",\"2-5\",\"4429\",\"38\",\"1\",\"Testing\",\"Stims/Figures/94-C-20-2.bmp\",\"na:la:na\",\"Down\",\"38\",\"4\",\"20\",\"1\",\"S\",\"C\",\"92\"
\"\",\"\",\"approach-retreat\",\"241\",\"1692086\",\"0.0-241.0\",\"\",\"\",\"2-5\",\"5391\",\"40\",\"1\",\"Testing\",\"Stims/Figures/100-C-30-3.bmp\",\"na:la:na\",\"Up\",\"40\",\"4\",\"21\",\"1\",\"S\",\"C\",\"93\"
\"\",\"\",\"approach-retreat\",\"242\",\"1699476\",\"0.0-242.0\",\"\",\"\",\"2-5\",\"5882\",\"37\",\"1\",\"Testing\",\"Stims/Figures/57-C-30-1.bmp\",\"na:la:na\",\"Right\",\"37\",\"4\",\"22\",\"1\",\"S\",\"C\",\"94\"
\"\",\"\",\"approach-retreat\",\"243\",\"1705337\",\"0.0-243.0\",\"\",\"\",\"2-5\",\"4356\",\"37\",\"1\",\"Testing\",\"Stims/Figures/44-C-30-3.bmp\",\"na:la:na\",\"Right\",\"37\",\"4\",\"23\",\"1\",\"S\",\"C\",\"95\"
\"\",\"\",\"approach-retreat\",\"244\",\"1711137\",\"0.0-244.0\",\"\",\"\",\"2-5\",\"4295\",\"39\",\"1\",\"Testing\",\"Stims/Figures/74-C-20-4.bmp\",\"na:la:na\",\"Left\",\"39\",\"4\",\"24\",\"1\",\"S\",\"C\",\"96\"
\"35479\",\"\",\"survey-text\",\"245\",\"1746623\",\"0.0-245.0\",\"\",\"{\"\"Q0\"\":\"\"1285/2017\"\"}\",\"\",\"\",\"\",\"\",\"\",\"\",\"\",\"\",\"\",\"\",\"\",\"\",\"\",\"\",\"\"
