"rt","key_press","trial_type","trial_index","time_elapsed","internal_node_id","view_history","responses","Id","Rt","ResKeyCode","ResCorr","TrialType2","Image","Label","Location","CorrectResponse","Block","BlockTrial","Condition","LabelType","Subcondition","trialNum"
"86541","32","text","0","86548","0.0-0.0-0.0","","","","","","","","","","","","","","","","",""
"206801","","instructions","1","293355","0.0-1.0","[{""page_index"":0,""viewing_time"":206800}]","","","","","","","","","","","","","","","",""
"100399","","survey-multi-choice","2","393816","0.0-2.0","","{""Q0"":""Da"",""Q1"":""Da"",""Q2"":""Da"",""Q3"":""Da"",""Q4"":""Da"",""Q5"":""Da""}","","","","","","","","","","","","","","",""
"","","bio","3","416799","0.0-3.0","","{""age"":""19"",""gender"":""f"",""specify"":""""}","","","","","","","","","","","","","","",""
"","","approach-retreat","4","425183","0.0-4.0","","","3-4","6865","37","0","Training","Stims/Figures/128-J-10-3.bmp","ta:pa:ta","Right","39","1","1","1","P","C","1"
"","","approach-retreat","5","431055","0.0-5.0","","","3-4","4353","37","1","Training","Stims/Figures/44-J-10-3.bmp","ta:pa:ta","Left","37","1","2","1","P","C","2"
"","","approach-retreat","6","437023","0.0-6.0","","","3-4","4450","40","1","Training","Stims/Figures/44-C-30-3.bmp","na:ma:la","Up","40","1","3","1","S","C","3"
"","","approach-retreat","7","442563","0.0-7.0","","","3-4","4024","40","1","Training","Stims/Figures/139-C-20-2.bmp","na:ma:la","Up","40","1","4","1","S","C","4"
"","","approach-retreat","8","448268","0.0-8.0","","","3-4","4186","38","1","Training","Stims/Figures/128-C-30-3.bmp","na:ma:la","Down","38","1","5","1","S","C","5"
"","","approach-retreat","9","453884","0.0-9.0","","","3-4","4108","38","1","Training","Stims/Figures/86-C-30-1.bmp","na:ma:la","Down","38","1","6","1","S","C","6"
"","","approach-retreat","10","459363","0.0-10.0","","","3-4","3959","37","0","Training","Stims/Figures/87-J-10-4.bmp","ta:pa:ta","Right","39","1","7","1","P","C","7"
"","","approach-retreat","11","465042","0.0-11.0","","","3-4","4159","37","1","Training","Stims/Figures/57-J-0-1.bmp","ta:pa:ta","Left","37","1","8","1","P","C","8"
"","","approach-retreat","12","471058","0.0-12.0","","","3-4","4497","37","1","Training","Stims/Figures/87-C-20-4.bmp","na:ma:la","Right","37","1","9","1","S","C","9"
"","","approach-retreat","13","477043","0.0-13.0","","","3-4","4462","40","1","Training","Stims/Figures/139-J-0-2.bmp","ta:pa:ta","Down","40","1","10","1","P","C","10"
"","","approach-retreat","14","482617","0.0-14.0","","","3-4","4058","39","1","Training","Stims/Figures/74-C-20-4.bmp","na:ma:la","Left","39","1","11","1","S","C","11"
"","","approach-retreat","15","488059","0.0-15.0","","","3-4","3923","40","1","Training","Stims/Figures/118-J-0-2.bmp","ta:pa:ta","Down","40","1","12","1","P","C","12"
"","","approach-retreat","16","494114","0.0-16.0","","","3-4","4532","38","0","Training","Stims/Figures/118-C-20-2.bmp","na:ma:la","Up","40","1","13","1","S","C","13"
"","","approach-retreat","17","499740","0.0-17.0","","","3-4","4108","37","1","Training","Stims/Figures/57-C-30-1.bmp","na:ma:la","Right","37","1","14","1","S","C","14"
"","","approach-retreat","18","505879","0.0-18.0","","","3-4","4623","38","1","Training","Stims/Figures/74-J-10-4.bmp","ta:pa:ta","Up","38","1","15","1","P","C","15"
"","","approach-retreat","19","512418","0.0-19.0","","","3-4","5022","37","1","Training","Stims/Figures/86-J-0-1.bmp","ta:pa:ta","Left","37","1","16","1","P","C","16"
"","","approach-retreat","20","518536","0.0-20.0","","","3-4","4600","38","1","Training","Stims/Figures/87-C-20-4.bmp","na:ma:la","Down","38","2","1","1","S","C","17"
"","","approach-retreat","21","524402","0.0-21.0","","","3-4","4349","38","1","Training","Stims/Figures/57-J-0-1.bmp","ta:pa:ta","Up","38","2","2","1","P","C","18"
"","","approach-retreat","22","530592","0.0-22.0","","","3-4","4671","37","1","Training","Stims/Figures/86-J-0-1.bmp","ta:pa:ta","Left","37","2","3","1","P","C","19"
"","","approach-retreat","23","536124","0.0-23.0","","","3-4","4012","37","1","Training","Stims/Figures/118-C-20-2.bmp","na:ma:la","Right","37","2","4","1","S","C","20"
"","","approach-retreat","24","541730","0.0-24.0","","","3-4","4088","37","1","Training","Stims/Figures/86-C-30-1.bmp","na:ma:la","Right","37","2","5","1","S","C","21"
"","","approach-retreat","25","547317","0.0-25.0","","","3-4","4069","39","1","Training","Stims/Figures/139-C-20-2.bmp","na:ma:la","Left","39","2","6","1","S","C","22"
"","","approach-retreat","26","552882","0.0-26.0","","","3-4","4045","37","1","Training","Stims/Figures/44-C-30-3.bmp","na:ma:la","Right","37","2","7","1","S","C","23"
"","","approach-retreat","27","558646","0.0-27.0","","","3-4","4246","40","1","Training","Stims/Figures/57-C-30-1.bmp","na:ma:la","Up","40","2","8","1","S","C","24"
"","","approach-retreat","28","564311","0.0-28.0","","","3-4","4147","38","1","Training","Stims/Figures/44-J-10-3.bmp","ta:pa:ta","Up","38","2","9","1","P","C","25"
"","","approach-retreat","29","570080","0.0-29.0","","","3-4","4250","38","1","Training","Stims/Figures/74-C-20-4.bmp","na:ma:la","Down","38","2","10","1","S","C","26"
"","","approach-retreat","30","575678","0.0-30.0","","","3-4","4080","37","1","Training","Stims/Figures/128-J-10-3.bmp","ta:pa:ta","Left","37","2","11","1","P","C","27"
"","","approach-retreat","31","581197","0.0-31.0","","","3-4","4002","37","1","Training","Stims/Figures/118-J-0-2.bmp","ta:pa:ta","Left","37","2","12","1","P","C","28"
"","","approach-retreat","32","586726","0.0-32.0","","","3-4","4010","40","1","Training","Stims/Figures/87-J-10-4.bmp","ta:pa:ta","Down","40","2","13","1","P","C","29"
"","","approach-retreat","33","592339","0.0-33.0","","","3-4","4093","39","1","Training","Stims/Figures/139-J-0-2.bmp","ta:pa:ta","Right","39","2","14","1","P","C","30"
"","","approach-retreat","34","598094","0.0-34.0","","","3-4","4236","40","1","Training","Stims/Figures/128-C-30-3.bmp","na:ma:la","Up","40","2","15","1","S","C","31"
"","","approach-retreat","35","603792","0.0-35.0","","","3-4","4181","40","1","Training","Stims/Figures/74-J-10-4.bmp","ta:pa:ta","Down","40","2","16","1","P","C","32"
"","","approach-retreat","36","609405","0.0-36.0","","","3-4","4096","38","1","Training","Stims/Figures/44-C-30-3.bmp","na:ma:la","Down","38","3","1","1","S","C","33"
"","","approach-retreat","37","615103","0.0-37.0","","","3-4","4180","39","1","Training","Stims/Figures/87-C-20-4.bmp","na:ma:la","Left","39","3","2","1","S","C","34"
"","","approach-retreat","38","620599","0.0-38.0","","","3-4","3976","37","1","Training","Stims/Figures/118-J-0-2.bmp","ta:pa:ta","Left","37","3","3","1","P","C","35"
"","","approach-retreat","39","626161","0.0-39.0","","","3-4","4042","39","1","Training","Stims/Figures/57-J-0-1.bmp","ta:pa:ta","Right","39","3","4","1","P","C","36"
"","","approach-retreat","40","631813","0.0-40.0","","","3-4","4133","37","1","Training","Stims/Figures/118-C-20-2.bmp","na:ma:la","Right","37","3","5","1","S","C","37"
"","","approach-retreat","41","637536","0.0-41.0","","","3-4","4204","40","1","Training","Stims/Figures/86-C-30-1.bmp","na:ma:la","Up","40","3","6","1","S","C","38"
"","","approach-retreat","42","643158","0.0-42.0","","","3-4","4105","37","1","Training","Stims/Figures/128-C-30-3.bmp","na:ma:la","Right","37","3","7","1","S","C","39"
"","","approach-retreat","43","648866","0.0-43.0","","","3-4","4188","38","1","Training","Stims/Figures/44-J-10-3.bmp","ta:pa:ta","Up","38","3","8","1","P","C","40"
"","","approach-retreat","44","654542","0.0-44.0","","","3-4","4156","38","1","Training","Stims/Figures/74-J-10-4.bmp","ta:pa:ta","Up","38","3","9","1","P","C","41"
"","","approach-retreat","45","660655","0.0-45.0","","","3-4","4596","39","1","Training","Stims/Figures/139-J-0-2.bmp","ta:pa:ta","Right","39","3","10","1","P","C","42"
"","","approach-retreat","46","666370","0.0-46.0","","","3-4","4194","39","1","Training","Stims/Figures/139-C-20-2.bmp","na:ma:la","Left","39","3","11","1","S","C","43"
"","","approach-retreat","47","672297","0.0-47.0","","","3-4","4408","40","1","Training","Stims/Figures/128-J-10-3.bmp","ta:pa:ta","Down","40","3","12","1","P","C","44"
"","","approach-retreat","48","677890","0.0-48.0","","","3-4","4073","40","1","Training","Stims/Figures/57-C-30-1.bmp","na:ma:la","Up","40","3","13","1","S","C","45"
"","","approach-retreat","49","683541","0.0-49.0","","","3-4","4135","40","1","Training","Stims/Figures/87-J-10-4.bmp","ta:pa:ta","Down","40","3","14","1","P","C","46"
"","","approach-retreat","50","689113","0.0-50.0","","","3-4","4054","39","1","Training","Stims/Figures/74-C-20-4.bmp","na:ma:la","Left","39","3","15","1","S","C","47"
"","","approach-retreat","51","694613","0.0-51.0","","","3-4","3979","40","1","Training","Stims/Figures/86-J-0-1.bmp","ta:pa:ta","Down","40","3","16","1","P","C","48"
"","","approach-retreat","52","700140","0.0-52.0","","","3-4","4009","37","1","Training","Stims/Figures/128-C-30-3.bmp","na:ma:la","Right","37","4","1","1","S","C","49"
"","","approach-retreat","53","705618","0.0-53.0","","","3-4","3960","37","1","Training","Stims/Figures/74-C-20-4.bmp","na:ma:la","Right","37","4","2","1","S","C","50"
"","","approach-retreat","54","711116","0.0-54.0","","","3-4","3978","40","1","Training","Stims/Figures/118-J-0-2.bmp","ta:pa:ta","Down","40","4","3","1","P","C","51"
"","","approach-retreat","55","716658","0.0-55.0","","","3-4","4022","37","1","Training","Stims/Figures/86-J-0-1.bmp","ta:pa:ta","Left","37","4","4","1","P","C","52"
"","","approach-retreat","56","722234","0.0-56.0","","","3-4","4058","40","1","Training","Stims/Figures/139-J-0-2.bmp","ta:pa:ta","Down","40","4","5","1","P","C","53"
"","","approach-retreat","57","727808","0.0-57.0","","","3-4","4056","37","1","Training","Stims/Figures/74-J-10-4.bmp","ta:pa:ta","Left","37","4","6","1","P","C","54"
"","","approach-retreat","58","733302","0.0-58.0","","","3-4","3977","37","1","Training","Stims/Figures/87-J-10-4.bmp","ta:pa:ta","Left","37","4","7","1","P","C","55"
"","","approach-retreat","59","738941","0.0-59.0","","","3-4","4119","38","1","Training","Stims/Figures/44-J-10-3.bmp","ta:pa:ta","Up","38","4","8","1","P","C","56"
"","","approach-retreat","60","744505","0.0-60.0","","","3-4","4045","39","1","Training","Stims/Figures/57-C-30-1.bmp","na:ma:la","Left","39","4","9","1","S","C","57"
"","","approach-retreat","61","749936","0.0-61.0","","","3-4","3915","37","1","Training","Stims/Figures/139-C-20-2.bmp","na:ma:la","Right","37","4","10","1","S","C","58"
"","","approach-retreat","62","755493","0.0-62.0","","","3-4","4040","38","1","Training","Stims/Figures/86-C-30-1.bmp","na:ma:la","Down","38","4","11","1","S","C","59"
"","","approach-retreat","63","760902","0.0-63.0","","","3-4","3892","38","1","Training","Stims/Figures/118-C-20-2.bmp","na:ma:la","Down","38","4","12","1","S","C","60"
"","","approach-retreat","64","766634","0.0-64.0","","","3-4","4216","38","1","Training","Stims/Figures/128-J-10-3.bmp","ta:pa:ta","Up","38","4","13","1","P","C","61"
"","","approach-retreat","65","772032","0.0-65.0","","","3-4","3882","39","1","Training","Stims/Figures/57-J-0-1.bmp","ta:pa:ta","Right","39","4","14","1","P","C","62"
"","","approach-retreat","66","777652","0.0-66.0","","","3-4","4102","40","1","Training","Stims/Figures/44-C-30-3.bmp","na:ma:la","Up","40","4","15","1","S","C","63"
"","","approach-retreat","67","783266","0.0-67.0","","","3-4","4097","40","1","Training","Stims/Figures/87-C-20-4.bmp","na:ma:la","Up","40","4","16","1","S","C","64"
"","","approach-retreat","68","788669","0.0-68.0","","","3-4","3885","39","1","Training","Stims/Figures/57-J-0-1.bmp","ta:pa:ta","Right","39","5","1","1","P","C","65"
"","","approach-retreat","69","794221","0.0-69.0","","","3-4","4033","39","1","Training","Stims/Figures/86-C-30-1.bmp","na:ma:la","Left","39","5","2","1","S","C","66"
"","","approach-retreat","70","799566","0.0-70.0","","","3-4","3827","38","1","Training","Stims/Figures/87-C-20-4.bmp","na:ma:la","Down","38","5","3","1","S","C","67"
"","","approach-retreat","71","805057","0.0-71.0","","","3-4","3975","37","1","Training","Stims/Figures/44-J-10-3.bmp","ta:pa:ta","Left","37","5","4","1","P","C","68"
"","","approach-retreat","72","810543","0.0-72.0","","","3-4","3969","39","1","Training","Stims/Figures/118-C-20-2.bmp","na:ma:la","Left","39","5","5","1","S","C","69"
"","","approach-retreat","73","816193","0.0-73.0","","","3-4","4132","38","1","Training","Stims/Figures/118-J-0-2.bmp","ta:pa:ta","Up","38","5","6","1","P","C","70"
"","","approach-retreat","74","821705","0.0-74.0","","","3-4","3994","37","1","Training","Stims/Figures/44-C-30-3.bmp","na:ma:la","Right","37","5","7","1","S","C","71"
"","","approach-retreat","75","827490","0.0-75.0","","","3-4","4265","38","1","Training","Stims/Figures/87-J-10-4.bmp","ta:pa:ta","Up","38","5","8","1","P","C","72"
"","","approach-retreat","76","832960","0.0-76.0","","","3-4","3954","38","1","Training","Stims/Figures/74-C-20-4.bmp","na:ma:la","Down","38","5","9","1","S","C","73"
"","","approach-retreat","77","838541","0.0-77.0","","","3-4","4063","38","1","Training","Stims/Figures/139-J-0-2.bmp","ta:pa:ta","Up","38","5","10","1","P","C","74"
"","","approach-retreat","78","844108","0.0-78.0","","","3-4","4049","39","1","Training","Stims/Figures/74-J-10-4.bmp","ta:pa:ta","Right","39","5","11","1","P","C","75"
"","","approach-retreat","79","849744","0.0-79.0","","","3-4","4119","38","1","Training","Stims/Figures/128-J-10-3.bmp","ta:pa:ta","Up","38","5","12","1","P","C","76"
"","","approach-retreat","80","855619","0.0-80.0","","","3-4","4354","39","0","Training","Stims/Figures/128-C-30-3.bmp","na:ma:la","Right","37","5","13","1","S","C","77"
"","","approach-retreat","81","861252","0.0-81.0","","","3-4","4114","40","1","Training","Stims/Figures/86-J-0-1.bmp","ta:pa:ta","Down","40","5","14","1","P","C","78"
"","","approach-retreat","82","866856","0.0-82.0","","","3-4","4084","38","1","Training","Stims/Figures/139-C-20-2.bmp","na:ma:la","Down","38","5","15","1","S","C","79"
"","","approach-retreat","83","872384","0.0-83.0","","","3-4","4011","39","1","Training","Stims/Figures/57-C-30-1.bmp","na:ma:la","Left","39","5","16","1","S","C","80"
"","","approach-retreat","84","877905","0.0-84.0","","","3-4","4003","37","1","Training","Stims/Figures/86-C-30-1.bmp","na:ma:la","Right","37","6","1","1","S","C","81"
"","","approach-retreat","85","883488","0.0-85.0","","","3-4","4063","38","1","Training","Stims/Figures/57-C-30-1.bmp","na:ma:la","Down","38","6","2","1","S","C","82"
"","","approach-retreat","86","889081","0.0-86.0","","","3-4","4077","40","1","Training","Stims/Figures/118-C-20-2.bmp","na:ma:la","Up","40","6","3","1","S","C","83"
"","","approach-retreat","87","894582","0.0-87.0","","","3-4","3984","38","1","Training","Stims/Figures/44-C-30-3.bmp","na:ma:la","Down","38","6","4","1","S","C","84"
"","","approach-retreat","88","900168","0.0-88.0","","","3-4","4068","39","0","Training","Stims/Figures/57-J-0-1.bmp","ta:pa:ta","Left","37","6","5","1","P","C","85"
"","","approach-retreat","89","905975","0.0-89.0","","","3-4","4291","38","1","Training","Stims/Figures/74-J-10-4.bmp","ta:pa:ta","Up","38","6","6","1","P","C","86"
"","","approach-retreat","90","911568","0.0-90.0","","","3-4","4073","39","1","Training","Stims/Figures/74-C-20-4.bmp","na:ma:la","Left","39","6","7","1","S","C","87"
"","","approach-retreat","91","917162","0.0-91.0","","","3-4","4075","39","1","Training","Stims/Figures/139-C-20-2.bmp","na:ma:la","Left","39","6","8","1","S","C","88"
"","","approach-retreat","92","922797","0.0-92.0","","","3-4","4116","38","1","Training","Stims/Figures/86-J-0-1.bmp","ta:pa:ta","Up","38","6","9","1","P","C","89"
"","","approach-retreat","93","928908","0.0-93.0","","","3-4","4593","40","1","Training","Stims/Figures/139-J-0-2.bmp","ta:pa:ta","Down","40","6","10","1","P","C","90"
"","","approach-retreat","94","934610","0.0-94.0","","","3-4","4183","40","1","Training","Stims/Figures/128-C-30-3.bmp","na:ma:la","Up","40","6","11","1","S","C","91"
"","","approach-retreat","95","940122","0.0-95.0","","","3-4","3996","40","1","Training","Stims/Figures/44-J-10-3.bmp","ta:pa:ta","Down","40","6","12","1","P","C","92"
"","","approach-retreat","96","945653","0.0-96.0","","","3-4","4012","37","1","Training","Stims/Figures/87-C-20-4.bmp","na:ma:la","Right","37","6","13","1","S","C","93"
"","","approach-retreat","97","951325","0.0-97.0","","","3-4","4155","37","1","Training","Stims/Figures/87-J-10-4.bmp","ta:pa:ta","Left","37","6","14","1","P","C","94"
"","","approach-retreat","98","956918","0.0-98.0","","","3-4","4074","39","1","Training","Stims/Figures/128-J-10-3.bmp","ta:pa:ta","Right","39","6","15","1","P","C","95"
"","","approach-retreat","99","962582","0.0-99.0","","","3-4","4145","39","1","Training","Stims/Figures/118-J-0-2.bmp","ta:pa:ta","Right","39","6","16","1","P","C","96"
"","","approach-retreat","100","968182","0.0-100.0","","","3-4","4083","39","1","Training","Stims/Figures/139-J-0-2.bmp","ta:pa:ta","Right","39","7","1","1","P","C","97"
"","","approach-retreat","101","973753","0.0-101.0","","","3-4","4054","37","1","Training","Stims/Figures/44-C-30-3.bmp","na:ma:la","Right","37","7","2","1","S","C","98"
"","","approach-retreat","102","979226","0.0-102.0","","","3-4","3956","37","1","Training","Stims/Figures/139-C-20-2.bmp","na:ma:la","Right","37","7","3","1","S","C","99"
"","","approach-retreat","103","984702","0.0-103.0","","","3-4","3958","37","1","Training","Stims/Figures/57-C-30-1.bmp","na:ma:la","Right","37","7","4","1","S","C","100"
"","","approach-retreat","104","990135","0.0-104.0","","","3-4","3916","37","1","Training","Stims/Figures/86-J-0-1.bmp","ta:pa:ta","Left","37","7","5","1","P","C","101"
"","","approach-retreat","105","995710","0.0-105.0","","","3-4","4054","39","1","Training","Stims/Figures/87-C-20-4.bmp","na:ma:la","Left","39","7","6","1","S","C","102"
"","","approach-retreat","106","1001191","0.0-106.0","","","3-4","3965","40","1","Training","Stims/Figures/74-C-20-4.bmp","na:ma:la","Up","40","7","7","1","S","C","103"
"","","approach-retreat","107","1006871","0.0-107.0","","","3-4","4160","38","1","Training","Stims/Figures/118-J-0-2.bmp","ta:pa:ta","Up","38","7","8","1","P","C","104"
"","","approach-retreat","108","1012762","0.0-108.0","","","3-4","4372","39","1","Training","Stims/Figures/86-C-30-1.bmp","na:ma:la","Left","39","7","9","1","S","C","105"
"","","approach-retreat","109","1018713","0.0-109.0","","","3-4","4432","40","1","Training","Stims/Figures/57-J-0-1.bmp","ta:pa:ta","Down","40","7","10","1","P","C","106"
"","","approach-retreat","110","1024301","0.0-110.0","","","3-4","4069","38","1","Training","Stims/Figures/118-C-20-2.bmp","na:ma:la","Down","38","7","11","1","S","C","107"
"","","approach-retreat","111","1030028","0.0-111.0","","","3-4","4211","38","1","Training","Stims/Figures/87-J-10-4.bmp","ta:pa:ta","Up","38","7","12","1","P","C","108"
"","","approach-retreat","112","1035672","0.0-112.0","","","3-4","4127","37","1","Training","Stims/Figures/128-J-10-3.bmp","ta:pa:ta","Left","37","7","13","1","P","C","109"
"","","approach-retreat","113","1041371","0.0-113.0","","","3-4","4181","38","1","Training","Stims/Figures/74-J-10-4.bmp","ta:pa:ta","Up","38","7","14","1","P","C","110"
"","","approach-retreat","114","1047213","0.0-114.0","","","3-4","4323","38","1","Training","Stims/Figures/128-C-30-3.bmp","na:ma:la","Down","38","7","15","1","S","C","111"
"","","approach-retreat","115","1052725","0.0-115.0","","","3-4","3995","40","1","Training","Stims/Figures/44-J-10-3.bmp","ta:pa:ta","Down","40","7","16","1","P","C","112"
"","","approach-retreat","116","1058495","0.0-116.0","","","3-4","4253","40","1","Training","Stims/Figures/118-C-20-2.bmp","na:ma:la","Up","40","8","1","1","S","C","113"
"","","approach-retreat","117","1064101","0.0-117.0","","","3-4","4090","39","1","Training","Stims/Figures/57-C-30-1.bmp","na:ma:la","Left","39","8","2","1","S","C","114"
"","","approach-retreat","118","1069507","0.0-118.0","","","3-4","3889","40","1","Training","Stims/Figures/74-J-10-4.bmp","ta:pa:ta","Down","40","8","3","1","P","C","115"
"","","approach-retreat","119","1074991","0.0-119.0","","","3-4","3967","37","1","Training","Stims/Figures/128-J-10-3.bmp","ta:pa:ta","Left","37","8","4","1","P","C","116"
"","","approach-retreat","120","1080489","0.0-120.0","","","3-4","3977","37","1","Training","Stims/Figures/74-C-20-4.bmp","na:ma:la","Right","37","8","5","1","S","C","117"
"","","approach-retreat","121","1085950","0.0-121.0","","","3-4","3942","37","1","Training","Stims/Figures/86-C-30-1.bmp","na:ma:la","Right","37","8","6","1","S","C","118"
"","","approach-retreat","122","1091537","0.0-122.0","","","3-4","4071","38","1","Training","Stims/Figures/57-J-0-1.bmp","ta:pa:ta","Up","38","8","7","1","P","C","119"
"","","approach-retreat","123","1097128","0.0-123.0","","","3-4","4072","40","1","Training","Stims/Figures/44-J-10-3.bmp","ta:pa:ta","Down","40","8","8","1","P","C","120"
"","","approach-retreat","124","1102880","0.0-124.0","","","3-4","4235","38","1","Training","Stims/Figures/87-J-10-4.bmp","ta:pa:ta","Up","38","8","9","1","P","C","121"
"","","approach-retreat","125","1108329","0.0-125.0","","","3-4","3932","37","1","Training","Stims/Figures/44-C-30-3.bmp","na:ma:la","Right","37","8","10","1","S","C","122"
"","","approach-retreat","126","1113817","0.0-126.0","","","3-4","3971","40","1","Training","Stims/Figures/87-C-20-4.bmp","na:ma:la","Up","40","8","11","1","S","C","123"
"","","approach-retreat","127","1119352","0.0-127.0","","","3-4","4017","40","1","Training","Stims/Figures/118-J-0-2.bmp","ta:pa:ta","Down","40","8","12","1","P","C","124"
"","","approach-retreat","128","1124976","0.0-128.0","","","3-4","4106","37","1","Training","Stims/Figures/128-C-30-3.bmp","na:ma:la","Right","37","8","13","1","S","C","125"
"","","approach-retreat","129","1130429","0.0-129.0","","","3-4","3937","40","1","Training","Stims/Figures/139-J-0-2.bmp","ta:pa:ta","Down","40","8","14","1","P","C","126"
"","","approach-retreat","130","1135968","0.0-130.0","","","3-4","4021","37","1","Training","Stims/Figures/86-J-0-1.bmp","ta:pa:ta","Left","37","8","15","1","P","C","127"
"","","approach-retreat","131","1141521","0.0-131.0","","","3-4","4036","39","1","Training","Stims/Figures/139-C-20-2.bmp","na:ma:la","Left","39","8","16","1","S","C","128"
"","","approach-retreat","132","1146996","0.0-132.0","","","3-4","3957","40","1","Training","Stims/Figures/87-J-10-4.bmp","ta:pa:ta","Down","40","9","1","1","P","C","129"
"","","approach-retreat","133","1152527","0.0-133.0","","","3-4","4012","38","1","Training","Stims/Figures/44-J-10-3.bmp","ta:pa:ta","Up","38","9","2","1","P","C","130"
"","","approach-retreat","134","1158847","0.0-134.0","","","3-4","4802","38","1","Training","Stims/Figures/118-C-20-2.bmp","na:ma:la","Down","38","9","3","1","S","C","131"
"","","approach-retreat","135","1164547","0.0-135.0","","","3-4","4181","38","1","Training","Stims/Figures/44-C-30-3.bmp","na:ma:la","Down","38","9","4","1","S","C","132"
"","","approach-retreat","136","1170042","0.0-136.0","","","3-4","3976","37","1","Training","Stims/Figures/128-C-30-3.bmp","na:ma:la","Right","37","9","5","1","S","C","133"
"","","approach-retreat","137","1175485","0.0-137.0","","","3-4","3925","39","1","Training","Stims/Figures/74-C-20-4.bmp","na:ma:la","Left","39","9","6","1","S","C","134"
"","","approach-retreat","138","1180970","0.0-138.0","","","3-4","3964","39","1","Training","Stims/Figures/139-J-0-2.bmp","ta:pa:ta","Right","39","9","7","1","P","C","135"
"","","approach-retreat","139","1187084","0.0-139.0","","","3-4","4596","37","1","Training","Stims/Figures/57-C-30-1.bmp","na:ma:la","Right","37","9","8","1","S","C","136"
"","","approach-retreat","140","1192632","0.0-140.0","","","3-4","4031","39","1","Training","Stims/Figures/87-C-20-4.bmp","na:ma:la","Left","39","9","9","1","S","C","137"
"","","approach-retreat","141","1198323","0.0-141.0","","","3-4","4173","38","1","Training","Stims/Figures/118-J-0-2.bmp","ta:pa:ta","Up","38","9","10","1","P","C","138"
"","","approach-retreat","142","1203957","0.0-142.0","","","3-4","4117","38","1","Training","Stims/Figures/128-J-10-3.bmp","ta:pa:ta","Up","38","9","11","1","P","C","139"
"","","approach-retreat","143","1209470","0.0-143.0","","","3-4","3994","40","1","Training","Stims/Figures/57-J-0-1.bmp","ta:pa:ta","Down","40","9","12","1","P","C","140"
"","","approach-retreat","144","1214960","0.0-144.0","","","3-4","3973","39","1","Training","Stims/Figures/139-C-20-2.bmp","na:ma:la","Left","39","9","13","1","S","C","141"
"","","approach-retreat","145","1220520","0.0-145.0","","","3-4","4040","39","1","Training","Stims/Figures/86-J-0-1.bmp","ta:pa:ta","Right","39","9","14","1","P","C","142"
"","","approach-retreat","146","1226085","0.0-146.0","","","3-4","4048","40","1","Training","Stims/Figures/86-C-30-1.bmp","na:ma:la","Up","40","9","15","1","S","C","143"
"","","approach-retreat","147","1231555","0.0-147.0","","","3-4","3953","37","1","Training","Stims/Figures/74-J-10-4.bmp","ta:pa:ta","Left","37","9","16","1","P","C","144"
"40562","","instructions","148","1272117","0.0-148.0","[{""page_index"":0,""viewing_time"":40560}]","","","","","","","","","","","","","","","",""
"","","approach-retreat","149","1281300","0.0-149.0","","","3-4","7672","37","1","Testing","Stims/Figures/144-J-10-3.bmp","ta:pa:ta","Left","37","1","1","1","P","C","1"
"","","approach-retreat","150","1286863","0.0-150.0","","","3-4","4049","40","1","Testing","Stims/Figures/71-J-0-1.bmp","ta:pa:ta","Down","40","1","2","1","P","C","2"
"","","approach-retreat","151","1292339","0.0-151.0","","","3-4","3960","37","1","Testing","Stims/Figures/102-C-20-4.bmp","na:ma:la","Right","37","1","3","1","S","C","3"
"","","approach-retreat","152","1297921","0.0-152.0","","","3-4","4067","40","1","Testing","Stims/Figures/128-C-30-3.bmp","na:ma:la","Up","40","1","4","1","S","C","4"
"","","approach-retreat","153","1303712","0.0-153.0","","","3-4","4276","37","1","Testing","Stims/Figures/57-J-0-1.bmp","ta:pa:ta","Left","37","1","5","1","P","C","5"
"","","approach-retreat","154","1309292","0.0-154.0","","","3-4","4063","37","1","Testing","Stims/Figures/57-C-30-1.bmp","na:ma:la","Right","37","1","6","1","S","C","6"
"","","approach-retreat","155","1314824","0.0-155.0","","","3-4","4014","37","1","Testing","Stims/Figures/128-J-10-3.bmp","ta:pa:ta","Left","37","1","7","1","P","C","7"
"","","approach-retreat","156","1320320","0.0-156.0","","","3-4","3980","40","1","Testing","Stims/Figures/118-J-0-2.bmp","ta:pa:ta","Down","40","1","8","1","P","C","8"
"","","approach-retreat","157","1325711","0.0-157.0","","","3-4","3876","38","0","Testing","Stims/Figures/87-J-10-4.bmp","ta:pa:ta","Down","40","1","9","1","P","C","9"
"","","approach-retreat","158","1331220","0.0-158.0","","","3-4","3992","38","1","Testing","Stims/Figures/144-C-30-3.bmp","na:ma:la","Down","38","1","10","1","S","C","10"
"","","approach-retreat","159","1336630","0.0-159.0","","","3-4","3894","38","1","Testing","Stims/Figures/118-C-20-2.bmp","na:ma:la","Down","38","1","11","1","S","C","11"
"","","approach-retreat","160","1343155","0.0-160.0","","","3-4","5011","39","0","Testing","Stims/Figures/87-C-20-4.bmp","na:ma:la","Right","37","1","12","1","S","C","12"
"","","approach-retreat","161","1348894","0.0-161.0","","","3-4","4225","37","0","Testing","Stims/Figures/102-J-10-4.bmp","ta:pa:ta","Right","39","1","13","1","P","C","13"
"","","approach-retreat","162","1354708","0.0-162.0","","","3-4","4299","38","1","Testing","Stims/Figures/44-J-10-3.bmp","ta:pa:ta","Up","38","1","14","1","P","C","14"
"","","approach-retreat","163","1360299","0.0-163.0","","","3-4","4075","37","1","Testing","Stims/Figures/84-J-0-2.bmp","ta:pa:ta","Left","37","1","15","1","P","C","15"
"","","approach-retreat","164","1366613","0.0-164.0","","","3-4","4797","37","1","Testing","Stims/Figures/86-J-0-1.bmp","ta:pa:ta","Left","37","1","16","1","P","C","16"
"","","approach-retreat","165","1372208","0.0-165.0","","","3-4","4075","37","1","Testing","Stims/Figures/71-C-30-1.bmp","na:ma:la","Right","37","1","17","1","S","C","17"
"","","approach-retreat","166","1377913","0.0-166.0","","","3-4","4191","40","1","Testing","Stims/Figures/139-C-20-2.bmp","na:ma:la","Up","40","1","18","1","S","C","18"
"","","approach-retreat","167","1383658","0.0-167.0","","","3-4","4218","37","1","Testing","Stims/Figures/84-C-20-2.bmp","na:ma:la","Right","37","1","19","1","S","C","19"
"","","approach-retreat","168","1389198","0.0-168.0","","","3-4","4024","37","1","Testing","Stims/Figures/74-J-10-4.bmp","ta:pa:ta","Left","37","1","20","1","P","C","20"
"","","approach-retreat","169","1394725","0.0-169.0","","","3-4","4013","38","1","Testing","Stims/Figures/44-C-30-3.bmp","na:ma:la","Down","38","1","21","1","S","C","21"
"","","approach-retreat","170","1400451","0.0-170.0","","","3-4","4212","40","1","Testing","Stims/Figures/74-C-20-4.bmp","na:ma:la","Up","40","1","22","1","S","C","22"
"","","approach-retreat","171","1406106","0.0-171.0","","","3-4","4143","38","1","Testing","Stims/Figures/139-J-0-2.bmp","ta:pa:ta","Up","38","1","23","1","P","C","23"
"","","approach-retreat","172","1411906","0.0-172.0","","","3-4","4287","40","1","Testing","Stims/Figures/86-C-30-1.bmp","na:ma:la","Up","40","1","24","1","S","C","24"
"","","approach-retreat","173","1417782","0.0-173.0","","","3-4","4362","37","0","Testing","Stims/Figures/87-C-20-4.bmp","na:ma:la","Left","39","2","1","1","S","C","25"
"","","approach-retreat","174","1423402","0.0-174.0","","","3-4","4108","39","1","Testing","Stims/Figures/139-C-20-2.bmp","na:ma:la","Left","39","2","2","1","S","C","26"
"","","approach-retreat","175","1428997","0.0-175.0","","","3-4","4080","37","1","Testing","Stims/Figures/57-C-30-1.bmp","na:ma:la","Right","37","2","3","1","S","C","27"
"","","approach-retreat","176","1434877","0.0-176.0","","","3-4","4365","40","0","Testing","Stims/Figures/144-J-10-3.bmp","ta:pa:ta","Up","38","2","4","1","P","C","28"
"","","approach-retreat","177","1440571","0.0-177.0","","","3-4","4180","40","1","Testing","Stims/Figures/57-J-0-1.bmp","ta:pa:ta","Down","40","2","5","1","P","C","29"
"","","approach-retreat","178","1446019","0.0-178.0","","","3-4","3933","37","1","Testing","Stims/Figures/44-C-30-3.bmp","na:ma:la","Right","37","2","6","1","S","C","30"
"","","approach-retreat","179","1451565","0.0-179.0","","","3-4","4032","39","1","Testing","Stims/Figures/86-C-30-1.bmp","na:ma:la","Left","39","2","7","1","S","C","31"
"","","approach-retreat","180","1457409","0.0-180.0","","","3-4","4327","38","1","Testing","Stims/Figures/139-J-0-2.bmp","ta:pa:ta","Up","38","2","8","1","P","C","32"
"","","approach-retreat","181","1462953","0.0-181.0","","","3-4","4029","40","1","Testing","Stims/Figures/86-J-0-1.bmp","ta:pa:ta","Down","40","2","9","1","P","C","33"
"","","approach-retreat","182","1471476","0.0-182.0","","","3-4","7007","40","1","Testing","Stims/Figures/128-J-10-3.bmp","ta:pa:ta","Down","40","2","10","1","P","C","34"
"","","approach-retreat","183","1476958","0.0-183.0","","","3-4","3966","39","1","Testing","Stims/Figures/102-C-20-4.bmp","na:ma:la","Left","39","2","11","1","S","C","35"
"","","approach-retreat","184","1482654","0.0-184.0","","","3-4","4181","39","1","Testing","Stims/Figures/74-J-10-4.bmp","ta:pa:ta","Right","39","2","12","1","P","C","36"
"","","approach-retreat","185","1488344","0.0-185.0","","","3-4","4174","38","1","Testing","Stims/Figures/128-C-30-3.bmp","na:ma:la","Down","38","2","13","1","S","C","37"
"","","approach-retreat","186","1494024","0.0-186.0","","","3-4","4163","38","1","Testing","Stims/Figures/84-J-0-2.bmp","ta:pa:ta","Up","38","2","14","1","P","C","38"
"","","approach-retreat","187","1499573","0.0-187.0","","","3-4","4036","38","1","Testing","Stims/Figures/144-C-30-3.bmp","na:ma:la","Down","38","2","15","1","S","C","39"
"","","approach-retreat","188","1505172","0.0-188.0","","","3-4","4085","39","1","Testing","Stims/Figures/118-J-0-2.bmp","ta:pa:ta","Right","39","2","16","1","P","C","40"
"","","approach-retreat","189","1511354","0.0-189.0","","","3-4","4668","40","0","Testing","Stims/Figures/102-J-10-4.bmp","ta:pa:ta","Up","38","2","17","1","P","C","41"
"","","approach-retreat","190","1516846","0.0-190.0","","","3-4","3977","37","1","Testing","Stims/Figures/44-J-10-3.bmp","ta:pa:ta","Left","37","2","18","1","P","C","42"
"","","approach-retreat","191","1522495","0.0-191.0","","","3-4","4128","39","1","Testing","Stims/Figures/87-J-10-4.bmp","ta:pa:ta","Right","39","2","19","1","P","C","43"
"","","approach-retreat","192","1528149","0.0-192.0","","","3-4","4141","39","1","Testing","Stims/Figures/71-J-0-1.bmp","ta:pa:ta","Right","39","2","20","1","P","C","44"
"","","approach-retreat","193","1533905","0.0-193.0","","","3-4","4235","40","1","Testing","Stims/Figures/118-C-20-2.bmp","na:ma:la","Up","40","2","21","1","S","C","45"
"","","approach-retreat","194","1539456","0.0-194.0","","","3-4","4035","39","1","Testing","Stims/Figures/74-C-20-4.bmp","na:ma:la","Left","39","2","22","1","S","C","46"
"","","approach-retreat","195","1544977","0.0-195.0","","","3-4","4007","38","1","Testing","Stims/Figures/84-C-20-2.bmp","na:ma:la","Down","38","2","23","1","S","C","47"
"","","approach-retreat","196","1550748","0.0-196.0","","","3-4","4255","40","1","Testing","Stims/Figures/71-C-30-1.bmp","na:ma:la","Up","40","2","24","1","S","C","48"
"","","approach-retreat","197","1556278","0.0-197.0","","","3-4","4015","39","1","Testing","Stims/Figures/128-C-30-3.bmp","na:ma:la","Left","39","3","1","1","S","C","49"
"","","approach-retreat","198","1561815","0.0-198.0","","","3-4","4024","37","1","Testing","Stims/Figures/102-C-20-4.bmp","na:ma:la","Right","37","3","2","1","S","C","50"
"","","approach-retreat","199","1567491","0.0-199.0","","","3-4","4158","38","1","Testing","Stims/Figures/87-J-10-4.bmp","ta:pa:ta","Up","38","3","3","1","P","C","51"
"","","approach-retreat","200","1575899","0.0-200.0","","","3-4","6895","37","1","Testing","Stims/Figures/144-J-10-3.bmp","ta:pa:ta","Left","37","3","4","1","P","C","52"
"","","approach-retreat","201","1581424","0.0-201.0","","","3-4","4011","40","1","Testing","Stims/Figures/118-J-0-2.bmp","ta:pa:ta","Down","40","3","5","1","P","C","53"
"","","approach-retreat","202","1587009","0.0-202.0","","","3-4","4070","39","1","Testing","Stims/Figures/139-C-20-2.bmp","na:ma:la","Left","39","3","6","1","S","C","54"
"","","approach-retreat","203","1592536","0.0-203.0","","","3-4","4012","38","1","Testing","Stims/Figures/118-C-20-2.bmp","na:ma:la","Down","38","3","7","1","S","C","55"
"","","approach-retreat","204","1598239","0.0-204.0","","","3-4","4189","40","1","Testing","Stims/Figures/87-C-20-4.bmp","na:ma:la","Up","40","3","8","1","S","C","56"
"","","approach-retreat","205","1604015","0.0-205.0","","","3-4","4261","39","1","Testing","Stims/Figures/86-J-0-1.bmp","ta:pa:ta","Right","39","3","9","1","P","C","57"
"","","approach-retreat","206","1609547","0.0-206.0","","","3-4","4016","37","1","Testing","Stims/Figures/139-J-0-2.bmp","ta:pa:ta","Left","37","3","10","1","P","C","58"
"","","approach-retreat","207","1615275","0.0-207.0","","","3-4","4213","37","0","Testing","Stims/Figures/102-J-10-4.bmp","ta:pa:ta","Right","39","3","11","1","P","C","59"
"","","approach-retreat","208","1620933","0.0-208.0","","","3-4","4142","38","1","Testing","Stims/Figures/44-J-10-3.bmp","ta:pa:ta","Up","38","3","12","1","P","C","60"
"","","approach-retreat","209","1627741","0.0-209.0","","","3-4","5295","40","1","Testing","Stims/Figures/57-J-0-1.bmp","ta:pa:ta","Down","40","3","13","1","P","C","61"
"","","approach-retreat","210","1633540","0.0-210.0","","","3-4","4283","40","1","Testing","Stims/Figures/84-C-20-2.bmp","na:ma:la","Up","40","3","14","1","S","C","62"
"","","approach-retreat","211","1639052","0.0-211.0","","","3-4","3997","37","1","Testing","Stims/Figures/74-C-20-4.bmp","na:ma:la","Right","37","3","15","1","S","C","63"
"","","approach-retreat","212","1644930","0.0-212.0","","","3-4","4364","38","1","Testing","Stims/Figures/144-C-30-3.bmp","na:ma:la","Down","38","3","16","1","S","C","64"
"","","approach-retreat","213","1650440","0.0-213.0","","","3-4","3994","37","1","Testing","Stims/Figures/71-C-30-1.bmp","na:ma:la","Right","37","3","17","1","S","C","65"
"","","approach-retreat","214","1655851","0.0-214.0","","","3-4","3897","40","1","Testing","Stims/Figures/71-J-0-1.bmp","ta:pa:ta","Down","40","3","18","1","P","C","66"
"","","approach-retreat","215","1661605","0.0-215.0","","","3-4","4240","39","1","Testing","Stims/Figures/44-C-30-3.bmp","na:ma:la","Left","39","3","19","1","S","C","67"
"","","approach-retreat","216","1667331","0.0-216.0","","","3-4","4210","39","1","Testing","Stims/Figures/84-J-0-2.bmp","ta:pa:ta","Right","39","3","20","1","P","C","68"
"","","approach-retreat","217","1672995","0.0-217.0","","","3-4","4150","37","1","Testing","Stims/Figures/128-J-10-3.bmp","ta:pa:ta","Left","37","3","21","1","P","C","69"
"","","approach-retreat","218","1678641","0.0-218.0","","","3-4","4131","38","1","Testing","Stims/Figures/74-J-10-4.bmp","ta:pa:ta","Up","38","3","22","1","P","C","70"
"","","approach-retreat","219","1684050","0.0-219.0","","","3-4","3894","40","1","Testing","Stims/Figures/57-C-30-1.bmp","na:ma:la","Up","40","3","23","1","S","C","71"
"","","approach-retreat","220","1689565","0.0-220.0","","","3-4","4000","38","1","Testing","Stims/Figures/86-C-30-1.bmp","na:ma:la","Down","38","3","24","1","S","C","72"
"","","approach-retreat","221","1695825","0.0-221.0","","","3-4","4747","40","1","Testing","Stims/Figures/87-J-10-4.bmp","ta:pa:ta","Down","40","4","1","1","P","C","73"
"","","approach-retreat","222","1701351","0.0-222.0","","","3-4","4011","37","1","Testing","Stims/Figures/86-J-0-1.bmp","ta:pa:ta","Left","37","4","2","1","P","C","74"
"","","approach-retreat","223","1707444","0.0-223.0","","","3-4","4578","40","1","Testing","Stims/Figures/144-J-10-3.bmp","ta:pa:ta","Down","40","4","3","1","P","C","75"
"","","approach-retreat","224","1712980","0.0-224.0","","","3-4","4015","38","1","Testing","Stims/Figures/128-J-10-3.bmp","ta:pa:ta","Up","38","4","4","1","P","C","76"
"","","approach-retreat","225","1718500","0.0-225.0","","","3-4","4007","38","1","Testing","Stims/Figures/139-C-20-2.bmp","na:ma:la","Down","38","4","5","1","S","C","77"
"","","approach-retreat","226","1724060","0.0-226.0","","","3-4","4045","39","1","Testing","Stims/Figures/84-J-0-2.bmp","ta:pa:ta","Right","39","4","6","1","P","C","78"
"","","approach-retreat","227","1730443","0.0-227.0","","","3-4","4870","37","1","Testing","Stims/Figures/74-C-20-4.bmp","na:ma:la","Right","37","4","7","1","S","C","79"
"","","approach-retreat","228","1736238","0.0-228.0","","","3-4","4279","40","1","Testing","Stims/Figures/74-J-10-4.bmp","ta:pa:ta","Down","40","4","8","1","P","C","80"
"","","approach-retreat","229","1741828","0.0-229.0","","","3-4","4074","39","1","Testing","Stims/Figures/102-C-20-4.bmp","na:ma:la","Left","39","4","9","1","S","C","81"
"","","approach-retreat","230","1747708","0.0-230.0","","","3-4","4365","38","1","Testing","Stims/Figures/71-J-0-1.bmp","ta:pa:ta","Up","38","4","10","1","P","C","82"
"","","approach-retreat","231","1753218","0.0-231.0","","","3-4","3994","37","1","Testing","Stims/Figures/84-C-20-2.bmp","na:ma:la","Right","37","4","11","1","S","C","83"
"","","approach-retreat","232","1759610","0.0-232.0","","","3-4","4876","37","1","Testing","Stims/Figures/144-C-30-3.bmp","na:ma:la","Right","37","4","12","1","S","C","84"
"","","approach-retreat","233","1765214","0.0-233.0","","","3-4","4090","37","1","Testing","Stims/Figures/71-C-30-1.bmp","na:ma:la","Right","37","4","13","1","S","C","85"
"","","approach-retreat","234","1771366","0.0-234.0","","","3-4","4637","37","1","Testing","Stims/Figures/57-J-0-1.bmp","ta:pa:ta","Left","37","4","14","1","P","C","86"
"","","approach-retreat","235","1779055","0.0-235.0","","","3-4","6177","39","1","Testing","Stims/Figures/87-C-20-4.bmp","na:ma:la","Left","39","4","15","1","S","C","87"
"","","approach-retreat","236","1784870","0.0-236.0","","","3-4","4300","40","1","Testing","Stims/Figures/118-C-20-2.bmp","na:ma:la","Up","40","4","16","1","S","C","88"
"","","approach-retreat","237","1790336","0.0-237.0","","","3-4","3952","39","1","Testing","Stims/Figures/128-C-30-3.bmp","na:ma:la","Left","39","4","17","1","S","C","89"
"","","approach-retreat","238","1795826","0.0-238.0","","","3-4","3976","37","0","Testing","Stims/Figures/102-J-10-4.bmp","ta:pa:ta","Right","39","4","18","1","P","C","90"
"","","approach-retreat","239","1801401","0.0-239.0","","","3-4","4059","40","1","Testing","Stims/Figures/57-C-30-1.bmp","na:ma:la","Up","40","4","19","1","S","C","91"
"","","approach-retreat","240","1807239","0.0-240.0","","","3-4","4322","39","1","Testing","Stims/Figures/44-C-30-3.bmp","na:ma:la","Left","39","4","20","1","S","C","92"
"","","approach-retreat","241","1813242","0.0-241.0","","","3-4","4490","40","1","Testing","Stims/Figures/118-J-0-2.bmp","ta:pa:ta","Down","40","4","21","1","P","C","93"
"","","approach-retreat","242","1819144","0.0-242.0","","","3-4","4387","40","1","Testing","Stims/Figures/139-J-0-2.bmp","ta:pa:ta","Down","40","4","22","1","P","C","94"
"","","approach-retreat","243","1824852","0.0-243.0","","","3-4","4193","38","1","Testing","Stims/Figures/44-J-10-3.bmp","ta:pa:ta","Up","38","4","23","1","P","C","95"
"","","approach-retreat","244","1830663","0.0-244.0","","","3-4","4295","40","1","Testing","Stims/Figures/86-C-30-1.bmp","na:ma:la","Up","40","4","24","1","S","C","96"
"265506","","survey-text","245","2096179","0.0-245.0","","{""Q0"":""PS180001""}","","","","","","","","","","","","","","",""
