\"rt\",\"key_press\",\"trial_type\",\"trial_index\",\"time_elapsed\",\"internal_node_id\",\"view_history\",\"responses\",\"Id\",\"Rt\",\"ResKeyCode\",\"ResCorr\",\"TrialType2\",\"Image\",\"Label\",\"Location\",\"CorrectResponse\",\"Block\",\"BlockTrial\",\"Condition\",\"LabelType\",\"Subcondition\",\"trialNum\"
\"3584\",\"32\",\"text\",\"0\",\"3596\",\"0.0-0.0-0.0\",\"\",\"\",\"\",\"\",\"\",\"\",\"\",\"\",\"\",\"\",\"\",\"\",\"\",\"\",\"\",\"\",\"\"
\"114507\",\"\",\"instructions\",\"1\",\"118114\",\"0.0-1.0\",\"[{\"\"page_index\"\":0,\"\"viewing_time\"\":114503}]\",\"\",\"\",\"\",\"\",\"\",\"\",\"\",\"\",\"\",\"\",\"\",\"\",\"\",\"\",\"\",\"\"
\"81697\",\"\",\"survey-multi-choice\",\"2\",\"199977\",\"0.0-2.0\",\"\",\"{\"\"Q0\"\":\"\"Da\"\",\"\"Q1\"\":\"\"Da\"\",\"\"Q2\"\":\"\"Da\"\",\"\"Q3\"\":\"\"Da\"\",\"\"Q4\"\":\"\"Da\"\",\"\"Q5\"\":\"\"Da\"\"}\",\"\",\"\",\"\",\"\",\"\",\"\",\"\",\"\",\"\",\"\",\"\",\"\",\"\",\"\",\"\"
\"\",\"\",\"bio\",\"3\",\"224774\",\"0.0-3.0\",\"\",\"{\"\"age\"\":\"\"19\"\",\"\"gender\"\":\"\"f\"\",\"\"specify\"\":\"\"\"\"}\",\"\",\"\",\"\",\"\",\"\",\"\",\"\",\"\",\"\",\"\",\"\",\"\",\"\",\"\",\"\"
\"\",\"\",\"approach-retreat\",\"4\",\"236884\",\"0.0-4.0\",\"\",\"\",\"2-1\",\"10558\",\"38\",\"0\",\"Training\",\"Stims/Figures/57-C-30-1.bmp\",\"vafa:va\",\"Down\",\"40\",\"1\",\"1\",\"6B\",\"C1\",\"J\",\"1\"
\"\",\"\",\"approach-retreat\",\"5\",\"244814\",\"0.0-5.0\",\"\",\"\",\"2-1\",\"6392\",\"40\",\"0\",\"Training\",\"Stims/Figures/118-J-0-2.bmp\",\"zaha:ha\",\"Down\",\"38\",\"1\",\"2\",\"6B\",\"C2\",\"J\",\"2\"
\"\",\"\",\"approach-retreat\",\"6\",\"253635\",\"0.0-6.0\",\"\",\"\",\"2-1\",\"7285\",\"37\",\"1\",\"Training\",\"Stims/Figures/71-J-0-1.bmp\",\"sa:haza\",\"Right\",\"37\",\"1\",\"3\",\"6B\",\"C2\",\"J\",\"3\"
\"\",\"\",\"approach-retreat\",\"7\",\"260128\",\"0.0-7.0\",\"\",\"\",\"2-1\",\"4957\",\"40\",\"1\",\"Training\",\"Stims/Figures/44-J-10-3.bmp\",\"sahaza\",\"Up\",\"40\",\"1\",\"4\",\"6B\",\"C2\",\"J\",\"4\"
\"\",\"\",\"approach-retreat\",\"8\",\"266867\",\"0.0-8.0\",\"\",\"\",\"2-1\",\"5203\",\"38\",\"1\",\"Training\",\"Stims/Figures/57-J-0-1.bmp\",\"za:haha\",\"Down\",\"38\",\"1\",\"5\",\"6B\",\"C2\",\"J\",\"5\"
\"\",\"\",\"approach-retreat\",\"9\",\"276289\",\"0.0-9.0\",\"\",\"\",\"2-1\",\"7888\",\"40\",\"0\",\"Training\",\"Stims/Figures/144-C-30-3.bmp\",\"fashasha\",\"Up\",\"38\",\"1\",\"6\",\"6B\",\"C1\",\"J\",\"6\"
\"\",\"\",\"approach-retreat\",\"10\",\"284215\",\"0.0-10.0\",\"\",\"\",\"2-1\",\"6391\",\"38\",\"1\",\"Training\",\"Stims/Figures/7-C-20-4.bmp\",\"vasha:va\",\"Up\",\"38\",\"1\",\"7\",\"6B\",\"C1\",\"J\",\"7\"
\"\",\"\",\"approach-retreat\",\"11\",\"291670\",\"0.0-11.0\",\"\",\"\",\"2-1\",\"5916\",\"38\",\"1\",\"Training\",\"Stims/Figures/7-J-10-4.bmp\",\"za:saza\",\"Down\",\"38\",\"1\",\"8\",\"6B\",\"C2\",\"J\",\"8\"
\"\",\"\",\"approach-retreat\",\"12\",\"298202\",\"0.0-12.0\",\"\",\"\",\"2-1\",\"4995\",\"39\",\"0\",\"Training\",\"Stims/Figures/71-C-30-1.bmp\",\"va:fasha\",\"Left\",\"37\",\"1\",\"9\",\"6B\",\"C1\",\"J\",\"9\"
\"\",\"\",\"approach-retreat\",\"13\",\"305705\",\"0.0-13.0\",\"\",\"\",\"2-1\",\"5969\",\"37\",\"0\",\"Training\",\"Stims/Figures/44-C-30-3.bmp\",\"fafava\",\"Right\",\"39\",\"1\",\"10\",\"6B\",\"C1\",\"J\",\"10\"
\"\",\"\",\"approach-retreat\",\"14\",\"312237\",\"0.0-14.0\",\"\",\"\",\"2-1\",\"4997\",\"39\",\"0\",\"Training\",\"Stims/Figures/144-J-10-3.bmp\",\"saha:za\",\"Right\",\"37\",\"1\",\"11\",\"6B\",\"C2\",\"J\",\"11\"
\"\",\"\",\"approach-retreat\",\"15\",\"320100\",\"0.0-15.0\",\"\",\"\",\"2-1\",\"6330\",\"37\",\"1\",\"Training\",\"Stims/Figures/87-J-10-4.bmp\",\"sa:saha\",\"Right\",\"37\",\"1\",\"12\",\"6B\",\"C2\",\"J\",\"12\"
\"\",\"\",\"approach-retreat\",\"16\",\"326713\",\"0.0-16.0\",\"\",\"\",\"2-1\",\"5077\",\"39\",\"0\",\"Training\",\"Stims/Figures/118-C-20-2.bmp\",\"va:sha:va\",\"Left\",\"37\",\"1\",\"13\",\"6B\",\"C1\",\"J\",\"13\"
\"\",\"\",\"approach-retreat\",\"17\",\"334078\",\"0.0-17.0\",\"\",\"\",\"2-1\",\"5828\",\"39\",\"1\",\"Training\",\"Stims/Figures/84-J-0-2.bmp\",\"sa:sa:za\",\"Left\",\"39\",\"1\",\"14\",\"6B\",\"C2\",\"J\",\"14\"
\"\",\"\",\"approach-retreat\",\"18\",\"341299\",\"0.0-18.0\",\"\",\"\",\"2-1\",\"5687\",\"37\",\"1\",\"Training\",\"Stims/Figures/84-C-20-2.bmp\",\"vasha:sha\",\"Left\",\"37\",\"1\",\"15\",\"6B\",\"C1\",\"J\",\"15\"
\"\",\"\",\"approach-retreat\",\"19\",\"347933\",\"0.0-19.0\",\"\",\"\",\"2-1\",\"5097\",\"40\",\"0\",\"Training\",\"Stims/Figures/87-C-20-4.bmp\",\"va:shasha\",\"Up\",\"38\",\"1\",\"16\",\"6B\",\"C1\",\"J\",\"16\"
\"\",\"\",\"approach-retreat\",\"20\",\"356392\",\"0.0-20.0\",\"\",\"\",\"2-1\",\"6924\",\"38\",\"1\",\"Training\",\"Stims/Figures/57-J-0-1.bmp\",\"za:haha\",\"Down\",\"38\",\"2\",\"1\",\"6B\",\"C2\",\"J\",\"17\"
\"\",\"\",\"approach-retreat\",\"21\",\"363400\",\"0.0-21.0\",\"\",\"\",\"2-1\",\"5471\",\"37\",\"1\",\"Training\",\"Stims/Figures/71-J-0-1.bmp\",\"sa:haza\",\"Right\",\"37\",\"2\",\"2\",\"6B\",\"C2\",\"J\",\"18\"
\"\",\"\",\"approach-retreat\",\"22\",\"370415\",\"0.0-22.0\",\"\",\"\",\"2-1\",\"5481\",\"39\",\"0\",\"Training\",\"Stims/Figures/118-C-20-2.bmp\",\"va:sha:va\",\"Left\",\"37\",\"2\",\"3\",\"6B\",\"C1\",\"J\",\"19\"
\"\",\"\",\"approach-retreat\",\"23\",\"377328\",\"0.0-23.0\",\"\",\"\",\"2-1\",\"5379\",\"37\",\"1\",\"Training\",\"Stims/Figures/144-J-10-3.bmp\",\"saha:za\",\"Right\",\"37\",\"2\",\"4\",\"6B\",\"C2\",\"J\",\"20\"
\"\",\"\",\"approach-retreat\",\"24\",\"384258\",\"0.0-24.0\",\"\",\"\",\"2-1\",\"5395\",\"39\",\"1\",\"Training\",\"Stims/Figures/87-C-20-4.bmp\",\"va:shasha\",\"Right\",\"39\",\"2\",\"5\",\"6B\",\"C1\",\"J\",\"21\"
\"\",\"\",\"approach-retreat\",\"25\",\"390556\",\"0.0-25.0\",\"\",\"\",\"2-1\",\"4761\",\"39\",\"0\",\"Training\",\"Stims/Figures/7-C-20-4.bmp\",\"vasha:va\",\"Left\",\"37\",\"2\",\"6\",\"6B\",\"C1\",\"J\",\"22\"
\"\",\"\",\"approach-retreat\",\"26\",\"397126\",\"0.0-26.0\",\"\",\"\",\"2-1\",\"5036\",\"39\",\"0\",\"Training\",\"Stims/Figures/44-C-30-3.bmp\",\"fafava\",\"Left\",\"37\",\"2\",\"7\",\"6B\",\"C1\",\"J\",\"23\"
\"\",\"\",\"approach-retreat\",\"27\",\"403814\",\"0.0-27.0\",\"\",\"\",\"2-1\",\"5154\",\"38\",\"1\",\"Training\",\"Stims/Figures/87-J-10-4.bmp\",\"sa:saha\",\"Down\",\"38\",\"2\",\"8\",\"6B\",\"C2\",\"J\",\"24\"
\"\",\"\",\"approach-retreat\",\"28\",\"410022\",\"0.0-28.0\",\"\",\"\",\"2-1\",\"4674\",\"39\",\"0\",\"Training\",\"Stims/Figures/144-C-30-3.bmp\",\"fashasha\",\"Left\",\"37\",\"2\",\"9\",\"6B\",\"C1\",\"J\",\"25\"
\"\",\"\",\"approach-retreat\",\"29\",\"417099\",\"0.0-29.0\",\"\",\"\",\"2-1\",\"5539\",\"40\",\"1\",\"Training\",\"Stims/Figures/118-J-0-2.bmp\",\"zaha:ha\",\"Up\",\"40\",\"2\",\"10\",\"6B\",\"C2\",\"J\",\"26\"
\"\",\"\",\"approach-retreat\",\"30\",\"423929\",\"0.0-30.0\",\"\",\"\",\"2-1\",\"5297\",\"40\",\"1\",\"Training\",\"Stims/Figures/7-J-10-4.bmp\",\"za:saza\",\"Up\",\"40\",\"2\",\"11\",\"6B\",\"C2\",\"J\",\"27\"
\"\",\"\",\"approach-retreat\",\"31\",\"430342\",\"0.0-31.0\",\"\",\"\",\"2-1\",\"4880\",\"38\",\"1\",\"Training\",\"Stims/Figures/44-J-10-3.bmp\",\"sahaza\",\"Down\",\"38\",\"2\",\"12\",\"6B\",\"C2\",\"J\",\"28\"
\"\",\"\",\"approach-retreat\",\"32\",\"436948\",\"0.0-32.0\",\"\",\"\",\"2-1\",\"5073\",\"40\",\"0\",\"Training\",\"Stims/Figures/84-C-20-2.bmp\",\"vasha:sha\",\"Up\",\"38\",\"2\",\"13\",\"6B\",\"C1\",\"J\",\"29\"
\"\",\"\",\"approach-retreat\",\"33\",\"444065\",\"0.0-33.0\",\"\",\"\",\"2-1\",\"5582\",\"39\",\"0\",\"Training\",\"Stims/Figures/84-J-0-2.bmp\",\"sa:sa:za\",\"Right\",\"37\",\"2\",\"14\",\"6B\",\"C2\",\"J\",\"30\"
\"\",\"\",\"approach-retreat\",\"34\",\"451146\",\"0.0-34.0\",\"\",\"\",\"2-1\",\"5549\",\"40\",\"0\",\"Training\",\"Stims/Figures/57-C-30-1.bmp\",\"vafa:va\",\"Up\",\"38\",\"2\",\"15\",\"6B\",\"C1\",\"J\",\"31\"
\"\",\"\",\"approach-retreat\",\"35\",\"456905\",\"0.0-35.0\",\"\",\"\",\"2-1\",\"4225\",\"38\",\"0\",\"Training\",\"Stims/Figures/71-C-30-1.bmp\",\"va:fasha\",\"Down\",\"40\",\"2\",\"16\",\"6B\",\"C1\",\"J\",\"32\"
\"\",\"\",\"approach-retreat\",\"36\",\"462978\",\"0.0-36.0\",\"\",\"\",\"2-1\",\"4539\",\"39\",\"1\",\"Training\",\"Stims/Figures/7-J-10-4.bmp\",\"za:saza\",\"Left\",\"39\",\"3\",\"1\",\"6B\",\"C2\",\"J\",\"33\"
\"\",\"\",\"approach-retreat\",\"37\",\"469742\",\"0.0-37.0\",\"\",\"\",\"2-1\",\"5230\",\"37\",\"0\",\"Training\",\"Stims/Figures/57-C-30-1.bmp\",\"vafa:va\",\"Right\",\"39\",\"3\",\"2\",\"6B\",\"C1\",\"J\",\"34\"
\"\",\"\",\"approach-retreat\",\"38\",\"476055\",\"0.0-38.0\",\"\",\"\",\"2-1\",\"4774\",\"40\",\"0\",\"Training\",\"Stims/Figures/144-C-30-3.bmp\",\"fashasha\",\"Up\",\"38\",\"3\",\"3\",\"6B\",\"C1\",\"J\",\"35\"
\"\",\"\",\"approach-retreat\",\"39\",\"482212\",\"0.0-39.0\",\"\",\"\",\"2-1\",\"4620\",\"39\",\"0\",\"Training\",\"Stims/Figures/118-C-20-2.bmp\",\"va:sha:va\",\"Left\",\"37\",\"3\",\"4\",\"6B\",\"C1\",\"J\",\"36\"
\"\",\"\",\"approach-retreat\",\"40\",\"490570\",\"0.0-40.0\",\"\",\"\",\"2-1\",\"6823\",\"39\",\"1\",\"Training\",\"Stims/Figures/87-J-10-4.bmp\",\"sa:saha\",\"Left\",\"39\",\"3\",\"5\",\"6B\",\"C2\",\"J\",\"37\"
\"\",\"\",\"approach-retreat\",\"41\",\"497351\",\"0.0-41.0\",\"\",\"\",\"2-1\",\"5244\",\"39\",\"0\",\"Training\",\"Stims/Figures/118-J-0-2.bmp\",\"zaha:ha\",\"Right\",\"37\",\"3\",\"6\",\"6B\",\"C2\",\"J\",\"38\"
\"\",\"\",\"approach-retreat\",\"42\",\"503702\",\"0.0-42.0\",\"\",\"\",\"2-1\",\"4818\",\"38\",\"0\",\"Training\",\"Stims/Figures/71-C-30-1.bmp\",\"va:fasha\",\"Down\",\"40\",\"3\",\"7\",\"6B\",\"C1\",\"J\",\"39\"
\"\",\"\",\"approach-retreat\",\"43\",\"510521\",\"0.0-43.0\",\"\",\"\",\"2-1\",\"5286\",\"39\",\"0\",\"Training\",\"Stims/Figures/7-C-20-4.bmp\",\"vasha:va\",\"Left\",\"37\",\"3\",\"8\",\"6B\",\"C1\",\"J\",\"40\"
\"\",\"\",\"approach-retreat\",\"44\",\"516552\",\"0.0-44.0\",\"\",\"\",\"2-1\",\"4497\",\"38\",\"1\",\"Training\",\"Stims/Figures/44-J-10-3.bmp\",\"sahaza\",\"Down\",\"38\",\"3\",\"9\",\"6B\",\"C2\",\"J\",\"41\"
\"\",\"\",\"approach-retreat\",\"45\",\"523108\",\"0.0-45.0\",\"\",\"\",\"2-1\",\"5022\",\"38\",\"1\",\"Training\",\"Stims/Figures/71-J-0-1.bmp\",\"sa:haza\",\"Down\",\"38\",\"3\",\"10\",\"6B\",\"C2\",\"J\",\"42\"
\"\",\"\",\"approach-retreat\",\"46\",\"529226\",\"0.0-46.0\",\"\",\"\",\"2-1\",\"4582\",\"38\",\"0\",\"Training\",\"Stims/Figures/144-J-10-3.bmp\",\"saha:za\",\"Up\",\"40\",\"3\",\"11\",\"6B\",\"C2\",\"J\",\"43\"
\"\",\"\",\"approach-retreat\",\"47\",\"535723\",\"0.0-47.0\",\"\",\"\",\"2-1\",\"4963\",\"40\",\"0\",\"Training\",\"Stims/Figures/84-C-20-2.bmp\",\"vasha:sha\",\"Up\",\"38\",\"3\",\"12\",\"6B\",\"C1\",\"J\",\"44\"
\"\",\"\",\"approach-retreat\",\"48\",\"545935\",\"0.0-48.0\",\"\",\"\",\"2-1\",\"8678\",\"37\",\"0\",\"Training\",\"Stims/Figures/44-C-30-3.bmp\",\"fafava\",\"Right\",\"39\",\"3\",\"13\",\"6B\",\"C1\",\"J\",\"45\"
\"\",\"\",\"approach-retreat\",\"49\",\"552577\",\"0.0-49.0\",\"\",\"\",\"2-1\",\"5106\",\"37\",\"1\",\"Training\",\"Stims/Figures/57-J-0-1.bmp\",\"za:haha\",\"Right\",\"37\",\"3\",\"14\",\"6B\",\"C2\",\"J\",\"46\"
\"\",\"\",\"approach-retreat\",\"50\",\"558717\",\"0.0-50.0\",\"\",\"\",\"2-1\",\"4606\",\"40\",\"1\",\"Training\",\"Stims/Figures/84-J-0-2.bmp\",\"sa:sa:za\",\"Up\",\"40\",\"3\",\"15\",\"6B\",\"C2\",\"J\",\"47\"
\"\",\"\",\"approach-retreat\",\"51\",\"564645\",\"0.0-51.0\",\"\",\"\",\"2-1\",\"4393\",\"38\",\"0\",\"Training\",\"Stims/Figures/87-C-20-4.bmp\",\"va:shasha\",\"Down\",\"40\",\"3\",\"16\",\"6B\",\"C1\",\"J\",\"48\"
\"\",\"\",\"approach-retreat\",\"52\",\"570501\",\"0.0-52.0\",\"\",\"\",\"2-1\",\"4318\",\"37\",\"0\",\"Training\",\"Stims/Figures/118-C-20-2.bmp\",\"va:sha:va\",\"Right\",\"39\",\"4\",\"1\",\"6B\",\"C1\",\"J\",\"49\"
\"\",\"\",\"approach-retreat\",\"53\",\"577188\",\"0.0-53.0\",\"\",\"\",\"2-1\",\"5151\",\"38\",\"0\",\"Training\",\"Stims/Figures/71-C-30-1.bmp\",\"va:fasha\",\"Down\",\"40\",\"4\",\"2\",\"6B\",\"C1\",\"J\",\"50\"
\"\",\"\",\"approach-retreat\",\"54\",\"582913\",\"0.0-54.0\",\"\",\"\",\"2-1\",\"4182\",\"37\",\"1\",\"Training\",\"Stims/Figures/118-J-0-2.bmp\",\"zaha:ha\",\"Right\",\"37\",\"4\",\"3\",\"6B\",\"C2\",\"J\",\"51\"
\"\",\"\",\"approach-retreat\",\"55\",\"588682\",\"0.0-55.0\",\"\",\"\",\"2-1\",\"4232\",\"37\",\"0\",\"Training\",\"Stims/Figures/84-C-20-2.bmp\",\"vasha:sha\",\"Right\",\"39\",\"4\",\"4\",\"6B\",\"C1\",\"J\",\"52\"
\"\",\"\",\"approach-retreat\",\"56\",\"594818\",\"0.0-56.0\",\"\",\"\",\"2-1\",\"4601\",\"40\",\"1\",\"Training\",\"Stims/Figures/87-J-10-4.bmp\",\"sa:saha\",\"Up\",\"40\",\"4\",\"5\",\"6B\",\"C2\",\"J\",\"53\"
\"\",\"\",\"approach-retreat\",\"57\",\"601171\",\"0.0-57.0\",\"\",\"\",\"2-1\",\"4818\",\"38\",\"1\",\"Training\",\"Stims/Figures/57-J-0-1.bmp\",\"za:haha\",\"Down\",\"38\",\"4\",\"6\",\"6B\",\"C2\",\"J\",\"54\"
\"\",\"\",\"approach-retreat\",\"58\",\"607136\",\"0.0-58.0\",\"\",\"\",\"2-1\",\"4428\",\"38\",\"0\",\"Training\",\"Stims/Figures/144-C-30-3.bmp\",\"fashasha\",\"Down\",\"40\",\"4\",\"7\",\"6B\",\"C1\",\"J\",\"55\"
\"\",\"\",\"approach-retreat\",\"59\",\"612851\",\"0.0-59.0\",\"\",\"\",\"2-1\",\"4181\",\"40\",\"0\",\"Training\",\"Stims/Figures/57-C-30-1.bmp\",\"vafa:va\",\"Up\",\"38\",\"4\",\"8\",\"6B\",\"C1\",\"J\",\"56\"
\"\",\"\",\"approach-retreat\",\"60\",\"618615\",\"0.0-60.0\",\"\",\"\",\"2-1\",\"4231\",\"37\",\"1\",\"Training\",\"Stims/Figures/7-J-10-4.bmp\",\"za:saza\",\"Right\",\"37\",\"4\",\"9\",\"6B\",\"C2\",\"J\",\"57\"
\"\",\"\",\"approach-retreat\",\"61\",\"624455\",\"0.0-61.0\",\"\",\"\",\"2-1\",\"4307\",\"40\",\"1\",\"Training\",\"Stims/Figures/71-J-0-1.bmp\",\"sa:haza\",\"Up\",\"40\",\"4\",\"10\",\"6B\",\"C2\",\"J\",\"58\"
\"\",\"\",\"approach-retreat\",\"62\",\"633471\",\"0.0-62.0\",\"\",\"\",\"2-1\",\"7480\",\"40\",\"0\",\"Training\",\"Stims/Figures/7-C-20-4.bmp\",\"vasha:va\",\"Up\",\"38\",\"4\",\"11\",\"6B\",\"C1\",\"J\",\"59\"
\"\",\"\",\"approach-retreat\",\"63\",\"639671\",\"0.0-63.0\",\"\",\"\",\"2-1\",\"4666\",\"39\",\"0\",\"Training\",\"Stims/Figures/87-C-20-4.bmp\",\"va:shasha\",\"Left\",\"37\",\"4\",\"12\",\"6B\",\"C1\",\"J\",\"60\"
\"\",\"\",\"approach-retreat\",\"64\",\"646227\",\"0.0-64.0\",\"\",\"\",\"2-1\",\"5023\",\"39\",\"0\",\"Training\",\"Stims/Figures/44-C-30-3.bmp\",\"fafava\",\"Left\",\"37\",\"4\",\"13\",\"6B\",\"C1\",\"J\",\"61\"
\"\",\"\",\"approach-retreat\",\"65\",\"654354\",\"0.0-65.0\",\"\",\"\",\"2-1\",\"6592\",\"39\",\"1\",\"Training\",\"Stims/Figures/44-J-10-3.bmp\",\"sahaza\",\"Left\",\"39\",\"4\",\"14\",\"6B\",\"C2\",\"J\",\"62\"
\"\",\"\",\"approach-retreat\",\"66\",\"664184\",\"0.0-66.0\",\"\",\"\",\"2-1\",\"8294\",\"39\",\"1\",\"Training\",\"Stims/Figures/84-J-0-2.bmp\",\"sa:sa:za\",\"Left\",\"39\",\"4\",\"15\",\"6B\",\"C2\",\"J\",\"63\"
\"\",\"\",\"approach-retreat\",\"67\",\"670462\",\"0.0-67.0\",\"\",\"\",\"2-1\",\"4741\",\"38\",\"1\",\"Training\",\"Stims/Figures/144-J-10-3.bmp\",\"saha:za\",\"Down\",\"38\",\"4\",\"16\",\"6B\",\"C2\",\"J\",\"64\"
\"\",\"\",\"approach-retreat\",\"68\",\"677038\",\"0.0-68.0\",\"\",\"\",\"2-1\",\"5042\",\"37\",\"0\",\"Training\",\"Stims/Figures/87-C-20-4.bmp\",\"va:shasha\",\"Right\",\"39\",\"5\",\"1\",\"6B\",\"C1\",\"J\",\"65\"
\"\",\"\",\"approach-retreat\",\"69\",\"683355\",\"0.0-69.0\",\"\",\"\",\"2-1\",\"4781\",\"39\",\"1\",\"Training\",\"Stims/Figures/144-J-10-3.bmp\",\"saha:za\",\"Left\",\"39\",\"5\",\"2\",\"6B\",\"C2\",\"J\",\"66\"
\"\",\"\",\"approach-retreat\",\"70\",\"689551\",\"0.0-70.0\",\"\",\"\",\"2-1\",\"4662\",\"39\",\"1\",\"Training\",\"Stims/Figures/118-J-0-2.bmp\",\"zaha:ha\",\"Left\",\"39\",\"5\",\"3\",\"6B\",\"C2\",\"J\",\"67\"
\"\",\"\",\"approach-retreat\",\"71\",\"696352\",\"0.0-71.0\",\"\",\"\",\"2-1\",\"5266\",\"37\",\"0\",\"Training\",\"Stims/Figures/44-J-10-3.bmp\",\"sahaza\",\"Left\",\"39\",\"5\",\"4\",\"6B\",\"C2\",\"J\",\"68\"
\"\",\"\",\"approach-retreat\",\"72\",\"702539\",\"0.0-72.0\",\"\",\"\",\"2-1\",\"4646\",\"40\",\"1\",\"Training\",\"Stims/Figures/57-J-0-1.bmp\",\"za:haha\",\"Up\",\"40\",\"5\",\"5\",\"6B\",\"C2\",\"J\",\"69\"
\"\",\"\",\"approach-retreat\",\"73\",\"708965\",\"0.0-73.0\",\"\",\"\",\"2-1\",\"4893\",\"39\",\"0\",\"Training\",\"Stims/Figures/118-C-20-2.bmp\",\"va:sha:va\",\"Left\",\"37\",\"5\",\"6\",\"6B\",\"C1\",\"J\",\"70\"
\"\",\"\",\"approach-retreat\",\"74\",\"715227\",\"0.0-74.0\",\"\",\"\",\"2-1\",\"4728\",\"38\",\"0\",\"Training\",\"Stims/Figures/144-C-30-3.bmp\",\"fashasha\",\"Down\",\"40\",\"5\",\"7\",\"6B\",\"C1\",\"J\",\"71\"
\"\",\"\",\"approach-retreat\",\"75\",\"721102\",\"0.0-75.0\",\"\",\"\",\"2-1\",\"4342\",\"40\",\"0\",\"Training\",\"Stims/Figures/84-C-20-2.bmp\",\"vasha:sha\",\"Up\",\"38\",\"5\",\"8\",\"6B\",\"C1\",\"J\",\"72\"
\"\",\"\",\"approach-retreat\",\"76\",\"726907\",\"0.0-76.0\",\"\",\"\",\"2-1\",\"4270\",\"40\",\"1\",\"Training\",\"Stims/Figures/84-J-0-2.bmp\",\"sa:sa:za\",\"Up\",\"40\",\"5\",\"9\",\"6B\",\"C2\",\"J\",\"73\"
\"\",\"\",\"approach-retreat\",\"77\",\"732868\",\"0.0-77.0\",\"\",\"\",\"2-1\",\"4427\",\"38\",\"0\",\"Training\",\"Stims/Figures/71-C-30-1.bmp\",\"va:fasha\",\"Down\",\"40\",\"5\",\"10\",\"6B\",\"C1\",\"J\",\"74\"
\"\",\"\",\"approach-retreat\",\"78\",\"738719\",\"0.0-78.0\",\"\",\"\",\"2-1\",\"4317\",\"38\",\"1\",\"Training\",\"Stims/Figures/71-J-0-1.bmp\",\"sa:haza\",\"Down\",\"38\",\"5\",\"11\",\"6B\",\"C2\",\"J\",\"75\"
\"\",\"\",\"approach-retreat\",\"79\",\"744442\",\"0.0-79.0\",\"\",\"\",\"2-1\",\"4190\",\"38\",\"0\",\"Training\",\"Stims/Figures/44-C-30-3.bmp\",\"fafava\",\"Down\",\"40\",\"5\",\"12\",\"6B\",\"C1\",\"J\",\"76\"
\"\",\"\",\"approach-retreat\",\"80\",\"750519\",\"0.0-80.0\",\"\",\"\",\"2-1\",\"4537\",\"40\",\"0\",\"Training\",\"Stims/Figures/57-C-30-1.bmp\",\"vafa:va\",\"Up\",\"38\",\"5\",\"13\",\"6B\",\"C1\",\"J\",\"77\"
\"\",\"\",\"approach-retreat\",\"81\",\"756270\",\"0.0-81.0\",\"\",\"\",\"2-1\",\"4217\",\"37\",\"1\",\"Training\",\"Stims/Figures/87-J-10-4.bmp\",\"sa:saha\",\"Right\",\"37\",\"5\",\"14\",\"6B\",\"C2\",\"J\",\"78\"
\"\",\"\",\"approach-retreat\",\"82\",\"762705\",\"0.0-82.0\",\"\",\"\",\"2-1\",\"4899\",\"37\",\"0\",\"Training\",\"Stims/Figures/7-C-20-4.bmp\",\"vasha:va\",\"Right\",\"39\",\"5\",\"15\",\"6B\",\"C1\",\"J\",\"79\"
\"\",\"\",\"approach-retreat\",\"83\",\"769260\",\"0.0-83.0\",\"\",\"\",\"2-1\",\"5017\",\"37\",\"1\",\"Training\",\"Stims/Figures/7-J-10-4.bmp\",\"za:saza\",\"Right\",\"37\",\"5\",\"16\",\"6B\",\"C2\",\"J\",\"80\"
\"\",\"\",\"approach-retreat\",\"84\",\"775387\",\"0.0-84.0\",\"\",\"\",\"2-1\",\"4589\",\"38\",\"1\",\"Training\",\"Stims/Figures/118-J-0-2.bmp\",\"zaha:ha\",\"Down\",\"38\",\"6\",\"1\",\"6B\",\"C2\",\"J\",\"81\"
\"\",\"\",\"approach-retreat\",\"85\",\"781645\",\"0.0-85.0\",\"\",\"\",\"2-1\",\"4724\",\"37\",\"1\",\"Training\",\"Stims/Figures/71-J-0-1.bmp\",\"sa:haza\",\"Right\",\"37\",\"6\",\"2\",\"6B\",\"C2\",\"J\",\"82\"
\"\",\"\",\"approach-retreat\",\"86\",\"788911\",\"0.0-86.0\",\"\",\"\",\"2-1\",\"5732\",\"37\",\"1\",\"Training\",\"Stims/Figures/7-J-10-4.bmp\",\"za:saza\",\"Right\",\"37\",\"6\",\"3\",\"6B\",\"C2\",\"J\",\"83\"
\"\",\"\",\"approach-retreat\",\"87\",\"795178\",\"0.0-87.0\",\"\",\"\",\"2-1\",\"4729\",\"40\",\"1\",\"Training\",\"Stims/Figures/44-J-10-3.bmp\",\"sahaza\",\"Up\",\"40\",\"6\",\"4\",\"6B\",\"C2\",\"J\",\"84\"
\"\",\"\",\"approach-retreat\",\"88\",\"801387\",\"0.0-88.0\",\"\",\"\",\"2-1\",\"4673\",\"37\",\"1\",\"Training\",\"Stims/Figures/57-C-30-1.bmp\",\"vafa:va\",\"Left\",\"37\",\"6\",\"5\",\"6B\",\"C1\",\"J\",\"85\"
\"\",\"\",\"approach-retreat\",\"89\",\"808102\",\"0.0-89.0\",\"\",\"\",\"2-1\",\"5182\",\"37\",\"1\",\"Training\",\"Stims/Figures/84-C-20-2.bmp\",\"vasha:sha\",\"Left\",\"37\",\"6\",\"6\",\"6B\",\"C1\",\"J\",\"86\"
\"\",\"\",\"approach-retreat\",\"90\",\"814521\",\"0.0-90.0\",\"\",\"\",\"2-1\",\"4885\",\"38\",\"1\",\"Training\",\"Stims/Figures/87-C-20-4.bmp\",\"va:shasha\",\"Up\",\"38\",\"6\",\"7\",\"6B\",\"C1\",\"J\",\"87\"
\"\",\"\",\"approach-retreat\",\"91\",\"821365\",\"0.0-91.0\",\"\",\"\",\"2-1\",\"5311\",\"39\",\"1\",\"Training\",\"Stims/Figures/44-C-30-3.bmp\",\"fafava\",\"Right\",\"39\",\"6\",\"8\",\"6B\",\"C1\",\"J\",\"88\"
\"\",\"\",\"approach-retreat\",\"92\",\"827893\",\"0.0-92.0\",\"\",\"\",\"2-1\",\"4995\",\"40\",\"1\",\"Training\",\"Stims/Figures/7-C-20-4.bmp\",\"vasha:va\",\"Down\",\"40\",\"6\",\"9\",\"6B\",\"C1\",\"J\",\"89\"
\"\",\"\",\"approach-retreat\",\"93\",\"834458\",\"0.0-93.0\",\"\",\"\",\"2-1\",\"5031\",\"40\",\"0\",\"Training\",\"Stims/Figures/84-J-0-2.bmp\",\"sa:sa:za\",\"Down\",\"38\",\"6\",\"10\",\"6B\",\"C2\",\"J\",\"90\"
\"\",\"\",\"approach-retreat\",\"94\",\"840780\",\"0.0-94.0\",\"\",\"\",\"2-1\",\"4787\",\"38\",\"1\",\"Training\",\"Stims/Figures/71-C-30-1.bmp\",\"va:fasha\",\"Up\",\"38\",\"6\",\"11\",\"6B\",\"C1\",\"J\",\"91\"
\"\",\"\",\"approach-retreat\",\"95\",\"847170\",\"0.0-95.0\",\"\",\"\",\"2-1\",\"4857\",\"38\",\"0\",\"Training\",\"Stims/Figures/144-J-10-3.bmp\",\"saha:za\",\"Up\",\"40\",\"6\",\"12\",\"6B\",\"C2\",\"J\",\"92\"
\"\",\"\",\"approach-retreat\",\"96\",\"853127\",\"0.0-96.0\",\"\",\"\",\"2-1\",\"4421\",\"38\",\"0\",\"Training\",\"Stims/Figures/144-C-30-3.bmp\",\"fashasha\",\"Down\",\"40\",\"6\",\"13\",\"6B\",\"C1\",\"J\",\"93\"
\"\",\"\",\"approach-retreat\",\"97\",\"859051\",\"0.0-97.0\",\"\",\"\",\"2-1\",\"4390\",\"39\",\"0\",\"Training\",\"Stims/Figures/118-C-20-2.bmp\",\"va:sha:va\",\"Left\",\"37\",\"6\",\"14\",\"6B\",\"C1\",\"J\",\"94\"
\"\",\"\",\"approach-retreat\",\"98\",\"865309\",\"0.0-98.0\",\"\",\"\",\"2-1\",\"4722\",\"37\",\"1\",\"Training\",\"Stims/Figures/87-J-10-4.bmp\",\"sa:saha\",\"Right\",\"37\",\"6\",\"15\",\"6B\",\"C2\",\"J\",\"95\"
\"\",\"\",\"approach-retreat\",\"99\",\"871713\",\"0.0-99.0\",\"\",\"\",\"2-1\",\"4871\",\"37\",\"0\",\"Training\",\"Stims/Figures/57-J-0-1.bmp\",\"za:haha\",\"Left\",\"39\",\"6\",\"16\",\"6B\",\"C2\",\"J\",\"96\"
\"\",\"\",\"approach-retreat\",\"100\",\"878517\",\"0.0-100.0\",\"\",\"\",\"2-1\",\"5270\",\"38\",\"0\",\"Training\",\"Stims/Figures/144-C-30-3.bmp\",\"fashasha\",\"Down\",\"40\",\"7\",\"1\",\"6B\",\"C1\",\"J\",\"97\"
\"\",\"\",\"approach-retreat\",\"101\",\"884471\",\"0.0-101.0\",\"\",\"\",\"2-1\",\"4413\",\"37\",\"1\",\"Training\",\"Stims/Figures/87-C-20-4.bmp\",\"va:shasha\",\"Left\",\"37\",\"7\",\"2\",\"6B\",\"C1\",\"J\",\"98\"
\"\",\"\",\"approach-retreat\",\"102\",\"890440\",\"0.0-102.0\",\"\",\"\",\"2-1\",\"4435\",\"37\",\"0\",\"Training\",\"Stims/Figures/84-C-20-2.bmp\",\"vasha:sha\",\"Right\",\"39\",\"7\",\"3\",\"6B\",\"C1\",\"J\",\"99\"
\"\",\"\",\"approach-retreat\",\"103\",\"896297\",\"0.0-103.0\",\"\",\"\",\"2-1\",\"4323\",\"37\",\"0\",\"Training\",\"Stims/Figures/84-J-0-2.bmp\",\"sa:sa:za\",\"Left\",\"39\",\"7\",\"4\",\"6B\",\"C2\",\"J\",\"100\"
\"\",\"\",\"approach-retreat\",\"104\",\"902534\",\"0.0-104.0\",\"\",\"\",\"2-1\",\"4702\",\"38\",\"1\",\"Training\",\"Stims/Figures/118-C-20-2.bmp\",\"va:sha:va\",\"Up\",\"38\",\"7\",\"5\",\"6B\",\"C1\",\"J\",\"101\"
\"\",\"\",\"approach-retreat\",\"105\",\"908776\",\"0.0-105.0\",\"\",\"\",\"2-1\",\"4707\",\"37\",\"1\",\"Training\",\"Stims/Figures/44-J-10-3.bmp\",\"sahaza\",\"Right\",\"37\",\"7\",\"6\",\"6B\",\"C2\",\"J\",\"102\"
\"\",\"\",\"approach-retreat\",\"106\",\"914975\",\"0.0-106.0\",\"\",\"\",\"2-1\",\"4664\",\"38\",\"0\",\"Training\",\"Stims/Figures/87-J-10-4.bmp\",\"sa:saha\",\"Up\",\"40\",\"7\",\"7\",\"6B\",\"C2\",\"J\",\"103\"
\"\",\"\",\"approach-retreat\",\"107\",\"921199\",\"0.0-107.0\",\"\",\"\",\"2-1\",\"4692\",\"37\",\"0\",\"Training\",\"Stims/Figures/7-C-20-4.bmp\",\"vasha:va\",\"Right\",\"39\",\"7\",\"8\",\"6B\",\"C1\",\"J\",\"104\"
\"\",\"\",\"approach-retreat\",\"108\",\"928188\",\"0.0-108.0\",\"\",\"\",\"2-1\",\"5452\",\"38\",\"0\",\"Training\",\"Stims/Figures/44-C-30-3.bmp\",\"fafava\",\"Down\",\"40\",\"7\",\"9\",\"6B\",\"C1\",\"J\",\"105\"
\"\",\"\",\"approach-retreat\",\"109\",\"934081\",\"0.0-109.0\",\"\",\"\",\"2-1\",\"4359\",\"37\",\"0\",\"Training\",\"Stims/Figures/144-J-10-3.bmp\",\"saha:za\",\"Left\",\"39\",\"7\",\"10\",\"6B\",\"C2\",\"J\",\"106\"
\"\",\"\",\"approach-retreat\",\"110\",\"940620\",\"0.0-110.0\",\"\",\"\",\"2-1\",\"5006\",\"40\",\"1\",\"Training\",\"Stims/Figures/57-C-30-1.bmp\",\"vafa:va\",\"Down\",\"40\",\"7\",\"11\",\"6B\",\"C1\",\"J\",\"107\"
\"\",\"\",\"approach-retreat\",\"111\",\"946618\",\"0.0-111.0\",\"\",\"\",\"2-1\",\"4463\",\"38\",\"1\",\"Training\",\"Stims/Figures/71-C-30-1.bmp\",\"va:fasha\",\"Up\",\"38\",\"7\",\"12\",\"6B\",\"C1\",\"J\",\"108\"
\"\",\"\",\"approach-retreat\",\"112\",\"952446\",\"0.0-112.0\",\"\",\"\",\"2-1\",\"4293\",\"38\",\"1\",\"Training\",\"Stims/Figures/118-J-0-2.bmp\",\"zaha:ha\",\"Down\",\"38\",\"7\",\"13\",\"6B\",\"C2\",\"J\",\"109\"
\"\",\"\",\"approach-retreat\",\"113\",\"958819\",\"0.0-113.0\",\"\",\"\",\"2-1\",\"4837\",\"39\",\"1\",\"Training\",\"Stims/Figures/7-J-10-4.bmp\",\"za:saza\",\"Left\",\"39\",\"7\",\"14\",\"6B\",\"C2\",\"J\",\"110\"
\"\",\"\",\"approach-retreat\",\"114\",\"964835\",\"0.0-114.0\",\"\",\"\",\"2-1\",\"4483\",\"40\",\"1\",\"Training\",\"Stims/Figures/57-J-0-1.bmp\",\"za:haha\",\"Up\",\"40\",\"7\",\"15\",\"6B\",\"C2\",\"J\",\"111\"
\"\",\"\",\"approach-retreat\",\"115\",\"971383\",\"0.0-115.0\",\"\",\"\",\"2-1\",\"5015\",\"37\",\"1\",\"Training\",\"Stims/Figures/71-J-0-1.bmp\",\"sa:haza\",\"Right\",\"37\",\"7\",\"16\",\"6B\",\"C2\",\"J\",\"112\"
\"\",\"\",\"approach-retreat\",\"116\",\"977753\",\"0.0-116.0\",\"\",\"\",\"2-1\",\"4835\",\"37\",\"0\",\"Training\",\"Stims/Figures/144-C-30-3.bmp\",\"fashasha\",\"Right\",\"39\",\"8\",\"1\",\"6B\",\"C1\",\"J\",\"113\"
\"\",\"\",\"approach-retreat\",\"117\",\"987482\",\"0.0-117.0\",\"\",\"\",\"2-1\",\"8193\",\"38\",\"1\",\"Training\",\"Stims/Figures/84-J-0-2.bmp\",\"sa:sa:za\",\"Down\",\"38\",\"8\",\"2\",\"6B\",\"C2\",\"J\",\"114\"
\"\",\"\",\"approach-retreat\",\"118\",\"993698\",\"0.0-118.0\",\"\",\"\",\"2-1\",\"4680\",\"38\",\"1\",\"Training\",\"Stims/Figures/84-C-20-2.bmp\",\"vasha:sha\",\"Up\",\"38\",\"8\",\"3\",\"6B\",\"C1\",\"J\",\"115\"
\"\",\"\",\"approach-retreat\",\"119\",\"1000593\",\"0.0-119.0\",\"\",\"\",\"2-1\",\"5362\",\"37\",\"0\",\"Training\",\"Stims/Figures/71-J-0-1.bmp\",\"sa:haza\",\"Left\",\"39\",\"8\",\"4\",\"6B\",\"C2\",\"J\",\"116\"
\"\",\"\",\"approach-retreat\",\"120\",\"1007030\",\"0.0-120.0\",\"\",\"\",\"2-1\",\"4904\",\"39\",\"1\",\"Training\",\"Stims/Figures/44-J-10-3.bmp\",\"sahaza\",\"Left\",\"39\",\"8\",\"5\",\"6B\",\"C2\",\"J\",\"117\"
\"\",\"\",\"approach-retreat\",\"121\",\"1014462\",\"0.0-121.0\",\"\",\"\",\"2-1\",\"5899\",\"37\",\"1\",\"Training\",\"Stims/Figures/118-C-20-2.bmp\",\"va:sha:va\",\"Left\",\"37\",\"8\",\"6\",\"6B\",\"C1\",\"J\",\"118\"
\"\",\"\",\"approach-retreat\",\"122\",\"1023726\",\"0.0-122.0\",\"\",\"\",\"2-1\",\"7731\",\"40\",\"0\",\"Training\",\"Stims/Figures/57-C-30-1.bmp\",\"vafa:va\",\"Up\",\"38\",\"8\",\"7\",\"6B\",\"C1\",\"J\",\"119\"
\"\",\"\",\"approach-retreat\",\"123\",\"1030741\",\"0.0-123.0\",\"\",\"\",\"2-1\",\"5482\",\"38\",\"0\",\"Training\",\"Stims/Figures/44-C-30-3.bmp\",\"fafava\",\"Down\",\"40\",\"8\",\"8\",\"6B\",\"C1\",\"J\",\"120\"
\"\",\"\",\"approach-retreat\",\"124\",\"1038246\",\"0.0-124.0\",\"\",\"\",\"2-1\",\"5972\",\"37\",\"1\",\"Training\",\"Stims/Figures/87-J-10-4.bmp\",\"sa:saha\",\"Right\",\"37\",\"8\",\"9\",\"6B\",\"C2\",\"J\",\"121\"
\"\",\"\",\"approach-retreat\",\"125\",\"1044055\",\"0.0-125.0\",\"\",\"\",\"2-1\",\"4275\",\"37\",\"0\",\"Training\",\"Stims/Figures/144-J-10-3.bmp\",\"saha:za\",\"Left\",\"39\",\"8\",\"10\",\"6B\",\"C2\",\"J\",\"122\"
\"\",\"\",\"approach-retreat\",\"126\",\"1049965\",\"0.0-126.0\",\"\",\"\",\"2-1\",\"4371\",\"39\",\"0\",\"Training\",\"Stims/Figures/57-J-0-1.bmp\",\"za:haha\",\"Right\",\"37\",\"8\",\"11\",\"6B\",\"C2\",\"J\",\"123\"
\"\",\"\",\"approach-retreat\",\"127\",\"1055943\",\"0.0-127.0\",\"\",\"\",\"2-1\",\"4443\",\"40\",\"1\",\"Training\",\"Stims/Figures/118-J-0-2.bmp\",\"zaha:ha\",\"Up\",\"40\",\"8\",\"12\",\"6B\",\"C2\",\"J\",\"124\"
\"\",\"\",\"approach-retreat\",\"128\",\"1061885\",\"0.0-128.0\",\"\",\"\",\"2-1\",\"4409\",\"38\",\"1\",\"Training\",\"Stims/Figures/71-C-30-1.bmp\",\"va:fasha\",\"Up\",\"38\",\"8\",\"13\",\"6B\",\"C1\",\"J\",\"125\"
\"\",\"\",\"approach-retreat\",\"129\",\"1069486\",\"0.0-129.0\",\"\",\"\",\"2-1\",\"6068\",\"38\",\"1\",\"Training\",\"Stims/Figures/7-J-10-4.bmp\",\"za:saza\",\"Down\",\"38\",\"8\",\"14\",\"6B\",\"C2\",\"J\",\"126\"
\"\",\"\",\"approach-retreat\",\"130\",\"1075401\",\"0.0-130.0\",\"\",\"\",\"2-1\",\"4381\",\"40\",\"1\",\"Training\",\"Stims/Figures/87-C-20-4.bmp\",\"va:shasha\",\"Down\",\"40\",\"8\",\"15\",\"6B\",\"C1\",\"J\",\"127\"
\"\",\"\",\"approach-retreat\",\"131\",\"1081222\",\"0.0-131.0\",\"\",\"\",\"2-1\",\"4280\",\"37\",\"0\",\"Training\",\"Stims/Figures/7-C-20-4.bmp\",\"vasha:va\",\"Right\",\"39\",\"8\",\"16\",\"6B\",\"C1\",\"J\",\"128\"
\"\",\"\",\"approach-retreat\",\"132\",\"1087003\",\"0.0-132.0\",\"\",\"\",\"2-1\",\"4246\",\"38\",\"0\",\"Training\",\"Stims/Figures/144-C-30-3.bmp\",\"fashasha\",\"Down\",\"40\",\"9\",\"1\",\"6B\",\"C1\",\"J\",\"129\"
\"\",\"\",\"approach-retreat\",\"133\",\"1092669\",\"0.0-133.0\",\"\",\"\",\"2-1\",\"4133\",\"38\",\"1\",\"Training\",\"Stims/Figures/87-J-10-4.bmp\",\"sa:saha\",\"Down\",\"38\",\"9\",\"2\",\"6B\",\"C2\",\"J\",\"130\"
\"\",\"\",\"approach-retreat\",\"134\",\"1098338\",\"0.0-134.0\",\"\",\"\",\"2-1\",\"4134\",\"37\",\"0\",\"Training\",\"Stims/Figures/57-C-30-1.bmp\",\"vafa:va\",\"Right\",\"39\",\"9\",\"3\",\"6B\",\"C1\",\"J\",\"131\"
\"\",\"\",\"approach-retreat\",\"135\",\"1104048\",\"0.0-135.0\",\"\",\"\",\"2-1\",\"4175\",\"38\",\"1\",\"Training\",\"Stims/Figures/84-C-20-2.bmp\",\"vasha:sha\",\"Up\",\"38\",\"9\",\"4\",\"6B\",\"C1\",\"J\",\"132\"
\"\",\"\",\"approach-retreat\",\"136\",\"1110199\",\"0.0-136.0\",\"\",\"\",\"2-1\",\"4614\",\"40\",\"1\",\"Training\",\"Stims/Figures/118-C-20-2.bmp\",\"va:sha:va\",\"Down\",\"40\",\"9\",\"5\",\"6B\",\"C1\",\"J\",\"133\"
\"\",\"\",\"approach-retreat\",\"137\",\"1116366\",\"0.0-137.0\",\"\",\"\",\"2-1\",\"4631\",\"38\",\"0\",\"Training\",\"Stims/Figures/118-J-0-2.bmp\",\"zaha:ha\",\"Up\",\"40\",\"9\",\"6\",\"6B\",\"C2\",\"J\",\"134\"
\"\",\"\",\"approach-retreat\",\"138\",\"1122028\",\"0.0-138.0\",\"\",\"\",\"2-1\",\"4128\",\"37\",\"1\",\"Training\",\"Stims/Figures/57-J-0-1.bmp\",\"za:haha\",\"Right\",\"37\",\"9\",\"7\",\"6B\",\"C2\",\"J\",\"135\"
\"\",\"\",\"approach-retreat\",\"139\",\"1127748\",\"0.0-139.0\",\"\",\"\",\"2-1\",\"4186\",\"37\",\"1\",\"Training\",\"Stims/Figures/84-J-0-2.bmp\",\"sa:sa:za\",\"Right\",\"37\",\"9\",\"8\",\"6B\",\"C2\",\"J\",\"136\"
\"\",\"\",\"approach-retreat\",\"140\",\"1133568\",\"0.0-140.0\",\"\",\"\",\"2-1\",\"4286\",\"38\",\"0\",\"Training\",\"Stims/Figures/44-J-10-3.bmp\",\"sahaza\",\"Up\",\"40\",\"9\",\"9\",\"6B\",\"C2\",\"J\",\"137\"
\"\",\"\",\"approach-retreat\",\"141\",\"1139357\",\"0.0-141.0\",\"\",\"\",\"2-1\",\"4255\",\"37\",\"1\",\"Training\",\"Stims/Figures/71-C-30-1.bmp\",\"va:fasha\",\"Left\",\"37\",\"9\",\"10\",\"6B\",\"C1\",\"J\",\"138\"
\"\",\"\",\"approach-retreat\",\"142\",\"1145017\",\"0.0-142.0\",\"\",\"\",\"2-1\",\"4116\",\"37\",\"0\",\"Training\",\"Stims/Figures/87-C-20-4.bmp\",\"va:shasha\",\"Right\",\"39\",\"9\",\"11\",\"6B\",\"C1\",\"J\",\"139\"
\"\",\"\",\"approach-retreat\",\"143\",\"1150831\",\"0.0-143.0\",\"\",\"\",\"2-1\",\"4277\",\"38\",\"1\",\"Training\",\"Stims/Figures/144-J-10-3.bmp\",\"saha:za\",\"Down\",\"38\",\"9\",\"12\",\"6B\",\"C2\",\"J\",\"140\"
\"\",\"\",\"approach-retreat\",\"144\",\"1156590\",\"0.0-144.0\",\"\",\"\",\"2-1\",\"4217\",\"37\",\"0\",\"Training\",\"Stims/Figures/71-J-0-1.bmp\",\"sa:haza\",\"Left\",\"39\",\"9\",\"13\",\"6B\",\"C2\",\"J\",\"141\"
\"\",\"\",\"approach-retreat\",\"145\",\"1162407\",\"0.0-145.0\",\"\",\"\",\"2-1\",\"4283\",\"39\",\"1\",\"Training\",\"Stims/Figures/7-J-10-4.bmp\",\"za:saza\",\"Left\",\"39\",\"9\",\"14\",\"6B\",\"C2\",\"J\",\"142\"
\"\",\"\",\"approach-retreat\",\"146\",\"1168178\",\"0.0-146.0\",\"\",\"\",\"2-1\",\"4231\",\"39\",\"0\",\"Training\",\"Stims/Figures/7-C-20-4.bmp\",\"vasha:va\",\"Left\",\"37\",\"9\",\"15\",\"6B\",\"C1\",\"J\",\"143\"
\"\",\"\",\"approach-retreat\",\"147\",\"1174377\",\"0.0-147.0\",\"\",\"\",\"2-1\",\"4665\",\"40\",\"0\",\"Training\",\"Stims/Figures/44-C-30-3.bmp\",\"fafava\",\"Up\",\"38\",\"9\",\"16\",\"6B\",\"C1\",\"J\",\"144\"
\"13165\",\"\",\"instructions\",\"148\",\"1187542\",\"0.0-148.0\",\"[{\"\"page_index\"\":0,\"\"viewing_time\"\":13163}]\",\"\",\"\",\"\",\"\",\"\",\"\",\"\",\"\",\"\",\"\",\"\",\"\",\"\",\"\",\"\",\"\"
\"\",\"\",\"approach-retreat\",\"149\",\"1194829\",\"0.0-149.0\",\"\",\"\",\"2-1\",\"5762\",\"39\",\"0\",\"Testing\",\"Stims/Figures/44-J-10-3.bmp\",\"sahaza\",\"Right\",\"37\",\"1\",\"1\",\"6B\",\"C2\",\"J\",\"1\"
\"\",\"\",\"approach-retreat\",\"150\",\"1202796\",\"0.0-150.0\",\"\",\"\",\"2-1\",\"6441\",\"37\",\"0\",\"Testing\",\"Stims/Figures/84-J-0-2.bmp\",\"sa:sa:za\",\"Left\",\"39\",\"1\",\"2\",\"6B\",\"C2\",\"J\",\"2\"
\"\",\"\",\"approach-retreat\",\"151\",\"1210344\",\"0.0-151.0\",\"\",\"\",\"2-1\",\"6023\",\"38\",\"1\",\"Testing\",\"Stims/Figures/27-C-30-1.bmp\",\"fafa:va\",\"Up\",\"38\",\"1\",\"3\",\"6B\",\"C1\",\"J\",\"3\"
\"\",\"\",\"approach-retreat\",\"152\",\"1218524\",\"0.0-152.0\",\"\",\"\",\"2-1\",\"6655\",\"40\",\"1\",\"Testing\",\"Stims/Figures/144-J-10-3.bmp\",\"saha:za\",\"Up\",\"40\",\"1\",\"4\",\"6B\",\"C2\",\"J\",\"4\"
\"\",\"\",\"approach-retreat\",\"153\",\"1224921\",\"0.0-153.0\",\"\",\"\",\"2-1\",\"4870\",\"38\",\"1\",\"Testing\",\"Stims/Figures/111-J-10-3.bmp\",\"sa:saza\",\"Down\",\"38\",\"1\",\"5\",\"6B\",\"C2\",\"J\",\"5\"
\"\",\"\",\"approach-retreat\",\"154\",\"1232668\",\"0.0-154.0\",\"\",\"\",\"2-1\",\"6220\",\"37\",\"1\",\"Testing\",\"Stims/Figures/57-J-0-1.bmp\",\"za:haha\",\"Right\",\"37\",\"1\",\"6\",\"6B\",\"C2\",\"J\",\"6\"
\"\",\"\",\"approach-retreat\",\"155\",\"1239468\",\"0.0-155.0\",\"\",\"\",\"2-1\",\"5274\",\"38\",\"0\",\"Testing\",\"Stims/Figures/111-C-30-3.bmp\",\"vashasha\",\"Down\",\"40\",\"1\",\"7\",\"6B\",\"C1\",\"J\",\"7\"
\"\",\"\",\"approach-retreat\",\"156\",\"1245707\",\"0.0-156.0\",\"\",\"\",\"2-1\",\"4713\",\"39\",\"0\",\"Testing\",\"Stims/Figures/71-C-30-1.bmp\",\"va:fasha\",\"Left\",\"37\",\"1\",\"8\",\"6B\",\"C1\",\"J\",\"8\"
\"\",\"\",\"approach-retreat\",\"157\",\"1254041\",\"0.0-157.0\",\"\",\"\",\"2-1\",\"6810\",\"38\",\"1\",\"Testing\",\"Stims/Figures/7-J-10-4.bmp\",\"za:saza\",\"Down\",\"38\",\"1\",\"9\",\"6B\",\"C2\",\"J\",\"9\"
\"\",\"\",\"approach-retreat\",\"158\",\"1261204\",\"0.0-158.0\",\"\",\"\",\"2-1\",\"5638\",\"38\",\"1\",\"Testing\",\"Stims/Figures/74-C-20-4.bmp\",\"fashava\",\"Up\",\"38\",\"1\",\"10\",\"6B\",\"C1\",\"J\",\"10\"
\"\",\"\",\"approach-retreat\",\"159\",\"1268392\",\"0.0-159.0\",\"\",\"\",\"2-1\",\"5663\",\"39\",\"0\",\"Testing\",\"Stims/Figures/118-C-20-2.bmp\",\"va:sha:va\",\"Left\",\"37\",\"1\",\"11\",\"6B\",\"C1\",\"J\",\"11\"
\"\",\"\",\"approach-retreat\",\"160\",\"1276648\",\"0.0-160.0\",\"\",\"\",\"2-1\",\"6730\",\"37\",\"1\",\"Testing\",\"Stims/Figures/118-J-0-2.bmp\",\"zaha:ha\",\"Right\",\"37\",\"1\",\"12\",\"6B\",\"C2\",\"J\",\"12\"
\"\",\"\",\"approach-retreat\",\"161\",\"1284221\",\"0.0-161.0\",\"\",\"\",\"2-1\",\"6045\",\"40\",\"0\",\"Testing\",\"Stims/Figures/27-J-0-1.bmp\",\"za:ha:ha\",\"Down\",\"38\",\"1\",\"13\",\"6B\",\"C2\",\"J\",\"13\"
\"\",\"\",\"approach-retreat\",\"162\",\"1291656\",\"0.0-162.0\",\"\",\"\",\"2-1\",\"5902\",\"38\",\"1\",\"Testing\",\"Stims/Figures/71-J-0-1.bmp\",\"sa:haza\",\"Down\",\"38\",\"1\",\"14\",\"6B\",\"C2\",\"J\",\"14\"
\"\",\"\",\"approach-retreat\",\"163\",\"1297493\",\"0.0-163.0\",\"\",\"\",\"2-1\",\"4310\",\"40\",\"0\",\"Testing\",\"Stims/Figures/85-C-20-2.bmp\",\"va:fa:sha\",\"Up\",\"38\",\"1\",\"15\",\"6B\",\"C1\",\"J\",\"15\"
\"\",\"\",\"approach-retreat\",\"164\",\"1305244\",\"0.0-164.0\",\"\",\"\",\"2-1\",\"6225\",\"37\",\"1\",\"Testing\",\"Stims/Figures/57-C-30-1.bmp\",\"vafa:va\",\"Left\",\"37\",\"1\",\"16\",\"6B\",\"C1\",\"J\",\"16\"
\"\",\"\",\"approach-retreat\",\"165\",\"1312132\",\"0.0-165.0\",\"\",\"\",\"2-1\",\"5354\",\"40\",\"1\",\"Testing\",\"Stims/Figures/85-J-0-2.bmp\",\"saha:ha\",\"Up\",\"40\",\"1\",\"17\",\"6B\",\"C2\",\"J\",\"17\"
\"\",\"\",\"approach-retreat\",\"166\",\"1318612\",\"0.0-166.0\",\"\",\"\",\"2-1\",\"4953\",\"37\",\"1\",\"Testing\",\"Stims/Figures/87-J-10-4.bmp\",\"sa:saha\",\"Right\",\"37\",\"1\",\"18\",\"6B\",\"C2\",\"J\",\"18\"
\"\",\"\",\"approach-retreat\",\"167\",\"1327211\",\"0.0-167.0\",\"\",\"\",\"2-1\",\"7055\",\"37\",\"1\",\"Testing\",\"Stims/Figures/144-C-30-3.bmp\",\"fashasha\",\"Left\",\"37\",\"1\",\"19\",\"6B\",\"C1\",\"J\",\"19\"
\"\",\"\",\"approach-retreat\",\"168\",\"1333814\",\"0.0-168.0\",\"\",\"\",\"2-1\",\"5076\",\"39\",\"0\",\"Testing\",\"Stims/Figures/74-J-10-4.bmp\",\"za:saha\",\"Right\",\"37\",\"1\",\"20\",\"6B\",\"C2\",\"J\",\"20\"
\"\",\"\",\"approach-retreat\",\"169\",\"1343270\",\"0.0-169.0\",\"\",\"\",\"2-1\",\"7931\",\"39\",\"0\",\"Testing\",\"Stims/Figures/87-C-20-4.bmp\",\"va:shasha\",\"Left\",\"37\",\"1\",\"21\",\"6B\",\"C1\",\"J\",\"21\"
\"\",\"\",\"approach-retreat\",\"170\",\"1349567\",\"0.0-170.0\",\"\",\"\",\"2-1\",\"4768\",\"40\",\"0\",\"Testing\",\"Stims/Figures/7-C-20-4.bmp\",\"vasha:va\",\"Up\",\"38\",\"1\",\"22\",\"6B\",\"C1\",\"J\",\"22\"
\"\",\"\",\"approach-retreat\",\"171\",\"1357462\",\"0.0-171.0\",\"\",\"\",\"2-1\",\"6370\",\"38\",\"0\",\"Testing\",\"Stims/Figures/44-C-30-3.bmp\",\"fafava\",\"Down\",\"40\",\"1\",\"23\",\"6B\",\"C1\",\"J\",\"23\"
\"\",\"\",\"approach-retreat\",\"172\",\"1364458\",\"0.0-172.0\",\"\",\"\",\"2-1\",\"5471\",\"39\",\"1\",\"Testing\",\"Stims/Figures/84-C-20-2.bmp\",\"vasha:sha\",\"Right\",\"39\",\"1\",\"24\",\"6B\",\"C1\",\"J\",\"24\"
\"\",\"\",\"approach-retreat\",\"173\",\"1373015\",\"0.0-173.0\",\"\",\"\",\"2-1\",\"7029\",\"39\",\"0\",\"Testing\",\"Stims/Figures/111-C-30-3.bmp\",\"vashasha\",\"Left\",\"37\",\"2\",\"1\",\"6B\",\"C1\",\"J\",\"25\"
\"\",\"\",\"approach-retreat\",\"174\",\"1382474\",\"0.0-174.0\",\"\",\"\",\"2-1\",\"7922\",\"37\",\"1\",\"Testing\",\"Stims/Figures/71-C-30-1.bmp\",\"va:fasha\",\"Left\",\"37\",\"2\",\"2\",\"6B\",\"C1\",\"J\",\"26\"
\"\",\"\",\"approach-retreat\",\"175\",\"1389896\",\"0.0-175.0\",\"\",\"\",\"2-1\",\"5896\",\"39\",\"0\",\"Testing\",\"Stims/Figures/85-C-20-2.bmp\",\"va:fa:sha\",\"Left\",\"37\",\"2\",\"3\",\"6B\",\"C1\",\"J\",\"27\"
\"\",\"\",\"approach-retreat\",\"176\",\"1402235\",\"0.0-176.0\",\"\",\"\",\"2-1\",\"10813\",\"40\",\"0\",\"Testing\",\"Stims/Figures/74-C-20-4.bmp\",\"fashava\",\"Up\",\"38\",\"2\",\"4\",\"6B\",\"C1\",\"J\",\"28\"
\"\",\"\",\"approach-retreat\",\"177\",\"1409973\",\"0.0-177.0\",\"\",\"\",\"2-1\",\"6212\",\"37\",\"1\",\"Testing\",\"Stims/Figures/7-J-10-4.bmp\",\"za:saza\",\"Right\",\"37\",\"2\",\"5\",\"6B\",\"C2\",\"J\",\"29\"
\"\",\"\",\"approach-retreat\",\"178\",\"1416778\",\"0.0-178.0\",\"\",\"\",\"2-1\",\"5277\",\"40\",\"1\",\"Testing\",\"Stims/Figures/74-J-10-4.bmp\",\"za:saha\",\"Up\",\"40\",\"2\",\"6\",\"6B\",\"C2\",\"J\",\"30\"
\"\",\"\",\"approach-retreat\",\"179\",\"1423626\",\"0.0-179.0\",\"\",\"\",\"2-1\",\"5319\",\"39\",\"1\",\"Testing\",\"Stims/Figures/44-J-10-3.bmp\",\"sahaza\",\"Left\",\"39\",\"2\",\"7\",\"6B\",\"C2\",\"J\",\"31\"
\"\",\"\",\"approach-retreat\",\"180\",\"1429597\",\"0.0-180.0\",\"\",\"\",\"2-1\",\"4444\",\"37\",\"1\",\"Testing\",\"Stims/Figures/84-J-0-2.bmp\",\"sa:sa:za\",\"Right\",\"37\",\"2\",\"8\",\"6B\",\"C2\",\"J\",\"32\"
\"\",\"\",\"approach-retreat\",\"181\",\"1435521\",\"0.0-181.0\",\"\",\"\",\"2-1\",\"4400\",\"37\",\"1\",\"Testing\",\"Stims/Figures/87-J-10-4.bmp\",\"sa:saha\",\"Right\",\"37\",\"2\",\"9\",\"6B\",\"C2\",\"J\",\"33\"
\"\",\"\",\"approach-retreat\",\"182\",\"1441294\",\"0.0-182.0\",\"\",\"\",\"2-1\",\"4248\",\"40\",\"1\",\"Testing\",\"Stims/Figures/118-J-0-2.bmp\",\"zaha:ha\",\"Up\",\"40\",\"2\",\"10\",\"6B\",\"C2\",\"J\",\"34\"
\"\",\"\",\"approach-retreat\",\"183\",\"1447312\",\"0.0-183.0\",\"\",\"\",\"2-1\",\"4491\",\"38\",\"0\",\"Testing\",\"Stims/Figures/27-C-30-1.bmp\",\"fafa:va\",\"Down\",\"40\",\"2\",\"11\",\"6B\",\"C1\",\"J\",\"35\"
\"\",\"\",\"approach-retreat\",\"184\",\"1453315\",\"0.0-184.0\",\"\",\"\",\"2-1\",\"4478\",\"37\",\"1\",\"Testing\",\"Stims/Figures/111-J-10-3.bmp\",\"sa:saza\",\"Right\",\"37\",\"2\",\"12\",\"6B\",\"C2\",\"J\",\"36\"
\"\",\"\",\"approach-retreat\",\"185\",\"1461257\",\"0.0-185.0\",\"\",\"\",\"2-1\",\"6416\",\"40\",\"1\",\"Testing\",\"Stims/Figures/144-J-10-3.bmp\",\"saha:za\",\"Up\",\"40\",\"2\",\"13\",\"6B\",\"C2\",\"J\",\"37\"
\"\",\"\",\"approach-retreat\",\"186\",\"1467333\",\"0.0-186.0\",\"\",\"\",\"2-1\",\"4550\",\"37\",\"1\",\"Testing\",\"Stims/Figures/27-J-0-1.bmp\",\"za:ha:ha\",\"Right\",\"37\",\"2\",\"14\",\"6B\",\"C2\",\"J\",\"38\"
\"\",\"\",\"approach-retreat\",\"187\",\"1475392\",\"0.0-187.0\",\"\",\"\",\"2-1\",\"6535\",\"37\",\"0\",\"Testing\",\"Stims/Figures/44-C-30-3.bmp\",\"fafava\",\"Right\",\"39\",\"2\",\"15\",\"6B\",\"C1\",\"J\",\"39\"
\"\",\"\",\"approach-retreat\",\"188\",\"1482439\",\"0.0-188.0\",\"\",\"\",\"2-1\",\"5520\",\"38\",\"0\",\"Testing\",\"Stims/Figures/84-C-20-2.bmp\",\"vasha:sha\",\"Down\",\"40\",\"2\",\"16\",\"6B\",\"C1\",\"J\",\"40\"
\"\",\"\",\"approach-retreat\",\"189\",\"1488565\",\"0.0-189.0\",\"\",\"\",\"2-1\",\"4594\",\"40\",\"1\",\"Testing\",\"Stims/Figures/118-C-20-2.bmp\",\"va:sha:va\",\"Down\",\"40\",\"2\",\"17\",\"6B\",\"C1\",\"J\",\"41\"
\"\",\"\",\"approach-retreat\",\"190\",\"1495151\",\"0.0-190.0\",\"\",\"\",\"2-1\",\"5059\",\"40\",\"0\",\"Testing\",\"Stims/Figures/87-C-20-4.bmp\",\"va:shasha\",\"Up\",\"38\",\"2\",\"18\",\"6B\",\"C1\",\"J\",\"42\"
\"\",\"\",\"approach-retreat\",\"191\",\"1501076\",\"0.0-191.0\",\"\",\"\",\"2-1\",\"4400\",\"40\",\"1\",\"Testing\",\"Stims/Figures/57-C-30-1.bmp\",\"vafa:va\",\"Down\",\"40\",\"2\",\"19\",\"6B\",\"C1\",\"J\",\"43\"
\"\",\"\",\"approach-retreat\",\"192\",\"1507039\",\"0.0-192.0\",\"\",\"\",\"2-1\",\"4438\",\"40\",\"1\",\"Testing\",\"Stims/Figures/71-J-0-1.bmp\",\"sa:haza\",\"Up\",\"40\",\"2\",\"20\",\"6B\",\"C2\",\"J\",\"44\"
\"\",\"\",\"approach-retreat\",\"193\",\"1513311\",\"0.0-193.0\",\"\",\"\",\"2-1\",\"4747\",\"39\",\"1\",\"Testing\",\"Stims/Figures/57-J-0-1.bmp\",\"za:haha\",\"Left\",\"39\",\"2\",\"21\",\"6B\",\"C2\",\"J\",\"45\"
\"\",\"\",\"approach-retreat\",\"194\",\"1519516\",\"0.0-194.0\",\"\",\"\",\"2-1\",\"4680\",\"40\",\"1\",\"Testing\",\"Stims/Figures/144-C-30-3.bmp\",\"fashasha\",\"Down\",\"40\",\"2\",\"22\",\"6B\",\"C1\",\"J\",\"46\"
\"\",\"\",\"approach-retreat\",\"195\",\"1525361\",\"0.0-195.0\",\"\",\"\",\"2-1\",\"4309\",\"37\",\"0\",\"Testing\",\"Stims/Figures/85-J-0-2.bmp\",\"saha:ha\",\"Left\",\"39\",\"2\",\"23\",\"6B\",\"C2\",\"J\",\"47\"
\"\",\"\",\"approach-retreat\",\"196\",\"1531621\",\"0.0-196.0\",\"\",\"\",\"2-1\",\"4734\",\"38\",\"0\",\"Testing\",\"Stims/Figures/7-C-20-4.bmp\",\"vasha:va\",\"Down\",\"40\",\"2\",\"24\",\"6B\",\"C1\",\"J\",\"48\"
\"\",\"\",\"approach-retreat\",\"197\",\"1537991\",\"0.0-197.0\",\"\",\"\",\"2-1\",\"4844\",\"37\",\"1\",\"Testing\",\"Stims/Figures/57-C-30-1.bmp\",\"vafa:va\",\"Left\",\"37\",\"3\",\"1\",\"6B\",\"C1\",\"J\",\"49\"
\"\",\"\",\"approach-retreat\",\"198\",\"1545239\",\"0.0-198.0\",\"\",\"\",\"2-1\",\"5721\",\"39\",\"1\",\"Testing\",\"Stims/Figures/87-J-10-4.bmp\",\"sa:saha\",\"Left\",\"39\",\"3\",\"2\",\"6B\",\"C2\",\"J\",\"50\"
\"\",\"\",\"approach-retreat\",\"199\",\"1550897\",\"0.0-199.0\",\"\",\"\",\"2-1\",\"4132\",\"40\",\"1\",\"Testing\",\"Stims/Figures/144-J-10-3.bmp\",\"saha:za\",\"Up\",\"40\",\"3\",\"3\",\"6B\",\"C2\",\"J\",\"51\"
\"\",\"\",\"approach-retreat\",\"200\",\"1556777\",\"0.0-200.0\",\"\",\"\",\"2-1\",\"4355\",\"37\",\"0\",\"Testing\",\"Stims/Figures/7-C-20-4.bmp\",\"vasha:va\",\"Right\",\"39\",\"3\",\"4\",\"6B\",\"C1\",\"J\",\"52\"
\"\",\"\",\"approach-retreat\",\"201\",\"1562822\",\"0.0-201.0\",\"\",\"\",\"2-1\",\"4517\",\"38\",\"1\",\"Testing\",\"Stims/Figures/44-J-10-3.bmp\",\"sahaza\",\"Down\",\"38\",\"3\",\"5\",\"6B\",\"C2\",\"J\",\"53\"
\"\",\"\",\"approach-retreat\",\"202\",\"1569542\",\"0.0-202.0\",\"\",\"\",\"2-1\",\"5193\",\"39\",\"0\",\"Testing\",\"Stims/Figures/74-C-20-4.bmp\",\"fashava\",\"Left\",\"37\",\"3\",\"6\",\"6B\",\"C1\",\"J\",\"54\"
\"\",\"\",\"approach-retreat\",\"203\",\"1575345\",\"0.0-203.0\",\"\",\"\",\"2-1\",\"4277\",\"39\",\"0\",\"Testing\",\"Stims/Figures/87-C-20-4.bmp\",\"va:shasha\",\"Left\",\"37\",\"3\",\"7\",\"6B\",\"C1\",\"J\",\"55\"
\"\",\"\",\"approach-retreat\",\"204\",\"1581401\",\"0.0-204.0\",\"\",\"\",\"2-1\",\"4531\",\"37\",\"1\",\"Testing\",\"Stims/Figures/71-J-0-1.bmp\",\"sa:haza\",\"Right\",\"37\",\"3\",\"8\",\"6B\",\"C2\",\"J\",\"56\"
\"\",\"\",\"approach-retreat\",\"205\",\"1587257\",\"0.0-205.0\",\"\",\"\",\"2-1\",\"4328\",\"39\",\"1\",\"Testing\",\"Stims/Figures/85-J-0-2.bmp\",\"saha:ha\",\"Left\",\"39\",\"3\",\"9\",\"6B\",\"C2\",\"J\",\"57\"
\"\",\"\",\"approach-retreat\",\"206\",\"1593227\",\"0.0-206.0\",\"\",\"\",\"2-1\",\"4441\",\"38\",\"0\",\"Testing\",\"Stims/Figures/118-C-20-2.bmp\",\"va:sha:va\",\"Down\",\"40\",\"3\",\"10\",\"6B\",\"C1\",\"J\",\"58\"
\"\",\"\",\"approach-retreat\",\"207\",\"1600064\",\"0.0-207.0\",\"\",\"\",\"2-1\",\"5310\",\"37\",\"0\",\"Testing\",\"Stims/Figures/71-C-30-1.bmp\",\"va:fasha\",\"Right\",\"39\",\"3\",\"11\",\"6B\",\"C1\",\"J\",\"59\"
\"\",\"\",\"approach-retreat\",\"208\",\"1607702\",\"0.0-208.0\",\"\",\"\",\"2-1\",\"6110\",\"38\",\"1\",\"Testing\",\"Stims/Figures/111-J-10-3.bmp\",\"sa:saza\",\"Down\",\"38\",\"3\",\"12\",\"6B\",\"C2\",\"J\",\"60\"
\"\",\"\",\"approach-retreat\",\"209\",\"1614908\",\"0.0-209.0\",\"\",\"\",\"2-1\",\"5679\",\"39\",\"1\",\"Testing\",\"Stims/Figures/84-J-0-2.bmp\",\"sa:sa:za\",\"Left\",\"39\",\"3\",\"13\",\"6B\",\"C2\",\"J\",\"61\"
\"\",\"\",\"approach-retreat\",\"210\",\"1626876\",\"0.0-210.0\",\"\",\"\",\"2-1\",\"10442\",\"38\",\"1\",\"Testing\",\"Stims/Figures/144-C-30-3.bmp\",\"fashasha\",\"Up\",\"38\",\"3\",\"14\",\"6B\",\"C1\",\"J\",\"62\"
\"\",\"\",\"approach-retreat\",\"211\",\"1637755\",\"0.0-211.0\",\"\",\"\",\"2-1\",\"9354\",\"37\",\"0\",\"Testing\",\"Stims/Figures/84-C-20-2.bmp\",\"vasha:sha\",\"Right\",\"39\",\"3\",\"15\",\"6B\",\"C1\",\"J\",\"63\"
\"\",\"\",\"approach-retreat\",\"212\",\"1644689\",\"0.0-212.0\",\"\",\"\",\"2-1\",\"5405\",\"40\",\"0\",\"Testing\",\"Stims/Figures/27-C-30-1.bmp\",\"fafa:va\",\"Up\",\"38\",\"3\",\"16\",\"6B\",\"C1\",\"J\",\"64\"
\"\",\"\",\"approach-retreat\",\"213\",\"1660704\",\"0.0-213.0\",\"\",\"\",\"2-1\",\"14489\",\"40\",\"0\",\"Testing\",\"Stims/Figures/85-C-20-2.bmp\",\"va:fa:sha\",\"Up\",\"38\",\"3\",\"17\",\"6B\",\"C1\",\"J\",\"65\"
\"\",\"\",\"approach-retreat\",\"214\",\"1668888\",\"0.0-214.0\",\"\",\"\",\"2-1\",\"6657\",\"38\",\"1\",\"Testing\",\"Stims/Figures/7-J-10-4.bmp\",\"za:saza\",\"Down\",\"38\",\"3\",\"18\",\"6B\",\"C2\",\"J\",\"66\"
\"\",\"\",\"approach-retreat\",\"215\",\"1689333\",\"0.0-215.0\",\"\",\"\",\"2-1\",\"18916\",\"38\",\"1\",\"Testing\",\"Stims/Figures/27-J-0-1.bmp\",\"za:ha:ha\",\"Down\",\"38\",\"3\",\"19\",\"6B\",\"C2\",\"J\",\"67\"
\"\",\"\",\"approach-retreat\",\"216\",\"1695883\",\"0.0-216.0\",\"\",\"\",\"2-1\",\"5025\",\"38\",\"1\",\"Testing\",\"Stims/Figures/74-J-10-4.bmp\",\"za:saha\",\"Down\",\"38\",\"3\",\"20\",\"6B\",\"C2\",\"J\",\"68\"
\"\",\"\",\"approach-retreat\",\"217\",\"1702557\",\"0.0-217.0\",\"\",\"\",\"2-1\",\"5147\",\"37\",\"1\",\"Testing\",\"Stims/Figures/118-J-0-2.bmp\",\"zaha:ha\",\"Right\",\"37\",\"3\",\"21\",\"6B\",\"C2\",\"J\",\"69\"
\"\",\"\",\"approach-retreat\",\"218\",\"1709178\",\"0.0-218.0\",\"\",\"\",\"2-1\",\"5094\",\"40\",\"0\",\"Testing\",\"Stims/Figures/44-C-30-3.bmp\",\"fafava\",\"Up\",\"38\",\"3\",\"22\",\"6B\",\"C1\",\"J\",\"70\"
\"\",\"\",\"approach-retreat\",\"219\",\"1721245\",\"0.0-219.0\",\"\",\"\",\"2-1\",\"10542\",\"37\",\"0\",\"Testing\",\"Stims/Figures/111-C-30-3.bmp\",\"vashasha\",\"Right\",\"39\",\"3\",\"23\",\"6B\",\"C1\",\"J\",\"71\"
\"\",\"\",\"approach-retreat\",\"220\",\"1729280\",\"0.0-220.0\",\"\",\"\",\"2-1\",\"6508\",\"38\",\"0\",\"Testing\",\"Stims/Figures/57-J-0-1.bmp\",\"za:haha\",\"Up\",\"40\",\"3\",\"24\",\"6B\",\"C2\",\"J\",\"72\"
\"\",\"\",\"approach-retreat\",\"221\",\"1742175\",\"0.0-221.0\",\"\",\"\",\"2-1\",\"11370\",\"39\",\"0\",\"Testing\",\"Stims/Figures/118-C-20-2.bmp\",\"va:sha:va\",\"Left\",\"37\",\"4\",\"1\",\"6B\",\"C1\",\"J\",\"73\"
\"\",\"\",\"approach-retreat\",\"222\",\"1748637\",\"0.0-222.0\",\"\",\"\",\"2-1\",\"4937\",\"40\",\"1\",\"Testing\",\"Stims/Figures/144-J-10-3.bmp\",\"saha:za\",\"Up\",\"40\",\"4\",\"2\",\"6B\",\"C2\",\"J\",\"74\"
\"\",\"\",\"approach-retreat\",\"223\",\"1758941\",\"0.0-223.0\",\"\",\"\",\"2-1\",\"8780\",\"37\",\"0\",\"Testing\",\"Stims/Figures/71-C-30-1.bmp\",\"va:fasha\",\"Right\",\"39\",\"4\",\"3\",\"6B\",\"C1\",\"J\",\"75\"
\"\",\"\",\"approach-retreat\",\"224\",\"1765619\",\"0.0-224.0\",\"\",\"\",\"2-1\",\"5151\",\"37\",\"0\",\"Testing\",\"Stims/Figures/44-C-30-3.bmp\",\"fafava\",\"Right\",\"39\",\"4\",\"4\",\"6B\",\"C1\",\"J\",\"76\"
\"\",\"\",\"approach-retreat\",\"225\",\"1772222\",\"0.0-225.0\",\"\",\"\",\"2-1\",\"5079\",\"39\",\"0\",\"Testing\",\"Stims/Figures/7-C-20-4.bmp\",\"vasha:va\",\"Left\",\"37\",\"4\",\"5\",\"6B\",\"C1\",\"J\",\"77\"
\"\",\"\",\"approach-retreat\",\"226\",\"1808348\",\"0.0-226.0\",\"\",\"\",\"2-1\",\"34599\",\"37\",\"1\",\"Testing\",\"Stims/Figures/71-J-0-1.bmp\",\"sa:haza\",\"Right\",\"37\",\"4\",\"6\",\"6B\",\"C2\",\"J\",\"78\"
\"\",\"\",\"approach-retreat\",\"227\",\"1831191\",\"0.0-227.0\",\"\",\"\",\"2-1\",\"21316\",\"40\",\"1\",\"Testing\",\"Stims/Figures/118-J-0-2.bmp\",\"zaha:ha\",\"Up\",\"40\",\"4\",\"7\",\"6B\",\"C2\",\"J\",\"79\"
\"\",\"\",\"approach-retreat\",\"228\",\"1839236\",\"0.0-228.0\",\"\",\"\",\"2-1\",\"6518\",\"39\",\"1\",\"Testing\",\"Stims/Figures/74-J-10-4.bmp\",\"za:saha\",\"Left\",\"39\",\"4\",\"8\",\"6B\",\"C2\",\"J\",\"80\"
\"\",\"\",\"approach-retreat\",\"229\",\"1852496\",\"0.0-229.0\",\"\",\"\",\"2-1\",\"11732\",\"37\",\"0\",\"Testing\",\"Stims/Figures/74-C-20-4.bmp\",\"fashava\",\"Right\",\"39\",\"4\",\"9\",\"6B\",\"C1\",\"J\",\"81\"
\"\",\"\",\"approach-retreat\",\"230\",\"1858692\",\"0.0-230.0\",\"\",\"\",\"2-1\",\"4669\",\"38\",\"1\",\"Testing\",\"Stims/Figures/87-J-10-4.bmp\",\"sa:saha\",\"Down\",\"38\",\"4\",\"10\",\"6B\",\"C2\",\"J\",\"82\"
\"\",\"\",\"approach-retreat\",\"231\",\"1865748\",\"0.0-231.0\",\"\",\"\",\"2-1\",\"5527\",\"37\",\"1\",\"Testing\",\"Stims/Figures/57-J-0-1.bmp\",\"za:haha\",\"Right\",\"37\",\"4\",\"11\",\"6B\",\"C2\",\"J\",\"83\"
\"\",\"\",\"approach-retreat\",\"232\",\"1871960\",\"0.0-232.0\",\"\",\"\",\"2-1\",\"4684\",\"40\",\"1\",\"Testing\",\"Stims/Figures/144-C-30-3.bmp\",\"fashasha\",\"Down\",\"40\",\"4\",\"12\",\"6B\",\"C1\",\"J\",\"84\"
\"\",\"\",\"approach-retreat\",\"233\",\"1879283\",\"0.0-233.0\",\"\",\"\",\"2-1\",\"5798\",\"38\",\"0\",\"Testing\",\"Stims/Figures/85-C-20-2.bmp\",\"va:fa:sha\",\"Down\",\"40\",\"4\",\"13\",\"6B\",\"C1\",\"J\",\"85\"
\"\",\"\",\"approach-retreat\",\"234\",\"1887106\",\"0.0-234.0\",\"\",\"\",\"2-1\",\"6295\",\"38\",\"0\",\"Testing\",\"Stims/Figures/27-C-30-1.bmp\",\"fafa:va\",\"Down\",\"40\",\"4\",\"14\",\"6B\",\"C1\",\"J\",\"86\"
\"\",\"\",\"approach-retreat\",\"235\",\"1897511\",\"0.0-235.0\",\"\",\"\",\"2-1\",\"8877\",\"37\",\"1\",\"Testing\",\"Stims/Figures/111-J-10-3.bmp\",\"sa:saza\",\"Right\",\"37\",\"4\",\"15\",\"6B\",\"C2\",\"J\",\"87\"
\"\",\"\",\"approach-retreat\",\"236\",\"1909905\",\"0.0-236.0\",\"\",\"\",\"2-1\",\"10868\",\"39\",\"0\",\"Testing\",\"Stims/Figures/111-C-30-3.bmp\",\"vashasha\",\"Left\",\"37\",\"4\",\"16\",\"6B\",\"C1\",\"J\",\"88\"
\"\",\"\",\"approach-retreat\",\"237\",\"1917273\",\"0.0-237.0\",\"\",\"\",\"2-1\",\"5843\",\"39\",\"0\",\"Testing\",\"Stims/Figures/84-C-20-2.bmp\",\"vasha:sha\",\"Left\",\"37\",\"4\",\"17\",\"6B\",\"C1\",\"J\",\"89\"
\"\",\"\",\"approach-retreat\",\"238\",\"1927170\",\"0.0-238.0\",\"\",\"\",\"2-1\",\"8371\",\"39\",\"0\",\"Testing\",\"Stims/Figures/57-C-30-1.bmp\",\"vafa:va\",\"Left\",\"37\",\"4\",\"18\",\"6B\",\"C1\",\"J\",\"90\"
\"\",\"\",\"approach-retreat\",\"239\",\"1935710\",\"0.0-239.0\",\"\",\"\",\"2-1\",\"7014\",\"38\",\"1\",\"Testing\",\"Stims/Figures/27-J-0-1.bmp\",\"za:ha:ha\",\"Down\",\"38\",\"4\",\"19\",\"6B\",\"C2\",\"J\",\"91\"
\"\",\"\",\"approach-retreat\",\"240\",\"1942010\",\"0.0-240.0\",\"\",\"\",\"2-1\",\"4774\",\"40\",\"0\",\"Testing\",\"Stims/Figures/87-C-20-4.bmp\",\"va:shasha\",\"Up\",\"38\",\"4\",\"20\",\"6B\",\"C1\",\"J\",\"92\"
\"\",\"\",\"approach-retreat\",\"241\",\"1948138\",\"0.0-241.0\",\"\",\"\",\"2-1\",\"4600\",\"38\",\"1\",\"Testing\",\"Stims/Figures/84-J-0-2.bmp\",\"sa:sa:za\",\"Down\",\"38\",\"4\",\"21\",\"6B\",\"C2\",\"J\",\"93\"
\"\",\"\",\"approach-retreat\",\"242\",\"1954045\",\"0.0-242.0\",\"\",\"\",\"2-1\",\"4379\",\"40\",\"1\",\"Testing\",\"Stims/Figures/85-J-0-2.bmp\",\"saha:ha\",\"Up\",\"40\",\"4\",\"22\",\"6B\",\"C2\",\"J\",\"94\"
\"\",\"\",\"approach-retreat\",\"243\",\"1960376\",\"0.0-243.0\",\"\",\"\",\"2-1\",\"4792\",\"40\",\"1\",\"Testing\",\"Stims/Figures/44-J-10-3.bmp\",\"sahaza\",\"Up\",\"40\",\"4\",\"23\",\"6B\",\"C2\",\"J\",\"95\"
\"\",\"\",\"approach-retreat\",\"244\",\"1966467\",\"0.0-244.0\",\"\",\"\",\"2-1\",\"4564\",\"40\",\"1\",\"Testing\",\"Stims/Figures/7-J-10-4.bmp\",\"za:saza\",\"Up\",\"40\",\"4\",\"24\",\"6B\",\"C2\",\"J\",\"96\"
\"28034\",\"\",\"survey-text\",\"245\",\"1994527\",\"0.0-245.0\",\"\",\"{\"\"Q0\"\":\"\"PS170056\"\"}\",\"\",\"\",\"\",\"\",\"\",\"\",\"\",\"\",\"\",\"\",\"\",\"\",\"\",\"\",\"\"
