\"rt\",\"key_press\",\"trial_type\",\"trial_index\",\"time_elapsed\",\"internal_node_id\",\"view_history\",\"responses\",\"Id\",\"Rt\",\"ResKeyCode\",\"ResCorr\",\"TrialType2\",\"Image\",\"Label\",\"Location\",\"CorrectResponse\",\"Block\",\"BlockTrial\",\"Condition\",\"LabelType\",\"Subcondition\",\"trialNum\"
\"40483\",\"32\",\"text\",\"0\",\"40486\",\"0.0-0.0-0.0\",\"\",\"\",\"\",\"\",\"\",\"\",\"\",\"\",\"\",\"\",\"\",\"\",\"\",\"\",\"\",\"\",\"\"
\"127174\",\"\",\"instructions\",\"1\",\"167663\",\"0.0-1.0\",\"[{\"\"page_index\"\":0,\"\"viewing_time\"\":127174}]\",\"\",\"\",\"\",\"\",\"\",\"\",\"\",\"\",\"\",\"\",\"\",\"\",\"\",\"\",\"\",\"\"
\"18292\",\"\",\"survey-multi-choice\",\"2\",\"185987\",\"0.0-2.0\",\"\",\"{\"\"Q0\"\":\"\"Da\"\",\"\"Q1\"\":\"\"Da\"\",\"\"Q2\"\":\"\"Da\"\",\"\"Q3\"\":\"\"Da\"\",\"\"Q4\"\":\"\"Da\"\",\"\"Q5\"\":\"\"Da\"\"}\",\"\",\"\",\"\",\"\",\"\",\"\",\"\",\"\",\"\",\"\",\"\",\"\",\"\",\"\",\"\"
\"\",\"\",\"bio\",\"3\",\"194436\",\"0.0-3.0\",\"\",\"{\"\"age\"\":\"\"20\"\",\"\"gender\"\":\"\"f\"\",\"\"specify\"\":\"\"\"\"}\",\"\",\"\",\"\",\"\",\"\",\"\",\"\",\"\",\"\",\"\",\"\",\"\",\"\",\"\",\"\"
\"\",\"\",\"approach-retreat\",\"4\",\"205803\",\"0.0-4.0\",\"\",\"\",\"1-2\",\"9860\",\"39\",\"1\",\"Training\",\"Stims/Figures/93-C-30-1.bmp\",\"None\",\"Left\",\"39\",\"1\",\"1\",\"10\",\"N\",\"C\",\"1\"
\"\",\"\",\"approach-retreat\",\"5\",\"216621\",\"0.0-5.0\",\"\",\"\",\"1-2\",\"9310\",\"38\",\"0\",\"Training\",\"Stims/Figures/7-C-20-4.bmp\",\"None\",\"Up\",\"40\",\"1\",\"2\",\"10\",\"N\",\"C\",\"2\"
\"\",\"\",\"approach-retreat\",\"6\",\"227817\",\"0.0-6.0\",\"\",\"\",\"1-2\",\"9690\",\"37\",\"0\",\"Training\",\"Stims/Figures/57-J-0-1.bmp\",\"None\",\"Right\",\"39\",\"1\",\"3\",\"10\",\"N\",\"C\",\"3\"
\"\",\"\",\"approach-retreat\",\"7\",\"234112\",\"0.0-7.0\",\"\",\"\",\"1-2\",\"4788\",\"40\",\"1\",\"Training\",\"Stims/Figures/94-C-20-2.bmp\",\"None\",\"Up\",\"40\",\"1\",\"4\",\"10\",\"N\",\"C\",\"4\"
\"\",\"\",\"approach-retreat\",\"8\",\"240517\",\"0.0-8.0\",\"\",\"\",\"1-2\",\"4899\",\"38\",\"0\",\"Training\",\"Stims/Figures/19-J-10-4.bmp\",\"None\",\"Down\",\"40\",\"1\",\"5\",\"10\",\"N\",\"C\",\"5\"
\"\",\"\",\"approach-retreat\",\"9\",\"250089\",\"0.0-9.0\",\"\",\"\",\"1-2\",\"8067\",\"38\",\"1\",\"Training\",\"Stims/Figures/85-C-20-2.bmp\",\"None\",\"Down\",\"38\",\"1\",\"6\",\"10\",\"N\",\"C\",\"6\"
\"\",\"\",\"approach-retreat\",\"10\",\"256240\",\"0.0-10.0\",\"\",\"\",\"1-2\",\"4645\",\"40\",\"0\",\"Training\",\"Stims/Figures/44-J-10-3.bmp\",\"None\",\"Up\",\"38\",\"1\",\"7\",\"10\",\"N\",\"C\",\"7\"
\"\",\"\",\"approach-retreat\",\"11\",\"263343\",\"0.0-11.0\",\"\",\"\",\"1-2\",\"5600\",\"39\",\"1\",\"Training\",\"Stims/Figures/85-J-0-2.bmp\",\"None\",\"Right\",\"39\",\"1\",\"8\",\"10\",\"N\",\"C\",\"8\"
\"\",\"\",\"approach-retreat\",\"12\",\"271422\",\"0.0-12.0\",\"\",\"\",\"1-2\",\"6573\",\"39\",\"1\",\"Training\",\"Stims/Figures/7-J-10-4.bmp\",\"None\",\"Right\",\"39\",\"1\",\"9\",\"10\",\"N\",\"C\",\"9\"
\"\",\"\",\"approach-retreat\",\"13\",\"277307\",\"0.0-13.0\",\"\",\"\",\"1-2\",\"4378\",\"38\",\"1\",\"Training\",\"Stims/Figures/128-C-30-3.bmp\",\"None\",\"Down\",\"38\",\"1\",\"10\",\"10\",\"N\",\"C\",\"10\"
\"\",\"\",\"approach-retreat\",\"14\",\"283614\",\"0.0-14.0\",\"\",\"\",\"1-2\",\"4800\",\"37\",\"0\",\"Training\",\"Stims/Figures/94-J-0-2.bmp\",\"None\",\"Right\",\"39\",\"1\",\"11\",\"10\",\"N\",\"C\",\"11\"
\"\",\"\",\"approach-retreat\",\"15\",\"289859\",\"0.0-15.0\",\"\",\"\",\"1-2\",\"4739\",\"39\",\"1\",\"Training\",\"Stims/Figures/44-C-30-3.bmp\",\"None\",\"Left\",\"39\",\"1\",\"12\",\"10\",\"N\",\"C\",\"12\"
\"\",\"\",\"approach-retreat\",\"16\",\"295850\",\"0.0-16.0\",\"\",\"\",\"1-2\",\"4484\",\"37\",\"1\",\"Training\",\"Stims/Figures/93-J-0-1.bmp\",\"None\",\"Left\",\"37\",\"1\",\"13\",\"10\",\"N\",\"C\",\"13\"
\"\",\"\",\"approach-retreat\",\"17\",\"301814\",\"0.0-17.0\",\"\",\"\",\"1-2\",\"4458\",\"38\",\"0\",\"Training\",\"Stims/Figures/19-C-20-4.bmp\",\"None\",\"Up\",\"40\",\"1\",\"14\",\"10\",\"N\",\"C\",\"14\"
\"\",\"\",\"approach-retreat\",\"18\",\"307635\",\"0.0-18.0\",\"\",\"\",\"1-2\",\"4315\",\"38\",\"1\",\"Training\",\"Stims/Figures/57-C-30-1.bmp\",\"None\",\"Down\",\"38\",\"1\",\"15\",\"10\",\"N\",\"C\",\"15\"
\"\",\"\",\"approach-retreat\",\"19\",\"316556\",\"0.0-19.0\",\"\",\"\",\"1-2\",\"7415\",\"37\",\"1\",\"Training\",\"Stims/Figures/128-J-10-3.bmp\",\"None\",\"Left\",\"37\",\"1\",\"16\",\"10\",\"N\",\"C\",\"16\"
\"\",\"\",\"approach-retreat\",\"20\",\"323049\",\"0.0-20.0\",\"\",\"\",\"1-2\",\"4987\",\"37\",\"1\",\"Training\",\"Stims/Figures/57-J-0-1.bmp\",\"None\",\"Left\",\"37\",\"2\",\"1\",\"10\",\"N\",\"C\",\"17\"
\"\",\"\",\"approach-retreat\",\"21\",\"332074\",\"0.0-21.0\",\"\",\"\",\"1-2\",\"7519\",\"39\",\"0\",\"Training\",\"Stims/Figures/94-C-20-2.bmp\",\"None\",\"Right\",\"37\",\"2\",\"2\",\"10\",\"N\",\"C\",\"18\"
\"\",\"\",\"approach-retreat\",\"22\",\"338065\",\"0.0-22.0\",\"\",\"\",\"1-2\",\"4484\",\"37\",\"1\",\"Training\",\"Stims/Figures/44-C-30-3.bmp\",\"None\",\"Right\",\"37\",\"2\",\"3\",\"10\",\"N\",\"C\",\"19\"
\"\",\"\",\"approach-retreat\",\"23\",\"346188\",\"0.0-23.0\",\"\",\"\",\"1-2\",\"6617\",\"37\",\"1\",\"Training\",\"Stims/Figures/19-J-10-4.bmp\",\"None\",\"Left\",\"37\",\"2\",\"4\",\"10\",\"N\",\"C\",\"20\"
\"\",\"\",\"approach-retreat\",\"24\",\"353750\",\"0.0-24.0\",\"\",\"\",\"1-2\",\"6054\",\"37\",\"0\",\"Training\",\"Stims/Figures/7-C-20-4.bmp\",\"None\",\"Left\",\"39\",\"2\",\"5\",\"10\",\"N\",\"C\",\"21\"
\"\",\"\",\"approach-retreat\",\"25\",\"359321\",\"0.0-25.0\",\"\",\"\",\"1-2\",\"4065\",\"40\",\"1\",\"Training\",\"Stims/Figures/7-J-10-4.bmp\",\"None\",\"Down\",\"40\",\"2\",\"6\",\"10\",\"N\",\"C\",\"22\"
\"\",\"\",\"approach-retreat\",\"26\",\"366170\",\"0.0-26.0\",\"\",\"\",\"1-2\",\"5344\",\"39\",\"0\",\"Training\",\"Stims/Figures/128-C-30-3.bmp\",\"None\",\"Right\",\"37\",\"2\",\"7\",\"10\",\"N\",\"C\",\"23\"
\"\",\"\",\"approach-retreat\",\"27\",\"371803\",\"0.0-27.0\",\"\",\"\",\"1-2\",\"4128\",\"40\",\"1\",\"Training\",\"Stims/Figures/44-J-10-3.bmp\",\"None\",\"Down\",\"40\",\"2\",\"8\",\"10\",\"N\",\"C\",\"24\"
\"\",\"\",\"approach-retreat\",\"28\",\"379283\",\"0.0-28.0\",\"\",\"\",\"1-2\",\"5973\",\"39\",\"1\",\"Training\",\"Stims/Figures/57-C-30-1.bmp\",\"None\",\"Left\",\"39\",\"2\",\"9\",\"10\",\"N\",\"C\",\"25\"
\"\",\"\",\"approach-retreat\",\"29\",\"385713\",\"0.0-29.0\",\"\",\"\",\"1-2\",\"4924\",\"38\",\"1\",\"Training\",\"Stims/Figures/19-C-20-4.bmp\",\"None\",\"Down\",\"38\",\"2\",\"10\",\"10\",\"N\",\"C\",\"26\"
\"\",\"\",\"approach-retreat\",\"30\",\"392264\",\"0.0-30.0\",\"\",\"\",\"1-2\",\"5045\",\"40\",\"1\",\"Training\",\"Stims/Figures/93-J-0-1.bmp\",\"None\",\"Down\",\"40\",\"2\",\"11\",\"10\",\"N\",\"C\",\"27\"
\"\",\"\",\"approach-retreat\",\"31\",\"398465\",\"0.0-31.0\",\"\",\"\",\"1-2\",\"4695\",\"38\",\"1\",\"Training\",\"Stims/Figures/94-J-0-2.bmp\",\"None\",\"Up\",\"38\",\"2\",\"12\",\"10\",\"N\",\"C\",\"28\"
\"\",\"\",\"approach-retreat\",\"32\",\"405343\",\"0.0-32.0\",\"\",\"\",\"1-2\",\"5372\",\"37\",\"1\",\"Training\",\"Stims/Figures/85-C-20-2.bmp\",\"None\",\"Right\",\"37\",\"2\",\"13\",\"10\",\"N\",\"C\",\"29\"
\"\",\"\",\"approach-retreat\",\"33\",\"413413\",\"0.0-33.0\",\"\",\"\",\"1-2\",\"6562\",\"38\",\"1\",\"Training\",\"Stims/Figures/128-J-10-3.bmp\",\"None\",\"Up\",\"38\",\"2\",\"14\",\"10\",\"N\",\"C\",\"30\"
\"\",\"\",\"approach-retreat\",\"34\",\"421146\",\"0.0-34.0\",\"\",\"\",\"1-2\",\"6228\",\"40\",\"0\",\"Training\",\"Stims/Figures/85-J-0-2.bmp\",\"None\",\"Up\",\"38\",\"2\",\"15\",\"10\",\"N\",\"C\",\"31\"
\"\",\"\",\"approach-retreat\",\"35\",\"426891\",\"0.0-35.0\",\"\",\"\",\"1-2\",\"4237\",\"40\",\"1\",\"Training\",\"Stims/Figures/93-C-30-1.bmp\",\"None\",\"Up\",\"40\",\"2\",\"16\",\"10\",\"N\",\"C\",\"32\"
\"\",\"\",\"approach-retreat\",\"36\",\"432664\",\"0.0-36.0\",\"\",\"\",\"1-2\",\"4267\",\"38\",\"1\",\"Training\",\"Stims/Figures/128-C-30-3.bmp\",\"None\",\"Down\",\"38\",\"3\",\"1\",\"10\",\"N\",\"C\",\"33\"
\"\",\"\",\"approach-retreat\",\"37\",\"438532\",\"0.0-37.0\",\"\",\"\",\"1-2\",\"4362\",\"38\",\"1\",\"Training\",\"Stims/Figures/19-J-10-4.bmp\",\"None\",\"Up\",\"38\",\"3\",\"2\",\"10\",\"N\",\"C\",\"34\"
\"\",\"\",\"approach-retreat\",\"38\",\"444238\",\"0.0-38.0\",\"\",\"\",\"1-2\",\"4200\",\"37\",\"1\",\"Training\",\"Stims/Figures/93-J-0-1.bmp\",\"None\",\"Left\",\"37\",\"3\",\"3\",\"10\",\"N\",\"C\",\"35\"
\"\",\"\",\"approach-retreat\",\"39\",\"450428\",\"0.0-39.0\",\"\",\"\",\"1-2\",\"4682\",\"37\",\"1\",\"Training\",\"Stims/Figures/7-C-20-4.bmp\",\"None\",\"Right\",\"37\",\"3\",\"4\",\"10\",\"N\",\"C\",\"36\"
\"\",\"\",\"approach-retreat\",\"40\",\"456703\",\"0.0-40.0\",\"\",\"\",\"1-2\",\"4768\",\"39\",\"1\",\"Training\",\"Stims/Figures/94-J-0-2.bmp\",\"None\",\"Right\",\"39\",\"3\",\"5\",\"10\",\"N\",\"C\",\"37\"
\"\",\"\",\"approach-retreat\",\"41\",\"462613\",\"0.0-41.0\",\"\",\"\",\"1-2\",\"4405\",\"40\",\"1\",\"Training\",\"Stims/Figures/44-C-30-3.bmp\",\"None\",\"Up\",\"40\",\"3\",\"6\",\"10\",\"N\",\"C\",\"38\"
\"\",\"\",\"approach-retreat\",\"42\",\"469115\",\"0.0-42.0\",\"\",\"\",\"1-2\",\"4995\",\"37\",\"1\",\"Training\",\"Stims/Figures/7-J-10-4.bmp\",\"None\",\"Left\",\"37\",\"3\",\"7\",\"10\",\"N\",\"C\",\"39\"
\"\",\"\",\"approach-retreat\",\"43\",\"476331\",\"0.0-43.0\",\"\",\"\",\"1-2\",\"5710\",\"40\",\"1\",\"Training\",\"Stims/Figures/128-J-10-3.bmp\",\"None\",\"Down\",\"40\",\"3\",\"8\",\"10\",\"N\",\"C\",\"40\"
\"\",\"\",\"approach-retreat\",\"44\",\"483674\",\"0.0-44.0\",\"\",\"\",\"1-2\",\"5837\",\"37\",\"1\",\"Training\",\"Stims/Figures/85-C-20-2.bmp\",\"None\",\"Right\",\"37\",\"3\",\"9\",\"10\",\"N\",\"C\",\"41\"
\"\",\"\",\"approach-retreat\",\"45\",\"489383\",\"0.0-45.0\",\"\",\"\",\"1-2\",\"4202\",\"37\",\"1\",\"Training\",\"Stims/Figures/57-C-30-1.bmp\",\"None\",\"Right\",\"37\",\"3\",\"10\",\"10\",\"N\",\"C\",\"42\"
\"\",\"\",\"approach-retreat\",\"46\",\"495274\",\"0.0-46.0\",\"\",\"\",\"1-2\",\"4384\",\"40\",\"0\",\"Training\",\"Stims/Figures/94-C-20-2.bmp\",\"None\",\"Down\",\"38\",\"3\",\"11\",\"10\",\"N\",\"C\",\"43\"
\"\",\"\",\"approach-retreat\",\"47\",\"503340\",\"0.0-47.0\",\"\",\"\",\"1-2\",\"6558\",\"38\",\"1\",\"Training\",\"Stims/Figures/85-J-0-2.bmp\",\"None\",\"Up\",\"38\",\"3\",\"12\",\"10\",\"N\",\"C\",\"44\"
\"\",\"\",\"approach-retreat\",\"48\",\"509217\",\"0.0-48.0\",\"\",\"\",\"1-2\",\"4372\",\"38\",\"1\",\"Training\",\"Stims/Figures/93-C-30-1.bmp\",\"None\",\"Down\",\"38\",\"3\",\"13\",\"10\",\"N\",\"C\",\"45\"
\"\",\"\",\"approach-retreat\",\"49\",\"514807\",\"0.0-49.0\",\"\",\"\",\"1-2\",\"4083\",\"40\",\"0\",\"Training\",\"Stims/Figures/44-J-10-3.bmp\",\"None\",\"Up\",\"38\",\"3\",\"14\",\"10\",\"N\",\"C\",\"46\"
\"\",\"\",\"approach-retreat\",\"50\",\"520798\",\"0.0-50.0\",\"\",\"\",\"1-2\",\"4485\",\"39\",\"1\",\"Training\",\"Stims/Figures/19-C-20-4.bmp\",\"None\",\"Left\",\"39\",\"3\",\"15\",\"10\",\"N\",\"C\",\"47\"
\"\",\"\",\"approach-retreat\",\"51\",\"526477\",\"0.0-51.0\",\"\",\"\",\"1-2\",\"4174\",\"37\",\"1\",\"Training\",\"Stims/Figures/57-J-0-1.bmp\",\"None\",\"Left\",\"37\",\"3\",\"16\",\"10\",\"N\",\"C\",\"48\"
\"\",\"\",\"approach-retreat\",\"52\",\"532727\",\"0.0-52.0\",\"\",\"\",\"1-2\",\"4744\",\"37\",\"0\",\"Training\",\"Stims/Figures/44-J-10-3.bmp\",\"None\",\"Right\",\"39\",\"4\",\"1\",\"10\",\"N\",\"C\",\"49\"
\"\",\"\",\"approach-retreat\",\"53\",\"538503\",\"0.0-53.0\",\"\",\"\",\"1-2\",\"4270\",\"38\",\"1\",\"Training\",\"Stims/Figures/7-C-20-4.bmp\",\"None\",\"Down\",\"38\",\"4\",\"2\",\"10\",\"N\",\"C\",\"50\"
\"\",\"\",\"approach-retreat\",\"54\",\"544337\",\"0.0-54.0\",\"\",\"\",\"1-2\",\"4328\",\"37\",\"1\",\"Training\",\"Stims/Figures/94-J-0-2.bmp\",\"None\",\"Left\",\"37\",\"4\",\"3\",\"10\",\"N\",\"C\",\"51\"
\"\",\"\",\"approach-retreat\",\"55\",\"550139\",\"0.0-55.0\",\"\",\"\",\"1-2\",\"4297\",\"37\",\"1\",\"Training\",\"Stims/Figures/128-C-30-3.bmp\",\"None\",\"Right\",\"37\",\"4\",\"4\",\"10\",\"N\",\"C\",\"52\"
\"\",\"\",\"approach-retreat\",\"56\",\"555883\",\"0.0-56.0\",\"\",\"\",\"1-2\",\"4237\",\"38\",\"1\",\"Training\",\"Stims/Figures/93-C-30-1.bmp\",\"None\",\"Down\",\"38\",\"4\",\"5\",\"10\",\"N\",\"C\",\"53\"
\"\",\"\",\"approach-retreat\",\"57\",\"564626\",\"0.0-57.0\",\"\",\"\",\"1-2\",\"7236\",\"38\",\"1\",\"Training\",\"Stims/Figures/44-C-30-3.bmp\",\"None\",\"Down\",\"38\",\"4\",\"6\",\"10\",\"N\",\"C\",\"54\"
\"\",\"\",\"approach-retreat\",\"58\",\"570414\",\"0.0-58.0\",\"\",\"\",\"1-2\",\"4283\",\"40\",\"1\",\"Training\",\"Stims/Figures/85-C-20-2.bmp\",\"None\",\"Up\",\"40\",\"4\",\"7\",\"10\",\"N\",\"C\",\"55\"
\"\",\"\",\"approach-retreat\",\"59\",\"576388\",\"0.0-59.0\",\"\",\"\",\"1-2\",\"4469\",\"39\",\"1\",\"Training\",\"Stims/Figures/57-C-30-1.bmp\",\"None\",\"Left\",\"39\",\"4\",\"8\",\"10\",\"N\",\"C\",\"56\"
\"\",\"\",\"approach-retreat\",\"60\",\"584388\",\"0.0-60.0\",\"\",\"\",\"1-2\",\"6492\",\"38\",\"1\",\"Training\",\"Stims/Figures/19-J-10-4.bmp\",\"None\",\"Up\",\"38\",\"4\",\"9\",\"10\",\"N\",\"C\",\"57\"
\"\",\"\",\"approach-retreat\",\"61\",\"590567\",\"0.0-61.0\",\"\",\"\",\"1-2\",\"4674\",\"39\",\"0\",\"Training\",\"Stims/Figures/94-C-20-2.bmp\",\"None\",\"Right\",\"37\",\"4\",\"10\",\"10\",\"N\",\"C\",\"58\"
\"\",\"\",\"approach-retreat\",\"62\",\"596294\",\"0.0-62.0\",\"\",\"\",\"1-2\",\"4220\",\"37\",\"1\",\"Training\",\"Stims/Figures/85-J-0-2.bmp\",\"None\",\"Left\",\"37\",\"4\",\"11\",\"10\",\"N\",\"C\",\"59\"
\"\",\"\",\"approach-retreat\",\"63\",\"601910\",\"0.0-63.0\",\"\",\"\",\"1-2\",\"4111\",\"37\",\"1\",\"Training\",\"Stims/Figures/57-J-0-1.bmp\",\"None\",\"Left\",\"37\",\"4\",\"12\",\"10\",\"N\",\"C\",\"60\"
\"\",\"\",\"approach-retreat\",\"64\",\"607621\",\"0.0-64.0\",\"\",\"\",\"1-2\",\"4205\",\"38\",\"1\",\"Training\",\"Stims/Figures/19-C-20-4.bmp\",\"None\",\"Down\",\"38\",\"4\",\"13\",\"10\",\"N\",\"C\",\"61\"
\"\",\"\",\"approach-retreat\",\"65\",\"616442\",\"0.0-65.0\",\"\",\"\",\"1-2\",\"7314\",\"39\",\"1\",\"Training\",\"Stims/Figures/7-J-10-4.bmp\",\"None\",\"Right\",\"39\",\"4\",\"14\",\"10\",\"N\",\"C\",\"62\"
\"\",\"\",\"approach-retreat\",\"66\",\"622461\",\"0.0-66.0\",\"\",\"\",\"1-2\",\"4513\",\"38\",\"1\",\"Training\",\"Stims/Figures/128-J-10-3.bmp\",\"None\",\"Up\",\"38\",\"4\",\"15\",\"10\",\"N\",\"C\",\"63\"
\"\",\"\",\"approach-retreat\",\"67\",\"628145\",\"0.0-67.0\",\"\",\"\",\"1-2\",\"4179\",\"38\",\"1\",\"Training\",\"Stims/Figures/93-J-0-1.bmp\",\"None\",\"Up\",\"38\",\"4\",\"16\",\"10\",\"N\",\"C\",\"64\"
\"\",\"\",\"approach-retreat\",\"68\",\"633831\",\"0.0-68.0\",\"\",\"\",\"1-2\",\"4179\",\"38\",\"1\",\"Training\",\"Stims/Figures/128-C-30-3.bmp\",\"None\",\"Down\",\"38\",\"5\",\"1\",\"10\",\"N\",\"C\",\"65\"
\"\",\"\",\"approach-retreat\",\"69\",\"639644\",\"0.0-69.0\",\"\",\"\",\"1-2\",\"4308\",\"37\",\"1\",\"Training\",\"Stims/Figures/85-J-0-2.bmp\",\"None\",\"Left\",\"37\",\"5\",\"2\",\"10\",\"N\",\"C\",\"66\"
\"\",\"\",\"approach-retreat\",\"70\",\"645400\",\"0.0-70.0\",\"\",\"\",\"1-2\",\"4250\",\"40\",\"1\",\"Training\",\"Stims/Figures/93-C-30-1.bmp\",\"None\",\"Up\",\"40\",\"5\",\"3\",\"10\",\"N\",\"C\",\"67\"
\"\",\"\",\"approach-retreat\",\"71\",\"651664\",\"0.0-71.0\",\"\",\"\",\"1-2\",\"4759\",\"39\",\"1\",\"Training\",\"Stims/Figures/44-C-30-3.bmp\",\"None\",\"Left\",\"39\",\"5\",\"4\",\"10\",\"N\",\"C\",\"68\"
\"\",\"\",\"approach-retreat\",\"72\",\"657535\",\"0.0-72.0\",\"\",\"\",\"1-2\",\"4363\",\"37\",\"1\",\"Training\",\"Stims/Figures/44-J-10-3.bmp\",\"None\",\"Left\",\"37\",\"5\",\"5\",\"10\",\"N\",\"C\",\"69\"
\"\",\"\",\"approach-retreat\",\"73\",\"663488\",\"0.0-73.0\",\"\",\"\",\"1-2\",\"4447\",\"37\",\"1\",\"Training\",\"Stims/Figures/57-C-30-1.bmp\",\"None\",\"Right\",\"37\",\"5\",\"6\",\"10\",\"N\",\"C\",\"70\"
\"\",\"\",\"approach-retreat\",\"74\",\"669629\",\"0.0-74.0\",\"\",\"\",\"1-2\",\"4635\",\"40\",\"1\",\"Training\",\"Stims/Figures/57-J-0-1.bmp\",\"None\",\"Down\",\"40\",\"5\",\"7\",\"10\",\"N\",\"C\",\"71\"
\"\",\"\",\"approach-retreat\",\"75\",\"676024\",\"0.0-75.0\",\"\",\"\",\"1-2\",\"4891\",\"40\",\"1\",\"Training\",\"Stims/Figures/7-C-20-4.bmp\",\"None\",\"Up\",\"40\",\"5\",\"8\",\"10\",\"N\",\"C\",\"72\"
\"\",\"\",\"approach-retreat\",\"76\",\"681873\",\"0.0-76.0\",\"\",\"\",\"1-2\",\"4343\",\"40\",\"1\",\"Training\",\"Stims/Figures/7-J-10-4.bmp\",\"None\",\"Down\",\"40\",\"5\",\"9\",\"10\",\"N\",\"C\",\"73\"
\"\",\"\",\"approach-retreat\",\"77\",\"688086\",\"0.0-77.0\",\"\",\"\",\"1-2\",\"4706\",\"39\",\"1\",\"Training\",\"Stims/Figures/19-C-20-4.bmp\",\"None\",\"Left\",\"39\",\"5\",\"10\",\"10\",\"N\",\"C\",\"74\"
\"\",\"\",\"approach-retreat\",\"78\",\"693993\",\"0.0-78.0\",\"\",\"\",\"1-2\",\"4401\",\"38\",\"1\",\"Training\",\"Stims/Figures/93-J-0-1.bmp\",\"None\",\"Up\",\"38\",\"5\",\"11\",\"10\",\"N\",\"C\",\"75\"
\"\",\"\",\"approach-retreat\",\"79\",\"700772\",\"0.0-79.0\",\"\",\"\",\"1-2\",\"5273\",\"40\",\"1\",\"Training\",\"Stims/Figures/94-C-20-2.bmp\",\"None\",\"Up\",\"40\",\"5\",\"12\",\"10\",\"N\",\"C\",\"76\"
\"\",\"\",\"approach-retreat\",\"80\",\"706831\",\"0.0-80.0\",\"\",\"\",\"1-2\",\"4553\",\"38\",\"1\",\"Training\",\"Stims/Figures/85-C-20-2.bmp\",\"None\",\"Down\",\"38\",\"5\",\"13\",\"10\",\"N\",\"C\",\"77\"
\"\",\"\",\"approach-retreat\",\"81\",\"715221\",\"0.0-81.0\",\"\",\"\",\"1-2\",\"6885\",\"39\",\"1\",\"Training\",\"Stims/Figures/94-J-0-2.bmp\",\"None\",\"Right\",\"39\",\"5\",\"14\",\"10\",\"N\",\"C\",\"78\"
\"\",\"\",\"approach-retreat\",\"82\",\"720918\",\"0.0-82.0\",\"\",\"\",\"1-2\",\"4191\",\"39\",\"1\",\"Training\",\"Stims/Figures/128-J-10-3.bmp\",\"None\",\"Right\",\"39\",\"5\",\"15\",\"10\",\"N\",\"C\",\"79\"
\"\",\"\",\"approach-retreat\",\"83\",\"726571\",\"0.0-83.0\",\"\",\"\",\"1-2\",\"4148\",\"39\",\"1\",\"Training\",\"Stims/Figures/19-J-10-4.bmp\",\"None\",\"Right\",\"39\",\"5\",\"16\",\"10\",\"N\",\"C\",\"80\"
\"\",\"\",\"approach-retreat\",\"84\",\"732373\",\"0.0-84.0\",\"\",\"\",\"1-2\",\"4298\",\"37\",\"1\",\"Training\",\"Stims/Figures/44-J-10-3.bmp\",\"None\",\"Left\",\"37\",\"6\",\"1\",\"10\",\"N\",\"C\",\"81\"
\"\",\"\",\"approach-retreat\",\"85\",\"738573\",\"0.0-85.0\",\"\",\"\",\"1-2\",\"4694\",\"39\",\"1\",\"Training\",\"Stims/Figures/94-J-0-2.bmp\",\"None\",\"Right\",\"39\",\"6\",\"2\",\"10\",\"N\",\"C\",\"82\"
\"\",\"\",\"approach-retreat\",\"86\",\"744664\",\"0.0-86.0\",\"\",\"\",\"1-2\",\"4585\",\"40\",\"1\",\"Training\",\"Stims/Figures/128-J-10-3.bmp\",\"None\",\"Down\",\"40\",\"6\",\"3\",\"10\",\"N\",\"C\",\"83\"
\"\",\"\",\"approach-retreat\",\"87\",\"751230\",\"0.0-87.0\",\"\",\"\",\"1-2\",\"5060\",\"40\",\"1\",\"Training\",\"Stims/Figures/93-C-30-1.bmp\",\"None\",\"Up\",\"40\",\"6\",\"4\",\"10\",\"N\",\"C\",\"84\"
\"\",\"\",\"approach-retreat\",\"88\",\"757462\",\"0.0-88.0\",\"\",\"\",\"1-2\",\"4726\",\"37\",\"1\",\"Training\",\"Stims/Figures/128-C-30-3.bmp\",\"None\",\"Right\",\"37\",\"6\",\"5\",\"10\",\"N\",\"C\",\"85\"
\"\",\"\",\"approach-retreat\",\"89\",\"763452\",\"0.0-89.0\",\"\",\"\",\"1-2\",\"4483\",\"40\",\"1\",\"Training\",\"Stims/Figures/85-C-20-2.bmp\",\"None\",\"Up\",\"40\",\"6\",\"6\",\"10\",\"N\",\"C\",\"86\"
\"\",\"\",\"approach-retreat\",\"90\",\"770021\",\"0.0-90.0\",\"\",\"\",\"1-2\",\"5062\",\"39\",\"1\",\"Training\",\"Stims/Figures/93-J-0-1.bmp\",\"None\",\"Right\",\"39\",\"6\",\"7\",\"10\",\"N\",\"C\",\"87\"
\"\",\"\",\"approach-retreat\",\"91\",\"776700\",\"0.0-91.0\",\"\",\"\",\"1-2\",\"5173\",\"40\",\"1\",\"Training\",\"Stims/Figures/57-J-0-1.bmp\",\"None\",\"Down\",\"40\",\"6\",\"8\",\"10\",\"N\",\"C\",\"88\"
\"\",\"\",\"approach-retreat\",\"92\",\"782399\",\"0.0-92.0\",\"\",\"\",\"1-2\",\"4192\",\"38\",\"1\",\"Training\",\"Stims/Figures/44-C-30-3.bmp\",\"None\",\"Down\",\"38\",\"6\",\"9\",\"10\",\"N\",\"C\",\"89\"
\"\",\"\",\"approach-retreat\",\"93\",\"789602\",\"0.0-93.0\",\"\",\"\",\"1-2\",\"5698\",\"40\",\"1\",\"Training\",\"Stims/Figures/57-C-30-1.bmp\",\"None\",\"Up\",\"40\",\"6\",\"10\",\"10\",\"N\",\"C\",\"90\"
\"\",\"\",\"approach-retreat\",\"94\",\"795309\",\"0.0-94.0\",\"\",\"\",\"1-2\",\"4199\",\"38\",\"1\",\"Training\",\"Stims/Figures/7-C-20-4.bmp\",\"None\",\"Down\",\"38\",\"6\",\"11\",\"10\",\"N\",\"C\",\"91\"
\"\",\"\",\"approach-retreat\",\"95\",\"801074\",\"0.0-95.0\",\"\",\"\",\"1-2\",\"4258\",\"40\",\"1\",\"Training\",\"Stims/Figures/94-C-20-2.bmp\",\"None\",\"Up\",\"40\",\"6\",\"12\",\"10\",\"N\",\"C\",\"92\"
\"\",\"\",\"approach-retreat\",\"96\",\"807481\",\"0.0-96.0\",\"\",\"\",\"1-2\",\"4902\",\"37\",\"1\",\"Training\",\"Stims/Figures/19-J-10-4.bmp\",\"None\",\"Left\",\"37\",\"6\",\"13\",\"10\",\"N\",\"C\",\"93\"
\"\",\"\",\"approach-retreat\",\"97\",\"813125\",\"0.0-97.0\",\"\",\"\",\"1-2\",\"4137\",\"37\",\"1\",\"Training\",\"Stims/Figures/85-J-0-2.bmp\",\"None\",\"Left\",\"37\",\"6\",\"14\",\"10\",\"N\",\"C\",\"94\"
\"\",\"\",\"approach-retreat\",\"98\",\"819383\",\"0.0-98.0\",\"\",\"\",\"1-2\",\"4751\",\"39\",\"0\",\"Training\",\"Stims/Figures/19-C-20-4.bmp\",\"None\",\"Right\",\"37\",\"6\",\"15\",\"10\",\"N\",\"C\",\"95\"
\"\",\"\",\"approach-retreat\",\"99\",\"824962\",\"0.0-99.0\",\"\",\"\",\"1-2\",\"4074\",\"37\",\"1\",\"Training\",\"Stims/Figures/7-J-10-4.bmp\",\"None\",\"Left\",\"37\",\"6\",\"16\",\"10\",\"N\",\"C\",\"96\"
\"\",\"\",\"approach-retreat\",\"100\",\"831787\",\"0.0-100.0\",\"\",\"\",\"1-2\",\"5318\",\"37\",\"1\",\"Training\",\"Stims/Figures/44-J-10-3.bmp\",\"None\",\"Left\",\"37\",\"7\",\"1\",\"10\",\"N\",\"C\",\"97\"
\"\",\"\",\"approach-retreat\",\"101\",\"837501\",\"0.0-101.0\",\"\",\"\",\"1-2\",\"4208\",\"37\",\"1\",\"Training\",\"Stims/Figures/19-J-10-4.bmp\",\"None\",\"Left\",\"37\",\"7\",\"2\",\"10\",\"N\",\"C\",\"98\"
\"\",\"\",\"approach-retreat\",\"102\",\"843763\",\"0.0-102.0\",\"\",\"\",\"1-2\",\"4757\",\"40\",\"1\",\"Training\",\"Stims/Figures/85-J-0-2.bmp\",\"None\",\"Down\",\"40\",\"7\",\"3\",\"10\",\"N\",\"C\",\"99\"
\"\",\"\",\"approach-retreat\",\"103\",\"849777\",\"0.0-103.0\",\"\",\"\",\"1-2\",\"4508\",\"37\",\"1\",\"Training\",\"Stims/Figures/57-C-30-1.bmp\",\"None\",\"Right\",\"37\",\"7\",\"4\",\"10\",\"N\",\"C\",\"100\"
\"\",\"\",\"approach-retreat\",\"104\",\"855448\",\"0.0-104.0\",\"\",\"\",\"1-2\",\"4164\",\"37\",\"1\",\"Training\",\"Stims/Figures/94-C-20-2.bmp\",\"None\",\"Right\",\"37\",\"7\",\"5\",\"10\",\"N\",\"C\",\"101\"
\"\",\"\",\"approach-retreat\",\"105\",\"861971\",\"0.0-105.0\",\"\",\"\",\"1-2\",\"5018\",\"40\",\"1\",\"Training\",\"Stims/Figures/57-J-0-1.bmp\",\"None\",\"Down\",\"40\",\"7\",\"6\",\"10\",\"N\",\"C\",\"102\"
\"\",\"\",\"approach-retreat\",\"106\",\"869559\",\"0.0-106.0\",\"\",\"\",\"1-2\",\"6083\",\"40\",\"1\",\"Training\",\"Stims/Figures/19-C-20-4.bmp\",\"None\",\"Up\",\"40\",\"7\",\"7\",\"10\",\"N\",\"C\",\"103\"
\"\",\"\",\"approach-retreat\",\"107\",\"877982\",\"0.0-107.0\",\"\",\"\",\"1-2\",\"6917\",\"37\",\"1\",\"Training\",\"Stims/Figures/128-J-10-3.bmp\",\"None\",\"Left\",\"37\",\"7\",\"8\",\"10\",\"N\",\"C\",\"104\"
\"\",\"\",\"approach-retreat\",\"108\",\"884046\",\"0.0-108.0\",\"\",\"\",\"1-2\",\"4557\",\"39\",\"1\",\"Training\",\"Stims/Figures/93-J-0-1.bmp\",\"None\",\"Right\",\"39\",\"7\",\"9\",\"10\",\"N\",\"C\",\"105\"
\"\",\"\",\"approach-retreat\",\"109\",\"891521\",\"0.0-109.0\",\"\",\"\",\"1-2\",\"5969\",\"40\",\"1\",\"Training\",\"Stims/Figures/85-C-20-2.bmp\",\"None\",\"Up\",\"40\",\"7\",\"10\",\"10\",\"N\",\"C\",\"106\"
\"\",\"\",\"approach-retreat\",\"110\",\"902308\",\"0.0-110.0\",\"\",\"\",\"1-2\",\"9280\",\"40\",\"1\",\"Training\",\"Stims/Figures/93-C-30-1.bmp\",\"None\",\"Up\",\"40\",\"7\",\"11\",\"10\",\"N\",\"C\",\"107\"
\"\",\"\",\"approach-retreat\",\"111\",\"908868\",\"0.0-111.0\",\"\",\"\",\"1-2\",\"5054\",\"38\",\"1\",\"Training\",\"Stims/Figures/128-C-30-3.bmp\",\"None\",\"Down\",\"38\",\"7\",\"12\",\"10\",\"N\",\"C\",\"108\"
\"\",\"\",\"approach-retreat\",\"112\",\"915025\",\"0.0-112.0\",\"\",\"\",\"1-2\",\"4651\",\"40\",\"1\",\"Training\",\"Stims/Figures/7-C-20-4.bmp\",\"None\",\"Up\",\"40\",\"7\",\"13\",\"10\",\"N\",\"C\",\"109\"
\"\",\"\",\"approach-retreat\",\"113\",\"920605\",\"0.0-113.0\",\"\",\"\",\"1-2\",\"4076\",\"37\",\"1\",\"Training\",\"Stims/Figures/7-J-10-4.bmp\",\"None\",\"Left\",\"37\",\"7\",\"14\",\"10\",\"N\",\"C\",\"110\"
\"\",\"\",\"approach-retreat\",\"114\",\"926331\",\"0.0-114.0\",\"\",\"\",\"1-2\",\"4222\",\"38\",\"1\",\"Training\",\"Stims/Figures/44-C-30-3.bmp\",\"None\",\"Down\",\"38\",\"7\",\"15\",\"10\",\"N\",\"C\",\"111\"
\"\",\"\",\"approach-retreat\",\"115\",\"932143\",\"0.0-115.0\",\"\",\"\",\"1-2\",\"4307\",\"39\",\"1\",\"Training\",\"Stims/Figures/94-J-0-2.bmp\",\"None\",\"Right\",\"39\",\"7\",\"16\",\"10\",\"N\",\"C\",\"112\"
\"\",\"\",\"approach-retreat\",\"116\",\"937925\",\"0.0-116.0\",\"\",\"\",\"1-2\",\"4275\",\"40\",\"1\",\"Training\",\"Stims/Figures/85-J-0-2.bmp\",\"None\",\"Down\",\"40\",\"8\",\"1\",\"10\",\"N\",\"C\",\"113\"
\"\",\"\",\"approach-retreat\",\"117\",\"943990\",\"0.0-117.0\",\"\",\"\",\"1-2\",\"4559\",\"39\",\"1\",\"Training\",\"Stims/Figures/94-J-0-2.bmp\",\"None\",\"Right\",\"39\",\"8\",\"2\",\"10\",\"N\",\"C\",\"114\"
\"\",\"\",\"approach-retreat\",\"118\",\"951567\",\"0.0-118.0\",\"\",\"\",\"1-2\",\"6072\",\"40\",\"1\",\"Training\",\"Stims/Figures/7-C-20-4.bmp\",\"None\",\"Up\",\"40\",\"8\",\"3\",\"10\",\"N\",\"C\",\"115\"
\"\",\"\",\"approach-retreat\",\"119\",\"958757\",\"0.0-119.0\",\"\",\"\",\"1-2\",\"5683\",\"40\",\"1\",\"Training\",\"Stims/Figures/44-J-10-3.bmp\",\"None\",\"Down\",\"40\",\"8\",\"4\",\"10\",\"N\",\"C\",\"116\"
\"\",\"\",\"approach-retreat\",\"120\",\"965106\",\"0.0-120.0\",\"\",\"\",\"1-2\",\"4844\",\"37\",\"1\",\"Training\",\"Stims/Figures/19-J-10-4.bmp\",\"None\",\"Left\",\"37\",\"8\",\"5\",\"10\",\"N\",\"C\",\"117\"
\"\",\"\",\"approach-retreat\",\"121\",\"970799\",\"0.0-121.0\",\"\",\"\",\"1-2\",\"4187\",\"40\",\"1\",\"Training\",\"Stims/Figures/57-J-0-1.bmp\",\"None\",\"Down\",\"40\",\"8\",\"6\",\"10\",\"N\",\"C\",\"118\"
\"\",\"\",\"approach-retreat\",\"122\",\"976766\",\"0.0-122.0\",\"\",\"\",\"1-2\",\"4459\",\"38\",\"1\",\"Training\",\"Stims/Figures/128-C-30-3.bmp\",\"None\",\"Down\",\"38\",\"8\",\"7\",\"10\",\"N\",\"C\",\"119\"
\"\",\"\",\"approach-retreat\",\"123\",\"982616\",\"0.0-123.0\",\"\",\"\",\"1-2\",\"4344\",\"37\",\"1\",\"Training\",\"Stims/Figures/44-C-30-3.bmp\",\"None\",\"Right\",\"37\",\"8\",\"8\",\"10\",\"N\",\"C\",\"120\"
\"\",\"\",\"approach-retreat\",\"124\",\"988336\",\"0.0-124.0\",\"\",\"\",\"1-2\",\"4211\",\"37\",\"1\",\"Training\",\"Stims/Figures/57-C-30-1.bmp\",\"None\",\"Right\",\"37\",\"8\",\"9\",\"10\",\"N\",\"C\",\"121\"
\"\",\"\",\"approach-retreat\",\"125\",\"994071\",\"0.0-125.0\",\"\",\"\",\"1-2\",\"4229\",\"37\",\"1\",\"Training\",\"Stims/Figures/93-C-30-1.bmp\",\"None\",\"Right\",\"37\",\"8\",\"10\",\"10\",\"N\",\"C\",\"122\"
\"\",\"\",\"approach-retreat\",\"126\",\"1000592\",\"0.0-126.0\",\"\",\"\",\"1-2\",\"5015\",\"39\",\"1\",\"Training\",\"Stims/Figures/85-C-20-2.bmp\",\"None\",\"Left\",\"39\",\"8\",\"11\",\"10\",\"N\",\"C\",\"123\"
\"\",\"\",\"approach-retreat\",\"127\",\"1006338\",\"0.0-127.0\",\"\",\"\",\"1-2\",\"4239\",\"37\",\"1\",\"Training\",\"Stims/Figures/7-J-10-4.bmp\",\"None\",\"Left\",\"37\",\"8\",\"12\",\"10\",\"N\",\"C\",\"124\"
\"\",\"\",\"approach-retreat\",\"128\",\"1012323\",\"0.0-128.0\",\"\",\"\",\"1-2\",\"4481\",\"38\",\"1\",\"Training\",\"Stims/Figures/128-J-10-3.bmp\",\"None\",\"Up\",\"38\",\"8\",\"13\",\"10\",\"N\",\"C\",\"125\"
\"\",\"\",\"approach-retreat\",\"129\",\"1018258\",\"0.0-129.0\",\"\",\"\",\"1-2\",\"4428\",\"40\",\"1\",\"Training\",\"Stims/Figures/94-C-20-2.bmp\",\"None\",\"Up\",\"40\",\"8\",\"14\",\"10\",\"N\",\"C\",\"126\"
\"\",\"\",\"approach-retreat\",\"130\",\"1023849\",\"0.0-130.0\",\"\",\"\",\"1-2\",\"4085\",\"37\",\"1\",\"Training\",\"Stims/Figures/93-J-0-1.bmp\",\"None\",\"Left\",\"37\",\"8\",\"15\",\"10\",\"N\",\"C\",\"127\"
\"\",\"\",\"approach-retreat\",\"131\",\"1032463\",\"0.0-131.0\",\"\",\"\",\"1-2\",\"7105\",\"40\",\"1\",\"Training\",\"Stims/Figures/19-C-20-4.bmp\",\"None\",\"Up\",\"40\",\"8\",\"16\",\"10\",\"N\",\"C\",\"128\"
\"\",\"\",\"approach-retreat\",\"132\",\"1039013\",\"0.0-132.0\",\"\",\"\",\"1-2\",\"5045\",\"38\",\"1\",\"Training\",\"Stims/Figures/93-J-0-1.bmp\",\"None\",\"Up\",\"38\",\"9\",\"1\",\"10\",\"N\",\"C\",\"129\"
\"\",\"\",\"approach-retreat\",\"133\",\"1051330\",\"0.0-133.0\",\"\",\"\",\"1-2\",\"10811\",\"40\",\"1\",\"Training\",\"Stims/Figures/57-J-0-1.bmp\",\"None\",\"Down\",\"40\",\"9\",\"2\",\"10\",\"N\",\"C\",\"130\"
\"\",\"\",\"approach-retreat\",\"134\",\"1061043\",\"0.0-134.0\",\"\",\"\",\"1-2\",\"8206\",\"38\",\"1\",\"Training\",\"Stims/Figures/128-J-10-3.bmp\",\"None\",\"Up\",\"38\",\"9\",\"3\",\"10\",\"N\",\"C\",\"131\"
\"\",\"\",\"approach-retreat\",\"135\",\"1067586\",\"0.0-135.0\",\"\",\"\",\"1-2\",\"5036\",\"37\",\"0\",\"Training\",\"Stims/Figures/85-C-20-2.bmp\",\"None\",\"Left\",\"39\",\"9\",\"4\",\"10\",\"N\",\"C\",\"132\"
\"\",\"\",\"approach-retreat\",\"136\",\"1074828\",\"0.0-136.0\",\"\",\"\",\"1-2\",\"5736\",\"40\",\"1\",\"Training\",\"Stims/Figures/7-J-10-4.bmp\",\"None\",\"Down\",\"40\",\"9\",\"5\",\"10\",\"N\",\"C\",\"133\"
\"\",\"\",\"approach-retreat\",\"137\",\"1082379\",\"0.0-137.0\",\"\",\"\",\"1-2\",\"6045\",\"37\",\"1\",\"Training\",\"Stims/Figures/128-C-30-3.bmp\",\"None\",\"Right\",\"37\",\"9\",\"6\",\"10\",\"N\",\"C\",\"134\"
\"\",\"\",\"approach-retreat\",\"138\",\"1088040\",\"0.0-138.0\",\"\",\"\",\"1-2\",\"4155\",\"40\",\"1\",\"Training\",\"Stims/Figures/44-J-10-3.bmp\",\"None\",\"Down\",\"40\",\"9\",\"7\",\"10\",\"N\",\"C\",\"135\"
\"\",\"\",\"approach-retreat\",\"139\",\"1093771\",\"0.0-139.0\",\"\",\"\",\"1-2\",\"4225\",\"40\",\"1\",\"Training\",\"Stims/Figures/44-C-30-3.bmp\",\"None\",\"Up\",\"40\",\"9\",\"8\",\"10\",\"N\",\"C\",\"136\"
\"\",\"\",\"approach-retreat\",\"140\",\"1099210\",\"0.0-140.0\",\"\",\"\",\"1-2\",\"3933\",\"37\",\"1\",\"Training\",\"Stims/Figures/85-J-0-2.bmp\",\"None\",\"Left\",\"37\",\"9\",\"9\",\"10\",\"N\",\"C\",\"137\"
\"\",\"\",\"approach-retreat\",\"141\",\"1105346\",\"0.0-141.0\",\"\",\"\",\"1-2\",\"4629\",\"39\",\"1\",\"Training\",\"Stims/Figures/93-C-30-1.bmp\",\"None\",\"Left\",\"39\",\"9\",\"10\",\"10\",\"N\",\"C\",\"138\"
\"\",\"\",\"approach-retreat\",\"142\",\"1111616\",\"0.0-142.0\",\"\",\"\",\"1-2\",\"4763\",\"40\",\"1\",\"Training\",\"Stims/Figures/19-J-10-4.bmp\",\"None\",\"Down\",\"40\",\"9\",\"11\",\"10\",\"N\",\"C\",\"139\"
\"\",\"\",\"approach-retreat\",\"143\",\"1117084\",\"0.0-143.0\",\"\",\"\",\"1-2\",\"3962\",\"37\",\"1\",\"Training\",\"Stims/Figures/94-C-20-2.bmp\",\"None\",\"Right\",\"37\",\"9\",\"12\",\"10\",\"N\",\"C\",\"140\"
\"\",\"\",\"approach-retreat\",\"144\",\"1122970\",\"0.0-144.0\",\"\",\"\",\"1-2\",\"4379\",\"37\",\"1\",\"Training\",\"Stims/Figures/7-C-20-4.bmp\",\"None\",\"Right\",\"37\",\"9\",\"13\",\"10\",\"N\",\"C\",\"141\"
\"\",\"\",\"approach-retreat\",\"145\",\"1128570\",\"0.0-145.0\",\"\",\"\",\"1-2\",\"4094\",\"39\",\"1\",\"Training\",\"Stims/Figures/94-J-0-2.bmp\",\"None\",\"Right\",\"39\",\"9\",\"14\",\"10\",\"N\",\"C\",\"142\"
\"\",\"\",\"approach-retreat\",\"146\",\"1134534\",\"0.0-146.0\",\"\",\"\",\"1-2\",\"4459\",\"39\",\"1\",\"Training\",\"Stims/Figures/57-C-30-1.bmp\",\"None\",\"Left\",\"39\",\"9\",\"15\",\"10\",\"N\",\"C\",\"143\"
\"\",\"\",\"approach-retreat\",\"147\",\"1141709\",\"0.0-147.0\",\"\",\"\",\"1-2\",\"5667\",\"40\",\"1\",\"Training\",\"Stims/Figures/19-C-20-4.bmp\",\"None\",\"Up\",\"40\",\"9\",\"16\",\"10\",\"N\",\"C\",\"144\"
\"13591\",\"\",\"instructions\",\"148\",\"1155300\",\"0.0-148.0\",\"[{\"\"page_index\"\":0,\"\"viewing_time\"\":13591}]\",\"\",\"\",\"\",\"\",\"\",\"\",\"\",\"\",\"\",\"\",\"\",\"\",\"\",\"\",\"\",\"\"
\"\",\"\",\"approach-retreat\",\"149\",\"1163431\",\"0.0-149.0\",\"\",\"\",\"1-2\",\"6624\",\"38\",\"1\",\"Testing\",\"Stims/Figures/74-C-20-4.bmp\",\"None\",\"Down\",\"38\",\"1\",\"1\",\"10\",\"N\",\"C\",\"1\"
\"\",\"\",\"approach-retreat\",\"150\",\"1169151\",\"0.0-150.0\",\"\",\"\",\"1-2\",\"4214\",\"39\",\"1\",\"Testing\",\"Stims/Figures/71-J-0-1.bmp\",\"None\",\"Right\",\"39\",\"1\",\"2\",\"10\",\"N\",\"C\",\"2\"
\"\",\"\",\"approach-retreat\",\"151\",\"1175108\",\"0.0-151.0\",\"\",\"\",\"1-2\",\"4450\",\"40\",\"1\",\"Testing\",\"Stims/Figures/100-C-30-3.bmp\",\"None\",\"Up\",\"40\",\"1\",\"3\",\"10\",\"N\",\"C\",\"3\"
\"\",\"\",\"approach-retreat\",\"152\",\"1180717\",\"0.0-152.0\",\"\",\"\",\"1-2\",\"4104\",\"37\",\"1\",\"Testing\",\"Stims/Figures/57-C-30-1.bmp\",\"None\",\"Right\",\"37\",\"1\",\"4\",\"10\",\"N\",\"C\",\"4\"
\"\",\"\",\"approach-retreat\",\"153\",\"1186488\",\"0.0-153.0\",\"\",\"\",\"1-2\",\"4265\",\"38\",\"1\",\"Testing\",\"Stims/Figures/85-J-0-2.bmp\",\"None\",\"Up\",\"38\",\"1\",\"5\",\"10\",\"N\",\"C\",\"5\"
\"\",\"\",\"approach-retreat\",\"154\",\"1195742\",\"0.0-154.0\",\"\",\"\",\"1-2\",\"7747\",\"39\",\"1\",\"Testing\",\"Stims/Figures/19-C-20-4.bmp\",\"None\",\"Left\",\"39\",\"1\",\"6\",\"10\",\"N\",\"C\",\"6\"
\"\",\"\",\"approach-retreat\",\"155\",\"1201592\",\"0.0-155.0\",\"\",\"\",\"1-2\",\"4344\",\"39\",\"1\",\"Testing\",\"Stims/Figures/128-J-10-3.bmp\",\"None\",\"Right\",\"39\",\"1\",\"7\",\"10\",\"N\",\"C\",\"7\"
\"\",\"\",\"approach-retreat\",\"156\",\"1207311\",\"0.0-156.0\",\"\",\"\",\"1-2\",\"4212\",\"40\",\"1\",\"Testing\",\"Stims/Figures/57-J-0-1.bmp\",\"None\",\"Down\",\"40\",\"1\",\"8\",\"10\",\"N\",\"C\",\"8\"
\"\",\"\",\"approach-retreat\",\"157\",\"1213079\",\"0.0-157.0\",\"\",\"\",\"1-2\",\"4262\",\"38\",\"1\",\"Testing\",\"Stims/Figures/94-C-20-2.bmp\",\"None\",\"Down\",\"38\",\"1\",\"9\",\"10\",\"N\",\"C\",\"9\"
\"\",\"\",\"approach-retreat\",\"158\",\"1218770\",\"0.0-158.0\",\"\",\"\",\"1-2\",\"4186\",\"37\",\"1\",\"Testing\",\"Stims/Figures/118-J-0-2.bmp\",\"None\",\"Left\",\"37\",\"1\",\"10\",\"10\",\"N\",\"C\",\"10\"
\"\",\"\",\"approach-retreat\",\"159\",\"1224675\",\"0.0-159.0\",\"\",\"\",\"1-2\",\"4398\",\"39\",\"1\",\"Testing\",\"Stims/Figures/118-C-20-2.bmp\",\"None\",\"Left\",\"39\",\"1\",\"11\",\"10\",\"N\",\"C\",\"11\"
\"\",\"\",\"approach-retreat\",\"160\",\"1230518\",\"0.0-160.0\",\"\",\"\",\"1-2\",\"4335\",\"40\",\"1\",\"Testing\",\"Stims/Figures/93-J-0-1.bmp\",\"None\",\"Down\",\"40\",\"1\",\"12\",\"10\",\"N\",\"C\",\"12\"
\"\",\"\",\"approach-retreat\",\"161\",\"1236411\",\"0.0-161.0\",\"\",\"\",\"1-2\",\"4387\",\"39\",\"1\",\"Testing\",\"Stims/Figures/85-C-20-2.bmp\",\"None\",\"Left\",\"39\",\"1\",\"13\",\"10\",\"N\",\"C\",\"13\"
\"\",\"\",\"approach-retreat\",\"162\",\"1242459\",\"0.0-162.0\",\"\",\"\",\"1-2\",\"4541\",\"39\",\"1\",\"Testing\",\"Stims/Figures/44-C-30-3.bmp\",\"None\",\"Left\",\"39\",\"1\",\"14\",\"10\",\"N\",\"C\",\"14\"
\"\",\"\",\"approach-retreat\",\"163\",\"1248665\",\"0.0-163.0\",\"\",\"\",\"1-2\",\"4702\",\"40\",\"1\",\"Testing\",\"Stims/Figures/19-J-10-4.bmp\",\"None\",\"Down\",\"40\",\"1\",\"15\",\"10\",\"N\",\"C\",\"15\"
\"\",\"\",\"approach-retreat\",\"164\",\"1254789\",\"0.0-164.0\",\"\",\"\",\"1-2\",\"4618\",\"40\",\"1\",\"Testing\",\"Stims/Figures/128-C-30-3.bmp\",\"None\",\"Up\",\"40\",\"1\",\"16\",\"10\",\"N\",\"C\",\"16\"
\"\",\"\",\"approach-retreat\",\"165\",\"1260600\",\"0.0-165.0\",\"\",\"\",\"1-2\",\"4304\",\"40\",\"1\",\"Testing\",\"Stims/Figures/71-C-30-1.bmp\",\"None\",\"Up\",\"40\",\"1\",\"17\",\"10\",\"N\",\"C\",\"17\"
\"\",\"\",\"approach-retreat\",\"166\",\"1270126\",\"0.0-166.0\",\"\",\"\",\"1-2\",\"8022\",\"37\",\"1\",\"Testing\",\"Stims/Figures/7-C-20-4.bmp\",\"None\",\"Right\",\"37\",\"1\",\"18\",\"10\",\"N\",\"C\",\"18\"
\"\",\"\",\"approach-retreat\",\"167\",\"1279110\",\"0.0-167.0\",\"\",\"\",\"1-2\",\"7478\",\"38\",\"1\",\"Testing\",\"Stims/Figures/100-J-10-3.bmp\",\"None\",\"Up\",\"38\",\"1\",\"19\",\"10\",\"N\",\"C\",\"19\"
\"\",\"\",\"approach-retreat\",\"168\",\"1284721\",\"0.0-168.0\",\"\",\"\",\"1-2\",\"4105\",\"39\",\"1\",\"Testing\",\"Stims/Figures/7-J-10-4.bmp\",\"None\",\"Right\",\"39\",\"1\",\"20\",\"10\",\"N\",\"C\",\"20\"
\"\",\"\",\"approach-retreat\",\"169\",\"1290276\",\"0.0-169.0\",\"\",\"\",\"1-2\",\"4049\",\"39\",\"1\",\"Testing\",\"Stims/Figures/93-C-30-1.bmp\",\"None\",\"Left\",\"39\",\"1\",\"21\",\"10\",\"N\",\"C\",\"21\"
\"\",\"\",\"approach-retreat\",\"170\",\"1295917\",\"0.0-170.0\",\"\",\"\",\"1-2\",\"4135\",\"39\",\"1\",\"Testing\",\"Stims/Figures/94-J-0-2.bmp\",\"None\",\"Right\",\"39\",\"1\",\"22\",\"10\",\"N\",\"C\",\"22\"
\"\",\"\",\"approach-retreat\",\"171\",\"1303011\",\"0.0-171.0\",\"\",\"\",\"1-2\",\"5586\",\"38\",\"1\",\"Testing\",\"Stims/Figures/74-J-10-4.bmp\",\"None\",\"Up\",\"38\",\"1\",\"23\",\"10\",\"N\",\"C\",\"23\"
\"\",\"\",\"approach-retreat\",\"172\",\"1308734\",\"0.0-172.0\",\"\",\"\",\"1-2\",\"4216\",\"40\",\"1\",\"Testing\",\"Stims/Figures/44-J-10-3.bmp\",\"None\",\"Down\",\"40\",\"1\",\"24\",\"10\",\"N\",\"C\",\"24\"
\"\",\"\",\"approach-retreat\",\"173\",\"1314508\",\"0.0-173.0\",\"\",\"\",\"1-2\",\"4269\",\"40\",\"1\",\"Testing\",\"Stims/Figures/7-C-20-4.bmp\",\"None\",\"Up\",\"40\",\"2\",\"1\",\"10\",\"N\",\"C\",\"25\"
\"\",\"\",\"approach-retreat\",\"174\",\"1324451\",\"0.0-174.0\",\"\",\"\",\"1-2\",\"8437\",\"40\",\"1\",\"Testing\",\"Stims/Figures/7-J-10-4.bmp\",\"None\",\"Down\",\"40\",\"2\",\"2\",\"10\",\"N\",\"C\",\"26\"
\"\",\"\",\"approach-retreat\",\"175\",\"1330281\",\"0.0-175.0\",\"\",\"\",\"1-2\",\"4324\",\"37\",\"1\",\"Testing\",\"Stims/Figures/94-J-0-2.bmp\",\"None\",\"Left\",\"37\",\"2\",\"3\",\"10\",\"N\",\"C\",\"27\"
\"\",\"\",\"approach-retreat\",\"176\",\"1335911\",\"0.0-176.0\",\"\",\"\",\"1-2\",\"4124\",\"38\",\"1\",\"Testing\",\"Stims/Figures/57-J-0-1.bmp\",\"None\",\"Up\",\"38\",\"2\",\"4\",\"10\",\"N\",\"C\",\"28\"
\"\",\"\",\"approach-retreat\",\"177\",\"1341625\",\"0.0-177.0\",\"\",\"\",\"1-2\",\"4208\",\"40\",\"1\",\"Testing\",\"Stims/Figures/44-C-30-3.bmp\",\"None\",\"Up\",\"40\",\"2\",\"5\",\"10\",\"N\",\"C\",\"29\"
\"\",\"\",\"approach-retreat\",\"178\",\"1347542\",\"0.0-178.0\",\"\",\"\",\"1-2\",\"4410\",\"40\",\"1\",\"Testing\",\"Stims/Figures/71-C-30-1.bmp\",\"None\",\"Up\",\"40\",\"2\",\"6\",\"10\",\"N\",\"C\",\"30\"
\"\",\"\",\"approach-retreat\",\"179\",\"1353156\",\"0.0-179.0\",\"\",\"\",\"1-2\",\"4108\",\"37\",\"1\",\"Testing\",\"Stims/Figures/57-C-30-1.bmp\",\"None\",\"Right\",\"37\",\"2\",\"7\",\"10\",\"N\",\"C\",\"31\"
\"\",\"\",\"approach-retreat\",\"180\",\"1358961\",\"0.0-180.0\",\"\",\"\",\"1-2\",\"4299\",\"37\",\"1\",\"Testing\",\"Stims/Figures/100-C-30-3.bmp\",\"None\",\"Right\",\"37\",\"2\",\"8\",\"10\",\"N\",\"C\",\"32\"
\"\",\"\",\"approach-retreat\",\"181\",\"1365147\",\"0.0-181.0\",\"\",\"\",\"1-2\",\"4679\",\"40\",\"1\",\"Testing\",\"Stims/Figures/93-J-0-1.bmp\",\"None\",\"Down\",\"40\",\"2\",\"9\",\"10\",\"N\",\"C\",\"33\"
\"\",\"\",\"approach-retreat\",\"182\",\"1371350\",\"0.0-182.0\",\"\",\"\",\"1-2\",\"4697\",\"39\",\"1\",\"Testing\",\"Stims/Figures/19-C-20-4.bmp\",\"None\",\"Left\",\"39\",\"2\",\"10\",\"10\",\"N\",\"C\",\"34\"
\"\",\"\",\"approach-retreat\",\"183\",\"1377024\",\"0.0-183.0\",\"\",\"\",\"1-2\",\"4170\",\"37\",\"1\",\"Testing\",\"Stims/Figures/128-C-30-3.bmp\",\"None\",\"Right\",\"37\",\"2\",\"11\",\"10\",\"N\",\"C\",\"35\"
\"\",\"\",\"approach-retreat\",\"184\",\"1383106\",\"0.0-184.0\",\"\",\"\",\"1-2\",\"4576\",\"39\",\"1\",\"Testing\",\"Stims/Figures/19-J-10-4.bmp\",\"None\",\"Right\",\"39\",\"2\",\"12\",\"10\",\"N\",\"C\",\"36\"
\"\",\"\",\"approach-retreat\",\"185\",\"1389103\",\"0.0-185.0\",\"\",\"\",\"1-2\",\"4491\",\"38\",\"1\",\"Testing\",\"Stims/Figures/93-C-30-1.bmp\",\"None\",\"Down\",\"38\",\"2\",\"13\",\"10\",\"N\",\"C\",\"37\"
\"\",\"\",\"approach-retreat\",\"186\",\"1394908\",\"0.0-186.0\",\"\",\"\",\"1-2\",\"4298\",\"40\",\"1\",\"Testing\",\"Stims/Figures/44-J-10-3.bmp\",\"None\",\"Down\",\"40\",\"2\",\"14\",\"10\",\"N\",\"C\",\"38\"
\"\",\"\",\"approach-retreat\",\"187\",\"1400466\",\"0.0-187.0\",\"\",\"\",\"1-2\",\"4053\",\"37\",\"1\",\"Testing\",\"Stims/Figures/118-J-0-2.bmp\",\"None\",\"Left\",\"37\",\"2\",\"15\",\"10\",\"N\",\"C\",\"39\"
\"\",\"\",\"approach-retreat\",\"188\",\"1406026\",\"0.0-188.0\",\"\",\"\",\"1-2\",\"4055\",\"37\",\"1\",\"Testing\",\"Stims/Figures/128-J-10-3.bmp\",\"None\",\"Left\",\"37\",\"2\",\"16\",\"10\",\"N\",\"C\",\"40\"
\"\",\"\",\"approach-retreat\",\"189\",\"1411650\",\"0.0-189.0\",\"\",\"\",\"1-2\",\"4119\",\"37\",\"1\",\"Testing\",\"Stims/Figures/71-J-0-1.bmp\",\"None\",\"Left\",\"37\",\"2\",\"17\",\"10\",\"N\",\"C\",\"41\"
\"\",\"\",\"approach-retreat\",\"190\",\"1421065\",\"0.0-190.0\",\"\",\"\",\"1-2\",\"7906\",\"40\",\"1\",\"Testing\",\"Stims/Figures/74-J-10-4.bmp\",\"None\",\"Down\",\"40\",\"2\",\"18\",\"10\",\"N\",\"C\",\"42\"
\"\",\"\",\"approach-retreat\",\"191\",\"1427013\",\"0.0-191.0\",\"\",\"\",\"1-2\",\"4443\",\"37\",\"1\",\"Testing\",\"Stims/Figures/85-C-20-2.bmp\",\"None\",\"Right\",\"37\",\"2\",\"19\",\"10\",\"N\",\"C\",\"43\"
\"\",\"\",\"approach-retreat\",\"192\",\"1435315\",\"0.0-192.0\",\"\",\"\",\"1-2\",\"6797\",\"40\",\"1\",\"Testing\",\"Stims/Figures/85-J-0-2.bmp\",\"None\",\"Down\",\"40\",\"2\",\"20\",\"10\",\"N\",\"C\",\"44\"
\"\",\"\",\"approach-retreat\",\"193\",\"1441382\",\"0.0-193.0\",\"\",\"\",\"1-2\",\"4561\",\"37\",\"1\",\"Testing\",\"Stims/Figures/100-J-10-3.bmp\",\"None\",\"Left\",\"37\",\"2\",\"21\",\"10\",\"N\",\"C\",\"45\"
\"\",\"\",\"approach-retreat\",\"194\",\"1448801\",\"0.0-194.0\",\"\",\"\",\"1-2\",\"5913\",\"38\",\"0\",\"Testing\",\"Stims/Figures/118-C-20-2.bmp\",\"None\",\"Up\",\"40\",\"2\",\"22\",\"10\",\"N\",\"C\",\"46\"
\"\",\"\",\"approach-retreat\",\"195\",\"1454912\",\"0.0-195.0\",\"\",\"\",\"1-2\",\"4605\",\"37\",\"1\",\"Testing\",\"Stims/Figures/74-C-20-4.bmp\",\"None\",\"Right\",\"37\",\"2\",\"23\",\"10\",\"N\",\"C\",\"47\"
\"\",\"\",\"approach-retreat\",\"196\",\"1461116\",\"0.0-196.0\",\"\",\"\",\"1-2\",\"4697\",\"40\",\"1\",\"Testing\",\"Stims/Figures/94-C-20-2.bmp\",\"None\",\"Up\",\"40\",\"2\",\"24\",\"10\",\"N\",\"C\",\"48\"
\"\",\"\",\"approach-retreat\",\"197\",\"1466835\",\"0.0-197.0\",\"\",\"\",\"1-2\",\"4213\",\"40\",\"1\",\"Testing\",\"Stims/Figures/128-C-30-3.bmp\",\"None\",\"Up\",\"40\",\"3\",\"1\",\"10\",\"N\",\"C\",\"49\"
\"\",\"\",\"approach-retreat\",\"198\",\"1472722\",\"0.0-198.0\",\"\",\"\",\"1-2\",\"4380\",\"40\",\"1\",\"Testing\",\"Stims/Figures/128-J-10-3.bmp\",\"None\",\"Down\",\"40\",\"3\",\"2\",\"10\",\"N\",\"C\",\"50\"
\"\",\"\",\"approach-retreat\",\"199\",\"1478782\",\"0.0-199.0\",\"\",\"\",\"1-2\",\"4554\",\"38\",\"1\",\"Testing\",\"Stims/Figures/100-J-10-3.bmp\",\"None\",\"Up\",\"38\",\"3\",\"3\",\"10\",\"N\",\"C\",\"51\"
\"\",\"\",\"approach-retreat\",\"200\",\"1486798\",\"0.0-200.0\",\"\",\"\",\"1-2\",\"6510\",\"37\",\"1\",\"Testing\",\"Stims/Figures/74-C-20-4.bmp\",\"None\",\"Right\",\"37\",\"3\",\"4\",\"10\",\"N\",\"C\",\"52\"
\"\",\"\",\"approach-retreat\",\"201\",\"1492760\",\"0.0-201.0\",\"\",\"\",\"1-2\",\"4456\",\"39\",\"1\",\"Testing\",\"Stims/Figures/44-C-30-3.bmp\",\"None\",\"Left\",\"39\",\"3\",\"5\",\"10\",\"N\",\"C\",\"53\"
\"\",\"\",\"approach-retreat\",\"202\",\"1498557\",\"0.0-202.0\",\"\",\"\",\"1-2\",\"4291\",\"39\",\"1\",\"Testing\",\"Stims/Figures/93-C-30-1.bmp\",\"None\",\"Left\",\"39\",\"3\",\"6\",\"10\",\"N\",\"C\",\"54\"
\"\",\"\",\"approach-retreat\",\"203\",\"1510792\",\"0.0-203.0\",\"\",\"\",\"1-2\",\"10730\",\"37\",\"1\",\"Testing\",\"Stims/Figures/19-J-10-4.bmp\",\"None\",\"Left\",\"37\",\"3\",\"7\",\"10\",\"N\",\"C\",\"55\"
\"\",\"\",\"approach-retreat\",\"204\",\"1516931\",\"0.0-204.0\",\"\",\"\",\"1-2\",\"4632\",\"40\",\"1\",\"Testing\",\"Stims/Figures/94-J-0-2.bmp\",\"None\",\"Down\",\"40\",\"3\",\"8\",\"10\",\"N\",\"C\",\"56\"
\"\",\"\",\"approach-retreat\",\"205\",\"1526696\",\"0.0-205.0\",\"\",\"\",\"1-2\",\"8260\",\"39\",\"1\",\"Testing\",\"Stims/Figures/7-C-20-4.bmp\",\"None\",\"Left\",\"39\",\"3\",\"9\",\"10\",\"N\",\"C\",\"57\"
\"\",\"\",\"approach-retreat\",\"206\",\"1535343\",\"0.0-206.0\",\"\",\"\",\"1-2\",\"7139\",\"38\",\"1\",\"Testing\",\"Stims/Figures/85-C-20-2.bmp\",\"None\",\"Down\",\"38\",\"3\",\"10\",\"10\",\"N\",\"C\",\"58\"
\"\",\"\",\"approach-retreat\",\"207\",\"1546254\",\"0.0-207.0\",\"\",\"\",\"1-2\",\"9405\",\"37\",\"1\",\"Testing\",\"Stims/Figures/19-C-20-4.bmp\",\"None\",\"Right\",\"37\",\"3\",\"11\",\"10\",\"N\",\"C\",\"59\"
\"\",\"\",\"approach-retreat\",\"208\",\"1555287\",\"0.0-208.0\",\"\",\"\",\"1-2\",\"7529\",\"38\",\"1\",\"Testing\",\"Stims/Figures/44-J-10-3.bmp\",\"None\",\"Up\",\"38\",\"3\",\"12\",\"10\",\"N\",\"C\",\"60\"
\"\",\"\",\"approach-retreat\",\"209\",\"1561511\",\"0.0-209.0\",\"\",\"\",\"1-2\",\"4718\",\"37\",\"1\",\"Testing\",\"Stims/Figures/85-J-0-2.bmp\",\"None\",\"Left\",\"37\",\"3\",\"13\",\"10\",\"N\",\"C\",\"61\"
\"\",\"\",\"approach-retreat\",\"210\",\"1569244\",\"0.0-210.0\",\"\",\"\",\"1-2\",\"6228\",\"37\",\"1\",\"Testing\",\"Stims/Figures/118-C-20-2.bmp\",\"None\",\"Right\",\"37\",\"3\",\"14\",\"10\",\"N\",\"C\",\"62\"
\"\",\"\",\"approach-retreat\",\"211\",\"1575603\",\"0.0-211.0\",\"\",\"\",\"1-2\",\"4854\",\"40\",\"1\",\"Testing\",\"Stims/Figures/100-C-30-3.bmp\",\"None\",\"Up\",\"40\",\"3\",\"15\",\"10\",\"N\",\"C\",\"63\"
\"\",\"\",\"approach-retreat\",\"212\",\"1582728\",\"0.0-212.0\",\"\",\"\",\"1-2\",\"5617\",\"38\",\"1\",\"Testing\",\"Stims/Figures/71-J-0-1.bmp\",\"None\",\"Up\",\"38\",\"3\",\"16\",\"10\",\"N\",\"C\",\"64\"
\"\",\"\",\"approach-retreat\",\"213\",\"1589288\",\"0.0-213.0\",\"\",\"\",\"1-2\",\"5056\",\"37\",\"1\",\"Testing\",\"Stims/Figures/118-J-0-2.bmp\",\"None\",\"Left\",\"37\",\"3\",\"17\",\"10\",\"N\",\"C\",\"65\"
\"\",\"\",\"approach-retreat\",\"214\",\"1595248\",\"0.0-214.0\",\"\",\"\",\"1-2\",\"4454\",\"39\",\"1\",\"Testing\",\"Stims/Figures/74-J-10-4.bmp\",\"None\",\"Right\",\"39\",\"3\",\"18\",\"10\",\"N\",\"C\",\"66\"
\"\",\"\",\"approach-retreat\",\"215\",\"1601694\",\"0.0-215.0\",\"\",\"\",\"1-2\",\"4941\",\"40\",\"1\",\"Testing\",\"Stims/Figures/7-J-10-4.bmp\",\"None\",\"Down\",\"40\",\"3\",\"19\",\"10\",\"N\",\"C\",\"67\"
\"\",\"\",\"approach-retreat\",\"216\",\"1607510\",\"0.0-216.0\",\"\",\"\",\"1-2\",\"4310\",\"40\",\"1\",\"Testing\",\"Stims/Figures/93-J-0-1.bmp\",\"None\",\"Down\",\"40\",\"3\",\"20\",\"10\",\"N\",\"C\",\"68\"
\"\",\"\",\"approach-retreat\",\"217\",\"1613397\",\"0.0-217.0\",\"\",\"\",\"1-2\",\"4381\",\"38\",\"1\",\"Testing\",\"Stims/Figures/94-C-20-2.bmp\",\"None\",\"Down\",\"38\",\"3\",\"21\",\"10\",\"N\",\"C\",\"69\"
\"\",\"\",\"approach-retreat\",\"218\",\"1619283\",\"0.0-218.0\",\"\",\"\",\"1-2\",\"4379\",\"39\",\"0\",\"Testing\",\"Stims/Figures/71-C-30-1.bmp\",\"None\",\"Right\",\"37\",\"3\",\"22\",\"10\",\"N\",\"C\",\"70\"
\"\",\"\",\"approach-retreat\",\"219\",\"1625667\",\"0.0-219.0\",\"\",\"\",\"1-2\",\"4880\",\"39\",\"1\",\"Testing\",\"Stims/Figures/57-J-0-1.bmp\",\"None\",\"Right\",\"39\",\"3\",\"23\",\"10\",\"N\",\"C\",\"71\"
\"\",\"\",\"approach-retreat\",\"220\",\"1632435\",\"0.0-220.0\",\"\",\"\",\"1-2\",\"5263\",\"40\",\"1\",\"Testing\",\"Stims/Figures/57-C-30-1.bmp\",\"None\",\"Up\",\"40\",\"3\",\"24\",\"10\",\"N\",\"C\",\"72\"
\"\",\"\",\"approach-retreat\",\"221\",\"1638478\",\"0.0-221.0\",\"\",\"\",\"1-2\",\"4536\",\"37\",\"1\",\"Testing\",\"Stims/Figures/85-C-20-2.bmp\",\"None\",\"Right\",\"37\",\"4\",\"1\",\"10\",\"N\",\"C\",\"73\"
\"\",\"\",\"approach-retreat\",\"222\",\"1645255\",\"0.0-222.0\",\"\",\"\",\"1-2\",\"5271\",\"40\",\"1\",\"Testing\",\"Stims/Figures/94-C-20-2.bmp\",\"None\",\"Up\",\"40\",\"4\",\"2\",\"10\",\"N\",\"C\",\"74\"
\"\",\"\",\"approach-retreat\",\"223\",\"1651374\",\"0.0-223.0\",\"\",\"\",\"1-2\",\"4614\",\"37\",\"1\",\"Testing\",\"Stims/Figures/100-C-30-3.bmp\",\"None\",\"Right\",\"37\",\"4\",\"3\",\"10\",\"N\",\"C\",\"75\"
\"\",\"\",\"approach-retreat\",\"224\",\"1657240\",\"0.0-224.0\",\"\",\"\",\"1-2\",\"4358\",\"37\",\"1\",\"Testing\",\"Stims/Figures/94-J-0-2.bmp\",\"None\",\"Left\",\"37\",\"4\",\"4\",\"10\",\"N\",\"C\",\"76\"
\"\",\"\",\"approach-retreat\",\"225\",\"1664052\",\"0.0-225.0\",\"\",\"\",\"1-2\",\"5306\",\"39\",\"1\",\"Testing\",\"Stims/Figures/71-C-30-1.bmp\",\"None\",\"Left\",\"39\",\"4\",\"5\",\"10\",\"N\",\"C\",\"77\"
\"\",\"\",\"approach-retreat\",\"226\",\"1670712\",\"0.0-226.0\",\"\",\"\",\"1-2\",\"5154\",\"38\",\"1\",\"Testing\",\"Stims/Figures/74-J-10-4.bmp\",\"None\",\"Up\",\"38\",\"4\",\"6\",\"10\",\"N\",\"C\",\"78\"
\"\",\"\",\"approach-retreat\",\"227\",\"1676366\",\"0.0-227.0\",\"\",\"\",\"1-2\",\"4146\",\"38\",\"1\",\"Testing\",\"Stims/Figures/44-J-10-3.bmp\",\"None\",\"Up\",\"38\",\"4\",\"7\",\"10\",\"N\",\"C\",\"79\"
\"\",\"\",\"approach-retreat\",\"228\",\"1683703\",\"0.0-228.0\",\"\",\"\",\"1-2\",\"5832\",\"38\",\"1\",\"Testing\",\"Stims/Figures/44-C-30-3.bmp\",\"None\",\"Down\",\"38\",\"4\",\"8\",\"10\",\"N\",\"C\",\"80\"
\"\",\"\",\"approach-retreat\",\"229\",\"1690262\",\"0.0-229.0\",\"\",\"\",\"1-2\",\"5053\",\"40\",\"0\",\"Testing\",\"Stims/Figures/118-C-20-2.bmp\",\"None\",\"Down\",\"38\",\"4\",\"9\",\"10\",\"N\",\"C\",\"81\"
\"\",\"\",\"approach-retreat\",\"230\",\"1696069\",\"0.0-230.0\",\"\",\"\",\"1-2\",\"4299\",\"39\",\"1\",\"Testing\",\"Stims/Figures/74-C-20-4.bmp\",\"None\",\"Left\",\"39\",\"4\",\"10\",\"10\",\"N\",\"C\",\"82\"
\"\",\"\",\"approach-retreat\",\"231\",\"1701623\",\"0.0-231.0\",\"\",\"\",\"1-2\",\"4048\",\"40\",\"1\",\"Testing\",\"Stims/Figures/71-J-0-1.bmp\",\"None\",\"Down\",\"40\",\"4\",\"11\",\"10\",\"N\",\"C\",\"83\"
\"\",\"\",\"approach-retreat\",\"232\",\"1707256\",\"0.0-232.0\",\"\",\"\",\"1-2\",\"4129\",\"37\",\"1\",\"Testing\",\"Stims/Figures/93-C-30-1.bmp\",\"None\",\"Right\",\"37\",\"4\",\"12\",\"10\",\"N\",\"C\",\"84\"
\"\",\"\",\"approach-retreat\",\"233\",\"1712978\",\"0.0-233.0\",\"\",\"\",\"1-2\",\"4217\",\"37\",\"1\",\"Testing\",\"Stims/Figures/93-J-0-1.bmp\",\"None\",\"Left\",\"37\",\"4\",\"13\",\"10\",\"N\",\"C\",\"85\"
\"\",\"\",\"approach-retreat\",\"234\",\"1718723\",\"0.0-234.0\",\"\",\"\",\"1-2\",\"4238\",\"39\",\"1\",\"Testing\",\"Stims/Figures/7-C-20-4.bmp\",\"None\",\"Left\",\"39\",\"4\",\"14\",\"10\",\"N\",\"C\",\"86\"
\"\",\"\",\"approach-retreat\",\"235\",\"1724624\",\"0.0-235.0\",\"\",\"\",\"1-2\",\"4394\",\"40\",\"0\",\"Testing\",\"Stims/Figures/128-J-10-3.bmp\",\"None\",\"Up\",\"38\",\"4\",\"15\",\"10\",\"N\",\"C\",\"87\"
\"\",\"\",\"approach-retreat\",\"236\",\"1730839\",\"0.0-236.0\",\"\",\"\",\"1-2\",\"4710\",\"38\",\"1\",\"Testing\",\"Stims/Figures/57-C-30-1.bmp\",\"None\",\"Down\",\"38\",\"4\",\"16\",\"10\",\"N\",\"C\",\"88\"
\"\",\"\",\"approach-retreat\",\"237\",\"1737833\",\"0.0-237.0\",\"\",\"\",\"1-2\",\"5488\",\"37\",\"0\",\"Testing\",\"Stims/Figures/19-J-10-4.bmp\",\"None\",\"Right\",\"39\",\"4\",\"17\",\"10\",\"N\",\"C\",\"89\"
\"\",\"\",\"approach-retreat\",\"238\",\"1743855\",\"0.0-238.0\",\"\",\"\",\"1-2\",\"4514\",\"38\",\"1\",\"Testing\",\"Stims/Figures/57-J-0-1.bmp\",\"None\",\"Up\",\"38\",\"4\",\"18\",\"10\",\"N\",\"C\",\"90\"
\"\",\"\",\"approach-retreat\",\"239\",\"1749605\",\"0.0-239.0\",\"\",\"\",\"1-2\",\"4245\",\"37\",\"1\",\"Testing\",\"Stims/Figures/85-J-0-2.bmp\",\"None\",\"Left\",\"37\",\"4\",\"19\",\"10\",\"N\",\"C\",\"91\"
\"\",\"\",\"approach-retreat\",\"240\",\"1756864\",\"0.0-240.0\",\"\",\"\",\"1-2\",\"5755\",\"38\",\"1\",\"Testing\",\"Stims/Figures/19-C-20-4.bmp\",\"None\",\"Down\",\"38\",\"4\",\"20\",\"10\",\"N\",\"C\",\"92\"
\"\",\"\",\"approach-retreat\",\"241\",\"1762477\",\"0.0-241.0\",\"\",\"\",\"1-2\",\"4108\",\"40\",\"1\",\"Testing\",\"Stims/Figures/100-J-10-3.bmp\",\"None\",\"Down\",\"40\",\"4\",\"21\",\"10\",\"N\",\"C\",\"93\"
\"\",\"\",\"approach-retreat\",\"242\",\"1768154\",\"0.0-242.0\",\"\",\"\",\"1-2\",\"4170\",\"39\",\"1\",\"Testing\",\"Stims/Figures/118-J-0-2.bmp\",\"None\",\"Right\",\"39\",\"4\",\"22\",\"10\",\"N\",\"C\",\"94\"
\"\",\"\",\"approach-retreat\",\"243\",\"1773768\",\"0.0-243.0\",\"\",\"\",\"1-2\",\"4108\",\"37\",\"1\",\"Testing\",\"Stims/Figures/128-C-30-3.bmp\",\"None\",\"Right\",\"37\",\"4\",\"23\",\"10\",\"N\",\"C\",\"95\"
\"\",\"\",\"approach-retreat\",\"244\",\"1779485\",\"0.0-244.0\",\"\",\"\",\"1-2\",\"4211\",\"38\",\"1\",\"Testing\",\"Stims/Figures/7-J-10-4.bmp\",\"None\",\"Up\",\"38\",\"4\",\"24\",\"10\",\"N\",\"C\",\"96\"
\"13221\",\"\",\"survey-text\",\"245\",\"1792710\",\"0.0-245.0\",\"\",\"{\"\"Q0\"\":\"\"PS170040\"\"}\",\"\",\"\",\"\",\"\",\"\",\"\",\"\",\"\",\"\",\"\",\"\",\"\",\"\",\"\",\"\"
