\"rt\",\"key_press\",\"trial_type\",\"trial_index\",\"time_elapsed\",\"internal_node_id\",\"view_history\",\"responses\",\"Id\",\"Rt\",\"ResKeyCode\",\"ResCorr\",\"TrialType2\",\"Image\",\"Label\",\"Location\",\"CorrectResponse\",\"Block\",\"BlockTrial\",\"Condition\",\"LabelType\",\"Subcondition\",\"trialNum\"
\"43825\",\"32\",\"text\",\"0\",\"43829\",\"0.0-0.0-0.0\",\"\",\"\",\"\",\"\",\"\",\"\",\"\",\"\",\"\",\"\",\"\",\"\",\"\",\"\",\"\",\"\",\"\"
\"91309\",\"\",\"instructions\",\"1\",\"135139\",\"0.0-1.0\",\"[{\"\"page_index\"\":0,\"\"viewing_time\"\":91308}]\",\"\",\"\",\"\",\"\",\"\",\"\",\"\",\"\",\"\",\"\",\"\",\"\",\"\",\"\",\"\",\"\"
\"29308\",\"\",\"survey-multi-choice\",\"2\",\"164473\",\"0.0-2.0\",\"\",\"{\"\"Q0\"\":\"\"Da\"\",\"\"Q1\"\":\"\"Da\"\",\"\"Q2\"\":\"\"Da\"\",\"\"Q3\"\":\"\"Da\"\",\"\"Q4\"\":\"\"Da\"\",\"\"Q5\"\":\"\"Da\"\"}\",\"\",\"\",\"\",\"\",\"\",\"\",\"\",\"\",\"\",\"\",\"\",\"\",\"\",\"\",\"\"
\"\",\"\",\"bio\",\"3\",\"177343\",\"0.0-3.0\",\"\",\"{\"\"age\"\":\"\"20\"\",\"\"gender\"\":\"\"m\"\",\"\"specify\"\":\"\"\"\"}\",\"\",\"\",\"\",\"\",\"\",\"\",\"\",\"\",\"\",\"\",\"\",\"\",\"\",\"\",\"\"
\"\",\"\",\"approach-retreat\",\"4\",\"184719\",\"0.0-4.0\",\"\",\"\",\"3-4\",\"5869\",\"37\",\"0\",\"Training\",\"Stims/Figures/93-C-30-1.bmp\",\"ta:pata\",\"Right\",\"39\",\"1\",\"1\",\"2\",\"P\",\"J\",\"1\"
\"\",\"\",\"approach-retreat\",\"5\",\"192847\",\"0.0-5.0\",\"\",\"\",\"3-4\",\"6622\",\"37\",\"0\",\"Training\",\"Stims/Figures/111-C-30-3.bmp\",\"ta:pata\",\"Right\",\"39\",\"1\",\"2\",\"2\",\"P\",\"J\",\"2\"
\"\",\"\",\"approach-retreat\",\"6\",\"205374\",\"0.0-6.0\",\"\",\"\",\"3-4\",\"11022\",\"38\",\"1\",\"Training\",\"Stims/Figures/19-J-10-4.bmp\",\"nama:la\",\"Down\",\"38\",\"1\",\"3\",\"2\",\"S\",\"J\",\"3\"
\"\",\"\",\"approach-retreat\",\"7\",\"212207\",\"0.0-7.0\",\"\",\"\",\"3-4\",\"5329\",\"40\",\"1\",\"Training\",\"Stims/Figures/102-J-10-4.bmp\",\"nama:la\",\"Up\",\"40\",\"1\",\"4\",\"2\",\"S\",\"J\",\"4\"
\"\",\"\",\"approach-retreat\",\"8\",\"219391\",\"0.0-8.0\",\"\",\"\",\"3-4\",\"5678\",\"37\",\"1\",\"Training\",\"Stims/Figures/57-C-30-1.bmp\",\"ta:pata\",\"Left\",\"37\",\"1\",\"5\",\"2\",\"P\",\"J\",\"5\"
\"\",\"\",\"approach-retreat\",\"9\",\"227117\",\"0.0-9.0\",\"\",\"\",\"3-4\",\"6222\",\"39\",\"1\",\"Training\",\"Stims/Figures/100-J-10-3.bmp\",\"nama:la\",\"Left\",\"39\",\"1\",\"6\",\"2\",\"S\",\"J\",\"6\"
\"\",\"\",\"approach-retreat\",\"10\",\"233311\",\"0.0-10.0\",\"\",\"\",\"3-4\",\"4686\",\"37\",\"1\",\"Training\",\"Stims/Figures/102-C-20-4.bmp\",\"ta:pata\",\"Left\",\"37\",\"1\",\"7\",\"2\",\"P\",\"J\",\"7\"
\"\",\"\",\"approach-retreat\",\"11\",\"239374\",\"0.0-11.0\",\"\",\"\",\"3-4\",\"4560\",\"40\",\"0\",\"Training\",\"Stims/Figures/118-C-20-2.bmp\",\"ta:pata\",\"Up\",\"38\",\"1\",\"8\",\"2\",\"P\",\"J\",\"8\"
\"\",\"\",\"approach-retreat\",\"12\",\"245277\",\"0.0-12.0\",\"\",\"\",\"3-4\",\"4397\",\"39\",\"1\",\"Training\",\"Stims/Figures/118-J-0-2.bmp\",\"nama:la\",\"Left\",\"39\",\"1\",\"9\",\"2\",\"S\",\"J\",\"9\"
\"\",\"\",\"approach-retreat\",\"13\",\"251949\",\"0.0-13.0\",\"\",\"\",\"3-4\",\"5166\",\"38\",\"1\",\"Training\",\"Stims/Figures/57-J-0-1.bmp\",\"nama:la\",\"Down\",\"38\",\"1\",\"10\",\"2\",\"S\",\"J\",\"10\"
\"\",\"\",\"approach-retreat\",\"14\",\"257598\",\"0.0-14.0\",\"\",\"\",\"3-4\",\"4144\",\"37\",\"1\",\"Training\",\"Stims/Figures/85-J-0-2.bmp\",\"nama:la\",\"Right\",\"37\",\"1\",\"11\",\"2\",\"S\",\"J\",\"11\"
\"\",\"\",\"approach-retreat\",\"15\",\"265054\",\"0.0-15.0\",\"\",\"\",\"3-4\",\"5952\",\"39\",\"1\",\"Training\",\"Stims/Figures/85-C-20-2.bmp\",\"ta:pata\",\"Right\",\"39\",\"1\",\"12\",\"2\",\"P\",\"J\",\"12\"
\"\",\"\",\"approach-retreat\",\"16\",\"271886\",\"0.0-16.0\",\"\",\"\",\"3-4\",\"5328\",\"40\",\"1\",\"Training\",\"Stims/Figures/93-J-0-1.bmp\",\"nama:la\",\"Up\",\"40\",\"1\",\"13\",\"2\",\"S\",\"J\",\"13\"
\"\",\"\",\"approach-retreat\",\"17\",\"278830\",\"0.0-17.0\",\"\",\"\",\"3-4\",\"5439\",\"40\",\"1\",\"Training\",\"Stims/Figures/19-C-20-4.bmp\",\"ta:pata\",\"Down\",\"40\",\"1\",\"14\",\"2\",\"P\",\"J\",\"14\"
\"\",\"\",\"approach-retreat\",\"18\",\"287311\",\"0.0-18.0\",\"\",\"\",\"3-4\",\"6975\",\"38\",\"1\",\"Training\",\"Stims/Figures/111-J-10-3.bmp\",\"nama:la\",\"Down\",\"38\",\"1\",\"15\",\"2\",\"S\",\"J\",\"15\"
\"\",\"\",\"approach-retreat\",\"19\",\"293902\",\"0.0-19.0\",\"\",\"\",\"3-4\",\"5085\",\"38\",\"1\",\"Training\",\"Stims/Figures/100-C-30-3.bmp\",\"ta:pata\",\"Up\",\"38\",\"1\",\"16\",\"2\",\"P\",\"J\",\"16\"
\"\",\"\",\"approach-retreat\",\"20\",\"300542\",\"0.0-20.0\",\"\",\"\",\"3-4\",\"5133\",\"37\",\"1\",\"Training\",\"Stims/Figures/93-J-0-1.bmp\",\"nama:la\",\"Right\",\"37\",\"2\",\"1\",\"2\",\"S\",\"J\",\"17\"
\"\",\"\",\"approach-retreat\",\"21\",\"306573\",\"0.0-21.0\",\"\",\"\",\"3-4\",\"4528\",\"37\",\"1\",\"Training\",\"Stims/Figures/100-J-10-3.bmp\",\"nama:la\",\"Right\",\"37\",\"2\",\"2\",\"2\",\"S\",\"J\",\"18\"
\"\",\"\",\"approach-retreat\",\"22\",\"312557\",\"0.0-22.0\",\"\",\"\",\"3-4\",\"4479\",\"39\",\"1\",\"Training\",\"Stims/Figures/102-J-10-4.bmp\",\"nama:la\",\"Left\",\"39\",\"2\",\"3\",\"2\",\"S\",\"J\",\"19\"
\"\",\"\",\"approach-retreat\",\"23\",\"318333\",\"0.0-23.0\",\"\",\"\",\"3-4\",\"4270\",\"37\",\"1\",\"Training\",\"Stims/Figures/19-J-10-4.bmp\",\"nama:la\",\"Right\",\"37\",\"2\",\"4\",\"2\",\"S\",\"J\",\"20\"
\"\",\"\",\"approach-retreat\",\"24\",\"324574\",\"0.0-24.0\",\"\",\"\",\"3-4\",\"4736\",\"39\",\"1\",\"Training\",\"Stims/Figures/111-C-30-3.bmp\",\"ta:pata\",\"Right\",\"39\",\"2\",\"5\",\"2\",\"P\",\"J\",\"21\"
\"\",\"\",\"approach-retreat\",\"25\",\"330510\",\"0.0-25.0\",\"\",\"\",\"3-4\",\"4430\",\"38\",\"0\",\"Training\",\"Stims/Figures/85-C-20-2.bmp\",\"ta:pata\",\"Down\",\"40\",\"2\",\"6\",\"2\",\"P\",\"J\",\"22\"
\"\",\"\",\"approach-retreat\",\"26\",\"338173\",\"0.0-26.0\",\"\",\"\",\"3-4\",\"6159\",\"38\",\"1\",\"Training\",\"Stims/Figures/85-J-0-2.bmp\",\"nama:la\",\"Down\",\"38\",\"2\",\"7\",\"2\",\"S\",\"J\",\"23\"
\"\",\"\",\"approach-retreat\",\"27\",\"344317\",\"0.0-27.0\",\"\",\"\",\"3-4\",\"4639\",\"40\",\"1\",\"Training\",\"Stims/Figures/19-C-20-4.bmp\",\"ta:pata\",\"Down\",\"40\",\"2\",\"8\",\"2\",\"P\",\"J\",\"24\"
\"\",\"\",\"approach-retreat\",\"28\",\"352973\",\"0.0-28.0\",\"\",\"\",\"3-4\",\"7151\",\"39\",\"1\",\"Training\",\"Stims/Figures/57-J-0-1.bmp\",\"nama:la\",\"Left\",\"39\",\"2\",\"9\",\"2\",\"S\",\"J\",\"25\"
\"\",\"\",\"approach-retreat\",\"29\",\"360269\",\"0.0-29.0\",\"\",\"\",\"3-4\",\"5790\",\"38\",\"1\",\"Training\",\"Stims/Figures/118-C-20-2.bmp\",\"ta:pata\",\"Up\",\"38\",\"2\",\"10\",\"2\",\"P\",\"J\",\"26\"
\"\",\"\",\"approach-retreat\",\"30\",\"366542\",\"0.0-30.0\",\"\",\"\",\"3-4\",\"4768\",\"38\",\"1\",\"Training\",\"Stims/Figures/111-J-10-3.bmp\",\"nama:la\",\"Down\",\"38\",\"2\",\"11\",\"2\",\"S\",\"J\",\"27\"
\"\",\"\",\"approach-retreat\",\"31\",\"372685\",\"0.0-31.0\",\"\",\"\",\"3-4\",\"4638\",\"37\",\"1\",\"Training\",\"Stims/Figures/93-C-30-1.bmp\",\"ta:pata\",\"Left\",\"37\",\"2\",\"12\",\"2\",\"P\",\"J\",\"28\"
\"\",\"\",\"approach-retreat\",\"32\",\"379406\",\"0.0-32.0\",\"\",\"\",\"3-4\",\"5217\",\"38\",\"1\",\"Training\",\"Stims/Figures/57-C-30-1.bmp\",\"ta:pata\",\"Up\",\"38\",\"2\",\"13\",\"2\",\"P\",\"J\",\"29\"
\"\",\"\",\"approach-retreat\",\"33\",\"385758\",\"0.0-33.0\",\"\",\"\",\"3-4\",\"4847\",\"37\",\"1\",\"Training\",\"Stims/Figures/100-C-30-3.bmp\",\"ta:pata\",\"Left\",\"37\",\"2\",\"14\",\"2\",\"P\",\"J\",\"30\"
\"\",\"\",\"approach-retreat\",\"34\",\"392653\",\"0.0-34.0\",\"\",\"\",\"3-4\",\"5389\",\"38\",\"1\",\"Training\",\"Stims/Figures/102-C-20-4.bmp\",\"ta:pata\",\"Up\",\"38\",\"2\",\"15\",\"2\",\"P\",\"J\",\"31\"
\"\",\"\",\"approach-retreat\",\"35\",\"399660\",\"0.0-35.0\",\"\",\"\",\"3-4\",\"5502\",\"40\",\"1\",\"Training\",\"Stims/Figures/118-J-0-2.bmp\",\"nama:la\",\"Up\",\"40\",\"2\",\"16\",\"2\",\"S\",\"J\",\"32\"
\"\",\"\",\"approach-retreat\",\"36\",\"405661\",\"0.0-36.0\",\"\",\"\",\"3-4\",\"4496\",\"37\",\"1\",\"Training\",\"Stims/Figures/118-J-0-2.bmp\",\"nama:la\",\"Right\",\"37\",\"3\",\"1\",\"2\",\"S\",\"J\",\"33\"
\"\",\"\",\"approach-retreat\",\"37\",\"411932\",\"0.0-37.0\",\"\",\"\",\"3-4\",\"4767\",\"37\",\"1\",\"Training\",\"Stims/Figures/85-C-20-2.bmp\",\"ta:pata\",\"Left\",\"37\",\"3\",\"2\",\"2\",\"P\",\"J\",\"34\"
\"\",\"\",\"approach-retreat\",\"38\",\"418093\",\"0.0-38.0\",\"\",\"\",\"3-4\",\"4655\",\"39\",\"1\",\"Training\",\"Stims/Figures/100-C-30-3.bmp\",\"ta:pata\",\"Right\",\"39\",\"3\",\"3\",\"2\",\"P\",\"J\",\"35\"
\"\",\"\",\"approach-retreat\",\"39\",\"423869\",\"0.0-39.0\",\"\",\"\",\"3-4\",\"4270\",\"37\",\"1\",\"Training\",\"Stims/Figures/93-J-0-1.bmp\",\"nama:la\",\"Right\",\"37\",\"3\",\"4\",\"2\",\"S\",\"J\",\"36\"
\"\",\"\",\"approach-retreat\",\"40\",\"429532\",\"0.0-40.0\",\"\",\"\",\"3-4\",\"4158\",\"38\",\"1\",\"Training\",\"Stims/Figures/85-J-0-2.bmp\",\"nama:la\",\"Down\",\"38\",\"3\",\"5\",\"2\",\"S\",\"J\",\"37\"
\"\",\"\",\"approach-retreat\",\"41\",\"435692\",\"0.0-41.0\",\"\",\"\",\"3-4\",\"4655\",\"37\",\"1\",\"Training\",\"Stims/Figures/19-C-20-4.bmp\",\"ta:pata\",\"Left\",\"37\",\"3\",\"6\",\"2\",\"P\",\"J\",\"38\"
\"\",\"\",\"approach-retreat\",\"42\",\"443293\",\"0.0-42.0\",\"\",\"\",\"3-4\",\"6095\",\"38\",\"1\",\"Training\",\"Stims/Figures/102-J-10-4.bmp\",\"nama:la\",\"Down\",\"38\",\"3\",\"7\",\"2\",\"S\",\"J\",\"39\"
\"\",\"\",\"approach-retreat\",\"43\",\"449068\",\"0.0-43.0\",\"\",\"\",\"3-4\",\"4269\",\"39\",\"1\",\"Training\",\"Stims/Figures/57-J-0-1.bmp\",\"nama:la\",\"Left\",\"39\",\"3\",\"8\",\"2\",\"S\",\"J\",\"40\"
\"\",\"\",\"approach-retreat\",\"44\",\"455100\",\"0.0-44.0\",\"\",\"\",\"3-4\",\"4526\",\"39\",\"1\",\"Training\",\"Stims/Figures/102-C-20-4.bmp\",\"ta:pata\",\"Right\",\"39\",\"3\",\"9\",\"2\",\"P\",\"J\",\"41\"
\"\",\"\",\"approach-retreat\",\"45\",\"463244\",\"0.0-45.0\",\"\",\"\",\"3-4\",\"6637\",\"40\",\"1\",\"Training\",\"Stims/Figures/93-C-30-1.bmp\",\"ta:pata\",\"Down\",\"40\",\"3\",\"10\",\"2\",\"P\",\"J\",\"42\"
\"\",\"\",\"approach-retreat\",\"46\",\"469964\",\"0.0-46.0\",\"\",\"\",\"3-4\",\"5216\",\"39\",\"1\",\"Training\",\"Stims/Figures/100-J-10-3.bmp\",\"nama:la\",\"Left\",\"39\",\"3\",\"11\",\"2\",\"S\",\"J\",\"43\"
\"\",\"\",\"approach-retreat\",\"47\",\"476156\",\"0.0-47.0\",\"\",\"\",\"3-4\",\"4685\",\"38\",\"1\",\"Training\",\"Stims/Figures/111-C-30-3.bmp\",\"ta:pata\",\"Up\",\"38\",\"3\",\"12\",\"2\",\"P\",\"J\",\"44\"
\"\",\"\",\"approach-retreat\",\"48\",\"481948\",\"0.0-48.0\",\"\",\"\",\"3-4\",\"4289\",\"38\",\"1\",\"Training\",\"Stims/Figures/118-C-20-2.bmp\",\"ta:pata\",\"Up\",\"38\",\"3\",\"13\",\"2\",\"P\",\"J\",\"45\"
\"\",\"\",\"approach-retreat\",\"49\",\"488076\",\"0.0-49.0\",\"\",\"\",\"3-4\",\"4624\",\"40\",\"1\",\"Training\",\"Stims/Figures/19-J-10-4.bmp\",\"nama:la\",\"Up\",\"40\",\"3\",\"14\",\"2\",\"S\",\"J\",\"46\"
\"\",\"\",\"approach-retreat\",\"50\",\"495245\",\"0.0-50.0\",\"\",\"\",\"3-4\",\"5663\",\"40\",\"1\",\"Training\",\"Stims/Figures/57-C-30-1.bmp\",\"ta:pata\",\"Down\",\"40\",\"3\",\"15\",\"2\",\"P\",\"J\",\"47\"
\"\",\"\",\"approach-retreat\",\"51\",\"501996\",\"0.0-51.0\",\"\",\"\",\"3-4\",\"5248\",\"40\",\"1\",\"Training\",\"Stims/Figures/111-J-10-3.bmp\",\"nama:la\",\"Up\",\"40\",\"3\",\"16\",\"2\",\"S\",\"J\",\"48\"
\"\",\"\",\"approach-retreat\",\"52\",\"508461\",\"0.0-52.0\",\"\",\"\",\"3-4\",\"4958\",\"37\",\"0\",\"Training\",\"Stims/Figures/57-C-30-1.bmp\",\"ta:pata\",\"Right\",\"39\",\"4\",\"1\",\"2\",\"P\",\"J\",\"49\"
\"\",\"\",\"approach-retreat\",\"53\",\"514987\",\"0.0-53.0\",\"\",\"\",\"3-4\",\"5024\",\"38\",\"1\",\"Training\",\"Stims/Figures/102-J-10-4.bmp\",\"nama:la\",\"Down\",\"38\",\"4\",\"2\",\"2\",\"S\",\"J\",\"50\"
\"\",\"\",\"approach-retreat\",\"54\",\"521532\",\"0.0-54.0\",\"\",\"\",\"3-4\",\"5040\",\"39\",\"1\",\"Training\",\"Stims/Figures/111-J-10-3.bmp\",\"nama:la\",\"Left\",\"39\",\"4\",\"3\",\"2\",\"S\",\"J\",\"51\"
\"\",\"\",\"approach-retreat\",\"55\",\"528156\",\"0.0-55.0\",\"\",\"\",\"3-4\",\"5120\",\"39\",\"1\",\"Training\",\"Stims/Figures/19-C-20-4.bmp\",\"ta:pata\",\"Right\",\"39\",\"4\",\"4\",\"2\",\"P\",\"J\",\"52\"
\"\",\"\",\"approach-retreat\",\"56\",\"534124\",\"0.0-56.0\",\"\",\"\",\"3-4\",\"4462\",\"38\",\"1\",\"Training\",\"Stims/Figures/100-J-10-3.bmp\",\"nama:la\",\"Down\",\"38\",\"4\",\"5\",\"2\",\"S\",\"J\",\"53\"
\"\",\"\",\"approach-retreat\",\"57\",\"540443\",\"0.0-57.0\",\"\",\"\",\"3-4\",\"4813\",\"37\",\"1\",\"Training\",\"Stims/Figures/111-C-30-3.bmp\",\"ta:pata\",\"Left\",\"37\",\"4\",\"6\",\"2\",\"P\",\"J\",\"54\"
\"\",\"\",\"approach-retreat\",\"58\",\"547482\",\"0.0-58.0\",\"\",\"\",\"3-4\",\"5535\",\"37\",\"1\",\"Training\",\"Stims/Figures/118-J-0-2.bmp\",\"nama:la\",\"Right\",\"37\",\"4\",\"7\",\"2\",\"S\",\"J\",\"55\"
\"\",\"\",\"approach-retreat\",\"59\",\"553483\",\"0.0-59.0\",\"\",\"\",\"3-4\",\"4497\",\"40\",\"1\",\"Training\",\"Stims/Figures/118-C-20-2.bmp\",\"ta:pata\",\"Down\",\"40\",\"4\",\"8\",\"2\",\"P\",\"J\",\"56\"
\"\",\"\",\"approach-retreat\",\"60\",\"559243\",\"0.0-60.0\",\"\",\"\",\"3-4\",\"4257\",\"38\",\"1\",\"Training\",\"Stims/Figures/102-C-20-4.bmp\",\"ta:pata\",\"Up\",\"38\",\"4\",\"9\",\"2\",\"P\",\"J\",\"57\"
\"\",\"\",\"approach-retreat\",\"61\",\"565835\",\"0.0-61.0\",\"\",\"\",\"3-4\",\"5087\",\"40\",\"1\",\"Training\",\"Stims/Figures/93-J-0-1.bmp\",\"nama:la\",\"Up\",\"40\",\"4\",\"10\",\"2\",\"S\",\"J\",\"58\"
\"\",\"\",\"approach-retreat\",\"62\",\"572684\",\"0.0-62.0\",\"\",\"\",\"3-4\",\"5343\",\"39\",\"0\",\"Training\",\"Stims/Figures/93-C-30-1.bmp\",\"ta:pata\",\"Left\",\"37\",\"4\",\"11\",\"2\",\"P\",\"J\",\"59\"
\"\",\"\",\"approach-retreat\",\"63\",\"579163\",\"0.0-63.0\",\"\",\"\",\"3-4\",\"4974\",\"40\",\"1\",\"Training\",\"Stims/Figures/85-J-0-2.bmp\",\"nama:la\",\"Up\",\"40\",\"4\",\"12\",\"2\",\"S\",\"J\",\"60\"
\"\",\"\",\"approach-retreat\",\"64\",\"585308\",\"0.0-64.0\",\"\",\"\",\"3-4\",\"4638\",\"39\",\"1\",\"Training\",\"Stims/Figures/57-J-0-1.bmp\",\"nama:la\",\"Left\",\"39\",\"4\",\"13\",\"2\",\"S\",\"J\",\"61\"
\"\",\"\",\"approach-retreat\",\"65\",\"591594\",\"0.0-65.0\",\"\",\"\",\"3-4\",\"4782\",\"37\",\"1\",\"Training\",\"Stims/Figures/19-J-10-4.bmp\",\"nama:la\",\"Right\",\"37\",\"4\",\"14\",\"2\",\"S\",\"J\",\"62\"
\"\",\"\",\"approach-retreat\",\"66\",\"598877\",\"0.0-66.0\",\"\",\"\",\"3-4\",\"5778\",\"38\",\"1\",\"Training\",\"Stims/Figures/85-C-20-2.bmp\",\"ta:pata\",\"Up\",\"38\",\"4\",\"15\",\"2\",\"P\",\"J\",\"63\"
\"\",\"\",\"approach-retreat\",\"67\",\"605193\",\"0.0-67.0\",\"\",\"\",\"3-4\",\"4812\",\"40\",\"1\",\"Training\",\"Stims/Figures/100-C-30-3.bmp\",\"ta:pata\",\"Down\",\"40\",\"4\",\"16\",\"2\",\"P\",\"J\",\"64\"
\"\",\"\",\"approach-retreat\",\"68\",\"611113\",\"0.0-68.0\",\"\",\"\",\"3-4\",\"4416\",\"39\",\"1\",\"Training\",\"Stims/Figures/57-J-0-1.bmp\",\"nama:la\",\"Left\",\"39\",\"5\",\"1\",\"2\",\"S\",\"J\",\"65\"
\"\",\"\",\"approach-retreat\",\"69\",\"617642\",\"0.0-69.0\",\"\",\"\",\"3-4\",\"5023\",\"39\",\"1\",\"Training\",\"Stims/Figures/93-C-30-1.bmp\",\"ta:pata\",\"Right\",\"39\",\"5\",\"2\",\"2\",\"P\",\"J\",\"66\"
\"\",\"\",\"approach-retreat\",\"70\",\"625274\",\"0.0-70.0\",\"\",\"\",\"3-4\",\"6128\",\"38\",\"1\",\"Training\",\"Stims/Figures/100-C-30-3.bmp\",\"ta:pata\",\"Up\",\"38\",\"5\",\"3\",\"2\",\"P\",\"J\",\"67\"
\"\",\"\",\"approach-retreat\",\"71\",\"631258\",\"0.0-71.0\",\"\",\"\",\"3-4\",\"4479\",\"38\",\"1\",\"Training\",\"Stims/Figures/85-C-20-2.bmp\",\"ta:pata\",\"Up\",\"38\",\"5\",\"4\",\"2\",\"P\",\"J\",\"68\"
\"\",\"\",\"approach-retreat\",\"72\",\"637050\",\"0.0-72.0\",\"\",\"\",\"3-4\",\"4288\",\"37\",\"1\",\"Training\",\"Stims/Figures/118-C-20-2.bmp\",\"ta:pata\",\"Left\",\"37\",\"5\",\"5\",\"2\",\"P\",\"J\",\"69\"
\"\",\"\",\"approach-retreat\",\"73\",\"643146\",\"0.0-73.0\",\"\",\"\",\"3-4\",\"4591\",\"40\",\"1\",\"Training\",\"Stims/Figures/85-J-0-2.bmp\",\"nama:la\",\"Up\",\"40\",\"5\",\"6\",\"2\",\"S\",\"J\",\"70\"
\"\",\"\",\"approach-retreat\",\"74\",\"649963\",\"0.0-74.0\",\"\",\"\",\"3-4\",\"5313\",\"39\",\"1\",\"Training\",\"Stims/Figures/57-C-30-1.bmp\",\"ta:pata\",\"Right\",\"39\",\"5\",\"7\",\"2\",\"P\",\"J\",\"71\"
\"\",\"\",\"approach-retreat\",\"75\",\"658441\",\"0.0-75.0\",\"\",\"\",\"3-4\",\"6973\",\"38\",\"1\",\"Training\",\"Stims/Figures/93-J-0-1.bmp\",\"nama:la\",\"Down\",\"38\",\"5\",\"8\",\"2\",\"S\",\"J\",\"72\"
\"\",\"\",\"approach-retreat\",\"76\",\"664713\",\"0.0-76.0\",\"\",\"\",\"3-4\",\"4769\",\"38\",\"1\",\"Training\",\"Stims/Figures/111-J-10-3.bmp\",\"nama:la\",\"Down\",\"38\",\"5\",\"9\",\"2\",\"S\",\"J\",\"73\"
\"\",\"\",\"approach-retreat\",\"77\",\"671130\",\"0.0-77.0\",\"\",\"\",\"3-4\",\"4910\",\"40\",\"1\",\"Training\",\"Stims/Figures/102-J-10-4.bmp\",\"nama:la\",\"Up\",\"40\",\"5\",\"10\",\"2\",\"S\",\"J\",\"74\"
\"\",\"\",\"approach-retreat\",\"78\",\"677178\",\"0.0-78.0\",\"\",\"\",\"3-4\",\"4542\",\"38\",\"1\",\"Training\",\"Stims/Figures/19-J-10-4.bmp\",\"nama:la\",\"Down\",\"38\",\"5\",\"11\",\"2\",\"S\",\"J\",\"75\"
\"\",\"\",\"approach-retreat\",\"79\",\"682858\",\"0.0-79.0\",\"\",\"\",\"3-4\",\"4175\",\"37\",\"1\",\"Training\",\"Stims/Figures/118-J-0-2.bmp\",\"nama:la\",\"Right\",\"37\",\"5\",\"12\",\"2\",\"S\",\"J\",\"76\"
\"\",\"\",\"approach-retreat\",\"80\",\"688412\",\"0.0-80.0\",\"\",\"\",\"3-4\",\"4050\",\"37\",\"1\",\"Training\",\"Stims/Figures/19-C-20-4.bmp\",\"ta:pata\",\"Left\",\"37\",\"5\",\"13\",\"2\",\"P\",\"J\",\"77\"
\"\",\"\",\"approach-retreat\",\"81\",\"695467\",\"0.0-81.0\",\"\",\"\",\"3-4\",\"5547\",\"40\",\"1\",\"Training\",\"Stims/Figures/111-C-30-3.bmp\",\"ta:pata\",\"Down\",\"40\",\"5\",\"14\",\"2\",\"P\",\"J\",\"78\"
\"\",\"\",\"approach-retreat\",\"82\",\"701180\",\"0.0-82.0\",\"\",\"\",\"3-4\",\"4209\",\"37\",\"1\",\"Training\",\"Stims/Figures/100-J-10-3.bmp\",\"nama:la\",\"Right\",\"37\",\"5\",\"15\",\"2\",\"S\",\"J\",\"79\"
\"\",\"\",\"approach-retreat\",\"83\",\"707323\",\"0.0-83.0\",\"\",\"\",\"3-4\",\"4637\",\"37\",\"1\",\"Training\",\"Stims/Figures/102-C-20-4.bmp\",\"ta:pata\",\"Left\",\"37\",\"5\",\"16\",\"2\",\"P\",\"J\",\"80\"
\"\",\"\",\"approach-retreat\",\"84\",\"713066\",\"0.0-84.0\",\"\",\"\",\"3-4\",\"4239\",\"38\",\"1\",\"Training\",\"Stims/Figures/118-J-0-2.bmp\",\"nama:la\",\"Down\",\"38\",\"6\",\"1\",\"2\",\"S\",\"J\",\"81\"
\"\",\"\",\"approach-retreat\",\"85\",\"720170\",\"0.0-85.0\",\"\",\"\",\"3-4\",\"5599\",\"40\",\"1\",\"Training\",\"Stims/Figures/100-J-10-3.bmp\",\"nama:la\",\"Up\",\"40\",\"6\",\"2\",\"2\",\"S\",\"J\",\"82\"
\"\",\"\",\"approach-retreat\",\"86\",\"726506\",\"0.0-86.0\",\"\",\"\",\"3-4\",\"4831\",\"37\",\"1\",\"Training\",\"Stims/Figures/102-J-10-4.bmp\",\"nama:la\",\"Right\",\"37\",\"6\",\"3\",\"2\",\"S\",\"J\",\"83\"
\"\",\"\",\"approach-retreat\",\"87\",\"732362\",\"0.0-87.0\",\"\",\"\",\"3-4\",\"4351\",\"38\",\"1\",\"Training\",\"Stims/Figures/85-J-0-2.bmp\",\"nama:la\",\"Down\",\"38\",\"6\",\"4\",\"2\",\"S\",\"J\",\"84\"
\"\",\"\",\"approach-retreat\",\"88\",\"738074\",\"0.0-88.0\",\"\",\"\",\"3-4\",\"4207\",\"37\",\"1\",\"Training\",\"Stims/Figures/85-C-20-2.bmp\",\"ta:pata\",\"Left\",\"37\",\"6\",\"5\",\"2\",\"P\",\"J\",\"85\"
\"\",\"\",\"approach-retreat\",\"89\",\"743834\",\"0.0-89.0\",\"\",\"\",\"3-4\",\"4254\",\"37\",\"1\",\"Training\",\"Stims/Figures/57-J-0-1.bmp\",\"nama:la\",\"Right\",\"37\",\"6\",\"6\",\"2\",\"S\",\"J\",\"86\"
\"\",\"\",\"approach-retreat\",\"90\",\"749643\",\"0.0-90.0\",\"\",\"\",\"3-4\",\"4304\",\"39\",\"1\",\"Training\",\"Stims/Figures/111-C-30-3.bmp\",\"ta:pata\",\"Right\",\"39\",\"6\",\"7\",\"2\",\"P\",\"J\",\"87\"
\"\",\"\",\"approach-retreat\",\"91\",\"755353\",\"0.0-91.0\",\"\",\"\",\"3-4\",\"4206\",\"37\",\"1\",\"Training\",\"Stims/Figures/102-C-20-4.bmp\",\"ta:pata\",\"Left\",\"37\",\"6\",\"8\",\"2\",\"P\",\"J\",\"88\"
\"\",\"\",\"approach-retreat\",\"92\",\"761481\",\"0.0-92.0\",\"\",\"\",\"3-4\",\"4623\",\"38\",\"1\",\"Training\",\"Stims/Figures/57-C-30-1.bmp\",\"ta:pata\",\"Up\",\"38\",\"6\",\"9\",\"2\",\"P\",\"J\",\"89\"
\"\",\"\",\"approach-retreat\",\"93\",\"767771\",\"0.0-93.0\",\"\",\"\",\"3-4\",\"4783\",\"37\",\"1\",\"Training\",\"Stims/Figures/19-J-10-4.bmp\",\"nama:la\",\"Right\",\"37\",\"6\",\"10\",\"2\",\"S\",\"J\",\"90\"
\"\",\"\",\"approach-retreat\",\"94\",\"773657\",\"0.0-94.0\",\"\",\"\",\"3-4\",\"4382\",\"39\",\"1\",\"Training\",\"Stims/Figures/93-J-0-1.bmp\",\"nama:la\",\"Left\",\"39\",\"6\",\"11\",\"2\",\"S\",\"J\",\"91\"
\"\",\"\",\"approach-retreat\",\"95\",\"781018\",\"0.0-95.0\",\"\",\"\",\"3-4\",\"5856\",\"40\",\"1\",\"Training\",\"Stims/Figures/118-C-20-2.bmp\",\"ta:pata\",\"Down\",\"40\",\"6\",\"12\",\"2\",\"P\",\"J\",\"92\"
\"\",\"\",\"approach-retreat\",\"96\",\"787657\",\"0.0-96.0\",\"\",\"\",\"3-4\",\"5137\",\"38\",\"1\",\"Training\",\"Stims/Figures/93-C-30-1.bmp\",\"ta:pata\",\"Up\",\"38\",\"6\",\"13\",\"2\",\"P\",\"J\",\"93\"
\"\",\"\",\"approach-retreat\",\"97\",\"793209\",\"0.0-97.0\",\"\",\"\",\"3-4\",\"4048\",\"39\",\"1\",\"Training\",\"Stims/Figures/111-J-10-3.bmp\",\"nama:la\",\"Left\",\"39\",\"6\",\"14\",\"2\",\"S\",\"J\",\"94\"
\"\",\"\",\"approach-retreat\",\"98\",\"798777\",\"0.0-98.0\",\"\",\"\",\"3-4\",\"4063\",\"38\",\"1\",\"Training\",\"Stims/Figures/100-C-30-3.bmp\",\"ta:pata\",\"Up\",\"38\",\"6\",\"15\",\"2\",\"P\",\"J\",\"95\"
\"\",\"\",\"approach-retreat\",\"99\",\"805881\",\"0.0-99.0\",\"\",\"\",\"3-4\",\"5598\",\"40\",\"1\",\"Training\",\"Stims/Figures/19-C-20-4.bmp\",\"ta:pata\",\"Down\",\"40\",\"6\",\"16\",\"2\",\"P\",\"J\",\"96\"
\"\",\"\",\"approach-retreat\",\"100\",\"812378\",\"0.0-100.0\",\"\",\"\",\"3-4\",\"4992\",\"38\",\"1\",\"Training\",\"Stims/Figures/111-J-10-3.bmp\",\"nama:la\",\"Down\",\"38\",\"7\",\"1\",\"2\",\"S\",\"J\",\"97\"
\"\",\"\",\"approach-retreat\",\"101\",\"818377\",\"0.0-101.0\",\"\",\"\",\"3-4\",\"4494\",\"39\",\"1\",\"Training\",\"Stims/Figures/102-C-20-4.bmp\",\"ta:pata\",\"Right\",\"39\",\"7\",\"2\",\"2\",\"P\",\"J\",\"98\"
\"\",\"\",\"approach-retreat\",\"102\",\"826683\",\"0.0-102.0\",\"\",\"\",\"3-4\",\"6798\",\"39\",\"1\",\"Training\",\"Stims/Figures/100-J-10-3.bmp\",\"nama:la\",\"Left\",\"39\",\"7\",\"3\",\"2\",\"S\",\"J\",\"99\"
\"\",\"\",\"approach-retreat\",\"103\",\"832313\",\"0.0-103.0\",\"\",\"\",\"3-4\",\"4125\",\"37\",\"1\",\"Training\",\"Stims/Figures/85-J-0-2.bmp\",\"nama:la\",\"Right\",\"37\",\"7\",\"4\",\"2\",\"S\",\"J\",\"100\"
\"\",\"\",\"approach-retreat\",\"104\",\"837930\",\"0.0-104.0\",\"\",\"\",\"3-4\",\"4113\",\"40\",\"1\",\"Training\",\"Stims/Figures/85-C-20-2.bmp\",\"ta:pata\",\"Down\",\"40\",\"7\",\"5\",\"2\",\"P\",\"J\",\"101\"
\"\",\"\",\"approach-retreat\",\"105\",\"843449\",\"0.0-105.0\",\"\",\"\",\"3-4\",\"4015\",\"37\",\"1\",\"Training\",\"Stims/Figures/57-C-30-1.bmp\",\"ta:pata\",\"Left\",\"37\",\"7\",\"6\",\"2\",\"P\",\"J\",\"102\"
\"\",\"\",\"approach-retreat\",\"106\",\"849289\",\"0.0-106.0\",\"\",\"\",\"3-4\",\"4337\",\"40\",\"1\",\"Training\",\"Stims/Figures/102-J-10-4.bmp\",\"nama:la\",\"Up\",\"40\",\"7\",\"7\",\"2\",\"S\",\"J\",\"103\"
\"\",\"\",\"approach-retreat\",\"107\",\"855912\",\"0.0-107.0\",\"\",\"\",\"3-4\",\"5120\",\"40\",\"1\",\"Training\",\"Stims/Figures/118-J-0-2.bmp\",\"nama:la\",\"Up\",\"40\",\"7\",\"8\",\"2\",\"S\",\"J\",\"104\"
\"\",\"\",\"approach-retreat\",\"108\",\"863434\",\"0.0-108.0\",\"\",\"\",\"3-4\",\"6017\",\"38\",\"1\",\"Training\",\"Stims/Figures/100-C-30-3.bmp\",\"ta:pata\",\"Up\",\"38\",\"7\",\"9\",\"2\",\"P\",\"J\",\"105\"
\"\",\"\",\"approach-retreat\",\"109\",\"871049\",\"0.0-109.0\",\"\",\"\",\"3-4\",\"6111\",\"40\",\"1\",\"Training\",\"Stims/Figures/93-J-0-1.bmp\",\"nama:la\",\"Up\",\"40\",\"7\",\"10\",\"2\",\"S\",\"J\",\"106\"
\"\",\"\",\"approach-retreat\",\"110\",\"878618\",\"0.0-110.0\",\"\",\"\",\"3-4\",\"6066\",\"40\",\"1\",\"Training\",\"Stims/Figures/19-C-20-4.bmp\",\"ta:pata\",\"Down\",\"40\",\"7\",\"11\",\"2\",\"P\",\"J\",\"107\"
\"\",\"\",\"approach-retreat\",\"111\",\"885018\",\"0.0-111.0\",\"\",\"\",\"3-4\",\"4892\",\"40\",\"1\",\"Training\",\"Stims/Figures/118-C-20-2.bmp\",\"ta:pata\",\"Down\",\"40\",\"7\",\"12\",\"2\",\"P\",\"J\",\"108\"
\"\",\"\",\"approach-retreat\",\"112\",\"890905\",\"0.0-112.0\",\"\",\"\",\"3-4\",\"4383\",\"39\",\"1\",\"Training\",\"Stims/Figures/93-C-30-1.bmp\",\"ta:pata\",\"Right\",\"39\",\"7\",\"13\",\"2\",\"P\",\"J\",\"109\"
\"\",\"\",\"approach-retreat\",\"113\",\"896441\",\"0.0-113.0\",\"\",\"\",\"3-4\",\"4031\",\"39\",\"1\",\"Training\",\"Stims/Figures/19-J-10-4.bmp\",\"nama:la\",\"Left\",\"39\",\"7\",\"14\",\"2\",\"S\",\"J\",\"110\"
\"\",\"\",\"approach-retreat\",\"114\",\"903481\",\"0.0-114.0\",\"\",\"\",\"3-4\",\"5535\",\"39\",\"1\",\"Training\",\"Stims/Figures/111-C-30-3.bmp\",\"ta:pata\",\"Right\",\"39\",\"7\",\"15\",\"2\",\"P\",\"J\",\"111\"
\"\",\"\",\"approach-retreat\",\"115\",\"912537\",\"0.0-115.0\",\"\",\"\",\"3-4\",\"7552\",\"39\",\"1\",\"Training\",\"Stims/Figures/57-J-0-1.bmp\",\"nama:la\",\"Left\",\"39\",\"7\",\"16\",\"2\",\"S\",\"J\",\"112\"
\"\",\"\",\"approach-retreat\",\"116\",\"919929\",\"0.0-116.0\",\"\",\"\",\"3-4\",\"5887\",\"40\",\"1\",\"Training\",\"Stims/Figures/111-C-30-3.bmp\",\"ta:pata\",\"Down\",\"40\",\"8\",\"1\",\"2\",\"P\",\"J\",\"113\"
\"\",\"\",\"approach-retreat\",\"117\",\"928520\",\"0.0-117.0\",\"\",\"\",\"3-4\",\"7085\",\"40\",\"1\",\"Training\",\"Stims/Figures/111-J-10-3.bmp\",\"nama:la\",\"Up\",\"40\",\"8\",\"2\",\"2\",\"S\",\"J\",\"114\"
\"\",\"\",\"approach-retreat\",\"118\",\"935353\",\"0.0-118.0\",\"\",\"\",\"3-4\",\"5327\",\"38\",\"1\",\"Training\",\"Stims/Figures/102-C-20-4.bmp\",\"ta:pata\",\"Up\",\"38\",\"8\",\"3\",\"2\",\"P\",\"J\",\"115\"
\"\",\"\",\"approach-retreat\",\"119\",\"942537\",\"0.0-119.0\",\"\",\"\",\"3-4\",\"5678\",\"37\",\"0\",\"Training\",\"Stims/Figures/93-C-30-1.bmp\",\"ta:pata\",\"Right\",\"39\",\"8\",\"4\",\"2\",\"P\",\"J\",\"116\"
\"\",\"\",\"approach-retreat\",\"120\",\"948248\",\"0.0-120.0\",\"\",\"\",\"3-4\",\"4206\",\"39\",\"1\",\"Training\",\"Stims/Figures/57-J-0-1.bmp\",\"nama:la\",\"Left\",\"39\",\"8\",\"5\",\"2\",\"S\",\"J\",\"117\"
\"\",\"\",\"approach-retreat\",\"121\",\"953815\",\"0.0-121.0\",\"\",\"\",\"3-4\",\"4064\",\"38\",\"1\",\"Training\",\"Stims/Figures/85-C-20-2.bmp\",\"ta:pata\",\"Up\",\"38\",\"8\",\"6\",\"2\",\"P\",\"J\",\"118\"
\"\",\"\",\"approach-retreat\",\"122\",\"959561\",\"0.0-122.0\",\"\",\"\",\"3-4\",\"4242\",\"39\",\"1\",\"Training\",\"Stims/Figures/85-J-0-2.bmp\",\"nama:la\",\"Left\",\"39\",\"8\",\"7\",\"2\",\"S\",\"J\",\"119\"
\"\",\"\",\"approach-retreat\",\"123\",\"965623\",\"0.0-123.0\",\"\",\"\",\"3-4\",\"4557\",\"37\",\"1\",\"Training\",\"Stims/Figures/19-C-20-4.bmp\",\"ta:pata\",\"Left\",\"37\",\"8\",\"8\",\"2\",\"P\",\"J\",\"120\"
\"\",\"\",\"approach-retreat\",\"124\",\"973368\",\"0.0-124.0\",\"\",\"\",\"3-4\",\"6241\",\"39\",\"1\",\"Training\",\"Stims/Figures/102-J-10-4.bmp\",\"nama:la\",\"Left\",\"39\",\"8\",\"9\",\"2\",\"S\",\"J\",\"121\"
\"\",\"\",\"approach-retreat\",\"125\",\"980438\",\"0.0-125.0\",\"\",\"\",\"3-4\",\"5567\",\"38\",\"1\",\"Training\",\"Stims/Figures/118-J-0-2.bmp\",\"nama:la\",\"Down\",\"38\",\"8\",\"10\",\"2\",\"S\",\"J\",\"122\"
\"\",\"\",\"approach-retreat\",\"126\",\"986903\",\"0.0-126.0\",\"\",\"\",\"3-4\",\"4961\",\"40\",\"1\",\"Training\",\"Stims/Figures/19-J-10-4.bmp\",\"nama:la\",\"Up\",\"40\",\"8\",\"11\",\"2\",\"S\",\"J\",\"123\"
\"\",\"\",\"approach-retreat\",\"127\",\"995161\",\"0.0-127.0\",\"\",\"\",\"3-4\",\"6753\",\"39\",\"1\",\"Training\",\"Stims/Figures/100-C-30-3.bmp\",\"ta:pata\",\"Right\",\"39\",\"8\",\"12\",\"2\",\"P\",\"J\",\"124\"
\"\",\"\",\"approach-retreat\",\"128\",\"1001272\",\"0.0-128.0\",\"\",\"\",\"3-4\",\"4606\",\"39\",\"1\",\"Training\",\"Stims/Figures/118-C-20-2.bmp\",\"ta:pata\",\"Right\",\"39\",\"8\",\"13\",\"2\",\"P\",\"J\",\"125\"
\"\",\"\",\"approach-retreat\",\"129\",\"1007704\",\"0.0-129.0\",\"\",\"\",\"3-4\",\"4927\",\"38\",\"1\",\"Training\",\"Stims/Figures/93-J-0-1.bmp\",\"nama:la\",\"Down\",\"38\",\"8\",\"14\",\"2\",\"S\",\"J\",\"126\"
\"\",\"\",\"approach-retreat\",\"130\",\"1013420\",\"0.0-130.0\",\"\",\"\",\"3-4\",\"4210\",\"37\",\"1\",\"Training\",\"Stims/Figures/100-J-10-3.bmp\",\"nama:la\",\"Right\",\"37\",\"8\",\"15\",\"2\",\"S\",\"J\",\"127\"
\"\",\"\",\"approach-retreat\",\"131\",\"1019305\",\"0.0-131.0\",\"\",\"\",\"3-4\",\"4378\",\"40\",\"1\",\"Training\",\"Stims/Figures/57-C-30-1.bmp\",\"ta:pata\",\"Down\",\"40\",\"8\",\"16\",\"2\",\"P\",\"J\",\"128\"
\"\",\"\",\"approach-retreat\",\"132\",\"1026376\",\"0.0-132.0\",\"\",\"\",\"3-4\",\"5568\",\"39\",\"1\",\"Training\",\"Stims/Figures/19-C-20-4.bmp\",\"ta:pata\",\"Right\",\"39\",\"9\",\"1\",\"2\",\"P\",\"J\",\"129\"
\"\",\"\",\"approach-retreat\",\"133\",\"1032439\",\"0.0-133.0\",\"\",\"\",\"3-4\",\"4558\",\"38\",\"1\",\"Training\",\"Stims/Figures/102-C-20-4.bmp\",\"ta:pata\",\"Up\",\"38\",\"9\",\"2\",\"2\",\"P\",\"J\",\"130\"
\"\",\"\",\"approach-retreat\",\"134\",\"1038313\",\"0.0-134.0\",\"\",\"\",\"3-4\",\"4370\",\"37\",\"1\",\"Training\",\"Stims/Figures/57-C-30-1.bmp\",\"ta:pata\",\"Left\",\"37\",\"9\",\"3\",\"2\",\"P\",\"J\",\"131\"
\"\",\"\",\"approach-retreat\",\"135\",\"1044328\",\"0.0-135.0\",\"\",\"\",\"3-4\",\"4510\",\"39\",\"1\",\"Training\",\"Stims/Figures/19-J-10-4.bmp\",\"nama:la\",\"Left\",\"39\",\"9\",\"4\",\"2\",\"S\",\"J\",\"132\"
\"\",\"\",\"approach-retreat\",\"136\",\"1050457\",\"0.0-136.0\",\"\",\"\",\"3-4\",\"4623\",\"37\",\"1\",\"Training\",\"Stims/Figures/57-J-0-1.bmp\",\"nama:la\",\"Right\",\"37\",\"9\",\"5\",\"2\",\"S\",\"J\",\"133\"
\"\",\"\",\"approach-retreat\",\"137\",\"1055928\",\"0.0-137.0\",\"\",\"\",\"3-4\",\"3966\",\"39\",\"1\",\"Training\",\"Stims/Figures/118-C-20-2.bmp\",\"ta:pata\",\"Right\",\"39\",\"9\",\"6\",\"2\",\"P\",\"J\",\"134\"
\"\",\"\",\"approach-retreat\",\"138\",\"1061865\",\"0.0-138.0\",\"\",\"\",\"3-4\",\"4430\",\"38\",\"1\",\"Training\",\"Stims/Figures/85-J-0-2.bmp\",\"nama:la\",\"Down\",\"38\",\"9\",\"7\",\"2\",\"S\",\"J\",\"135\"
\"\",\"\",\"approach-retreat\",\"139\",\"1067640\",\"0.0-139.0\",\"\",\"\",\"3-4\",\"4270\",\"40\",\"1\",\"Training\",\"Stims/Figures/100-J-10-3.bmp\",\"nama:la\",\"Up\",\"40\",\"9\",\"8\",\"2\",\"S\",\"J\",\"136\"
\"\",\"\",\"approach-retreat\",\"140\",\"1073528\",\"0.0-140.0\",\"\",\"\",\"3-4\",\"4385\",\"39\",\"1\",\"Training\",\"Stims/Figures/118-J-0-2.bmp\",\"nama:la\",\"Left\",\"39\",\"9\",\"9\",\"2\",\"S\",\"J\",\"137\"
\"\",\"\",\"approach-retreat\",\"141\",\"1081191\",\"0.0-141.0\",\"\",\"\",\"3-4\",\"6160\",\"38\",\"1\",\"Training\",\"Stims/Figures/102-J-10-4.bmp\",\"nama:la\",\"Down\",\"38\",\"9\",\"10\",\"2\",\"S\",\"J\",\"138\"
\"\",\"\",\"approach-retreat\",\"142\",\"1087561\",\"0.0-142.0\",\"\",\"\",\"3-4\",\"4866\",\"40\",\"1\",\"Training\",\"Stims/Figures/93-J-0-1.bmp\",\"nama:la\",\"Up\",\"40\",\"9\",\"11\",\"2\",\"S\",\"J\",\"139\"
\"\",\"\",\"approach-retreat\",\"143\",\"1093417\",\"0.0-143.0\",\"\",\"\",\"3-4\",\"4350\",\"38\",\"1\",\"Training\",\"Stims/Figures/111-C-30-3.bmp\",\"ta:pata\",\"Up\",\"38\",\"9\",\"12\",\"2\",\"P\",\"J\",\"140\"
\"\",\"\",\"approach-retreat\",\"144\",\"1101336\",\"0.0-144.0\",\"\",\"\",\"3-4\",\"6415\",\"37\",\"1\",\"Training\",\"Stims/Figures/93-C-30-1.bmp\",\"ta:pata\",\"Left\",\"37\",\"9\",\"13\",\"2\",\"P\",\"J\",\"141\"
\"\",\"\",\"approach-retreat\",\"145\",\"1107784\",\"0.0-145.0\",\"\",\"\",\"3-4\",\"4943\",\"40\",\"1\",\"Training\",\"Stims/Figures/100-C-30-3.bmp\",\"ta:pata\",\"Down\",\"40\",\"9\",\"14\",\"2\",\"P\",\"J\",\"142\"
\"\",\"\",\"approach-retreat\",\"146\",\"1114295\",\"0.0-146.0\",\"\",\"\",\"3-4\",\"5007\",\"37\",\"1\",\"Training\",\"Stims/Figures/111-J-10-3.bmp\",\"nama:la\",\"Right\",\"37\",\"9\",\"15\",\"2\",\"S\",\"J\",\"143\"
\"\",\"\",\"approach-retreat\",\"147\",\"1120582\",\"0.0-147.0\",\"\",\"\",\"3-4\",\"4781\",\"40\",\"1\",\"Training\",\"Stims/Figures/85-C-20-2.bmp\",\"ta:pata\",\"Down\",\"40\",\"9\",\"16\",\"2\",\"P\",\"J\",\"144\"
\"26149\",\"\",\"instructions\",\"148\",\"1146732\",\"0.0-148.0\",\"[{\"\"page_index\"\":0,\"\"viewing_time\"\":26149}]\",\"\",\"\",\"\",\"\",\"\",\"\",\"\",\"\",\"\",\"\",\"\",\"\",\"\",\"\",\"\",\"\"
\"\",\"\",\"approach-retreat\",\"149\",\"1155734\",\"0.0-149.0\",\"\",\"\",\"3-4\",\"7501\",\"39\",\"1\",\"Testing\",\"Stims/Figures/84-J-0-2.bmp\",\"nama:la\",\"Left\",\"39\",\"1\",\"1\",\"2\",\"S\",\"J\",\"1\"
\"\",\"\",\"approach-retreat\",\"150\",\"1161527\",\"0.0-150.0\",\"\",\"\",\"3-4\",\"4287\",\"37\",\"0\",\"Testing\",\"Stims/Figures/71-C-30-1.bmp\",\"ta:pata\",\"Right\",\"39\",\"1\",\"2\",\"2\",\"P\",\"J\",\"2\"
\"\",\"\",\"approach-retreat\",\"151\",\"1167158\",\"0.0-151.0\",\"\",\"\",\"3-4\",\"4129\",\"38\",\"0\",\"Testing\",\"Stims/Figures/100-C-30-3.bmp\",\"ta:pata\",\"Down\",\"40\",\"1\",\"3\",\"2\",\"P\",\"J\",\"3\"
\"\",\"\",\"approach-retreat\",\"152\",\"1173191\",\"0.0-152.0\",\"\",\"\",\"3-4\",\"4528\",\"38\",\"0\",\"Testing\",\"Stims/Figures/93-J-0-1.bmp\",\"nama:la\",\"Up\",\"40\",\"1\",\"4\",\"2\",\"S\",\"J\",\"4\"
\"\",\"\",\"approach-retreat\",\"153\",\"1178967\",\"0.0-153.0\",\"\",\"\",\"3-4\",\"4271\",\"38\",\"1\",\"Testing\",\"Stims/Figures/85-J-0-2.bmp\",\"nama:la\",\"Down\",\"38\",\"1\",\"5\",\"2\",\"S\",\"J\",\"5\"
\"\",\"\",\"approach-retreat\",\"154\",\"1184583\",\"0.0-154.0\",\"\",\"\",\"3-4\",\"4112\",\"37\",\"0\",\"Testing\",\"Stims/Figures/128-C-30-3.bmp\",\"ta:pata\",\"Right\",\"39\",\"1\",\"6\",\"2\",\"P\",\"J\",\"6\"
\"\",\"\",\"approach-retreat\",\"155\",\"1190166\",\"0.0-155.0\",\"\",\"\",\"3-4\",\"4079\",\"38\",\"1\",\"Testing\",\"Stims/Figures/71-J-0-1.bmp\",\"nama:la\",\"Down\",\"38\",\"1\",\"7\",\"2\",\"S\",\"J\",\"7\"
\"\",\"\",\"approach-retreat\",\"156\",\"1195990\",\"0.0-156.0\",\"\",\"\",\"3-4\",\"4321\",\"37\",\"1\",\"Testing\",\"Stims/Figures/118-C-20-2.bmp\",\"ta:pata\",\"Left\",\"37\",\"1\",\"8\",\"2\",\"P\",\"J\",\"8\"
\"\",\"\",\"approach-retreat\",\"157\",\"1202118\",\"0.0-157.0\",\"\",\"\",\"3-4\",\"4624\",\"40\",\"1\",\"Testing\",\"Stims/Figures/57-C-30-1.bmp\",\"ta:pata\",\"Down\",\"40\",\"1\",\"9\",\"2\",\"P\",\"J\",\"9\"
\"\",\"\",\"approach-retreat\",\"158\",\"1208743\",\"0.0-158.0\",\"\",\"\",\"3-4\",\"5120\",\"38\",\"1\",\"Testing\",\"Stims/Figures/100-J-10-3.bmp\",\"nama:la\",\"Down\",\"38\",\"1\",\"10\",\"2\",\"S\",\"J\",\"10\"
\"\",\"\",\"approach-retreat\",\"159\",\"1214726\",\"0.0-159.0\",\"\",\"\",\"3-4\",\"4481\",\"37\",\"1\",\"Testing\",\"Stims/Figures/84-C-20-2.bmp\",\"ta:pata\",\"Left\",\"37\",\"1\",\"11\",\"2\",\"P\",\"J\",\"11\"
\"\",\"\",\"approach-retreat\",\"160\",\"1220198\",\"0.0-160.0\",\"\",\"\",\"3-4\",\"3969\",\"37\",\"1\",\"Testing\",\"Stims/Figures/102-J-10-4.bmp\",\"nama:la\",\"Right\",\"37\",\"1\",\"12\",\"2\",\"S\",\"J\",\"12\"
\"\",\"\",\"approach-retreat\",\"161\",\"1225734\",\"0.0-161.0\",\"\",\"\",\"3-4\",\"4032\",\"38\",\"0\",\"Testing\",\"Stims/Figures/111-C-30-3.bmp\",\"ta:pata\",\"Down\",\"40\",\"1\",\"13\",\"2\",\"P\",\"J\",\"13\"
\"\",\"\",\"approach-retreat\",\"162\",\"1231238\",\"0.0-162.0\",\"\",\"\",\"3-4\",\"3999\",\"37\",\"1\",\"Testing\",\"Stims/Figures/57-J-0-1.bmp\",\"nama:la\",\"Right\",\"37\",\"1\",\"14\",\"2\",\"S\",\"J\",\"14\"
\"\",\"\",\"approach-retreat\",\"163\",\"1236790\",\"0.0-163.0\",\"\",\"\",\"3-4\",\"4047\",\"39\",\"1\",\"Testing\",\"Stims/Figures/111-J-10-3.bmp\",\"nama:la\",\"Left\",\"39\",\"1\",\"15\",\"2\",\"S\",\"J\",\"15\"
\"\",\"\",\"approach-retreat\",\"164\",\"1242614\",\"0.0-164.0\",\"\",\"\",\"3-4\",\"4319\",\"38\",\"0\",\"Testing\",\"Stims/Figures/118-J-0-2.bmp\",\"nama:la\",\"Up\",\"40\",\"1\",\"16\",\"2\",\"S\",\"J\",\"16\"
\"\",\"\",\"approach-retreat\",\"165\",\"1248806\",\"0.0-165.0\",\"\",\"\",\"3-4\",\"4689\",\"40\",\"1\",\"Testing\",\"Stims/Figures/87-J-10-4.bmp\",\"nama:la\",\"Up\",\"40\",\"1\",\"17\",\"2\",\"S\",\"J\",\"17\"
\"\",\"\",\"approach-retreat\",\"166\",\"1254439\",\"0.0-166.0\",\"\",\"\",\"3-4\",\"4127\",\"37\",\"1\",\"Testing\",\"Stims/Figures/19-C-20-4.bmp\",\"ta:pata\",\"Left\",\"37\",\"1\",\"18\",\"2\",\"P\",\"J\",\"18\"
\"\",\"\",\"approach-retreat\",\"167\",\"1260053\",\"0.0-167.0\",\"\",\"\",\"3-4\",\"4088\",\"40\",\"1\",\"Testing\",\"Stims/Figures/19-J-10-4.bmp\",\"nama:la\",\"Up\",\"40\",\"1\",\"19\",\"2\",\"S\",\"J\",\"19\"
\"\",\"\",\"approach-retreat\",\"168\",\"1265526\",\"0.0-168.0\",\"\",\"\",\"3-4\",\"3969\",\"38\",\"0\",\"Testing\",\"Stims/Figures/128-J-10-3.bmp\",\"nama:la\",\"Up\",\"40\",\"1\",\"20\",\"2\",\"S\",\"J\",\"20\"
\"\",\"\",\"approach-retreat\",\"169\",\"1271190\",\"0.0-169.0\",\"\",\"\",\"3-4\",\"4159\",\"40\",\"0\",\"Testing\",\"Stims/Figures/87-C-20-4.bmp\",\"ta:pata\",\"Up\",\"38\",\"1\",\"21\",\"2\",\"P\",\"J\",\"21\"
\"\",\"\",\"approach-retreat\",\"170\",\"1276726\",\"0.0-170.0\",\"\",\"\",\"3-4\",\"4033\",\"37\",\"0\",\"Testing\",\"Stims/Figures/85-C-20-2.bmp\",\"ta:pata\",\"Right\",\"39\",\"1\",\"22\",\"2\",\"P\",\"J\",\"22\"
\"\",\"\",\"approach-retreat\",\"171\",\"1282214\",\"0.0-171.0\",\"\",\"\",\"3-4\",\"3983\",\"39\",\"0\",\"Testing\",\"Stims/Figures/93-C-30-1.bmp\",\"ta:pata\",\"Left\",\"37\",\"1\",\"23\",\"2\",\"P\",\"J\",\"23\"
\"\",\"\",\"approach-retreat\",\"172\",\"1287798\",\"0.0-172.0\",\"\",\"\",\"3-4\",\"4079\",\"37\",\"0\",\"Testing\",\"Stims/Figures/102-C-20-4.bmp\",\"ta:pata\",\"Right\",\"39\",\"1\",\"24\",\"2\",\"P\",\"J\",\"24\"
\"\",\"\",\"approach-retreat\",\"173\",\"1293478\",\"0.0-173.0\",\"\",\"\",\"3-4\",\"4175\",\"38\",\"0\",\"Testing\",\"Stims/Figures/111-J-10-3.bmp\",\"nama:la\",\"Up\",\"40\",\"2\",\"1\",\"2\",\"S\",\"J\",\"25\"
\"\",\"\",\"approach-retreat\",\"174\",\"1299078\",\"0.0-174.0\",\"\",\"\",\"3-4\",\"4097\",\"39\",\"0\",\"Testing\",\"Stims/Figures/100-C-30-3.bmp\",\"ta:pata\",\"Left\",\"37\",\"2\",\"2\",\"2\",\"P\",\"J\",\"26\"
\"\",\"\",\"approach-retreat\",\"175\",\"1304678\",\"0.0-175.0\",\"\",\"\",\"3-4\",\"4096\",\"40\",\"0\",\"Testing\",\"Stims/Figures/128-C-30-3.bmp\",\"ta:pata\",\"Up\",\"38\",\"2\",\"3\",\"2\",\"P\",\"J\",\"27\"
\"\",\"\",\"approach-retreat\",\"176\",\"1310454\",\"0.0-176.0\",\"\",\"\",\"3-4\",\"4271\",\"37\",\"0\",\"Testing\",\"Stims/Figures/85-C-20-2.bmp\",\"ta:pata\",\"Right\",\"39\",\"2\",\"4\",\"2\",\"P\",\"J\",\"28\"
\"\",\"\",\"approach-retreat\",\"177\",\"1316614\",\"0.0-177.0\",\"\",\"\",\"3-4\",\"4657\",\"40\",\"0\",\"Testing\",\"Stims/Figures/85-J-0-2.bmp\",\"nama:la\",\"Down\",\"38\",\"2\",\"5\",\"2\",\"S\",\"J\",\"29\"
\"\",\"\",\"approach-retreat\",\"178\",\"1322599\",\"0.0-178.0\",\"\",\"\",\"3-4\",\"4480\",\"37\",\"0\",\"Testing\",\"Stims/Figures/111-C-30-3.bmp\",\"ta:pata\",\"Right\",\"39\",\"2\",\"6\",\"2\",\"P\",\"J\",\"30\"
\"\",\"\",\"approach-retreat\",\"179\",\"1328245\",\"0.0-179.0\",\"\",\"\",\"3-4\",\"4144\",\"38\",\"1\",\"Testing\",\"Stims/Figures/19-C-20-4.bmp\",\"ta:pata\",\"Up\",\"38\",\"2\",\"7\",\"2\",\"P\",\"J\",\"31\"
\"\",\"\",\"approach-retreat\",\"180\",\"1334070\",\"0.0-180.0\",\"\",\"\",\"3-4\",\"4320\",\"40\",\"0\",\"Testing\",\"Stims/Figures/102-C-20-4.bmp\",\"ta:pata\",\"Up\",\"38\",\"2\",\"8\",\"2\",\"P\",\"J\",\"32\"
\"\",\"\",\"approach-retreat\",\"181\",\"1339638\",\"0.0-181.0\",\"\",\"\",\"3-4\",\"4063\",\"39\",\"0\",\"Testing\",\"Stims/Figures/128-J-10-3.bmp\",\"nama:la\",\"Right\",\"37\",\"2\",\"9\",\"2\",\"S\",\"J\",\"33\"
\"\",\"\",\"approach-retreat\",\"182\",\"1345749\",\"0.0-182.0\",\"\",\"\",\"3-4\",\"4607\",\"37\",\"0\",\"Testing\",\"Stims/Figures/57-C-30-1.bmp\",\"ta:pata\",\"Right\",\"39\",\"2\",\"10\",\"2\",\"P\",\"J\",\"34\"
\"\",\"\",\"approach-retreat\",\"183\",\"1351942\",\"0.0-183.0\",\"\",\"\",\"3-4\",\"4689\",\"37\",\"0\",\"Testing\",\"Stims/Figures/93-C-30-1.bmp\",\"ta:pata\",\"Right\",\"39\",\"2\",\"11\",\"2\",\"P\",\"J\",\"35\"
\"\",\"\",\"approach-retreat\",\"184\",\"1357894\",\"0.0-184.0\",\"\",\"\",\"3-4\",\"4448\",\"38\",\"1\",\"Testing\",\"Stims/Figures/118-J-0-2.bmp\",\"nama:la\",\"Down\",\"38\",\"2\",\"12\",\"2\",\"S\",\"J\",\"36\"
\"\",\"\",\"approach-retreat\",\"185\",\"1363525\",\"0.0-185.0\",\"\",\"\",\"3-4\",\"4127\",\"37\",\"1\",\"Testing\",\"Stims/Figures/57-J-0-1.bmp\",\"nama:la\",\"Right\",\"37\",\"2\",\"13\",\"2\",\"S\",\"J\",\"37\"
\"\",\"\",\"approach-retreat\",\"186\",\"1370406\",\"0.0-186.0\",\"\",\"\",\"3-4\",\"5377\",\"40\",\"1\",\"Testing\",\"Stims/Figures/93-J-0-1.bmp\",\"nama:la\",\"Up\",\"40\",\"2\",\"14\",\"2\",\"S\",\"J\",\"38\"
\"\",\"\",\"approach-retreat\",\"187\",\"1376198\",\"0.0-187.0\",\"\",\"\",\"3-4\",\"4287\",\"40\",\"0\",\"Testing\",\"Stims/Figures/118-C-20-2.bmp\",\"ta:pata\",\"Up\",\"38\",\"2\",\"15\",\"2\",\"P\",\"J\",\"39\"
\"\",\"\",\"approach-retreat\",\"188\",\"1381781\",\"0.0-188.0\",\"\",\"\",\"3-4\",\"4080\",\"39\",\"1\",\"Testing\",\"Stims/Figures/71-J-0-1.bmp\",\"nama:la\",\"Left\",\"39\",\"2\",\"16\",\"2\",\"S\",\"J\",\"40\"
\"\",\"\",\"approach-retreat\",\"189\",\"1387861\",\"0.0-189.0\",\"\",\"\",\"3-4\",\"4575\",\"37\",\"1\",\"Testing\",\"Stims/Figures/84-C-20-2.bmp\",\"ta:pata\",\"Left\",\"37\",\"2\",\"17\",\"2\",\"P\",\"J\",\"41\"
\"\",\"\",\"approach-retreat\",\"190\",\"1395061\",\"0.0-190.0\",\"\",\"\",\"3-4\",\"5695\",\"38\",\"1\",\"Testing\",\"Stims/Figures/100-J-10-3.bmp\",\"nama:la\",\"Down\",\"38\",\"2\",\"18\",\"2\",\"S\",\"J\",\"42\"
\"\",\"\",\"approach-retreat\",\"191\",\"1401749\",\"0.0-191.0\",\"\",\"\",\"3-4\",\"5185\",\"40\",\"0\",\"Testing\",\"Stims/Figures/19-J-10-4.bmp\",\"nama:la\",\"Down\",\"38\",\"2\",\"19\",\"2\",\"S\",\"J\",\"43\"
\"\",\"\",\"approach-retreat\",\"192\",\"1407461\",\"0.0-192.0\",\"\",\"\",\"3-4\",\"4210\",\"38\",\"0\",\"Testing\",\"Stims/Figures/87-C-20-4.bmp\",\"ta:pata\",\"Down\",\"40\",\"2\",\"20\",\"2\",\"P\",\"J\",\"44\"
\"\",\"\",\"approach-retreat\",\"193\",\"1413796\",\"0.0-193.0\",\"\",\"\",\"3-4\",\"4831\",\"37\",\"1\",\"Testing\",\"Stims/Figures/71-C-30-1.bmp\",\"ta:pata\",\"Left\",\"37\",\"2\",\"21\",\"2\",\"P\",\"J\",\"45\"
\"\",\"\",\"approach-retreat\",\"194\",\"1419701\",\"0.0-194.0\",\"\",\"\",\"3-4\",\"4400\",\"39\",\"1\",\"Testing\",\"Stims/Figures/87-J-10-4.bmp\",\"nama:la\",\"Left\",\"39\",\"2\",\"22\",\"2\",\"S\",\"J\",\"46\"
\"\",\"\",\"approach-retreat\",\"195\",\"1425332\",\"0.0-195.0\",\"\",\"\",\"3-4\",\"4128\",\"40\",\"0\",\"Testing\",\"Stims/Figures/84-J-0-2.bmp\",\"nama:la\",\"Down\",\"38\",\"2\",\"23\",\"2\",\"S\",\"J\",\"47\"
\"\",\"\",\"approach-retreat\",\"196\",\"1431125\",\"0.0-196.0\",\"\",\"\",\"3-4\",\"4289\",\"37\",\"0\",\"Testing\",\"Stims/Figures/102-J-10-4.bmp\",\"nama:la\",\"Left\",\"39\",\"2\",\"24\",\"2\",\"S\",\"J\",\"48\"
\"\",\"\",\"approach-retreat\",\"197\",\"1437524\",\"0.0-197.0\",\"\",\"\",\"3-4\",\"4895\",\"39\",\"0\",\"Testing\",\"Stims/Figures/93-C-30-1.bmp\",\"ta:pata\",\"Left\",\"37\",\"3\",\"1\",\"2\",\"P\",\"J\",\"49\"
\"\",\"\",\"approach-retreat\",\"198\",\"1443764\",\"0.0-198.0\",\"\",\"\",\"3-4\",\"4735\",\"39\",\"0\",\"Testing\",\"Stims/Figures/71-C-30-1.bmp\",\"ta:pata\",\"Left\",\"37\",\"3\",\"2\",\"2\",\"P\",\"J\",\"50\"
\"\",\"\",\"approach-retreat\",\"199\",\"1449236\",\"0.0-199.0\",\"\",\"\",\"3-4\",\"3967\",\"37\",\"0\",\"Testing\",\"Stims/Figures/19-C-20-4.bmp\",\"ta:pata\",\"Right\",\"39\",\"3\",\"3\",\"2\",\"P\",\"J\",\"51\"
\"\",\"\",\"approach-retreat\",\"200\",\"1454772\",\"0.0-200.0\",\"\",\"\",\"3-4\",\"4033\",\"40\",\"0\",\"Testing\",\"Stims/Figures/57-C-30-1.bmp\",\"ta:pata\",\"Up\",\"38\",\"3\",\"4\",\"2\",\"P\",\"J\",\"52\"
\"\",\"\",\"approach-retreat\",\"201\",\"1460484\",\"0.0-201.0\",\"\",\"\",\"3-4\",\"4208\",\"40\",\"1\",\"Testing\",\"Stims/Figures/87-J-10-4.bmp\",\"nama:la\",\"Up\",\"40\",\"3\",\"5\",\"2\",\"S\",\"J\",\"53\"
\"\",\"\",\"approach-retreat\",\"202\",\"1467107\",\"0.0-202.0\",\"\",\"\",\"3-4\",\"5118\",\"39\",\"0\",\"Testing\",\"Stims/Figures/100-C-30-3.bmp\",\"ta:pata\",\"Left\",\"37\",\"3\",\"6\",\"2\",\"P\",\"J\",\"54\"
\"\",\"\",\"approach-retreat\",\"203\",\"1474083\",\"0.0-203.0\",\"\",\"\",\"3-4\",\"5472\",\"38\",\"0\",\"Testing\",\"Stims/Figures/102-C-20-4.bmp\",\"ta:pata\",\"Down\",\"40\",\"3\",\"7\",\"2\",\"P\",\"J\",\"55\"
\"\",\"\",\"approach-retreat\",\"204\",\"1479653\",\"0.0-204.0\",\"\",\"\",\"3-4\",\"4064\",\"37\",\"0\",\"Testing\",\"Stims/Figures/93-J-0-1.bmp\",\"nama:la\",\"Left\",\"39\",\"3\",\"8\",\"2\",\"S\",\"J\",\"56\"
\"\",\"\",\"approach-retreat\",\"205\",\"1485317\",\"0.0-205.0\",\"\",\"\",\"3-4\",\"4160\",\"37\",\"0\",\"Testing\",\"Stims/Figures/87-C-20-4.bmp\",\"ta:pata\",\"Right\",\"39\",\"3\",\"9\",\"2\",\"P\",\"J\",\"57\"
\"\",\"\",\"approach-retreat\",\"206\",\"1491812\",\"0.0-206.0\",\"\",\"\",\"3-4\",\"4991\",\"40\",\"0\",\"Testing\",\"Stims/Figures/71-J-0-1.bmp\",\"nama:la\",\"Down\",\"38\",\"3\",\"10\",\"2\",\"S\",\"J\",\"58\"
\"\",\"\",\"approach-retreat\",\"207\",\"1498164\",\"0.0-207.0\",\"\",\"\",\"3-4\",\"4847\",\"37\",\"1\",\"Testing\",\"Stims/Figures/102-J-10-4.bmp\",\"nama:la\",\"Right\",\"37\",\"3\",\"11\",\"2\",\"S\",\"J\",\"59\"
\"\",\"\",\"approach-retreat\",\"208\",\"1503716\",\"0.0-208.0\",\"\",\"\",\"3-4\",\"4050\",\"37\",\"1\",\"Testing\",\"Stims/Figures/128-J-10-3.bmp\",\"nama:la\",\"Right\",\"37\",\"3\",\"12\",\"2\",\"S\",\"J\",\"60\"
\"\",\"\",\"approach-retreat\",\"209\",\"1509699\",\"0.0-209.0\",\"\",\"\",\"3-4\",\"4480\",\"37\",\"1\",\"Testing\",\"Stims/Figures/84-J-0-2.bmp\",\"nama:la\",\"Right\",\"37\",\"3\",\"13\",\"2\",\"S\",\"J\",\"61\"
\"\",\"\",\"approach-retreat\",\"210\",\"1515251\",\"0.0-210.0\",\"\",\"\",\"3-4\",\"4049\",\"38\",\"1\",\"Testing\",\"Stims/Figures/57-J-0-1.bmp\",\"nama:la\",\"Down\",\"38\",\"3\",\"14\",\"2\",\"S\",\"J\",\"62\"
\"\",\"\",\"approach-retreat\",\"211\",\"1520835\",\"0.0-211.0\",\"\",\"\",\"3-4\",\"4078\",\"39\",\"1\",\"Testing\",\"Stims/Figures/111-J-10-3.bmp\",\"nama:la\",\"Left\",\"39\",\"3\",\"15\",\"2\",\"S\",\"J\",\"63\"
\"\",\"\",\"approach-retreat\",\"212\",\"1526261\",\"0.0-212.0\",\"\",\"\",\"3-4\",\"3922\",\"39\",\"0\",\"Testing\",\"Stims/Figures/128-C-30-3.bmp\",\"ta:pata\",\"Left\",\"37\",\"3\",\"16\",\"2\",\"P\",\"J\",\"64\"
\"\",\"\",\"approach-retreat\",\"213\",\"1532004\",\"0.0-213.0\",\"\",\"\",\"3-4\",\"4239\",\"37\",\"0\",\"Testing\",\"Stims/Figures/111-C-30-3.bmp\",\"ta:pata\",\"Right\",\"39\",\"3\",\"17\",\"2\",\"P\",\"J\",\"65\"
\"\",\"\",\"approach-retreat\",\"214\",\"1537685\",\"0.0-214.0\",\"\",\"\",\"3-4\",\"4178\",\"40\",\"0\",\"Testing\",\"Stims/Figures/85-C-20-2.bmp\",\"ta:pata\",\"Up\",\"38\",\"3\",\"18\",\"2\",\"P\",\"J\",\"66\"
\"\",\"\",\"approach-retreat\",\"215\",\"1543236\",\"0.0-215.0\",\"\",\"\",\"3-4\",\"4047\",\"40\",\"0\",\"Testing\",\"Stims/Figures/84-C-20-2.bmp\",\"ta:pata\",\"Up\",\"38\",\"3\",\"19\",\"2\",\"P\",\"J\",\"67\"
\"\",\"\",\"approach-retreat\",\"216\",\"1549268\",\"0.0-216.0\",\"\",\"\",\"3-4\",\"4528\",\"38\",\"1\",\"Testing\",\"Stims/Figures/100-J-10-3.bmp\",\"nama:la\",\"Down\",\"38\",\"3\",\"20\",\"2\",\"S\",\"J\",\"68\"
\"\",\"\",\"approach-retreat\",\"217\",\"1555523\",\"0.0-217.0\",\"\",\"\",\"3-4\",\"4749\",\"38\",\"1\",\"Testing\",\"Stims/Figures/19-J-10-4.bmp\",\"nama:la\",\"Down\",\"38\",\"3\",\"21\",\"2\",\"S\",\"J\",\"69\"
\"\",\"\",\"approach-retreat\",\"218\",\"1561188\",\"0.0-218.0\",\"\",\"\",\"3-4\",\"4161\",\"38\",\"0\",\"Testing\",\"Stims/Figures/85-J-0-2.bmp\",\"nama:la\",\"Up\",\"40\",\"3\",\"22\",\"2\",\"S\",\"J\",\"70\"
\"\",\"\",\"approach-retreat\",\"219\",\"1567555\",\"0.0-219.0\",\"\",\"\",\"3-4\",\"4862\",\"40\",\"0\",\"Testing\",\"Stims/Figures/118-C-20-2.bmp\",\"ta:pata\",\"Up\",\"38\",\"3\",\"23\",\"2\",\"P\",\"J\",\"71\"
\"\",\"\",\"approach-retreat\",\"220\",\"1573748\",\"0.0-220.0\",\"\",\"\",\"3-4\",\"4690\",\"38\",\"1\",\"Testing\",\"Stims/Figures/118-J-0-2.bmp\",\"nama:la\",\"Down\",\"38\",\"3\",\"24\",\"2\",\"S\",\"J\",\"72\"
\"\",\"\",\"approach-retreat\",\"221\",\"1579716\",\"0.0-221.0\",\"\",\"\",\"3-4\",\"4464\",\"37\",\"1\",\"Testing\",\"Stims/Figures/57-J-0-1.bmp\",\"nama:la\",\"Right\",\"37\",\"4\",\"1\",\"2\",\"S\",\"J\",\"73\"
\"\",\"\",\"approach-retreat\",\"222\",\"1585876\",\"0.0-222.0\",\"\",\"\",\"3-4\",\"4655\",\"40\",\"1\",\"Testing\",\"Stims/Figures/71-J-0-1.bmp\",\"nama:la\",\"Up\",\"40\",\"4\",\"2\",\"2\",\"S\",\"J\",\"74\"
\"\",\"\",\"approach-retreat\",\"223\",\"1592307\",\"0.0-223.0\",\"\",\"\",\"3-4\",\"4928\",\"39\",\"0\",\"Testing\",\"Stims/Figures/100-J-10-3.bmp\",\"nama:la\",\"Right\",\"37\",\"4\",\"3\",\"2\",\"S\",\"J\",\"75\"
\"\",\"\",\"approach-retreat\",\"224\",\"1597764\",\"0.0-224.0\",\"\",\"\",\"3-4\",\"3953\",\"39\",\"0\",\"Testing\",\"Stims/Figures/93-C-30-1.bmp\",\"ta:pata\",\"Left\",\"37\",\"4\",\"4\",\"2\",\"P\",\"J\",\"76\"
\"\",\"\",\"approach-retreat\",\"225\",\"1602867\",\"0.0-225.0\",\"\",\"\",\"3-4\",\"3601\",\"37\",\"0\",\"Testing\",\"Stims/Figures/128-C-30-3.bmp\",\"ta:pata\",\"Right\",\"39\",\"4\",\"5\",\"2\",\"P\",\"J\",\"77\"
\"\",\"\",\"approach-retreat\",\"226\",\"1608564\",\"0.0-226.0\",\"\",\"\",\"3-4\",\"4192\",\"39\",\"1\",\"Testing\",\"Stims/Figures/111-J-10-3.bmp\",\"nama:la\",\"Left\",\"39\",\"4\",\"6\",\"2\",\"S\",\"J\",\"78\"
\"\",\"\",\"approach-retreat\",\"227\",\"1613573\",\"0.0-227.0\",\"\",\"\",\"3-4\",\"3507\",\"38\",\"0\",\"Testing\",\"Stims/Figures/85-C-20-2.bmp\",\"ta:pata\",\"Down\",\"40\",\"4\",\"7\",\"2\",\"P\",\"J\",\"79\"
\"\",\"\",\"approach-retreat\",\"228\",\"1618643\",\"0.0-228.0\",\"\",\"\",\"3-4\",\"3566\",\"38\",\"1\",\"Testing\",\"Stims/Figures/57-C-30-1.bmp\",\"ta:pata\",\"Up\",\"38\",\"4\",\"8\",\"2\",\"P\",\"J\",\"80\"
\"\",\"\",\"approach-retreat\",\"229\",\"1624291\",\"0.0-229.0\",\"\",\"\",\"3-4\",\"4144\",\"38\",\"0\",\"Testing\",\"Stims/Figures/87-C-20-4.bmp\",\"ta:pata\",\"Down\",\"40\",\"4\",\"9\",\"2\",\"P\",\"J\",\"81\"
\"\",\"\",\"approach-retreat\",\"230\",\"1630019\",\"0.0-230.0\",\"\",\"\",\"3-4\",\"4223\",\"40\",\"0\",\"Testing\",\"Stims/Figures/111-C-30-3.bmp\",\"ta:pata\",\"Up\",\"38\",\"4\",\"10\",\"2\",\"P\",\"J\",\"82\"
\"\",\"\",\"approach-retreat\",\"231\",\"1635187\",\"0.0-231.0\",\"\",\"\",\"3-4\",\"3664\",\"39\",\"1\",\"Testing\",\"Stims/Figures/84-C-20-2.bmp\",\"ta:pata\",\"Right\",\"39\",\"4\",\"11\",\"2\",\"P\",\"J\",\"83\"
\"\",\"\",\"approach-retreat\",\"232\",\"1640723\",\"0.0-232.0\",\"\",\"\",\"3-4\",\"4032\",\"38\",\"0\",\"Testing\",\"Stims/Figures/100-C-30-3.bmp\",\"ta:pata\",\"Down\",\"40\",\"4\",\"12\",\"2\",\"P\",\"J\",\"84\"
\"\",\"\",\"approach-retreat\",\"233\",\"1646420\",\"0.0-233.0\",\"\",\"\",\"3-4\",\"4193\",\"38\",\"0\",\"Testing\",\"Stims/Figures/87-J-10-4.bmp\",\"nama:la\",\"Up\",\"40\",\"4\",\"13\",\"2\",\"S\",\"J\",\"85\"
\"\",\"\",\"approach-retreat\",\"234\",\"1651907\",\"0.0-234.0\",\"\",\"\",\"3-4\",\"3983\",\"39\",\"1\",\"Testing\",\"Stims/Figures/102-J-10-4.bmp\",\"nama:la\",\"Left\",\"39\",\"4\",\"14\",\"2\",\"S\",\"J\",\"86\"
\"\",\"\",\"approach-retreat\",\"235\",\"1657524\",\"0.0-235.0\",\"\",\"\",\"3-4\",\"4114\",\"40\",\"0\",\"Testing\",\"Stims/Figures/102-C-20-4.bmp\",\"ta:pata\",\"Up\",\"38\",\"4\",\"15\",\"2\",\"P\",\"J\",\"87\"
\"\",\"\",\"approach-retreat\",\"236\",\"1663588\",\"0.0-236.0\",\"\",\"\",\"3-4\",\"4561\",\"38\",\"1\",\"Testing\",\"Stims/Figures/84-J-0-2.bmp\",\"nama:la\",\"Down\",\"38\",\"4\",\"16\",\"2\",\"S\",\"J\",\"88\"
\"\",\"\",\"approach-retreat\",\"237\",\"1669091\",\"0.0-237.0\",\"\",\"\",\"3-4\",\"3998\",\"38\",\"1\",\"Testing\",\"Stims/Figures/19-J-10-4.bmp\",\"nama:la\",\"Down\",\"38\",\"4\",\"17\",\"2\",\"S\",\"J\",\"89\"
\"\",\"\",\"approach-retreat\",\"238\",\"1674627\",\"0.0-238.0\",\"\",\"\",\"3-4\",\"4033\",\"39\",\"0\",\"Testing\",\"Stims/Figures/118-C-20-2.bmp\",\"ta:pata\",\"Left\",\"37\",\"4\",\"18\",\"2\",\"P\",\"J\",\"90\"
\"\",\"\",\"approach-retreat\",\"239\",\"1680627\",\"0.0-239.0\",\"\",\"\",\"3-4\",\"4495\",\"39\",\"1\",\"Testing\",\"Stims/Figures/118-J-0-2.bmp\",\"nama:la\",\"Left\",\"39\",\"4\",\"19\",\"2\",\"S\",\"J\",\"91\"
\"\",\"\",\"approach-retreat\",\"240\",\"1686291\",\"0.0-240.0\",\"\",\"\",\"3-4\",\"4160\",\"38\",\"1\",\"Testing\",\"Stims/Figures/93-J-0-1.bmp\",\"nama:la\",\"Down\",\"38\",\"4\",\"20\",\"2\",\"S\",\"J\",\"92\"
\"\",\"\",\"approach-retreat\",\"241\",\"1692387\",\"0.0-241.0\",\"\",\"\",\"3-4\",\"4591\",\"39\",\"0\",\"Testing\",\"Stims/Figures/128-J-10-3.bmp\",\"nama:la\",\"Right\",\"37\",\"4\",\"21\",\"2\",\"S\",\"J\",\"93\"
\"\",\"\",\"approach-retreat\",\"242\",\"1697844\",\"0.0-242.0\",\"\",\"\",\"3-4\",\"3953\",\"39\",\"0\",\"Testing\",\"Stims/Figures/71-C-30-1.bmp\",\"ta:pata\",\"Left\",\"37\",\"4\",\"22\",\"2\",\"P\",\"J\",\"94\"
\"\",\"\",\"approach-retreat\",\"243\",\"1705539\",\"0.0-243.0\",\"\",\"\",\"3-4\",\"6192\",\"40\",\"1\",\"Testing\",\"Stims/Figures/85-J-0-2.bmp\",\"nama:la\",\"Up\",\"40\",\"4\",\"23\",\"2\",\"S\",\"J\",\"95\"
\"\",\"\",\"approach-retreat\",\"244\",\"1711204\",\"0.0-244.0\",\"\",\"\",\"3-4\",\"4161\",\"37\",\"0\",\"Testing\",\"Stims/Figures/19-C-20-4.bmp\",\"ta:pata\",\"Right\",\"39\",\"4\",\"24\",\"2\",\"P\",\"J\",\"96\"
\"64939\",\"\",\"survey-text\",\"245\",\"1776146\",\"0.0-245.0\",\"\",\"{\"\"Q0\"\":\"\"1279/17\"\"}\",\"\",\"\",\"\",\"\",\"\",\"\",\"\",\"\",\"\",\"\",\"\",\"\",\"\",\"\",\"\"
