\"rt\",\"key_press\",\"trial_type\",\"trial_index\",\"time_elapsed\",\"internal_node_id\",\"view_history\",\"responses\",\"Id\",\"Rt\",\"ResKeyCode\",\"ResCorr\",\"TrialType2\",\"Image\",\"Label\",\"Location\",\"CorrectResponse\",\"Block\",\"BlockTrial\",\"Condition\",\"LabelType\",\"Subcondition\",\"trialNum\"
\"74932\",\"32\",\"text\",\"0\",\"74945\",\"0.0-0.0-0.0\",\"\",\"\",\"\",\"\",\"\",\"\",\"\",\"\",\"\",\"\",\"\",\"\",\"\",\"\",\"\",\"\",\"\"
\"60431\",\"\",\"instructions\",\"1\",\"135388\",\"0.0-1.0\",\"[{\"\"page_index\"\":0,\"\"viewing_time\"\":60428}]\",\"\",\"\",\"\",\"\",\"\",\"\",\"\",\"\",\"\",\"\",\"\",\"\",\"\",\"\",\"\",\"\"
\"32084\",\"\",\"survey-multi-choice\",\"2\",\"167546\",\"0.0-2.0\",\"\",\"{\"\"Q0\"\":\"\"Da\"\",\"\"Q1\"\":\"\"Da\"\",\"\"Q2\"\":\"\"Da\"\",\"\"Q3\"\":\"\"Da\"\",\"\"Q4\"\":\"\"Da\"\",\"\"Q5\"\":\"\"Da\"\"}\",\"\",\"\",\"\",\"\",\"\",\"\",\"\",\"\",\"\",\"\",\"\",\"\",\"\",\"\",\"\"
\"\",\"\",\"bio\",\"3\",\"177541\",\"0.0-3.0\",\"\",\"{\"\"age\"\":\"\"24\"\",\"\"gender\"\":\"\"m\"\",\"\"specify\"\":\"\"\"\"}\",\"\",\"\",\"\",\"\",\"\",\"\",\"\",\"\",\"\",\"\",\"\",\"\",\"\",\"\",\"\"
\"\",\"\",\"approach-retreat\",\"4\",\"184230\",\"0.0-4.0\",\"\",\"\",\"1-2\",\"5150\",\"40\",\"1\",\"Training\",\"Stims/Figures/128-J-10-3.bmp\",\"ma:ma:na\",\"Up\",\"40\",\"1\",\"1\",\"7\",\"S\",\"J\",\"1\"
\"\",\"\",\"approach-retreat\",\"5\",\"190281\",\"0.0-5.0\",\"\",\"\",\"1-2\",\"4526\",\"37\",\"0\",\"Training\",\"Stims/Figures/74-J-10-4.bmp\",\"nala:la\",\"Left\",\"39\",\"1\",\"2\",\"7\",\"S\",\"J\",\"2\"
\"\",\"\",\"approach-retreat\",\"6\",\"197888\",\"0.0-6.0\",\"\",\"\",\"1-2\",\"6065\",\"37\",\"1\",\"Training\",\"Stims/Figures/139-J-0-2.bmp\",\"ta:ka:ta\",\"Right\",\"37\",\"1\",\"3\",\"7\",\"P\",\"J\",\"3\"
\"\",\"\",\"approach-retreat\",\"7\",\"203523\",\"0.0-7.0\",\"\",\"\",\"1-2\",\"4092\",\"37\",\"0\",\"Training\",\"Stims/Figures/111-C-30-3.bmp\",\"na:ma:na\",\"Right\",\"39\",\"1\",\"4\",\"7\",\"S\",\"J\",\"4\"
\"\",\"\",\"approach-retreat\",\"8\",\"209178\",\"0.0-8.0\",\"\",\"\",\"1-2\",\"4115\",\"39\",\"0\",\"Training\",\"Stims/Figures/57-J-0-1.bmp\",\"pa:pa:ka\",\"Right\",\"37\",\"1\",\"5\",\"7\",\"P\",\"J\",\"5\"
\"\",\"\",\"approach-retreat\",\"9\",\"214932\",\"0.0-9.0\",\"\",\"\",\"1-2\",\"4217\",\"40\",\"1\",\"Training\",\"Stims/Figures/139-C-20-2.bmp\",\"takaka\",\"Down\",\"40\",\"1\",\"6\",\"7\",\"P\",\"J\",\"6\"
\"\",\"\",\"approach-retreat\",\"10\",\"221061\",\"0.0-10.0\",\"\",\"\",\"1-2\",\"4581\",\"39\",\"0\",\"Training\",\"Stims/Figures/128-C-30-3.bmp\",\"ma:la:la\",\"Left\",\"37\",\"1\",\"7\",\"7\",\"S\",\"J\",\"7\"
\"\",\"\",\"approach-retreat\",\"11\",\"227202\",\"0.0-11.0\",\"\",\"\",\"1-2\",\"4595\",\"39\",\"0\",\"Training\",\"Stims/Figures/74-C-20-4.bmp\",\"namana\",\"Left\",\"37\",\"1\",\"8\",\"7\",\"S\",\"J\",\"8\"
\"\",\"\",\"approach-retreat\",\"12\",\"232913\",\"0.0-12.0\",\"\",\"\",\"1-2\",\"4166\",\"38\",\"0\",\"Training\",\"Stims/Figures/102-J-10-4.bmp\",\"malana\",\"Up\",\"40\",\"1\",\"9\",\"7\",\"S\",\"J\",\"9\"
\"\",\"\",\"approach-retreat\",\"13\",\"239189\",\"0.0-13.0\",\"\",\"\",\"1-2\",\"4728\",\"39\",\"0\",\"Training\",\"Stims/Figures/27-C-30-1.bmp\",\"papa:ta\",\"Left\",\"37\",\"1\",\"10\",\"7\",\"P\",\"J\",\"10\"
\"\",\"\",\"approach-retreat\",\"14\",\"245488\",\"0.0-14.0\",\"\",\"\",\"1-2\",\"4751\",\"40\",\"1\",\"Training\",\"Stims/Figures/84-C-20-2.bmp\",\"tapata\",\"Down\",\"40\",\"1\",\"11\",\"7\",\"P\",\"J\",\"11\"
\"\",\"\",\"approach-retreat\",\"15\",\"251429\",\"0.0-15.0\",\"\",\"\",\"1-2\",\"4388\",\"37\",\"0\",\"Training\",\"Stims/Figures/57-C-30-1.bmp\",\"ta:pata\",\"Right\",\"39\",\"1\",\"12\",\"7\",\"P\",\"J\",\"12\"
\"\",\"\",\"approach-retreat\",\"16\",\"258053\",\"0.0-16.0\",\"\",\"\",\"1-2\",\"5084\",\"38\",\"0\",\"Training\",\"Stims/Figures/102-C-20-4.bmp\",\"mala:na\",\"Down\",\"40\",\"1\",\"13\",\"7\",\"S\",\"J\",\"13\"
\"\",\"\",\"approach-retreat\",\"17\",\"264290\",\"0.0-17.0\",\"\",\"\",\"1-2\",\"4695\",\"40\",\"1\",\"Training\",\"Stims/Figures/111-J-10-3.bmp\",\"mamala\",\"Up\",\"40\",\"1\",\"14\",\"7\",\"S\",\"J\",\"14\"
\"\",\"\",\"approach-retreat\",\"18\",\"269937\",\"0.0-18.0\",\"\",\"\",\"1-2\",\"4105\",\"40\",\"0\",\"Training\",\"Stims/Figures/84-J-0-2.bmp\",\"ta:kata\",\"Down\",\"38\",\"1\",\"15\",\"7\",\"P\",\"J\",\"15\"
\"\",\"\",\"approach-retreat\",\"19\",\"276126\",\"0.0-19.0\",\"\",\"\",\"1-2\",\"4645\",\"38\",\"0\",\"Training\",\"Stims/Figures/27-J-0-1.bmp\",\"papata\",\"Up\",\"40\",\"1\",\"16\",\"7\",\"P\",\"J\",\"16\"
\"\",\"\",\"approach-retreat\",\"20\",\"283058\",\"0.0-20.0\",\"\",\"\",\"1-2\",\"5383\",\"39\",\"0\",\"Training\",\"Stims/Figures/57-C-30-1.bmp\",\"ta:pata\",\"Left\",\"37\",\"2\",\"1\",\"7\",\"P\",\"J\",\"17\"
\"\",\"\",\"approach-retreat\",\"21\",\"289328\",\"0.0-21.0\",\"\",\"\",\"1-2\",\"4731\",\"39\",\"0\",\"Training\",\"Stims/Figures/27-J-0-1.bmp\",\"papata\",\"Right\",\"37\",\"2\",\"2\",\"7\",\"P\",\"J\",\"18\"
\"\",\"\",\"approach-retreat\",\"22\",\"295365\",\"0.0-22.0\",\"\",\"\",\"1-2\",\"4498\",\"40\",\"1\",\"Training\",\"Stims/Figures/84-J-0-2.bmp\",\"ta:kata\",\"Up\",\"40\",\"2\",\"3\",\"7\",\"P\",\"J\",\"19\"
\"\",\"\",\"approach-retreat\",\"23\",\"302686\",\"0.0-23.0\",\"\",\"\",\"1-2\",\"5811\",\"40\",\"1\",\"Training\",\"Stims/Figures/74-J-10-4.bmp\",\"nala:la\",\"Up\",\"40\",\"2\",\"4\",\"7\",\"S\",\"J\",\"20\"
\"\",\"\",\"approach-retreat\",\"24\",\"308286\",\"0.0-24.0\",\"\",\"\",\"1-2\",\"4078\",\"40\",\"0\",\"Training\",\"Stims/Figures/128-J-10-3.bmp\",\"ma:ma:na\",\"Down\",\"38\",\"2\",\"5\",\"7\",\"S\",\"J\",\"21\"
\"\",\"\",\"approach-retreat\",\"25\",\"315082\",\"0.0-25.0\",\"\",\"\",\"1-2\",\"5280\",\"40\",\"1\",\"Training\",\"Stims/Figures/74-C-20-4.bmp\",\"namana\",\"Down\",\"40\",\"2\",\"6\",\"7\",\"S\",\"J\",\"22\"
\"\",\"\",\"approach-retreat\",\"26\",\"320700\",\"0.0-26.0\",\"\",\"\",\"1-2\",\"4093\",\"37\",\"0\",\"Training\",\"Stims/Figures/139-J-0-2.bmp\",\"ta:ka:ta\",\"Left\",\"39\",\"2\",\"7\",\"7\",\"P\",\"J\",\"23\"
\"\",\"\",\"approach-retreat\",\"27\",\"326483\",\"0.0-27.0\",\"\",\"\",\"1-2\",\"4259\",\"38\",\"1\",\"Training\",\"Stims/Figures/102-C-20-4.bmp\",\"mala:na\",\"Up\",\"38\",\"2\",\"8\",\"7\",\"S\",\"J\",\"24\"
\"\",\"\",\"approach-retreat\",\"28\",\"332136\",\"0.0-28.0\",\"\",\"\",\"1-2\",\"4109\",\"40\",\"0\",\"Training\",\"Stims/Figures/102-J-10-4.bmp\",\"malana\",\"Down\",\"38\",\"2\",\"9\",\"7\",\"S\",\"J\",\"25\"
\"\",\"\",\"approach-retreat\",\"29\",\"339241\",\"0.0-29.0\",\"\",\"\",\"1-2\",\"5557\",\"39\",\"0\",\"Training\",\"Stims/Figures/128-C-30-3.bmp\",\"ma:la:la\",\"Left\",\"37\",\"2\",\"10\",\"7\",\"S\",\"J\",\"26\"
\"\",\"\",\"approach-retreat\",\"30\",\"345259\",\"0.0-30.0\",\"\",\"\",\"1-2\",\"4466\",\"40\",\"1\",\"Training\",\"Stims/Figures/139-C-20-2.bmp\",\"takaka\",\"Down\",\"40\",\"2\",\"11\",\"7\",\"P\",\"J\",\"27\"
\"\",\"\",\"approach-retreat\",\"31\",\"351652\",\"0.0-31.0\",\"\",\"\",\"1-2\",\"4847\",\"37\",\"1\",\"Training\",\"Stims/Figures/57-J-0-1.bmp\",\"pa:pa:ka\",\"Right\",\"37\",\"2\",\"12\",\"7\",\"P\",\"J\",\"28\"
\"\",\"\",\"approach-retreat\",\"32\",\"357531\",\"0.0-32.0\",\"\",\"\",\"1-2\",\"4330\",\"37\",\"1\",\"Training\",\"Stims/Figures/27-C-30-1.bmp\",\"papa:ta\",\"Left\",\"37\",\"2\",\"13\",\"7\",\"P\",\"J\",\"29\"
\"\",\"\",\"approach-retreat\",\"33\",\"365262\",\"0.0-33.0\",\"\",\"\",\"1-2\",\"6180\",\"37\",\"0\",\"Training\",\"Stims/Figures/111-C-30-3.bmp\",\"na:ma:na\",\"Right\",\"39\",\"2\",\"14\",\"7\",\"S\",\"J\",\"30\"
\"\",\"\",\"approach-retreat\",\"34\",\"371988\",\"0.0-34.0\",\"\",\"\",\"1-2\",\"5177\",\"38\",\"0\",\"Training\",\"Stims/Figures/111-J-10-3.bmp\",\"mamala\",\"Up\",\"40\",\"2\",\"15\",\"7\",\"S\",\"J\",\"31\"
\"\",\"\",\"approach-retreat\",\"35\",\"377529\",\"0.0-35.0\",\"\",\"\",\"1-2\",\"4004\",\"37\",\"0\",\"Training\",\"Stims/Figures/84-C-20-2.bmp\",\"tapata\",\"Right\",\"39\",\"2\",\"16\",\"7\",\"P\",\"J\",\"32\"
\"\",\"\",\"approach-retreat\",\"36\",\"383968\",\"0.0-36.0\",\"\",\"\",\"1-2\",\"4895\",\"38\",\"0\",\"Training\",\"Stims/Figures/128-J-10-3.bmp\",\"ma:ma:na\",\"Up\",\"40\",\"3\",\"1\",\"7\",\"S\",\"J\",\"33\"
\"\",\"\",\"approach-retreat\",\"37\",\"390493\",\"0.0-37.0\",\"\",\"\",\"1-2\",\"4987\",\"37\",\"0\",\"Training\",\"Stims/Figures/139-J-0-2.bmp\",\"ta:ka:ta\",\"Left\",\"39\",\"3\",\"2\",\"7\",\"P\",\"J\",\"34\"
\"\",\"\",\"approach-retreat\",\"38\",\"397703\",\"0.0-38.0\",\"\",\"\",\"1-2\",\"5658\",\"39\",\"1\",\"Training\",\"Stims/Figures/74-C-20-4.bmp\",\"namana\",\"Right\",\"39\",\"3\",\"3\",\"7\",\"S\",\"J\",\"35\"
\"\",\"\",\"approach-retreat\",\"39\",\"403352\",\"0.0-39.0\",\"\",\"\",\"1-2\",\"4096\",\"40\",\"0\",\"Training\",\"Stims/Figures/57-C-30-1.bmp\",\"ta:pata\",\"Up\",\"38\",\"3\",\"4\",\"7\",\"P\",\"J\",\"36\"
\"\",\"\",\"approach-retreat\",\"40\",\"409475\",\"0.0-40.0\",\"\",\"\",\"1-2\",\"4577\",\"37\",\"0\",\"Training\",\"Stims/Figures/111-C-30-3.bmp\",\"na:ma:na\",\"Right\",\"39\",\"3\",\"5\",\"7\",\"S\",\"J\",\"37\"
\"\",\"\",\"approach-retreat\",\"41\",\"415133\",\"0.0-41.0\",\"\",\"\",\"1-2\",\"4107\",\"40\",\"0\",\"Training\",\"Stims/Figures/111-J-10-3.bmp\",\"mamala\",\"Down\",\"38\",\"3\",\"6\",\"7\",\"S\",\"J\",\"38\"
\"\",\"\",\"approach-retreat\",\"42\",\"422005\",\"0.0-42.0\",\"\",\"\",\"1-2\",\"5322\",\"39\",\"0\",\"Training\",\"Stims/Figures/27-J-0-1.bmp\",\"papata\",\"Right\",\"37\",\"3\",\"7\",\"7\",\"P\",\"J\",\"39\"
\"\",\"\",\"approach-retreat\",\"43\",\"429923\",\"0.0-43.0\",\"\",\"\",\"1-2\",\"6381\",\"38\",\"1\",\"Training\",\"Stims/Figures/139-C-20-2.bmp\",\"takaka\",\"Up\",\"38\",\"3\",\"8\",\"7\",\"P\",\"J\",\"40\"
\"\",\"\",\"approach-retreat\",\"44\",\"435585\",\"0.0-44.0\",\"\",\"\",\"1-2\",\"4120\",\"40\",\"1\",\"Training\",\"Stims/Figures/27-C-30-1.bmp\",\"papa:ta\",\"Down\",\"40\",\"3\",\"9\",\"7\",\"P\",\"J\",\"41\"
\"\",\"\",\"approach-retreat\",\"45\",\"443037\",\"0.0-45.0\",\"\",\"\",\"1-2\",\"5914\",\"37\",\"1\",\"Training\",\"Stims/Figures/84-C-20-2.bmp\",\"tapata\",\"Left\",\"37\",\"3\",\"10\",\"7\",\"P\",\"J\",\"42\"
\"\",\"\",\"approach-retreat\",\"46\",\"448698\",\"0.0-46.0\",\"\",\"\",\"1-2\",\"4117\",\"38\",\"1\",\"Training\",\"Stims/Figures/84-J-0-2.bmp\",\"ta:kata\",\"Down\",\"38\",\"3\",\"11\",\"7\",\"P\",\"J\",\"43\"
\"\",\"\",\"approach-retreat\",\"47\",\"456259\",\"0.0-47.0\",\"\",\"\",\"1-2\",\"6016\",\"37\",\"1\",\"Training\",\"Stims/Figures/57-J-0-1.bmp\",\"pa:pa:ka\",\"Right\",\"37\",\"3\",\"12\",\"7\",\"P\",\"J\",\"44\"
\"\",\"\",\"approach-retreat\",\"48\",\"461847\",\"0.0-48.0\",\"\",\"\",\"1-2\",\"4038\",\"37\",\"1\",\"Training\",\"Stims/Figures/128-C-30-3.bmp\",\"ma:la:la\",\"Left\",\"37\",\"3\",\"13\",\"7\",\"S\",\"J\",\"45\"
\"\",\"\",\"approach-retreat\",\"49\",\"467465\",\"0.0-49.0\",\"\",\"\",\"1-2\",\"4074\",\"40\",\"0\",\"Training\",\"Stims/Figures/74-J-10-4.bmp\",\"nala:la\",\"Down\",\"38\",\"3\",\"14\",\"7\",\"S\",\"J\",\"46\"
\"\",\"\",\"approach-retreat\",\"50\",\"473906\",\"0.0-50.0\",\"\",\"\",\"1-2\",\"4896\",\"38\",\"1\",\"Training\",\"Stims/Figures/102-C-20-4.bmp\",\"mala:na\",\"Up\",\"38\",\"3\",\"15\",\"7\",\"S\",\"J\",\"47\"
\"\",\"\",\"approach-retreat\",\"51\",\"479670\",\"0.0-51.0\",\"\",\"\",\"1-2\",\"4217\",\"37\",\"0\",\"Training\",\"Stims/Figures/102-J-10-4.bmp\",\"malana\",\"Left\",\"39\",\"3\",\"16\",\"7\",\"S\",\"J\",\"48\"
\"\",\"\",\"approach-retreat\",\"52\",\"486326\",\"0.0-52.0\",\"\",\"\",\"1-2\",\"5108\",\"37\",\"0\",\"Training\",\"Stims/Figures/74-J-10-4.bmp\",\"nala:la\",\"Left\",\"39\",\"4\",\"1\",\"7\",\"S\",\"J\",\"49\"
\"\",\"\",\"approach-retreat\",\"53\",\"491856\",\"0.0-53.0\",\"\",\"\",\"1-2\",\"3987\",\"37\",\"1\",\"Training\",\"Stims/Figures/139-J-0-2.bmp\",\"ta:ka:ta\",\"Right\",\"37\",\"4\",\"2\",\"7\",\"P\",\"J\",\"50\"
\"\",\"\",\"approach-retreat\",\"54\",\"499164\",\"0.0-54.0\",\"\",\"\",\"1-2\",\"5760\",\"37\",\"0\",\"Training\",\"Stims/Figures/102-J-10-4.bmp\",\"malana\",\"Left\",\"39\",\"4\",\"3\",\"7\",\"S\",\"J\",\"51\"
\"\",\"\",\"approach-retreat\",\"55\",\"504853\",\"0.0-55.0\",\"\",\"\",\"1-2\",\"4151\",\"38\",\"1\",\"Training\",\"Stims/Figures/74-C-20-4.bmp\",\"namana\",\"Up\",\"38\",\"4\",\"4\",\"7\",\"S\",\"J\",\"52\"
\"\",\"\",\"approach-retreat\",\"56\",\"510526\",\"0.0-56.0\",\"\",\"\",\"1-2\",\"4128\",\"38\",\"0\",\"Training\",\"Stims/Figures/111-J-10-3.bmp\",\"mamala\",\"Up\",\"40\",\"4\",\"5\",\"7\",\"S\",\"J\",\"53\"
\"\",\"\",\"approach-retreat\",\"57\",\"517123\",\"0.0-57.0\",\"\",\"\",\"1-2\",\"5057\",\"40\",\"1\",\"Training\",\"Stims/Figures/102-C-20-4.bmp\",\"mala:na\",\"Down\",\"40\",\"4\",\"6\",\"7\",\"S\",\"J\",\"54\"
\"\",\"\",\"approach-retreat\",\"58\",\"522750\",\"0.0-58.0\",\"\",\"\",\"1-2\",\"4083\",\"37\",\"1\",\"Training\",\"Stims/Figures/57-C-30-1.bmp\",\"ta:pata\",\"Left\",\"37\",\"4\",\"7\",\"7\",\"P\",\"J\",\"55\"
\"\",\"\",\"approach-retreat\",\"59\",\"528347\",\"0.0-59.0\",\"\",\"\",\"1-2\",\"4049\",\"39\",\"1\",\"Training\",\"Stims/Figures/57-J-0-1.bmp\",\"pa:pa:ka\",\"Left\",\"39\",\"4\",\"8\",\"7\",\"P\",\"J\",\"56\"
\"\",\"\",\"approach-retreat\",\"60\",\"534801\",\"0.0-60.0\",\"\",\"\",\"1-2\",\"4907\",\"39\",\"1\",\"Training\",\"Stims/Figures/27-C-30-1.bmp\",\"papa:ta\",\"Right\",\"39\",\"4\",\"9\",\"7\",\"P\",\"J\",\"57\"
\"\",\"\",\"approach-retreat\",\"61\",\"542052\",\"0.0-61.0\",\"\",\"\",\"1-2\",\"5711\",\"40\",\"1\",\"Training\",\"Stims/Figures/128-C-30-3.bmp\",\"ma:la:la\",\"Down\",\"40\",\"4\",\"10\",\"7\",\"S\",\"J\",\"58\"
\"\",\"\",\"approach-retreat\",\"62\",\"549490\",\"0.0-62.0\",\"\",\"\",\"1-2\",\"5886\",\"38\",\"1\",\"Training\",\"Stims/Figures/84-J-0-2.bmp\",\"ta:kata\",\"Down\",\"38\",\"4\",\"11\",\"7\",\"P\",\"J\",\"59\"
\"\",\"\",\"approach-retreat\",\"63\",\"555101\",\"0.0-63.0\",\"\",\"\",\"1-2\",\"4086\",\"38\",\"0\",\"Training\",\"Stims/Figures/84-C-20-2.bmp\",\"tapata\",\"Down\",\"40\",\"4\",\"12\",\"7\",\"P\",\"J\",\"60\"
\"\",\"\",\"approach-retreat\",\"64\",\"561283\",\"0.0-64.0\",\"\",\"\",\"1-2\",\"4643\",\"40\",\"0\",\"Training\",\"Stims/Figures/111-C-30-3.bmp\",\"na:ma:na\",\"Up\",\"38\",\"4\",\"13\",\"7\",\"S\",\"J\",\"61\"
\"\",\"\",\"approach-retreat\",\"65\",\"566869\",\"0.0-65.0\",\"\",\"\",\"1-2\",\"4048\",\"39\",\"1\",\"Training\",\"Stims/Figures/139-C-20-2.bmp\",\"takaka\",\"Right\",\"39\",\"4\",\"14\",\"7\",\"P\",\"J\",\"62\"
\"\",\"\",\"approach-retreat\",\"66\",\"574042\",\"0.0-66.0\",\"\",\"\",\"1-2\",\"5634\",\"38\",\"0\",\"Training\",\"Stims/Figures/128-J-10-3.bmp\",\"ma:ma:na\",\"Up\",\"40\",\"4\",\"15\",\"7\",\"S\",\"J\",\"63\"
\"\",\"\",\"approach-retreat\",\"67\",\"579972\",\"0.0-67.0\",\"\",\"\",\"1-2\",\"4386\",\"37\",\"1\",\"Training\",\"Stims/Figures/27-J-0-1.bmp\",\"papata\",\"Right\",\"37\",\"4\",\"16\",\"7\",\"P\",\"J\",\"64\"
\"\",\"\",\"approach-retreat\",\"68\",\"586035\",\"0.0-68.0\",\"\",\"\",\"1-2\",\"4512\",\"40\",\"0\",\"Training\",\"Stims/Figures/111-J-10-3.bmp\",\"mamala\",\"Down\",\"38\",\"5\",\"1\",\"7\",\"S\",\"J\",\"65\"
\"\",\"\",\"approach-retreat\",\"69\",\"595770\",\"0.0-69.0\",\"\",\"\",\"1-2\",\"8184\",\"38\",\"0\",\"Training\",\"Stims/Figures/84-C-20-2.bmp\",\"tapata\",\"Down\",\"40\",\"5\",\"2\",\"7\",\"P\",\"J\",\"66\"
\"\",\"\",\"approach-retreat\",\"70\",\"606485\",\"0.0-70.0\",\"\",\"\",\"1-2\",\"9172\",\"39\",\"1\",\"Training\",\"Stims/Figures/57-C-30-1.bmp\",\"ta:pata\",\"Right\",\"39\",\"5\",\"3\",\"7\",\"P\",\"J\",\"67\"
\"\",\"\",\"approach-retreat\",\"71\",\"612344\",\"0.0-71.0\",\"\",\"\",\"1-2\",\"4313\",\"40\",\"0\",\"Training\",\"Stims/Figures/111-C-30-3.bmp\",\"na:ma:na\",\"Up\",\"38\",\"5\",\"4\",\"7\",\"S\",\"J\",\"68\"
\"\",\"\",\"approach-retreat\",\"72\",\"621483\",\"0.0-72.0\",\"\",\"\",\"1-2\",\"7606\",\"37\",\"1\",\"Training\",\"Stims/Figures/57-J-0-1.bmp\",\"pa:pa:ka\",\"Right\",\"37\",\"5\",\"5\",\"7\",\"P\",\"J\",\"69\"
\"\",\"\",\"approach-retreat\",\"73\",\"629028\",\"0.0-73.0\",\"\",\"\",\"1-2\",\"5999\",\"39\",\"1\",\"Training\",\"Stims/Figures/128-J-10-3.bmp\",\"ma:ma:na\",\"Left\",\"39\",\"5\",\"6\",\"7\",\"S\",\"J\",\"70\"
\"\",\"\",\"approach-retreat\",\"74\",\"634849\",\"0.0-74.0\",\"\",\"\",\"1-2\",\"4289\",\"39\",\"1\",\"Training\",\"Stims/Figures/139-J-0-2.bmp\",\"ta:ka:ta\",\"Left\",\"39\",\"5\",\"7\",\"7\",\"P\",\"J\",\"71\"
\"\",\"\",\"approach-retreat\",\"75\",\"640541\",\"0.0-75.0\",\"\",\"\",\"1-2\",\"4141\",\"38\",\"0\",\"Training\",\"Stims/Figures/74-J-10-4.bmp\",\"nala:la\",\"Up\",\"40\",\"5\",\"8\",\"7\",\"S\",\"J\",\"72\"
\"\",\"\",\"approach-retreat\",\"76\",\"647855\",\"0.0-76.0\",\"\",\"\",\"1-2\",\"5785\",\"39\",\"1\",\"Training\",\"Stims/Figures/139-C-20-2.bmp\",\"takaka\",\"Right\",\"39\",\"5\",\"9\",\"7\",\"P\",\"J\",\"73\"
\"\",\"\",\"approach-retreat\",\"77\",\"653481\",\"0.0-77.0\",\"\",\"\",\"1-2\",\"4086\",\"40\",\"0\",\"Training\",\"Stims/Figures/27-C-30-1.bmp\",\"papa:ta\",\"Up\",\"38\",\"5\",\"10\",\"7\",\"P\",\"J\",\"74\"
\"\",\"\",\"approach-retreat\",\"78\",\"661143\",\"0.0-78.0\",\"\",\"\",\"1-2\",\"6117\",\"40\",\"1\",\"Training\",\"Stims/Figures/128-C-30-3.bmp\",\"ma:la:la\",\"Down\",\"40\",\"5\",\"11\",\"7\",\"S\",\"J\",\"75\"
\"\",\"\",\"approach-retreat\",\"79\",\"667464\",\"0.0-79.0\",\"\",\"\",\"1-2\",\"4800\",\"39\",\"1\",\"Training\",\"Stims/Figures/102-J-10-4.bmp\",\"malana\",\"Left\",\"39\",\"5\",\"12\",\"7\",\"S\",\"J\",\"76\"
\"\",\"\",\"approach-retreat\",\"80\",\"674079\",\"0.0-80.0\",\"\",\"\",\"1-2\",\"5065\",\"38\",\"0\",\"Training\",\"Stims/Figures/102-C-20-4.bmp\",\"mala:na\",\"Down\",\"40\",\"5\",\"13\",\"7\",\"S\",\"J\",\"77\"
\"\",\"\",\"approach-retreat\",\"81\",\"680202\",\"0.0-81.0\",\"\",\"\",\"1-2\",\"4572\",\"39\",\"1\",\"Training\",\"Stims/Figures/27-J-0-1.bmp\",\"papata\",\"Left\",\"39\",\"5\",\"14\",\"7\",\"P\",\"J\",\"78\"
\"\",\"\",\"approach-retreat\",\"82\",\"686039\",\"0.0-82.0\",\"\",\"\",\"1-2\",\"4291\",\"39\",\"0\",\"Training\",\"Stims/Figures/84-J-0-2.bmp\",\"ta:kata\",\"Right\",\"37\",\"5\",\"15\",\"7\",\"P\",\"J\",\"79\"
\"\",\"\",\"approach-retreat\",\"83\",\"691641\",\"0.0-83.0\",\"\",\"\",\"1-2\",\"4065\",\"38\",\"1\",\"Training\",\"Stims/Figures/74-C-20-4.bmp\",\"namana\",\"Up\",\"38\",\"5\",\"16\",\"7\",\"S\",\"J\",\"80\"
\"\",\"\",\"approach-retreat\",\"84\",\"697801\",\"0.0-84.0\",\"\",\"\",\"1-2\",\"4607\",\"40\",\"0\",\"Training\",\"Stims/Figures/111-C-30-3.bmp\",\"na:ma:na\",\"Up\",\"38\",\"6\",\"1\",\"7\",\"S\",\"J\",\"81\"
\"\",\"\",\"approach-retreat\",\"85\",\"704298\",\"0.0-85.0\",\"\",\"\",\"1-2\",\"4952\",\"40\",\"1\",\"Training\",\"Stims/Figures/139-C-20-2.bmp\",\"takaka\",\"Down\",\"40\",\"6\",\"2\",\"7\",\"P\",\"J\",\"82\"
\"\",\"\",\"approach-retreat\",\"86\",\"710071\",\"0.0-86.0\",\"\",\"\",\"1-2\",\"4226\",\"37\",\"0\",\"Training\",\"Stims/Figures/27-C-30-1.bmp\",\"papa:ta\",\"Right\",\"39\",\"6\",\"3\",\"7\",\"P\",\"J\",\"83\"
\"\",\"\",\"approach-retreat\",\"87\",\"716212\",\"0.0-87.0\",\"\",\"\",\"1-2\",\"4592\",\"39\",\"0\",\"Training\",\"Stims/Figures/84-C-20-2.bmp\",\"tapata\",\"Left\",\"37\",\"6\",\"4\",\"7\",\"P\",\"J\",\"84\"
\"\",\"\",\"approach-retreat\",\"88\",\"721879\",\"0.0-88.0\",\"\",\"\",\"1-2\",\"4118\",\"40\",\"0\",\"Training\",\"Stims/Figures/111-J-10-3.bmp\",\"mamala\",\"Down\",\"38\",\"6\",\"5\",\"7\",\"S\",\"J\",\"85\"
\"\",\"\",\"approach-retreat\",\"89\",\"729449\",\"0.0-89.0\",\"\",\"\",\"1-2\",\"6027\",\"39\",\"0\",\"Training\",\"Stims/Figures/74-J-10-4.bmp\",\"nala:la\",\"Right\",\"37\",\"6\",\"6\",\"7\",\"S\",\"J\",\"86\"
\"\",\"\",\"approach-retreat\",\"90\",\"737601\",\"0.0-90.0\",\"\",\"\",\"1-2\",\"6617\",\"37\",\"0\",\"Training\",\"Stims/Figures/102-C-20-4.bmp\",\"mala:na\",\"Right\",\"39\",\"6\",\"7\",\"7\",\"S\",\"J\",\"87\"
\"\",\"\",\"approach-retreat\",\"91\",\"743336\",\"0.0-91.0\",\"\",\"\",\"1-2\",\"4193\",\"40\",\"0\",\"Training\",\"Stims/Figures/27-J-0-1.bmp\",\"papata\",\"Down\",\"38\",\"6\",\"8\",\"7\",\"P\",\"J\",\"88\"
\"\",\"\",\"approach-retreat\",\"92\",\"748965\",\"0.0-92.0\",\"\",\"\",\"1-2\",\"4083\",\"40\",\"0\",\"Training\",\"Stims/Figures/57-C-30-1.bmp\",\"ta:pata\",\"Up\",\"38\",\"6\",\"9\",\"7\",\"P\",\"J\",\"89\"
\"\",\"\",\"approach-retreat\",\"93\",\"754630\",\"0.0-93.0\",\"\",\"\",\"1-2\",\"4124\",\"37\",\"1\",\"Training\",\"Stims/Figures/128-C-30-3.bmp\",\"ma:la:la\",\"Left\",\"37\",\"6\",\"10\",\"7\",\"S\",\"J\",\"90\"
\"\",\"\",\"approach-retreat\",\"94\",\"760727\",\"0.0-94.0\",\"\",\"\",\"1-2\",\"4585\",\"37\",\"1\",\"Training\",\"Stims/Figures/74-C-20-4.bmp\",\"namana\",\"Left\",\"37\",\"6\",\"11\",\"7\",\"S\",\"J\",\"91\"
\"\",\"\",\"approach-retreat\",\"95\",\"766277\",\"0.0-95.0\",\"\",\"\",\"1-2\",\"4014\",\"38\",\"1\",\"Training\",\"Stims/Figures/57-J-0-1.bmp\",\"pa:pa:ka\",\"Down\",\"38\",\"6\",\"12\",\"7\",\"P\",\"J\",\"92\"
\"\",\"\",\"approach-retreat\",\"96\",\"771880\",\"0.0-96.0\",\"\",\"\",\"1-2\",\"4059\",\"40\",\"1\",\"Training\",\"Stims/Figures/139-J-0-2.bmp\",\"ta:ka:ta\",\"Up\",\"40\",\"6\",\"13\",\"7\",\"P\",\"J\",\"93\"
\"\",\"\",\"approach-retreat\",\"97\",\"780044\",\"0.0-97.0\",\"\",\"\",\"1-2\",\"6614\",\"37\",\"0\",\"Training\",\"Stims/Figures/128-J-10-3.bmp\",\"ma:ma:na\",\"Left\",\"39\",\"6\",\"14\",\"7\",\"S\",\"J\",\"94\"
\"\",\"\",\"approach-retreat\",\"98\",\"785638\",\"0.0-98.0\",\"\",\"\",\"1-2\",\"4051\",\"37\",\"1\",\"Training\",\"Stims/Figures/84-J-0-2.bmp\",\"ta:kata\",\"Right\",\"37\",\"6\",\"15\",\"7\",\"P\",\"J\",\"95\"
\"\",\"\",\"approach-retreat\",\"99\",\"791257\",\"0.0-99.0\",\"\",\"\",\"1-2\",\"4071\",\"40\",\"1\",\"Training\",\"Stims/Figures/102-J-10-4.bmp\",\"malana\",\"Up\",\"40\",\"6\",\"16\",\"7\",\"S\",\"J\",\"96\"
\"\",\"\",\"approach-retreat\",\"100\",\"796994\",\"0.0-100.0\",\"\",\"\",\"1-2\",\"4191\",\"37\",\"1\",\"Training\",\"Stims/Figures/84-J-0-2.bmp\",\"ta:kata\",\"Right\",\"37\",\"7\",\"1\",\"7\",\"P\",\"J\",\"97\"
\"\",\"\",\"approach-retreat\",\"101\",\"802524\",\"0.0-101.0\",\"\",\"\",\"1-2\",\"3987\",\"37\",\"1\",\"Training\",\"Stims/Figures/102-J-10-4.bmp\",\"malana\",\"Right\",\"37\",\"7\",\"2\",\"7\",\"S\",\"J\",\"98\"
\"\",\"\",\"approach-retreat\",\"102\",\"808151\",\"0.0-102.0\",\"\",\"\",\"1-2\",\"4111\",\"40\",\"1\",\"Training\",\"Stims/Figures/74-C-20-4.bmp\",\"namana\",\"Down\",\"40\",\"7\",\"3\",\"7\",\"S\",\"J\",\"99\"
\"\",\"\",\"approach-retreat\",\"103\",\"813767\",\"0.0-103.0\",\"\",\"\",\"1-2\",\"4071\",\"38\",\"0\",\"Training\",\"Stims/Figures/128-J-10-3.bmp\",\"ma:ma:na\",\"Up\",\"40\",\"7\",\"4\",\"7\",\"S\",\"J\",\"100\"
\"\",\"\",\"approach-retreat\",\"104\",\"819299\",\"0.0-104.0\",\"\",\"\",\"1-2\",\"3984\",\"39\",\"0\",\"Training\",\"Stims/Figures/84-C-20-2.bmp\",\"tapata\",\"Left\",\"37\",\"7\",\"5\",\"7\",\"P\",\"J\",\"101\"
\"\",\"\",\"approach-retreat\",\"105\",\"824872\",\"0.0-105.0\",\"\",\"\",\"1-2\",\"4032\",\"40\",\"1\",\"Training\",\"Stims/Figures/57-J-0-1.bmp\",\"pa:pa:ka\",\"Up\",\"40\",\"7\",\"6\",\"7\",\"P\",\"J\",\"102\"
\"\",\"\",\"approach-retreat\",\"106\",\"830394\",\"0.0-106.0\",\"\",\"\",\"1-2\",\"3976\",\"39\",\"1\",\"Training\",\"Stims/Figures/139-J-0-2.bmp\",\"ta:ka:ta\",\"Left\",\"39\",\"7\",\"7\",\"7\",\"P\",\"J\",\"103\"
\"\",\"\",\"approach-retreat\",\"107\",\"835974\",\"0.0-107.0\",\"\",\"\",\"1-2\",\"4032\",\"38\",\"0\",\"Training\",\"Stims/Figures/57-C-30-1.bmp\",\"ta:pata\",\"Down\",\"40\",\"7\",\"8\",\"7\",\"P\",\"J\",\"104\"
\"\",\"\",\"approach-retreat\",\"108\",\"841543\",\"0.0-108.0\",\"\",\"\",\"1-2\",\"4032\",\"39\",\"1\",\"Training\",\"Stims/Figures/139-C-20-2.bmp\",\"takaka\",\"Right\",\"39\",\"7\",\"9\",\"7\",\"P\",\"J\",\"105\"
\"\",\"\",\"approach-retreat\",\"109\",\"847168\",\"0.0-109.0\",\"\",\"\",\"1-2\",\"4080\",\"40\",\"0\",\"Training\",\"Stims/Figures/111-J-10-3.bmp\",\"mamala\",\"Down\",\"38\",\"7\",\"10\",\"7\",\"S\",\"J\",\"106\"
\"\",\"\",\"approach-retreat\",\"110\",\"852726\",\"0.0-110.0\",\"\",\"\",\"1-2\",\"4019\",\"40\",\"0\",\"Training\",\"Stims/Figures/74-J-10-4.bmp\",\"nala:la\",\"Down\",\"38\",\"7\",\"11\",\"7\",\"S\",\"J\",\"107\"
\"\",\"\",\"approach-retreat\",\"111\",\"858509\",\"0.0-111.0\",\"\",\"\",\"1-2\",\"4241\",\"40\",\"0\",\"Training\",\"Stims/Figures/27-C-30-1.bmp\",\"papa:ta\",\"Up\",\"38\",\"7\",\"12\",\"7\",\"P\",\"J\",\"108\"
\"\",\"\",\"approach-retreat\",\"112\",\"864175\",\"0.0-112.0\",\"\",\"\",\"1-2\",\"4124\",\"39\",\"1\",\"Training\",\"Stims/Figures/111-C-30-3.bmp\",\"na:ma:na\",\"Right\",\"39\",\"7\",\"13\",\"7\",\"S\",\"J\",\"109\"
\"\",\"\",\"approach-retreat\",\"113\",\"870236\",\"0.0-113.0\",\"\",\"\",\"1-2\",\"4512\",\"39\",\"0\",\"Training\",\"Stims/Figures/102-C-20-4.bmp\",\"mala:na\",\"Left\",\"37\",\"7\",\"14\",\"7\",\"S\",\"J\",\"110\"
\"\",\"\",\"approach-retreat\",\"114\",\"878050\",\"0.0-114.0\",\"\",\"\",\"1-2\",\"6276\",\"39\",\"1\",\"Training\",\"Stims/Figures/27-J-0-1.bmp\",\"papata\",\"Left\",\"39\",\"7\",\"15\",\"7\",\"P\",\"J\",\"111\"
\"\",\"\",\"approach-retreat\",\"115\",\"883805\",\"0.0-115.0\",\"\",\"\",\"1-2\",\"4217\",\"38\",\"1\",\"Training\",\"Stims/Figures/128-C-30-3.bmp\",\"ma:la:la\",\"Up\",\"38\",\"7\",\"16\",\"7\",\"S\",\"J\",\"112\"
\"\",\"\",\"approach-retreat\",\"116\",\"889933\",\"0.0-116.0\",\"\",\"\",\"1-2\",\"4591\",\"38\",\"0\",\"Training\",\"Stims/Figures/84-C-20-2.bmp\",\"tapata\",\"Down\",\"40\",\"8\",\"1\",\"7\",\"P\",\"J\",\"113\"
\"\",\"\",\"approach-retreat\",\"117\",\"895640\",\"0.0-117.0\",\"\",\"\",\"1-2\",\"4159\",\"39\",\"1\",\"Training\",\"Stims/Figures/111-J-10-3.bmp\",\"mamala\",\"Left\",\"39\",\"8\",\"2\",\"7\",\"S\",\"J\",\"114\"
\"\",\"\",\"approach-retreat\",\"118\",\"901595\",\"0.0-118.0\",\"\",\"\",\"1-2\",\"4416\",\"39\",\"0\",\"Training\",\"Stims/Figures/84-J-0-2.bmp\",\"ta:kata\",\"Right\",\"37\",\"8\",\"3\",\"7\",\"P\",\"J\",\"115\"
\"\",\"\",\"approach-retreat\",\"119\",\"907155\",\"0.0-119.0\",\"\",\"\",\"1-2\",\"4025\",\"38\",\"1\",\"Training\",\"Stims/Figures/74-C-20-4.bmp\",\"namana\",\"Up\",\"38\",\"8\",\"4\",\"7\",\"S\",\"J\",\"116\"
\"\",\"\",\"approach-retreat\",\"120\",\"912779\",\"0.0-120.0\",\"\",\"\",\"1-2\",\"4073\",\"38\",\"0\",\"Training\",\"Stims/Figures/74-J-10-4.bmp\",\"nala:la\",\"Up\",\"40\",\"8\",\"5\",\"7\",\"S\",\"J\",\"117\"
\"\",\"\",\"approach-retreat\",\"121\",\"919134\",\"0.0-121.0\",\"\",\"\",\"1-2\",\"4814\",\"38\",\"1\",\"Training\",\"Stims/Figures/27-C-30-1.bmp\",\"papa:ta\",\"Up\",\"38\",\"8\",\"6\",\"7\",\"P\",\"J\",\"118\"
\"\",\"\",\"approach-retreat\",\"122\",\"926292\",\"0.0-122.0\",\"\",\"\",\"1-2\",\"5626\",\"37\",\"1\",\"Training\",\"Stims/Figures/111-C-30-3.bmp\",\"na:ma:na\",\"Left\",\"37\",\"8\",\"7\",\"7\",\"S\",\"J\",\"119\"
\"\",\"\",\"approach-retreat\",\"123\",\"931891\",\"0.0-123.0\",\"\",\"\",\"1-2\",\"4052\",\"37\",\"1\",\"Training\",\"Stims/Figures/27-J-0-1.bmp\",\"papata\",\"Right\",\"37\",\"8\",\"8\",\"7\",\"P\",\"J\",\"120\"
\"\",\"\",\"approach-retreat\",\"124\",\"937529\",\"0.0-124.0\",\"\",\"\",\"1-2\",\"4116\",\"37\",\"1\",\"Training\",\"Stims/Figures/139-J-0-2.bmp\",\"ta:ka:ta\",\"Right\",\"37\",\"8\",\"9\",\"7\",\"P\",\"J\",\"121\"
\"\",\"\",\"approach-retreat\",\"125\",\"943234\",\"0.0-125.0\",\"\",\"\",\"1-2\",\"4162\",\"37\",\"0\",\"Training\",\"Stims/Figures/57-J-0-1.bmp\",\"pa:pa:ka\",\"Left\",\"39\",\"8\",\"10\",\"7\",\"P\",\"J\",\"122\"
\"\",\"\",\"approach-retreat\",\"126\",\"948792\",\"0.0-126.0\",\"\",\"\",\"1-2\",\"4021\",\"39\",\"1\",\"Training\",\"Stims/Figures/128-C-30-3.bmp\",\"ma:la:la\",\"Right\",\"39\",\"8\",\"11\",\"7\",\"S\",\"J\",\"123\"
\"\",\"\",\"approach-retreat\",\"127\",\"954320\",\"0.0-127.0\",\"\",\"\",\"1-2\",\"3997\",\"37\",\"1\",\"Training\",\"Stims/Figures/139-C-20-2.bmp\",\"takaka\",\"Left\",\"37\",\"8\",\"12\",\"7\",\"P\",\"J\",\"124\"
\"\",\"\",\"approach-retreat\",\"128\",\"959900\",\"0.0-128.0\",\"\",\"\",\"1-2\",\"4034\",\"40\",\"0\",\"Training\",\"Stims/Figures/102-J-10-4.bmp\",\"malana\",\"Down\",\"38\",\"8\",\"13\",\"7\",\"S\",\"J\",\"125\"
\"\",\"\",\"approach-retreat\",\"129\",\"965640\",\"0.0-129.0\",\"\",\"\",\"1-2\",\"4222\",\"40\",\"0\",\"Training\",\"Stims/Figures/128-J-10-3.bmp\",\"ma:ma:na\",\"Down\",\"38\",\"8\",\"14\",\"7\",\"S\",\"J\",\"126\"
\"\",\"\",\"approach-retreat\",\"130\",\"971177\",\"0.0-130.0\",\"\",\"\",\"1-2\",\"3992\",\"38\",\"1\",\"Training\",\"Stims/Figures/57-C-30-1.bmp\",\"ta:pata\",\"Up\",\"38\",\"8\",\"15\",\"7\",\"P\",\"J\",\"127\"
\"\",\"\",\"approach-retreat\",\"131\",\"977513\",\"0.0-131.0\",\"\",\"\",\"1-2\",\"4787\",\"38\",\"0\",\"Training\",\"Stims/Figures/102-C-20-4.bmp\",\"mala:na\",\"Down\",\"40\",\"8\",\"16\",\"7\",\"S\",\"J\",\"128\"
\"\",\"\",\"approach-retreat\",\"132\",\"983230\",\"0.0-132.0\",\"\",\"\",\"1-2\",\"4178\",\"38\",\"0\",\"Training\",\"Stims/Figures/111-J-10-3.bmp\",\"mamala\",\"Up\",\"40\",\"9\",\"1\",\"7\",\"S\",\"J\",\"129\"
\"\",\"\",\"approach-retreat\",\"133\",\"988734\",\"0.0-133.0\",\"\",\"\",\"1-2\",\"3962\",\"38\",\"1\",\"Training\",\"Stims/Figures/27-J-0-1.bmp\",\"papata\",\"Down\",\"38\",\"9\",\"2\",\"7\",\"P\",\"J\",\"130\"
\"\",\"\",\"approach-retreat\",\"134\",\"995788\",\"0.0-134.0\",\"\",\"\",\"1-2\",\"5512\",\"40\",\"1\",\"Training\",\"Stims/Figures/111-C-30-3.bmp\",\"na:ma:na\",\"Down\",\"40\",\"9\",\"3\",\"7\",\"S\",\"J\",\"131\"
\"\",\"\",\"approach-retreat\",\"135\",\"1001550\",\"0.0-135.0\",\"\",\"\",\"1-2\",\"4211\",\"38\",\"1\",\"Training\",\"Stims/Figures/57-C-30-1.bmp\",\"ta:pata\",\"Up\",\"38\",\"9\",\"4\",\"7\",\"P\",\"J\",\"132\"
\"\",\"\",\"approach-retreat\",\"136\",\"1010466\",\"0.0-136.0\",\"\",\"\",\"1-2\",\"7367\",\"38\",\"0\",\"Training\",\"Stims/Figures/84-J-0-2.bmp\",\"ta:kata\",\"Up\",\"40\",\"9\",\"5\",\"7\",\"P\",\"J\",\"133\"
\"\",\"\",\"approach-retreat\",\"137\",\"1016230\",\"0.0-137.0\",\"\",\"\",\"1-2\",\"4214\",\"37\",\"0\",\"Training\",\"Stims/Figures/102-C-20-4.bmp\",\"mala:na\",\"Right\",\"39\",\"9\",\"6\",\"7\",\"S\",\"J\",\"134\"
\"\",\"\",\"approach-retreat\",\"138\",\"1021781\",\"0.0-138.0\",\"\",\"\",\"1-2\",\"4018\",\"39\",\"0\",\"Training\",\"Stims/Figures/102-J-10-4.bmp\",\"malana\",\"Right\",\"37\",\"9\",\"7\",\"7\",\"S\",\"J\",\"135\"
\"\",\"\",\"approach-retreat\",\"139\",\"1028542\",\"0.0-139.0\",\"\",\"\",\"1-2\",\"5224\",\"39\",\"0\",\"Training\",\"Stims/Figures/128-J-10-3.bmp\",\"ma:ma:na\",\"Right\",\"37\",\"9\",\"8\",\"7\",\"S\",\"J\",\"136\"
\"\",\"\",\"approach-retreat\",\"140\",\"1034142\",\"0.0-140.0\",\"\",\"\",\"1-2\",\"4047\",\"37\",\"1\",\"Training\",\"Stims/Figures/74-C-20-4.bmp\",\"namana\",\"Left\",\"37\",\"9\",\"9\",\"7\",\"S\",\"J\",\"137\"
\"\",\"\",\"approach-retreat\",\"141\",\"1039693\",\"0.0-141.0\",\"\",\"\",\"1-2\",\"4016\",\"37\",\"0\",\"Training\",\"Stims/Figures/84-C-20-2.bmp\",\"tapata\",\"Right\",\"39\",\"9\",\"10\",\"7\",\"P\",\"J\",\"138\"
\"\",\"\",\"approach-retreat\",\"142\",\"1045977\",\"0.0-142.0\",\"\",\"\",\"1-2\",\"4748\",\"37\",\"0\",\"Training\",\"Stims/Figures/74-J-10-4.bmp\",\"nala:la\",\"Left\",\"39\",\"9\",\"11\",\"7\",\"S\",\"J\",\"139\"
\"\",\"\",\"approach-retreat\",\"143\",\"1052311\",\"0.0-143.0\",\"\",\"\",\"1-2\",\"4797\",\"37\",\"1\",\"Training\",\"Stims/Figures/128-C-30-3.bmp\",\"ma:la:la\",\"Left\",\"37\",\"9\",\"12\",\"7\",\"S\",\"J\",\"140\"
\"\",\"\",\"approach-retreat\",\"144\",\"1060411\",\"0.0-144.0\",\"\",\"\",\"1-2\",\"6548\",\"39\",\"0\",\"Training\",\"Stims/Figures/27-C-30-1.bmp\",\"papa:ta\",\"Left\",\"37\",\"9\",\"13\",\"7\",\"P\",\"J\",\"141\"
\"\",\"\",\"approach-retreat\",\"145\",\"1066102\",\"0.0-145.0\",\"\",\"\",\"1-2\",\"4147\",\"38\",\"1\",\"Training\",\"Stims/Figures/139-J-0-2.bmp\",\"ta:ka:ta\",\"Down\",\"38\",\"9\",\"14\",\"7\",\"P\",\"J\",\"142\"
\"\",\"\",\"approach-retreat\",\"146\",\"1073743\",\"0.0-146.0\",\"\",\"\",\"1-2\",\"6103\",\"40\",\"1\",\"Training\",\"Stims/Figures/57-J-0-1.bmp\",\"pa:pa:ka\",\"Up\",\"40\",\"9\",\"15\",\"7\",\"P\",\"J\",\"143\"
\"\",\"\",\"approach-retreat\",\"147\",\"1079435\",\"0.0-147.0\",\"\",\"\",\"1-2\",\"4150\",\"40\",\"1\",\"Training\",\"Stims/Figures/139-C-20-2.bmp\",\"takaka\",\"Down\",\"40\",\"9\",\"16\",\"7\",\"P\",\"J\",\"144\"
\"21583\",\"\",\"instructions\",\"148\",\"1101019\",\"0.0-148.0\",\"[{\"\"page_index\"\":0,\"\"viewing_time\"\":21581}]\",\"\",\"\",\"\",\"\",\"\",\"\",\"\",\"\",\"\",\"\",\"\",\"\",\"\",\"\",\"\",\"\"
\"\",\"\",\"approach-retreat\",\"149\",\"1115984\",\"0.0-149.0\",\"\",\"\",\"1-2\",\"13437\",\"39\",\"1\",\"Testing\",\"Stims/Figures/87-J-10-4.bmp\",\"na:ma:la\",\"Left\",\"39\",\"1\",\"1\",\"7\",\"S\",\"J\",\"1\"
\"\",\"\",\"approach-retreat\",\"150\",\"1127320\",\"0.0-150.0\",\"\",\"\",\"1-2\",\"9800\",\"37\",\"1\",\"Testing\",\"Stims/Figures/118-J-0-2.bmp\",\"pakaka\",\"Right\",\"37\",\"1\",\"2\",\"7\",\"P\",\"J\",\"2\"
\"\",\"\",\"approach-retreat\",\"151\",\"1134486\",\"0.0-151.0\",\"\",\"\",\"1-2\",\"5641\",\"40\",\"1\",\"Testing\",\"Stims/Figures/71-J-0-1.bmp\",\"pa:ka:ka\",\"Up\",\"40\",\"1\",\"3\",\"7\",\"P\",\"J\",\"3\"
\"\",\"\",\"approach-retreat\",\"152\",\"1140551\",\"0.0-152.0\",\"\",\"\",\"1-2\",\"4538\",\"40\",\"1\",\"Testing\",\"Stims/Figures/84-J-0-2.bmp\",\"ta:kata\",\"Up\",\"40\",\"1\",\"4\",\"7\",\"P\",\"J\",\"4\"
\"\",\"\",\"approach-retreat\",\"153\",\"1146205\",\"0.0-153.0\",\"\",\"\",\"1-2\",\"4137\",\"38\",\"1\",\"Testing\",\"Stims/Figures/102-J-10-4.bmp\",\"malana\",\"Down\",\"38\",\"1\",\"5\",\"7\",\"S\",\"J\",\"5\"
\"\",\"\",\"approach-retreat\",\"154\",\"1151920\",\"0.0-154.0\",\"\",\"\",\"1-2\",\"4175\",\"39\",\"1\",\"Testing\",\"Stims/Figures/57-J-0-1.bmp\",\"pa:pa:ka\",\"Left\",\"39\",\"1\",\"6\",\"7\",\"P\",\"J\",\"6\"
\"\",\"\",\"approach-retreat\",\"155\",\"1158695\",\"0.0-155.0\",\"\",\"\",\"1-2\",\"5236\",\"38\",\"0\",\"Testing\",\"Stims/Figures/102-C-20-4.bmp\",\"mala:na\",\"Down\",\"40\",\"1\",\"7\",\"7\",\"S\",\"J\",\"7\"
\"\",\"\",\"approach-retreat\",\"156\",\"1164360\",\"0.0-156.0\",\"\",\"\",\"1-2\",\"4125\",\"37\",\"1\",\"Testing\",\"Stims/Figures/57-C-30-1.bmp\",\"ta:pata\",\"Left\",\"37\",\"1\",\"8\",\"7\",\"P\",\"J\",\"8\"
\"\",\"\",\"approach-retreat\",\"157\",\"1170960\",\"0.0-157.0\",\"\",\"\",\"1-2\",\"5056\",\"37\",\"1\",\"Testing\",\"Stims/Figures/139-C-20-2.bmp\",\"takaka\",\"Left\",\"37\",\"1\",\"9\",\"7\",\"P\",\"J\",\"9\"
\"\",\"\",\"approach-retreat\",\"158\",\"1178052\",\"0.0-158.0\",\"\",\"\",\"1-2\",\"5556\",\"38\",\"0\",\"Testing\",\"Stims/Figures/100-C-30-3.bmp\",\"na:la:la\",\"Down\",\"40\",\"1\",\"10\",\"7\",\"S\",\"J\",\"10\"
\"\",\"\",\"approach-retreat\",\"159\",\"1183777\",\"0.0-159.0\",\"\",\"\",\"1-2\",\"4190\",\"38\",\"1\",\"Testing\",\"Stims/Figures/27-J-0-1.bmp\",\"papata\",\"Down\",\"38\",\"1\",\"11\",\"7\",\"P\",\"J\",\"11\"
\"\",\"\",\"approach-retreat\",\"160\",\"1189346\",\"0.0-160.0\",\"\",\"\",\"1-2\",\"4042\",\"37\",\"1\",\"Testing\",\"Stims/Figures/74-C-20-4.bmp\",\"namana\",\"Left\",\"37\",\"1\",\"12\",\"7\",\"S\",\"J\",\"12\"
\"\",\"\",\"approach-retreat\",\"161\",\"1197988\",\"0.0-161.0\",\"\",\"\",\"1-2\",\"7104\",\"39\",\"0\",\"Testing\",\"Stims/Figures/118-C-20-2.bmp\",\"takata\",\"Left\",\"37\",\"1\",\"13\",\"7\",\"P\",\"J\",\"13\"
\"\",\"\",\"approach-retreat\",\"162\",\"1203700\",\"0.0-162.0\",\"\",\"\",\"1-2\",\"4179\",\"38\",\"0\",\"Testing\",\"Stims/Figures/74-J-10-4.bmp\",\"nala:la\",\"Up\",\"40\",\"1\",\"14\",\"7\",\"S\",\"J\",\"14\"
\"\",\"\",\"approach-retreat\",\"163\",\"1209305\",\"0.0-163.0\",\"\",\"\",\"1-2\",\"4076\",\"37\",\"0\",\"Testing\",\"Stims/Figures/71-C-30-1.bmp\",\"ta:kaka\",\"Right\",\"39\",\"1\",\"15\",\"7\",\"P\",\"J\",\"15\"
\"\",\"\",\"approach-retreat\",\"164\",\"1215120\",\"0.0-164.0\",\"\",\"\",\"1-2\",\"4287\",\"40\",\"0\",\"Testing\",\"Stims/Figures/87-C-20-4.bmp\",\"mala:la\",\"Up\",\"38\",\"1\",\"16\",\"7\",\"S\",\"J\",\"16\"
\"\",\"\",\"approach-retreat\",\"165\",\"1221759\",\"0.0-165.0\",\"\",\"\",\"1-2\",\"5091\",\"37\",\"1\",\"Testing\",\"Stims/Figures/128-J-10-3.bmp\",\"ma:ma:na\",\"Right\",\"37\",\"1\",\"17\",\"7\",\"S\",\"J\",\"17\"
\"\",\"\",\"approach-retreat\",\"166\",\"1227385\",\"0.0-166.0\",\"\",\"\",\"1-2\",\"4096\",\"40\",\"1\",\"Testing\",\"Stims/Figures/111-J-10-3.bmp\",\"mamala\",\"Up\",\"40\",\"1\",\"18\",\"7\",\"S\",\"J\",\"18\"
\"\",\"\",\"approach-retreat\",\"167\",\"1232953\",\"0.0-167.0\",\"\",\"\",\"1-2\",\"4040\",\"39\",\"1\",\"Testing\",\"Stims/Figures/128-C-30-3.bmp\",\"ma:la:la\",\"Right\",\"39\",\"1\",\"19\",\"7\",\"S\",\"J\",\"19\"
\"\",\"\",\"approach-retreat\",\"168\",\"1243413\",\"0.0-168.0\",\"\",\"\",\"1-2\",\"8916\",\"38\",\"1\",\"Testing\",\"Stims/Figures/139-J-0-2.bmp\",\"ta:ka:ta\",\"Down\",\"38\",\"1\",\"20\",\"7\",\"P\",\"J\",\"20\"
\"\",\"\",\"approach-retreat\",\"169\",\"1250332\",\"0.0-169.0\",\"\",\"\",\"1-2\",\"5389\",\"38\",\"1\",\"Testing\",\"Stims/Figures/100-J-10-3.bmp\",\"ma:la:na\",\"Down\",\"38\",\"1\",\"21\",\"7\",\"S\",\"J\",\"21\"
\"\",\"\",\"approach-retreat\",\"170\",\"1257048\",\"0.0-170.0\",\"\",\"\",\"1-2\",\"5177\",\"39\",\"1\",\"Testing\",\"Stims/Figures/111-C-30-3.bmp\",\"na:ma:na\",\"Right\",\"39\",\"1\",\"22\",\"7\",\"S\",\"J\",\"22\"
\"\",\"\",\"approach-retreat\",\"171\",\"1262771\",\"0.0-171.0\",\"\",\"\",\"1-2\",\"4187\",\"38\",\"1\",\"Testing\",\"Stims/Figures/84-C-20-2.bmp\",\"tapata\",\"Up\",\"38\",\"1\",\"23\",\"7\",\"P\",\"J\",\"23\"
\"\",\"\",\"approach-retreat\",\"172\",\"1270944\",\"0.0-172.0\",\"\",\"\",\"1-2\",\"6634\",\"39\",\"1\",\"Testing\",\"Stims/Figures/27-C-30-1.bmp\",\"papa:ta\",\"Right\",\"39\",\"1\",\"24\",\"7\",\"P\",\"J\",\"24\"
\"\",\"\",\"approach-retreat\",\"173\",\"1276472\",\"0.0-173.0\",\"\",\"\",\"1-2\",\"4008\",\"37\",\"1\",\"Testing\",\"Stims/Figures/87-J-10-4.bmp\",\"na:ma:la\",\"Right\",\"37\",\"2\",\"1\",\"7\",\"S\",\"J\",\"25\"
\"\",\"\",\"approach-retreat\",\"174\",\"1282435\",\"0.0-174.0\",\"\",\"\",\"1-2\",\"4454\",\"38\",\"1\",\"Testing\",\"Stims/Figures/111-C-30-3.bmp\",\"na:ma:na\",\"Up\",\"38\",\"2\",\"2\",\"7\",\"S\",\"J\",\"26\"
\"\",\"\",\"approach-retreat\",\"175\",\"1291916\",\"0.0-175.0\",\"\",\"\",\"1-2\",\"7940\",\"38\",\"0\",\"Testing\",\"Stims/Figures/100-J-10-3.bmp\",\"ma:la:na\",\"Up\",\"40\",\"2\",\"3\",\"7\",\"S\",\"J\",\"27\"
\"\",\"\",\"approach-retreat\",\"176\",\"1297639\",\"0.0-176.0\",\"\",\"\",\"1-2\",\"4184\",\"40\",\"0\",\"Testing\",\"Stims/Figures/84-J-0-2.bmp\",\"ta:kata\",\"Down\",\"38\",\"2\",\"4\",\"7\",\"P\",\"J\",\"28\"
\"\",\"\",\"approach-retreat\",\"177\",\"1303470\",\"0.0-177.0\",\"\",\"\",\"1-2\",\"4305\",\"40\",\"1\",\"Testing\",\"Stims/Figures/118-J-0-2.bmp\",\"pakaka\",\"Up\",\"40\",\"2\",\"5\",\"7\",\"P\",\"J\",\"29\"
\"\",\"\",\"approach-retreat\",\"178\",\"1312081\",\"0.0-178.0\",\"\",\"\",\"1-2\",\"7076\",\"40\",\"0\",\"Testing\",\"Stims/Figures/118-C-20-2.bmp\",\"takata\",\"Up\",\"38\",\"2\",\"6\",\"7\",\"P\",\"J\",\"30\"
\"\",\"\",\"approach-retreat\",\"179\",\"1317802\",\"0.0-179.0\",\"\",\"\",\"1-2\",\"4187\",\"40\",\"0\",\"Testing\",\"Stims/Figures/111-J-10-3.bmp\",\"mamala\",\"Down\",\"38\",\"2\",\"7\",\"7\",\"S\",\"J\",\"31\"
\"\",\"\",\"approach-retreat\",\"180\",\"1323573\",\"0.0-180.0\",\"\",\"\",\"1-2\",\"4234\",\"40\",\"1\",\"Testing\",\"Stims/Figures/27-C-30-1.bmp\",\"papa:ta\",\"Down\",\"40\",\"2\",\"8\",\"7\",\"P\",\"J\",\"32\"
\"\",\"\",\"approach-retreat\",\"181\",\"1330571\",\"0.0-181.0\",\"\",\"\",\"1-2\",\"5462\",\"37\",\"0\",\"Testing\",\"Stims/Figures/128-J-10-3.bmp\",\"ma:ma:na\",\"Left\",\"39\",\"2\",\"9\",\"7\",\"S\",\"J\",\"33\"
\"\",\"\",\"approach-retreat\",\"182\",\"1336229\",\"0.0-182.0\",\"\",\"\",\"1-2\",\"4127\",\"40\",\"1\",\"Testing\",\"Stims/Figures/74-C-20-4.bmp\",\"namana\",\"Down\",\"40\",\"2\",\"10\",\"7\",\"S\",\"J\",\"34\"
\"\",\"\",\"approach-retreat\",\"183\",\"1342263\",\"0.0-183.0\",\"\",\"\",\"1-2\",\"4500\",\"39\",\"1\",\"Testing\",\"Stims/Figures/139-C-20-2.bmp\",\"takaka\",\"Right\",\"39\",\"2\",\"11\",\"7\",\"P\",\"J\",\"35\"
\"\",\"\",\"approach-retreat\",\"184\",\"1348782\",\"0.0-184.0\",\"\",\"\",\"1-2\",\"4990\",\"37\",\"1\",\"Testing\",\"Stims/Figures/57-C-30-1.bmp\",\"ta:pata\",\"Left\",\"37\",\"2\",\"12\",\"7\",\"P\",\"J\",\"36\"
\"\",\"\",\"approach-retreat\",\"185\",\"1354465\",\"0.0-185.0\",\"\",\"\",\"1-2\",\"4148\",\"37\",\"1\",\"Testing\",\"Stims/Figures/102-J-10-4.bmp\",\"malana\",\"Right\",\"37\",\"2\",\"13\",\"7\",\"S\",\"J\",\"37\"
\"\",\"\",\"approach-retreat\",\"186\",\"1360252\",\"0.0-186.0\",\"\",\"\",\"1-2\",\"4259\",\"37\",\"0\",\"Testing\",\"Stims/Figures/102-C-20-4.bmp\",\"mala:na\",\"Right\",\"39\",\"2\",\"14\",\"7\",\"S\",\"J\",\"38\"
\"\",\"\",\"approach-retreat\",\"187\",\"1366038\",\"0.0-187.0\",\"\",\"\",\"1-2\",\"4243\",\"39\",\"0\",\"Testing\",\"Stims/Figures/100-C-30-3.bmp\",\"na:la:la\",\"Left\",\"37\",\"2\",\"15\",\"7\",\"S\",\"J\",\"39\"
\"\",\"\",\"approach-retreat\",\"188\",\"1371645\",\"0.0-188.0\",\"\",\"\",\"1-2\",\"4066\",\"37\",\"1\",\"Testing\",\"Stims/Figures/84-C-20-2.bmp\",\"tapata\",\"Left\",\"37\",\"2\",\"16\",\"7\",\"P\",\"J\",\"40\"
\"\",\"\",\"approach-retreat\",\"189\",\"1380651\",\"0.0-189.0\",\"\",\"\",\"1-2\",\"7471\",\"37\",\"1\",\"Testing\",\"Stims/Figures/139-J-0-2.bmp\",\"ta:ka:ta\",\"Right\",\"37\",\"2\",\"17\",\"7\",\"P\",\"J\",\"41\"
\"\",\"\",\"approach-retreat\",\"190\",\"1386328\",\"0.0-190.0\",\"\",\"\",\"1-2\",\"4149\",\"40\",\"0\",\"Testing\",\"Stims/Figures/74-J-10-4.bmp\",\"nala:la\",\"Down\",\"38\",\"2\",\"18\",\"7\",\"S\",\"J\",\"42\"
\"\",\"\",\"approach-retreat\",\"191\",\"1392913\",\"0.0-191.0\",\"\",\"\",\"1-2\",\"5043\",\"40\",\"1\",\"Testing\",\"Stims/Figures/87-C-20-4.bmp\",\"mala:la\",\"Down\",\"40\",\"2\",\"19\",\"7\",\"S\",\"J\",\"43\"
\"\",\"\",\"approach-retreat\",\"192\",\"1402301\",\"0.0-192.0\",\"\",\"\",\"1-2\",\"7846\",\"37\",\"0\",\"Testing\",\"Stims/Figures/57-J-0-1.bmp\",\"pa:pa:ka\",\"Left\",\"39\",\"2\",\"20\",\"7\",\"P\",\"J\",\"44\"
\"\",\"\",\"approach-retreat\",\"193\",\"1408479\",\"0.0-193.0\",\"\",\"\",\"1-2\",\"4655\",\"39\",\"0\",\"Testing\",\"Stims/Figures/71-C-30-1.bmp\",\"ta:kaka\",\"Left\",\"37\",\"2\",\"21\",\"7\",\"P\",\"J\",\"45\"
\"\",\"\",\"approach-retreat\",\"194\",\"1415136\",\"0.0-194.0\",\"\",\"\",\"1-2\",\"5125\",\"40\",\"1\",\"Testing\",\"Stims/Figures/71-J-0-1.bmp\",\"pa:ka:ka\",\"Up\",\"40\",\"2\",\"22\",\"7\",\"P\",\"J\",\"46\"
\"\",\"\",\"approach-retreat\",\"195\",\"1420922\",\"0.0-195.0\",\"\",\"\",\"1-2\",\"4258\",\"37\",\"1\",\"Testing\",\"Stims/Figures/27-J-0-1.bmp\",\"papata\",\"Right\",\"37\",\"2\",\"23\",\"7\",\"P\",\"J\",\"47\"
\"\",\"\",\"approach-retreat\",\"196\",\"1426590\",\"0.0-196.0\",\"\",\"\",\"1-2\",\"4129\",\"38\",\"1\",\"Testing\",\"Stims/Figures/128-C-30-3.bmp\",\"ma:la:la\",\"Up\",\"38\",\"2\",\"24\",\"7\",\"S\",\"J\",\"48\"
\"\",\"\",\"approach-retreat\",\"197\",\"1432247\",\"0.0-197.0\",\"\",\"\",\"1-2\",\"4128\",\"38\",\"1\",\"Testing\",\"Stims/Figures/139-J-0-2.bmp\",\"ta:ka:ta\",\"Down\",\"38\",\"3\",\"1\",\"7\",\"P\",\"J\",\"49\"
\"\",\"\",\"approach-retreat\",\"198\",\"1438693\",\"0.0-198.0\",\"\",\"\",\"1-2\",\"4914\",\"40\",\"1\",\"Testing\",\"Stims/Figures/102-J-10-4.bmp\",\"malana\",\"Up\",\"40\",\"3\",\"2\",\"7\",\"S\",\"J\",\"50\"
\"\",\"\",\"approach-retreat\",\"199\",\"1444569\",\"0.0-199.0\",\"\",\"\",\"1-2\",\"4337\",\"40\",\"0\",\"Testing\",\"Stims/Figures/100-J-10-3.bmp\",\"ma:la:na\",\"Down\",\"38\",\"3\",\"3\",\"7\",\"S\",\"J\",\"51\"
\"\",\"\",\"approach-retreat\",\"200\",\"1451115\",\"0.0-200.0\",\"\",\"\",\"1-2\",\"5008\",\"38\",\"1\",\"Testing\",\"Stims/Figures/27-J-0-1.bmp\",\"papata\",\"Down\",\"38\",\"3\",\"4\",\"7\",\"P\",\"J\",\"52\"
\"\",\"\",\"approach-retreat\",\"201\",\"1456802\",\"0.0-201.0\",\"\",\"\",\"1-2\",\"4149\",\"37\",\"0\",\"Testing\",\"Stims/Figures/100-C-30-3.bmp\",\"na:la:la\",\"Right\",\"39\",\"3\",\"5\",\"7\",\"S\",\"J\",\"53\"
\"\",\"\",\"approach-retreat\",\"202\",\"1463507\",\"0.0-202.0\",\"\",\"\",\"1-2\",\"5175\",\"39\",\"1\",\"Testing\",\"Stims/Figures/57-C-30-1.bmp\",\"ta:pata\",\"Right\",\"39\",\"3\",\"6\",\"7\",\"P\",\"J\",\"54\"
\"\",\"\",\"approach-retreat\",\"203\",\"1469155\",\"0.0-203.0\",\"\",\"\",\"1-2\",\"4126\",\"37\",\"1\",\"Testing\",\"Stims/Figures/118-J-0-2.bmp\",\"pakaka\",\"Right\",\"37\",\"3\",\"7\",\"7\",\"P\",\"J\",\"55\"
\"\",\"\",\"approach-retreat\",\"204\",\"1476670\",\"0.0-204.0\",\"\",\"\",\"1-2\",\"5984\",\"37\",\"1\",\"Testing\",\"Stims/Figures/118-C-20-2.bmp\",\"takata\",\"Left\",\"37\",\"3\",\"8\",\"7\",\"P\",\"J\",\"56\"
\"\",\"\",\"approach-retreat\",\"205\",\"1482244\",\"0.0-205.0\",\"\",\"\",\"1-2\",\"4048\",\"37\",\"1\",\"Testing\",\"Stims/Figures/71-J-0-1.bmp\",\"pa:ka:ka\",\"Right\",\"37\",\"3\",\"9\",\"7\",\"P\",\"J\",\"57\"
\"\",\"\",\"approach-retreat\",\"206\",\"1488017\",\"0.0-206.0\",\"\",\"\",\"1-2\",\"4244\",\"38\",\"0\",\"Testing\",\"Stims/Figures/71-C-30-1.bmp\",\"ta:kaka\",\"Down\",\"40\",\"3\",\"10\",\"7\",\"P\",\"J\",\"58\"
\"\",\"\",\"approach-retreat\",\"207\",\"1493685\",\"0.0-207.0\",\"\",\"\",\"1-2\",\"4140\",\"40\",\"0\",\"Testing\",\"Stims/Figures/74-J-10-4.bmp\",\"nala:la\",\"Down\",\"38\",\"3\",\"11\",\"7\",\"S\",\"J\",\"59\"
\"\",\"\",\"approach-retreat\",\"208\",\"1499272\",\"0.0-208.0\",\"\",\"\",\"1-2\",\"4062\",\"37\",\"1\",\"Testing\",\"Stims/Figures/57-J-0-1.bmp\",\"pa:pa:ka\",\"Right\",\"37\",\"3\",\"12\",\"7\",\"P\",\"J\",\"60\"
\"\",\"\",\"approach-retreat\",\"209\",\"1504823\",\"0.0-209.0\",\"\",\"\",\"1-2\",\"4024\",\"37\",\"1\",\"Testing\",\"Stims/Figures/128-C-30-3.bmp\",\"ma:la:la\",\"Left\",\"37\",\"3\",\"13\",\"7\",\"S\",\"J\",\"61\"
\"\",\"\",\"approach-retreat\",\"210\",\"1510663\",\"0.0-210.0\",\"\",\"\",\"1-2\",\"4312\",\"37\",\"0\",\"Testing\",\"Stims/Figures/84-J-0-2.bmp\",\"ta:kata\",\"Left\",\"39\",\"3\",\"14\",\"7\",\"P\",\"J\",\"62\"
\"\",\"\",\"approach-retreat\",\"211\",\"1516446\",\"0.0-211.0\",\"\",\"\",\"1-2\",\"4251\",\"40\",\"1\",\"Testing\",\"Stims/Figures/111-C-30-3.bmp\",\"na:ma:na\",\"Down\",\"40\",\"3\",\"15\",\"7\",\"S\",\"J\",\"63\"
\"\",\"\",\"approach-retreat\",\"212\",\"1522105\",\"0.0-212.0\",\"\",\"\",\"1-2\",\"4126\",\"38\",\"1\",\"Testing\",\"Stims/Figures/139-C-20-2.bmp\",\"takaka\",\"Up\",\"38\",\"3\",\"16\",\"7\",\"P\",\"J\",\"64\"
\"\",\"\",\"approach-retreat\",\"213\",\"1527662\",\"0.0-213.0\",\"\",\"\",\"1-2\",\"4031\",\"37\",\"1\",\"Testing\",\"Stims/Figures/74-C-20-4.bmp\",\"namana\",\"Left\",\"37\",\"3\",\"17\",\"7\",\"S\",\"J\",\"65\"
\"\",\"\",\"approach-retreat\",\"214\",\"1534684\",\"0.0-214.0\",\"\",\"\",\"1-2\",\"5496\",\"38\",\"0\",\"Testing\",\"Stims/Figures/128-J-10-3.bmp\",\"ma:ma:na\",\"Up\",\"40\",\"3\",\"18\",\"7\",\"S\",\"J\",\"66\"
\"\",\"\",\"approach-retreat\",\"215\",\"1540288\",\"0.0-215.0\",\"\",\"\",\"1-2\",\"4080\",\"40\",\"0\",\"Testing\",\"Stims/Figures/27-C-30-1.bmp\",\"papa:ta\",\"Up\",\"38\",\"3\",\"19\",\"7\",\"P\",\"J\",\"67\"
\"\",\"\",\"approach-retreat\",\"216\",\"1545973\",\"0.0-216.0\",\"\",\"\",\"1-2\",\"4150\",\"39\",\"0\",\"Testing\",\"Stims/Figures/102-C-20-4.bmp\",\"mala:na\",\"Left\",\"37\",\"3\",\"20\",\"7\",\"S\",\"J\",\"68\"
\"\",\"\",\"approach-retreat\",\"217\",\"1551691\",\"0.0-217.0\",\"\",\"\",\"1-2\",\"4189\",\"39\",\"0\",\"Testing\",\"Stims/Figures/111-J-10-3.bmp\",\"mamala\",\"Right\",\"37\",\"3\",\"21\",\"7\",\"S\",\"J\",\"69\"
\"\",\"\",\"approach-retreat\",\"218\",\"1557538\",\"0.0-218.0\",\"\",\"\",\"1-2\",\"4316\",\"38\",\"1\",\"Testing\",\"Stims/Figures/87-C-20-4.bmp\",\"mala:la\",\"Up\",\"38\",\"3\",\"22\",\"7\",\"S\",\"J\",\"70\"
\"\",\"\",\"approach-retreat\",\"219\",\"1563506\",\"0.0-219.0\",\"\",\"\",\"1-2\",\"4433\",\"37\",\"0\",\"Testing\",\"Stims/Figures/87-J-10-4.bmp\",\"na:ma:la\",\"Left\",\"39\",\"3\",\"23\",\"7\",\"S\",\"J\",\"71\"
\"\",\"\",\"approach-retreat\",\"220\",\"1569132\",\"0.0-220.0\",\"\",\"\",\"1-2\",\"4082\",\"38\",\"1\",\"Testing\",\"Stims/Figures/84-C-20-2.bmp\",\"tapata\",\"Up\",\"38\",\"3\",\"24\",\"7\",\"P\",\"J\",\"72\"
\"\",\"\",\"approach-retreat\",\"221\",\"1574704\",\"0.0-221.0\",\"\",\"\",\"1-2\",\"4045\",\"39\",\"1\",\"Testing\",\"Stims/Figures/74-C-20-4.bmp\",\"namana\",\"Right\",\"39\",\"4\",\"1\",\"7\",\"S\",\"J\",\"73\"
\"\",\"\",\"approach-retreat\",\"222\",\"1580314\",\"0.0-222.0\",\"\",\"\",\"1-2\",\"4070\",\"40\",\"1\",\"Testing\",\"Stims/Figures/139-J-0-2.bmp\",\"ta:ka:ta\",\"Up\",\"40\",\"4\",\"2\",\"7\",\"P\",\"J\",\"74\"
\"\",\"\",\"approach-retreat\",\"223\",\"1585844\",\"0.0-223.0\",\"\",\"\",\"1-2\",\"3998\",\"39\",\"0\",\"Testing\",\"Stims/Figures/71-C-30-1.bmp\",\"ta:kaka\",\"Left\",\"37\",\"4\",\"3\",\"7\",\"P\",\"J\",\"75\"
\"\",\"\",\"approach-retreat\",\"224\",\"1591548\",\"0.0-224.0\",\"\",\"\",\"1-2\",\"4170\",\"38\",\"1\",\"Testing\",\"Stims/Figures/71-J-0-1.bmp\",\"pa:ka:ka\",\"Down\",\"38\",\"4\",\"4\",\"7\",\"P\",\"J\",\"76\"
\"\",\"\",\"approach-retreat\",\"225\",\"1597271\",\"0.0-225.0\",\"\",\"\",\"1-2\",\"4190\",\"40\",\"0\",\"Testing\",\"Stims/Figures/27-C-30-1.bmp\",\"papa:ta\",\"Up\",\"38\",\"4\",\"5\",\"7\",\"P\",\"J\",\"77\"
\"\",\"\",\"approach-retreat\",\"226\",\"1602816\",\"0.0-226.0\",\"\",\"\",\"1-2\",\"4010\",\"39\",\"0\",\"Testing\",\"Stims/Figures/111-J-10-3.bmp\",\"mamala\",\"Right\",\"37\",\"4\",\"6\",\"7\",\"S\",\"J\",\"78\"
\"\",\"\",\"approach-retreat\",\"227\",\"1608368\",\"0.0-227.0\",\"\",\"\",\"1-2\",\"4015\",\"37\",\"1\",\"Testing\",\"Stims/Figures/27-J-0-1.bmp\",\"papata\",\"Right\",\"37\",\"4\",\"7\",\"7\",\"P\",\"J\",\"79\"
\"\",\"\",\"approach-retreat\",\"228\",\"1614061\",\"0.0-228.0\",\"\",\"\",\"1-2\",\"4165\",\"38\",\"0\",\"Testing\",\"Stims/Figures/128-J-10-3.bmp\",\"ma:ma:na\",\"Up\",\"40\",\"4\",\"8\",\"7\",\"S\",\"J\",\"80\"
\"\",\"\",\"approach-retreat\",\"229\",\"1621160\",\"0.0-229.0\",\"\",\"\",\"1-2\",\"5564\",\"38\",\"1\",\"Testing\",\"Stims/Figures/57-J-0-1.bmp\",\"pa:pa:ka\",\"Down\",\"38\",\"4\",\"9\",\"7\",\"P\",\"J\",\"81\"
\"\",\"\",\"approach-retreat\",\"230\",\"1627030\",\"0.0-230.0\",\"\",\"\",\"1-2\",\"4331\",\"37\",\"1\",\"Testing\",\"Stims/Figures/57-C-30-1.bmp\",\"ta:pata\",\"Left\",\"37\",\"4\",\"10\",\"7\",\"P\",\"J\",\"82\"
\"\",\"\",\"approach-retreat\",\"231\",\"1632813\",\"0.0-231.0\",\"\",\"\",\"1-2\",\"4252\",\"40\",\"0\",\"Testing\",\"Stims/Figures/84-J-0-2.bmp\",\"ta:kata\",\"Down\",\"38\",\"4\",\"11\",\"7\",\"P\",\"J\",\"83\"
\"\",\"\",\"approach-retreat\",\"232\",\"1638555\",\"0.0-232.0\",\"\",\"\",\"1-2\",\"4208\",\"39\",\"1\",\"Testing\",\"Stims/Figures/128-C-30-3.bmp\",\"ma:la:la\",\"Right\",\"39\",\"4\",\"12\",\"7\",\"S\",\"J\",\"84\"
\"\",\"\",\"approach-retreat\",\"233\",\"1644220\",\"0.0-233.0\",\"\",\"\",\"1-2\",\"4126\",\"39\",\"0\",\"Testing\",\"Stims/Figures/102-C-20-4.bmp\",\"mala:na\",\"Left\",\"37\",\"4\",\"13\",\"7\",\"S\",\"J\",\"85\"
\"\",\"\",\"approach-retreat\",\"234\",\"1650042\",\"0.0-234.0\",\"\",\"\",\"1-2\",\"4290\",\"40\",\"1\",\"Testing\",\"Stims/Figures/100-J-10-3.bmp\",\"ma:la:na\",\"Up\",\"40\",\"4\",\"14\",\"7\",\"S\",\"J\",\"86\"
\"\",\"\",\"approach-retreat\",\"235\",\"1656325\",\"0.0-235.0\",\"\",\"\",\"1-2\",\"4741\",\"39\",\"1\",\"Testing\",\"Stims/Figures/111-C-30-3.bmp\",\"na:ma:na\",\"Right\",\"39\",\"4\",\"15\",\"7\",\"S\",\"J\",\"87\"
\"\",\"\",\"approach-retreat\",\"236\",\"1662061\",\"0.0-236.0\",\"\",\"\",\"1-2\",\"4210\",\"38\",\"1\",\"Testing\",\"Stims/Figures/74-J-10-4.bmp\",\"nala:la\",\"Down\",\"38\",\"4\",\"16\",\"7\",\"S\",\"J\",\"88\"
\"\",\"\",\"approach-retreat\",\"237\",\"1667610\",\"0.0-237.0\",\"\",\"\",\"1-2\",\"4022\",\"40\",\"0\",\"Testing\",\"Stims/Figures/87-J-10-4.bmp\",\"na:ma:la\",\"Down\",\"38\",\"4\",\"17\",\"7\",\"S\",\"J\",\"89\"
\"\",\"\",\"approach-retreat\",\"238\",\"1673395\",\"0.0-238.0\",\"\",\"\",\"1-2\",\"4255\",\"40\",\"1\",\"Testing\",\"Stims/Figures/139-C-20-2.bmp\",\"takaka\",\"Down\",\"40\",\"4\",\"18\",\"7\",\"P\",\"J\",\"90\"
\"\",\"\",\"approach-retreat\",\"239\",\"1679191\",\"0.0-239.0\",\"\",\"\",\"1-2\",\"4268\",\"37\",\"1\",\"Testing\",\"Stims/Figures/84-C-20-2.bmp\",\"tapata\",\"Left\",\"37\",\"4\",\"19\",\"7\",\"P\",\"J\",\"91\"
\"\",\"\",\"approach-retreat\",\"240\",\"1684800\",\"0.0-240.0\",\"\",\"\",\"1-2\",\"4075\",\"37\",\"1\",\"Testing\",\"Stims/Figures/118-J-0-2.bmp\",\"pakaka\",\"Right\",\"37\",\"4\",\"20\",\"7\",\"P\",\"J\",\"92\"
\"\",\"\",\"approach-retreat\",\"241\",\"1690411\",\"0.0-241.0\",\"\",\"\",\"1-2\",\"4076\",\"40\",\"1\",\"Testing\",\"Stims/Figures/102-J-10-4.bmp\",\"malana\",\"Up\",\"40\",\"4\",\"21\",\"7\",\"S\",\"J\",\"93\"
\"\",\"\",\"approach-retreat\",\"242\",\"1695955\",\"0.0-242.0\",\"\",\"\",\"1-2\",\"4015\",\"37\",\"1\",\"Testing\",\"Stims/Figures/87-C-20-4.bmp\",\"mala:la\",\"Left\",\"37\",\"4\",\"22\",\"7\",\"S\",\"J\",\"94\"
\"\",\"\",\"approach-retreat\",\"243\",\"1702934\",\"0.0-243.0\",\"\",\"\",\"1-2\",\"5444\",\"40\",\"0\",\"Testing\",\"Stims/Figures/118-C-20-2.bmp\",\"takata\",\"Up\",\"38\",\"4\",\"23\",\"7\",\"P\",\"J\",\"95\"
\"\",\"\",\"approach-retreat\",\"244\",\"1708549\",\"0.0-244.0\",\"\",\"\",\"1-2\",\"4082\",\"37\",\"1\",\"Testing\",\"Stims/Figures/100-C-30-3.bmp\",\"na:la:la\",\"Left\",\"37\",\"4\",\"24\",\"7\",\"S\",\"J\",\"96\"
\"15760\",\"\",\"survey-text\",\"245\",\"1724333\",\"0.0-245.0\",\"\",\"{\"\"Q0\"\":\"\"PS130020\"\"}\",\"\",\"\",\"\",\"\",\"\",\"\",\"\",\"\",\"\",\"\",\"\",\"\",\"\",\"\",\"\"
