\"rt\",\"key_press\",\"trial_type\",\"trial_index\",\"time_elapsed\",\"internal_node_id\",\"view_history\",\"responses\",\"Id\",\"Rt\",\"ResKeyCode\",\"ResCorr\",\"TrialType2\",\"Image\",\"Label\",\"Location\",\"CorrectResponse\",\"Block\",\"BlockTrial\",\"Condition\",\"LabelType\",\"Subcondition\",\"trialNum\"
\"46604\",\"32\",\"text\",\"0\",\"46608\",\"0.0-0.0-0.0\",\"\",\"\",\"\",\"\",\"\",\"\",\"\",\"\",\"\",\"\",\"\",\"\",\"\",\"\",\"\",\"\",\"\"
\"111828\",\"\",\"instructions\",\"1\",\"158440\",\"0.0-1.0\",\"[{\"\"page_index\"\":0,\"\"viewing_time\"\":111827}]\",\"\",\"\",\"\",\"\",\"\",\"\",\"\",\"\",\"\",\"\",\"\",\"\",\"\",\"\",\"\",\"\"
\"33705\",\"\",\"survey-multi-choice\",\"2\",\"192194\",\"0.0-2.0\",\"\",\"{\"\"Q0\"\":\"\"Da\"\",\"\"Q1\"\":\"\"Da\"\",\"\"Q2\"\":\"\"Da\"\",\"\"Q3\"\":\"\"Da\"\",\"\"Q4\"\":\"\"Da\"\",\"\"Q5\"\":\"\"Da\"\"}\",\"\",\"\",\"\",\"\",\"\",\"\",\"\",\"\",\"\",\"\",\"\",\"\",\"\",\"\",\"\"
\"\",\"\",\"bio\",\"3\",\"203747\",\"0.0-3.0\",\"\",\"{\"\"age\"\":\"\"22\"\",\"\"gender\"\":\"\"f\"\",\"\"specify\"\":\"\"\"\"}\",\"\",\"\",\"\",\"\",\"\",\"\",\"\",\"\",\"\",\"\",\"\",\"\",\"\",\"\",\"\"
\"\",\"\",\"approach-retreat\",\"4\",\"212541\",\"0.0-4.0\",\"\",\"\",\"1-1\",\"7277\",\"40\",\"1\",\"Training\",\"Stims/Figures/27-J-0-1.bmp\",\"za:haha\",\"Down\",\"40\",\"1\",\"1\",\"3B\",\"C2\",\"C\",\"1\"
\"\",\"\",\"approach-retreat\",\"5\",\"218522\",\"0.0-5.0\",\"\",\"\",\"1-1\",\"4464\",\"38\",\"1\",\"Training\",\"Stims/Figures/7-C-20-4.bmp\",\"vafasha\",\"Down\",\"38\",\"1\",\"2\",\"3B\",\"C1\",\"C\",\"2\"
\"\",\"\",\"approach-retreat\",\"6\",\"224441\",\"0.0-6.0\",\"\",\"\",\"1-1\",\"4408\",\"39\",\"1\",\"Training\",\"Stims/Figures/84-J-0-2.bmp\",\"za:haha\",\"Right\",\"39\",\"1\",\"3\",\"3B\",\"C2\",\"C\",\"3\"
\"\",\"\",\"approach-retreat\",\"7\",\"230605\",\"0.0-7.0\",\"\",\"\",\"1-1\",\"4653\",\"37\",\"0\",\"Training\",\"Stims/Figures/118-J-0-2.bmp\",\"za:haha\",\"Right\",\"39\",\"1\",\"4\",\"3B\",\"C2\",\"C\",\"4\"
\"\",\"\",\"approach-retreat\",\"8\",\"236553\",\"0.0-8.0\",\"\",\"\",\"1-1\",\"4435\",\"39\",\"1\",\"Training\",\"Stims/Figures/111-C-30-3.bmp\",\"vafasha\",\"Left\",\"39\",\"1\",\"5\",\"3B\",\"C1\",\"C\",\"5\"
\"\",\"\",\"approach-retreat\",\"9\",\"242335\",\"0.0-9.0\",\"\",\"\",\"1-1\",\"4269\",\"38\",\"1\",\"Training\",\"Stims/Figures/118-C-20-2.bmp\",\"vafasha\",\"Down\",\"38\",\"1\",\"6\",\"3B\",\"C1\",\"C\",\"6\"
\"\",\"\",\"approach-retreat\",\"10\",\"248183\",\"0.0-10.0\",\"\",\"\",\"1-1\",\"4337\",\"39\",\"0\",\"Training\",\"Stims/Figures/7-J-10-4.bmp\",\"za:haha\",\"Left\",\"37\",\"1\",\"7\",\"3B\",\"C2\",\"C\",\"7\"
\"\",\"\",\"approach-retreat\",\"11\",\"253818\",\"0.0-11.0\",\"\",\"\",\"1-1\",\"4121\",\"37\",\"1\",\"Training\",\"Stims/Figures/111-J-10-3.bmp\",\"za:haha\",\"Left\",\"37\",\"1\",\"8\",\"3B\",\"C2\",\"C\",\"8\"
\"\",\"\",\"approach-retreat\",\"12\",\"259432\",\"0.0-12.0\",\"\",\"\",\"1-1\",\"4103\",\"37\",\"1\",\"Training\",\"Stims/Figures/100-C-30-3.bmp\",\"vafasha\",\"Right\",\"37\",\"1\",\"9\",\"3B\",\"C1\",\"C\",\"9\"
\"\",\"\",\"approach-retreat\",\"13\",\"265172\",\"0.0-13.0\",\"\",\"\",\"1-1\",\"4227\",\"40\",\"1\",\"Training\",\"Stims/Figures/87-C-20-4.bmp\",\"vafasha\",\"Up\",\"40\",\"1\",\"10\",\"3B\",\"C1\",\"C\",\"10\"
\"\",\"\",\"approach-retreat\",\"14\",\"270942\",\"0.0-14.0\",\"\",\"\",\"1-1\",\"4258\",\"40\",\"1\",\"Training\",\"Stims/Figures/57-C-30-1.bmp\",\"vafasha\",\"Up\",\"40\",\"1\",\"11\",\"3B\",\"C1\",\"C\",\"11\"
\"\",\"\",\"approach-retreat\",\"15\",\"276542\",\"0.0-15.0\",\"\",\"\",\"1-1\",\"4087\",\"37\",\"1\",\"Training\",\"Stims/Figures/87-J-10-4.bmp\",\"za:haha\",\"Left\",\"37\",\"1\",\"12\",\"3B\",\"C2\",\"C\",\"12\"
\"\",\"\",\"approach-retreat\",\"16\",\"282675\",\"0.0-16.0\",\"\",\"\",\"1-1\",\"4622\",\"37\",\"1\",\"Training\",\"Stims/Figures/27-C-30-1.bmp\",\"vafasha\",\"Right\",\"37\",\"1\",\"13\",\"3B\",\"C1\",\"C\",\"13\"
\"\",\"\",\"approach-retreat\",\"17\",\"288247\",\"0.0-17.0\",\"\",\"\",\"1-1\",\"4059\",\"40\",\"1\",\"Training\",\"Stims/Figures/57-J-0-1.bmp\",\"za:haha\",\"Down\",\"40\",\"1\",\"14\",\"3B\",\"C2\",\"C\",\"14\"
\"\",\"\",\"approach-retreat\",\"18\",\"294062\",\"0.0-18.0\",\"\",\"\",\"1-1\",\"4303\",\"38\",\"0\",\"Training\",\"Stims/Figures/84-C-20-2.bmp\",\"vafasha\",\"Up\",\"40\",\"1\",\"15\",\"3B\",\"C1\",\"C\",\"15\"
\"\",\"\",\"approach-retreat\",\"19\",\"300776\",\"0.0-19.0\",\"\",\"\",\"1-1\",\"5203\",\"40\",\"0\",\"Training\",\"Stims/Figures/100-J-10-3.bmp\",\"za:haha\",\"Up\",\"38\",\"1\",\"16\",\"3B\",\"C2\",\"C\",\"16\"
\"\",\"\",\"approach-retreat\",\"20\",\"306810\",\"0.0-20.0\",\"\",\"\",\"1-1\",\"4523\",\"38\",\"1\",\"Training\",\"Stims/Figures/87-C-20-4.bmp\",\"vafasha\",\"Down\",\"38\",\"2\",\"1\",\"3B\",\"C1\",\"C\",\"17\"
\"\",\"\",\"approach-retreat\",\"21\",\"313077\",\"0.0-21.0\",\"\",\"\",\"1-1\",\"4754\",\"37\",\"1\",\"Training\",\"Stims/Figures/100-J-10-3.bmp\",\"za:haha\",\"Left\",\"37\",\"2\",\"2\",\"3B\",\"C2\",\"C\",\"18\"
\"\",\"\",\"approach-retreat\",\"22\",\"319599\",\"0.0-22.0\",\"\",\"\",\"1-1\",\"5012\",\"38\",\"1\",\"Training\",\"Stims/Figures/27-J-0-1.bmp\",\"za:haha\",\"Up\",\"38\",\"2\",\"3\",\"3B\",\"C2\",\"C\",\"19\"
\"\",\"\",\"approach-retreat\",\"23\",\"325424\",\"0.0-23.0\",\"\",\"\",\"1-1\",\"4312\",\"38\",\"1\",\"Training\",\"Stims/Figures/100-C-30-3.bmp\",\"vafasha\",\"Down\",\"38\",\"2\",\"4\",\"3B\",\"C1\",\"C\",\"20\"
\"\",\"\",\"approach-retreat\",\"24\",\"331296\",\"0.0-24.0\",\"\",\"\",\"1-1\",\"4360\",\"37\",\"1\",\"Training\",\"Stims/Figures/7-C-20-4.bmp\",\"vafasha\",\"Right\",\"37\",\"2\",\"5\",\"3B\",\"C1\",\"C\",\"21\"
\"\",\"\",\"approach-retreat\",\"25\",\"337166\",\"0.0-25.0\",\"\",\"\",\"1-1\",\"4357\",\"38\",\"1\",\"Training\",\"Stims/Figures/57-C-30-1.bmp\",\"vafasha\",\"Down\",\"38\",\"2\",\"6\",\"3B\",\"C1\",\"C\",\"22\"
\"\",\"\",\"approach-retreat\",\"26\",\"343472\",\"0.0-26.0\",\"\",\"\",\"1-1\",\"4794\",\"39\",\"1\",\"Training\",\"Stims/Figures/27-C-30-1.bmp\",\"vafasha\",\"Left\",\"39\",\"2\",\"7\",\"3B\",\"C1\",\"C\",\"23\"
\"\",\"\",\"approach-retreat\",\"27\",\"349457\",\"0.0-27.0\",\"\",\"\",\"1-1\",\"4473\",\"39\",\"1\",\"Training\",\"Stims/Figures/111-C-30-3.bmp\",\"vafasha\",\"Left\",\"39\",\"2\",\"8\",\"3B\",\"C1\",\"C\",\"24\"
\"\",\"\",\"approach-retreat\",\"28\",\"355106\",\"0.0-28.0\",\"\",\"\",\"1-1\",\"4136\",\"38\",\"0\",\"Training\",\"Stims/Figures/118-J-0-2.bmp\",\"za:haha\",\"Down\",\"40\",\"2\",\"9\",\"3B\",\"C2\",\"C\",\"25\"
\"\",\"\",\"approach-retreat\",\"29\",\"360931\",\"0.0-29.0\",\"\",\"\",\"1-1\",\"4313\",\"40\",\"1\",\"Training\",\"Stims/Figures/118-C-20-2.bmp\",\"vafasha\",\"Up\",\"40\",\"2\",\"10\",\"3B\",\"C1\",\"C\",\"26\"
\"\",\"\",\"approach-retreat\",\"30\",\"368090\",\"0.0-30.0\",\"\",\"\",\"1-1\",\"5646\",\"39\",\"1\",\"Training\",\"Stims/Figures/87-J-10-4.bmp\",\"za:haha\",\"Right\",\"39\",\"2\",\"11\",\"3B\",\"C2\",\"C\",\"27\"
\"\",\"\",\"approach-retreat\",\"31\",\"374785\",\"0.0-31.0\",\"\",\"\",\"1-1\",\"5182\",\"38\",\"1\",\"Training\",\"Stims/Figures/7-J-10-4.bmp\",\"za:haha\",\"Up\",\"38\",\"2\",\"12\",\"3B\",\"C2\",\"C\",\"28\"
\"\",\"\",\"approach-retreat\",\"32\",\"381730\",\"0.0-32.0\",\"\",\"\",\"1-1\",\"5431\",\"37\",\"1\",\"Training\",\"Stims/Figures/57-J-0-1.bmp\",\"za:haha\",\"Left\",\"37\",\"2\",\"13\",\"3B\",\"C2\",\"C\",\"29\"
\"\",\"\",\"approach-retreat\",\"33\",\"387589\",\"0.0-33.0\",\"\",\"\",\"1-1\",\"4347\",\"37\",\"1\",\"Training\",\"Stims/Figures/84-C-20-2.bmp\",\"vafasha\",\"Right\",\"37\",\"2\",\"14\",\"3B\",\"C1\",\"C\",\"30\"
\"\",\"\",\"approach-retreat\",\"34\",\"393711\",\"0.0-34.0\",\"\",\"\",\"1-1\",\"4611\",\"39\",\"1\",\"Training\",\"Stims/Figures/84-J-0-2.bmp\",\"za:haha\",\"Right\",\"39\",\"2\",\"15\",\"3B\",\"C2\",\"C\",\"31\"
\"\",\"\",\"approach-retreat\",\"35\",\"399588\",\"0.0-35.0\",\"\",\"\",\"1-1\",\"4360\",\"38\",\"1\",\"Training\",\"Stims/Figures/111-J-10-3.bmp\",\"za:haha\",\"Up\",\"38\",\"2\",\"16\",\"3B\",\"C2\",\"C\",\"32\"
\"\",\"\",\"approach-retreat\",\"36\",\"405449\",\"0.0-36.0\",\"\",\"\",\"1-1\",\"4351\",\"38\",\"1\",\"Training\",\"Stims/Figures/118-C-20-2.bmp\",\"vafasha\",\"Down\",\"38\",\"3\",\"1\",\"3B\",\"C1\",\"C\",\"33\"
\"\",\"\",\"approach-retreat\",\"37\",\"412078\",\"0.0-37.0\",\"\",\"\",\"1-1\",\"5117\",\"39\",\"1\",\"Training\",\"Stims/Figures/7-J-10-4.bmp\",\"za:haha\",\"Right\",\"39\",\"3\",\"2\",\"3B\",\"C2\",\"C\",\"34\"
\"\",\"\",\"approach-retreat\",\"38\",\"418184\",\"0.0-38.0\",\"\",\"\",\"1-1\",\"4593\",\"37\",\"1\",\"Training\",\"Stims/Figures/27-J-0-1.bmp\",\"za:haha\",\"Left\",\"37\",\"3\",\"3\",\"3B\",\"C2\",\"C\",\"35\"
\"\",\"\",\"approach-retreat\",\"39\",\"426268\",\"0.0-39.0\",\"\",\"\",\"1-1\",\"6571\",\"38\",\"1\",\"Training\",\"Stims/Figures/84-J-0-2.bmp\",\"za:haha\",\"Up\",\"38\",\"3\",\"4\",\"3B\",\"C2\",\"C\",\"36\"
\"\",\"\",\"approach-retreat\",\"40\",\"433059\",\"0.0-40.0\",\"\",\"\",\"1-1\",\"5279\",\"37\",\"1\",\"Training\",\"Stims/Figures/111-C-30-3.bmp\",\"vafasha\",\"Right\",\"37\",\"3\",\"5\",\"3B\",\"C1\",\"C\",\"37\"
\"\",\"\",\"approach-retreat\",\"41\",\"438951\",\"0.0-41.0\",\"\",\"\",\"1-1\",\"4380\",\"39\",\"1\",\"Training\",\"Stims/Figures/27-C-30-1.bmp\",\"vafasha\",\"Left\",\"39\",\"3\",\"6\",\"3B\",\"C1\",\"C\",\"38\"
\"\",\"\",\"approach-retreat\",\"42\",\"444851\",\"0.0-42.0\",\"\",\"\",\"1-1\",\"4389\",\"39\",\"1\",\"Training\",\"Stims/Figures/118-J-0-2.bmp\",\"za:haha\",\"Right\",\"39\",\"3\",\"7\",\"3B\",\"C2\",\"C\",\"39\"
\"\",\"\",\"approach-retreat\",\"43\",\"451092\",\"0.0-43.0\",\"\",\"\",\"1-1\",\"4730\",\"38\",\"1\",\"Training\",\"Stims/Figures/87-C-20-4.bmp\",\"vafasha\",\"Down\",\"38\",\"3\",\"8\",\"3B\",\"C1\",\"C\",\"40\"
\"\",\"\",\"approach-retreat\",\"44\",\"457492\",\"0.0-44.0\",\"\",\"\",\"1-1\",\"4887\",\"38\",\"1\",\"Training\",\"Stims/Figures/100-J-10-3.bmp\",\"za:haha\",\"Up\",\"38\",\"3\",\"9\",\"3B\",\"C2\",\"C\",\"41\"
\"\",\"\",\"approach-retreat\",\"45\",\"463003\",\"0.0-45.0\",\"\",\"\",\"1-1\",\"3998\",\"38\",\"1\",\"Training\",\"Stims/Figures/57-C-30-1.bmp\",\"vafasha\",\"Down\",\"38\",\"3\",\"10\",\"3B\",\"C1\",\"C\",\"42\"
\"\",\"\",\"approach-retreat\",\"46\",\"468820\",\"0.0-46.0\",\"\",\"\",\"1-1\",\"4305\",\"39\",\"0\",\"Training\",\"Stims/Figures/100-C-30-3.bmp\",\"vafasha\",\"Right\",\"37\",\"3\",\"11\",\"3B\",\"C1\",\"C\",\"43\"
\"\",\"\",\"approach-retreat\",\"47\",\"475047\",\"0.0-47.0\",\"\",\"\",\"1-1\",\"4717\",\"38\",\"1\",\"Training\",\"Stims/Figures/87-J-10-4.bmp\",\"za:haha\",\"Up\",\"38\",\"3\",\"12\",\"3B\",\"C2\",\"C\",\"44\"
\"\",\"\",\"approach-retreat\",\"48\",\"480800\",\"0.0-48.0\",\"\",\"\",\"1-1\",\"4241\",\"40\",\"1\",\"Training\",\"Stims/Figures/84-C-20-2.bmp\",\"vafasha\",\"Up\",\"40\",\"3\",\"13\",\"3B\",\"C1\",\"C\",\"45\"
\"\",\"\",\"approach-retreat\",\"49\",\"487662\",\"0.0-49.0\",\"\",\"\",\"1-1\",\"5350\",\"40\",\"1\",\"Training\",\"Stims/Figures/57-J-0-1.bmp\",\"za:haha\",\"Down\",\"40\",\"3\",\"14\",\"3B\",\"C2\",\"C\",\"46\"
\"\",\"\",\"approach-retreat\",\"50\",\"493271\",\"0.0-50.0\",\"\",\"\",\"1-1\",\"4097\",\"39\",\"1\",\"Training\",\"Stims/Figures/7-C-20-4.bmp\",\"vafasha\",\"Left\",\"39\",\"3\",\"15\",\"3B\",\"C1\",\"C\",\"47\"
\"\",\"\",\"approach-retreat\",\"51\",\"498859\",\"0.0-51.0\",\"\",\"\",\"1-1\",\"4077\",\"37\",\"1\",\"Training\",\"Stims/Figures/111-J-10-3.bmp\",\"za:haha\",\"Left\",\"37\",\"3\",\"16\",\"3B\",\"C2\",\"C\",\"48\"
\"\",\"\",\"approach-retreat\",\"52\",\"504702\",\"0.0-52.0\",\"\",\"\",\"1-1\",\"4332\",\"39\",\"1\",\"Training\",\"Stims/Figures/118-J-0-2.bmp\",\"za:haha\",\"Right\",\"39\",\"4\",\"1\",\"3B\",\"C2\",\"C\",\"49\"
\"\",\"\",\"approach-retreat\",\"53\",\"510287\",\"0.0-53.0\",\"\",\"\",\"1-1\",\"4073\",\"37\",\"1\",\"Training\",\"Stims/Figures/100-J-10-3.bmp\",\"za:haha\",\"Left\",\"37\",\"4\",\"2\",\"3B\",\"C2\",\"C\",\"50\"
\"\",\"\",\"approach-retreat\",\"54\",\"516414\",\"0.0-54.0\",\"\",\"\",\"1-1\",\"4616\",\"39\",\"1\",\"Training\",\"Stims/Figures/84-C-20-2.bmp\",\"vafasha\",\"Left\",\"39\",\"4\",\"3\",\"3B\",\"C1\",\"C\",\"51\"
\"\",\"\",\"approach-retreat\",\"55\",\"522404\",\"0.0-55.0\",\"\",\"\",\"1-1\",\"4476\",\"40\",\"1\",\"Training\",\"Stims/Figures/57-J-0-1.bmp\",\"za:haha\",\"Down\",\"40\",\"4\",\"4\",\"3B\",\"C2\",\"C\",\"52\"
\"\",\"\",\"approach-retreat\",\"56\",\"529118\",\"0.0-56.0\",\"\",\"\",\"1-1\",\"5202\",\"37\",\"1\",\"Training\",\"Stims/Figures/87-C-20-4.bmp\",\"vafasha\",\"Right\",\"37\",\"4\",\"5\",\"3B\",\"C1\",\"C\",\"53\"
\"\",\"\",\"approach-retreat\",\"57\",\"534955\",\"0.0-57.0\",\"\",\"\",\"1-1\",\"4324\",\"38\",\"1\",\"Training\",\"Stims/Figures/111-C-30-3.bmp\",\"vafasha\",\"Down\",\"38\",\"4\",\"6\",\"3B\",\"C1\",\"C\",\"54\"
\"\",\"\",\"approach-retreat\",\"58\",\"541153\",\"0.0-58.0\",\"\",\"\",\"1-1\",\"4685\",\"40\",\"1\",\"Training\",\"Stims/Figures/27-C-30-1.bmp\",\"vafasha\",\"Up\",\"40\",\"4\",\"7\",\"3B\",\"C1\",\"C\",\"55\"
\"\",\"\",\"approach-retreat\",\"59\",\"546743\",\"0.0-59.0\",\"\",\"\",\"1-1\",\"4078\",\"40\",\"1\",\"Training\",\"Stims/Figures/111-J-10-3.bmp\",\"za:haha\",\"Down\",\"40\",\"4\",\"8\",\"3B\",\"C2\",\"C\",\"56\"
\"\",\"\",\"approach-retreat\",\"60\",\"552277\",\"0.0-60.0\",\"\",\"\",\"1-1\",\"4024\",\"39\",\"1\",\"Training\",\"Stims/Figures/27-J-0-1.bmp\",\"za:haha\",\"Right\",\"39\",\"4\",\"9\",\"3B\",\"C2\",\"C\",\"57\"
\"\",\"\",\"approach-retreat\",\"61\",\"558599\",\"0.0-61.0\",\"\",\"\",\"1-1\",\"4811\",\"38\",\"1\",\"Training\",\"Stims/Figures/7-J-10-4.bmp\",\"za:haha\",\"Up\",\"38\",\"4\",\"10\",\"3B\",\"C2\",\"C\",\"58\"
\"\",\"\",\"approach-retreat\",\"62\",\"564323\",\"0.0-62.0\",\"\",\"\",\"1-1\",\"4213\",\"40\",\"1\",\"Training\",\"Stims/Figures/84-J-0-2.bmp\",\"za:haha\",\"Down\",\"40\",\"4\",\"11\",\"3B\",\"C2\",\"C\",\"59\"
\"\",\"\",\"approach-retreat\",\"63\",\"570009\",\"0.0-63.0\",\"\",\"\",\"1-1\",\"4174\",\"38\",\"1\",\"Training\",\"Stims/Figures/87-J-10-4.bmp\",\"za:haha\",\"Up\",\"38\",\"4\",\"12\",\"3B\",\"C2\",\"C\",\"60\"
\"\",\"\",\"approach-retreat\",\"64\",\"576302\",\"0.0-64.0\",\"\",\"\",\"1-1\",\"4783\",\"40\",\"1\",\"Training\",\"Stims/Figures/7-C-20-4.bmp\",\"vafasha\",\"Up\",\"40\",\"4\",\"13\",\"3B\",\"C1\",\"C\",\"61\"
\"\",\"\",\"approach-retreat\",\"65\",\"581909\",\"0.0-65.0\",\"\",\"\",\"1-1\",\"4092\",\"39\",\"1\",\"Training\",\"Stims/Figures/57-C-30-1.bmp\",\"vafasha\",\"Left\",\"39\",\"4\",\"14\",\"3B\",\"C1\",\"C\",\"62\"
\"\",\"\",\"approach-retreat\",\"66\",\"587804\",\"0.0-66.0\",\"\",\"\",\"1-1\",\"4383\",\"37\",\"1\",\"Training\",\"Stims/Figures/118-C-20-2.bmp\",\"vafasha\",\"Right\",\"37\",\"4\",\"15\",\"3B\",\"C1\",\"C\",\"63\"
\"\",\"\",\"approach-retreat\",\"67\",\"593346\",\"0.0-67.0\",\"\",\"\",\"1-1\",\"4029\",\"39\",\"1\",\"Training\",\"Stims/Figures/100-C-30-3.bmp\",\"vafasha\",\"Left\",\"39\",\"4\",\"16\",\"3B\",\"C1\",\"C\",\"64\"
\"\",\"\",\"approach-retreat\",\"68\",\"598942\",\"0.0-68.0\",\"\",\"\",\"1-1\",\"4085\",\"40\",\"1\",\"Training\",\"Stims/Figures/100-C-30-3.bmp\",\"vafasha\",\"Up\",\"40\",\"5\",\"1\",\"3B\",\"C1\",\"C\",\"65\"
\"\",\"\",\"approach-retreat\",\"69\",\"604622\",\"0.0-69.0\",\"\",\"\",\"1-1\",\"4166\",\"40\",\"1\",\"Training\",\"Stims/Figures/87-J-10-4.bmp\",\"za:haha\",\"Down\",\"40\",\"5\",\"2\",\"3B\",\"C2\",\"C\",\"66\"
\"\",\"\",\"approach-retreat\",\"70\",\"610697\",\"0.0-70.0\",\"\",\"\",\"1-1\",\"4563\",\"38\",\"1\",\"Training\",\"Stims/Figures/111-J-10-3.bmp\",\"za:haha\",\"Up\",\"38\",\"5\",\"3\",\"3B\",\"C2\",\"C\",\"67\"
\"\",\"\",\"approach-retreat\",\"71\",\"616494\",\"0.0-71.0\",\"\",\"\",\"1-1\",\"4283\",\"37\",\"1\",\"Training\",\"Stims/Figures/84-J-0-2.bmp\",\"za:haha\",\"Left\",\"37\",\"5\",\"4\",\"3B\",\"C2\",\"C\",\"68\"
\"\",\"\",\"approach-retreat\",\"72\",\"622667\",\"0.0-72.0\",\"\",\"\",\"1-1\",\"4661\",\"39\",\"1\",\"Training\",\"Stims/Figures/7-C-20-4.bmp\",\"vafasha\",\"Left\",\"39\",\"5\",\"5\",\"3B\",\"C1\",\"C\",\"69\"
\"\",\"\",\"approach-retreat\",\"73\",\"628259\",\"0.0-73.0\",\"\",\"\",\"1-1\",\"4080\",\"39\",\"1\",\"Training\",\"Stims/Figures/84-C-20-2.bmp\",\"vafasha\",\"Left\",\"39\",\"5\",\"6\",\"3B\",\"C1\",\"C\",\"70\"
\"\",\"\",\"approach-retreat\",\"74\",\"633983\",\"0.0-74.0\",\"\",\"\",\"1-1\",\"4212\",\"38\",\"1\",\"Training\",\"Stims/Figures/7-J-10-4.bmp\",\"za:haha\",\"Up\",\"38\",\"5\",\"7\",\"3B\",\"C2\",\"C\",\"71\"
\"\",\"\",\"approach-retreat\",\"75\",\"639505\",\"0.0-75.0\",\"\",\"\",\"1-1\",\"4009\",\"39\",\"1\",\"Training\",\"Stims/Figures/27-J-0-1.bmp\",\"za:haha\",\"Right\",\"39\",\"5\",\"8\",\"3B\",\"C2\",\"C\",\"72\"
\"\",\"\",\"approach-retreat\",\"76\",\"645144\",\"0.0-76.0\",\"\",\"\",\"1-1\",\"4126\",\"40\",\"1\",\"Training\",\"Stims/Figures/100-J-10-3.bmp\",\"za:haha\",\"Down\",\"40\",\"5\",\"9\",\"3B\",\"C2\",\"C\",\"73\"
\"\",\"\",\"approach-retreat\",\"77\",\"650597\",\"0.0-77.0\",\"\",\"\",\"1-1\",\"3942\",\"37\",\"1\",\"Training\",\"Stims/Figures/57-C-30-1.bmp\",\"vafasha\",\"Right\",\"37\",\"5\",\"10\",\"3B\",\"C1\",\"C\",\"74\"
\"\",\"\",\"approach-retreat\",\"78\",\"656050\",\"0.0-78.0\",\"\",\"\",\"1-1\",\"3941\",\"40\",\"1\",\"Training\",\"Stims/Figures/111-C-30-3.bmp\",\"vafasha\",\"Up\",\"40\",\"5\",\"11\",\"3B\",\"C1\",\"C\",\"75\"
\"\",\"\",\"approach-retreat\",\"79\",\"661667\",\"0.0-79.0\",\"\",\"\",\"1-1\",\"4106\",\"37\",\"1\",\"Training\",\"Stims/Figures/27-C-30-1.bmp\",\"vafasha\",\"Right\",\"37\",\"5\",\"12\",\"3B\",\"C1\",\"C\",\"76\"
\"\",\"\",\"approach-retreat\",\"80\",\"667366\",\"0.0-80.0\",\"\",\"\",\"1-1\",\"4187\",\"39\",\"1\",\"Training\",\"Stims/Figures/118-C-20-2.bmp\",\"vafasha\",\"Left\",\"39\",\"5\",\"13\",\"3B\",\"C1\",\"C\",\"77\"
\"\",\"\",\"approach-retreat\",\"81\",\"672978\",\"0.0-81.0\",\"\",\"\",\"1-1\",\"4093\",\"40\",\"1\",\"Training\",\"Stims/Figures/118-J-0-2.bmp\",\"za:haha\",\"Down\",\"40\",\"5\",\"14\",\"3B\",\"C2\",\"C\",\"78\"
\"\",\"\",\"approach-retreat\",\"82\",\"678827\",\"0.0-82.0\",\"\",\"\",\"1-1\",\"4338\",\"39\",\"1\",\"Training\",\"Stims/Figures/57-J-0-1.bmp\",\"za:haha\",\"Right\",\"39\",\"5\",\"15\",\"3B\",\"C2\",\"C\",\"79\"
\"\",\"\",\"approach-retreat\",\"83\",\"684704\",\"0.0-83.0\",\"\",\"\",\"1-1\",\"4364\",\"38\",\"1\",\"Training\",\"Stims/Figures/87-C-20-4.bmp\",\"vafasha\",\"Down\",\"38\",\"5\",\"16\",\"3B\",\"C1\",\"C\",\"80\"
\"\",\"\",\"approach-retreat\",\"84\",\"690336\",\"0.0-84.0\",\"\",\"\",\"1-1\",\"4121\",\"37\",\"1\",\"Training\",\"Stims/Figures/84-J-0-2.bmp\",\"za:haha\",\"Left\",\"37\",\"6\",\"1\",\"3B\",\"C2\",\"C\",\"81\"
\"\",\"\",\"approach-retreat\",\"85\",\"695988\",\"0.0-85.0\",\"\",\"\",\"1-1\",\"4140\",\"40\",\"1\",\"Training\",\"Stims/Figures/57-C-30-1.bmp\",\"vafasha\",\"Up\",\"40\",\"6\",\"2\",\"3B\",\"C1\",\"C\",\"82\"
\"\",\"\",\"approach-retreat\",\"86\",\"701670\",\"0.0-86.0\",\"\",\"\",\"1-1\",\"4169\",\"38\",\"1\",\"Training\",\"Stims/Figures/57-J-0-1.bmp\",\"za:haha\",\"Up\",\"38\",\"6\",\"3\",\"3B\",\"C2\",\"C\",\"83\"
\"\",\"\",\"approach-retreat\",\"87\",\"707214\",\"0.0-87.0\",\"\",\"\",\"1-1\",\"4033\",\"37\",\"1\",\"Training\",\"Stims/Figures/100-C-30-3.bmp\",\"vafasha\",\"Right\",\"37\",\"6\",\"4\",\"3B\",\"C1\",\"C\",\"84\"
\"\",\"\",\"approach-retreat\",\"88\",\"712858\",\"0.0-88.0\",\"\",\"\",\"1-1\",\"4133\",\"40\",\"1\",\"Training\",\"Stims/Figures/7-C-20-4.bmp\",\"vafasha\",\"Up\",\"40\",\"6\",\"5\",\"3B\",\"C1\",\"C\",\"85\"
\"\",\"\",\"approach-retreat\",\"89\",\"718298\",\"0.0-89.0\",\"\",\"\",\"1-1\",\"3928\",\"37\",\"1\",\"Training\",\"Stims/Figures/27-J-0-1.bmp\",\"za:haha\",\"Left\",\"37\",\"6\",\"6\",\"3B\",\"C2\",\"C\",\"86\"
\"\",\"\",\"approach-retreat\",\"90\",\"723791\",\"0.0-90.0\",\"\",\"\",\"1-1\",\"3980\",\"39\",\"1\",\"Training\",\"Stims/Figures/118-J-0-2.bmp\",\"za:haha\",\"Right\",\"39\",\"6\",\"7\",\"3B\",\"C2\",\"C\",\"87\"
\"\",\"\",\"approach-retreat\",\"91\",\"729499\",\"0.0-91.0\",\"\",\"\",\"1-1\",\"4198\",\"40\",\"1\",\"Training\",\"Stims/Figures/111-J-10-3.bmp\",\"za:haha\",\"Down\",\"40\",\"6\",\"8\",\"3B\",\"C2\",\"C\",\"88\"
\"\",\"\",\"approach-retreat\",\"92\",\"735036\",\"0.0-92.0\",\"\",\"\",\"1-1\",\"4026\",\"38\",\"1\",\"Training\",\"Stims/Figures/87-C-20-4.bmp\",\"vafasha\",\"Down\",\"38\",\"6\",\"9\",\"3B\",\"C1\",\"C\",\"89\"
\"\",\"\",\"approach-retreat\",\"93\",\"741344\",\"0.0-93.0\",\"\",\"\",\"1-1\",\"4796\",\"38\",\"1\",\"Training\",\"Stims/Figures/111-C-30-3.bmp\",\"vafasha\",\"Down\",\"38\",\"6\",\"10\",\"3B\",\"C1\",\"C\",\"90\"
\"\",\"\",\"approach-retreat\",\"94\",\"747333\",\"0.0-94.0\",\"\",\"\",\"1-1\",\"4477\",\"38\",\"1\",\"Training\",\"Stims/Figures/7-J-10-4.bmp\",\"za:haha\",\"Up\",\"38\",\"6\",\"11\",\"3B\",\"C2\",\"C\",\"91\"
\"\",\"\",\"approach-retreat\",\"95\",\"753047\",\"0.0-95.0\",\"\",\"\",\"1-1\",\"4204\",\"40\",\"1\",\"Training\",\"Stims/Figures/100-J-10-3.bmp\",\"za:haha\",\"Down\",\"40\",\"6\",\"12\",\"3B\",\"C2\",\"C\",\"92\"
\"\",\"\",\"approach-retreat\",\"96\",\"759342\",\"0.0-96.0\",\"\",\"\",\"1-1\",\"4784\",\"37\",\"1\",\"Training\",\"Stims/Figures/27-C-30-1.bmp\",\"vafasha\",\"Right\",\"37\",\"6\",\"13\",\"3B\",\"C1\",\"C\",\"93\"
\"\",\"\",\"approach-retreat\",\"97\",\"764956\",\"0.0-97.0\",\"\",\"\",\"1-1\",\"4099\",\"39\",\"1\",\"Training\",\"Stims/Figures/84-C-20-2.bmp\",\"vafasha\",\"Left\",\"39\",\"6\",\"14\",\"3B\",\"C1\",\"C\",\"94\"
\"\",\"\",\"approach-retreat\",\"98\",\"770833\",\"0.0-98.0\",\"\",\"\",\"1-1\",\"4365\",\"37\",\"1\",\"Training\",\"Stims/Figures/87-J-10-4.bmp\",\"za:haha\",\"Left\",\"37\",\"6\",\"15\",\"3B\",\"C2\",\"C\",\"95\"
\"\",\"\",\"approach-retreat\",\"99\",\"777783\",\"0.0-99.0\",\"\",\"\",\"1-1\",\"5440\",\"37\",\"1\",\"Training\",\"Stims/Figures/118-C-20-2.bmp\",\"vafasha\",\"Right\",\"37\",\"6\",\"16\",\"3B\",\"C1\",\"C\",\"96\"
\"\",\"\",\"approach-retreat\",\"100\",\"783909\",\"0.0-100.0\",\"\",\"\",\"1-1\",\"4616\",\"40\",\"1\",\"Training\",\"Stims/Figures/118-J-0-2.bmp\",\"za:haha\",\"Down\",\"40\",\"7\",\"1\",\"3B\",\"C2\",\"C\",\"97\"
\"\",\"\",\"approach-retreat\",\"101\",\"791105\",\"0.0-101.0\",\"\",\"\",\"1-1\",\"5684\",\"39\",\"1\",\"Training\",\"Stims/Figures/87-J-10-4.bmp\",\"za:haha\",\"Right\",\"39\",\"7\",\"2\",\"3B\",\"C2\",\"C\",\"98\"
\"\",\"\",\"approach-retreat\",\"102\",\"796617\",\"0.0-102.0\",\"\",\"\",\"1-1\",\"4001\",\"39\",\"1\",\"Training\",\"Stims/Figures/111-J-10-3.bmp\",\"za:haha\",\"Right\",\"39\",\"7\",\"3\",\"3B\",\"C2\",\"C\",\"99\"
\"\",\"\",\"approach-retreat\",\"103\",\"803156\",\"0.0-103.0\",\"\",\"\",\"1-1\",\"5028\",\"40\",\"1\",\"Training\",\"Stims/Figures/27-J-0-1.bmp\",\"za:haha\",\"Down\",\"40\",\"7\",\"4\",\"3B\",\"C2\",\"C\",\"100\"
\"\",\"\",\"approach-retreat\",\"104\",\"808879\",\"0.0-104.0\",\"\",\"\",\"1-1\",\"4209\",\"39\",\"1\",\"Training\",\"Stims/Figures/118-C-20-2.bmp\",\"vafasha\",\"Left\",\"39\",\"7\",\"5\",\"3B\",\"C1\",\"C\",\"101\"
\"\",\"\",\"approach-retreat\",\"105\",\"814478\",\"0.0-105.0\",\"\",\"\",\"1-1\",\"4088\",\"39\",\"1\",\"Training\",\"Stims/Figures/100-C-30-3.bmp\",\"vafasha\",\"Left\",\"39\",\"7\",\"6\",\"3B\",\"C1\",\"C\",\"102\"
\"\",\"\",\"approach-retreat\",\"106\",\"820010\",\"0.0-106.0\",\"\",\"\",\"1-1\",\"4017\",\"39\",\"1\",\"Training\",\"Stims/Figures/7-C-20-4.bmp\",\"vafasha\",\"Left\",\"39\",\"7\",\"7\",\"3B\",\"C1\",\"C\",\"103\"
\"\",\"\",\"approach-retreat\",\"107\",\"825693\",\"0.0-107.0\",\"\",\"\",\"1-1\",\"4172\",\"37\",\"1\",\"Training\",\"Stims/Figures/111-C-30-3.bmp\",\"vafasha\",\"Right\",\"37\",\"7\",\"8\",\"3B\",\"C1\",\"C\",\"104\"
\"\",\"\",\"approach-retreat\",\"108\",\"831294\",\"0.0-108.0\",\"\",\"\",\"1-1\",\"4087\",\"38\",\"1\",\"Training\",\"Stims/Figures/84-C-20-2.bmp\",\"vafasha\",\"Down\",\"38\",\"7\",\"9\",\"3B\",\"C1\",\"C\",\"105\"
\"\",\"\",\"approach-retreat\",\"109\",\"837872\",\"0.0-109.0\",\"\",\"\",\"1-1\",\"5067\",\"38\",\"1\",\"Training\",\"Stims/Figures/7-J-10-4.bmp\",\"za:haha\",\"Up\",\"38\",\"7\",\"10\",\"3B\",\"C2\",\"C\",\"106\"
\"\",\"\",\"approach-retreat\",\"110\",\"844458\",\"0.0-110.0\",\"\",\"\",\"1-1\",\"5072\",\"38\",\"1\",\"Training\",\"Stims/Figures/87-C-20-4.bmp\",\"vafasha\",\"Down\",\"38\",\"7\",\"11\",\"3B\",\"C1\",\"C\",\"107\"
\"\",\"\",\"approach-retreat\",\"111\",\"850577\",\"0.0-111.0\",\"\",\"\",\"1-1\",\"4608\",\"39\",\"1\",\"Training\",\"Stims/Figures/84-J-0-2.bmp\",\"za:haha\",\"Right\",\"39\",\"7\",\"12\",\"3B\",\"C2\",\"C\",\"108\"
\"\",\"\",\"approach-retreat\",\"112\",\"857349\",\"0.0-112.0\",\"\",\"\",\"1-1\",\"5258\",\"38\",\"1\",\"Training\",\"Stims/Figures/57-J-0-1.bmp\",\"za:haha\",\"Up\",\"38\",\"7\",\"13\",\"3B\",\"C2\",\"C\",\"109\"
\"\",\"\",\"approach-retreat\",\"113\",\"863282\",\"0.0-113.0\",\"\",\"\",\"1-1\",\"4420\",\"40\",\"1\",\"Training\",\"Stims/Figures/57-C-30-1.bmp\",\"vafasha\",\"Up\",\"40\",\"7\",\"14\",\"3B\",\"C1\",\"C\",\"110\"
\"\",\"\",\"approach-retreat\",\"114\",\"868737\",\"0.0-114.0\",\"\",\"\",\"1-1\",\"3942\",\"38\",\"1\",\"Training\",\"Stims/Figures/100-J-10-3.bmp\",\"za:haha\",\"Up\",\"38\",\"7\",\"15\",\"3B\",\"C2\",\"C\",\"111\"
\"\",\"\",\"approach-retreat\",\"115\",\"874403\",\"0.0-115.0\",\"\",\"\",\"1-1\",\"4155\",\"37\",\"0\",\"Training\",\"Stims/Figures/27-C-30-1.bmp\",\"vafasha\",\"Left\",\"39\",\"7\",\"16\",\"3B\",\"C1\",\"C\",\"112\"
\"\",\"\",\"approach-retreat\",\"116\",\"880335\",\"0.0-116.0\",\"\",\"\",\"1-1\",\"4420\",\"38\",\"1\",\"Training\",\"Stims/Figures/84-J-0-2.bmp\",\"za:haha\",\"Up\",\"38\",\"8\",\"1\",\"3B\",\"C2\",\"C\",\"113\"
\"\",\"\",\"approach-retreat\",\"117\",\"886334\",\"0.0-117.0\",\"\",\"\",\"1-1\",\"4485\",\"37\",\"1\",\"Training\",\"Stims/Figures/87-J-10-4.bmp\",\"za:haha\",\"Left\",\"37\",\"8\",\"2\",\"3B\",\"C2\",\"C\",\"114\"
\"\",\"\",\"approach-retreat\",\"118\",\"891866\",\"0.0-118.0\",\"\",\"\",\"1-1\",\"4020\",\"37\",\"1\",\"Training\",\"Stims/Figures/118-C-20-2.bmp\",\"vafasha\",\"Right\",\"37\",\"8\",\"3\",\"3B\",\"C1\",\"C\",\"115\"
\"\",\"\",\"approach-retreat\",\"119\",\"897425\",\"0.0-119.0\",\"\",\"\",\"1-1\",\"4047\",\"39\",\"1\",\"Training\",\"Stims/Figures/7-J-10-4.bmp\",\"za:haha\",\"Right\",\"39\",\"8\",\"4\",\"3B\",\"C2\",\"C\",\"116\"
\"\",\"\",\"approach-retreat\",\"120\",\"903263\",\"0.0-120.0\",\"\",\"\",\"1-1\",\"4327\",\"40\",\"1\",\"Training\",\"Stims/Figures/27-C-30-1.bmp\",\"vafasha\",\"Up\",\"40\",\"8\",\"5\",\"3B\",\"C1\",\"C\",\"117\"
\"\",\"\",\"approach-retreat\",\"121\",\"909217\",\"0.0-121.0\",\"\",\"\",\"1-1\",\"4443\",\"38\",\"1\",\"Training\",\"Stims/Figures/7-C-20-4.bmp\",\"vafasha\",\"Down\",\"38\",\"8\",\"6\",\"3B\",\"C1\",\"C\",\"118\"
\"\",\"\",\"approach-retreat\",\"122\",\"915396\",\"0.0-122.0\",\"\",\"\",\"1-1\",\"4668\",\"37\",\"1\",\"Training\",\"Stims/Figures/27-J-0-1.bmp\",\"za:haha\",\"Left\",\"37\",\"8\",\"7\",\"3B\",\"C2\",\"C\",\"119\"
\"\",\"\",\"approach-retreat\",\"123\",\"921194\",\"0.0-123.0\",\"\",\"\",\"1-1\",\"4286\",\"38\",\"1\",\"Training\",\"Stims/Figures/84-C-20-2.bmp\",\"vafasha\",\"Down\",\"38\",\"8\",\"8\",\"3B\",\"C1\",\"C\",\"120\"
\"\",\"\",\"approach-retreat\",\"124\",\"926835\",\"0.0-124.0\",\"\",\"\",\"1-1\",\"4129\",\"37\",\"1\",\"Training\",\"Stims/Figures/118-J-0-2.bmp\",\"za:haha\",\"Left\",\"37\",\"8\",\"9\",\"3B\",\"C2\",\"C\",\"121\"
\"\",\"\",\"approach-retreat\",\"125\",\"932375\",\"0.0-125.0\",\"\",\"\",\"1-1\",\"4027\",\"37\",\"1\",\"Training\",\"Stims/Figures/100-J-10-3.bmp\",\"za:haha\",\"Left\",\"37\",\"8\",\"10\",\"3B\",\"C2\",\"C\",\"122\"
\"\",\"\",\"approach-retreat\",\"126\",\"938075\",\"0.0-126.0\",\"\",\"\",\"1-1\",\"4188\",\"38\",\"1\",\"Training\",\"Stims/Figures/57-J-0-1.bmp\",\"za:haha\",\"Up\",\"38\",\"8\",\"11\",\"3B\",\"C2\",\"C\",\"123\"
\"\",\"\",\"approach-retreat\",\"127\",\"943749\",\"0.0-127.0\",\"\",\"\",\"1-1\",\"4162\",\"38\",\"0\",\"Training\",\"Stims/Figures/100-C-30-3.bmp\",\"vafasha\",\"Up\",\"40\",\"8\",\"12\",\"3B\",\"C1\",\"C\",\"124\"
\"\",\"\",\"approach-retreat\",\"128\",\"949672\",\"0.0-128.0\",\"\",\"\",\"1-1\",\"4410\",\"38\",\"1\",\"Training\",\"Stims/Figures/57-C-30-1.bmp\",\"vafasha\",\"Down\",\"38\",\"8\",\"13\",\"3B\",\"C1\",\"C\",\"125\"
\"\",\"\",\"approach-retreat\",\"129\",\"955445\",\"0.0-129.0\",\"\",\"\",\"1-1\",\"4261\",\"37\",\"1\",\"Training\",\"Stims/Figures/87-C-20-4.bmp\",\"vafasha\",\"Right\",\"37\",\"8\",\"14\",\"3B\",\"C1\",\"C\",\"126\"
\"\",\"\",\"approach-retreat\",\"130\",\"961366\",\"0.0-130.0\",\"\",\"\",\"1-1\",\"4410\",\"40\",\"1\",\"Training\",\"Stims/Figures/111-J-10-3.bmp\",\"za:haha\",\"Down\",\"40\",\"8\",\"15\",\"3B\",\"C2\",\"C\",\"127\"
\"\",\"\",\"approach-retreat\",\"131\",\"966915\",\"0.0-131.0\",\"\",\"\",\"1-1\",\"4037\",\"37\",\"1\",\"Training\",\"Stims/Figures/111-C-30-3.bmp\",\"vafasha\",\"Right\",\"37\",\"8\",\"16\",\"3B\",\"C1\",\"C\",\"128\"
\"\",\"\",\"approach-retreat\",\"132\",\"973464\",\"0.0-132.0\",\"\",\"\",\"1-1\",\"5037\",\"38\",\"1\",\"Training\",\"Stims/Figures/100-C-30-3.bmp\",\"vafasha\",\"Down\",\"38\",\"9\",\"1\",\"3B\",\"C1\",\"C\",\"129\"
\"\",\"\",\"approach-retreat\",\"133\",\"979168\",\"0.0-133.0\",\"\",\"\",\"1-1\",\"4193\",\"40\",\"1\",\"Training\",\"Stims/Figures/7-C-20-4.bmp\",\"vafasha\",\"Up\",\"40\",\"9\",\"2\",\"3B\",\"C1\",\"C\",\"130\"
\"\",\"\",\"approach-retreat\",\"134\",\"985036\",\"0.0-134.0\",\"\",\"\",\"1-1\",\"4355\",\"39\",\"1\",\"Training\",\"Stims/Figures/57-J-0-1.bmp\",\"za:haha\",\"Right\",\"39\",\"9\",\"3\",\"3B\",\"C2\",\"C\",\"131\"
\"\",\"\",\"approach-retreat\",\"135\",\"991075\",\"0.0-135.0\",\"\",\"\",\"1-1\",\"4529\",\"39\",\"1\",\"Training\",\"Stims/Figures/111-J-10-3.bmp\",\"za:haha\",\"Right\",\"39\",\"9\",\"4\",\"3B\",\"C2\",\"C\",\"132\"
\"\",\"\",\"approach-retreat\",\"136\",\"996698\",\"0.0-136.0\",\"\",\"\",\"1-1\",\"4111\",\"37\",\"1\",\"Training\",\"Stims/Figures/100-J-10-3.bmp\",\"za:haha\",\"Left\",\"37\",\"9\",\"5\",\"3B\",\"C2\",\"C\",\"133\"
\"\",\"\",\"approach-retreat\",\"137\",\"1003193\",\"0.0-137.0\",\"\",\"\",\"1-1\",\"4982\",\"37\",\"1\",\"Training\",\"Stims/Figures/118-J-0-2.bmp\",\"za:haha\",\"Left\",\"37\",\"9\",\"6\",\"3B\",\"C2\",\"C\",\"134\"
\"\",\"\",\"approach-retreat\",\"138\",\"1008975\",\"0.0-138.0\",\"\",\"\",\"1-1\",\"4271\",\"37\",\"1\",\"Training\",\"Stims/Figures/7-J-10-4.bmp\",\"za:haha\",\"Left\",\"37\",\"9\",\"7\",\"3B\",\"C2\",\"C\",\"135\"
\"\",\"\",\"approach-retreat\",\"139\",\"1014847\",\"0.0-139.0\",\"\",\"\",\"1-1\",\"4360\",\"38\",\"1\",\"Training\",\"Stims/Figures/84-J-0-2.bmp\",\"za:haha\",\"Up\",\"38\",\"9\",\"8\",\"3B\",\"C2\",\"C\",\"136\"
\"\",\"\",\"approach-retreat\",\"140\",\"1020380\",\"0.0-140.0\",\"\",\"\",\"1-1\",\"4020\",\"38\",\"1\",\"Training\",\"Stims/Figures/118-C-20-2.bmp\",\"vafasha\",\"Down\",\"38\",\"9\",\"9\",\"3B\",\"C1\",\"C\",\"137\"
\"\",\"\",\"approach-retreat\",\"141\",\"1025871\",\"0.0-141.0\",\"\",\"\",\"1-1\",\"3980\",\"38\",\"1\",\"Training\",\"Stims/Figures/84-C-20-2.bmp\",\"vafasha\",\"Down\",\"38\",\"9\",\"10\",\"3B\",\"C1\",\"C\",\"138\"
\"\",\"\",\"approach-retreat\",\"142\",\"1032043\",\"0.0-142.0\",\"\",\"\",\"1-1\",\"4661\",\"40\",\"1\",\"Training\",\"Stims/Figures/27-J-0-1.bmp\",\"za:haha\",\"Down\",\"40\",\"9\",\"11\",\"3B\",\"C2\",\"C\",\"139\"
\"\",\"\",\"approach-retreat\",\"143\",\"1037982\",\"0.0-143.0\",\"\",\"\",\"1-1\",\"4427\",\"40\",\"1\",\"Training\",\"Stims/Figures/27-C-30-1.bmp\",\"vafasha\",\"Up\",\"40\",\"9\",\"12\",\"3B\",\"C1\",\"C\",\"140\"
\"\",\"\",\"approach-retreat\",\"144\",\"1043946\",\"0.0-144.0\",\"\",\"\",\"1-1\",\"4452\",\"37\",\"1\",\"Training\",\"Stims/Figures/87-C-20-4.bmp\",\"vafasha\",\"Right\",\"37\",\"9\",\"13\",\"3B\",\"C1\",\"C\",\"141\"
\"\",\"\",\"approach-retreat\",\"145\",\"1049464\",\"0.0-145.0\",\"\",\"\",\"1-1\",\"4005\",\"37\",\"1\",\"Training\",\"Stims/Figures/111-C-30-3.bmp\",\"vafasha\",\"Right\",\"37\",\"9\",\"14\",\"3B\",\"C1\",\"C\",\"142\"
\"\",\"\",\"approach-retreat\",\"146\",\"1055068\",\"0.0-146.0\",\"\",\"\",\"1-1\",\"4092\",\"38\",\"1\",\"Training\",\"Stims/Figures/87-J-10-4.bmp\",\"za:haha\",\"Up\",\"38\",\"9\",\"15\",\"3B\",\"C2\",\"C\",\"143\"
\"\",\"\",\"approach-retreat\",\"147\",\"1060760\",\"0.0-147.0\",\"\",\"\",\"1-1\",\"4181\",\"39\",\"1\",\"Training\",\"Stims/Figures/57-C-30-1.bmp\",\"vafasha\",\"Left\",\"39\",\"9\",\"16\",\"3B\",\"C1\",\"C\",\"144\"
\"19497\",\"\",\"instructions\",\"148\",\"1080258\",\"0.0-148.0\",\"[{\"\"page_index\"\":0,\"\"viewing_time\"\":19497}]\",\"\",\"\",\"\",\"\",\"\",\"\",\"\",\"\",\"\",\"\",\"\",\"\",\"\",\"\",\"\",\"\"
\"\",\"\",\"approach-retreat\",\"149\",\"1087795\",\"0.0-149.0\",\"\",\"\",\"1-1\",\"6027\",\"40\",\"1\",\"Testing\",\"Stims/Figures/71-J-0-1.bmp\",\"za:haha\",\"Down\",\"40\",\"1\",\"1\",\"3B\",\"C2\",\"C\",\"1\"
\"\",\"\",\"approach-retreat\",\"150\",\"1094992\",\"0.0-150.0\",\"\",\"\",\"1-1\",\"5685\",\"38\",\"0\",\"Testing\",\"Stims/Figures/27-J-0-1.bmp\",\"za:haha\",\"Down\",\"40\",\"1\",\"2\",\"3B\",\"C2\",\"C\",\"2\"
\"\",\"\",\"approach-retreat\",\"151\",\"1100949\",\"0.0-151.0\",\"\",\"\",\"1-1\",\"4447\",\"38\",\"1\",\"Testing\",\"Stims/Figures/100-C-30-3.bmp\",\"vafasha\",\"Down\",\"38\",\"1\",\"3\",\"3B\",\"C1\",\"C\",\"3\"
\"\",\"\",\"approach-retreat\",\"152\",\"1107482\",\"0.0-152.0\",\"\",\"\",\"1-1\",\"5022\",\"37\",\"1\",\"Testing\",\"Stims/Figures/118-J-0-2.bmp\",\"za:haha\",\"Left\",\"37\",\"1\",\"4\",\"3B\",\"C2\",\"C\",\"4\"
\"\",\"\",\"approach-retreat\",\"153\",\"1113892\",\"0.0-153.0\",\"\",\"\",\"1-1\",\"4901\",\"39\",\"1\",\"Testing\",\"Stims/Figures/84-C-20-2.bmp\",\"vafasha\",\"Left\",\"39\",\"1\",\"5\",\"3B\",\"C1\",\"C\",\"5\"
\"\",\"\",\"approach-retreat\",\"154\",\"1120309\",\"0.0-154.0\",\"\",\"\",\"1-1\",\"4908\",\"37\",\"1\",\"Testing\",\"Stims/Figures/71-C-30-1.bmp\",\"vafasha\",\"Right\",\"37\",\"1\",\"6\",\"3B\",\"C1\",\"C\",\"6\"
\"\",\"\",\"approach-retreat\",\"155\",\"1126651\",\"0.0-155.0\",\"\",\"\",\"1-1\",\"4832\",\"39\",\"0\",\"Testing\",\"Stims/Figures/87-J-10-4.bmp\",\"za:haha\",\"Left\",\"37\",\"1\",\"7\",\"3B\",\"C2\",\"C\",\"7\"
\"\",\"\",\"approach-retreat\",\"156\",\"1132251\",\"0.0-156.0\",\"\",\"\",\"1-1\",\"4090\",\"37\",\"1\",\"Testing\",\"Stims/Figures/57-J-0-1.bmp\",\"za:haha\",\"Left\",\"37\",\"1\",\"8\",\"3B\",\"C2\",\"C\",\"8\"
\"\",\"\",\"approach-retreat\",\"157\",\"1138588\",\"0.0-157.0\",\"\",\"\",\"1-1\",\"4827\",\"38\",\"0\",\"Testing\",\"Stims/Figures/102-J-10-4.bmp\",\"za:haha\",\"Down\",\"40\",\"1\",\"9\",\"3B\",\"C2\",\"C\",\"9\"
\"\",\"\",\"approach-retreat\",\"158\",\"1144682\",\"0.0-158.0\",\"\",\"\",\"1-1\",\"4585\",\"40\",\"1\",\"Testing\",\"Stims/Figures/111-C-30-3.bmp\",\"vafasha\",\"Up\",\"40\",\"1\",\"10\",\"3B\",\"C1\",\"C\",\"10\"
\"\",\"\",\"approach-retreat\",\"159\",\"1150619\",\"0.0-159.0\",\"\",\"\",\"1-1\",\"4428\",\"37\",\"1\",\"Testing\",\"Stims/Figures/139-C-20-2.bmp\",\"vafasha\",\"Right\",\"37\",\"1\",\"11\",\"3B\",\"C1\",\"C\",\"11\"
\"\",\"\",\"approach-retreat\",\"160\",\"1157299\",\"0.0-160.0\",\"\",\"\",\"1-1\",\"5169\",\"40\",\"0\",\"Testing\",\"Stims/Figures/87-C-20-4.bmp\",\"vafasha\",\"Down\",\"38\",\"1\",\"12\",\"3B\",\"C1\",\"C\",\"12\"
\"\",\"\",\"approach-retreat\",\"161\",\"1162917\",\"0.0-161.0\",\"\",\"\",\"1-1\",\"4108\",\"39\",\"1\",\"Testing\",\"Stims/Figures/44-C-30-3.bmp\",\"vafasha\",\"Left\",\"39\",\"1\",\"13\",\"3B\",\"C1\",\"C\",\"13\"
\"\",\"\",\"approach-retreat\",\"162\",\"1169252\",\"0.0-162.0\",\"\",\"\",\"1-1\",\"4825\",\"37\",\"1\",\"Testing\",\"Stims/Figures/139-J-0-2.bmp\",\"za:haha\",\"Left\",\"37\",\"1\",\"14\",\"3B\",\"C2\",\"C\",\"14\"
\"\",\"\",\"approach-retreat\",\"163\",\"1174787\",\"0.0-163.0\",\"\",\"\",\"1-1\",\"4025\",\"37\",\"1\",\"Testing\",\"Stims/Figures/27-C-30-1.bmp\",\"vafasha\",\"Right\",\"37\",\"1\",\"15\",\"3B\",\"C1\",\"C\",\"15\"
\"\",\"\",\"approach-retreat\",\"164\",\"1180427\",\"0.0-164.0\",\"\",\"\",\"1-1\",\"4130\",\"38\",\"1\",\"Testing\",\"Stims/Figures/57-C-30-1.bmp\",\"vafasha\",\"Down\",\"38\",\"1\",\"16\",\"3B\",\"C1\",\"C\",\"16\"
\"\",\"\",\"approach-retreat\",\"165\",\"1186174\",\"0.0-165.0\",\"\",\"\",\"1-1\",\"4236\",\"37\",\"1\",\"Testing\",\"Stims/Figures/7-C-20-4.bmp\",\"vafasha\",\"Right\",\"37\",\"1\",\"17\",\"3B\",\"C1\",\"C\",\"17\"
\"\",\"\",\"approach-retreat\",\"166\",\"1192614\",\"0.0-166.0\",\"\",\"\",\"1-1\",\"4929\",\"40\",\"1\",\"Testing\",\"Stims/Figures/102-C-20-4.bmp\",\"vafasha\",\"Up\",\"40\",\"1\",\"18\",\"3B\",\"C1\",\"C\",\"18\"
\"\",\"\",\"approach-retreat\",\"167\",\"1198176\",\"0.0-167.0\",\"\",\"\",\"1-1\",\"4046\",\"37\",\"1\",\"Testing\",\"Stims/Figures/118-C-20-2.bmp\",\"vafasha\",\"Right\",\"37\",\"1\",\"19\",\"3B\",\"C1\",\"C\",\"19\"
\"\",\"\",\"approach-retreat\",\"168\",\"1203882\",\"0.0-168.0\",\"\",\"\",\"1-1\",\"4195\",\"40\",\"0\",\"Testing\",\"Stims/Figures/100-J-10-3.bmp\",\"za:haha\",\"Up\",\"38\",\"1\",\"20\",\"3B\",\"C2\",\"C\",\"20\"
\"\",\"\",\"approach-retreat\",\"169\",\"1209915\",\"0.0-169.0\",\"\",\"\",\"1-1\",\"4523\",\"38\",\"1\",\"Testing\",\"Stims/Figures/84-J-0-2.bmp\",\"za:haha\",\"Up\",\"38\",\"1\",\"21\",\"3B\",\"C2\",\"C\",\"21\"
\"\",\"\",\"approach-retreat\",\"170\",\"1215548\",\"0.0-170.0\",\"\",\"\",\"1-1\",\"4121\",\"37\",\"0\",\"Testing\",\"Stims/Figures/7-J-10-4.bmp\",\"za:haha\",\"Right\",\"39\",\"1\",\"22\",\"3B\",\"C2\",\"C\",\"22\"
\"\",\"\",\"approach-retreat\",\"171\",\"1221525\",\"0.0-171.0\",\"\",\"\",\"1-1\",\"4469\",\"40\",\"0\",\"Testing\",\"Stims/Figures/111-J-10-3.bmp\",\"za:haha\",\"Up\",\"38\",\"1\",\"23\",\"3B\",\"C2\",\"C\",\"23\"
\"\",\"\",\"approach-retreat\",\"172\",\"1227995\",\"0.0-172.0\",\"\",\"\",\"1-1\",\"4959\",\"40\",\"0\",\"Testing\",\"Stims/Figures/44-J-10-3.bmp\",\"za:haha\",\"Up\",\"38\",\"1\",\"24\",\"3B\",\"C2\",\"C\",\"24\"
\"\",\"\",\"approach-retreat\",\"173\",\"1235331\",\"0.0-173.0\",\"\",\"\",\"1-1\",\"5827\",\"37\",\"0\",\"Testing\",\"Stims/Figures/44-C-30-3.bmp\",\"vafasha\",\"Left\",\"39\",\"2\",\"1\",\"3B\",\"C1\",\"C\",\"25\"
\"\",\"\",\"approach-retreat\",\"174\",\"1241926\",\"0.0-174.0\",\"\",\"\",\"1-1\",\"5084\",\"39\",\"0\",\"Testing\",\"Stims/Figures/100-J-10-3.bmp\",\"za:haha\",\"Left\",\"37\",\"2\",\"2\",\"3B\",\"C2\",\"C\",\"26\"
\"\",\"\",\"approach-retreat\",\"175\",\"1247432\",\"0.0-175.0\",\"\",\"\",\"1-1\",\"3995\",\"39\",\"1\",\"Testing\",\"Stims/Figures/100-C-30-3.bmp\",\"vafasha\",\"Left\",\"39\",\"2\",\"3\",\"3B\",\"C1\",\"C\",\"27\"
\"\",\"\",\"approach-retreat\",\"176\",\"1253254\",\"0.0-176.0\",\"\",\"\",\"1-1\",\"4312\",\"40\",\"1\",\"Testing\",\"Stims/Figures/57-C-30-1.bmp\",\"vafasha\",\"Up\",\"40\",\"2\",\"4\",\"3B\",\"C1\",\"C\",\"28\"
\"\",\"\",\"approach-retreat\",\"177\",\"1259369\",\"0.0-177.0\",\"\",\"\",\"1-1\",\"4605\",\"40\",\"1\",\"Testing\",\"Stims/Figures/118-C-20-2.bmp\",\"vafasha\",\"Up\",\"40\",\"2\",\"5\",\"3B\",\"C1\",\"C\",\"29\"
\"\",\"\",\"approach-retreat\",\"178\",\"1265394\",\"0.0-178.0\",\"\",\"\",\"1-1\",\"4516\",\"37\",\"1\",\"Testing\",\"Stims/Figures/84-J-0-2.bmp\",\"za:haha\",\"Left\",\"37\",\"2\",\"6\",\"3B\",\"C2\",\"C\",\"30\"
\"\",\"\",\"approach-retreat\",\"179\",\"1271224\",\"0.0-179.0\",\"\",\"\",\"1-1\",\"4321\",\"39\",\"1\",\"Testing\",\"Stims/Figures/118-J-0-2.bmp\",\"za:haha\",\"Right\",\"39\",\"2\",\"7\",\"3B\",\"C2\",\"C\",\"31\"
\"\",\"\",\"approach-retreat\",\"180\",\"1277907\",\"0.0-180.0\",\"\",\"\",\"1-1\",\"5172\",\"40\",\"0\",\"Testing\",\"Stims/Figures/139-C-20-2.bmp\",\"vafasha\",\"Down\",\"38\",\"2\",\"8\",\"3B\",\"C1\",\"C\",\"32\"
\"\",\"\",\"approach-retreat\",\"181\",\"1283792\",\"0.0-181.0\",\"\",\"\",\"1-1\",\"4375\",\"39\",\"1\",\"Testing\",\"Stims/Figures/7-J-10-4.bmp\",\"za:haha\",\"Right\",\"39\",\"2\",\"9\",\"3B\",\"C2\",\"C\",\"33\"
\"\",\"\",\"approach-retreat\",\"182\",\"1289917\",\"0.0-182.0\",\"\",\"\",\"1-1\",\"4615\",\"38\",\"1\",\"Testing\",\"Stims/Figures/27-C-30-1.bmp\",\"vafasha\",\"Down\",\"38\",\"2\",\"10\",\"3B\",\"C1\",\"C\",\"34\"
\"\",\"\",\"approach-retreat\",\"183\",\"1295619\",\"0.0-183.0\",\"\",\"\",\"1-1\",\"4192\",\"40\",\"1\",\"Testing\",\"Stims/Figures/84-C-20-2.bmp\",\"vafasha\",\"Up\",\"40\",\"2\",\"11\",\"3B\",\"C1\",\"C\",\"35\"
\"\",\"\",\"approach-retreat\",\"184\",\"1301306\",\"0.0-184.0\",\"\",\"\",\"1-1\",\"4178\",\"37\",\"1\",\"Testing\",\"Stims/Figures/71-J-0-1.bmp\",\"za:haha\",\"Left\",\"37\",\"2\",\"12\",\"3B\",\"C2\",\"C\",\"36\"
\"\",\"\",\"approach-retreat\",\"185\",\"1307181\",\"0.0-185.0\",\"\",\"\",\"1-1\",\"4365\",\"38\",\"1\",\"Testing\",\"Stims/Figures/139-J-0-2.bmp\",\"za:haha\",\"Up\",\"38\",\"2\",\"13\",\"3B\",\"C2\",\"C\",\"37\"
\"\",\"\",\"approach-retreat\",\"186\",\"1313003\",\"0.0-186.0\",\"\",\"\",\"1-1\",\"4314\",\"40\",\"0\",\"Testing\",\"Stims/Figures/44-J-10-3.bmp\",\"za:haha\",\"Up\",\"38\",\"2\",\"14\",\"3B\",\"C2\",\"C\",\"38\"
\"\",\"\",\"approach-retreat\",\"187\",\"1318960\",\"0.0-187.0\",\"\",\"\",\"1-1\",\"4446\",\"38\",\"1\",\"Testing\",\"Stims/Figures/27-J-0-1.bmp\",\"za:haha\",\"Up\",\"38\",\"2\",\"15\",\"3B\",\"C2\",\"C\",\"39\"
\"\",\"\",\"approach-retreat\",\"188\",\"1325345\",\"0.0-188.0\",\"\",\"\",\"1-1\",\"4873\",\"37\",\"1\",\"Testing\",\"Stims/Figures/102-C-20-4.bmp\",\"vafasha\",\"Right\",\"37\",\"2\",\"16\",\"3B\",\"C1\",\"C\",\"40\"
\"\",\"\",\"approach-retreat\",\"189\",\"1332447\",\"0.0-189.0\",\"\",\"\",\"1-1\",\"5594\",\"40\",\"1\",\"Testing\",\"Stims/Figures/111-J-10-3.bmp\",\"za:haha\",\"Down\",\"40\",\"2\",\"17\",\"3B\",\"C2\",\"C\",\"41\"
\"\",\"\",\"approach-retreat\",\"190\",\"1338078\",\"0.0-190.0\",\"\",\"\",\"1-1\",\"4119\",\"38\",\"1\",\"Testing\",\"Stims/Figures/71-C-30-1.bmp\",\"vafasha\",\"Down\",\"38\",\"2\",\"18\",\"3B\",\"C1\",\"C\",\"42\"
\"\",\"\",\"approach-retreat\",\"191\",\"1344277\",\"0.0-191.0\",\"\",\"\",\"1-1\",\"4692\",\"39\",\"0\",\"Testing\",\"Stims/Figures/87-J-10-4.bmp\",\"za:haha\",\"Left\",\"37\",\"2\",\"19\",\"3B\",\"C2\",\"C\",\"43\"
\"\",\"\",\"approach-retreat\",\"192\",\"1350032\",\"0.0-192.0\",\"\",\"\",\"1-1\",\"4244\",\"39\",\"1\",\"Testing\",\"Stims/Figures/57-J-0-1.bmp\",\"za:haha\",\"Right\",\"39\",\"2\",\"20\",\"3B\",\"C2\",\"C\",\"44\"
\"\",\"\",\"approach-retreat\",\"193\",\"1355920\",\"0.0-193.0\",\"\",\"\",\"1-1\",\"4376\",\"38\",\"1\",\"Testing\",\"Stims/Figures/87-C-20-4.bmp\",\"vafasha\",\"Down\",\"38\",\"2\",\"21\",\"3B\",\"C1\",\"C\",\"45\"
\"\",\"\",\"approach-retreat\",\"194\",\"1361742\",\"0.0-194.0\",\"\",\"\",\"1-1\",\"4314\",\"38\",\"1\",\"Testing\",\"Stims/Figures/111-C-30-3.bmp\",\"vafasha\",\"Down\",\"38\",\"2\",\"22\",\"3B\",\"C1\",\"C\",\"46\"
\"\",\"\",\"approach-retreat\",\"195\",\"1368389\",\"0.0-195.0\",\"\",\"\",\"1-1\",\"5137\",\"39\",\"1\",\"Testing\",\"Stims/Figures/102-J-10-4.bmp\",\"za:haha\",\"Right\",\"39\",\"2\",\"23\",\"3B\",\"C2\",\"C\",\"47\"
\"\",\"\",\"approach-retreat\",\"196\",\"1374096\",\"0.0-196.0\",\"\",\"\",\"1-1\",\"4199\",\"37\",\"1\",\"Testing\",\"Stims/Figures/7-C-20-4.bmp\",\"vafasha\",\"Right\",\"37\",\"2\",\"24\",\"3B\",\"C1\",\"C\",\"48\"
\"\",\"\",\"approach-retreat\",\"197\",\"1380054\",\"0.0-197.0\",\"\",\"\",\"1-1\",\"4448\",\"39\",\"1\",\"Testing\",\"Stims/Figures/27-C-30-1.bmp\",\"vafasha\",\"Left\",\"39\",\"3\",\"1\",\"3B\",\"C1\",\"C\",\"49\"
\"\",\"\",\"approach-retreat\",\"198\",\"1385807\",\"0.0-198.0\",\"\",\"\",\"1-1\",\"4244\",\"37\",\"0\",\"Testing\",\"Stims/Figures/87-J-10-4.bmp\",\"za:haha\",\"Right\",\"39\",\"3\",\"2\",\"3B\",\"C2\",\"C\",\"50\"
\"\",\"\",\"approach-retreat\",\"199\",\"1391591\",\"0.0-199.0\",\"\",\"\",\"1-1\",\"4274\",\"37\",\"1\",\"Testing\",\"Stims/Figures/102-J-10-4.bmp\",\"za:haha\",\"Left\",\"37\",\"3\",\"3\",\"3B\",\"C2\",\"C\",\"51\"
\"\",\"\",\"approach-retreat\",\"200\",\"1398154\",\"0.0-200.0\",\"\",\"\",\"1-1\",\"5054\",\"40\",\"1\",\"Testing\",\"Stims/Figures/84-J-0-2.bmp\",\"za:haha\",\"Down\",\"40\",\"3\",\"4\",\"3B\",\"C2\",\"C\",\"52\"
\"\",\"\",\"approach-retreat\",\"201\",\"1403854\",\"0.0-201.0\",\"\",\"\",\"1-1\",\"4189\",\"37\",\"1\",\"Testing\",\"Stims/Figures/139-J-0-2.bmp\",\"za:haha\",\"Left\",\"37\",\"3\",\"5\",\"3B\",\"C2\",\"C\",\"53\"
\"\",\"\",\"approach-retreat\",\"202\",\"1409954\",\"0.0-202.0\",\"\",\"\",\"1-1\",\"4590\",\"37\",\"0\",\"Testing\",\"Stims/Figures/100-J-10-3.bmp\",\"za:haha\",\"Right\",\"39\",\"3\",\"6\",\"3B\",\"C2\",\"C\",\"54\"
\"\",\"\",\"approach-retreat\",\"203\",\"1415692\",\"0.0-203.0\",\"\",\"\",\"1-1\",\"4228\",\"38\",\"1\",\"Testing\",\"Stims/Figures/111-J-10-3.bmp\",\"za:haha\",\"Up\",\"38\",\"3\",\"7\",\"3B\",\"C2\",\"C\",\"55\"
\"\",\"\",\"approach-retreat\",\"204\",\"1421731\",\"0.0-204.0\",\"\",\"\",\"1-1\",\"4531\",\"39\",\"0\",\"Testing\",\"Stims/Figures/139-C-20-2.bmp\",\"vafasha\",\"Right\",\"37\",\"3\",\"8\",\"3B\",\"C1\",\"C\",\"56\"
\"\",\"\",\"approach-retreat\",\"205\",\"1428544\",\"0.0-205.0\",\"\",\"\",\"1-1\",\"5304\",\"40\",\"1\",\"Testing\",\"Stims/Figures/71-J-0-1.bmp\",\"za:haha\",\"Down\",\"40\",\"3\",\"9\",\"3B\",\"C2\",\"C\",\"57\"
\"\",\"\",\"approach-retreat\",\"206\",\"1435149\",\"0.0-206.0\",\"\",\"\",\"1-1\",\"5094\",\"37\",\"1\",\"Testing\",\"Stims/Figures/84-C-20-2.bmp\",\"vafasha\",\"Right\",\"37\",\"3\",\"10\",\"3B\",\"C1\",\"C\",\"58\"
\"\",\"\",\"approach-retreat\",\"207\",\"1440851\",\"0.0-207.0\",\"\",\"\",\"1-1\",\"4193\",\"38\",\"1\",\"Testing\",\"Stims/Figures/111-C-30-3.bmp\",\"vafasha\",\"Down\",\"38\",\"3\",\"11\",\"3B\",\"C1\",\"C\",\"59\"
\"\",\"\",\"approach-retreat\",\"208\",\"1447942\",\"0.0-208.0\",\"\",\"\",\"1-1\",\"5582\",\"37\",\"0\",\"Testing\",\"Stims/Figures/7-J-10-4.bmp\",\"za:haha\",\"Right\",\"39\",\"3\",\"12\",\"3B\",\"C2\",\"C\",\"60\"
\"\",\"\",\"approach-retreat\",\"209\",\"1453819\",\"0.0-209.0\",\"\",\"\",\"1-1\",\"4368\",\"39\",\"1\",\"Testing\",\"Stims/Figures/57-C-30-1.bmp\",\"vafasha\",\"Left\",\"39\",\"3\",\"13\",\"3B\",\"C1\",\"C\",\"61\"
\"\",\"\",\"approach-retreat\",\"210\",\"1459389\",\"0.0-210.0\",\"\",\"\",\"1-1\",\"4061\",\"37\",\"1\",\"Testing\",\"Stims/Figures/57-J-0-1.bmp\",\"za:haha\",\"Left\",\"37\",\"3\",\"14\",\"3B\",\"C2\",\"C\",\"62\"
\"\",\"\",\"approach-retreat\",\"211\",\"1465770\",\"0.0-211.0\",\"\",\"\",\"1-1\",\"4870\",\"38\",\"1\",\"Testing\",\"Stims/Figures/118-J-0-2.bmp\",\"za:haha\",\"Up\",\"38\",\"3\",\"15\",\"3B\",\"C2\",\"C\",\"63\"
\"\",\"\",\"approach-retreat\",\"212\",\"1472106\",\"0.0-212.0\",\"\",\"\",\"1-1\",\"4827\",\"38\",\"1\",\"Testing\",\"Stims/Figures/27-J-0-1.bmp\",\"za:haha\",\"Up\",\"38\",\"3\",\"16\",\"3B\",\"C2\",\"C\",\"64\"
\"\",\"\",\"approach-retreat\",\"213\",\"1478389\",\"0.0-213.0\",\"\",\"\",\"1-1\",\"4773\",\"38\",\"1\",\"Testing\",\"Stims/Figures/44-C-30-3.bmp\",\"vafasha\",\"Down\",\"38\",\"3\",\"17\",\"3B\",\"C1\",\"C\",\"65\"
\"\",\"\",\"approach-retreat\",\"214\",\"1484872\",\"0.0-214.0\",\"\",\"\",\"1-1\",\"4974\",\"39\",\"0\",\"Testing\",\"Stims/Figures/87-C-20-4.bmp\",\"vafasha\",\"Right\",\"37\",\"3\",\"18\",\"3B\",\"C1\",\"C\",\"66\"
\"\",\"\",\"approach-retreat\",\"215\",\"1492889\",\"0.0-215.0\",\"\",\"\",\"1-1\",\"6507\",\"40\",\"1\",\"Testing\",\"Stims/Figures/71-C-30-1.bmp\",\"vafasha\",\"Up\",\"40\",\"3\",\"19\",\"3B\",\"C1\",\"C\",\"67\"
\"\",\"\",\"approach-retreat\",\"216\",\"1499064\",\"0.0-216.0\",\"\",\"\",\"1-1\",\"4664\",\"38\",\"1\",\"Testing\",\"Stims/Figures/44-J-10-3.bmp\",\"za:haha\",\"Up\",\"38\",\"3\",\"20\",\"3B\",\"C2\",\"C\",\"68\"
\"\",\"\",\"approach-retreat\",\"217\",\"1504614\",\"0.0-217.0\",\"\",\"\",\"1-1\",\"4039\",\"38\",\"1\",\"Testing\",\"Stims/Figures/118-C-20-2.bmp\",\"vafasha\",\"Down\",\"38\",\"3\",\"21\",\"3B\",\"C1\",\"C\",\"69\"
\"\",\"\",\"approach-retreat\",\"218\",\"1511483\",\"0.0-218.0\",\"\",\"\",\"1-1\",\"5357\",\"38\",\"1\",\"Testing\",\"Stims/Figures/100-C-30-3.bmp\",\"vafasha\",\"Down\",\"38\",\"3\",\"22\",\"3B\",\"C1\",\"C\",\"70\"
\"\",\"\",\"approach-retreat\",\"219\",\"1517489\",\"0.0-219.0\",\"\",\"\",\"1-1\",\"4498\",\"40\",\"1\",\"Testing\",\"Stims/Figures/7-C-20-4.bmp\",\"vafasha\",\"Up\",\"40\",\"3\",\"23\",\"3B\",\"C1\",\"C\",\"71\"
\"\",\"\",\"approach-retreat\",\"220\",\"1523259\",\"0.0-220.0\",\"\",\"\",\"1-1\",\"4260\",\"39\",\"1\",\"Testing\",\"Stims/Figures/102-C-20-4.bmp\",\"vafasha\",\"Left\",\"39\",\"3\",\"24\",\"3B\",\"C1\",\"C\",\"72\"
\"\",\"\",\"approach-retreat\",\"221\",\"1529189\",\"0.0-221.0\",\"\",\"\",\"1-1\",\"4420\",\"38\",\"1\",\"Testing\",\"Stims/Figures/139-J-0-2.bmp\",\"za:haha\",\"Up\",\"38\",\"4\",\"1\",\"3B\",\"C2\",\"C\",\"73\"
\"\",\"\",\"approach-retreat\",\"222\",\"1535394\",\"0.0-222.0\",\"\",\"\",\"1-1\",\"4695\",\"38\",\"1\",\"Testing\",\"Stims/Figures/44-J-10-3.bmp\",\"za:haha\",\"Up\",\"38\",\"4\",\"2\",\"3B\",\"C2\",\"C\",\"74\"
\"\",\"\",\"approach-retreat\",\"223\",\"1542017\",\"0.0-223.0\",\"\",\"\",\"1-1\",\"5114\",\"37\",\"1\",\"Testing\",\"Stims/Figures/100-J-10-3.bmp\",\"za:haha\",\"Left\",\"37\",\"4\",\"3\",\"3B\",\"C2\",\"C\",\"75\"
\"\",\"\",\"approach-retreat\",\"224\",\"1547859\",\"0.0-224.0\",\"\",\"\",\"1-1\",\"4331\",\"39\",\"1\",\"Testing\",\"Stims/Figures/87-J-10-4.bmp\",\"za:haha\",\"Right\",\"39\",\"4\",\"4\",\"3B\",\"C2\",\"C\",\"76\"
\"\",\"\",\"approach-retreat\",\"225\",\"1554116\",\"0.0-225.0\",\"\",\"\",\"1-1\",\"4748\",\"39\",\"1\",\"Testing\",\"Stims/Figures/57-J-0-1.bmp\",\"za:haha\",\"Right\",\"39\",\"4\",\"5\",\"3B\",\"C2\",\"C\",\"77\"
\"\",\"\",\"approach-retreat\",\"226\",\"1560184\",\"0.0-226.0\",\"\",\"\",\"1-1\",\"4558\",\"37\",\"1\",\"Testing\",\"Stims/Figures/7-J-10-4.bmp\",\"za:haha\",\"Left\",\"37\",\"4\",\"6\",\"3B\",\"C2\",\"C\",\"78\"
\"\",\"\",\"approach-retreat\",\"227\",\"1566114\",\"0.0-227.0\",\"\",\"\",\"1-1\",\"4419\",\"38\",\"1\",\"Testing\",\"Stims/Figures/102-J-10-4.bmp\",\"za:haha\",\"Up\",\"38\",\"4\",\"7\",\"3B\",\"C2\",\"C\",\"79\"
\"\",\"\",\"approach-retreat\",\"228\",\"1571764\",\"0.0-228.0\",\"\",\"\",\"1-1\",\"4139\",\"39\",\"1\",\"Testing\",\"Stims/Figures/139-C-20-2.bmp\",\"vafasha\",\"Left\",\"39\",\"4\",\"8\",\"3B\",\"C1\",\"C\",\"80\"
\"\",\"\",\"approach-retreat\",\"229\",\"1577544\",\"0.0-229.0\",\"\",\"\",\"1-1\",\"4271\",\"38\",\"1\",\"Testing\",\"Stims/Figures/84-C-20-2.bmp\",\"vafasha\",\"Down\",\"38\",\"4\",\"9\",\"3B\",\"C1\",\"C\",\"81\"
\"\",\"\",\"approach-retreat\",\"230\",\"1584947\",\"0.0-230.0\",\"\",\"\",\"1-1\",\"5893\",\"38\",\"0\",\"Testing\",\"Stims/Figures/102-C-20-4.bmp\",\"vafasha\",\"Up\",\"40\",\"4\",\"10\",\"3B\",\"C1\",\"C\",\"82\"
\"\",\"\",\"approach-retreat\",\"231\",\"1591681\",\"0.0-231.0\",\"\",\"\",\"1-1\",\"5226\",\"40\",\"0\",\"Testing\",\"Stims/Figures/111-C-30-3.bmp\",\"vafasha\",\"Down\",\"38\",\"4\",\"11\",\"3B\",\"C1\",\"C\",\"83\"
\"\",\"\",\"approach-retreat\",\"232\",\"1597311\",\"0.0-232.0\",\"\",\"\",\"1-1\",\"4120\",\"37\",\"1\",\"Testing\",\"Stims/Figures/57-C-30-1.bmp\",\"vafasha\",\"Right\",\"37\",\"4\",\"12\",\"3B\",\"C1\",\"C\",\"84\"
\"\",\"\",\"approach-retreat\",\"233\",\"1602893\",\"0.0-233.0\",\"\",\"\",\"1-1\",\"4070\",\"38\",\"1\",\"Testing\",\"Stims/Figures/100-C-30-3.bmp\",\"vafasha\",\"Down\",\"38\",\"4\",\"13\",\"3B\",\"C1\",\"C\",\"85\"
\"\",\"\",\"approach-retreat\",\"234\",\"1608611\",\"0.0-234.0\",\"\",\"\",\"1-1\",\"4207\",\"40\",\"1\",\"Testing\",\"Stims/Figures/71-C-30-1.bmp\",\"vafasha\",\"Up\",\"40\",\"4\",\"14\",\"3B\",\"C1\",\"C\",\"86\"
\"\",\"\",\"approach-retreat\",\"235\",\"1614146\",\"0.0-235.0\",\"\",\"\",\"1-1\",\"4025\",\"39\",\"1\",\"Testing\",\"Stims/Figures/118-J-0-2.bmp\",\"za:haha\",\"Right\",\"39\",\"4\",\"15\",\"3B\",\"C2\",\"C\",\"87\"
\"\",\"\",\"approach-retreat\",\"236\",\"1619828\",\"0.0-236.0\",\"\",\"\",\"1-1\",\"4172\",\"40\",\"0\",\"Testing\",\"Stims/Figures/87-C-20-4.bmp\",\"vafasha\",\"Down\",\"38\",\"4\",\"16\",\"3B\",\"C1\",\"C\",\"88\"
\"\",\"\",\"approach-retreat\",\"237\",\"1625637\",\"0.0-237.0\",\"\",\"\",\"1-1\",\"4295\",\"39\",\"1\",\"Testing\",\"Stims/Figures/44-C-30-3.bmp\",\"vafasha\",\"Left\",\"39\",\"4\",\"17\",\"3B\",\"C1\",\"C\",\"89\"
\"\",\"\",\"approach-retreat\",\"238\",\"1631889\",\"0.0-238.0\",\"\",\"\",\"1-1\",\"4743\",\"38\",\"0\",\"Testing\",\"Stims/Figures/111-J-10-3.bmp\",\"za:haha\",\"Down\",\"40\",\"4\",\"18\",\"3B\",\"C2\",\"C\",\"90\"
\"\",\"\",\"approach-retreat\",\"239\",\"1637544\",\"0.0-239.0\",\"\",\"\",\"1-1\",\"4147\",\"39\",\"1\",\"Testing\",\"Stims/Figures/84-J-0-2.bmp\",\"za:haha\",\"Right\",\"39\",\"4\",\"19\",\"3B\",\"C2\",\"C\",\"91\"
\"\",\"\",\"approach-retreat\",\"240\",\"1643149\",\"0.0-240.0\",\"\",\"\",\"1-1\",\"4095\",\"37\",\"1\",\"Testing\",\"Stims/Figures/27-J-0-1.bmp\",\"za:haha\",\"Left\",\"37\",\"4\",\"20\",\"3B\",\"C2\",\"C\",\"92\"
\"\",\"\",\"approach-retreat\",\"241\",\"1648773\",\"0.0-241.0\",\"\",\"\",\"1-1\",\"4117\",\"37\",\"1\",\"Testing\",\"Stims/Figures/118-C-20-2.bmp\",\"vafasha\",\"Right\",\"37\",\"4\",\"21\",\"3B\",\"C1\",\"C\",\"93\"
\"\",\"\",\"approach-retreat\",\"242\",\"1654443\",\"0.0-242.0\",\"\",\"\",\"1-1\",\"4159\",\"38\",\"1\",\"Testing\",\"Stims/Figures/27-C-30-1.bmp\",\"vafasha\",\"Down\",\"38\",\"4\",\"22\",\"3B\",\"C1\",\"C\",\"94\"
\"\",\"\",\"approach-retreat\",\"243\",\"1659944\",\"0.0-243.0\",\"\",\"\",\"1-1\",\"3992\",\"37\",\"1\",\"Testing\",\"Stims/Figures/71-J-0-1.bmp\",\"za:haha\",\"Left\",\"37\",\"4\",\"23\",\"3B\",\"C2\",\"C\",\"95\"
\"\",\"\",\"approach-retreat\",\"244\",\"1665638\",\"0.0-244.0\",\"\",\"\",\"1-1\",\"4185\",\"40\",\"1\",\"Testing\",\"Stims/Figures/7-C-20-4.bmp\",\"vafasha\",\"Up\",\"40\",\"4\",\"24\",\"3B\",\"C1\",\"C\",\"96\"
\"29703\",\"\",\"survey-text\",\"245\",\"1695350\",\"0.0-245.0\",\"\",\"{\"\"Q0\"\":\"\"PS160065\"\"}\",\"\",\"\",\"\",\"\",\"\",\"\",\"\",\"\",\"\",\"\",\"\",\"\",\"\",\"\",\"\"
