"rt","key_press","trial_type","trial_index","time_elapsed","internal_node_id","view_history","responses","Id","Rt","ResKeyCode","ResCorr","TrialType2","Image","Label","Location","CorrectResponse","Block","BlockTrial","Condition","LabelType","Subcondition","trialNum"
"60808","32","text","0","60815","0.0-0.0-0.0","","","","","","","","","","","","","","","","",""
"321287","","instructions","1","382105","0.0-1.0","[{""page_index"":0,""viewing_time"":321287}]","","","","","","","","","","","","","","","",""
"71471","","survey-multi-choice","2","453648","0.0-2.0","","{""Q0"":""Da"",""Q1"":""Da"",""Q2"":""Da"",""Q3"":""Da"",""Q4"":""Da"",""Q5"":""Da""}","","","","","","","","","","","","","","",""
"","","bio","3","465757","0.0-3.0","","{""age"":""19"",""gender"":""f"",""specify"":""""}","","","","","","","","","","","","","","",""
"","","approach-retreat","4","480092","0.0-4.0","","","2-1","12819","37","0","Training","Stims/Figures/111-C-30-3.bmp","sa:sa:ha","Right","39","1","1","8","C2","J","1"
"","","approach-retreat","5","502705","0.0-5.0","","","2-1","21100","38","0","Training","Stims/Figures/111-J-10-3.bmp","za:saha","Up","40","1","2","8","C2","J","2"
"","","approach-retreat","6","515321","0.0-6.0","","","2-1","11103","40","0","Training","Stims/Figures/71-J-0-1.bmp","fa:fa:sha","Down","38","1","3","8","C1","J","3"
"","","approach-retreat","7","526749","0.0-7.0","","","2-1","9902","37","1","Training","Stims/Figures/19-C-20-4.bmp","zasa:za","Left","37","1","4","8","C2","J","4"
"","","approach-retreat","8","534279","0.0-8.0","","","2-1","6023","37","0","Training","Stims/Figures/74-J-10-4.bmp","zasaha","Left","39","1","5","8","C2","J","5"
"","","approach-retreat","9","550684","0.0-9.0","","","2-1","14893","38","0","Training","Stims/Figures/94-J-0-2.bmp","fafa:sha","Up","40","1","6","8","C1","J","6"
"","","approach-retreat","10","567418","0.0-10.0","","","2-1","15223","38","1","Training","Stims/Figures/19-J-10-4.bmp","za:ha:za","Down","38","1","7","8","C2","J","7"
"","","approach-retreat","11","574439","0.0-11.0","","","2-1","5499","38","0","Training","Stims/Figures/74-C-20-4.bmp","za:ha:ha","Down","40","1","8","8","C2","J","8"
"","","approach-retreat","12","583926","0.0-12.0","","","2-1","7975","39","0","Training","Stims/Figures/27-J-0-1.bmp","vafa:sha","Right","37","1","9","8","C1","J","9"
"","","approach-retreat","13","593583","0.0-13.0","","","2-1","8145","39","0","Training","Stims/Figures/144-J-10-3.bmp","sa:saza","Right","37","1","10","8","C2","J","10"
"","","approach-retreat","14","599952","0.0-14.0","","","2-1","4857","40","0","Training","Stims/Figures/85-J-0-2.bmp","fasha:va","Down","38","1","11","8","C1","J","11"
"","","approach-retreat","15","606261","0.0-15.0","","","2-1","4797","40","0","Training","Stims/Figures/27-C-30-1.bmp","fa:sha:va","Up","38","1","12","8","C1","J","12"
"","","approach-retreat","16","612355","0.0-16.0","","","2-1","4583","37","0","Training","Stims/Figures/94-C-20-2.bmp","va:fa:va","Right","39","1","13","8","C1","J","13"
"","","approach-retreat","17","620684","0.0-17.0","","","2-1","6818","40","0","Training","Stims/Figures/144-C-30-3.bmp","zasaza","Up","38","1","14","8","C2","J","14"
"","","approach-retreat","18","627074","0.0-18.0","","","2-1","4877","39","0","Training","Stims/Figures/85-C-20-2.bmp","fafava","Left","37","1","15","8","C1","J","15"
"","","approach-retreat","19","635663","0.0-19.0","","","2-1","7076","37","1","Training","Stims/Figures/71-C-30-1.bmp","fa:fa:va","Left","37","1","16","8","C1","J","16"
"","","approach-retreat","20","643133","0.0-20.0","","","2-1","5958","37","0","Training","Stims/Figures/19-J-10-4.bmp","za:ha:za","Left","39","2","1","8","C2","J","17"
"","","approach-retreat","21","649747","0.0-21.0","","","2-1","5103","40","0","Training","Stims/Figures/71-C-30-1.bmp","fa:fa:va","Up","38","2","2","8","C1","J","18"
"","","approach-retreat","22","657129","0.0-22.0","","","2-1","5859","39","1","Training","Stims/Figures/19-C-20-4.bmp","zasa:za","Right","39","2","3","8","C2","J","19"
"","","approach-retreat","23","666052","0.0-23.0","","","2-1","7417","37","0","Training","Stims/Figures/111-C-30-3.bmp","sa:sa:ha","Right","39","2","4","8","C2","J","20"
"","","approach-retreat","24","672242","0.0-24.0","","","2-1","4679","39","1","Training","Stims/Figures/74-C-20-4.bmp","za:ha:ha","Right","39","2","5","8","C2","J","21"
"","","approach-retreat","25","678657","0.0-25.0","","","2-1","4903","40","1","Training","Stims/Figures/27-C-30-1.bmp","fa:sha:va","Down","40","2","6","8","C1","J","22"
"","","approach-retreat","26","687345","0.0-26.0","","","2-1","7180","40","1","Training","Stims/Figures/144-J-10-3.bmp","sa:saza","Up","40","2","7","8","C2","J","23"
"","","approach-retreat","27","693239","0.0-27.0","","","2-1","4382","39","1","Training","Stims/Figures/85-C-20-2.bmp","fafava","Right","39","2","8","8","C1","J","24"
"","","approach-retreat","28","699184","0.0-28.0","","","2-1","4432","40","0","Training","Stims/Figures/71-J-0-1.bmp","fa:fa:sha","Down","38","2","9","8","C1","J","25"
"","","approach-retreat","29","706607","0.0-29.0","","","2-1","5911","37","0","Training","Stims/Figures/94-J-0-2.bmp","fafa:sha","Left","39","2","10","8","C1","J","26"
"","","approach-retreat","30","713480","0.0-30.0","","","2-1","5361","40","1","Training","Stims/Figures/111-J-10-3.bmp","za:saha","Up","40","2","11","8","C2","J","27"
"","","approach-retreat","31","719598","0.0-31.0","","","2-1","4606","39","1","Training","Stims/Figures/85-J-0-2.bmp","fasha:va","Left","39","2","12","8","C1","J","28"
"","","approach-retreat","32","726324","0.0-32.0","","","2-1","5213","40","0","Training","Stims/Figures/74-J-10-4.bmp","zasaha","Down","38","2","13","8","C2","J","29"
"","","approach-retreat","33","733299","0.0-33.0","","","2-1","5463","40","1","Training","Stims/Figures/27-J-0-1.bmp","vafa:sha","Up","40","2","14","8","C1","J","30"
"","","approach-retreat","34","739457","0.0-34.0","","","2-1","4647","40","1","Training","Stims/Figures/144-C-30-3.bmp","zasaza","Down","40","2","15","8","C2","J","31"
"","","approach-retreat","35","745702","0.0-35.0","","","2-1","4725","37","1","Training","Stims/Figures/94-C-20-2.bmp","va:fa:va","Left","37","2","16","8","C1","J","32"
"","","approach-retreat","36","752391","0.0-36.0","","","2-1","5185","38","1","Training","Stims/Figures/27-C-30-1.bmp","fa:sha:va","Up","38","3","1","8","C1","J","33"
"","","approach-retreat","37","758681","0.0-37.0","","","2-1","4779","37","1","Training","Stims/Figures/144-C-30-3.bmp","zasaza","Left","37","3","2","8","C2","J","34"
"","","approach-retreat","38","765124","0.0-38.0","","","2-1","4924","39","0","Training","Stims/Figures/71-J-0-1.bmp","fa:fa:sha","Right","37","3","3","8","C1","J","35"
"","","approach-retreat","39","772393","0.0-39.0","","","2-1","5759","37","1","Training","Stims/Figures/19-J-10-4.bmp","za:ha:za","Right","37","3","4","8","C2","J","36"
"","","approach-retreat","40","778563","0.0-40.0","","","2-1","4659","37","1","Training","Stims/Figures/111-C-30-3.bmp","sa:sa:ha","Left","37","3","5","8","C2","J","37"
"","","approach-retreat","41","788644","0.0-41.0","","","2-1","8570","40","1","Training","Stims/Figures/71-C-30-1.bmp","fa:fa:va","Down","40","3","6","8","C1","J","38"
"","","approach-retreat","42","795513","0.0-42.0","","","2-1","5357","38","1","Training","Stims/Figures/94-C-20-2.bmp","va:fa:va","Up","38","3","7","8","C1","J","39"
"","","approach-retreat","43","803540","0.0-43.0","","","2-1","6516","39","0","Training","Stims/Figures/74-J-10-4.bmp","zasaha","Right","37","3","8","8","C2","J","40"
"","","approach-retreat","44","809709","0.0-44.0","","","2-1","4657","37","0","Training","Stims/Figures/111-J-10-3.bmp","za:saha","Left","39","3","9","8","C2","J","41"
"","","approach-retreat","45","816024","0.0-45.0","","","2-1","4803","37","0","Training","Stims/Figures/94-J-0-2.bmp","fafa:sha","Left","39","3","10","8","C1","J","42"
"","","approach-retreat","46","822485","0.0-46.0","","","2-1","4949","39","1","Training","Stims/Figures/85-C-20-2.bmp","fafava","Right","39","3","11","8","C1","J","43"
"","","approach-retreat","47","828885","0.0-47.0","","","2-1","4889","40","0","Training","Stims/Figures/74-C-20-4.bmp","za:ha:ha","Up","38","3","12","8","C2","J","44"
"","","approach-retreat","48","835213","0.0-48.0","","","2-1","4817","40","0","Training","Stims/Figures/85-J-0-2.bmp","fasha:va","Down","38","3","13","8","C1","J","45"
"","","approach-retreat","49","841507","0.0-49.0","","","2-1","4781","38","1","Training","Stims/Figures/144-J-10-3.bmp","sa:saza","Down","38","3","14","8","C2","J","46"
"","","approach-retreat","50","852169","0.0-50.0","","","2-1","9150","40","1","Training","Stims/Figures/27-J-0-1.bmp","vafa:sha","Up","40","3","15","8","C1","J","47"
"","","approach-retreat","51","858810","0.0-51.0","","","2-1","5130","38","0","Training","Stims/Figures/19-C-20-4.bmp","zasa:za","Down","40","3","16","8","C2","J","48"
"","","approach-retreat","52","875709","0.0-52.0","","","2-1","15378","40","1","Training","Stims/Figures/85-C-20-2.bmp","fafava","Down","40","4","1","8","C1","J","49"
"","","approach-retreat","53","883513","0.0-53.0","","","2-1","6260","40","1","Training","Stims/Figures/94-C-20-2.bmp","va:fa:va","Down","40","4","2","8","C1","J","50"
"","","approach-retreat","54","890965","0.0-54.0","","","2-1","5946","38","1","Training","Stims/Figures/71-C-30-1.bmp","fa:fa:va","Up","38","4","3","8","C1","J","51"
"","","approach-retreat","55","898502","0.0-55.0","","","2-1","6025","39","1","Training","Stims/Figures/27-C-30-1.bmp","fa:sha:va","Right","39","4","4","8","C1","J","52"
"","","approach-retreat","56","904791","0.0-56.0","","","2-1","4777","37","1","Training","Stims/Figures/111-C-30-3.bmp","sa:sa:ha","Left","37","4","5","8","C2","J","53"
"","","approach-retreat","57","912683","0.0-57.0","","","2-1","6379","38","0","Training","Stims/Figures/111-J-10-3.bmp","za:saha","Up","40","4","6","8","C2","J","54"
"","","approach-retreat","58","927613","0.0-58.0","","","2-1","13420","39","0","Training","Stims/Figures/74-C-20-4.bmp","za:ha:ha","Left","37","4","7","8","C2","J","55"
"","","approach-retreat","59","935787","0.0-59.0","","","2-1","6662","40","0","Training","Stims/Figures/27-J-0-1.bmp","vafa:sha","Down","38","4","8","8","C1","J","56"
"","","approach-retreat","60","946511","0.0-60.0","","","2-1","9214","39","0","Training","Stims/Figures/94-J-0-2.bmp","fafa:sha","Right","37","4","9","8","C1","J","57"
"","","approach-retreat","61","952809","0.0-61.0","","","2-1","4788","40","1","Training","Stims/Figures/71-J-0-1.bmp","fa:fa:sha","Up","40","4","10","8","C1","J","58"
"","","approach-retreat","62","959299","0.0-62.0","","","2-1","4977","37","1","Training","Stims/Figures/74-J-10-4.bmp","zasaha","Right","37","4","11","8","C2","J","59"
"","","approach-retreat","63","965117","0.0-63.0","","","2-1","4307","39","1","Training","Stims/Figures/85-J-0-2.bmp","fasha:va","Left","39","4","12","8","C1","J","60"
"","","approach-retreat","64","971807","0.0-64.0","","","2-1","5177","40","1","Training","Stims/Figures/144-C-30-3.bmp","zasaza","Down","40","4","13","8","C2","J","61"
"","","approach-retreat","65","977608","0.0-65.0","","","2-1","4289","40","1","Training","Stims/Figures/144-J-10-3.bmp","sa:saza","Up","40","4","14","8","C2","J","62"
"","","approach-retreat","66","983953","0.0-66.0","","","2-1","4816","37","1","Training","Stims/Figures/19-C-20-4.bmp","zasa:za","Left","37","4","15","8","C2","J","63"
"","","approach-retreat","67","990748","0.0-67.0","","","2-1","5290","39","0","Training","Stims/Figures/19-J-10-4.bmp","za:ha:za","Right","37","4","16","8","C2","J","64"
"","","approach-retreat","68","998291","0.0-68.0","","","2-1","6031","40","1","Training","Stims/Figures/144-J-10-3.bmp","sa:saza","Up","40","5","1","8","C2","J","65"
"","","approach-retreat","69","1004655","0.0-69.0","","","2-1","4854","39","1","Training","Stims/Figures/71-C-30-1.bmp","fa:fa:va","Right","39","5","2","8","C1","J","66"
"","","approach-retreat","70","1012950","0.0-70.0","","","2-1","6782","40","1","Training","Stims/Figures/85-C-20-2.bmp","fafava","Down","40","5","3","8","C1","J","67"
"","","approach-retreat","71","1019819","0.0-71.0","","","2-1","5358","40","1","Training","Stims/Figures/111-J-10-3.bmp","za:saha","Up","40","5","4","8","C2","J","68"
"","","approach-retreat","72","1026199","0.0-72.0","","","2-1","4868","39","0","Training","Stims/Figures/71-J-0-1.bmp","fa:fa:sha","Right","37","5","5","8","C1","J","69"
"","","approach-retreat","73","1032872","0.0-73.0","","","2-1","5160","38","1","Training","Stims/Figures/27-C-30-1.bmp","fa:sha:va","Up","38","5","6","8","C1","J","70"
"","","approach-retreat","74","1038806","0.0-74.0","","","2-1","4422","38","1","Training","Stims/Figures/19-J-10-4.bmp","za:ha:za","Down","38","5","7","8","C2","J","71"
"","","approach-retreat","75","1046714","0.0-75.0","","","2-1","6389","40","0","Training","Stims/Figures/74-J-10-4.bmp","zasaha","Down","38","5","8","8","C2","J","72"
"","","approach-retreat","76","1053016","0.0-76.0","","","2-1","4797","40","1","Training","Stims/Figures/111-C-30-3.bmp","sa:sa:ha","Down","40","5","9","8","C2","J","73"
"","","approach-retreat","77","1066966","0.0-77.0","","","2-1","12437","37","1","Training","Stims/Figures/94-C-20-2.bmp","va:fa:va","Left","37","5","10","8","C1","J","74"
"","","approach-retreat","78","1073569","0.0-78.0","","","2-1","5090","40","1","Training","Stims/Figures/94-J-0-2.bmp","fafa:sha","Up","40","5","11","8","C1","J","75"
"","","approach-retreat","79","1079795","0.0-79.0","","","2-1","4714","39","1","Training","Stims/Figures/27-J-0-1.bmp","vafa:sha","Left","39","5","12","8","C1","J","76"
"","","approach-retreat","80","1086850","0.0-80.0","","","2-1","5535","37","1","Training","Stims/Figures/85-J-0-2.bmp","fasha:va","Right","37","5","13","8","C1","J","77"
"","","approach-retreat","81","1092673","0.0-81.0","","","2-1","4311","37","1","Training","Stims/Figures/74-C-20-4.bmp","za:ha:ha","Left","37","5","14","8","C2","J","78"
"","","approach-retreat","82","1099050","0.0-82.0","","","2-1","4866","37","1","Training","Stims/Figures/144-C-30-3.bmp","zasaza","Left","37","5","15","8","C2","J","79"
"","","approach-retreat","83","1105184","0.0-83.0","","","2-1","4621","39","1","Training","Stims/Figures/19-C-20-4.bmp","zasa:za","Right","39","5","16","8","C2","J","80"
"","","approach-retreat","84","1112469","0.0-84.0","","","2-1","5774","39","0","Training","Stims/Figures/111-J-10-3.bmp","za:saha","Right","37","6","1","8","C2","J","81"
"","","approach-retreat","85","1119263","0.0-85.0","","","2-1","5283","40","1","Training","Stims/Figures/144-C-30-3.bmp","zasaza","Down","40","6","2","8","C2","J","82"
"","","approach-retreat","86","1124939","0.0-86.0","","","2-1","4165","40","0","Training","Stims/Figures/85-J-0-2.bmp","fasha:va","Down","38","6","3","8","C1","J","83"
"","","approach-retreat","87","1131323","0.0-87.0","","","2-1","4874","37","1","Training","Stims/Figures/27-J-0-1.bmp","vafa:sha","Right","37","6","4","8","C1","J","84"
"","","approach-retreat","88","1137628","0.0-88.0","","","2-1","4794","39","0","Training","Stims/Figures/19-J-10-4.bmp","za:ha:za","Right","37","6","5","8","C2","J","85"
"","","approach-retreat","89","1144093","0.0-89.0","","","2-1","4953","38","1","Training","Stims/Figures/27-C-30-1.bmp","fa:sha:va","Up","38","6","6","8","C1","J","86"
"","","approach-retreat","90","1152268","0.0-90.0","","","2-1","6664","40","1","Training","Stims/Figures/74-J-10-4.bmp","zasaha","Up","40","6","7","8","C2","J","87"
"","","approach-retreat","91","1158137","0.0-91.0","","","2-1","4359","39","1","Training","Stims/Figures/71-J-0-1.bmp","fa:fa:sha","Left","39","6","8","8","C1","J","88"
"","","approach-retreat","92","1164261","0.0-92.0","","","2-1","4618","40","0","Training","Stims/Figures/111-C-30-3.bmp","sa:sa:ha","Up","38","6","9","8","C2","J","89"
"","","approach-retreat","93","1169815","0.0-93.0","","","2-1","4019","38","0","Training","Stims/Figures/19-C-20-4.bmp","zasa:za","Down","40","6","10","8","C2","J","90"
"","","approach-retreat","94","1176674","0.0-94.0","","","2-1","5355","40","0","Training","Stims/Figures/94-J-0-2.bmp","fafa:sha","Down","38","6","11","8","C1","J","91"
"","","approach-retreat","95","1185508","0.0-95.0","","","2-1","7321","38","1","Training","Stims/Figures/94-C-20-2.bmp","va:fa:va","Up","38","6","12","8","C1","J","92"
"","","approach-retreat","96","1191893","0.0-96.0","","","2-1","4874","39","0","Training","Stims/Figures/144-J-10-3.bmp","sa:saza","Right","37","6","13","8","C2","J","93"
"","","approach-retreat","97","1198362","0.0-97.0","","","2-1","4957","39","0","Training","Stims/Figures/71-C-30-1.bmp","fa:fa:va","Left","37","6","14","8","C1","J","94"
"","","approach-retreat","98","1204400","0.0-98.0","","","2-1","4527","39","0","Training","Stims/Figures/85-C-20-2.bmp","fafava","Left","37","6","15","8","C1","J","95"
"","","approach-retreat","99","1210550","0.0-99.0","","","2-1","4639","37","1","Training","Stims/Figures/74-C-20-4.bmp","za:ha:ha","Left","37","6","16","8","C2","J","96"
"","","approach-retreat","100","1216929","0.0-100.0","","","2-1","4867","40","1","Training","Stims/Figures/111-C-30-3.bmp","sa:sa:ha","Down","40","7","1","8","C2","J","97"
"","","approach-retreat","101","1223922","0.0-101.0","","","2-1","5483","37","1","Training","Stims/Figures/74-C-20-4.bmp","za:ha:ha","Left","37","7","2","8","C2","J","98"
"","","approach-retreat","102","1230883","0.0-102.0","","","2-1","5448","40","0","Training","Stims/Figures/71-C-30-1.bmp","fa:fa:va","Up","38","7","3","8","C1","J","99"
"","","approach-retreat","103","1236755","0.0-103.0","","","2-1","4361","39","1","Training","Stims/Figures/71-J-0-1.bmp","fa:fa:sha","Left","39","7","4","8","C1","J","100"
"","","approach-retreat","104","1244120","0.0-104.0","","","2-1","5853","40","0","Training","Stims/Figures/19-C-20-4.bmp","zasa:za","Up","38","7","5","8","C2","J","101"
"","","approach-retreat","105","1249675","0.0-105.0","","","2-1","4043","40","1","Training","Stims/Figures/111-J-10-3.bmp","za:saha","Up","40","7","6","8","C2","J","102"
"","","approach-retreat","106","1256291","0.0-106.0","","","2-1","5105","37","0","Training","Stims/Figures/74-J-10-4.bmp","zasaha","Left","39","7","7","8","C2","J","103"
"","","approach-retreat","107","1261969","0.0-107.0","","","2-1","4144","39","1","Training","Stims/Figures/144-C-30-3.bmp","zasaza","Right","39","7","8","8","C2","J","104"
"","","approach-retreat","108","1268474","0.0-108.0","","","2-1","4994","38","1","Training","Stims/Figures/94-C-20-2.bmp","va:fa:va","Up","38","7","9","8","C1","J","105"
"","","approach-retreat","109","1274325","0.0-109.0","","","2-1","4339","37","1","Training","Stims/Figures/27-J-0-1.bmp","vafa:sha","Right","37","7","10","8","C1","J","106"
"","","approach-retreat","110","1280655","0.0-110.0","","","2-1","4820","38","1","Training","Stims/Figures/144-J-10-3.bmp","sa:saza","Down","38","7","11","8","C2","J","107"
"","","approach-retreat","111","1287398","0.0-111.0","","","2-1","5230","38","1","Training","Stims/Figures/19-J-10-4.bmp","za:ha:za","Down","38","7","12","8","C2","J","108"
"","","approach-retreat","112","1294439","0.0-112.0","","","2-1","5530","39","1","Training","Stims/Figures/27-C-30-1.bmp","fa:sha:va","Right","39","7","13","8","C1","J","109"
"","","approach-retreat","113","1300549","0.0-113.0","","","2-1","4598","40","1","Training","Stims/Figures/85-C-20-2.bmp","fafava","Down","40","7","14","8","C1","J","110"
"","","approach-retreat","114","1306400","0.0-114.0","","","2-1","4340","37","1","Training","Stims/Figures/85-J-0-2.bmp","fasha:va","Right","37","7","15","8","C1","J","111"
"","","approach-retreat","115","1313989","0.0-115.0","","","2-1","6079","37","0","Training","Stims/Figures/94-J-0-2.bmp","fafa:sha","Left","39","7","16","8","C1","J","112"
"","","approach-retreat","116","1320874","0.0-116.0","","","2-1","5370","39","1","Training","Stims/Figures/74-C-20-4.bmp","za:ha:ha","Right","39","8","1","8","C2","J","113"
"","","approach-retreat","117","1326910","0.0-117.0","","","2-1","4488","39","0","Training","Stims/Figures/19-J-10-4.bmp","za:ha:za","Right","37","8","2","8","C2","J","114"
"","","approach-retreat","118","1332767","0.0-118.0","","","2-1","4354","39","0","Training","Stims/Figures/144-J-10-3.bmp","sa:saza","Right","37","8","3","8","C2","J","115"
"","","approach-retreat","119","1338738","0.0-119.0","","","2-1","4461","37","1","Training","Stims/Figures/19-C-20-4.bmp","zasa:za","Left","37","8","4","8","C2","J","116"
"","","approach-retreat","120","1344688","0.0-120.0","","","2-1","4446","40","1","Training","Stims/Figures/85-C-20-2.bmp","fafava","Down","40","8","5","8","C1","J","117"
"","","approach-retreat","121","1350888","0.0-121.0","","","2-1","4689","40","1","Training","Stims/Figures/27-C-30-1.bmp","fa:sha:va","Down","40","8","6","8","C1","J","118"
"","","approach-retreat","122","1357831","0.0-122.0","","","2-1","5430","38","1","Training","Stims/Figures/71-C-30-1.bmp","fa:fa:va","Up","38","8","7","8","C1","J","119"
"","","approach-retreat","123","1365426","0.0-123.0","","","2-1","6080","38","1","Training","Stims/Figures/85-J-0-2.bmp","fasha:va","Down","38","8","8","8","C1","J","120"
"","","approach-retreat","124","1375545","0.0-124.0","","","2-1","8615","38","1","Training","Stims/Figures/94-C-20-2.bmp","va:fa:va","Up","38","8","9","8","C1","J","121"
"","","approach-retreat","125","1382172","0.0-125.0","","","2-1","5114","40","1","Training","Stims/Figures/144-C-30-3.bmp","zasaza","Down","40","8","10","8","C2","J","122"
"","","approach-retreat","126","1387927","0.0-126.0","","","2-1","4243","37","1","Training","Stims/Figures/111-C-30-3.bmp","sa:sa:ha","Left","37","8","11","8","C2","J","123"
"","","approach-retreat","127","1395095","0.0-127.0","","","2-1","5658","39","1","Training","Stims/Figures/111-J-10-3.bmp","za:saha","Left","39","8","12","8","C2","J","124"
"","","approach-retreat","128","1401267","0.0-128.0","","","2-1","4660","40","1","Training","Stims/Figures/94-J-0-2.bmp","fafa:sha","Up","40","8","13","8","C1","J","125"
"","","approach-retreat","129","1407690","0.0-129.0","","","2-1","4912","39","1","Training","Stims/Figures/27-J-0-1.bmp","vafa:sha","Left","39","8","14","8","C1","J","126"
"","","approach-retreat","130","1413420","0.0-130.0","","","2-1","4220","37","1","Training","Stims/Figures/71-J-0-1.bmp","fa:fa:sha","Right","37","8","15","8","C1","J","127"
"","","approach-retreat","131","1419484","0.0-131.0","","","2-1","4553","40","1","Training","Stims/Figures/74-J-10-4.bmp","zasaha","Up","40","8","16","8","C2","J","128"
"","","approach-retreat","132","1425879","0.0-132.0","","","2-1","4884","38","1","Training","Stims/Figures/144-C-30-3.bmp","zasaza","Up","38","9","1","8","C2","J","129"
"","","approach-retreat","133","1433027","0.0-133.0","","","2-1","5635","37","0","Training","Stims/Figures/94-J-0-2.bmp","fafa:sha","Left","39","9","2","8","C1","J","130"
"","","approach-retreat","134","1438709","0.0-134.0","","","2-1","4173","40","1","Training","Stims/Figures/74-C-20-4.bmp","za:ha:ha","Down","40","9","3","8","C2","J","131"
"","","approach-retreat","135","1445635","0.0-135.0","","","2-1","5413","39","1","Training","Stims/Figures/111-J-10-3.bmp","za:saha","Left","39","9","4","8","C2","J","132"
"","","approach-retreat","136","1451411","0.0-136.0","","","2-1","4263","40","1","Training","Stims/Figures/71-C-30-1.bmp","fa:fa:va","Down","40","9","5","8","C1","J","133"
"","","approach-retreat","137","1457826","0.0-137.0","","","2-1","4903","38","0","Training","Stims/Figures/144-J-10-3.bmp","sa:saza","Up","40","9","6","8","C2","J","134"
"","","approach-retreat","138","1463815","0.0-138.0","","","2-1","4477","39","0","Training","Stims/Figures/85-C-20-2.bmp","fafava","Left","37","9","7","8","C1","J","135"
"","","approach-retreat","139","1469442","0.0-139.0","","","2-1","4122","39","1","Training","Stims/Figures/27-C-30-1.bmp","fa:sha:va","Right","39","9","8","8","C1","J","136"
"","","approach-retreat","140","1475809","0.0-140.0","","","2-1","4857","40","1","Training","Stims/Figures/71-J-0-1.bmp","fa:fa:sha","Up","40","9","9","8","C1","J","137"
"","","approach-retreat","141","1481396","0.0-141.0","","","2-1","4075","37","1","Training","Stims/Figures/27-J-0-1.bmp","vafa:sha","Right","37","9","10","8","C1","J","138"
"","","approach-retreat","142","1487214","0.0-142.0","","","2-1","4308","39","1","Training","Stims/Figures/85-J-0-2.bmp","fasha:va","Left","39","9","11","8","C1","J","139"
"","","approach-retreat","143","1492880","0.0-143.0","","","2-1","4154","40","1","Training","Stims/Figures/19-C-20-4.bmp","zasa:za","Down","40","9","12","8","C2","J","140"
"","","approach-retreat","144","1498460","0.0-144.0","","","2-1","4068","40","0","Training","Stims/Figures/19-J-10-4.bmp","za:ha:za","Down","38","9","13","8","C2","J","141"
"","","approach-retreat","145","1504405","0.0-145.0","","","2-1","4432","37","0","Training","Stims/Figures/94-C-20-2.bmp","va:fa:va","Right","39","9","14","8","C1","J","142"
"","","approach-retreat","146","1510851","0.0-146.0","","","2-1","4895","37","1","Training","Stims/Figures/74-J-10-4.bmp","zasaha","Right","37","9","15","8","C2","J","143"
"","","approach-retreat","147","1517733","0.0-147.0","","","2-1","5378","38","1","Training","Stims/Figures/111-C-30-3.bmp","sa:sa:ha","Up","38","9","16","8","C2","J","144"
"23420","","instructions","148","1541154","0.0-148.0","[{""page_index"":0,""viewing_time"":23419}]","","","","","","","","","","","","","","","",""
"","","approach-retreat","149","1547185","0.0-149.0","","","2-1","4510","40","1","Testing","Stims/Figures/85-J-0-2.bmp","fasha:va","Up","40","1","1","8","C1","J","1"
"","","approach-retreat","150","1552848","0.0-150.0","","","2-1","4159","40","1","Testing","Stims/Figures/94-J-0-2.bmp","fafa:sha","Up","40","1","2","8","C1","J","2"
"","","approach-retreat","151","1558681","0.0-151.0","","","2-1","4324","38","1","Testing","Stims/Figures/74-C-20-4.bmp","za:ha:ha","Up","38","1","3","8","C2","J","3"
"","","approach-retreat","152","1564933","0.0-152.0","","","2-1","4743","37","0","Testing","Stims/Figures/94-C-20-2.bmp","va:fa:va","Right","39","1","4","8","C1","J","4"
"","","approach-retreat","153","1573555","0.0-153.0","","","2-1","7111","37","1","Testing","Stims/Figures/57-J-0-1.bmp","vasha:sha","Right","37","1","5","8","C1","J","5"
"","","approach-retreat","154","1579945","0.0-154.0","","","2-1","4881","38","1","Testing","Stims/Figures/84-J-0-2.bmp","va:shava","Down","38","1","6","8","C1","J","6"
"","","approach-retreat","155","1585831","0.0-155.0","","","2-1","4377","40","1","Testing","Stims/Figures/144-C-30-3.bmp","zasaza","Down","40","1","7","8","C2","J","7"
"","","approach-retreat","156","1591740","0.0-156.0","","","2-1","4400","37","1","Testing","Stims/Figures/111-C-30-3.bmp","sa:sa:ha","Left","37","1","8","8","C2","J","8"
"","","approach-retreat","157","1597722","0.0-157.0","","","2-1","4473","39","1","Testing","Stims/Figures/84-C-20-2.bmp","fa:fasha","Right","39","1","9","8","C1","J","9"
"","","approach-retreat","158","1603366","0.0-158.0","","","2-1","4135","39","1","Testing","Stims/Figures/71-C-30-1.bmp","fa:fa:va","Right","39","1","10","8","C1","J","10"
"","","approach-retreat","159","1609573","0.0-159.0","","","2-1","4699","39","1","Testing","Stims/Figures/144-J-10-3.bmp","sa:saza","Left","39","1","11","8","C2","J","11"
"","","approach-retreat","160","1615401","0.0-160.0","","","2-1","4313","39","0","Testing","Stims/Figures/85-C-20-2.bmp","fafava","Left","37","1","12","8","C1","J","12"
"","","approach-retreat","161","1621264","0.0-161.0","","","2-1","4358","38","1","Testing","Stims/Figures/7-C-20-4.bmp","sa:haza","Up","38","1","13","8","C2","J","13"
"","","approach-retreat","162","1626976","0.0-162.0","","","2-1","4203","39","1","Testing","Stims/Figures/27-C-30-1.bmp","fa:sha:va","Right","39","1","14","8","C1","J","14"
"","","approach-retreat","163","1632718","0.0-163.0","","","2-1","4231","39","1","Testing","Stims/Figures/71-J-0-1.bmp","fa:fa:sha","Left","39","1","15","8","C1","J","15"
"","","approach-retreat","164","1638897","0.0-164.0","","","2-1","4670","37","1","Testing","Stims/Figures/57-C-30-1.bmp","fasha:sha","Left","37","1","16","8","C1","J","16"
"","","approach-retreat","165","1644815","0.0-165.0","","","2-1","4409","40","1","Testing","Stims/Figures/19-C-20-4.bmp","zasa:za","Down","40","1","17","8","C2","J","17"
"","","approach-retreat","166","1652172","0.0-166.0","","","2-1","5850","40","0","Testing","Stims/Figures/74-J-10-4.bmp","zasaha","Down","38","1","18","8","C2","J","18"
"","","approach-retreat","167","1658101","0.0-167.0","","","2-1","4378","38","1","Testing","Stims/Figures/111-J-10-3.bmp","za:saha","Down","38","1","19","8","C2","J","19"
"","","approach-retreat","168","1664324","0.0-168.0","","","2-1","4713","38","0","Testing","Stims/Figures/7-J-10-4.bmp","sasa:ha","Up","40","1","20","8","C2","J","20"
"","","approach-retreat","169","1670003","0.0-169.0","","","2-1","4171","40","1","Testing","Stims/Figures/27-J-0-1.bmp","vafa:sha","Up","40","1","21","8","C1","J","21"
"","","approach-retreat","170","1675824","0.0-170.0","","","2-1","4311","40","1","Testing","Stims/Figures/128-C-30-3.bmp","sahaza","Down","40","1","22","8","C2","J","22"
"","","approach-retreat","171","1683546","0.0-171.0","","","2-1","6213","37","0","Testing","Stims/Figures/128-J-10-3.bmp","sa:sa:za","Left","39","1","23","8","C2","J","23"
"","","approach-retreat","172","1689749","0.0-172.0","","","2-1","4695","39","0","Testing","Stims/Figures/19-J-10-4.bmp","za:ha:za","Right","37","1","24","8","C2","J","24"
"","","approach-retreat","173","1695465","0.0-173.0","","","2-1","4208","40","1","Testing","Stims/Figures/111-J-10-3.bmp","za:saha","Up","40","2","1","8","C2","J","25"
"","","approach-retreat","174","1701304","0.0-174.0","","","2-1","4329","39","1","Testing","Stims/Figures/144-J-10-3.bmp","sa:saza","Left","39","2","2","8","C2","J","26"
"","","approach-retreat","175","1707462","0.0-175.0","","","2-1","4649","37","0","Testing","Stims/Figures/74-J-10-4.bmp","zasaha","Left","39","2","3","8","C2","J","27"
"","","approach-retreat","176","1713124","0.0-176.0","","","2-1","4154","37","1","Testing","Stims/Figures/84-J-0-2.bmp","va:shava","Right","37","2","4","8","C1","J","28"
"","","approach-retreat","177","1718864","0.0-177.0","","","2-1","4231","37","1","Testing","Stims/Figures/111-C-30-3.bmp","sa:sa:ha","Left","37","2","5","8","C2","J","29"
"","","approach-retreat","178","1724562","0.0-178.0","","","2-1","4194","39","1","Testing","Stims/Figures/27-C-30-1.bmp","fa:sha:va","Right","39","2","6","8","C1","J","30"
"","","approach-retreat","179","1730341","0.0-179.0","","","2-1","4270","40","1","Testing","Stims/Figures/7-C-20-4.bmp","sa:haza","Down","40","2","7","8","C2","J","31"
"","","approach-retreat","180","1736854","0.0-180.0","","","2-1","5005","37","1","Testing","Stims/Figures/128-J-10-3.bmp","sa:sa:za","Right","37","2","8","8","C2","J","32"
"","","approach-retreat","181","1742684","0.0-181.0","","","2-1","4321","38","1","Testing","Stims/Figures/85-J-0-2.bmp","fasha:va","Down","38","2","9","8","C1","J","33"
"","","approach-retreat","182","1748290","0.0-182.0","","","2-1","4098","37","1","Testing","Stims/Figures/19-C-20-4.bmp","zasa:za","Left","37","2","10","8","C2","J","34"
"","","approach-retreat","183","1753981","0.0-183.0","","","2-1","4139","39","1","Testing","Stims/Figures/57-J-0-1.bmp","vasha:sha","Left","39","2","11","8","C1","J","35"
"","","approach-retreat","184","1759661","0.0-184.0","","","2-1","4176","40","1","Testing","Stims/Figures/71-J-0-1.bmp","fa:fa:sha","Up","40","2","12","8","C1","J","36"
"","","approach-retreat","185","1765343","0.0-185.0","","","2-1","4173","37","1","Testing","Stims/Figures/27-J-0-1.bmp","vafa:sha","Right","37","2","13","8","C1","J","37"
"","","approach-retreat","186","1771057","0.0-186.0","","","2-1","4166","40","1","Testing","Stims/Figures/94-C-20-2.bmp","va:fa:va","Down","40","2","14","8","C1","J","38"
"","","approach-retreat","187","1776764","0.0-187.0","","","2-1","4202","38","0","Testing","Stims/Figures/19-J-10-4.bmp","za:ha:za","Up","40","2","15","8","C2","J","39"
"","","approach-retreat","188","1782265","0.0-188.0","","","2-1","3992","38","1","Testing","Stims/Figures/74-C-20-4.bmp","za:ha:ha","Up","38","2","16","8","C2","J","40"
"","","approach-retreat","189","1787810","0.0-189.0","","","2-1","4037","39","1","Testing","Stims/Figures/57-C-30-1.bmp","fasha:sha","Right","39","2","17","8","C1","J","41"
"","","approach-retreat","190","1793373","0.0-190.0","","","2-1","4054","40","1","Testing","Stims/Figures/128-C-30-3.bmp","sahaza","Down","40","2","18","8","C2","J","42"
"","","approach-retreat","191","1798877","0.0-191.0","","","2-1","3994","39","1","Testing","Stims/Figures/84-C-20-2.bmp","fa:fasha","Right","39","2","19","8","C1","J","43"
"","","approach-retreat","192","1804461","0.0-192.0","","","2-1","4076","40","0","Testing","Stims/Figures/7-J-10-4.bmp","sasa:ha","Down","38","2","20","8","C2","J","44"
"","","approach-retreat","193","1810022","0.0-193.0","","","2-1","4053","40","1","Testing","Stims/Figures/71-C-30-1.bmp","fa:fa:va","Down","40","2","21","8","C1","J","45"
"","","approach-retreat","194","1815507","0.0-194.0","","","2-1","3975","39","1","Testing","Stims/Figures/94-J-0-2.bmp","fafa:sha","Left","39","2","22","8","C1","J","46"
"","","approach-retreat","195","1821187","0.0-195.0","","","2-1","4160","38","1","Testing","Stims/Figures/144-C-30-3.bmp","zasaza","Up","38","2","23","8","C2","J","47"
"","","approach-retreat","196","1826787","0.0-196.0","","","2-1","4095","38","1","Testing","Stims/Figures/85-C-20-2.bmp","fafava","Up","38","2","24","8","C1","J","48"
"","","approach-retreat","197","1832338","0.0-197.0","","","2-1","4042","39","1","Testing","Stims/Figures/74-J-10-4.bmp","zasaha","Left","39","3","1","8","C2","J","49"
"","","approach-retreat","198","1837982","0.0-198.0","","","2-1","4135","39","1","Testing","Stims/Figures/144-J-10-3.bmp","sa:saza","Left","39","3","2","8","C2","J","50"
"","","approach-retreat","199","1844324","0.0-199.0","","","2-1","4833","39","1","Testing","Stims/Figures/19-C-20-4.bmp","zasa:za","Right","39","3","3","8","C2","J","51"
"","","approach-retreat","200","1850222","0.0-200.0","","","2-1","4388","38","1","Testing","Stims/Figures/7-C-20-4.bmp","sa:haza","Up","38","3","4","8","C2","J","52"
"","","approach-retreat","201","1856119","0.0-201.0","","","2-1","4390","39","1","Testing","Stims/Figures/144-C-30-3.bmp","zasaza","Right","39","3","5","8","C2","J","53"
"","","approach-retreat","202","1861656","0.0-202.0","","","2-1","4026","38","1","Testing","Stims/Figures/27-J-0-1.bmp","vafa:sha","Down","38","3","6","8","C1","J","54"
"","","approach-retreat","203","1867568","0.0-203.0","","","2-1","4404","37","1","Testing","Stims/Figures/128-J-10-3.bmp","sa:sa:za","Right","37","3","7","8","C2","J","55"
"","","approach-retreat","204","1873159","0.0-204.0","","","2-1","4081","38","1","Testing","Stims/Figures/94-J-0-2.bmp","fafa:sha","Down","38","3","8","8","C1","J","56"
"","","approach-retreat","205","1878983","0.0-205.0","","","2-1","4314","39","1","Testing","Stims/Figures/111-J-10-3.bmp","za:saha","Left","39","3","9","8","C2","J","57"
"","","approach-retreat","206","1884496","0.0-206.0","","","2-1","4006","40","1","Testing","Stims/Figures/57-C-30-1.bmp","fasha:sha","Down","40","3","10","8","C1","J","58"
"","","approach-retreat","207","1890272","0.0-207.0","","","2-1","4266","38","1","Testing","Stims/Figures/71-C-30-1.bmp","fa:fa:va","Up","38","3","11","8","C1","J","59"
"","","approach-retreat","208","1895814","0.0-208.0","","","2-1","4034","40","1","Testing","Stims/Figures/85-J-0-2.bmp","fasha:va","Up","40","3","12","8","C1","J","60"
"","","approach-retreat","209","1902148","0.0-209.0","","","2-1","4831","38","1","Testing","Stims/Figures/84-J-0-2.bmp","va:shava","Down","38","3","13","8","C1","J","61"
"","","approach-retreat","210","1907781","0.0-210.0","","","2-1","4124","37","1","Testing","Stims/Figures/71-J-0-1.bmp","fa:fa:sha","Right","37","3","14","8","C1","J","62"
"","","approach-retreat","211","1913461","0.0-211.0","","","2-1","4170","40","1","Testing","Stims/Figures/94-C-20-2.bmp","va:fa:va","Down","40","3","15","8","C1","J","63"
"","","approach-retreat","212","1919060","0.0-212.0","","","2-1","4091","39","1","Testing","Stims/Figures/84-C-20-2.bmp","fa:fasha","Right","39","3","16","8","C1","J","64"
"","","approach-retreat","213","1924753","0.0-213.0","","","2-1","4176","38","1","Testing","Stims/Figures/85-C-20-2.bmp","fafava","Up","38","3","17","8","C1","J","65"
"","","approach-retreat","214","1930394","0.0-214.0","","","2-1","4133","37","1","Testing","Stims/Figures/111-C-30-3.bmp","sa:sa:ha","Left","37","3","18","8","C2","J","66"
"","","approach-retreat","215","1936088","0.0-215.0","","","2-1","4187","39","1","Testing","Stims/Figures/74-C-20-4.bmp","za:ha:ha","Right","39","3","19","8","C2","J","67"
"","","approach-retreat","216","1941641","0.0-216.0","","","2-1","4042","40","1","Testing","Stims/Figures/128-C-30-3.bmp","sahaza","Down","40","3","20","8","C2","J","68"
"","","approach-retreat","217","1947981","0.0-217.0","","","2-1","4836","39","1","Testing","Stims/Figures/7-J-10-4.bmp","sasa:ha","Left","39","3","21","8","C2","J","69"
"","","approach-retreat","218","1954032","0.0-218.0","","","2-1","4541","40","1","Testing","Stims/Figures/57-J-0-1.bmp","vasha:sha","Up","40","3","22","8","C1","J","70"
"","","approach-retreat","219","1959787","0.0-219.0","","","2-1","4200","38","1","Testing","Stims/Figures/27-C-30-1.bmp","fa:sha:va","Up","38","3","23","8","C1","J","71"
"","","approach-retreat","220","1965790","0.0-220.0","","","2-1","4498","37","0","Testing","Stims/Figures/19-J-10-4.bmp","za:ha:za","Left","39","3","24","8","C2","J","72"
"","","approach-retreat","221","1971332","0.0-221.0","","","2-1","4033","37","1","Testing","Stims/Figures/94-C-20-2.bmp","va:fa:va","Left","37","4","1","8","C1","J","73"
"","","approach-retreat","222","1977168","0.0-222.0","","","2-1","4329","40","1","Testing","Stims/Figures/128-J-10-3.bmp","sa:sa:za","Up","40","4","2","8","C2","J","74"
"","","approach-retreat","223","1982685","0.0-223.0","","","2-1","4006","38","1","Testing","Stims/Figures/84-C-20-2.bmp","fa:fasha","Up","38","4","3","8","C1","J","75"
"","","approach-retreat","224","1988271","0.0-224.0","","","2-1","4078","39","1","Testing","Stims/Figures/111-C-30-3.bmp","sa:sa:ha","Right","39","4","4","8","C2","J","76"
"","","approach-retreat","225","1993911","0.0-225.0","","","2-1","4096","39","1","Testing","Stims/Figures/144-C-30-3.bmp","zasaza","Right","39","4","5","8","C2","J","77"
"","","approach-retreat","226","1999980","0.0-226.0","","","2-1","4564","38","1","Testing","Stims/Figures/7-C-20-4.bmp","sa:haza","Up","38","4","6","8","C2","J","78"
"","","approach-retreat","227","2005557","0.0-227.0","","","2-1","4068","37","1","Testing","Stims/Figures/111-J-10-3.bmp","za:saha","Right","37","4","7","8","C2","J","79"
"","","approach-retreat","228","2011277","0.0-228.0","","","2-1","4210","38","1","Testing","Stims/Figures/57-J-0-1.bmp","vasha:sha","Down","38","4","8","8","C1","J","80"
"","","approach-retreat","229","2016940","0.0-229.0","","","2-1","4154","40","1","Testing","Stims/Figures/19-C-20-4.bmp","zasa:za","Down","40","4","9","8","C2","J","81"
"","","approach-retreat","230","2022608","0.0-230.0","","","2-1","4159","37","1","Testing","Stims/Figures/19-J-10-4.bmp","za:ha:za","Right","37","4","10","8","C2","J","82"
"","","approach-retreat","231","2028211","0.0-231.0","","","2-1","4095","37","1","Testing","Stims/Figures/57-C-30-1.bmp","fasha:sha","Left","37","4","11","8","C1","J","83"
"","","approach-retreat","232","2034086","0.0-232.0","","","2-1","4367","39","1","Testing","Stims/Figures/144-J-10-3.bmp","sa:saza","Left","39","4","12","8","C2","J","84"
"","","approach-retreat","233","2039999","0.0-233.0","","","2-1","4410","38","1","Testing","Stims/Figures/71-C-30-1.bmp","fa:fa:va","Up","38","4","13","8","C1","J","85"
"","","approach-retreat","234","2045677","0.0-234.0","","","2-1","4169","38","1","Testing","Stims/Figures/71-J-0-1.bmp","fa:fa:sha","Down","38","4","14","8","C1","J","86"
"","","approach-retreat","235","2051319","0.0-235.0","","","2-1","4133","38","1","Testing","Stims/Figures/128-C-30-3.bmp","sahaza","Up","38","4","15","8","C2","J","87"
"","","approach-retreat","236","2058487","0.0-236.0","","","2-1","5660","38","1","Testing","Stims/Figures/7-J-10-4.bmp","sasa:ha","Down","38","4","16","8","C2","J","88"
"","","approach-retreat","237","2064278","0.0-237.0","","","2-1","4252","40","1","Testing","Stims/Figures/84-J-0-2.bmp","va:shava","Up","40","4","17","8","C1","J","89"
"","","approach-retreat","238","2070096","0.0-238.0","","","2-1","4316","40","1","Testing","Stims/Figures/27-C-30-1.bmp","fa:sha:va","Down","40","4","18","8","C1","J","90"
"","","approach-retreat","239","2075760","0.0-239.0","","","2-1","4155","40","1","Testing","Stims/Figures/85-C-20-2.bmp","fafava","Down","40","4","19","8","C1","J","91"
"","","approach-retreat","240","2081391","0.0-240.0","","","2-1","4095","37","1","Testing","Stims/Figures/94-J-0-2.bmp","fafa:sha","Right","37","4","20","8","C1","J","92"
"","","approach-retreat","241","2087047","0.0-241.0","","","2-1","4152","37","1","Testing","Stims/Figures/74-J-10-4.bmp","zasaha","Right","37","4","21","8","C2","J","93"
"","","approach-retreat","242","2092829","0.0-242.0","","","2-1","4274","39","1","Testing","Stims/Figures/85-J-0-2.bmp","fasha:va","Left","39","4","22","8","C1","J","94"
"","","approach-retreat","243","2100752","0.0-243.0","","","2-1","6413","37","1","Testing","Stims/Figures/74-C-20-4.bmp","za:ha:ha","Left","37","4","23","8","C2","J","95"
"","","approach-retreat","244","2106826","0.0-244.0","","","2-1","4566","39","1","Testing","Stims/Figures/27-J-0-1.bmp","vafa:sha","Left","39","4","24","8","C1","J","96"
"34217","","survey-text","245","2141053","0.0-245.0","","{""Q0"":""72/2018""}","","","","","","","","","","","","","","",""
