\"rt\",\"key_press\",\"trial_type\",\"trial_index\",\"time_elapsed\",\"internal_node_id\",\"view_history\",\"responses\",\"Id\",\"Rt\",\"ResKeyCode\",\"ResCorr\",\"TrialType2\",\"Image\",\"Label\",\"Location\",\"CorrectResponse\",\"Block\",\"BlockTrial\",\"Condition\",\"LabelType\",\"Subcondition\",\"trialNum\"
\"95202\",\"32\",\"text\",\"0\",\"95208\",\"0.0-0.0-0.0\",\"\",\"\",\"\",\"\",\"\",\"\",\"\",\"\",\"\",\"\",\"\",\"\",\"\",\"\",\"\",\"\",\"\"
\"169722\",\"\",\"instructions\",\"1\",\"264932\",\"0.0-1.0\",\"[{\"\"page_index\"\":0,\"\"viewing_time\"\":169720}]\",\"\",\"\",\"\",\"\",\"\",\"\",\"\",\"\",\"\",\"\",\"\",\"\",\"\",\"\",\"\",\"\"
\"31117\",\"\",\"survey-multi-choice\",\"2\",\"296084\",\"0.0-2.0\",\"\",\"{\"\"Q0\"\":\"\"Da\"\",\"\"Q1\"\":\"\"Da\"\",\"\"Q2\"\":\"\"Da\"\",\"\"Q3\"\":\"\"Da\"\",\"\"Q4\"\":\"\"Da\"\",\"\"Q5\"\":\"\"Da\"\"}\",\"\",\"\",\"\",\"\",\"\",\"\",\"\",\"\",\"\",\"\",\"\",\"\",\"\",\"\",\"\"
\"\",\"\",\"bio\",\"3\",\"310390\",\"0.0-3.0\",\"\",\"{\"\"age\"\":\"\"19\"\",\"\"gender\"\":\"\"f\"\",\"\"specify\"\":\"\"\"\"}\",\"\",\"\",\"\",\"\",\"\",\"\",\"\",\"\",\"\",\"\",\"\",\"\",\"\",\"\",\"\"
\"\",\"\",\"approach-retreat\",\"4\",\"317089\",\"0.0-4.0\",\"\",\"\",\"2-5\",\"5187\",\"38\",\"0\",\"Training\",\"Stims/Figures/27-J-0-1.bmp\",\"nala:na\",\"Up\",\"40\",\"1\",\"1\",\"2\",\"S\",\"J\",\"1\"
\"\",\"\",\"approach-retreat\",\"5\",\"322283\",\"0.0-5.0\",\"\",\"\",\"2-5\",\"3686\",\"40\",\"1\",\"Training\",\"Stims/Figures/93-C-30-1.bmp\",\"ta:kata\",\"Down\",\"40\",\"1\",\"2\",\"2\",\"P\",\"J\",\"2\"
\"\",\"\",\"approach-retreat\",\"6\",\"328233\",\"0.0-6.0\",\"\",\"\",\"2-5\",\"4444\",\"38\",\"1\",\"Training\",\"Stims/Figures/7-C-20-4.bmp\",\"ta:kata\",\"Up\",\"38\",\"1\",\"3\",\"2\",\"P\",\"J\",\"3\"
\"\",\"\",\"approach-retreat\",\"7\",\"334050\",\"0.0-7.0\",\"\",\"\",\"2-5\",\"4308\",\"39\",\"0\",\"Training\",\"Stims/Figures/144-J-10-3.bmp\",\"nala:na\",\"Right\",\"37\",\"1\",\"4\",\"2\",\"S\",\"J\",\"4\"
\"\",\"\",\"approach-retreat\",\"8\",\"339660\",\"0.0-8.0\",\"\",\"\",\"2-5\",\"4102\",\"38\",\"1\",\"Training\",\"Stims/Figures/7-J-10-4.bmp\",\"nala:na\",\"Down\",\"38\",\"1\",\"5\",\"2\",\"S\",\"J\",\"5\"
\"\",\"\",\"approach-retreat\",\"9\",\"345588\",\"0.0-9.0\",\"\",\"\",\"2-5\",\"4419\",\"37\",\"0\",\"Training\",\"Stims/Figures/100-J-10-3.bmp\",\"nala:na\",\"Left\",\"39\",\"1\",\"6\",\"2\",\"S\",\"J\",\"6\"
\"\",\"\",\"approach-retreat\",\"10\",\"351359\",\"0.0-10.0\",\"\",\"\",\"2-5\",\"4263\",\"37\",\"0\",\"Training\",\"Stims/Figures/102-J-10-4.bmp\",\"nala:na\",\"Left\",\"39\",\"1\",\"7\",\"2\",\"S\",\"J\",\"7\"
\"\",\"\",\"approach-retreat\",\"11\",\"357149\",\"0.0-11.0\",\"\",\"\",\"2-5\",\"4280\",\"38\",\"0\",\"Training\",\"Stims/Figures/139-C-20-2.bmp\",\"ta:kata\",\"Down\",\"40\",\"1\",\"8\",\"2\",\"P\",\"J\",\"8\"
\"\",\"\",\"approach-retreat\",\"12\",\"362775\",\"0.0-12.0\",\"\",\"\",\"2-5\",\"4118\",\"39\",\"0\",\"Training\",\"Stims/Figures/27-C-30-1.bmp\",\"ta:kata\",\"Left\",\"37\",\"1\",\"9\",\"2\",\"P\",\"J\",\"9\"
\"\",\"\",\"approach-retreat\",\"13\",\"368428\",\"0.0-13.0\",\"\",\"\",\"2-5\",\"4145\",\"40\",\"1\",\"Training\",\"Stims/Figures/139-J-0-2.bmp\",\"nala:na\",\"Up\",\"40\",\"1\",\"10\",\"2\",\"S\",\"J\",\"10\"
\"\",\"\",\"approach-retreat\",\"14\",\"374317\",\"0.0-14.0\",\"\",\"\",\"2-5\",\"4381\",\"40\",\"1\",\"Training\",\"Stims/Figures/94-J-0-2.bmp\",\"nala:na\",\"Up\",\"40\",\"1\",\"11\",\"2\",\"S\",\"J\",\"11\"
\"\",\"\",\"approach-retreat\",\"15\",\"379893\",\"0.0-15.0\",\"\",\"\",\"2-5\",\"4068\",\"37\",\"1\",\"Training\",\"Stims/Figures/102-C-20-4.bmp\",\"ta:kata\",\"Left\",\"37\",\"1\",\"12\",\"2\",\"P\",\"J\",\"12\"
\"\",\"\",\"approach-retreat\",\"16\",\"385922\",\"0.0-16.0\",\"\",\"\",\"2-5\",\"4520\",\"37\",\"0\",\"Training\",\"Stims/Figures/94-C-20-2.bmp\",\"ta:kata\",\"Right\",\"39\",\"1\",\"13\",\"2\",\"P\",\"J\",\"13\"
\"\",\"\",\"approach-retreat\",\"17\",\"391731\",\"0.0-17.0\",\"\",\"\",\"2-5\",\"4301\",\"39\",\"1\",\"Training\",\"Stims/Figures/144-C-30-3.bmp\",\"ta:kata\",\"Right\",\"39\",\"1\",\"14\",\"2\",\"P\",\"J\",\"14\"
\"\",\"\",\"approach-retreat\",\"18\",\"398314\",\"0.0-18.0\",\"\",\"\",\"2-5\",\"5073\",\"37\",\"1\",\"Training\",\"Stims/Figures/93-J-0-1.bmp\",\"nala:na\",\"Right\",\"37\",\"1\",\"15\",\"2\",\"S\",\"J\",\"15\"
\"\",\"\",\"approach-retreat\",\"19\",\"404433\",\"0.0-19.0\",\"\",\"\",\"2-5\",\"4611\",\"40\",\"1\",\"Training\",\"Stims/Figures/100-C-30-3.bmp\",\"ta:kata\",\"Down\",\"40\",\"1\",\"16\",\"2\",\"P\",\"J\",\"16\"
\"\",\"\",\"approach-retreat\",\"20\",\"411091\",\"0.0-20.0\",\"\",\"\",\"2-5\",\"5149\",\"38\",\"1\",\"Training\",\"Stims/Figures/100-C-30-3.bmp\",\"ta:kata\",\"Up\",\"38\",\"2\",\"1\",\"2\",\"P\",\"J\",\"17\"
\"\",\"\",\"approach-retreat\",\"21\",\"417444\",\"0.0-21.0\",\"\",\"\",\"2-5\",\"4845\",\"40\",\"1\",\"Training\",\"Stims/Figures/94-J-0-2.bmp\",\"nala:na\",\"Up\",\"40\",\"2\",\"2\",\"2\",\"S\",\"J\",\"18\"
\"\",\"\",\"approach-retreat\",\"22\",\"423206\",\"0.0-22.0\",\"\",\"\",\"2-5\",\"4254\",\"40\",\"1\",\"Training\",\"Stims/Figures/94-C-20-2.bmp\",\"ta:kata\",\"Down\",\"40\",\"2\",\"3\",\"2\",\"P\",\"J\",\"19\"
\"\",\"\",\"approach-retreat\",\"23\",\"428952\",\"0.0-23.0\",\"\",\"\",\"2-5\",\"4238\",\"39\",\"1\",\"Training\",\"Stims/Figures/100-J-10-3.bmp\",\"nala:na\",\"Left\",\"39\",\"2\",\"4\",\"2\",\"S\",\"J\",\"20\"
\"\",\"\",\"approach-retreat\",\"24\",\"435535\",\"0.0-24.0\",\"\",\"\",\"2-5\",\"5074\",\"38\",\"1\",\"Training\",\"Stims/Figures/139-J-0-2.bmp\",\"nala:na\",\"Down\",\"38\",\"2\",\"5\",\"2\",\"S\",\"J\",\"21\"
\"\",\"\",\"approach-retreat\",\"25\",\"441873\",\"0.0-25.0\",\"\",\"\",\"2-5\",\"4831\",\"38\",\"1\",\"Training\",\"Stims/Figures/7-J-10-4.bmp\",\"nala:na\",\"Down\",\"38\",\"2\",\"6\",\"2\",\"S\",\"J\",\"22\"
\"\",\"\",\"approach-retreat\",\"26\",\"448295\",\"0.0-26.0\",\"\",\"\",\"2-5\",\"4913\",\"38\",\"1\",\"Training\",\"Stims/Figures/27-C-30-1.bmp\",\"ta:kata\",\"Up\",\"38\",\"2\",\"7\",\"2\",\"P\",\"J\",\"23\"
\"\",\"\",\"approach-retreat\",\"27\",\"454354\",\"0.0-27.0\",\"\",\"\",\"2-5\",\"4552\",\"37\",\"1\",\"Training\",\"Stims/Figures/102-J-10-4.bmp\",\"nala:na\",\"Right\",\"37\",\"2\",\"8\",\"2\",\"S\",\"J\",\"24\"
\"\",\"\",\"approach-retreat\",\"28\",\"460206\",\"0.0-28.0\",\"\",\"\",\"2-5\",\"4343\",\"37\",\"1\",\"Training\",\"Stims/Figures/144-C-30-3.bmp\",\"ta:kata\",\"Left\",\"37\",\"2\",\"9\",\"2\",\"P\",\"J\",\"25\"
\"\",\"\",\"approach-retreat\",\"29\",\"466165\",\"0.0-29.0\",\"\",\"\",\"2-5\",\"4452\",\"39\",\"1\",\"Training\",\"Stims/Figures/102-C-20-4.bmp\",\"ta:kata\",\"Right\",\"39\",\"2\",\"10\",\"2\",\"P\",\"J\",\"26\"
\"\",\"\",\"approach-retreat\",\"30\",\"471875\",\"0.0-30.0\",\"\",\"\",\"2-5\",\"4202\",\"39\",\"1\",\"Training\",\"Stims/Figures/93-C-30-1.bmp\",\"ta:kata\",\"Right\",\"39\",\"2\",\"11\",\"2\",\"P\",\"J\",\"27\"
\"\",\"\",\"approach-retreat\",\"31\",\"477505\",\"0.0-31.0\",\"\",\"\",\"2-5\",\"4122\",\"39\",\"1\",\"Training\",\"Stims/Figures/139-C-20-2.bmp\",\"ta:kata\",\"Right\",\"39\",\"2\",\"12\",\"2\",\"P\",\"J\",\"28\"
\"\",\"\",\"approach-retreat\",\"32\",\"483204\",\"0.0-32.0\",\"\",\"\",\"2-5\",\"4192\",\"39\",\"1\",\"Training\",\"Stims/Figures/27-J-0-1.bmp\",\"nala:na\",\"Left\",\"39\",\"2\",\"13\",\"2\",\"S\",\"J\",\"29\"
\"\",\"\",\"approach-retreat\",\"33\",\"488862\",\"0.0-33.0\",\"\",\"\",\"2-5\",\"4149\",\"39\",\"1\",\"Training\",\"Stims/Figures/144-J-10-3.bmp\",\"nala:na\",\"Left\",\"39\",\"2\",\"14\",\"2\",\"S\",\"J\",\"30\"
\"\",\"\",\"approach-retreat\",\"34\",\"494532\",\"0.0-34.0\",\"\",\"\",\"2-5\",\"4161\",\"40\",\"1\",\"Training\",\"Stims/Figures/7-C-20-4.bmp\",\"ta:kata\",\"Down\",\"40\",\"2\",\"15\",\"2\",\"P\",\"J\",\"31\"
\"\",\"\",\"approach-retreat\",\"35\",\"500188\",\"0.0-35.0\",\"\",\"\",\"2-5\",\"4146\",\"40\",\"1\",\"Training\",\"Stims/Figures/93-J-0-1.bmp\",\"nala:na\",\"Up\",\"40\",\"2\",\"16\",\"2\",\"S\",\"J\",\"32\"
\"\",\"\",\"approach-retreat\",\"36\",\"505896\",\"0.0-36.0\",\"\",\"\",\"2-5\",\"4200\",\"40\",\"1\",\"Training\",\"Stims/Figures/139-J-0-2.bmp\",\"nala:na\",\"Up\",\"40\",\"3\",\"1\",\"2\",\"S\",\"J\",\"33\"
\"\",\"\",\"approach-retreat\",\"37\",\"511505\",\"0.0-37.0\",\"\",\"\",\"2-5\",\"4101\",\"40\",\"1\",\"Training\",\"Stims/Figures/102-C-20-4.bmp\",\"ta:kata\",\"Down\",\"40\",\"3\",\"2\",\"2\",\"P\",\"J\",\"34\"
\"\",\"\",\"approach-retreat\",\"38\",\"517226\",\"0.0-38.0\",\"\",\"\",\"2-5\",\"4212\",\"39\",\"1\",\"Training\",\"Stims/Figures/94-C-20-2.bmp\",\"ta:kata\",\"Right\",\"39\",\"3\",\"3\",\"2\",\"P\",\"J\",\"35\"
\"\",\"\",\"approach-retreat\",\"39\",\"523357\",\"0.0-39.0\",\"\",\"\",\"2-5\",\"4623\",\"40\",\"1\",\"Training\",\"Stims/Figures/27-J-0-1.bmp\",\"nala:na\",\"Up\",\"40\",\"3\",\"4\",\"2\",\"S\",\"J\",\"36\"
\"\",\"\",\"approach-retreat\",\"40\",\"529167\",\"0.0-40.0\",\"\",\"\",\"2-5\",\"4303\",\"39\",\"0\",\"Training\",\"Stims/Figures/144-C-30-3.bmp\",\"ta:kata\",\"Left\",\"37\",\"3\",\"5\",\"2\",\"P\",\"J\",\"37\"
\"\",\"\",\"approach-retreat\",\"41\",\"535047\",\"0.0-41.0\",\"\",\"\",\"2-5\",\"4371\",\"38\",\"1\",\"Training\",\"Stims/Figures/102-J-10-4.bmp\",\"nala:na\",\"Down\",\"38\",\"3\",\"6\",\"2\",\"S\",\"J\",\"38\"
\"\",\"\",\"approach-retreat\",\"42\",\"541669\",\"0.0-42.0\",\"\",\"\",\"2-5\",\"5114\",\"38\",\"1\",\"Training\",\"Stims/Figures/139-C-20-2.bmp\",\"ta:kata\",\"Up\",\"38\",\"3\",\"7\",\"2\",\"P\",\"J\",\"39\"
\"\",\"\",\"approach-retreat\",\"43\",\"547597\",\"0.0-43.0\",\"\",\"\",\"2-5\",\"4420\",\"39\",\"1\",\"Training\",\"Stims/Figures/93-C-30-1.bmp\",\"ta:kata\",\"Right\",\"39\",\"3\",\"8\",\"2\",\"P\",\"J\",\"40\"
\"\",\"\",\"approach-retreat\",\"44\",\"553422\",\"0.0-44.0\",\"\",\"\",\"2-5\",\"4315\",\"40\",\"0\",\"Training\",\"Stims/Figures/144-J-10-3.bmp\",\"nala:na\",\"Down\",\"38\",\"3\",\"9\",\"2\",\"S\",\"J\",\"41\"
\"\",\"\",\"approach-retreat\",\"45\",\"559036\",\"0.0-45.0\",\"\",\"\",\"2-5\",\"4107\",\"39\",\"1\",\"Training\",\"Stims/Figures/100-C-30-3.bmp\",\"ta:kata\",\"Right\",\"39\",\"3\",\"10\",\"2\",\"P\",\"J\",\"42\"
\"\",\"\",\"approach-retreat\",\"46\",\"565718\",\"0.0-46.0\",\"\",\"\",\"2-5\",\"5174\",\"38\",\"1\",\"Training\",\"Stims/Figures/94-J-0-2.bmp\",\"nala:na\",\"Down\",\"38\",\"3\",\"11\",\"2\",\"S\",\"J\",\"43\"
\"\",\"\",\"approach-retreat\",\"47\",\"571556\",\"0.0-47.0\",\"\",\"\",\"2-5\",\"4330\",\"37\",\"1\",\"Training\",\"Stims/Figures/7-C-20-4.bmp\",\"ta:kata\",\"Left\",\"37\",\"3\",\"12\",\"2\",\"P\",\"J\",\"44\"
\"\",\"\",\"approach-retreat\",\"48\",\"577949\",\"0.0-48.0\",\"\",\"\",\"2-5\",\"4884\",\"37\",\"1\",\"Training\",\"Stims/Figures/7-J-10-4.bmp\",\"nala:na\",\"Right\",\"37\",\"3\",\"13\",\"2\",\"S\",\"J\",\"45\"
\"\",\"\",\"approach-retreat\",\"49\",\"584594\",\"0.0-49.0\",\"\",\"\",\"2-5\",\"5137\",\"37\",\"1\",\"Training\",\"Stims/Figures/27-C-30-1.bmp\",\"ta:kata\",\"Left\",\"37\",\"3\",\"14\",\"2\",\"P\",\"J\",\"46\"
\"\",\"\",\"approach-retreat\",\"50\",\"591467\",\"0.0-50.0\",\"\",\"\",\"2-5\",\"5365\",\"39\",\"1\",\"Training\",\"Stims/Figures/93-J-0-1.bmp\",\"nala:na\",\"Left\",\"39\",\"3\",\"15\",\"2\",\"S\",\"J\",\"47\"
\"\",\"\",\"approach-retreat\",\"51\",\"598975\",\"0.0-51.0\",\"\",\"\",\"2-5\",\"5999\",\"40\",\"1\",\"Training\",\"Stims/Figures/100-J-10-3.bmp\",\"nala:na\",\"Up\",\"40\",\"3\",\"16\",\"2\",\"S\",\"J\",\"48\"
\"\",\"\",\"approach-retreat\",\"52\",\"604842\",\"0.0-52.0\",\"\",\"\",\"2-5\",\"4357\",\"40\",\"1\",\"Training\",\"Stims/Figures/94-J-0-2.bmp\",\"nala:na\",\"Up\",\"40\",\"4\",\"1\",\"2\",\"S\",\"J\",\"49\"
\"\",\"\",\"approach-retreat\",\"53\",\"610571\",\"0.0-53.0\",\"\",\"\",\"2-5\",\"4220\",\"39\",\"1\",\"Training\",\"Stims/Figures/139-C-20-2.bmp\",\"ta:kata\",\"Right\",\"39\",\"4\",\"2\",\"2\",\"P\",\"J\",\"50\"
\"\",\"\",\"approach-retreat\",\"54\",\"616369\",\"0.0-54.0\",\"\",\"\",\"2-5\",\"4289\",\"37\",\"1\",\"Training\",\"Stims/Figures/93-J-0-1.bmp\",\"nala:na\",\"Right\",\"37\",\"4\",\"3\",\"2\",\"S\",\"J\",\"51\"
\"\",\"\",\"approach-retreat\",\"55\",\"622440\",\"0.0-55.0\",\"\",\"\",\"2-5\",\"4562\",\"37\",\"1\",\"Training\",\"Stims/Figures/94-C-20-2.bmp\",\"ta:kata\",\"Left\",\"37\",\"4\",\"4\",\"2\",\"P\",\"J\",\"52\"
\"\",\"\",\"approach-retreat\",\"56\",\"628249\",\"0.0-56.0\",\"\",\"\",\"2-5\",\"4300\",\"39\",\"1\",\"Training\",\"Stims/Figures/100-C-30-3.bmp\",\"ta:kata\",\"Right\",\"39\",\"4\",\"5\",\"2\",\"P\",\"J\",\"53\"
\"\",\"\",\"approach-retreat\",\"57\",\"636053\",\"0.0-57.0\",\"\",\"\",\"2-5\",\"6295\",\"38\",\"1\",\"Training\",\"Stims/Figures/144-C-30-3.bmp\",\"ta:kata\",\"Up\",\"38\",\"4\",\"6\",\"2\",\"P\",\"J\",\"54\"
\"\",\"\",\"approach-retreat\",\"58\",\"642674\",\"0.0-58.0\",\"\",\"\",\"2-5\",\"5115\",\"38\",\"1\",\"Training\",\"Stims/Figures/100-J-10-3.bmp\",\"nala:na\",\"Down\",\"38\",\"4\",\"7\",\"2\",\"S\",\"J\",\"55\"
\"\",\"\",\"approach-retreat\",\"59\",\"650584\",\"0.0-59.0\",\"\",\"\",\"2-5\",\"6400\",\"40\",\"1\",\"Training\",\"Stims/Figures/102-C-20-4.bmp\",\"ta:kata\",\"Down\",\"40\",\"4\",\"8\",\"2\",\"P\",\"J\",\"56\"
\"\",\"\",\"approach-retreat\",\"60\",\"656383\",\"0.0-60.0\",\"\",\"\",\"2-5\",\"4291\",\"38\",\"1\",\"Training\",\"Stims/Figures/102-J-10-4.bmp\",\"nala:na\",\"Down\",\"38\",\"4\",\"9\",\"2\",\"S\",\"J\",\"57\"
\"\",\"\",\"approach-retreat\",\"61\",\"664780\",\"0.0-61.0\",\"\",\"\",\"2-5\",\"6889\",\"37\",\"1\",\"Training\",\"Stims/Figures/27-J-0-1.bmp\",\"nala:na\",\"Right\",\"37\",\"4\",\"10\",\"2\",\"S\",\"J\",\"58\"
\"\",\"\",\"approach-retreat\",\"62\",\"671092\",\"0.0-62.0\",\"\",\"\",\"2-5\",\"4804\",\"40\",\"1\",\"Training\",\"Stims/Figures/27-C-30-1.bmp\",\"ta:kata\",\"Down\",\"40\",\"4\",\"11\",\"2\",\"P\",\"J\",\"59\"
\"\",\"\",\"approach-retreat\",\"63\",\"678117\",\"0.0-63.0\",\"\",\"\",\"2-5\",\"5516\",\"38\",\"1\",\"Training\",\"Stims/Figures/7-C-20-4.bmp\",\"ta:kata\",\"Up\",\"38\",\"4\",\"12\",\"2\",\"P\",\"J\",\"60\"
\"\",\"\",\"approach-retreat\",\"64\",\"684862\",\"0.0-64.0\",\"\",\"\",\"2-5\",\"5236\",\"38\",\"1\",\"Training\",\"Stims/Figures/93-C-30-1.bmp\",\"ta:kata\",\"Up\",\"38\",\"4\",\"13\",\"2\",\"P\",\"J\",\"61\"
\"\",\"\",\"approach-retreat\",\"65\",\"690648\",\"0.0-65.0\",\"\",\"\",\"2-5\",\"4279\",\"39\",\"1\",\"Training\",\"Stims/Figures/139-J-0-2.bmp\",\"nala:na\",\"Left\",\"39\",\"4\",\"14\",\"2\",\"S\",\"J\",\"62\"
\"\",\"\",\"approach-retreat\",\"66\",\"699050\",\"0.0-66.0\",\"\",\"\",\"2-5\",\"6893\",\"39\",\"1\",\"Training\",\"Stims/Figures/144-J-10-3.bmp\",\"nala:na\",\"Left\",\"39\",\"4\",\"15\",\"2\",\"S\",\"J\",\"63\"
\"\",\"\",\"approach-retreat\",\"67\",\"706104\",\"0.0-67.0\",\"\",\"\",\"2-5\",\"5546\",\"39\",\"1\",\"Training\",\"Stims/Figures/7-J-10-4.bmp\",\"nala:na\",\"Left\",\"39\",\"4\",\"16\",\"2\",\"S\",\"J\",\"64\"
\"\",\"\",\"approach-retreat\",\"68\",\"711762\",\"0.0-68.0\",\"\",\"\",\"2-5\",\"4150\",\"40\",\"1\",\"Training\",\"Stims/Figures/94-C-20-2.bmp\",\"ta:kata\",\"Down\",\"40\",\"5\",\"1\",\"2\",\"P\",\"J\",\"65\"
\"\",\"\",\"approach-retreat\",\"69\",\"717570\",\"0.0-69.0\",\"\",\"\",\"2-5\",\"4300\",\"39\",\"0\",\"Training\",\"Stims/Figures/27-C-30-1.bmp\",\"ta:kata\",\"Left\",\"37\",\"5\",\"2\",\"2\",\"P\",\"J\",\"66\"
\"\",\"\",\"approach-retreat\",\"70\",\"723772\",\"0.0-70.0\",\"\",\"\",\"2-5\",\"4694\",\"40\",\"1\",\"Training\",\"Stims/Figures/7-C-20-4.bmp\",\"ta:kata\",\"Down\",\"40\",\"5\",\"3\",\"2\",\"P\",\"J\",\"67\"
\"\",\"\",\"approach-retreat\",\"71\",\"729748\",\"0.0-71.0\",\"\",\"\",\"2-5\",\"4468\",\"37\",\"1\",\"Training\",\"Stims/Figures/102-C-20-4.bmp\",\"ta:kata\",\"Left\",\"37\",\"5\",\"4\",\"2\",\"P\",\"J\",\"68\"
\"\",\"\",\"approach-retreat\",\"72\",\"736973\",\"0.0-72.0\",\"\",\"\",\"2-5\",\"5717\",\"37\",\"1\",\"Training\",\"Stims/Figures/102-J-10-4.bmp\",\"nala:na\",\"Right\",\"37\",\"5\",\"5\",\"2\",\"S\",\"J\",\"69\"
\"\",\"\",\"approach-retreat\",\"73\",\"743071\",\"0.0-73.0\",\"\",\"\",\"2-5\",\"4590\",\"37\",\"1\",\"Training\",\"Stims/Figures/7-J-10-4.bmp\",\"nala:na\",\"Right\",\"37\",\"5\",\"6\",\"2\",\"S\",\"J\",\"70\"
\"\",\"\",\"approach-retreat\",\"74\",\"748771\",\"0.0-74.0\",\"\",\"\",\"2-5\",\"4191\",\"40\",\"1\",\"Training\",\"Stims/Figures/94-J-0-2.bmp\",\"nala:na\",\"Up\",\"40\",\"5\",\"7\",\"2\",\"S\",\"J\",\"71\"
\"\",\"\",\"approach-retreat\",\"75\",\"754488\",\"0.0-75.0\",\"\",\"\",\"2-5\",\"4209\",\"40\",\"0\",\"Training\",\"Stims/Figures/100-C-30-3.bmp\",\"ta:kata\",\"Up\",\"38\",\"5\",\"8\",\"2\",\"P\",\"J\",\"72\"
\"\",\"\",\"approach-retreat\",\"76\",\"760428\",\"0.0-76.0\",\"\",\"\",\"2-5\",\"4432\",\"38\",\"1\",\"Training\",\"Stims/Figures/144-C-30-3.bmp\",\"ta:kata\",\"Up\",\"38\",\"5\",\"9\",\"2\",\"P\",\"J\",\"73\"
\"\",\"\",\"approach-retreat\",\"77\",\"766116\",\"0.0-77.0\",\"\",\"\",\"2-5\",\"4180\",\"39\",\"1\",\"Training\",\"Stims/Figures/139-C-20-2.bmp\",\"ta:kata\",\"Right\",\"39\",\"5\",\"10\",\"2\",\"P\",\"J\",\"74\"
\"\",\"\",\"approach-retreat\",\"78\",\"774418\",\"0.0-78.0\",\"\",\"\",\"2-5\",\"6793\",\"38\",\"1\",\"Training\",\"Stims/Figures/100-J-10-3.bmp\",\"nala:na\",\"Down\",\"38\",\"5\",\"11\",\"2\",\"S\",\"J\",\"75\"
\"\",\"\",\"approach-retreat\",\"79\",\"780345\",\"0.0-79.0\",\"\",\"\",\"2-5\",\"4419\",\"39\",\"1\",\"Training\",\"Stims/Figures/93-C-30-1.bmp\",\"ta:kata\",\"Right\",\"39\",\"5\",\"12\",\"2\",\"P\",\"J\",\"76\"
\"\",\"\",\"approach-retreat\",\"80\",\"786516\",\"0.0-80.0\",\"\",\"\",\"2-5\",\"4662\",\"38\",\"1\",\"Training\",\"Stims/Figures/144-J-10-3.bmp\",\"nala:na\",\"Down\",\"38\",\"5\",\"13\",\"2\",\"S\",\"J\",\"77\"
\"\",\"\",\"approach-retreat\",\"81\",\"793389\",\"0.0-81.0\",\"\",\"\",\"2-5\",\"5365\",\"39\",\"1\",\"Training\",\"Stims/Figures/93-J-0-1.bmp\",\"nala:na\",\"Left\",\"39\",\"5\",\"14\",\"2\",\"S\",\"J\",\"78\"
\"\",\"\",\"approach-retreat\",\"82\",\"800413\",\"0.0-82.0\",\"\",\"\",\"2-5\",\"5516\",\"40\",\"1\",\"Training\",\"Stims/Figures/139-J-0-2.bmp\",\"nala:na\",\"Up\",\"40\",\"5\",\"15\",\"2\",\"S\",\"J\",\"79\"
\"\",\"\",\"approach-retreat\",\"83\",\"806200\",\"0.0-83.0\",\"\",\"\",\"2-5\",\"4279\",\"39\",\"1\",\"Training\",\"Stims/Figures/27-J-0-1.bmp\",\"nala:na\",\"Left\",\"39\",\"5\",\"16\",\"2\",\"S\",\"J\",\"80\"
\"\",\"\",\"approach-retreat\",\"84\",\"812119\",\"0.0-84.0\",\"\",\"\",\"2-5\",\"4411\",\"40\",\"0\",\"Training\",\"Stims/Figures/27-C-30-1.bmp\",\"ta:kata\",\"Up\",\"38\",\"6\",\"1\",\"2\",\"P\",\"J\",\"81\"
\"\",\"\",\"approach-retreat\",\"85\",\"818028\",\"0.0-85.0\",\"\",\"\",\"2-5\",\"4401\",\"38\",\"1\",\"Training\",\"Stims/Figures/7-J-10-4.bmp\",\"nala:na\",\"Down\",\"38\",\"6\",\"2\",\"2\",\"S\",\"J\",\"82\"
\"\",\"\",\"approach-retreat\",\"86\",\"824393\",\"0.0-86.0\",\"\",\"\",\"2-5\",\"4855\",\"37\",\"1\",\"Training\",\"Stims/Figures/144-C-30-3.bmp\",\"ta:kata\",\"Left\",\"37\",\"6\",\"3\",\"2\",\"P\",\"J\",\"83\"
\"\",\"\",\"approach-retreat\",\"87\",\"830310\",\"0.0-87.0\",\"\",\"\",\"2-5\",\"4409\",\"39\",\"1\",\"Training\",\"Stims/Figures/7-C-20-4.bmp\",\"ta:kata\",\"Right\",\"39\",\"6\",\"4\",\"2\",\"P\",\"J\",\"84\"
\"\",\"\",\"approach-retreat\",\"88\",\"836658\",\"0.0-88.0\",\"\",\"\",\"2-5\",\"4840\",\"38\",\"1\",\"Training\",\"Stims/Figures/94-J-0-2.bmp\",\"nala:na\",\"Down\",\"38\",\"6\",\"5\",\"2\",\"S\",\"J\",\"85\"
\"\",\"\",\"approach-retreat\",\"89\",\"842708\",\"0.0-89.0\",\"\",\"\",\"2-5\",\"4542\",\"39\",\"1\",\"Training\",\"Stims/Figures/100-C-30-3.bmp\",\"ta:kata\",\"Right\",\"39\",\"6\",\"6\",\"2\",\"P\",\"J\",\"86\"
\"\",\"\",\"approach-retreat\",\"90\",\"848645\",\"0.0-90.0\",\"\",\"\",\"2-5\",\"4429\",\"38\",\"1\",\"Training\",\"Stims/Figures/94-C-20-2.bmp\",\"ta:kata\",\"Up\",\"38\",\"6\",\"7\",\"2\",\"P\",\"J\",\"87\"
\"\",\"\",\"approach-retreat\",\"91\",\"854313\",\"0.0-91.0\",\"\",\"\",\"2-5\",\"4159\",\"39\",\"1\",\"Training\",\"Stims/Figures/139-C-20-2.bmp\",\"ta:kata\",\"Right\",\"39\",\"6\",\"8\",\"2\",\"P\",\"J\",\"88\"
\"\",\"\",\"approach-retreat\",\"92\",\"860130\",\"0.0-92.0\",\"\",\"\",\"2-5\",\"4307\",\"38\",\"1\",\"Training\",\"Stims/Figures/102-J-10-4.bmp\",\"nala:na\",\"Down\",\"38\",\"6\",\"9\",\"2\",\"S\",\"J\",\"89\"
\"\",\"\",\"approach-retreat\",\"93\",\"866338\",\"0.0-93.0\",\"\",\"\",\"2-5\",\"4700\",\"38\",\"1\",\"Training\",\"Stims/Figures/144-J-10-3.bmp\",\"nala:na\",\"Down\",\"38\",\"6\",\"10\",\"2\",\"S\",\"J\",\"90\"
\"\",\"\",\"approach-retreat\",\"94\",\"873424\",\"0.0-94.0\",\"\",\"\",\"2-5\",\"5579\",\"40\",\"1\",\"Training\",\"Stims/Figures/93-J-0-1.bmp\",\"nala:na\",\"Up\",\"40\",\"6\",\"11\",\"2\",\"S\",\"J\",\"91\"
\"\",\"\",\"approach-retreat\",\"95\",\"879815\",\"0.0-95.0\",\"\",\"\",\"2-5\",\"4883\",\"37\",\"1\",\"Training\",\"Stims/Figures/93-C-30-1.bmp\",\"ta:kata\",\"Left\",\"37\",\"6\",\"12\",\"2\",\"P\",\"J\",\"92\"
\"\",\"\",\"approach-retreat\",\"96\",\"885777\",\"0.0-96.0\",\"\",\"\",\"2-5\",\"4453\",\"39\",\"1\",\"Training\",\"Stims/Figures/27-J-0-1.bmp\",\"nala:na\",\"Left\",\"39\",\"6\",\"13\",\"2\",\"S\",\"J\",\"93\"
\"\",\"\",\"approach-retreat\",\"97\",\"891873\",\"0.0-97.0\",\"\",\"\",\"2-5\",\"4588\",\"40\",\"1\",\"Training\",\"Stims/Figures/100-J-10-3.bmp\",\"nala:na\",\"Up\",\"40\",\"6\",\"14\",\"2\",\"S\",\"J\",\"94\"
\"\",\"\",\"approach-retreat\",\"98\",\"897962\",\"0.0-98.0\",\"\",\"\",\"2-5\",\"4580\",\"39\",\"1\",\"Training\",\"Stims/Figures/102-C-20-4.bmp\",\"ta:kata\",\"Right\",\"39\",\"6\",\"15\",\"2\",\"P\",\"J\",\"95\"
\"\",\"\",\"approach-retreat\",\"99\",\"904061\",\"0.0-99.0\",\"\",\"\",\"2-5\",\"4590\",\"39\",\"1\",\"Training\",\"Stims/Figures/139-J-0-2.bmp\",\"nala:na\",\"Left\",\"39\",\"6\",\"16\",\"2\",\"S\",\"J\",\"96\"
\"\",\"\",\"approach-retreat\",\"100\",\"910061\",\"0.0-100.0\",\"\",\"\",\"2-5\",\"4491\",\"40\",\"1\",\"Training\",\"Stims/Figures/100-C-30-3.bmp\",\"ta:kata\",\"Down\",\"40\",\"7\",\"1\",\"2\",\"P\",\"J\",\"97\"
\"\",\"\",\"approach-retreat\",\"101\",\"916814\",\"0.0-101.0\",\"\",\"\",\"2-5\",\"5246\",\"38\",\"1\",\"Training\",\"Stims/Figures/102-J-10-4.bmp\",\"nala:na\",\"Down\",\"38\",\"7\",\"2\",\"2\",\"S\",\"J\",\"98\"
\"\",\"\",\"approach-retreat\",\"102\",\"922985\",\"0.0-102.0\",\"\",\"\",\"2-5\",\"4662\",\"37\",\"1\",\"Training\",\"Stims/Figures/139-J-0-2.bmp\",\"nala:na\",\"Right\",\"37\",\"7\",\"3\",\"2\",\"S\",\"J\",\"99\"
\"\",\"\",\"approach-retreat\",\"103\",\"931207\",\"0.0-103.0\",\"\",\"\",\"2-5\",\"6714\",\"38\",\"1\",\"Training\",\"Stims/Figures/27-C-30-1.bmp\",\"ta:kata\",\"Up\",\"38\",\"7\",\"4\",\"2\",\"P\",\"J\",\"100\"
\"\",\"\",\"approach-retreat\",\"104\",\"937046\",\"0.0-104.0\",\"\",\"\",\"2-5\",\"4332\",\"39\",\"1\",\"Training\",\"Stims/Figures/139-C-20-2.bmp\",\"ta:kata\",\"Right\",\"39\",\"7\",\"5\",\"2\",\"P\",\"J\",\"101\"
\"\",\"\",\"approach-retreat\",\"105\",\"943567\",\"0.0-105.0\",\"\",\"\",\"2-5\",\"5013\",\"37\",\"1\",\"Training\",\"Stims/Figures/7-C-20-4.bmp\",\"ta:kata\",\"Left\",\"37\",\"7\",\"6\",\"2\",\"P\",\"J\",\"102\"
\"\",\"\",\"approach-retreat\",\"106\",\"949478\",\"0.0-106.0\",\"\",\"\",\"2-5\",\"4403\",\"40\",\"1\",\"Training\",\"Stims/Figures/7-J-10-4.bmp\",\"nala:na\",\"Up\",\"40\",\"7\",\"7\",\"2\",\"S\",\"J\",\"103\"
\"\",\"\",\"approach-retreat\",\"107\",\"955316\",\"0.0-107.0\",\"\",\"\",\"2-5\",\"4329\",\"37\",\"1\",\"Training\",\"Stims/Figures/144-C-30-3.bmp\",\"ta:kata\",\"Left\",\"37\",\"7\",\"8\",\"2\",\"P\",\"J\",\"104\"
\"\",\"\",\"approach-retreat\",\"108\",\"961356\",\"0.0-108.0\",\"\",\"\",\"2-5\",\"4532\",\"39\",\"1\",\"Training\",\"Stims/Figures/94-J-0-2.bmp\",\"nala:na\",\"Left\",\"39\",\"7\",\"9\",\"2\",\"S\",\"J\",\"105\"
\"\",\"\",\"approach-retreat\",\"109\",\"967761\",\"0.0-109.0\",\"\",\"\",\"2-5\",\"4898\",\"38\",\"1\",\"Training\",\"Stims/Figures/93-C-30-1.bmp\",\"ta:kata\",\"Up\",\"38\",\"7\",\"10\",\"2\",\"P\",\"J\",\"106\"
\"\",\"\",\"approach-retreat\",\"110\",\"973545\",\"0.0-110.0\",\"\",\"\",\"2-5\",\"4275\",\"39\",\"1\",\"Training\",\"Stims/Figures/94-C-20-2.bmp\",\"ta:kata\",\"Right\",\"39\",\"7\",\"11\",\"2\",\"P\",\"J\",\"107\"
\"\",\"\",\"approach-retreat\",\"111\",\"979373\",\"0.0-111.0\",\"\",\"\",\"2-5\",\"4320\",\"40\",\"1\",\"Training\",\"Stims/Figures/100-J-10-3.bmp\",\"nala:na\",\"Up\",\"40\",\"7\",\"12\",\"2\",\"S\",\"J\",\"108\"
\"\",\"\",\"approach-retreat\",\"112\",\"986339\",\"0.0-112.0\",\"\",\"\",\"2-5\",\"5458\",\"39\",\"1\",\"Training\",\"Stims/Figures/102-C-20-4.bmp\",\"ta:kata\",\"Right\",\"39\",\"7\",\"13\",\"2\",\"P\",\"J\",\"109\"
\"\",\"\",\"approach-retreat\",\"113\",\"992712\",\"0.0-113.0\",\"\",\"\",\"2-5\",\"4864\",\"38\",\"1\",\"Training\",\"Stims/Figures/93-J-0-1.bmp\",\"nala:na\",\"Down\",\"38\",\"7\",\"14\",\"2\",\"S\",\"J\",\"110\"
\"\",\"\",\"approach-retreat\",\"114\",\"998640\",\"0.0-114.0\",\"\",\"\",\"2-5\",\"4422\",\"38\",\"1\",\"Training\",\"Stims/Figures/27-J-0-1.bmp\",\"nala:na\",\"Down\",\"38\",\"7\",\"15\",\"2\",\"S\",\"J\",\"111\"
\"\",\"\",\"approach-retreat\",\"115\",\"1004347\",\"0.0-115.0\",\"\",\"\",\"2-5\",\"4198\",\"39\",\"1\",\"Training\",\"Stims/Figures/144-J-10-3.bmp\",\"nala:na\",\"Left\",\"39\",\"7\",\"16\",\"2\",\"S\",\"J\",\"112\"
\"\",\"\",\"approach-retreat\",\"116\",\"1010237\",\"0.0-116.0\",\"\",\"\",\"2-5\",\"4381\",\"38\",\"1\",\"Training\",\"Stims/Figures/7-C-20-4.bmp\",\"ta:kata\",\"Up\",\"38\",\"8\",\"1\",\"2\",\"P\",\"J\",\"113\"
\"\",\"\",\"approach-retreat\",\"117\",\"1017292\",\"0.0-117.0\",\"\",\"\",\"2-5\",\"5545\",\"38\",\"1\",\"Training\",\"Stims/Figures/100-C-30-3.bmp\",\"ta:kata\",\"Up\",\"38\",\"8\",\"2\",\"2\",\"P\",\"J\",\"114\"
\"\",\"\",\"approach-retreat\",\"118\",\"1023401\",\"0.0-118.0\",\"\",\"\",\"2-5\",\"4601\",\"38\",\"1\",\"Training\",\"Stims/Figures/100-J-10-3.bmp\",\"nala:na\",\"Down\",\"38\",\"8\",\"3\",\"2\",\"S\",\"J\",\"115\"
\"\",\"\",\"approach-retreat\",\"119\",\"1029671\",\"0.0-119.0\",\"\",\"\",\"2-5\",\"4760\",\"39\",\"1\",\"Training\",\"Stims/Figures/102-J-10-4.bmp\",\"nala:na\",\"Left\",\"39\",\"8\",\"4\",\"2\",\"S\",\"J\",\"116\"
\"\",\"\",\"approach-retreat\",\"120\",\"1036506\",\"0.0-120.0\",\"\",\"\",\"2-5\",\"5326\",\"39\",\"1\",\"Training\",\"Stims/Figures/94-C-20-2.bmp\",\"ta:kata\",\"Right\",\"39\",\"8\",\"5\",\"2\",\"P\",\"J\",\"117\"
\"\",\"\",\"approach-retreat\",\"121\",\"1042830\",\"0.0-121.0\",\"\",\"\",\"2-5\",\"4815\",\"37\",\"1\",\"Training\",\"Stims/Figures/93-J-0-1.bmp\",\"nala:na\",\"Right\",\"37\",\"8\",\"6\",\"2\",\"S\",\"J\",\"118\"
\"\",\"\",\"approach-retreat\",\"122\",\"1049103\",\"0.0-122.0\",\"\",\"\",\"2-5\",\"4766\",\"40\",\"1\",\"Training\",\"Stims/Figures/27-C-30-1.bmp\",\"ta:kata\",\"Down\",\"40\",\"8\",\"7\",\"2\",\"P\",\"J\",\"119\"
\"\",\"\",\"approach-retreat\",\"123\",\"1054759\",\"0.0-123.0\",\"\",\"\",\"2-5\",\"4148\",\"39\",\"1\",\"Training\",\"Stims/Figures/7-J-10-4.bmp\",\"nala:na\",\"Left\",\"39\",\"8\",\"8\",\"2\",\"S\",\"J\",\"120\"
\"\",\"\",\"approach-retreat\",\"124\",\"1060838\",\"0.0-124.0\",\"\",\"\",\"2-5\",\"4572\",\"38\",\"1\",\"Training\",\"Stims/Figures/144-J-10-3.bmp\",\"nala:na\",\"Down\",\"38\",\"8\",\"9\",\"2\",\"S\",\"J\",\"121\"
\"\",\"\",\"approach-retreat\",\"125\",\"1067061\",\"0.0-125.0\",\"\",\"\",\"2-5\",\"4715\",\"37\",\"1\",\"Training\",\"Stims/Figures/93-C-30-1.bmp\",\"ta:kata\",\"Left\",\"37\",\"8\",\"10\",\"2\",\"P\",\"J\",\"122\"
\"\",\"\",\"approach-retreat\",\"126\",\"1073049\",\"0.0-126.0\",\"\",\"\",\"2-5\",\"4478\",\"40\",\"1\",\"Training\",\"Stims/Figures/139-J-0-2.bmp\",\"nala:na\",\"Up\",\"40\",\"8\",\"11\",\"2\",\"S\",\"J\",\"123\"
\"\",\"\",\"approach-retreat\",\"127\",\"1078614\",\"0.0-127.0\",\"\",\"\",\"2-5\",\"4058\",\"39\",\"1\",\"Training\",\"Stims/Figures/139-C-20-2.bmp\",\"ta:kata\",\"Right\",\"39\",\"8\",\"12\",\"2\",\"P\",\"J\",\"124\"
\"\",\"\",\"approach-retreat\",\"128\",\"1085087\",\"0.0-128.0\",\"\",\"\",\"2-5\",\"4965\",\"37\",\"1\",\"Training\",\"Stims/Figures/27-J-0-1.bmp\",\"nala:na\",\"Right\",\"37\",\"8\",\"13\",\"2\",\"S\",\"J\",\"125\"
\"\",\"\",\"approach-retreat\",\"129\",\"1090996\",\"0.0-129.0\",\"\",\"\",\"2-5\",\"4401\",\"38\",\"1\",\"Training\",\"Stims/Figures/144-C-30-3.bmp\",\"ta:kata\",\"Up\",\"38\",\"8\",\"14\",\"2\",\"P\",\"J\",\"126\"
\"\",\"\",\"approach-retreat\",\"130\",\"1097025\",\"0.0-130.0\",\"\",\"\",\"2-5\",\"4522\",\"39\",\"1\",\"Training\",\"Stims/Figures/94-J-0-2.bmp\",\"nala:na\",\"Left\",\"39\",\"8\",\"15\",\"2\",\"S\",\"J\",\"127\"
\"\",\"\",\"approach-retreat\",\"131\",\"1102870\",\"0.0-131.0\",\"\",\"\",\"2-5\",\"4336\",\"40\",\"1\",\"Training\",\"Stims/Figures/102-C-20-4.bmp\",\"ta:kata\",\"Down\",\"40\",\"8\",\"16\",\"2\",\"P\",\"J\",\"128\"
\"\",\"\",\"approach-retreat\",\"132\",\"1109296\",\"0.0-132.0\",\"\",\"\",\"2-5\",\"4916\",\"38\",\"1\",\"Training\",\"Stims/Figures/139-C-20-2.bmp\",\"ta:kata\",\"Up\",\"38\",\"9\",\"1\",\"2\",\"P\",\"J\",\"129\"
\"\",\"\",\"approach-retreat\",\"133\",\"1115244\",\"0.0-133.0\",\"\",\"\",\"2-5\",\"4439\",\"38\",\"1\",\"Training\",\"Stims/Figures/94-J-0-2.bmp\",\"nala:na\",\"Down\",\"38\",\"9\",\"2\",\"2\",\"S\",\"J\",\"130\"
\"\",\"\",\"approach-retreat\",\"134\",\"1121274\",\"0.0-134.0\",\"\",\"\",\"2-5\",\"4522\",\"40\",\"1\",\"Training\",\"Stims/Figures/139-J-0-2.bmp\",\"nala:na\",\"Up\",\"40\",\"9\",\"3\",\"2\",\"S\",\"J\",\"131\"
\"\",\"\",\"approach-retreat\",\"135\",\"1127153\",\"0.0-135.0\",\"\",\"\",\"2-5\",\"4370\",\"39\",\"1\",\"Training\",\"Stims/Figures/7-J-10-4.bmp\",\"nala:na\",\"Left\",\"39\",\"9\",\"4\",\"2\",\"S\",\"J\",\"132\"
\"\",\"\",\"approach-retreat\",\"136\",\"1133332\",\"0.0-136.0\",\"\",\"\",\"2-5\",\"4670\",\"37\",\"1\",\"Training\",\"Stims/Figures/144-J-10-3.bmp\",\"nala:na\",\"Right\",\"37\",\"9\",\"5\",\"2\",\"S\",\"J\",\"133\"
\"\",\"\",\"approach-retreat\",\"137\",\"1139642\",\"0.0-137.0\",\"\",\"\",\"2-5\",\"4803\",\"38\",\"1\",\"Training\",\"Stims/Figures/7-C-20-4.bmp\",\"ta:kata\",\"Up\",\"38\",\"9\",\"6\",\"2\",\"P\",\"J\",\"134\"
\"\",\"\",\"approach-retreat\",\"138\",\"1145732\",\"0.0-138.0\",\"\",\"\",\"2-5\",\"4581\",\"37\",\"1\",\"Training\",\"Stims/Figures/100-J-10-3.bmp\",\"nala:na\",\"Right\",\"37\",\"9\",\"7\",\"2\",\"S\",\"J\",\"135\"
\"\",\"\",\"approach-retreat\",\"139\",\"1151788\",\"0.0-139.0\",\"\",\"\",\"2-5\",\"4548\",\"40\",\"1\",\"Training\",\"Stims/Figures/144-C-30-3.bmp\",\"ta:kata\",\"Down\",\"40\",\"9\",\"8\",\"2\",\"P\",\"J\",\"136\"
\"\",\"\",\"approach-retreat\",\"140\",\"1157745\",\"0.0-140.0\",\"\",\"\",\"2-5\",\"4449\",\"39\",\"1\",\"Training\",\"Stims/Figures/93-J-0-1.bmp\",\"nala:na\",\"Left\",\"39\",\"9\",\"9\",\"2\",\"S\",\"J\",\"137\"
\"\",\"\",\"approach-retreat\",\"141\",\"1163613\",\"0.0-141.0\",\"\",\"\",\"2-5\",\"4359\",\"40\",\"1\",\"Training\",\"Stims/Figures/27-C-30-1.bmp\",\"ta:kata\",\"Down\",\"40\",\"9\",\"10\",\"2\",\"P\",\"J\",\"138\"
\"\",\"\",\"approach-retreat\",\"142\",\"1169622\",\"0.0-142.0\",\"\",\"\",\"2-5\",\"4500\",\"40\",\"1\",\"Training\",\"Stims/Figures/102-J-10-4.bmp\",\"nala:na\",\"Up\",\"40\",\"9\",\"11\",\"2\",\"S\",\"J\",\"139\"
\"\",\"\",\"approach-retreat\",\"143\",\"1175660\",\"0.0-143.0\",\"\",\"\",\"2-5\",\"4531\",\"39\",\"1\",\"Training\",\"Stims/Figures/93-C-30-1.bmp\",\"ta:kata\",\"Right\",\"39\",\"9\",\"12\",\"2\",\"P\",\"J\",\"140\"
\"\",\"\",\"approach-retreat\",\"144\",\"1181672\",\"0.0-144.0\",\"\",\"\",\"2-5\",\"4504\",\"37\",\"1\",\"Training\",\"Stims/Figures/100-C-30-3.bmp\",\"ta:kata\",\"Left\",\"37\",\"9\",\"13\",\"2\",\"P\",\"J\",\"141\"
\"\",\"\",\"approach-retreat\",\"145\",\"1187650\",\"0.0-145.0\",\"\",\"\",\"2-5\",\"4471\",\"40\",\"1\",\"Training\",\"Stims/Figures/102-C-20-4.bmp\",\"ta:kata\",\"Down\",\"40\",\"9\",\"14\",\"2\",\"P\",\"J\",\"142\"
\"\",\"\",\"approach-retreat\",\"146\",\"1193480\",\"0.0-146.0\",\"\",\"\",\"2-5\",\"4321\",\"39\",\"1\",\"Training\",\"Stims/Figures/94-C-20-2.bmp\",\"ta:kata\",\"Right\",\"39\",\"9\",\"15\",\"2\",\"P\",\"J\",\"143\"
\"\",\"\",\"approach-retreat\",\"147\",\"1199315\",\"0.0-147.0\",\"\",\"\",\"2-5\",\"4326\",\"39\",\"1\",\"Training\",\"Stims/Figures/27-J-0-1.bmp\",\"nala:na\",\"Left\",\"39\",\"9\",\"16\",\"2\",\"S\",\"J\",\"144\"
\"30150\",\"\",\"instructions\",\"148\",\"1229465\",\"0.0-148.0\",\"[{\"\"page_index\"\":0,\"\"viewing_time\"\":30149}]\",\"\",\"\",\"\",\"\",\"\",\"\",\"\",\"\",\"\",\"\",\"\",\"\",\"\",\"\",\"\",\"\"
\"\",\"\",\"approach-retreat\",\"149\",\"1236001\",\"0.0-149.0\",\"\",\"\",\"2-5\",\"5030\",\"40\",\"1\",\"Testing\",\"Stims/Figures/118-C-20-2.bmp\",\"ta:kata\",\"Down\",\"40\",\"1\",\"1\",\"2\",\"P\",\"J\",\"1\"
\"\",\"\",\"approach-retreat\",\"150\",\"1243083\",\"0.0-150.0\",\"\",\"\",\"2-5\",\"5576\",\"40\",\"0\",\"Testing\",\"Stims/Figures/102-C-20-4.bmp\",\"ta:kata\",\"Up\",\"38\",\"1\",\"2\",\"2\",\"P\",\"J\",\"2\"
\"\",\"\",\"approach-retreat\",\"151\",\"1248932\",\"0.0-151.0\",\"\",\"\",\"2-5\",\"4343\",\"40\",\"1\",\"Testing\",\"Stims/Figures/100-C-30-3.bmp\",\"ta:kata\",\"Down\",\"40\",\"1\",\"3\",\"2\",\"P\",\"J\",\"3\"
\"\",\"\",\"approach-retreat\",\"152\",\"1255724\",\"0.0-152.0\",\"\",\"\",\"2-5\",\"5286\",\"38\",\"0\",\"Testing\",\"Stims/Figures/111-J-10-3.bmp\",\"nala:na\",\"Up\",\"40\",\"1\",\"4\",\"2\",\"S\",\"J\",\"4\"
\"\",\"\",\"approach-retreat\",\"153\",\"1261988\",\"0.0-153.0\",\"\",\"\",\"2-5\",\"4758\",\"37\",\"1\",\"Testing\",\"Stims/Figures/93-J-0-1.bmp\",\"nala:na\",\"Right\",\"37\",\"1\",\"5\",\"2\",\"S\",\"J\",\"5\"
\"\",\"\",\"approach-retreat\",\"154\",\"1268811\",\"0.0-154.0\",\"\",\"\",\"2-5\",\"5316\",\"39\",\"1\",\"Testing\",\"Stims/Figures/27-C-30-1.bmp\",\"ta:kata\",\"Right\",\"39\",\"1\",\"6\",\"2\",\"P\",\"J\",\"6\"
\"\",\"\",\"approach-retreat\",\"155\",\"1274668\",\"0.0-155.0\",\"\",\"\",\"2-5\",\"4351\",\"37\",\"1\",\"Testing\",\"Stims/Figures/144-J-10-3.bmp\",\"nala:na\",\"Right\",\"37\",\"1\",\"7\",\"2\",\"S\",\"J\",\"7\"
\"\",\"\",\"approach-retreat\",\"156\",\"1281844\",\"0.0-156.0\",\"\",\"\",\"2-5\",\"5669\",\"38\",\"1\",\"Testing\",\"Stims/Figures/111-C-30-3.bmp\",\"ta:kata\",\"Up\",\"38\",\"1\",\"8\",\"2\",\"P\",\"J\",\"8\"
\"\",\"\",\"approach-retreat\",\"157\",\"1287887\",\"0.0-157.0\",\"\",\"\",\"2-5\",\"4536\",\"40\",\"1\",\"Testing\",\"Stims/Figures/139-C-20-2.bmp\",\"ta:kata\",\"Down\",\"40\",\"1\",\"9\",\"2\",\"P\",\"J\",\"9\"
\"\",\"\",\"approach-retreat\",\"158\",\"1293733\",\"0.0-158.0\",\"\",\"\",\"2-5\",\"4341\",\"37\",\"1\",\"Testing\",\"Stims/Figures/144-C-30-3.bmp\",\"ta:kata\",\"Left\",\"37\",\"1\",\"10\",\"2\",\"P\",\"J\",\"10\"
\"\",\"\",\"approach-retreat\",\"159\",\"1300748\",\"0.0-159.0\",\"\",\"\",\"2-5\",\"5509\",\"40\",\"1\",\"Testing\",\"Stims/Figures/87-C-20-4.bmp\",\"ta:kata\",\"Down\",\"40\",\"1\",\"11\",\"2\",\"P\",\"J\",\"11\"
\"\",\"\",\"approach-retreat\",\"160\",\"1309962\",\"0.0-160.0\",\"\",\"\",\"2-5\",\"7707\",\"38\",\"1\",\"Testing\",\"Stims/Figures/102-J-10-4.bmp\",\"nala:na\",\"Down\",\"38\",\"1\",\"12\",\"2\",\"S\",\"J\",\"12\"
\"\",\"\",\"approach-retreat\",\"161\",\"1315714\",\"0.0-161.0\",\"\",\"\",\"2-5\",\"4245\",\"39\",\"1\",\"Testing\",\"Stims/Figures/57-C-30-1.bmp\",\"ta:kata\",\"Right\",\"39\",\"1\",\"13\",\"2\",\"P\",\"J\",\"13\"
\"\",\"\",\"approach-retreat\",\"162\",\"1321440\",\"0.0-162.0\",\"\",\"\",\"2-5\",\"4220\",\"39\",\"1\",\"Testing\",\"Stims/Figures/139-J-0-2.bmp\",\"nala:na\",\"Left\",\"39\",\"1\",\"14\",\"2\",\"S\",\"J\",\"14\"
\"\",\"\",\"approach-retreat\",\"163\",\"1327498\",\"0.0-163.0\",\"\",\"\",\"2-5\",\"4550\",\"37\",\"1\",\"Testing\",\"Stims/Figures/94-C-20-2.bmp\",\"ta:kata\",\"Left\",\"37\",\"1\",\"15\",\"2\",\"P\",\"J\",\"15\"
\"\",\"\",\"approach-retreat\",\"164\",\"1333396\",\"0.0-164.0\",\"\",\"\",\"2-5\",\"4392\",\"39\",\"1\",\"Testing\",\"Stims/Figures/27-J-0-1.bmp\",\"nala:na\",\"Left\",\"39\",\"1\",\"16\",\"2\",\"S\",\"J\",\"16\"
\"\",\"\",\"approach-retreat\",\"165\",\"1339859\",\"0.0-165.0\",\"\",\"\",\"2-5\",\"4953\",\"40\",\"1\",\"Testing\",\"Stims/Figures/100-J-10-3.bmp\",\"nala:na\",\"Up\",\"40\",\"1\",\"17\",\"2\",\"S\",\"J\",\"17\"
\"\",\"\",\"approach-retreat\",\"166\",\"1345661\",\"0.0-166.0\",\"\",\"\",\"2-5\",\"4296\",\"37\",\"0\",\"Testing\",\"Stims/Figures/87-J-10-4.bmp\",\"nala:na\",\"Left\",\"39\",\"1\",\"18\",\"2\",\"S\",\"J\",\"18\"
\"\",\"\",\"approach-retreat\",\"167\",\"1352083\",\"0.0-167.0\",\"\",\"\",\"2-5\",\"4909\",\"37\",\"1\",\"Testing\",\"Stims/Figures/94-J-0-2.bmp\",\"nala:na\",\"Right\",\"37\",\"1\",\"19\",\"2\",\"S\",\"J\",\"19\"
\"\",\"\",\"approach-retreat\",\"168\",\"1357973\",\"0.0-168.0\",\"\",\"\",\"2-5\",\"4383\",\"37\",\"1\",\"Testing\",\"Stims/Figures/7-C-20-4.bmp\",\"ta:kata\",\"Left\",\"37\",\"1\",\"20\",\"2\",\"P\",\"J\",\"20\"
\"\",\"\",\"approach-retreat\",\"169\",\"1363850\",\"0.0-169.0\",\"\",\"\",\"2-5\",\"4370\",\"38\",\"1\",\"Testing\",\"Stims/Figures/7-J-10-4.bmp\",\"nala:na\",\"Down\",\"38\",\"1\",\"21\",\"2\",\"S\",\"J\",\"21\"
\"\",\"\",\"approach-retreat\",\"170\",\"1370682\",\"0.0-170.0\",\"\",\"\",\"2-5\",\"5326\",\"40\",\"1\",\"Testing\",\"Stims/Figures/57-J-0-1.bmp\",\"nala:na\",\"Up\",\"40\",\"1\",\"22\",\"2\",\"S\",\"J\",\"22\"
\"\",\"\",\"approach-retreat\",\"171\",\"1376992\",\"0.0-171.0\",\"\",\"\",\"2-5\",\"4803\",\"39\",\"1\",\"Testing\",\"Stims/Figures/93-C-30-1.bmp\",\"ta:kata\",\"Right\",\"39\",\"1\",\"23\",\"2\",\"P\",\"J\",\"23\"
\"\",\"\",\"approach-retreat\",\"172\",\"1382942\",\"0.0-172.0\",\"\",\"\",\"2-5\",\"4443\",\"38\",\"0\",\"Testing\",\"Stims/Figures/118-J-0-2.bmp\",\"nala:na\",\"Up\",\"40\",\"1\",\"24\",\"2\",\"S\",\"J\",\"24\"
\"\",\"\",\"approach-retreat\",\"173\",\"1388758\",\"0.0-173.0\",\"\",\"\",\"2-5\",\"4309\",\"39\",\"0\",\"Testing\",\"Stims/Figures/118-J-0-2.bmp\",\"nala:na\",\"Right\",\"37\",\"2\",\"1\",\"2\",\"S\",\"J\",\"25\"
\"\",\"\",\"approach-retreat\",\"174\",\"1395628\",\"0.0-174.0\",\"\",\"\",\"2-5\",\"5364\",\"40\",\"1\",\"Testing\",\"Stims/Figures/144-J-10-3.bmp\",\"nala:na\",\"Up\",\"40\",\"2\",\"2\",\"2\",\"S\",\"J\",\"26\"
\"\",\"\",\"approach-retreat\",\"175\",\"1401415\",\"0.0-175.0\",\"\",\"\",\"2-5\",\"4279\",\"39\",\"0\",\"Testing\",\"Stims/Figures/111-J-10-3.bmp\",\"nala:na\",\"Right\",\"37\",\"2\",\"3\",\"2\",\"S\",\"J\",\"27\"
\"\",\"\",\"approach-retreat\",\"176\",\"1407935\",\"0.0-176.0\",\"\",\"\",\"2-5\",\"5013\",\"37\",\"0\",\"Testing\",\"Stims/Figures/102-C-20-4.bmp\",\"ta:kata\",\"Right\",\"39\",\"2\",\"4\",\"2\",\"P\",\"J\",\"28\"
\"\",\"\",\"approach-retreat\",\"177\",\"1413963\",\"0.0-177.0\",\"\",\"\",\"2-5\",\"4522\",\"37\",\"0\",\"Testing\",\"Stims/Figures/87-J-10-4.bmp\",\"nala:na\",\"Left\",\"39\",\"2\",\"5\",\"2\",\"S\",\"J\",\"29\"
\"\",\"\",\"approach-retreat\",\"178\",\"1420522\",\"0.0-178.0\",\"\",\"\",\"2-5\",\"5051\",\"37\",\"1\",\"Testing\",\"Stims/Figures/93-C-30-1.bmp\",\"ta:kata\",\"Left\",\"37\",\"2\",\"6\",\"2\",\"P\",\"J\",\"30\"
\"\",\"\",\"approach-retreat\",\"179\",\"1427424\",\"0.0-179.0\",\"\",\"\",\"2-5\",\"5395\",\"37\",\"1\",\"Testing\",\"Stims/Figures/100-J-10-3.bmp\",\"nala:na\",\"Right\",\"37\",\"2\",\"7\",\"2\",\"S\",\"J\",\"31\"
\"\",\"\",\"approach-retreat\",\"180\",\"1433919\",\"0.0-180.0\",\"\",\"\",\"2-5\",\"4990\",\"39\",\"0\",\"Testing\",\"Stims/Figures/27-C-30-1.bmp\",\"ta:kata\",\"Left\",\"37\",\"2\",\"8\",\"2\",\"P\",\"J\",\"32\"
\"\",\"\",\"approach-retreat\",\"181\",\"1439887\",\"0.0-181.0\",\"\",\"\",\"2-5\",\"4460\",\"38\",\"1\",\"Testing\",\"Stims/Figures/139-J-0-2.bmp\",\"nala:na\",\"Down\",\"38\",\"2\",\"9\",\"2\",\"S\",\"J\",\"33\"
\"\",\"\",\"approach-retreat\",\"182\",\"1446599\",\"0.0-182.0\",\"\",\"\",\"2-5\",\"5205\",\"38\",\"0\",\"Testing\",\"Stims/Figures/102-J-10-4.bmp\",\"nala:na\",\"Up\",\"40\",\"2\",\"10\",\"2\",\"S\",\"J\",\"34\"
\"\",\"\",\"approach-retreat\",\"183\",\"1452545\",\"0.0-183.0\",\"\",\"\",\"2-5\",\"4440\",\"38\",\"1\",\"Testing\",\"Stims/Figures/93-J-0-1.bmp\",\"nala:na\",\"Down\",\"38\",\"2\",\"11\",\"2\",\"S\",\"J\",\"35\"
\"\",\"\",\"approach-retreat\",\"184\",\"1458425\",\"0.0-184.0\",\"\",\"\",\"2-5\",\"4372\",\"38\",\"1\",\"Testing\",\"Stims/Figures/118-C-20-2.bmp\",\"ta:kata\",\"Up\",\"38\",\"2\",\"12\",\"2\",\"P\",\"J\",\"36\"
\"\",\"\",\"approach-retreat\",\"185\",\"1464714\",\"0.0-185.0\",\"\",\"\",\"2-5\",\"4784\",\"40\",\"1\",\"Testing\",\"Stims/Figures/94-J-0-2.bmp\",\"nala:na\",\"Up\",\"40\",\"2\",\"13\",\"2\",\"S\",\"J\",\"37\"
\"\",\"\",\"approach-retreat\",\"186\",\"1470550\",\"0.0-186.0\",\"\",\"\",\"2-5\",\"4328\",\"40\",\"1\",\"Testing\",\"Stims/Figures/27-J-0-1.bmp\",\"nala:na\",\"Up\",\"40\",\"2\",\"14\",\"2\",\"S\",\"J\",\"38\"
\"\",\"\",\"approach-retreat\",\"187\",\"1476477\",\"0.0-187.0\",\"\",\"\",\"2-5\",\"4420\",\"37\",\"1\",\"Testing\",\"Stims/Figures/94-C-20-2.bmp\",\"ta:kata\",\"Left\",\"37\",\"2\",\"15\",\"2\",\"P\",\"J\",\"39\"
\"\",\"\",\"approach-retreat\",\"188\",\"1482384\",\"0.0-188.0\",\"\",\"\",\"2-5\",\"4401\",\"37\",\"1\",\"Testing\",\"Stims/Figures/57-C-30-1.bmp\",\"ta:kata\",\"Left\",\"37\",\"2\",\"16\",\"2\",\"P\",\"J\",\"40\"
\"\",\"\",\"approach-retreat\",\"189\",\"1488944\",\"0.0-189.0\",\"\",\"\",\"2-5\",\"5053\",\"37\",\"1\",\"Testing\",\"Stims/Figures/7-J-10-4.bmp\",\"nala:na\",\"Right\",\"37\",\"2\",\"17\",\"2\",\"S\",\"J\",\"41\"
\"\",\"\",\"approach-retreat\",\"190\",\"1494924\",\"0.0-190.0\",\"\",\"\",\"2-5\",\"4471\",\"38\",\"1\",\"Testing\",\"Stims/Figures/7-C-20-4.bmp\",\"ta:kata\",\"Up\",\"38\",\"2\",\"18\",\"2\",\"P\",\"J\",\"42\"
\"\",\"\",\"approach-retreat\",\"191\",\"1501001\",\"0.0-191.0\",\"\",\"\",\"2-5\",\"4570\",\"37\",\"1\",\"Testing\",\"Stims/Figures/139-C-20-2.bmp\",\"ta:kata\",\"Left\",\"37\",\"2\",\"19\",\"2\",\"P\",\"J\",\"43\"
\"\",\"\",\"approach-retreat\",\"192\",\"1507513\",\"0.0-192.0\",\"\",\"\",\"2-5\",\"5006\",\"40\",\"1\",\"Testing\",\"Stims/Figures/100-C-30-3.bmp\",\"ta:kata\",\"Down\",\"40\",\"2\",\"20\",\"2\",\"P\",\"J\",\"44\"
\"\",\"\",\"approach-retreat\",\"193\",\"1514284\",\"0.0-193.0\",\"\",\"\",\"2-5\",\"5264\",\"40\",\"1\",\"Testing\",\"Stims/Figures/144-C-30-3.bmp\",\"ta:kata\",\"Down\",\"40\",\"2\",\"21\",\"2\",\"P\",\"J\",\"45\"
\"\",\"\",\"approach-retreat\",\"194\",\"1520271\",\"0.0-194.0\",\"\",\"\",\"2-5\",\"4480\",\"38\",\"1\",\"Testing\",\"Stims/Figures/57-J-0-1.bmp\",\"nala:na\",\"Down\",\"38\",\"2\",\"22\",\"2\",\"S\",\"J\",\"46\"
\"\",\"\",\"approach-retreat\",\"195\",\"1526039\",\"0.0-195.0\",\"\",\"\",\"2-5\",\"4261\",\"39\",\"1\",\"Testing\",\"Stims/Figures/111-C-30-3.bmp\",\"ta:kata\",\"Right\",\"39\",\"2\",\"23\",\"2\",\"P\",\"J\",\"47\"
\"\",\"\",\"approach-retreat\",\"196\",\"1531938\",\"0.0-196.0\",\"\",\"\",\"2-5\",\"4391\",\"40\",\"1\",\"Testing\",\"Stims/Figures/87-C-20-4.bmp\",\"ta:kata\",\"Down\",\"40\",\"2\",\"24\",\"2\",\"P\",\"J\",\"48\"
\"\",\"\",\"approach-retreat\",\"197\",\"1537639\",\"0.0-197.0\",\"\",\"\",\"2-5\",\"4195\",\"37\",\"1\",\"Testing\",\"Stims/Figures/118-J-0-2.bmp\",\"nala:na\",\"Right\",\"37\",\"3\",\"1\",\"2\",\"S\",\"J\",\"49\"
\"\",\"\",\"approach-retreat\",\"198\",\"1545706\",\"0.0-198.0\",\"\",\"\",\"2-5\",\"6560\",\"37\",\"0\",\"Testing\",\"Stims/Figures/102-J-10-4.bmp\",\"nala:na\",\"Left\",\"39\",\"3\",\"2\",\"2\",\"S\",\"J\",\"50\"
\"\",\"\",\"approach-retreat\",\"199\",\"1551583\",\"0.0-199.0\",\"\",\"\",\"2-5\",\"4370\",\"37\",\"1\",\"Testing\",\"Stims/Figures/118-C-20-2.bmp\",\"ta:kata\",\"Left\",\"37\",\"3\",\"3\",\"2\",\"P\",\"J\",\"51\"
\"\",\"\",\"approach-retreat\",\"200\",\"1557461\",\"0.0-200.0\",\"\",\"\",\"2-5\",\"4373\",\"38\",\"1\",\"Testing\",\"Stims/Figures/87-C-20-4.bmp\",\"ta:kata\",\"Up\",\"38\",\"3\",\"4\",\"2\",\"P\",\"J\",\"52\"
\"\",\"\",\"approach-retreat\",\"201\",\"1563337\",\"0.0-201.0\",\"\",\"\",\"2-5\",\"4369\",\"37\",\"1\",\"Testing\",\"Stims/Figures/57-C-30-1.bmp\",\"ta:kata\",\"Left\",\"37\",\"3\",\"5\",\"2\",\"P\",\"J\",\"53\"
\"\",\"\",\"approach-retreat\",\"202\",\"1569146\",\"0.0-202.0\",\"\",\"\",\"2-5\",\"4303\",\"37\",\"1\",\"Testing\",\"Stims/Figures/111-J-10-3.bmp\",\"nala:na\",\"Right\",\"37\",\"3\",\"6\",\"2\",\"S\",\"J\",\"54\"
\"\",\"\",\"approach-retreat\",\"203\",\"1575054\",\"0.0-203.0\",\"\",\"\",\"2-5\",\"4401\",\"38\",\"0\",\"Testing\",\"Stims/Figures/87-J-10-4.bmp\",\"nala:na\",\"Up\",\"40\",\"3\",\"7\",\"2\",\"S\",\"J\",\"55\"
\"\",\"\",\"approach-retreat\",\"204\",\"1581990\",\"0.0-204.0\",\"\",\"\",\"2-5\",\"5429\",\"37\",\"1\",\"Testing\",\"Stims/Figures/27-J-0-1.bmp\",\"nala:na\",\"Right\",\"37\",\"3\",\"8\",\"2\",\"S\",\"J\",\"56\"
\"\",\"\",\"approach-retreat\",\"205\",\"1589628\",\"0.0-205.0\",\"\",\"\",\"2-5\",\"6132\",\"40\",\"1\",\"Testing\",\"Stims/Figures/100-J-10-3.bmp\",\"nala:na\",\"Up\",\"40\",\"3\",\"9\",\"2\",\"S\",\"J\",\"57\"
\"\",\"\",\"approach-retreat\",\"206\",\"1595727\",\"0.0-206.0\",\"\",\"\",\"2-5\",\"4592\",\"37\",\"1\",\"Testing\",\"Stims/Figures/7-C-20-4.bmp\",\"ta:kata\",\"Left\",\"37\",\"3\",\"10\",\"2\",\"P\",\"J\",\"58\"
\"\",\"\",\"approach-retreat\",\"207\",\"1603182\",\"0.0-207.0\",\"\",\"\",\"2-5\",\"5948\",\"39\",\"1\",\"Testing\",\"Stims/Figures/94-C-20-2.bmp\",\"ta:kata\",\"Right\",\"39\",\"3\",\"11\",\"2\",\"P\",\"J\",\"59\"
\"\",\"\",\"approach-retreat\",\"208\",\"1609151\",\"0.0-208.0\",\"\",\"\",\"2-5\",\"4462\",\"37\",\"1\",\"Testing\",\"Stims/Figures/139-J-0-2.bmp\",\"nala:na\",\"Right\",\"37\",\"3\",\"12\",\"2\",\"S\",\"J\",\"60\"
\"\",\"\",\"approach-retreat\",\"209\",\"1615915\",\"0.0-209.0\",\"\",\"\",\"2-5\",\"5258\",\"40\",\"1\",\"Testing\",\"Stims/Figures/139-C-20-2.bmp\",\"ta:kata\",\"Down\",\"40\",\"3\",\"13\",\"2\",\"P\",\"J\",\"61\"
\"\",\"\",\"approach-retreat\",\"210\",\"1622547\",\"0.0-210.0\",\"\",\"\",\"2-5\",\"5126\",\"40\",\"1\",\"Testing\",\"Stims/Figures/144-C-30-3.bmp\",\"ta:kata\",\"Down\",\"40\",\"3\",\"14\",\"2\",\"P\",\"J\",\"62\"
\"\",\"\",\"approach-retreat\",\"211\",\"1641917\",\"0.0-211.0\",\"\",\"\",\"2-5\",\"17863\",\"40\",\"1\",\"Testing\",\"Stims/Figures/27-C-30-1.bmp\",\"ta:kata\",\"Down\",\"40\",\"3\",\"15\",\"2\",\"P\",\"J\",\"63\"
\"\",\"\",\"approach-retreat\",\"212\",\"1647664\",\"0.0-212.0\",\"\",\"\",\"2-5\",\"4240\",\"39\",\"1\",\"Testing\",\"Stims/Figures/94-J-0-2.bmp\",\"nala:na\",\"Left\",\"39\",\"3\",\"16\",\"2\",\"S\",\"J\",\"64\"
\"\",\"\",\"approach-retreat\",\"213\",\"1653954\",\"0.0-213.0\",\"\",\"\",\"2-5\",\"4783\",\"38\",\"1\",\"Testing\",\"Stims/Figures/7-J-10-4.bmp\",\"nala:na\",\"Down\",\"38\",\"3\",\"17\",\"2\",\"S\",\"J\",\"65\"
\"\",\"\",\"approach-retreat\",\"214\",\"1660131\",\"0.0-214.0\",\"\",\"\",\"2-5\",\"4671\",\"38\",\"1\",\"Testing\",\"Stims/Figures/93-C-30-1.bmp\",\"ta:kata\",\"Up\",\"38\",\"3\",\"18\",\"2\",\"P\",\"J\",\"66\"
\"\",\"\",\"approach-retreat\",\"215\",\"1665709\",\"0.0-215.0\",\"\",\"\",\"2-5\",\"4072\",\"39\",\"1\",\"Testing\",\"Stims/Figures/93-J-0-1.bmp\",\"nala:na\",\"Left\",\"39\",\"3\",\"19\",\"2\",\"S\",\"J\",\"67\"
\"\",\"\",\"approach-retreat\",\"216\",\"1671577\",\"0.0-216.0\",\"\",\"\",\"2-5\",\"4362\",\"40\",\"1\",\"Testing\",\"Stims/Figures/111-C-30-3.bmp\",\"ta:kata\",\"Down\",\"40\",\"3\",\"20\",\"2\",\"P\",\"J\",\"68\"
\"\",\"\",\"approach-retreat\",\"217\",\"1677426\",\"0.0-217.0\",\"\",\"\",\"2-5\",\"4343\",\"40\",\"1\",\"Testing\",\"Stims/Figures/57-J-0-1.bmp\",\"nala:na\",\"Up\",\"40\",\"3\",\"21\",\"2\",\"S\",\"J\",\"69\"
\"\",\"\",\"approach-retreat\",\"218\",\"1685301\",\"0.0-218.0\",\"\",\"\",\"2-5\",\"6368\",\"37\",\"1\",\"Testing\",\"Stims/Figures/144-J-10-3.bmp\",\"nala:na\",\"Right\",\"37\",\"3\",\"22\",\"2\",\"S\",\"J\",\"70\"
\"\",\"\",\"approach-retreat\",\"219\",\"1691080\",\"0.0-219.0\",\"\",\"\",\"2-5\",\"4272\",\"38\",\"1\",\"Testing\",\"Stims/Figures/102-C-20-4.bmp\",\"ta:kata\",\"Up\",\"38\",\"3\",\"23\",\"2\",\"P\",\"J\",\"71\"
\"\",\"\",\"approach-retreat\",\"220\",\"1697238\",\"0.0-220.0\",\"\",\"\",\"2-5\",\"4651\",\"40\",\"1\",\"Testing\",\"Stims/Figures/100-C-30-3.bmp\",\"ta:kata\",\"Down\",\"40\",\"3\",\"24\",\"2\",\"P\",\"J\",\"72\"
\"\",\"\",\"approach-retreat\",\"221\",\"1702955\",\"0.0-221.0\",\"\",\"\",\"2-5\",\"4210\",\"37\",\"1\",\"Testing\",\"Stims/Figures/111-J-10-3.bmp\",\"nala:na\",\"Right\",\"37\",\"4\",\"1\",\"2\",\"S\",\"J\",\"73\"
\"\",\"\",\"approach-retreat\",\"222\",\"1708731\",\"0.0-222.0\",\"\",\"\",\"2-5\",\"4271\",\"39\",\"1\",\"Testing\",\"Stims/Figures/27-C-30-1.bmp\",\"ta:kata\",\"Right\",\"39\",\"4\",\"2\",\"2\",\"P\",\"J\",\"74\"
\"\",\"\",\"approach-retreat\",\"223\",\"1714449\",\"0.0-223.0\",\"\",\"\",\"2-5\",\"4211\",\"39\",\"1\",\"Testing\",\"Stims/Figures/93-J-0-1.bmp\",\"nala:na\",\"Left\",\"39\",\"4\",\"3\",\"2\",\"S\",\"J\",\"75\"
\"\",\"\",\"approach-retreat\",\"224\",\"1720346\",\"0.0-224.0\",\"\",\"\",\"2-5\",\"4390\",\"38\",\"1\",\"Testing\",\"Stims/Figures/102-J-10-4.bmp\",\"nala:na\",\"Down\",\"38\",\"4\",\"4\",\"2\",\"S\",\"J\",\"76\"
\"\",\"\",\"approach-retreat\",\"225\",\"1726990\",\"0.0-225.0\",\"\",\"\",\"2-5\",\"5138\",\"38\",\"1\",\"Testing\",\"Stims/Figures/100-C-30-3.bmp\",\"ta:kata\",\"Up\",\"38\",\"4\",\"5\",\"2\",\"P\",\"J\",\"77\"
\"\",\"\",\"approach-retreat\",\"226\",\"1733059\",\"0.0-226.0\",\"\",\"\",\"2-5\",\"4561\",\"38\",\"1\",\"Testing\",\"Stims/Figures/139-J-0-2.bmp\",\"nala:na\",\"Down\",\"38\",\"4\",\"6\",\"2\",\"S\",\"J\",\"78\"
\"\",\"\",\"approach-retreat\",\"227\",\"1739037\",\"0.0-227.0\",\"\",\"\",\"2-5\",\"4472\",\"39\",\"0\",\"Testing\",\"Stims/Figures/102-C-20-4.bmp\",\"ta:kata\",\"Left\",\"37\",\"4\",\"7\",\"2\",\"P\",\"J\",\"79\"
\"\",\"\",\"approach-retreat\",\"228\",\"1744894\",\"0.0-228.0\",\"\",\"\",\"2-5\",\"4351\",\"40\",\"0\",\"Testing\",\"Stims/Figures/87-J-10-4.bmp\",\"nala:na\",\"Down\",\"38\",\"4\",\"8\",\"2\",\"S\",\"J\",\"80\"
\"\",\"\",\"approach-retreat\",\"229\",\"1751032\",\"0.0-229.0\",\"\",\"\",\"2-5\",\"4629\",\"40\",\"1\",\"Testing\",\"Stims/Figures/27-J-0-1.bmp\",\"nala:na\",\"Up\",\"40\",\"4\",\"9\",\"2\",\"S\",\"J\",\"81\"
\"\",\"\",\"approach-retreat\",\"230\",\"1758054\",\"0.0-230.0\",\"\",\"\",\"2-5\",\"5515\",\"39\",\"1\",\"Testing\",\"Stims/Figures/7-J-10-4.bmp\",\"nala:na\",\"Left\",\"39\",\"4\",\"10\",\"2\",\"S\",\"J\",\"82\"
\"\",\"\",\"approach-retreat\",\"231\",\"1764456\",\"0.0-231.0\",\"\",\"\",\"2-5\",\"4896\",\"40\",\"1\",\"Testing\",\"Stims/Figures/87-C-20-4.bmp\",\"ta:kata\",\"Down\",\"40\",\"4\",\"11\",\"2\",\"P\",\"J\",\"83\"
\"\",\"\",\"approach-retreat\",\"232\",\"1770394\",\"0.0-232.0\",\"\",\"\",\"2-5\",\"4431\",\"38\",\"1\",\"Testing\",\"Stims/Figures/139-C-20-2.bmp\",\"ta:kata\",\"Up\",\"38\",\"4\",\"12\",\"2\",\"P\",\"J\",\"84\"
\"\",\"\",\"approach-retreat\",\"233\",\"1776651\",\"0.0-233.0\",\"\",\"\",\"2-5\",\"4749\",\"38\",\"1\",\"Testing\",\"Stims/Figures/7-C-20-4.bmp\",\"ta:kata\",\"Up\",\"38\",\"4\",\"13\",\"2\",\"P\",\"J\",\"85\"
\"\",\"\",\"approach-retreat\",\"234\",\"1782537\",\"0.0-234.0\",\"\",\"\",\"2-5\",\"4380\",\"38\",\"1\",\"Testing\",\"Stims/Figures/57-C-30-1.bmp\",\"ta:kata\",\"Up\",\"38\",\"4\",\"14\",\"2\",\"P\",\"J\",\"86\"
\"\",\"\",\"approach-retreat\",\"235\",\"1788375\",\"0.0-235.0\",\"\",\"\",\"2-5\",\"4331\",\"38\",\"1\",\"Testing\",\"Stims/Figures/118-J-0-2.bmp\",\"nala:na\",\"Down\",\"38\",\"4\",\"15\",\"2\",\"S\",\"J\",\"87\"
\"\",\"\",\"approach-retreat\",\"236\",\"1794213\",\"0.0-236.0\",\"\",\"\",\"2-5\",\"4330\",\"38\",\"1\",\"Testing\",\"Stims/Figures/100-J-10-3.bmp\",\"nala:na\",\"Down\",\"38\",\"4\",\"16\",\"2\",\"S\",\"J\",\"88\"
\"\",\"\",\"approach-retreat\",\"237\",\"1800059\",\"0.0-237.0\",\"\",\"\",\"2-5\",\"4339\",\"37\",\"0\",\"Testing\",\"Stims/Figures/94-C-20-2.bmp\",\"ta:kata\",\"Right\",\"39\",\"4\",\"17\",\"2\",\"P\",\"J\",\"89\"
\"\",\"\",\"approach-retreat\",\"238\",\"1806489\",\"0.0-238.0\",\"\",\"\",\"2-5\",\"4923\",\"37\",\"1\",\"Testing\",\"Stims/Figures/111-C-30-3.bmp\",\"ta:kata\",\"Left\",\"37\",\"4\",\"18\",\"2\",\"P\",\"J\",\"90\"
\"\",\"\",\"approach-retreat\",\"239\",\"1812628\",\"0.0-239.0\",\"\",\"\",\"2-5\",\"4631\",\"37\",\"1\",\"Testing\",\"Stims/Figures/57-J-0-1.bmp\",\"nala:na\",\"Right\",\"37\",\"4\",\"19\",\"2\",\"S\",\"J\",\"91\"
\"\",\"\",\"approach-retreat\",\"240\",\"1818825\",\"0.0-240.0\",\"\",\"\",\"2-5\",\"4691\",\"39\",\"1\",\"Testing\",\"Stims/Figures/93-C-30-1.bmp\",\"ta:kata\",\"Right\",\"39\",\"4\",\"20\",\"2\",\"P\",\"J\",\"92\"
\"\",\"\",\"approach-retreat\",\"241\",\"1824714\",\"0.0-241.0\",\"\",\"\",\"2-5\",\"4382\",\"38\",\"1\",\"Testing\",\"Stims/Figures/144-C-30-3.bmp\",\"ta:kata\",\"Up\",\"38\",\"4\",\"21\",\"2\",\"P\",\"J\",\"93\"
\"\",\"\",\"approach-retreat\",\"242\",\"1831668\",\"0.0-242.0\",\"\",\"\",\"2-5\",\"5447\",\"37\",\"1\",\"Testing\",\"Stims/Figures/94-J-0-2.bmp\",\"nala:na\",\"Right\",\"37\",\"4\",\"22\",\"2\",\"S\",\"J\",\"94\"
\"\",\"\",\"approach-retreat\",\"243\",\"1837643\",\"0.0-243.0\",\"\",\"\",\"2-5\",\"4469\",\"37\",\"1\",\"Testing\",\"Stims/Figures/118-C-20-2.bmp\",\"ta:kata\",\"Left\",\"37\",\"4\",\"23\",\"2\",\"P\",\"J\",\"95\"
\"\",\"\",\"approach-retreat\",\"244\",\"1844475\",\"0.0-244.0\",\"\",\"\",\"2-5\",\"5325\",\"39\",\"1\",\"Testing\",\"Stims/Figures/144-J-10-3.bmp\",\"nala:na\",\"Left\",\"39\",\"4\",\"24\",\"2\",\"S\",\"J\",\"96\"
\"31110\",\"\",\"survey-text\",\"245\",\"1875591\",\"0.0-245.0\",\"\",\"{\"\"Q0\"\":\"\"1241/2017\"\"}\",\"\",\"\",\"\",\"\",\"\",\"\",\"\",\"\",\"\",\"\",\"\",\"\",\"\",\"\",\"\"
