"rt","key_press","trial_type","trial_index","time_elapsed","internal_node_id","view_history","responses","Id","Rt","ResKeyCode","ResCorr","TrialType2","Image","Label","Location","CorrectResponse","Block","BlockTrial","Condition","LabelType","Subcondition","trialNum"
"3793","32","text","0","3795","0.0-0.0-0.0","","","","","","","","","","","","","","","","",""
"32340","","instructions","1","36137","0.0-1.0","[{""page_index"":0,""viewing_time"":32339}]","","","","","","","","","","","","","","","",""
"140948","","survey-multi-choice","2","177144","0.0-2.0","","{""Q0"":""Da"",""Q1"":""Da"",""Q2"":""Da"",""Q3"":""Da"",""Q4"":""Da"",""Q5"":""Da""}","","","","","","","","","","","","","","",""
"","","bio","3","189340","0.0-3.0","","{""age"":""19"",""gender"":""f"",""specify"":""""}","","","","","","","","","","","","","","",""
"","","approach-retreat","4","205738","0.0-4.0","","","3-3","14666","38","1","Training","Stims/Figures/139-C-20-2.bmp","mama:na","Down","38","1","1","4","S","C","1"
"","","approach-retreat","5","213966","0.0-5.0","","","3-3","6724","40","0","Training","Stims/Figures/74-J-10-4.bmp","papa:ta","Up","38","1","2","4","P","C","2"
"","","approach-retreat","6","221604","0.0-6.0","","","3-3","6135","40","1","Training","Stims/Figures/86-C-30-1.bmp","ma:ma:la","Up","40","1","3","4","S","C","3"
"","","approach-retreat","7","227964","0.0-7.0","","","3-3","4856","39","1","Training","Stims/Figures/85-C-20-2.bmp","ma:lala","Left","39","1","4","4","S","C","4"
"","","approach-retreat","8","236895","0.0-8.0","","","3-3","7428","39","1","Training","Stims/Figures/7-C-20-4.bmp","nala:la","Left","39","1","5","4","S","C","5"
"","","approach-retreat","9","243985","0.0-9.0","","","3-3","5587","37","1","Training","Stims/Figures/100-C-30-3.bmp","na:mana","Right","37","1","6","4","S","C","6"
"","","approach-retreat","10","250335","0.0-10.0","","","3-3","4847","39","1","Training","Stims/Figures/144-J-10-3.bmp","papa:ka","Right","39","1","7","4","P","C","7"
"","","approach-retreat","11","256389","0.0-11.0","","","3-3","4549","37","1","Training","Stims/Figures/7-J-10-4.bmp","paka:ka","Left","37","1","8","4","P","C","8"
"","","approach-retreat","12","262079","0.0-12.0","","","3-3","4186","39","1","Training","Stims/Figures/100-J-10-3.bmp","pa:ka:ka","Right","39","1","9","4","P","C","9"
"","","approach-retreat","13","268051","0.0-13.0","","","3-3","4468","38","1","Training","Stims/Figures/57-C-30-1.bmp","ma:mala","Down","38","1","10","4","S","C","10"
"","","approach-retreat","14","277547","0.0-14.0","","","3-3","7995","38","1","Training","Stims/Figures/74-C-20-4.bmp","na:lana","Down","38","1","11","4","S","C","11"
"","","approach-retreat","15","283688","0.0-15.0","","","3-3","4636","40","1","Training","Stims/Figures/85-J-0-2.bmp","takaka","Down","40","1","12","4","P","C","12"
"","","approach-retreat","16","290316","0.0-16.0","","","3-3","5123","40","1","Training","Stims/Figures/144-C-30-3.bmp","malana","Up","40","1","13","4","S","C","13"
"","","approach-retreat","17","296844","0.0-17.0","","","3-3","5024","37","1","Training","Stims/Figures/139-J-0-2.bmp","ta:paka","Left","37","1","14","4","P","C","14"
"","","approach-retreat","18","302917","0.0-18.0","","","3-3","4568","38","1","Training","Stims/Figures/57-J-0-1.bmp","tapa:ta","Up","38","1","15","4","P","C","15"
"","","approach-retreat","19","308751","0.0-19.0","","","3-3","4331","39","1","Training","Stims/Figures/86-J-0-1.bmp","ta:ka:ka","Right","39","1","16","4","P","C","16"
"","","approach-retreat","20","314190","0.0-20.0","","","3-3","3933","40","1","Training","Stims/Figures/144-C-30-3.bmp","malana","Up","40","2","1","4","S","C","17"
"","","approach-retreat","21","320094","0.0-21.0","","","3-3","4400","37","0","Training","Stims/Figures/85-C-20-2.bmp","ma:lala","Left","39","2","2","4","S","C","18"
"","","approach-retreat","22","327401","0.0-22.0","","","3-3","5803","37","1","Training","Stims/Figures/57-C-30-1.bmp","ma:mala","Right","37","2","3","4","S","C","19"
"","","approach-retreat","23","334312","0.0-23.0","","","3-3","5407","38","1","Training","Stims/Figures/74-C-20-4.bmp","na:lana","Down","38","2","4","4","S","C","20"
"","","approach-retreat","24","340424","0.0-24.0","","","3-3","4607","37","1","Training","Stims/Figures/85-J-0-2.bmp","takaka","Left","37","2","5","4","P","C","21"
"","","approach-retreat","25","346641","0.0-25.0","","","3-3","4709","38","1","Training","Stims/Figures/139-C-20-2.bmp","mama:na","Down","38","2","6","4","S","C","22"
"","","approach-retreat","26","353312","0.0-26.0","","","3-3","5166","40","1","Training","Stims/Figures/74-J-10-4.bmp","papa:ta","Down","40","2","7","4","P","C","23"
"","","approach-retreat","27","359277","0.0-27.0","","","3-3","4460","37","1","Training","Stims/Figures/86-C-30-1.bmp","ma:ma:la","Right","37","2","8","4","S","C","24"
"","","approach-retreat","28","366123","0.0-28.0","","","3-3","5340","40","1","Training","Stims/Figures/139-J-0-2.bmp","ta:paka","Down","40","2","9","4","P","C","25"
"","","approach-retreat","29","372256","0.0-29.0","","","3-3","4623","39","1","Training","Stims/Figures/144-J-10-3.bmp","papa:ka","Right","39","2","10","4","P","C","26"
"","","approach-retreat","30","378887","0.0-30.0","","","3-3","5127","39","1","Training","Stims/Figures/7-J-10-4.bmp","paka:ka","Right","39","2","11","4","P","C","27"
"","","approach-retreat","31","384918","0.0-31.0","","","3-3","4524","37","1","Training","Stims/Figures/86-J-0-1.bmp","ta:ka:ka","Left","37","2","12","4","P","C","28"
"","","approach-retreat","32","391010","0.0-32.0","","","3-3","4589","39","1","Training","Stims/Figures/7-C-20-4.bmp","nala:la","Left","39","2","13","4","S","C","29"
"","","approach-retreat","33","397151","0.0-33.0","","","3-3","4636","38","1","Training","Stims/Figures/100-J-10-3.bmp","pa:ka:ka","Up","38","2","14","4","P","C","30"
"","","approach-retreat","34","403294","0.0-34.0","","","3-3","4639","40","1","Training","Stims/Figures/100-C-30-3.bmp","na:mana","Up","40","2","15","4","S","C","31"
"","","approach-retreat","35","410249","0.0-35.0","","","3-3","5450","38","1","Training","Stims/Figures/57-J-0-1.bmp","tapa:ta","Up","38","2","16","4","P","C","32"
"","","approach-retreat","36","416965","0.0-36.0","","","3-3","5213","40","1","Training","Stims/Figures/7-J-10-4.bmp","paka:ka","Down","40","3","1","4","P","C","33"
"","","approach-retreat","37","424222","0.0-37.0","","","3-3","5755","40","1","Training","Stims/Figures/85-C-20-2.bmp","ma:lala","Up","40","3","2","4","S","C","34"
"","","approach-retreat","38","432508","0.0-38.0","","","3-3","6782","39","1","Training","Stims/Figures/139-J-0-2.bmp","ta:paka","Right","39","3","3","4","P","C","35"
"","","approach-retreat","39","438329","0.0-39.0","","","3-3","4318","39","1","Training","Stims/Figures/144-J-10-3.bmp","papa:ka","Right","39","3","4","4","P","C","36"
"","","approach-retreat","40","445260","0.0-40.0","","","3-3","5426","38","1","Training","Stims/Figures/100-C-30-3.bmp","na:mana","Down","38","3","5","4","S","C","37"
"","","approach-retreat","41","451584","0.0-41.0","","","3-3","4821","38","1","Training","Stims/Figures/100-J-10-3.bmp","pa:ka:ka","Up","38","3","6","4","P","C","38"
"","","approach-retreat","42","458301","0.0-42.0","","","3-3","5213","40","1","Training","Stims/Figures/85-J-0-2.bmp","takaka","Down","40","3","7","4","P","C","39"
"","","approach-retreat","43","464324","0.0-43.0","","","3-3","4519","39","1","Training","Stims/Figures/74-C-20-4.bmp","na:lana","Left","39","3","8","4","S","C","40"
"","","approach-retreat","44","470333","0.0-44.0","","","3-3","4505","39","1","Training","Stims/Figures/57-J-0-1.bmp","tapa:ta","Right","39","3","9","4","P","C","41"
"","","approach-retreat","45","476229","0.0-45.0","","","3-3","4391","39","1","Training","Stims/Figures/57-C-30-1.bmp","ma:mala","Left","39","3","10","4","S","C","42"
"","","approach-retreat","46","482044","0.0-46.0","","","3-3","4311","38","0","Training","Stims/Figures/139-C-20-2.bmp","mama:na","Up","40","3","11","4","S","C","43"
"","","approach-retreat","47","488939","0.0-47.0","","","3-3","5391","39","1","Training","Stims/Figures/144-C-30-3.bmp","malana","Left","39","3","12","4","S","C","44"
"","","approach-retreat","48","495186","0.0-48.0","","","3-3","4742","37","1","Training","Stims/Figures/7-C-20-4.bmp","nala:la","Right","37","3","13","4","S","C","45"
"","","approach-retreat","49","501929","0.0-49.0","","","3-3","5238","40","1","Training","Stims/Figures/86-J-0-1.bmp","ta:ka:ka","Down","40","3","14","4","P","C","46"
"","","approach-retreat","50","507781","0.0-50.0","","","3-3","4348","39","1","Training","Stims/Figures/86-C-30-1.bmp","ma:ma:la","Left","39","3","15","4","S","C","47"
"","","approach-retreat","51","513929","0.0-51.0","","","3-3","4645","38","1","Training","Stims/Figures/74-J-10-4.bmp","papa:ta","Up","38","3","16","4","P","C","48"
"","","approach-retreat","52","519951","0.0-52.0","","","3-3","4515","37","1","Training","Stims/Figures/86-C-30-1.bmp","ma:ma:la","Right","37","4","1","4","S","C","49"
"","","approach-retreat","53","525933","0.0-53.0","","","3-3","4478","37","1","Training","Stims/Figures/139-C-20-2.bmp","mama:na","Right","37","4","2","4","S","C","50"
"","","approach-retreat","54","531983","0.0-54.0","","","3-3","4544","39","1","Training","Stims/Figures/144-C-30-3.bmp","malana","Left","39","4","3","4","S","C","51"
"","","approach-retreat","55","538007","0.0-55.0","","","3-3","4522","38","1","Training","Stims/Figures/7-C-20-4.bmp","nala:la","Down","38","4","4","4","S","C","52"
"","","approach-retreat","56","544224","0.0-56.0","","","3-3","4713","37","1","Training","Stims/Figures/74-J-10-4.bmp","papa:ta","Left","37","4","5","4","P","C","53"
"","","approach-retreat","57","550191","0.0-57.0","","","3-3","4464","40","1","Training","Stims/Figures/57-C-30-1.bmp","ma:mala","Up","40","4","6","4","S","C","54"
"","","approach-retreat","58","556416","0.0-58.0","","","3-3","4719","40","1","Training","Stims/Figures/144-J-10-3.bmp","papa:ka","Down","40","4","7","4","P","C","55"
"","","approach-retreat","59","562383","0.0-59.0","","","3-3","4462","39","1","Training","Stims/Figures/85-J-0-2.bmp","takaka","Right","39","4","8","4","P","C","56"
"","","approach-retreat","60","568472","0.0-60.0","","","3-3","4585","38","1","Training","Stims/Figures/100-C-30-3.bmp","na:mana","Down","38","4","9","4","S","C","57"
"","","approach-retreat","61","574615","0.0-61.0","","","3-3","4641","39","1","Training","Stims/Figures/139-J-0-2.bmp","ta:paka","Right","39","4","10","4","P","C","58"
"","","approach-retreat","62","580567","0.0-62.0","","","3-3","4447","40","1","Training","Stims/Figures/85-C-20-2.bmp","ma:lala","Up","40","4","11","4","S","C","59"
"","","approach-retreat","63","586958","0.0-63.0","","","3-3","4887","37","1","Training","Stims/Figures/7-J-10-4.bmp","paka:ka","Left","37","4","12","4","P","C","60"
"","","approach-retreat","64","593407","0.0-64.0","","","3-3","4946","40","1","Training","Stims/Figures/74-C-20-4.bmp","na:lana","Up","40","4","13","4","S","C","61"
"","","approach-retreat","65","599515","0.0-65.0","","","3-3","4605","40","1","Training","Stims/Figures/57-J-0-1.bmp","tapa:ta","Down","40","4","14","4","P","C","62"
"","","approach-retreat","66","605883","0.0-66.0","","","3-3","4864","38","1","Training","Stims/Figures/86-J-0-1.bmp","ta:ka:ka","Up","38","4","15","4","P","C","63"
"","","approach-retreat","67","612204","0.0-67.0","","","3-3","4818","37","1","Training","Stims/Figures/100-J-10-3.bmp","pa:ka:ka","Left","37","4","16","4","P","C","64"
"","","approach-retreat","68","618684","0.0-68.0","","","3-3","4976","38","1","Training","Stims/Figures/139-C-20-2.bmp","mama:na","Down","38","5","1","4","S","C","65"
"","","approach-retreat","69","624687","0.0-69.0","","","3-3","4500","37","1","Training","Stims/Figures/85-C-20-2.bmp","ma:lala","Right","37","5","2","4","S","C","66"
"","","approach-retreat","70","631056","0.0-70.0","","","3-3","4865","38","1","Training","Stims/Figures/74-J-10-4.bmp","papa:ta","Up","38","5","3","4","P","C","67"
"","","approach-retreat","71","637904","0.0-71.0","","","3-3","5344","37","1","Training","Stims/Figures/144-C-30-3.bmp","malana","Right","37","5","4","4","S","C","68"
"","","approach-retreat","72","643907","0.0-72.0","","","3-3","4500","40","1","Training","Stims/Figures/74-C-20-4.bmp","na:lana","Up","40","5","5","4","S","C","69"
"","","approach-retreat","73","650031","0.0-73.0","","","3-3","4619","38","1","Training","Stims/Figures/7-C-20-4.bmp","nala:la","Down","38","5","6","4","S","C","70"
"","","approach-retreat","74","655859","0.0-74.0","","","3-3","4325","40","1","Training","Stims/Figures/85-J-0-2.bmp","takaka","Down","40","5","7","4","P","C","71"
"","","approach-retreat","75","661637","0.0-75.0","","","3-3","4275","39","1","Training","Stims/Figures/57-C-30-1.bmp","ma:mala","Left","39","5","8","4","S","C","72"
"","","approach-retreat","76","668462","0.0-76.0","","","3-3","5318","38","1","Training","Stims/Figures/57-J-0-1.bmp","tapa:ta","Up","38","5","9","4","P","C","73"
"","","approach-retreat","77","674932","0.0-77.0","","","3-3","4967","38","1","Training","Stims/Figures/7-J-10-4.bmp","paka:ka","Up","38","5","10","4","P","C","74"
"","","approach-retreat","78","680739","0.0-78.0","","","3-3","4301","39","1","Training","Stims/Figures/100-C-30-3.bmp","na:mana","Left","39","5","11","4","S","C","75"
"","","approach-retreat","79","686610","0.0-79.0","","","3-3","4369","37","1","Training","Stims/Figures/144-J-10-3.bmp","papa:ka","Left","37","5","12","4","P","C","76"
"","","approach-retreat","80","692865","0.0-80.0","","","3-3","4753","40","1","Training","Stims/Figures/139-J-0-2.bmp","ta:paka","Down","40","5","13","4","P","C","77"
"","","approach-retreat","81","698906","0.0-81.0","","","3-3","4538","37","1","Training","Stims/Figures/86-C-30-1.bmp","ma:ma:la","Right","37","5","14","4","S","C","78"
"","","approach-retreat","82","704554","0.0-82.0","","","3-3","4144","39","1","Training","Stims/Figures/100-J-10-3.bmp","pa:ka:ka","Right","39","5","15","4","P","C","79"
"","","approach-retreat","83","710577","0.0-83.0","","","3-3","4520","37","1","Training","Stims/Figures/86-J-0-1.bmp","ta:ka:ka","Left","37","5","16","4","P","C","80"
"","","approach-retreat","84","717122","0.0-84.0","","","3-3","5042","37","1","Training","Stims/Figures/85-C-20-2.bmp","ma:lala","Right","37","6","1","4","S","C","81"
"","","approach-retreat","85","723305","0.0-85.0","","","3-3","4680","39","1","Training","Stims/Figures/7-J-10-4.bmp","paka:ka","Right","39","6","2","4","P","C","82"
"","","approach-retreat","86","729630","0.0-86.0","","","3-3","4819","37","1","Training","Stims/Figures/57-C-30-1.bmp","ma:mala","Right","37","6","3","4","S","C","83"
"","","approach-retreat","87","736310","0.0-87.0","","","3-3","5177","38","1","Training","Stims/Figures/139-C-20-2.bmp","mama:na","Down","38","6","4","4","S","C","84"
"","","approach-retreat","88","742382","0.0-88.0","","","3-3","4569","37","1","Training","Stims/Figures/74-J-10-4.bmp","papa:ta","Left","37","6","5","4","P","C","85"
"","","approach-retreat","89","748336","0.0-89.0","","","3-3","4449","40","1","Training","Stims/Figures/144-C-30-3.bmp","malana","Up","40","6","6","4","S","C","86"
"","","approach-retreat","90","754388","0.0-90.0","","","3-3","4545","38","1","Training","Stims/Figures/86-J-0-1.bmp","ta:ka:ka","Up","38","6","7","4","P","C","87"
"","","approach-retreat","91","761333","0.0-91.0","","","3-3","5439","37","1","Training","Stims/Figures/57-J-0-1.bmp","tapa:ta","Left","37","6","8","4","P","C","88"
"","","approach-retreat","92","771516","0.0-92.0","","","3-3","8681","38","1","Training","Stims/Figures/7-C-20-4.bmp","nala:la","Down","38","6","9","4","S","C","89"
"","","approach-retreat","93","777759","0.0-93.0","","","3-3","4738","38","1","Training","Stims/Figures/100-J-10-3.bmp","pa:ka:ka","Up","38","6","10","4","P","C","90"
"","","approach-retreat","94","783793","0.0-94.0","","","3-3","4528","37","1","Training","Stims/Figures/139-J-0-2.bmp","ta:paka","Left","37","6","11","4","P","C","91"
"","","approach-retreat","95","789885","0.0-95.0","","","3-3","4589","40","1","Training","Stims/Figures/85-J-0-2.bmp","takaka","Down","40","6","12","4","P","C","92"
"","","approach-retreat","96","796172","0.0-96.0","","","3-3","4779","37","1","Training","Stims/Figures/100-C-30-3.bmp","na:mana","Right","37","6","13","4","S","C","93"
"","","approach-retreat","97","802729","0.0-97.0","","","3-3","5052","37","1","Training","Stims/Figures/144-J-10-3.bmp","papa:ka","Left","37","6","14","4","P","C","94"
"","","approach-retreat","98","810254","0.0-98.0","","","3-3","6023","40","1","Training","Stims/Figures/74-C-20-4.bmp","na:lana","Up","40","6","15","4","S","C","95"
"","","approach-retreat","99","817265","0.0-99.0","","","3-3","5507","38","1","Training","Stims/Figures/86-C-30-1.bmp","ma:ma:la","Down","38","6","16","4","S","C","96"
"","","approach-retreat","100","827453","0.0-100.0","","","3-3","8682","38","1","Training","Stims/Figures/85-J-0-2.bmp","takaka","Up","38","7","1","4","P","C","97"
"","","approach-retreat","101","836825","0.0-101.0","","","3-3","7866","39","1","Training","Stims/Figures/100-C-30-3.bmp","na:mana","Left","39","7","2","4","S","C","98"
"","","approach-retreat","102","842923","0.0-102.0","","","3-3","4591","38","1","Training","Stims/Figures/7-C-20-4.bmp","nala:la","Down","38","7","3","4","S","C","99"
"","","approach-retreat","103","848703","0.0-103.0","","","3-3","4277","37","1","Training","Stims/Figures/85-C-20-2.bmp","ma:lala","Right","37","7","4","4","S","C","100"
"","","approach-retreat","104","854708","0.0-104.0","","","3-3","4499","38","1","Training","Stims/Figures/86-C-30-1.bmp","ma:ma:la","Down","38","7","5","4","S","C","101"
"","","approach-retreat","105","860593","0.0-105.0","","","3-3","4379","39","1","Training","Stims/Figures/74-C-20-4.bmp","na:lana","Left","39","7","6","4","S","C","102"
"","","approach-retreat","106","866889","0.0-106.0","","","3-3","4793","37","1","Training","Stims/Figures/100-J-10-3.bmp","pa:ka:ka","Left","37","7","7","4","P","C","103"
"","","approach-retreat","107","872754","0.0-107.0","","","3-3","4362","39","1","Training","Stims/Figures/74-J-10-4.bmp","papa:ta","Right","39","7","8","4","P","C","104"
"","","approach-retreat","108","879383","0.0-108.0","","","3-3","5122","38","1","Training","Stims/Figures/144-C-30-3.bmp","malana","Down","38","7","9","4","S","C","105"
"","","approach-retreat","109","886705","0.0-109.0","","","3-3","5817","38","1","Training","Stims/Figures/57-J-0-1.bmp","tapa:ta","Up","38","7","10","4","P","C","106"
"","","approach-retreat","110","892794","0.0-110.0","","","3-3","4586","40","1","Training","Stims/Figures/57-C-30-1.bmp","ma:mala","Up","40","7","11","4","S","C","107"
"","","approach-retreat","111","898913","0.0-111.0","","","3-3","4615","39","1","Training","Stims/Figures/139-C-20-2.bmp","mama:na","Left","39","7","12","4","S","C","108"
"","","approach-retreat","112","904914","0.0-112.0","","","3-3","4497","40","1","Training","Stims/Figures/86-J-0-1.bmp","ta:ka:ka","Down","40","7","13","4","P","C","109"
"","","approach-retreat","113","911313","0.0-113.0","","","3-3","4898","38","1","Training","Stims/Figures/7-J-10-4.bmp","paka:ka","Up","38","7","14","4","P","C","110"
"","","approach-retreat","114","916999","0.0-114.0","","","3-3","4180","39","1","Training","Stims/Figures/139-J-0-2.bmp","ta:paka","Right","39","7","15","4","P","C","111"
"","","approach-retreat","115","922554","0.0-115.0","","","3-3","4049","39","1","Training","Stims/Figures/144-J-10-3.bmp","papa:ka","Right","39","7","16","4","P","C","112"
"","","approach-retreat","116","928259","0.0-116.0","","","3-3","4203","38","1","Training","Stims/Figures/74-J-10-4.bmp","papa:ta","Up","38","8","1","4","P","C","113"
"","","approach-retreat","117","933923","0.0-117.0","","","3-3","4158","38","1","Training","Stims/Figures/7-J-10-4.bmp","paka:ka","Up","38","8","2","4","P","C","114"
"","","approach-retreat","118","940174","0.0-118.0","","","3-3","4746","38","1","Training","Stims/Figures/85-C-20-2.bmp","ma:lala","Down","38","8","3","4","S","C","115"
"","","approach-retreat","119","947174","0.0-119.0","","","3-3","5495","37","1","Training","Stims/Figures/57-J-0-1.bmp","tapa:ta","Left","37","8","4","4","P","C","116"
"","","approach-retreat","120","954284","0.0-120.0","","","3-3","5605","37","1","Training","Stims/Figures/74-C-20-4.bmp","na:lana","Right","37","8","5","4","S","C","117"
"","","approach-retreat","121","960850","0.0-121.0","","","3-3","5058","38","1","Training","Stims/Figures/85-J-0-2.bmp","takaka","Up","38","8","6","4","P","C","118"
"","","approach-retreat","122","966713","0.0-122.0","","","3-3","4358","37","1","Training","Stims/Figures/57-C-30-1.bmp","ma:mala","Right","37","8","7","4","S","C","119"
"","","approach-retreat","123","972511","0.0-123.0","","","3-3","4294","37","1","Training","Stims/Figures/144-C-30-3.bmp","malana","Right","37","8","8","4","S","C","120"
"","","approach-retreat","124","978419","0.0-124.0","","","3-3","4404","37","1","Training","Stims/Figures/7-C-20-4.bmp","nala:la","Right","37","8","9","4","S","C","121"
"","","approach-retreat","125","984982","0.0-125.0","","","3-3","5056","39","1","Training","Stims/Figures/100-C-30-3.bmp","na:mana","Left","39","8","10","4","S","C","122"
"","","approach-retreat","126","990886","0.0-126.0","","","3-3","4400","37","1","Training","Stims/Figures/139-J-0-2.bmp","ta:paka","Left","37","8","11","4","P","C","123"
"","","approach-retreat","127","997334","0.0-127.0","","","3-3","4945","40","1","Training","Stims/Figures/144-J-10-3.bmp","papa:ka","Down","40","8","12","4","P","C","124"
"","","approach-retreat","128","1003295","0.0-128.0","","","3-3","4455","38","1","Training","Stims/Figures/86-C-30-1.bmp","ma:ma:la","Down","38","8","13","4","S","C","125"
"","","approach-retreat","129","1010257","0.0-129.0","","","3-3","5459","40","1","Training","Stims/Figures/86-J-0-1.bmp","ta:ka:ka","Down","40","8","14","4","P","C","126"
"","","approach-retreat","130","1016074","0.0-130.0","","","3-3","4315","39","1","Training","Stims/Figures/139-C-20-2.bmp","mama:na","Left","39","8","15","4","S","C","127"
"","","approach-retreat","131","1022211","0.0-131.0","","","3-3","4636","38","1","Training","Stims/Figures/100-J-10-3.bmp","pa:ka:ka","Up","38","8","16","4","P","C","128"
"","","approach-retreat","132","1027996","0.0-132.0","","","3-3","4281","40","1","Training","Stims/Figures/86-J-0-1.bmp","ta:ka:ka","Down","40","9","1","4","P","C","129"
"","","approach-retreat","133","1033657","0.0-133.0","","","3-3","4154","37","1","Training","Stims/Figures/139-J-0-2.bmp","ta:paka","Left","37","9","2","4","P","C","130"
"","","approach-retreat","134","1039384","0.0-134.0","","","3-3","4226","39","1","Training","Stims/Figures/57-J-0-1.bmp","tapa:ta","Right","39","9","3","4","P","C","131"
"","","approach-retreat","135","1045824","0.0-135.0","","","3-3","4936","39","1","Training","Stims/Figures/74-C-20-4.bmp","na:lana","Left","39","9","4","4","S","C","132"
"","","approach-retreat","136","1052327","0.0-136.0","","","3-3","4998","38","1","Training","Stims/Figures/85-J-0-2.bmp","takaka","Up","38","9","5","4","P","C","133"
"","","approach-retreat","137","1059286","0.0-137.0","","","3-3","5456","38","1","Training","Stims/Figures/7-C-20-4.bmp","nala:la","Down","38","9","6","4","S","C","134"
"","","approach-retreat","138","1068646","0.0-138.0","","","3-3","7857","38","1","Training","Stims/Figures/57-C-30-1.bmp","ma:mala","Down","38","9","7","4","S","C","135"
"","","approach-retreat","139","1079135","0.0-139.0","","","3-3","8983","40","1","Training","Stims/Figures/144-C-30-3.bmp","malana","Up","40","9","8","4","S","C","136"
"","","approach-retreat","140","1086032","0.0-140.0","","","3-3","5391","37","1","Training","Stims/Figures/100-C-30-3.bmp","na:mana","Right","37","9","9","4","S","C","137"
"","","approach-retreat","141","1091648","0.0-141.0","","","3-3","4113","39","1","Training","Stims/Figures/7-J-10-4.bmp","paka:ka","Right","39","9","10","4","P","C","138"
"","","approach-retreat","142","1098001","0.0-142.0","","","3-3","4850","37","1","Training","Stims/Figures/74-J-10-4.bmp","papa:ta","Left","37","9","11","4","P","C","139"
"","","approach-retreat","143","1103908","0.0-143.0","","","3-3","4404","37","1","Training","Stims/Figures/139-C-20-2.bmp","mama:na","Right","37","9","12","4","S","C","140"
"","","approach-retreat","144","1111172","0.0-144.0","","","3-3","5757","40","1","Training","Stims/Figures/144-J-10-3.bmp","papa:ka","Down","40","9","13","4","P","C","141"
"","","approach-retreat","145","1117194","0.0-145.0","","","3-3","4518","39","1","Training","Stims/Figures/86-C-30-1.bmp","ma:ma:la","Left","39","9","14","4","S","C","142"
"","","approach-retreat","146","1126583","0.0-146.0","","","3-3","7886","40","1","Training","Stims/Figures/85-C-20-2.bmp","ma:lala","Up","40","9","15","4","S","C","143"
"","","approach-retreat","147","1132438","0.0-147.0","","","3-3","4351","38","1","Training","Stims/Figures/100-J-10-3.bmp","pa:ka:ka","Up","38","9","16","4","P","C","144"
"24365","","instructions","148","1156803","0.0-148.0","[{""page_index"":0,""viewing_time"":24365}]","","","","","","","","","","","","","","","",""
"","","approach-retreat","149","1164396","0.0-149.0","","","3-3","6087","40","1","Testing","Stims/Figures/57-C-30-1.bmp","ma:mala","Up","40","1","1","4","S","C","1"
"","","approach-retreat","150","1170690","0.0-150.0","","","3-3","4788","37","1","Testing","Stims/Figures/57-J-0-1.bmp","tapa:ta","Left","37","1","2","4","P","C","2"
"","","approach-retreat","151","1176916","0.0-151.0","","","3-3","4720","38","1","Testing","Stims/Figures/74-C-20-4.bmp","na:lana","Down","38","1","3","4","S","C","3"
"","","approach-retreat","152","1183342","0.0-152.0","","","3-3","4923","40","1","Testing","Stims/Figures/84-J-0-2.bmp","pa:pata","Down","40","1","4","4","P","C","4"
"","","approach-retreat","153","1191524","0.0-153.0","","","3-3","6680","39","1","Testing","Stims/Figures/111-J-10-3.bmp","papata","Right","39","1","5","4","P","C","5"
"","","approach-retreat","154","1197910","0.0-154.0","","","3-3","4884","38","1","Testing","Stims/Figures/85-J-0-2.bmp","takaka","Up","38","1","6","4","P","C","6"
"","","approach-retreat","155","1203812","0.0-155.0","","","3-3","4398","40","1","Testing","Stims/Figures/85-C-20-2.bmp","ma:lala","Up","40","1","7","4","S","C","7"
"","","approach-retreat","156","1216021","0.0-156.0","","","3-3","10705","38","1","Testing","Stims/Figures/102-J-10-4.bmp","ta:kaka","Up","38","1","8","4","P","C","8"
"","","approach-retreat","157","1222939","0.0-157.0","","","3-3","5415","37","1","Testing","Stims/Figures/100-J-10-3.bmp","pa:ka:ka","Left","37","1","9","4","P","C","9"
"","","approach-retreat","158","1229475","0.0-158.0","","","3-3","5032","37","1","Testing","Stims/Figures/7-C-20-4.bmp","nala:la","Right","37","1","10","4","S","C","10"
"","","approach-retreat","159","1235862","0.0-159.0","","","3-3","4883","38","1","Testing","Stims/Figures/102-C-20-4.bmp","mala:na","Down","38","1","11","4","S","C","11"
"","","approach-retreat","160","1244239","0.0-160.0","","","3-3","6874","38","1","Testing","Stims/Figures/86-J-0-1.bmp","ta:ka:ka","Up","38","1","12","4","P","C","12"
"","","approach-retreat","161","1250273","0.0-161.0","","","3-3","4529","38","1","Testing","Stims/Figures/71-C-30-1.bmp","namana","Down","38","1","13","4","S","C","13"
"","","approach-retreat","162","1256094","0.0-162.0","","","3-3","4319","39","1","Testing","Stims/Figures/111-C-30-3.bmp","nalala","Left","39","1","14","4","S","C","14"
"","","approach-retreat","163","1262143","0.0-163.0","","","3-3","4544","40","1","Testing","Stims/Figures/139-J-0-2.bmp","ta:paka","Down","40","1","15","4","P","C","15"
"","","approach-retreat","164","1268469","0.0-164.0","","","3-3","4824","37","1","Testing","Stims/Figures/144-J-10-3.bmp","papa:ka","Left","37","1","16","4","P","C","16"
"","","approach-retreat","165","1274555","0.0-165.0","","","3-3","4583","39","1","Testing","Stims/Figures/86-C-30-1.bmp","ma:ma:la","Left","39","1","17","4","S","C","17"
"","","approach-retreat","166","1281338","0.0-166.0","","","3-3","5280","40","1","Testing","Stims/Figures/139-C-20-2.bmp","mama:na","Up","40","1","18","4","S","C","18"
"","","approach-retreat","167","1287215","0.0-167.0","","","3-3","4367","39","1","Testing","Stims/Figures/71-J-0-1.bmp","pakata","Right","39","1","19","4","P","C","19"
"","","approach-retreat","168","1293069","0.0-168.0","","","3-3","4351","37","1","Testing","Stims/Figures/84-C-20-2.bmp","nama:na","Right","37","1","20","4","S","C","20"
"","","approach-retreat","169","1299880","0.0-169.0","","","3-3","5305","38","1","Testing","Stims/Figures/100-C-30-3.bmp","na:mana","Down","38","1","21","4","S","C","21"
"","","approach-retreat","170","1306793","0.0-170.0","","","3-3","5408","39","1","Testing","Stims/Figures/7-J-10-4.bmp","paka:ka","Right","39","1","22","4","P","C","22"
"","","approach-retreat","171","1314656","0.0-171.0","","","3-3","6358","39","1","Testing","Stims/Figures/144-C-30-3.bmp","malana","Left","39","1","23","4","S","C","23"
"","","approach-retreat","172","1321050","0.0-172.0","","","3-3","4890","39","1","Testing","Stims/Figures/74-J-10-4.bmp","papa:ta","Right","39","1","24","4","P","C","24"
"","","approach-retreat","173","1327106","0.0-173.0","","","3-3","4553","40","1","Testing","Stims/Figures/100-J-10-3.bmp","pa:ka:ka","Down","40","2","1","4","P","C","25"
"","","approach-retreat","174","1333058","0.0-174.0","","","3-3","4448","40","1","Testing","Stims/Figures/84-J-0-2.bmp","pa:pata","Down","40","2","2","4","P","C","26"
"","","approach-retreat","175","1339590","0.0-175.0","","","3-3","5029","39","1","Testing","Stims/Figures/71-J-0-1.bmp","pakata","Right","39","2","3","4","P","C","27"
"","","approach-retreat","176","1345642","0.0-176.0","","","3-3","4547","40","1","Testing","Stims/Figures/57-J-0-1.bmp","tapa:ta","Down","40","2","4","4","P","C","28"
"","","approach-retreat","177","1351388","0.0-177.0","","","3-3","4243","37","1","Testing","Stims/Figures/7-C-20-4.bmp","nala:la","Right","37","2","5","4","S","C","29"
"","","approach-retreat","178","1357283","0.0-178.0","","","3-3","4392","40","1","Testing","Stims/Figures/84-C-20-2.bmp","nama:na","Up","40","2","6","4","S","C","30"
"","","approach-retreat","179","1363338","0.0-179.0","","","3-3","4551","39","1","Testing","Stims/Figures/139-C-20-2.bmp","mama:na","Left","39","2","7","4","S","C","31"
"","","approach-retreat","180","1371430","0.0-180.0","","","3-3","6589","38","1","Testing","Stims/Figures/144-J-10-3.bmp","papa:ka","Up","38","2","8","4","P","C","32"
"","","approach-retreat","181","1377373","0.0-181.0","","","3-3","4437","37","1","Testing","Stims/Figures/57-C-30-1.bmp","ma:mala","Right","37","2","9","4","S","C","33"
"","","approach-retreat","182","1383439","0.0-182.0","","","3-3","4562","39","1","Testing","Stims/Figures/7-J-10-4.bmp","paka:ka","Right","39","2","10","4","P","C","34"
"","","approach-retreat","183","1395743","0.0-183.0","","","3-3","10802","37","1","Testing","Stims/Figures/111-J-10-3.bmp","papata","Left","37","2","11","4","P","C","35"
"","","approach-retreat","184","1403852","0.0-184.0","","","3-3","6606","37","1","Testing","Stims/Figures/71-C-30-1.bmp","namana","Right","37","2","12","4","S","C","36"
"","","approach-retreat","185","1409656","0.0-185.0","","","3-3","4301","39","1","Testing","Stims/Figures/74-J-10-4.bmp","papa:ta","Right","39","2","13","4","P","C","37"
"","","approach-retreat","186","1415910","0.0-186.0","","","3-3","4751","40","1","Testing","Stims/Figures/85-J-0-2.bmp","takaka","Down","40","2","14","4","P","C","38"
"","","approach-retreat","187","1421783","0.0-187.0","","","3-3","4368","40","1","Testing","Stims/Figures/85-C-20-2.bmp","ma:lala","Up","40","2","15","4","S","C","39"
"","","approach-retreat","188","1427621","0.0-188.0","","","3-3","4335","38","1","Testing","Stims/Figures/111-C-30-3.bmp","nalala","Down","38","2","16","4","S","C","40"
"","","approach-retreat","189","1434082","0.0-189.0","","","3-3","4955","40","1","Testing","Stims/Figures/86-J-0-1.bmp","ta:ka:ka","Down","40","2","17","4","P","C","41"
"","","approach-retreat","190","1440295","0.0-190.0","","","3-3","4709","39","1","Testing","Stims/Figures/86-C-30-1.bmp","ma:ma:la","Left","39","2","18","4","S","C","42"
"","","approach-retreat","191","1446277","0.0-191.0","","","3-3","4477","40","1","Testing","Stims/Figures/100-C-30-3.bmp","na:mana","Up","40","2","19","4","S","C","43"
"","","approach-retreat","192","1452841","0.0-192.0","","","3-3","5060","39","1","Testing","Stims/Figures/74-C-20-4.bmp","na:lana","Left","39","2","20","4","S","C","44"
"","","approach-retreat","193","1458715","0.0-193.0","","","3-3","4370","40","1","Testing","Stims/Figures/144-C-30-3.bmp","malana","Up","40","2","21","4","S","C","45"
"","","approach-retreat","194","1464903","0.0-194.0","","","3-3","4684","37","1","Testing","Stims/Figures/139-J-0-2.bmp","ta:paka","Left","37","2","22","4","P","C","46"
"","","approach-retreat","195","1470901","0.0-195.0","","","3-3","4494","37","1","Testing","Stims/Figures/102-J-10-4.bmp","ta:kaka","Left","37","2","23","4","P","C","47"
"","","approach-retreat","196","1476777","0.0-196.0","","","3-3","4372","40","1","Testing","Stims/Figures/102-C-20-4.bmp","mala:na","Up","40","2","24","4","S","C","48"
"","","approach-retreat","197","1494067","0.0-197.0","","","3-3","15787","40","1","Testing","Stims/Figures/111-J-10-3.bmp","papata","Down","40","3","1","4","P","C","49"
"","","approach-retreat","198","1500955","0.0-198.0","","","3-3","5384","40","1","Testing","Stims/Figures/74-J-10-4.bmp","papa:ta","Down","40","3","2","4","P","C","50"
"","","approach-retreat","199","1506955","0.0-199.0","","","3-3","4497","37","1","Testing","Stims/Figures/144-C-30-3.bmp","malana","Right","37","3","3","4","S","C","51"
"","","approach-retreat","200","1512955","0.0-200.0","","","3-3","4496","38","1","Testing","Stims/Figures/57-J-0-1.bmp","tapa:ta","Up","38","3","4","4","P","C","52"
"","","approach-retreat","201","1521451","0.0-201.0","","","3-3","6994","39","1","Testing","Stims/Figures/7-J-10-4.bmp","paka:ka","Right","39","3","5","4","P","C","53"
"","","approach-retreat","202","1534356","0.0-202.0","","","3-3","11400","40","1","Testing","Stims/Figures/85-C-20-2.bmp","ma:lala","Up","40","3","6","4","S","C","54"
"","","approach-retreat","203","1541127","0.0-203.0","","","3-3","5267","40","1","Testing","Stims/Figures/100-C-30-3.bmp","na:mana","Up","40","3","7","4","S","C","55"
"","","approach-retreat","204","1548984","0.0-204.0","","","3-3","6354","40","1","Testing","Stims/Figures/86-J-0-1.bmp","ta:ka:ka","Down","40","3","8","4","P","C","56"
"","","approach-retreat","205","1554788","0.0-205.0","","","3-3","4299","38","1","Testing","Stims/Figures/84-C-20-2.bmp","nama:na","Down","38","3","9","4","S","C","57"
"","","approach-retreat","206","1560768","0.0-206.0","","","3-3","4476","39","1","Testing","Stims/Figures/86-C-30-1.bmp","ma:ma:la","Left","39","3","10","4","S","C","58"
"","","approach-retreat","207","1568930","0.0-207.0","","","3-3","6659","38","1","Testing","Stims/Figures/71-C-30-1.bmp","namana","Down","38","3","11","4","S","C","59"
"","","approach-retreat","208","1574615","0.0-208.0","","","3-3","4181","39","1","Testing","Stims/Figures/74-C-20-4.bmp","na:lana","Left","39","3","12","4","S","C","60"
"","","approach-retreat","209","1580583","0.0-209.0","","","3-3","4465","40","1","Testing","Stims/Figures/139-C-20-2.bmp","mama:na","Up","40","3","13","4","S","C","61"
"","","approach-retreat","210","1587427","0.0-210.0","","","3-3","5340","39","1","Testing","Stims/Figures/57-C-30-1.bmp","ma:mala","Left","39","3","14","4","S","C","62"
"","","approach-retreat","211","1593279","0.0-211.0","","","3-3","4349","39","1","Testing","Stims/Figures/102-J-10-4.bmp","ta:kaka","Right","39","3","15","4","P","C","63"
"","","approach-retreat","212","1602564","0.0-212.0","","","3-3","7779","38","1","Testing","Stims/Figures/102-C-20-4.bmp","mala:na","Down","38","3","16","4","S","C","64"
"","","approach-retreat","213","1608660","0.0-213.0","","","3-3","4592","37","1","Testing","Stims/Figures/85-J-0-2.bmp","takaka","Left","37","3","17","4","P","C","65"
"","","approach-retreat","214","1615735","0.0-214.0","","","3-3","5571","39","1","Testing","Stims/Figures/71-J-0-1.bmp","pakata","Right","39","3","18","4","P","C","66"
"","","approach-retreat","215","1621680","0.0-215.0","","","3-3","4439","38","1","Testing","Stims/Figures/139-J-0-2.bmp","ta:paka","Up","38","3","19","4","P","C","67"
"","","approach-retreat","216","1627383","0.0-216.0","","","3-3","4200","37","1","Testing","Stims/Figures/7-C-20-4.bmp","nala:la","Right","37","3","20","4","S","C","68"
"","","approach-retreat","217","1633697","0.0-217.0","","","3-3","4810","39","1","Testing","Stims/Figures/111-C-30-3.bmp","nalala","Left","39","3","21","4","S","C","69"
"","","approach-retreat","218","1639684","0.0-218.0","","","3-3","4480","37","1","Testing","Stims/Figures/84-J-0-2.bmp","pa:pata","Left","37","3","22","4","P","C","70"
"","","approach-retreat","219","1646731","0.0-219.0","","","3-3","5546","39","1","Testing","Stims/Figures/100-J-10-3.bmp","pa:ka:ka","Right","39","3","23","4","P","C","71"
"","","approach-retreat","220","1653741","0.0-220.0","","","3-3","5505","38","1","Testing","Stims/Figures/144-J-10-3.bmp","papa:ka","Up","38","3","24","4","P","C","72"
"","","approach-retreat","221","1660928","0.0-221.0","","","3-3","5682","37","1","Testing","Stims/Figures/102-J-10-4.bmp","ta:kaka","Left","37","4","1","4","P","C","73"
"","","approach-retreat","222","1666567","0.0-222.0","","","3-3","4135","37","1","Testing","Stims/Figures/86-J-0-1.bmp","ta:ka:ka","Left","37","4","2","4","P","C","74"
"","","approach-retreat","223","1673826","0.0-223.0","","","3-3","5753","38","1","Testing","Stims/Figures/84-C-20-2.bmp","nama:na","Down","38","4","3","4","S","C","75"
"","","approach-retreat","224","1680017","0.0-224.0","","","3-3","4689","37","1","Testing","Stims/Figures/100-C-30-3.bmp","na:mana","Right","37","4","4","4","S","C","76"
"","","approach-retreat","225","1687833","0.0-225.0","","","3-3","6315","40","1","Testing","Stims/Figures/74-J-10-4.bmp","papa:ta","Down","40","4","5","4","P","C","77"
"","","approach-retreat","226","1694629","0.0-226.0","","","3-3","5293","40","1","Testing","Stims/Figures/144-J-10-3.bmp","papa:ka","Down","40","4","6","4","P","C","78"
"","","approach-retreat","227","1702152","0.0-227.0","","","3-3","6018","38","1","Testing","Stims/Figures/7-J-10-4.bmp","paka:ka","Up","38","4","7","4","P","C","79"
"","","approach-retreat","228","1708009","0.0-228.0","","","3-3","4353","37","1","Testing","Stims/Figures/111-J-10-3.bmp","papata","Left","37","4","8","4","P","C","80"
"","","approach-retreat","229","1715212","0.0-229.0","","","3-3","5700","37","1","Testing","Stims/Figures/102-C-20-4.bmp","mala:na","Right","37","4","9","4","S","C","81"
"","","approach-retreat","230","1721128","0.0-230.0","","","3-3","4411","39","1","Testing","Stims/Figures/74-C-20-4.bmp","na:lana","Left","39","4","10","4","S","C","82"
"","","approach-retreat","231","1726933","0.0-231.0","","","3-3","4301","39","1","Testing","Stims/Figures/71-J-0-1.bmp","pakata","Right","39","4","11","4","P","C","83"
"","","approach-retreat","232","1732606","0.0-232.0","","","3-3","4169","37","0","Testing","Stims/Figures/57-J-0-1.bmp","tapa:ta","Right","39","4","12","4","P","C","84"
"","","approach-retreat","233","1738500","0.0-233.0","","","3-3","4391","40","1","Testing","Stims/Figures/144-C-30-3.bmp","malana","Up","40","4","13","4","S","C","85"
"","","approach-retreat","234","1744734","0.0-234.0","","","3-3","4730","40","1","Testing","Stims/Figures/100-J-10-3.bmp","pa:ka:ka","Down","40","4","14","4","P","C","86"
"","","approach-retreat","235","1750664","0.0-235.0","","","3-3","4427","38","1","Testing","Stims/Figures/139-J-0-2.bmp","ta:paka","Up","38","4","15","4","P","C","87"
"","","approach-retreat","236","1757574","0.0-236.0","","","3-3","5405","38","1","Testing","Stims/Figures/86-C-30-1.bmp","ma:ma:la","Down","38","4","16","4","S","C","88"
"","","approach-retreat","237","1763736","0.0-237.0","","","3-3","4658","39","1","Testing","Stims/Figures/85-C-20-2.bmp","ma:lala","Left","39","4","17","4","S","C","89"
"","","approach-retreat","238","1771124","0.0-238.0","","","3-3","5885","37","1","Testing","Stims/Figures/71-C-30-1.bmp","namana","Right","37","4","18","4","S","C","90"
"","","approach-retreat","239","1776882","0.0-239.0","","","3-3","4255","39","1","Testing","Stims/Figures/57-C-30-1.bmp","ma:mala","Left","39","4","19","4","S","C","91"
"","","approach-retreat","240","1782821","0.0-240.0","","","3-3","4436","38","1","Testing","Stims/Figures/111-C-30-3.bmp","nalala","Down","38","4","20","4","S","C","92"
"","","approach-retreat","241","1788930","0.0-241.0","","","3-3","4606","40","1","Testing","Stims/Figures/7-C-20-4.bmp","nala:la","Up","40","4","21","4","S","C","93"
"","","approach-retreat","242","1794655","0.0-242.0","","","3-3","4219","40","1","Testing","Stims/Figures/139-C-20-2.bmp","mama:na","Up","40","4","22","4","S","C","94"
"","","approach-retreat","243","1800198","0.0-243.0","","","3-3","4041","39","1","Testing","Stims/Figures/85-J-0-2.bmp","takaka","Right","39","4","23","4","P","C","95"
"","","approach-retreat","244","1806394","0.0-244.0","","","3-3","4693","38","1","Testing","Stims/Figures/84-J-0-2.bmp","pa:pata","Up","38","4","24","4","P","C","96"
"103246","","survey-text","245","1909643","0.0-245.0","","{""Q0"":""0003/2018""}","","","","","","","","","","","","","","",""
