\"rt\",\"key_press\",\"trial_type\",\"trial_index\",\"time_elapsed\",\"internal_node_id\",\"view_history\",\"responses\",\"Id\",\"Rt\",\"ResKeyCode\",\"ResCorr\",\"TrialType2\",\"Image\",\"Label\",\"Location\",\"CorrectResponse\",\"Block\",\"BlockTrial\",\"Condition\",\"LabelType\",\"Subcondition\",\"trialNum\"
\"39500\",\"32\",\"text\",\"0\",\"39510\",\"0.0-0.0-0.0\",\"\",\"\",\"\",\"\",\"\",\"\",\"\",\"\",\"\",\"\",\"\",\"\",\"\",\"\",\"\",\"\",\"\"
\"135978\",\"\",\"instructions\",\"1\",\"175494\",\"0.0-1.0\",\"[{\"\"page_index\"\":0,\"\"viewing_time\"\":135974}]\",\"\",\"\",\"\",\"\",\"\",\"\",\"\",\"\",\"\",\"\",\"\",\"\",\"\",\"\",\"\",\"\"
\"31254\",\"\",\"survey-multi-choice\",\"2\",\"206808\",\"0.0-2.0\",\"\",\"{\"\"Q0\"\":\"\"Da\"\",\"\"Q1\"\":\"\"Da\"\",\"\"Q2\"\":\"\"Da\"\",\"\"Q3\"\":\"\"Da\"\",\"\"Q4\"\":\"\"Da\"\",\"\"Q5\"\":\"\"Da\"\"}\",\"\",\"\",\"\",\"\",\"\",\"\",\"\",\"\",\"\",\"\",\"\",\"\",\"\",\"\",\"\"
\"\",\"\",\"bio\",\"3\",\"213776\",\"0.0-3.0\",\"\",\"{\"\"age\"\":\"\"22\"\",\"\"gender\"\":\"\"f\"\",\"\"specify\"\":\"\"\"\"}\",\"\",\"\",\"\",\"\",\"\",\"\",\"\",\"\",\"\",\"\",\"\",\"\",\"\",\"\",\"\"
\"\",\"\",\"approach-retreat\",\"4\",\"228572\",\"0.0-4.0\",\"\",\"\",\"1-5\",\"13276\",\"38\",\"0\",\"Training\",\"Stims/Figures/19-J-10-4.bmp\",\"papa:ka\",\"Down\",\"40\",\"1\",\"1\",\"4\",\"P\",\"C\",\"1\"
\"\",\"\",\"approach-retreat\",\"5\",\"240530\",\"0.0-5.0\",\"\",\"\",\"1-5\",\"10442\",\"37\",\"0\",\"Training\",\"Stims/Figures/87-C-20-4.bmp\",\"namala\",\"Left\",\"39\",\"1\",\"2\",\"4\",\"S\",\"C\",\"2\"
\"\",\"\",\"approach-retreat\",\"6\",\"248992\",\"0.0-6.0\",\"\",\"\",\"1-5\",\"6948\",\"39\",\"1\",\"Training\",\"Stims/Figures/139-J-0-2.bmp\",\"pa:pa:ta\",\"Right\",\"39\",\"1\",\"3\",\"4\",\"P\",\"C\",\"3\"
\"\",\"\",\"approach-retreat\",\"7\",\"258092\",\"0.0-7.0\",\"\",\"\",\"1-5\",\"7594\",\"38\",\"0\",\"Training\",\"Stims/Figures/100-C-30-3.bmp\",\"ma:la:na\",\"Up\",\"40\",\"1\",\"4\",\"4\",\"S\",\"C\",\"4\"
\"\",\"\",\"approach-retreat\",\"8\",\"267806\",\"0.0-8.0\",\"\",\"\",\"1-5\",\"8210\",\"37\",\"1\",\"Training\",\"Stims/Figures/118-C-20-2.bmp\",\"na:lala\",\"Right\",\"37\",\"1\",\"5\",\"4\",\"S\",\"C\",\"5\"
\"\",\"\",\"approach-retreat\",\"9\",\"274944\",\"0.0-9.0\",\"\",\"\",\"1-5\",\"5632\",\"38\",\"0\",\"Training\",\"Stims/Figures/71-J-0-1.bmp\",\"pakaka\",\"Down\",\"40\",\"1\",\"6\",\"4\",\"P\",\"C\",\"6\"
\"\",\"\",\"approach-retreat\",\"10\",\"281004\",\"0.0-10.0\",\"\",\"\",\"1-5\",\"4546\",\"40\",\"1\",\"Training\",\"Stims/Figures/128-J-10-3.bmp\",\"pa:pa:ka\",\"Down\",\"40\",\"1\",\"7\",\"4\",\"P\",\"C\",\"7\"
\"\",\"\",\"approach-retreat\",\"11\",\"290110\",\"0.0-11.0\",\"\",\"\",\"1-5\",\"7594\",\"37\",\"1\",\"Training\",\"Stims/Figures/100-J-10-3.bmp\",\"pa:kaka\",\"Left\",\"37\",\"1\",\"8\",\"4\",\"P\",\"C\",\"8\"
\"\",\"\",\"approach-retreat\",\"12\",\"299268\",\"0.0-12.0\",\"\",\"\",\"1-5\",\"7648\",\"38\",\"0\",\"Training\",\"Stims/Figures/71-C-30-1.bmp\",\"na:mana\",\"Up\",\"40\",\"1\",\"9\",\"4\",\"S\",\"C\",\"9\"
\"\",\"\",\"approach-retreat\",\"13\",\"305684\",\"0.0-13.0\",\"\",\"\",\"1-5\",\"4898\",\"38\",\"1\",\"Training\",\"Stims/Figures/86-C-30-1.bmp\",\"nama:na\",\"Down\",\"38\",\"1\",\"10\",\"4\",\"S\",\"C\",\"10\"
\"\",\"\",\"approach-retreat\",\"14\",\"313718\",\"0.0-14.0\",\"\",\"\",\"1-5\",\"6518\",\"38\",\"1\",\"Training\",\"Stims/Figures/86-J-0-1.bmp\",\"taka:ka\",\"Up\",\"38\",\"1\",\"11\",\"4\",\"P\",\"C\",\"11\"
\"\",\"\",\"approach-retreat\",\"15\",\"321312\",\"0.0-15.0\",\"\",\"\",\"1-5\",\"6080\",\"39\",\"0\",\"Training\",\"Stims/Figures/128-C-30-3.bmp\",\"ma:mala\",\"Right\",\"37\",\"1\",\"12\",\"4\",\"S\",\"C\",\"12\"
\"\",\"\",\"approach-retreat\",\"16\",\"327152\",\"0.0-16.0\",\"\",\"\",\"1-5\",\"4328\",\"37\",\"1\",\"Training\",\"Stims/Figures/139-C-20-2.bmp\",\"na:lana\",\"Right\",\"37\",\"1\",\"13\",\"4\",\"S\",\"C\",\"13\"
\"\",\"\",\"approach-retreat\",\"17\",\"336088\",\"0.0-17.0\",\"\",\"\",\"1-5\",\"7424\",\"39\",\"0\",\"Training\",\"Stims/Figures/87-J-10-4.bmp\",\"ta:paka\",\"Left\",\"37\",\"1\",\"14\",\"4\",\"P\",\"C\",\"14\"
\"\",\"\",\"approach-retreat\",\"18\",\"343076\",\"0.0-18.0\",\"\",\"\",\"1-5\",\"5476\",\"39\",\"0\",\"Training\",\"Stims/Figures/118-J-0-2.bmp\",\"ta:kata\",\"Left\",\"37\",\"1\",\"15\",\"4\",\"P\",\"C\",\"15\"
\"\",\"\",\"approach-retreat\",\"19\",\"350128\",\"0.0-19.0\",\"\",\"\",\"1-5\",\"5542\",\"38\",\"0\",\"Training\",\"Stims/Figures/19-C-20-4.bmp\",\"na:la:la\",\"Up\",\"40\",\"1\",\"16\",\"4\",\"S\",\"C\",\"16\"
\"\",\"\",\"approach-retreat\",\"20\",\"357512\",\"0.0-20.0\",\"\",\"\",\"1-5\",\"5880\",\"38\",\"1\",\"Training\",\"Stims/Figures/71-J-0-1.bmp\",\"pakaka\",\"Up\",\"38\",\"2\",\"1\",\"4\",\"P\",\"C\",\"17\"
\"\",\"\",\"approach-retreat\",\"21\",\"363778\",\"0.0-21.0\",\"\",\"\",\"1-5\",\"4762\",\"39\",\"1\",\"Training\",\"Stims/Figures/86-C-30-1.bmp\",\"nama:na\",\"Left\",\"39\",\"2\",\"2\",\"4\",\"S\",\"C\",\"18\"
\"\",\"\",\"approach-retreat\",\"22\",\"369934\",\"0.0-22.0\",\"\",\"\",\"1-5\",\"4648\",\"38\",\"1\",\"Training\",\"Stims/Figures/87-C-20-4.bmp\",\"namala\",\"Down\",\"38\",\"2\",\"3\",\"4\",\"S\",\"C\",\"19\"
\"\",\"\",\"approach-retreat\",\"23\",\"375866\",\"0.0-23.0\",\"\",\"\",\"1-5\",\"4426\",\"37\",\"1\",\"Training\",\"Stims/Figures/100-C-30-3.bmp\",\"ma:la:na\",\"Right\",\"37\",\"2\",\"4\",\"4\",\"S\",\"C\",\"20\"
\"\",\"\",\"approach-retreat\",\"24\",\"387562\",\"0.0-24.0\",\"\",\"\",\"1-5\",\"10178\",\"38\",\"1\",\"Training\",\"Stims/Figures/128-J-10-3.bmp\",\"pa:pa:ka\",\"Up\",\"38\",\"2\",\"5\",\"4\",\"P\",\"C\",\"21\"
\"\",\"\",\"approach-retreat\",\"25\",\"395322\",\"0.0-25.0\",\"\",\"\",\"1-5\",\"6248\",\"39\",\"1\",\"Training\",\"Stims/Figures/128-C-30-3.bmp\",\"ma:mala\",\"Left\",\"39\",\"2\",\"6\",\"4\",\"S\",\"C\",\"22\"
\"\",\"\",\"approach-retreat\",\"26\",\"402736\",\"0.0-26.0\",\"\",\"\",\"1-5\",\"5908\",\"39\",\"1\",\"Training\",\"Stims/Figures/19-C-20-4.bmp\",\"na:la:la\",\"Left\",\"39\",\"2\",\"7\",\"4\",\"S\",\"C\",\"23\"
\"\",\"\",\"approach-retreat\",\"27\",\"409316\",\"0.0-27.0\",\"\",\"\",\"1-5\",\"5070\",\"37\",\"0\",\"Training\",\"Stims/Figures/87-J-10-4.bmp\",\"ta:paka\",\"Right\",\"39\",\"2\",\"8\",\"4\",\"P\",\"C\",\"24\"
\"\",\"\",\"approach-retreat\",\"28\",\"416724\",\"0.0-28.0\",\"\",\"\",\"1-5\",\"5902\",\"37\",\"1\",\"Training\",\"Stims/Figures/100-J-10-3.bmp\",\"pa:kaka\",\"Left\",\"37\",\"2\",\"9\",\"4\",\"P\",\"C\",\"25\"
\"\",\"\",\"approach-retreat\",\"29\",\"424348\",\"0.0-29.0\",\"\",\"\",\"1-5\",\"6116\",\"38\",\"1\",\"Training\",\"Stims/Figures/19-J-10-4.bmp\",\"papa:ka\",\"Up\",\"38\",\"2\",\"10\",\"4\",\"P\",\"C\",\"26\"
\"\",\"\",\"approach-retreat\",\"30\",\"431484\",\"0.0-30.0\",\"\",\"\",\"1-5\",\"5626\",\"39\",\"1\",\"Training\",\"Stims/Figures/86-J-0-1.bmp\",\"taka:ka\",\"Right\",\"39\",\"2\",\"11\",\"4\",\"P\",\"C\",\"27\"
\"\",\"\",\"approach-retreat\",\"31\",\"437516\",\"0.0-31.0\",\"\",\"\",\"1-5\",\"4522\",\"38\",\"1\",\"Training\",\"Stims/Figures/118-J-0-2.bmp\",\"ta:kata\",\"Up\",\"38\",\"2\",\"12\",\"4\",\"P\",\"C\",\"28\"
\"\",\"\",\"approach-retreat\",\"32\",\"444644\",\"0.0-32.0\",\"\",\"\",\"1-5\",\"5616\",\"38\",\"1\",\"Training\",\"Stims/Figures/118-C-20-2.bmp\",\"na:lala\",\"Down\",\"38\",\"2\",\"13\",\"4\",\"S\",\"C\",\"29\"
\"\",\"\",\"approach-retreat\",\"33\",\"451052\",\"0.0-33.0\",\"\",\"\",\"1-5\",\"4898\",\"40\",\"1\",\"Training\",\"Stims/Figures/139-J-0-2.bmp\",\"pa:pa:ta\",\"Down\",\"40\",\"2\",\"14\",\"4\",\"P\",\"C\",\"30\"
\"\",\"\",\"approach-retreat\",\"34\",\"458816\",\"0.0-34.0\",\"\",\"\",\"1-5\",\"6254\",\"37\",\"1\",\"Training\",\"Stims/Figures/71-C-30-1.bmp\",\"na:mana\",\"Right\",\"37\",\"2\",\"15\",\"4\",\"S\",\"C\",\"31\"
\"\",\"\",\"approach-retreat\",\"35\",\"464818\",\"0.0-35.0\",\"\",\"\",\"1-5\",\"4494\",\"38\",\"1\",\"Training\",\"Stims/Figures/139-C-20-2.bmp\",\"na:lana\",\"Down\",\"38\",\"2\",\"16\",\"4\",\"S\",\"C\",\"32\"
\"\",\"\",\"approach-retreat\",\"36\",\"472820\",\"0.0-36.0\",\"\",\"\",\"1-5\",\"6492\",\"38\",\"1\",\"Training\",\"Stims/Figures/100-J-10-3.bmp\",\"pa:kaka\",\"Up\",\"38\",\"3\",\"1\",\"4\",\"P\",\"C\",\"33\"
\"\",\"\",\"approach-retreat\",\"37\",\"479432\",\"0.0-37.0\",\"\",\"\",\"1-5\",\"5086\",\"40\",\"1\",\"Training\",\"Stims/Figures/71-C-30-1.bmp\",\"na:mana\",\"Up\",\"40\",\"3\",\"2\",\"4\",\"S\",\"C\",\"34\"
\"\",\"\",\"approach-retreat\",\"38\",\"486076\",\"0.0-38.0\",\"\",\"\",\"1-5\",\"5134\",\"39\",\"1\",\"Training\",\"Stims/Figures/19-J-10-4.bmp\",\"papa:ka\",\"Right\",\"39\",\"3\",\"3\",\"4\",\"P\",\"C\",\"35\"
\"\",\"\",\"approach-retreat\",\"39\",\"492586\",\"0.0-39.0\",\"\",\"\",\"1-5\",\"5000\",\"39\",\"1\",\"Training\",\"Stims/Figures/139-C-20-2.bmp\",\"na:lana\",\"Left\",\"39\",\"3\",\"4\",\"4\",\"S\",\"C\",\"36\"
\"\",\"\",\"approach-retreat\",\"40\",\"498528\",\"0.0-40.0\",\"\",\"\",\"1-5\",\"4436\",\"40\",\"1\",\"Training\",\"Stims/Figures/87-J-10-4.bmp\",\"ta:paka\",\"Down\",\"40\",\"3\",\"5\",\"4\",\"P\",\"C\",\"37\"
\"\",\"\",\"approach-retreat\",\"41\",\"504324\",\"0.0-41.0\",\"\",\"\",\"1-5\",\"4282\",\"38\",\"1\",\"Training\",\"Stims/Figures/87-C-20-4.bmp\",\"namala\",\"Down\",\"38\",\"3\",\"6\",\"4\",\"S\",\"C\",\"38\"
\"\",\"\",\"approach-retreat\",\"42\",\"510318\",\"0.0-42.0\",\"\",\"\",\"1-5\",\"4486\",\"40\",\"0\",\"Training\",\"Stims/Figures/139-J-0-2.bmp\",\"pa:pa:ta\",\"Up\",\"38\",\"3\",\"7\",\"4\",\"P\",\"C\",\"39\"
\"\",\"\",\"approach-retreat\",\"43\",\"516266\",\"0.0-43.0\",\"\",\"\",\"1-5\",\"4440\",\"39\",\"1\",\"Training\",\"Stims/Figures/100-C-30-3.bmp\",\"ma:la:na\",\"Left\",\"39\",\"3\",\"8\",\"4\",\"S\",\"C\",\"40\"
\"\",\"\",\"approach-retreat\",\"44\",\"522572\",\"0.0-44.0\",\"\",\"\",\"1-5\",\"4800\",\"37\",\"1\",\"Training\",\"Stims/Figures/118-C-20-2.bmp\",\"na:lala\",\"Right\",\"37\",\"3\",\"9\",\"4\",\"S\",\"C\",\"41\"
\"\",\"\",\"approach-retreat\",\"45\",\"530404\",\"0.0-45.0\",\"\",\"\",\"1-5\",\"6324\",\"40\",\"1\",\"Training\",\"Stims/Figures/118-J-0-2.bmp\",\"ta:kata\",\"Down\",\"40\",\"3\",\"10\",\"4\",\"P\",\"C\",\"42\"
\"\",\"\",\"approach-retreat\",\"46\",\"536902\",\"0.0-46.0\",\"\",\"\",\"1-5\",\"4988\",\"39\",\"1\",\"Training\",\"Stims/Figures/86-C-30-1.bmp\",\"nama:na\",\"Left\",\"39\",\"3\",\"11\",\"4\",\"S\",\"C\",\"43\"
\"\",\"\",\"approach-retreat\",\"47\",\"543616\",\"0.0-47.0\",\"\",\"\",\"1-5\",\"5206\",\"37\",\"1\",\"Training\",\"Stims/Figures/128-J-10-3.bmp\",\"pa:pa:ka\",\"Left\",\"37\",\"3\",\"12\",\"4\",\"P\",\"C\",\"44\"
\"\",\"\",\"approach-retreat\",\"48\",\"550708\",\"0.0-48.0\",\"\",\"\",\"1-5\",\"5580\",\"38\",\"1\",\"Training\",\"Stims/Figures/71-J-0-1.bmp\",\"pakaka\",\"Up\",\"38\",\"3\",\"13\",\"4\",\"P\",\"C\",\"45\"
\"\",\"\",\"approach-retreat\",\"49\",\"556542\",\"0.0-49.0\",\"\",\"\",\"1-5\",\"4326\",\"37\",\"1\",\"Training\",\"Stims/Figures/128-C-30-3.bmp\",\"ma:mala\",\"Right\",\"37\",\"3\",\"14\",\"4\",\"S\",\"C\",\"46\"
\"\",\"\",\"approach-retreat\",\"50\",\"562318\",\"0.0-50.0\",\"\",\"\",\"1-5\",\"4258\",\"39\",\"1\",\"Training\",\"Stims/Figures/86-J-0-1.bmp\",\"taka:ka\",\"Right\",\"39\",\"3\",\"15\",\"4\",\"P\",\"C\",\"47\"
\"\",\"\",\"approach-retreat\",\"51\",\"568180\",\"0.0-51.0\",\"\",\"\",\"1-5\",\"4350\",\"38\",\"1\",\"Training\",\"Stims/Figures/19-C-20-4.bmp\",\"na:la:la\",\"Down\",\"38\",\"3\",\"16\",\"4\",\"S\",\"C\",\"48\"
\"\",\"\",\"approach-retreat\",\"52\",\"574166\",\"0.0-52.0\",\"\",\"\",\"1-5\",\"4476\",\"40\",\"1\",\"Training\",\"Stims/Figures/118-J-0-2.bmp\",\"ta:kata\",\"Down\",\"40\",\"4\",\"1\",\"4\",\"P\",\"C\",\"49\"
\"\",\"\",\"approach-retreat\",\"53\",\"581480\",\"0.0-53.0\",\"\",\"\",\"1-5\",\"5808\",\"39\",\"1\",\"Training\",\"Stims/Figures/128-C-30-3.bmp\",\"ma:mala\",\"Left\",\"39\",\"4\",\"2\",\"4\",\"S\",\"C\",\"50\"
\"\",\"\",\"approach-retreat\",\"54\",\"588188\",\"0.0-54.0\",\"\",\"\",\"1-5\",\"5202\",\"39\",\"1\",\"Training\",\"Stims/Figures/19-J-10-4.bmp\",\"papa:ka\",\"Right\",\"39\",\"4\",\"3\",\"4\",\"P\",\"C\",\"51\"
\"\",\"\",\"approach-retreat\",\"55\",\"595336\",\"0.0-55.0\",\"\",\"\",\"1-5\",\"5642\",\"37\",\"1\",\"Training\",\"Stims/Figures/128-J-10-3.bmp\",\"pa:pa:ka\",\"Left\",\"37\",\"4\",\"4\",\"4\",\"P\",\"C\",\"52\"
\"\",\"\",\"approach-retreat\",\"56\",\"601232\",\"0.0-56.0\",\"\",\"\",\"1-5\",\"4386\",\"38\",\"1\",\"Training\",\"Stims/Figures/71-J-0-1.bmp\",\"pakaka\",\"Up\",\"38\",\"4\",\"5\",\"4\",\"P\",\"C\",\"53\"
\"\",\"\",\"approach-retreat\",\"57\",\"607736\",\"0.0-57.0\",\"\",\"\",\"1-5\",\"4996\",\"39\",\"1\",\"Training\",\"Stims/Figures/86-C-30-1.bmp\",\"nama:na\",\"Left\",\"39\",\"4\",\"6\",\"4\",\"S\",\"C\",\"54\"
\"\",\"\",\"approach-retreat\",\"58\",\"613758\",\"0.0-58.0\",\"\",\"\",\"1-5\",\"4516\",\"40\",\"1\",\"Training\",\"Stims/Figures/87-C-20-4.bmp\",\"namala\",\"Up\",\"40\",\"4\",\"7\",\"4\",\"S\",\"C\",\"55\"
\"\",\"\",\"approach-retreat\",\"59\",\"620642\",\"0.0-59.0\",\"\",\"\",\"1-5\",\"5376\",\"39\",\"0\",\"Training\",\"Stims/Figures/19-C-20-4.bmp\",\"na:la:la\",\"Right\",\"37\",\"4\",\"8\",\"4\",\"S\",\"C\",\"56\"
\"\",\"\",\"approach-retreat\",\"60\",\"626474\",\"0.0-60.0\",\"\",\"\",\"1-5\",\"4324\",\"37\",\"1\",\"Training\",\"Stims/Figures/139-C-20-2.bmp\",\"na:lana\",\"Right\",\"37\",\"4\",\"9\",\"4\",\"S\",\"C\",\"57\"
\"\",\"\",\"approach-retreat\",\"61\",\"632652\",\"0.0-61.0\",\"\",\"\",\"1-5\",\"4670\",\"38\",\"1\",\"Training\",\"Stims/Figures/87-J-10-4.bmp\",\"ta:paka\",\"Up\",\"38\",\"4\",\"10\",\"4\",\"P\",\"C\",\"58\"
\"\",\"\",\"approach-retreat\",\"62\",\"638930\",\"0.0-62.0\",\"\",\"\",\"1-5\",\"4770\",\"40\",\"1\",\"Training\",\"Stims/Figures/118-C-20-2.bmp\",\"na:lala\",\"Up\",\"40\",\"4\",\"11\",\"4\",\"S\",\"C\",\"59\"
\"\",\"\",\"approach-retreat\",\"63\",\"644938\",\"0.0-63.0\",\"\",\"\",\"1-5\",\"4496\",\"37\",\"1\",\"Training\",\"Stims/Figures/100-J-10-3.bmp\",\"pa:kaka\",\"Left\",\"37\",\"4\",\"12\",\"4\",\"P\",\"C\",\"60\"
\"\",\"\",\"approach-retreat\",\"64\",\"651900\",\"0.0-64.0\",\"\",\"\",\"1-5\",\"5450\",\"40\",\"1\",\"Training\",\"Stims/Figures/139-J-0-2.bmp\",\"pa:pa:ta\",\"Down\",\"40\",\"4\",\"13\",\"4\",\"P\",\"C\",\"61\"
\"\",\"\",\"approach-retreat\",\"65\",\"657694\",\"0.0-65.0\",\"\",\"\",\"1-5\",\"4284\",\"40\",\"1\",\"Training\",\"Stims/Figures/86-J-0-1.bmp\",\"taka:ka\",\"Down\",\"40\",\"4\",\"14\",\"4\",\"P\",\"C\",\"62\"
\"\",\"\",\"approach-retreat\",\"66\",\"663816\",\"0.0-66.0\",\"\",\"\",\"1-5\",\"4616\",\"39\",\"0\",\"Training\",\"Stims/Figures/71-C-30-1.bmp\",\"na:mana\",\"Right\",\"37\",\"4\",\"15\",\"4\",\"S\",\"C\",\"63\"
\"\",\"\",\"approach-retreat\",\"67\",\"671110\",\"0.0-67.0\",\"\",\"\",\"1-5\",\"5786\",\"38\",\"1\",\"Training\",\"Stims/Figures/100-C-30-3.bmp\",\"ma:la:na\",\"Down\",\"38\",\"4\",\"16\",\"4\",\"S\",\"C\",\"64\"
\"\",\"\",\"approach-retreat\",\"68\",\"677300\",\"0.0-68.0\",\"\",\"\",\"1-5\",\"4680\",\"39\",\"1\",\"Training\",\"Stims/Figures/100-J-10-3.bmp\",\"pa:kaka\",\"Right\",\"39\",\"5\",\"1\",\"4\",\"P\",\"C\",\"65\"
\"\",\"\",\"approach-retreat\",\"69\",\"685566\",\"0.0-69.0\",\"\",\"\",\"1-5\",\"6760\",\"38\",\"1\",\"Training\",\"Stims/Figures/87-J-10-4.bmp\",\"ta:paka\",\"Up\",\"38\",\"5\",\"2\",\"4\",\"P\",\"C\",\"66\"
\"\",\"\",\"approach-retreat\",\"70\",\"691726\",\"0.0-70.0\",\"\",\"\",\"1-5\",\"4654\",\"40\",\"1\",\"Training\",\"Stims/Figures/118-J-0-2.bmp\",\"ta:kata\",\"Down\",\"40\",\"5\",\"3\",\"4\",\"P\",\"C\",\"67\"
\"\",\"\",\"approach-retreat\",\"71\",\"698346\",\"0.0-71.0\",\"\",\"\",\"1-5\",\"5112\",\"39\",\"0\",\"Training\",\"Stims/Figures/87-C-20-4.bmp\",\"namala\",\"Right\",\"37\",\"5\",\"4\",\"4\",\"S\",\"C\",\"68\"
\"\",\"\",\"approach-retreat\",\"72\",\"704782\",\"0.0-72.0\",\"\",\"\",\"1-5\",\"4928\",\"39\",\"1\",\"Training\",\"Stims/Figures/86-C-30-1.bmp\",\"nama:na\",\"Left\",\"39\",\"5\",\"5\",\"4\",\"S\",\"C\",\"69\"
\"\",\"\",\"approach-retreat\",\"73\",\"710660\",\"0.0-73.0\",\"\",\"\",\"1-5\",\"4370\",\"40\",\"1\",\"Training\",\"Stims/Figures/118-C-20-2.bmp\",\"na:lala\",\"Up\",\"40\",\"5\",\"6\",\"4\",\"S\",\"C\",\"70\"
\"\",\"\",\"approach-retreat\",\"74\",\"717268\",\"0.0-74.0\",\"\",\"\",\"1-5\",\"5102\",\"38\",\"1\",\"Training\",\"Stims/Figures/128-C-30-3.bmp\",\"ma:mala\",\"Down\",\"38\",\"5\",\"7\",\"4\",\"S\",\"C\",\"71\"
\"\",\"\",\"approach-retreat\",\"75\",\"724004\",\"0.0-75.0\",\"\",\"\",\"1-5\",\"5228\",\"37\",\"1\",\"Training\",\"Stims/Figures/71-C-30-1.bmp\",\"na:mana\",\"Right\",\"37\",\"5\",\"8\",\"4\",\"S\",\"C\",\"72\"
\"\",\"\",\"approach-retreat\",\"76\",\"730046\",\"0.0-76.0\",\"\",\"\",\"1-5\",\"4534\",\"37\",\"1\",\"Training\",\"Stims/Figures/71-J-0-1.bmp\",\"pakaka\",\"Left\",\"37\",\"5\",\"9\",\"4\",\"P\",\"C\",\"73\"
\"\",\"\",\"approach-retreat\",\"77\",\"735954\",\"0.0-77.0\",\"\",\"\",\"1-5\",\"4398\",\"37\",\"1\",\"Training\",\"Stims/Figures/139-C-20-2.bmp\",\"na:lana\",\"Right\",\"37\",\"5\",\"10\",\"4\",\"S\",\"C\",\"74\"
\"\",\"\",\"approach-retreat\",\"78\",\"742800\",\"0.0-78.0\",\"\",\"\",\"1-5\",\"5338\",\"40\",\"1\",\"Training\",\"Stims/Figures/128-J-10-3.bmp\",\"pa:pa:ka\",\"Down\",\"40\",\"5\",\"11\",\"4\",\"P\",\"C\",\"75\"
\"\",\"\",\"approach-retreat\",\"79\",\"748700\",\"0.0-79.0\",\"\",\"\",\"1-5\",\"4392\",\"38\",\"1\",\"Training\",\"Stims/Figures/19-J-10-4.bmp\",\"papa:ka\",\"Up\",\"38\",\"5\",\"12\",\"4\",\"P\",\"C\",\"76\"
\"\",\"\",\"approach-retreat\",\"80\",\"754968\",\"0.0-80.0\",\"\",\"\",\"1-5\",\"4760\",\"39\",\"1\",\"Training\",\"Stims/Figures/19-C-20-4.bmp\",\"na:la:la\",\"Left\",\"39\",\"5\",\"13\",\"4\",\"S\",\"C\",\"77\"
\"\",\"\",\"approach-retreat\",\"81\",\"760910\",\"0.0-81.0\",\"\",\"\",\"1-5\",\"4434\",\"40\",\"1\",\"Training\",\"Stims/Figures/100-C-30-3.bmp\",\"ma:la:na\",\"Up\",\"40\",\"5\",\"14\",\"4\",\"S\",\"C\",\"78\"
\"\",\"\",\"approach-retreat\",\"82\",\"766906\",\"0.0-82.0\",\"\",\"\",\"1-5\",\"4492\",\"40\",\"1\",\"Training\",\"Stims/Figures/86-J-0-1.bmp\",\"taka:ka\",\"Down\",\"40\",\"5\",\"15\",\"4\",\"P\",\"C\",\"79\"
\"\",\"\",\"approach-retreat\",\"83\",\"773072\",\"0.0-83.0\",\"\",\"\",\"1-5\",\"4660\",\"37\",\"1\",\"Training\",\"Stims/Figures/139-J-0-2.bmp\",\"pa:pa:ta\",\"Left\",\"37\",\"5\",\"16\",\"4\",\"P\",\"C\",\"80\"
\"\",\"\",\"approach-retreat\",\"84\",\"779814\",\"0.0-84.0\",\"\",\"\",\"1-5\",\"5232\",\"37\",\"1\",\"Training\",\"Stims/Figures/139-C-20-2.bmp\",\"na:lana\",\"Right\",\"37\",\"6\",\"1\",\"4\",\"S\",\"C\",\"81\"
\"\",\"\",\"approach-retreat\",\"85\",\"786112\",\"0.0-85.0\",\"\",\"\",\"1-5\",\"4792\",\"37\",\"1\",\"Training\",\"Stims/Figures/71-C-30-1.bmp\",\"na:mana\",\"Right\",\"37\",\"6\",\"2\",\"4\",\"S\",\"C\",\"82\"
\"\",\"\",\"approach-retreat\",\"86\",\"792248\",\"0.0-86.0\",\"\",\"\",\"1-5\",\"4628\",\"40\",\"1\",\"Training\",\"Stims/Figures/71-J-0-1.bmp\",\"pakaka\",\"Down\",\"40\",\"6\",\"3\",\"4\",\"P\",\"C\",\"83\"
\"\",\"\",\"approach-retreat\",\"87\",\"798102\",\"0.0-87.0\",\"\",\"\",\"1-5\",\"4346\",\"38\",\"1\",\"Training\",\"Stims/Figures/87-J-10-4.bmp\",\"ta:paka\",\"Up\",\"38\",\"6\",\"4\",\"4\",\"P\",\"C\",\"84\"
\"\",\"\",\"approach-retreat\",\"88\",\"804272\",\"0.0-88.0\",\"\",\"\",\"1-5\",\"4652\",\"39\",\"1\",\"Training\",\"Stims/Figures/100-C-30-3.bmp\",\"ma:la:na\",\"Left\",\"39\",\"6\",\"5\",\"4\",\"S\",\"C\",\"85\"
\"\",\"\",\"approach-retreat\",\"89\",\"810514\",\"0.0-89.0\",\"\",\"\",\"1-5\",\"4728\",\"39\",\"1\",\"Training\",\"Stims/Figures/139-J-0-2.bmp\",\"pa:pa:ta\",\"Right\",\"39\",\"6\",\"6\",\"4\",\"P\",\"C\",\"86\"
\"\",\"\",\"approach-retreat\",\"90\",\"817520\",\"0.0-90.0\",\"\",\"\",\"1-5\",\"5500\",\"39\",\"1\",\"Training\",\"Stims/Figures/86-C-30-1.bmp\",\"nama:na\",\"Left\",\"39\",\"6\",\"7\",\"4\",\"S\",\"C\",\"87\"
\"\",\"\",\"approach-retreat\",\"91\",\"823792\",\"0.0-91.0\",\"\",\"\",\"1-5\",\"4764\",\"39\",\"1\",\"Training\",\"Stims/Figures/118-C-20-2.bmp\",\"na:lala\",\"Left\",\"39\",\"6\",\"8\",\"4\",\"S\",\"C\",\"88\"
\"\",\"\",\"approach-retreat\",\"92\",\"829744\",\"0.0-92.0\",\"\",\"\",\"1-5\",\"4440\",\"39\",\"1\",\"Training\",\"Stims/Figures/118-J-0-2.bmp\",\"ta:kata\",\"Right\",\"39\",\"6\",\"9\",\"4\",\"P\",\"C\",\"89\"
\"\",\"\",\"approach-retreat\",\"93\",\"837518\",\"0.0-93.0\",\"\",\"\",\"1-5\",\"6266\",\"38\",\"1\",\"Training\",\"Stims/Figures/128-J-10-3.bmp\",\"pa:pa:ka\",\"Up\",\"38\",\"6\",\"10\",\"4\",\"P\",\"C\",\"90\"
\"\",\"\",\"approach-retreat\",\"94\",\"843814\",\"0.0-94.0\",\"\",\"\",\"1-5\",\"4790\",\"38\",\"1\",\"Training\",\"Stims/Figures/19-J-10-4.bmp\",\"papa:ka\",\"Up\",\"38\",\"6\",\"11\",\"4\",\"P\",\"C\",\"91\"
\"\",\"\",\"approach-retreat\",\"95\",\"850324\",\"0.0-95.0\",\"\",\"\",\"1-5\",\"5002\",\"40\",\"1\",\"Training\",\"Stims/Figures/86-J-0-1.bmp\",\"taka:ka\",\"Down\",\"40\",\"6\",\"12\",\"4\",\"P\",\"C\",\"92\"
\"\",\"\",\"approach-retreat\",\"96\",\"856446\",\"0.0-96.0\",\"\",\"\",\"1-5\",\"4614\",\"40\",\"1\",\"Training\",\"Stims/Figures/87-C-20-4.bmp\",\"namala\",\"Up\",\"40\",\"6\",\"13\",\"4\",\"S\",\"C\",\"93\"
\"\",\"\",\"approach-retreat\",\"97\",\"863182\",\"0.0-97.0\",\"\",\"\",\"1-5\",\"5228\",\"39\",\"1\",\"Training\",\"Stims/Figures/128-C-30-3.bmp\",\"ma:mala\",\"Left\",\"39\",\"6\",\"14\",\"4\",\"S\",\"C\",\"94\"
\"\",\"\",\"approach-retreat\",\"98\",\"869172\",\"0.0-98.0\",\"\",\"\",\"1-5\",\"4480\",\"40\",\"1\",\"Training\",\"Stims/Figures/100-J-10-3.bmp\",\"pa:kaka\",\"Down\",\"40\",\"6\",\"15\",\"4\",\"P\",\"C\",\"95\"
\"\",\"\",\"approach-retreat\",\"99\",\"875192\",\"0.0-99.0\",\"\",\"\",\"1-5\",\"4512\",\"38\",\"1\",\"Training\",\"Stims/Figures/19-C-20-4.bmp\",\"na:la:la\",\"Down\",\"38\",\"6\",\"16\",\"4\",\"S\",\"C\",\"96\"
\"\",\"\",\"approach-retreat\",\"100\",\"882776\",\"0.0-100.0\",\"\",\"\",\"1-5\",\"6078\",\"39\",\"1\",\"Training\",\"Stims/Figures/86-J-0-1.bmp\",\"taka:ka\",\"Right\",\"39\",\"7\",\"1\",\"4\",\"P\",\"C\",\"97\"
\"\",\"\",\"approach-retreat\",\"101\",\"890842\",\"0.0-101.0\",\"\",\"\",\"1-5\",\"6558\",\"40\",\"1\",\"Training\",\"Stims/Figures/139-J-0-2.bmp\",\"pa:pa:ta\",\"Down\",\"40\",\"7\",\"2\",\"4\",\"P\",\"C\",\"98\"
\"\",\"\",\"approach-retreat\",\"102\",\"896654\",\"0.0-102.0\",\"\",\"\",\"1-5\",\"4306\",\"40\",\"1\",\"Training\",\"Stims/Figures/71-C-30-1.bmp\",\"na:mana\",\"Up\",\"40\",\"7\",\"3\",\"4\",\"S\",\"C\",\"99\"
\"\",\"\",\"approach-retreat\",\"103\",\"902426\",\"0.0-103.0\",\"\",\"\",\"1-5\",\"4266\",\"40\",\"1\",\"Training\",\"Stims/Figures/71-J-0-1.bmp\",\"pakaka\",\"Down\",\"40\",\"7\",\"4\",\"4\",\"P\",\"C\",\"100\"
\"\",\"\",\"approach-retreat\",\"104\",\"909250\",\"0.0-104.0\",\"\",\"\",\"1-5\",\"5316\",\"39\",\"1\",\"Training\",\"Stims/Figures/139-C-20-2.bmp\",\"na:lana\",\"Left\",\"39\",\"7\",\"5\",\"4\",\"S\",\"C\",\"101\"
\"\",\"\",\"approach-retreat\",\"105\",\"915134\",\"0.0-105.0\",\"\",\"\",\"1-5\",\"4376\",\"37\",\"1\",\"Training\",\"Stims/Figures/128-C-30-3.bmp\",\"ma:mala\",\"Right\",\"37\",\"7\",\"6\",\"4\",\"S\",\"C\",\"102\"
\"\",\"\",\"approach-retreat\",\"106\",\"920974\",\"0.0-106.0\",\"\",\"\",\"1-5\",\"4334\",\"37\",\"1\",\"Training\",\"Stims/Figures/87-J-10-4.bmp\",\"ta:paka\",\"Left\",\"37\",\"7\",\"7\",\"4\",\"P\",\"C\",\"103\"
\"\",\"\",\"approach-retreat\",\"107\",\"926700\",\"0.0-107.0\",\"\",\"\",\"1-5\",\"4216\",\"40\",\"1\",\"Training\",\"Stims/Figures/87-C-20-4.bmp\",\"namala\",\"Up\",\"40\",\"7\",\"8\",\"4\",\"S\",\"C\",\"104\"
\"\",\"\",\"approach-retreat\",\"108\",\"932368\",\"0.0-108.0\",\"\",\"\",\"1-5\",\"4160\",\"37\",\"1\",\"Training\",\"Stims/Figures/19-J-10-4.bmp\",\"papa:ka\",\"Left\",\"37\",\"7\",\"9\",\"4\",\"P\",\"C\",\"105\"
\"\",\"\",\"approach-retreat\",\"109\",\"939016\",\"0.0-109.0\",\"\",\"\",\"1-5\",\"5140\",\"40\",\"1\",\"Training\",\"Stims/Figures/118-J-0-2.bmp\",\"ta:kata\",\"Down\",\"40\",\"7\",\"10\",\"4\",\"P\",\"C\",\"106\"
\"\",\"\",\"approach-retreat\",\"110\",\"944930\",\"0.0-110.0\",\"\",\"\",\"1-5\",\"4406\",\"37\",\"1\",\"Training\",\"Stims/Figures/19-C-20-4.bmp\",\"na:la:la\",\"Right\",\"37\",\"7\",\"11\",\"4\",\"S\",\"C\",\"107\"
\"\",\"\",\"approach-retreat\",\"111\",\"951180\",\"0.0-111.0\",\"\",\"\",\"1-5\",\"4742\",\"39\",\"1\",\"Training\",\"Stims/Figures/128-J-10-3.bmp\",\"pa:pa:ka\",\"Right\",\"39\",\"7\",\"12\",\"4\",\"P\",\"C\",\"108\"
\"\",\"\",\"approach-retreat\",\"112\",\"957094\",\"0.0-112.0\",\"\",\"\",\"1-5\",\"4408\",\"39\",\"1\",\"Training\",\"Stims/Figures/86-C-30-1.bmp\",\"nama:na\",\"Left\",\"39\",\"7\",\"13\",\"4\",\"S\",\"C\",\"109\"
\"\",\"\",\"approach-retreat\",\"113\",\"962902\",\"0.0-113.0\",\"\",\"\",\"1-5\",\"4298\",\"40\",\"1\",\"Training\",\"Stims/Figures/118-C-20-2.bmp\",\"na:lala\",\"Up\",\"40\",\"7\",\"14\",\"4\",\"S\",\"C\",\"110\"
\"\",\"\",\"approach-retreat\",\"114\",\"969184\",\"0.0-114.0\",\"\",\"\",\"1-5\",\"4774\",\"40\",\"1\",\"Training\",\"Stims/Figures/100-C-30-3.bmp\",\"ma:la:na\",\"Up\",\"40\",\"7\",\"15\",\"4\",\"S\",\"C\",\"111\"
\"\",\"\",\"approach-retreat\",\"115\",\"975308\",\"0.0-115.0\",\"\",\"\",\"1-5\",\"4616\",\"40\",\"1\",\"Training\",\"Stims/Figures/100-J-10-3.bmp\",\"pa:kaka\",\"Down\",\"40\",\"7\",\"16\",\"4\",\"P\",\"C\",\"112\"
\"\",\"\",\"approach-retreat\",\"116\",\"981038\",\"0.0-116.0\",\"\",\"\",\"1-5\",\"4226\",\"37\",\"1\",\"Training\",\"Stims/Figures/71-J-0-1.bmp\",\"pakaka\",\"Left\",\"37\",\"8\",\"1\",\"4\",\"P\",\"C\",\"113\"
\"\",\"\",\"approach-retreat\",\"117\",\"986752\",\"0.0-117.0\",\"\",\"\",\"1-5\",\"4208\",\"40\",\"1\",\"Training\",\"Stims/Figures/86-C-30-1.bmp\",\"nama:na\",\"Up\",\"40\",\"8\",\"2\",\"4\",\"S\",\"C\",\"114\"
\"\",\"\",\"approach-retreat\",\"118\",\"992758\",\"0.0-118.0\",\"\",\"\",\"1-5\",\"4500\",\"39\",\"1\",\"Training\",\"Stims/Figures/139-J-0-2.bmp\",\"pa:pa:ta\",\"Right\",\"39\",\"8\",\"3\",\"4\",\"P\",\"C\",\"115\"
\"\",\"\",\"approach-retreat\",\"119\",\"1000254\",\"0.0-119.0\",\"\",\"\",\"1-5\",\"5988\",\"37\",\"1\",\"Training\",\"Stims/Figures/86-J-0-1.bmp\",\"taka:ka\",\"Left\",\"37\",\"8\",\"4\",\"4\",\"P\",\"C\",\"116\"
\"\",\"\",\"approach-retreat\",\"120\",\"1005960\",\"0.0-120.0\",\"\",\"\",\"1-5\",\"4200\",\"40\",\"1\",\"Training\",\"Stims/Figures/71-C-30-1.bmp\",\"na:mana\",\"Up\",\"40\",\"8\",\"5\",\"4\",\"S\",\"C\",\"117\"
\"\",\"\",\"approach-retreat\",\"121\",\"1011826\",\"0.0-121.0\",\"\",\"\",\"1-5\",\"4358\",\"39\",\"1\",\"Training\",\"Stims/Figures/128-C-30-3.bmp\",\"ma:mala\",\"Left\",\"39\",\"8\",\"6\",\"4\",\"S\",\"C\",\"118\"
\"\",\"\",\"approach-retreat\",\"122\",\"1018320\",\"0.0-122.0\",\"\",\"\",\"1-5\",\"4988\",\"37\",\"1\",\"Training\",\"Stims/Figures/87-C-20-4.bmp\",\"namala\",\"Right\",\"37\",\"8\",\"7\",\"4\",\"S\",\"C\",\"119\"
\"\",\"\",\"approach-retreat\",\"123\",\"1025056\",\"0.0-123.0\",\"\",\"\",\"1-5\",\"5228\",\"39\",\"1\",\"Training\",\"Stims/Figures/118-C-20-2.bmp\",\"na:lala\",\"Left\",\"39\",\"8\",\"8\",\"4\",\"S\",\"C\",\"120\"
\"\",\"\",\"approach-retreat\",\"124\",\"1030810\",\"0.0-124.0\",\"\",\"\",\"1-5\",\"4248\",\"38\",\"1\",\"Training\",\"Stims/Figures/139-C-20-2.bmp\",\"na:lana\",\"Down\",\"38\",\"8\",\"9\",\"4\",\"S\",\"C\",\"121\"
\"\",\"\",\"approach-retreat\",\"125\",\"1037288\",\"0.0-125.0\",\"\",\"\",\"1-5\",\"4968\",\"38\",\"1\",\"Training\",\"Stims/Figures/100-C-30-3.bmp\",\"ma:la:na\",\"Down\",\"38\",\"8\",\"10\",\"4\",\"S\",\"C\",\"122\"
\"\",\"\",\"approach-retreat\",\"126\",\"1043124\",\"0.0-126.0\",\"\",\"\",\"1-5\",\"4330\",\"39\",\"1\",\"Training\",\"Stims/Figures/87-J-10-4.bmp\",\"ta:paka\",\"Right\",\"39\",\"8\",\"11\",\"4\",\"P\",\"C\",\"123\"
\"\",\"\",\"approach-retreat\",\"127\",\"1049384\",\"0.0-127.0\",\"\",\"\",\"1-5\",\"4754\",\"38\",\"1\",\"Training\",\"Stims/Figures/118-J-0-2.bmp\",\"ta:kata\",\"Up\",\"38\",\"8\",\"12\",\"4\",\"P\",\"C\",\"124\"
\"\",\"\",\"approach-retreat\",\"128\",\"1055032\",\"0.0-128.0\",\"\",\"\",\"1-5\",\"4138\",\"38\",\"1\",\"Training\",\"Stims/Figures/19-C-20-4.bmp\",\"na:la:la\",\"Down\",\"38\",\"8\",\"13\",\"4\",\"S\",\"C\",\"125\"
\"\",\"\",\"approach-retreat\",\"129\",\"1061124\",\"0.0-129.0\",\"\",\"\",\"1-5\",\"4586\",\"39\",\"1\",\"Training\",\"Stims/Figures/19-J-10-4.bmp\",\"papa:ka\",\"Right\",\"39\",\"8\",\"14\",\"4\",\"P\",\"C\",\"126\"
\"\",\"\",\"approach-retreat\",\"130\",\"1066880\",\"0.0-130.0\",\"\",\"\",\"1-5\",\"4248\",\"38\",\"1\",\"Training\",\"Stims/Figures/128-J-10-3.bmp\",\"pa:pa:ka\",\"Up\",\"38\",\"8\",\"15\",\"4\",\"P\",\"C\",\"127\"
\"\",\"\",\"approach-retreat\",\"131\",\"1072718\",\"0.0-131.0\",\"\",\"\",\"1-5\",\"4330\",\"40\",\"1\",\"Training\",\"Stims/Figures/100-J-10-3.bmp\",\"pa:kaka\",\"Down\",\"40\",\"8\",\"16\",\"4\",\"P\",\"C\",\"128\"
\"\",\"\",\"approach-retreat\",\"132\",\"1078988\",\"0.0-132.0\",\"\",\"\",\"1-5\",\"4766\",\"40\",\"1\",\"Training\",\"Stims/Figures/139-C-20-2.bmp\",\"na:lana\",\"Up\",\"40\",\"9\",\"1\",\"4\",\"S\",\"C\",\"129\"
\"\",\"\",\"approach-retreat\",\"133\",\"1084812\",\"0.0-133.0\",\"\",\"\",\"1-5\",\"4318\",\"37\",\"1\",\"Training\",\"Stims/Figures/118-J-0-2.bmp\",\"ta:kata\",\"Left\",\"37\",\"9\",\"2\",\"4\",\"P\",\"C\",\"130\"
\"\",\"\",\"approach-retreat\",\"134\",\"1091030\",\"0.0-134.0\",\"\",\"\",\"1-5\",\"4710\",\"37\",\"1\",\"Training\",\"Stims/Figures/139-J-0-2.bmp\",\"pa:pa:ta\",\"Left\",\"37\",\"9\",\"3\",\"4\",\"P\",\"C\",\"131\"
\"\",\"\",\"approach-retreat\",\"135\",\"1096672\",\"0.0-135.0\",\"\",\"\",\"1-5\",\"4134\",\"37\",\"1\",\"Training\",\"Stims/Figures/87-C-20-4.bmp\",\"namala\",\"Right\",\"37\",\"9\",\"4\",\"4\",\"S\",\"C\",\"132\"
\"\",\"\",\"approach-retreat\",\"136\",\"1103156\",\"0.0-136.0\",\"\",\"\",\"1-5\",\"4978\",\"39\",\"1\",\"Training\",\"Stims/Figures/71-J-0-1.bmp\",\"pakaka\",\"Right\",\"39\",\"9\",\"5\",\"4\",\"P\",\"C\",\"133\"
\"\",\"\",\"approach-retreat\",\"137\",\"1109032\",\"0.0-137.0\",\"\",\"\",\"1-5\",\"4366\",\"40\",\"1\",\"Training\",\"Stims/Figures/128-C-30-3.bmp\",\"ma:mala\",\"Up\",\"40\",\"9\",\"6\",\"4\",\"S\",\"C\",\"134\"
\"\",\"\",\"approach-retreat\",\"138\",\"1114866\",\"0.0-138.0\",\"\",\"\",\"1-5\",\"4328\",\"40\",\"1\",\"Training\",\"Stims/Figures/71-C-30-1.bmp\",\"na:mana\",\"Up\",\"40\",\"9\",\"7\",\"4\",\"S\",\"C\",\"135\"
\"\",\"\",\"approach-retreat\",\"139\",\"1120666\",\"0.0-139.0\",\"\",\"\",\"1-5\",\"4282\",\"39\",\"1\",\"Training\",\"Stims/Figures/87-J-10-4.bmp\",\"ta:paka\",\"Right\",\"39\",\"9\",\"8\",\"4\",\"P\",\"C\",\"136\"
\"\",\"\",\"approach-retreat\",\"140\",\"1126348\",\"0.0-140.0\",\"\",\"\",\"1-5\",\"4168\",\"38\",\"1\",\"Training\",\"Stims/Figures/19-C-20-4.bmp\",\"na:la:la\",\"Down\",\"38\",\"9\",\"9\",\"4\",\"S\",\"C\",\"137\"
\"\",\"\",\"approach-retreat\",\"141\",\"1132210\",\"0.0-141.0\",\"\",\"\",\"1-5\",\"4356\",\"40\",\"0\",\"Training\",\"Stims/Figures/19-J-10-4.bmp\",\"papa:ka\",\"Up\",\"38\",\"9\",\"10\",\"4\",\"P\",\"C\",\"138\"
\"\",\"\",\"approach-retreat\",\"142\",\"1138084\",\"0.0-142.0\",\"\",\"\",\"1-5\",\"4368\",\"39\",\"1\",\"Training\",\"Stims/Figures/86-C-30-1.bmp\",\"nama:na\",\"Left\",\"39\",\"9\",\"11\",\"4\",\"S\",\"C\",\"139\"
\"\",\"\",\"approach-retreat\",\"143\",\"1143836\",\"0.0-143.0\",\"\",\"\",\"1-5\",\"4244\",\"38\",\"0\",\"Training\",\"Stims/Figures/128-J-10-3.bmp\",\"pa:pa:ka\",\"Down\",\"40\",\"9\",\"12\",\"4\",\"P\",\"C\",\"140\"
\"\",\"\",\"approach-retreat\",\"144\",\"1149788\",\"0.0-144.0\",\"\",\"\",\"1-5\",\"4444\",\"37\",\"1\",\"Training\",\"Stims/Figures/100-J-10-3.bmp\",\"pa:kaka\",\"Left\",\"37\",\"9\",\"13\",\"4\",\"P\",\"C\",\"141\"
\"\",\"\",\"approach-retreat\",\"145\",\"1155606\",\"0.0-145.0\",\"\",\"\",\"1-5\",\"4310\",\"39\",\"1\",\"Training\",\"Stims/Figures/86-J-0-1.bmp\",\"taka:ka\",\"Right\",\"39\",\"9\",\"14\",\"4\",\"P\",\"C\",\"142\"
\"\",\"\",\"approach-retreat\",\"146\",\"1161368\",\"0.0-146.0\",\"\",\"\",\"1-5\",\"4254\",\"38\",\"1\",\"Training\",\"Stims/Figures/118-C-20-2.bmp\",\"na:lala\",\"Down\",\"38\",\"9\",\"15\",\"4\",\"S\",\"C\",\"143\"
\"\",\"\",\"approach-retreat\",\"147\",\"1168148\",\"0.0-147.0\",\"\",\"\",\"1-5\",\"5270\",\"38\",\"1\",\"Training\",\"Stims/Figures/100-C-30-3.bmp\",\"ma:la:na\",\"Down\",\"38\",\"9\",\"16\",\"4\",\"S\",\"C\",\"144\"
\"15268\",\"\",\"instructions\",\"148\",\"1183416\",\"0.0-148.0\",\"[{\"\"page_index\"\":0,\"\"viewing_time\"\":15266}]\",\"\",\"\",\"\",\"\",\"\",\"\",\"\",\"\",\"\",\"\",\"\",\"\",\"\",\"\",\"\",\"\"
\"\",\"\",\"approach-retreat\",\"149\",\"1190744\",\"0.0-149.0\",\"\",\"\",\"1-5\",\"5822\",\"40\",\"1\",\"Testing\",\"Stims/Figures/139-J-0-2.bmp\",\"pa:pa:ta\",\"Down\",\"40\",\"1\",\"1\",\"4\",\"P\",\"C\",\"1\"
\"\",\"\",\"approach-retreat\",\"150\",\"1196486\",\"0.0-150.0\",\"\",\"\",\"1-5\",\"4234\",\"38\",\"1\",\"Testing\",\"Stims/Figures/118-C-20-2.bmp\",\"na:lala\",\"Down\",\"38\",\"1\",\"2\",\"4\",\"S\",\"C\",\"2\"
\"\",\"\",\"approach-retreat\",\"151\",\"1202138\",\"0.0-151.0\",\"\",\"\",\"1-5\",\"4146\",\"38\",\"1\",\"Testing\",\"Stims/Figures/19-C-20-4.bmp\",\"na:la:la\",\"Down\",\"38\",\"1\",\"3\",\"4\",\"S\",\"C\",\"3\"
\"\",\"\",\"approach-retreat\",\"152\",\"1208000\",\"0.0-152.0\",\"\",\"\",\"1-5\",\"4352\",\"37\",\"1\",\"Testing\",\"Stims/Figures/57-J-0-1.bmp\",\"ta:pa:ta\",\"Left\",\"37\",\"1\",\"4\",\"4\",\"P\",\"C\",\"4\"
\"\",\"\",\"approach-retreat\",\"153\",\"1214016\",\"0.0-153.0\",\"\",\"\",\"1-5\",\"4506\",\"39\",\"1\",\"Testing\",\"Stims/Figures/86-C-30-1.bmp\",\"nama:na\",\"Left\",\"39\",\"1\",\"5\",\"4\",\"S\",\"C\",\"5\"
\"\",\"\",\"approach-retreat\",\"154\",\"1219834\",\"0.0-154.0\",\"\",\"\",\"1-5\",\"4314\",\"37\",\"0\",\"Testing\",\"Stims/Figures/128-C-30-3.bmp\",\"ma:mala\",\"Left\",\"39\",\"1\",\"6\",\"4\",\"S\",\"C\",\"6\"
\"\",\"\",\"approach-retreat\",\"155\",\"1225718\",\"0.0-155.0\",\"\",\"\",\"1-5\",\"4378\",\"37\",\"1\",\"Testing\",\"Stims/Figures/87-J-10-4.bmp\",\"ta:paka\",\"Left\",\"37\",\"1\",\"7\",\"4\",\"P\",\"C\",\"7\"
\"\",\"\",\"approach-retreat\",\"156\",\"1231848\",\"0.0-156.0\",\"\",\"\",\"1-5\",\"4624\",\"37\",\"1\",\"Testing\",\"Stims/Figures/100-C-30-3.bmp\",\"ma:la:na\",\"Right\",\"37\",\"1\",\"8\",\"4\",\"S\",\"C\",\"8\"
\"\",\"\",\"approach-retreat\",\"157\",\"1237642\",\"0.0-157.0\",\"\",\"\",\"1-5\",\"4286\",\"37\",\"0\",\"Testing\",\"Stims/Figures/100-J-10-3.bmp\",\"pa:kaka\",\"Right\",\"39\",\"1\",\"9\",\"4\",\"P\",\"C\",\"9\"
\"\",\"\",\"approach-retreat\",\"158\",\"1245300\",\"0.0-158.0\",\"\",\"\",\"1-5\",\"6148\",\"38\",\"0\",\"Testing\",\"Stims/Figures/57-C-30-1.bmp\",\"ma:lala\",\"Up\",\"40\",\"1\",\"10\",\"4\",\"S\",\"C\",\"10\"
\"\",\"\",\"approach-retreat\",\"159\",\"1251960\",\"0.0-159.0\",\"\",\"\",\"1-5\",\"5152\",\"37\",\"1\",\"Testing\",\"Stims/Figures/144-J-10-3.bmp\",\"paka:ta\",\"Left\",\"37\",\"1\",\"11\",\"4\",\"P\",\"C\",\"11\"
\"\",\"\",\"approach-retreat\",\"160\",\"1258256\",\"0.0-160.0\",\"\",\"\",\"1-5\",\"4784\",\"39\",\"1\",\"Testing\",\"Stims/Figures/7-J-10-4.bmp\",\"tapa:ka\",\"Right\",\"39\",\"1\",\"12\",\"4\",\"P\",\"C\",\"12\"
\"\",\"\",\"approach-retreat\",\"161\",\"1265984\",\"0.0-161.0\",\"\",\"\",\"1-5\",\"6216\",\"40\",\"0\",\"Testing\",\"Stims/Figures/7-C-20-4.bmp\",\"nalana\",\"Down\",\"38\",\"1\",\"13\",\"4\",\"S\",\"C\",\"13\"
\"\",\"\",\"approach-retreat\",\"162\",\"1275398\",\"0.0-162.0\",\"\",\"\",\"1-5\",\"7908\",\"38\",\"1\",\"Testing\",\"Stims/Figures/19-J-10-4.bmp\",\"papa:ka\",\"Up\",\"38\",\"1\",\"14\",\"4\",\"P\",\"C\",\"14\"
\"\",\"\",\"approach-retreat\",\"163\",\"1282026\",\"0.0-163.0\",\"\",\"\",\"1-5\",\"5118\",\"38\",\"0\",\"Testing\",\"Stims/Figures/144-C-30-3.bmp\",\"ma:mana\",\"Up\",\"40\",\"1\",\"15\",\"4\",\"S\",\"C\",\"15\"
\"\",\"\",\"approach-retreat\",\"164\",\"1287834\",\"0.0-164.0\",\"\",\"\",\"1-5\",\"4302\",\"40\",\"1\",\"Testing\",\"Stims/Figures/87-C-20-4.bmp\",\"namala\",\"Up\",\"40\",\"1\",\"16\",\"4\",\"S\",\"C\",\"16\"
\"\",\"\",\"approach-retreat\",\"165\",\"1294202\",\"0.0-165.0\",\"\",\"\",\"1-5\",\"4860\",\"37\",\"1\",\"Testing\",\"Stims/Figures/71-C-30-1.bmp\",\"na:mana\",\"Right\",\"37\",\"1\",\"17\",\"4\",\"S\",\"C\",\"17\"
\"\",\"\",\"approach-retreat\",\"166\",\"1300166\",\"0.0-166.0\",\"\",\"\",\"1-5\",\"4456\",\"40\",\"1\",\"Testing\",\"Stims/Figures/71-J-0-1.bmp\",\"pakaka\",\"Down\",\"40\",\"1\",\"18\",\"4\",\"P\",\"C\",\"18\"
\"\",\"\",\"approach-retreat\",\"167\",\"1306380\",\"0.0-167.0\",\"\",\"\",\"1-5\",\"4710\",\"38\",\"1\",\"Testing\",\"Stims/Figures/118-J-0-2.bmp\",\"ta:kata\",\"Up\",\"38\",\"1\",\"19\",\"4\",\"P\",\"C\",\"19\"
\"\",\"\",\"approach-retreat\",\"168\",\"1312510\",\"0.0-168.0\",\"\",\"\",\"1-5\",\"4620\",\"37\",\"0\",\"Testing\",\"Stims/Figures/94-C-20-2.bmp\",\"na:mala\",\"Left\",\"39\",\"1\",\"20\",\"4\",\"S\",\"C\",\"20\"
\"\",\"\",\"approach-retreat\",\"169\",\"1318642\",\"0.0-169.0\",\"\",\"\",\"1-5\",\"4622\",\"37\",\"0\",\"Testing\",\"Stims/Figures/86-J-0-1.bmp\",\"taka:ka\",\"Right\",\"39\",\"1\",\"21\",\"4\",\"P\",\"C\",\"21\"
\"\",\"\",\"approach-retreat\",\"170\",\"1324424\",\"0.0-170.0\",\"\",\"\",\"1-5\",\"4274\",\"38\",\"1\",\"Testing\",\"Stims/Figures/94-J-0-2.bmp\",\"tapata\",\"Up\",\"38\",\"1\",\"22\",\"4\",\"P\",\"C\",\"22\"
\"\",\"\",\"approach-retreat\",\"171\",\"1330086\",\"0.0-171.0\",\"\",\"\",\"1-5\",\"4156\",\"39\",\"0\",\"Testing\",\"Stims/Figures/139-C-20-2.bmp\",\"na:lana\",\"Right\",\"37\",\"1\",\"23\",\"4\",\"S\",\"C\",\"23\"
\"\",\"\",\"approach-retreat\",\"172\",\"1336392\",\"0.0-172.0\",\"\",\"\",\"1-5\",\"4798\",\"38\",\"0\",\"Testing\",\"Stims/Figures/128-J-10-3.bmp\",\"pa:pa:ka\",\"Down\",\"40\",\"1\",\"24\",\"4\",\"P\",\"C\",\"24\"
\"\",\"\",\"approach-retreat\",\"173\",\"1342240\",\"0.0-173.0\",\"\",\"\",\"1-5\",\"4342\",\"40\",\"1\",\"Testing\",\"Stims/Figures/128-C-30-3.bmp\",\"ma:mala\",\"Up\",\"40\",\"2\",\"1\",\"4\",\"S\",\"C\",\"25\"
\"\",\"\",\"approach-retreat\",\"174\",\"1348456\",\"0.0-174.0\",\"\",\"\",\"1-5\",\"4708\",\"40\",\"1\",\"Testing\",\"Stims/Figures/144-J-10-3.bmp\",\"paka:ta\",\"Down\",\"40\",\"2\",\"2\",\"4\",\"P\",\"C\",\"26\"
\"\",\"\",\"approach-retreat\",\"175\",\"1354738\",\"0.0-175.0\",\"\",\"\",\"1-5\",\"4776\",\"37\",\"0\",\"Testing\",\"Stims/Figures/139-C-20-2.bmp\",\"na:lana\",\"Left\",\"39\",\"2\",\"3\",\"4\",\"S\",\"C\",\"27\"
\"\",\"\",\"approach-retreat\",\"176\",\"1360444\",\"0.0-176.0\",\"\",\"\",\"1-5\",\"4200\",\"38\",\"1\",\"Testing\",\"Stims/Figures/86-C-30-1.bmp\",\"nama:na\",\"Down\",\"38\",\"2\",\"4\",\"4\",\"S\",\"C\",\"28\"
\"\",\"\",\"approach-retreat\",\"177\",\"1366668\",\"0.0-177.0\",\"\",\"\",\"1-5\",\"4718\",\"40\",\"1\",\"Testing\",\"Stims/Figures/94-J-0-2.bmp\",\"tapata\",\"Down\",\"40\",\"2\",\"5\",\"4\",\"P\",\"C\",\"29\"
\"\",\"\",\"approach-retreat\",\"178\",\"1373672\",\"0.0-178.0\",\"\",\"\",\"1-5\",\"5498\",\"40\",\"1\",\"Testing\",\"Stims/Figures/71-C-30-1.bmp\",\"na:mana\",\"Up\",\"40\",\"2\",\"6\",\"4\",\"S\",\"C\",\"30\"
\"\",\"\",\"approach-retreat\",\"179\",\"1380622\",\"0.0-179.0\",\"\",\"\",\"1-5\",\"5444\",\"37\",\"1\",\"Testing\",\"Stims/Figures/57-J-0-1.bmp\",\"ta:pa:ta\",\"Left\",\"37\",\"2\",\"7\",\"4\",\"P\",\"C\",\"31\"
\"\",\"\",\"approach-retreat\",\"180\",\"1386726\",\"0.0-180.0\",\"\",\"\",\"1-5\",\"4598\",\"37\",\"1\",\"Testing\",\"Stims/Figures/100-C-30-3.bmp\",\"ma:la:na\",\"Right\",\"37\",\"2\",\"8\",\"4\",\"S\",\"C\",\"32\"
\"\",\"\",\"approach-retreat\",\"181\",\"1393490\",\"0.0-181.0\",\"\",\"\",\"1-5\",\"5258\",\"37\",\"1\",\"Testing\",\"Stims/Figures/7-J-10-4.bmp\",\"tapa:ka\",\"Left\",\"37\",\"2\",\"9\",\"4\",\"P\",\"C\",\"33\"
\"\",\"\",\"approach-retreat\",\"182\",\"1400682\",\"0.0-182.0\",\"\",\"\",\"1-5\",\"5682\",\"39\",\"1\",\"Testing\",\"Stims/Figures/139-J-0-2.bmp\",\"pa:pa:ta\",\"Right\",\"39\",\"2\",\"10\",\"4\",\"P\",\"C\",\"34\"
\"\",\"\",\"approach-retreat\",\"183\",\"1406544\",\"0.0-183.0\",\"\",\"\",\"1-5\",\"4358\",\"37\",\"0\",\"Testing\",\"Stims/Figures/128-J-10-3.bmp\",\"pa:pa:ka\",\"Right\",\"39\",\"2\",\"11\",\"4\",\"P\",\"C\",\"35\"
\"\",\"\",\"approach-retreat\",\"184\",\"1412070\",\"0.0-184.0\",\"\",\"\",\"1-5\",\"4014\",\"38\",\"0\",\"Testing\",\"Stims/Figures/71-J-0-1.bmp\",\"pakaka\",\"Down\",\"40\",\"2\",\"12\",\"4\",\"P\",\"C\",\"36\"
\"\",\"\",\"approach-retreat\",\"185\",\"1418288\",\"0.0-185.0\",\"\",\"\",\"1-5\",\"4710\",\"39\",\"1\",\"Testing\",\"Stims/Figures/87-J-10-4.bmp\",\"ta:paka\",\"Right\",\"39\",\"2\",\"13\",\"4\",\"P\",\"C\",\"37\"
\"\",\"\",\"approach-retreat\",\"186\",\"1424402\",\"0.0-186.0\",\"\",\"\",\"1-5\",\"4604\",\"39\",\"1\",\"Testing\",\"Stims/Figures/118-J-0-2.bmp\",\"ta:kata\",\"Right\",\"39\",\"2\",\"14\",\"4\",\"P\",\"C\",\"38\"
\"\",\"\",\"approach-retreat\",\"187\",\"1430798\",\"0.0-187.0\",\"\",\"\",\"1-5\",\"4890\",\"39\",\"1\",\"Testing\",\"Stims/Figures/19-C-20-4.bmp\",\"na:la:la\",\"Left\",\"39\",\"2\",\"15\",\"4\",\"S\",\"C\",\"39\"
\"\",\"\",\"approach-retreat\",\"188\",\"1437286\",\"0.0-188.0\",\"\",\"\",\"1-5\",\"4980\",\"38\",\"0\",\"Testing\",\"Stims/Figures/7-C-20-4.bmp\",\"nalana\",\"Up\",\"40\",\"2\",\"16\",\"4\",\"S\",\"C\",\"40\"
\"\",\"\",\"approach-retreat\",\"189\",\"1443006\",\"0.0-189.0\",\"\",\"\",\"1-5\",\"4214\",\"37\",\"1\",\"Testing\",\"Stims/Figures/118-C-20-2.bmp\",\"na:lala\",\"Right\",\"37\",\"2\",\"17\",\"4\",\"S\",\"C\",\"41\"
\"\",\"\",\"approach-retreat\",\"190\",\"1448890\",\"0.0-190.0\",\"\",\"\",\"1-5\",\"4374\",\"40\",\"0\",\"Testing\",\"Stims/Figures/19-J-10-4.bmp\",\"papa:ka\",\"Up\",\"38\",\"2\",\"18\",\"4\",\"P\",\"C\",\"42\"
\"\",\"\",\"approach-retreat\",\"191\",\"1454564\",\"0.0-191.0\",\"\",\"\",\"1-5\",\"4168\",\"40\",\"0\",\"Testing\",\"Stims/Figures/100-J-10-3.bmp\",\"pa:kaka\",\"Up\",\"38\",\"2\",\"19\",\"4\",\"P\",\"C\",\"43\"
\"\",\"\",\"approach-retreat\",\"192\",\"1460534\",\"0.0-192.0\",\"\",\"\",\"1-5\",\"4460\",\"37\",\"0\",\"Testing\",\"Stims/Figures/94-C-20-2.bmp\",\"na:mala\",\"Left\",\"39\",\"2\",\"20\",\"4\",\"S\",\"C\",\"44\"
\"\",\"\",\"approach-retreat\",\"193\",\"1469558\",\"0.0-193.0\",\"\",\"\",\"1-5\",\"7516\",\"40\",\"0\",\"Testing\",\"Stims/Figures/57-C-30-1.bmp\",\"ma:lala\",\"Down\",\"38\",\"2\",\"21\",\"4\",\"S\",\"C\",\"45\"
\"\",\"\",\"approach-retreat\",\"194\",\"1475390\",\"0.0-194.0\",\"\",\"\",\"1-5\",\"4324\",\"40\",\"0\",\"Testing\",\"Stims/Figures/144-C-30-3.bmp\",\"ma:mana\",\"Down\",\"38\",\"2\",\"22\",\"4\",\"S\",\"C\",\"46\"
\"\",\"\",\"approach-retreat\",\"195\",\"1481358\",\"0.0-195.0\",\"\",\"\",\"1-5\",\"4460\",\"37\",\"1\",\"Testing\",\"Stims/Figures/86-J-0-1.bmp\",\"taka:ka\",\"Left\",\"37\",\"2\",\"23\",\"4\",\"P\",\"C\",\"47\"
\"\",\"\",\"approach-retreat\",\"196\",\"1487416\",\"0.0-196.0\",\"\",\"\",\"1-5\",\"4552\",\"38\",\"0\",\"Testing\",\"Stims/Figures/87-C-20-4.bmp\",\"namala\",\"Up\",\"40\",\"2\",\"24\",\"4\",\"S\",\"C\",\"48\"
\"\",\"\",\"approach-retreat\",\"197\",\"1493852\",\"0.0-197.0\",\"\",\"\",\"1-5\",\"4928\",\"38\",\"1\",\"Testing\",\"Stims/Figures/128-J-10-3.bmp\",\"pa:pa:ka\",\"Up\",\"38\",\"3\",\"1\",\"4\",\"P\",\"C\",\"49\"
\"\",\"\",\"approach-retreat\",\"198\",\"1500004\",\"0.0-198.0\",\"\",\"\",\"1-5\",\"4646\",\"40\",\"1\",\"Testing\",\"Stims/Figures/19-J-10-4.bmp\",\"papa:ka\",\"Down\",\"40\",\"3\",\"2\",\"4\",\"P\",\"C\",\"50\"
\"\",\"\",\"approach-retreat\",\"199\",\"1506072\",\"0.0-199.0\",\"\",\"\",\"1-5\",\"4562\",\"38\",\"0\",\"Testing\",\"Stims/Figures/7-C-20-4.bmp\",\"nalana\",\"Up\",\"40\",\"3\",\"3\",\"4\",\"S\",\"C\",\"51\"
\"\",\"\",\"approach-retreat\",\"200\",\"1511998\",\"0.0-200.0\",\"\",\"\",\"1-5\",\"4420\",\"37\",\"0\",\"Testing\",\"Stims/Figures/118-C-20-2.bmp\",\"na:lala\",\"Left\",\"39\",\"3\",\"4\",\"4\",\"S\",\"C\",\"52\"
\"\",\"\",\"approach-retreat\",\"201\",\"1517678\",\"0.0-201.0\",\"\",\"\",\"1-5\",\"4174\",\"39\",\"0\",\"Testing\",\"Stims/Figures/139-C-20-2.bmp\",\"na:lana\",\"Right\",\"37\",\"3\",\"5\",\"4\",\"S\",\"C\",\"53\"
\"\",\"\",\"approach-retreat\",\"202\",\"1523554\",\"0.0-202.0\",\"\",\"\",\"1-5\",\"4368\",\"38\",\"1\",\"Testing\",\"Stims/Figures/100-C-30-3.bmp\",\"ma:la:na\",\"Down\",\"38\",\"3\",\"6\",\"4\",\"S\",\"C\",\"54\"
\"\",\"\",\"approach-retreat\",\"203\",\"1529554\",\"0.0-203.0\",\"\",\"\",\"1-5\",\"4494\",\"37\",\"1\",\"Testing\",\"Stims/Figures/94-J-0-2.bmp\",\"tapata\",\"Left\",\"37\",\"3\",\"7\",\"4\",\"P\",\"C\",\"55\"
\"\",\"\",\"approach-retreat\",\"204\",\"1535874\",\"0.0-204.0\",\"\",\"\",\"1-5\",\"4814\",\"37\",\"1\",\"Testing\",\"Stims/Figures/87-J-10-4.bmp\",\"ta:paka\",\"Left\",\"37\",\"3\",\"8\",\"4\",\"P\",\"C\",\"56\"
\"\",\"\",\"approach-retreat\",\"205\",\"1541724\",\"0.0-205.0\",\"\",\"\",\"1-5\",\"4342\",\"37\",\"1\",\"Testing\",\"Stims/Figures/118-J-0-2.bmp\",\"ta:kata\",\"Left\",\"37\",\"3\",\"9\",\"4\",\"P\",\"C\",\"57\"
\"\",\"\",\"approach-retreat\",\"206\",\"1547896\",\"0.0-206.0\",\"\",\"\",\"1-5\",\"4662\",\"39\",\"1\",\"Testing\",\"Stims/Figures/71-C-30-1.bmp\",\"na:mana\",\"Left\",\"39\",\"3\",\"10\",\"4\",\"S\",\"C\",\"58\"
\"\",\"\",\"approach-retreat\",\"207\",\"1554526\",\"0.0-207.0\",\"\",\"\",\"1-5\",\"5122\",\"37\",\"1\",\"Testing\",\"Stims/Figures/144-C-30-3.bmp\",\"ma:mana\",\"Right\",\"37\",\"3\",\"11\",\"4\",\"S\",\"C\",\"59\"
\"\",\"\",\"approach-retreat\",\"208\",\"1563060\",\"0.0-208.0\",\"\",\"\",\"1-5\",\"7028\",\"39\",\"1\",\"Testing\",\"Stims/Figures/100-J-10-3.bmp\",\"pa:kaka\",\"Right\",\"39\",\"3\",\"12\",\"4\",\"P\",\"C\",\"60\"
\"\",\"\",\"approach-retreat\",\"209\",\"1569856\",\"0.0-209.0\",\"\",\"\",\"1-5\",\"5290\",\"39\",\"0\",\"Testing\",\"Stims/Figures/57-C-30-1.bmp\",\"ma:lala\",\"Right\",\"37\",\"3\",\"13\",\"4\",\"S\",\"C\",\"61\"
\"\",\"\",\"approach-retreat\",\"210\",\"1575666\",\"0.0-210.0\",\"\",\"\",\"1-5\",\"4302\",\"38\",\"0\",\"Testing\",\"Stims/Figures/71-J-0-1.bmp\",\"pakaka\",\"Down\",\"40\",\"3\",\"14\",\"4\",\"P\",\"C\",\"62\"
\"\",\"\",\"approach-retreat\",\"211\",\"1582398\",\"0.0-211.0\",\"\",\"\",\"1-5\",\"5224\",\"38\",\"1\",\"Testing\",\"Stims/Figures/57-J-0-1.bmp\",\"ta:pa:ta\",\"Up\",\"38\",\"3\",\"15\",\"4\",\"P\",\"C\",\"63\"
\"\",\"\",\"approach-retreat\",\"212\",\"1588680\",\"0.0-212.0\",\"\",\"\",\"1-5\",\"4776\",\"38\",\"1\",\"Testing\",\"Stims/Figures/19-C-20-4.bmp\",\"na:la:la\",\"Down\",\"38\",\"3\",\"16\",\"4\",\"S\",\"C\",\"64\"
\"\",\"\",\"approach-retreat\",\"213\",\"1596948\",\"0.0-213.0\",\"\",\"\",\"1-5\",\"6758\",\"37\",\"1\",\"Testing\",\"Stims/Figures/144-J-10-3.bmp\",\"paka:ta\",\"Left\",\"37\",\"3\",\"17\",\"4\",\"P\",\"C\",\"65\"
\"\",\"\",\"approach-retreat\",\"214\",\"1602946\",\"0.0-214.0\",\"\",\"\",\"1-5\",\"4492\",\"40\",\"1\",\"Testing\",\"Stims/Figures/7-J-10-4.bmp\",\"tapa:ka\",\"Down\",\"40\",\"3\",\"18\",\"4\",\"P\",\"C\",\"66\"
\"\",\"\",\"approach-retreat\",\"215\",\"1609910\",\"0.0-215.0\",\"\",\"\",\"1-5\",\"5458\",\"39\",\"0\",\"Testing\",\"Stims/Figures/94-C-20-2.bmp\",\"na:mala\",\"Right\",\"37\",\"3\",\"19\",\"4\",\"S\",\"C\",\"67\"
\"\",\"\",\"approach-retreat\",\"216\",\"1616016\",\"0.0-216.0\",\"\",\"\",\"1-5\",\"4598\",\"38\",\"0\",\"Testing\",\"Stims/Figures/86-C-30-1.bmp\",\"nama:na\",\"Up\",\"40\",\"3\",\"20\",\"4\",\"S\",\"C\",\"68\"
\"\",\"\",\"approach-retreat\",\"217\",\"1622288\",\"0.0-217.0\",\"\",\"\",\"1-5\",\"4764\",\"39\",\"0\",\"Testing\",\"Stims/Figures/87-C-20-4.bmp\",\"namala\",\"Right\",\"37\",\"3\",\"21\",\"4\",\"S\",\"C\",\"69\"
\"\",\"\",\"approach-retreat\",\"218\",\"1628472\",\"0.0-218.0\",\"\",\"\",\"1-5\",\"4678\",\"38\",\"1\",\"Testing\",\"Stims/Figures/86-J-0-1.bmp\",\"taka:ka\",\"Up\",\"38\",\"3\",\"22\",\"4\",\"P\",\"C\",\"70\"
\"\",\"\",\"approach-retreat\",\"219\",\"1634870\",\"0.0-219.0\",\"\",\"\",\"1-5\",\"4890\",\"40\",\"0\",\"Testing\",\"Stims/Figures/128-C-30-3.bmp\",\"ma:mala\",\"Down\",\"38\",\"3\",\"23\",\"4\",\"S\",\"C\",\"71\"
\"\",\"\",\"approach-retreat\",\"220\",\"1640936\",\"0.0-220.0\",\"\",\"\",\"1-5\",\"4558\",\"38\",\"1\",\"Testing\",\"Stims/Figures/139-J-0-2.bmp\",\"pa:pa:ta\",\"Up\",\"38\",\"3\",\"24\",\"4\",\"P\",\"C\",\"72\"
\"\",\"\",\"approach-retreat\",\"221\",\"1647014\",\"0.0-221.0\",\"\",\"\",\"1-5\",\"4576\",\"39\",\"1\",\"Testing\",\"Stims/Figures/128-J-10-3.bmp\",\"pa:pa:ka\",\"Right\",\"39\",\"4\",\"1\",\"4\",\"P\",\"C\",\"73\"
\"\",\"\",\"approach-retreat\",\"222\",\"1654382\",\"0.0-222.0\",\"\",\"\",\"1-5\",\"5862\",\"39\",\"1\",\"Testing\",\"Stims/Figures/144-J-10-3.bmp\",\"paka:ta\",\"Right\",\"39\",\"4\",\"2\",\"4\",\"P\",\"C\",\"74\"
\"\",\"\",\"approach-retreat\",\"223\",\"1660072\",\"0.0-223.0\",\"\",\"\",\"1-5\",\"4182\",\"38\",\"0\",\"Testing\",\"Stims/Figures/100-J-10-3.bmp\",\"pa:kaka\",\"Down\",\"40\",\"4\",\"3\",\"4\",\"P\",\"C\",\"75\"
\"\",\"\",\"approach-retreat\",\"224\",\"1667018\",\"0.0-224.0\",\"\",\"\",\"1-5\",\"5440\",\"37\",\"1\",\"Testing\",\"Stims/Figures/57-J-0-1.bmp\",\"ta:pa:ta\",\"Left\",\"37\",\"4\",\"4\",\"4\",\"P\",\"C\",\"76\"
\"\",\"\",\"approach-retreat\",\"225\",\"1674298\",\"0.0-225.0\",\"\",\"\",\"1-5\",\"5774\",\"40\",\"0\",\"Testing\",\"Stims/Figures/87-J-10-4.bmp\",\"ta:paka\",\"Up\",\"38\",\"4\",\"5\",\"4\",\"P\",\"C\",\"77\"
\"\",\"\",\"approach-retreat\",\"226\",\"1680668\",\"0.0-226.0\",\"\",\"\",\"1-5\",\"4864\",\"40\",\"0\",\"Testing\",\"Stims/Figures/57-C-30-1.bmp\",\"ma:lala\",\"Down\",\"38\",\"4\",\"6\",\"4\",\"S\",\"C\",\"78\"
\"\",\"\",\"approach-retreat\",\"227\",\"1686392\",\"0.0-227.0\",\"\",\"\",\"1-5\",\"4218\",\"39\",\"0\",\"Testing\",\"Stims/Figures/71-J-0-1.bmp\",\"pakaka\",\"Left\",\"37\",\"4\",\"7\",\"4\",\"P\",\"C\",\"79\"
\"\",\"\",\"approach-retreat\",\"228\",\"1692168\",\"0.0-228.0\",\"\",\"\",\"1-5\",\"4270\",\"37\",\"0\",\"Testing\",\"Stims/Figures/128-C-30-3.bmp\",\"ma:mala\",\"Left\",\"39\",\"4\",\"8\",\"4\",\"S\",\"C\",\"80\"
\"\",\"\",\"approach-retreat\",\"229\",\"1698626\",\"0.0-229.0\",\"\",\"\",\"1-5\",\"4954\",\"38\",\"0\",\"Testing\",\"Stims/Figures/71-C-30-1.bmp\",\"na:mana\",\"Up\",\"40\",\"4\",\"9\",\"4\",\"S\",\"C\",\"81\"
\"\",\"\",\"approach-retreat\",\"230\",\"1704446\",\"0.0-230.0\",\"\",\"\",\"1-5\",\"4310\",\"38\",\"1\",\"Testing\",\"Stims/Figures/94-J-0-2.bmp\",\"tapata\",\"Up\",\"38\",\"4\",\"10\",\"4\",\"P\",\"C\",\"82\"
\"\",\"\",\"approach-retreat\",\"231\",\"1710084\",\"0.0-231.0\",\"\",\"\",\"1-5\",\"4132\",\"38\",\"1\",\"Testing\",\"Stims/Figures/118-C-20-2.bmp\",\"na:lala\",\"Down\",\"38\",\"4\",\"11\",\"4\",\"S\",\"C\",\"83\"
\"\",\"\",\"approach-retreat\",\"232\",\"1715792\",\"0.0-232.0\",\"\",\"\",\"1-5\",\"4202\",\"40\",\"0\",\"Testing\",\"Stims/Figures/139-C-20-2.bmp\",\"na:lana\",\"Down\",\"38\",\"4\",\"12\",\"4\",\"S\",\"C\",\"84\"
\"\",\"\",\"approach-retreat\",\"233\",\"1721394\",\"0.0-233.0\",\"\",\"\",\"1-5\",\"4092\",\"38\",\"0\",\"Testing\",\"Stims/Figures/118-J-0-2.bmp\",\"ta:kata\",\"Down\",\"40\",\"4\",\"13\",\"4\",\"P\",\"C\",\"85\"
\"\",\"\",\"approach-retreat\",\"234\",\"1727374\",\"0.0-234.0\",\"\",\"\",\"1-5\",\"4474\",\"39\",\"1\",\"Testing\",\"Stims/Figures/19-J-10-4.bmp\",\"papa:ka\",\"Right\",\"39\",\"4\",\"14\",\"4\",\"P\",\"C\",\"86\"
\"\",\"\",\"approach-retreat\",\"235\",\"1733944\",\"0.0-235.0\",\"\",\"\",\"1-5\",\"5062\",\"39\",\"1\",\"Testing\",\"Stims/Figures/86-C-30-1.bmp\",\"nama:na\",\"Left\",\"39\",\"4\",\"15\",\"4\",\"S\",\"C\",\"87\"
\"\",\"\",\"approach-retreat\",\"236\",\"1739712\",\"0.0-236.0\",\"\",\"\",\"1-5\",\"4264\",\"39\",\"1\",\"Testing\",\"Stims/Figures/7-J-10-4.bmp\",\"tapa:ka\",\"Right\",\"39\",\"4\",\"16\",\"4\",\"P\",\"C\",\"88\"
\"\",\"\",\"approach-retreat\",\"237\",\"1748238\",\"0.0-237.0\",\"\",\"\",\"1-5\",\"7018\",\"40\",\"1\",\"Testing\",\"Stims/Figures/139-J-0-2.bmp\",\"pa:pa:ta\",\"Down\",\"40\",\"4\",\"17\",\"4\",\"P\",\"C\",\"89\"
\"\",\"\",\"approach-retreat\",\"238\",\"1754440\",\"0.0-238.0\",\"\",\"\",\"1-5\",\"4696\",\"40\",\"1\",\"Testing\",\"Stims/Figures/100-C-30-3.bmp\",\"ma:la:na\",\"Up\",\"40\",\"4\",\"18\",\"4\",\"S\",\"C\",\"90\"
\"\",\"\",\"approach-retreat\",\"239\",\"1760926\",\"0.0-239.0\",\"\",\"\",\"1-5\",\"4978\",\"40\",\"1\",\"Testing\",\"Stims/Figures/19-C-20-4.bmp\",\"na:la:la\",\"Up\",\"40\",\"4\",\"19\",\"4\",\"S\",\"C\",\"91\"
\"\",\"\",\"approach-retreat\",\"240\",\"1767206\",\"0.0-240.0\",\"\",\"\",\"1-5\",\"4774\",\"37\",\"0\",\"Testing\",\"Stims/Figures/144-C-30-3.bmp\",\"ma:mana\",\"Left\",\"39\",\"4\",\"20\",\"4\",\"S\",\"C\",\"92\"
\"\",\"\",\"approach-retreat\",\"241\",\"1773508\",\"0.0-241.0\",\"\",\"\",\"1-5\",\"4794\",\"39\",\"0\",\"Testing\",\"Stims/Figures/7-C-20-4.bmp\",\"nalana\",\"Right\",\"37\",\"4\",\"21\",\"4\",\"S\",\"C\",\"93\"
\"\",\"\",\"approach-retreat\",\"242\",\"1779156\",\"0.0-242.0\",\"\",\"\",\"1-5\",\"4140\",\"38\",\"0\",\"Testing\",\"Stims/Figures/87-C-20-4.bmp\",\"namala\",\"Up\",\"40\",\"4\",\"22\",\"4\",\"S\",\"C\",\"94\"
\"\",\"\",\"approach-retreat\",\"243\",\"1784912\",\"0.0-243.0\",\"\",\"\",\"1-5\",\"4250\",\"37\",\"1\",\"Testing\",\"Stims/Figures/86-J-0-1.bmp\",\"taka:ka\",\"Left\",\"37\",\"4\",\"23\",\"4\",\"P\",\"C\",\"95\"
\"\",\"\",\"approach-retreat\",\"244\",\"1791516\",\"0.0-244.0\",\"\",\"\",\"1-5\",\"5094\",\"39\",\"0\",\"Testing\",\"Stims/Figures/94-C-20-2.bmp\",\"na:mala\",\"Right\",\"37\",\"4\",\"24\",\"4\",\"S\",\"C\",\"96\"
\"34904\",\"\",\"survey-text\",\"245\",\"1826434\",\"0.0-245.0\",\"\",\"{\"\"Q0\"\":\"\"PS150048\"\"}\",\"\",\"\",\"\",\"\",\"\",\"\",\"\",\"\",\"\",\"\",\"\",\"\",\"\",\"\",\"\"
